timeStamp,timeStampAlign,roll,pitch,yaw,gyro_x,gyro_y,gyro_z,acc_x,acc_y,acc_z,flag_num
1758075028.77283,1758075028.66003,0.0,0.0,0.0,-24.92367,-72.70835,8.25059,7.72,-1.94,-0.18,4.0
1758075028.77404,1758075028.67003,0.0,0.0,0.0,-16.55848,-66.80688,4.81285,7.72,-1.94,-0.18,4.0
1758075028.78881,1758075028.68003,0.0,0.0,0.0,-12.54778,-58.67088,0.57296,10.02,-1.39,2.48,4.0
1758075028.80549,1758075028.69003,0.0,0.0,0.0,-7.10468,-53.97263,-4.69825,10.02,-1.39,2.48,4.0
1758075028.80602,1758075028.70003,0.0,0.0,0.0,-3.32316,-50.2484,-14.32395,15.87,-1.76,7.47,4.0
1758075028.82107,1758075028.71003,0.0,0.0,0.0,8.25059,-48.9879,-32.08564,20.21,-6.24,7.02,4.0
1758075028.82203,1758075028.72003,0.0,0.0,0.0,18.16276,-57.0093,-41.02378,20.21,-6.24,7.02,4.0
1758075028.83686,1758075028.73003,0.0,0.0,0.0,30.82513,-61.53567,-42.85724,15.43,-9.26,4.66,4.0
1758075028.85313,1758075028.74003,0.0,0.0,0.0,41.42485,-43.02913,-41.42485,15.43,-9.26,4.66,4.0
1758075028.85405,1758075028.75003,0.0,0.0,0.0,57.12389,-6.58902,-37.35685,17.91,-7.56,3.33,4.0
1758075028.86914,1758075028.76003,0.0,0.0,0.0,65.83286,3.60963,-33.9764,17.91,-7.56,3.33,4.0
1758075028.88492,1758075028.77003,0.0,0.0,0.0,72.53646,11.63104,-29.8511,16.45,-4.27,1.81,4.0
1758075028.88686,1758075028.78003,0.0,0.0,0.0,77.29202,30.65324,-19.82434,16.45,-4.27,1.81,4.0
1758075028.90202,1758075028.79003,0.0,0.0,0.0,77.52119,45.09178,-11.17268,14.76,-0.91,1.1,4.0
1758075028.9035,1758075028.80003,0.0,0.0,0.0,75.22936,57.92604,-2.86479,14.43,1.38,1.2,4.0
1758075028.91789,1758075028.81003,0.0,0.0,0.0,71.04677,62.68159,4.46907,14.43,1.38,1.2,4.0
1758075028.93662,1758075028.82003,0.0,0.0,0.0,62.5097,63.59832,11.97482,12.56,2.3,1.69,4.0
1758075028.93747,1758075028.83003,0.0,0.0,0.0,55.6915,64.51505,14.83961,12.56,2.3,1.69,4.0
1758075028.95317,1758075028.84003,0.0,0.0,0.0,48.9306,65.71826,16.10011,11.52,1.99,1.65,4.0
1758075028.95567,1758075028.85003,0.0,0.0,0.0,41.94051,62.56699,15.58445,11.52,1.99,1.65,4.0
1758075028.97195,1758075028.86003,0.0,0.0,0.0,30.82513,54.02992,12.37589,10.34,1.09,1.75,4.0
1758075028.97364,1758075028.87003,0.0,0.0,0.0,25.09555,51.5662,9.68299,9.46,0.37,1.33,4.0
1758075028.98998,1758075028.88003,0.0,0.0,0.0,19.59516,54.60288,6.35983,9.46,0.37,1.33,4.0
1758075028.99266,1758075028.89003,0.0,0.0,0.0,16.21471,58.3844,4.18259,9.4,-0.04,1.58,4.0
1758075029.00996,1758075028.90003,0.0,0.0,0.0,12.37589,53.34238,1.08862,9.4,-0.04,1.58,4.0
1758075029.0115,1758075028.91003,0.0,0.0,0.0,10.65701,43.94586,-1.3178,7.92,-0.02,2.02,4.0
1758075029.02726,1758075028.92003,0.0,0.0,0.0,9.68299,33.9764,-3.60963,7.92,-0.02,2.02,4.0
1758075029.04322,1758075028.93003,0.0,0.0,0.0,9.62569,25.15285,-6.13065,7.27,-0.12,2.01,4.0
1758075029.0459,1758075028.94003,0.0,0.0,0.0,11.22997,13.12073,-8.0787,7.71,-0.68,2.05,4.0
1758075029.0612,1758075028.95003,0.0,0.0,0.0,12.71966,6.18794,-8.65166,7.71,-0.68,2.05,4.0
1758075029.06208,1758075028.96003,0.0,0.0,0.0,14.49583,0.68755,-8.30789,8.22,-1.22,2.05,4.0
1758075029.07714,1758075028.97003,0.0,0.0,0.0,17.24603,-4.98473,-6.70361,8.22,-1.22,2.05,4.0
1758075029.09294,1758075028.98003,0.0,0.0,0.0,18.62113,-7.16197,-4.98473,8.33,-1.63,1.62,4.0
1758075029.09411,1758075028.99003,0.0,0.0,0.0,18.79302,-4.46907,-3.83882,8.33,-1.63,1.62,4.0
1758075029.10923,1758075029.00003,0.0,0.0,0.0,19.99623,-0.97403,-1.43239,8.3,-1.61,1.64,4.0
1758075029.11209,1758075029.01003,0.0,0.0,0.0,18.73572,8.136,1.43239,8.3,-1.61,2.3,4.0
1758075029.12819,1758075029.02003,0.0,0.0,0.0,17.36062,12.54778,3.55234,8.79,-1.14,2.3,4.0
1758075029.14423,1758075029.03003,0.0,0.0,0.0,15.58445,13.06344,4.92744,9.37,-0.38,2.57,4.0
1758075029.14596,1758075029.04003,0.0,0.0,0.0,13.75099,10.8289,5.61499,9.37,-0.38,2.57,4.0
1758075029.16125,1758075029.05003,0.0,0.0,0.0,10.19865,4.52637,4.29718,9.39,-0.05,1.74,4.0
1758075029.16221,1758075029.06003,0.0,0.0,0.0,8.0787,-0.51566,2.34913,9.39,-0.05,1.74,4.0
1758075029.17726,1758075029.07003,0.0,0.0,0.0,6.8182,-3.83882,0.22918,9.04,-0.18,0.79,4.0
1758075029.19331,1758075029.08003,0.0,0.0,0.0,5.90147,-4.52637,-1.71887,9.04,-0.18,0.79,4.0
1758075029.19421,1758075029.09003,0.0,0.0,0.0,5.55769,-3.55234,-4.69825,9.11,-0.46,0.55,4.0
1758075029.20902,1758075029.10003,0.0,0.0,0.0,6.13065,-2.23454,-6.18794,8.67,-0.7,0.22,4.0
1758075029.22523,1758075029.11003,0.0,0.0,0.0,7.33386,-0.80214,-7.44845,8.67,-0.7,0.22,4.0
1758075029.22665,1758075029.12003,0.0,0.0,0.0,8.99544,0.85944,-8.65166,8.15,-0.86,0.08,4.0
1758075029.24182,1758075029.13003,0.0,0.0,0.0,12.83425,3.03668,-10.31324,8.15,-0.86,0.08,4.0
1758075029.2432,1758075029.14003,0.0,0.0,0.0,16.10011,5.21392,-11.57375,7.93,-1.09,0.02,4.0
1758075029.25833,1758075029.15003,0.0,0.0,0.0,19.82434,10.31324,-12.83425,7.93,-1.09,0.02,4.0
1758075029.27408,1758075029.16003,0.0,0.0,0.0,25.09555,17.81899,-15.75634,8.3,-1.42,-0.09,4.0
1758075029.27571,1758075029.17003,0.0,0.0,0.0,28.64789,29.10626,-17.30333,8.68,-1.83,-0.26,4.0
1758075029.2901,1758075029.18003,0.0,0.0,0.0,32.25753,29.62192,-18.33465,8.68,-1.83,-0.26,4.0
1758075029.29233,1758075029.19003,0.0,0.0,0.0,35.92446,24.98096,-18.79302,7.74,-2.09,-0.45,4.0
1758075029.30909,1758075029.20003,0.0,0.0,0.0,41.31026,10.94349,-18.62113,7.74,-2.09,-0.45,4.0
1758075029.32539,1758075029.21003,0.0,0.0,0.0,44.51882,1.94806,-17.99088,7.1,-1.97,-0.59,4.0
1758075029.32625,1758075029.22003,0.0,0.0,0.0,47.38361,-7.10468,-17.13144,7.1,-1.97,-0.59,4.0
1758075029.34131,1758075029.23003,0.0,0.0,0.0,49.56085,-15.29797,-16.21471,7.33,-1.55,-0.36,4.0
1758075029.3423,1758075029.24003,0.0,0.0,0.0,52.71212,-21.6578,-13.75099,8.16,-1.55,0.15,4.0
1758075029.35719,1758075029.25003,0.0,0.0,0.0,54.71747,-21.42862,-11.97482,8.16,-1.08,0.15,4.0
1758075029.37308,1758075029.26003,0.0,0.0,0.0,55.97798,-22.40265,-10.37054,8.89,-0.76,0.18,4.0
1758075029.37688,1758075029.27003,0.0,0.0,0.0,56.37905,-26.81443,-8.76626,8.89,-0.76,0.18,4.0
1758075029.39213,1758075029.28003,0.0,0.0,0.0,54.71747,-33.34615,-5.78687,8.3,-0.62,-0.33,4.0
1758075029.39328,1758075029.29003,0.0,0.0,0.0,51.90998,-36.32552,-5.27121,8.3,-0.62,-0.33,4.0
1758075029.40842,1758075029.30003,0.0,0.0,0.0,49.21708,-43.4875,-3.72423,7.75,-0.41,-0.68,4.0
1758075029.42515,1758075029.31003,0.0,0.0,0.0,46.06581,-50.64947,-1.71887,7.75,-0.41,-0.68,4.0
1758075029.4266,1758075029.32003,0.0,0.0,0.0,41.08107,-59.01466,1.08862,7.38,-0.28,-0.63,4.0
1758075029.44163,1758075029.33003,0.0,0.0,0.0,38.15899,-63.02536,2.86479,7.66,-0.26,-0.41,4.0
1758075029.4423,1758075029.34003,0.0,0.0,0.0,35.52338,-65.89015,3.89611,7.66,-0.26,-0.41,4.0
1758075029.45741,1758075029.35003,0.0,0.0,0.0,33.17426,-67.03606,4.35448,8.76,-0.39,0.5,4.0
1758075029.4734,1758075029.36003,0.0,0.0,0.0,30.65324,-64.22858,4.87014,8.76,-0.39,0.5,4.0
1758075029.47478,1758075029.37003,0.0,0.0,0.0,29.73651,-55.57691,5.84417,11.73,-0.35,2.14,4.0
1758075029.48945,1758075029.38003,0.0,0.0,0.0,27.96034,-45.26366,7.39116,11.73,-0.35,2.14,4.0
1758075029.49115,1758075029.39003,0.0,0.0,0.0,19.36597,-65.08801,12.37589,16.1,0.85,5.11,4.0
1758075029.50742,1758075029.40003,0.0,0.0,0.0,13.80828,-80.95895,19.59516,15.5,4.47,5.87,4.0
1758075029.52341,1758075029.41003,0.0,0.0,0.0,7.62034,-92.81918,25.61122,15.5,4.47,5.87,4.0
1758075029.52515,1758075029.42003,0.0,0.0,0.0,3.66693,-86.91771,30.48136,14.58,5.58,3.52,4.0
1758075029.54044,1758075029.43003,0.0,0.0,0.0,-1.08862,-48.8733,33.34615,14.58,5.58,3.52,4.0
1758075029.54136,1758075029.44003,0.0,0.0,0.0,-4.81285,-13.46451,32.71589,15.9,4.61,2.58,4.0
1758075029.55717,1758075029.45003,0.0,0.0,0.0,-9.91217,17.93358,29.27814,15.9,4.61,2.58,4.0
1758075029.57504,1758075029.46003,0.0,0.0,0.0,-14.38124,30.82513,24.57989,14.34,3.64,2.18,4.0
1758075029.57757,1758075029.47003,0.0,0.0,0.0,-21.42862,7.62034,19.76705,10.96,2.86,1.95,4.0
1758075029.59323,1758075029.48003,0.0,0.0,0.0,-23.66316,5.32851,15.75634,10.96,2.86,1.95,4.0
1758075029.5952,1758075029.49003,0.0,0.0,0.0,-26.47065,10.37054,10.65701,13.87,1.43,0.44,4.0
1758075029.61057,1758075029.50003,0.0,0.0,0.0,-30.02299,24.29341,4.87014,13.87,1.43,0.44,4.0
1758075029.61142,1758075029.51003,0.0,0.0,0.0,-33.86181,50.59217,-3.66693,14.44,0.56,1.07,4.0
1758075029.62756,1758075029.52003,0.0,0.0,0.0,-34.95043,64.40046,-8.30789,14.44,0.56,1.07,4.0
1758075029.64317,1758075029.53003,0.0,0.0,0.0,-35.12231,70.53111,-12.14671,12.32,0.36,1.0,4.0
1758075029.6445,1758075029.54003,0.0,0.0,0.0,-34.77854,72.82294,-14.38124,12.32,0.36,1.0,4.0
1758075029.65947,1758075029.55003,0.0,0.0,0.0,-33.68992,67.15066,-15.98552,10.51,0.37,1.12,4.0
1758075029.66285,1758075029.56003,0.0,0.0,0.0,-32.14294,59.47303,-15.98552,9.56,0.34,1.3,4.0
1758075029.68011,1758075029.57003,0.0,0.0,0.0,-30.19488,52.36834,-15.29797,9.56,0.34,1.3,4.0
1758075029.69554,1758075029.58003,0.0,0.0,0.0,-26.69983,39.19032,-12.83425,9.64,0.38,1.22,4.0
1758075029.69724,1758075029.59003,0.0,0.0,0.0,-24.75178,31.2262,-10.65701,9.64,0.38,1.22,4.0
1758075029.71259,1758075029.60003,0.0,0.0,0.0,-23.72045,25.43933,-8.25059,9.69,0.45,1.39,4.0
1758075029.71347,1758075029.61003,0.0,0.0,0.0,-22.91831,23.49127,-6.07335,9.69,0.45,1.39,4.0
1758075029.7291,1758075029.62003,0.0,0.0,0.0,-21.02755,38.78925,-1.20321,10.08,0.43,1.12,4.0
1758075029.74561,1758075029.63003,0.0,0.0,0.0,-19.70975,47.32632,1.3751,10.44,0.29,1.22,4.0
1758075029.74649,1758075029.64003,0.0,0.0,0.0,-18.90761,47.61279,2.6929,10.44,0.29,1.22,4.0
1758075029.76262,1758075029.65003,0.0,0.0,0.0,-18.62113,42.22699,3.20856,8.51,0.21,1.45,4.0
1758075029.76347,1758075029.66003,0.0,0.0,0.0,-18.33465,31.56997,2.97938,8.51,0.21,1.45,4.0
1758075029.77936,1758075029.67003,0.0,0.0,0.0,-18.50654,25.7831,2.23454,7.97,0.18,1.08,4.0
1758075029.79562,1758075029.68003,0.0,0.0,0.0,-18.73572,22.00158,1.03132,7.97,0.18,1.08,4.0
1758075029.79924,1758075029.69003,0.0,0.0,0.0,-19.07949,19.76705,-0.17189,8.23,0.22,1.22,4.0
1758075029.81542,1758075029.70003,0.0,0.0,0.0,-19.99623,17.30333,-2.29183,8.31,0.36,1.21,4.0
1758075029.81712,1758075029.71003,0.0,0.0,0.0,-20.51189,16.272,-3.49504,8.31,0.36,1.21,4.0
1758075029.89734,1758075029.72003,0.0,0.0,0.0,-21.37133,15.41257,-4.1253,8.28,0.51,0.94,4.0
1758075029.9025,1758075029.73003,0.0,0.0,0.0,-22.34536,14.78231,-4.29718,8.28,0.51,0.94,4.0
1758075029.9056,1758075029.74003,0.0,0.0,0.0,-24.17882,13.12073,-3.55234,8.1,0.6,0.54,4.0
1758075029.90888,1758075029.75003,0.0,0.0,0.0,-25.55392,11.34457,-2.6929,8.1,0.6,0.54,4.0
1758075029.91112,1758075029.76003,0.0,0.0,0.0,-26.98631,9.39651,-1.3178,7.87,0.68,0.23,4.0
1758075029.91274,1758075029.77003,0.0,0.0,0.0,-29.22085,6.47442,1.43239,7.87,0.68,0.23,4.0
1758075029.91376,1758075029.78003,0.0,0.0,0.0,-30.65324,0.74485,3.66693,7.64,0.74,-0.04,4.0
1758075029.91484,1758075029.79003,0.0,0.0,0.0,-32.14294,-3.66693,5.90147,7.52,0.73,-0.16,4.0
1758075029.91642,1758075029.80003,0.0,0.0,0.0,-33.51803,-7.33386,8.76626,7.52,0.73,-0.16,4.0
1758075029.91719,1758075029.81003,0.0,0.0,0.0,-35.06502,-11.28727,11.86023,7.9,0.64,-0.02,4.0
1758075029.93449,1758075029.82003,0.0,0.0,0.0,-35.86716,-13.5218,13.80828,7.9,0.64,-0.02,4.0
1758075029.93698,1758075029.83003,0.0,0.0,0.0,-36.26823,-15.0115,14.83961,8.28,0.51,0.23,4.0
1758075029.95266,1758075029.84003,0.0,0.0,0.0,-36.61201,-15.58445,15.58445,8.28,0.51,0.23,4.0
1758075029.95548,1758075029.85003,0.0,0.0,0.0,-36.15364,-14.32395,15.58445,8.64,0.28,0.37,4.0
1758075030.01432,1758075029.86003,0.0,0.0,0.0,-22.74642,-31.51268,15.29797,8.9,0.02,0.38,4.0
1758075030.01688,1758075029.87003,0.0,0.0,0.0,-5.09932,-50.53488,14.32395,8.9,0.02,0.38,4.0
1758075030.0175,1758075029.88003,0.0,0.0,0.0,-16.67307,-26.01229,13.69369,8.94,-0.21,0.28,4.0
1758075030.02279,1758075029.89003,0.0,0.0,0.0,-30.99702,-13.06344,12.54778,8.94,-0.21,0.28,4.0
1758075030.02766,1758075029.90003,0.0,0.0,0.0,-29.50733,-14.09476,12.204,9.02,-0.34,0.06,4.0
1758075030.02898,1758075029.91003,0.0,0.0,0.0,-27.38738,-14.66772,11.97482,9.02,-0.34,0.06,4.0
1758075030.03001,1758075029.92003,0.0,0.0,0.0,-25.26744,-14.78231,12.204,9.16,-0.39,-0.18,4.0
1758075030.03367,1758075029.93003,0.0,0.0,0.0,-21.14215,-13.34992,12.71966,9.41,-0.43,-0.36,4.0
1758075030.0487,1758075029.94003,0.0,0.0,0.0,-17.81899,-11.86023,13.06344,9.41,-0.43,-0.36,4.0
1758075030.06562,1758075029.95003,0.0,0.0,0.0,-14.20935,-10.54242,13.00614,9.5,-0.48,-0.59,4.0
1758075030.06683,1758075029.96003,0.0,0.0,0.0,-10.54242,-10.65701,12.77696,9.5,-0.48,-0.59,4.0
1758075030.08252,1758075029.97003,0.0,0.0,0.0,-4.92744,-13.17803,11.86023,9.17,-0.53,-0.66,4.0
1758075030.08534,1758075029.98003,0.0,0.0,0.0,-1.43239,-15.69904,10.94349,9.17,-0.53,-0.66,4.0
1758075030.10157,1758075029.99003,0.0,0.0,0.0,1.71887,-18.27736,9.62569,8.8,-0.54,-0.64,4.0
1758075030.10673,1758075030.00003,0.0,0.0,0.0,5.84417,-21.7151,7.67763,8.8,-0.54,-0.64,4.0
1758075030.12231,1758075030.01003,0.0,0.0,0.0,8.136,-23.89234,6.35983,8.5,-0.46,-0.4,4.0
1758075030.13216,1758075030.02003,0.0,0.0,0.0,9.96947,-26.69983,4.46907,8.77,-0.14,1.01,4.0
1758075030.13366,1758075030.03003,0.0,0.0,0.0,11.45916,-29.50733,2.29183,8.77,-0.14,1.01,4.0
1758075030.1516,1758075030.04003,0.0,0.0,0.0,12.43318,-29.04896,-3.09397,10.78,-0.1,3.4,4.0
1758075030.15248,1758075030.05003,0.0,0.0,0.0,11.97482,-27.04361,-8.42248,10.78,-0.1,3.4,4.0
1758075030.16746,1758075030.06003,0.0,0.0,0.0,12.60507,-26.35606,-14.32395,13.52,-1.26,6.0,4.0
1758075030.16947,1758075030.07003,0.0,0.0,0.0,13.75099,-28.07493,-20.11082,13.52,-1.26,6.0,4.0
1758075030.18505,1758075030.08003,0.0,0.0,0.0,16.73037,-44.00316,-27.61657,12.17,-3.39,5.52,4.0
1758075030.20079,1758075030.09003,0.0,0.0,0.0,17.99088,-54.77477,-29.27814,9.89,-3.98,3.82,4.0
1758075030.20166,1758075030.10003,0.0,0.0,0.0,21.31403,-54.25911,-30.25217,9.89,-3.98,3.82,4.0
1758075030.21652,1758075030.11003,0.0,0.0,0.0,24.98096,-47.67009,-29.96569,13.12,-3.36,2.38,4.0
1758075030.23251,1758075030.12003,0.0,0.0,0.0,31.16891,-20.34,-27.44468,13.12,-3.36,2.38,4.0
1758075030.23449,1758075030.13003,0.0,0.0,0.0,35.06502,-5.61499,-24.17882,16.93,-2.45,1.87,4.0
1758075030.2495,1758075030.14003,0.0,0.0,0.0,37.92981,2.46372,-20.05352,16.93,-2.45,1.87,4.0
1758075030.2518,1758075030.15003,0.0,0.0,0.0,39.70598,9.39651,-14.20935,16.0,-1.18,1.58,4.0
1758075030.26751,1758075030.16003,0.0,0.0,0.0,39.01843,18.44924,-5.32851,14.34,-0.19,1.32,4.0
1758075030.28461,1758075030.17003,0.0,0.0,0.0,37.24226,24.00693,0.45837,14.34,-0.19,1.32,4.0
1758075030.28556,1758075030.18003,0.0,0.0,0.0,35.00772,26.81443,5.55769,12.77,0.18,1.59,4.0
1758075030.30266,1758075030.19003,0.0,0.0,0.0,30.25217,26.98631,11.51645,12.77,0.18,1.59,4.0
1758075030.30384,1758075030.20003,0.0,0.0,0.0,27.1582,27.50197,14.83961,11.14,0.35,1.73,4.0
1758075030.32045,1758075030.21003,0.0,0.0,0.0,24.4653,30.65324,16.84496,11.14,0.35,1.73,4.0
1758075030.32327,1758075030.22003,0.0,0.0,0.0,21.42862,34.0337,17.18874,10.72,0.25,1.32,4.0
1758075030.33883,1758075030.23003,0.0,0.0,0.0,17.30333,35.75257,15.29797,10.72,0.25,1.32,4.0
1758075030.34014,1758075030.24003,0.0,0.0,0.0,14.83961,36.15364,13.12073,10.23,0.26,1.12,4.0
1758075030.35757,1758075030.25003,0.0,0.0,0.0,12.83425,34.14828,10.31324,9.46,0.23,1.03,4.0
1758075030.37262,1758075030.26003,0.0,0.0,0.0,11.34457,31.45539,7.39116,9.46,0.23,1.03,4.0
1758075030.37456,1758075030.27003,0.0,0.0,0.0,10.19865,28.36141,3.89611,8.7,0.13,1.19,4.0
1758075030.39228,1758075030.28003,0.0,0.0,0.0,10.31324,28.99167,2.00535,8.7,0.13,1.19,4.0
1758075030.39667,1758075030.29003,0.0,0.0,0.0,10.54242,29.8511,0.17189,8.64,-0.1,1.34,4.0
1758075030.43719,1758075030.30003,0.0,0.0,0.0,11.28727,28.70519,-1.3751,8.64,-0.1,1.34,4.0
1758075030.43847,1758075030.31003,0.0,0.0,0.0,12.77696,22.63183,-3.09397,8.46,-0.47,1.35,4.0
1758075030.44278,1758075030.32003,0.0,0.0,0.0,14.03747,16.67307,-3.83882,8.07,-0.9,1.15,4.0
1758075030.44962,1758075030.33003,0.0,0.0,0.0,15.29797,10.31324,-4.46907,8.07,-0.9,1.15,4.0
1758075030.45208,1758075030.34003,0.0,0.0,0.0,16.84496,6.41713,-4.58366,7.95,-1.18,0.86,4.0
1758075030.45379,1758075030.35003,0.0,0.0,0.0,19.13679,7.16197,-4.58366,7.95,-1.18,0.86,4.0
1758075030.47127,1758075030.36003,0.0,0.0,0.0,20.34,10.25595,-4.58366,8.24,-1.2,0.74,4.0
1758075030.47248,1758075030.37003,0.0,0.0,0.0,21.37133,12.43318,-4.46907,8.24,-1.2,0.74,4.0
1758075030.48796,1758075030.38003,0.0,0.0,0.0,21.48592,15.0115,-4.98473,8.07,-1.0,0.54,4.0
1758075030.48977,1758075030.39003,0.0,0.0,0.0,21.48592,17.76169,-5.15662,7.89,-0.66,0.3,4.0
1758075030.50776,1758075030.40003,0.0,0.0,0.0,21.31403,18.33465,-4.98473,7.89,-0.66,0.3,4.0
1758075030.51276,1758075030.41003,0.0,0.0,0.0,20.68378,17.13144,-5.15662,7.75,-0.38,0.22,4.0
1758075030.53934,1758075030.42003,0.0,0.0,0.0,19.25138,11.34457,-5.4431,7.75,-0.38,0.22,4.0
1758075030.5405,1758075030.43003,0.0,0.0,0.0,18.16276,6.7609,-6.13065,7.57,-0.26,0.12,4.0
1758075030.54087,1758075030.44003,0.0,0.0,0.0,17.01685,2.97938,-7.04738,7.57,-0.26,0.12,4.0
1758075030.55777,1758075030.45003,0.0,0.0,0.0,16.272,0.17189,-7.62034,7.84,-0.3,0.03,4.0
1758075030.5629,1758075030.46003,0.0,0.0,0.0,15.24068,-3.49504,-8.88085,7.84,-0.3,-0.08,4.0
1758075030.57793,1758075030.47003,0.0,0.0,0.0,14.72501,-6.35983,-9.62569,8.15,-0.45,-0.08,4.0
1758075030.58057,1758075030.48003,0.0,0.0,0.0,13.86558,-9.11003,-10.8862,8.23,-0.64,-0.21,4.0
1758075030.59683,1758075030.49003,0.0,0.0,0.0,13.17803,-10.8289,-12.2613,8.23,-0.64,-0.21,4.0
1758075030.61297,1758075030.50003,0.0,0.0,0.0,11.91752,-8.93814,-13.86558,8.66,-0.84,-0.33,4.0
1758075030.61741,1758075030.51003,0.0,0.0,0.0,11.22997,-7.33386,-14.61043,8.66,-0.84,-0.33,4.0
1758075030.63705,1758075030.52003,0.0,0.0,0.0,10.48513,-6.58902,-14.66772,9.14,-0.96,-0.42,4.0
1758075030.64136,1758075030.53003,0.0,0.0,0.0,9.68299,-6.35983,-14.03747,9.14,-0.96,-0.42,4.0
1758075030.64252,1758075030.54003,0.0,0.0,0.0,7.21927,-8.0787,-13.46451,9.08,-0.95,-0.53,4.0
1758075030.66171,1758075030.55003,0.0,0.0,0.0,5.78687,-12.89155,-11.97482,8.36,-0.85,-0.57,4.0
1758075030.663,1758075030.56003,0.0,0.0,0.0,4.35448,-16.38659,-9.91217,8.36,-0.85,-0.57,4.0
1758075030.68201,1758075030.57003,0.0,0.0,0.0,3.32316,-17.76169,-7.73493,8.41,-0.94,-0.56,4.0
1758075030.68318,1758075030.58003,0.0,0.0,0.0,2.40642,-19.07949,-4.52637,8.41,-0.94,-0.56,4.0
1758075030.69798,1758075030.59003,0.0,0.0,0.0,2.29183,-20.16812,-2.06265,8.43,-1.22,-0.66,4.0
1758075030.70331,1758075030.60003,0.0,0.0,0.0,2.40642,-21.94428,-0.22918,8.43,-1.22,-0.66,4.0
1758075030.72146,1758075030.61003,0.0,0.0,0.0,3.32316,-25.09555,1.71887,8.37,-1.49,-0.94,4.0
1758075030.72311,1758075030.62003,0.0,0.0,0.0,2.97938,-27.78845,2.46372,8.4,-1.69,-1.1,4.0
1758075030.74259,1758075030.63003,0.0,0.0,0.0,2.23454,-31.39809,3.09397,8.4,-1.69,-1.1,4.0
1758075030.74694,1758075030.64003,0.0,0.0,0.0,1.3751,-36.7266,3.66693,9.03,-1.75,-0.31,4.0
1758075030.76204,1758075030.65003,0.0,0.0,0.0,0.22918,-46.81066,6.35983,9.03,-1.75,-0.31,4.0
1758075030.76412,1758075030.66003,0.0,0.0,0.0,-0.85944,-47.78468,8.99544,11.35,-1.46,1.43,4.0
1758075030.7807,1758075030.67003,0.0,0.0,0.0,-2.57831,-38.61736,12.14671,11.35,-1.46,1.43,4.0
1758075030.78275,1758075030.68003,0.0,0.0,0.0,-4.98473,-26.81443,18.50654,16.83,0.31,5.01,4.0
1758075030.79781,1758075030.69003,0.0,0.0,0.0,-13.12073,-44.46153,26.12688,15.93,4.38,5.68,4.0
1758075030.8149,1758075030.70003,0.0,0.0,0.0,-17.36062,-63.25455,31.28349,15.93,4.38,5.68,4.0
1758075030.81611,1758075030.71003,0.0,0.0,0.0,-23.26209,-73.05212,33.34615,11.51,6.41,4.22,4.0
1758075030.83192,1758075030.72003,0.0,0.0,0.0,-26.69983,-61.30648,34.14828,11.51,6.41,4.22,4.0
1758075030.83285,1758075030.73003,0.0,0.0,0.0,-29.67921,-23.49127,31.79916,13.76,4.93,3.35,4.0
1758075030.84815,1758075030.74003,0.0,0.0,0.0,-31.39809,0.22918,29.8511,13.76,4.93,3.35,4.0
1758075030.86387,1758075030.75003,0.0,0.0,0.0,-33.74722,22.11617,27.04361,13.85,2.78,2.71,4.0
1758075030.86507,1758075030.76003,0.0,0.0,0.0,-36.38282,38.1017,22.34536,13.85,2.78,2.71,4.0
1758075030.87991,1758075030.77003,0.0,0.0,0.0,-40.50812,47.72739,13.98017,13.07,1.26,1.8,4.0
1758075030.88137,1758075030.78003,0.0,0.0,0.0,-40.85189,48.9879,7.16197,12.73,0.0,1.34,4.0
1758075030.89615,1758075030.79003,0.0,0.0,0.0,-39.87786,41.25296,1.03132,12.73,0.0,1.34,4.0
1758075030.91312,1758075030.80003,0.0,0.0,0.0,-35.3515,27.44468,-5.09932,11.6,-0.96,1.18,4.0
1758075030.91574,1758075030.81003,0.0,0.0,0.0,-31.2262,13.46451,-8.76626,11.6,-0.96,1.18,4.0
1758075030.93203,1758075030.82003,0.0,0.0,0.0,-27.96034,17.81899,-11.63104,11.43,-1.01,0.69,4.0
1758075030.93294,1758075030.83003,0.0,0.0,0.0,-24.86637,27.1582,-14.09476,11.43,-1.01,0.69,4.0
1758075030.94965,1758075030.84003,0.0,0.0,0.0,-17.93358,44.51882,-13.98017,11.4,-0.33,0.83,4.0
1758075030.95262,1758075030.85003,0.0,0.0,0.0,-14.03747,48.07116,-13.5791,9.99,0.06,1.0,4.0
1758075030.96823,1758075030.86003,0.0,0.0,0.0,-10.71431,45.77933,-12.2613,9.99,0.06,1.0,4.0
1758075030.96997,1758075030.87003,0.0,0.0,0.0,-8.59437,39.87786,-10.37054,8.56,0.44,0.8,4.0
1758075030.98705,1758075030.88003,0.0,0.0,0.0,-6.41713,31.74186,-6.87549,8.56,0.44,0.8,4.0
1758075031.0032,1758075030.89003,0.0,0.0,0.0,-5.55769,30.02299,-4.52637,8.86,0.46,0.73,4.0
1758075031.00524,1758075030.90003,0.0,0.0,0.0,-5.21392,30.59595,-1.77617,8.86,0.46,0.73,4.0
1758075031.02106,1758075030.91003,0.0,0.0,0.0,-5.32851,31.51268,0.51566,9.54,0.35,0.83,4.0
1758075031.02272,1758075030.92003,0.0,0.0,0.0,-5.84417,30.93972,3.83882,9.21,0.3,0.95,4.0
1758075031.03797,1758075030.93003,0.0,0.0,0.0,-6.47442,29.27814,5.55769,9.21,0.3,0.95,4.0
1758075031.0543,1758075030.94003,0.0,0.0,0.0,-7.16197,27.67386,6.87549,8.83,0.37,0.88,4.0
1758075031.05516,1758075030.95003,0.0,0.0,0.0,-8.136,26.06958,7.79223,8.83,0.37,0.88,4.0
1758075031.06998,1758075030.96003,0.0,0.0,0.0,-9.68299,24.4653,8.136,8.73,0.53,0.82,4.0
1758075031.07273,1758075030.97003,0.0,0.0,0.0,-10.71431,23.26209,7.67763,8.73,0.53,0.82,4.0
1758075031.08827,1758075030.98003,0.0,0.0,0.0,-11.91752,21.6578,6.8182,8.43,0.71,0.73,4.0
1758075031.10432,1758075030.99003,0.0,0.0,0.0,-13.06344,20.22541,5.61499,8.43,0.71,0.73,4.0
1758075031.10601,1758075031.00003,0.0,0.0,0.0,-15.0115,19.13679,3.60963,7.94,0.81,0.52,4.0
1758075031.12203,1758075031.01003,0.0,0.0,0.0,-16.04282,20.79837,2.46372,7.94,0.84,0.24,4.0
1758075031.12299,1758075031.02003,0.0,0.0,0.0,-17.53251,23.60586,1.48969,7.94,0.84,0.24,4.0
1758075031.138,1758075031.03003,0.0,0.0,0.0,-19.76705,27.44468,0.45837,8.03,0.79,0.0,4.0
1758075031.15508,1758075031.04003,0.0,0.0,0.0,-21.37133,28.59059,0.22918,8.03,0.79,0.0,4.0
1758075031.15676,1758075031.05003,0.0,0.0,0.0,-22.86102,28.70519,0.40107,7.78,0.73,-0.26,4.0
1758075031.17207,1758075031.06003,0.0,0.0,0.0,-24.5226,27.67386,1.08862,7.78,0.73,-0.26,4.0
1758075031.17644,1758075031.07003,0.0,0.0,0.0,-27.10091,23.26209,2.7502,7.7,0.68,-0.52,4.0
1758075031.19237,1758075031.08003,0.0,0.0,0.0,-28.36141,18.62113,4.18259,7.63,0.72,-0.69,4.0
1758075031.19324,1758075031.09003,0.0,0.0,0.0,-29.67921,12.77696,5.72958,7.63,0.72,-0.69,4.0
1758075031.2083,1758075031.10003,0.0,0.0,0.0,-30.82513,6.41713,7.16197,7.55,0.82,-0.71,4.0
1758075031.21202,1758075031.11003,0.0,0.0,0.0,-32.14294,-4.52637,8.36518,7.55,0.82,-0.71,4.0
1758075031.22704,1758075031.12003,0.0,0.0,0.0,-32.6013,-11.80293,8.70896,7.38,0.87,-0.76,4.0
1758075031.24497,1758075031.13003,0.0,0.0,0.0,-32.71589,-18.85031,8.25059,7.38,0.87,-0.76,4.0
1758075031.24669,1758075031.14003,0.0,0.0,0.0,-32.14294,-25.49662,7.10468,7.43,0.84,-1.02,4.0
1758075031.26206,1758075031.15003,0.0,0.0,0.0,-30.19488,-35.52338,4.23989,7.69,0.75,-1.33,4.0
1758075031.26729,1758075031.16003,0.0,0.0,0.0,-28.30412,-42.22699,1.83346,7.69,0.75,-1.33,4.0
1758075031.28207,1758075031.17003,0.0,0.0,0.0,-26.06958,-48.35764,-0.68755,7.87,0.53,-1.56,4.0
1758075031.28595,1758075031.18003,0.0,0.0,0.0,-23.20479,-53.74345,-3.09397,7.87,0.53,-1.56,4.0
1758075031.30138,1758075031.19003,0.0,0.0,0.0,-18.44924,-60.04598,-5.95876,7.8,0.22,-1.81,4.0
1758075031.30237,1758075031.20003,0.0,0.0,0.0,-15.12609,-62.5097,-7.33386,7.8,0.22,-1.81,4.0
1758075031.31719,1758075031.21003,0.0,0.0,0.0,-11.57375,-61.99404,-7.84952,8.07,0.02,-1.36,4.0
1758075031.32236,1758075031.22003,0.0,0.0,0.0,-6.13065,-60.27517,-9.28192,8.07,0.02,-1.36,4.0
1758075031.33813,1758075031.23003,0.0,0.0,0.0,-2.46372,-55.34772,-12.204,10.55,0.13,0.88,4.0
1758075031.34284,1758075031.24003,0.0,0.0,0.0,1.48969,-36.38282,-16.73037,18.22,-0.9,4.96,4.0
1758075031.35816,1758075031.25003,0.0,0.0,0.0,5.4431,-12.08941,-23.37668,18.22,-0.9,4.96,4.0
1758075031.36523,1758075031.26003,0.0,0.0,0.0,15.98552,4.52637,-37.98711,22.74,-4.86,7.23,4.0
1758075031.38043,1758075031.27003,0.0,0.0,0.0,25.61122,-36.21093,-40.16434,22.74,-4.86,7.23,4.0
1758075031.38138,1758075031.28003,0.0,0.0,0.0,31.62727,-72.47916,-45.03448,10.89,-7.1,6.8,4.0
1758075031.39728,1758075031.29003,0.0,0.0,0.0,37.29956,-70.30193,-45.89392,10.89,-7.1,6.8,4.0
1758075031.41345,1758075031.30003,0.0,0.0,0.0,38.21629,-22.28806,-46.00851,14.42,-6.68,5.65,4.0
1758075031.41441,1758075031.31003,0.0,0.0,0.0,35.69527,-3.66693,-44.00316,17.64,-3.57,5.04,4.0
