timeStamp,timeStampAlign,roll,pitch,yaw,gyro_x,gyro_y,gyro_z,acc_x,acc_y,acc_z,flag_num
1758074434.55609,1758074434.54394,0.0,0.0,0.0,-7.39116,3.60963,-2.11994,9.44,0.67,2.19,2.0
1758074434.55731,1758074434.55394,0.0,0.0,0.0,-8.30789,4.52637,-0.0573,9.16,0.68,2.05,2.0
1758074434.57236,1758074434.56394,0.0,0.0,0.0,-9.85487,5.15662,1.83346,8.89,0.76,1.98,2.0
1758074434.5733,1758074434.57394,0.0,0.0,0.0,-11.91752,5.50039,3.72423,8.89,0.76,1.98,2.0
1758074434.58819,1758074434.58394,0.0,0.0,0.0,-16.272,6.41713,6.13065,8.96,0.88,1.82,2.0
1758074434.60653,1758074434.59394,0.0,0.0,0.0,-19.76705,6.35983,6.99009,8.96,0.88,1.82,2.0
1758074434.60677,1758074434.60394,0.0,0.0,0.0,-23.0902,3.20856,7.96411,9.04,1.08,1.9,2.0
1758074434.62015,1758074434.61394,0.0,0.0,0.0,-27.1582,-2.23454,7.84952,9.04,1.08,1.9,2.0
1758074434.6364,1758074434.62394,0.0,0.0,0.0,-33.51803,-3.55234,6.99009,8.88,1.23,2.13,2.0
1758074434.63738,1758074434.63394,0.0,0.0,0.0,-37.24226,-1.3751,6.07335,9.5,1.27,1.92,2.0
1758074434.65236,1758074434.64394,0.0,0.0,0.0,-40.7946,0.22918,5.84417,9.5,1.27,1.92,2.0
1758074434.65333,1758074434.65394,0.0,0.0,0.0,-44.51882,-0.11459,5.32851,9.42,1.28,2.41,2.0
1758074434.66816,1758074434.66394,0.0,0.0,0.0,-50.64947,-3.38045,3.89611,9.42,1.28,2.41,2.0
1758074434.68411,1758074434.67394,0.0,0.0,0.0,-54.66018,-6.24524,2.40642,9.14,0.96,2.41,2.0
1758074434.68547,1758074434.68394,0.0,0.0,0.0,-59.12925,-8.59437,0.40107,9.14,0.96,2.41,2.0
1758074434.70012,1758074434.69394,0.0,0.0,0.0,-63.42643,-10.31324,-1.48969,9.19,0.84,2.03,2.0
1758074434.71613,1758074434.70394,0.0,0.0,0.0,-68.75494,-18.16276,-4.69825,8.91,1.0,1.77,2.0
1758074434.71894,1758074434.71394,0.0,0.0,0.0,-70.58841,-31.28349,-4.87014,8.91,1.0,1.77,2.0
1758074434.73438,1758074434.72394,0.0,0.0,0.0,-70.6457,-41.59674,-3.83882,8.22,0.7,1.21,2.0
1758074434.73651,1758074434.73394,0.0,0.0,0.0,-69.49979,-48.9879,-0.11459,8.22,0.7,1.21,2.0
1758074434.75144,1758074434.74394,0.0,0.0,0.0,-70.41652,-49.33167,5.84417,9.14,0.35,0.49,2.0
1758074434.75235,1758074434.75394,0.0,0.0,0.0,-71.84892,-10.59972,3.60963,9.14,0.35,0.49,2.0
1758074434.76837,1758074434.76394,0.0,0.0,0.0,-72.99483,16.61578,7.21927,13.05,0.5,1.5,2.0
1758074434.7842,1758074434.77394,0.0,0.0,0.0,-76.0315,-15.41257,7.04738,13.05,0.5,1.5,2.0
1758074434.78545,1758074434.78394,0.0,0.0,0.0,-80.0995,-24.63719,3.95341,7.41,0.33,2.83,2.0
1758074434.80017,1758074434.79394,0.0,0.0,0.0,-82.33404,-34.66395,0.68755,8.44,0.59,1.85,2.0
1758074434.81648,1758074434.80394,0.0,0.0,0.0,-81.70379,-32.71589,0.11459,8.44,0.59,1.85,2.0
1758074434.81744,1758074434.81394,0.0,0.0,0.0,-79.52654,-26.52795,2.00535,10.2,0.48,-0.86,2.0
1758074434.83249,1758074434.82394,0.0,0.0,0.0,-78.26604,-24.63719,3.89611,10.2,0.48,-0.86,2.0
1758074434.83342,1758074434.83394,0.0,0.0,0.0,-76.0315,-22.68913,6.41713,10.09,0.03,1.29,2.0
1758074434.84851,1758074434.84394,0.0,0.0,0.0,-73.05212,-20.22541,9.4538,10.09,0.03,1.29,2.0
1758074434.86443,1758074434.85394,0.0,0.0,0.0,-68.86953,-17.13144,13.17803,10.14,-0.65,1.86,2.0
1758074434.86543,1758074434.86394,0.0,0.0,0.0,-66.80688,-16.21471,14.61043,10.31,-1.37,1.84,2.0
1758074434.8805,1758074434.87394,0.0,0.0,0.0,-65.2599,-14.66772,15.12609,10.31,-1.37,1.84,2.0
1758074434.89659,1758074434.88394,0.0,0.0,0.0,-63.88479,-11.34457,15.12609,10.68,-1.68,1.23,2.0
1758074434.89745,1758074434.89394,0.0,0.0,0.0,-60.79083,-5.32851,14.72501,10.68,-1.68,1.23,2.0
1758074434.91227,1758074434.90394,0.0,0.0,0.0,-58.15522,-2.11994,14.61043,10.62,-1.57,1.17,2.0
1758074434.91345,1758074434.91394,0.0,0.0,0.0,-55.29043,0.57296,13.98017,10.62,-1.57,1.17,2.0
1758074434.92825,1758074434.92394,0.0,0.0,0.0,-52.08187,2.6929,13.40721,10.26,-1.19,1.75,2.0
1758074434.94447,1758074434.93394,0.0,0.0,0.0,-47.61279,4.35448,12.37589,10.37,-0.63,1.97,2.0
1758074434.94549,1758074434.94394,0.0,0.0,0.0,-45.03448,5.21392,11.22997,10.37,-0.63,1.97,2.0
1758074434.96051,1758074434.95394,0.0,0.0,0.0,-43.25832,3.66693,9.74028,10.63,-0.25,1.77,2.0
1758074434.97652,1758074434.96394,0.0,0.0,0.0,-42.39888,-6.13065,8.30789,10.63,-0.25,1.77,2.0
1758074434.97746,1758074434.97394,0.0,0.0,0.0,-43.31561,-15.69904,6.99009,9.76,-0.05,1.78,2.0
1758074434.99251,1758074434.98394,0.0,0.0,0.0,-45.77933,-21.7151,5.4431,9.76,-0.05,1.78,2.0
1758074434.99344,1758074434.99394,0.0,0.0,0.0,-48.52953,-25.38203,3.89611,9.71,-0.04,1.58,2.0
1758074435.00849,1758074435.00394,0.0,0.0,0.0,-52.65482,-24.86637,0.80214,9.71,-0.04,2.11,2.0
1758074435.02453,1758074435.01394,0.0,0.0,0.0,-54.25911,-20.05352,-0.68755,11.4,-0.5,2.11,2.0
1758074435.02545,1758074435.02394,0.0,0.0,0.0,-54.94666,-17.36062,-2.06265,13.25,-1.52,2.73,2.0
1758074435.04048,1758074435.03394,0.0,0.0,0.0,-55.34772,-17.76169,-2.63561,13.25,-1.52,2.73,2.0
1758074435.05637,1758074435.04394,0.0,0.0,0.0,-55.92068,-21.37133,-1.43239,11.87,-2.21,2.62,2.0
1758074435.05746,1758074435.05394,0.0,0.0,0.0,-56.37905,-26.52795,0.0573,11.87,-2.21,2.62,2.0
1758074435.07238,1758074435.06394,0.0,0.0,0.0,-57.23849,-32.71589,2.23454,9.63,-2.28,2.29,2.0
1758074435.07344,1758074435.07394,0.0,0.0,0.0,-58.09792,-36.7266,4.23989,9.63,-2.28,2.29,2.0
1758074435.08856,1758074435.08394,0.0,0.0,0.0,-58.4417,-34.14828,6.53172,9.25,-2.08,2.04,2.0
1758074435.10449,1758074435.09394,0.0,0.0,0.0,-58.04062,-28.59059,6.99009,10.09,-1.77,2.03,2.0
1758074435.10546,1758074435.10394,0.0,0.0,0.0,-56.37905,-22.34536,6.41713,10.09,-1.77,2.03,2.0
1758074435.12025,1758074435.11394,0.0,0.0,0.0,-55.06125,-18.90761,5.55769,9.57,-1.49,2.04,2.0
1758074435.13648,1758074435.12394,0.0,0.0,0.0,-53.11319,-14.03747,5.72958,9.57,-1.49,2.04,2.0
1758074435.1375,1758074435.13394,0.0,0.0,0.0,-51.6235,-8.02141,7.04738,9.28,-1.76,2.07,2.0
1758074435.15229,1758074435.14394,0.0,0.0,0.0,-50.59217,0.74485,8.25059,9.28,-1.76,2.07,2.0
1758074435.15349,1758074435.15394,0.0,0.0,0.0,-48.9879,15.64175,9.33921,9.5,-2.68,1.26,2.0
1758074435.16855,1758074435.16394,0.0,0.0,0.0,-47.95657,26.35606,9.33921,9.5,-3.67,0.97,2.0
1758074435.18456,1758074435.17394,0.0,0.0,0.0,-46.46688,35.52338,8.76626,9.5,-3.67,0.97,2.0
1758074435.18548,1758074435.18394,0.0,0.0,0.0,-45.20637,40.62271,7.73493,9.35,-4.16,0.91,2.0
1758074435.20137,1758074435.19394,0.0,0.0,0.0,-43.31561,42.28429,5.50039,9.35,-4.16,0.91,2.0
1758074435.20308,1758074435.20394,0.0,0.0,0.0,-41.71133,42.68536,3.55234,9.22,-4.12,0.99,2.0
1758074435.2185,1758074435.21394,0.0,0.0,0.0,-39.64868,40.85189,1.71887,9.22,-4.12,0.99,2.0
1758074435.23593,1758074435.22394,0.0,0.0,0.0,-36.84119,37.64333,-0.17189,9.76,-3.97,1.05,2.0
1758074435.23756,1758074435.23394,0.0,0.0,0.0,-31.11161,34.0337,-2.23454,10.37,-3.76,0.95,2.0
1758074435.25233,1758074435.24394,0.0,0.0,0.0,-26.64254,31.85646,-1.43239,10.37,-3.76,0.95,2.0
1758074435.25347,1758074435.25394,0.0,0.0,0.0,-22.05888,30.65324,0.45837,10.6,-3.26,0.72,2.0
1758074435.26857,1758074435.26394,0.0,0.0,0.0,-18.10547,29.62192,2.92208,10.6,-3.26,0.72,2.0
1758074435.28458,1758074435.27394,0.0,0.0,0.0,-13.06344,27.78845,6.70361,9.92,-2.99,0.63,2.0
1758074435.28657,1758074435.28394,0.0,0.0,0.0,-10.02676,27.04361,8.93814,9.92,-2.99,0.63,2.0
1758074435.30209,1758074435.29394,0.0,0.0,0.0,-6.87549,26.69983,11.17268,9.29,-3.09,0.85,2.0
1758074435.30372,1758074435.30394,0.0,0.0,0.0,-4.18259,25.15285,12.54778,9.29,-3.09,0.85,2.0
1758074435.31834,1758074435.31394,0.0,0.0,0.0,-0.57296,20.97026,13.5218,8.84,-3.15,0.96,2.0
1758074435.33535,1758074435.32394,0.0,0.0,0.0,1.3751,18.44924,13.12073,8.73,-3.1,0.87,2.0
1758074435.33655,1758074435.33394,0.0,0.0,0.0,2.6929,15.58445,11.86023,8.73,-3.1,0.87,2.0
1758074435.35159,1758074435.34394,0.0,0.0,0.0,4.0107,12.54778,7.67763,8.84,-2.98,0.7,2.0
1758074435.35273,1758074435.35394,0.0,0.0,0.0,5.15662,13.40721,4.18259,8.84,-2.98,0.7,2.0
1758074435.36861,1758074435.36394,0.0,0.0,0.0,6.53172,14.83961,0.85944,9.35,-2.95,0.64,2.0
1758074435.3867,1758074435.37394,0.0,0.0,0.0,7.96411,15.0115,-1.83346,9.35,-2.95,0.64,2.0
1758074435.41157,1758074435.38394,0.0,0.0,0.0,10.8289,14.83961,-4.87014,9.16,-3.02,0.78,2.0
1758074435.41193,1758074435.39394,0.0,0.0,0.0,13.00614,17.13144,-6.07335,9.43,-3.15,0.92,2.0
1758074435.4134,1758074435.40394,0.0,0.0,0.0,15.35527,20.05352,-6.53172,9.43,-3.15,0.92,2.0
1758074435.41385,1758074435.41394,0.0,0.0,0.0,17.6471,23.20479,-6.47442,9.46,-3.13,1.1,2.0
1758074435.42962,1758074435.42394,0.0,0.0,0.0,21.02755,26.24147,-5.78687,9.46,-3.13,1.1,2.0
1758074435.44565,1758074435.43394,0.0,0.0,0.0,22.91831,27.1582,-5.27121,9.17,-2.73,1.34,2.0
1758074435.44694,1758074435.44394,0.0,0.0,0.0,24.5226,26.81443,-5.15662,9.17,-2.73,1.34,2.0
1758074435.46166,1758074435.45394,0.0,0.0,0.0,26.12688,26.12688,-5.55769,9.11,-2.39,1.35,2.0
1758074435.47776,1758074435.46394,0.0,0.0,0.0,28.64789,25.49662,-6.99009,9.43,-2.42,1.34,2.0
1758074435.47864,1758074435.47394,0.0,0.0,0.0,30.25217,24.86637,-8.59437,9.43,-2.42,1.34,2.0
1758074435.49373,1758074435.48394,0.0,0.0,0.0,31.74186,26.01229,-10.59972,9.69,-2.58,1.39,2.0
1758074435.49492,1758074435.49394,0.0,0.0,0.0,33.80451,28.70519,-11.86023,9.69,-2.58,1.39,2.0
1758074435.5094,1758074435.50394,0.0,0.0,0.0,38.15899,33.34615,-12.08941,9.92,-2.71,1.61,2.0
1758074435.52549,1758074435.51394,0.0,0.0,0.0,41.99781,33.40344,-10.37054,9.92,-2.71,1.61,2.0
1758074435.52665,1758074435.52394,0.0,0.0,0.0,46.1231,32.71589,-7.79223,9.52,-2.84,1.68,2.0
1758074435.54166,1758074435.53394,0.0,0.0,0.0,50.76406,31.39809,-3.83882,9.52,-2.84,1.68,2.0
1758074435.54268,1758074435.54394,0.0,0.0,0.0,56.60823,28.99167,-1.66158,9.22,-2.96,1.39,2.0
1758074435.55847,1758074435.55394,0.0,0.0,0.0,59.75951,26.41335,-0.74485,9.07,-2.83,1.01,2.0
1758074435.57446,1758074435.56394,0.0,0.0,0.0,62.28051,23.89234,-0.57296,9.07,-2.83,1.01,2.0
1758074435.57593,1758074435.57394,0.0,0.0,0.0,64.11398,12.204,-1.83346,8.85,-2.48,0.89,2.0
1758074435.59045,1758074435.58394,0.0,0.0,0.0,64.28587,-0.34377,-4.35448,8.85,-2.48,0.89,2.0
1758074435.60678,1758074435.59394,0.0,0.0,0.0,63.59832,-8.02141,-6.7609,8.33,-2.0,0.29,2.0
1758074435.60779,1758074435.60394,0.0,0.0,0.0,63.02536,-10.31324,-11.22997,8.33,-2.0,0.29,2.0
1758074435.6227,1758074435.61394,0.0,0.0,0.0,63.88479,-1.71887,-16.73037,9.48,-1.71,-0.24,2.0
1758074435.62392,1758074435.62394,0.0,0.0,0.0,64.85883,5.72958,-19.07949,10.77,-1.71,1.53,2.0
1758074435.63877,1758074435.63394,0.0,0.0,0.0,64.91612,11.22997,-21.48592,10.77,-1.71,1.53,2.0
1758074435.65551,1758074435.64394,0.0,0.0,0.0,62.79618,13.23533,-22.86102,11.42,-1.26,3.77,2.0
1758074435.65666,1758074435.65394,0.0,0.0,0.0,54.60288,10.59972,-25.26744,11.42,-1.26,3.77,2.0
1758074435.67178,1758074435.66394,0.0,0.0,0.0,48.30034,-18.44924,-25.7831,11.33,-0.26,5.47,2.0
1758074435.6727,1758074435.67394,0.0,0.0,0.0,44.86259,-53.80074,-18.62113,11.33,-0.26,5.47,2.0
1758074435.68844,1758074435.68394,0.0,0.0,0.0,39.01843,-63.54102,-12.08941,9.48,0.01,2.23,2.0
1758074435.70479,1758074435.69394,0.0,0.0,0.0,30.99702,-41.99781,-2.23454,12.93,-0.72,0.91,2.0
1758074435.70565,1758074435.70394,0.0,0.0,0.0,26.87172,-30.93972,1.71887,12.93,-0.72,0.91,2.0
1758074435.72075,1758074435.71394,0.0,0.0,0.0,22.68913,-24.80907,1.77617,10.34,-0.99,1.92,2.0
1758074435.73675,1758074435.72394,0.0,0.0,0.0,19.19409,-23.0329,0.0,10.34,-0.99,1.92,2.0
1758074435.73766,1758074435.73394,0.0,0.0,0.0,14.38124,-21.7724,-9.11003,9.0,-0.51,4.25,2.0
1758074435.75259,1758074435.74394,0.0,0.0,0.0,12.2613,-22.51724,-16.10011,9.0,-0.51,4.25,2.0
1758074435.75366,1758074435.75394,0.0,0.0,0.0,10.94349,-20.51189,-22.68913,9.13,0.11,3.67,2.0
1758074435.76867,1758074435.76394,0.0,0.0,0.0,9.91217,-20.62648,-29.04896,9.13,0.11,3.67,2.0
1758074435.78476,1758074435.77394,0.0,0.0,0.0,10.31324,-20.22541,-30.99702,9.55,0.31,4.25,2.0
1758074435.78565,1758074435.78394,0.0,0.0,0.0,11.57375,-21.60051,-31.11161,9.41,-0.17,4.51,2.0
1758074435.80077,1758074435.79394,0.0,0.0,0.0,13.34992,-21.7724,-29.9084,9.41,-0.17,4.51,2.0
1758074435.81679,1758074435.80394,0.0,0.0,0.0,16.90226,-22.05888,-23.89234,10.06,-1.34,4.22,2.0
1758074435.81766,1758074435.81394,0.0,0.0,0.0,19.25138,-20.34,-20.34,10.06,-1.34,4.22,2.0
1758074435.83284,1758074435.82394,0.0,0.0,0.0,21.48592,-19.13679,-17.01685,10.94,-2.3,3.97,2.0
1758074435.83375,1758074435.83394,0.0,0.0,0.0,23.49127,-15.98552,-14.03747,10.94,-2.3,3.97,2.0
1758074435.84881,1758074435.84394,0.0,0.0,0.0,26.64254,-7.84952,-11.22997,10.77,-2.18,3.77,2.0
1758074435.86489,1758074435.85394,0.0,0.0,0.0,28.59059,-2.46372,-10.94349,9.93,-1.01,2.95,2.0
1758074435.8657,1758074435.86394,0.0,0.0,0.0,30.13758,2.29183,-11.17268,9.93,-1.01,2.95,2.0
1758074435.88078,1758074435.87394,0.0,0.0,0.0,30.99702,7.21927,-11.80293,9.31,0.32,2.82,2.0
1758074435.8968,1758074435.88394,0.0,0.0,0.0,31.16891,13.12073,-12.71966,9.31,0.32,2.82,2.0
1758074435.89722,1758074435.89394,0.0,0.0,0.0,30.99702,16.21471,-13.80828,8.91,1.03,2.51,2.0
1758074435.91254,1758074435.90394,0.0,0.0,0.0,30.88243,18.79302,-14.61043,8.91,1.03,2.51,2.0
1758074435.92881,1758074435.91394,0.0,0.0,0.0,30.65324,21.37133,-15.0115,8.52,1.05,2.21,2.0
1758074435.92977,1758074435.92394,0.0,0.0,0.0,30.59595,23.72045,-14.49583,8.27,0.8,2.21,2.0
1758074435.9445,1758074435.93394,0.0,0.0,0.0,30.53865,23.20479,-12.54778,8.27,0.8,2.21,2.0
1758074435.94573,1758074435.94394,0.0,0.0,0.0,30.13758,23.72045,-10.37054,8.18,0.58,2.5,2.0
1758074435.96085,1758074435.95394,0.0,0.0,0.0,28.07493,23.89234,-6.7609,8.18,0.58,2.5,2.0
1758074435.97685,1758074435.96394,0.0,0.0,0.0,25.61122,24.17882,-4.81285,8.28,0.72,2.69,2.0
1758074435.97722,1758074435.97394,0.0,0.0,0.0,22.40265,22.23076,-3.09397,8.28,0.72,2.69,2.0
1758074435.99272,1758074435.98394,0.0,0.0,0.0,18.33465,22.28806,-1.71887,8.34,1.38,2.96,2.0
1758074435.9938,1758074435.99394,0.0,0.0,0.0,11.34457,21.42862,0.0573,8.34,1.38,2.96,2.0
1758074436.00873,1758074436.00394,0.0,0.0,0.0,6.7609,19.19409,1.03132,8.86,2.12,3.18,2.0
1758074436.02487,1758074436.01394,0.0,0.0,0.0,2.6929,16.50119,1.71887,8.91,2.2,2.83,2.0
1758074436.02579,1758074436.02394,0.0,0.0,0.0,-0.80214,13.40721,1.94806,8.91,2.2,2.83,2.0
1758074436.04078,1758074436.03394,0.0,0.0,0.0,-4.0107,8.70896,1.77617,9.1,1.58,2.56,2.0
1758074436.05687,1758074436.04394,0.0,0.0,0.0,-5.61499,5.72958,1.3178,9.1,1.58,2.56,2.0
1758074436.05721,1758074436.05394,0.0,0.0,0.0,-6.53172,4.0107,0.85944,9.38,0.9,2.32,2.0
1758074436.07284,1758074436.06394,0.0,0.0,0.0,-7.33386,3.38045,0.45837,9.38,0.9,2.32,2.0
1758074436.07381,1758074436.07394,0.0,0.0,0.0,-8.30789,2.63561,0.22918,9.8,0.57,2.35,2.0
1758074436.08885,1758074436.08394,0.0,0.0,0.0,-9.22462,1.83346,0.45837,9.65,0.52,2.26,2.0
1758074436.10495,1758074436.09394,0.0,0.0,0.0,-10.37054,0.85944,1.3751,9.65,0.52,2.26,2.0
1758074436.10579,1758074436.10394,0.0,0.0,0.0,-12.14671,-0.0573,2.6929,9.3,0.68,2.1,2.0
1758074436.121,1758074436.11394,0.0,0.0,0.0,-15.29797,-1.83346,5.09932,9.3,0.68,2.1,2.0
1758074436.13693,1758074436.12394,0.0,0.0,0.0,-17.47521,-4.87014,6.24524,8.91,0.93,1.95,2.0
1758074436.13728,1758074436.13394,0.0,0.0,0.0,-19.82434,-8.42248,7.16197,8.91,0.93,1.95,2.0
1758074436.15271,1758074436.14394,0.0,0.0,0.0,-22.00158,-9.68299,8.88085,8.75,1.02,1.84,2.0
1758074436.15381,1758074436.15394,0.0,0.0,0.0,-24.86637,-5.15662,10.02676,9.38,0.95,1.88,2.0
1758074436.1687,1758074436.16394,0.0,0.0,0.0,-26.75713,-1.08862,10.48513,9.38,0.95,1.88,2.0
1758074436.18468,1758074436.17394,0.0,0.0,0.0,-28.59059,-0.97403,10.8862,9.21,0.81,2.21,2.0
1758074436.18581,1758074436.18394,0.0,0.0,0.0,-31.62727,-4.46907,10.8862,9.21,0.81,2.21,2.0
1758074436.20063,1758074436.19394,0.0,0.0,0.0,-34.0337,-7.79223,10.65701,8.96,0.7,2.29,2.0
1758074436.21693,1758074436.20394,0.0,0.0,0.0,-37.01308,-11.17268,10.25595,8.96,0.7,2.29,2.0
1758074436.21726,1758074436.21394,0.0,0.0,0.0,-40.45082,-14.20935,9.4538,9.12,0.73,2.03,2.0
1758074436.23293,1758074436.22394,0.0,0.0,0.0,-45.60744,-17.47521,7.67763,9.12,0.73,1.85,2.0
1758074436.23382,1758074436.23394,0.0,0.0,0.0,-49.33167,-20.45459,5.90147,9.29,0.91,1.85,2.0
1758074436.24893,1758074436.24394,0.0,0.0,0.0,-51.85268,-28.64789,5.21392,8.8,0.87,1.56,2.0
1758074436.26493,1758074436.25394,0.0,0.0,0.0,-53.68615,-38.78925,5.4431,8.8,0.87,1.56,2.0
1758074436.26584,1758074436.26394,0.0,0.0,0.0,-53.17049,-49.38896,5.90147,8.44,0.47,1.1,2.0
1758074436.28093,1758074436.27394,0.0,0.0,0.0,-53.28508,-53.28508,7.16197,8.44,0.47,1.1,2.0
1758074436.29692,1758074436.28394,0.0,0.0,0.0,-53.51426,-47.49821,10.59972,9.14,0.05,0.61,2.0
1758074436.29731,1758074436.29394,0.0,0.0,0.0,-54.431,-18.16276,11.51645,9.14,0.05,0.61,2.0
1758074436.31292,1758074436.30394,0.0,0.0,0.0,-52.19646,-11.91752,13.5791,12.15,0.05,2.01,2.0
1758074436.31386,1758074436.31394,0.0,0.0,0.0,-56.60823,-23.54857,9.11003,7.82,0.0,2.47,2.0
1758074436.32889,1758074436.32394,0.0,0.0,0.0,-57.23849,-33.74722,6.99009,7.82,0.0,2.47,2.0
1758074436.34468,1758074436.33394,0.0,0.0,0.0,-57.92604,-37.01308,4.1253,9.18,0.18,0.82,2.0
1758074436.34585,1758074436.34394,0.0,0.0,0.0,-55.51962,-31.97105,5.72958,9.18,0.18,0.82,2.0
1758074436.36101,1758074436.35394,0.0,0.0,0.0,-54.431,-27.2155,7.33386,10.38,0.03,-0.02,2.0
1758074436.37697,1758074436.36394,0.0,0.0,0.0,-53.39967,-21.42862,10.08406,10.38,0.03,-0.02,2.0
1758074436.37788,1758074436.37394,0.0,0.0,0.0,-51.79538,-11.22997,14.20935,10.5,-0.53,1.22,2.0
1758074436.39295,1758074436.38394,0.0,0.0,0.0,-50.2484,-9.68299,16.84496,10.12,-0.92,1.57,2.0
1758074436.39388,1758074436.39394,0.0,0.0,0.0,-48.70141,-10.94349,17.99088,10.12,-0.92,1.57,2.0
1758074436.40899,1758074436.40394,0.0,0.0,0.0,-47.38361,-13.06344,18.27736,9.67,-1.0,1.35,2.0
1758074436.42497,1758074436.41394,0.0,0.0,0.0,-45.49285,-16.55848,17.13144,9.67,-1.0,1.35,2.0
1758074436.42589,1758074436.42394,0.0,0.0,0.0,-44.57612,-17.53251,15.24068,9.84,-0.84,0.82,2.0
1758074436.44098,1758074436.43394,0.0,0.0,0.0,-44.00316,-18.33465,13.23533,9.84,-0.84,0.82,2.0
1758074436.44185,1758074436.44394,0.0,0.0,0.0,-44.00316,-19.36597,11.22997,9.99,-0.64,0.84,2.0
1758074436.45731,1758074436.45394,0.0,0.0,0.0,-44.28964,-20.16812,9.68299,9.78,-0.39,1.11,2.0
1758074436.47293,1758074436.46394,0.0,0.0,0.0,-44.63341,-18.50654,8.93814,9.78,-0.39,1.11,2.0
1758074436.47391,1758074436.47394,0.0,0.0,0.0,-44.40423,-14.66772,9.11003,10.28,-0.35,1.41,2.0
1758074436.48873,1758074436.48394,0.0,0.0,0.0,-43.31561,-11.11538,9.62569,10.28,-0.35,1.41,2.0
1758074436.50507,1758074436.49394,0.0,0.0,0.0,-40.85189,-10.8862,10.19865,10.66,-0.67,1.51,2.0
1758074436.50596,1758074436.50394,0.0,0.0,0.0,-39.24761,-15.58445,9.4538,10.66,-0.67,1.51,2.0
1758074436.5207,1758074436.51394,0.0,0.0,0.0,-38.78925,-19.53786,7.96411,10.24,-0.71,1.75,2.0
1758074436.52186,1758074436.52394,0.0,0.0,0.0,-38.15899,-19.48057,6.8182,10.24,-0.71,1.75,2.0
1758074436.53727,1758074436.53394,0.0,0.0,0.0,-37.12767,-14.03747,4.64096,11.16,-0.85,1.64,2.0
1758074436.55277,1758074436.54394,0.0,0.0,0.0,-35.12231,-6.99009,2.92208,13.48,-1.62,2.49,2.0
1758074436.55398,1758074436.55394,0.0,0.0,0.0,-32.54401,-1.03132,1.3751,13.48,-1.62,2.49,2.0
1758074436.56883,1758074436.56394,0.0,0.0,0.0,-28.07493,1.3178,0.40107,14.41,-2.86,2.53,2.0
1758074436.58504,1758074436.57394,0.0,0.0,0.0,-25.8404,-0.74485,2.00535,14.41,-2.86,2.53,2.0
1758074436.58639,1758074436.58394,0.0,0.0,0.0,-24.86637,-8.70896,5.09932,12.0,-3.07,2.65,2.0
1758074436.60104,1758074436.59394,0.0,0.0,0.0,-25.09555,-20.34,8.88085,12.0,-3.07,2.65,2.0
1758074436.60231,1758074436.60394,0.0,0.0,0.0,-26.75713,-34.32018,14.03747,9.58,-1.72,2.53,2.0
1758074436.61734,1758074436.61394,0.0,0.0,0.0,-28.87707,-38.21629,16.10011,9.49,-0.36,2.23,2.0
1758074436.63303,1758074436.62394,0.0,0.0,0.0,-31.45539,-38.15899,16.73037,9.49,-0.36,2.23,2.0
1758074436.63398,1758074436.63394,0.0,0.0,0.0,-34.32018,-35.52338,16.272,9.17,0.06,1.86,2.0
1758074436.64905,1758074436.64394,0.0,0.0,0.0,-38.84654,-29.96569,13.5791,9.17,0.06,1.86,2.0
1758074436.66503,1758074436.65394,0.0,0.0,0.0,-41.71133,-25.49662,10.8862,8.06,-0.19,1.94,2.0
1758074436.66597,1758074436.66394,0.0,0.0,0.0,-44.46153,-20.68378,8.47978,8.06,-0.19,1.94,2.0
1758074436.68106,1758074436.67394,0.0,0.0,0.0,-46.63877,-13.69369,6.07335,7.47,-1.06,1.56,2.0
1758074436.68199,1758074436.68394,0.0,0.0,0.0,-48.52953,0.85944,3.20856,8.62,-2.52,1.58,2.0
1758074436.69737,1758074436.69394,0.0,0.0,0.0,-48.41494,11.22997,1.60428,8.62,-2.52,1.58,2.0
1758074436.71278,1758074436.70394,0.0,0.0,0.0,-47.03984,22.51724,0.17189,10.35,-4.07,1.74,2.0
1758074436.7144,1758074436.71394,0.0,0.0,0.0,-44.40423,33.68992,-1.43239,10.35,-4.07,1.74,2.0
1758074436.72878,1758074436.72394,0.0,0.0,0.0,-37.64333,45.49285,-2.34913,11.42,-5.01,1.45,2.0
1758074436.74505,1758074436.73394,0.0,0.0,0.0,-32.77319,47.78468,-2.57831,11.42,-5.01,1.45,2.0
1758074436.746,1758074436.74394,0.0,0.0,0.0,-27.10091,48.35764,-2.06265,10.82,-5.04,1.02,2.0
1758074436.76082,1758074436.75394,0.0,0.0,0.0,-20.34,48.52953,0.11459,10.82,-5.04,1.02,2.0
1758074436.76243,1758074436.76394,0.0,0.0,0.0,-11.00079,45.49285,2.06265,10.81,-4.33,0.73,2.0
1758074436.77734,1758074436.77394,0.0,0.0,0.0,-5.61499,43.31561,4.52637,10.38,-2.99,0.49,2.0
1758074436.79308,1758074436.78394,0.0,0.0,0.0,-1.48969,43.4875,6.35983,10.38,-2.99,0.49,2.0
1758074436.79434,1758074436.79394,0.0,0.0,0.0,3.03668,41.76862,8.36518,9.97,-2.37,0.51,2.0
1758074436.80882,1758074436.80394,0.0,0.0,0.0,4.81285,39.76327,10.48513,9.97,-2.37,0.51,2.0
1758074436.82508,1758074436.81394,0.0,0.0,0.0,5.4431,42.57077,11.22997,9.26,-2.38,0.68,2.0
1758074436.82644,1758074436.82394,0.0,0.0,0.0,5.90147,43.83128,11.86023,9.26,-2.38,0.68,2.0
1758074436.84104,1758074436.83394,0.0,0.0,0.0,7.16197,39.53409,12.71966,8.9,-2.64,1.07,2.0
1758074436.84231,1758074436.84394,0.0,0.0,0.0,7.84952,35.86716,12.60507,8.32,-2.92,0.93,2.0
1758074436.85733,1758074436.85394,0.0,0.0,0.0,8.65166,32.42941,12.204,8.32,-2.92,0.93,2.0
1758074436.87313,1758074436.86394,0.0,0.0,0.0,8.93814,28.13223,11.00079,8.54,-3.02,0.88,2.0
1758074436.87428,1758074436.87394,0.0,0.0,0.0,8.76626,22.57454,7.79223,8.54,-3.02,0.88,2.0
1758074436.88905,1758074436.88394,0.0,0.0,0.0,8.88085,23.37668,5.15662,8.92,-2.85,0.71,2.0
1758074436.90512,1758074436.89394,0.0,0.0,0.0,9.22462,25.61122,2.34913,8.92,-2.85,0.71,2.0
1758074436.90603,1758074436.90394,0.0,0.0,0.0,10.25595,25.55392,-0.0573,9.43,-2.66,0.77,2.0
1758074436.92086,1758074436.91394,0.0,0.0,0.0,12.77696,23.72045,-3.83882,9.21,-2.67,0.93,2.0
1758074436.92258,1758074436.92394,0.0,0.0,0.0,15.46986,22.11617,-5.61499,9.21,-2.67,0.93,2.0
1758074436.93738,1758074436.93394,0.0,0.0,0.0,18.85031,22.51724,-6.7609,9.42,-2.78,0.81,2.0
1758074436.95312,1758074436.94394,0.0,0.0,0.0,22.23076,24.86637,-7.44845,9.42,-2.78,0.81,2.0
1758074436.95406,1758074436.95394,0.0,0.0,0.0,26.47065,28.13223,-8.47978,9.31,-2.99,0.74,2.0
1758074436.96899,1758074436.96394,0.0,0.0,0.0,28.76248,29.22085,-9.28192,9.31,-2.99,0.74,2.0
1758074436.98513,1758074436.97394,0.0,0.0,0.0,30.53865,29.73651,-10.08406,9.03,-3.25,1.14,2.0
1758074436.98641,1758074436.98394,0.0,0.0,0.0,32.14294,30.53865,-11.34457,9.03,-3.25,1.14,2.0
1758074437.00114,1758074436.99394,0.0,0.0,0.0,32.88778,32.48671,-12.2613,9.16,-2.97,1.28,2.0
1758074437.00208,1758074437.00394,0.0,0.0,0.0,33.80451,33.46074,-12.77696,9.15,-2.21,1.53,2.0
1758074437.01741,1758074437.01394,0.0,0.0,0.0,34.72124,33.40344,-13.34992,9.15,-2.21,1.53,2.0
1758074437.03318,1758074437.02394,0.0,0.0,0.0,36.6693,31.91375,-14.15206,9.11,-1.81,1.59,2.0
1758074437.0341,1758074437.03394,0.0,0.0,0.0,39.3622,31.2262,-13.80828,9.11,-1.81,1.59,2.0
1758074437.04916,1758074437.04394,0.0,0.0,0.0,42.85724,28.87707,-13.06344,9.38,-2.05,1.71,2.0
1758074437.06516,1758074437.05394,0.0,0.0,0.0,46.98254,24.98096,-11.80293,9.38,-2.05,1.71,2.0
1758074437.0665,1758074437.06394,0.0,0.0,0.0,53.68615,20.05352,-9.68299,9.14,-2.58,1.54,2.0
1758074437.0812,1758074437.07394,0.0,0.0,0.0,58.49899,16.73037,-8.59437,9.2,-3.03,1.3,2.0
1758074437.08253,1758074437.08394,0.0,0.0,0.0,62.85347,13.5218,-8.02141,9.2,-3.03,1.3,2.0
1758074437.09718,1758074437.09394,0.0,0.0,0.0,66.34852,10.48513,-8.0787,9.22,-3.08,0.87,2.0
1758074437.11322,1758074437.10394,0.0,0.0,0.0,69.90086,6.35983,-9.68299,9.22,-3.08,0.87,2.0
1758074437.11441,1758074437.11394,0.0,0.0,0.0,71.27596,3.03668,-11.63104,9.3,-2.78,0.7,2.0
1758074437.12921,1758074437.12394,0.0,0.0,0.0,71.90621,-3.66693,-14.09476,9.3,-2.78,0.7,2.0
1758074437.14517,1758074437.13394,0.0,0.0,0.0,71.67702,-12.14671,-16.50119,8.82,-2.39,0.37,2.0
1758074437.14661,1758074437.14394,0.0,0.0,0.0,70.13004,-20.22541,-18.33465,10.01,-1.75,1.52,2.0
1758074437.16107,1758074437.15394,0.0,0.0,0.0,68.58305,-25.55392,-18.73572,10.01,-1.75,1.52,2.0
1758074437.16245,1758074437.16394,0.0,0.0,0.0,65.89015,-27.04361,-18.62113,12.57,-0.29,4.45,2.0
1758074437.17726,1758074437.17394,0.0,0.0,0.0,57.81144,-17.6471,-17.58981,12.57,-0.29,4.45,2.0
1758074437.19298,1758074437.18394,0.0,0.0,0.0,48.30034,0.57296,-17.93358,14.99,1.46,6.48,2.0
1758074437.1945,1758074437.19394,0.0,0.0,0.0,39.87786,0.40107,-17.53251,14.99,1.46,6.48,2.0
1758074437.20924,1758074437.20394,0.0,0.0,0.0,27.50197,-24.35071,-21.6578,10.45,1.45,4.54,2.0
1758074437.22499,1758074437.21394,0.0,0.0,0.0,25.09555,-52.82671,-14.32395,10.45,1.45,4.54,2.0
1758074437.22653,1758074437.22394,0.0,0.0,0.0,23.72045,-54.431,-10.08406,7.25,0.07,1.35,2.0
1758074437.24125,1758074437.23394,0.0,0.0,0.0,24.00693,-52.42564,-7.50575,9.23,-0.69,1.75,2.0
1758074437.24235,1758074437.24394,0.0,0.0,0.0,25.09555,-51.50891,-7.67763,9.23,-0.69,1.75,2.0
1758074437.25727,1758074437.25394,0.0,0.0,0.0,27.1582,-48.24305,-10.08406,8.72,-1.42,4.11,2.0
1758074437.27327,1758074437.26394,0.0,0.0,0.0,28.30412,-42.85724,-13.69369,8.72,-1.42,4.11,2.0
1758074437.27465,1758074437.27394,0.0,0.0,0.0,28.24682,-37.18496,-17.18874,9.22,-1.51,5.12,2.0
1758074437.28921,1758074437.28394,0.0,0.0,0.0,27.61657,-32.54401,-20.74107,9.22,-1.51,5.12,2.0
1758074437.30528,1758074437.29394,0.0,0.0,0.0,25.49662,-29.73651,-22.63183,9.36,-0.44,4.49,2.0
1758074437.30665,1758074437.30394,0.0,0.0,0.0,23.83505,-23.37668,-22.28806,10.38,0.55,3.97,2.0
1758074437.32129,1758074437.31394,0.0,0.0,0.0,22.97561,-15.87093,-20.62648,10.38,0.55,3.97,2.0
1758074437.32247,1758074437.32394,0.0,0.0,0.0,22.51724,-8.25059,-18.33465,11.44,0.95,3.38,2.0
1758074437.33804,1758074437.33394,0.0,0.0,0.0,22.68913,1.14592,-13.80828,11.44,0.95,3.38,2.0
1758074437.35405,1758074437.34394,0.0,0.0,0.0,23.49127,6.18794,-10.48513,11.17,0.41,3.64,2.0
1758074437.35532,1758074437.35394,0.0,0.0,0.0,25.09555,10.59972,-7.44845,11.17,0.41,3.64,2.0
1758074437.37007,1758074437.36394,0.0,0.0,0.0,27.2155,14.66772,-4.29718,10.6,-0.21,3.32,2.0
1758074437.37122,1758074437.37394,0.0,0.0,0.0,30.30947,19.70975,-3.89611,10.09,0.0,3.01,2.0
1758074437.38831,1758074437.38394,0.0,0.0,0.0,32.14294,22.23076,-3.95341,10.09,0.0,3.01,2.0
1758074437.40435,1758074437.39394,0.0,0.0,0.0,33.05967,24.57989,-4.92744,9.69,0.63,2.96,2.0
1758074437.40525,1758074437.40394,0.0,0.0,0.0,33.11696,27.10091,-6.7609,9.69,0.63,2.96,2.0
1758074437.42032,1758074437.41394,0.0,0.0,0.0,32.54401,26.18417,-7.50575,9.17,1.13,2.74,2.0
1758074437.42207,1758074437.42394,0.0,0.0,0.0,31.51268,26.01229,-8.02141,9.17,1.13,2.74,2.0
1758074437.43811,1758074437.43394,0.0,0.0,0.0,30.36677,25.89769,-7.33386,8.88,1.31,2.61,2.0
1758074437.45406,1758074437.44394,0.0,0.0,0.0,28.36141,23.94964,-5.72958,8.88,1.31,2.59,2.0
1758074437.4555,1758074437.45394,0.0,0.0,0.0,26.81443,22.86102,-3.66693,8.66,1.12,2.59,2.0
1758074437.47004,1758074437.46394,0.0,0.0,0.0,25.55392,20.74107,-1.3178,8.55,0.96,2.64,2.0
1758074437.47154,1758074437.47394,0.0,0.0,0.0,23.49127,18.73572,1.3178,8.55,0.96,2.64,2.0
1758074437.4874,1758074437.48394,0.0,0.0,0.0,19.19409,14.83961,3.38045,8.45,1.01,2.76,2.0
1758074437.50331,1758074437.49394,0.0,0.0,0.0,16.21471,12.37589,4.18259,8.45,1.01,2.76,2.0
1758074437.5043,1758074437.50394,0.0,0.0,0.0,12.71966,10.48513,4.18259,8.45,1.24,2.63,2.0
1758074437.51912,1758074437.51394,0.0,0.0,0.0,9.4538,8.36518,3.95341,8.45,1.24,2.63,2.0
1758074437.5351,1758074437.52394,0.0,0.0,0.0,5.55769,4.23989,4.1253,8.4,1.45,2.59,2.0
1758074437.5363,1758074437.53394,0.0,0.0,0.0,3.26586,1.08862,4.35448,8.25,1.37,2.46,2.0
1758074437.55132,1758074437.54394,0.0,0.0,0.0,1.66158,-4.1253,5.32851,8.25,1.37,2.46,2.0
1758074437.5531,1758074437.55394,0.0,0.0,0.0,0.17189,-5.55769,6.18794,8.21,1.05,2.13,2.0
1758074437.5681,1758074437.56394,0.0,0.0,0.0,-1.77617,-10.08406,7.79223,8.21,1.05,2.13,2.0
1758074437.58412,1758074437.57394,0.0,0.0,0.0,-2.92208,-13.5791,8.02141,8.07,0.87,2.07,2.0
1758074437.58529,1758074437.58394,0.0,0.0,0.0,-4.1253,-16.38659,8.70896,8.07,0.87,2.07,2.0
1758074437.60023,1758074437.59394,0.0,0.0,0.0,-5.95876,-19.70975,9.68299,8.07,0.92,2.28,2.0
1758074437.60129,1758074437.60394,0.0,0.0,0.0,-8.02141,-24.5226,10.71431,8.32,1.19,2.48,2.0
1758074437.61711,1758074437.61394,0.0,0.0,0.0,-10.8289,-27.1582,11.63104,8.32,1.19,2.48,2.0
1758074437.63335,1758074437.62394,0.0,0.0,0.0,-14.38124,-29.22085,13.00614,8.96,1.53,2.71,2.0
1758074437.63457,1758074437.63394,0.0,0.0,0.0,-20.97026,-27.2155,14.72501,8.96,1.53,2.71,2.0
1758074437.64936,1758074437.64394,0.0,0.0,0.0,-25.49662,-23.72045,15.58445,9.75,1.58,2.5,2.0
1758074437.6651,1758074437.65394,0.0,0.0,0.0,-29.33544,-18.79302,15.87093,9.75,1.58,2.5,2.0
1758074437.66668,1758074437.66394,0.0,0.0,0.0,-32.25753,-12.60507,16.38659,9.8,1.15,1.93,2.0
1758074437.68138,1758074437.67394,0.0,0.0,0.0,-35.00772,-4.29718,15.24068,9.58,0.47,1.61,2.0
1758074437.68264,1758074437.68394,0.0,0.0,0.0,-35.58068,-2.57831,14.61043,9.58,0.47,1.61,2.0
1758074437.69714,1758074437.69394,0.0,0.0,0.0,-35.2369,-0.40107,14.38124,9.61,0.05,1.45,2.0
1758074437.71343,1758074437.70394,0.0,0.0,0.0,-34.77854,1.08862,14.49583,9.61,0.05,1.45,2.0
1758074437.72944,1758074437.71394,0.0,0.0,0.0,-33.80451,2.46372,16.272,10.09,-0.15,1.45,2.0
1758074437.73066,1758074437.72394,0.0,0.0,0.0,-34.60666,3.83882,15.06879,10.09,-0.15,1.45,2.0
1758074437.74545,1758074437.73394,0.0,0.0,0.0,-35.52338,2.11994,15.58445,10.08,-0.06,1.65,2.0
1758074437.74659,1758074437.74394,0.0,0.0,0.0,-37.58603,0.45837,14.32395,10.08,-0.06,1.65,2.0
1758074437.76143,1758074437.75394,0.0,0.0,0.0,-41.71133,-3.03668,12.37589,9.54,0.29,1.57,2.0
1758074437.76236,1758074437.76394,0.0,0.0,0.0,-44.51882,-5.61499,10.8289,9.14,0.73,1.41,2.0
1758074437.77746,1758074437.77394,0.0,0.0,0.0,-47.09713,-15.06879,9.4538,9.14,0.73,1.41,2.0
1758074437.79345,1758074437.78394,0.0,0.0,0.0,-49.04519,-27.78845,10.59972,8.35,0.71,0.93,2.0
1758074437.79438,1758074437.79394,0.0,0.0,0.0,-48.01387,-41.08107,11.34457,8.35,0.71,0.93,2.0
1758074437.80955,1758074437.80394,0.0,0.0,0.0,-48.01387,-49.04519,12.71966,8.64,0.33,0.52,2.0
1758074437.82547,1758074437.81394,0.0,0.0,0.0,-48.64412,-48.70141,14.61043,8.64,0.33,0.52,2.0
1758074437.82681,1758074437.82394,0.0,0.0,0.0,-50.01921,-6.47442,12.77696,10.43,0.04,1.08,2.0
1758074437.84128,1758074437.83394,0.0,0.0,0.0,-52.42564,6.47442,14.72501,11.66,-0.26,1.92,2.0
1758074437.8427,1758074437.84394,0.0,0.0,0.0,-51.22243,-11.63104,15.98552,11.66,-0.26,1.92,2.0
1758074437.85723,1758074437.85394,0.0,0.0,0.0,-55.23313,-24.23611,9.91217,7.6,-0.31,2.12,2.0
1758074437.87349,1758074437.86394,0.0,0.0,0.0,-57.0093,-41.02378,6.87549,7.6,-0.31,2.12,2.0
1758074437.87471,1758074437.87394,0.0,0.0,0.0,-56.55093,-39.24761,5.50039,8.81,0.0,-0.96,2.0
1758074437.88948,1758074437.88394,0.0,0.0,0.0,-56.55093,-34.09099,5.78687,8.81,0.0,-0.96,2.0
1758074437.90549,1758074437.89394,0.0,0.0,0.0,-56.83742,-27.61657,6.53172,10.34,0.03,0.47,2.0
1758074437.90752,1758074437.90394,0.0,0.0,0.0,-54.48829,-17.99088,9.5684,10.23,-0.34,1.44,2.0
1758074437.92246,1758074437.91394,0.0,0.0,0.0,-50.76406,-12.37589,11.97482,10.23,-0.34,1.44,2.0
1758074437.92338,1758074437.92394,0.0,0.0,0.0,-46.40959,-7.84952,13.75099,10.15,-1.17,1.97,2.0
1758074437.93851,1758074437.93394,0.0,0.0,0.0,-42.74266,-6.35983,14.03747,10.15,-1.17,1.97,2.0
1758074437.95421,1758074437.94394,0.0,0.0,0.0,-38.21629,-6.41713,13.00614,10.09,-1.42,1.09,2.0
1758074437.95536,1758074437.95394,0.0,0.0,0.0,-36.49741,-7.16197,12.43318,10.09,-1.42,1.09,2.0
1758074437.97051,1758074437.96394,0.0,0.0,0.0,-35.2942,-9.39651,12.14671,10.15,-1.2,0.73,2.0
1758074437.97171,1758074437.97394,0.0,0.0,0.0,-34.77854,-11.51645,10.8289,10.15,-1.2,0.73,2.0
1758074437.98739,1758074437.98394,0.0,0.0,0.0,-34.49206,-11.63104,9.11003,10.13,-0.95,0.99,2.0
1758074438.00323,1758074437.99394,0.0,0.0,0.0,-34.32018,-7.73493,7.50575,11.11,-0.67,1.54,2.0
1758074438.0044,1758074438.00394,0.0,0.0,0.0,-33.68992,-5.95876,6.58902,11.11,-0.67,1.54,2.0
1758074438.01924,1758074438.01394,0.0,0.0,0.0,-32.83048,-12.89155,4.29718,10.89,-0.57,1.77,2.0
1758074438.0352,1758074438.02394,0.0,0.0,0.0,-33.05967,-20.45459,2.11994,10.89,-0.57,1.77,2.0
1758074438.03639,1758074438.03394,0.0,0.0,0.0,-33.46074,-23.72045,0.22918,10.36,-0.33,1.71,2.0
1758074438.05138,1758074438.04394,0.0,0.0,0.0,-33.86181,-21.88699,-0.45837,10.36,-0.33,1.71,2.0
1758074438.05236,1758074438.05394,0.0,0.0,0.0,-34.0337,-13.5218,-0.17189,11.39,-0.54,1.5,2.0
1758074438.06749,1758074438.06394,0.0,0.0,0.0,-33.17426,-6.70361,0.80214,12.51,-1.21,2.18,2.0
1758074438.0835,1758074438.07394,0.0,0.0,0.0,-31.45539,0.0,1.66158,12.51,-1.21,2.18,2.0
1758074438.08469,1758074438.08394,0.0,0.0,0.0,-28.13223,3.83882,2.63561,13.95,-2.47,2.27,2.0
1758074438.10029,1758074438.09394,0.0,0.0,0.0,-22.34536,4.92744,4.35448,13.95,-2.47,2.27,2.0
1758074438.10149,1758074438.10394,0.0,0.0,0.0,-18.79302,1.08862,6.7609,13.06,-3.49,1.88,2.0
1758074438.11764,1758074438.11394,0.0,0.0,0.0,-16.50119,-8.76626,10.08406,13.06,-3.49,1.88,2.0
1758074438.1335,1758074438.12394,0.0,0.0,0.0,-15.58445,-22.57454,13.40721,10.18,-2.63,2.08,2.0
1758074438.13488,1758074438.13394,0.0,0.0,0.0,-16.10011,-38.1017,16.38659,9.39,-0.91,1.67,2.0
1758074438.14924,1758074438.14394,0.0,0.0,0.0,-18.56383,-40.7373,16.50119,9.39,-0.91,1.67,2.0
1758074438.16528,1758074438.15394,0.0,0.0,0.0,-21.42862,-38.84654,15.98552,9.87,-0.09,1.72,2.0
1758074438.1815,1758074438.16394,0.0,0.0,0.0,-24.98096,-37.12767,15.24068,9.87,-0.09,1.72,2.0
1758074438.1819,1758074438.17394,0.0,0.0,0.0,-32.08564,-35.52338,12.71966,8.25,0.0,2.25,2.0
1758074438.18305,1758074438.18394,0.0,0.0,0.0,-37.29956,-33.46074,10.8289,8.25,0.0,2.25,2.0
1758074438.19825,1758074438.19394,0.0,0.0,0.0,-42.28429,-27.61657,8.99544,7.31,-0.56,2.08,2.0
1758074438.21455,1758074438.20394,0.0,0.0,0.0,-48.35764,-20.3973,6.70361,7.31,-0.56,2.08,2.0
1758074438.21575,1758074438.21394,0.0,0.0,0.0,-51.39432,-7.67763,5.61499,7.96,-1.54,1.63,2.0
1758074438.2303,1758074438.22394,0.0,0.0,0.0,-52.08187,3.66693,4.98473,9.92,-2.63,2.34,2.0
1758074438.23146,1758074438.23394,0.0,0.0,0.0,-51.5662,13.00614,3.49504,9.92,-2.63,2.34,2.0
1758074438.24755,1758074438.24394,0.0,0.0,0.0,-47.26902,27.61657,1.77617,11.04,-3.68,1.8,2.0
1758074438.26338,1758074438.25394,0.0,0.0,0.0,-42.74266,39.19032,0.74485,11.04,-3.68,1.8,2.0
1758074438.26477,1758074438.26394,0.0,0.0,0.0,-36.38282,47.03984,0.97403,11.81,-4.5,1.51,2.0
1758074438.27925,1758074438.27394,0.0,0.0,0.0,-30.59595,47.72739,2.11994,11.81,-4.5,1.51,2.0
1758074438.29532,1758074438.28394,0.0,0.0,0.0,-22.86102,45.60744,2.34913,10.44,-4.57,0.78,2.0
1758074438.29678,1758074438.29394,0.0,0.0,0.0,-17.53251,43.88857,2.57831,9.87,-3.94,0.64,2.0
1758074438.31133,1758074438.30394,0.0,0.0,0.0,-12.71966,41.88322,3.20856,9.87,-3.94,0.64,2.0
1758074438.31293,1758074438.31394,0.0,0.0,0.0,-8.99544,40.85189,3.72423,9.67,-3.07,0.45,2.0
1758074438.32733,1758074438.32394,0.0,0.0,0.0,-4.92744,39.82057,4.18259,9.67,-3.07,0.45,2.0
1758074438.3433,1758074438.33394,0.0,0.0,0.0,-2.86479,39.13302,4.29718,9.47,-2.54,0.92,2.0
1758074438.34448,1758074438.34394,0.0,0.0,0.0,-1.60428,37.75792,4.64096,9.47,-2.54,0.92,2.0
1758074438.35967,1758074438.35394,0.0,0.0,0.0,-0.68755,36.84119,5.55769,9.14,-2.38,0.96,2.0
1758074438.37559,1758074438.36394,0.0,0.0,0.0,-0.51566,36.26823,6.41713,9.11,-2.38,0.99,2.0
1758074438.37682,1758074438.37394,0.0,0.0,0.0,-0.34377,35.06502,7.10468,9.11,-2.38,0.99,2.0
1758074438.3916,1758074438.38394,0.0,0.0,0.0,0.34377,34.32018,7.39116,8.88,-2.57,0.9,2.0
1758074438.39278,1758074438.39394,0.0,0.0,0.0,1.20321,32.88778,7.33386,8.88,-2.57,0.9,2.0
1758074438.40763,1758074438.40394,0.0,0.0,0.0,2.57831,28.30412,6.58902,8.77,-2.84,0.95,2.0
1758074438.4236,1758074438.41394,0.0,0.0,0.0,3.38045,26.01229,5.09932,8.77,-2.84,0.95,2.0
1758074438.42451,1758074438.42394,0.0,0.0,0.0,4.52637,24.75178,2.92208,8.92,-3.04,0.89,2.0
1758074438.43967,1758074438.43394,0.0,0.0,0.0,7.33386,25.38203,-0.57296,8.92,-3.04,0.89,2.0
1758074438.45529,1758074438.44394,0.0,0.0,0.0,9.91217,25.26744,-3.09397,9.2,-3.02,0.88,2.0
1758074438.45649,1758074438.45394,0.0,0.0,0.0,12.77696,23.94964,-5.09932,8.98,-2.89,0.92,2.0
1758074438.47153,1758074438.46394,0.0,0.0,0.0,15.98552,23.26209,-6.53172,8.98,-2.89,0.92,2.0
1758074438.47262,1758074438.47394,0.0,0.0,0.0,20.34,25.61122,-8.30789,9.14,-2.93,0.92,2.0
1758074438.48762,1758074438.48394,0.0,0.0,0.0,22.23076,27.33009,-9.4538,9.14,-2.93,0.92,2.0
1758074438.50373,1758074438.49394,0.0,0.0,0.0,23.66316,29.10626,-10.54242,9.2,-3.07,1.18,2.0
1758074438.50463,1758074438.50394,0.0,0.0,0.0,24.29341,31.45539,-11.63104,9.2,-3.07,1.18,2.0
1758074438.5196,1758074438.51394,0.0,0.0,0.0,25.38203,35.52338,-12.83425,9.41,-3.03,1.64,2.0
1758074438.53564,1758074438.52394,0.0,0.0,0.0,26.12688,37.12767,-13.06344,9.49,-2.69,1.81,2.0
1758074438.53663,1758074438.53394,0.0,0.0,0.0,27.10091,37.24226,-13.06344,9.49,-2.69,1.81,2.0
1758074438.55164,1758074438.54394,0.0,0.0,0.0,28.36141,36.03905,-12.77696,9.32,-2.37,1.96,2.0
1758074438.55273,1758074438.55394,0.0,0.0,0.0,30.19488,33.11696,-12.204,9.32,-2.37,1.96,2.0
1758074438.56758,1758074438.56394,0.0,0.0,0.0,31.51268,29.56462,-11.80293,9.24,-2.26,1.87,2.0
1758074438.58376,1758074438.57394,0.0,0.0,0.0,32.48671,24.86637,-11.57375,9.24,-2.26,1.87,2.0
1758074438.58495,1758074438.58394,0.0,0.0,0.0,33.51803,20.85567,-11.86023,9.02,-2.12,1.74,2.0
1758074438.59968,1758074438.59394,0.0,0.0,0.0,35.58068,18.79302,-12.54778,9.38,-2.11,1.52,2.0
1758074438.61568,1758074438.60394,0.0,0.0,0.0,37.87251,17.01685,-12.49048,9.38,-2.11,1.52,2.0
1758074438.6169,1758074438.61394,0.0,0.0,0.0,40.7946,15.12609,-12.2613,9.49,-2.33,1.51,2.0
1758074438.63201,1758074438.62394,0.0,0.0,0.0,46.2377,13.00614,-11.28727,9.49,-2.33,1.51,2.0
1758074438.63312,1758074438.63394,0.0,0.0,0.0,50.13381,11.34457,-11.11538,9.61,-2.67,1.36,2.0
1758074438.6487,1758074438.64394,0.0,0.0,0.0,54.14451,9.85487,-11.17268,9.61,-2.67,1.36,2.0
1758074438.66471,1758074438.65394,0.0,0.0,0.0,58.15522,8.42248,-11.45916,9.43,-3.06,0.93,2.0
1758074438.66561,1758074438.66394,0.0,0.0,0.0,64.40046,5.55769,-12.08941,9.43,-3.06,0.7,2.0
1758074438.68043,1758074438.67394,0.0,0.0,0.0,68.52576,0.85944,-12.60507,9.22,-3.16,0.7,2.0
1758074438.68164,1758074438.68394,0.0,0.0,0.0,72.0208,-7.33386,-11.74564,9.08,-2.61,1.44,2.0
1758074438.69742,1758074438.69394,0.0,0.0,0.0,73.3386,-19.88164,-11.97482,9.08,-2.61,1.44,2.0
1758074438.71345,1758074438.70394,0.0,0.0,0.0,71.21866,-34.14828,-11.28727,9.87,-1.4,2.57,2.0
1758074438.71492,1758074438.71394,0.0,0.0,0.0,68.12468,-32.71589,-13.00614,9.87,-1.4,2.57,2.0
1758074438.72945,1758074438.72394,0.0,0.0,0.0,65.14531,-18.16276,-10.25595,12.28,-0.4,3.2,2.0
1758074438.74561,1758074438.73394,0.0,0.0,0.0,58.78547,3.89611,-9.91217,12.28,-0.4,3.2,2.0
1758074438.74699,1758074438.74394,0.0,0.0,0.0,46.75336,12.83425,-9.28192,13.37,0.2,3.9,2.0
1758074438.7617,1758074438.75394,0.0,0.0,0.0,35.69527,-6.18794,-15.41257,8.1,0.27,3.35,2.0
1758074438.76312,1758074438.76394,0.0,0.0,0.0,32.83048,-34.09099,-7.39116,8.1,0.27,3.35,2.0
1758074438.77774,1758074438.77394,0.0,0.0,0.0,26.98631,-37.81522,-6.47442,8.59,0.1,1.4,2.0
1758074438.79348,1758074438.78394,0.0,0.0,0.0,22.23076,-36.95578,-1.08862,8.59,0.1,1.4,2.0
1758074438.79493,1758074438.79394,0.0,0.0,0.0,19.53786,-35.58068,1.3751,10.17,0.09,1.94,2.0
1758074438.80975,1758074438.80394,0.0,0.0,0.0,18.27736,-30.19488,1.3178,10.17,0.09,1.94,2.0
1758074438.82567,1758074438.81394,0.0,0.0,0.0,17.01685,-24.29341,-1.66158,10.36,-0.13,3.77,2.0
1758074438.82668,1758074438.82394,0.0,0.0,0.0,15.98552,-16.04282,-6.53172,9.95,-0.49,3.96,2.0
1758074438.84167,1758074438.83394,0.0,0.0,0.0,14.78231,-13.23533,-12.49048,9.95,-0.49,3.96,2.0
1758074438.84269,1758074438.84394,0.0,0.0,0.0,14.15206,-11.51645,-16.61578,9.36,-0.26,3.8,2.0
1758074438.85774,1758074438.85394,0.0,0.0,0.0,14.43854,-10.31324,-19.82434,9.36,-0.26,3.8,2.0
1758074438.87357,1758074438.86394,0.0,0.0,0.0,15.75634,-11.74564,-20.74107,9.12,-0.06,3.82,2.0
1758074438.87469,1758074438.87394,0.0,0.0,0.0,18.10547,-14.09476,-18.73572,9.12,-0.06,3.82,2.0
1758074438.88949,1758074438.88394,0.0,0.0,0.0,20.05352,-11.80293,-17.36062,9.39,-0.53,3.51,2.0
1758074438.9055,1758074438.89394,0.0,0.0,0.0,24.35071,-10.65701,-13.23533,10.45,-1.19,3.52,2.0
1758074438.90695,1758074438.90394,0.0,0.0,0.0,27.1582,-9.11003,-10.8862,10.45,-1.19,3.52,2.0
1758074438.92179,1758074438.91394,0.0,0.0,0.0,29.9084,-6.24524,-8.59437,10.92,-1.35,3.52,2.0
1758074438.92294,1758074438.92394,0.0,0.0,0.0,32.54401,-2.97938,-6.53172,10.92,-1.35,3.52,2.0
1758074438.93774,1758074438.93394,0.0,0.0,0.0,36.26823,2.00535,-4.1253,10.56,-0.8,3.22,2.0
1758074438.95375,1758074438.94394,0.0,0.0,0.0,38.1017,4.46907,-3.38045,10.56,-0.8,3.22,2.0
1758074438.95505,1758074438.95394,0.0,0.0,0.0,39.64868,8.36518,-3.83882,9.81,0.05,2.78,2.0
1758074438.96956,1758074438.96394,0.0,0.0,0.0,40.68,11.63104,-4.1253,9.81,0.05,2.78,2.0
1758074438.98568,1758074438.97394,0.0,0.0,0.0,41.25296,14.49583,-5.50039,9.54,0.72,2.53,2.0
1758074438.9867,1758074438.98394,0.0,0.0,0.0,41.31026,15.58445,-6.58902,9.17,0.92,2.39,2.0
1758074439.00179,1758074438.99394,0.0,0.0,0.0,40.7373,16.21471,-7.73493,9.17,0.92,2.39,2.0
1758074439.00274,1758074439.00394,0.0,0.0,0.0,40.45082,17.58981,-8.25059,9.01,0.76,2.13,2.0
1758074439.01756,1758074439.01394,0.0,0.0,0.0,39.82057,19.53786,-7.84952,9.01,0.76,2.13,2.0
1758074439.03366,1758074439.02394,0.0,0.0,0.0,39.3622,20.51189,-6.70361,8.94,0.59,2.04,2.0
1758074439.0347,1758074439.03394,0.0,0.0,0.0,38.73195,22.11617,-4.87014,8.94,0.59,2.04,2.0
1758074439.04958,1758074439.04394,0.0,0.0,0.0,36.49741,23.94964,-2.23454,8.96,0.55,2.14,2.0
1758074439.06575,1758074439.05394,0.0,0.0,0.0,34.37747,25.21014,-0.97403,8.68,0.67,2.05,2.0
1758074439.067,1758074439.06394,0.0,0.0,0.0,31.91375,25.21014,0.0573,8.68,0.67,2.05,2.0
1758074439.082,1758074439.07394,0.0,0.0,0.0,29.62192,24.80907,1.3178,8.23,0.96,2.15,2.0
1758074439.08306,1758074439.08394,0.0,0.0,0.0,26.47065,21.48592,3.38045,8.23,0.96,2.15,2.0
1758074439.09775,1758074439.09394,0.0,0.0,0.0,24.00693,18.10547,4.46907,7.83,1.34,2.49,2.0
1758074439.11361,1758074439.10394,0.0,0.0,0.0,22.00158,13.17803,6.35983,7.83,1.34,2.49,2.0
1758074439.11521,1758074439.11394,0.0,0.0,0.0,19.53786,9.05273,8.47978,7.97,1.81,2.84,2.0
1758074439.12963,1758074439.12394,0.0,0.0,0.0,14.72501,1.48969,11.22997,8.7,2.12,3.06,2.0
1758074439.14581,1758074439.13394,0.0,0.0,0.0,10.48513,-3.09397,12.60507,8.7,2.12,3.06,2.0
1758074439.147,1758074439.14394,0.0,0.0,0.0,5.61499,-7.33386,13.23533,9.37,1.9,2.87,2.0
1758074439.16165,1758074439.15394,0.0,0.0,0.0,1.14592,-9.5684,13.17803,9.37,1.9,2.87,2.0
1758074439.16305,1758074439.16394,0.0,0.0,0.0,-4.35448,-9.22462,12.2613,9.76,1.06,2.48,2.0
1758074439.17783,1758074439.17394,0.0,0.0,0.0,-7.10468,-8.65166,11.00079,9.76,1.06,2.48,2.0
1758074439.19385,1758074439.18394,0.0,0.0,0.0,-9.22462,-6.47442,9.4538,9.74,0.46,2.23,2.0
1758074439.19521,1758074439.19394,0.0,0.0,0.0,-10.25595,-3.49504,8.47978,9.74,0.46,2.23,2.0
1758074439.20987,1758074439.20394,0.0,0.0,0.0,-10.8289,-0.11459,7.73493,10.02,0.44,2.16,2.0
1758074439.22577,1758074439.21394,0.0,0.0,0.0,-10.54242,0.57296,7.96411,9.94,0.6,2.16,2.0
1758074439.22687,1758074439.22394,0.0,0.0,0.0,-9.85487,-0.57296,9.62569,9.94,0.6,2.16,2.0
1758074439.24182,1758074439.23394,0.0,0.0,0.0,-9.33921,-1.66158,11.45916,9.75,0.74,1.99,2.0
1758074439.24316,1758074439.24394,0.0,0.0,0.0,-9.5684,-3.38045,13.34992,9.75,0.74,1.99,2.0
1758074439.25792,1758074439.25394,0.0,0.0,0.0,-10.31324,-1.20321,14.20935,9.45,0.83,1.79,2.0
1758074439.27361,1758074439.26394,0.0,0.0,0.0,-11.80293,2.86479,14.61043,9.45,0.83,1.79,2.0
1758074439.27482,1758074439.27394,0.0,0.0,0.0,-15.35527,7.04738,14.72501,9.45,0.79,1.95,2.0
1758074439.28973,1758074439.28394,0.0,0.0,0.0,-18.44924,7.50575,14.49583,8.85,0.77,1.99,2.0
1758074439.30567,1758074439.29394,0.0,0.0,0.0,-22.28806,5.61499,14.38124,8.85,0.77,1.99,2.0
1758074439.30712,1758074439.30394,0.0,0.0,0.0,-26.64254,3.55234,13.69369,8.58,0.87,1.99,2.0
1758074439.3217,1758074439.31394,0.0,0.0,0.0,-34.60666,-2.00535,13.12073,8.58,0.87,1.99,2.0
1758074439.32336,1758074439.32394,0.0,0.0,0.0,-40.10705,-5.4431,12.08941,8.67,1.17,1.69,2.0
1758074439.33771,1758074439.33394,0.0,0.0,0.0,-45.20637,-9.96947,10.54242,8.67,1.17,1.69,2.0
1758074439.35366,1758074439.34394,0.0,0.0,0.0,-48.8733,-22.57454,10.02676,8.39,1.39,1.73,2.0
1758074439.35483,1758074439.35394,0.0,0.0,0.0,-51.39432,-39.53409,9.62569,7.81,0.94,1.21,2.0
1758074439.36968,1758074439.36393,0.0,0.0,0.0,-51.6235,-47.72739,10.71431,7.81,0.94,1.21,2.0
1758074439.38571,1758074439.37393,0.0,0.0,0.0,-52.54023,-51.39432,11.91752,8.69,0.39,0.6,2.0
1758074439.38708,1758074439.38393,0.0,0.0,0.0,-52.884,-36.7266,13.86558,8.69,0.39,0.6,2.0
1758074439.40174,1758074439.39393,0.0,0.0,0.0,-56.60823,2.92208,14.03747,11.82,0.09,1.83,2.0
1758074439.40316,1758074439.40393,0.0,0.0,0.0,-54.3737,-18.85031,17.47521,11.82,0.09,1.83,2.0
1758074439.41796,1758074439.41393,0.0,0.0,0.0,-58.49899,-31.11161,13.40721,7.54,-0.19,2.63,2.0
1758074439.43368,1758074439.42393,0.0,0.0,0.0,-59.64491,-42.57077,11.22997,7.54,-0.19,2.63,2.0
1758074439.4351,1758074439.43393,0.0,0.0,0.0,-58.15522,-43.25832,10.25595,8.62,0.01,0.72,2.0
1758074439.45002,1758074439.44393,0.0,0.0,0.0,-56.03527,-39.3622,11.51645,10.37,-0.03,-0.39,2.0
1758074439.46597,1758074439.45393,0.0,0.0,0.0,-54.48829,-32.83048,12.71966,10.37,-0.03,-0.39,2.0
1758074439.46689,1758074439.46393,0.0,0.0,0.0,-51.5662,-23.89234,15.64175,10.76,-0.58,1.03,2.0
1758074439.48203,1758074439.47393,0.0,0.0,0.0,-49.27437,-18.85031,17.58981,10.76,-0.58,1.03,2.0
1758074439.48286,1758074439.48393,0.0,0.0,0.0,-46.63877,-15.29797,18.85031,10.57,-1.17,1.55,2.0
1758074439.49786,1758074439.49393,0.0,0.0,0.0,-43.88857,-14.83961,19.19409,10.57,-1.17,1.55,2.0
1758074439.51398,1758074439.50393,0.0,0.0,0.0,-39.4195,-18.90761,17.87628,10.14,-1.73,1.21,2.0
1758074439.52996,1758074439.51393,0.0,0.0,0.0,-36.84119,-23.72045,16.04282,9.56,-1.86,1.09,2.0
1758074439.5311,1758074439.52393,0.0,0.0,0.0,-34.60666,-28.87707,13.80828,9.56,-1.86,1.09,2.0
1758074439.54596,1758074439.53393,0.0,0.0,0.0,-32.37212,-30.76784,11.45916,9.92,-1.4,1.4,2.0
1758074439.54689,1758074439.54393,0.0,0.0,0.0,-28.41871,-33.05967,8.42248,9.92,-1.4,1.4,2.0
1758074439.56164,1758074439.55393,0.0,0.0,0.0,-26.24147,-35.75257,5.95876,10.55,-0.84,1.83,2.0
1758074439.56288,1758074439.56393,0.0,0.0,0.0,-24.35071,-36.89849,3.95341,10.55,-0.84,1.83,2.0
1758074439.57794,1758074439.57393,0.0,0.0,0.0,-22.23076,-34.60666,2.63561,11.28,-0.49,1.9,2.0
1758074439.59382,1758074439.58393,0.0,0.0,0.0,-18.73572,-25.15285,2.7502,12.94,-0.95,2.17,2.0
1758074439.61226,1758074439.59393,0.0,0.0,0.0,-15.58445,-14.43854,3.38045,12.94,-0.95,2.17,2.0
1758074439.61247,1758074439.60393,0.0,0.0,0.0,-11.17268,-3.32316,4.52637,15.5,-2.46,2.6,2.0
1758074439.62567,1758074439.61393,0.0,0.0,0.0,-6.24524,6.24524,5.72958,15.5,-2.46,2.6,2.0
1758074439.62689,1758074439.62393,0.0,0.0,0.0,0.80214,10.02676,8.02141,14.94,-3.76,2.4,2.0
1758074439.64171,1758074439.63393,0.0,0.0,0.0,4.18259,2.40642,11.86023,14.94,-3.76,2.4,2.0
1758074439.64303,1758074439.64393,0.0,0.0,0.0,5.21392,-11.34457,15.98552,10.76,-2.99,2.49,2.0
1758074439.65791,1758074439.65393,0.0,0.0,0.0,3.83882,-33.23156,20.85567,10.76,-2.99,2.49,2.0
1758074439.67396,1758074439.66393,0.0,0.0,0.0,0.51566,-42.51347,21.88699,8.46,-0.87,2.22,2.0
1758074439.6753,1758074439.67393,0.0,0.0,0.0,-3.26586,-46.40959,22.05888,8.68,0.28,2.05,2.0
1758074439.68995,1758074439.68393,0.0,0.0,0.0,-7.84952,-46.06581,21.6578,8.68,0.28,2.05,2.0
1758074439.70595,1758074439.69393,0.0,0.0,0.0,-16.04282,-46.00851,19.88164,7.98,0.61,2.5,2.0
1758074439.70697,1758074439.70393,0.0,0.0,0.0,-22.34536,-45.37826,18.10547,7.98,0.61,2.5,2.0
1758074439.72194,1758074439.71393,0.0,0.0,0.0,-28.41871,-43.25832,16.10011,6.65,0.34,2.34,2.0
1758074439.72296,1758074439.72393,0.0,0.0,0.0,-34.0337,-38.56006,13.5218,6.65,0.34,2.34,2.0
1758074439.73792,1758074439.73393,0.0,0.0,0.0,-40.50812,-26.41335,9.05273,6.99,-0.49,1.98,2.0
1758074439.75373,1758074439.74393,0.0,0.0,0.0,-43.54479,-18.16276,6.41713,9.03,-1.66,2.21,2.0
1758074439.75527,1758074439.75393,0.0,0.0,0.0,-44.63341,-5.72958,3.20856,9.03,-1.66,2.21,2.0
1758074439.76976,1758074439.76393,0.0,0.0,0.0,-43.14373,7.73493,-0.51566,12.19,-3.38,2.57,2.0
1758074439.78577,1758074439.77393,0.0,0.0,0.0,-37.12767,28.41871,-4.98473,12.19,-3.38,2.57,2.0
1758074439.78709,1758074439.78393,0.0,0.0,0.0,-30.30947,41.71133,-5.55769,13.34,-4.93,1.43,2.0
1758074439.80192,1758074439.79393,0.0,0.0,0.0,-22.57454,48.07116,-4.87014,13.34,-4.93,1.43,2.0
1758074439.8033,1758074439.80393,0.0,0.0,0.0,-15.24068,46.81066,-2.06265,11.37,-5.29,0.86,2.0
1758074439.81777,1758074439.81393,0.0,0.0,0.0,-5.32851,42.1124,0.40107,9.68,-4.23,0.93,2.0
1758074439.83393,1758074439.82393,0.0,0.0,0.0,0.45837,39.4195,1.94806,9.68,-4.23,0.93,2.0
1758074439.835,1758074439.83393,0.0,0.0,0.0,5.15662,37.52874,3.95341,9.46,-2.81,0.64,2.0
1758074439.84995,1758074439.84393,0.0,0.0,0.0,9.85487,38.78925,6.24524,9.46,-2.81,0.64,2.0
1758074439.86578,1758074439.85393,0.0,0.0,0.0,11.63104,39.19032,7.44845,9.66,-2.14,0.83,2.0
1758074439.86698,1758074439.86393,0.0,0.0,0.0,12.60507,37.87251,8.30789,9.66,-2.14,0.83,2.0
1758074439.88193,1758074439.87393,0.0,0.0,0.0,13.06344,35.86716,9.62569,9.11,-2.14,0.95,2.0
1758074439.88331,1758074439.88393,0.0,0.0,0.0,13.34992,37.52874,11.74564,9.11,-2.14,1.04,2.0
1758074439.89789,1758074439.89393,0.0,0.0,0.0,13.40721,36.21093,12.83425,9.23,-2.44,1.04,2.0
1758074439.91386,1758074439.90393,0.0,0.0,0.0,13.34992,33.68992,13.06344,8.7,-2.76,0.75,2.0
1758074439.915,1758074439.91393,0.0,0.0,0.0,13.17803,31.85646,12.89155,8.7,-2.76,0.75,2.0
1758074439.92982,1758074439.92393,0.0,0.0,0.0,12.43318,28.76248,10.19865,8.89,-2.87,0.6,2.0
1758074439.94594,1758074439.93393,0.0,0.0,0.0,11.57375,26.18417,7.39116,8.89,-2.87,0.6,2.0
1758074439.94705,1758074439.94393,0.0,0.0,0.0,10.71431,24.4653,3.66693,9.06,-2.76,0.61,2.0
1758074439.96183,1758074439.95393,0.0,0.0,0.0,10.59972,25.43933,0.11459,9.06,-2.76,0.61,2.0
1758074439.97783,1758074439.96393,0.0,0.0,0.0,11.86023,25.72581,-4.35448,9.51,-2.54,0.83,2.0
1758074439.97913,1758074439.97393,0.0,0.0,0.0,13.40721,23.60586,-6.07335,9.16,-2.32,1.07,2.0
1758074439.99396,1758074439.98393,0.0,0.0,0.0,15.41257,21.6578,-6.99009,9.16,-2.32,1.07,2.0
1758074439.99505,1758074439.99393,0.0,0.0,0.0,17.93358,20.05352,-6.53172,9.18,-2.47,1.28,2.0
1758074440.01007,1758074440.00393,0.0,0.0,0.0,21.88699,21.7724,-5.21392,9.18,-2.47,1.28,2.0
1758074440.02603,1758074440.01393,0.0,0.0,0.0,23.83505,23.26209,-4.52637,9.5,-2.92,1.35,2.0
1758074440.02709,1758074440.02393,0.0,0.0,0.0,25.26744,24.23611,-4.1253,9.5,-2.92,1.35,2.0
1758074440.04204,1758074440.03393,0.0,0.0,0.0,26.41335,24.12152,-4.58366,9.29,-3.04,1.69,2.0
1758074440.04308,1758074440.04393,0.0,0.0,0.0,26.75713,23.0902,-5.50039,9.25,-2.69,1.76,2.0
1758074440.0578,1758074440.05393,0.0,0.0,0.0,27.2155,23.0902,-6.8182,9.25,-2.69,1.76,2.0
1758074440.07389,1758074440.06393,0.0,0.0,0.0,27.84575,23.83505,-8.25059,9.53,-2.31,1.78,2.0
1758074440.07509,1758074440.07393,0.0,0.0,0.0,29.39274,25.38203,-9.91217,9.53,-2.31,1.78,2.0
1758074440.08989,1758074440.08393,0.0,0.0,0.0,31.11161,27.38738,-10.8289,9.64,-2.16,1.87,2.0
1758074440.10591,1758074440.09393,0.0,0.0,0.0,33.34615,29.56462,-10.65701,9.64,-2.16,1.87,2.0
1758074440.10717,1758074440.10393,0.0,0.0,0.0,36.26823,29.73651,-9.4538,9.57,-2.29,2.0,2.0
1758074440.1219,1758074440.11393,0.0,0.0,0.0,41.71133,28.07493,-6.53172,9.17,-2.57,1.88,2.0
1758074440.12312,1758074440.12393,0.0,0.0,0.0,45.60744,27.10091,-4.18259,9.17,-2.57,1.88,2.0
1758074440.13787,1758074440.13393,0.0,0.0,0.0,49.50356,26.35606,-1.94806,9.15,-2.79,1.63,2.0
1758074440.15396,1758074440.14393,0.0,0.0,0.0,52.884,24.92367,-0.17189,9.15,-2.79,1.63,2.0
1758074440.15508,1758074440.15393,0.0,0.0,0.0,56.83742,22.63183,1.14592,9.13,-2.72,1.44,2.0
1758074440.16994,1758074440.16393,0.0,0.0,0.0,58.49899,21.60051,1.43239,9.13,-2.72,1.44,2.0
1758074440.18628,1758074440.17393,0.0,0.0,0.0,59.53032,18.50654,0.68755,9.28,-2.59,1.42,2.0
1758074440.18746,1758074440.18393,0.0,0.0,0.0,60.16057,12.71966,-0.74485,9.28,-2.59,1.42,2.0
1758074440.20193,1758074440.19393,0.0,0.0,0.0,59.70221,-2.40642,-4.58366,8.91,-2.41,1.12,2.0
1758074440.2034,1758074440.20393,0.0,0.0,0.0,59.07195,-9.4538,-6.70361,8.83,-2.04,0.66,2.0
1758074440.21799,1758074440.21393,0.0,0.0,0.0,57.92604,-10.19865,-10.59972,8.83,-2.04,0.66,2.0
1758074440.23392,1758074440.22393,0.0,0.0,0.0,59.47303,2.34913,-13.5218,10.4,-1.94,0.45,2.0
1758074440.23512,1758074440.23393,0.0,0.0,0.0,63.8275,25.8404,-15.06879,10.4,-1.94,0.45,2.0
1758074440.24995,1758074440.24393,0.0,0.0,0.0,65.66096,36.7266,-16.67307,11.17,-2.02,2.36,2.0
1758074440.2667,1758074440.25393,0.0,0.0,0.0,66.00475,37.92981,-16.21471,11.17,-2.02,2.36,2.0
1758074440.26797,1758074440.26393,0.0,0.0,0.0,65.2599,18.16276,-18.22006,10.44,-1.2,4.73,2.0
1758074440.28313,1758074440.27393,0.0,0.0,0.0,61.93674,-26.01229,-13.5791,8.82,0.03,4.87,2.0
1758074440.28443,1758074440.28393,0.0,0.0,0.0,58.09792,-48.64412,-6.13065,8.82,0.03,4.87,2.0
1758074440.29916,1758074440.29393,0.0,0.0,0.0,53.74345,-52.42564,3.72423,12.51,0.21,2.71,2.0
1758074440.31518,1758074440.30393,0.0,0.0,0.0,42.62806,-36.95578,10.8862,12.51,0.21,2.71,2.0
1758074440.31638,1758074440.31393,0.0,0.0,0.0,35.52338,-26.87172,13.23533,12.41,-0.3,2.11,2.0
1758074440.33117,1758074440.32393,0.0,0.0,0.0,28.30412,-19.82434,12.43318,12.41,-0.3,2.11,2.0
1758074440.33237,1758074440.33393,0.0,0.0,0.0,21.7724,-15.75634,9.74028,9.41,-0.94,2.67,2.0
1758074440.34819,1758074440.34393,0.0,0.0,0.0,13.80828,-9.74028,1.66158,8.19,-0.63,2.61,2.0
1758074440.36493,1758074440.35393,0.0,0.0,0.0,9.96947,-6.58902,-5.4431,8.19,-0.63,2.61,2.0
1758074440.36643,1758074440.36393,0.0,0.0,0.0,8.0787,-4.35448,-12.08941,8.13,0.35,2.67,2.0
1758074440.38119,1758074440.37393,0.0,0.0,0.0,7.04738,-1.3178,-18.16276,8.13,0.35,2.67,2.0
1758074440.38246,1758074440.38393,0.0,0.0,0.0,7.62034,0.97403,-22.86102,8.97,0.97,3.48,2.0
1758074440.39831,1758074440.39393,0.0,0.0,0.0,8.42248,0.11459,-24.29341,8.97,0.97,3.48,2.0
1758074440.41436,1758074440.40393,0.0,0.0,0.0,10.59972,-3.38045,-23.31938,9.38,0.53,4.29,2.0
1758074440.42994,1758074440.41393,0.0,0.0,0.0,13.17803,-5.09932,-21.25674,9.38,0.53,4.29,2.0
1758074440.43113,1758074440.42393,0.0,0.0,0.0,17.93358,-8.65166,-15.69904,9.52,-0.67,4.02,2.0
1758074440.44598,1758074440.43393,0.0,0.0,0.0,21.42862,-11.22997,-12.08941,9.38,-1.79,4.11,2.0
1758074440.44732,1758074440.44393,0.0,0.0,0.0,25.38203,-12.83425,-8.88085,9.38,-1.79,4.11,2.0
1758074440.46206,1758074440.45393,0.0,0.0,0.0,32.20023,-15.35527,-5.15662,9.51,-2.44,3.91,2.0
1758074440.46327,1758074440.46393,0.0,0.0,0.0,36.03905,-13.34992,-4.58366,9.51,-2.44,3.91,2.0
1758074440.478,1758074440.47393,0.0,0.0,0.0,39.76327,-12.204,-4.87014,10.02,-2.19,3.86,2.0
1758074440.49401,1758074440.48393,0.0,0.0,0.0,43.14373,-11.51645,-5.84417,10.02,-2.19,3.86,2.0
1758074440.49523,1758074440.49393,0.0,0.0,0.0,47.38361,-11.28727,-7.16197,9.74,-1.23,3.56,2.0
1758074440.51005,1758074440.50393,0.0,0.0,0.0,49.50356,-9.11003,-7.21927,9.58,-0.25,3.25,2.0
1758074440.52611,1758074440.51393,0.0,0.0,0.0,50.93595,-7.16197,-6.47442,9.58,-0.25,3.25,2.0
1758074440.52776,1758074440.52393,0.0,0.0,0.0,51.6235,-6.07335,-5.4431,9.63,0.56,3.0,2.0
1758074440.54203,1758074440.53393,0.0,0.0,0.0,52.13916,-3.49504,-3.60963,9.63,0.56,3.0,2.0
1758074440.54324,1758074440.54393,0.0,0.0,0.0,51.90998,-2.40642,-2.29183,9.7,0.89,2.79,2.0
1758074440.55808,1758074440.55393,0.0,0.0,0.0,51.85268,-0.34377,-1.14592,9.7,0.89,2.79,2.0
1758074440.574,1758074440.56393,0.0,0.0,0.0,51.50891,1.60428,-0.11459,9.65,0.68,2.77,2.0
1758074440.57602,1758074440.57393,0.0,0.0,0.0,50.93595,3.66693,1.08862,9.4,0.43,2.71,2.0
1758074440.59226,1758074440.58393,0.0,0.0,0.0,50.363,5.32851,1.83346,9.4,0.43,2.71,2.0
1758074440.59345,1758074440.59393,0.0,0.0,0.0,49.84733,7.16197,2.63561,9.37,0.39,2.63,2.0
1758074440.60833,1758074440.60393,0.0,0.0,0.0,49.04519,9.85487,3.49504,9.37,0.39,2.63,2.0
1758074440.62431,1758074440.61393,0.0,0.0,0.0,47.67009,11.63104,5.21392,9.29,0.55,2.57,2.0
1758074440.62524,1758074440.62393,0.0,0.0,0.0,46.06581,14.15206,6.53172,9.29,0.55,2.57,2.0
1758074440.64029,1758074440.63393,0.0,0.0,0.0,43.4875,15.64175,7.39116,9.36,0.87,2.64,2.0
1758074440.65626,1758074440.64393,0.0,0.0,0.0,38.44547,16.90226,7.79223,9.36,0.87,2.64,2.0
1758074440.65725,1758074440.65393,0.0,0.0,0.0,34.72124,18.50654,7.67763,9.12,1.28,2.53,2.0
1758074440.67219,1758074440.66393,0.0,0.0,0.0,31.28349,18.16276,7.79223,8.84,1.64,2.52,2.0
1758074440.67324,1758074440.67393,0.0,0.0,0.0,27.84575,17.93358,7.96411,8.84,1.64,2.52,2.0
1758074440.68807,1758074440.68393,0.0,0.0,0.0,23.54857,16.10011,8.02141,8.72,1.64,2.48,2.0
1758074440.7041,1758074440.69393,0.0,0.0,0.0,21.25674,13.34992,8.02141,8.72,1.64,2.48,2.0
1758074440.70525,1758074440.70393,0.0,0.0,0.0,19.76705,8.99544,8.42248,8.62,1.36,2.48,2.0
1758074440.72034,1758074440.71393,0.0,0.0,0.0,18.90761,3.26586,9.11003,8.62,1.36,2.48,2.0
1758074440.7361,1758074440.72393,0.0,0.0,0.0,18.44924,0.85944,10.94349,8.84,0.9,2.25,2.0
1758074440.73726,1758074440.73393,0.0,0.0,0.0,18.56383,-2.57831,12.77696,9.15,0.45,2.4,2.0
1758074440.75232,1758074440.74393,0.0,0.0,0.0,17.99088,-5.78687,13.80828,9.15,0.45,2.4,2.0
1758074440.75325,1758074440.75393,0.0,0.0,0.0,17.47521,-9.74028,15.35527,8.73,0.26,2.24,2.0
1758074440.76833,1758074440.76393,0.0,0.0,0.0,15.69904,-15.0115,17.76169,8.73,0.26,2.24,2.0
1758074440.78407,1758074440.77393,0.0,0.0,0.0,13.75099,-18.44924,18.9649,8.71,0.52,2.12,2.0
1758074440.78528,1758074440.78393,0.0,0.0,0.0,11.34457,-19.19409,19.99623,8.71,0.52,2.12,2.0
1758074440.80014,1758074440.79393,0.0,0.0,0.0,8.30789,-18.16276,20.85567,8.96,1.04,2.02,2.0
1758074440.81641,1758074440.80393,0.0,0.0,0.0,3.66693,-15.12609,21.6578,9.06,1.28,2.34,2.0
1758074440.81729,1758074440.81393,0.0,0.0,0.0,0.74485,-13.17803,21.7151,9.06,1.28,2.34,2.0
1758074440.83221,1758074440.82393,0.0,0.0,0.0,-2.34913,-10.19865,21.37133,9.01,1.19,2.24,2.0
1758074440.8333,1758074440.83393,0.0,0.0,0.0,-5.4431,-6.41713,21.08485,9.01,1.19,2.24,2.0
1758074440.84837,1758074440.84393,0.0,0.0,0.0,-10.54242,3.32316,20.85567,9.31,1.09,2.12,2.0
1758074440.86438,1758074440.85393,0.0,0.0,0.0,-14.61043,7.79223,19.88164,9.31,1.09,2.12,2.0
1758074440.8803,1758074440.86393,0.0,0.0,0.0,-18.44924,7.10468,20.34,9.25,1.06,2.13,2.0
1758074440.88324,1758074440.87393,0.0,0.0,0.0,-25.89769,3.55234,18.56383,9.25,1.06,2.13,2.0
1758074440.8836,1758074440.88393,0.0,0.0,0.0,-30.99702,-1.71887,18.56383,8.89,1.08,2.14,2.0
1758074440.89936,1758074440.89393,0.0,0.0,0.0,-36.7266,-5.55769,17.36062,9.12,1.11,1.74,2.0
1758074440.91543,1758074440.90393,0.0,0.0,0.0,-41.99781,-10.08406,16.67307,9.12,1.11,1.74,2.0
1758074440.91634,1758074440.91393,0.0,0.0,0.0,-49.15978,-15.92823,14.78231,9.22,1.04,1.54,2.0
1758074440.93142,1758074440.92393,0.0,0.0,0.0,-52.54023,-21.60051,13.23533,9.22,1.04,1.54,2.0
1758074440.93259,1758074440.93393,0.0,0.0,0.0,-53.97263,-33.51803,13.75099,8.8,0.67,1.27,2.0
1758074440.9482,1758074440.94393,0.0,0.0,0.0,-53.45696,-43.88857,13.98017,8.8,0.67,1.27,2.0
1758074440.96441,1758074440.95393,0.0,0.0,0.0,-50.64947,-54.60288,16.272,8.39,-0.01,0.47,2.0
1758074440.96536,1758074440.96393,0.0,0.0,0.0,-48.9306,-58.4417,18.10547,9.12,-0.49,0.24,2.0
1758074440.98023,1758074440.97393,0.0,0.0,0.0,-47.32632,-50.47758,20.45459,9.12,-0.49,0.24,2.0
1758074440.99646,1758074440.98393,0.0,0.0,0.0,-46.98254,-22.97561,18.79302,11.69,-0.52,1.46,2.0
1758074440.99738,1758074440.99393,0.0,0.0,0.0,-43.88857,-12.2613,22.74642,11.69,-0.52,1.46,2.0
1758074441.01242,1758074441.00393,0.0,0.0,0.0,-46.69606,-33.80451,17.30333,8.94,-0.58,2.14,2.0
1758074441.01339,1758074441.01393,0.0,0.0,0.0,-47.15443,-43.83128,13.34992,8.94,-0.58,2.14,2.0
1758074441.02843,1758074441.02393,0.0,0.0,0.0,-47.44091,-51.85268,11.00079,8.68,-0.07,0.42,2.0
1758074441.04439,1758074441.03393,0.0,0.0,0.0,-45.26366,-45.26366,9.28192,10.48,-0.1,-0.21,2.0
1758074441.04539,1758074441.04393,0.0,0.0,0.0,-42.22699,-36.55471,10.02676,10.48,-0.1,-0.21,2.0
1758074441.06041,1758074441.05393,0.0,0.0,0.0,-37.47144,-28.87707,11.57375,10.75,-1.17,1.43,2.0
1758074441.07619,1758074441.06393,0.0,0.0,0.0,-27.84575,-15.06879,13.69369,10.75,-1.17,1.43,2.0
1758074441.0774,1758074441.07393,0.0,0.0,0.0,-22.86102,-8.76626,12.89155,10.93,-2.27,1.97,2.0
1758074441.09246,1758074441.08393,0.0,0.0,0.0,-21.08485,-7.04738,11.51645,10.93,-2.27,1.97,2.0
1758074441.09341,1758074441.09393,0.0,0.0,0.0,-19.59516,-8.59437,10.31324,10.39,-1.76,0.97,2.0
1758074441.10848,1758074441.10393,0.0,0.0,0.0,-17.13144,-12.54778,7.96411,10.39,-1.76,1.56,2.0
1758074441.12447,1758074441.11393,0.0,0.0,0.0,-15.12609,-18.27736,6.07335,10.26,-1.27,1.56,2.0
1758074441.12615,1758074441.12393,0.0,0.0,0.0,-13.5791,-22.86102,2.86479,10.99,-0.89,2.5,2.0
1758074441.14132,1758074441.13393,0.0,0.0,0.0,-11.91752,-26.01229,0.68755,10.99,-0.89,2.5,2.0
1758074441.14271,1758074441.14393,0.0,0.0,0.0,-9.62569,-22.63183,-1.20321,12.0,-0.84,2.36,2.0
1758074441.15812,1758074441.15393,0.0,0.0,0.0,-8.25059,-16.50119,-0.80214,12.0,-0.84,2.36,2.0
1758074441.17421,1758074441.16393,0.0,0.0,0.0,-7.33386,-9.39651,-0.74485,12.84,-1.18,2.55,2.0
1758074441.1757,1758074441.17393,0.0,0.0,0.0,-5.4431,-0.40107,0.0573,12.84,-1.18,2.55,2.0
1758074441.1902,1758074441.18393,0.0,0.0,0.0,-1.71887,8.0787,2.29183,14.05,-2.08,2.15,2.0
1758074441.20621,1758074441.19393,0.0,0.0,0.0,0.22918,8.93814,4.35448,13.02,-2.64,2.19,2.0
1758074441.20778,1758074441.20393,0.0,0.0,0.0,1.83346,4.98473,7.73493,13.02,-2.64,2.19,2.0
1758074441.22218,1758074441.21393,0.0,0.0,0.0,2.34913,-4.23989,11.86023,10.52,-1.88,2.11,2.0
1758074441.22346,1758074441.22393,0.0,0.0,0.0,1.03132,-23.49127,17.13144,10.52,-1.88,2.11,2.0
1758074441.23823,1758074441.23393,0.0,0.0,0.0,-1.03132,-35.3515,19.42327,8.98,-0.44,1.99,2.0
1758074441.25452,1758074441.24393,0.0,0.0,0.0,-4.29718,-43.02913,20.11082,8.98,-0.44,1.99,2.0
1758074441.2565,1758074441.25393,0.0,0.0,0.0,-10.71431,-45.89392,19.25138,8.84,0.09,2.08,2.0
1758074441.27151,1758074441.26393,0.0,0.0,0.0,-15.46986,-45.55015,18.16276,8.33,0.06,2.28,2.0
1758074441.2727,1758074441.27393,0.0,0.0,0.0,-20.79837,-45.14908,16.73037,8.33,0.06,2.28,2.0
1758074441.28855,1758074441.28393,0.0,0.0,0.0,-26.18417,-44.00316,15.24068,7.37,-0.29,2.44,2.0
1758074441.30425,1758074441.29393,0.0,0.0,0.0,-33.40344,-38.44547,10.94349,7.37,-0.29,2.44,2.0
1758074441.30543,1758074441.30393,0.0,0.0,0.0,-37.24226,-34.95043,9.74028,7.4,-0.96,1.89,2.0
1758074441.32041,1758074441.31393,0.0,0.0,0.0,-40.68,-26.81443,7.39116,7.4,-0.96,1.89,2.0
1758074441.33651,1758074441.32393,0.0,0.0,0.0,-42.74266,-16.55848,4.52637,9.18,-2.0,2.38,2.0
1758074441.33744,1758074441.33393,0.0,0.0,0.0,-41.94051,0.22918,-0.57296,11.04,-2.0,2.23,2.0
1758074441.35231,1758074441.34393,0.0,0.0,0.0,-39.07573,11.91752,-3.72423,11.04,-3.23,2.23,2.0
1758074441.35347,1758074441.35393,0.0,0.0,0.0,-34.37747,25.09555,-5.84417,12.25,-4.44,1.88,2.0
1758074441.36851,1758074441.36393,0.0,0.0,0.0,-28.07493,37.64333,-5.72958,12.25,-4.44,1.88,2.0
1758074441.38452,1758074441.37393,0.0,0.0,0.0,-16.67307,45.20637,-2.29183,11.6,-4.88,1.0,2.0
1758074441.38546,1758074441.38393,0.0,0.0,0.0,-9.74028,43.77398,-0.0573,11.6,-4.88,1.0,2.0
1758074441.4005,1758074441.39393,0.0,0.0,0.0,-3.20856,44.17505,2.29183,9.93,-4.24,0.82,2.0
1758074441.41626,1758074441.40393,0.0,0.0,0.0,1.60428,42.97184,3.49504,9.93,-4.24,0.82,2.0
1758074441.41701,1758074441.41393,0.0,0.0,0.0,8.136,43.14373,5.78687,9.71,-3.01,0.7,2.0
1758074441.43228,1758074441.42393,0.0,0.0,0.0,10.71431,43.37291,7.16197,9.69,-2.41,0.61,2.0
1758074441.43355,1758074441.43393,0.0,0.0,0.0,12.54778,43.54479,8.42248,9.69,-2.41,0.61,2.0
1758074441.44854,1758074441.44393,0.0,0.0,0.0,13.34992,42.39888,9.96947,9.35,-2.4,0.88,2.0
1758074441.46458,1758074441.45393,0.0,0.0,0.0,13.17803,38.21629,10.48513,9.35,-2.4,0.88,2.0
1758074441.46561,1758074441.46393,0.0,0.0,0.0,12.89155,34.95043,11.17268,8.8,-2.53,0.95,2.0
1758074441.48058,1758074441.47393,0.0,0.0,0.0,12.77696,33.05967,11.91752,8.8,-2.53,0.95,2.0
1758074441.49635,1758074441.48393,0.0,0.0,0.0,12.71966,29.62192,12.14671,8.99,-2.62,0.85,2.0
1758074441.49705,1758074441.49393,0.0,0.0,0.0,13.00614,26.18417,11.22997,8.89,-2.65,0.61,2.0
1758074441.51261,1758074441.50393,0.0,0.0,0.0,13.34992,22.86102,9.85487,8.89,-2.65,0.61,2.0
1758074441.51357,1758074441.51393,0.0,0.0,0.0,13.5791,19.70975,7.33386,8.98,-2.64,0.61,2.0
1758074441.52859,1758074441.52393,0.0,0.0,0.0,14.72501,19.53786,3.20856,8.98,-2.64,0.61,2.0
1758074441.54462,1758074441.53393,0.0,0.0,0.0,16.10011,20.79837,0.57296,9.36,-2.59,0.78,2.0
1758074441.54557,1758074441.54393,0.0,0.0,0.0,18.27736,21.31403,-1.60428,9.36,-2.59,0.78,2.0
1758074441.56063,1758074441.55393,0.0,0.0,0.0,20.3973,20.16812,-3.20856,9.17,-2.57,1.17,2.0
1758074441.57659,1758074441.56393,0.0,0.0,0.0,24.00693,17.30333,-4.23989,8.96,-2.68,1.32,2.0
1758074441.57693,1758074441.57393,0.0,0.0,0.0,26.52795,15.64175,-4.29718,8.96,-2.68,1.32,2.0
1758074441.59249,1758074441.58393,0.0,0.0,0.0,29.67921,14.66772,-3.83882,9.16,-2.89,1.35,2.0
1758074441.59347,1758074441.59393,0.0,0.0,0.0,31.16891,14.66772,-3.32316,9.16,-2.89,1.35,2.0
1758074441.60867,1758074441.60393,0.0,0.0,0.0,33.34615,16.55848,-3.38045,9.48,-2.94,1.33,2.0
1758074441.62455,1758074441.61393,0.0,0.0,0.0,34.49206,17.58981,-4.1253,9.48,-2.94,1.33,2.0
1758074441.62559,1758074441.62393,0.0,0.0,0.0,35.3515,18.22006,-4.98473,9.5,-2.72,1.41,2.0
1758074441.64044,1758074441.63393,0.0,0.0,0.0,36.15364,18.44924,-6.13065,9.5,-2.72,1.41,2.0
1758074441.65638,1758074441.64393,0.0,0.0,0.0,37.29956,18.62113,-8.136,9.47,-2.45,1.33,2.0
1758074441.65696,1758074441.65393,0.0,0.0,0.0,38.38818,18.44924,-9.68299,9.42,-2.32,1.28,2.0
1758074441.67261,1758074441.66393,0.0,0.0,0.0,40.16434,18.50654,-11.11538,9.42,-2.32,1.28,2.0
1758074441.6767,1758074441.67393,0.0,0.0,0.0,41.02378,18.9649,-12.49048,9.43,-2.31,1.31,2.0
1758074441.69237,1758074441.68393,0.0,0.0,0.0,42.68536,18.62113,-12.89155,9.43,-2.31,1.31,2.0
1758074441.69362,1758074441.69393,0.0,0.0,0.0,44.63341,18.44924,-12.77696,9.35,-2.35,1.42,2.0
1758074441.7084,1758074441.70393,0.0,0.0,0.0,47.72739,19.13679,-11.91752,9.35,-2.35,1.42,2.0
1758074441.72466,1758074441.71393,0.0,0.0,0.0,52.02457,20.3973,-9.05273,9.46,-2.43,1.39,2.0
1758074441.72561,1758074441.72393,0.0,0.0,0.0,55.57691,20.74107,-6.87549,9.49,-2.65,1.37,2.0
1758074441.74066,1758074441.73393,0.0,0.0,0.0,59.18654,21.02755,-4.92744,9.49,-2.65,1.37,2.0
1758074441.75637,1758074441.74393,0.0,0.0,0.0,62.5097,20.68378,-3.66693,9.4,-2.71,1.22,2.0
1758074441.75692,1758074441.75393,0.0,0.0,0.0,66.17663,19.07949,-2.7502,9.4,-2.71,1.22,2.0
1758074441.77265,1758074441.76393,0.0,0.0,0.0,67.9528,15.41257,-2.97938,9.14,-2.54,1.09,2.0
1758074441.77362,1758074441.77393,0.0,0.0,0.0,69.38519,6.24524,-4.18259,9.14,-2.54,1.09,2.0
1758074441.78867,1758074441.78393,0.0,0.0,0.0,70.41652,-4.35448,-5.84417,8.36,-2.12,0.69,2.0
1758074441.80543,1758074441.79393,0.0,0.0,0.0,69.27061,-11.91752,-9.62569,8.88,-1.72,0.0,2.0
1758074441.8083,1758074441.80393,0.0,0.0,0.0,70.81759,-4.98473,-12.71966,8.88,-1.72,0.0,2.0
1758074441.82469,1758074441.81393,0.0,0.0,0.0,73.51049,7.50575,-13.98017,11.05,-1.62,0.66,2.0
1758074441.82562,1758074441.82393,0.0,0.0,0.0,75.51585,22.05888,-15.35527,11.05,-1.62,0.66,2.0
1758074441.84069,1758074441.83393,0.0,0.0,0.0,76.20339,31.56997,-16.10011,11.41,-1.17,3.58,2.0
1758074441.8435,1758074441.84393,0.0,0.0,0.0,75.85962,20.97026,-16.3293,11.41,-1.17,3.58,2.0
1758074441.85845,1758074441.85393,0.0,0.0,0.0,69.3279,-11.34457,-17.30333,10.05,0.07,4.96,2.0
1758074441.87549,1758074441.86393,0.0,0.0,0.0,66.46311,-41.71133,-6.87549,10.05,0.07,4.96,2.0
1758074441.87665,1758074441.87393,0.0,0.0,0.0,61.53567,-49.50356,2.7502,11.21,0.88,3.94,2.0
1758074441.89177,1758074441.88393,0.0,0.0,0.0,54.08722,-40.33623,6.18794,14.06,0.43,2.46,2.0
1758074441.89458,1758074441.89393,0.0,0.0,0.0,47.38361,-30.76784,8.65166,14.06,0.43,2.46,2.0
1758074441.91176,1758074441.90393,0.0,0.0,0.0,37.75792,-19.59516,6.24524,11.7,-0.27,3.18,2.0
1758074441.91293,1758074441.91393,0.0,0.0,0.0,33.17426,-15.75634,2.86479,11.7,-0.27,3.18,2.0
1758074441.92745,1758074441.92393,0.0,0.0,0.0,30.13758,-13.23533,-3.03668,9.34,-0.5,3.81,2.0
1758074441.94526,1758074441.93393,0.0,0.0,0.0,29.10626,-12.08941,-9.85487,9.34,-0.5,3.81,2.0
1758074441.94651,1758074441.94393,0.0,0.0,0.0,30.76784,-13.00614,-18.33465,7.96,-0.14,3.36,2.0
1758074441.96173,1758074441.95393,0.0,0.0,0.0,33.17426,-12.83425,-21.7151,7.73,0.17,3.8,2.0
1758074441.96297,1758074441.96393,0.0,0.0,0.0,35.69527,-12.14671,-24.4653,7.73,0.17,3.8,2.0
1758074441.97773,1758074441.97393,0.0,0.0,0.0,38.61736,-12.49048,-23.83505,8.72,-0.11,3.85,2.0
1758074441.99377,1758074441.98393,0.0,0.0,0.0,43.37291,-6.99009,-21.94428,8.72,-0.11,3.85,2.0
1758074441.99625,1758074441.99393,0.0,0.0,0.0,46.06581,-4.58366,-19.07949,10.38,-0.79,3.98,2.0
1758074442.01149,1758074442.00393,0.0,0.0,0.0,48.24305,-2.7502,-15.92823,10.38,-0.79,3.98,2.0
1758074442.01272,1758074442.01393,0.0,0.0,0.0,49.38896,-1.77617,-12.54778,11.12,-1.24,4.02,2.0
1758074442.02772,1758074442.02393,0.0,0.0,0.0,49.67545,-1.03132,-7.10468,10.86,-1.07,3.88,2.0
1758074442.04455,1758074442.03393,0.0,0.0,0.0,49.56085,-0.57296,-4.1253,10.86,-1.07,3.88,2.0
1758074442.04973,1758074442.04393,0.0,0.0,0.0,49.27437,0.11459,-1.83346,9.7,-0.39,3.54,2.0
1758074442.06471,1758074442.05393,0.0,0.0,0.0,49.27437,0.85944,-0.80214,9.7,-0.39,3.54,2.0
1758074442.06564,1758074442.06393,0.0,0.0,0.0,49.15978,-1.03132,-1.20321,8.51,0.5,3.0,2.0
1758074442.0813,1758074442.07393,0.0,0.0,0.0,48.8733,-1.94806,-2.06265,8.51,0.5,3.0,2.0
1758074442.08279,1758074442.08393,0.0,0.0,0.0,48.01387,-2.34913,-3.32316,8.34,1.35,2.76,2.0
1758074442.09772,1758074442.09393,0.0,0.0,0.0,45.89392,-2.6929,-4.98473,8.34,1.35,2.76,2.0
1758074442.11477,1758074442.10393,0.0,0.0,0.0,44.46153,-2.7502,-5.55769,8.55,1.74,2.58,2.0
1758074442.11652,1758074442.11393,0.0,0.0,0.0,42.85724,-2.11994,-5.09932,8.72,1.48,2.66,2.0
1758074442.13151,1758074442.12393,0.0,0.0,0.0,41.59674,-1.14592,-3.66693,8.72,1.48,2.66,2.0
1758074442.13301,1758074442.13393,0.0,0.0,0.0,39.76327,0.0,-0.11459,9.02,0.93,2.71,2.0
1758074442.14773,1758074442.14393,0.0,0.0,0.0,38.38818,0.45837,2.29183,9.02,0.93,2.71,2.0
1758074442.16373,1758074442.15393,0.0,0.0,0.0,37.92981,2.23454,4.87014,9.3,0.56,2.79,2.0
1758074442.16657,1758074442.16393,0.0,0.0,0.0,37.35685,3.09397,6.99009,9.3,0.56,2.79,2.0
1758074442.18165,1758074442.17393,0.0,0.0,0.0,36.84119,5.32851,9.4538,9.39,0.57,2.87,2.0
1758074442.18272,1758074442.18393,0.0,0.0,0.0,35.92446,5.95876,10.59972,9.32,0.84,2.98,2.0
1758074442.19778,1758074442.19393,0.0,0.0,0.0,34.95043,6.7609,10.8862,9.32,0.84,2.98,2.0
1758074442.21355,1758074442.20393,0.0,0.0,0.0,33.40344,8.0787,10.59972,9.29,1.15,2.89,2.0
1758074442.23079,1758074442.21393,0.0,0.0,0.0,30.59595,6.87549,9.74028,9.29,1.15,2.89,2.0
1758074442.23199,1758074442.22393,0.0,0.0,0.0,28.76248,7.84952,8.76626,8.98,1.5,2.76,2.0
1758074442.23233,1758074442.23393,0.0,0.0,0.0,27.33009,8.0787,8.25059,8.98,1.5,2.76,2.0
1758074442.24855,1758074442.24393,0.0,0.0,0.0,26.12688,8.76626,8.47978,8.9,1.49,2.4,2.0
1758074442.25161,1758074442.25393,0.0,0.0,0.0,24.35071,9.39651,9.96947,8.83,1.26,2.23,2.0
1758074442.26781,1758074442.26393,0.0,0.0,0.0,22.68913,8.93814,11.74564,8.83,1.26,2.23,2.0
1758074442.28384,1758074442.27393,0.0,0.0,0.0,21.6578,7.84952,13.80828,8.65,1.04,2.27,2.0
1758074442.28564,1758074442.28393,0.0,0.0,0.0,18.90761,5.4431,17.18874,8.65,1.04,2.27,2.0
1758074442.30167,1758074442.29393,0.0,0.0,0.0,17.13144,3.55234,19.25138,8.67,0.88,2.44,2.0
1758074442.30266,1758074442.30393,0.0,0.0,0.0,15.24068,1.48969,21.25674,8.67,0.88,2.44,2.0
1758074442.3222,1758074442.31393,0.0,0.0,0.0,12.71966,-0.57296,22.63183,8.75,0.84,2.57,2.0
1758074442.32547,1758074442.32393,0.0,0.0,0.0,9.22462,-3.89611,23.66316,8.75,0.84,2.57,2.0
1758074442.3414,1758074442.33393,0.0,0.0,0.0,6.99009,-4.58366,23.83505,8.87,1.02,2.52,2.0
1758074442.3429,1758074442.34393,0.0,0.0,0.0,4.92744,-3.89611,23.94964,9.24,1.26,2.43,2.0
1758074442.36157,1758074442.35393,0.0,0.0,0.0,3.03668,-2.97938,23.54857,9.24,1.26,2.43,2.0
1758074442.36401,1758074442.36393,0.0,0.0,0.0,0.74485,-3.83882,23.37668,9.23,1.21,2.34,2.0
1758074442.38114,1758074442.37393,0.0,0.0,0.0,-0.40107,-4.18259,23.31938,9.23,1.21,2.34,2.0
1758074442.38255,1758074442.38393,0.0,0.0,0.0,-1.48969,-4.69825,23.54857,9.27,0.87,2.23,2.0
1758074442.40192,1758074442.39393,0.0,0.0,0.0,-2.63561,-2.92208,24.00693,9.27,0.87,2.23,2.0
1758074442.40682,1758074442.40393,0.0,0.0,0.0,-5.09932,2.57831,24.86637,9.52,0.57,2.29,2.0
1758074442.42169,1758074442.41393,0.0,0.0,0.0,-7.10468,1.77617,24.80907,9.46,0.52,2.58,2.0
1758074442.42387,1758074442.42393,0.0,0.0,0.0,-10.19865,-0.51566,23.72045,9.46,0.52,2.58,2.0
1758074442.44177,1758074442.43393,0.0,0.0,0.0,-13.5791,-4.58366,23.31938,8.95,0.74,2.34,2.0
1758074442.44388,1758074442.44393,0.0,0.0,0.0,-19.53786,-10.54242,22.57454,8.95,0.74,2.34,2.0
1758074442.45889,1758074442.45393,0.0,0.0,0.0,-23.49127,-14.38124,21.94428,8.9,1.06,2.08,2.0
1758074442.47489,1758074442.46393,0.0,0.0,0.0,-27.2155,-17.81899,21.48592,8.9,1.06,2.08,2.0
1758074442.47735,1758074442.47393,0.0,0.0,0.0,-32.25753,-20.11082,20.68378,8.84,1.2,1.92,2.0
1758074442.49371,1758074442.48393,0.0,0.0,0.0,-34.26288,-24.29341,20.22541,8.89,1.1,1.75,2.0
1758074442.49491,1758074442.49393,0.0,0.0,0.0,-35.12231,-30.48136,20.34,8.89,1.1,1.75,2.0
1758074442.50967,1758074442.50393,0.0,0.0,0.0,-34.72124,-34.09099,20.85567,8.82,0.61,1.22,2.0
1758074442.51105,1758074442.51393,0.0,0.0,0.0,-31.97105,-35.3515,21.60051,8.82,0.61,1.22,2.0
1758074442.52799,1758074442.52393,0.0,0.0,0.0,-30.36677,-34.66395,21.7724,9.4,-0.01,1.22,2.0
1758074442.54383,1758074442.53393,0.0,0.0,0.0,-27.61657,-32.08564,22.11617,9.4,-0.01,1.22,2.0
1758074442.54569,1758074442.54393,0.0,0.0,0.0,-26.64254,-27.84575,21.37133,9.92,-0.65,1.61,2.0
1758074442.561,1758074442.55393,0.0,0.0,0.0,-23.49127,-26.75713,22.00158,9.88,-0.65,1.68,2.0
1758074442.56295,1758074442.56393,0.0,0.0,0.0,-25.15285,-29.73651,17.6471,9.88,-0.76,1.68,2.0
1758074442.578,1758074442.57393,0.0,0.0,0.0,-26.87172,-30.99702,13.5218,9.64,-0.27,1.52,2.0
1758074442.59394,1758074442.58393,0.0,0.0,0.0,-27.61657,-32.20023,12.77696,9.64,-0.27,1.52,2.0
1758074442.59518,1758074442.59393,0.0,0.0,0.0,-28.01764,-28.476,11.57375,10.23,0.15,1.49,2.0
1758074442.61186,1758074442.60393,0.0,0.0,0.0,-27.44468,-27.78845,11.63104,10.23,0.15,1.49,2.0
1758074442.61393,1758074442.61393,0.0,0.0,0.0,-25.09555,-25.8404,13.12073,10.05,-0.05,1.57,2.0
1758074442.62981,1758074442.62393,0.0,0.0,0.0,-21.7151,-21.31403,13.80828,10.05,-0.05,1.57,2.0
1758074442.63104,1758074442.63393,0.0,0.0,0.0,-15.92823,-15.58445,13.86558,10.69,-0.59,1.23,2.0
1758074442.64701,1758074442.64393,0.0,0.0,0.0,-11.80293,-13.80828,13.86558,10.59,-1.07,1.24,2.0
1758074442.66269,1758074442.65393,0.0,0.0,0.0,-7.44845,-15.0115,13.69369,10.59,-1.07,1.24,2.0
1758074442.66739,1758074442.66393,0.0,0.0,0.0,-2.7502,-19.88164,13.00614,10.62,-1.92,1.59,2.0
1758074442.68493,1758074442.67393,0.0,0.0,0.0,12.08941,-35.40879,4.81285,11.66,-2.79,2.32,2.0
1758074442.70167,1758074442.68393,0.0,0.0,0.0,14.32395,-35.40879,2.11994,11.66,-2.79,2.32,2.0
1758074442.70606,1758074442.69393,0.0,0.0,0.0,21.7724,-27.73116,-3.26586,13.47,-3.27,3.05,2.0
1758074442.72194,1758074442.70393,0.0,0.0,0.0,26.52795,-19.36597,-3.83882,13.5,-2.47,2.84,2.0
1758074442.72717,1758074442.71393,0.0,0.0,0.0,29.27814,-14.20935,-2.86479,13.5,-2.47,2.84,2.0
1758074442.74169,1758074442.72393,0.0,0.0,0.0,30.25217,-11.11538,-0.34377,10.37,-0.66,1.78,2.0
1758074442.74292,1758074442.73393,0.0,0.0,0.0,28.93437,-9.39651,5.90147,10.37,-0.66,1.78,2.0
1758074442.75778,1758074442.74393,0.0,0.0,0.0,26.06958,-9.62569,10.71431,8.17,0.58,1.43,2.0
1758074442.76128,1758074442.75393,0.0,0.0,0.0,21.48592,-11.00079,15.58445,8.17,0.58,1.43,2.0
1758074442.777,1758074442.76393,0.0,0.0,0.0,15.29797,-15.0115,18.90761,7.41,1.01,1.9,2.0
1758074442.79383,1758074442.77393,0.0,0.0,0.0,3.72423,-22.00158,20.45459,7.21,0.96,2.29,2.0
1758074442.79589,1758074442.78393,0.0,0.0,0.0,-4.29718,-25.09555,19.13679,7.21,0.96,2.29,2.0
1758074442.81084,1758074442.79393,0.0,0.0,0.0,-12.54778,-26.47065,16.21471,7.47,0.71,2.11,2.0
1758074442.81223,1758074442.80393,0.0,0.0,0.0,-20.34,-26.41335,12.77696,7.47,0.71,2.11,2.0
1758074442.82702,1758074442.81393,0.0,0.0,0.0,-30.48136,-23.0902,7.33386,7.84,-0.04,2.05,2.0
1758074442.84678,1758074442.82393,0.0,0.0,0.0,-35.2369,-17.53251,3.72423,7.84,-0.04,2.05,2.0
1758074442.84834,1758074442.83393,0.0,0.0,0.0,-37.47144,-9.28192,0.80214,9.68,-1.37,2.44,2.0
1758074442.86382,1758074442.84393,0.0,0.0,0.0,-37.35685,1.48969,-1.48969,9.68,-1.37,2.44,2.0
1758074442.86565,1758074442.85393,0.0,0.0,0.0,-32.77319,20.3973,-3.32316,12.26,-3.32,2.31,2.0
1758074442.88107,1758074442.86393,0.0,0.0,0.0,-26.52795,31.11161,-3.55234,13.11,-5.06,1.81,2.0
1758074442.88201,1758074442.87393,0.0,0.0,0.0,-18.16276,34.77854,-3.03668,13.11,-5.06,1.81,2.0
1758074442.89707,1758074442.88393,0.0,0.0,0.0,-3.20856,32.14294,-1.14592,11.91,-5.48,1.27,2.0
1758074442.91359,1758074442.89393,0.0,0.0,0.0,6.7609,29.67921,0.11459,11.91,-5.48,1.27,2.0
1758074442.91671,1758074442.90393,0.0,0.0,0.0,15.87093,27.67386,1.48969,11.12,-4.09,0.66,2.0
1758074442.93207,1758074442.91393,0.0,0.0,0.0,22.63183,26.41335,2.40642,11.12,-4.09,0.66,2.0
1758074442.93326,1758074442.92393,0.0,0.0,0.0,29.50733,29.8511,3.55234,10.51,-2.44,0.77,2.0
1758074442.94815,1758074442.93393,0.0,0.0,0.0,31.97105,32.83048,4.1253,9.89,-2.16,1.13,2.0
1758074442.96413,1758074442.94393,0.0,0.0,0.0,33.34615,33.17426,5.32851,9.89,-2.16,1.13,2.0
1758074442.96499,1758074442.95393,0.0,0.0,0.0,33.34615,32.08564,7.04738,8.79,-2.31,1.39,2.0
1758074442.97986,1758074442.96393,0.0,0.0,0.0,31.56997,29.22085,9.68299,8.79,-2.31,1.39,2.0
1758074442.98182,1758074442.97393,0.0,0.0,0.0,29.62192,26.69983,11.00079,8.74,-2.24,1.26,2.0
1758074443.001,1758074442.98393,0.0,0.0,0.0,26.87172,23.83505,11.22997,8.74,-2.24,1.26,2.0
1758074443.00228,1758074442.99393,0.0,0.0,0.0,23.94964,21.60051,10.25595,8.85,-1.85,0.88,2.0
1758074443.01689,1758074443.00393,0.0,0.0,0.0,19.99623,18.44924,6.87549,9.05,-1.4,0.72,2.0
1758074443.03407,1758074443.01393,0.0,0.0,0.0,17.93358,17.30333,3.60963,9.05,-1.4,0.72,2.0
1758074443.0365,1758074443.02393,0.0,0.0,0.0,17.01685,16.90226,0.22918,9.16,-1.32,0.77,2.0
1758074443.05214,1758074443.03393,0.0,0.0,0.0,17.76169,15.98552,-2.46372,9.16,-1.32,0.77,2.0
1758074443.05709,1758074443.04393,0.0,0.0,0.0,20.74107,13.5218,-5.50039,9.23,-1.79,0.99,2.0
1758074443.07184,1758074443.05393,0.0,0.0,0.0,23.89234,12.204,-6.47442,9.23,-1.79,0.99,2.0
1758074443.07304,1758074443.06393,0.0,0.0,0.0,27.61657,13.00614,-6.87549,9.49,-2.6,1.15,2.0
1758074443.08963,1758074443.07393,0.0,0.0,0.0,32.77319,14.78231,-6.87549,9.49,-2.6,1.15,2.0
1758074443.09139,1758074443.08393,0.0,0.0,0.0,35.2942,17.93358,-6.8182,9.72,-3.06,1.18,2.0
1758074443.10683,1758074443.09393,0.0,0.0,0.0,37.01308,19.53786,-6.58902,9.53,-2.67,1.32,2.0
1758074443.12394,1758074443.10393,0.0,0.0,0.0,37.87251,20.68378,-6.41713,9.53,-2.67,1.32,2.0
1758074443.12743,1758074443.11393,0.0,0.0,0.0,37.92981,20.97026,-6.70361,9.58,-2.06,1.46,2.0
1758074443.14388,1758074443.12393,0.0,0.0,0.0,37.29956,21.48592,-7.33386,9.58,-2.06,1.46,2.0
1758074443.14648,1758074443.13393,0.0,0.0,0.0,36.89849,23.60586,-8.30789,9.91,-1.69,1.7,2.0
1758074443.16202,1758074443.14393,0.0,0.0,0.0,36.61201,26.18417,-9.22462,9.91,-1.69,1.7,2.0
1758074443.16307,1758074443.15393,0.0,0.0,0.0,37.81522,29.73651,-9.85487,10.11,-1.59,1.91,2.0
1758074443.17885,1758074443.16393,0.0,0.0,0.0,40.27893,30.25217,-8.93814,9.85,-1.84,1.97,2.0
1758074443.18143,1758074443.17393,0.0,0.0,0.0,44.00316,29.39274,-7.10468,9.85,-1.84,1.97,2.0
1758074443.19715,1758074443.18393,0.0,0.0,0.0,48.24305,28.13223,-4.92744,9.54,-2.37,1.56,2.0
1758074443.21474,1758074443.19393,0.0,0.0,0.0,55.6915,25.26744,-1.83346,9.54,-2.37,1.56,2.0
1758074443.21641,1758074443.20393,0.0,0.0,0.0,60.38975,22.11617,-0.45837,9.26,-2.75,0.93,2.0
1758074443.23205,1758074443.21393,0.0,0.0,0.0,64.62964,18.10547,0.0,9.26,-2.75,0.93,2.0
1758074443.2331,1758074443.22393,0.0,0.0,0.0,67.55173,7.16197,-0.45837,8.77,-2.76,0.83,2.0
1758074443.24793,1758074443.23393,0.0,0.0,0.0,69.15601,-14.9542,-2.6929,7.79,-2.3,0.41,2.0
1758074443.2657,1758074443.24393,0.0,0.0,0.0,67.72362,-18.22006,-6.18794,7.79,-2.3,0.41,2.0
1758074443.26719,1758074443.25393,0.0,0.0,0.0,68.86953,-4.0107,-4.69825,10.55,-1.84,0.16,2.0
1758074443.28203,1758074443.26393,0.0,0.0,0.0,69.55708,11.74564,-4.98473,10.55,-1.84,0.16,2.0
1758074443.2831,1758074443.27393,0.0,0.0,0.0,68.29657,24.92367,-6.18794,10.95,-1.59,2.19,2.0
1758074443.29798,1758074443.28393,0.0,0.0,0.0,66.69229,21.94428,-6.70361,10.95,-1.59,2.19,2.0
1758074443.31576,1758074443.29393,0.0,0.0,0.0,64.62964,15.0115,-6.53172,9.81,-0.98,3.51,2.0
1758074443.31727,1758074443.30393,0.0,0.0,0.0,60.38975,-20.62648,-4.87014,9.81,-0.98,3.51,2.0
1758074443.33219,1758074443.31393,0.0,0.0,0.0,58.04062,-44.17505,0.97403,9.93,0.05,3.46,2.0
1758074443.33312,1758074443.32393,0.0,0.0,0.0,54.60288,-49.38896,8.42248,12.5,0.11,2.23,2.0
1758074443.34819,1758074443.33393,0.0,0.0,0.0,50.59217,-44.00316,13.69369,12.5,0.11,2.23,2.0
1758074443.365,1758074443.34393,0.0,0.0,0.0,45.49285,-27.44468,18.44924,12.86,-0.34,2.32,2.0
1758074443.36669,1758074443.35393,0.0,0.0,0.0,41.42485,-13.69369,17.76169,12.86,-0.34,2.32,2.0
1758074443.38202,1758074443.36393,0.0,0.0,0.0,37.18496,-4.64096,15.46986,11.16,-0.69,2.78,2.0
1758074443.38315,1758074443.37393,0.0,0.0,0.0,32.88778,0.45837,11.28727,11.16,-0.69,2.78,2.0
1758074443.39979,1758074443.38393,0.0,0.0,0.0,27.33009,7.44845,2.86479,9.63,-0.45,2.9,2.0
1758074443.40155,1758074443.39393,0.0,0.0,0.0,24.86637,13.69369,-2.86479,9.72,0.3,3.01,2.0
1758074443.41698,1758074443.40393,0.0,0.0,0.0,23.72045,17.24603,-7.62034,9.72,0.3,3.01,2.0
1758074443.43402,1758074443.41393,0.0,0.0,0.0,23.94964,18.10547,-12.204,9.49,0.99,4.0,2.0
1758074443.4358,1758074443.42393,0.0,0.0,0.0,27.33009,15.24068,-16.73037,9.49,0.99,4.0,2.0
1758074443.45127,1758074443.43393,0.0,0.0,0.0,30.76784,13.12073,-16.21471,9.25,0.57,4.3,2.0
1758074443.45234,1758074443.44393,0.0,0.0,0.0,34.49206,11.97482,-15.24068,9.25,0.57,4.3,2.0
1758074443.46719,1758074443.45393,0.0,0.0,0.0,39.24761,8.99544,-11.97482,9.42,-0.54,4.2,2.0
1758074443.48402,1758074443.46393,0.0,0.0,0.0,46.63877,4.46907,-6.41713,9.14,-1.79,4.09,2.0
1758074443.48516,1758074443.47393,0.0,0.0,0.0,51.45161,2.23454,-2.29183,9.14,-1.79,4.09,2.0
1758074443.50171,1758074443.48393,0.0,0.0,0.0,55.11855,0.97403,0.80214,9.51,-2.57,3.97,2.0
1758074443.50293,1758074443.49393,0.0,0.0,0.0,58.84277,-0.74485,4.0107,9.51,-2.57,3.97,2.0
1758074443.51789,1758074443.50393,0.0,0.0,0.0,60.44705,-1.3178,4.92744,9.7,-2.18,4.04,2.0
1758074443.53394,1758074443.51393,0.0,0.0,0.0,61.42108,-1.08862,4.92744,9.7,-2.18,4.04,2.0
1758074443.53598,1758074443.52393,0.0,0.0,0.0,62.16592,-1.03132,4.81285,9.42,-0.82,3.76,2.0
1758074443.55121,1758074443.53393,0.0,0.0,0.0,61.76485,-1.66158,4.18259,9.42,-0.82,3.76,2.0
1758074443.55218,1758074443.54393,0.0,0.0,0.0,61.1346,-0.80214,3.55234,8.96,0.69,3.42,2.0
1758074443.56733,1758074443.55393,0.0,0.0,0.0,60.27517,0.57296,3.20856,9.13,1.81,3.18,2.0
1758074443.58504,1758074443.56393,0.0,0.0,0.0,59.12925,2.34913,2.40642,9.13,1.81,3.18,2.0
1758074443.58679,1758074443.57393,0.0,0.0,0.0,57.18119,5.78687,1.66158,9.28,2.06,2.95,2.0
1758074443.60234,1758074443.58393,0.0,0.0,0.0,56.14987,8.0787,0.97403,9.28,2.06,2.95,2.0
1758074443.60643,1758074443.59393,0.0,0.0,0.0,55.23313,11.17268,1.08862,9.11,1.41,2.81,2.0
1758074443.6439,1758074443.60393,0.0,0.0,0.0,54.48829,14.03747,1.3751,9.11,1.41,2.81,2.0
1758074443.64677,1758074443.61393,0.0,0.0,0.0,53.62885,19.07949,3.09397,8.9,0.64,2.81,2.0
1758074443.64734,1758074443.62393,0.0,0.0,0.0,52.08187,22.05888,3.32316,8.75,0.38,2.92,2.0
1758074443.65126,1758074443.63393,0.0,0.0,0.0,50.3057,24.57989,4.0107,8.75,0.38,2.92,2.0
1758074443.65162,1758074443.64393,0.0,0.0,0.0,48.01387,27.38738,4.35448,8.62,0.77,2.83,2.0
1758074443.66728,1758074443.65393,0.0,0.0,0.0,43.94586,30.53865,5.15662,8.62,0.77,2.83,2.0
1758074443.68501,1758074443.66393,0.0,0.0,0.0,41.13837,31.2262,5.78687,8.54,1.48,2.87,2.0
1758074443.68673,1758074443.67393,0.0,0.0,0.0,38.15899,31.56997,6.70361,8.54,1.48,2.87,2.0
1758074443.70128,1758074443.68393,0.0,0.0,0.0,33.9764,31.11161,8.42248,8.32,2.11,2.84,2.0
1758074443.70268,1758074443.69393,0.0,0.0,0.0,31.2262,28.76248,9.96947,8.15,2.2,2.89,2.0
1758074443.71725,1758074443.70393,0.0,0.0,0.0,28.59059,26.12688,11.00079,8.15,2.2,2.89,2.0
1758074443.73331,1758074443.71393,0.0,0.0,0.0,25.43933,24.23611,11.86023,8.23,1.87,2.84,2.0
1758074443.73449,1758074443.72393,0.0,0.0,0.0,19.76705,20.3973,12.49048,8.23,1.87,2.84,2.0
1758074443.7493,1758074443.73393,0.0,0.0,0.0,15.69904,17.36062,12.77696,8.54,1.56,2.88,2.0
1758074443.76497,1758074443.74393,0.0,0.0,0.0,11.34457,14.20935,13.40721,8.54,1.56,2.88,2.0
1758074443.76622,1758074443.75393,0.0,0.0,0.0,6.70361,11.11538,14.09476,8.73,1.43,2.9,2.0
1758074443.7813,1758074443.76393,0.0,0.0,0.0,-0.97403,5.32851,14.83961,8.87,1.43,2.84,2.0
1758074443.78249,1758074443.77393,0.0,0.0,0.0,-6.13065,0.68755,15.06879,8.87,1.34,2.84,2.0
1758074443.80105,1758074443.78393,0.0,0.0,0.0,-10.94349,-2.29183,15.41257,8.92,1.35,2.37,2.0
1758074443.80262,1758074443.79393,0.0,0.0,0.0,-15.35527,-2.57831,16.38659,8.92,1.35,2.37,2.0
1758074443.81729,1758074443.80393,0.0,0.0,0.0,-20.3973,0.0,17.24603,9.25,1.45,2.31,2.0
1758074443.82224,1758074443.81393,0.0,0.0,0.0,-23.0329,1.03132,17.76169,9.25,1.45,2.31,2.0
1758074443.83935,1758074443.82393,0.0,0.0,0.0,-25.26744,3.83882,18.22006,8.87,1.26,2.53,2.0
1758074443.85679,1758074443.83393,0.0,0.0,0.0,-27.10091,5.27121,17.81899,8.87,1.26,2.53,2.0
1758074443.85787,1758074443.84393,0.0,0.0,0.0,-30.19488,5.32851,18.50654,8.83,0.96,2.7,2.0
1758074443.87343,1758074443.85393,0.0,0.0,0.0,-32.08564,-2.86479,18.50654,8.42,0.8,2.75,2.0
1758074443.87461,1758074443.86393,0.0,0.0,0.0,-35.00772,-10.08406,17.36062,8.42,0.8,2.75,2.0
1758074443.88908,1758074443.87393,0.0,0.0,0.0,-38.38818,-17.24603,15.29797,8.61,0.82,2.56,2.0
1758074443.90536,1758074443.88393,0.0,0.0,0.0,-44.8053,-27.61657,13.5791,8.61,0.82,2.56,2.0
1758074443.90659,1758074443.89393,0.0,0.0,0.0,-49.56085,-33.00237,11.57375,8.98,1.02,2.49,2.0
1758074443.92135,1758074443.90393,0.0,0.0,0.0,-53.80074,-36.61201,9.68299,8.98,1.02,2.49,2.0
1758074443.92256,1758074443.91393,0.0,0.0,0.0,-59.12925,-49.04519,8.02141,9.14,1.21,2.57,2.0
1758074443.93735,1758074443.92393,0.0,0.0,0.0,-60.90542,-58.09792,9.22462,8.79,0.97,2.22,2.0
1758074443.95336,1758074443.93393,0.0,0.0,0.0,-61.02001,-62.39511,9.91217,8.79,0.97,2.22,2.0
1758074443.95697,1758074443.94393,0.0,0.0,0.0,-60.44705,-66.17663,11.34457,9.59,0.66,1.97,2.0
1758074443.97236,1758074443.95393,0.0,0.0,0.0,-59.24384,-64.45775,12.89155,9.59,0.66,1.97,2.0
1758074443.97329,1758074443.96393,0.0,0.0,0.0,-57.81144,-47.78468,15.41257,10.59,0.13,2.56,2.0
1758074443.98917,1758074443.97393,0.0,0.0,0.0,-58.78547,-20.34,13.46451,10.59,0.13,2.56,2.0
1758074443.99168,1758074443.98393,0.0,0.0,0.0,-59.41573,-36.6693,12.43318,11.16,-0.06,2.99,2.0
1758074444.00726,1758074443.99393,0.0,0.0,0.0,-62.79618,-45.03448,5.27121,8.51,0.21,2.81,2.0
1758074444.02495,1758074444.00393,0.0,0.0,0.0,-63.99939,-50.13381,2.46372,8.51,0.21,2.81,2.0
1758074444.02936,1758074444.01393,0.0,0.0,0.0,-63.94209,-44.8053,0.68755,10.13,0.67,1.0,2.0
1758074444.04587,1758074444.02393,0.0,0.0,0.0,-63.99939,-39.53409,0.0573,10.13,0.67,1.0,2.0
1758074444.04766,1758074444.03393,0.0,0.0,0.0,-63.99939,-31.74186,0.80214,10.47,0.47,2.03,2.0
1758074444.06311,1758074444.04393,0.0,0.0,0.0,-63.59832,-27.10091,2.23454,10.47,0.47,2.03,2.0
1758074444.06748,1758074444.05393,0.0,0.0,0.0,-62.39511,-24.4653,3.83882,10.16,-0.12,2.66,2.0
1758074444.0834,1758074444.06393,0.0,0.0,0.0,-60.79083,-22.68913,4.46907,10.16,-0.12,2.66,2.0
1758074444.08938,1758074444.07393,0.0,0.0,0.0,-56.952,-17.81899,3.89611,9.91,-0.66,2.3,2.0
1758074444.1041,1758074444.08393,0.0,0.0,0.0,-53.34238,-14.78231,3.26586,10.48,-1.16,1.99,2.0
1758074444.11121,1758074444.09393,0.0,0.0,0.0,-49.61814,-14.38124,2.40642,10.48,-1.16,1.99,2.0
1758074444.11156,1758074444.10393,0.0,0.0,0.0,-44.748,-17.6471,0.34377,10.5,-1.48,2.19,2.0
1758074444.12734,1758074444.11393,0.0,0.0,0.0,-42.28429,-17.93358,-1.48969,10.5,-1.48,2.19,2.0
1758074444.14314,1758074444.12393,0.0,0.0,0.0,-40.27893,-14.49583,-2.57831,10.61,-1.26,2.04,2.0
1758074444.14675,1758074444.13393,0.0,0.0,0.0,-38.50277,-8.88085,-2.86479,10.61,-1.26,2.04,2.0
1758074444.16294,1758074444.14393,0.0,0.0,0.0,-36.15364,0.0,-2.57831,11.05,-1.16,1.91,2.0
1758074444.16578,1758074444.15393,0.0,0.0,0.0,-34.89313,4.98473,-2.11994,11.71,-1.49,2.42,2.0
1758074444.18138,1758074444.16393,0.0,0.0,0.0,-33.34615,8.136,-1.71887,11.71,-1.49,2.42,2.0
1758074444.18474,1758074444.17393,0.0,0.0,0.0,-31.97105,10.71431,-1.3751,12.07,-1.97,2.28,2.0
1758074444.20131,1758074444.18393,0.0,0.0,0.0,-29.27814,10.71431,-0.22918,12.07,-1.97,2.28,2.0
1758074444.20326,1758074444.19393,0.0,0.0,0.0,-27.84575,5.32851,1.20321,10.55,-1.81,2.63,2.0
1758074444.2182,1758074444.20393,0.0,0.0,0.0,-26.81443,-4.35448,2.57831,10.55,-1.81,2.63,2.0
1758074444.2342,1758074444.21393,0.0,0.0,0.0,-26.12688,-13.5218,3.89611,8.31,-1.29,2.54,2.0
1758074444.2378,1758074444.22393,0.0,0.0,0.0,-26.64254,-23.31938,4.29718,8.25,-1.05,2.02,2.0
1758074444.2542,1758074444.23393,0.0,0.0,0.0,-27.1582,-27.1582,3.95341,8.25,-1.05,2.02,2.0
1758074444.25547,1758074444.24393,0.0,0.0,0.0,-27.67386,-28.59059,3.83882,8.8,-1.15,2.18,2.0
1758074444.27049,1758074444.25393,0.0,0.0,0.0,-28.13223,-26.87172,3.66693,8.8,-1.15,2.18,2.0
1758074444.27139,1758074444.26393,0.0,0.0,0.0,-29.33544,-26.98631,3.89611,8.59,-1.34,2.28,2.0
1758074444.28746,1758074444.27393,0.0,0.0,0.0,-30.48136,-28.87707,4.64096,8.59,-1.34,2.28,2.0
1758074444.30548,1758074444.28393,0.0,0.0,0.0,-31.51268,-28.41871,5.55769,8.38,-1.63,2.68,2.0
1758074444.3067,1758074444.29393,0.0,0.0,0.0,-33.00237,-26.35606,6.58902,8.38,-1.63,2.68,2.0
1758074444.32148,1758074444.30393,0.0,0.0,0.0,-33.63263,-20.3973,6.53172,9.84,-2.02,2.69,2.0
1758074444.32751,1758074444.31393,0.0,0.0,0.0,-33.68992,-14.72501,5.61499,11.02,-2.48,2.67,2.0
1758074444.34223,1758074444.32393,0.0,0.0,0.0,-33.34615,-8.93814,3.83882,11.02,-2.48,2.67,2.0
1758074444.34931,1758074444.33393,0.0,0.0,0.0,-31.2262,-0.11459,1.71887,10.99,-3.03,2.11,2.0
1758074444.36448,1758074444.34393,0.0,0.0,0.0,-29.33544,6.8182,0.0,10.99,-3.03,2.11,2.0
1758074444.3695,1758074444.35393,0.0,0.0,0.0,-26.81443,15.06879,-1.08862,10.39,-3.49,1.5,2.0
1758074444.38452,1758074444.36393,0.0,0.0,0.0,-23.20479,22.51724,-1.71887,10.39,-3.49,1.5,2.0
1758074444.38733,1758074444.37393,0.0,0.0,0.0,-16.61578,29.73651,-1.71887,9.97,-3.89,1.14,2.0
1758074444.40223,1758074444.38393,0.0,0.0,0.0,-12.08941,31.74186,-1.48969,9.22,-3.9,1.02,2.0
1758074444.40737,1758074444.39393,0.0,0.0,0.0,-7.39116,31.45539,-1.20321,9.22,-3.9,1.02,2.0
1758074444.4225,1758074444.40393,0.0,0.0,0.0,-3.20856,29.96569,-1.08862,9.03,-3.31,0.91,2.0
1758074444.42778,1758074444.41393,0.0,0.0,0.0,2.46372,27.61657,-1.03132,9.03,-3.31,0.91,2.0
1758074444.44257,1758074444.42393,0.0,0.0,0.0,5.84417,25.38203,-1.14592,9.35,-2.65,1.02,2.0
1758074444.44533,1758074444.43393,0.0,0.0,0.0,8.47978,22.86102,-1.03132,9.35,-2.65,1.02,2.0
1758074444.46134,1758074444.44393,0.0,0.0,0.0,9.85487,20.97026,0.40107,9.62,-2.4,1.28,2.0
1758074444.46222,1758074444.45393,0.0,0.0,0.0,10.71431,24.57989,2.7502,10.28,-2.49,1.24,2.0
1758074444.47756,1758074444.46393,0.0,0.0,0.0,11.00079,25.7831,4.46907,10.28,-2.49,1.24,2.0
1758074444.49322,1758074444.47393,0.0,0.0,0.0,11.28727,24.23611,6.24524,9.65,-2.62,1.11,2.0
1758074444.49611,1758074444.48393,0.0,0.0,0.0,12.2613,22.63183,8.0787,9.65,-2.62,1.11,2.0
1758074444.51154,1758074444.49393,0.0,0.0,0.0,13.12073,21.37133,8.0787,9.47,-3.1,0.99,2.0
1758074444.51261,1758074444.50393,0.0,0.0,0.0,13.17803,19.99623,7.16197,9.47,-3.1,0.99,2.0
1758074444.52754,1758074444.51393,0.0,0.0,0.0,12.71966,17.36062,5.09932,9.62,-2.49,0.71,2.0
1758074444.54353,1758074444.52393,0.0,0.0,0.0,10.59972,14.78231,0.40107,9.62,-2.49,0.71,2.0
1758074444.54471,1758074444.53393,0.0,0.0,0.0,9.62569,14.38124,-2.63561,9.6,-1.55,0.9,2.0
1758074444.55948,1758074444.54393,0.0,0.0,0.0,8.76626,13.17803,-5.32851,9.38,-1.25,1.23,2.0
1758074444.57583,1758074444.55393,0.0,0.0,0.0,8.42248,11.45916,-7.39116,9.38,-1.25,1.23,2.0
1758074444.57646,1758074444.56393,0.0,0.0,0.0,9.96947,8.59437,-8.93814,9.13,-1.91,1.37,2.0
1758074444.59151,1758074444.57393,0.0,0.0,0.0,12.204,6.8182,-8.99544,9.13,-1.91,1.37,2.0
1758074444.59277,1758074444.58393,0.0,0.0,0.0,15.0115,4.98473,-8.42248,9.14,-2.8,1.36,2.0
1758074444.60738,1758074444.59393,0.0,0.0,0.0,18.22006,4.29718,-7.67763,9.14,-2.8,1.36,2.0
1758074444.62589,1758074444.60393,0.0,0.0,0.0,23.31938,6.47442,-7.62034,9.11,-3.28,1.16,2.0
1758074444.62689,1758074444.61393,0.0,0.0,0.0,26.52795,8.25059,-8.0787,9.4,-3.32,0.98,2.0
1758074444.64229,1758074444.62393,0.0,0.0,0.0,29.39274,10.31324,-9.11003,9.4,-3.32,0.98,2.0
1758074444.64466,1758074444.63393,0.0,0.0,0.0,32.14294,11.86023,-10.37054,9.5,-2.67,1.02,2.0
1758074444.66111,1758074444.64393,0.0,0.0,0.0,35.52338,13.5218,-12.49048,9.5,-2.67,1.02,2.0
1758074444.66209,1758074444.65393,0.0,0.0,0.0,37.24226,14.61043,-13.80828,9.47,-1.91,1.11,2.0
1758074444.67728,1758074444.66393,0.0,0.0,0.0,38.73195,17.13144,-14.9542,9.47,-1.91,1.11,2.0
1758074444.68165,1758074444.67393,0.0,0.0,0.0,40.16434,21.42862,-15.69904,9.69,-1.56,1.35,2.0
1758074444.7024,1758074444.68393,0.0,0.0,0.0,42.39888,27.78845,-15.92823,9.93,-1.72,1.76,2.0
1758074444.70375,1758074444.69393,0.0,0.0,0.0,44.57612,29.04896,-15.06879,9.93,-1.72,1.76,2.0
1758074444.71869,1758074444.70393,0.0,0.0,0.0,47.44091,28.64789,-13.00614,9.7,-2.1,2.08,2.0
1758074444.73643,1758074444.71393,0.0,0.0,0.0,52.54023,27.84575,-8.88085,9.7,-2.1,2.08,2.0
1758074444.7373,1758074444.72393,0.0,0.0,0.0,56.60823,27.04361,-6.07335,9.75,-2.49,1.62,2.0
1758074444.75236,1758074444.73393,0.0,0.0,0.0,60.16057,26.06958,-3.95341,9.75,-2.49,1.62,2.0
1758074444.75464,1758074444.74393,0.0,0.0,0.0,63.48372,24.75178,-2.57831,9.55,-2.55,1.15,2.0
1758074444.79233,1758074444.75393,0.0,0.0,0.0,66.92148,18.85031,-1.94806,9.55,-2.55,1.15,2.0
1758074444.79326,1758074444.76393,0.0,0.0,0.0,67.55173,6.41713,-2.57831,9.03,-2.25,0.96,2.0
1758074444.79392,1758074444.77393,0.0,0.0,0.0,66.34852,-5.90147,-3.20856,8.09,-1.67,0.46,2.0
1758074444.7967,1758074444.78393,0.0,0.0,0.0,63.94209,-10.19865,-6.47442,8.09,-1.67,0.46,2.0
1758074444.81263,1758074444.79393,0.0,0.0,0.0,62.39511,4.29718,-9.28192,10.1,-1.26,-0.01,2.0
1758074444.81467,1758074444.80393,0.0,0.0,0.0,61.76485,15.12609,-10.02676,10.1,-1.26,-0.01,2.0
1758074444.8294,1758074444.81393,0.0,0.0,0.0,61.07731,23.72045,-12.204,10.69,-1.06,1.23,2.0
1758074444.84618,1758074444.82393,0.0,0.0,0.0,58.72818,27.04361,-14.83961,10.69,-1.06,1.23,2.0
1758074444.84927,1758074444.83393,0.0,0.0,0.0,54.3737,22.23076,-19.19409,9.21,-0.98,1.86,2.0
1758074444.86545,1758074444.84393,0.0,0.0,0.0,51.90998,2.06265,-24.35071,7.14,-0.9,1.4,2.0
1758074444.8672,1758074444.85393,0.0,0.0,0.0,55.6342,-31.62727,-19.70975,7.14,-0.9,1.4,2.0
1758074444.88272,1758074444.86393,0.0,0.0,0.0,56.89471,-44.23235,-16.50119,7.55,-0.87,-1.24,2.0
1758074444.88383,1758074444.87393,0.0,0.0,0.0,57.29578,-43.4875,-10.08406,7.55,-0.87,-1.24,2.0
1758074444.89918,1758074444.88393,0.0,0.0,0.0,56.49364,-45.37826,-7.10468,10.59,-1.01,0.96,2.0
1758074444.90198,1758074444.89393,0.0,0.0,0.0,54.08722,-51.27972,-2.11994,10.59,-1.01,0.96,2.0
1758074444.92163,1758074444.90393,0.0,0.0,0.0,44.11775,-54.02992,4.98473,12.03,-0.27,6.37,2.0
1758074444.92292,1758074444.91393,0.0,0.0,0.0,33.68992,-49.61814,8.25059,16.65,2.41,7.92,2.0
1758074444.93868,1758074444.92393,0.0,0.0,0.0,22.00158,-46.06581,9.11003,16.65,2.41,7.92,2.0
1758074444.942,1758074444.93393,0.0,0.0,0.0,9.74028,-37.92981,8.59437,15.44,3.49,3.29,2.0
1758074444.96165,1758074444.94393,0.0,0.0,0.0,-8.99544,-15.35527,4.35448,15.44,3.49,3.29,2.0
1758074444.96257,1758074444.95393,0.0,0.0,0.0,-19.88164,-1.60428,-0.97403,11.82,2.05,0.96,2.0
1758074444.97767,1758074444.96393,0.0,0.0,0.0,-28.87707,6.41713,-7.10468,11.82,2.05,0.96,2.0
1758074444.99334,1758074444.97393,0.0,0.0,0.0,-34.43476,9.85487,-11.97482,7.62,0.49,0.99,2.0
1758074444.99503,1758074444.98393,0.0,0.0,0.0,-38.38818,12.43318,-17.53251,6.66,0.49,2.42,2.0
1758074445.01174,1758074444.99393,0.0,0.0,0.0,-37.64333,9.28192,-20.3973,6.66,-0.16,2.42,2.0
1758074445.01298,1758074445.00393,0.0,0.0,0.0,-33.68992,2.6929,-22.23076,7.11,-0.02,3.13,2.0
1758074445.02742,1758074445.01393,0.0,0.0,0.0,-27.04361,-1.43239,-23.66316,7.11,-0.02,3.13,2.0
1758074445.0452,1758074445.02393,0.0,0.0,0.0,-16.21471,-2.23454,-23.49127,9.37,-0.1,3.25,2.0
1758074445.04797,1758074445.03393,0.0,0.0,0.0,-9.91217,-1.3178,-22.05888,9.37,-0.1,3.25,2.0
1758074445.05209,1758074445.04393,0.0,0.0,0.0,-6.07335,2.11994,-20.79837,11.27,-0.69,3.73,2.0
1758074445.06768,1758074445.05393,0.0,0.0,0.0,-4.52637,5.84417,-19.36597,11.27,-0.69,3.73,2.0
1758074445.07208,1758074445.06393,0.0,0.0,0.0,-5.4431,6.07335,-19.13679,11.23,-1.39,4.37,2.0
1758074445.08741,1758074445.07393,0.0,0.0,0.0,-6.41713,5.32851,-19.53786,9.75,-1.45,4.05,2.0
1758074445.10555,1758074445.08393,0.0,0.0,0.0,-7.79223,6.58902,-20.11082,9.75,-1.45,4.05,2.0
1758074445.10719,1758074445.09393,0.0,0.0,0.0,-9.11003,7.79223,-20.11082,9.27,-0.5,3.56,2.0
1758074445.12268,1758074445.10393,0.0,0.0,0.0,-10.94349,6.87549,-19.42327,9.27,-0.5,3.56,2.0
1758074445.12364,1758074445.11393,0.0,0.0,0.0,-11.97482,8.25059,-18.50654,9.24,0.72,3.46,2.0
1758074445.14129,1758074445.12393,0.0,0.0,0.0,-12.54778,10.8289,-17.13144,9.24,0.72,3.46,2.0
1758074445.14263,1758074445.13393,0.0,0.0,0.0,-13.23533,11.86023,-15.24068,9.71,1.5,3.16,2.0
1758074445.16147,1758074445.14393,0.0,0.0,0.0,-13.34992,10.25595,-14.61043,9.12,1.52,2.84,2.0
1758074445.16268,1758074445.15393,0.0,0.0,0.0,-13.23533,9.05273,-14.03747,9.12,1.52,2.84,2.0
1758074445.17745,1758074445.16393,0.0,0.0,0.0,-13.17803,8.93814,-13.86558,9.03,1.02,2.77,2.0
1758074445.19347,1758074445.17393,0.0,0.0,0.0,-12.43318,7.73493,-14.38124,9.03,1.02,2.77,2.0
1758074445.19494,1758074445.18393,0.0,0.0,0.0,-11.45916,5.50039,-14.43854,8.91,0.62,2.88,2.0
1758074445.21074,1758074445.19393,0.0,0.0,0.0,-10.48513,4.69825,-14.61043,8.91,0.62,2.88,2.0
1758074445.21166,1758074445.20393,0.0,0.0,0.0,-9.5684,4.98473,-13.80828,9.06,0.49,2.96,2.0
1758074445.22777,1758074445.21393,0.0,0.0,0.0,-9.05273,2.92208,-12.37589,9.0,0.57,2.91,2.0
1758074445.24361,1758074445.22393,0.0,0.0,0.0,-8.70896,2.00535,-10.25595,9.0,0.57,2.91,2.0
1758074445.2463,1758074445.23393,0.0,0.0,0.0,-9.28192,1.60428,-8.0787,8.98,0.81,2.82,2.0
1758074445.26156,1758074445.24393,0.0,0.0,0.0,-10.31324,1.83346,-6.58902,8.98,0.81,2.82,2.0
1758074445.2627,1758074445.25393,0.0,0.0,0.0,-12.71966,1.03132,-4.46907,8.91,1.22,2.7,2.0
1758074445.27773,1758074445.26393,0.0,0.0,0.0,-14.72501,2.00535,-3.32316,8.91,1.22,2.7,2.0
1758074445.28184,1758074445.27393,0.0,0.0,0.0,-16.61578,3.49504,-2.57831,9.07,1.52,2.67,2.0
1758074445.29927,1758074445.28393,0.0,0.0,0.0,-18.56383,6.18794,-2.23454,9.07,1.52,2.67,2.0
1758074445.30234,1758074445.29393,0.0,0.0,0.0,-20.85567,7.96411,-2.46372,9.32,1.47,2.72,2.0
1758074445.31748,1758074445.30393,0.0,0.0,0.0,-22.00158,8.59437,-2.46372,9.25,1.21,2.58,2.0
1758074445.33473,1758074445.31393,0.0,0.0,0.0,-22.97561,10.08406,-3.26586,9.25,1.21,2.58,2.0
1758074445.33664,1758074445.32393,0.0,0.0,0.0,-24.00693,8.70896,-2.11994,9.28,0.9,2.43,2.0
1758074445.35153,1758074445.33393,0.0,0.0,0.0,-25.89769,10.71431,-2.46372,9.28,0.9,2.43,2.0
1758074445.35386,1758074445.34393,0.0,0.0,0.0,-27.2155,9.5684,-2.06265,9.47,0.77,2.5,2.0
1758074445.36855,1758074445.35393,0.0,0.0,0.0,-29.62192,6.07335,-1.03132,9.47,0.77,2.5,2.0
1758074445.38555,1758074445.36393,0.0,0.0,0.0,-34.72124,1.94806,0.17189,8.81,0.87,2.34,2.0
1758074445.38672,1758074445.37393,0.0,0.0,0.0,-38.61736,-0.68755,1.3178,8.9,1.12,2.32,2.0
1758074445.4017,1758074445.38393,0.0,0.0,0.0,-42.74266,-3.60963,2.46372,8.9,1.12,2.32,2.0
1758074445.40267,1758074445.39393,0.0,0.0,0.0,-47.32632,-3.83882,2.92208,8.77,1.29,1.99,2.0
1758074445.41856,1758074445.40393,0.0,0.0,0.0,-52.9986,-2.34913,3.72423,8.77,1.29,1.99,2.0
1758074445.43472,1758074445.41393,0.0,0.0,0.0,-55.92068,0.0,4.29718,8.8,1.26,1.94,2.0
1758074445.43728,1758074445.42393,0.0,0.0,0.0,-58.4417,0.74485,4.69825,8.8,1.26,1.94,2.0
1758074445.45253,1758074445.43393,0.0,0.0,0.0,-60.04598,1.48969,5.27121,8.67,1.0,2.11,2.0
1758074445.45368,1758074445.44393,0.0,0.0,0.0,-62.16592,0.74485,6.13065,8.79,0.71,2.19,2.0
1758074445.46854,1758074445.45393,0.0,0.0,0.0,-63.94209,-1.03132,6.07335,8.79,0.71,2.19,2.0
1758074445.48564,1758074445.46393,0.0,0.0,0.0,-66.34852,-4.1253,5.55769,8.93,0.63,2.24,2.0
1758074445.48711,1758074445.47393,0.0,0.0,0.0,-68.75494,-9.4538,4.87014,8.93,0.63,2.24,2.0
1758074445.50175,1758074445.48393,0.0,0.0,0.0,-73.79697,-17.58981,3.38045,8.9,0.67,2.0,2.0
1758074445.50355,1758074445.49393,0.0,0.0,0.0,-77.17742,-22.00158,1.94806,8.9,0.67,2.0,2.0
1758074445.51961,1758074445.50393,0.0,0.0,0.0,-80.72976,-25.61122,0.0573,9.0,0.87,1.67,2.0
1758074445.52246,1758074445.51393,0.0,0.0,0.0,-83.30807,-33.17426,-1.66158,9.0,0.87,1.67,2.0
1758074445.54044,1758074445.52393,0.0,0.0,0.0,-85.02695,-48.12846,-1.03132,8.62,0.86,1.18,2.0
1758074445.55582,1758074445.53393,0.0,0.0,0.0,-85.54259,-52.76942,-0.40107,8.95,0.46,0.99,2.0
1758074445.55759,1758074445.54393,0.0,0.0,0.0,-84.79775,-52.13916,0.0,8.95,0.46,0.99,2.0
1758074445.57485,1758074445.55393,0.0,0.0,0.0,-82.04756,-52.65482,4.23989,9.76,-0.14,0.6,2.0
1758074445.57592,1758074445.56393,0.0,0.0,0.0,-81.5892,-28.01764,8.25059,9.76,-0.14,0.6,2.0
1758074445.59086,1758074445.57393,0.0,0.0,0.0,-81.24542,-19.48057,6.70361,11.82,-0.21,1.96,2.0
1758074445.59203,1758074445.58393,0.0,0.0,0.0,-87.66255,-35.2369,5.72958,11.82,-0.21,1.96,2.0
1758074445.60779,1758074445.59393,0.0,0.0,0.0,-92.64729,-41.71133,0.57296,8.22,0.07,1.86,2.0
1758074445.62383,1758074445.60393,0.0,0.0,0.0,-93.33482,-37.92981,0.57296,9.73,0.67,1.15,2.0
1758074445.6267,1758074445.61393,0.0,0.0,0.0,-93.39213,-33.9764,0.97403,9.73,0.67,1.15,2.0
1758074445.64177,1758074445.62393,0.0,0.0,0.0,-92.70457,-31.39809,1.60428,9.95,0.51,0.33,2.0
1758074445.64389,1758074445.63393,0.0,0.0,0.0,-90.75652,-23.37668,4.29718,9.95,0.51,0.33,2.0
1758074445.65859,1758074445.64393,0.0,0.0,0.0,-88.29281,-17.58981,6.99009,10.42,-0.19,1.23,2.0
1758074445.67477,1758074445.65393,0.0,0.0,0.0,-84.91235,-14.72501,9.5684,10.42,-0.19,1.23,2.0
1758074445.67663,1758074445.66393,0.0,0.0,0.0,-80.78706,-14.43854,10.8289,10.02,-1.11,1.19,2.0
1758074445.69183,1758074445.67393,0.0,0.0,0.0,-74.54182,-18.33465,10.8862,9.44,-1.8,1.21,2.0
1758074445.69303,1758074445.68393,0.0,0.0,0.0,-70.13004,-20.3973,9.91217,9.44,-1.8,1.21,2.0
1758074445.70781,1758074445.69393,0.0,0.0,0.0,-65.54638,-21.02755,8.99544,9.45,-1.95,0.6,2.0
1758074445.72394,1758074445.70393,0.0,0.0,0.0,-61.87944,-20.62648,7.33386,9.45,-1.95,0.6,2.0
1758074445.72591,1758074445.71393,0.0,0.0,0.0,-57.29578,-17.01685,5.78687,9.63,-1.4,0.3,2.0
1758074445.74065,1758074445.72393,0.0,0.0,0.0,-55.92068,-14.49583,4.98473,9.63,-1.4,0.3,2.0
1758074445.74181,1758074445.73393,0.0,0.0,0.0,-56.26446,-10.8289,4.81285,9.54,-0.4,0.18,2.0
1758074445.75783,1758074445.74393,0.0,0.0,0.0,-57.75415,-6.87549,6.87549,9.54,-0.4,0.18,2.0
1758074445.77387,1758074445.75393,0.0,0.0,0.0,-59.41573,-10.48513,7.79223,9.74,0.15,0.45,2.0
1758074445.77592,1758074445.76393,0.0,0.0,0.0,-62.16592,-16.73037,7.79223,9.74,0.19,1.34,2.0
1758074445.79062,1758074445.77393,0.0,0.0,0.0,-65.03072,-20.85567,7.84952,9.74,0.19,1.34,2.0
1758074445.79262,1758074445.78393,0.0,0.0,0.0,-67.60902,-17.87628,5.15662,12.58,-0.5,2.76,2.0
1758074445.80889,1758074445.79393,0.0,0.0,0.0,-66.06203,-6.53172,3.20856,12.58,-0.5,2.76,2.0
1758074445.82498,1758074445.80393,0.0,0.0,0.0,-61.70755,3.03668,1.3751,18.21,-3.24,3.48,2.0
1758074445.82585,1758074445.81393,0.0,0.0,0.0,-56.03527,6.99009,-0.51566,18.21,-3.24,3.48,2.0
1758074445.841,1758074445.82393,0.0,0.0,0.0,-46.46688,6.41713,-2.46372,17.41,-5.99,2.85,2.0
1758074445.84184,1758074445.83393,0.0,0.0,0.0,-41.71133,-1.3751,-2.00535,12.24,-5.76,2.44,2.0
1758074445.85789,1758074445.84393,0.0,0.0,0.0,-38.38818,-12.60507,-0.85944,12.24,-5.76,2.44,2.0
1758074445.87367,1758074445.85393,0.0,0.0,0.0,-35.92446,-18.56383,2.34913,8.95,-3.02,1.25,2.0
1758074445.87911,1758074445.86393,0.0,0.0,0.0,-32.71589,-14.72501,9.85487,8.95,-3.02,1.25,2.0
1758074445.89363,1758074445.87393,0.0,0.0,0.0,-30.65324,-11.22997,15.64175,8.79,0.04,1.12,2.0
1758074445.89557,1758074445.88393,0.0,0.0,0.0,-29.67921,-9.5684,20.16812,8.79,0.04,1.12,2.0
1758074445.91103,1758074445.89393,0.0,0.0,0.0,-30.19488,-8.76626,23.83505,7.49,0.62,1.53,2.0
1758074445.91213,1758074445.90393,0.0,0.0,0.0,-32.54401,-7.79223,26.98631,7.18,-0.44,1.8,2.0
1758074445.92797,1758074445.91393,0.0,0.0,0.0,-34.32018,-7.96411,27.67386,7.18,-0.44,1.8,2.0
1758074445.94468,1758074445.92393,0.0,0.0,0.0,-35.12231,-7.39116,27.1582,7.82,-2.06,1.44,2.0
1758074445.94675,1758074445.93393,0.0,0.0,0.0,-36.03905,-5.95876,24.63719,7.82,-2.06,1.44,2.0
1758074445.96193,1758074445.94393,0.0,0.0,0.0,-36.21093,-2.97938,21.94428,9.09,-3.14,1.65,2.0
1758074445.96401,1758074445.95393,0.0,0.0,0.0,-36.61201,-0.17189,18.62113,9.09,-3.14,1.65,2.0
1758074445.98004,1758074445.96393,0.0,0.0,0.0,-37.35685,3.20856,15.06879,9.85,-3.29,1.74,2.0
1758074445.99593,1758074445.97393,0.0,0.0,0.0,-38.56006,10.94349,9.11003,9.85,-3.29,1.74,2.0
1758074445.99716,1758074445.98393,0.0,0.0,0.0,-39.13302,17.24603,5.09932,10.15,-3.12,1.66,2.0
1758074446.01195,1758074445.99393,0.0,0.0,0.0,-39.13302,23.0902,1.94806,10.01,-3.0,1.33,2.0
1758074446.0131,1758074446.00393,0.0,0.0,0.0,-38.61736,27.84575,-0.17189,10.01,-3.0,1.33,2.0
1758074446.02792,1758074446.01393,0.0,0.0,0.0,-36.32552,35.69527,-1.66158,10.08,-3.06,1.45,2.0
1758074446.04393,1758074446.02393,0.0,0.0,0.0,-34.49206,35.00772,-1.08862,10.08,-3.06,1.45,2.0
1758074446.04593,1758074446.03393,0.0,0.0,0.0,-33.23156,33.17426,0.0,9.77,-3.07,1.37,2.0
1758074446.06101,1758074446.04393,0.0,0.0,0.0,-32.37212,32.54401,1.43239,9.77,-3.07,1.37,2.0
1758074446.06189,1758074446.05393,0.0,0.0,0.0,-31.39809,30.76784,3.72423,9.79,-2.82,1.1,2.0
1758074446.07771,1758074446.06393,0.0,0.0,0.0,-30.93972,28.76248,4.98473,9.28,-2.67,0.8,2.0
1758074446.09394,1758074446.07393,0.0,0.0,0.0,-30.25217,27.61657,5.90147,9.28,-2.67,0.8,2.0
1758074446.096,1758074446.08393,0.0,0.0,0.0,-29.33544,26.64254,6.35983,9.22,-2.73,0.73,2.0
1758074446.11098,1758074446.09393,0.0,0.0,0.0,-27.33009,23.66316,6.41713,9.22,-2.73,0.73,2.0
1758074446.11217,1758074446.10393,0.0,0.0,0.0,-25.49662,20.85567,6.47442,9.3,-2.97,0.76,2.0
1758074446.12953,1758074446.11393,0.0,0.0,0.0,-23.37668,18.16276,6.41713,9.3,-2.97,0.76,2.0
1758074446.14587,1758074446.12393,0.0,0.0,0.0,-21.08485,16.272,6.18794,9.6,-3.28,0.85,2.0
1758074446.15111,1758074446.13393,0.0,0.0,0.0,-17.81899,13.69369,5.55769,9.72,-3.46,0.77,2.0
1758074446.16571,1758074446.14393,0.0,0.0,0.0,-14.66772,8.88085,6.58902,9.72,-3.46,0.77,2.0
1758074446.16938,1758074446.15393,0.0,0.0,0.0,-11.91752,5.78687,7.16197,9.24,-3.58,0.68,2.0
1758074446.18474,1758074446.16393,0.0,0.0,0.0,-8.0787,2.63561,7.21927,9.24,-3.58,0.68,2.0
1758074446.19185,1758074446.17393,0.0,0.0,0.0,-5.72958,1.48969,6.70361,9.14,-3.61,0.54,2.0
1758074446.19218,1758074446.18393,0.0,0.0,0.0,-3.26586,3.60963,5.84417,9.14,-3.61,0.54,2.0
1758074446.21074,1758074446.19393,0.0,0.0,0.0,-0.97403,7.04738,4.87014,9.29,-3.31,0.44,2.0
1758074446.2122,1758074446.20393,0.0,0.0,0.0,1.60428,11.45916,2.86479,9.02,-3.31,0.48,2.0
1758074446.2314,1758074446.21393,0.0,0.0,0.0,2.7502,12.2613,1.60428,9.02,-2.83,0.48,2.0
1758074446.23258,1758074446.22393,0.0,0.0,0.0,3.60963,13.98017,0.40107,8.83,-2.58,0.6,2.0
1758074446.24804,1758074446.23393,0.0,0.0,0.0,3.95341,16.10011,-0.68755,8.83,-2.58,0.6,2.0
1758074446.26413,1758074446.24393,0.0,0.0,0.0,4.0107,18.22006,-2.7502,9.07,-2.67,0.61,2.0
1758074446.26727,1758074446.25393,0.0,0.0,0.0,4.18259,18.85031,-3.89611,9.07,-2.67,0.61,2.0
1758074446.28462,1758074446.26393,0.0,0.0,0.0,4.64096,18.56383,-5.55769,9.13,-2.99,0.85,2.0
1758074446.2866,1758074446.27393,0.0,0.0,0.0,5.50039,17.47521,-6.87549,9.13,-2.99,0.85,2.0
1758074446.30186,1758074446.28393,0.0,0.0,0.0,7.79223,17.24603,-8.93814,9.21,-3.27,0.87,2.0
1758074446.30321,1758074446.29393,0.0,0.0,0.0,9.5684,17.53251,-10.19865,9.48,-3.35,0.72,2.0
1758074446.3177,1758074446.30393,0.0,0.0,0.0,11.51645,18.27736,-11.45916,9.48,-3.35,0.72,2.0
1758074446.33453,1758074446.31393,0.0,0.0,0.0,13.40721,18.79302,-12.49048,9.56,-3.2,0.84,2.0
1758074446.33572,1758074446.32393,0.0,0.0,0.0,16.21471,19.07949,-13.5218,9.56,-3.2,0.84,2.0
1758074446.35103,1758074446.33393,0.0,0.0,0.0,17.76169,19.25138,-14.15206,9.52,-2.91,1.09,2.0
1758074446.35222,1758074446.34393,0.0,0.0,0.0,19.36597,21.31403,-14.83961,9.52,-2.91,1.09,2.0
1758074446.36782,1758074446.35393,0.0,0.0,0.0,21.94428,30.93972,-15.64175,9.85,-2.73,1.2,2.0
1758074446.38406,1758074446.36393,0.0,0.0,0.0,24.63719,39.70598,-15.46986,10.3,-2.75,1.32,2.0
1758074446.38501,1758074446.37393,0.0,0.0,0.0,27.73116,47.72739,-14.66772,10.3,-2.75,1.32,2.0
1758074446.40006,1758074446.38393,0.0,0.0,0.0,31.39809,55.34772,-13.00614,9.97,-2.89,1.52,2.0
1758074446.41595,1758074446.39393,0.0,0.0,0.0,37.58603,63.13995,-10.25595,9.97,-2.89,1.52,2.0
1758074446.41732,1758074446.40393,0.0,0.0,0.0,42.39888,65.71826,-8.30789,9.59,-3.05,1.64,2.0
1758074446.43208,1758074446.41393,0.0,0.0,0.0,47.38361,66.34852,-6.70361,9.59,-3.05,1.64,2.0
1758074446.43329,1758074446.42393,0.0,0.0,0.0,52.02457,65.37449,-5.78687,9.26,-3.11,1.16,2.0
1758074446.4481,1758074446.43393,0.0,0.0,0.0,57.92604,59.41573,-5.50039,8.9,-3.11,0.88,2.0
1758074446.46383,1758074446.44393,0.0,0.0,0.0,59.98868,46.75336,-6.53172,8.9,-3.11,0.88,2.0
1758074446.46586,1758074446.45393,0.0,0.0,0.0,60.10328,30.59595,-8.47978,7.86,-2.97,0.48,2.0
1758074446.48112,1758074446.46393,0.0,0.0,0.0,59.87409,26.98631,-13.12073,7.86,-2.97,0.48,2.0
1758074446.48397,1758074446.47393,0.0,0.0,0.0,61.30648,41.59674,-15.35527,10.12,-2.87,-0.22,2.0
1758074446.50007,1758074446.48393,0.0,0.0,0.0,61.99404,50.47758,-18.27736,10.12,-2.87,-0.22,2.0
1758074446.51591,1758074446.49393,0.0,0.0,0.0,62.22322,54.3164,-21.14215,10.35,-2.73,1.49,2.0
1758074446.5173,1758074446.50393,0.0,0.0,0.0,61.1346,53.51426,-23.83505,10.35,-2.73,1.49,2.0
1758074446.53178,1758074446.51393,0.0,0.0,0.0,59.07195,38.38818,-27.73116,9.4,-2.45,3.2,2.0
1758074446.53296,1758074446.52393,0.0,0.0,0.0,54.60288,2.7502,-27.44468,8.61,-1.45,4.22,2.0
1758074446.54941,1758074446.53393,0.0,0.0,0.0,55.6342,-30.53865,-19.88164,8.61,-1.45,4.22,2.0
1758074446.566,1758074446.54393,0.0,0.0,0.0,51.6235,-44.23235,-11.17268,11.61,-0.57,3.29,2.0
1758074446.56712,1758074446.55393,0.0,0.0,0.0,48.01387,-53.17049,-3.38045,11.61,-0.57,3.29,2.0
1758074446.58194,1758074446.56393,0.0,0.0,0.0,43.88857,-45.89392,2.06265,12.57,-0.44,2.69,2.0
1758074446.58335,1758074446.57393,0.0,0.0,0.0,39.24761,-34.32018,5.32851,12.57,-0.44,2.69,2.0
1758074446.60037,1758074446.58393,0.0,0.0,0.0,31.2262,-27.2155,3.55234,11.21,-0.85,2.24,2.0
1758074446.60223,1758074446.59393,0.0,0.0,0.0,26.24147,-30.82513,-0.51566,7.94,-0.78,2.91,2.0
1758074446.61799,1758074446.60393,0.0,0.0,0.0,21.08485,-31.56997,-7.21927,7.94,-0.78,2.91,2.0
1758074446.63391,1758074446.61393,0.0,0.0,0.0,17.47521,-31.45539,-15.12609,7.67,-0.13,3.38,2.0
1758074446.63599,1758074446.62393,0.0,0.0,0.0,13.46451,-31.91375,-25.09555,7.67,-0.13,3.38,2.0
1758074446.65089,1758074446.63393,0.0,0.0,0.0,12.77696,-32.08564,-30.25217,8.63,0.67,3.57,2.0
1758074446.652,1758074446.64393,0.0,0.0,0.0,13.40721,-33.80451,-33.05967,8.63,0.67,3.57,2.0
1758074446.66814,1758074446.65393,0.0,0.0,0.0,14.66772,-36.84119,-34.60666,9.55,0.53,4.63,2.0
1758074446.68517,1758074446.66393,0.0,0.0,0.0,17.01685,-41.71133,-33.51803,9.98,-0.4,4.48,2.0
1758074446.68642,1758074446.67393,0.0,0.0,0.0,18.85031,-41.36755,-31.11161,9.98,-0.4,4.48,2.0
1758074446.70123,1758074446.68393,0.0,0.0,0.0,21.14215,-39.87786,-27.04361,10.73,-1.31,4.14,2.0
1758074446.70212,1758074446.69393,0.0,0.0,0.0,23.0902,-37.81522,-23.66316,10.73,-1.31,4.14,2.0
1758074446.71973,1758074446.70393,0.0,0.0,0.0,25.43933,-35.00772,-18.85031,10.55,-1.83,3.63,2.0
1758074446.73625,1758074446.71393,0.0,0.0,0.0,26.75713,-29.96569,-16.61578,10.55,-1.83,3.63,2.0
1758074446.7374,1758074446.72393,0.0,0.0,0.0,27.78845,-23.66316,-15.46986,10.15,-1.68,3.31,2.0
1758074446.75223,1758074446.73393,0.0,0.0,0.0,28.99167,-17.30333,-13.5791,10.15,-1.68,3.31,2.0
1758074446.75584,1758074446.74393,0.0,0.0,0.0,30.19488,-9.22462,-12.37589,9.55,-0.59,2.68,2.0
1758074446.77195,1758074446.75393,0.0,0.0,0.0,30.25217,-4.81285,-11.22997,9.34,0.78,2.73,2.0
1758074446.77479,1758074446.76393,0.0,0.0,0.0,29.8511,-1.20321,-10.59972,9.34,0.78,2.73,2.0
1758074446.78993,1758074446.77393,0.0,0.0,0.0,27.78845,4.46907,-10.19865,9.43,1.75,2.42,2.0
1758074446.80696,1758074446.78393,0.0,0.0,0.0,26.18417,8.36518,-9.96947,9.43,1.75,2.42,2.0
1758074446.80819,1758074446.79393,0.0,0.0,0.0,24.35071,12.08941,-10.08406,9.64,1.9,2.39,2.0
1758074446.8271,1758074446.80393,0.0,0.0,0.0,22.57454,15.75634,-10.31324,9.64,1.9,2.39,2.0
1758074446.82822,1758074446.81393,0.0,0.0,0.0,20.45459,21.37133,-9.96947,9.45,1.25,2.31,2.0
1758074446.84603,1758074446.82393,0.0,0.0,0.0,18.73572,25.38203,-9.4538,9.4,0.64,2.41,2.0
1758074446.84775,1758074446.83393,0.0,0.0,0.0,16.67307,27.73116,-9.28192,9.4,0.64,2.41,2.0
1758074446.86422,1758074446.84393,0.0,0.0,0.0,14.03747,28.24682,-9.22462,9.08,0.52,2.5,2.0
1758074446.86517,1758074446.85393,0.0,0.0,0.0,9.5684,28.59059,-8.88085,9.08,0.52,2.5,2.0
1758074446.88124,1758074446.86393,0.0,0.0,0.0,6.53172,27.96034,-8.59437,9.01,0.71,2.52,2.0
1758074446.88216,1758074446.87393,0.0,0.0,0.0,3.60963,27.44468,-7.79223,9.01,0.71,2.52,2.0
1758074446.89806,1758074446.88393,0.0,0.0,0.0,0.68755,26.98631,-7.21927,8.9,0.95,2.51,2.0
1758074446.91403,1758074446.89393,0.0,0.0,0.0,-2.7502,24.63719,-5.78687,8.68,1.12,2.5,2.0
1758074446.91786,1758074446.90393,0.0,0.0,0.0,-4.64096,21.08485,-4.35448,8.68,1.12,2.5,2.0
1758074446.93324,1758074446.91393,0.0,0.0,0.0,-6.35983,17.30333,-2.7502,8.4,1.13,2.55,2.0
1758074446.93523,1758074446.92393,0.0,0.0,0.0,-7.73493,13.12073,-1.20321,8.4,1.13,2.55,2.0
1758074446.95118,1758074446.93393,0.0,0.0,0.0,-9.85487,6.53172,0.34377,8.41,0.99,2.23,2.0
1758074446.95227,1758074446.94393,0.0,0.0,0.0,-11.11538,2.63561,0.80214,8.41,0.99,2.23,2.0
1758074446.97393,1758074446.95393,0.0,0.0,0.0,-12.43318,-1.14592,1.71887,8.51,0.87,2.08,2.0
1758074446.97623,1758074446.96393,0.0,0.0,0.0,-13.98017,-8.88085,3.49504,8.51,0.87,2.08,2.0
1758074446.99099,1758074446.97393,0.0,0.0,0.0,-15.46986,-10.54242,3.60963,8.48,0.63,1.98,2.0
1758074446.99222,1758074446.98393,0.0,0.0,0.0,-16.67307,-13.46451,4.46907,8.82,0.54,2.02,2.0
1758074447.01006,1758074446.99393,0.0,0.0,0.0,-18.27736,-15.98552,4.81285,8.82,0.54,2.02,2.0
1758074447.02601,1758074447.00393,0.0,0.0,0.0,-20.85567,-18.27736,5.15662,8.88,0.62,1.97,2.0
1758074447.02675,1758074447.01393,0.0,0.0,0.0,-22.63183,-17.93358,5.84417,8.88,0.62,1.97,2.0
1758074447.04321,1758074447.02393,0.0,0.0,0.0,-24.63719,-17.01685,6.35983,9.3,0.8,2.13,2.0
1758074447.04592,1758074447.03393,0.0,0.0,0.0,-26.81443,-13.75099,7.21927,9.3,0.8,2.13,2.0
1758074447.06128,1758074447.04393,0.0,0.0,0.0,-31.16891,-5.90147,8.42248,9.84,1.06,2.48,2.0
1758074447.06219,1758074447.05393,0.0,0.0,0.0,-34.77854,-3.03668,9.05273,10.04,1.2,2.78,2.0
1758074447.0781,1758074447.06393,0.0,0.0,0.0,-39.01843,-4.0107,8.47978,10.04,1.2,2.78,2.0
1758074447.09402,1758074447.07393,0.0,0.0,0.0,-43.77398,-7.21927,7.44845,9.4,1.1,2.6,2.0
1758074447.09525,1758074447.08393,0.0,0.0,0.0,-51.22243,-12.2613,5.4431,9.4,1.1,2.6,2.0
1758074447.11133,1758074447.09393,0.0,0.0,0.0,-55.97798,-14.32395,3.49504,9.48,0.95,2.15,2.0
1758074447.11246,1758074447.10393,0.0,0.0,0.0,-60.50434,-16.272,1.3178,9.48,0.95,2.15,2.0
1758074447.12931,1758074447.11393,0.0,0.0,0.0,-64.45775,-17.76169,-1.03132,9.38,0.95,1.78,2.0
1758074447.14696,1758074447.12393,0.0,0.0,0.0,-68.35387,-22.97561,-4.52637,9.1,0.98,1.38,2.0
1758074447.14731,1758074447.13393,0.0,0.0,0.0,-68.98412,-32.37212,-4.0107,9.1,0.98,1.38,2.0
1758074447.16488,1758074447.14393,0.0,0.0,0.0,-67.37984,-38.38818,-4.29718,8.78,0.59,0.63,2.0
1758074447.1671,1758074447.15393,0.0,0.0,0.0,-64.51505,-42.91454,-1.3178,8.78,0.59,0.63,2.0
1758074447.18231,1758074447.16393,0.0,0.0,0.0,-62.62429,-42.28429,1.20321,9.51,0.12,-0.01,2.0
1758074447.18324,1758074447.17393,0.0,0.0,0.0,-61.07731,-23.31938,4.29718,9.51,0.12,-0.01,2.0
1758074447.19807,1758074447.18393,0.0,0.0,0.0,-60.27517,-0.68755,6.87549,11.75,-0.13,1.25,2.0
1758074447.21609,1758074447.19393,0.0,0.0,0.0,-63.13995,-22.51724,4.92744,11.75,-0.13,1.25,2.0
1758074447.21641,1758074447.20393,0.0,0.0,0.0,-65.08801,-32.37212,3.26586,8.33,0.0,2.02,2.0
1758074447.23234,1758074447.21393,0.0,0.0,0.0,-66.97877,-37.18496,2.40642,8.86,0.51,0.91,2.0
1758074447.23339,1758074447.22393,0.0,0.0,0.0,-66.635,-34.89313,2.97938,8.86,0.51,0.91,2.0
1758074447.24836,1758074447.23393,0.0,0.0,0.0,-66.34852,-30.82513,4.35448,9.72,0.5,0.24,2.0
1758074447.26436,1758074447.24393,0.0,0.0,0.0,-66.5204,-25.38203,4.46907,9.72,0.5,0.24,2.0
1758074447.26688,1758074447.25393,0.0,0.0,0.0,-66.635,-20.05352,5.50039,10.01,0.16,1.08,2.0
1758074447.28211,1758074447.26393,0.0,0.0,0.0,-65.03072,-15.0115,6.7609,10.01,0.16,1.08,2.0
1758074447.28368,1758074447.27393,0.0,0.0,0.0,-59.87409,-10.54242,9.28192,9.92,-0.58,1.55,2.0
1758074447.2982,1758074447.28393,0.0,0.0,0.0,-55.7488,-9.39651,10.19865,9.73,-1.63,1.44,2.0
1758074447.31429,1758074447.29393,0.0,0.0,0.0,-52.48294,-10.71431,10.65701,9.73,-1.63,1.44,2.0
1758074447.3155,1758074447.30393,0.0,0.0,0.0,-50.76406,-10.25595,9.5684,9.82,-1.52,0.57,2.0
1758074447.33012,1758074447.31393,0.0,0.0,0.0,-49.33167,-11.34457,8.47978,9.82,-1.52,0.57,2.0
1758074447.33206,1758074447.32393,0.0,0.0,0.0,-50.59217,-12.204,8.136,9.72,-0.6,0.7,2.0
1758074447.34737,1758074447.33393,0.0,0.0,0.0,-52.9986,-14.32395,8.02141,9.72,-0.6,0.7,2.0
1758074447.3634,1758074447.34393,0.0,0.0,0.0,-55.57691,-15.12609,7.50575,9.64,0.15,0.94,2.0
1758074447.36429,1758074447.35393,0.0,0.0,0.0,-58.90006,-14.61043,6.87549,10.4,0.53,1.2,2.0
1758074447.3794,1758074447.36393,0.0,0.0,0.0,-60.79083,-13.46451,6.18794,10.4,0.53,1.2,2.0
1758074447.39593,1758074447.37393,0.0,0.0,0.0,-62.39511,-12.08941,5.4431,10.72,0.71,0.9,2.0
1758074447.39651,1758074447.38393,0.0,0.0,0.0,-64.74423,-7.96411,4.81285,10.72,0.71,0.9,2.0
1758074447.41241,1758074447.39393,0.0,0.0,0.0,-65.77556,-5.72958,5.4431,10.88,0.64,0.5,2.0
1758074447.41336,1758074447.40393,0.0,0.0,0.0,-66.69229,-8.59437,5.90147,10.88,0.64,0.5,2.0
1758074447.4284,1758074447.41393,0.0,0.0,0.0,-67.66632,-14.66772,6.41713,10.26,0.18,0.49,2.0
1758074447.43088,1758074447.42393,0.0,0.0,0.0,-70.13004,-24.86637,7.33386,10.02,0.18,1.11,2.0
1758074447.44674,1758074447.43393,0.0,0.0,0.0,-71.84892,-28.59059,8.30789,10.02,-0.2,1.11,2.0
1758074447.46218,1758074447.44393,0.0,0.0,0.0,-72.30728,-30.13758,8.59437,11.93,-1.03,1.9,2.0
1758074447.46658,1758074447.45393,0.0,0.0,0.0,-70.53111,-28.41871,8.02141,11.93,-1.03,1.9,2.0
1758074447.48252,1758074447.46393,0.0,0.0,0.0,-64.22858,-25.15285,5.27121,15.07,-2.77,3.24,2.0
1758074447.48447,1758074447.47393,0.0,0.0,0.0,-58.09792,-25.15285,3.32316,15.07,-2.77,3.24,2.0
1758074447.49917,1758074447.48393,0.0,0.0,0.0,-51.85268,-29.04896,2.6929,14.89,-4.47,2.79,2.0
1758074447.50038,1758074447.49393,0.0,0.0,0.0,-46.75336,-36.55471,3.72423,14.89,-4.47,2.79,2.0
