timeStamp,timeStampAlign,roll,pitch,yaw,gyro_x,gyro_y,gyro_z,acc_x,acc_y,acc_z,flag_num
1758075769.79394,1758075769.80192,0.0,0.0,0.0,18.50654,44.86259,13.5791,8.81,1.9,0.81,2.0
1758075769.79599,1758075769.81192,0.0,0.0,0.0,14.15206,49.21708,11.97482,8.81,1.9,0.81,2.0
1758075769.8114,1758075769.82192,0.0,0.0,0.0,9.5684,53.05589,10.8289,7.92,2.41,0.67,2.0
1758075769.81238,1758075769.83192,0.0,0.0,0.0,7.73493,53.45696,10.71431,7.92,2.41,0.67,2.0
1758075769.82722,1758075769.84192,0.0,0.0,0.0,6.58902,52.02457,11.80293,7.39,2.52,0.85,2.0
1758075769.84401,1758075769.85192,0.0,0.0,0.0,6.41713,48.52953,13.06344,7.39,2.52,0.85,2.0
1758075769.84601,1758075769.86192,0.0,0.0,0.0,6.8182,46.75336,15.46986,7.33,2.17,1.22,2.0
1758075769.8612,1758075769.87192,0.0,0.0,0.0,7.16197,46.98254,16.61578,8.27,1.49,1.37,2.0
1758075769.86242,1758075769.88192,0.0,0.0,0.0,7.10468,45.49285,17.18874,8.27,1.49,1.37,2.0
1758075769.87764,1758075769.89192,0.0,0.0,0.0,6.13065,44.51882,15.98552,8.6,0.96,1.22,2.0
1758075769.89323,1758075769.90192,0.0,0.0,0.0,4.35448,42.91454,13.80828,8.6,0.96,1.22,2.0
1758075769.89444,1758075769.91192,0.0,0.0,0.0,3.55234,39.87786,12.2613,8.85,0.8,0.73,2.0
1758075769.90929,1758075769.92192,0.0,0.0,0.0,2.86479,35.69527,10.94349,8.85,0.8,0.73,2.0
1758075769.92605,1758075769.93192,0.0,0.0,0.0,2.23454,32.20023,9.28192,8.72,0.95,0.48,2.0
1758075769.92727,1758075769.94192,0.0,0.0,0.0,0.57296,29.9084,6.47442,8.9,1.18,0.24,2.0
1758075769.94256,1758075769.95192,0.0,0.0,0.0,-0.74485,29.04896,4.92744,8.9,1.18,0.24,2.0
1758075769.94664,1758075769.96192,0.0,0.0,0.0,-2.11994,26.35606,3.89611,8.67,1.56,-0.29,2.0
1758075769.96231,1758075769.97192,0.0,0.0,0.0,-3.60963,21.02755,3.38045,8.67,1.56,-0.29,2.0
1758075769.96374,1758075769.98192,0.0,0.0,0.0,-6.41713,10.94349,3.83882,8.09,2.02,-0.23,2.0
1758075769.97826,1758075769.99192,0.0,0.0,0.0,-8.47978,0.80214,4.18259,8.09,2.02,-0.23,2.0
1758075769.99689,1758075770.00192,0.0,0.0,0.0,-10.8862,-11.57375,4.52637,7.4,2.42,-0.13,2.0
1758075769.99969,1758075770.01192,0.0,0.0,0.0,-15.06879,-30.88243,6.47442,7.4,2.42,-0.13,2.0
1758075770.01691,1758075770.02192,0.0,0.0,0.0,-17.87628,-39.01843,8.47978,7.3,2.58,0.09,2.0
1758075770.01993,1758075770.03192,0.0,0.0,0.0,-20.85567,-46.75336,11.28727,8.4,2.34,0.4,2.0
1758075770.03647,1758075770.04192,0.0,0.0,0.0,-23.83505,-54.71747,14.20935,8.4,2.34,0.4,2.0
1758075770.03733,1758075770.05192,0.0,0.0,0.0,-28.87707,-70.01544,18.27736,9.0,2.06,1.27,2.0
1758075770.05235,1758075770.06192,0.0,0.0,0.0,-32.71589,-90.92841,20.11082,9.0,2.06,1.27,2.0
1758075770.05597,1758075770.07192,0.0,0.0,0.0,-37.87251,-118.08661,15.75634,8.85,2.15,5.11,2.0
1758075770.07135,1758075770.08192,0.0,0.0,0.0,-42.22699,-139.91631,5.78687,8.85,2.15,5.11,2.0
1758075770.07258,1758075770.09192,0.0,0.0,0.0,-45.77933,-141.2914,-12.83425,11.44,0.34,6.42,2.0
1758075770.08757,1758075770.10192,0.0,0.0,0.0,-46.46688,-129.25928,-22.05888,17.02,-1.03,4.73,2.0
1758075770.10462,1758075770.11192,0.0,0.0,0.0,-46.63877,-119.69088,-27.67386,17.02,-1.03,4.73,2.0
1758075770.10748,1758075770.12192,0.0,0.0,0.0,-47.38361,-112.35703,-30.13758,16.2,-0.61,3.29,2.0
1758075770.1227,1758075770.13192,0.0,0.0,0.0,-49.56085,-104.79399,-26.52795,16.2,-0.61,3.29,2.0
1758075770.12356,1758075770.14192,0.0,0.0,0.0,-51.79538,-96.31421,-23.0902,14.04,-0.35,2.45,2.0
1758075770.13836,1758075770.15192,0.0,0.0,0.0,-54.60288,-80.44328,-20.45459,14.04,-0.35,2.45,2.0
1758075770.1554,1758075770.16192,0.0,0.0,0.0,-56.78012,-53.62885,-17.30333,13.87,-0.77,1.9,2.0
1758075770.1566,1758075770.17192,0.0,0.0,0.0,-58.55629,-46.1231,-11.74564,12.06,-1.22,1.94,2.0
1758075770.17138,1758075770.18192,0.0,0.0,0.0,-62.96807,-50.47758,-12.89155,12.06,-1.22,1.94,2.0
1758075770.17344,1758075770.19192,0.0,0.0,0.0,-65.77556,-56.66553,-12.37589,9.22,-1.15,1.13,2.0
1758075770.18866,1758075770.20192,0.0,0.0,0.0,-63.99939,-59.81679,-13.5218,9.22,-1.15,1.13,2.0
1758075770.20521,1758075770.21192,0.0,0.0,0.0,-62.22322,-51.85268,-14.66772,10.54,-1.64,0.84,2.0
1758075770.20643,1758075770.22192,0.0,0.0,0.0,-59.47303,-15.87093,-13.86558,10.54,-1.64,0.84,2.0
1758075770.2217,1758075770.23192,0.0,0.0,0.0,-61.59297,33.00237,-16.95955,15.41,-2.03,-0.45,2.0
1758075770.22293,1758075770.24192,0.0,0.0,0.0,-64.28587,61.1346,-16.73037,15.41,-2.03,-0.45,2.0
1758075770.2385,1758075770.25192,0.0,0.0,0.0,-60.10328,60.96271,-17.18874,12.99,-1.57,0.63,2.0
1758075770.25472,1758075770.26192,0.0,0.0,0.0,-55.00395,64.74423,-17.47521,8.98,-1.34,0.69,2.0
1758075770.25599,1758075770.27192,0.0,0.0,0.0,-49.04519,71.79161,-16.38659,8.98,-1.34,0.69,2.0
1758075770.27124,1758075770.28192,0.0,0.0,0.0,-40.50812,73.79697,-13.23533,9.27,-1.97,-0.03,2.0
1758075770.27253,1758075770.29192,0.0,0.0,0.0,-35.2942,72.0208,-11.28727,9.27,-1.97,-0.03,2.0
1758075770.28758,1758075770.30192,0.0,0.0,0.0,-30.25217,72.42187,-9.28192,8.47,-2.01,0.64,2.0
1758075770.30475,1758075770.31192,0.0,0.0,0.0,-26.24147,73.91156,-7.73493,8.47,-2.01,0.64,2.0
1758075770.30646,1758075770.32192,0.0,0.0,0.0,-21.94428,74.14074,-6.41713,8.54,-1.64,0.67,2.0
1758075770.32149,1758075770.33192,0.0,0.0,0.0,-19.99623,72.07809,-5.95876,8.01,-1.11,0.79,2.0
1758075770.32303,1758075770.34192,0.0,0.0,0.0,-18.73572,69.49979,-5.61499,8.01,-1.11,0.79,2.0
1758075770.33781,1758075770.35192,0.0,0.0,0.0,-18.16276,66.46311,-5.78687,7.81,-0.7,0.76,2.0
1758075770.35555,1758075770.36192,0.0,0.0,0.0,-17.93358,61.1346,-6.41713,7.81,-0.7,0.76,2.0
1758075770.35757,1758075770.37192,0.0,0.0,0.0,-18.10547,57.23849,-7.33386,7.61,-0.68,0.84,2.0
1758075770.37713,1758075770.38192,0.0,0.0,0.0,-17.99088,51.85268,-8.36518,7.61,-0.68,0.84,2.0
1758075770.38149,1758075770.39192,0.0,0.0,0.0,-17.47521,45.55015,-9.74028,7.39,-0.84,0.82,2.0
1758075770.38208,1758075770.40192,0.0,0.0,0.0,-16.3293,36.38282,-10.54242,7.5,-1.01,0.61,2.0
1758075770.39747,1758075770.41192,0.0,0.0,0.0,-15.12609,31.74186,-10.8862,7.5,-1.01,0.61,2.0
1758075770.41446,1758075770.42192,0.0,0.0,0.0,-13.86558,28.24682,-11.17268,8.17,-0.9,0.22,2.0
1758075770.4157,1758075770.43192,0.0,0.0,0.0,-11.74564,23.37668,-11.80293,8.17,-0.9,0.22,2.0
1758075770.43086,1758075770.44192,0.0,0.0,0.0,-10.48513,19.07949,-12.60507,8.74,-0.53,-0.15,2.0
1758075770.43255,1758075770.45192,0.0,0.0,0.0,-9.4538,15.06879,-14.09476,8.74,-0.53,-0.15,2.0
1758075770.44784,1758075770.46192,0.0,0.0,0.0,-8.93814,12.77696,-15.87093,8.99,-0.15,-0.56,2.0
1758075770.46482,1758075770.47192,0.0,0.0,0.0,-8.42248,10.59972,-18.9649,9.04,-0.15,-0.77,2.0
1758075770.4666,1758075770.48192,0.0,0.0,0.0,-8.93814,10.59972,-21.14215,9.04,0.18,-0.77,2.0
1758075770.48162,1758075770.49192,0.0,0.0,0.0,-10.02676,11.45916,-23.37668,8.94,0.56,-0.56,2.0
1758075770.48283,1758075770.50192,0.0,0.0,0.0,-11.51645,12.2613,-24.63719,8.94,0.56,-0.56,2.0
1758075770.49889,1758075770.51192,0.0,0.0,0.0,-13.80828,14.66772,-26.01229,9.1,0.78,-0.22,2.0
1758075770.5156,1758075770.52192,0.0,0.0,0.0,-14.9542,16.04282,-25.72581,9.1,0.78,-0.22,2.0
1758075770.51684,1758075770.53192,0.0,0.0,0.0,-15.41257,16.272,-24.75178,9.47,0.51,0.07,2.0
1758075770.53192,1758075770.54192,0.0,0.0,0.0,-15.41257,14.38124,-23.0902,9.47,0.51,0.07,2.0
1758075770.53286,1758075770.55192,0.0,0.0,0.0,-14.09476,8.47978,-19.76705,9.56,0.04,0.4,2.0
1758075770.54869,1758075770.56192,0.0,0.0,0.0,-13.06344,1.83346,-16.61578,9.56,-0.07,0.29,2.0
1758075770.55251,1758075770.57192,0.0,0.0,0.0,-13.17803,-5.95876,-15.75634,9.56,-0.07,0.29,2.0
1758075770.57192,1758075770.58192,0.0,0.0,0.0,-12.37589,-14.43854,-13.23533,9.22,0.0,0.0,2.0
1758075770.5731,1758075770.59192,0.0,0.0,0.0,-12.49048,-13.23533,-13.17803,9.22,0.0,0.0,2.0
1758075770.59143,1758075770.60192,0.0,0.0,0.0,-12.37589,-4.92744,-12.08941,10.56,0.22,0.06,2.0
1758075770.59325,1758075770.61192,0.0,0.0,0.0,-12.14671,3.95341,-10.65701,10.56,0.22,0.06,2.0
1758075770.60895,1758075770.62192,0.0,0.0,0.0,-12.37589,10.59972,-8.99544,11.67,0.22,0.99,2.0
1758075770.62647,1758075770.63192,0.0,0.0,0.0,-14.66772,10.02676,-9.05273,11.44,0.21,1.24,2.0
1758075770.62847,1758075770.64192,0.0,0.0,0.0,-16.21471,5.90147,-9.39651,11.44,0.21,1.24,2.0
1758075770.64596,1758075770.65192,0.0,0.0,0.0,-18.10547,-1.48969,-10.8862,11.75,0.04,4.18,2.0
1758075770.64689,1758075770.66192,0.0,0.0,0.0,-22.05888,-42.91454,-11.28727,11.75,0.04,4.18,2.0
1758075770.66195,1758075770.67192,0.0,0.0,0.0,-22.11617,-79.81302,-7.10468,10.59,0.74,6.4,2.0
1758075770.66286,1758075770.68192,0.0,0.0,0.0,-24.98096,-102.90323,2.23454,10.59,0.74,6.4,2.0
1758075770.67771,1758075770.69192,0.0,0.0,0.0,-31.74186,-93.44942,8.136,14.08,2.2,3.06,2.0
1758075770.6944,1758075770.70192,0.0,0.0,0.0,-41.71133,-65.89015,13.00614,16.27,2.11,0.27,2.0
1758075770.69982,1758075770.71192,0.0,0.0,0.0,-46.86795,-59.18654,11.57375,16.27,2.11,0.27,2.0
1758075770.71471,1758075770.72192,0.0,0.0,0.0,-49.27437,-54.02992,8.30789,11.1,-0.34,0.99,2.0
1758075770.71641,1758075770.73192,0.0,0.0,0.0,-47.72739,-45.14908,5.4431,11.1,-0.34,0.99,2.0
1758075770.7318,1758075770.74192,0.0,0.0,0.0,-39.82057,-37.92981,3.60963,10.04,-2.0,2.2,2.0
1758075770.73296,1758075770.75192,0.0,0.0,0.0,-31.97105,-40.68,3.89611,10.04,-2.0,2.2,2.0
1758075770.74799,1758075770.76192,0.0,0.0,0.0,-23.37668,-42.85724,4.35448,8.62,-2.26,3.52,2.0
1758075770.76589,1758075770.77192,0.0,0.0,0.0,-14.9542,-38.1017,4.46907,8.62,-2.26,3.52,2.0
1758075770.76696,1758075770.78192,0.0,0.0,0.0,-2.92208,-23.66316,5.95876,9.55,-1.43,3.04,2.0
1758075770.78198,1758075770.79192,0.0,0.0,0.0,3.55234,-13.69369,7.21927,10.23,-0.56,2.41,2.0
1758075770.78461,1758075770.80192,0.0,0.0,0.0,8.30789,-7.16197,8.59437,10.23,-0.56,2.41,2.0
1758075770.80084,1758075770.81192,0.0,0.0,0.0,11.91752,0.17189,9.85487,9.85,0.06,2.07,2.0
1758075770.80178,1758075770.82192,0.0,0.0,0.0,11.63104,13.80828,9.74028,9.85,0.06,2.07,2.0
1758075770.81785,1758075770.83192,0.0,0.0,0.0,9.91217,24.17882,8.93814,10.26,0.52,1.38,2.0
1758075770.83386,1758075770.84192,0.0,0.0,0.0,7.10468,35.3515,7.73493,10.26,0.52,1.38,2.0
1758075770.83524,1758075770.85192,0.0,0.0,0.0,0.97403,51.50891,5.27121,10.55,1.05,0.86,2.0
1758075770.84994,1758075770.86192,0.0,0.0,0.0,-3.49504,60.16057,3.66693,10.37,1.57,0.71,2.0
1758075770.85174,1758075770.87192,0.0,0.0,0.0,-7.84952,66.46311,2.29183,10.37,1.57,0.71,2.0
1758075770.86801,1758075770.88192,0.0,0.0,0.0,-11.91752,70.30193,1.3751,9.73,1.96,0.65,2.0
1758075770.88385,1758075770.89192,0.0,0.0,0.0,-17.13144,75.40125,0.17189,9.73,1.96,0.65,2.0
1758075770.88651,1758075770.90192,0.0,0.0,0.0,-19.82434,76.1461,-0.85944,9.43,2.04,0.79,2.0
1758075770.9018,1758075770.91192,0.0,0.0,0.0,-22.00158,76.66176,-1.60428,9.43,2.04,0.79,2.0
1758075770.90413,1758075770.92192,0.0,0.0,0.0,-23.31938,74.65641,-2.46372,9.12,1.84,1.05,2.0
1758075770.91911,1758075770.93192,0.0,0.0,0.0,-24.86637,67.66632,-3.83882,8.7,1.39,1.28,2.0
1758075770.93669,1758075770.94192,0.0,0.0,0.0,-25.61122,62.33781,-4.64096,8.7,1.39,1.28,2.0
1758075770.93713,1758075770.95192,0.0,0.0,0.0,-26.24147,57.12389,-5.50039,8.52,0.9,1.26,2.0
1758075770.95616,1758075770.96192,0.0,0.0,0.0,-26.69983,51.6235,-6.07335,8.52,0.9,1.26,2.0
1758075770.95791,1758075770.97192,0.0,0.0,0.0,-27.33009,44.51882,-7.33386,8.37,0.59,1.37,2.0
1758075770.97283,1758075770.98192,0.0,0.0,0.0,-27.78845,40.45082,-7.79223,8.37,0.59,1.37,2.0
1758075770.97515,1758075770.99192,0.0,0.0,0.0,-28.01764,36.49741,-8.30789,8.36,0.48,1.27,2.0
1758075770.98993,1758075771.00192,0.0,0.0,0.0,-28.24682,31.97105,-8.70896,8.36,0.48,1.27,2.0
1758075770.99184,1758075771.01192,0.0,0.0,0.0,-28.76248,26.35606,-9.11003,8.21,0.54,1.1,2.0
1758075771.00712,1758075771.02192,0.0,0.0,0.0,-29.22085,22.97561,-9.05273,8.15,0.65,0.86,2.0
1758075771.02314,1758075771.03192,0.0,0.0,0.0,-30.19488,18.44924,-8.93814,8.15,0.65,0.86,2.0
1758075771.02408,1758075771.04192,0.0,0.0,0.0,-32.14294,8.99544,-7.67763,7.85,0.79,0.7,2.0
1758075771.03968,1758075771.05192,0.0,0.0,0.0,-33.63263,0.45837,-7.04738,7.85,0.79,0.7,2.0
1758075771.04261,1758075771.06192,0.0,0.0,0.0,-35.06502,-13.12073,-6.24524,7.37,0.98,0.23,2.0
1758075771.05792,1758075771.07192,0.0,0.0,0.0,-36.15364,-33.86181,-4.87014,7.37,0.98,0.23,2.0
1758075771.0753,1758075771.08192,0.0,0.0,0.0,-36.49741,-69.67168,-3.09397,5.77,1.22,-0.09,2.0
1758075771.07572,1758075771.09192,0.0,0.0,0.0,-37.12767,-89.89708,-2.86479,5.52,1.07,-0.13,2.0
1758075771.09197,1758075771.10192,0.0,0.0,0.0,-39.24761,-95.39748,-1.43239,5.52,1.07,-0.13,2.0
1758075771.09376,1758075771.11192,0.0,0.0,0.0,-41.31026,-82.67782,-2.11994,9.21,1.16,0.88,2.0
1758075771.10891,1758075771.12192,0.0,0.0,0.0,-50.53488,-51.39432,-4.1253,9.21,1.16,0.88,2.0
1758075771.11172,1758075771.13192,0.0,0.0,0.0,-54.94666,-32.54401,-2.97938,12.71,1.35,1.59,2.0
1758075771.12823,1758075771.14192,0.0,0.0,0.0,-57.0093,-43.88857,-0.80214,12.71,1.35,1.59,2.0
1758075771.14501,1758075771.15192,0.0,0.0,0.0,-62.16592,-69.21331,-1.94806,9.72,1.85,2.01,2.0
1758075771.14678,1758075771.16192,0.0,0.0,0.0,-68.01009,-95.51206,-0.68755,8.58,2.33,1.56,2.0
1758075771.16227,1758075771.17192,0.0,0.0,0.0,-72.30728,-109.89331,-1.94806,8.58,2.33,1.56,2.0
1758075771.16318,1758075771.18192,0.0,0.0,0.0,-74.25533,-131.72299,-5.72958,10.17,2.28,4.93,2.0
1758075771.17961,1758075771.19192,0.0,0.0,0.0,-75.40125,-149.88577,-12.43318,10.17,2.28,4.93,2.0
1758075771.18079,1758075771.20192,0.0,0.0,0.0,-72.19269,-142.60921,-22.68913,14.24,-0.34,5.14,2.0
1758075771.19736,1758075771.21192,0.0,0.0,0.0,-67.09336,-124.15995,-26.64254,14.24,-0.34,5.14,2.0
1758075771.20019,1758075771.22192,0.0,0.0,0.0,-59.70221,-111.21111,-24.17882,16.8,-2.54,2.67,2.0
1758075771.21745,1758075771.23192,0.0,0.0,0.0,-54.14451,-98.20497,-23.26209,16.8,-2.54,2.67,2.0
1758075771.23394,1758075771.24192,0.0,0.0,0.0,-52.82671,-97.86119,-21.37133,12.51,-1.91,2.01,2.0
1758075771.23514,1758075771.25192,0.0,0.0,0.0,-51.90998,-104.22102,-20.62648,8.53,-0.42,1.33,2.0
1758075771.24995,1758075771.26192,0.0,0.0,0.0,-51.50891,-107.02851,-19.82434,8.53,-0.42,1.33,2.0
1758075771.25283,1758075771.27192,0.0,0.0,0.0,-52.54023,-96.42879,-16.73037,9.59,0.43,0.68,2.0
1758075771.27232,1758075771.28192,0.0,0.0,0.0,-56.78012,-68.75494,-15.58445,9.59,0.43,0.68,2.0
1758075771.27764,1758075771.29192,0.0,0.0,0.0,-62.16592,-41.88322,-14.61043,14.17,0.62,-0.19,2.0
1758075771.30621,1758075771.30192,0.0,0.0,0.0,-64.51505,-25.09555,-11.91752,14.17,0.62,-0.19,2.0
1758075771.30774,1758075771.31192,0.0,0.0,0.0,-64.11398,-8.25059,-11.17268,13.62,0.07,0.21,2.0
1758075771.31149,1758075771.32192,0.0,0.0,0.0,-61.70755,4.81285,-10.94349,12.0,-0.7,-0.23,2.0
1758075771.31243,1758075771.33192,0.0,0.0,0.0,-58.72818,19.88164,-10.71431,12.0,-0.7,-0.23,2.0
1758075771.33302,1758075771.34192,0.0,0.0,0.0,-54.3164,30.99702,-8.93814,11.54,-1.21,-0.53,2.0
1758075771.3341,1758075771.35192,0.0,0.0,0.0,-46.75336,47.44091,-5.55769,11.54,-1.21,-0.53,2.0
1758075771.34986,1758075771.36192,0.0,0.0,0.0,-41.71133,56.952,-3.55234,10.93,-1.52,-0.37,2.0
1758075771.35283,1758075771.37192,0.0,0.0,0.0,-37.12767,63.31184,-2.34913,10.93,-1.52,-0.37,2.0
1758075771.36978,1758075771.38192,0.0,0.0,0.0,-33.00237,69.55708,-2.00535,9.86,-1.35,-0.54,2.0
1758075771.37173,1758075771.39192,0.0,0.0,0.0,-29.67921,78.7817,-3.32316,9.65,-0.84,-0.31,2.0
1758075771.38741,1758075771.40192,0.0,0.0,0.0,-28.70519,80.67246,-4.58366,9.65,-0.84,-0.31,2.0
1758075771.40421,1758075771.41192,0.0,0.0,0.0,-28.41871,81.01624,-6.7609,9.09,-0.33,-0.45,2.0
1758075771.40514,1758075771.42192,0.0,0.0,0.0,-28.13223,79.92762,-9.96947,9.09,-0.33,-0.45,2.0
1758075771.42014,1758075771.43192,0.0,0.0,0.0,-27.50197,75.91692,-11.57375,8.82,-0.12,-0.25,2.0
1758075771.42148,1758075771.44192,0.0,0.0,0.0,-26.41335,72.42187,-12.49048,8.82,-0.12,-0.25,2.0
1758075771.43749,1758075771.45192,0.0,0.0,0.0,-24.92367,67.32255,-12.89155,8.38,-0.12,0.03,2.0
1758075771.45397,1758075771.46192,0.0,0.0,0.0,-21.7151,56.89471,-11.57375,8.38,-0.12,0.03,2.0
1758075771.45518,1758075771.47192,0.0,0.0,0.0,-19.13679,50.1911,-10.02676,7.75,-0.32,0.12,2.0
1758075771.47184,1758075771.48192,0.0,0.0,0.0,-16.95955,44.46153,-8.70896,7.63,-0.63,0.07,2.0
1758075771.47383,1758075771.49192,0.0,0.0,0.0,-14.83961,38.38818,-7.04738,7.63,-0.63,0.07,2.0
1758075771.48949,1758075771.50192,0.0,0.0,0.0,-11.74564,33.23156,-5.32851,7.83,-0.82,0.09,2.0
1758075771.49121,1758075771.51192,0.0,0.0,0.0,-9.68299,32.54401,-4.29718,7.83,-0.82,0.09,2.0
1758075771.50746,1758075771.52192,0.0,0.0,0.0,-7.44845,29.62192,-3.89611,8.35,-0.84,-0.04,2.0
1758075771.52419,1758075771.53192,0.0,0.0,0.0,-5.32851,25.72581,-3.95341,8.35,-0.84,-0.04,2.0
1758075771.52815,1758075771.54192,0.0,0.0,0.0,-2.00535,19.13679,-4.1253,8.35,-0.64,-0.05,2.0
1758075771.5445,1758075771.55192,0.0,0.0,0.0,0.85944,14.03747,-3.60963,8.34,-0.44,-0.37,2.0
1758075771.54739,1758075771.56192,0.0,0.0,0.0,3.72423,8.47978,-2.57831,8.34,-0.44,-0.37,2.0
1758075771.56227,1758075771.57192,0.0,0.0,0.0,6.13065,2.34913,-1.03132,8.24,-0.32,-0.55,2.0
1758075771.56454,1758075771.58192,0.0,0.0,0.0,7.96411,-14.49583,1.14592,8.24,-0.32,-0.55,2.0
1758075771.58014,1758075771.59192,0.0,0.0,0.0,7.50575,-23.31938,0.40107,8.1,-0.05,-0.6,2.0
1758075771.58126,1758075771.60192,0.0,0.0,0.0,6.53172,-18.22006,-2.00535,8.1,-0.05,-0.6,2.0
1758075771.59645,1758075771.61192,0.0,0.0,0.0,5.61499,-3.72423,-0.51566,10.45,0.29,-0.73,2.0
1758075771.6124,1758075771.62192,0.0,0.0,0.0,3.26586,15.29797,-1.43239,11.51,0.59,0.0,2.0
1758075771.61349,1758075771.63192,0.0,0.0,0.0,1.03132,27.96034,-3.26586,11.51,0.59,0.0,2.0
1758075771.62935,1758075771.64192,0.0,0.0,0.0,-0.74485,32.71589,-5.72958,11.35,0.84,0.49,2.0
1758075771.63264,1758075771.65192,0.0,0.0,0.0,-3.55234,32.48671,-12.2613,11.35,0.84,0.49,2.0
1758075771.65179,1758075771.66192,0.0,0.0,0.0,-4.1253,3.89611,-13.06344,9.31,0.82,-0.03,2.0
1758075771.65295,1758075771.67192,0.0,0.0,0.0,-1.94806,-13.5218,-14.66772,9.31,0.82,-0.03,2.0
1758075771.66859,1758075771.68192,0.0,0.0,0.0,-0.74485,-27.44468,-10.8862,7.69,0.05,-0.39,2.0
1758075771.67619,1758075771.69192,0.0,0.0,0.0,-3.32316,-24.80907,-8.02141,7.69,0.05,-0.39,2.0
1758075771.76104,1758075771.70192,0.0,0.0,0.0,-5.95876,-21.25674,-5.4431,10.25,-0.61,1.32,2.0
1758075771.76242,1758075771.71192,0.0,0.0,0.0,-7.96411,-31.85646,-1.94806,10.94,-0.39,3.82,2.0
1758075771.76524,1758075771.72192,0.0,0.0,0.0,-11.17268,-50.99325,3.20856,10.94,-0.39,3.82,2.0
1758075771.76589,1758075771.73192,0.0,0.0,0.0,-17.18874,-73.45319,13.34992,11.49,0.7,5.65,2.0
1758075771.76713,1758075771.74192,0.0,0.0,0.0,-19.88164,-80.27139,20.11082,11.49,0.7,5.65,2.0
1758075771.76811,1758075771.75192,0.0,0.0,0.0,-22.00158,-82.96429,26.41335,13.63,2.76,4.09,2.0
1758075771.76832,1758075771.76192,0.0,0.0,0.0,-23.60586,-79.01089,31.11161,13.63,2.76,4.09,2.0
1758075771.77172,1758075771.77192,0.0,0.0,0.0,-25.21014,-60.96271,29.50733,13.67,3.59,1.13,2.0
1758075771.77383,1758075771.78192,0.0,0.0,0.0,-24.35071,-53.17049,27.38738,10.82,1.43,0.4,2.0
1758075771.78032,1758075771.79192,0.0,0.0,0.0,-22.05888,-44.57612,24.23611,10.82,1.43,0.4,2.0
1758075771.7822,1758075771.80192,0.0,0.0,0.0,-17.36062,-34.37747,21.6578,9.84,-0.92,1.83,2.0
1758075771.79761,1758075771.81192,0.0,0.0,0.0,-7.10468,-19.88164,19.59516,9.84,-0.92,1.83,2.0
1758075771.80297,1758075771.82192,0.0,0.0,0.0,1.3178,-9.5684,19.25138,10.65,-1.79,2.21,2.0
1758075771.8205,1758075771.83192,0.0,0.0,0.0,9.68299,2.11994,19.76705,10.65,-1.79,2.21,2.0
1758075771.82295,1758075771.84192,0.0,0.0,0.0,17.30333,13.46451,20.68378,11.44,-1.22,1.16,2.0
1758075771.84037,1758075771.85192,0.0,0.0,0.0,25.21014,32.54401,20.97026,11.81,0.06,-0.01,2.0
1758075771.8428,1758075771.86192,0.0,0.0,0.0,27.73116,46.2377,20.79837,11.81,0.06,-0.01,2.0
1758075771.85996,1758075771.87192,0.0,0.0,0.0,27.73116,59.87409,18.90761,12.26,1.04,-0.07,2.0
1758075771.86283,1758075771.88192,0.0,0.0,0.0,25.89769,71.73432,16.84496,12.26,1.04,-0.07,2.0
1758075771.88003,1758075771.89192,0.0,0.0,0.0,24.23611,75.05748,16.73037,11.2,1.55,-0.28,2.0
1758075771.88207,1758075771.90192,0.0,0.0,0.0,22.11617,77.63579,15.98552,11.2,1.55,-0.28,2.0
1758075771.89747,1758075771.91192,0.0,0.0,0.0,21.02755,79.41196,16.38659,10.24,1.67,-0.32,2.0
1758075771.91449,1758075771.92192,0.0,0.0,0.0,19.70975,78.20874,15.64175,10.24,1.67,0.05,2.0
1758075771.9157,1758075771.93192,0.0,0.0,0.0,18.85031,75.80232,15.64175,9.56,1.56,0.05,2.0
1758075771.93151,1758075771.94192,0.0,0.0,0.0,17.76169,72.88023,15.29797,8.97,1.37,0.54,2.0
1758075771.93275,1758075771.95192,0.0,0.0,0.0,15.64175,69.95815,14.38124,8.97,1.37,0.54,2.0
1758075771.94779,1758075771.96192,0.0,0.0,0.0,11.63104,62.91077,12.89155,8.37,1.35,0.45,2.0
1758075771.96527,1758075771.97192,0.0,0.0,0.0,8.59437,57.75415,11.86023,8.37,1.35,0.45,2.0
1758075771.96647,1758075771.98192,0.0,0.0,0.0,5.61499,53.51426,10.65701,7.89,1.36,0.36,2.0
1758075771.98141,1758075771.99192,0.0,0.0,0.0,2.7502,49.33167,9.11003,7.89,1.36,0.36,2.0
1758075771.98272,1758075772.00192,0.0,0.0,0.0,-0.74485,40.39353,6.41713,7.8,1.24,0.5,2.0
1758075771.99779,1758075772.01192,0.0,0.0,0.0,-3.20856,34.95043,4.1253,7.41,1.07,0.59,2.0
1758075772.0156,1758075772.02192,0.0,0.0,0.0,-5.21392,32.25753,2.29183,7.41,1.07,0.59,2.0
1758075772.01656,1758075772.03192,0.0,0.0,0.0,-6.99009,30.48136,0.80214,7.61,0.86,0.38,2.0
1758075772.03174,1758075772.04192,0.0,0.0,0.0,-9.5684,25.8404,-0.0573,7.61,0.86,0.38,2.0
1758075772.03456,1758075772.05192,0.0,0.0,0.0,-11.17268,22.40265,-0.34377,7.21,0.77,0.27,2.0
1758075772.05151,1758075772.06192,0.0,0.0,0.0,-12.89155,17.99088,-0.51566,7.21,0.77,0.27,2.0
1758075772.05279,1758075772.07192,0.0,0.0,0.0,-15.41257,1.48969,0.17189,6.72,0.83,-0.07,2.0
1758075772.06778,1758075772.08192,0.0,0.0,0.0,-16.61578,-17.01685,1.43239,5.04,0.94,-0.59,2.0
1758075772.08435,1758075772.09192,0.0,0.0,0.0,-17.47521,-38.50277,3.32316,5.04,0.94,-0.59,2.0
1758075772.08556,1758075772.10192,0.0,0.0,0.0,-17.18874,-62.16592,4.1253,3.96,0.93,-1.16,2.0
1758075772.10051,1758075772.11192,0.0,0.0,0.0,-19.99623,-75.22936,5.27121,3.96,0.93,-1.16,2.0
1758075772.10172,1758075772.12192,0.0,0.0,0.0,-22.40265,-52.9986,0.74485,7.3,1.01,-0.41,2.0
1758075772.11685,1758075772.13192,0.0,0.0,0.0,-23.72045,-22.86102,0.85944,7.3,1.01,-0.41,2.0
1758075772.1329,1758075772.14192,0.0,0.0,0.0,-26.12688,-37.64333,-2.00535,11.11,0.84,1.25,2.0
1758075772.13378,1758075772.15192,0.0,0.0,0.0,-28.476,-74.08345,-4.52637,7.31,0.88,1.27,2.0
1758075772.14964,1758075772.16192,0.0,0.0,0.0,-32.20023,-81.99026,-6.99009,7.31,0.88,1.27,2.0
1758075772.15253,1758075772.17192,0.0,0.0,0.0,-36.15364,-77.63579,-7.21927,9.13,1.15,-0.18,2.0
1758075772.17269,1758075772.18192,0.0,0.0,0.0,-39.24761,-78.03686,-6.58902,9.13,1.15,-0.18,2.0
1758075772.17839,1758075772.19192,0.0,0.0,0.0,-37.52874,-102.61675,-5.50039,6.95,2.54,1.69,2.0
1758075772.19362,1758075772.20192,0.0,0.0,0.0,-33.00237,-137.96825,-7.96411,6.95,2.54,1.69,2.0
1758075772.1948,1758075772.21192,0.0,0.0,0.0,-30.30947,-159.28227,-17.58981,6.9,2.87,6.94,2.0
1758075772.20992,1758075772.22192,0.0,0.0,0.0,-27.96034,-170.16846,-33.68992,6.9,2.87,6.94,2.0
1758075772.21163,1758075772.23192,0.0,0.0,0.0,-26.52795,-160.02713,-54.25911,15.22,-0.99,7.6,2.0
1758075772.22787,1758075772.24192,0.0,0.0,0.0,-25.89769,-133.27,-60.90542,19.56,-3.45,2.89,2.0
1758075772.24492,1758075772.25192,0.0,0.0,0.0,-26.75713,-109.54953,-61.59297,19.56,-3.45,2.89,2.0
1758075772.24586,1758075772.26192,0.0,0.0,0.0,-29.27814,-97.7466,-53.45696,16.72,-1.48,-0.03,2.0
1758075772.26068,1758075772.27192,0.0,0.0,0.0,-32.48671,-97.86119,-44.28964,16.72,-1.48,-0.03,2.0
1758075772.26185,1758075772.28192,0.0,0.0,0.0,-34.95043,-97.86119,-34.32018,12.86,0.82,-0.19,2.0
1758075772.27692,1758075772.29192,0.0,0.0,0.0,-35.2369,-75.00018,-21.88699,12.86,0.82,-0.19,2.0
1758075772.29383,1758075772.30192,0.0,0.0,0.0,-40.85189,-21.88699,-10.48513,15.39,1.81,-1.53,2.0
1758075772.29793,1758075772.31192,0.0,0.0,0.0,-41.42485,-0.80214,-5.27121,15.88,1.83,-0.64,2.0
1758075772.31365,1758075772.32192,0.0,0.0,0.0,-41.02378,13.86558,-5.09932,15.88,1.83,-0.64,2.0
1758075772.31791,1758075772.33192,0.0,0.0,0.0,-38.27358,29.9084,-4.64096,13.1,0.73,-0.85,2.0
1758075772.33612,1758075772.34192,0.0,0.0,0.0,-33.68992,52.36834,-3.09397,13.1,0.73,-0.85,2.0
1758075772.34037,1758075772.35192,0.0,0.0,0.0,-31.2262,62.79618,-2.29183,12.02,-1.08,-1.94,2.0
1758075772.34092,1758075772.36192,0.0,0.0,0.0,-29.04896,72.07809,-1.66158,12.02,-1.08,-1.94,2.0
1758075772.35703,1758075772.37192,0.0,0.0,0.0,-27.2155,81.5319,-0.97403,10.72,-1.83,-1.79,2.0
1758075772.3731,1758075772.38192,0.0,0.0,0.0,-24.4653,94.07968,-0.17189,10.17,-1.15,-1.66,2.0
1758075772.37396,1758075772.39192,0.0,0.0,0.0,-22.57454,100.15303,0.11459,10.17,-1.15,-1.66,2.0
1758075772.38884,1758075772.40192,0.0,0.0,0.0,-20.97026,104.16373,-0.40107,9.67,-0.14,-1.28,2.0
1758075772.40515,1758075772.41192,0.0,0.0,0.0,-19.53786,104.50751,-1.14592,9.67,-0.14,-1.28,2.0
1758075772.40599,1758075772.42192,0.0,0.0,0.0,-18.33465,103.30429,-3.55234,9.27,0.52,-0.89,2.0
1758075772.42116,1758075772.43192,0.0,0.0,0.0,-17.18874,100.43951,-6.35983,9.27,0.52,-0.89,2.0
1758075772.42234,1758075772.44192,0.0,0.0,0.0,-16.21471,99.29359,-9.22462,9.1,0.72,-0.85,2.0
1758075772.43706,1758075772.45192,0.0,0.0,0.0,-14.83961,95.56937,-11.11538,9.1,0.72,-0.85,2.0
1758075772.45287,1758075772.46192,0.0,0.0,0.0,-13.34992,86.40204,-12.14671,8.24,0.31,-0.62,2.0
1758075772.45489,1758075772.47192,0.0,0.0,0.0,-11.74564,83.19347,-12.08941,7.12,-0.5,-0.49,2.0
1758075772.47091,1758075772.48192,0.0,0.0,0.0,-9.5684,81.87567,-11.86023,7.12,-0.5,-0.49,2.0
1758075772.47366,1758075772.49192,0.0,0.0,0.0,-5.90147,77.17742,-11.86023,6.7,-1.2,-0.79,2.0
1758075772.49177,1758075772.50192,0.0,0.0,0.0,-3.20856,70.87489,-12.08941,6.7,-1.2,-0.79,2.0
1758075772.49377,1758075772.51192,0.0,0.0,0.0,0.45837,62.16592,-11.80293,5.89,-1.46,-0.59,2.0
1758075772.50916,1758075772.52192,0.0,0.0,0.0,4.58366,49.27437,-10.54242,5.89,-1.46,-0.59,2.0
1758075772.52515,1758075772.53192,0.0,0.0,0.0,9.68299,18.73572,-7.39116,4.83,-1.36,-1.01,2.0
1758075772.52609,1758075772.54192,0.0,0.0,0.0,11.34457,-7.10468,-6.7609,3.54,-0.83,-0.71,2.0
1758075772.5411,1758075772.55192,0.0,0.0,0.0,12.204,-18.79302,-7.73493,3.54,-0.83,-0.71,2.0
1758075772.54245,1758075772.56192,0.0,0.0,0.0,12.77696,-10.48513,-3.03668,7.03,0.06,-0.92,2.0
1758075772.55701,1758075772.57192,0.0,0.0,0.0,11.51645,-11.86023,0.68755,7.03,0.06,-0.92,2.0
1758075772.57289,1758075772.58192,0.0,0.0,0.0,10.31324,-18.33465,4.52637,7.77,0.8,0.2,2.0
1758075772.57518,1758075772.59192,0.0,0.0,0.0,8.25059,-22.74642,5.72958,7.77,0.8,0.2,2.0
1758075772.58994,1758075772.60192,0.0,0.0,0.0,4.87014,-26.06958,4.69825,9.13,1.27,0.83,2.0
1758075772.59187,1758075772.61192,0.0,0.0,0.0,1.94806,-38.44547,0.45837,8.94,1.2,0.12,2.0
1758075772.61192,1758075772.62192,0.0,0.0,0.0,-0.17189,-54.3737,-2.6929,8.94,1.2,0.12,2.0
1758075772.6131,1758075772.63192,0.0,0.0,0.0,-3.72423,-75.40125,-5.78687,7.26,0.22,3.08,2.0
1758075772.62817,1758075772.64192,0.0,0.0,0.0,-9.74028,-102.27297,-6.7609,7.26,0.22,3.08,2.0
1758075772.63182,1758075772.65192,0.0,0.0,0.0,-18.85031,-165.64211,-2.40642,7.06,-0.45,11.1,2.0
1758075772.64725,1758075772.66192,0.0,0.0,0.0,-15.06879,-229.18312,25.7831,7.06,-0.45,11.1,2.0
1758075772.66301,1758075772.67192,0.0,0.0,0.0,-5.55769,-224.71405,46.98254,10.04,2.0,7.56,2.0
1758075772.66444,1758075772.68192,0.0,0.0,0.0,4.1253,-173.89268,59.24384,10.04,2.0,7.56,2.0
1758075772.6798,1758075772.69192,0.0,0.0,0.0,7.79223,-106.0545,49.21708,21.57,3.58,-3.04,2.0
1758075772.68096,1758075772.70192,0.0,0.0,0.0,13.17803,-93.27753,37.29956,15.01,1.63,0.07,2.0
1758075772.69702,1758075772.71192,0.0,0.0,0.0,22.11617,-87.60525,31.56997,15.01,1.63,0.07,2.0
1758075772.71381,1758075772.72192,0.0,0.0,0.0,34.60666,-51.85268,24.57989,15.84,-0.71,0.81,2.0
1758075772.71579,1758075772.73192,0.0,0.0,0.0,39.99245,-22.57454,19.59516,15.84,-0.71,0.81,2.0
1758075772.73105,1758075772.74192,0.0,0.0,0.0,42.85724,-2.6929,16.73037,16.34,-0.69,-2.07,2.0
1758075772.73218,1758075772.75192,0.0,0.0,0.0,43.94586,12.2613,16.10011,16.34,-0.69,-2.07,2.0
1758075772.74697,1758075772.76192,0.0,0.0,0.0,42.74266,45.03448,13.17803,14.4,0.19,-1.48,2.0
1758075772.76389,1758075772.77192,0.0,0.0,0.0,42.22699,77.57849,15.12609,14.57,1.02,-2.19,2.0
1758075772.76581,1758075772.78192,0.0,0.0,0.0,42.1124,100.32492,18.27736,14.57,1.02,-2.19,2.0
1758075772.7813,1758075772.79192,0.0,0.0,0.0,42.51347,110.69545,22.23076,11.94,1.54,-0.93,2.0
1758075772.78251,1758075772.80192,0.0,0.0,0.0,40.7373,118.2012,25.38203,11.94,1.54,-0.93,2.0
1758075772.79725,1758075772.81192,0.0,0.0,0.0,39.01843,128.34254,26.69983,10.11,1.88,-0.33,2.0
1758075772.81501,1758075772.82192,0.0,0.0,0.0,37.52874,131.43652,29.9084,10.11,1.88,-0.33,2.0
1758075772.81624,1758075772.83192,0.0,0.0,0.0,35.86716,118.71685,31.56997,9.27,1.86,-0.11,2.0
1758075772.83135,1758075772.84192,0.0,0.0,0.0,29.96569,110.23709,25.61122,8.47,1.35,0.23,2.0
1758075772.8325,1758075772.85192,0.0,0.0,0.0,25.49662,116.13856,20.74107,8.47,1.35,0.23,2.0
1758075772.84703,1758075772.86192,0.0,0.0,0.0,21.14215,117.11258,16.3293,9.21,1.33,0.07,2.0
1758075772.86416,1758075772.87192,0.0,0.0,0.0,16.95955,110.0652,12.77696,9.21,1.33,0.07,2.0
1758075772.86586,1758075772.88192,0.0,0.0,0.0,10.94349,98.43416,7.21927,7.3,1.26,0.5,2.0
1758075772.8814,1758075772.89192,0.0,0.0,0.0,7.21927,91.55866,3.66693,7.3,1.26,0.5,2.0
1758075772.88229,1758075772.90192,0.0,0.0,0.0,4.35448,83.82372,0.45837,7.0,1.23,0.56,2.0
1758075772.89716,1758075772.91192,0.0,0.0,0.0,1.71887,72.07809,-3.32316,7.0,1.23,0.56,2.0
1758075772.91607,1758075772.92192,0.0,0.0,0.0,0.51566,66.5204,-4.69825,6.21,1.19,0.22,2.0
1758075772.91785,1758075772.93192,0.0,0.0,0.0,-0.17189,60.38975,-4.46907,5.95,1.07,0.04,2.0
1758075772.93623,1758075772.94192,0.0,0.0,0.0,-0.80214,50.01921,-3.03668,5.95,1.07,0.04,2.0
1758075772.94056,1758075772.95192,0.0,0.0,0.0,-0.80214,25.61122,1.66158,4.86,0.82,-0.45,2.0
1758075772.95624,1758075772.96192,0.0,0.0,0.0,-1.08862,5.15662,5.90147,4.86,0.82,-0.45,2.0
1758075772.95946,1758075772.97192,0.0,0.0,0.0,-0.74485,-18.79302,10.37054,3.8,0.41,-0.99,2.0
1758075772.97598,1758075772.98192,0.0,0.0,0.0,-2.23454,-39.4195,16.84496,3.8,0.41,-0.99,2.0
1758075772.97882,1758075772.99192,0.0,0.0,0.0,-2.06265,-37.01308,18.33465,4.08,0.09,-1.22,2.0
1758075772.99528,1758075773.00192,0.0,0.0,0.0,-4.98473,-25.49662,15.87093,8.0,0.04,-0.01,2.0
1758075772.99782,1758075773.01192,0.0,0.0,0.0,-4.23989,-12.14671,17.99088,8.0,0.04,-0.01,2.0
1758075773.01451,1758075773.02192,0.0,0.0,0.0,-2.86479,-45.49285,16.04282,7.93,-0.08,1.86,2.0
1758075773.01571,1758075773.03192,0.0,0.0,0.0,-5.09932,-79.75573,11.17268,7.93,-0.08,1.86,2.0
1758075773.03128,1758075773.04192,0.0,0.0,0.0,-5.95876,-87.31877,5.90147,7.95,-0.3,0.37,2.0
1758075773.03217,1758075773.05192,0.0,0.0,0.0,-6.99009,-94.30885,0.45837,7.95,-0.3,0.37,2.0
1758075773.04712,1758075773.06192,0.0,0.0,0.0,-5.84417,-111.21111,-3.72423,8.17,0.76,1.6,2.0
1758075773.06338,1758075773.07192,0.0,0.0,0.0,-0.97403,-154.18295,-14.32395,7.54,1.92,7.24,2.0
1758075773.06636,1758075773.08192,0.0,0.0,0.0,1.94806,-179.56497,-25.89769,7.54,1.92,7.24,2.0
1758075773.08117,1758075773.09192,0.0,0.0,0.0,2.6929,-193.37328,-38.21629,12.85,0.9,8.3,2.0
1758075773.08246,1758075773.10192,0.0,0.0,0.0,-2.06265,-183.3465,-56.55093,12.85,0.9,8.3,2.0
1758075773.09757,1758075773.11192,0.0,0.0,0.0,-5.50039,-135.96289,-61.70755,18.21,0.62,2.93,2.0
1758075773.11332,1758075773.12192,0.0,0.0,0.0,-10.94349,-102.55945,-60.16057,18.21,0.62,2.93,2.0
1758075773.11616,1758075773.13192,0.0,0.0,0.0,-16.3293,-82.16215,-54.60288,18.19,1.98,-0.09,2.0
1758075773.13155,1758075773.14192,0.0,0.0,0.0,-24.86637,-76.54716,-41.13837,18.19,1.98,-0.09,2.0
1758075773.13246,1758075773.15192,0.0,0.0,0.0,-29.67921,-81.24542,-29.9084,12.95,3.14,-0.42,2.0
1758075773.14749,1758075773.16192,0.0,0.0,0.0,-33.51803,-81.64648,-19.25138,10.89,3.19,-0.97,2.0
1758075773.16328,1758075773.17192,0.0,0.0,0.0,-36.61201,-81.24542,-10.8862,10.89,3.19,-0.97,2.0
1758075773.1648,1758075773.18192,0.0,0.0,0.0,-38.56006,-79.69843,-4.92744,12.08,2.06,-0.5,2.0
1758075773.17946,1758075773.19192,0.0,0.0,0.0,-37.81522,-51.73809,-3.95341,12.08,2.06,-0.5,2.0
1758075773.19522,1758075773.20192,0.0,0.0,0.0,-40.50812,10.59972,-11.51645,16.52,1.13,-1.62,2.0
1758075773.19643,1758075773.21192,0.0,0.0,0.0,-41.94051,48.35764,-11.34457,16.52,1.13,-1.62,2.0
1758075773.21162,1758075773.22192,0.0,0.0,0.0,-44.57612,71.27596,-16.67307,15.77,0.19,-2.24,2.0
1758075773.2125,1758075773.23192,0.0,0.0,0.0,-42.85724,76.77635,-20.16812,10.43,-0.57,-0.97,2.0
1758075773.22735,1758075773.24192,0.0,0.0,0.0,-39.19032,80.55787,-21.6578,10.43,-0.57,-0.97,2.0
1758075773.24464,1758075773.25192,0.0,0.0,0.0,-34.72124,84.91235,-21.31403,11.41,-1.41,-1.96,2.0
1758075773.24634,1758075773.26192,0.0,0.0,0.0,-29.22085,90.58463,-19.19409,11.41,-1.41,-1.96,2.0
1758075773.26131,1758075773.27192,0.0,0.0,0.0,-25.15285,94.36616,-16.67307,11.98,-1.62,-1.22,2.0
1758075773.26258,1758075773.28192,0.0,0.0,0.0,-18.62113,100.78329,-11.74564,11.98,-1.62,-1.22,2.0
1758075773.27733,1758075773.29192,0.0,0.0,0.0,-10.8862,106.79934,-4.18259,11.0,-0.09,-1.17,2.0
1758075773.29372,1758075773.30192,0.0,0.0,0.0,-1.03132,107.60149,6.24524,8.84,1.13,0.56,2.0
1758075773.29541,1758075773.31192,0.0,0.0,0.0,2.00535,103.07512,10.71431,8.84,1.13,0.56,2.0
1758075773.31109,1758075773.32192,0.0,0.0,0.0,2.7502,97.05905,13.75099,7.57,0.48,-0.37,2.0
1758075773.31231,1758075773.33192,0.0,0.0,0.0,0.68755,87.89172,15.0115,7.57,0.48,-0.37,2.0
1758075773.32867,1758075773.34192,0.0,0.0,0.0,-0.80214,81.18813,14.43854,7.5,-0.17,-0.5,2.0
1758075773.33361,1758075773.35192,0.0,0.0,0.0,-1.43239,74.14074,13.5791,7.5,-0.17,-0.5,2.0
1758075773.35003,1758075773.36192,0.0,0.0,0.0,-1.3751,72.0208,10.94349,7.19,-0.62,-0.5,2.0
1758075773.35197,1758075773.37192,0.0,0.0,0.0,0.57296,73.91156,6.41713,7.19,-0.62,-0.5,2.0
1758075773.36743,1758075773.38192,0.0,0.0,0.0,3.55234,72.30728,3.66693,7.49,-0.83,-0.5,2.0
1758075773.38376,1758075773.39192,0.0,0.0,0.0,7.73493,65.08801,0.57296,6.4,-0.87,-0.59,2.0
1758075773.38704,1758075773.40192,0.0,0.0,0.0,11.86023,56.60823,-1.48969,6.4,-0.87,-0.59,2.0
1758075773.40246,1758075773.41192,0.0,0.0,0.0,18.22006,39.07573,-2.7502,5.46,-0.8,-0.23,2.0
1758075773.40604,1758075773.42192,0.0,0.0,0.0,22.11617,21.02755,-1.94806,5.46,-0.8,-0.23,2.0
1758075773.42159,1758075773.43192,0.0,0.0,0.0,24.63719,-0.57296,-1.3751,4.18,-0.59,-1.04,2.0
1758075773.42298,1758075773.44192,0.0,0.0,0.0,25.89769,-15.98552,-1.20321,4.18,-0.59,-1.04,2.0
1758075773.43745,1758075773.45192,0.0,0.0,0.0,26.06958,-9.11003,-0.97403,4.97,0.04,-1.05,2.0
1758075773.45343,1758075773.46192,0.0,0.0,0.0,26.47065,-5.78687,1.3751,7.57,0.56,-0.63,2.0
1758075773.45738,1758075773.47192,0.0,0.0,0.0,26.75713,-9.33921,3.60963,7.57,0.56,-0.63,2.0
1758075773.47256,1758075773.48192,0.0,0.0,0.0,26.69983,-15.0115,5.09932,6.97,0.87,-0.11,2.0
1758075773.47695,1758075773.49192,0.0,0.0,0.0,25.38203,-26.24147,3.49504,6.97,0.87,-0.11,2.0
1758075773.49276,1758075773.50192,0.0,0.0,0.0,23.60586,-42.22699,0.51566,7.08,0.77,1.04,2.0
1758075773.49614,1758075773.51192,0.0,0.0,0.0,19.25138,-67.43713,-2.86479,7.08,0.77,1.04,2.0
1758075773.51178,1758075773.52192,0.0,0.0,0.0,10.65701,-101.58542,-2.86479,5.65,-0.2,7.46,2.0
1758075773.51272,1758075773.53192,0.0,0.0,0.0,6.07335,-184.32054,11.63104,8.04,1.35,15.26,2.0
1758075773.5278,1758075773.54192,0.0,0.0,0.0,9.39651,-215.03107,37.58603,8.04,1.35,15.26,2.0
1758075773.54481,1758075773.55192,0.0,0.0,0.0,16.21471,-190.2793,54.3164,16.12,4.95,-2.35,2.0
1758075773.54652,1758075773.56192,0.0,0.0,0.0,15.64175,-112.01324,54.71747,16.12,4.95,-2.35,2.0
1758075773.56177,1758075773.57192,0.0,0.0,0.0,15.87093,-96.4861,45.26366,17.86,2.92,-1.51,2.0
1758075773.56273,1758075773.58192,0.0,0.0,0.0,22.28806,-84.11021,34.0337,17.86,2.92,-1.51,2.0
1758075773.57947,1758075773.59192,0.0,0.0,0.0,31.45539,-68.69764,27.61657,14.79,-0.35,2.32,2.0
1758075773.59627,1758075773.60192,0.0,0.0,0.0,43.77398,-42.57077,22.40265,18.43,-0.35,2.65,2.0
1758075773.59748,1758075773.61192,0.0,0.0,0.0,49.15978,-32.42941,21.48592,18.43,-0.75,2.65,2.0
1758075773.61289,1758075773.62192,0.0,0.0,0.0,52.19646,-20.74107,21.94428,16.52,0.2,-0.93,2.0
1758075773.61378,1758075773.63192,0.0,0.0,0.0,51.73809,-5.78687,20.79837,16.52,0.2,-0.93,2.0
1758075773.62856,1758075773.64192,0.0,0.0,0.0,48.52953,35.12231,18.22006,15.33,1.12,-1.9,2.0
1758075773.64565,1758075773.65192,0.0,0.0,0.0,48.24305,66.00475,20.45459,15.33,1.12,-1.9,2.0
1758075773.64658,1758075773.66192,0.0,0.0,0.0,47.61279,83.88103,21.6578,14.73,1.68,-1.37,2.0
1758075773.66192,1758075773.67192,0.0,0.0,0.0,47.09713,94.88181,23.20479,14.73,1.68,-1.37,2.0
1758075773.66363,1758075773.68192,0.0,0.0,0.0,43.60209,112.12785,21.08485,11.88,1.93,-0.03,2.0
1758075773.67891,1758075773.69192,0.0,0.0,0.0,40.04975,116.9407,18.90761,11.23,1.91,-0.41,2.0
1758075773.69568,1758075773.70192,0.0,0.0,0.0,37.01308,117.11258,18.73572,11.23,1.91,-0.41,2.0
1758075773.69664,1758075773.71192,0.0,0.0,0.0,33.68992,116.08125,17.47521,10.22,1.46,-0.3,2.0
1758075773.71175,1758075773.72192,0.0,0.0,0.0,29.9084,117.22717,16.272,10.22,1.46,-0.3,2.0
1758075773.71283,1758075773.73192,0.0,0.0,0.0,27.38738,116.71152,14.66772,10.03,1.1,0.06,2.0
1758075773.73194,1758075773.74192,0.0,0.0,0.0,24.92367,114.0759,12.60507,10.03,1.1,0.06,2.0
1758075773.73365,1758075773.75192,0.0,0.0,0.0,20.68378,107.25771,8.88085,8.96,1.12,0.16,2.0
1758075773.7495,1758075773.76192,0.0,0.0,0.0,17.58981,102.33027,6.07335,8.1,1.32,0.31,2.0
1758075773.75222,1758075773.77192,0.0,0.0,0.0,14.38124,97.28824,3.55234,8.1,1.32,0.31,2.0
1758075773.76875,1758075773.78192,0.0,0.0,0.0,11.22997,91.50137,0.51566,7.37,1.53,0.13,2.0
1758075773.77214,1758075773.79192,0.0,0.0,0.0,6.41713,82.67782,-3.95341,7.37,1.53,0.13,2.0
1758075773.79195,1758075773.80192,0.0,0.0,0.0,3.66693,78.03686,-5.78687,6.62,1.57,-0.07,2.0
1758075773.79318,1758075773.81192,0.0,0.0,0.0,1.08862,73.16672,-7.10468,6.62,1.57,-0.07,2.0
1758075773.81186,1758075773.82192,0.0,0.0,0.0,-1.3751,66.29122,-7.44845,6.01,1.45,-0.28,2.0
1758075773.81468,1758075773.83192,0.0,0.0,0.0,-4.69825,47.72739,-5.15662,4.87,1.31,-0.48,2.0
1758075773.83208,1758075773.84192,0.0,0.0,0.0,-7.04738,28.59059,-2.34913,4.87,1.31,-0.48,2.0
1758075773.83403,1758075773.85192,0.0,0.0,0.0,-8.70896,3.09397,1.60428,3.04,1.12,-0.91,2.0
1758075773.84984,1758075773.86192,0.0,0.0,0.0,-9.62569,-26.18417,5.78687,3.04,1.12,-0.91,2.0
1758075773.85278,1758075773.87192,0.0,0.0,0.0,-11.63104,-55.51962,12.89155,2.11,0.91,-1.35,2.0
1758075773.86937,1758075773.88192,0.0,0.0,0.0,-10.8289,-43.31561,9.91217,2.11,0.91,-1.35,2.0
1758075773.87246,1758075773.89192,0.0,0.0,0.0,-13.69369,-19.70975,9.4538,6.83,0.59,-0.16,2.0
1758075773.88883,1758075773.90192,0.0,0.0,0.0,-12.08941,-21.94428,12.2613,6.83,0.59,-0.16,2.0
1758075773.89698,1758075773.91192,0.0,0.0,0.0,-12.204,-69.49979,7.04738,6.84,0.36,1.71,2.0
1758075773.91177,1758075773.92192,0.0,0.0,0.0,-12.89155,-81.36001,5.61499,6.81,-0.13,0.97,2.0
1758075773.91702,1758075773.93192,0.0,0.0,0.0,-12.54778,-81.87567,3.55234,6.81,-0.13,0.97,2.0
1758075773.9319,1758075773.94192,0.0,0.0,0.0,-8.42248,-93.79319,1.08862,8.14,0.37,1.98,2.0
1758075773.93572,1758075773.95192,0.0,0.0,0.0,-3.03668,-147.36475,-3.72423,8.14,0.37,1.98,2.0
1758075773.95192,1758075773.96192,0.0,0.0,0.0,2.46372,-180.19524,-15.35527,6.86,0.89,8.55,2.0
1758075773.95324,1758075773.97192,0.0,0.0,0.0,5.32851,-200.76442,-30.53865,6.86,0.89,8.55,2.0
1758075773.97218,1758075773.98192,0.0,0.0,0.0,6.53172,-184.43513,-47.32632,13.43,-0.91,7.63,2.0
1758075773.97389,1758075773.99192,0.0,0.0,0.0,6.24524,-152.86516,-53.45696,18.75,-0.73,3.64,2.0
1758075773.98884,1758075774.00192,0.0,0.0,0.0,3.55234,-119.11793,-55.11855,18.75,-0.73,3.64,2.0
1758075773.99163,1758075774.01192,0.0,0.0,0.0,-0.97403,-93.6786,-54.3164,17.25,1.2,1.04,2.0
1758075774.00814,1758075774.02192,0.0,0.0,0.0,-7.96411,-89.15224,-48.07116,17.25,1.2,1.04,2.0
1758075774.0098,1758075774.03192,0.0,0.0,0.0,-12.77696,-100.89787,-42.34158,12.47,2.66,0.78,2.0
1758075774.02694,1758075774.04192,0.0,0.0,0.0,-16.95955,-110.29437,-35.52338,12.47,2.66,0.78,2.0
1758075774.04282,1758075774.05192,0.0,0.0,0.0,-19.36597,-114.99265,-28.59059,11.76,2.91,-0.49,2.0
1758075774.04481,1758075774.06192,0.0,0.0,0.0,-22.23076,-99.35089,-18.16276,15.27,1.69,-0.7,2.0
1758075774.05988,1758075774.07192,0.0,0.0,0.0,-25.21014,-39.87786,-19.59516,15.27,1.69,-0.7,2.0
1758075774.06109,1758075774.08192,0.0,0.0,0.0,-28.41871,5.61499,-18.22006,19.82,0.76,-2.31,2.0
1758075774.07722,1758075774.09192,0.0,0.0,0.0,-29.96569,27.44468,-17.18874,19.82,0.76,-2.31,2.0
1758075774.09294,1758075774.10192,0.0,0.0,0.0,-29.8511,38.90384,-19.70975,11.79,-0.12,-0.3,2.0
1758075774.09564,1758075774.11192,0.0,0.0,0.0,-27.2155,49.04519,-19.88164,11.79,-0.12,-0.3,2.0
1758075774.11201,1758075774.12192,0.0,0.0,0.0,-24.5226,63.25455,-19.70975,11.26,-1.19,-1.92,2.0
1758075774.11289,1758075774.13192,0.0,0.0,0.0,-21.94428,73.73967,-17.24603,11.26,-1.19,-1.92,2.0
1758075774.1282,1758075774.14192,0.0,0.0,0.0,-15.24068,83.30807,-14.78231,11.68,-1.86,-2.0,2.0
1758075774.14391,1758075774.15192,0.0,0.0,0.0,-6.99009,92.36081,-10.37054,10.36,-0.25,-1.33,2.0
1758075774.14584,1758075774.16192,0.0,0.0,0.0,1.08862,101.06976,-5.95876,10.36,-0.25,-1.33,2.0
1758075774.16171,1758075774.17192,0.0,0.0,0.0,9.96947,107.71607,0.34377,8.74,1.05,-0.09,2.0
1758075774.16387,1758075774.18192,0.0,0.0,0.0,11.91752,108.6901,3.03668,8.74,1.05,-0.09,2.0
1758075774.18081,1758075774.19192,0.0,0.0,0.0,11.63104,105.9972,4.87014,7.73,0.69,-0.55,2.0
1758075774.18177,1758075774.20192,0.0,0.0,0.0,10.31324,102.04379,5.21392,7.73,0.69,-0.55,2.0
1758075774.19982,1758075774.21192,0.0,0.0,0.0,7.62034,95.1683,4.35448,7.68,0.31,-0.57,2.0
1758075774.20085,1758075774.22192,0.0,0.0,0.0,6.53172,91.44406,3.20856,7.84,-0.01,-0.4,2.0
1758075774.21656,1758075774.23192,0.0,0.0,0.0,6.47442,87.37608,2.86479,7.84,-0.01,-0.4,2.0
1758075774.23227,1758075774.24192,0.0,0.0,0.0,7.44845,84.11021,2.57831,7.2,-0.5,-0.28,2.0
1758075774.23318,1758075774.25192,0.0,0.0,0.0,10.54242,79.29736,3.49504,7.2,-0.5,-0.28,2.0
1758075774.24852,1758075774.26192,0.0,0.0,0.0,13.5791,75.22936,4.1253,6.31,-1.04,-0.22,2.0
1758075774.24998,1758075774.27192,0.0,0.0,0.0,17.13144,68.58305,5.32851,6.31,-1.04,-0.22,2.0
1758075774.26744,1758075774.28192,0.0,0.0,0.0,20.68378,58.49899,6.53172,5.32,-1.39,-0.33,2.0
1758075774.2841,1758075774.29192,0.0,0.0,0.0,26.06958,35.2369,8.70896,4.33,-1.36,-0.43,2.0
1758075774.28499,1758075774.30192,0.0,0.0,0.0,28.41871,11.11538,9.68299,4.33,-1.36,-0.43,2.0
1758075774.30011,1758075774.31192,0.0,0.0,0.0,29.96569,-9.5684,9.39651,3.82,-0.77,-0.71,2.0
1758075774.30121,1758075774.32192,0.0,0.0,0.0,29.56462,-9.11003,8.25059,3.82,-0.77,-0.71,2.0
1758075774.31768,1758075774.33192,0.0,0.0,0.0,30.36677,-1.08862,12.54778,7.6,0.2,-0.69,2.0
1758075774.33381,1758075774.34192,0.0,0.0,0.0,29.62192,-0.22918,16.55848,7.6,0.2,-0.69,2.0
1758075774.33508,1758075774.35192,0.0,0.0,0.0,27.61657,-1.48969,17.53251,7.97,1.24,0.25,2.0
1758075774.35005,1758075774.36192,0.0,0.0,0.0,24.17882,-6.18794,15.64175,7.97,1.24,0.25,2.0
1758075774.35208,1758075774.37192,0.0,0.0,0.0,22.86102,-24.86637,12.37589,8.25,1.94,0.7,2.0
1758075774.36743,1758075774.38192,0.0,0.0,0.0,21.14215,-39.53409,7.21927,6.27,1.6,0.13,2.0
1758075774.38434,1758075774.39192,0.0,0.0,0.0,20.34,-65.66096,2.29183,6.27,1.6,0.13,2.0
1758075774.38762,1758075774.40192,0.0,0.0,0.0,17.53251,-118.02931,-0.97403,3.05,0.24,3.77,2.0
1758075774.40423,1758075774.41192,0.0,0.0,0.0,14.20935,-165.47021,0.68755,3.05,0.24,3.77,2.0
1758075774.40513,1758075774.42192,0.0,0.0,0.0,15.92823,-227.63615,13.98017,2.98,-1.23,12.78,2.0
1758075774.42119,1758075774.43192,0.0,0.0,0.0,22.23076,-249.06476,41.36755,2.98,-1.23,12.78,2.0
1758075774.42255,1758075774.44192,0.0,0.0,0.0,26.01229,-145.93236,55.40502,16.38,1.64,5.21,2.0
1758075774.43715,1758075774.45192,0.0,0.0,0.0,25.61122,-88.98035,49.84733,26.79,3.89,-3.88,2.0
1758075774.45437,1758075774.46192,0.0,0.0,0.0,26.81443,-62.85347,38.84654,26.79,3.89,-3.88,2.0
1758075774.45835,1758075774.47192,0.0,0.0,0.0,34.72124,-51.5662,34.72124,18.35,0.99,0.8,2.0
1758075774.47426,1758075774.48192,0.0,0.0,0.0,41.48215,-36.49741,25.89769,18.35,0.99,0.8,2.0
1758075774.47755,1758075774.49192,0.0,0.0,0.0,45.14908,-22.68913,19.88164,16.92,-0.12,1.52,2.0
1758075774.49399,1758075774.50192,0.0,0.0,0.0,46.46688,-12.60507,16.10011,16.92,-0.12,1.52,2.0
1758075774.49747,1758075774.51192,0.0,0.0,0.0,48.07116,-0.80214,16.10011,15.79,0.62,0.04,2.0
1758075774.51341,1758075774.52192,0.0,0.0,0.0,46.1231,14.20935,12.54778,14.82,1.35,-0.44,2.0
1758075774.51435,1758075774.53192,0.0,0.0,0.0,44.40423,57.63955,10.48513,14.82,1.35,-0.44,2.0
1758075774.52923,1758075774.54192,0.0,0.0,0.0,47.03984,87.08958,16.04282,16.1,1.45,-1.51,2.0
1758075774.53145,1758075774.55192,0.0,0.0,0.0,48.12846,100.89787,21.02755,16.1,1.45,-1.51,2.0
1758075774.54748,1758075774.56192,0.0,0.0,0.0,46.35228,108.46091,21.94428,11.78,1.41,0.77,2.0
1758075774.56414,1758075774.57192,0.0,0.0,0.0,43.4875,113.21647,21.7151,11.78,1.41,0.77,2.0
1758075774.56611,1758075774.58192,0.0,0.0,0.0,39.70598,116.88341,20.45459,11.0,1.54,0.02,2.0
1758075774.58123,1758075774.59192,0.0,0.0,0.0,34.49206,113.38836,18.33465,11.0,1.54,0.02,2.0
1758075774.58275,1758075774.60192,0.0,0.0,0.0,31.11161,114.01861,15.87093,9.96,1.44,0.16,2.0
1758075774.59742,1758075774.61192,0.0,0.0,0.0,27.38738,114.70615,12.49048,9.6,1.23,0.37,2.0
1758075774.61424,1758075774.62192,0.0,0.0,0.0,24.35071,110.40897,9.96947,9.6,1.23,0.37,2.0
1758075774.61544,1758075774.63192,0.0,0.0,0.0,20.3973,100.43951,6.41713,8.12,1.27,0.42,2.0
1758075774.63128,1758075774.64192,0.0,0.0,0.0,18.10547,93.62132,4.23989,8.12,1.27,0.42,2.0
1758075774.63222,1758075774.65192,0.0,0.0,0.0,16.3293,86.34474,2.57831,7.52,1.39,0.77,2.0
1758075774.64738,1758075774.66192,0.0,0.0,0.0,14.78231,77.80767,1.03132,7.52,1.39,0.77,2.0
1758075774.65189,1758075774.67192,0.0,0.0,0.0,12.37589,63.94209,-0.80214,7.0,1.43,0.6,2.0
1758075774.66754,1758075774.68192,0.0,0.0,0.0,10.71431,56.952,-1.94806,6.63,1.3,0.25,2.0
1758075774.68348,1758075774.69192,0.0,0.0,0.0,9.39651,51.73809,-2.46372,6.63,1.3,0.25,2.0
1758075774.68607,1758075774.70192,0.0,0.0,0.0,7.84952,47.72739,-1.94806,6.47,1.09,-0.21,2.0
1758075774.70156,1758075774.71192,0.0,0.0,0.0,5.32851,40.39353,-0.51566,6.47,1.09,-0.21,2.0
1758075774.70245,1758075774.72192,0.0,0.0,0.0,3.32316,30.19488,0.40107,5.67,0.92,-0.11,2.0
1758075774.71757,1758075774.73192,0.0,0.0,0.0,1.3178,11.63104,1.83346,5.67,0.92,-0.11,2.0
1758075774.73334,1758075774.74192,0.0,0.0,0.0,0.45837,-15.87093,4.46907,3.39,0.87,-0.19,2.0
1758075774.73449,1758075774.75192,0.0,0.0,0.0,0.17189,-62.5097,8.88085,1.58,0.63,-1.14,2.0
1758075774.74935,1758075774.76192,0.0,0.0,0.0,0.17189,-80.90164,12.08941,1.58,0.63,-1.14,2.0
1758075774.75055,1758075774.77192,0.0,0.0,0.0,1.03132,-69.04142,9.4538,5.56,0.53,-0.54,2.0
1758075774.76658,1758075774.78192,0.0,0.0,0.0,-3.38045,-33.46074,7.62034,5.56,0.53,-0.54,2.0
1758075774.78254,1758075774.79192,0.0,0.0,0.0,-1.20321,-34.95043,7.73493,9.67,0.43,1.18,2.0
1758075774.7843,1758075774.80192,0.0,0.0,0.0,-1.94806,-61.07731,5.21392,9.67,0.43,1.18,2.0
1758075774.8001,1758075774.81192,0.0,0.0,0.0,-1.83346,-77.63579,3.83882,6.64,0.49,1.71,2.0
1758075774.80136,1758075774.82192,0.0,0.0,0.0,-4.69825,-76.31798,1.71887,6.64,0.49,1.71,2.0
1758075774.81661,1758075774.83192,0.0,0.0,0.0,-6.07335,-80.95895,2.11994,9.02,0.51,-0.63,2.0
1758075774.83234,1758075774.84192,0.0,0.0,0.0,-5.09932,-100.95516,2.86479,6.87,1.58,1.66,2.0
1758075774.83753,1758075774.85192,0.0,0.0,0.0,-1.83346,-130.23331,3.95341,6.87,1.58,1.66,2.0
1758075774.85258,1758075774.86192,0.0,0.0,0.0,2.57831,-170.62685,-4.0107,7.48,2.13,6.5,2.0
1758075774.85435,1758075774.87192,0.0,0.0,0.0,2.46372,-199.84769,-19.07949,7.48,2.13,6.5,2.0
1758075774.86942,1758075774.88192,0.0,0.0,0.0,1.3178,-209.2442,-36.32552,12.25,0.12,8.75,2.0
1758075774.87213,1758075774.89192,0.0,0.0,0.0,-0.34377,-183.2319,-49.21708,12.25,0.12,8.75,2.0
1758075774.89241,1758075774.90192,0.0,0.0,0.0,-1.3178,-129.83224,-54.08722,19.92,-1.74,2.74,2.0
1758075774.89552,1758075774.91192,0.0,0.0,0.0,-3.83882,-111.15382,-51.27972,19.07,-0.35,0.04,2.0
1758075774.91147,1758075774.92192,0.0,0.0,0.0,-7.21927,-103.1324,-46.46688,19.07,-0.35,0.04,2.0
1758075774.91243,1758075774.93192,0.0,0.0,0.0,-10.48513,-98.77792,-39.24761,14.25,1.44,-0.32,2.0
1758075774.93173,1758075774.94192,0.0,0.0,0.0,-14.03747,-95.22559,-28.36141,14.25,1.44,-0.32,2.0
1758075774.93342,1758075774.95192,0.0,0.0,0.0,-16.272,-89.15224,-21.25674,12.39,1.83,-1.43,2.0
1758075774.95172,1758075774.96192,0.0,0.0,0.0,-17.53251,-63.42643,-15.46986,12.39,1.83,-1.43,2.0
1758075774.95288,1758075774.97192,0.0,0.0,0.0,-20.45459,-21.7724,-15.64175,15.5,1.15,-1.32,2.0
1758075774.9677,1758075774.98192,0.0,0.0,0.0,-22.91831,22.63183,-16.04282,15.44,0.27,-1.45,2.0
1758075774.97183,1758075774.99192,0.0,0.0,0.0,-22.57454,38.56006,-18.33465,15.44,0.27,-1.45,2.0
1758075774.99177,1758075775.00192,0.0,0.0,0.0,-20.45459,52.08187,-19.70975,11.46,-0.45,-1.59,2.0
1758075774.99428,1758075775.01192,0.0,0.0,0.0,-16.10011,69.38519,-20.22541,11.46,-0.45,-1.59,2.0
1758075775.01213,1758075775.02192,0.0,0.0,0.0,-12.89155,77.92226,-19.70975,10.95,-1.29,-1.63,2.0
1758075775.0414,1758075775.03192,0.0,0.0,0.0,-9.96947,86.11556,-19.25138,10.95,-1.29,-1.63,2.0
1758075775.04188,1758075775.04192,0.0,0.0,0.0,-7.10468,93.7359,-18.16276,10.85,-1.29,-1.36,2.0
1758075775.04416,1758075775.05192,0.0,0.0,0.0,-3.38045,104.90858,-15.29797,10.44,-1.29,-1.51,2.0
1758075775.04682,1758075775.06192,0.0,0.0,0.0,-1.48969,108.97658,-12.43318,10.44,-0.68,-1.51,2.0
1758075775.05047,1758075775.07192,0.0,0.0,0.0,-0.34377,110.86734,-10.08406,9.46,-0.04,-1.11,2.0
1758075775.0675,1758075775.08192,0.0,0.0,0.0,0.74485,110.1225,-7.67763,9.46,-0.04,-1.11,2.0
1758075775.08482,1758075775.09192,0.0,0.0,0.0,1.66158,105.9972,-5.72958,8.66,0.23,-0.72,2.0
1758075775.08656,1758075775.10192,0.0,0.0,0.0,2.06265,101.92919,-5.15662,8.66,0.23,-0.72,2.0
1758075775.10141,1758075775.11192,0.0,0.0,0.0,2.63561,97.28824,-5.09932,8.19,0.19,-0.42,2.0
1758075775.10344,1758075775.12192,0.0,0.0,0.0,3.09397,91.043,-5.84417,8.19,0.19,-0.42,2.0
1758075775.11935,1758075775.13192,0.0,0.0,0.0,4.87014,78.7244,-7.33386,7.6,0.0,-0.13,2.0
1758075775.12053,1758075775.14192,0.0,0.0,0.0,6.8182,72.13539,-7.79223,6.93,-0.31,-0.14,2.0
1758075775.13683,1758075775.15192,0.0,0.0,0.0,8.70896,69.61437,-8.99544,6.93,-0.31,-0.14,2.0
1758075775.15362,1758075775.16192,0.0,0.0,0.0,10.37054,66.34852,-10.25595,6.89,-0.57,-0.42,2.0
1758075775.15892,1758075775.17192,0.0,0.0,0.0,13.69369,57.58226,-11.45916,6.89,-0.57,-0.42,2.0
1758075775.17362,1758075775.18192,0.0,0.0,0.0,16.272,47.61279,-11.45916,6.14,-0.61,0.15,2.0
1758075775.17527,1758075775.19192,0.0,0.0,0.0,19.07949,34.37747,-10.8289,6.14,-0.61,0.15,2.0
1758075775.18984,1758075775.20192,0.0,0.0,0.0,22.63183,11.97482,-8.76626,5.35,-0.46,-0.3,2.0
1758075775.19151,1758075775.21192,0.0,0.0,0.0,24.00693,-7.39116,-6.35983,5.32,-0.2,-0.58,2.0
1758075775.20756,1758075775.22192,0.0,0.0,0.0,23.89234,-26.12688,-4.87014,5.32,-0.2,-0.58,2.0
1758075775.22484,1758075775.23192,0.0,0.0,0.0,22.34536,-31.97105,-5.72958,6.92,0.49,-1.01,2.0
1758075775.22739,1758075775.24192,0.0,0.0,0.0,20.62648,-15.98552,-0.40107,6.92,0.49,-1.01,2.0
1758075775.24263,1758075775.25192,0.0,0.0,0.0,18.62113,-13.12073,1.08862,9.96,1.15,-0.56,2.0
1758075775.2438,1758075775.26192,0.0,0.0,0.0,16.73037,-13.5218,3.95341,9.96,1.15,-0.56,2.0
1758075775.25862,1758075775.27192,0.0,0.0,0.0,13.5218,-11.97482,2.6929,9.65,1.46,-0.21,2.0
1758075775.26064,1758075775.28192,0.0,0.0,0.0,10.48513,-15.24068,0.17189,9.7,1.57,-0.5,2.0
1758075775.27668,1758075775.29192,0.0,0.0,0.0,8.25059,-22.97561,-2.46372,9.7,1.57,-0.5,2.0
1758075775.2929,1758075775.30192,0.0,0.0,0.0,4.98473,-36.61201,-4.98473,8.06,0.9,0.05,2.0
1758075775.29385,1758075775.31192,0.0,0.0,0.0,1.3751,-52.13916,-6.99009,8.06,0.9,0.05,2.0
1758075775.30965,1758075775.32192,0.0,0.0,0.0,-5.55769,-75.91692,-5.61499,7.64,-0.1,4.0,2.0
1758075775.31158,1758075775.33192,0.0,0.0,0.0,-9.62569,-94.88181,-0.34377,7.64,-0.1,4.0,2.0
1758075775.33296,1758075775.34192,0.0,0.0,0.0,-10.59972,-127.36852,9.96947,9.35,0.1,10.26,2.0
1758075775.33399,1758075775.35192,0.0,0.0,0.0,-5.4431,-170.97063,30.25217,9.35,0.1,10.26,2.0
1758075775.34861,1758075775.36192,0.0,0.0,0.0,11.97482,-167.36098,55.34772,11.1,2.54,4.92,2.0
1758075775.3522,1758075775.37192,0.0,0.0,0.0,16.61578,-127.36852,54.02992,18.19,2.11,-1.56,2.0
1758075775.36895,1758075775.38192,0.0,0.0,0.0,21.25674,-103.76266,45.77933,18.19,2.11,-1.56,2.0
1758075775.38498,1758075775.39192,0.0,0.0,0.0,26.24147,-85.71449,25.55392,16.11,0.52,0.84,2.0
1758075775.38694,1758075775.40192,0.0,0.0,0.0,28.76248,-59.18654,14.43854,16.11,0.52,0.84,2.0
1758075775.40179,1758075775.41192,0.0,0.0,0.0,30.59595,-42.34158,7.33386,15.9,-0.38,0.84,2.0
1758075775.40374,1758075775.42192,0.0,0.0,0.0,32.48671,-27.50197,6.07335,15.9,-0.38,0.84,2.0
1758075775.41977,1758075775.43192,0.0,0.0,0.0,32.54401,1.3751,8.25059,15.93,0.21,-1.07,2.0
1758075775.42089,1758075775.44192,0.0,0.0,0.0,31.16891,23.60586,11.17268,15.27,1.61,-1.89,2.0
1758075775.43695,1758075775.45192,0.0,0.0,0.0,28.87707,44.748,14.09476,15.27,1.61,-1.89,2.0
1758075775.45454,1758075775.46192,0.0,0.0,0.0,26.06958,63.42643,16.84496,13.48,2.57,-1.19,2.0
1758075775.46194,1758075775.47192,0.0,0.0,0.0,21.7724,86.51663,20.34,13.48,2.57,-1.19,2.0
1758075775.46251,1758075775.48192,0.0,0.0,0.0,18.27736,98.77792,20.79837,11.97,2.94,-0.71,2.0
1758075775.47959,1758075775.49192,0.0,0.0,0.0,14.72501,104.5648,20.22541,11.97,2.94,-0.71,2.0
1758075775.48078,1758075775.50192,0.0,0.0,0.0,11.28727,104.90858,19.48057,10.3,2.61,-0.42,2.0
1758075775.49693,1758075775.51192,0.0,0.0,0.0,7.21927,103.81995,17.76169,9.3,1.83,-0.13,2.0
1758075775.51274,1758075775.52192,0.0,0.0,0.0,5.27121,105.65342,17.24603,9.3,1.83,-0.13,2.0
1758075775.51555,1758075775.53192,0.0,0.0,0.0,2.86479,103.30429,14.9542,8.92,1.21,-0.02,2.0
1758075775.53168,1758075775.54192,0.0,0.0,0.0,1.14592,98.94981,13.46451,8.92,1.21,-0.02,2.0
1758075775.53282,1758075775.55192,0.0,0.0,0.0,-1.77617,93.33482,9.5684,8.06,0.95,0.32,2.0
1758075775.55216,1758075775.56192,0.0,0.0,0.0,-4.0107,87.71984,6.35983,8.06,0.95,0.32,2.0
1758075775.55384,1758075775.57192,0.0,0.0,0.0,-6.13065,80.27139,3.49504,7.33,0.93,0.43,2.0
1758075775.57213,1758075775.58192,0.0,0.0,0.0,-8.65166,71.90621,0.51566,7.33,0.93,0.43,2.0
1758075775.57382,1758075775.59192,0.0,0.0,0.0,-12.43318,60.73353,-3.32316,6.55,1.04,0.48,2.0
1758075775.58914,1758075775.60192,0.0,0.0,0.0,-14.72501,55.29043,-5.32851,6.29,1.1,0.28,2.0
1758075775.60491,1758075775.61192,0.0,0.0,0.0,-16.10011,49.90463,-6.58902,6.29,1.1,0.28,2.0
1758075775.60606,1758075775.62192,0.0,0.0,0.0,-17.24603,40.45082,-6.87549,5.97,1.01,0.32,2.0
1758075775.62112,1758075775.63192,0.0,0.0,0.0,-17.6471,31.79916,-5.95876,5.97,1.01,0.32,2.0
1758075775.62207,1758075775.64192,0.0,0.0,0.0,-17.87628,20.68378,-4.1253,5.51,0.81,0.34,2.0
1758075775.63717,1758075775.65192,0.0,0.0,0.0,-17.93358,7.39116,-1.20321,5.51,0.81,0.34,2.0
1758075775.65292,1758075775.66192,0.0,0.0,0.0,-17.58981,-14.38124,3.95341,4.87,0.54,-0.19,2.0
1758075775.6545,1758075775.67192,0.0,0.0,0.0,-17.47521,-31.51268,7.67763,4.18,0.25,-0.65,2.0
1758075775.66895,1758075775.68192,0.0,0.0,0.0,-17.87628,-49.33167,11.11538,4.18,0.25,-0.65,2.0
1758075775.67166,1758075775.69192,0.0,0.0,0.0,-18.56383,-57.0093,13.75099,5.03,0.08,-0.58,2.0
1758075775.6922,1758075775.70192,0.0,0.0,0.0,-22.11617,-28.59059,11.45916,5.03,0.08,-0.58,2.0
1758075775.69393,1758075775.71192,0.0,0.0,0.0,-21.25674,-4.98473,14.32395,10.46,0.01,0.03,2.0
1758075775.71222,1758075775.72192,0.0,0.0,0.0,-21.6578,-28.76248,11.74564,10.46,0.01,0.03,2.0
1758075775.7139,1758075775.73192,0.0,0.0,0.0,-21.88699,-49.96192,8.36518,8.25,0.05,1.19,2.0
1758075775.7322,1758075775.74192,0.0,0.0,0.0,-23.89234,-53.39967,3.20856,10.23,0.0,-0.87,2.0
1758075775.73308,1758075775.75192,0.0,0.0,0.0,-24.5226,-44.9199,1.20321,10.23,0.0,-0.87,2.0
1758075775.74794,1758075775.76192,0.0,0.0,0.0,-24.75178,-45.03448,1.08862,10.05,0.33,-0.74,2.0
1758075775.76524,1758075775.77192,0.0,0.0,0.0,-24.5226,-50.64947,2.7502,10.05,0.33,-0.74,2.0
1758075775.76619,1758075775.78192,0.0,0.0,0.0,-22.28806,-63.19725,5.09932,8.58,1.29,2.09,2.0
1758075775.78126,1758075775.79192,0.0,0.0,0.0,-18.33465,-87.54795,4.46907,8.58,1.29,2.09,2.0
1758075775.78215,1758075775.80192,0.0,0.0,0.0,-14.38124,-122.95675,0.0573,8.13,2.4,6.3,2.0
1758075775.79718,1758075775.81192,0.0,0.0,0.0,-13.34992,-147.70853,-18.27736,8.13,2.4,6.3,2.0
1758075775.81566,1758075775.82192,0.0,0.0,0.0,-16.21471,-159.62604,-30.88243,13.11,0.87,8.34,2.0
1758075775.81661,1758075775.83192,0.0,0.0,0.0,-19.76705,-144.09889,-39.3622,18.0,-1.65,1.78,2.0
1758075775.8323,1758075775.84192,0.0,0.0,0.0,-22.68913,-119.92007,-42.28429,18.0,-1.65,1.78,2.0
1758075775.83478,1758075775.85192,0.0,0.0,0.0,-26.87172,-98.72063,-39.19032,16.75,-0.61,-0.84,2.0
1758075775.85125,1758075775.86192,0.0,0.0,0.0,-28.76248,-91.44406,-34.26288,16.75,-0.61,-0.84,2.0
1758075775.85222,1758075775.87192,0.0,0.0,0.0,-30.36677,-78.20874,-28.64789,12.52,1.79,-1.32,2.0
1758075775.8669,1758075775.88192,0.0,0.0,0.0,-31.62727,-57.52497,-21.88699,12.52,1.79,-1.32,2.0
1758075775.88415,1758075775.89192,0.0,0.0,0.0,-33.80451,-34.14828,-13.00614,12.91,2.76,-1.4,2.0
1758075775.88505,1758075775.90192,0.0,0.0,0.0,-34.72124,-26.01229,-10.08406,12.85,2.17,-0.29,2.0
1758075775.90036,1758075775.91192,0.0,0.0,0.0,-33.68992,-7.79223,-11.57375,12.85,2.17,-0.29,2.0
1758075775.90126,1758075775.92192,0.0,0.0,0.0,-30.82513,14.49583,-12.77696,15.02,0.66,-1.57,2.0
1758075775.91703,1758075775.93192,0.0,0.0,0.0,-24.92367,44.63341,-15.12609,15.02,0.66,-1.57,2.0
1758075775.93384,1758075775.94192,0.0,0.0,0.0,-20.62648,58.04062,-17.53251,13.67,-1.23,-1.91,2.0
1758075775.93584,1758075775.95192,0.0,0.0,0.0,-15.69904,62.91077,-18.33465,13.67,-1.23,-1.91,2.0
1758075775.95136,1758075775.96192,0.0,0.0,0.0,-13.00614,68.98412,-20.05352,10.75,-2.03,-1.34,2.0
1758075775.95256,1758075775.97192,0.0,0.0,0.0,-12.204,78.49522,-21.6578,10.55,-1.81,-1.44,2.0
1758075775.96712,1758075775.98192,0.0,0.0,0.0,-12.14671,83.47996,-21.88699,10.55,-1.81,-1.44,2.0
1758075775.98604,1758075775.99192,0.0,0.0,0.0,-11.45916,86.40204,-20.3973,10.2,-0.73,-0.92,2.0
1758075775.98681,1758075776.00192,0.0,0.0,0.0,-9.4538,87.43336,-17.24603,10.2,-0.73,-0.92,2.0
1758075776.00234,1758075776.01192,0.0,0.0,0.0,-4.87014,84.39669,-15.35527,9.34,0.38,-0.48,2.0
1758075776.00331,1758075776.02192,0.0,0.0,0.0,-2.63561,80.90164,-13.5218,9.34,0.38,-0.48,2.0
1758075776.0181,1758075776.03192,0.0,0.0,0.0,-1.3751,75.91692,-11.17268,8.76,0.46,-0.06,2.0
1758075776.03513,1758075776.04192,0.0,0.0,0.0,0.57296,71.50513,-7.33386,8.76,0.46,-0.06,2.0
1758075776.03668,1758075776.05192,0.0,0.0,0.0,2.57831,68.01009,-4.18259,8.29,0.01,-0.66,2.0
1758075776.05149,1758075776.06192,0.0,0.0,0.0,4.98473,63.77021,-0.57296,7.34,-0.5,-0.45,2.0
1758075776.05281,1758075776.07192,0.0,0.0,0.0,8.02141,63.02536,2.86479,7.34,-0.5,-0.45,2.0
1758075776.0674,1758075776.08192,0.0,0.0,0.0,12.49048,66.5204,6.58902,6.93,-0.92,-0.44,2.0
1758075776.08335,1758075776.09192,0.0,0.0,0.0,15.46986,65.83286,7.84952,6.93,-0.92,-0.44,2.0
1758075776.08435,1758075776.10192,0.0,0.0,0.0,18.62113,62.39511,8.0787,6.09,-1.09,-0.26,2.0
1758075776.09907,1758075776.11192,0.0,0.0,0.0,21.60051,56.83742,7.79223,6.09,-1.09,-0.26,2.0
1758075776.11623,1758075776.12192,0.0,0.0,0.0,26.01229,46.00851,5.95876,5.48,-1.07,-0.43,2.0
1758075776.11717,1758075776.13192,0.0,0.0,0.0,28.13223,32.08564,4.46907,5.14,-0.95,-0.76,2.0
1758075776.13219,1758075776.14192,0.0,0.0,0.0,29.73651,15.12609,1.43239,5.14,-0.95,-0.76,2.0
1758075776.13667,1758075776.15192,0.0,0.0,0.0,30.93972,-1.94806,-2.57831,5.24,-0.71,-0.94,2.0
1758075776.15249,1758075776.16192,0.0,0.0,0.0,32.20023,2.23454,-6.41713,5.24,-0.71,-0.94,2.0
1758075776.15342,1758075776.17192,0.0,0.0,0.0,33.63263,4.29718,-6.07335,8.71,-0.07,-1.07,2.0
1758075776.16853,1758075776.18192,0.0,0.0,0.0,33.9764,7.39116,-4.81285,8.71,-0.07,-1.07,2.0
1758075776.18604,1758075776.19192,0.0,0.0,0.0,32.88778,16.55848,-3.20856,10.22,0.87,-0.6,2.0
1758075776.18722,1758075776.20192,0.0,0.0,0.0,30.19488,27.2155,-1.77617,12.14,1.73,-0.26,2.0
1758075776.20224,1758075776.21192,0.0,0.0,0.0,28.13223,26.12688,-0.97403,12.14,1.73,-0.26,2.0
1758075776.20344,1758075776.22192,0.0,0.0,0.0,24.29341,18.9649,-3.89611,10.73,1.87,-1.13,2.0
1758075776.21813,1758075776.23192,0.0,0.0,0.0,24.57989,-6.70361,-0.45837,10.73,1.87,-1.13,2.0
1758075776.23637,1758075776.24192,0.0,0.0,0.0,23.26209,-27.73116,5.78687,8.72,1.01,-1.85,2.0
1758075776.23725,1758075776.25192,0.0,0.0,0.0,18.85031,-31.11161,9.85487,8.72,1.01,-1.85,2.0
1758075776.25254,1758075776.26192,0.0,0.0,0.0,13.86558,-33.05967,12.14671,10.8,-0.05,1.18,2.0
1758075776.25347,1758075776.27192,0.0,0.0,0.0,6.87549,-60.33246,13.12073,10.8,-0.05,1.18,2.0
1758075776.26832,1758075776.28192,0.0,0.0,0.0,1.43239,-87.37608,15.46986,9.45,0.37,3.77,2.0
1758075776.28455,1758075776.29192,0.0,0.0,0.0,-4.1253,-111.4976,18.16276,10.58,1.77,9.48,2.0
1758075776.28659,1758075776.30192,0.0,0.0,0.0,-8.59437,-134.18672,21.14215,10.58,1.77,9.48,2.0
1758075776.30162,1758075776.31192,0.0,0.0,0.0,-11.22997,-145.35941,34.49206,13.92,4.53,7.61,2.0
1758075776.30253,1758075776.32192,0.0,0.0,0.0,-11.57375,-122.21191,37.29956,13.92,4.53,7.61,2.0
1758075776.31733,1758075776.33192,0.0,0.0,0.0,-12.37589,-101.35624,34.0337,17.52,5.33,0.97,2.0
1758075776.33325,1758075776.34192,0.0,0.0,0.0,-12.83425,-88.00632,28.64789,17.52,5.33,0.97,2.0
1758075776.33525,1758075776.35192,0.0,0.0,0.0,-10.54242,-67.37984,21.31403,14.33,1.39,0.84,2.0
1758075776.35118,1758075776.36192,0.0,0.0,0.0,-6.24524,-56.32175,18.44924,14.85,-0.89,2.3,2.0
1758075776.35237,1758075776.37192,0.0,0.0,0.0,-0.34377,-46.63877,17.18874,14.85,-0.89,2.3,2.0
1758075776.36762,1758075776.38192,0.0,0.0,0.0,5.78687,-32.42941,16.67307,14.67,-0.42,1.39,2.0
1758075776.38339,1758075776.39192,0.0,0.0,0.0,12.77696,-5.15662,16.21471,14.67,-0.42,1.39,2.0
1758075776.3846,1758075776.40192,0.0,0.0,0.0,15.29797,13.12073,15.69904,14.08,1.02,-0.14,2.0
1758075776.39939,1758075776.41192,0.0,0.0,0.0,15.69904,31.39809,15.12609,14.08,1.02,-0.14,2.0
1758075776.41535,1758075776.42192,0.0,0.0,0.0,13.98017,47.09713,13.80828,13.05,2.33,-0.11,2.0
1758075776.41678,1758075776.43192,0.0,0.0,0.0,9.4538,66.69229,12.60507,11.49,3.0,-0.2,2.0
1758075776.43164,1758075776.44192,0.0,0.0,0.0,4.92744,77.4066,10.8289,11.49,3.0,-0.2,2.0
1758075776.43289,1758075776.45192,0.0,0.0,0.0,0.34377,87.14688,8.88085,9.91,2.84,-0.12,2.0
1758075776.4474,1758075776.46192,0.0,0.0,0.0,-6.8182,96.65798,4.69825,9.91,2.84,-0.12,2.0
1758075776.46357,1758075776.47192,0.0,0.0,0.0,-10.65701,98.03308,2.40642,8.43,2.36,-0.11,2.0
1758075776.46621,1758075776.48192,0.0,0.0,0.0,-13.34992,97.28824,0.80214,8.43,2.36,-0.11,2.0
1758075776.48148,1758075776.49192,0.0,0.0,0.0,-15.46986,95.97043,-0.51566,7.58,1.86,0.17,2.0
1758075776.48265,1758075776.50192,0.0,0.0,0.0,-17.58981,93.16295,-1.77617,7.58,1.86,0.5,2.0
1758075776.49746,1758075776.51192,0.0,0.0,0.0,-19.36597,90.81382,-2.6929,7.65,1.48,0.5,2.0
1758075776.5135,1758075776.52192,0.0,0.0,0.0,-21.37133,88.57928,-3.20856,7.7,1.29,0.52,2.0
1758075776.51737,1758075776.53192,0.0,0.0,0.0,-23.83505,85.48531,-3.72423,7.7,1.29,0.52,2.0
1758075776.53272,1758075776.54192,0.0,0.0,0.0,-28.59059,78.43793,-4.69825,7.53,1.4,0.56,2.0
1758075776.53635,1758075776.55192,0.0,0.0,0.0,-32.71589,70.53111,-6.24524,7.53,1.4,0.56,2.0
1758075776.55174,1758075776.56192,0.0,0.0,0.0,-36.84119,60.16057,-7.21927,7.12,1.71,0.97,2.0
1758075776.55271,1758075776.57192,0.0,0.0,0.0,-40.68,49.15978,-8.42248,7.12,1.71,0.97,2.0
1758075776.56777,1758075776.58192,0.0,0.0,0.0,-45.72203,31.11161,-9.28192,7.13,2.06,1.44,2.0
1758075776.58343,1758075776.59192,0.0,0.0,0.0,-48.70141,22.00158,-9.33921,7.7,2.44,1.67,2.0
1758075776.58462,1758075776.60192,0.0,0.0,0.0,-51.16513,14.83961,-8.88085,7.7,2.44,1.67,2.0
1758075776.59953,1758075776.61192,0.0,0.0,0.0,-53.68615,9.22462,-8.47978,8.36,2.56,1.29,2.0
1758075776.60146,1758075776.62192,0.0,0.0,0.0,-57.29578,2.29183,-8.36518,8.36,2.56,1.29,2.0
1758075776.61777,1758075776.63192,0.0,0.0,0.0,-59.01466,-4.58366,-8.42248,8.43,2.12,0.4,2.0
1758075776.63377,1758075776.64192,0.0,0.0,0.0,-59.98868,-15.35527,-8.30789,8.43,2.12,0.4,2.0
1758075776.63505,1758075776.65192,0.0,0.0,0.0,-59.64491,-30.48136,-9.05273,7.41,1.41,-0.59,2.0
1758075776.6498,1758075776.66192,0.0,0.0,0.0,-58.4417,-59.47303,-9.91217,6.54,0.72,-1.16,2.0
1758075776.65152,1758075776.67192,0.0,0.0,0.0,-57.0093,-70.30193,-11.28727,6.54,0.72,-1.16,2.0
1758075776.66787,1758075776.68192,0.0,0.0,0.0,-55.11855,-55.86338,-12.54778,9.81,0.52,-1.39,2.0
1758075776.68361,1758075776.69192,0.0,0.0,0.0,-55.06125,-23.49127,-12.2613,9.81,0.52,-1.39,2.0
1758075776.68559,1758075776.70192,0.0,0.0,0.0,-56.49364,-33.00237,-16.55848,11.67,0.43,-0.4,2.0
1758075776.70061,1758075776.71192,0.0,0.0,0.0,-56.03527,-52.884,-15.46986,11.67,0.43,-0.4,2.0
1758075776.70183,1758075776.72192,0.0,0.0,0.0,-56.952,-68.75494,-17.6471,8.67,0.92,0.18,2.0
1758075776.71785,1758075776.73192,0.0,0.0,0.0,-57.12389,-71.67702,-14.43854,10.35,1.48,0.06,2.0
1758075776.73373,1758075776.74192,0.0,0.0,0.0,-57.23849,-80.27139,-10.65701,10.35,1.48,0.06,2.0
1758075776.73641,1758075776.75192,0.0,0.0,0.0,-55.92068,-100.5541,-8.02141,9.75,1.97,3.57,2.0
1758075776.75164,1758075776.76192,0.0,0.0,0.0,-53.80074,-115.62289,-11.11538,9.75,1.97,3.57,2.0
1758075776.75285,1758075776.77192,0.0,0.0,0.0,-44.46153,-104.22102,-17.53251,14.27,-0.47,5.66,2.0
1758075776.76767,1758075776.78192,0.0,0.0,0.0,-36.21093,-92.07432,-21.08485,14.27,-0.47,5.66,2.0
1758075776.78591,1758075776.79192,0.0,0.0,0.0,-28.01764,-87.89172,-21.94428,16.25,-2.8,2.74,2.0
1758075776.78631,1758075776.80192,0.0,0.0,0.0,-23.26209,-83.82372,-23.0329,16.25,-2.8,2.74,2.0
1758075776.80196,1758075776.81192,0.0,0.0,0.0,-20.79837,-79.64114,-24.29341,12.17,-2.15,2.14,2.0
1758075776.80289,1758075776.82192,0.0,0.0,0.0,-24.75178,-80.67246,-28.13223,9.81,-0.51,1.87,2.0
1758075776.81796,1758075776.83192,0.0,0.0,0.0,-29.27814,-82.33404,-29.8511,9.81,-0.51,1.87,2.0
1758075776.83358,1758075776.84192,0.0,0.0,0.0,-36.6693,-76.66176,-33.51803,10.6,0.7,2.26,2.0
1758075776.8348,1758075776.85192,0.0,0.0,0.0,-49.84733,-65.03072,-32.77319,10.6,0.7,2.26,2.0
1758075776.85056,1758075776.86192,0.0,0.0,0.0,-59.01466,-53.39967,-31.56997,12.76,1.5,1.15,2.0
1758075776.85179,1758075776.87192,0.0,0.0,0.0,-65.2026,-41.99781,-28.24682,12.76,1.5,1.15,2.0
1758075776.86692,1758075776.88192,0.0,0.0,0.0,-70.30193,-24.63719,-22.40265,13.12,1.56,0.35,2.0
1758075776.88294,1758075776.89192,0.0,0.0,0.0,-70.53111,-9.74028,-18.27736,12.47,0.7,-0.09,2.0
1758075776.88391,1758075776.90192,0.0,0.0,0.0,-68.86953,6.70361,-14.15206,12.47,0.7,-0.09,2.0
1758075776.89902,1758075776.91192,0.0,0.0,0.0,-65.14531,22.51724,-10.37054,11.7,-0.1,-0.49,2.0
1758075776.90065,1758075776.92192,0.0,0.0,0.0,-58.72818,44.23235,-7.50575,11.7,-0.1,-0.49,2.0
1758075776.91627,1758075776.93192,0.0,0.0,0.0,-55.34772,57.58226,-6.8182,10.79,-0.7,-0.58,2.0
1758075776.932,1758075776.94192,0.0,0.0,0.0,-53.51426,69.78626,-7.04738,10.79,-0.7,-0.58,2.0
1758075776.93295,1758075776.95192,0.0,0.0,0.0,-53.45696,81.5319,-8.0787,10.42,-0.74,-0.93,2.0
1758075776.94803,1758075776.96192,0.0,0.0,0.0,-55.40502,96.77258,-9.68299,10.31,-0.1,-1.12,2.0
1758075776.96372,1758075776.97192,0.0,0.0,0.0,-57.81144,102.90323,-11.11538,10.31,-0.1,-1.12,2.0
1758075776.96491,1758075776.98192,0.0,0.0,0.0,-60.79083,105.19505,-13.00614,9.57,0.75,-1.05,2.0
1758075776.97979,1758075776.99192,0.0,0.0,0.0,-63.65561,104.73669,-15.12609,9.57,0.75,-1.05,2.0
1758075776.98092,1758075777.00192,0.0,0.0,0.0,-67.66632,102.55945,-18.33465,8.91,1.35,-1.04,2.0
1758075776.99629,1758075777.01192,0.0,0.0,0.0,-69.84356,101.18435,-20.3973,8.91,1.35,-1.04,2.0
1758075777.01219,1758075777.02192,0.0,0.0,0.0,-71.44785,97.8039,-21.88699,8.47,1.41,-0.87,2.0
1758075777.01379,1758075777.03192,0.0,0.0,0.0,-72.70835,91.043,-23.20479,8.47,1.41,-0.87,2.0
1758075777.03087,1758075777.04192,0.0,0.0,0.0,-72.36457,76.89094,-23.26209,7.42,1.04,-0.05,2.0
1758075777.03198,1758075777.05192,0.0,0.0,0.0,-70.41652,65.54638,-21.94428,6.33,0.08,-0.03,2.0
1758075777.04682,1758075777.06192,0.0,0.0,0.0,-67.26525,56.03527,-20.34,6.33,0.08,-0.03,2.0
1758075777.06282,1758075777.07192,0.0,0.0,0.0,-60.61894,44.57612,-17.58981,6.08,-1.16,-0.57,2.0
1758075777.06475,1758075777.08192,0.0,0.0,0.0,-55.34772,34.66395,-16.272,6.08,-1.16,-0.57,2.0
1758075777.08111,1758075777.09192,0.0,0.0,0.0,-49.38896,20.22541,-15.75634,5.89,-2.05,-0.48,2.0
1758075777.08232,1758075777.10192,0.0,0.0,0.0,-42.57077,4.46907,-15.35527,5.89,-2.05,-0.48,2.0
1758075777.09671,1758075777.11192,0.0,0.0,0.0,-32.54401,-16.272,-14.38124,5.64,-2.0,-0.19,2.0
1758075777.11288,1758075777.12192,0.0,0.0,0.0,-26.41335,-26.24147,-13.5218,6.86,-1.26,-0.06,2.0
1758075777.11455,1758075777.13192,0.0,0.0,0.0,-22.11617,-34.43476,-14.38124,6.86,-1.26,-0.06,2.0
1758075777.12885,1758075777.14192,0.0,0.0,0.0,-18.62113,-43.94586,-16.67307,7.74,-0.81,1.95,2.0
1758075777.1301,1758075777.15192,0.0,0.0,0.0,-13.00614,-75.40125,-19.82434,7.74,-0.81,1.95,2.0
1758075777.14612,1758075777.16192,0.0,0.0,0.0,-10.71431,-102.33027,-17.47521,8.68,-0.23,7.18,2.0
1758075777.16195,1758075777.17192,0.0,0.0,0.0,-10.8862,-114.64886,-8.65166,8.68,-0.23,7.18,2.0
1758075777.16311,1758075777.18192,0.0,0.0,0.0,-13.86558,-100.32492,0.17189,15.98,2.33,6.41,2.0
1758075777.17782,1758075777.19192,0.0,0.0,0.0,-22.57454,-55.86338,9.39651,20.65,1.74,1.53,2.0
1758075777.19391,1758075777.20192,0.0,0.0,0.0,-28.476,-34.60666,12.14671,20.65,1.74,1.53,2.0
1758075777.19513,1758075777.21192,0.0,0.0,0.0,-33.40344,-23.20479,13.86558,15.15,0.44,2.06,2.0
1758075777.20995,1758075777.22192,0.0,0.0,0.0,-36.21093,-26.69983,12.08941,15.15,0.44,2.06,2.0
1758075777.21116,1758075777.23191,0.0,0.0,0.0,-31.28349,-87.31877,17.47521,7.47,0.5,2.74,2.0
1758075777.22595,1758075777.24191,0.0,0.0,0.0,-24.92367,-97.86119,18.85031,7.47,0.5,2.74,2.0
1758075777.24194,1758075777.25191,0.0,0.0,0.0,-17.99088,-69.21331,21.02755,9.47,0.52,2.03,2.0
1758075777.24323,1758075777.26191,0.0,0.0,0.0,-10.94349,-37.35685,16.55848,9.47,0.52,2.03,2.0
1758075777.25785,1758075777.27191,0.0,0.0,0.0,-1.3178,-16.38659,15.64175,14.4,1.14,1.36,2.0
1758075777.27395,1758075777.28191,0.0,0.0,0.0,1.03132,-8.42248,12.49048,11.34,1.65,2.11,2.0
1758075777.27599,1758075777.29191,0.0,0.0,0.0,1.83346,3.72423,10.19865,11.34,1.65,2.11,2.0
1758075777.2912,1758075777.30191,0.0,0.0,0.0,-1.08862,29.10626,5.27121,11.53,1.93,0.42,2.0
1758075777.29218,1758075777.31191,0.0,0.0,0.0,-4.81285,40.10705,2.11994,11.53,1.93,0.42,2.0
1758075777.30699,1758075777.32191,0.0,0.0,0.0,-8.88085,44.51882,0.17189,9.95,2.25,0.45,2.0
1758075777.32302,1758075777.33191,0.0,0.0,0.0,-12.77696,46.75336,-1.03132,9.95,2.25,0.45,2.0
1758075777.32417,1758075777.34191,0.0,0.0,0.0,-17.30333,52.54023,-0.80214,8.72,2.45,0.51,2.0
1758075777.33914,1758075777.35191,0.0,0.0,0.0,-19.70975,55.00395,-0.17189,8.94,2.53,0.4,2.0
1758075777.34022,1758075777.36191,0.0,0.0,0.0,-21.37133,55.00395,0.51566,8.94,2.53,0.4,2.0
1758075777.35608,1758075777.37191,0.0,0.0,0.0,-22.74642,53.51426,1.08862,8.68,2.53,0.8,2.0
1758075777.37223,1758075777.38191,0.0,0.0,0.0,-24.00693,50.363,-0.45837,8.68,2.53,0.8,2.0
1758075777.37327,1758075777.39191,0.0,0.0,0.0,-24.63719,47.67009,-2.29183,8.86,2.43,1.01,2.0
1758075777.38997,1758075777.40191,0.0,0.0,0.0,-25.8404,46.75336,-4.52637,8.86,2.43,1.01,2.0
1758075777.39157,1758075777.41191,0.0,0.0,0.0,-27.38738,45.26366,-7.39116,9.08,2.27,1.17,2.0
1758075777.40719,1758075777.42191,0.0,0.0,0.0,-30.99702,41.02378,-12.89155,8.46,2.2,0.82,2.0
1758075777.42295,1758075777.43191,0.0,0.0,0.0,-33.80451,40.10705,-16.95955,8.46,2.2,0.82,2.0
1758075777.42416,1758075777.44191,0.0,0.0,0.0,-36.49741,39.19032,-20.62648,8.34,2.2,0.96,2.0
1758075777.43934,1758075777.45191,0.0,0.0,0.0,-38.61736,37.18496,-23.66316,8.34,2.2,0.96,2.0
1758075777.44106,1758075777.46191,0.0,0.0,0.0,-41.59674,28.99167,-25.7831,8.11,2.19,1.07,2.0
1758075777.45711,1758075777.47191,0.0,0.0,0.0,-42.91454,19.42327,-26.01229,8.11,2.19,1.07,2.0
1758075777.47321,1758075777.48191,0.0,0.0,0.0,-43.25832,10.8862,-24.00693,7.58,2.08,1.05,2.0
1758075777.47428,1758075777.49191,0.0,0.0,0.0,-42.57077,6.53172,-18.22006,7.58,2.08,1.05,2.0
1758075777.48909,1758075777.50191,0.0,0.0,0.0,-41.59674,6.70361,-13.46451,8.44,1.9,0.91,2.0
1758075777.49104,1758075777.51191,0.0,0.0,0.0,-39.82057,3.89611,-8.136,8.69,1.82,1.22,2.0
1758075777.50609,1758075777.52191,0.0,0.0,0.0,-38.73195,0.40107,-3.95341,8.69,1.82,1.22,2.0
1758075777.52211,1758075777.53191,0.0,0.0,0.0,-38.50277,0.51566,2.57831,8.76,1.97,1.44,2.0
1758075777.5233,1758075777.54191,0.0,0.0,0.0,-36.49741,29.73651,4.69825,8.76,1.97,1.44,2.0
1758075777.53811,1758075777.55191,0.0,0.0,0.0,-38.1017,50.01921,4.46907,11.37,2.13,1.15,2.0
1758075777.55412,1758075777.56191,0.0,0.0,0.0,-41.76862,34.0337,0.57296,11.37,2.13,1.15,2.0
1758075777.55536,1758075777.57191,0.0,0.0,0.0,-44.40423,7.67763,-3.03668,7.31,3.01,1.92,2.0
1758075777.57034,1758075777.58191,0.0,0.0,0.0,-46.75336,6.13065,-7.16197,8.78,3.32,1.36,2.0
1758075777.57135,1758075777.59191,0.0,0.0,0.0,-49.27437,8.47978,-9.39651,8.78,3.32,1.36,2.0
1758075777.58609,1758075777.60191,0.0,0.0,0.0,-50.93595,9.91217,-8.59437,10.05,3.43,0.37,2.0
1758075777.60218,1758075777.61191,0.0,0.0,0.0,-52.65482,15.58445,-1.83346,10.05,3.43,0.37,2.0
1758075777.6044,1758075777.62191,0.0,0.0,0.0,-53.11319,16.272,3.83882,9.86,3.42,1.1,2.0
1758075777.61922,1758075777.63191,0.0,0.0,0.0,-53.11319,8.30789,8.36518,9.86,3.42,1.1,2.0
1758075777.62049,1758075777.64191,0.0,0.0,0.0,-53.91533,-1.48969,9.5684,8.71,3.24,1.94,2.0
1758075777.63647,1758075777.65191,0.0,0.0,0.0,-55.51962,-2.46372,10.25595,10.17,2.65,2.53,2.0
1758075777.65254,1758075777.66191,0.0,0.0,0.0,-54.94666,3.32316,10.59972,10.17,2.65,2.53,2.0
1758075777.6534,1758075777.67191,0.0,0.0,0.0,-53.05589,7.73493,11.51645,11.5,1.78,3.26,2.0
1758075777.66849,1758075777.68191,0.0,0.0,0.0,-46.81066,4.18259,11.22997,11.5,1.78,3.26,2.0
1758075777.68439,1758075777.69191,0.0,0.0,0.0,-41.71133,-7.62034,8.02141,11.15,0.2,4.48,2.0
1758075777.68541,1758075777.70191,0.0,0.0,0.0,-37.58603,-9.85487,1.94806,11.15,0.2,4.48,2.0
1758075777.70052,1758075777.71191,0.0,0.0,0.0,-33.46074,-6.24524,-3.83882,12.58,-1.03,4.28,2.0
1758075777.70143,1758075777.72191,0.0,0.0,0.0,-27.04361,3.38045,-7.39116,12.58,-1.03,4.28,2.0
1758075777.71662,1758075777.73191,0.0,0.0,0.0,-22.51724,2.97938,-4.92744,12.81,-1.18,3.12,2.0
1758075777.73259,1758075777.74191,0.0,0.0,0.0,-19.25138,-0.40107,0.51566,10.41,-0.76,3.52,2.0
1758075777.73346,1758075777.75191,0.0,0.0,0.0,-16.84496,-2.46372,8.136,10.41,-0.76,3.52,2.0
1758075777.74839,1758075777.76191,0.0,0.0,0.0,-15.29797,-3.83882,20.34,9.68,-0.29,3.31,2.0
1758075777.76425,1758075777.77191,0.0,0.0,0.0,-14.9542,-7.73493,27.78845,9.68,-0.29,3.31,2.0
1758075777.76548,1758075777.78191,0.0,0.0,0.0,-14.43854,-13.86558,34.0337,9.38,-0.07,3.67,2.0
1758075777.78056,1758075777.79191,0.0,0.0,0.0,-13.69369,-17.58981,38.44547,9.38,-0.07,3.67,2.0
1758075777.78147,1758075777.80191,0.0,0.0,0.0,-13.23533,-18.44924,39.64868,9.57,-0.25,3.26,2.0
1758075777.79631,1758075777.81191,0.0,0.0,0.0,-13.40721,-18.73572,36.61201,9.8,-0.7,2.87,2.0
1758075777.8123,1758075777.82191,0.0,0.0,0.0,-13.86558,-18.44924,30.88243,9.8,-0.7,2.87,2.0
1758075777.81348,1758075777.83191,0.0,0.0,0.0,-15.29797,-17.6471,23.66316,9.41,-1.08,2.28,2.0
1758075777.82836,1758075777.84191,0.0,0.0,0.0,-18.73572,-13.75099,12.37589,9.41,-1.08,2.28,2.0
1758075777.84432,1758075777.85191,0.0,0.0,0.0,-21.37133,-10.54242,5.55769,9.18,-1.27,1.89,2.0
1758075777.84556,1758075777.86191,0.0,0.0,0.0,-24.12152,-7.50575,0.0,9.18,-1.27,1.89,2.0
1758075777.86063,1758075777.87191,0.0,0.0,0.0,-26.52795,-4.64096,-3.89611,8.93,-1.36,1.92,2.0
1758075777.86157,1758075777.88191,0.0,0.0,0.0,-28.87707,0.51566,-7.10468,9.22,-1.43,2.13,2.0
1758075777.87663,1758075777.89191,0.0,0.0,0.0,-29.33544,4.58366,-7.39116,9.22,-1.43,2.13,2.0
1758075777.89238,1758075777.90191,0.0,0.0,0.0,-28.64789,8.99544,-7.10468,9.81,-1.56,2.26,2.0
1758075777.89479,1758075777.91191,0.0,0.0,0.0,-26.18417,15.46986,-5.32851,9.81,-1.56,2.26,2.0
1758075777.90939,1758075777.92191,0.0,0.0,0.0,-23.54857,20.22541,-3.72423,10.26,-1.76,2.43,2.0
1758075777.91137,1758075777.93191,0.0,0.0,0.0,-20.45459,24.5226,-1.66158,10.26,-1.76,2.43,2.0
1758075777.92641,1758075777.94191,0.0,0.0,0.0,-17.13144,27.2155,0.74485,10.5,-1.77,2.37,2.0
1758075777.94228,1758075777.95191,0.0,0.0,0.0,-13.12073,28.36141,3.66693,10.5,-1.77,2.27,2.0
1758075777.94442,1758075777.96191,0.0,0.0,0.0,-11.17268,29.10626,5.32851,10.19,-1.58,2.27,2.0
1758075777.95948,1758075777.97191,0.0,0.0,0.0,-9.91217,30.53865,6.53172,9.86,-1.29,2.19,2.0
1758075777.96145,1758075777.98191,0.0,0.0,0.0,-9.05273,31.28349,6.99009,9.86,-1.29,2.19,2.0
1758075777.9767,1758075777.99191,0.0,0.0,0.0,-8.30789,31.11161,6.24524,9.21,-1.05,1.99,2.0
1758075777.9927,1758075778.00191,0.0,0.0,0.0,-7.62034,29.67921,5.21392,9.21,-1.05,1.99,2.0
1758075777.99786,1758075778.01191,0.0,0.0,0.0,-6.8182,27.1582,3.60963,8.78,-0.92,1.81,2.0
1758075778.0127,1758075778.02191,0.0,0.0,0.0,-5.27121,23.94964,1.77617,8.78,-0.92,1.81,2.0
1758075778.01442,1758075778.03191,0.0,0.0,0.0,-2.06265,18.33465,-0.74485,8.65,-0.98,1.66,2.0
1758075778.02946,1758075778.04191,0.0,0.0,0.0,0.22918,14.15206,-1.60428,8.79,-1.13,1.62,2.0
1758075778.03169,1758075778.05191,0.0,0.0,0.0,2.7502,11.28727,-1.48969,8.79,-1.13,1.62,2.0
1758075778.04768,1758075778.06191,0.0,0.0,0.0,5.15662,11.28727,-1.3751,9.25,-1.23,1.45,2.0
1758075778.06348,1758075778.07191,0.0,0.0,0.0,8.25059,15.12609,-1.14592,9.25,-1.23,1.45,2.0
1758075778.06621,1758075778.08191,0.0,0.0,0.0,9.96947,16.3293,-1.3751,9.42,-1.27,1.35,2.0
1758075778.08169,1758075778.09191,0.0,0.0,0.0,11.86023,14.61043,-1.48969,9.42,-1.27,1.35,2.0
1758075778.08264,1758075778.10191,0.0,0.0,0.0,13.86558,10.8862,-2.63561,8.65,-1.21,1.34,2.0
1758075778.09773,1758075778.11191,0.0,0.0,0.0,15.29797,5.50039,-3.32316,8.47,-1.08,1.03,2.0
1758075778.11375,1758075778.12191,0.0,0.0,0.0,16.38659,1.83346,-4.35448,8.47,-1.08,1.03,2.0
1758075778.11506,1758075778.13191,0.0,0.0,0.0,17.47521,0.97403,-5.84417,8.78,-0.93,1.0,2.0
1758075778.12949,1758075778.14191,0.0,0.0,0.0,20.79837,6.13065,-4.92744,8.78,-0.93,1.0,2.0
1758075778.13179,1758075778.15191,0.0,0.0,0.0,22.97561,5.61499,-4.0107,9.27,-0.98,1.23,2.0
1758075778.14748,1758075778.16191,0.0,0.0,0.0,25.09555,3.32316,-2.46372,9.27,-0.98,1.23,2.0
1758075778.16374,1758075778.17191,0.0,0.0,0.0,26.18417,4.0107,-2.23454,8.75,-1.11,1.77,2.0
1758075778.16493,1758075778.18191,0.0,0.0,0.0,27.33009,4.69825,-2.46372,8.77,-1.11,1.18,2.0
1758075778.17953,1758075778.19191,0.0,0.0,0.0,27.2155,4.0107,-2.7502,8.77,-1.0,1.18,2.0
1758075778.18076,1758075778.20191,0.0,0.0,0.0,27.33009,0.22918,-4.0107,8.54,-0.73,1.41,2.0
1758075778.19648,1758075778.21191,0.0,0.0,0.0,27.84575,-11.63104,-5.90147,8.54,-0.73,1.41,2.0
1758075778.21285,1758075778.22191,0.0,0.0,0.0,29.62192,-60.73353,-0.74485,6.31,-0.34,0.91,2.0
1758075778.21531,1758075778.23191,0.0,0.0,0.0,30.88243,-72.65105,2.63561,6.31,-0.34,0.91,2.0
1758075778.23084,1758075778.24191,0.0,0.0,0.0,30.13758,-70.30193,4.46907,8.56,-0.44,1.76,2.0
1758075778.23254,1758075778.25191,0.0,0.0,0.0,28.93437,-63.8275,4.29718,8.56,-0.44,1.76,2.0
1758075778.24757,1758075778.26191,0.0,0.0,0.0,25.49662,-79.41196,8.42248,10.61,-0.12,4.72,2.0
1758075778.26385,1758075778.27191,0.0,0.0,0.0,22.97561,-94.82452,15.46986,11.5,1.1,6.7,2.0
1758075778.26479,1758075778.28191,0.0,0.0,0.0,18.90761,-98.43416,23.72045,11.5,1.1,6.7,2.0
1758075778.28088,1758075778.29191,0.0,0.0,0.0,14.9542,-91.50137,32.25753,16.19,2.38,3.59,2.0
1758075778.28178,1758075778.30191,0.0,0.0,0.0,9.39651,-79.75573,39.4195,16.19,2.38,3.59,2.0
1758075778.29662,1758075778.31191,0.0,0.0,0.0,6.53172,-72.0208,38.38818,14.12,1.5,1.32,2.0
1758075778.31264,1758075778.32191,0.0,0.0,0.0,5.09932,-67.72362,34.32018,14.12,1.5,1.32,2.0
1758075778.31378,1758075778.33191,0.0,0.0,0.0,5.50039,-62.33781,23.31938,10.37,-0.02,0.85,2.0
1758075778.3289,1758075778.34191,0.0,0.0,0.0,7.62034,-58.72818,15.0115,8.4,-1.11,1.06,2.0
1758075778.33057,1758075778.35191,0.0,0.0,0.0,11.74564,-56.14987,7.96411,8.4,-1.11,1.06,2.0
1758075778.34662,1758075778.36191,0.0,0.0,0.0,17.6471,-53.45696,2.46372,7.5,-1.68,2.09,2.0
1758075778.36275,1758075778.37191,0.0,0.0,0.0,28.70519,-47.38361,-1.48969,7.5,-1.68,2.09,2.0
1758075778.36376,1758075778.38191,0.0,0.0,0.0,37.24226,-43.54479,-2.40642,7.97,-1.9,3.07,2.0
1758075778.37892,1758075778.39191,0.0,0.0,0.0,45.55015,-38.56006,-0.34377,7.97,-1.9,3.07,2.0
1758075778.38065,1758075778.40191,0.0,0.0,0.0,52.08187,-28.24682,2.29183,9.16,-1.57,2.4,2.0
1758075778.39673,1758075778.41191,0.0,0.0,0.0,58.04062,-9.33921,7.39116,11.35,-0.34,1.47,2.0
1758075778.41295,1758075778.42191,0.0,0.0,0.0,58.84277,3.60963,11.22997,11.35,-0.34,1.47,2.0
1758075778.41388,1758075778.43191,0.0,0.0,0.0,56.60823,15.98552,14.83961,12.65,1.67,0.39,2.0
1758075778.42947,1758075778.44191,0.0,0.0,0.0,52.02457,26.47065,17.6471,12.65,1.67,0.39,2.0
1758075778.43141,1758075778.45191,0.0,0.0,0.0,42.91454,32.88778,21.7724,12.28,3.31,-0.09,2.0
1758075778.44794,1758075778.46191,0.0,0.0,0.0,36.03905,34.89313,23.49127,12.28,3.31,-0.09,2.0
1758075778.46466,1758075778.47191,0.0,0.0,0.0,29.22085,37.92981,24.23611,11.27,3.67,0.05,2.0
1758075778.4667,1758075778.48191,0.0,0.0,0.0,22.91831,41.71133,23.83505,11.27,3.67,0.05,2.0
1758075778.48205,1758075778.49191,0.0,0.0,0.0,14.32395,45.49285,21.02755,11.05,2.88,0.44,2.0
1758075778.48403,1758075778.50191,0.0,0.0,0.0,8.42248,47.49821,16.73037,10.49,2.04,0.79,2.0
1758075778.49901,1758075778.51191,0.0,0.0,0.0,3.38045,49.33167,11.74564,10.49,2.04,0.79,2.0
1758075778.50145,1758075778.52191,0.0,0.0,0.0,-3.49504,50.13381,3.95341,10.3,1.81,0.98,2.0
1758075778.51795,1758075778.53191,0.0,0.0,0.0,-7.33386,46.98254,-0.85944,10.3,1.81,0.98,2.0
1758075778.53392,1758075778.54191,0.0,0.0,0.0,-10.31324,45.03448,-5.4431,9.96,1.82,1.28,2.0
1758075778.53497,1758075778.55191,0.0,0.0,0.0,-12.14671,43.02913,-8.88085,9.96,1.82,1.28,2.0
1758075778.54996,1758075778.56191,0.0,0.0,0.0,-13.12073,39.13302,-12.14671,10.04,1.76,1.29,2.0
1758075778.55185,1758075778.57191,0.0,0.0,0.0,-13.46451,36.15364,-13.12073,9.64,1.52,1.37,2.0
1758075778.56775,1758075778.58191,0.0,0.0,0.0,-13.80828,31.97105,-13.5218,9.64,1.52,1.37,2.0
1758075778.58406,1758075778.59191,0.0,0.0,0.0,-14.72501,28.59059,-13.69369,9.14,1.35,1.25,2.0
1758075778.58576,1758075778.60191,0.0,0.0,0.0,-17.36062,26.47065,-13.34992,9.14,1.35,1.25,2.0
1758075778.60114,1758075778.61191,0.0,0.0,0.0,-19.42327,27.38738,-13.06344,9.08,1.4,1.15,2.0
1758075778.60197,1758075778.62191,0.0,0.0,0.0,-21.94428,28.59059,-13.5218,9.08,1.4,1.15,2.0
1758075778.61713,1758075778.63191,0.0,0.0,0.0,-24.80907,28.01764,-13.98017,8.69,1.68,1.06,2.0
1758075778.63316,1758075778.64191,0.0,0.0,0.0,-29.67921,26.52795,-14.9542,8.12,2.17,0.82,2.0
1758075778.63641,1758075778.65191,0.0,0.0,0.0,-33.46074,24.80907,-15.35527,8.12,2.17,0.82,2.0
1758075778.65211,1758075778.66191,0.0,0.0,0.0,-37.35685,20.68378,-15.87093,7.63,2.78,0.6,2.0
1758075778.65382,1758075778.67191,0.0,0.0,0.0,-41.08107,12.89155,-15.69904,7.63,2.78,0.6,2.0
1758075778.66965,1758075778.68191,0.0,0.0,0.0,-45.89392,-7.96411,-14.15206,6.64,3.29,0.27,2.0
1758075778.67164,1758075778.69191,0.0,0.0,0.0,-48.41494,-23.20479,-13.80828,6.64,3.29,0.27,2.0
1758075778.68783,1758075778.70191,0.0,0.0,0.0,-50.363,-39.70598,-13.23533,6.39,3.36,0.2,2.0
1758075778.70413,1758075778.71191,0.0,0.0,0.0,-53.51426,-52.76942,-11.97482,6.39,3.36,0.2,2.0
1758075778.70663,1758075778.72191,0.0,0.0,0.0,-59.64491,-55.23313,-8.59437,7.04,3.3,-0.09,2.0
1758075778.722,1758075778.73191,0.0,0.0,0.0,-65.83286,-25.89769,-15.0115,10.24,3.41,0.71,2.0
1758075778.72417,1758075778.74191,0.0,0.0,0.0,-65.43179,-29.39274,-11.00079,10.24,3.41,0.71,2.0
1758075778.73995,1758075778.75191,0.0,0.0,0.0,-76.48987,-79.98491,-22.23076,7.07,3.26,3.6,2.0
1758075778.7409,1758075778.76191,0.0,0.0,0.0,-79.98491,-88.69387,-27.78845,7.07,3.26,3.6,2.0
1758075778.75712,1758075778.77191,0.0,0.0,0.0,-80.38599,-76.43258,-30.30947,10.85,1.78,3.45,2.0
1758075778.77319,1758075778.78191,0.0,0.0,0.0,-76.0315,-81.07353,-28.36141,10.85,1.78,3.45,2.0
1758075778.77724,1758075778.79191,0.0,0.0,0.0,-70.18733,-104.50751,-29.33544,11.5,-1.09,3.95,2.0
1758075778.79319,1758075778.80191,0.0,0.0,0.0,-65.71826,-101.58542,-29.04896,13.01,-4.03,4.5,2.0
1758075778.79434,1758075778.81191,0.0,0.0,0.0,-58.90006,-86.45934,-26.75713,13.01,-4.03,4.5,2.0
1758075778.80915,1758075778.82191,0.0,0.0,0.0,-50.01921,-73.05212,-21.14215,15.19,-3.99,2.43,2.0
1758075778.82517,1758075778.83191,0.0,0.0,0.0,-36.6693,-70.01544,-11.45916,15.19,-3.99,2.43,2.0
1758075778.82689,1758075778.84191,0.0,0.0,0.0,-30.48136,-72.47916,-5.09932,12.01,-1.93,3.61,2.0
1758075778.84199,1758075778.85191,0.0,0.0,0.0,-27.1582,-74.54182,0.51566,12.01,-1.93,3.61,2.0
1758075778.8431,1758075778.86191,0.0,0.0,0.0,-27.04361,-72.70835,4.18259,11.14,-0.65,2.34,2.0
1758075778.8581,1758075778.87191,0.0,0.0,0.0,-32.08564,-62.39511,6.53172,12.21,-0.47,1.08,2.0
1758075778.874,1758075778.88191,0.0,0.0,0.0,-37.58603,-52.54023,6.70361,12.21,-0.47,1.08,2.0
1758075778.87515,1758075778.89191,0.0,0.0,0.0,-44.17505,-41.36755,4.98473,13.16,-0.65,0.39,2.0
1758075778.88992,1758075778.90191,0.0,0.0,0.0,-50.47758,-31.39809,2.57831,13.16,-0.65,0.39,2.0
1758075778.89197,1758075778.91191,0.0,0.0,0.0,-58.09792,-17.93358,-1.43239,12.32,-1.0,-0.24,2.0
1758075778.90705,1758075778.92191,0.0,0.0,0.0,-61.36378,-9.68299,-4.29718,12.32,-1.0,-0.24,2.0
1758075778.92333,1758075778.93191,0.0,0.0,0.0,-62.79618,-1.83346,-6.58902,10.78,-1.44,-0.3,2.0
1758075778.92419,1758075778.94191,0.0,0.0,0.0,-62.16592,6.47442,-9.39651,10.78,-1.44,-0.3,2.0
1758075778.94015,1758075778.95191,0.0,0.0,0.0,-60.44705,20.34,-10.8862,9.74,-1.69,-0.17,2.0
1758075778.94127,1758075778.96191,0.0,0.0,0.0,-58.04062,28.24682,-12.204,9.2,-1.87,0.05,2.0
1758075778.95702,1758075778.97191,0.0,0.0,0.0,-54.66018,34.95043,-12.71966,9.2,-1.87,0.05,2.0
1758075778.9738,1758075778.98191,0.0,0.0,0.0,-48.9306,44.28964,-13.06344,8.92,-1.99,0.06,2.0
1758075778.97671,1758075778.99191,0.0,0.0,0.0,-44.748,50.64947,-12.43318,8.92,-1.99,0.06,2.0
1758075778.99236,1758075779.00191,0.0,0.0,0.0,-40.68,55.92068,-11.17268,9.44,-2.08,-0.02,2.0
1758075778.9932,1758075779.01191,0.0,0.0,0.0,-37.12767,57.86874,-9.4538,9.44,-2.08,-0.02,2.0
1758075779.00831,1758075779.02191,0.0,0.0,0.0,-33.05967,55.6342,-6.53172,9.56,-1.92,0.14,2.0
1758075779.02589,1758075779.03191,0.0,0.0,0.0,-31.56997,53.17049,-5.4431,9.58,-1.5,0.21,2.0
1758075779.02731,1758075779.04191,0.0,0.0,0.0,-30.99702,51.22243,-4.46907,9.58,-1.5,0.21,2.0
1758075779.04228,1758075779.05191,0.0,0.0,0.0,-30.82513,51.10783,-3.95341,9.86,-0.93,0.23,2.0
1758075779.04325,1758075779.06191,0.0,0.0,0.0,-29.62192,48.07116,-3.26586,9.86,-0.93,0.23,2.0
1758075779.05844,1758075779.07191,0.0,0.0,0.0,-27.2155,45.37826,-3.32316,9.52,-0.66,0.3,2.0
1758075779.07617,1758075779.08191,0.0,0.0,0.0,-24.57989,41.65404,-3.03668,9.52,-0.66,0.3,2.0
1758075779.07708,1758075779.09191,0.0,0.0,0.0,-21.6578,37.87251,-3.09397,9.23,-0.75,0.38,2.0
1758075779.09231,1758075779.10191,0.0,0.0,0.0,-17.93358,33.40344,-2.97938,9.47,-0.86,0.5,2.0
1758075779.09323,1758075779.11191,0.0,0.0,0.0,-16.04282,30.13758,-2.6929,9.47,-0.86,0.5,2.0
1758075779.1083,1758075779.12191,0.0,0.0,0.0,-14.78231,27.2155,-2.6929,9.78,-0.84,0.51,2.0
1758075779.1244,1758075779.13191,0.0,0.0,0.0,-13.34992,24.35071,-2.00535,9.78,-0.84,0.51,2.0
1758075779.1253,1758075779.14191,0.0,0.0,0.0,-10.54242,22.00158,-1.3751,9.94,-0.92,0.19,2.0
1758075779.14022,1758075779.15191,0.0,0.0,0.0,-8.36518,23.37668,-0.85944,9.94,-0.92,0.19,2.0
1758075779.14133,1758075779.16191,0.0,0.0,0.0,-5.78687,26.69983,-0.51566,10.26,-1.18,0.07,2.0
1758075779.15739,1758075779.17191,0.0,0.0,0.0,-1.08862,31.79916,-0.11459,10.26,-1.18,0.07,2.0
1758075779.1734,1758075779.18191,0.0,0.0,0.0,2.63561,34.72124,0.22918,10.4,-1.4,0.34,2.0
1758075779.17461,1758075779.19191,0.0,0.0,0.0,6.70361,36.26823,0.51566,10.12,-1.59,0.45,2.0
1758075779.18942,1758075779.20191,0.0,0.0,0.0,10.71431,36.89849,1.08862,10.12,-1.59,0.45,2.0
1758075779.20503,1758075779.21191,0.0,0.0,0.0,17.30333,37.24226,1.94806,9.87,-1.67,0.37,2.0
1758075779.20708,1758075779.22191,0.0,0.0,0.0,21.37133,36.95578,2.34913,9.87,-1.67,0.37,2.0
1758075779.22217,1758075779.23191,0.0,0.0,0.0,25.15285,35.58068,2.40642,9.59,-1.54,0.26,2.0
1758075779.22414,1758075779.24191,0.0,0.0,0.0,28.70519,30.59595,2.29183,9.59,-1.54,0.26,2.0
1758075779.23942,1758075779.25191,0.0,0.0,0.0,32.77319,19.88164,1.66158,8.78,-1.3,0.22,2.0
1758075779.25613,1758075779.26191,0.0,0.0,0.0,35.06502,13.34992,0.74485,8.56,-1.13,0.29,2.0
1758075779.25719,1758075779.27191,0.0,0.0,0.0,37.87251,20.05352,1.20321,8.56,-1.13,0.29,2.0
1758075779.27211,1758075779.28191,0.0,0.0,0.0,40.10705,31.74186,0.85944,10.85,-0.88,0.62,2.0
1758075779.27418,1758075779.29191,0.0,0.0,0.0,41.65404,52.71212,1.3751,10.85,-0.88,0.62,2.0
1758075779.28947,1758075779.30191,0.0,0.0,0.0,41.94051,56.952,0.34377,11.32,-0.41,0.84,2.0
1758075779.29157,1758075779.31191,0.0,0.0,0.0,44.23235,40.16434,2.23454,11.32,-0.41,0.84,2.0
1758075779.3072,1758075779.32191,0.0,0.0,0.0,45.37826,9.4538,0.45837,7.69,-0.23,1.19,2.0
1758075779.3259,1758075779.33191,0.0,0.0,0.0,49.90463,-34.32018,4.0107,6.25,-0.49,0.39,2.0
1758075779.32696,1758075779.34191,0.0,0.0,0.0,50.82136,-43.54479,4.98473,6.25,-0.49,0.39,2.0
1758075779.34221,1758075779.35191,0.0,0.0,0.0,51.50891,-42.97184,4.87014,9.35,-0.42,1.9,2.0
1758075779.34453,1758075779.36191,0.0,0.0,0.0,51.27972,-39.4768,6.47442,9.35,-0.42,1.9,2.0
1758075779.35917,1758075779.37191,0.0,0.0,0.0,50.2484,-44.8053,8.136,10.41,0.02,3.23,2.0
1758075779.37634,1758075779.38191,0.0,0.0,0.0,48.07116,-51.27972,12.60507,10.41,0.02,3.23,2.0
1758075779.37724,1758075779.39191,0.0,0.0,0.0,44.748,-52.65482,17.99088,11.12,0.71,3.06,2.0
1758075779.39252,1758075779.40191,0.0,0.0,0.0,38.27358,-43.88857,26.52795,11.12,0.71,3.06,2.0
1758075779.39345,1758075779.41191,0.0,0.0,0.0,34.14828,-39.01843,29.96569,12.48,0.94,2.34,2.0
1758075779.40841,1758075779.42191,0.0,0.0,0.0,31.62727,-38.73195,31.28349,11.02,0.45,1.92,2.0
1758075779.42462,1758075779.43191,0.0,0.0,0.0,31.28349,-41.36755,31.39809,11.02,0.45,1.92,2.0
1758075779.42629,1758075779.44191,0.0,0.0,0.0,34.49206,-42.74266,27.78845,9.49,-0.56,1.39,2.0
1758075779.44132,1758075779.45191,0.0,0.0,0.0,39.01843,-39.70598,23.26209,9.49,-0.56,1.39,2.0
1758075779.44297,1758075779.46191,0.0,0.0,0.0,44.23235,-34.60666,17.6471,9.49,-1.16,1.23,2.0
1758075779.45737,1758075779.47191,0.0,0.0,0.0,50.1911,-28.99167,11.63104,9.49,-1.16,1.23,2.0
1758075779.47323,1758075779.48191,0.0,0.0,0.0,59.81679,-24.57989,3.72423,9.55,-1.5,2.31,2.0
1758075779.47445,1758075779.49191,0.0,0.0,0.0,66.80688,-23.26209,0.57296,8.69,-1.58,2.6,2.0
1758075779.4897,1758075779.50191,0.0,0.0,0.0,73.91156,-20.68378,0.34377,8.69,-1.58,2.6,2.0
1758075779.49133,1758075779.51191,0.0,0.0,0.0,80.44328,-17.13144,2.63561,8.63,-1.15,2.35,2.0
1758075779.50759,1758075779.52191,0.0,0.0,0.0,87.43336,-10.25595,9.5684,8.63,-1.15,2.35,2.0
1758075779.52335,1758075779.53191,0.0,0.0,0.0,90.12627,-3.20856,15.0115,9.82,-0.11,2.08,2.0
1758075779.52481,1758075779.54191,0.0,0.0,0.0,90.41274,5.90147,19.76705,9.82,-0.11,2.08,2.0
1758075779.5394,1758075779.55191,0.0,0.0,0.0,88.29281,15.06879,24.86637,11.76,1.26,1.24,2.0
1758075779.55532,1758075779.56191,0.0,0.0,0.0,81.41731,26.75713,26.87172,12.25,2.47,0.34,2.0
1758075779.55657,1758075779.57191,0.0,0.0,0.0,75.22936,32.77319,27.04361,12.25,2.47,0.34,2.0
1758075779.57135,1758075779.58191,0.0,0.0,0.0,69.27061,35.2942,26.01229,11.67,2.94,0.14,2.0
1758075779.57258,1758075779.59191,0.0,0.0,0.0,61.93674,34.95043,21.94428,11.67,2.94,0.14,2.0
1758075779.58738,1758075779.60191,0.0,0.0,0.0,58.4417,35.12231,17.81899,11.0,2.56,0.35,2.0
1758075779.60363,1758075779.61191,0.0,0.0,0.0,56.03527,35.86716,12.83425,11.0,2.56,0.35,2.0
1758075779.60452,1758075779.62191,0.0,0.0,0.0,54.77477,34.43476,8.02141,10.65,1.81,0.5,2.0
1758075779.61968,1758075779.63191,0.0,0.0,0.0,54.3737,32.71589,2.29183,10.65,1.81,0.81,2.0
1758075779.63567,1758075779.64191,0.0,0.0,0.0,54.3164,31.39809,-0.51566,9.91,1.24,0.81,2.0
1758075779.63695,1758075779.65191,0.0,0.0,0.0,53.45696,28.59059,-2.92208,9.31,0.95,1.01,2.0
1758075779.65272,1758075779.66191,0.0,0.0,0.0,51.79538,24.5226,-4.92744,9.31,0.95,1.01,2.0
1758075779.65362,1758075779.67191,0.0,0.0,0.0,48.52953,18.22006,-7.39116,8.87,1.21,1.08,2.0
1758075779.66868,1758075779.68191,0.0,0.0,0.0,45.20637,17.47521,-9.11003,8.87,1.21,1.08,2.0
1758075779.68468,1758075779.69191,0.0,0.0,0.0,41.94051,17.47521,-9.4538,9.23,1.74,0.88,2.0
1758075779.68516,1758075779.70191,0.0,0.0,0.0,38.56006,17.81899,-9.33921,9.23,1.74,0.88,2.0
1758075779.70074,1758075779.71191,0.0,0.0,0.0,33.74722,16.10011,-7.16197,9.18,2.3,0.89,2.0
1758075779.70164,1758075779.72191,0.0,0.0,0.0,30.48136,14.83961,-5.4431,8.62,2.71,0.89,2.0
1758075779.71639,1758075779.73191,0.0,0.0,0.0,27.38738,13.06344,-3.49504,8.62,2.71,0.89,2.0
1758075779.73253,1758075779.74191,0.0,0.0,0.0,24.57989,10.25595,-1.48969,8.15,2.97,0.6,2.0
1758075779.73614,1758075779.75191,0.0,0.0,0.0,20.97026,4.29718,0.80214,8.15,2.97,0.6,2.0
1758075779.75182,1758075779.76191,0.0,0.0,0.0,19.42327,-2.6929,2.11994,7.82,2.99,0.53,2.0
1758075779.7527,1758075779.77191,0.0,0.0,0.0,17.99088,-11.57375,3.26586,7.82,2.99,0.53,2.0
1758075779.76881,1758075779.78191,0.0,0.0,0.0,17.6471,-28.24682,4.23989,7.61,2.71,0.54,2.0
1758075779.78475,1758075779.79191,0.0,0.0,0.0,16.95955,-39.07573,4.98473,7.91,2.24,0.41,2.0
1758075779.7859,1758075779.80191,0.0,0.0,0.0,16.95955,-45.09178,4.64096,7.91,2.24,0.41,2.0
1758075779.80189,1758075779.81191,0.0,0.0,0.0,17.01685,-25.72581,3.83882,10.75,2.05,0.38,2.0
1758075779.80307,1758075779.82191,0.0,0.0,0.0,16.50119,27.73116,2.29183,10.75,2.05,0.38,2.0
1758075779.81963,1758075779.83191,0.0,0.0,0.0,16.04282,3.89611,-3.60963,12.87,1.85,1.08,2.0
1758075779.8208,1758075779.84191,0.0,0.0,0.0,11.51645,-24.92367,-6.87549,12.87,1.85,1.08,2.0
1758075779.83695,1758075779.85191,0.0,0.0,0.0,9.11003,-38.27358,-11.11538,7.45,2.3,1.43,2.0
1758075779.85254,1758075779.86191,0.0,0.0,0.0,7.21927,-29.39274,-16.21471,10.99,2.26,0.23,2.0
1758075779.85695,1758075779.87191,0.0,0.0,0.0,6.87549,-27.04361,-15.98552,10.99,2.26,0.23,2.0
1758075779.87258,1758075779.88191,0.0,0.0,0.0,8.93814,-34.89313,-13.40721,9.08,2.12,1.88,2.0
1758075779.87376,1758075779.89191,0.0,0.0,0.0,14.49583,-55.51962,-10.59972,9.08,2.12,1.88,2.0
1758075779.89184,1758075779.90191,0.0,0.0,0.0,23.26209,-75.05748,-13.86558,9.31,0.58,5.11,2.0
1758075779.89277,1758075779.91191,0.0,0.0,0.0,29.10626,-72.13539,-16.10011,9.31,0.58,5.11,2.0
1758075779.90782,1758075779.92191,0.0,0.0,0.0,33.80451,-63.19725,-15.75634,12.91,-1.83,2.88,2.0
1758075779.9237,1758075779.93191,0.0,0.0,0.0,37.52874,-58.4417,-10.8289,12.91,-1.83,2.88,2.0
1758075779.92505,1758075779.94191,0.0,0.0,0.0,40.45082,-58.67088,0.57296,11.0,-2.07,2.25,2.0
1758075779.93961,1758075779.95191,0.0,0.0,0.0,40.68,-57.63955,8.36518,8.53,0.05,1.56,2.0
1758075779.94109,1758075779.96191,0.0,0.0,0.0,39.4195,-54.431,15.12609,8.53,0.05,1.56,2.0
1758075779.95654,1758075779.97191,0.0,0.0,0.0,37.18496,-51.5662,22.57454,9.06,1.73,1.4,2.0
1758075779.97162,1758075779.98191,0.0,0.0,0.0,32.83048,-52.82671,24.86637,9.06,1.73,1.4,2.0
1758075779.97284,1758075779.99191,0.0,0.0,0.0,29.56462,-53.62885,24.29341,9.88,2.4,1.31,2.0
1758075779.9916,1758075780.00191,0.0,0.0,0.0,26.24147,-52.884,22.00158,9.88,2.4,1.31,2.0
1758075779.99285,1758075780.01191,0.0,0.0,0.0,21.25674,-47.78468,16.10011,11.59,2.12,1.07,2.0
1758075780.00796,1758075780.02191,0.0,0.0,0.0,17.01685,-43.20102,11.28727,12.0,1.13,0.91,2.0
1758075780.02467,1758075780.03191,0.0,0.0,0.0,11.74564,-38.1017,6.41713,12.0,1.13,0.91,2.0
1758075780.02648,1758075780.04191,0.0,0.0,0.0,6.07335,-31.97105,1.3751,10.9,0.05,0.49,2.0
1758075780.04174,1758075780.05191,0.0,0.0,0.0,-2.40642,-22.51724,-5.50039,10.9,0.05,0.49,2.0
1758075780.044,1758075780.06191,0.0,0.0,0.0,-7.44845,-14.9542,-9.33921,10.14,-0.76,0.12,2.0
1758075780.05979,1758075780.07191,0.0,0.0,0.0,-11.51645,-6.47442,-12.71966,10.14,-0.76,0.12,2.0
1758075780.06066,1758075780.08191,0.0,0.0,0.0,-14.15206,2.92208,-15.87093,10.29,-1.2,-0.2,2.0
1758075780.07622,1758075780.09191,0.0,0.0,0.0,-14.09476,18.62113,-19.88164,11.15,-1.38,-0.29,2.0
1758075780.09197,1758075780.10191,0.0,0.0,0.0,-10.8862,28.41871,-21.02755,11.15,-1.38,-0.29,2.0
1758075780.09402,1758075780.11191,0.0,0.0,0.0,-5.95876,38.56006,-20.62648,11.99,-1.45,-0.26,2.0
1758075780.10883,1758075780.12191,0.0,0.0,0.0,-0.45837,46.75336,-17.87628,11.99,-1.45,-0.26,2.0
1758075780.11063,1758075780.13191,0.0,0.0,0.0,7.04738,53.51426,-11.97482,11.93,-1.33,-0.11,2.0
1758075780.12672,1758075780.14191,0.0,0.0,0.0,10.65701,54.94666,-7.44845,11.93,-1.33,-0.11,2.0
1758075780.14275,1758075780.15191,0.0,0.0,0.0,12.83425,56.60823,-2.57831,11.25,-0.9,-0.06,2.0
1758075780.14712,1758075780.16191,0.0,0.0,0.0,13.5218,59.01466,2.06265,11.25,-0.9,-0.06,2.0
1758075780.16274,1758075780.17191,0.0,0.0,0.0,13.69369,60.67623,7.44845,11.26,-0.4,-0.06,2.0
1758075780.16473,1758075780.18191,0.0,0.0,0.0,13.40721,61.70755,9.28192,10.5,-0.23,-0.25,2.0
1758075780.18191,1758075780.19191,0.0,0.0,0.0,13.46451,62.05133,10.02676,10.5,-0.23,-0.25,2.0
1758075780.18376,1758075780.20191,0.0,0.0,0.0,13.5791,60.27517,7.96411,9.79,-0.26,-0.19,2.0
1758075780.19881,1758075780.21191,0.0,0.0,0.0,14.38124,58.49899,5.50039,9.79,-0.26,-0.19,2.0
1758075780.2011,1758075780.22191,0.0,0.0,0.0,15.41257,55.29043,2.97938,9.37,-0.32,0.02,2.0
1758075780.21682,1758075780.23191,0.0,0.0,0.0,16.67307,50.2484,1.03132,9.37,-0.32,0.02,2.0
1758075780.23378,1758075780.24191,0.0,0.0,0.0,18.56383,43.02913,-0.11459,8.9,-0.54,0.16,2.0
1758075780.24168,1758075780.25191,0.0,0.0,0.0,19.99623,38.38818,0.0,8.76,-0.89,0.19,2.0
1758075780.24212,1758075780.26191,0.0,0.0,0.0,21.37133,33.86181,0.74485,8.76,-0.89,0.19,2.0
1758075780.25795,1758075780.27191,0.0,0.0,0.0,22.91831,30.13758,1.48969,8.56,-1.19,0.11,2.0
1758075780.25979,1758075780.28191,0.0,0.0,0.0,25.55392,27.96034,3.26586,8.56,-1.19,0.11,2.0
1758075780.27583,1758075780.29191,0.0,0.0,0.0,27.50197,30.30947,4.23989,8.79,-1.3,-0.01,2.0
1758075780.29309,1758075780.30191,0.0,0.0,0.0,29.62192,33.51803,4.52637,8.79,-1.3,-0.01,2.0
1758075780.29993,1758075780.31191,0.0,0.0,0.0,32.20023,35.2369,4.46907,9.13,-1.2,-0.23,2.0
1758075780.3003,1758075780.32191,0.0,0.0,0.0,36.89849,34.37747,3.49504,8.88,-1.08,-0.44,2.0
1758075780.3159,1758075780.33191,0.0,0.0,0.0,40.39353,33.05967,2.34913,8.88,-1.08,-0.44,2.0
1758075780.33286,1758075780.34191,0.0,0.0,0.0,43.94586,27.84575,1.71887,8.62,-1.05,-0.9,2.0
1758075780.3343,1758075780.35191,0.0,0.0,0.0,47.15443,17.58981,0.51566,8.62,-1.05,-0.9,2.0
1758075780.34968,1758075780.36191,0.0,0.0,0.0,51.16513,4.1253,-4.64096,7.73,-1.05,-1.05,2.0
1758075780.35086,1758075780.37191,0.0,0.0,0.0,54.431,21.14215,-1.48969,7.73,-1.05,-1.05,2.0
1758075780.36578,1758075780.38191,0.0,0.0,0.0,54.02992,40.62271,-1.20321,11.42,-0.97,-1.01,2.0
1758075780.38183,1758075780.39191,0.0,0.0,0.0,53.80074,58.55629,-1.71887,11.42,-0.97,-1.01,2.0
1758075780.38416,1758075780.40191,0.0,0.0,0.0,51.90998,43.77398,-1.48969,11.7,-0.39,0.51,2.0
1758075780.39978,1758075780.41191,0.0,0.0,0.0,53.74345,-0.51566,3.03668,6.59,0.18,0.16,2.0
1758075780.40085,1758075780.42191,0.0,0.0,0.0,49.84733,-28.30412,3.83882,6.59,0.18,0.16,2.0
1758075780.41596,1758075780.43191,0.0,0.0,0.0,41.88322,-32.83048,4.29718,8.08,0.38,-0.39,2.0
1758075780.43223,1758075780.44191,0.0,0.0,0.0,36.15364,-30.65324,1.77617,8.08,0.38,-0.39,2.0
1758075780.43317,1758075780.45191,0.0,0.0,0.0,31.51268,-42.39888,-0.74485,8.79,0.71,3.29,2.0
1758075780.44828,1758075780.46191,0.0,0.0,0.0,29.56462,-63.77021,0.85944,8.79,0.71,3.29,2.0
1758075780.46403,1758075780.47191,0.0,0.0,0.0,26.24147,-78.43793,8.47978,9.44,1.37,5.69,2.0
1758075780.46719,1758075780.48191,0.0,0.0,0.0,21.31403,-66.17663,13.75099,15.16,3.61,2.38,2.0
1758075780.48197,1758075780.49191,0.0,0.0,0.0,14.03747,-48.24305,19.25138,15.16,3.61,2.38,2.0
1758075780.48371,1758075780.50191,0.0,0.0,0.0,7.79223,-34.37747,19.53786,14.96,3.42,0.58,2.0
1758075780.50199,1758075780.51191,0.0,0.0,0.0,2.86479,-32.20023,15.69904,14.96,3.42,0.58,2.0
1758075780.50318,1758075780.52191,0.0,0.0,0.0,2.00535,-33.40344,11.17268,11.06,1.01,1.18,2.0
1758075780.52048,1758075780.53191,0.0,0.0,0.0,3.66693,-32.14294,5.72958,11.06,1.01,1.18,2.0
1758075780.52162,1758075780.54191,0.0,0.0,0.0,8.59437,-32.08564,1.77617,12.06,-1.01,1.95,2.0
1758075780.53729,1758075780.55191,0.0,0.0,0.0,19.25138,-32.42941,-2.06265,12.66,-2.02,2.32,2.0
1758075780.55702,1758075780.56191,0.0,0.0,0.0,27.2155,-31.2262,-1.94806,12.66,-2.02,2.32,2.0
1758075780.56224,1758075780.57191,0.0,0.0,0.0,36.26823,-29.10626,-0.0573,11.96,-1.78,2.61,2.0
1758075780.56283,1758075780.58191,0.0,0.0,0.0,45.20637,-27.04361,2.40642,11.96,-1.78,2.61,2.0
1758075780.58192,1758075780.59191,0.0,0.0,0.0,57.58226,-23.66316,6.87549,9.71,-0.88,1.98,2.0
1758075780.58471,1758075780.60191,0.0,0.0,0.0,64.45775,-20.11082,9.5684,9.71,-0.88,1.98,2.0
1758075780.60167,1758075780.61191,0.0,0.0,0.0,69.90086,-16.95955,11.51645,8.02,0.23,1.46,2.0
1758075780.60367,1758075780.62191,0.0,0.0,0.0,74.94289,-9.68299,12.37589,8.02,0.23,1.46,2.0
1758075780.62019,1758075780.63191,0.0,0.0,0.0,75.97421,-2.6929,11.45916,7.84,1.12,0.99,2.0
1758075780.62107,1758075780.64191,0.0,0.0,0.0,75.05748,5.09932,9.39651,8.9,1.74,0.81,2.0
1758075780.63714,1758075780.65191,0.0,0.0,0.0,72.47916,14.15206,7.10468,8.9,1.74,0.81,2.0
1758075780.65389,1758075780.66191,0.0,0.0,0.0,65.71826,27.33009,3.83882,9.9,2.24,0.28,2.0
1758075780.65745,1758075780.67191,0.0,0.0,0.0,59.81679,35.86716,2.29183,9.9,2.24,0.28,2.0
1758075780.67393,1758075780.68191,0.0,0.0,0.0,53.17049,43.94586,1.3751,10.5,2.8,-0.22,2.0
1758075780.67545,1758075780.69191,0.0,0.0,0.0,47.15443,50.53488,0.68755,10.5,2.8,-0.22,2.0
1758075780.69126,1758075780.70191,0.0,0.0,0.0,39.64868,57.46767,-0.17189,10.67,2.92,-0.14,2.0
1758075780.69242,1758075780.71191,0.0,0.0,0.0,35.75257,57.41038,-0.45837,10.26,2.42,-0.01,2.0
1758075780.70746,1758075780.72191,0.0,0.0,0.0,33.9764,57.52497,0.51566,10.26,2.42,-0.01,2.0
1758075780.72449,1758075780.73191,0.0,0.0,0.0,33.34615,55.86338,1.20321,9.92,1.83,0.25,2.0
1758075780.72536,1758075780.74191,0.0,0.0,0.0,33.74722,51.73809,1.83346,9.92,1.83,0.25,2.0
1758075780.74121,1758075780.75191,0.0,0.0,0.0,34.49206,49.33167,2.46372,9.5,1.39,0.46,2.0
1758075780.74217,1758075780.76191,0.0,0.0,0.0,35.06502,46.06581,2.7502,9.5,1.39,0.46,2.0
1758075780.75723,1758075780.77191,0.0,0.0,0.0,35.2942,41.59674,2.92208,9.09,1.15,0.65,2.0
1758075780.77527,1758075780.78191,0.0,0.0,0.0,34.43476,32.14294,2.97938,8.42,1.12,0.77,2.0
1758075780.77618,1758075780.79191,0.0,0.0,0.0,33.11696,24.63719,2.63561,8.42,1.12,0.77,2.0
1758075780.7915,1758075780.80191,0.0,0.0,0.0,31.56997,18.10547,1.94806,8.08,1.21,0.71,2.0
1758075780.79244,1758075780.81191,0.0,0.0,0.0,28.476,13.69369,0.40107,8.08,1.21,0.71,2.0
1758075780.80749,1758075780.82191,0.0,0.0,0.0,26.47065,8.99544,-1.14592,8.33,1.43,0.61,2.0
1758075780.8235,1758075780.83191,0.0,0.0,0.0,24.23611,8.136,-2.86479,8.33,1.43,0.61,2.0
1758075780.8244,1758075780.84191,0.0,0.0,0.0,22.28806,8.47978,-4.1253,8.65,1.6,0.5,2.0
1758075780.83952,1758075780.85191,0.0,0.0,0.0,19.82434,5.55769,-5.09932,8.65,1.6,0.5,2.0
1758075780.84047,1758075780.86191,0.0,0.0,0.0,18.90761,4.0107,-4.35448,8.62,1.6,0.19,2.0
1758075780.85624,1758075780.87191,0.0,0.0,0.0,17.99088,5.4431,-3.20856,8.9,1.45,-0.04,2.0
1758075780.87223,1758075780.88191,0.0,0.0,0.0,17.53251,7.96411,-1.3178,8.9,1.45,-0.04,2.0
1758075780.87349,1758075780.89191,0.0,0.0,0.0,16.90226,10.54242,1.60428,9.47,1.28,-0.02,2.0
1758075780.8901,1758075780.90191,0.0,0.0,0.0,16.21471,10.02676,3.66693,9.47,1.28,-0.02,2.0
1758075780.8911,1758075780.91191,0.0,0.0,0.0,15.24068,9.22462,5.90147,9.43,1.14,-0.14,2.0
1758075780.90638,1758075780.92191,0.0,0.0,0.0,13.75099,6.99009,7.73493,9.43,1.14,-0.14,2.0
1758075780.9223,1758075780.93191,0.0,0.0,0.0,9.4538,15.12609,9.68299,9.52,1.17,-0.32,2.0
1758075780.92546,1758075780.94191,0.0,0.0,0.0,5.90147,33.05967,9.96947,11.24,1.53,-0.24,2.0
1758075780.94134,1758075780.95191,0.0,0.0,0.0,3.26586,46.1231,12.14671,11.24,1.53,-0.24,2.0
1758075780.94233,1758075780.96191,0.0,0.0,0.0,0.97403,40.27893,14.72501,9.95,2.05,0.05,2.0
1758075780.95913,1758075780.97191,0.0,0.0,0.0,-5.55769,4.18259,9.68299,9.95,2.05,0.05,2.0
1758075780.96193,1758075780.98191,0.0,0.0,0.0,-9.96947,-5.21392,8.30789,7.45,2.54,0.12,2.0
1758075780.97943,1758075780.99191,0.0,0.0,0.0,-14.15206,-8.47978,5.4431,7.45,2.54,0.12,2.0
1758075780.98114,1758075781.00191,0.0,0.0,0.0,-17.24603,-8.88085,4.1253,8.97,2.86,-0.66,2.0
1758075780.99637,1758075781.01191,0.0,0.0,0.0,-20.22541,-8.02141,2.11994,9.57,2.81,0.91,2.0
1758075781.01249,1758075781.02191,0.0,0.0,0.0,-20.45459,-10.48513,1.14592,9.57,2.81,0.91,2.0
1758075781.01437,1758075781.03191,0.0,0.0,0.0,-19.19409,-14.43854,1.20321,9.91,2.01,1.4,2.0
1758075781.02949,1758075781.04191,0.0,0.0,0.0,-16.3293,-23.31938,1.3751,9.91,2.01,1.4,2.0
1758075781.03249,1758075781.05191,0.0,0.0,0.0,-13.69369,-32.20023,1.3751,10.91,1.3,3.01,2.0
1758075781.04872,1758075781.06191,0.0,0.0,0.0,-10.54242,-44.51882,-1.14592,10.91,1.3,3.01,2.0
1758075781.05118,1758075781.07191,0.0,0.0,0.0,-6.58902,-59.18654,-6.07335,12.88,0.31,4.82,2.0
1758075781.06776,1758075781.08191,0.0,0.0,0.0,-1.08862,-61.59297,-16.73037,12.88,0.31,4.5,2.0
1758075781.08601,1758075781.09191,0.0,0.0,0.0,2.46372,-47.03984,-19.88164,15.99,-1.62,4.5,2.0
1758075781.0872,1758075781.10191,0.0,0.0,0.0,4.87014,-36.6693,-18.62113,14.93,-1.45,1.79,2.0
1758075781.10242,1758075781.11191,0.0,0.0,0.0,5.15662,-35.2942,-15.58445,14.93,-1.45,1.79,2.0
1758075781.10639,1758075781.12191,0.0,0.0,0.0,2.34913,-43.37291,-8.47978,9.08,0.86,1.74,2.0
1758075781.12222,1758075781.13191,0.0,0.0,0.0,-1.20321,-44.51882,-2.86479,9.08,0.86,1.74,2.0
1758075781.12345,1758075781.14191,0.0,0.0,0.0,-6.47442,-41.36755,1.3751,8.22,2.29,1.49,2.0
1758075781.1405,1758075781.15191,0.0,0.0,0.0,-13.17803,-42.57077,3.32316,8.22,2.29,1.49,2.0
1758075781.14143,1758075781.16191,0.0,0.0,0.0,-23.20479,-46.52417,1.83346,8.45,2.88,2.34,2.0
1758075781.15671,1758075781.17191,0.0,0.0,0.0,-29.56462,-45.77933,-0.68755,9.11,3.13,3.06,2.0
1758075781.17489,1758075781.18191,0.0,0.0,0.0,-35.40879,-44.51882,-3.66693,9.11,3.13,3.06,2.0
1758075781.17768,1758075781.19191,0.0,0.0,0.0,-40.85189,-42.97184,-6.70361,9.61,2.4,2.41,2.0
1758075781.18098,1758075781.20191,0.0,0.0,0.0,-47.89928,-38.27358,-12.08941,9.61,2.4,2.41,2.0
1758075781.19725,1758075781.21191,0.0,0.0,0.0,-50.76406,-31.74186,-15.58445,10.0,0.96,1.76,2.0
1758075781.21507,1758075781.22191,0.0,0.0,0.0,-52.25375,-24.29341,-17.99088,10.0,0.96,1.76,2.0
1758075781.21651,1758075781.23191,0.0,0.0,0.0,-51.79538,-16.38659,-19.76705,10.29,-0.44,1.02,2.0
1758075781.23178,1758075781.24191,0.0,0.0,0.0,-49.56085,-4.58366,-19.99623,10.36,-1.2,0.77,2.0
1758075781.23269,1758075781.25191,0.0,0.0,0.0,-46.52417,2.86479,-19.19409,10.36,-1.2,0.77,2.0
1758075781.2493,1758075781.26191,0.0,0.0,0.0,-43.02913,9.74028,-17.6471,10.56,-1.06,0.74,2.0
1758075781.25206,1758075781.27191,0.0,0.0,0.0,-37.87251,21.7724,-13.98017,10.56,-1.06,0.74,2.0
1758075781.26959,1758075781.28191,0.0,0.0,0.0,-35.58068,29.96569,-11.00079,10.85,-0.35,0.48,2.0
1758075781.27147,1758075781.29191,0.0,0.0,0.0,-34.43476,37.81522,-8.88085,10.85,-0.35,0.48,2.0
1758075781.28781,1758075781.30191,0.0,0.0,0.0,-34.26288,45.60744,-7.21927,10.82,0.26,0.3,2.0
1758075781.30376,1758075781.31191,0.0,0.0,0.0,-35.92446,54.88936,-5.84417,10.37,0.26,0.11,2.0
1758075781.30484,1758075781.32191,0.0,0.0,0.0,-37.29956,58.78547,-6.53172,10.37,0.61,0.11,2.0
1758075781.32161,1758075781.33191,0.0,0.0,0.0,-38.61736,62.85347,-7.33386,9.89,0.64,0.03,2.0
1758075781.32387,1758075781.34191,0.0,0.0,0.0,-40.16434,67.43713,-8.59437,9.89,0.64,0.03,2.0
1758075781.34102,1758075781.35191,0.0,0.0,0.0,-42.28429,69.3279,-10.65701,9.47,0.55,0.22,2.0
1758075781.34217,1758075781.36191,0.0,0.0,0.0,-42.91454,68.98412,-11.57375,9.47,0.55,0.22,2.0
1758075781.35761,1758075781.37191,0.0,0.0,0.0,-43.37291,68.35387,-12.08941,8.78,0.35,0.49,2.0
1758075781.37484,1758075781.38191,0.0,0.0,0.0,-43.20102,66.40582,-12.08941,8.78,0.35,0.49,2.0
1758075781.37573,1758075781.39191,0.0,0.0,0.0,-42.57077,61.65026,-11.91752,8.4,0.12,0.48,2.0
1758075781.39059,1758075781.40191,0.0,0.0,0.0,-41.42485,56.55093,-11.51645,8.16,-0.14,0.75,2.0
1758075781.39258,1758075781.41191,0.0,0.0,0.0,-39.82057,49.04519,-10.8289,8.16,-0.14,0.75,2.0
1758075781.40771,1758075781.42191,0.0,0.0,0.0,-37.58603,39.4195,-11.22997,7.89,-0.5,0.82,2.0
1758075781.42382,1758075781.43191,0.0,0.0,0.0,-33.68992,27.67386,-11.11538,7.89,-0.5,0.82,2.0
1758075781.4259,1758075781.44191,0.0,0.0,0.0,-30.19488,23.20479,-11.34457,8.07,-1.08,0.72,2.0
1758075781.44166,1758075781.45191,0.0,0.0,0.0,-26.35606,19.59516,-11.91752,8.07,-1.08,0.72,2.0
1758075781.44286,1758075781.46191,0.0,0.0,0.0,-20.22541,12.204,-12.43318,8.26,-1.72,0.29,2.0
1758075781.45788,1758075781.47191,0.0,0.0,0.0,-15.69904,5.27121,-12.60507,8.2,-2.01,0.35,2.0
1758075781.47439,1758075781.48191,0.0,0.0,0.0,-10.8862,-5.09932,-12.2613,8.2,-2.01,0.35,2.0
1758075781.47722,1758075781.49191,0.0,0.0,0.0,-6.99009,-21.31403,-12.49048,7.51,-1.92,-0.08,2.0
1758075781.49263,1758075781.50191,0.0,0.0,0.0,-3.26586,-34.14828,-14.38124,7.51,-1.92,-0.08,2.0
1758075781.49385,1758075781.51191,0.0,0.0,0.0,-0.74485,-29.56462,-14.32395,8.75,-1.53,-0.1,2.0
1758075781.50872,1758075781.52191,0.0,0.0,0.0,2.40642,-26.18417,-13.17803,8.75,-1.53,-0.1,2.0
1758075781.52491,1758075781.53191,0.0,0.0,0.0,5.09932,-24.23611,-12.2613,10.43,-1.22,0.56,2.0
1758075781.52591,1758075781.54191,0.0,0.0,0.0,7.73493,-20.74107,-12.83425,11.27,-1.09,1.04,2.0
1758075781.54099,1758075781.55191,0.0,0.0,0.0,6.41713,-23.66316,-14.20935,11.27,-1.09,1.04,2.0
1758075781.54188,1758075781.56191,0.0,0.0,0.0,4.29718,-31.11161,-16.04282,11.36,-0.67,2.07,2.0
1758075781.55695,1758075781.57191,0.0,0.0,0.0,0.45837,-42.68536,-16.38659,11.36,-0.67,2.07,2.0
1758075781.57298,1758075781.58191,0.0,0.0,0.0,-10.08406,-61.59297,-13.23533,12.45,0.44,5.52,2.0
1758075781.5739,1758075781.59191,0.0,0.0,0.0,-17.81899,-98.49145,-6.47442,12.45,0.44,5.52,2.0
1758075781.58976,1758075781.60191,0.0,0.0,0.0,-21.7151,-132.63974,5.15662,11.64,3.59,6.03,2.0
1758075781.59147,1758075781.61191,0.0,0.0,0.0,-26.98631,-132.69704,17.36062,11.64,3.59,6.03,2.0
1758075781.6076,1758075781.62191,0.0,0.0,0.0,-36.61201,-94.42345,17.87628,14.35,5.0,1.38,2.0
1758075781.61367,1758075781.63191,0.0,0.0,0.0,-40.62271,-88.2355,17.99088,12.44,2.56,-0.55,2.0
1758075781.6313,1758075781.64191,0.0,0.0,0.0,-44.28964,-82.67782,16.04282,12.44,2.56,-0.55,2.0
1758075781.63233,1758075781.65191,0.0,0.0,0.0,-46.1804,-74.59911,11.86023,10.9,-0.47,2.42,2.0
1758075781.64775,1758075781.66191,0.0,0.0,0.0,-43.31561,-62.28051,10.71431,10.9,-0.47,2.42,2.0
1758075781.65207,1758075781.67191,0.0,0.0,0.0,-37.35685,-56.952,11.34457,11.33,-1.41,2.3,2.0
1758075781.66783,1758075781.68191,0.0,0.0,0.0,-29.56462,-52.54023,12.77696,11.33,-1.41,2.3,2.0
1758075781.68509,1758075781.69191,0.0,0.0,0.0,-15.64175,-47.78468,11.86023,11.62,-1.02,3.64,2.0
1758075781.68637,1758075781.70191,0.0,0.0,0.0,-6.70361,-41.76862,11.11538,10.98,0.37,2.42,2.0
1758075781.70184,1758075781.71191,0.0,0.0,0.0,0.85944,-30.36677,10.25595,10.98,0.37,2.42,2.0
1758075781.70305,1758075781.72191,0.0,0.0,0.0,6.7609,-16.73037,8.59437,11.08,1.34,1.71,2.0
1758075781.71796,1758075781.73191,0.0,0.0,0.0,11.91752,-0.57296,6.8182,11.08,1.34,1.71,2.0
1758075781.7241,1758075781.74191,0.0,0.0,0.0,12.83425,9.05273,6.47442,10.13,1.66,1.34,2.0
1758075781.7416,1758075781.75191,0.0,0.0,0.0,11.80293,19.13679,6.24524,10.13,1.66,1.34,2.0
1758075781.74275,1758075781.76191,0.0,0.0,0.0,9.05273,29.67921,5.84417,9.89,1.8,0.9,2.0
1758075781.75796,1758075781.77191,0.0,0.0,0.0,2.63561,45.03448,4.23989,9.82,1.97,0.42,2.0
1758075781.7764,1758075781.78191,0.0,0.0,0.0,-1.94806,53.91533,3.49504,9.82,1.97,0.42,2.0
1758075781.7776,1758075781.79191,0.0,0.0,0.0,-7.33386,62.68159,1.3751,9.49,2.18,0.33,2.0
1758075781.78263,1758075781.80191,0.0,0.0,0.0,-11.63104,69.84356,-0.11459,9.49,2.18,0.33,2.0
1758075781.80014,1758075781.81191,0.0,0.0,0.0,-17.18874,76.31798,-3.20856,9.0,2.27,0.37,2.0
1758075781.80188,1758075781.82191,0.0,0.0,0.0,-20.22541,78.26604,-4.81285,9.0,2.27,0.37,2.0
1758075781.81789,1758075781.83191,0.0,0.0,0.0,-22.00158,79.64114,-6.18794,8.6,2.18,0.58,2.0
1758075781.83521,1758075781.84191,0.0,0.0,0.0,-22.97561,78.03686,-7.50575,8.6,2.18,0.58,2.0
1758075781.83729,1758075781.85191,0.0,0.0,0.0,-23.94964,71.04677,-8.25059,8.5,1.91,0.95,2.0
1758075781.85209,1758075781.86191,0.0,0.0,0.0,-24.00693,65.43179,-8.02141,8.39,1.52,1.04,2.0
1758075781.85394,1758075781.87191,0.0,0.0,0.0,-24.29341,60.73353,-7.62034,8.39,1.52,1.04,2.0
1758075781.86878,1758075781.88191,0.0,0.0,0.0,-24.35071,54.3737,-6.47442,8.73,1.14,1.07,2.0
1758075781.87168,1758075781.89191,0.0,0.0,0.0,-24.57989,49.79003,-5.78687,8.73,1.14,1.07,2.0
1758075781.88792,1758075781.90191,0.0,0.0,0.0,-24.92367,44.8053,-5.15662,8.6,0.88,1.0,2.0
1758075781.89143,1758075781.91191,0.0,0.0,0.0,-25.15285,40.16434,-4.35448,8.6,0.88,1.0,2.0
1758075781.90714,1758075781.92191,0.0,0.0,0.0,-24.5226,31.79916,-4.1253,8.53,0.81,0.95,2.0
1758075781.92373,1758075781.93191,0.0,0.0,0.0,-24.00693,25.43933,-4.35448,8.42,0.8,1.02,2.0
1758075781.92692,1758075781.94191,0.0,0.0,0.0,-23.60586,19.76705,-4.98473,8.42,0.8,1.02,2.0
1758075781.94195,1758075781.95191,0.0,0.0,0.0,-23.0902,16.73037,-5.78687,8.78,0.76,0.87,2.0
1758075781.94318,1758075781.96191,0.0,0.0,0.0,-23.49127,16.272,-6.53172,8.78,0.76,0.87,2.0
1758075781.95976,1758075781.97191,0.0,0.0,0.0,-23.66316,16.90226,-6.7609,9.41,0.69,0.63,2.0
1758075781.96161,1758075781.98191,0.0,0.0,0.0,-24.4653,15.06879,-6.8182,9.41,0.69,0.63,2.0
1758075781.97701,1758075781.99191,0.0,0.0,0.0,-25.55392,9.85487,-6.41713,9.32,0.67,0.35,2.0
1758075781.99381,1758075782.00191,0.0,0.0,0.0,-27.44468,-2.97938,-4.52637,8.49,0.73,-0.05,2.0
1758075781.9998,1758075782.01191,0.0,0.0,0.0,-28.59059,-13.5218,-2.86479,8.49,0.73,-0.05,2.0
1758075782.00122,1758075782.02191,0.0,0.0,0.0,-30.25217,-24.75178,-0.40107,7.45,1.0,-0.47,2.0
1758075782.01786,1758075782.03191,0.0,0.0,0.0,-32.14294,-35.00772,1.77617,7.45,1.0,-0.47,2.0
1758075782.03409,1758075782.04191,0.0,0.0,0.0,-35.92446,-43.02913,5.90147,7.38,1.4,-0.11,2.0
1758075782.03566,1758075782.05191,0.0,0.0,0.0,-39.4195,-34.32018,6.7609,7.38,1.4,-0.11,2.0
1758075782.05183,1758075782.06191,0.0,0.0,0.0,-44.17505,-18.33465,6.53172,9.93,1.61,0.35,2.0
1758075782.05307,1758075782.07191,0.0,0.0,0.0,-49.90463,2.92208,9.4538,9.93,1.61,0.35,2.0
1758075782.06996,1758075782.08191,0.0,0.0,0.0,-51.27972,-23.0329,7.44845,11.64,1.52,1.15,2.0
1758075782.07185,1758075782.09191,0.0,0.0,0.0,-52.54023,-38.61736,6.35983,8.22,1.29,0.72,2.0
1758075782.08832,1758075782.10191,0.0,0.0,0.0,-54.431,-48.58683,4.0107,8.22,1.29,0.72,2.0
1758075782.10432,1758075782.11191,0.0,0.0,0.0,-54.66018,-48.9879,4.46907,9.79,0.63,-0.09,2.0
1758075782.10604,1758075782.12191,0.0,0.0,0.0,-53.45696,-42.68536,6.24524,9.79,0.63,-0.09,2.0
1758075782.1214,1758075782.13191,0.0,0.0,0.0,-51.79538,-38.84654,9.62569,11.05,-0.1,1.59,2.0
1758075782.1223,1758075782.14191,0.0,0.0,0.0,-50.01921,-44.46153,12.2613,11.05,-0.1,1.59,2.0
1758075782.13734,1758075782.15191,0.0,0.0,0.0,-48.01387,-66.29122,11.74564,10.38,0.31,2.83,2.0
1758075782.1539,1758075782.16191,0.0,0.0,0.0,-47.38361,-82.50593,8.47978,11.01,0.61,4.94,2.0
1758075782.15764,1758075782.17191,0.0,0.0,0.0,-47.95657,-98.49145,0.17189,11.01,0.61,4.94,2.0
1758075782.17311,1758075782.18191,0.0,0.0,0.0,-47.15443,-101.01247,-9.74028,14.26,0.12,5.38,2.0
1758075782.17424,1758075782.19191,0.0,0.0,0.0,-42.34158,-82.90699,-23.26209,14.26,0.12,5.38,2.0
1758075782.19244,1758075782.20191,0.0,0.0,0.0,-39.87786,-68.86953,-28.13223,16.68,-0.73,3.62,2.0
1758075782.19445,1758075782.21191,0.0,0.0,0.0,-39.64868,-59.87409,-30.59595,16.68,-0.73,3.62,2.0
1758075782.21104,1758075782.22191,0.0,0.0,0.0,-40.33623,-56.83742,-30.36677,12.67,0.06,2.61,2.0
1758075782.21192,1758075782.23191,0.0,0.0,0.0,-44.28964,-55.97798,-31.28349,10.09,1.02,1.9,2.0
1758075782.22723,1758075782.24191,0.0,0.0,0.0,-48.8733,-46.1231,-30.65324,10.09,1.02,1.9,2.0
1758075782.24414,1758075782.25191,0.0,0.0,0.0,-54.14451,-32.48671,-28.70519,11.29,1.97,1.26,2.0
1758075782.24693,1758075782.26191,0.0,0.0,0.0,-59.75951,-20.45459,-25.26744,11.29,1.97,1.26,2.0
1758075782.26253,1758075782.27191,0.0,0.0,0.0,-65.2026,-7.33386,-23.37668,10.95,2.23,1.88,2.0
1758075782.26378,1758075782.28191,0.0,0.0,0.0,-66.34852,-1.03132,-20.85567,10.95,2.23,1.88,2.0
1758075782.27841,1758075782.29191,0.0,0.0,0.0,-66.635,7.67763,-19.36597,10.42,1.11,1.69,2.0
1758075782.29616,1758075782.30191,0.0,0.0,0.0,-64.80153,18.44924,-15.75634,10.42,1.11,1.69,2.0
1758075782.2972,1758075782.31191,0.0,0.0,0.0,-62.96807,26.35606,-13.98017,10.68,-0.17,0.87,2.0
1758075782.31237,1758075782.32191,0.0,0.0,0.0,-60.73353,33.51803,-11.97482,10.63,-0.97,0.4,2.0
1758075782.31419,1758075782.33191,0.0,0.0,0.0,-58.55629,41.08107,-10.54242,10.63,-0.97,0.4,2.0
1758075782.32942,1758075782.34191,0.0,0.0,0.0,-55.11855,51.50891,-9.85487,9.99,-1.15,0.21,2.0
1758075782.346,1758075782.35191,0.0,0.0,0.0,-53.11319,55.86338,-10.02676,9.99,-1.15,0.21,2.0
1758075782.34721,1758075782.36191,0.0,0.0,0.0,-51.5662,59.70221,-11.11538,8.93,-0.84,0.2,2.0
1758075782.36221,1758075782.37191,0.0,0.0,0.0,-50.13381,61.53567,-12.37589,8.93,-0.84,0.2,2.0
1758075782.36367,1758075782.38191,0.0,0.0,0.0,-49.04519,63.31184,-13.75099,8.29,-0.35,0.44,2.0
1758075782.37854,1758075782.39191,0.0,0.0,0.0,-48.24305,63.65561,-14.72501,8.11,0.0,0.73,2.0
1758075782.38164,1758075782.40191,0.0,0.0,0.0,-46.98254,62.16592,-15.29797,8.11,0.0,0.73,2.0
1758075782.39725,1758075782.41191,0.0,0.0,0.0,-45.43555,59.18654,-16.38659,7.73,0.04,0.96,2.0
1758075782.40227,1758075782.42191,0.0,0.0,0.0,-41.88322,53.11319,-16.38659,7.73,0.04,0.96,2.0
1758075782.41953,1758075782.43191,0.0,0.0,0.0,-39.19032,49.38896,-15.29797,7.83,-0.2,1.09,2.0
1758075782.43556,1758075782.44191,0.0,0.0,0.0,-36.7266,45.37826,-13.5218,7.83,-0.2,1.09,2.0
1758075782.43806,1758075782.45191,0.0,0.0,0.0,-34.49206,41.59674,-11.63104,8.05,-0.56,0.9,2.0
1758075782.44169,1758075782.46191,0.0,0.0,0.0,-31.85646,36.95578,-8.59437,8.38,-0.72,0.96,2.0
1758075782.45746,1758075782.47191,0.0,0.0,0.0,-30.19488,34.14828,-6.35983,8.38,-0.72,0.96,2.0
1758075782.47433,1758075782.48191,0.0,0.0,0.0,-28.59059,30.76784,-4.35448,8.63,-0.66,0.91,2.0
1758075782.47796,1758075782.49191,0.0,0.0,0.0,-26.12688,27.50197,-2.11994,8.63,-0.66,0.91,2.0
1758075782.49534,1758075782.50191,0.0,0.0,0.0,-24.23611,26.75713,-2.06265,9.02,-0.51,0.79,2.0
1758075782.4977,1758075782.51191,0.0,0.0,0.0,-22.28806,26.24147,-2.00535,9.02,-0.51,0.79,2.0
1758075782.50181,1758075782.52191,0.0,0.0,0.0,-19.53786,22.40265,-2.6929,9.38,-0.42,0.46,2.0
1758075782.51764,1758075782.53191,0.0,0.0,0.0,-14.66772,12.54778,-5.4431,9.38,-0.42,0.46,2.0
1758075782.52158,1758075782.54191,0.0,0.0,0.0,-10.94349,4.52637,-7.21927,8.98,-0.52,-0.02,2.0
1758075782.53637,1758075782.55191,0.0,0.0,0.0,-6.99009,-4.92744,-8.76626,8.59,-0.91,-0.26,2.0
1758075782.55263,1758075782.56191,0.0,0.0,0.0,-3.38045,-21.08485,-9.33921,8.59,-0.91,-0.26,2.0
1758075782.5576,1758075782.57191,0.0,0.0,0.0,0.45837,-39.87786,-12.14671,7.95,-1.27,-0.37,2.0
1758075782.57229,1758075782.58191,0.0,0.0,0.0,2.46372,-36.55471,-13.46451,7.95,-1.27,-0.37,2.0
1758075782.57432,1758075782.59191,0.0,0.0,0.0,4.35448,-32.77319,-11.74564,10.43,-1.47,0.11,2.0
1758075782.5897,1758075782.60191,0.0,0.0,0.0,6.24524,-29.9084,-10.48513,10.43,-1.47,0.11,2.0
1758075782.59198,1758075782.61191,0.0,0.0,0.0,7.33386,-21.31403,-8.0787,11.62,-1.33,0.75,2.0
1758075782.60771,1758075782.62191,0.0,0.0,0.0,7.16197,-22.57454,-7.96411,12.07,-0.64,1.36,2.0
1758075782.62368,1758075782.63191,0.0,0.0,0.0,7.16197,-28.01764,-8.47978,12.07,-0.64,1.36,2.0
1758075782.62494,1758075782.64191,0.0,0.0,0.0,6.18794,-39.07573,-8.88085,10.79,-0.17,2.02,2.0
1758075782.63964,1758075782.65191,0.0,0.0,0.0,4.64096,-54.71747,-7.79223,10.79,-0.17,2.02,2.0
