time,hip_angle_l,hip_angle_l_velocity,hip_angle_l_velocity_filt,hip_angle_l_torque_estimated,hip_angle_l_torque_desired,hip_angle_l_torque_measured,hip_angle_l_torque_interaction,knee_angle_l,knee_angle_l_velocity,knee_angle_l_velocity_filt,knee_angle_l_torque_estimated,knee_angle_l_torque_desired,knee_angle_l_torque_measured,knee_angle_l_torque_interaction,thigh_imu_l_accel_x,thigh_imu_l_accel_y,thigh_imu_l_accel_z,thigh_imu_l_gyro_x,thigh_imu_l_gyro_y,thigh_imu_l_gyro_z,shank_imu_l_accel_x,shank_imu_l_accel_y,shank_imu_l_accel_z,shank_imu_l_gyro_x,shank_imu_l_gyro_y,shank_imu_l_gyro_z,foot_imu_l_accel_x,foot_imu_l_accel_y,foot_imu_l_accel_z,foot_imu_l_gyro_x,foot_imu_l_gyro_y,foot_imu_l_gyro_z,insole_l_force_y,insole_l_cop_x,insole_l_cop_z,hip_angle_r,hip_angle_r_velocity,hip_angle_r_velocity_filt,hip_angle_r_torque_estimated,hip_angle_r_torque_desired,hip_angle_r_torque_measured,hip_angle_r_torque_interaction,knee_angle_r,knee_angle_r_velocity,knee_angle_r_velocity_filt,knee_angle_r_torque_estimated,knee_angle_r_torque_desired,knee_angle_r_torque_measured,knee_angle_r_torque_interaction,thigh_imu_r_accel_x,thigh_imu_r_accel_y,thigh_imu_r_accel_z,thigh_imu_r_gyro_x,thigh_imu_r_gyro_y,thigh_imu_r_gyro_z,shank_imu_r_accel_x,shank_imu_r_accel_y,shank_imu_r_accel_z,shank_imu_r_gyro_x,shank_imu_r_gyro_y,shank_imu_r_gyro_z,foot_imu_r_accel_x,foot_imu_r_accel_y,foot_imu_r_accel_z,foot_imu_r_gyro_x,foot_imu_r_gyro_y,foot_imu_r_gyro_z,insole_r_force_y,insole_r_cop_x,insole_r_cop_z
0,5.86028226852417,0.13118476542525,-1.40989569161442,-0.060828408933392,-0.792043657349916,0.00639659524073955,0.00639662573698596,2.38874486804009,0.358745723962784,-1.17313446188124,-0.0420760752553795,-0.399328659280373,0.00239461385180452,0.00232868022778138,0.0500000000000114,9.7677238731302,0.532276126869762,0.0853142067643358,-0.640270821791502,-0.137506955986269,0.00682838060932892,9.63,-1.72455225373958,0.098166491570354,-0.0684540077289399,0.0695595540510358,-1.42797684270073,9.49080155847477,0.0261307444313574,1.75,-0.443899339596568,-7.36906730172108,410.861936565111,-0.230157844811727,0.00184777086800819,10.4950476455688,-2.67453035953028,-0.986173696458909,-0.106258547312423,-1.34841380458524,-0.00639659524073955,-0.00639659520253926,3.20728809356689,0.749616882215371,0.567412923124885,-0.0724002774481374,-0.694329307384162,-0.00439560459926724,-0.00457688632459832,-1.07544774626043,9.72772387313024,-0.695447746260436,0.334945485449117,-0.804587893711935,0.326515385931412,-0.95682838060933,9.67000000000002,1.27999999999997,0.194121890496573,-0.253040252385726,0.42417527170806,-1.50886237621307,9.62318897247314,0.237106949090958,-1.53999996185303,1.19000005722046,4.05999994277954,514,-0.176597625017166,-0.00387887074612081
0.005,5.86028226852417,0.695739537278453,-1.1956070832353,-0.060767535110035,-0.790467629206671,0.00870236889546319,0.00870244601245619,2.38874486804009,0.358745723962784,-1.00442640716643,-0.0421395481177378,-0.403203426258262,8.8840074946419e-05,-1.52237924563093e-05,0.0500000000000114,9.76510105558055,0.534898944419427,0.0982663921947129,-0.624080590003527,-0.153697187774244,0.0146968332582787,9.63,-1.72979788883888,0.0690240743520017,-0.0619779150137439,0.0501312759054626,-1.42860501637853,9.4845197591639,0.0286434244864336,1.75,-0.471438913237334,-7.35070753384987,409.550527790285,-0.231282990445394,-0.000440922404667238,10.4950476455688,-2.86271526003153,-1.2566562582153,-0.105822492734177,-1.34757619811435,-0.00870236889546319,-0.0087023688374475,3.20728809356689,0.373247042129841,0.601385576556833,-0.0724798483584226,-0.694360133090432,-0.00439560459926724,-0.00472618707752077,-1.07020211116113,9.72510105558059,-0.690202111161136,0.279898697369995,-0.707446502984069,0.261754458779497,-0.964696833258295,9.67000000000002,1.27999999999997,0.161741426920623,-0.217421742452177,0.372366529986536,-1.50886237621307,9.62318897247314,0.237106949090958,-1.53999996185303,1.19000005722046,4.05999994277954,514,-0.176597625017166,-0.00387887074612081
0.01,5.86028226852417,1.26032122986848,-0.981308256525705,-0.0607066583839158,-0.788891525910685,0.0110082525007688,0.0110084248887598,2.38874486804009,0.358745723962784,-0.835710307625208,-0.0422030240067931,-0.407078378004021,-0.00221704365249949,-0.00236739973840882,0.0500000000000114,9.76247811296212,0.53752188703788,0.111219195248734,-0.607889586185997,-0.169888191591774,0.022565661113592,9.63,-1.73504377407576,0.0398802674804511,-0.055501513486726,0.030702071324424,-1.42923322001073,9.47823766030606,0.0311562243584025,1.75,-0.498979800099865,-7.33234689049499,408.239056481065,-0.232408189731515,-0.00272972481344837,10.4950476455688,-3.05090913411061,-1.5271517179051,-0.105386417362712,-1.34673855170229,-0.0110082525007688,-0.0110082524218243,3.20728809356689,-0.0031407451131964,0.6353598499713,-0.0725594230630386,-0.694390960266623,-0.00439560459926724,-0.00492895048824299,-1.06495622592426,9.72247811296215,-0.684956225924261,0.224849284390388,-0.610300480078875,0.196990443509363,-0.972565661113623,9.67000000000002,1.27999999999997,0.129359419285563,-0.181801534053609,0.320555317770438,-1.50886237621307,9.62318897247314,0.237106949090958,-1.53999996185303,1.19000005722046,4.05999994277954,514,-0.176597625017166,-0.00387887074612081
0.015,5.86028226852417,1.79372870922089,-0.754737927904375,-0.0606616484019696,-0.787312941107869,0.0131868133321404,0.0131870848452187,2.38874486804009,0.358745723962784,-0.663313742502141,-0.0423358081832928,-0.410843468289975,-0.00400438074976863,-0.00416907456127279,0.0501483390386922,9.76029667807735,0.54000000000002,0.120160367041642,-0.58966243874212,-0.18610085826344,0.0302966780773352,9.63,-1.74000000000001,0.0130782174749773,-0.0491995814337095,0.0123456790123555,-1.43025306533379,9.47301298378905,0.0335658037493677,1.75103837404884,-0.524480790017894,-7.31500005722046,407.296678077362,-0.23333561857883,-0.00486660123479874,10.4950476455688,-3.2074252067426,-1.79561530429597,-0.104977011400507,-1.34586126348523,-0.0130564053869126,-0.0130564053071863,3.20696385090193,-0.369388923569579,0.658937436591464,-0.0726727838360034,-0.694518195178743,-0.00452601254449506,-0.00516057834906525,-1.06,9.72000000000003,-0.680000000000007,0.172473236941552,-0.517053441593289,0.134154257594897,-0.979554982883975,9.67000000000002,1.27999999999997,0.0985822974831315,-0.154924128927407,0.269407322883727,-1.50904001295318,9.6226560657895,0.237035894129663,-1.54103833590186,1.19103842950096,4.05584645012088,514.059335615472,-0.176599535486566,-0.00380469158891755
0.02,5.86028226852417,1.79372870922089,-0.317818325983366,-0.0608883226543006,-0.785690495318785,0.0131868133321404,0.0131871859457781,2.38874486804009,0.358745723962784,-0.427739008317864,-0.043655634011996,-0.412730399652619,0.00308701645998491,0.00291245526658813,0.0528371604036141,9.7656743208072,0.54000000000002,0.0604087811544336,-0.536549917953481,-0.2026985210099,0.0356743208071942,9.63,-1.74000000000001,0.0263563476721296,-0.0458800488844176,0.0123456790123555,-1.43798078300601,9.48589249187392,0.0342097815576051,1.76986013770674,-0.515069924215568,-7.31500005722046,412.674320807211,-0.230876966142075,-0.00440354279138526,10.4950476455688,-2.82158393987606,-2.02951443609829,-0.105023973864478,-1.34430433826513,-0.0106926064004668,-0.0106926063229989,3.20108656726354,-0.562309565016164,0.504488770354484,-0.0733648399581774,-0.696296553785438,-0.00688981153094091,-0.00761276513051862,-1.06,9.72000000000003,-0.680000000000007,0.165834171842968,-0.490497181198969,0.104278464651301,-0.971488518789194,9.67000000000002,1.27999999999997,0.0952627649338396,-0.277746833251115,0.229572932292255,-1.5122598899744,9.61299649883234,0.235747938513189,-1.55986009955976,1.20986016110561,3.98055945959577,515.134864161442,-0.176634165014875,-0.00246010620873879
0.025,5.86028226852417,1.79372870922089,0.119080442464349,-0.0611149860982084,-0.784068126892174,0.0131868133321404,0.0131872854630003,2.38874486804009,0.358745723962784,-0.192175506955168,-0.0449753969079399,-0.414617241041424,0.0101780755333085,0.0099990878970886,0.0555258535584765,9.77105170711692,0.54000000000002,0.000660044379655701,-0.483439929709223,-0.21929539233624,0.0410517071169345,9.63,-1.74000000000001,0.0396338447331863,-0.0425606746191496,0.0123456790123555,-1.44570813220038,9.49877138583005,0.0348537286592904,1.78868100389355,-0.505659507148023,-7.31500005722046,418.05170711694,-0.22841843094032,-0.00394050642781363,10.4950476455688,-2.43576107093373,-2.26340241497616,-0.105070934089155,-1.34274748728331,-0.00832892012616028,-0.00832892005422804,3.19520956386946,-0.755221007500254,0.350047468635253,-0.0740568630812992,-0.698074827595327,-0.00925349780524741,-0.0100493312358387,-1.06,9.72000000000003,-0.680000000000007,0.159195423312432,-0.46394218707684,0.0744040962639197,-0.963422439324591,9.67000000000002,1.27999999999997,0.0919433906685716,-0.400563681065939,0.18974044110907,-1.51547961346343,9.60333739246868,0.234460044309818,-1.57868096574657,1.2286809952407,3.90527605895197,516.210341423388,-0.176668792891958,-0.00111558494191976
0.03,5.86028226852417,1.79372870922089,0.556000044385358,-0.0613416603505394,-0.78244568110309,0.0131868133321404,0.0131873794601211,2.38874486804009,0.358745723962784,0.0433992272291092,-0.0462952227366431,-0.416504172404067,0.017269472743062,0.0170924003815803,0.0582146749233984,9.77642934984677,0.54000000000002,-0.0590915415075525,-0.430327408920584,-0.235893055082699,0.0464293498467934,9.63,-1.74000000000001,0.0529119749303386,-0.0392411420698577,0.0123456790123555,-1.4534358498726,9.51165089391492,0.0354977064675278,1.80750276755145,-0.496248641345697,-7.31500005722046,423.429349846789,-0.225959778503565,-0.00347744798440014,10.4950476455688,-2.04991980406719,-2.49730154677849,-0.105117896553127,-1.34119056206321,-0.00596512113971443,-0.00596512107672522,3.18933228023108,-0.948141648946839,0.195598802398273,-0.0747489192034732,-0.699853186202022,-0.0116172967916933,-0.0124682089067563,-1.06,9.72000000000003,-0.680000000000007,0.152556358213848,-0.43738592668252,0.0445283033203233,-0.95535597522981,9.67000000000002,1.27999999999997,0.0886238581192797,-0.523386385389648,0.149906050517598,-1.51869949048465,9.59367782551153,0.233172088693343,-1.59750272940447,1.24750272684535,3.82998906842687,517.285869969358,-0.176703422420268,0.000229000438258993
0.035,5.86028226852417,1.59648153980728,0.905138757729183,-0.0614820234266685,-0.781203652532279,0.0131868133321404,0.013187463724011,2.38874486804009,0.490243839636195,0.251002172465823,-0.0473744595902255,-0.417516255310292,0.021172418940964,0.0210043951514197,0.0618327480816757,9.78091637404082,0.540916374040857,-0.0953714541697565,-0.409768966087491,-0.251438884152309,0.0518327480816848,9.63091637404083,-1.74000000000001,0.0639910470144078,-0.0528756007058092,0.00668904913064288,-1.45220218194385,9.51822739733973,0.0348279282727808,1.82320735853629,-0.486792700721533,-7.31820735238063,427.091637404084,-0.224285320553331,-0.00352460893464772,10.4950476455688,-1.59648153980728,-2.60221912368474,-0.105218402445509,-1.33986930775948,-0.00439560459926724,-0.00439560454866177,3.18743290834579,-1.01048814521947,0.028770154048822,-0.075338915982354,-0.701239186832257,-0.0123812097851015,-0.0132675793167237,-1.05816725191833,9.7218327480817,-0.68183274808168,0.150410800100839,-0.427672368254146,0.0212973800956803,-0.941752633632453,9.67000000000002,1.28183274808165,0.0886824050391136,-0.609463575510334,0.129113420005154,-1.51425322937801,9.58880032913817,0.233633751128272,-1.60358539121268,1.26320729654746,3.79603651273482,517.816725191832,-0.176649708581352,0.000825095358364636
0.04,5.86028226852417,1.00938706961964,1.08084577440483,-0.0614518297662753,-0.780713265706555,0.0131868133321404,0.0131875338896594,2.38874486804009,0.881640161223306,0.403353974053717,-0.0479783739570491,-0.416799520068245,0.0187745877625056,0.018623388488236,0.0672878137599124,9.78364390687995,0.543643906879976,-0.0852694806915232,-0.453544184493138,-0.264908182123271,0.0572878137599215,9.63364390687995,-1.74000000000001,0.0707256959998967,-0.1000181436042,-0.0101475733330638,-1.43325796502823,9.51234821478836,0.0315616808586537,1.83275371436909,-0.477246336760051,-7.32775367569871,427.364390687996,-0.224160427429506,-0.00458012245623798,10.4950476455688,-1.00938706961964,-2.45224552341942,-0.105424740405236,-1.33901362204164,-0.00439560459926724,-0.00439560456441141,3.19339480835806,-0.814789988490257,-0.162548712802547,-0.0757272967580306,-0.70184996764677,-0.00998337873365376,-0.0108843099224184,-1.05271218624009,9.72728781375994,-0.687287813759917,0.157145449086328,-0.451243639703341,0.011195406617447,-0.917204838080372,9.67000000000002,1.2872878137599,0.095417054024587,-0.622932873481296,0.145950042468861,-1.49465575911844,9.59337293997219,0.237553246805922,-1.58449264703235,1.27275365238026,3.84376832441354,517.271218624008,-0.176421394245354,-5.79657762555223e-05
0.045,5.86028226852417,0.422320593637133,1.2565444129088,-0.0614216375455951,-0.780222902263763,0.0131868133321404,0.0131875855856029,2.38874486804009,1.2730178200066,0.555698511107871,-0.0485822595276507,-0.416082819002015,0.0163768709189308,0.0162507271839545,0.072742619326301,9.78637130966316,0.54637130966317,-0.0751679889018975,-0.497317315581485,-0.278376837842756,0.0627426193263101,9.63637130966315,-1.74000000000001,0.0774600238596472,-0.147158438622423,-0.0269833929824245,-1.41431465142259,9.50646931257185,0.0282955891877754,1.84229961500659,-0.467700427994258,-7.33729954382303,427.637130966316,-0.224035540260912,-0.00563558564817339,10.4950476455688,-0.422320593637133,-2.30227907428895,-0.105631068526228,-1.33815797712514,-0.00439560459926724,-0.00439560458333242,3.19935642409129,-0.619101163162756,-0.353858457068238,-0.0761156590146924,-0.70246071933765,-0.00758566201708354,-0.00847958123325945,-1.0472573806737,9.73274261932633,-0.692742619326306,0.163879776946079,-0.474813787212453,0.00109391482782128,-0.892658213031608,9.67000000000002,1.29274261932631,0.102151381884322,-0.636401529200782,0.162785862118221,-1.47505922331768,9.59794533277212,0.241472555591732,-1.56540081324418,1.28229955301776,3.89149786011421,516.725738067369,-0.176193090795982,-0.00094098480420323
0.05,5.86028226852417,-0.164773876550511,1.43225142958445,-0.0613914438852019,-0.779732515438039,0.0131868133321404,0.0131876145974812,2.38874486804009,1.66441414159371,0.708050312695765,-0.0491861738944742,-0.415366083759967,0.0139790397404724,0.0138864141355536,0.0781976850045377,9.78909884250229,0.549098842502288,-0.0650660154236642,-0.541092533987132,-0.291846135813719,0.0681976850045468,9.63909884250226,-1.74000000000001,0.084194672845136,-0.194300981520814,-0.0438200154461312,-1.39537043450697,9.50059013002048,0.0250293417736483,1.85184597083939,-0.458154064032777,-7.34684586714111,427.909884250228,-0.223910647137087,-0.00669109916976365,10.4950476455688,0.164773876550511,-2.15230547402363,-0.105837406485955,-1.3373022914073,-0.00439560459926724,-0.00439560460507731,3.20531832410356,-0.423403006433541,-0.545177323919607,-0.076504039790369,-0.703071500152164,-0.0051878309656358,-0.00605311116430835,-1.04180231499547,9.73819768500456,-0.698197685004542,0.170614425931568,-0.498385058661648,-0.00900805865041203,-0.868110417479528,9.67000000000002,1.29819768500456,0.108886030869795,-0.649870827171744,0.179622484581928,-1.45546175305811,9.60251794360614,0.245392051269382,-1.54630806906385,1.29184590885056,3.93922967179294,516.180231499545,-0.175964776459984,-0.00182404593882339
0.055,5.86028226852417,-0.23888782927375,1.37917339566797,-0.0610256234377742,-0.779457081628357,0.0146553964481535,0.0146562001618606,2.38874486804009,1.67387080457482,0.83774680212917,-0.049325027764297,-0.414560007088886,0.0131868133321404,0.0131361448946772,0.0783294867829212,9.79167051321708,0.548329486782948,-0.0576036710689658,-0.561742641544675,-0.28392212431805,0.073341026434119,9.64167051321705,-1.74167051321707,0.0822950290936768,-0.240811973155506,-0.034946182074742,-1.39831349196998,9.50104821139858,0.0243502878812538,1.85500001907349,-0.431612825485291,-7.33245951266714,426.830640748055,-0.224131845791013,-0.0068170357512919,10.4950476455688,0.478603623630335,-1.83287771074215,-0.105918672572487,-1.33666748850437,-0.00439560459926724,-0.00439560462916609,3.20363664980554,-0.478603623630335,-0.646798399343709,-0.0776482668595203,-0.703250173356751,-0.00439560459926724,-0.00521119495707037,-1.03832948678295,9.74000000000001,-0.701670513217052,0.170777144176486,-0.506172839506178,-0.0123456790123555,-0.861670513217077,9.67501153965121,1.30167051321707,0.119360559096596,-0.563577059813789,0.176935737199662,-1.46178980244823,9.60162818020299,0.248287389146323,-1.55169356313467,1.2774595850333,3.97254031567148,518.33871850389,-0.175595398912971,-0.00107725965599329
0.06,5.86028226852417,-0.0598777333174458,1.21319800428198,-0.0604941624955588,-0.779287696388277,0.0168487538836345,0.0168495301247166,2.38874486804009,1.49486069374749,0.956273304279493,-0.0492344082450121,-0.413709787643382,0.0131868133321404,0.0131862368422827,0.0758345428156628,9.79416545718434,0.54583454281569,-0.0514433155942431,-0.570983174756759,-0.265441057893896,0.0783309143686358,9.64416545718431,-1.74416545718433,0.0761346736189541,-0.287014639215884,-0.013384937913241,-1.41205699575311,9.50463343704733,0.02494783168564,1.85500001907349,-0.396683606077175,-7.30626259625218,425.084179970972,-0.224523838571609,-0.00648428320868484,10.4950476455688,0.657613727022152,-1.42981034318051,-0.105938227952333,-1.33614163462733,-0.00439560459926724,-0.00439560465501804,3.19818314755776,-0.657613727022152,-0.704165495582217,-0.0791655464279278,-0.703215636551655,-0.00439560459926724,-0.00514164445412019,-1.03583454281568,9.74000000000001,-0.70416545718431,0.167696966439125,-0.506172839506178,-0.0123456790123555,-0.864165457184335,9.68249637155298,1.30416545718433,0.131681270046041,-0.428049239369989,0.164615026250231,-1.48091120418859,9.59804295455423,0.250677564363867,-1.569158183992,1.25126269836038,3.99873723208645,521.831640058055,-0.175156387669428,0.000473825127178335
0.065,5.86028226852417,0.11912382696768,1.04723052703825,-0.0599627268947959,-0.779118319224929,0.0190420067340767,0.0190427229364332,2.38874486804009,1.31585911859205,1.07479415477513,-0.0491437930467038,-0.412859608738573,0.0131868133321404,0.0132438606839798,0.0733397178138805,9.79666028218612,0.543339717813908,-0.045283253861437,-0.580223267355968,-0.246960872695492,0.0833205643722002,9.64666028218609,-1.74666028218611,0.069974611886148,-0.333215102211887,0.00817527815155199,-1.4257998442099,9.50821849174311,0.0255453469975693,1.85500001907349,-0.36175605218591,-7.28006692897494,423.337802469723,-0.224915812660961,-0.0061515465325923,10.4950476455688,0.836615294742435,-1.02676219492877,-0.105957782399727,-1.33561580582439,-0.00439560459926724,-0.00439560468190782,3.19272990534729,-0.836615294742435,-0.761529856407019,-0.0806827536484634,-0.703181101393365,-0.00439560459926724,-0.00505400274501957,-1.03333971781388,9.74000000000001,-0.706660282186092,0.164616935572722,-0.506172839506178,-0.0123456790123555,-0.866660282186117,9.68998084655833,1.30666028218611,0.144001393511653,-0.292527881248354,0.152294902784633,-1.50003169417032,9.59445789985845,0.253067625611584,-1.58662197209036,1.22506706082378,4.02493289936369,525.324395060553,-0.174717397359093,0.00202483595055675
0.07,5.86028226852417,0.298133922923984,0.881255135652265,-0.0594312659525805,-0.778948933984849,0.0212353641695577,0.0212359860213976,2.38874486804009,1.13684900776472,1.19332065692545,-0.0490531735274189,-0.412009389293069,0.0131868133321404,0.0133081061600437,0.0708447738466221,9.79915522615338,0.540844773846649,-0.0391228983867143,-0.589463800568052,-0.228479806271338,0.0883104523067171,9.64915522615335,-1.74915522615337,0.0638142564114253,-0.379417768272265,0.029736522313053,-1.43954334799303,9.51180371739187,0.0261428908019554,1.85500001907349,-0.326826832777794,-7.25387001255997,421.591341692641,-0.225307805441557,-0.00581879398998524,10.4950476455688,1.01562539813425,-0.623694827367123,-0.105977337779573,-1.33508995194735,-0.00439560459926724,-0.00439560470896437,3.18727640309951,-1.01562539813425,-0.818896952645526,-0.082200033216871,-0.703146564588269,-0.00439560459926724,-0.00495056630328353,-1.03084477384661,9.74000000000001,-0.709155226153351,0.16153675783536,-0.506172839506178,-0.0123456790123555,-0.869155226153376,9.6974656784601,1.30915522615337,0.156322104461099,-0.157000060804554,0.139974191835201,-1.51915309591068,9.59087267420969,0.255457800829129,-1.60408659294769,1.19887017415086,4.05112981577865,528.817316614718,-0.17427838611555,0.00357592073372837
0.075,5.86028226852417,0.476704673717846,0.746761578978416,-0.0590686395461361,-0.777477212220441,0.0190873909096399,0.0190878834290886,2.38874486804009,1.19419615634538,1.27398608382968,-0.0486589803011119,-0.414063553425214,0.0117414975599014,0.0119324416294841,0.0699999999999932,9.80000000000001,0.54164404670185,-0.016740164174897,-0.58041446887534,-0.208014411218746,0.0867119065963153,9.64999999999998,-1.75,0.0536096459168775,-0.362586731815653,0.0207995387473233,-1.44025929237821,9.50789897988561,0.0302827399439749,1.83773752556849,-0.332262491120813,-7.25075410232359,421.493214010549,-0.225633428384744,-0.00488665568138958,10.4950476455688,0.604401402670425,-0.351572133186221,-0.105979954705251,-1.33367264723946,-0.00584092037150634,-0.00584092050747398,3.18902347091732,-0.604401402670425,-0.76944755676423,-0.0819285498170677,-0.70446836813035,-0.00584092037150634,-0.00627940518897174,-1.02835595329814,9.74328809340367,-0.70506785989449,0.172671950877777,-0.491965028502695,-0.00422692986751232,-0.871644046701834,9.69999999999999,1.31,0.166582889019138,-0.135467358545625,0.131743094563371,-1.51932745708835,9.58650869919906,0.25744835991678,-1.57547502729512,1.20150837315808,4.07150829791429,527.36952527707,-0.175004163631009,0.00369482433455634
0.08,5.86028226852417,0.655063368329466,0.628376026250797,-0.0587924249213862,-0.775338629361512,0.0147166391896436,0.0147169679577218,2.38874486804009,1.37255485836545,1.33527365710049,-0.0481093385465575,-0.417604817914175,0.00955612175778179,0.00982061468977495,0.0699999999999932,9.80000000000001,0.544129911693254,0.0139495270770298,-0.562000654124181,-0.186531627342391,0.0817401766135071,9.64999999999998,-1.75,0.0413337694161096,-0.313483225812567,-0.00375221425421256,-1.43430559124498,9.50015933732518,0.0362364355208666,1.81163593841731,-0.358364078271992,-7.2594547103975,422.238973507971,-0.225925095553419,-0.0036475836696509,10.4950476455688,-0.109033375776055,-0.146469338283077,-0.105973899868412,-1.33179884580087,-0.0080262961736259,-0.00802629633405397,3.19445712814417,0.109033375776055,-0.665307940267316,-0.0807412569493002,-0.706484670202267,-0.0080262961736259,-0.00833839047171774,-1.02587008830674,9.74825982338648,-0.697610264920278,0.191085765628936,-0.470482244626341,0.00804894663325561,-0.874129911693239,9.69999999999999,1.31,0.17578979639471,-0.172294988047943,0.12560515631298,-1.5098015471287,9.58174571458541,0.259234471738441,-1.52327185299276,1.21890941150299,4.08890939552684,523.39214129082,-0.176326328367463,0.00308050517603165
0.085,5.86028226852417,0.833413558330433,0.509996118457028,-0.0585162234672746,-0.773200148475827,0.0103460958785602,0.010346228402562,2.38874486804009,1.55090505577452,1.39655830801895,-0.0475597230003645,-0.421145913546351,0.00737085016011589,0.00771101476522274,0.0699999999999932,9.80000000000001,0.546615658152092,0.0446377549639342,-0.543587717392036,-0.165049867821553,0.0767686836958325,9.64999999999998,-1.75,0.0290584782613506,-0.264382061193517,-0.0283027965637304,-1.42835217399984,9.49242006381122,0.0421898472099279,1.78553559585831,-0.384464420830992,-7.26815490360358,422.984697445623,-0.226216748814637,-0.00240857074011763,10.4950476455688,-0.822434135779923,0.0586236767805233,-0.105967845320283,-1.32992513371006,-0.0102115677712918,-0.0102115679532636,3.19989052627998,0.822434135779923,-0.561173289420626,-0.0795540206947726,-0.70850087613161,-0.0102115677712918,-0.0103907578647198,-1.0233843418479,9.75323131630415,-0.690153025543766,0.209498702361082,-0.449000485105502,0.0203242377880145,-0.876615658152076,9.69999999999999,1.31,0.184996264760776,-0.209120861512234,0.119467510735593,-1.50027609138944,9.57698295708338,0.261020498393603,-1.47107116787476,1.23630962012072,4.10630966340938,519.414946956676,-0.177648430059632,0.00246621530985669
0.09,5.86028226852417,1.01177225294205,0.391610565729409,-0.0582400088425248,-0.771061565616898,0.00597534415856399,0.00597525133062516,2.38874486804009,1.7292637577946,1.45784588128976,-0.0470100812458101,-0.424687178035312,0.00518547435799633,0.00560143014717364,0.0699999999999932,9.80000000000001,0.549101523143496,0.0753274462158611,-0.525173902640877,-0.143567083945198,0.0717969537130242,9.64999999999998,-1.75,0.0167826017605827,-0.215278555190431,-0.0528545495652663,-1.4223984728666,9.48468042125079,0.0481435427868196,1.75943400870713,-0.41056600798217,-7.2768555116775,423.730456943045,-0.226508415983311,-0.00116949872837895,10.4950476455688,-1.5358689142264,0.263726471683667,-0.105961790483443,-1.32805133227148,-0.0123969435734114,-0.0123969437728422,3.20532418350684,1.5358689142264,-0.457033672923712,-0.078366727827005,-0.710517178203528,-0.0123969435734114,-0.0124402791880795,-1.0208984768565,9.75820304628696,-0.682695430569553,0.227912517112241,-0.427517701229148,0.0326001142887825,-0.87910152314348,9.69999999999999,1.31,0.194203172136348,-0.245948491014551,0.113329572485202,-1.4907501814298,9.57221997246974,0.262806610215263,-1.4188679935724,1.25371065846562,4.12371076102193,515.437562970426,-0.178970594796086,0.00185189615133199
0.095,5.86028226852417,0.712755236996354,0.332552479020756,-0.0583874599099243,-0.767714245555161,0.00588014992869966,0.00587980753638838,2.38874486804009,1.06676475970173,1.37586880005379,-0.0465376941389279,-0.431122269303368,0.00588014992869966,0.00636983515900747,0.0666226593531266,9.79831132967658,0.550000000000011,0.0614024149614704,-0.487246845862327,-0.114954687364999,0.0699999999999932,9.64999999999998,-1.74831132967657,0.0331934607831534,-0.168343969718402,-0.0721522859471196,-1.41822440995371,9.47905189282551,0.0450376943478134,1.76182070112147,-0.414089666128564,-7.28000020980835,422.649063741252,-0.228232982466098,-0.00192229530752874,10.4950476455688,-1.43024673949394,0.262860156436178,-0.105800247924701,-1.32507174853281,-0.011702268002708,-0.0117022682143264,3.20728809356689,1.67256804761261,-0.245882662418498,-0.077827449674435,-0.715019888654144,-0.011702268002708,-0.0116104113658299,-1.01831132967655,9.75831132967656,-0.678311329676573,0.232483123057502,-0.430176977305145,0.0328674806828559,-0.876622659353129,9.69831132967656,1.30831132967657,0.199615642374599,-0.392685062592362,0.090263329340288,-1.48730719089508,9.5704984664917,0.263452172279358,-1.39999997615814,1.25999999046326,4.13000011444092,514,-0.179448470473289,0.00162986014038324
0.1,5.86028226852417,0.143566147868175,0.307075519993696,-0.0587746913433624,-0.763682960914988,0.00820485125064763,0.00820424148914265,2.38874486804009,-0.0716134500777117,1.21281033047783,-0.0461090543406689,-0.439194909244416,0.00820485125064763,0.008763907116263,0.0613339638106057,9.79566698190532,0.550000000000011,0.0222268924242419,-0.438277442690784,-0.0823084185839803,0.0699999999999932,9.64999999999998,-1.74566698190531,0.0658397295641721,-0.122639193424979,-0.088475420337629,-1.41505779028315,9.47461848658516,0.0368044500066035,1.78033114939047,-0.404834441994066,-7.28000020980835,420.533585524242,-0.230768462752125,-0.00380241889379014,10.4950476455688,-0.861057642484987,0.145418956373664,-0.105550709728421,-1.32146645336143,-0.00937756668076006,-0.00937756689815447,3.20728809356689,1.48283834072885,0.0258248635587219,-0.0776549622694,-0.720929648205775,-0.00937756668076006,-0.009154729082833,-1.01566698190529,9.7556669819053,-0.675666981905313,0.229218496179397,-0.446500111695654,0.0263382269266611,-0.871333963810608,9.69566698190529,1.30566698190531,0.202880269252704,-0.601621182790909,0.0576170605592692,-1.48730719089508,9.5704984664917,0.263452172279358,-1.39999997615814,1.25999999046326,4.13000011444092,514,-0.179448470473289,0.00162986014038324
0.105,5.86028226852417,-0.425650082983771,0.281597346100438,-0.059161941241892,-0.759651484043419,0.0105296634257415,0.0105287763549245,2.38874486804009,-1.21004594330619,1.04974408547534,-0.0456803941027647,-0.447267934128478,0.0105296634257415,0.0111513906668515,0.0560450160771763,9.7930225080386,0.550000000000011,-0.0169504981937904,-0.389305704418236,-0.0496605930689584,0.0699999999999932,9.64999999999998,-1.74302250803859,0.098487555079194,-0.0769322377039516,-0.10479933309514,-1.41189101961265,9.47018486893829,0.0285708130639753,1.79884248032831,-0.395578776525148,-7.28000020980835,418.418006430868,-0.233304063942271,-0.00568263213355334,10.4950476455688,-0.291841403751895,0.0279721561394804,-0.105301159632938,-1.31786098627191,-0.00705275450566622,-0.00705275472136394,3.20728809356689,1.29309958660334,0.297545345881656,-0.0774824666393207,-0.726839689563689,-0.00705275450566622,-0.00670652848768479,-1.01302250803857,9.75302250803858,-0.673022508038598,0.225953713627892,-0.462824024453165,0.0198086618236658,-0.866045016077179,9.69302250803858,1.30302250803859,0.206145051804209,-0.810567266087076,0.0249692350442473,-1.48730719089508,9.5704984664917,0.263452172279358,-1.39999997615814,1.25999999046326,4.13000011444092,514,-0.179448470473289,0.00162986014038324
0.11,5.86028226852417,-0.99483917211195,0.256120387073377,-0.0595491726753301,-0.755620199403246,0.0128543647476894,0.0128531996326107,2.38874486804009,-2.34842415308563,0.886685615899375,-0.0452517543045057,-0.455340574069525,0.0128543647476894,0.0135297610064694,0.0507563205346554,9.79037816026734,0.550000000000011,-0.0561260207310188,-0.340336301246693,-0.0170143242879396,0.0699999999999932,9.64999999999998,-1.74037816026733,0.131133823860213,-0.0312274614105284,-0.121122467485649,-1.40872439994208,9.46575146269794,0.0203375687227654,1.8173529285973,-0.38632355239065,-7.28000020980835,416.302528213858,-0.235839544228299,-0.00756275571981473,10.4950476455688,0.277347693257055,-0.089469043923034,-0.105051621436658,-1.31425569110053,-0.00472805318371825,-0.00472805338933021,3.20728809356689,1.10336987971959,0.569252871858877,-0.0773099792342858,-0.73274944911532,-0.00472805318371825,-0.00426915340435891,-1.01037816026731,9.75037816026732,-0.670378160267338,0.222689086749787,-0.479147158843675,0.013279408067471,-0.860756320534658,9.69037816026732,1.30037816026733,0.209409678682314,-1.01950338628562,-0.00767703373677136,-1.48730719089508,9.5704984664917,0.263452172279358,-1.39999997615814,1.25999999046326,4.13000011444092,514,-0.179448470473289,0.00162986014038324
0.115,5.86028226852417,-0.579869241465716,0.206226878410139,-0.0598550702467358,-0.752863697298506,0.0131868133321404,0.0131853798021308,2.38874486804009,-2.18030822494108,0.514244591211791,-0.0455630644942718,-0.461457600596418,0.0131868133321404,0.0139046970387391,0.0546120684124836,9.79000000000002,0.547693965793775,-0.0531875276312151,-0.29062899618076,-0.00380481158183681,0.0699999999999932,9.64769396579374,-1.73769396579377,0.135802469135797,-0.00191571154334094,-0.137691569174293,-1.4060623391515,9.45848992854698,0.0202647566169297,1.8280711644767,-0.401142235130038,-7.29614237887744,417.614223944367,-0.236287963116719,-0.00873637782070258,10.4950476455688,0.027833752770318,-0.199359732282067,-0.104965756863074,-1.3102701242525,-0.00642288740448581,-0.00642288759094971,3.2022475143426,0.579869241465716,0.677504779868263,-0.0775719991425275,-0.74058718232431,-0.00642288740448581,-0.00586481593289459,-1.01230603420623,9.74769396579376,-0.676918102618724,0.202293531551031,-0.470093658240788,0.0436621929242312,-0.853081897381292,9.69,1.30230603420625,0.201335675779367,-1.07215836253074,-0.0379682813038854,-1.49669628683292,9.57878287396898,0.259033772371765,-1.42421333972205,1.22771551487473,4.09771561136232,514.691810261871,-0.177933231563202,0.00145538012955517
0.12,5.86028226852417,-0.000704244310117286,0.152261966038547,-0.0601473793159546,-0.750320060565482,0.0131868133321404,0.0131851322926993,2.38874486804009,-1.79419820545363,0.10688642182076,-0.0459978264563573,-0.467247970379552,0.0131868133321404,0.013934036786681,0.0599934564210495,9.79000000000002,0.545003271789492,-0.0432219942820173,-0.240801329434741,0.00616072176737631,0.0699999999999932,9.64500327178946,-1.73500327178949,0.135802469135797,0.0246590440545454,-0.154300791422966,-1.40348461787807,9.45075689302899,0.021553609735931,1.83748858451054,-0.419977099254394,-7.31497715479397,419.497709747367,-0.236388107062152,-0.00979204679319025,10.4950476455688,-0.35827624266045,-0.307984417453703,-0.104907207877262,-1.30622132649192,-0.00878833266728215,-0.00878833282513986,3.19636613744877,0.000704244310117286,0.758476231070575,-0.0779065069722407,-0.748746183839383,-0.00878833266728215,-0.00814698463547785,-1.01499672821051,9.74500327178948,-0.684990184631573,0.179040620402883,-0.456806280441853,0.0802024818713154,-0.845009815368428,9.69,1.30499672821053,0.19137014243017,-1.09873311812862,-0.0678648813514942,-1.50765153809384,9.58844916836647,0.253878357891037,-1.45246563189914,1.1900458026638,4.06004586707582,515.499018463157,-0.176165242068768,0.00125179584718297
0.125,5.86028226852417,0.578488370269408,0.0982944803556029,-0.0604397023239015,-0.7477763025394,0.0131868133321404,0.0131849175649265,2.38874486804009,-1.40806977434921,-0.300491172403106,-0.0464326091500227,-0.473038616275879,0.0131868133321404,0.0139485640253604,0.0653751010405547,9.79000000000002,0.54231244947974,-0.0332559857273762,-0.190971286661505,0.0161267303220326,0.0699999999999932,9.64231244947971,-1.73231244947974,0.135802469135797,0.051235066866947,-0.170910805680711,-1.40090677368627,9.44302348876199,0.022842524313762,1.84690645361309,-0.438812861517329,-7.33381282884488,421.381285364195,-0.236488255782939,-0.0108477661051454,10.4950476455688,-0.744404649707042,-0.416614282382392,-0.104848656099547,-1.30217233566482,-0.011153890726095,-0.0111538908458042,3.19048448010208,-0.578488370269408,0.839451543388295,-0.0782410307529257,-0.756905574415611,-0.011153890726095,-0.0104471142228059,-1.01768755052026,9.74231244947973,-0.693062651560831,0.155786600442033,-0.44351826903566,0.116744513238358,-0.836937348439155,9.69,1.30768755052028,0.181404133875529,-1.12530914094102,-0.0977629070154325,-1.51860731175481,9.59811592370023,0.248722697574894,-1.48071927128391,1.15237429417648,4.0223743265114,516.306265156084,-0.174397168267935,0.001048201856915
0.13,5.86028226852417,1.04860315925199,0.0586467884961374,-0.0606739167160804,-0.745723517580557,0.0131868133321404,0.0131847477221258,2.38874486804009,-1.07623720169067,-0.684741414194314,-0.0468544870327644,-0.477861354871322,0.0131868133321404,0.0139469985172948,0.0699999999999932,9.78961485197671,0.540770296046635,-0.0232648838643119,-0.149099130921752,0.0275443063455071,0.0692297039533789,9.63922970395337,-1.73000000000002,0.138655417456593,0.0778780051684717,-0.186611659345561,-1.39942936523369,9.43896034609823,0.0240424404834839,1.85634803586949,-0.453651995169185,-7.34325982524386,423,-0.236306198523979,-0.0116194252854153,10.4950476455688,-1.07623720169067,-0.519032082130865,-0.104828313617224,-1.29842001799177,-0.0128482216655455,-0.0128482217378692,3.18627174307768,-1.04860315925199,0.876814716368783,-0.0785313526218844,-0.764504822748093,-0.0128482216655455,-0.0120953422770039,-1.01961485197667,9.7396148519767,-0.700385148023296,0.138655417456593,-0.432574256818901,0.155756010336941,-0.830385148023291,9.68961485197669,1.31,0.173790488946461,-1.14529519982736,-0.121554824576245,-1.52626989603647,9.6061466498177,0.244660980046124,-1.50634801202763,1.12404405974771,3.98865198814942,516.884455593008,-0.172919543852923,0.000771395171787118
0.135,5.86028226852417,0.852015256258739,0.106531659862147,-0.0605529556104319,-0.746671667087762,0.0131868133321404,0.0131846346675504,2.38874486804009,-1.07623720169067,-0.927729775845758,-0.0471976127006503,-0.4767682961312,0.0131868133321404,0.0139285185626653,0.0699999999999932,9.78687491834549,0.546250163309048,-0.0131169815264926,-0.155864399146965,0.04784011102113,0.0637498366909659,9.63374983669096,-1.73000000000002,0.158951222132216,0.104939078069307,-0.19675956168338,-1.40467911957604,9.4573344699652,0.0246986597762785,1.86593779443321,-0.44406222843983,-7.29531106508783,423,-0.234398774769005,-0.0106547058720005,10.4950476455688,-1.07623720169067,-0.58350631575203,-0.105041561972196,-1.29648017926634,-0.0104394888189277,-0.0104394888353483,3.19226074900832,-0.852015256258739,0.647561802476159,-0.0785515385569303,-0.768682142854411,-0.0104394888189277,-0.00966080559685414,-1.01687491834547,9.73687491834549,-0.703125081654502,0.158951222132216,-0.435956890931508,0.209878156138597,-0.833125081654498,9.68687491834548,1.31,0.180555757171658,-1.12499939515173,-0.108024288125835,-1.51380171722491,9.60417801235341,0.247285853134483,-1.51593777059135,1.15281336810141,3.97906219692314,516.062475503645,-0.173217120135411,4.68987966506933e-05
0.14,5.86028226852417,0.65543672709264,0.154414247951817,-0.0604320002725263,-0.747619771384709,0.0131868133321404,0.0131845896322124,2.38874486804009,-1.07623720169067,-1.17070655117441,-0.0475407220074038,-0.475675289510987,0.0131868133321404,0.0138928212925992,0.0699999999999932,9.78413511536149,0.551729769277008,-0.00296956306728956,-0.162629344786433,0.0681349479395206,0.0582702307230056,9.628270230723,-1.73000000000002,0.179246059050606,0.131998860627167,-0.206906980142583,-1.40992862359634,9.47570771770572,0.0253548477788151,1.87552709573207,-0.434472918975721,-7.24736459125453,423,-0.232491441965002,-0.00969003245893918,10.4950476455688,-1.07623720169067,-0.647977475072528,-0.105254800158926,-1.29454043303751,-0.00803087082701371,-0.00803087078011687,3.19824946936745,-0.65543672709264,0.418319819964132,-0.0785717235294579,-0.772859263775145,-0.00803087082701371,-0.00724712812377599,-1.01413511536149,9.73413511536151,-0.705864884638483,0.179246059050606,-0.439339363751242,0.2639977212543,-0.835864884638478,9.6841351153615,1.31,0.187320702811111,-1.10470455823334,-0.0944943968469127,-1.50133413292884,9.60220946875892,0.249910601062005,-1.52552707189021,1.18158130465899,3.96947286296329,515.24053460845,-0.17351468222868,-0.00067756303259716
0.145,5.86028226852417,0.45884882409939,0.202299119317826,-0.0603110391668777,-0.748567920891913,0.0131868133321404,0.013184622669973,2.38874486804009,-1.07623720169067,-1.41369491282585,-0.0478838476752896,-0.474582230770865,0.0131868133321404,0.0138401650360272,0.0699999999999932,9.78139518173027,0.557209636539421,0.00717833927052967,-0.169394613011646,0.0884307526151434,0.0527903634605926,9.62279036346059,-1.73000000000002,0.199541863726229,0.159059933528002,-0.217054882480403,-1.41517837793869,9.4940818415727,0.0260110670716098,1.88511685429579,-0.424883152246366,-7.1994158310985,423,-0.230584018210028,-0.00872531304552436,10.4950476455688,-1.07623720169067,-0.712451708693693,-0.105468048513898,-1.29260059431209,-0.00562213798039594,-0.00562213786423593,3.20423847529809,-0.45884882409939,0.189066906071508,-0.0785919094645039,-0.777036583881464,-0.00562213798039594,-0.00485397763940173,-1.01139518173028,9.73139518173031,-0.708604818269689,0.199541863726229,-0.442721997863848,0.318119867055956,-0.838604818269684,9.6813951817303,1.31,0.194085971036308,-1.08440875355772,-0.0809638603965027,-1.48886595411729,9.60024083129463,0.252535474150364,-1.53511683045393,1.2103506130127,3.95988307173702,514.418554519088,-0.173812258511167,-0.00140205940773358
0.15,5.86028226852417,0.551507707390436,0.295834698605929,-0.0602948070739778,-0.749719695436491,0.0120058858580977,0.012003814660814,2.38874486804009,-0.787094236557599,-1.46777995198736,-0.0478024612769482,-0.471298348930562,0.0131868133321404,0.0137713899043998,0.0686566949893571,9.7773133899787,0.55731338997873,0.0189792840031548,-0.196057123640665,0.0805230183740835,0.0486566949893753,9.61865669498937,-1.73268661002129,0.19992613572367,0.156255493695854,-0.233831030956133,-1.41399088615162,9.49989902487575,0.0279538367063549,1.88529842264142,-0.410596878572285,-7.18440328481491,422.194016993618,-0.229192776216728,-0.00766969508747173,10.4950476455688,-1.17261819540618,-0.800922009414989,-0.105636756917664,-1.29237191000244,-0.00557653207330996,-0.00557653188376606,3.20728809356689,-0.0696027548263476,0.0410127322000202,-0.0785007901187615,-0.77764516423365,-0.00557653207330996,-0.0048439332077165,-1.01402991503191,9.72865669498938,-0.704626779957435,0.209876543209873,-0.431177234462851,0.350654216088775,-0.849403135074443,9.68000000000001,1.31,0.202506067940623,-1.03427244412927,-0.0807076790648754,-1.48637782035255,9.58926496680373,0.249689653519122,-1.53059683574609,1.22029846078839,3.95499992370605,512.92535599149,-0.174506384694343,-0.00134181055057398
0.155,5.86028226852417,0.944298643694819,0.436746632876477,-0.0603872404392056,-0.751082863641061,0.00959951090807597,0.00959765173394747,2.38874486804009,-0.197907852495137,-1.3258637770184,-0.0472805923930219,-0.465740945542586,0.0131868133321404,0.0136879134450013,0.0659194434655463,9.77183888693108,0.551838886931108,0.032496575478771,-0.243367643805329,0.0433504668161273,0.0459194434655645,9.61591944346556,-1.73816111306891,0.179650198510238,0.12246226500679,-0.257486291038473,-1.40612397939097,9.49268766648634,0.0312317223410343,1.87571805144464,-0.391436111705782,-7.20356396194731,420.55166607933,-0.228336990285507,-0.00651965804895417,10.4950476455688,-1.36901366763719,-0.914299273881233,-0.105759266970232,-1.29391870075321,-0.00798290702333172,-0.00798290675847788,3.20728809356689,0.519583637393759,-0.0228038502886603,-0.078294171335312,-0.77455087213597,-0.00798290702333172,-0.00730462541669696,-1.02224166960335,9.72591944346557,-0.693677773862192,0.209876543209873,-0.404142651511603,0.360792184695499,-0.868563895741149,9.68000000000001,1.31,0.212644036547347,-0.953168695275537,-0.0942249705404916,-1.49424475974378,9.5689421189003,0.24116715352019,-1.51143609335253,1.21071808959161,3.95499992370605,510.73555477244,-0.17561203929917,-0.0004673026004736
0.16,5.86028226852417,1.3370708506965,0.577651848096183,-0.0604796693969679,-0.752445966846194,0.00719325070032725,0.00719169951216049,2.38874486804009,0.391250437614242,-1.18395436898512,-0.0467587483931736,-0.460183807146188,0.0131868133321404,0.0135916992698879,0.063182322461072,9.76636464492213,0.54636464492216,0.0460132224144541,-0.290675908080228,0.00617968774298692,0.0431823224610902,9.61318232246108,-1.74363535507786,0.159375228106706,0.0886706476675587,-0.28114042317593,-1.39825744774508,9.48547665195342,0.034509451677524,1.86613813706509,-0.372276258474929,-7.22272372544835,418.909393476644,-0.227481245160405,-0.00536967584722082,10.4950476455688,-1.56539977521666,-1.02767113222195,-0.1058817711812,-1.29546541774894,-0.0103891672310804,-0.0103891668915466,3.20728809356689,1.10874193566039,-0.0866173898352041,-0.0780875624039882,-0.771456727582257,-0.0103891672310804,-0.00978219191406116,-1.03045303261679,9.7231823224611,-0.682729289844295,0.209876543209873,-0.377109357640221,0.370929669897273,-0.887723742772501,9.68000000000001,1.31,0.222781521749121,-0.872068813661407,-0.107741617476175,-1.50211132401869,9.54862024004359,0.232645059896425,-1.49227626459344,1.20113817521207,3.95499992370605,508.545857968858,-0.176717641183484,0.000407163650792615
0.165,5.86028226852417,1.72986178700088,0.718563782366731,-0.0605721027621957,-0.753809135050764,0.0047868757503055,0.00478572872568549,2.38874486804009,0.980436821676703,-1.04203819401616,-0.0462368795092473,-0.454626403758212,0.0131868133321404,0.0134851980079581,0.0604450709372612,9.76089014187451,0.540890141874538,0.0595305138900703,-0.337986428244892,-0.0309928638149693,0.0404450709372794,9.61044507093727,-1.74910985812548,0.139099290893274,0.0548774189784949,-0.30479568325827,-1.39039054098444,9.47826529356401,0.0377873373122034,1.85655776586831,-0.353115491608426,-7.24188440258075,417.267042562356,-0.226625459229184,-0.00421963880870325,10.4950476455688,-1.76179524744768,-1.1410483966882,-0.106004281233768,-1.29701220849972,-0.0127955421811022,-0.0127955417703837,3.20728809356689,1.6979283278805,-0.150433972323885,-0.0778809436205386,-0.768362435484576,-0.0127955421811022,-0.0122745914436551,-1.03866478718824,9.72044507093729,-0.671780283749052,0.209876543209873,-0.350074774688973,0.381067638503997,-0.906884503439207,9.68000000000001,1.31,0.232919490355844,-0.790965064807679,-0.121258908951791,-1.50997826340992,9.52829739214015,0.224122559897494,-1.47311552219988,1.19155780401528,3.95499992370605,506.356056749808,-0.177823295788311,0.00128167160089299
0.17,5.86028226852417,1.32094999797991,0.790311431071087,-0.0606470543941052,-0.75168809973323,0.00439560459926724,0.00439495454071295,2.38394411740187,0.445865586702707,-0.863024815497117,-0.0459296520019462,-0.450853445431943,0.0112558745619035,0.0114403229872465,0.0578035571342848,9.76219644286571,0.535607114268573,0.048170105767158,-0.364660617358063,-0.026190405601362,0.0378035571342905,9.61000000000001,-1.75,0.133090811276882,0.0195544796013247,-0.295083686014098,-1.38911139965057,9.47709274291992,0.0383203141391277,1.85500001907349,-0.349999994039536,-7.24499988555908,417,-0.226486310362816,-0.00403264537453651,10.4950476455688,-1.00576418394002,-1.11016251456915,-0.105965625228348,-1.2992905820814,-0.0131868133321404,-0.0131868128568231,3.20248706145456,1.16335709423292,-0.0627002258133892,-0.0777370420270554,-0.764456663289298,-0.0131868133321404,-0.0127638950339735,-1.04000000000002,9.72219644286574,-0.672196442865733,0.177336648902918,-0.342967354486755,0.355599470793598,-0.916589328597177,9.67780355713429,1.30341067140284,0.223721269798924,-0.813029329943642,-0.158708342289312,-1.51125741004944,9.52499294281006,0.222736820578575,-1.47000002861023,1.19000005722046,3.95499992370605,506,-0.178003072738647,0.00142386462539434
0.175,5.86028226852417,0.756340059357639,0.84863282465717,-0.0607186156861147,-0.748890379998767,0.00439560459926724,0.00439553703016776,2.37821088225668,-0.306947664793656,-0.676797697584857,-0.0456640861236403,-0.447426776309142,0.00894987559319954,0.0090160976211649,0.0551804832899806,9.76481951671001,0.53036096657995,0.0319782919134157,-0.387329156753308,-0.0132369545183711,0.0351804832899714,9.61000000000001,-1.75,0.12985244850613,-0.0160675108769113,-0.278891872160355,-1.38911139965057,9.47709274291992,0.0383203141391277,1.85500001907349,-0.349999994039536,-7.24499988555908,417,-0.226486310362816,-0.00403264537453651,10.4950476455688,-0.0647476117521949,-1.05126181463004,-0.105895671750475,-1.30171114436686,-0.0131868133321404,-0.0131868128020399,3.19675349016249,0.410543842736556,0.0544666028469667,-0.0776053106810634,-0.760393095244978,-0.0131868133321404,-0.0128708740797851,-1.04000000000002,9.72481951671005,-0.674819516710038,0.13847629565393,-0.339728991716003,0.323215843086099,-0.92445855013009,9.67518048328999,1.29554144986991,0.210767818715918,-0.855128045963381,-0.200807058309051,-1.51125741004944,9.52499294281006,0.222736820578575,-1.47000002861023,1.19000005722046,3.95499992370605,506,-0.178003072738647,0.00142386462539434
0.18,5.86028226852417,0.191757042819031,0.906951437326144,-0.0607901735658941,-0.746092793666924,0.00439560459926724,0.0043961936537544,2.37247792048719,-1.05972502017847,-0.490579459470323,-0.0453985329082125,-0.444000270578917,0.00664398658057842,0.00659100330143289,0.0525575345207215,9.76744246547927,0.525115069041417,0.0157872501278525,-0.409996615253102,-0.000284121089923603,0.0325575345206974,9.61000000000001,-1.75,0.126614240149015,-0.0516878028051532,-0.262700830374792,-1.38911139965057,9.47709274291992,0.0383203141391277,1.85500001907349,-0.349999994039536,-7.24499988555908,417,-0.226486310362816,-0.00403264537453651,10.4950476455688,0.876224090295814,-0.992363923230884,-0.105825721608168,-1.30413159123356,-0.0131868133321404,-0.013186812760367,3.19102019226215,-0.342233512648254,0.171627844685433,-0.0774735856163677,-0.756329720962247,-0.0131868133321404,-0.0129834976741855,-1.04000000000002,9.72744246547931,-0.677442465479297,0.0996177953685725,-0.336490783358888,0.290833759514958,-0.932327396437867,9.67255753452073,1.28767260356212,0.197814985287456,-0.897224754605854,-0.242903766951524,-1.51125741004944,9.52499294281006,0.222736820578575,-1.47000002861023,1.19000005722046,3.95499992370605,506,-0.178003072738647,0.00142386462539434
0.185,5.86028226852417,-0.335023406024111,0.964663805219729,-0.0608619947800623,-0.74324016668728,0.00445373709521043,0.00445504133122993,2.36688793420792,-1.79372870922089,-0.31159579106788,-0.0451368007374903,-0.440687554510343,0.00445373709521043,0.00428391076118583,0.0501322514291596,9.77006612571456,0.519999999999982,0.00040818342329722,-0.431037488531529,0.0120191322737178,0.0301322514291213,9.61019837714374,-1.74993387428543,0.12370170017742,-0.0863381164017722,-0.247076853616258,-1.38936479539219,9.47690269808441,0.0381461045175004,1.85592577898293,-0.349074234130091,-7.24361124530078,416.986774857085,-0.226516926663226,-0.0040366590281272,10.4950476455688,1.77475085455464,-0.929369719761066,-0.105754268159095,-1.30650847292936,-0.0131868133321404,-0.0131868127350447,3.18542987823486,-1.07149273802411,0.284319584258968,-0.0773405573228324,-0.752350292893638,-0.0131868133321404,-0.0130983479404564,-1.04000000000002,9.73006612571459,-0.680066125714581,0.0616467583770612,-0.333578243387293,0.25901434920526,-0.939933874285424,9.67013225142916,1.27986774857082,0.185430095239141,-0.937781784830323,-0.284440437391906,-1.5110515255167,9.52532552757844,0.223116914289532,-1.47023146839052,1.19000005722046,3.95569424383521,506.019837714372,-0.177981111259365,0.00140524293197046
0.19,5.86028226852417,0.614367299113111,0.998608605298311,-0.0609439550025701,-0.738245137915179,0.006780257271593,0.00678231555520611,2.36688793420792,-1.79372870922089,-0.415267590492242,-0.045024676304006,-0.441821563093482,0.006780257271593,0.00649918332433219,0.0554250848655466,9.77271254243275,0.519999999999982,0.0167440890911713,-0.388564133795047,-0.00104959226057844,0.0354250848655234,9.61813762729832,-1.74728745756723,0.133503243578153,-0.0830709352681944,-0.253611215883399,-1.39950594443302,9.46929691517315,0.0311740625801959,1.89297560925194,-0.312024403861077,-7.18803648412338,416.457491513446,-0.227742221388218,-0.00419728942784158,10.4950476455688,1.01523827782576,-0.706645754807518,-0.105624287680859,-1.30718077925072,-0.0131868133321404,-0.0131868127290857,3.18542987823486,-0.881614593841892,0.222383319914741,-0.0771569271304045,-0.751654283936522,-0.0131868133321404,-0.013212023063785,-1.04000000000002,9.73271254243279,-0.682712542432774,0.0583795772434833,-0.343379786788026,0.249212805804542,-0.93728745756723,9.67542508486555,1.27457491513444,0.195231638639874,-0.918178698028871,-0.304043524193358,-1.50281182220369,9.53863590005511,0.238328641794244,-1.47949391807084,1.19000005722046,3.9834816244239,506.813762729831,-0.177102191064632,0.000659984281603416
0.195,5.86028226852417,1.56380327584945,1.03255502403123,-0.0610259191333428,-0.733249870955641,0.00910688838785332,0.00910971601229088,2.36688793420792,-1.79372870922089,-0.518944333495806,-0.0449125465238795,-0.442955625751705,0.00910688838785332,0.00872315698613541,0.0607181706901572,9.77535908534506,0.519999999999982,0.033080773735044,-0.346088753720969,-0.0141189399756736,0.040718170690149,9.62607725603523,-1.74464091465493,0.143305254364486,-0.0798035983394168,-0.260145889740939,-1.40964757705351,9.46169076958091,0.0242016881817815,1.93002720623834,-0.274972806874679,-7.13245907286916,415.928182930984,-0.228967574541265,-0.00435792748720021,10.4950476455688,0.255689483816987,-0.483911169284375,-0.105494301004517,-1.30785311763094,-0.0131868133321404,-0.0131868127451107,3.18542987823486,-0.691727395339699,0.160444102146054,-0.0769732881815897,-0.750958241790289,-0.0131868133321404,-0.0133212673153181,-1.04000000000002,9.73535908534509,-0.68535908534508,0.0551122403147058,-0.353181797574359,0.239410795018224,-0.934640914654925,9.68071817069016,1.26928182930983,0.205033649426207,-0.89857467645622,-0.323647545766008,-1.49457172598126,9.55194690723553,0.253541094668634,-1.48875680943012,1.19000005722046,4.01127033005102,507.607725603523,-0.17622322895868,-8.53099063464958e-05
0.2,5.86028226852417,2.51319398098667,1.06649982410981,-0.0611078793558506,-0.72825484218354,0.0114334085642359,0.0114369937785702,2.36688793420792,-1.79372870922089,-0.622616132920168,-0.0448004220903952,-0.444089634334844,0.0114334085642359,0.0109582508624254,0.0660110041265443,9.77800550206325,0.519999999999982,0.0494166794029181,-0.303615398984487,-0.0271876645099698,0.0460110041265511,9.63401650618981,-1.74199449793673,0.153106797765219,-0.076536417205839,-0.266680252008079,-1.41978872609434,9.45408498666965,0.017229646244477,1.96707703650736,-0.237922976605666,-7.07688431169177,415.398899587345,-0.230192869266257,-0.00451855788691459,10.4950476455688,-0.503823092911889,-0.261187204330827,-0.105364320526282,-1.3085254239523,-0.0131868133321404,-0.0131868127852051,3.18542987823486,-0.50184925115748,0.0985078378018272,-0.0767896579891619,-0.750262232833173,-0.0131868133321404,-0.0134230910210642,-1.04000000000002,9.73800550206328,-0.688005502063273,0.051845059181128,-0.362983340975093,0.229609251617506,-0.931994497936731,9.68601100412655,1.26398899587344,0.21483519282694,-0.878971589654769,-0.34325063256746,-1.48633202266824,9.5652572797122,0.268752822173347,-1.49801925911044,1.19000005722046,4.03905771063971,508.401650618982,-0.175344308763947,-0.000830568556713537
0.205,5.86028226852417,3.04362531316374,1.11784395647442,-0.0611799201762257,-0.724307876889257,0.0137537651285562,0.0137580662569324,2.36688793420792,-1.79372870922089,-0.756387762471382,-0.0447029370901518,-0.445375968526052,0.0126198615657556,0.0120667020562721,0.0680652770843684,9.78064490763852,0.52193472291561,0.0649131241409402,-0.266031662382957,-0.0362408547672075,0.0493550923614698,9.63999999999999,-1.74128981527709,0.161290009430314,-0.0931824485494008,-0.277178214160231,-1.42804953286009,9.45221422969611,0.0149097745330038,1.98371412416904,-0.214514361353172,-7.04628574338723,414.419583125312,-0.230949583762343,-0.0044781297292731,10.4950476455688,-1.07623720169067,-0.0937230640764478,-0.105313037412474,-1.30860630951489,-0.0131868133321404,-0.0131868128507851,3.18542987823486,-0.312474152427195,0.0297119748960252,-0.0767848064769954,-0.749897677125315,-0.0126198615657556,-0.0129479219992724,-1.0412898152771,9.73935509236147,-0.691934722915626,0.0454018047003398,-0.356835271783693,0.215852764063786,-0.930644907638548,9.68935509236146,1.26193472291562,0.217445128603397,-0.847477703198296,-0.35722850908822,-1.47904089414294,9.57590657207767,0.279599463522315,-1.49822846379687,1.18097134351552,4.05999994277954,509.515926110834,-0.174515264817568,-0.00127349583491739
0.21,5.86028226852417,2.29242643032872,1.22239983698076,-0.0612216052405477,-0.723567528632365,0.0160548191488066,0.0160597624811557,2.36688793420792,-1.79372870922089,-0.98220391370352,-0.0446502505662726,-0.44712799265365,0.0103188076673896,0.00970274779759808,0.0602129306040959,9.78326235646529,0.529787069395898,0.0778387973595028,-0.243411734250461,-0.033009436462578,0.0467376435347123,9.63999999999999,-1.74652471293061,0.164521427734958,-0.170736487860806,-0.299798142292726,-1.4305570842621,9.46788633235145,0.0268205725120616,1.93790878218171,-0.232836501268345,-7.09209114777941,412.063879181228,-0.230272842242875,-0.00382270446095776,10.4950476455688,-1.07623720169067,-0.0953220152698393,-0.105502486469732,-1.30687812095752,-0.0131868133321404,-0.0131868129425175,3.18542987823486,-0.124674437568894,-0.0600529531157932,-0.0773268103728108,-0.750547052743225,-0.0103188076673896,-0.0107264404228713,-1.04652471293062,9.73673764353471,-0.699787069395914,0.0292447131771328,-0.301901160604784,0.190001417626646,-0.933262356465306,9.6867376435347,1.26978706939591,0.198056618775546,-0.779617918800824,-0.353997090783575,-1.47465271039183,9.57841399867,0.277091927721509,-1.47074524612351,1.14432703248275,4.05999994277954,511.609885172242,-0.173838944530791,-0.00079155563405846
0.215,5.86028226852417,1.54119172665145,1.32696070322361,-0.0612632922926177,-0.722827145072042,0.0183559828945838,0.0183614615229901,2.36688793420792,-1.79372870922089,-1.20803083295584,-0.0445975615300418,-0.448880100326341,0.0080176440435027,0.00735490407627467,0.052360209685481,9.78587993010484,0.537639790314527,0.090765086937477,-0.220790727488995,-0.0297778640680957,0.044120069895174,9.63999999999999,-1.75175986020968,0.167753000129455,-0.248294225328681,-0.322419149054192,-1.43306475523645,9.48355918232941,0.0387319384563084,1.89210125597132,-0.251159514872896,-7.13789873639762,409.708062905642,-0.229596068453057,-0.00316724793875522,10.4950476455688,-1.07623720169067,-0.0969210427090558,-0.10569194456085,-1.30514984999166,-0.0131868133321404,-0.0131868130602064,3.18542987823486,0.0631342324996911,-0.149822161559065,-0.0778688401140268,-0.751196459326546,-0.0080176440435027,-0.00849097766093549,-1.0517598602097,9.73412006989517,-0.707639790314543,0.0130868512046615,-0.246964429898375,0.164148838470683,-0.935879930104844,9.68412006989516,1.27763979031454,0.178667184408577,-0.711754898516441,-0.350765518389078,-1.47026431739062,9.58092154482872,0.274584272349113,-1.4432607179157,1.10768097406974,4.05999994277954,513.703944083874,-0.173162591993749,-0.000309592451930118
0.22,5.86028226852417,0.789957022974179,1.43152156946647,-0.0613049793446877,-0.722086761511719,0.0206571466403609,0.0206630204011202,2.36688793420792,-1.79372870922089,-1.43385775220816,-0.0445448724938111,-0.450632207999032,0.00571648041961582,0.0050238264006735,0.0445074887668661,9.7884975037444,0.545492511233157,0.103691376515451,-0.198169720727529,-0.0265462916736133,0.0415024962556357,9.63999999999999,-1.75699500748876,0.170984572523953,-0.325851962796555,-0.345040155815658,-1.4355724262108,9.49923203230737,0.0506433044005552,1.84629372976092,-0.269482528477446,-7.18370632501584,407.352246630055,-0.228919294663239,-0.00251179141655269,10.4950476455688,-1.07623720169067,-0.0985200701482723,-0.105881402651967,-1.3034215790258,-0.0131868133321404,-0.0131868132026361,3.18542987823486,0.250942902568276,-0.239591370002337,-0.0784108698552427,-0.751845865909866,-0.00571648041961582,-0.00624052318140052,-1.05699500748877,9.73150249625563,-0.715492511233173,-0.0030710107678099,-0.192027699191966,0.138296259314719,-0.938497503744383,9.68150249625562,1.28549251123317,0.159277750041609,-0.643891878232058,-0.347533945994581,-1.46587592438942,9.58342909098743,0.272076616976717,-1.4157761897079,1.07103491565673,4.05999994277954,515.798002995507,-0.172486239456708,0.000172370730198225
0.225,5.86028226852417,0.358745723962784,1.46919505817332,-0.0613528484260728,-0.723222400809674,0.0200960730545161,0.0201021697140046,2.36688793420792,-1.5633367262878,-1.56008695765947,-0.0446273715743084,-0.451139568537332,0.00439560459926724,0.00368978568887769,0.0421407174866585,9.78785928251338,0.548929641256692,0.117718263847634,-0.205006643394795,-0.0273342191193243,0.0367889237700573,9.63678892377003,-1.75999999999999,0.160946631247082,-0.384906106390775,-0.356703260810716,-1.43521735617418,9.50720283280035,0.0536351741626291,1.82000005245209,-0.287492511629753,-7.19876126930057,407.284430491984,-0.228722858820937,-0.00251641414850935,10.4950476455688,-0.845845221947503,-0.132988875447133,-0.106083341299965,-1.30155462923081,-0.0131868133321404,-0.0131868133675203,3.18542987823486,0.281948399508338,-0.276918621279443,-0.0786363040449896,-0.752026916168779,-0.00533657931242544,-0.00589576789627666,-1.06107035874332,9.72785928251337,-0.718929641256702,0.00219005700803887,-0.156529535518579,0.12742108176537,-0.939999999999998,9.67785928251337,1.29000000000002,0.146826717600843,-0.583795382848022,-0.357571887271451,-1.46771497341379,9.58409938022879,0.267817331780324,-1.41123874500455,1.06498498595127,4.05999994277954,515.608533633684,-0.172083681668416,0.000427371529551217
0.23,5.86028226852417,0.358745723962784,1.41673616388568,-0.0614090536921635,-0.72688627237084,0.0156778211331007,0.0156839389257996,2.36688793420792,-1.02244557369933,-1.55211365000979,-0.0448920577194258,-0.449969580072694,0.00439560459926724,0.00369282329102213,0.0471664789475085,9.78283352105251,0.546416760526267,0.133229873294729,-0.25154147173605,-0.0335388628981477,0.0292502815787681,9.62925028157875,-1.75999999999999,0.133025734242327,-0.419031647174354,-0.353600938921297,-1.43100445211089,9.50479533922641,0.0446075764254043,1.82000005245209,-0.305082674945391,-7.17237601683814,410.299887368497,-0.229173698448954,-0.00341055201360161,10.4950476455688,-0.304954076848008,-0.211756444283405,-0.10630212119753,-1.29950058857108,-0.0131868133321404,-0.0131868135514632,3.18542987823486,0.101651356134486,-0.243579920120075,-0.0784351232325653,-0.751576835521728,-0.00754570521462554,-0.00812443856675838,-1.06358323947375,9.72283352105251,-0.716416760526263,0.0363155977916178,-0.147222569850322,0.136728047433627,-0.939999999999998,9.67283352105252,1.29000000000002,0.143724395711424,-0.534158232617349,-0.385492784276206,-1.47794625194145,9.58229387987183,0.261197095155914,-1.43762399746698,1.10016534253842,4.05999994277954,512.341788684128,-0.172050041223418,0.00037654918292298
0.235,5.86028226852417,0.358745723962784,1.36427977097579,-0.0614652562782396,-0.730549969228994,0.0112597798855325,0.011265691475004,2.36688793420792,-0.48158021222057,-1.54414072254834,-0.0451567312436133,-0.448799647396176,0.00439560459926724,0.00371103882646381,0.0521920007668622,9.77780799923314,0.543903999616591,0.148740743107575,-0.29807408117456,-0.039743210823272,0.0217119988497233,9.62171199884972,-1.75999999999999,0.105106168579218,-0.453155560762588,-0.350498764958728,-1.42679174892993,9.50238796044808,0.0355804091477322,1.82000005245209,-0.322671999515878,-7.1459920224938,413.315200460112,-0.229624516579755,-0.00430464724385384,10.4950476455688,0.235911277142146,-0.290520257275273,-0.106520890663095,-1.29744664585341,-0.0131868133321404,-0.0131868137498977,3.18542987823486,-0.0786370902031581,-0.210242808637475,-0.0782339520129701,-0.751126776335705,-0.00975472577990489,-0.010337864276406,-1.06609600038342,9.71780799923314,-0.713903999616572,0.0704395113798514,-0.137916047962614,0.146034569321335,-0.939999999999998,9.66780799923317,1.29000000000002,0.140622221748855,-0.484523449216269,-0.413412349939316,-1.48817704261491,9.58048846560586,0.254577174201762,-1.46400799181132,1.13534402163384,4.05999994277954,509.075199501546,-0.172016402382486,0.00032572925963761
0.24,5.86028226852417,0.358745723962784,1.31182087668815,-0.0615214615443304,-0.734213840790159,0.00684152796411715,0.00684698585286284,2.36688793420792,0.0593109403678928,-1.53616741489866,-0.0454214173887307,-0.447629658931538,0.00439560459926724,0.00374299672472373,0.0572177622277122,9.77278223777228,0.541391118886166,0.164252352554669,-0.344608909515815,-0.0459478546020955,0.014173356658434,9.61417335665845,-1.75999999999999,0.077185271574462,-0.487281101546167,-0.347396443069309,-1.42257884486664,9.49998046687415,0.0265528114105074,1.82000005245209,-0.340262162831517,-7.11960677003137,416.330657336624,-0.230075356207772,-0.0051987851089461,10.4950476455688,0.77680242224164,-0.369287826111545,-0.10673967056066,-1.29539260519368,-0.0131868133321404,-0.013186813957132,3.18542987823486,-0.258934133577011,-0.176904107478107,-0.0780327712005458,-0.750676695688654,-0.011963851682105,-0.0125371649769946,-1.06860888111385,9.71278223777228,-0.711391118886132,0.10456505216343,-0.128609082294358,0.155341534989591,-0.939999999999998,9.66278223777232,1.29000000000002,0.137519899859436,-0.434886298985596,-0.441333246944071,-1.49840832114257,9.57868296524889,0.247956937577352,-1.49039324427374,1.17052437822099,4.05999994277954,505.80845455199,-0.171982761937489,0.000274906913009373
0.245,5.86028226852417,0.526942605223441,1.23032282230196,-0.0617040790737469,-0.737691029656549,0.00542603764730423,0.00543078101013864,2.36688793420792,0.358745723962784,-1.41815981626768,-0.0455590764037841,-0.445699981585886,0.00439560459926724,0.00378692806306656,0.0564836472002392,9.76999999999998,0.537655764800176,0.171392447407529,-0.376158605431711,-0.0435944809880346,0.0146884703996728,9.61117211759993,-1.75999999999999,0.0458107486430565,-0.481572840495514,-0.373173128887002,-1.42024660110474,9.49864768981934,0.0215551760047674,1.82000005245209,-0.349999994039536,-7.10500001907349,418,-0.230324938893318,-0.00569377560168505,10.4950476455688,1.24443408644451,-0.311639358647458,-0.106811907620701,-1.29438080599287,-0.0131868133321404,-0.0131868141664393,3.18542987823486,-0.106450407311573,-0.111938404387106,-0.0780969485796529,-0.749937300640355,-0.0131868133321404,-0.0137373639796041,-1.06999999999999,9.7111721175999,-0.708827882400061,0.119115613827445,-0.117668555062111,0.160493827160508,-0.93765576480016,9.66117211759994,1.28882788240009,0.144484821727796,-0.378466232100731,-0.459684240987475,-1.50351085627794,9.5754376397419,0.249345046566128,-1.50499999523163,1.19820487259517,4.04359031203012,504.820482319944,-0.172141454444619,0.000407135560469751
0.25,5.86028226852417,0.903763991164953,1.11280018220926,-0.0620434991877956,-0.740937056371729,0.00773457753443507,0.00773834039338691,2.36688793420792,0.358745723962784,-1.16366934979228,-0.0455392044583599,-0.442827892362665,0.00439560459926724,0.00384081478670095,0.0486057547831224,9.76999999999998,0.532403836522093,0.168150516371679,-0.389126329575096,-0.0306267568446497,0.0251923269558236,9.61379808173897,-1.75999999999999,0.010149507248737,-0.42646001288611,-0.434769818568106,-1.42024660110474,9.49864768981934,0.0215551760047674,1.82000005245209,-0.349999994039536,-7.10500001907349,418,-0.230324938893318,-0.00569377560168505,10.4950476455688,1.62125548021201,-0.0847944559825771,-0.106702402334136,-1.29466154087376,-0.0131868133321404,-0.0131868143701816,3.18542987823486,0.458781659861721,-0.00774030538441485,-0.0784902438714891,-0.748839003808747,-0.0131868133321404,-0.0137032670975805,-1.06999999999999,9.71379808173895,-0.706201918261027,0.10938982071991,-0.104700830918726,0.160493827160508,-0.932403836522092,9.66379808173898,1.28620191826105,0.163936407942881,-0.313627611383792,-0.46616810305916,-1.50225300168473,9.57040622136904,0.260665671384203,-1.50499999523163,1.21658660403822,4.00682684914402,506.658657217269,-0.17253870525393,0.00076640771503581
0.255,5.86028226852417,1.28056740927383,0.99528314590448,-0.0623829031174025,-0.744182928307836,0.0100430073443254,0.0100455279424673,2.36688793420792,0.358745723962784,-0.909191018090227,-0.0455193334604822,-0.439955940088196,0.00439560459926724,0.0039024764738752,0.0407282380045911,9.76999999999998,0.527152158669734,0.164908739919609,-0.402093435383361,-0.0176596510363852,0.0356956826605269,9.61642392066514,-1.75999999999999,-0.0255100337240016,-0.371349813200967,-0.496363571157389,-1.42024660110474,9.49864768981934,0.0215551760047674,1.82000005245209,-0.349999994039536,-7.10500001907349,418,-0.230324938893318,-0.00569377560168505,10.4950476455688,1.9980589061465,0.142039630122001,-0.106592902269069,-1.29494226236848,-0.0131868133321404,-0.0131868145599768,3.18542987823486,1.02398677528663,0.0964528251794533,-0.0788835204099736,-0.747740759346815,-0.0131868133321404,-0.0136596708847464,-1.06999999999999,9.71642392066514,-0.703576079334855,0.0996644913637155,-0.0917337251104614,0.160493827160508,-0.927152158669748,9.66642392066515,1.28357607933486,0.183387066655285,-0.248792082342454,-0.472651655963284,-1.50099520706932,9.56537504290742,0.271985756405176,-1.50499999523163,1.23496745899208,3.97006513923631,508.496744465592,-0.172935937121279,0.00112566273856265
0.26,5.86028226852417,1.65738879521535,0.877760505811785,-0.0627223232314513,-0.747428955023016,0.0123515472314563,0.0123525784003863,2.36688793420792,0.358745723962784,-0.654700551614831,-0.0454994615150581,-0.437083850864976,0.00439560459926724,0.00396965597026356,0.0328503455874743,9.76999999999998,0.521900230391651,0.161666808883759,-0.415061159526746,-0.00469192689300039,0.0461995392166778,9.61904988480417,-1.75999999999999,-0.0611712751183211,-0.316236985591563,-0.557960260838493,-1.42024660110474,9.49864768981934,0.0215551760047674,1.82000005245209,-0.349999994039536,-7.10500001907349,418,-0.230324938893318,-0.00569377560168505,10.4950476455688,2.37488029991399,0.368884532786881,-0.106483396982504,-1.29522299724937,-0.0131868133321404,-0.0131868147269319,3.18542987823486,1.58921884245992,0.200650924182145,-0.0792768157018098,-0.746642462515207,-0.0131868133321404,-0.0136085615861787,-1.06999999999999,9.71904988480419,-0.700950115195821,0.0899386982561806,-0.0787660009670766,0.160493827160508,-0.92190023039168,9.66904988480418,1.28095011519581,0.20283865287037,-0.183953461625515,-0.479135518034969,-1.49973735247611,9.56034362453456,0.283306381223251,-1.50499999523163,1.25334919043513,3.9333016763502,510.334919362917,-0.17333318793059,0.00148493489312871
0.265,5.86028226852417,1.79372870922089,0.888445581096659,-0.0628478323608692,-0.749132758295721,0.0131868133321404,0.0131861335852688,2.36688793420792,0.358745723962784,-0.422805529914888,-0.0460178057828613,-0.434972905125021,0.00439560459926724,0.00404010066861076,0.0267709791053175,9.77322902089465,0.521614510447309,0.134581931092261,-0.411780195321828,0.00597966832343652,0.0500000000000114,9.62,-1.75999999999999,-0.0740740740740762,-0.310248855717669,-0.572274022482335,-1.42179332396494,9.4947809981476,0.0281287093669924,1.83130161480537,-0.366952356815925,-7.12195238184987,419.937412536795,-0.228972689526225,-0.00501789429945367,10.4950476455688,2.5112202167511,0.676705765014638,-0.106297394519584,-1.29660200983701,-0.0131868133321404,-0.0131868148619653,3.18542987823486,1.79372870922089,0.369119505554054,-0.0790630932943339,-0.746398428910326,-0.0131868133321404,-0.0135519979531484,-1.07161451044732,9.72322902089468,-0.696770979105333,0.0704739708905857,-0.0820469651719946,0.148534490513626,-0.920000000000016,9.67161451044734,1.27999999999997,0.199910429337473,-0.154514158837062,-0.47550181315803,-1.49966892158267,9.55813655512493,0.277735399088685,-1.49934921405499,1.23739684651023,3.90304771351756,510.677097910534,-0.173387457153955,0.00128627326561361
0.27,5.86028226852417,1.79372870922089,0.971823687044337,-0.0628520659136415,-0.749962266740792,0.0131868133321404,0.0131842383555958,2.36688793420792,0.358745723962784,-0.2037045259938,-0.0468413509002677,-0.433293360850007,0.00439560459926724,0.0041116367360354,0.0217109009313126,9.77828909906867,0.524144549534312,0.0939763654983541,-0.399286175139092,0.0153501834604843,0.0500000000000114,9.62,-1.75999999999999,-0.0740740740740762,-0.332113391037466,-0.5597800022996,-1.42421713565322,9.4887216498894,0.0384298482500966,1.84901187152457,-0.393517772055142,-7.14851779708909,422.973459441201,-0.226853629993484,-0.00395874592686183,10.4950476455688,2.5112202167511,1.03046260285812,-0.106068005179534,-1.298603835714,-0.0131868133321404,-0.0131868149560979,3.18542987823486,1.79372870922089,0.574041265495716,-0.0785051831841913,-0.746638734043456,-0.0131868133321404,-0.0134920367571543,-1.07414454953432,9.72828909906869,-0.691710900931328,0.0454859305251009,-0.0945409853547298,0.129793460239516,-0.920000000000016,9.67414454953435,1.27999999999997,0.18429290410905,-0.1451436437,-0.466131298020982,-1.50027487450474,9.55753069268411,0.262586662748127,-1.49049408569539,1.20197630291141,3.87648229827834,510.171090093133,-0.173247263999308,0.000771255051379587
0.275,5.86028226852417,1.79372870922089,1.0551978173051,-0.0628562992645469,-0.750791735632723,0.0131868133321404,0.0131822074897039,2.36688793420792,0.358745723962784,0.0153860306164005,-0.0476648567488814,-0.431613896660071,0.00439560459926724,0.00418223416091659,0.0166510640351149,9.78334893596488,0.526674467982411,0.0533727360843816,-0.38679275070403,0.0247202517867779,0.0500000000000114,9.62,-1.75999999999999,-0.0740740740740762,-0.353976883798837,-0.547286577864537,-1.4266408317678,9.48266259055682,0.048730495947864,1.86672128377225,-0.42008192058564,-7.17508194561959,426.009361578922,-0.224734671503062,-0.00289964805724409,10.4950476455688,2.5112202167511,1.38420257264716,-0.10583862677737,-1.30060556613868,-0.0131868133321404,-0.0131868150007685,3.18542987823486,1.79372870922089,0.778953254230056,-0.077947299676667,-0.746879027718206,-0.0131868133321404,-0.0134306650087796,-1.07667446798242,9.73334893596489,-0.686651064035131,0.0204990816549606,-0.107034409789793,0.111053323586914,-0.920000000000016,9.67667446798244,1.27999999999997,0.168676123565218,-0.135773575373692,-0.456761229694689,-1.50088079853338,9.5569248591324,0.247438648739075,-1.48163937957155,1.16655744825707,3.84991814974784,509.665106403513,-0.173107077529438,0.000256261394565661
0.28,5.86028226852417,1.79372870922089,1.13857592325278,-0.0628605328173192,-0.751621244077794,0.0131868133321404,0.0131801007529095,2.36688793420792,0.358745723962784,0.234487034537488,-0.0484884018662877,-0.429934352385056,0.00439560459926724,0.00425006107558406,0.01159098586111,9.7884090141389,0.529204507069413,0.0127671704904742,-0.374298730521294,0.0340907669238257,0.0500000000000114,9.62,-1.75999999999999,-0.0740740740740762,-0.375841419118635,-0.534792557681802,-1.42906464345608,9.47660324229862,0.0590316348309681,1.88443154049145,-0.446647335824857,-7.20164736085881,429.045408483328,-0.222615611970321,-0.00184049968465226,10.4950476455688,2.5112202167511,1.73795941049065,-0.10560923743732,-1.30260739201567,-0.0131868133321404,-0.0131868149882367,3.18542987823486,1.79372870922089,0.983875014171718,-0.0773893895665243,-0.747119332851335,-0.0131868133321404,-0.0133697407256674,-1.07920450706942,9.73840901413889,-0.681590985861126,-0.00448895871052417,-0.119528429972528,0.0923122933128041,-0.920000000000016,9.67920450706945,1.27999999999997,0.153058598336795,-0.12640306023663,-0.447390714557641,-1.50148675145545,9.55631899669157,0.232289912398517,-1.47278425121195,1.13113690465825,3.82335273450862,509.159098586112,-0.172966884374791,-0.00025875681966836
0.285,5.86028226852417,1.66088249866104,1.23726615865041,-0.0626681890978822,-0.751974360428272,0.00993136351823623,0.00992253829829754,2.36688793420792,0.358745723962784,0.345486515078904,-0.0483308092877626,-0.429699328828266,0.00439560459926724,0.00431352638549131,0.015554611134718,9.79000000000002,0.528148462955067,0.0160009374251263,-0.331510950909366,0.0736106082944441,0.0462969259101898,9.62370307408981,-1.75444538886527,-0.0809316186848386,-0.359857567346837,-0.558294375973949,-1.43692188250105,9.48578423517489,0.05074089516035,1.90296075472093,-0.39667659388088,-7.17759810454583,427.222694432639,-0.222676091230714,-0.00237213855399259,10.4950476455688,1.84698918602389,1.87446331020171,-0.105480034726406,-1.30391566754022,-0.0131868133321404,-0.013186814911947,3.18542987823486,1.52803629361919,1.13180961987034,-0.0772870245201766,-0.748334236709261,-0.0115590884682978,-0.0116832187087717,-1.08740614817962,9.7362969259102,-0.687406148179639,-0.00777398260517357,-0.14402942395575,0.116135779733093,-0.93110922226946,9.68000000000001,1.28185153704489,0.136718907130208,-0.123456790123441,-0.439872748037275,-1.50345107225271,9.56588434426604,0.231074434233414,-1.48296077556424,1.11351963129137,3.83444119972351,508.814846295509,-0.172211812071598,-0.000299186164489218
0.29,5.86028226852417,1.46709723554208,1.34298615490416,-0.0623856719850623,-0.752109004471913,0.00518257771471678,0.00517171273962673,2.36688793420792,0.358745723962784,0.406913035636664,-0.047723207697653,-0.430126817241458,0.00439560459926724,0.00437131027952193,0.0236572267511538,9.79000000000002,0.525447591082927,0.0393418054559914,-0.274825985691559,0.126961163793569,0.0408951821658942,9.62910481783409,-1.74634277324885,-0.0909348478409148,-0.32651347015988,-0.598307292598269,-1.44727170534159,9.50195583738785,0.0339224280136997,1.92186687199257,-0.311599126527714,-7.13033279526829,423.171386624425,-0.223736218490078,-0.00363342774761267,10.4950476455688,0.87806290262602,1.91133381141896,-0.105396773549179,-1.30490593772649,-0.0131868133321404,-0.0131868147669155,3.18542987823486,1.14046577543051,1.25361740074647,-0.0773935877471554,-0.749996224026542,-0.00918469562942264,-0.00925361848387923,-1.09820963566819,9.73089518216592,-0.698209635668215,-0.00110516316777915,-0.174039111424009,0.159483106076126,-0.947314453502316,9.68000000000001,1.28455240891704,0.120046858536737,-0.123456790123441,-0.433203928599881,-1.5060385440613,9.58011537481947,0.236249349678299,-1.50186686063897,1.104066588754,3.86280035953251,508.544759108295,-0.171174673400052,-0.000121948501202294
0.295,5.86028226852417,1.27332121261305,1.44870111015104,-0.0621031683433997,-0.752243642095372,0.000434018345767394,0.000421272231769323,2.36688793420792,0.358745723962784,0.468336627216713,-0.0471156350795818,-0.430554285270879,0.00439560459926724,0.00442238269288063,0.031759456013612,9.79000000000002,0.522746847995446,0.0626815605330118,-0.218143723361662,0.180309175398191,0.0354936959909169,9.63450630400906,-1.73824054398641,-0.100937600016772,-0.293170962906988,-0.638318301301713,-1.45762103467542,9.51812666849638,0.0171047628157021,1.94077208777091,-0.226525715891473,-7.08306973972475,419.1202719932,-0.224796295199791,-0.00489465679965382,10.4950476455688,-0.0908171798237526,1.94820255455394,-0.105313516342064,-1.30589616069408,-0.0131868133321404,-0.0131868145501519,3.18542987823486,0.752913737621299,1.37541937350794,-0.0775001458929199,-0.751658132095906,-0.00681041600782952,-0.00682893919388182,-1.10901260801813,9.72549369599096,-0.709012608018154,0.0055633382828025,-0.204047367951611,0.202828365504876,-0.963518912027217,9.68000000000001,1.28725315200454,0.103375604910299,-0.123456790123441,-0.426535427149299,-1.50862589249244,9.59434572680001,0.241424018369634,-1.52077204422195,1.09461399696251,3.89115816710235,508.274684799547,-0.170137584182,5.52807109276927e-05
0.3,5.86028226852417,1.0795359494941,1.55442110640479,-0.0618206512305797,-0.752378286139013,-0.00431476745775206,-0.00432914579693684,2.36688793420792,0.358745723962784,0.529763147774473,-0.0465080334894722,-0.43098177368407,0.00439560459926724,0.00446601023109286,0.0398620716300478,9.79000000000002,0.520045976123306,0.0860224285638769,-0.161458758143855,0.233659730897316,0.0300919522466213,9.63990804775334,-1.73013792836999,-0.110940829172848,-0.259826865720031,-0.678331217926034,-1.46797085751597,9.53429827070934,0.000286295669051791,1.95967820504255,-0.141448248538307,-7.03580443044721,415.068964184986,-0.225856422459154,-0.00615594599327391,10.4950476455688,-1.05974346322162,1.98507305577119,-0.105230255164836,-1.30688643088036,-0.0131868133321404,-0.0131868142609874,3.18542987823486,0.365343219432618,1.49722715438407,-0.0776067091198987,-0.753320119413187,-0.00443602316895437,-0.00440991091933428,-1.11981609550671,9.72009195224668,-0.71981609550673,0.0122321577201969,-0.234057055419871,0.246175691847909,-0.979724143260073,9.68000000000001,1.2899540238767,0.0867035563168279,-0.123456790123441,-0.419866607711905,-1.51121336430103,9.60857675735343,0.246598933814519,-1.53967812929668,1.08516095442515,3.91951732691135,508.004597612332,-0.169100445510454,0.000232518374214617
0.305,5.86028226852417,1.07623720169067,1.52393364381438,-0.0615959147881705,-0.752742452610627,8.5458240587752e-06,-7.12380147586479e-06,2.36688793420792,1.07763214217492,0.640387551623736,-0.0458199313680659,-0.433078656068848,0.00439560459926724,0.00450175243215723,0.0475145815106581,9.79000000000002,0.522504860503528,0.0709576512126795,-0.213064973531271,0.216013378986079,0.0249902789928809,9.63999999999999,-1.73751458151066,-0.104926270361594,-0.290183463006757,-0.69756686792749,-1.45434890997309,9.52197515124353,0.0113984615710116,1.91616496141872,-0.192602069528243,-7.07883495400062,414.49902789929,-0.225062228442672,-0.00301234611659797,10.4950476455688,-1.07623720169067,1.60725494841642,-0.105414707603286,-1.30632540353919,-0.0131868133321404,-0.0131868139013717,3.18542987823486,0.358745723962784,1.38449154636396,-0.0777893490257873,-0.754658686765415,-0.00439560459926724,-0.00433130989553833,-1.11749513949646,9.72250486050357,-0.722504860503573,0.00616083826284893,-0.305693569853853,0.240728739497433,-0.982504860503564,9.68000000000001,1.28499027899291,0.0740500715874186,-0.163658254995206,-0.404290984545994,-1.5106574874833,9.60461946032978,0.244887268330959,-1.54876699511484,1.11130107821187,3.92000007629395,509.502916302129,-0.169927272474866,0.00147443738671927
0.31,5.86028226852417,1.07623720169067,1.49108581689536,-0.0613721681081992,-0.753110611692761,0.00448918241462797,0.00447265293997017,2.36688793420792,1.80900334440374,0.751869346990361,-0.0451304017317769,-0.435204551286178,0.00439560459926724,0.00452944853862487,0.055159667541564,9.79000000000002,0.52505322251383,0.0552270215194452,-0.266549114488273,0.197136623354195,0.019893554972277,9.63999999999999,-1.74515966754156,-0.0986340184843085,-0.32164472239324,-0.716443623559374,-1.44031115065305,9.50915795305652,0.0229948783783879,1.87156860801109,-0.246117670073797,-7.1234313377871,413.98935549723,-0.224235882156399,0.000207691569235443,10.4950476455688,-1.07623720169067,1.22223679976119,-0.105603805341688,-1.30573748310379,-0.0131868133321404,-0.0131868134761502,3.18542987823486,0.358745723962784,1.26768857027146,-0.0779733153124983,-0.755991717959684,-0.00439560459926724,-0.00430000467866089,-1.11494677748616,9.72505322251387,-0.725053222513875,-0.000131413614450562,-0.378054466442739,0.234436487620133,-0.985053222513866,9.68000000000001,1.2798935549723,0.0614655678328195,-0.204557892197623,-0.38856035485276,-1.5100471461591,9.60034697992387,0.24305625575043,-1.55768628402367,1.13805888418068,3.92000007629395,511.031933508311,-0.170786420316304,0.00273485514574004
0.315,5.86028226852417,1.07623720169067,1.45823955624694,-0.0611484320970568,-0.753478753220103,0.0089696053566853,0.00895273284337099,2.36688793420792,2.54033967293419,0.863345826612405,-0.0444409049740706,-0.437330345135245,0.00439560459926724,0.00454919617046389,0.0628043890347037,9.79000000000002,0.527601463011543,0.039497141903919,-0.320030705181068,0.17826076781556,0.0147970739768505,9.63999999999999,-1.7528043890347,-0.0923420666381067,-0.353104481624307,-0.735319479098008,-1.42627406069022,9.49634136602716,0.0345907422381766,1.82697438107463,-0.299630718855067,-7.16802559510095,413.479707397686,-0.223409575272485,0.00342757571522116,10.4950476455688,-1.07623720169067,0.837237009781753,-0.105792894063414,-1.30514959070197,-0.0131868133321404,-0.0131868129932136,3.18542987823486,0.358745723962784,1.15089116365141,-0.0781572728272141,-0.757324685591527,-0.00439560459926724,-0.00427574826699605,-1.11239853698844,9.72760146301159,-0.727601463011588,-0.00642336546066683,-0.450411912674168,0.228144535773917,-0.987601463011579,9.68000000000001,1.27479707397686,0.048881664140387,-0.245455579198,-0.372830475237233,-1.50943683393758,9.59607470324103,0.241225330477385,-1.5666051476374,1.16481541426708,3.92000007629395,512.560877806941,-0.171645527191317,0.00399521280473416
0.32,5.86028226852417,1.04360029101335,1.41730549609127,-0.060940016720475,-0.753857054534866,0.0129202197770128,0.0129035974339198,2.36688793420792,3.16343778371738,0.974748602405638,-0.0437960692247205,-0.439518992483778,0.00452890137330077,0.00469462020807049,0.069848374918524,9.78954512475561,0.529999999999973,0.0235682092730867,-0.37729645433873,0.158809104033071,0.00984837491852177,9.63939349967411,-1.75999999999999,-0.0856709872520149,-0.386834261472025,-0.75121450516702,-1.41400579610385,9.48467718533283,0.0458322052300518,1.78659203026603,-0.349999994039536,-7.20946935267545,413.030325016294,-0.222701959370142,0.0063618502441726,10.4950476455688,-1.04360029101335,0.458952649587535,-0.105966321967882,-1.30461491687271,-0.0131868133321404,-0.013186812463561,3.18542987823486,0.326108812833583,1.02628098075104,-0.0783361077975371,-0.758566633421438,-0.00452890137330077,-0.00439177539100243,-1.10969674983707,9.73000000000002,-0.729393499674141,-0.0115969131779396,-0.518892901435741,0.221473456387813,-0.990000000000009,9.67984837491854,1.26999999999998,0.036475462661198,-0.285635340411385,-0.356714351147797,-1.50940709339889,9.59176289563067,0.239865113193271,-1.57340798403909,1.19106143177854,3.92000007629395,514.030325016294,-0.172449359969449,0.00515264467466558
0.325,5.86028226852417,0.488508114359553,1.24692768864181,-0.060977037208425,-0.754397696273464,0.0083859671861109,0.00837025165852426,2.36688793420792,2.05325343040978,1.08488110840757,-0.0438667310258126,-0.442712081501917,0.00679602760870805,0.00696677908539019,0.0672695188086382,9.78180855642594,0.529999999999973,0.00446557142206233,-0.495096054420035,0.130155147256527,0.0072695188086359,9.62907807523457,-1.75999999999999,-0.0729358953513222,-0.456877266925776,-0.719376775415318,-1.43006446774675,9.491471246997,0.0513909754443622,1.81367002433863,-0.349999994039536,-7.20044339564106,413.546096238272,-0.223895031952084,0.00472144309821016,10.4950476455688,-0.488508114359553,0.188481876490371,-0.105888896425677,-1.30493264862134,-0.0131868133321404,-0.0131868119013098,3.18542987823486,-0.228983371505805,0.776697739606955,-0.0784327913171394,-0.758350445145781,-0.00679602760870805,-0.00664834804414616,-1.10453903761729,9.73000000000002,-0.719078075234583,0.00113817872273844,-0.525260447386072,0.208738364487135,-0.990000000000009,9.67726951880865,1.26999999999998,0.0269241437356931,-0.314289297187914,-0.334427940321599,-1.51867170337762,9.58682173751682,0.246041526250414,-1.54632998996648,1.20911340733203,3.92000007629395,514.546096238272,-0.172367662146496,0.00466140697267603
0.33,5.86028226852417,-0.0666105318081771,1.07654175674395,-0.0610140594616932,-0.754938363792508,0.00385149837983584,0.00383739279563011,2.36688793420792,0.94301613807432,1.19501886606684,-0.0439373961964055,-0.445905322782181,0.00906326195179904,0.00923263865097833,0.0646905397262612,9.77407161917879,0.529999999999973,-0.0146379773363032,-0.612901271763277,0.101499824118971,0.00469053972625897,9.61876215890506,-1.75999999999999,-0.0602001961790688,-0.526923612373112,-0.687537527484714,-1.44612390514576,9.49826563263531,0.0569500107280644,1.84074930962263,-0.349999994039536,-7.19141700820483,414.061892054747,-0.225088161425571,0.00308095772959997,10.4950476455688,0.0666105318081771,-0.0820017939780727,-0.105811467191443,-1.30525039552097,-0.0131868133321404,-0.0131868113235857,3.18542987823486,-0.784102025359492,0.527102597111429,-0.0785294794470855,-0.758134246561208,-0.00906326195179904,-0.00891129492843065,-1.09938107945252,9.73000000000002,-0.70876215890506,0.0138738778949772,-0.531628296972184,0.196002665314896,-0.990000000000009,9.67469053972627,1.26999999999998,0.0173723693565177,-0.342944620325455,-0.31214046677017,-1.52793675513833,9.58188034378437,0.252218233829184,-1.51925070468249,1.22716624369215,3.92000007629395,515.061892054747,-0.172285960427791,0.00417014584606668
0.335,5.86028226852417,-0.621702708461976,0.906163949294497,-0.0610510799496432,-0.755479005531105,-0.00068275421106605,-0.000694521042325541,2.36688793420792,-0.167168215233277,1.30515137206878,-0.0440080579974975,-0.44909841180032,0.0113303881872063,0.0114927933906453,0.0621116836163754,9.76633505084912,0.529999999999973,-0.0337406151873276,-0.730700871844581,0.0728458673424276,0.0021116836163731,9.60844673446551,-1.75999999999999,-0.0474651042783761,-0.596966617826863,-0.655699797733011,-1.46218257678866,9.50505969429947,0.0625087809423748,1.86782730369523,-0.349999994039536,-7.18239105117044,414.577663276725,-0.226281234007514,0.00144055058363753,10.4950476455688,0.621702708461976,-0.352472567075237,-0.105734041649239,-1.30556812726959,-0.0131868133321404,-0.0131868107502507,3.18542987823486,-1.33919420969888,0.277519355967347,-0.0786261629666879,-0.757918058285551,-0.0113303881872063,-0.0111798030225155,-1.09422336723273,9.73000000000002,-0.698446734465502,0.0266089697956553,-0.537995842922516,0.183267573414218,-0.990000000000009,9.67211168361639,1.26999999999998,0.0078210504310128,-0.371598577101985,-0.289854055943973,-1.53720136511705,9.57693918567053,0.258394646886327,-1.49217271060988,1.24521821924564,3.92000007629395,515.577663276725,-0.172204262604839,0.00367890814407714
0.34,5.86028226852417,-1.07623720169067,0.715223311319734,-0.0611145840735044,-0.756148728662248,-0.00439560459926724,-0.00440430252721259,2.36688793420792,-1.07623720169067,1.35214578268534,-0.0441264453219931,-0.451977286384586,0.0131868133321404,0.0133375462591639,0.0595201838453504,9.75952018384534,0.529040367690669,-0.0458285223111997,-0.830122321942277,0.0452361566881744,0,9.59952018384537,-1.75904036769069,-0.0411835963982032,-0.650766793916165,-0.627852532760538,-1.47533214092255,9.51062297821045,0.0670605525374413,1.88999998569489,-0.349999994039536,-7.17500019073486,415,-0.227258175611496,9.73112764768302e-05,10.4950476455688,1.07623720169067,-0.546907399006189,-0.105652029111838,-1.3061806271446,-0.0131868133321404,-0.0131868102034439,3.18542987823486,-1.79372870922089,0.0177028993767903,-0.0787092198534762,-0.757473830920342,-0.0131868133321404,-0.0130425696521953,-1.08952018384532,9.72952018384537,-0.689520183845346,0.0364446714139844,-0.550910629642546,0.167508215565614,-0.989040367690705,9.67047981615467,1.26952018384533,0.00888548434541227,-0.416979256447056,-0.269827841402512,-1.54478764533997,9.5728931427002,0.263452172279358,-1.47000002861023,1.25999999046326,3.92000007629395,516,-0.17213736474514,0.00327666057273746
0.345,5.86028226852417,-1.07623720169067,0.43139703841008,-0.0612977583767932,-0.757401647312062,-0.00439560459926724,-0.00440052953564639,2.36688793420792,-1.07623720169067,1.11379873134994,-0.0444604865482827,-0.453435554415252,0.0131868133321404,0.0133221171331352,0.0568721037413085,9.7568721037413,0.523744207482585,-0.0262131141330929,-0.846468495424045,0.022351513813729,0,9.59687210374131,-1.7537442074826,-0.0640682392726636,-0.631151385738058,-0.618044828671492,-1.47533214092255,9.51062297821045,0.0670605525374413,1.88999998569489,-0.349999994039536,-7.17500019073486,415,-0.227258175611496,9.73112764768302e-05,10.4950476455688,1.07623720169067,-0.397681532156668,-0.105549304868655,-1.30812510020206,-0.0131868133321404,-0.0131868097069897,3.18542987823486,-1.79372870922089,-0.288303137645309,-0.0787306778698685,-0.755999153496955,-0.0131868133321404,-0.0130530824404467,-1.08687210374128,9.72687210374133,-0.686872103741304,0.0331754367176458,-0.593410680695114,0.138085103298446,-0.983744207482621,9.67312789625871,1.26687210374129,0.0579240047906718,-0.53794094021205,-0.260020137313467,-1.54478764533997,9.5728931427002,0.263452172279358,-1.47000002861023,1.25999999046326,3.92000007629395,516,-0.17213736474514,0.00327666057273746
0.35,5.86028226852417,-1.07623720169067,0.147584299082006,-0.0614809239458504,-0.758654506219427,-0.00439560459926724,-0.00439610833094352,2.36688793420792,-1.07623720169067,0.875463045027473,-0.0447945118466099,-0.454893752911871,0.0131868133321404,0.0133038880123656,0.0542241499046756,9.75422414990467,0.518448299809319,-0.00659864126912771,-0.862813889477362,-0.000532037860884512,0,9.59422414990466,-1.74844829980934,-0.0869517909472922,-0.611536912874093,-0.608237592239517,-1.47533214092255,9.51062297821045,0.0670605525374413,1.88999998569489,-0.349999994039536,-7.17500019073486,415,-0.227258175611496,9.73112764768302e-05,10.4950476455688,1.07623720169067,-0.248462780788114,-0.105446585523633,-1.31006948054194,-0.0131868133321404,-0.0131868092857263,3.18542987823486,-1.79372870922089,-0.594294583496465,-0.0787521348630863,-0.754524546390057,-0.0131868133321404,-0.0130669329291326,-1.08422414990465,9.72422414990469,-0.684224149904671,0.0299063579069975,-0.635908705233707,0.108663394002491,-0.978448299809356,9.67577585009534,1.26422414990466,0.106960186950577,-0.658896856206505,-0.250212900881491,-1.54478764533997,9.5728931427002,0.263452172279358,-1.47000002861023,1.25999999046326,3.92000007629395,516,-0.17213736474514,0.00327666057273746
0.355,5.86028226852417,-1.07623720169067,-0.136241973827648,-0.0616640982491392,-0.759907424869242,-0.00439560459926724,-0.00439112618840677,2.36688793420792,-1.07623720169067,0.637115993692072,-0.0451285530728996,-0.456352020942537,0.0131868133321404,0.0132837967389411,0.0515760698006337,9.75157606980062,0.513152139601236,0.0130167669089791,-0.87916006295913,-0.0234166807353299,0,9.59157606980061,-1.74315213960125,-0.109836433821753,-0.591921504695986,-0.598429888150471,-1.47533214092255,9.51062297821045,0.0670605525374413,1.88999998569489,-0.349999994039536,-7.17500019073486,415,-0.227258175611496,9.73112764768302e-05,10.4950476455688,1.07623720169067,-0.0992369139385921,-0.10534386128045,-1.3120139535994,-0.0131868133321404,-0.0131868089647421,3.18542987823486,-1.79372870922089,-0.900300620518565,-0.0787735928794785,-0.753049868966669,-0.0131868133321404,-0.013083273654883,-1.08157606980061,9.72157606980065,-0.681576069800629,0.0266371232106589,-0.678408756286275,0.079240281735323,-0.973152139601272,9.67842393019938,1.26157606980061,0.155998707395837,-0.779858539971499,-0.240405196792445,-1.54478764533997,9.5728931427002,0.263452172279358,-1.47000002861023,1.25999999046326,3.92000007629395,516,-0.17213736474514,0.00327666057273746
0.36,5.86028226852417,-0.999791827929368,-0.374819851468094,-0.0618315519134677,-0.761730076839245,-0.00345894222228125,-0.00344904000968647,2.36688793420792,-0.92334645734336,0.382498069287657,-0.0454388170230345,-0.455932327471184,0.0122501510047685,0.0123260717649986,0.0478690931910961,9.75319636021336,0.509999999999991,0.0312682308917201,-0.887573514315511,-0.0475600336242278,-0.00106545340445463,9.5942618136178,-1.74106545340446,-0.124772164696844,-0.589454535594069,-0.582069596005391,-1.47048375211093,9.50781601426143,0.0652743049888428,1.90118724847386,-0.353729080574094,-7.16008380649304,414.786909319109,-0.226761246145912,0.000160224130926557,10.4950476455688,0.999791827929368,0.0713956216165747,-0.105258863931199,-1.31343550585349,-0.0122501510047685,-0.0122501464410851,3.18542987823486,-1.56439258793697,-1.12228998021693,-0.0788754206155004,-0.751983693487159,-0.0122501510047685,-0.0121646096034592,-1.07999999999998,9.72213090680894,-0.682130906808916,0.0181144851577019,-0.716857449437713,0.0551515221947116,-0.966803639786657,9.68000000000001,1.26319636021336,0.170716064877741,-0.896574587347514,-0.235883275807987,-1.53687712558505,9.5726380011083,0.259879675594512,-1.46627094525097,1.25254182374474,3.92000007629395,517.171998744901,-0.172262161917772,0.00315025597961826
0.365,5.86028226852417,-0.810934202941488,-0.546893795562467,-0.0619759100940126,-0.764390664249768,-0.00114492604014551,-0.00112930912348401,2.36688793420792,-0.545631215212148,0.103925891664743,-0.0457141560471462,-0.452751279875472,0.0099361349452038,0.00999084178318516,0.0426047066206435,9.76109294006902,0.509999999999991,0.0475163375906144,-0.884323892975729,-0.0735570043424677,-0.00369764668967345,9.60479058675869,-1.74369764668968,-0.128021786036626,-0.612201884972527,-0.556072625287151,-1.45850585010159,9.50088143445947,0.0608613960962517,1.92882528298919,-0.362941756131023,-7.12323301013076,414.260470662065,-0.225533586262273,0.000315649785717425,10.4950476455688,0.810934202941488,0.273524054370401,-0.105199921723038,-1.31408833671337,-0.0099361349452038,-0.00993613033264069,3.18542987823486,-0.997819712973329,-1.22076960060618,-0.0790954338466517,-0.751518042814811,-0.0099361349452038,-0.00986945664446049,-1.07999999999998,9.72739529337937,-0.687395293379354,0.00186637845880761,-0.749353662835502,0.0389034154958173,-0.958907059930986,9.68000000000001,1.27109294006903,0.13497023014017,-1.00706171290001,-0.239132897147769,-1.51733425595374,9.57200767604468,0.251053853887056,-1.45705827753859,1.23411648831997,3.92000007629395,520.067411358644,-0.17257047223753,0.00283797454165197
0.37,5.86028226852417,-0.622085583180816,-0.718959534719587,-0.0621202613911807,-0.767051124796501,0.00116897980362565,0.00119042186467805,2.36688793420792,-0.167933983534977,-0.174633002905643,-0.0459894819423705,-0.449570383960458,0.00762222922399785,0.00765630142724905,0.0373405710699587,9.76898914339503,0.509999999999991,0.063763669537139,-0.881074426586421,-0.099552735456916,-0.00632971446500836,9.61531885786004,-1.74632971446502,-0.131271252425934,-0.634948149697667,-0.530076894172703,-1.44652851923005,9.49394718531647,0.056448697622738,1.95646199965051,-0.372153992403403,-7.08638397091117,413.734057106997,-0.224305984916678,0.000471068029405165,10.4950476455688,0.622085583180816,0.475642849110077,-0.105140982325397,-1.31474113644457,-0.00762222922399785,-0.00762222472991172,3.18542987823486,-0.431273853691312,-1.31924452522867,-0.0793154365869947,-0.751052414345909,-0.00762222922399785,-0.00757454733582637,-1.07999999999998,9.73265942893004,-0.692659428930024,-0.0143809534877169,-0.781848326728551,0.0226560835492927,-0.951010856604966,9.68000000000001,1.27898914339505,0.0992260998578133,-1.11754357013639,-0.242382363537077,-1.49779231817774,9.5713773810366,0.242228453017942,-1.44784604911038,1.21569203146356,3.92000007629395,522.962685911516,-0.172878767856244,0.00252570799408421
0.375,5.86028226852417,-0.433227958192936,-0.89103347881396,-0.0622646195717257,-0.769711712207023,0.00348299598576139,0.0035101665732323,2.36688793420792,0.209781258596235,-0.453205180528557,-0.0462648209664821,-0.446389336364746,0.00530821316443316,0.0053228571050454,0.0320761844995061,9.77688572325068,0.509999999999991,0.0800117762360333,-0.87782480524664,-0.125549706175156,-0.00896190775022718,9.62584763100093,-1.74896190775024,-0.134520873765716,-0.657695499076125,-0.504079923454463,-1.43455061722071,9.4870126055145,0.0520357887301469,1.98410003416584,-0.381366667960331,-7.04953317454888,413.207618449953,-0.223078325033038,0.000626493684196033,10.4950476455688,0.433227958192936,0.677771281863904,-0.105082040117236,-1.31539396730445,-0.00530821316443316,-0.00530820897231871,3.18542987823486,0.135299021272327,-1.41772414561792,-0.0795354498181459,-0.750586763673561,-0.00530821316443316,-0.00527900772257335,-1.07999999999998,9.73792381550048,-0.697923815500461,-0.0306290601866113,-0.81434454012634,0.00640797685039839,-0.943114276749295,9.68000000000001,1.28688572325072,0.0634802651202428,-1.22803069568888,-0.245631984876859,-1.47824944854643,9.57074705597297,0.233402631310486,-1.438633381398,1.1972666960388,3.92000007629395,525.858098525259,-0.173187078176003,0.00221342655611793
0.38,5.86028226852417,-0.467686600869927,-0.954369015181805,-0.0623248979364075,-0.771735838877611,0.00706524470936465,0.00709781804410122,2.36688793420792,0.467686600869927,-0.517751869859509,-0.0461088597584412,-0.442527586876079,0.00439560459926724,0.00439254117919803,0.0284816422174938,9.77999999999997,0.509999999999991,0.0901687846481058,-0.855923536287321,-0.145175048039995,-0.00696328443503306,9.63,-1.75151835778248,-0.135802469135797,-0.664792150885844,-0.506948770959703,-1.42473564708002,9.48427772521973,0.0448406673843577,1.98968575759776,-0.374371487071909,-7.02968561834173,412.696328443504,-0.22351233202006,-0.000142788346518511,10.4950476455688,0.358745723962784,0.759104815272732,-0.105042394387386,-1.31446634232515,-0.00439560459926724,-0.00439560090383485,3.18542987823486,0.358745723962784,-1.33091784430846,-0.079946191276125,-0.751065681729397,-0.00439560459926724,-0.00438379326166104,-1.07999999999998,9.73848164221753,-0.703036715564955,-0.0332880054753356,-0.838407588512176,0.00562354734251549,-0.941518357782477,9.67848164221753,1.29000000000002,0.0512572318302065,-1.23036559109312,-0.256286159151138,-1.47308761793491,9.57595315338764,0.239376770571825,-1.45094280350068,1.19000005722046,3.90937154575224,526.392656887008,-0.17250396799936,0.00263146916943554
0.385,5.86028226852417,-0.647584874137377,-0.946892580307936,-0.0623304232397791,-0.773345623606992,0.011473724425031,0.0115111293449502,2.36688793420792,0.647584874137377,-0.442917435806721,-0.0456719977487198,-0.43822221950504,0.00439560459926724,0.00437695228817267,0.0259743194289782,9.77999999999997,0.509999999999991,0.0963597051135727,-0.821873473727203,-0.160652349203684,-0.00194863885800189,9.63,-1.75402568057099,-0.135802469135797,-0.661696690653104,-0.528616992588873,-1.41632853477519,9.48427772521973,0.0358330362494547,1.98091013620704,-0.356820229345661,-7.02091002684063,412.1948638858,-0.225028550085368,-0.0015143559322603,10.4950476455688,0.358745723962784,0.761775885772185,-0.10501531255725,-1.31250935688357,-0.00439560459926724,-0.00439560160050167,3.18542987823486,0.358745723962784,-1.12343542767056,-0.0804811787109191,-0.752159797176482,-0.00439560459926724,-0.00439964190211549,-1.07999999999998,9.73597431942901,-0.708051361142001,-0.0270970850098687,-0.856980349908605,0.0149099280407229,-0.944025680570992,9.67597431942901,1.29000000000002,0.0543526920629471,-1.16226546597288,-0.271763460314826,-1.47729117408732,9.58496068831534,0.254990000487665,-1.47726966767284,1.19000005722046,3.89182024319157,525.389727771601,-0.171175131678158,0.00352517542612186
0.39,5.86028226852417,-0.827474569383023,-0.939416501930104,-0.0623359482796898,-0.774955331577613,0.0158819939328147,0.0159234048918936,2.36688793420792,0.827474569383023,-0.368086570056148,-0.0452351565697256,-0.433917057425217,0.00439560459926724,0.00436376239745678,0.0234671161961935,9.77999999999997,0.509999999999991,0.102550330379704,-0.787825034763431,-0.176128912369033,0.00306576760756748,9.63,-1.75653288380378,-0.135802469135797,-0.658601378020031,-0.550284181020368,-1.40792182334354,9.48427772521973,0.0268258346220442,1.97213493326098,-0.339269808509443,-7.01213485378276,411.693423239243,-0.226544695853419,-0.00288585811805998,10.4950476455688,0.358745723962784,0.764446828907987,-0.104988232018448,-1.31055246475619,-0.00439560459926724,-0.00439560249559095,3.18542987823486,0.358745723962784,-0.915962904338805,-0.0810161406361082,-0.75325386045327,-0.00439560459926724,-0.00441358542421788,-1.07999999999998,9.73346711619623,-0.713065767607584,-0.0209064597437373,-0.875552225707028,0.0241958659399271,-0.946532883803777,9.67346711619623,1.29000000000002,0.0574480046960199,-1.09416858804534,-0.287240023480176,-1.48149452980315,9.59396779374014,0.270602485923727,-1.50359527651102,1.19000005722046,3.87426977752307,524.386846478486,-0.169846358719359,0.00441883906854836
0.395,5.86028226852417,-1.00737284265047,-0.931940067056235,-0.0623414735830615,-0.776565116306993,0.0202904736484811,0.0203348101722657,2.36688793420792,1.00737284265047,-0.29325213600336,-0.0447982945600042,-0.429611690054178,0.00439560459926724,0.00435313881159101,0.0209597934076779,9.77999999999997,0.509999999999991,0.108741250845171,-0.753774972203313,-0.191606213532722,0.00808041318459865,9.63,-1.75904020659229,-0.135802469135797,-0.65550591778729,-0.571952402649538,-1.39951471103871,9.48427772521973,0.0178182034871411,1.96335931187026,-0.321718550783195,-7.00335926228165,411.191958681539,-0.228060913918726,-0.00425742570380177,10.4950476455688,0.358745723962784,0.76711789940744,-0.104961150188312,-1.30859547931461,-0.00439560459926724,-0.00439560357986759,3.18542987823486,0.358745723962784,-0.7084804877009,-0.0815511280709022,-0.754347975900355,-0.00439560459926724,-0.00442536801346824,-1.07999999999998,9.73095979340771,-0.71808041318463,-0.0147155392782704,-0.894124987103457,0.0334822466381345,-0.949040206592292,9.67095979340771,1.29000000000002,0.0605434649287605,-1.0260684629251,-0.302717324643865,-1.48569808595556,9.60297532866784,0.286215715839567,-1.52992214068318,1.19000005722046,3.85671847496239,523.383917363079,-0.168517522398157,0.00531254532523468
0.4,5.86028226852417,-0.849803669959318,-0.884161857167226,-0.0621349341901499,-0.776022228438566,0.020590811218661,0.020636746889813,2.36688793420792,0.963020433473663,-0.144115682018532,-0.0447127375037808,-0.427498638213209,0.00578281583780204,0.00573235401327901,0.0184220472056791,9.77999999999997,0.511577952794294,0.115007290850111,-0.754377369827333,-0.201427043936543,0.00684409441138556,9.62842204720569,-1.75999999999999,-0.131906289396771,-0.706919414131131,-0.552973655407093,-1.39780818248282,9.48956863806676,0.0158818086528311,1.94895436031015,-0.320522831831559,-7.0165685073499,411.788976397152,-0.227703694087025,-0.00406864732248193,10.4950476455688,-0.0941213536079245,0.641985302516836,-0.105112695687468,-1.30651321014153,-0.00439560459926724,-0.00439560483580913,3.18542987823486,0.245528960448439,-0.509938969168521,-0.0817402118317956,-0.755665110872273,-0.00578281583780204,-0.00582204586178385,-1.08157795279429,9.7268440944114,-0.718422047205716,-0.0123456790123555,-0.889546028684145,0.0389851269065225,-0.948422047205686,9.67000000000002,1.29000000000002,0.0558841254531913,-0.943505393784174,-0.29500534622208,-1.48050457791423,9.60415586541132,0.279720946289123,-1.55104563968985,1.17895437938364,3.86104560128005,523.315590558861,-0.168367972800403,0.00574678127929419
0.405,5.86028226852417,-0.482905421680713,-0.811382455280115,-0.06179684400367,-0.774144086108031,0.0183430637385129,0.0183890455641616,2.36688793420792,0.779571305524413,0.051118720855147,-0.044845073564271,-0.4267452244796,0.00803056319888924,0.00797469800237199,0.0158652345654786,9.77999999999997,0.514134765434494,0.121320408480247,-0.776473281532779,-0.207740161566679,0.00173046913098448,9.62586523456549,-1.75999999999999,-0.125593171766636,-0.792146502137888,-0.508781831996173,-1.40025761311785,9.49814169100874,0.0183312554801395,1.93105665841772,-0.329471675157881,-7.04341504494876,413.067382717254,-0.226184431710549,-0.00291203720184725,10.4950476455688,-0.827917873024821,0.437571783552194,-0.105375047935064,-1.30435307184492,-0.00439560459926724,-0.00439560623729097,3.18542987823486,0.0620798401190841,-0.316927775017864,-0.081714760661814,-0.757120677265062,-0.00803056319888924,-0.0080768835257993,-1.08413476543449,9.72173046913099,-0.715865234565501,-0.0123456790123555,-0.870606675793753,0.0421416857215902,-0.945865234565485,9.67000000000002,1.29000000000002,0.0464144490080025,-0.851965188147281,-0.27290943451662,-1.46948206385763,9.60048173469857,0.259513010201951,-1.56894334158228,1.1610566774912,3.87894333365207,523.826953086901,-0.168949873737012,0.00589606062719332
0.41,5.86028226852417,-0.116024668073493,-0.738606523705892,-0.0614587699382175,-0.772266033332251,0.0160954234368638,0.0161397021693585,2.36688793420792,0.596130924911036,0.246343814440114,-0.0449774033146307,-0.425991846670734,0.0102782033814832,0.0102194085432338,0.013308543840815,9.77999999999997,0.516691456159158,0.127633225084365,-0.798568139647164,-0.214052978170797,-0.00338291231834277,9.62330854384083,-1.75999999999999,-0.119280355162517,-0.877369526293415,-0.464592115767373,-1.4027069269576,9.50671433516506,0.0207805855113947,1.91315980993468,-0.338420091779868,-7.07026030243426,414.345728079586,-0.22466524177649,-0.00175548223141858,10.4950476455688,-1.56167940309786,0.233168011560609,-0.105637387673016,-1.30219303654938,-0.00439560459926724,-0.00439560774949714,3.18542987823486,-0.12136053287476,-0.123925784147493,-0.0816893107054109,-0.758576174252626,-0.0102782033814832,-0.0103292635893503,-1.08669145615915,9.71661708768165,-0.713308543840822,-0.0123456790123555,-0.851668225981412,0.0452980940236495,-0.943308543840822,9.67000000000002,1.29000000000002,0.0369452241018393,-0.760429347387636,-0.25081457640222,-1.45846007538344,9.59680777917801,0.239306037682205,-1.58684019006532,1.14315982900816,3.89684021261324,524.338291231835,-0.169531746927057,0.00604533285706137
0.415,5.86028226852417,0.250873580205113,-0.665827121818781,-0.0611206797517377,-0.770387891001716,0.0138476759567157,0.013888347604395,2.36688793420792,0.412681796961786,0.441578217313793,-0.0451097393751209,-0.425238432937125,0.0125259507425704,0.0124665106032529,0.0107517312006144,9.77999999999997,0.519248268799358,0.133946342714501,-0.82066405135261,-0.220366095800933,-0.00849653759874386,9.62075173120063,-1.75999999999999,-0.112967237532382,-0.962596614300172,-0.420400292356453,-1.40515635759263,9.51528738810704,0.0232300323387031,1.89526210804224,-0.347368935106191,-7.09710684003312,415.624134399688,-0.223145979400014,-0.000598872110783897,10.4950476455688,-2.29547592251476,0.0287544925959669,-0.105899739920612,-1.30003289825277,-0.00439560459926724,-0.00439560932917698,3.18542987823486,-0.304809653204115,0.069085410003164,-0.0816638595354293,-0.760031740645416,-0.0125259507425704,-0.0125795020861998,-1.08924826879935,9.71150346240123,-0.710751731200607,-0.0123456790123555,-0.83272887309102,0.0484546528387173,-0.940751731200621,9.67000000000002,1.29000000000002,0.0274755476566505,-0.668889141750743,-0.22871866469676,-1.44743756132685,9.59313364846525,0.219098101595033,-1.60473789195776,1.12526212711573,3.91473794498525,524.849653759875,-0.170113647863666,0.0061946122049605
0.42,5.86028226852417,0.224774291777512,-0.571103075964681,-0.06101952745528,-0.767194769788359,0.0131868133321404,0.0132218717128847,2.36688793420792,0.358745723962784,0.535137473895074,-0.0449610387093967,-0.426755464347666,0.0131868133321404,0.0131287668862073,0.00999999999999091,9.77999999999997,0.519999999999982,0.135802469135797,-0.877875108857113,-0.236053480866766,-0.0137344398340124,9.62186721991702,-1.75999999999999,-0.124942369755623,-1.0406741457917,-0.395881358536945,-1.4049821063196,9.51020553398924,0.0194781683539949,1.87692945874084,-0.336929455955988,-7.09192944760145,414.319502074689,-0.223179759882792,0.000134640071865681,10.4950476455688,-1.97533446018627,-0.202579228653159,-0.106245253904268,-1.29936685506211,-0.00439560459926724,-0.00439561092528316,3.18542987823486,-0.358745723962784,0.115890218192378,-0.0819650754052572,-0.761718068318067,-0.011545301328077,-0.0115992607477166,-1.08813278008296,9.71746887966803,-0.706265560165958,-0.035397776753247,-0.797192766763982,0.0378566671789194,-0.941867219917008,9.67373443983404,1.29000000000002,0.00394447005790013,-0.618923210901083,-0.22452743199632,-1.45269368001534,9.58802863077504,0.214051150249248,-1.59039420161504,1.1265352682454,3.9069295048219,524.439834024896,-0.169428855304401,0.00649153294729618
0.425,5.86028226852417,0.0349972653817318,-0.467233106520826,-0.0610170484366056,-0.763453769283365,0.0131868133321404,0.013214213098256,2.36688793420792,0.358745723962784,0.58635729158528,-0.0446952815658269,-0.429218195304998,0.0131868133321404,0.0131319130907866,0.00999999999999091,9.77999999999997,0.519999999999982,0.135802469135797,-0.949714818847566,-0.255646129045977,-0.0190244548423946,9.62451222742121,-1.75999999999999,-0.144535017934835,-1.11577929714534,-0.379554151720937,-1.40371512982561,9.49943632838311,0.0131433233270117,1.85841442386881,-0.31841440531849,-7.07341434966753,411.938995320915,-0.223860355363926,0.00069198958153765,10.4950476455688,-1.21622631518946,-0.445140325856854,-0.106625426501806,-1.29932302898595,-0.00439560459926724,-0.00439561247988501,3.18542987823486,-0.358745723962784,0.101806017868922,-0.0824023622094541,-0.763500617563112,-0.00922002002113886,-0.00927252154201785,-1.08548777257877,9.72804890968481,-0.700975545157576,-0.0680521903852617,-0.754742029042369,0.0215294603629121,-0.9445122274212,9.67902445484242,1.29000000000002,-0.0254445022109251,-0.586268797269068,-0.227792873359524,-1.46472989364642,9.5823273311449,0.215318118860508,-1.56262161777606,1.13579278568141,3.88841440688799,523.646331773638,-0.168216462820239,0.00684996356864827
0.43,5.86028226852417,-0.154770711947369,-0.363368089869716,-0.0610145695361373,-0.759712947159092,0.0131868133321404,0.0132045424416143,2.36688793420792,0.358745723962784,0.637574666980155,-0.0444295370942552,-0.431680808832854,0.0131868133321404,0.0131364987938425,0.00999999999999091,9.77999999999997,0.519999999999982,0.135802469135797,-1.02155110333211,-0.275237842996304,-0.0243142176089779,9.6271571088045,-1.75999999999999,-0.164126731885161,-1.19088086728826,-0.363227723429001,-1.40244821374437,9.48866763628097,0.00680878036206498,1.83990027184224,-0.299900237527199,-7.05490013458207,409.55860207595,-0.224540918392481,0.00124931251532226,10.4950476455688,-0.457154366461255,-0.687689857110844,-0.107005580971717,-1.29927920499953,-0.00439560459926724,-0.0043956139294129,3.18542987823486,-0.358745723962784,0.0877224891171007,-0.0828396281626685,-0.765283081811532,-0.00689484958971604,-0.00694428279336188,-1.08284289119548,9.73862843521799,-0.695685782390993,-0.100705046969135,-0.71229331548334,0.00520303207097567,-0.947157108804491,9.684314217609,1.29000000000002,-0.0548320731364226,-0.553615940685196,-0.231058159017915,-1.47676553335923,9.57662630336768,0.216585027059379,-1.53485035820676,1.14504986169469,3.86990019180253,522.85286735865,-0.167004128146133,0.00720837709908766
0.435,5.86028226852417,-0.344547738343149,-0.259498120425862,-0.0610120905174629,-0.755971946654098,0.0131868133321404,0.0131929734720069,2.36688793420792,0.358745723962784,0.688794484670362,-0.0441637799506853,-0.434143539790186,0.0131868133321404,0.0131421983768349,0.00999999999999091,9.77999999999997,0.519999999999982,0.135802469135797,-1.09339081332256,-0.294830491175516,-0.0296042326173601,9.62980211630869,-1.75999999999999,-0.183719380064373,-1.2659860186419,-0.346900516612994,-1.40118123725038,9.47789843067483,0.000473935335081848,1.82138523697022,-0.281385186889701,-7.03638503664815,407.178095322176,-0.225221513873615,0.00180666202499423,10.4950476455688,0.301953778535548,-0.930250954314538,-0.107385753569255,-1.29923537892337,-0.00439560459926724,-0.00439561520639805,3.18542987823486,-0.358745723962784,0.0736382887936449,-0.0832769149668655,-0.767065631056577,-0.00456956828277792,-0.00461460399398292,-1.08019788369129,9.74920846523477,-0.69039576738261,-0.133359460601149,-0.669842577761727,-0.0111241747450317,-0.949802116308682,9.68960423261739,1.29000000000002,-0.0842210454052479,-0.520961527053181,-0.234323600381119,-1.48880174699031,9.57092500373754,0.217851995670639,-1.50707777436778,1.15430737913071,3.85138509386861,522.059365107392,-0.165791735661971,0.00756680772043976
0.44,5.86028226852417,-0.0120094142645624,-0.157007047859946,-0.0612127381256668,-0.754124810941249,0.0131868133321404,0.013179706330507,2.36688793420792,0.358745723962784,0.645384004685267,-0.0443573361727209,-0.435952255384724,0.011062585078738,0.0110244582001789,0.00275107103716,9.78724892896282,0.52483261930855,0.100005289072401,-1.01225558027892,-0.293313197957686,-0.0348326193085404,9.63724892896284,-1.75758369034571,-0.194134480201018,-1.15228100472694,-0.348662110684289,-1.40282259263745,9.48114359926344,0.00694453065066749,1.83691420390143,-0.305371249969605,-7.02654280049209,407.483261930856,-0.225728042410364,0.00132214112034915,10.4950476455688,0.358745723962784,-0.89513616936768,-0.107349160895323,-1.30002293583409,-0.00439560459926724,-0.00439561624159295,3.18542987823486,-0.185377572714255,0.0264731982911643,-0.0836909598491282,-0.769603713371109,-0.00439560459926724,-0.00443520834082566,-1.07999999999998,9.75241630965428,-0.692416309654275,-0.126853174119955,-0.65771737165083,-0.00339638399649961,-0.954832619308556,9.69,1.28758369034573,-0.0774704580705758,-0.488687535132361,-0.20772001618703,-1.48680865304088,9.58265149639674,0.223155182946532,-1.55574250718898,1.15499997138977,3.87537116061124,527.315881239414,-0.166031251858656,0.00685547829293729
0.445,5.86028226852417,0.362784621762192,-0.0546222013598441,-0.0614298225097279,-0.75243073299168,0.0131868133321404,0.0131650311439773,2.36688793420792,0.358745723962784,0.594318728930018,-0.0445880461019443,-0.437708175319606,0.00876646535240269,0.00873530131832856,-0.00508443758094586,9.79508443758094,0.530056291720635,0.0613114193533232,-0.918745395124481,-0.290088708814427,-0.0400562917206258,9.64508443758096,-1.75497185413968,-0.203807947630795,-1.02330143899669,-0.351886599827547,-1.404699223464,9.48552224884782,0.0144510091995696,1.85519703990781,-0.332795527330804,-7.01740141362442,408.005629172063,-0.226220520616878,0.000753341316571603,10.4950476455688,0.358745723962784,-0.837564494724958,-0.107278863381497,-1.30087776557561,-0.00439560459926724,-0.00439561696630093,3.18542987823486,0.00201944140718313,-0.0233695069820302,-0.084103146545089,-0.772203024912954,-0.00439560459926724,-0.00442903871237444,-1.07999999999998,9.75502814586031,-0.69502814586031,-0.117179706690193,-0.648043904221053,0.00627708343327719,-0.960056291720642,9.69,1.28497185413968,-0.067796990640799,-0.456442643699786,-0.178699613897715,-1.48368093499663,9.5957879433181,0.228785044290671,-1.61059107747914,1.15499997138977,3.90279544575632,533.061920892697,-0.166388193281423,0.00605760289872622
0.45,5.86028226852417,0.737560786625681,0.0477577631620726,-0.0616468965426358,-0.750736735820194,0.0131868133321404,0.013149328769208,2.36688793420792,0.358745723962784,0.543255888101136,-0.0448187450303127,-0.439464011527618,0.00647045511108203,0.00644643639533474,-0.0129195725814369,9.80291957258144,0.53527971505431,0.0226193946595041,-0.825239668781087,-0.286864373423273,-0.0452797150543013,9.65291957258147,-1.75236014247285,-0.213480953804257,-0.894328023350632,-0.355110935218702,-1.40657576480787,9.4899006896467,0.0219571298198741,1.87347900414058,-0.360218497030485,-7.00826046264206,408.52797150543,-0.22671297534074,0.000184568634661489,10.4950476455688,0.358745723962784,-0.779995565250776,-0.107208569219641,-1.30173255455661,-0.00439560459926724,-0.00439561731503477,3.18542987823486,0.189407519947174,-0.0732098356242275,-0.0845153135869063,-0.774802212512803,-0.00439560459926724,-0.00442242020597257,-1.07999999999998,9.75763985752714,-0.69763985752714,-0.107506700516745,-0.638370898047591,0.0159500896067394,-0.965279715054317,9.69,1.28236014247283,-0.0581239844673368,-0.42419928978826,-0.149680595377343,-1.48055336609018,9.60892376385921,0.234414637188245,-1.66543703244551,1.15499997138977,3.93021842323951,538.807686559729,-0.166745117684286,0.00525976554930793
0.455,5.86028226852417,1.07623720169067,0.153217233096523,-0.0618530808160248,-0.74936486510838,0.0131868133321404,0.0131330683495414,2.36688793420792,0.358745723962784,0.493433957064856,-0.0451140292711035,-0.44099721569832,0.00439560459926724,0.00437865076400859,-0.0199999999999818,9.80947798685281,0.539738993426425,-0.0178235947544634,-0.73107383060763,-0.282661695932865,-0.0500000000000114,9.66000000000003,-1.75,-0.221577761546686,-0.769722019333495,-0.357702461020254,-1.40864661976592,9.49366985096689,0.0284901883500183,1.88999998569489,-0.383172944634781,-7.00274056952057,409.313207888313,-0.226901295014206,-0.000427229268445648,10.4950476455688,0.358745723962784,-0.706541153134549,-0.107122041234608,-1.30248147698237,-0.00439560459926724,-0.00439561722844267,3.18542987823486,0.358745723962784,-0.113803719250876,-0.0848512039943882,-0.777431024247241,-0.00439560459926724,-0.00441562479254094,-1.07999999999998,9.7594779868528,-0.700522013147179,-0.0994098927743283,-0.631885241994017,0.0256580490380235,-0.970000000000027,9.68947798685281,1.28026100657357,-0.0506716374004504,-0.407628711568107,-0.1228123294479,-1.47822715120984,9.61979410494421,0.239251921362842,-1.71043241647383,1.15317292711702,3.95591344895387,543.817295398484,-0.167061517174756,0.00445792756342421
