timeStamp,timeStampAlign,roll,pitch,yaw,gyro_x,gyro_y,gyro_z,acc_x,acc_y,acc_z,flag_num
1758076635.14221,1758076635.13665,0.0,0.0,0.0,13.23533,23.66316,-5.4431,10.19,-2.24,1.44,3.0
1758076635.15822,1758076635.14665,0.0,0.0,0.0,14.03747,26.41335,-7.16197,10.19,-2.24,1.44,3.0
1758076635.15942,1758076635.15665,0.0,0.0,0.0,13.5791,35.86716,-10.59972,10.3,-2.11,1.28,3.0
1758076635.17547,1758076635.16665,0.0,0.0,0.0,16.04282,63.59832,-11.74564,10.3,-2.11,1.38,3.0
1758076635.17647,1758076635.17665,0.0,0.0,0.0,17.81899,77.57849,-13.06344,12.04,-2.05,1.38,3.0
1758076635.19149,1758076635.18665,0.0,0.0,0.0,15.46986,61.99404,-14.66772,9.75,-1.73,3.23,3.0
1758076635.20753,1758076635.19665,0.0,0.0,0.0,18.50654,33.46074,-9.85487,9.75,-1.73,3.23,3.0
1758076635.20874,1758076635.20665,0.0,0.0,0.0,20.34,15.64175,-1.20321,9.45,-2.14,3.29,3.0
1758076635.22357,1758076635.21665,0.0,0.0,0.0,17.93358,7.39116,3.89611,9.45,-2.14,3.29,3.0
1758076635.22448,1758076635.22665,0.0,0.0,0.0,16.38659,7.44845,13.75099,12.02,-2.39,3.69,3.0
1758076635.24035,1758076635.23665,0.0,0.0,0.0,10.65701,19.59516,15.58445,12.02,-2.39,3.69,3.0
1758076635.25655,1758076635.24665,0.0,0.0,0.0,3.55234,33.80451,15.92823,13.67,-1.81,2.59,3.0
1758076635.25747,1758076635.25665,0.0,0.0,0.0,-0.17189,35.40879,11.97482,12.28,-0.87,2.84,3.0
1758076635.27253,1758076635.26665,0.0,0.0,0.0,-3.26586,36.26823,6.99009,12.28,-0.87,2.84,3.0
1758076635.28929,1758076635.27665,0.0,0.0,0.0,-5.50039,39.3622,1.60428,11.61,-0.25,1.68,3.0
1758076635.29035,1758076635.28665,0.0,0.0,0.0,-8.0787,43.65939,-6.13065,11.61,-0.25,1.68,3.0
1758076635.30561,1758076635.29665,0.0,0.0,0.0,-8.65166,46.00851,-9.96947,12.2,-0.03,2.93,3.0
1758076635.30685,1758076635.30665,0.0,0.0,0.0,-8.76626,48.24305,-13.5791,12.2,-0.03,2.93,3.0
1758076635.3216,1758076635.31665,0.0,0.0,0.0,-7.50575,47.09713,-17.58981,12.82,-0.52,3.85,3.0
1758076635.33734,1758076635.32665,0.0,0.0,0.0,-5.61499,44.00316,-18.85031,12.64,-1.24,4.45,3.0
1758076635.34043,1758076635.33665,0.0,0.0,0.0,-2.92208,42.91454,-18.79302,12.64,-1.24,4.45,3.0
1758076635.35595,1758076635.34665,0.0,0.0,0.0,-0.0573,41.48215,-18.22006,12.22,-1.89,4.25,3.0
1758076635.35658,1758076635.35665,0.0,0.0,0.0,3.89611,37.29956,-16.272,12.22,-1.89,4.25,3.0
1758076635.37182,1758076635.36665,0.0,0.0,0.0,6.8182,33.40344,-14.49583,11.16,-2.23,4.15,3.0
1758076635.38862,1758076635.37665,0.0,0.0,0.0,8.47978,30.99702,-13.75099,11.16,-2.23,4.15,3.0
1758076635.38963,1758076635.38665,0.0,0.0,0.0,11.22997,26.52795,-11.97482,10.21,-2.18,4.02,3.0
1758076635.40464,1758076635.39665,0.0,0.0,0.0,14.43854,18.9649,-10.31324,8.97,-2.18,4.06,3.0
1758076635.40559,1758076635.40665,0.0,0.0,0.0,15.92823,13.12073,-9.74028,8.97,-1.75,4.06,3.0
1758076635.42041,1758076635.41665,0.0,0.0,0.0,17.58981,6.41713,-8.93814,7.79,-1.28,4.38,3.0
1758076635.43645,1758076635.42665,0.0,0.0,0.0,18.85031,-1.20321,-8.59437,7.79,-1.28,4.38,3.0
1758076635.43762,1758076635.43665,0.0,0.0,0.0,19.82434,-12.71966,-7.79223,6.69,-0.84,4.4,3.0
1758076635.45267,1758076635.44665,0.0,0.0,0.0,19.48057,-18.79302,-6.87549,6.69,-0.84,4.4,3.0
1758076635.46872,1758076635.45665,0.0,0.0,0.0,18.85031,-23.89234,-5.27121,6.15,-0.28,4.58,3.0
1758076635.4696,1758076635.46665,0.0,0.0,0.0,17.6471,-30.48136,-3.49504,6.15,-0.28,4.58,3.0
1758076635.4847,1758076635.47665,0.0,0.0,0.0,15.64175,-39.76327,-1.3751,5.94,0.16,4.73,3.0
1758076635.48563,1758076635.48665,0.0,0.0,0.0,13.69369,-43.54479,-0.11459,6.6,0.48,4.81,3.0
1758076635.50094,1758076635.49665,0.0,0.0,0.0,11.97482,-46.98254,0.80214,6.6,0.48,4.81,3.0
1758076635.51676,1758076635.50665,0.0,0.0,0.0,10.59972,-48.07116,1.48969,7.35,0.74,4.66,3.0
1758076635.51768,1758076635.51665,0.0,0.0,0.0,8.93814,-46.00851,1.83346,7.35,0.74,4.66,3.0
1758076635.53276,1758076635.52665,0.0,0.0,0.0,8.42248,-44.86259,1.14592,8.22,0.82,4.54,3.0
1758076635.5488,1758076635.53665,0.0,0.0,0.0,8.47978,-43.31561,0.0,8.22,0.82,4.54,3.0
1758076635.54968,1758076635.54665,0.0,0.0,0.0,9.33921,-40.45082,-2.6929,8.62,0.7,4.37,3.0
1758076635.56479,1758076635.55665,0.0,0.0,0.0,10.08406,-37.75792,-4.64096,8.86,0.52,4.02,3.0
1758076635.56569,1758076635.56665,0.0,0.0,0.0,11.00079,-34.60666,-7.16197,8.86,0.52,4.02,3.0
1758076635.58077,1758076635.57665,0.0,0.0,0.0,11.91752,-30.36677,-9.62569,8.92,0.35,3.7,3.0
1758076635.59665,1758076635.58665,0.0,0.0,0.0,12.54778,-22.86102,-13.34992,8.92,0.35,3.7,3.0
1758076635.59771,1758076635.59665,0.0,0.0,0.0,12.77696,-17.76169,-15.12609,8.9,0.3,3.45,3.0
1758076635.61276,1758076635.60665,0.0,0.0,0.0,13.00614,-13.17803,-16.21471,8.9,0.3,3.45,3.0
1758076635.62887,1758076635.61665,0.0,0.0,0.0,12.83425,-8.76626,-16.55848,8.77,0.34,3.33,3.0
1758076635.62974,1758076635.62665,0.0,0.0,0.0,11.97482,-1.08862,-16.21471,8.83,0.39,3.17,3.0
1758076635.64484,1758076635.63665,0.0,0.0,0.0,11.22997,3.49504,-15.64175,8.83,0.39,3.17,3.0
1758076635.64576,1758076635.64665,0.0,0.0,0.0,10.59972,7.79223,-14.72501,8.93,0.48,3.03,3.0
1758076635.6607,1758076635.65665,0.0,0.0,0.0,10.02676,11.57375,-13.75099,8.93,0.48,3.03,3.0
1758076635.67666,1758076635.66665,0.0,0.0,0.0,10.02676,18.10547,-12.2613,8.98,0.48,2.94,3.0
1758076635.67775,1758076635.67665,0.0,0.0,0.0,9.68299,22.28806,-11.97482,8.98,0.48,2.94,3.0
1758076635.69286,1758076635.68665,0.0,0.0,0.0,9.85487,26.41335,-11.57375,9.0,0.53,2.85,3.0
1758076635.70863,1758076635.69665,0.0,0.0,0.0,9.68299,29.33544,-11.51645,9.0,0.53,2.85,3.0
1758076635.70982,1758076635.70665,0.0,0.0,0.0,8.88085,32.37212,-13.00614,8.79,0.61,2.96,3.0
1758076635.72462,1758076635.71665,0.0,0.0,0.0,7.50575,35.2942,-15.06879,8.6,0.77,2.95,3.0
1758076635.72581,1758076635.72665,0.0,0.0,0.0,5.90147,37.92981,-17.58981,8.6,0.77,2.95,3.0
1758076635.74064,1758076635.73665,0.0,0.0,0.0,4.29718,39.01843,-21.31403,8.35,1.02,2.74,3.0
1758076635.75684,1758076635.74665,0.0,0.0,0.0,1.66158,38.78925,-23.0902,8.35,1.02,2.74,3.0
1758076635.75833,1758076635.75665,0.0,0.0,0.0,0.22918,36.6693,-24.00693,7.99,1.17,2.85,3.0
1758076635.77292,1758076635.76665,0.0,0.0,0.0,-0.85944,34.32018,-23.31938,7.99,1.17,2.85,3.0
1758076635.78897,1758076635.77665,0.0,0.0,0.0,-2.34913,30.13758,-20.62648,8.0,1.09,2.9,3.0
1758076635.78994,1758076635.78665,0.0,0.0,0.0,-2.97938,27.50197,-18.27736,8.19,0.84,2.94,3.0
1758076635.80494,1758076635.79665,0.0,0.0,0.0,-3.20856,24.57989,-15.46986,8.19,0.84,2.94,3.0
1758076635.80594,1758076635.80665,0.0,0.0,0.0,-3.20856,21.6578,-13.23533,8.37,0.58,3.12,3.0
1758076635.82087,1758076635.81665,0.0,0.0,0.0,-3.03668,17.47521,-11.22997,8.37,0.58,3.12,3.0
1758076635.83665,1758076635.82665,0.0,0.0,0.0,-2.57831,14.38124,-10.48513,8.46,0.45,3.1,3.0
1758076635.83787,1758076635.83665,0.0,0.0,0.0,-2.40642,11.57375,-10.59972,8.46,0.45,3.1,3.0
1758076635.85293,1758076635.84665,0.0,0.0,0.0,-2.06265,7.84952,-11.17268,8.48,0.5,3.15,3.0
1758076635.86866,1758076635.85665,0.0,0.0,0.0,-1.83346,1.3178,-12.204,8.38,0.64,3.11,3.0
1758076635.86988,1758076635.86665,0.0,0.0,0.0,-1.71887,-3.03668,-12.60507,8.38,0.64,3.11,3.0
1758076635.88579,1758076635.87665,0.0,0.0,0.0,-2.00535,-6.70361,-12.43318,8.51,0.79,2.98,3.0
1758076635.88668,1758076635.88665,0.0,0.0,0.0,-2.29183,-9.96947,-11.86023,8.51,0.79,2.98,3.0
1758076635.90201,1758076635.89665,0.0,0.0,0.0,-3.32316,-15.29797,-10.08406,8.67,0.94,2.92,3.0
1758076635.91795,1758076635.90665,0.0,0.0,0.0,-4.0107,-15.69904,-8.42248,8.67,0.94,2.92,3.0
1758076635.91893,1758076635.91665,0.0,0.0,0.0,-4.81285,-13.23533,-6.70361,9.17,0.99,3.07,3.0
1758076635.93389,1758076635.92665,0.0,0.0,0.0,-4.92744,-12.54778,-5.4431,9.17,0.99,3.07,3.0
1758076635.93519,1758076635.93665,0.0,0.0,0.0,-6.8182,-9.33921,-5.84417,9.52,1.0,3.41,3.0
1758076635.95202,1758076635.94665,0.0,0.0,0.0,-7.67763,-8.59437,-8.36518,9.46,1.19,3.54,3.0
1758076635.96804,1758076635.95665,0.0,0.0,0.0,-9.4538,-11.17268,-10.94349,9.46,1.19,3.54,3.0
1758076635.96897,1758076635.96665,0.0,0.0,0.0,-10.65701,-17.99088,-17.36062,8.92,1.44,3.21,3.0
1758076635.98407,1758076635.97665,0.0,0.0,0.0,-12.204,-19.48057,-19.59516,8.92,1.44,3.21,3.0
1758076635.98501,1758076635.98665,0.0,0.0,0.0,-14.32395,-17.01685,-22.23076,9.64,1.67,3.05,3.0
1758076636.00082,1758076635.99665,0.0,0.0,0.0,-16.67307,-13.23533,-23.60586,9.64,1.67,3.05,3.0
1758076636.01681,1758076636.00665,0.0,0.0,0.0,-20.11082,-10.31324,-23.89234,10.36,1.87,3.03,3.0
1758076636.01802,1758076636.01665,0.0,0.0,0.0,-22.68913,-11.00079,-22.23076,10.44,2.0,3.25,3.0
1758076636.03393,1758076636.02665,0.0,0.0,0.0,-25.21014,-11.17268,-19.13679,10.44,2.0,3.25,3.0
1758076636.03532,1758076636.03665,0.0,0.0,0.0,-27.38738,-11.11538,-14.15206,10.8,2.07,3.27,3.0
1758076636.05084,1758076636.04665,0.0,0.0,0.0,-30.88243,-8.47978,-6.07335,10.8,2.07,3.27,3.0
1758076636.06712,1758076636.05665,0.0,0.0,0.0,-32.83048,-9.33921,-1.3178,11.22,1.96,3.07,3.0
1758076636.06806,1758076636.06665,0.0,0.0,0.0,-35.06502,-7.50575,3.89611,11.22,1.96,3.07,3.0
1758076636.08313,1758076636.07665,0.0,0.0,0.0,-35.98175,-5.15662,10.8289,11.67,1.85,3.48,3.0
1758076636.09994,1758076636.08665,0.0,0.0,0.0,-39.4195,-21.88699,11.34457,10.93,2.07,4.22,3.0
1758076636.10127,1758076636.09665,0.0,0.0,0.0,-41.94051,-22.63183,0.22918,10.93,2.07,4.22,3.0
1758076636.11609,1758076636.10665,0.0,0.0,0.0,-40.04975,-9.91217,-9.28192,14.2,2.13,5.99,3.0
1758076636.11706,1758076636.11665,0.0,0.0,0.0,-36.84119,2.23454,-18.56383,14.2,2.13,5.99,3.0
1758076636.13199,1758076636.12665,0.0,0.0,0.0,-31.28349,15.24068,-21.7724,13.76,1.14,4.25,3.0
1758076636.14795,1758076636.13665,0.0,0.0,0.0,-28.93437,20.85567,-19.13679,13.76,1.14,4.25,3.0
1758076636.1491,1758076636.14665,0.0,0.0,0.0,-26.81443,26.12688,-13.00614,12.41,0.02,3.26,3.0
1758076636.16396,1758076636.15665,0.0,0.0,0.0,-25.8404,28.64789,-0.97403,12.41,0.02,3.26,3.0
1758076636.16509,1758076636.16665,0.0,0.0,0.0,-26.98631,25.38203,6.47442,11.56,-0.35,3.55,3.0
1758076636.18125,1758076636.17665,0.0,0.0,0.0,-28.59059,23.0329,13.00614,10.54,-0.11,4.13,3.0
1758076636.19692,1758076636.18665,0.0,0.0,0.0,-30.53865,17.76169,18.44924,10.54,-0.11,4.13,3.0
1758076636.19811,1758076636.19665,0.0,0.0,0.0,-32.88778,3.09397,22.00158,8.99,0.29,4.34,3.0
1758076636.21324,1758076636.20665,0.0,0.0,0.0,-33.00237,-4.29718,21.14215,8.99,0.29,4.34,3.0
1758076636.22926,1758076636.21665,0.0,0.0,0.0,-31.91375,-10.59972,18.22006,8.34,0.6,4.76,3.0
1758076636.23014,1758076636.22665,0.0,0.0,0.0,-30.48136,-17.01685,14.32395,8.34,0.6,4.76,3.0
1758076636.245,1758076636.23665,0.0,0.0,0.0,-27.84575,-28.30412,8.36518,7.91,0.5,4.54,3.0
1758076636.24619,1758076636.24665,0.0,0.0,0.0,-26.52795,-37.35685,4.58366,7.14,0.04,4.02,3.0
1758076636.2612,1758076636.25665,0.0,0.0,0.0,-25.38203,-46.40959,1.20321,7.14,0.04,4.02,3.0
1758076636.27796,1758076636.26665,0.0,0.0,0.0,-24.63719,-54.88936,-1.66158,6.88,-0.56,3.99,3.0
1758076636.27971,1758076636.27665,0.0,0.0,0.0,-23.66316,-64.74423,-4.98473,6.88,-0.56,3.99,3.0
1758076636.29402,1758076636.28665,0.0,0.0,0.0,-22.51724,-70.01544,-6.13065,7.1,-1.04,4.27,3.0
1758076636.29574,1758076636.29665,0.0,0.0,0.0,-22.00158,-72.13539,-6.7609,7.1,-1.04,4.27,3.0
1758076636.31311,1758076636.30665,0.0,0.0,0.0,-21.94428,-72.47916,-6.87549,7.78,-1.04,4.38,3.0
1758076636.32906,1758076636.31665,0.0,0.0,0.0,-22.68913,-71.73432,-5.90147,8.39,-0.61,4.63,3.0
1758076636.33026,1758076636.32665,0.0,0.0,0.0,-24.4653,-70.30193,-4.35448,8.39,-0.61,4.63,3.0
1758076636.34505,1758076636.33665,0.0,0.0,0.0,-26.69983,-67.9528,-2.29183,8.84,-0.09,4.38,3.0
1758076636.34777,1758076636.34665,0.0,0.0,0.0,-29.62192,-64.57235,-0.11459,8.84,-0.09,4.38,3.0
1758076636.38506,1758076636.35665,0.0,0.0,0.0,-34.09099,-58.21251,3.72423,9.16,0.19,3.85,3.0
1758076636.38753,1758076636.36665,0.0,0.0,0.0,-36.55471,-52.82671,6.41713,9.16,0.19,3.85,3.0
1758076636.38995,1758076636.37665,0.0,0.0,0.0,-38.78925,-46.1804,8.93814,9.38,0.18,3.26,3.0
1758076636.3913,1758076636.38665,0.0,0.0,0.0,-40.50812,-34.60666,12.43318,9.38,0.18,3.26,3.0
1758076636.40736,1758076636.39665,0.0,0.0,0.0,-40.7946,-26.18417,14.15206,9.47,-0.04,2.7,3.0
1758076636.40909,1758076636.40665,0.0,0.0,0.0,-40.7946,-17.58981,15.06879,9.34,-0.39,2.29,3.0
1758076636.42407,1758076636.41665,0.0,0.0,0.0,-40.45082,-9.11003,15.35527,9.34,-0.39,2.29,3.0
1758076636.42529,1758076636.42665,0.0,0.0,0.0,-39.76327,3.89611,14.61043,9.25,-0.74,2.14,3.0
1758076636.44145,1758076636.43665,0.0,0.0,0.0,-39.01843,11.86023,13.40721,9.25,-0.74,2.14,3.0
1758076636.45742,1758076636.44665,0.0,0.0,0.0,-38.61736,19.07949,11.80293,9.21,-0.93,2.15,3.0
1758076636.45995,1758076636.45665,0.0,0.0,0.0,-38.44547,25.72581,10.08406,9.21,-0.93,2.15,3.0
1758076636.47537,1758076636.46665,0.0,0.0,0.0,-37.87251,32.88778,7.10468,9.1,-0.85,2.2,3.0
1758076636.4774,1758076636.47665,0.0,0.0,0.0,-37.75792,38.1017,5.27121,8.97,-0.7,2.18,3.0
1758076636.49556,1758076636.48665,0.0,0.0,0.0,-37.52874,43.02913,3.72423,8.97,-0.7,2.18,3.0
1758076636.49651,1758076636.49665,0.0,0.0,0.0,-37.81522,46.86795,2.06265,8.92,-0.62,2.12,3.0
1758076636.51323,1758076636.50665,0.0,0.0,0.0,-37.87251,50.99325,0.0573,8.92,-0.62,2.12,3.0
1758076636.52945,1758076636.51665,0.0,0.0,0.0,-37.24226,50.59217,-0.51566,8.74,-0.56,2.34,3.0
1758076636.52991,1758076636.52665,0.0,0.0,0.0,-36.49741,47.32632,-1.03132,8.74,-0.56,2.34,3.0
1758076636.54543,1758076636.53665,0.0,0.0,0.0,-35.3515,46.2377,-1.3178,8.2,-0.58,2.1,3.0
1758076636.54667,1758076636.54665,0.0,0.0,0.0,-33.86181,45.77933,-1.77617,8.45,-0.73,2.0,3.0
1758076636.56145,1758076636.55665,0.0,0.0,0.0,-32.77319,45.14908,-2.40642,8.45,-0.73,2.0,3.0
1758076636.57746,1758076636.56665,0.0,0.0,0.0,-31.74186,44.11775,-3.09397,8.37,-0.9,2.07,3.0
1758076636.57961,1758076636.57665,0.0,0.0,0.0,-30.48136,43.4875,-3.89611,8.37,-0.9,2.07,3.0
1758076636.59454,1758076636.58665,0.0,0.0,0.0,-28.64789,42.74266,-4.58366,8.44,-1.06,2.13,3.0
1758076636.59542,1758076636.59665,0.0,0.0,0.0,-27.44468,41.08107,-5.15662,8.44,-1.06,2.13,3.0
1758076636.6123,1758076636.60665,0.0,0.0,0.0,-26.24147,38.50277,-5.4431,8.35,-1.19,2.21,3.0
1758076636.62819,1758076636.61665,0.0,0.0,0.0,-24.12152,33.68992,-5.61499,8.35,-1.19,2.21,3.0
1758076636.62874,1758076636.62665,0.0,0.0,0.0,-22.68913,30.53865,-5.27121,8.35,-1.31,2.37,3.0
1758076636.64442,1758076636.63665,0.0,0.0,0.0,-21.37133,27.33009,-4.92744,8.45,-1.35,2.35,3.0
1758076636.64544,1758076636.64665,0.0,0.0,0.0,-20.05352,23.37668,-4.29718,8.45,-1.35,2.35,3.0
1758076636.6605,1758076636.65665,0.0,0.0,0.0,-17.58981,17.01685,-3.03668,8.45,-1.34,2.51,3.0
1758076636.67625,1758076636.66665,0.0,0.0,0.0,-15.87093,12.14671,-2.11994,8.45,-1.34,2.51,3.0
1758076636.67747,1758076636.67665,0.0,0.0,0.0,-13.98017,7.21927,-1.20321,8.5,-1.33,2.46,3.0
1758076636.6923,1758076636.68665,0.0,0.0,0.0,-11.91752,3.03668,-0.34377,8.5,-1.33,2.46,3.0
1758076636.70843,1758076636.69665,0.0,0.0,0.0,-8.42248,-3.89611,0.74485,8.79,-1.39,2.31,3.0
1758076636.70961,1758076636.70665,0.0,0.0,0.0,-6.13065,-5.55769,0.34377,9.38,-1.49,2.08,3.0
1758076636.72529,1758076636.71665,0.0,0.0,0.0,-3.66693,-2.97938,-0.51566,9.38,-1.49,2.08,3.0
1758076636.72682,1758076636.72665,0.0,0.0,0.0,-1.3178,3.38045,-1.83346,10.66,-1.64,2.26,3.0
1758076636.74161,1758076636.73665,0.0,0.0,0.0,2.11994,15.64175,-3.20856,10.66,-1.64,2.26,3.0
1758076636.75728,1758076636.74665,0.0,0.0,0.0,4.58366,19.53786,-2.34913,11.21,-1.82,3.05,3.0
1758076636.75853,1758076636.75665,0.0,0.0,0.0,6.99009,19.42327,0.0573,11.21,-1.82,3.05,3.0
1758076636.77357,1758076636.76665,0.0,0.0,0.0,9.05273,18.22006,3.55234,10.8,-2.0,3.59,3.0
1758076636.77476,1758076636.77665,0.0,0.0,0.0,11.80293,16.73037,10.19865,11.02,-2.22,3.65,3.0
1758076636.78994,1758076636.78665,0.0,0.0,0.0,14.03747,16.04282,15.35527,11.02,-2.22,3.65,3.0
1758076636.80567,1758076636.79665,0.0,0.0,0.0,16.55848,16.10011,20.22541,11.29,-2.29,3.36,3.0
1758076636.80653,1758076636.80665,0.0,0.0,0.0,20.62648,16.04282,25.09555,11.29,-2.29,3.36,3.0
1758076636.82161,1758076636.81665,0.0,0.0,0.0,23.89234,15.29797,25.38203,11.74,-2.3,3.55,3.0
1758076636.83761,1758076636.82665,0.0,0.0,0.0,26.35606,9.33921,22.00158,11.74,-2.3,3.55,3.0
1758076636.83883,1758076636.83665,0.0,0.0,0.0,29.8511,-7.62034,16.84496,11.51,-2.41,4.07,3.0
1758076636.85362,1758076636.84665,0.0,0.0,0.0,34.09099,-10.65701,9.11003,11.51,-2.41,4.07,3.0
1758076636.85482,1758076636.85665,0.0,0.0,0.0,33.74722,14.43854,6.87549,12.5,-2.6,5.25,3.0
1758076636.86997,1758076636.86665,0.0,0.0,0.0,29.67921,33.23156,6.24524,15.76,-1.38,6.48,3.0
1758076636.88567,1758076636.87665,0.0,0.0,0.0,25.55392,31.97105,2.92208,15.76,-1.38,6.48,3.0
1758076636.88657,1758076636.88665,0.0,0.0,0.0,20.11082,-4.29718,3.72423,10.86,0.12,6.23,3.0
1758076636.90218,1758076636.89665,0.0,0.0,0.0,20.16812,-14.72501,5.21392,10.86,0.12,6.23,3.0
1758076636.90368,1758076636.90665,0.0,0.0,0.0,19.13679,-11.57375,5.09932,11.21,-0.23,3.79,3.0
1758076636.92,1758076636.91665,0.0,0.0,0.0,18.22006,-10.8289,2.92208,11.21,-0.23,3.79,3.0
1758076636.93575,1758076636.92665,0.0,0.0,0.0,17.87628,-6.41713,-3.03668,10.94,-0.22,3.03,3.0
1758076636.93773,1758076636.93665,0.0,0.0,0.0,19.76705,-2.86479,-4.1253,10.34,-0.5,4.24,3.0
1758076636.95266,1758076636.94665,0.0,0.0,0.0,21.14215,-1.08862,-6.58902,10.34,-0.5,4.24,3.0
1758076636.95362,1758076636.95665,0.0,0.0,0.0,22.68913,-2.06265,-8.25059,8.37,-0.81,4.75,3.0
1758076636.97011,1758076636.96665,0.0,0.0,0.0,23.60586,-6.7609,-9.91217,8.37,-0.81,4.75,3.0
1758076636.98569,1758076636.97665,0.0,0.0,0.0,23.49127,-12.37589,-10.8289,6.56,-0.73,4.51,3.0
1758076636.98939,1758076636.98665,0.0,0.0,0.0,22.28806,-18.62113,-10.65701,6.56,-0.73,4.51,3.0
1758076637.00571,1758076636.99665,0.0,0.0,0.0,20.3973,-24.92367,-10.02676,5.63,-0.23,4.0,3.0
1758076637.00668,1758076637.00665,0.0,0.0,0.0,17.53251,-33.00237,-8.65166,5.88,0.53,3.84,3.0
1758076637.02149,1758076637.01665,0.0,0.0,0.0,15.75634,-38.15899,-6.58902,5.88,0.53,3.84,3.0
1758076637.03771,1758076637.02665,0.0,0.0,0.0,14.49583,-42.97184,-4.23989,6.72,1.02,4.13,3.0
1758076637.0395,1758076637.03665,0.0,0.0,0.0,12.89155,-46.06581,-1.3178,6.72,1.02,4.13,3.0
1758076637.05553,1758076637.04665,0.0,0.0,0.0,12.37589,-45.83662,0.22918,7.83,1.15,4.09,3.0
1758076637.05681,1758076637.05665,0.0,0.0,0.0,12.37589,-44.51882,1.48969,7.83,1.15,4.09,3.0
1758076637.07231,1758076637.06665,0.0,0.0,0.0,12.89155,-42.22699,2.40642,8.49,0.93,3.85,3.0
1758076637.08076,1758076637.07665,0.0,0.0,0.0,14.20935,-37.24226,2.97938,8.49,0.93,3.61,3.0
1758076637.09926,1758076637.08665,0.0,0.0,0.0,15.58445,-33.74722,3.20856,8.84,0.59,3.61,3.0
1758076637.10012,1758076637.09665,0.0,0.0,0.0,16.84496,-29.56462,2.40642,8.99,0.36,3.59,3.0
1758076637.11583,1758076637.10665,0.0,0.0,0.0,17.87628,-24.5226,1.08862,8.99,0.36,3.59,3.0
1758076637.11675,1758076637.11665,0.0,0.0,0.0,19.19409,-18.16276,-1.3178,8.82,0.32,3.31,3.0
1758076637.13188,1758076637.12665,0.0,0.0,0.0,19.70975,-14.83961,-3.03668,8.82,0.32,3.31,3.0
1758076637.14847,1758076637.13665,0.0,0.0,0.0,19.70975,-11.11538,-5.32851,8.48,0.34,3.2,3.0
1758076637.14958,1758076637.14665,0.0,0.0,0.0,19.59516,-6.24524,-7.16197,8.48,0.34,3.2,3.0
1758076637.16485,1758076637.15665,0.0,0.0,0.0,19.07949,-0.34377,-9.11003,8.67,0.44,3.22,3.0
1758076637.16684,1758076637.16665,0.0,0.0,0.0,18.33465,3.60963,-10.08406,8.82,0.55,3.14,3.0
1758076637.18165,1758076637.17665,0.0,0.0,0.0,17.6471,8.42248,-10.19865,8.82,0.55,3.14,3.0
1758076637.19783,1758076637.18665,0.0,0.0,0.0,17.18874,13.34992,-10.25595,9.13,0.61,3.0,3.0
1758076637.19907,1758076637.19665,0.0,0.0,0.0,16.90226,20.34,-9.28192,9.13,0.61,3.0,3.0
1758076637.21384,1758076637.20665,0.0,0.0,0.0,17.01685,24.4653,-8.59437,9.21,0.67,2.99,3.0
1758076637.21475,1758076637.21665,0.0,0.0,0.0,17.30333,27.38738,-7.79223,9.21,0.67,2.99,3.0
1758076637.23035,1758076637.22665,0.0,0.0,0.0,17.81899,30.25217,-7.50575,9.07,0.68,3.09,3.0
1758076637.24664,1758076637.23665,0.0,0.0,0.0,17.58981,35.63798,-8.136,8.99,0.68,3.16,3.0
1758076637.24898,1758076637.24665,0.0,0.0,0.0,17.30333,35.12231,-8.93814,8.99,0.68,3.16,3.0
1758076637.26395,1758076637.25665,0.0,0.0,0.0,15.98552,35.00772,-10.8862,8.25,0.74,2.89,3.0
1758076637.26493,1758076637.26665,0.0,0.0,0.0,14.49583,35.00772,-12.60507,8.25,0.74,2.89,3.0
1758076637.27995,1758076637.27665,0.0,0.0,0.0,13.5218,36.55471,-13.69369,8.3,0.86,2.99,3.0
1758076637.29598,1758076637.28665,0.0,0.0,0.0,12.204,36.6693,-14.43854,8.3,0.86,2.99,3.0
1758076637.29765,1758076637.29665,0.0,0.0,0.0,11.17268,35.06502,-14.49583,8.14,0.95,2.98,3.0
1758076637.31294,1758076637.30665,0.0,0.0,0.0,9.91217,30.59595,-12.71966,8.04,0.95,3.09,3.0
1758076637.31393,1758076637.31665,0.0,0.0,0.0,9.62569,28.64789,-10.8862,8.04,0.91,3.09,3.0
1758076637.32966,1758076637.32665,0.0,0.0,0.0,9.22462,26.98631,-9.11003,8.49,0.73,3.16,3.0
1758076637.34569,1758076637.33665,0.0,0.0,0.0,9.11003,24.75178,-7.33386,8.49,0.73,3.16,3.0
1758076637.34767,1758076637.34665,0.0,0.0,0.0,9.28192,21.94428,-5.32851,8.67,0.65,3.25,3.0
1758076637.36374,1758076637.35665,0.0,0.0,0.0,9.4538,20.34,-4.81285,8.67,0.65,3.25,3.0
1758076637.36495,1758076637.36665,0.0,0.0,0.0,9.96947,17.81899,-4.69825,8.74,0.64,3.38,3.0
1758076637.37999,1758076637.37665,0.0,0.0,0.0,10.59972,14.49583,-4.92744,8.74,0.64,3.38,3.0
1758076637.39602,1758076637.38665,0.0,0.0,0.0,10.8289,10.25595,-5.72958,8.45,0.71,3.31,3.0
1758076637.39695,1758076637.39665,0.0,0.0,0.0,10.65701,7.16197,-6.41713,8.32,0.8,3.14,3.0
1758076637.41204,1758076637.40665,0.0,0.0,0.0,10.19865,3.55234,-6.8182,8.32,0.8,3.14,3.0
1758076637.41378,1758076637.41665,0.0,0.0,0.0,9.4538,0.40107,-6.70361,8.21,0.91,2.91,3.0
1758076637.42973,1758076637.42665,0.0,0.0,0.0,7.79223,-3.49504,-6.13065,8.21,0.91,2.91,3.0
1758076637.44597,1758076637.43665,0.0,0.0,0.0,6.58902,-4.92744,-4.98473,8.44,0.96,2.92,3.0
1758076637.45017,1758076637.44665,0.0,0.0,0.0,5.21392,-3.72423,-4.58366,8.44,0.96,2.92,3.0
1758076637.46578,1758076637.45665,0.0,0.0,0.0,2.86479,1.3178,-5.15662,9.13,0.96,3.04,3.0
1758076637.46697,1758076637.46665,0.0,0.0,0.0,1.77617,0.0573,-6.41713,9.15,1.05,3.09,3.0
1758076637.48194,1758076637.47665,0.0,0.0,0.0,0.51566,-3.38045,-8.42248,9.15,1.05,3.09,3.0
1758076637.49792,1758076637.48665,0.0,0.0,0.0,-0.51566,-6.58902,-10.19865,9.08,1.09,3.11,3.0
1758076637.50494,1758076637.49665,0.0,0.0,0.0,-2.34913,-9.85487,-12.77696,9.08,1.09,3.11,3.0
1758076637.50942,1758076637.50665,0.0,0.0,0.0,-3.60963,-10.71431,-15.0115,9.39,1.11,2.86,3.0
1758076637.53979,1758076637.51665,0.0,0.0,0.0,-4.98473,-10.48513,-16.90226,9.39,1.11,2.86,3.0
1758076637.54473,1758076637.52665,0.0,0.0,0.0,-6.47442,-9.85487,-18.79302,9.72,1.2,2.92,3.0
1758076637.54534,1758076637.53665,0.0,0.0,0.0,-9.05273,-12.14671,-19.70975,10.04,1.44,2.98,3.0
1758076637.55062,1758076637.54665,0.0,0.0,0.0,-10.59972,-17.36062,-18.79302,10.04,1.44,2.98,3.0
1758076637.56691,1758076637.55665,0.0,0.0,0.0,-11.97482,-22.97561,-15.58445,10.15,1.59,3.03,3.0
1758076637.57267,1758076637.56665,0.0,0.0,0.0,-14.38124,-27.2155,-11.17268,10.15,1.59,3.03,3.0
1758076637.57405,1758076637.57665,0.0,0.0,0.0,-17.93358,-32.54401,-1.43239,11.04,1.72,3.22,3.0
1758076637.59117,1758076637.58665,0.0,0.0,0.0,-20.68378,-39.82057,4.69825,11.04,1.72,3.22,3.0
1758076637.60712,1758076637.59665,0.0,0.0,0.0,-20.79837,-33.17426,2.86479,12.17,2.31,4.86,3.0
1758076637.60809,1758076637.60665,0.0,0.0,0.0,-20.68378,-13.34992,0.0573,12.17,2.31,4.86,3.0
1758076637.62475,1758076637.61665,0.0,0.0,0.0,-20.51189,-6.41713,-11.22997,16.19,2.15,7.35,3.0
1758076637.62565,1758076637.62665,0.0,0.0,0.0,-18.73572,-3.83882,-15.58445,14.95,1.49,6.32,3.0
1758076637.64129,1758076637.63665,0.0,0.0,0.0,-17.18874,5.21392,-16.04282,14.95,1.49,6.32,3.0
1758076637.65724,1758076637.64665,0.0,0.0,0.0,-16.50119,13.75099,-8.99544,15.04,0.49,4.76,3.0
1758076637.65803,1758076637.65665,0.0,0.0,0.0,-17.81899,16.61578,-1.71887,15.04,0.49,4.76,3.0
1758076637.67396,1758076637.66665,0.0,0.0,0.0,-19.59516,21.37133,5.55769,13.01,0.22,4.31,3.0
1758076637.67515,1758076637.67665,0.0,0.0,0.0,-22.05888,24.86637,11.86023,13.01,0.22,4.31,3.0
1758076637.68994,1758076637.68665,0.0,0.0,0.0,-26.12688,15.46986,18.73572,11.68,0.78,4.5,3.0
1758076637.70783,1758076637.69665,0.0,0.0,0.0,-28.01764,8.0787,20.85567,9.18,1.25,4.28,3.0
1758076637.71272,1758076637.70665,0.0,0.0,0.0,-28.70519,2.46372,20.97026,9.18,1.25,4.28,3.0
1758076637.71413,1758076637.71665,0.0,0.0,0.0,-28.476,-3.95341,19.36597,8.06,1.33,4.21,3.0
1758076637.79622,1758076637.72665,0.0,0.0,0.0,-27.61657,-15.29797,13.40721,8.06,1.33,4.21,3.0
1758076637.79711,1758076637.73665,0.0,0.0,0.0,-26.81443,-21.88699,9.22462,6.7,0.99,3.86,3.0
1758076637.79853,1758076637.74665,0.0,0.0,0.0,-26.47065,-30.36677,4.18259,6.7,0.99,3.86,3.0
1758076637.80051,1758076637.75665,0.0,0.0,0.0,-26.06958,-40.7373,0.0573,5.86,0.44,3.71,3.0
1758076637.80227,1758076637.76665,0.0,0.0,0.0,-24.98096,-55.11855,-4.87014,5.79,-0.26,3.78,3.0
1758076637.80324,1758076637.77665,0.0,0.0,0.0,-24.12152,-64.17127,-6.8182,5.79,-0.26,3.78,3.0
1758076637.80503,1758076637.78665,0.0,0.0,0.0,-22.91831,-71.16136,-7.84952,6.5,-0.88,4.0,3.0
1758076637.80745,1758076637.79665,0.0,0.0,0.0,-21.48592,-75.40125,-8.02141,6.5,-0.88,4.0,3.0
1758076637.80967,1758076637.80665,0.0,0.0,0.0,-19.88164,-78.7244,-6.99009,7.5,-1.16,4.18,3.0
1758076637.82638,1758076637.81665,0.0,0.0,0.0,-19.25138,-78.89629,-5.72958,7.5,-1.16,4.18,3.0
1758076637.82824,1758076637.82665,0.0,0.0,0.0,-19.36597,-77.92226,-4.46907,8.28,-0.95,4.13,3.0
1758076637.84328,1758076637.83665,0.0,0.0,0.0,-20.22541,-75.17207,-2.29183,8.28,-0.95,4.13,3.0
1758076637.84501,1758076637.84665,0.0,0.0,0.0,-22.86102,-69.04142,-0.74485,8.92,-0.48,3.89,3.0
1758076637.86314,1758076637.85665,0.0,0.0,0.0,-25.15285,-63.88479,0.97403,9.24,-0.09,3.46,3.0
1758076637.86434,1758076637.86665,0.0,0.0,0.0,-27.38738,-59.24384,2.97938,9.24,-0.09,3.46,3.0
1758076637.88034,1758076637.87665,0.0,0.0,0.0,-29.9084,-50.13381,6.13065,9.39,0.11,3.16,3.0
1758076637.89642,1758076637.88665,0.0,0.0,0.0,-30.65324,-42.51347,8.0787,9.39,0.11,3.16,3.0
1758076637.89729,1758076637.89665,0.0,0.0,0.0,-30.65324,-34.26288,10.02676,9.54,0.05,2.75,3.0
1758076637.91301,1758076637.90665,0.0,0.0,0.0,-30.25217,-25.72581,11.34457,9.54,0.05,2.75,3.0
1758076637.91412,1758076637.91665,0.0,0.0,0.0,-28.59059,-12.08941,12.89155,9.35,-0.13,2.4,3.0
1758076637.93012,1758076637.92665,0.0,0.0,0.0,-27.2155,-2.40642,13.17803,9.24,-0.38,2.09,3.0
1758076637.9474,1758076637.93665,0.0,0.0,0.0,-26.01229,6.7609,13.00614,9.24,-0.38,2.09,3.0
1758076637.94834,1758076637.94665,0.0,0.0,0.0,-25.09555,14.66772,12.2613,9.07,-0.58,1.98,3.0
1758076637.96319,1758076637.95665,0.0,0.0,0.0,-24.80907,24.75178,10.19865,9.07,-0.58,1.98,3.0
1758076637.96515,1758076637.96665,0.0,0.0,0.0,-25.21014,30.48136,8.47978,8.9,-0.61,2.01,3.0
1758076637.98538,1758076637.97665,0.0,0.0,0.0,-25.72581,35.63798,6.53172,8.9,-0.61,2.01,3.0
1758076637.98747,1758076637.98665,0.0,0.0,0.0,-26.01229,40.68,4.35448,8.79,-0.49,1.84,3.0
1758076638.00528,1758076637.99665,0.0,0.0,0.0,-26.69983,48.41494,0.68755,8.85,-0.39,1.85,3.0
1758076638.00735,1758076638.00665,0.0,0.0,0.0,-26.81443,51.79538,-1.14592,8.85,-0.39,1.85,3.0
1758076638.02221,1758076638.01665,0.0,0.0,0.0,-26.69983,51.22243,-2.29183,8.36,-0.35,2.03,3.0
1758076638.03817,1758076638.02665,0.0,0.0,0.0,-26.35606,47.15443,-2.57831,8.36,-0.35,2.03,3.0
1758076638.03944,1758076638.03665,0.0,0.0,0.0,-25.49662,45.55015,-2.29183,8.1,-0.41,1.94,3.0
1758076638.07525,1758076638.04665,0.0,0.0,0.0,-24.86637,44.748,-1.71887,8.1,-0.41,1.94,3.0
1758076638.07932,1758076638.05665,0.0,0.0,0.0,-24.35071,44.11775,-1.3751,8.39,-0.51,1.86,3.0
1758076638.07994,1758076638.06665,0.0,0.0,0.0,-23.26209,43.31561,-0.68755,8.39,-0.51,1.86,3.0
1758076638.08233,1758076638.07665,0.0,0.0,0.0,-22.00158,42.34158,-0.51566,8.47,-0.57,1.97,3.0
1758076638.0975,1758076638.08665,0.0,0.0,0.0,-20.85567,41.31026,-0.45837,8.71,-0.67,1.92,3.0
1758076638.09955,1758076638.09665,0.0,0.0,0.0,-20.05352,40.10705,-0.85944,8.71,-0.67,1.92,3.0
1758076638.11427,1758076638.10665,0.0,0.0,0.0,-18.85031,37.58603,-1.77617,8.92,-0.79,2.02,3.0
1758076638.11549,1758076638.11665,0.0,0.0,0.0,-17.99088,35.52338,-2.40642,8.92,-0.79,2.02,3.0
1758076638.13052,1758076638.12665,0.0,0.0,0.0,-17.18874,32.77319,-3.03668,9.05,-0.81,2.02,3.0
1758076638.14626,1758076638.13665,0.0,0.0,0.0,-16.55848,29.50733,-3.49504,9.05,-0.81,2.02,3.0
1758076638.14744,1758076638.14665,0.0,0.0,0.0,-15.75634,24.00693,-3.32316,9.04,-0.79,2.14,3.0
1758076638.16261,1758076638.15665,0.0,0.0,0.0,-15.58445,19.99623,-2.63561,8.94,-0.72,2.12,3.0
1758076638.16505,1758076638.16665,0.0,0.0,0.0,-15.35527,15.06879,-1.71887,8.94,-0.72,2.12,3.0
1758076638.18287,1758076638.17665,0.0,0.0,0.0,-15.06879,9.85487,-0.97403,8.71,-0.6,1.92,3.0
1758076638.19829,1758076638.18665,0.0,0.0,0.0,-14.49583,0.34377,0.34377,8.71,-0.6,1.92,3.0
1758076638.19948,1758076638.19665,0.0,0.0,0.0,-13.75099,-3.95341,1.03132,8.56,-0.52,1.79,3.0
1758076638.21461,1758076638.20665,0.0,0.0,0.0,-12.54778,-7.10468,0.97403,8.56,-0.52,1.79,3.0
1758076638.21554,1758076638.21665,0.0,0.0,0.0,-11.28727,-5.95876,-0.17189,8.84,-0.53,1.25,3.0
1758076638.23059,1758076638.22665,0.0,0.0,0.0,-9.05273,2.92208,-3.03668,9.75,-0.69,1.49,3.0
1758076638.24881,1758076638.23665,0.0,0.0,0.0,-6.99009,10.31324,-4.46907,9.75,-0.69,1.49,3.0
1758076638.24902,1758076638.24665,0.0,0.0,0.0,-4.64096,15.69904,-4.81285,10.04,-0.96,2.02,3.0
1758076638.2636,1758076638.25665,0.0,0.0,0.0,-2.46372,15.98552,-2.86479,10.04,-0.96,2.02,3.0
1758076638.2653,1758076638.26665,0.0,0.0,0.0,0.51566,13.75099,-0.0573,9.69,-1.32,2.43,3.0
1758076638.28067,1758076638.27665,0.0,0.0,0.0,2.23454,12.77696,3.38045,9.69,-1.32,2.43,3.0
1758076638.29716,1758076638.28665,0.0,0.0,0.0,4.18259,12.60507,7.73493,10.17,-1.6,2.53,3.0
1758076638.29943,1758076638.29665,0.0,0.0,0.0,7.21927,11.34457,14.72501,10.17,-1.6,2.53,3.0
1758076638.31467,1758076638.30665,0.0,0.0,0.0,9.91217,8.59437,18.50654,10.44,-1.64,2.5,3.0
1758076638.31559,1758076638.31665,0.0,0.0,0.0,12.14671,-1.03132,19.70975,10.26,-1.66,3.18,3.0
1758076638.33062,1758076638.32665,0.0,0.0,0.0,14.43854,-20.11082,18.27736,10.26,-1.66,3.18,3.0
1758076638.34642,1758076638.33665,0.0,0.0,0.0,18.27736,-14.61043,16.84496,10.72,-1.85,3.94,3.0
1758076638.34761,1758076638.34665,0.0,0.0,0.0,17.24603,6.8182,16.95955,10.72,-1.85,3.94,3.0
1758076638.36271,1758076638.35665,0.0,0.0,0.0,14.61043,25.26744,14.49583,14.77,-1.48,5.57,3.0
1758076638.37952,1758076638.36665,0.0,0.0,0.0,13.69369,25.43933,11.00079,14.77,-1.48,5.57,3.0
1758076638.38039,1758076638.37665,0.0,0.0,0.0,10.8289,-2.06265,8.36518,12.19,-0.2,6.39,3.0
1758076638.39569,1758076638.38665,0.0,0.0,0.0,10.94349,-13.17803,8.30789,12.14,-0.24,5.66,3.0
1758076638.39772,1758076638.39665,0.0,0.0,0.0,10.8862,-13.80828,7.21927,12.14,-0.24,5.66,3.0
1758076638.42049,1758076638.40665,0.0,0.0,0.0,10.54242,-6.07335,3.83882,14.62,-0.49,4.37,3.0
1758076638.43867,1758076638.41665,0.0,0.0,0.0,10.59972,-1.94806,-2.46372,14.62,-0.49,4.37,3.0
1758076638.43904,1758076638.42665,0.0,0.0,0.0,11.45916,-0.85944,-6.13065,13.73,-0.92,5.16,3.0
1758076638.44017,1758076638.43665,0.0,0.0,0.0,12.08941,2.46372,-10.25595,13.73,-0.92,5.16,3.0
1758076638.45576,1758076638.44665,0.0,0.0,0.0,12.204,6.35983,-13.69369,13.17,-1.3,5.64,3.0
1758076638.4569,1758076638.45665,0.0,0.0,0.0,12.43318,8.30789,-16.61578,11.31,-1.21,4.81,3.0
1758076638.47172,1758076638.46665,0.0,0.0,0.0,12.71966,6.58902,-17.36062,11.31,-1.21,4.81,3.0
1758076638.48959,1758076638.47665,0.0,0.0,0.0,13.17803,4.18259,-16.84496,9.46,-0.98,4.48,3.0
1758076638.49048,1758076638.48665,0.0,0.0,0.0,14.66772,-0.57296,-16.10011,9.46,-0.98,4.48,3.0
1758076638.50578,1758076638.49665,0.0,0.0,0.0,16.21471,-8.25059,-14.15206,7.76,-0.77,3.7,3.0
1758076638.50669,1758076638.50665,0.0,0.0,0.0,18.16276,-13.34992,-11.34457,7.76,-0.77,3.7,3.0
1758076638.52231,1758076638.51665,0.0,0.0,0.0,19.88164,-19.25138,-8.65166,6.59,-0.67,3.83,3.0
1758076638.53959,1758076638.52665,0.0,0.0,0.0,22.86102,-29.22085,-3.95341,6.59,-0.67,3.83,3.0
1758076638.54076,1758076638.53665,0.0,0.0,0.0,24.35071,-33.80451,-1.3178,5.7,-0.58,3.74,3.0
1758076638.5558,1758076638.54665,0.0,0.0,0.0,25.8404,-37.98711,1.3178,5.88,-0.38,3.86,3.0
1758076638.55697,1758076638.55665,0.0,0.0,0.0,26.81443,-41.88322,3.03668,5.88,-0.38,3.86,3.0
1758076638.57178,1758076638.56665,0.0,0.0,0.0,27.44468,-44.28964,4.1253,6.47,0.01,3.95,3.0
1758076638.58783,1758076638.57665,0.0,0.0,0.0,27.33009,-44.00316,3.89611,6.47,0.01,3.95,3.0
1758076638.5928,1758076638.58665,0.0,0.0,0.0,26.87172,-43.20102,3.60963,7.28,0.55,3.91,3.0
1758076638.60784,1758076638.59665,0.0,0.0,0.0,26.69983,-42.51347,3.49504,7.28,0.55,3.91,3.0
1758076638.6088,1758076638.60665,0.0,0.0,0.0,26.98631,-40.45082,3.60963,7.78,0.97,3.65,3.0
1758076638.62387,1758076638.61665,0.0,0.0,0.0,27.10091,-38.1017,3.72423,8.45,1.11,3.53,3.0
1758076638.62476,1758076638.62665,0.0,0.0,0.0,27.38738,-34.14828,3.66693,8.45,1.11,3.53,3.0
1758076638.6409,1758076638.63665,0.0,0.0,0.0,27.67386,-29.33544,3.26586,9.03,1.05,3.24,3.0
1758076638.65687,1758076638.64665,0.0,0.0,0.0,27.61657,-21.60051,1.66158,9.03,1.05,3.24,3.0
1758076638.65968,1758076638.65665,0.0,0.0,0.0,27.67386,-16.55848,0.0573,9.11,0.86,3.05,3.0
1758076638.6749,1758076638.66665,0.0,0.0,0.0,27.73116,-11.51645,-1.60428,9.11,0.86,3.05,3.0
1758076638.67583,1758076638.67665,0.0,0.0,0.0,27.61657,-6.35983,-3.20856,9.14,0.65,3.01,3.0
1758076638.69097,1758076638.68665,0.0,0.0,0.0,27.67386,0.68755,-5.09932,9.13,0.5,2.98,3.0
1758076638.70655,1758076638.69665,0.0,0.0,0.0,27.73116,4.87014,-5.84417,9.13,0.5,2.98,3.0
1758076638.70786,1758076638.70665,0.0,0.0,0.0,27.73116,9.4538,-6.35983,9.21,0.46,3.0,3.0
1758076638.72295,1758076638.71665,0.0,0.0,0.0,28.07493,16.67307,-6.24524,9.21,0.46,3.0,3.0
1758076638.73977,1758076638.72665,0.0,0.0,0.0,28.30412,21.48592,-5.95876,9.3,0.47,2.93,3.0
1758076638.74068,1758076638.73665,0.0,0.0,0.0,28.59059,26.06958,-5.15662,9.3,0.47,2.93,3.0
1758076638.7559,1758076638.74665,0.0,0.0,0.0,28.64789,29.8511,-4.64096,9.18,0.5,2.93,3.0
1758076638.75763,1758076638.75665,0.0,0.0,0.0,29.10626,33.86181,-3.55234,9.18,0.5,2.86,3.0
1758076638.77271,1758076638.76665,0.0,0.0,0.0,29.33544,35.98175,-2.86479,8.8,0.49,2.86,3.0
1758076638.78892,1758076638.77665,0.0,0.0,0.0,29.27814,37.92981,-1.66158,8.63,0.5,2.81,3.0
1758076638.79035,1758076638.78665,0.0,0.0,0.0,29.04896,38.78925,-0.68755,8.63,0.5,2.81,3.0
1758076638.80498,1758076638.79665,0.0,0.0,0.0,27.61657,39.07573,-0.45837,8.5,0.6,2.9,3.0
1758076638.80635,1758076638.80665,0.0,0.0,0.0,26.35606,38.38818,-1.48969,8.5,0.6,2.9,3.0
1758076638.821,1758076638.81665,0.0,0.0,0.0,25.15285,37.64333,-2.57831,8.38,0.84,2.75,3.0
1758076638.83791,1758076638.82665,0.0,0.0,0.0,23.72045,37.12767,-3.66693,8.38,0.84,2.75,3.0
1758076638.84008,1758076638.83665,0.0,0.0,0.0,21.6578,35.92446,-4.98473,8.31,1.12,2.74,3.0
1758076638.85498,1758076638.84665,0.0,0.0,0.0,20.11082,33.86181,-5.15662,8.13,1.33,2.84,3.0
1758076638.85596,1758076638.85665,0.0,0.0,0.0,18.56383,32.14294,-5.15662,8.13,1.33,2.84,3.0
1758076638.87071,1758076638.86665,0.0,0.0,0.0,17.13144,29.39274,-4.87014,8.15,1.3,3.06,3.0
1758076638.88703,1758076638.87665,0.0,0.0,0.0,15.58445,24.5226,-3.83882,8.15,1.3,3.06,3.0
1758076638.88822,1758076638.88665,0.0,0.0,0.0,14.9542,21.6578,-2.97938,8.2,1.05,3.06,3.0
1758076638.90304,1758076638.89665,0.0,0.0,0.0,14.49583,18.79302,-2.34913,8.2,1.05,3.06,3.0
1758076638.91905,1758076638.90665,0.0,0.0,0.0,14.20935,15.41257,-1.71887,8.35,0.77,3.08,3.0
1758076638.92,1758076638.91665,0.0,0.0,0.0,14.20935,11.22997,-1.94806,8.47,0.57,3.04,3.0
1758076638.93509,1758076638.92665,0.0,0.0,0.0,14.20935,8.0787,-2.23454,8.47,0.57,3.04,3.0
1758076638.93627,1758076638.93665,0.0,0.0,0.0,14.32395,4.98473,-2.57831,8.46,0.51,2.98,3.0
1758076638.9518,1758076638.94665,0.0,0.0,0.0,13.75099,0.85944,-3.09397,8.46,0.51,2.98,3.0
1758076638.96892,1758076638.95665,0.0,0.0,0.0,13.00614,-2.23454,-3.03668,8.54,0.59,2.9,3.0
1758076638.97088,1758076638.96665,0.0,0.0,0.0,12.204,-4.18259,-2.97938,8.54,0.59,2.9,3.0
1758076638.98583,1758076638.97665,0.0,0.0,0.0,11.00079,-5.27121,-2.23454,8.76,0.76,2.77,3.0
1758076638.98704,1758076638.98665,0.0,0.0,0.0,9.11003,-6.7609,-0.57296,8.98,0.76,2.74,3.0
1758076639.00511,1758076638.99665,0.0,0.0,0.0,7.33386,-4.58366,0.57296,8.98,0.94,2.74,3.0
1758076639.00608,1758076639.00665,0.0,0.0,0.0,5.72958,0.45837,1.77617,9.54,1.13,2.77,3.0
1758076639.02112,1758076639.01665,0.0,0.0,0.0,4.0107,4.64096,2.06265,9.54,1.13,2.77,3.0
1758076639.03712,1758076639.02665,0.0,0.0,0.0,2.46372,-1.03132,1.43239,9.24,1.33,3.04,3.0
1758076639.03836,1758076639.03665,0.0,0.0,0.0,0.11459,-2.63561,-2.11994,9.24,1.33,3.04,3.0
1758076639.05384,1758076639.04665,0.0,0.0,0.0,0.0573,-4.46907,-5.21392,8.97,1.51,3.0,3.0
1758076639.05534,1758076639.05665,0.0,0.0,0.0,-1.77617,-5.32851,-8.65166,8.97,1.51,3.0,3.0
1758076639.07117,1758076639.06665,0.0,0.0,0.0,-4.18259,-5.84417,-14.9542,9.31,1.58,2.76,3.0
1758076639.08784,1758076639.07665,0.0,0.0,0.0,-6.41713,-5.15662,-19.53786,9.47,1.69,2.81,3.0
1758076639.09048,1758076639.08665,0.0,0.0,0.0,-8.136,-5.61499,-22.11617,9.47,1.69,2.81,3.0
1758076639.10628,1758076639.09665,0.0,0.0,0.0,-10.54242,-7.96411,-24.23611,9.63,1.8,2.96,3.0
1758076639.10762,1758076639.10665,0.0,0.0,0.0,-13.46451,-10.94349,-21.48592,9.63,1.8,2.96,3.0
1758076639.12331,1758076639.11665,0.0,0.0,0.0,-15.06879,-11.86023,-17.36062,9.82,1.7,2.57,3.0
1758076639.13926,1758076639.12665,0.0,0.0,0.0,-17.13144,-14.15206,-11.80293,9.82,1.7,2.57,3.0
1758076639.14043,1758076639.13665,0.0,0.0,0.0,-18.85031,-21.08485,-2.6929,10.25,1.66,3.06,3.0
1758076639.15531,1758076639.14665,0.0,0.0,0.0,-18.56383,-37.98711,1.83346,9.81,1.67,3.97,3.0
1758076639.15726,1758076639.15665,0.0,0.0,0.0,-17.47521,-41.31026,2.00535,9.81,1.67,3.97,3.0
1758076639.17198,1758076639.16665,0.0,0.0,0.0,-17.58981,-18.33465,-1.3751,13.46,1.81,4.24,3.0
1758076639.18896,1758076639.17665,0.0,0.0,0.0,-16.21471,16.21471,-12.08941,13.46,1.81,4.24,3.0
1758076639.19048,1758076639.18665,0.0,0.0,0.0,-14.20935,12.54778,-14.38124,14.06,1.71,5.46,3.0
1758076639.20498,1758076639.19665,0.0,0.0,0.0,-14.38124,9.62569,-16.21471,14.06,1.71,5.46,3.0
1758076639.20618,1758076639.20665,0.0,0.0,0.0,-15.06879,22.86102,-14.43854,12.96,1.37,4.47,3.0
1758076639.22121,1758076639.21665,0.0,0.0,0.0,-16.21471,38.56006,-6.24524,14.2,1.09,3.88,3.0
1758076639.23805,1758076639.22665,0.0,0.0,0.0,-17.18874,41.48215,0.45837,14.2,1.09,3.88,3.0
1758076639.23917,1758076639.23665,0.0,0.0,0.0,-18.90761,43.54479,6.8182,12.84,1.15,4.47,3.0
1758076639.25398,1758076639.24665,0.0,0.0,0.0,-20.45459,42.62806,11.86023,12.84,1.15,4.47,3.0
1758076639.25546,1758076639.25665,0.0,0.0,0.0,-22.40265,33.23156,16.84496,11.82,1.59,4.7,3.0
1758076639.2713,1758076639.26665,0.0,0.0,0.0,-23.54857,26.01229,17.36062,11.82,1.59,4.7,3.0
1758076639.28722,1758076639.27665,0.0,0.0,0.0,-23.89234,20.11082,16.61578,10.83,1.74,4.56,3.0
1758076639.28979,1758076639.28665,0.0,0.0,0.0,-24.92367,11.34457,14.09476,10.83,1.74,4.56,3.0
1758076639.30527,1758076639.29665,0.0,0.0,0.0,-26.18417,0.97403,8.47978,9.94,1.56,4.64,3.0
1758076639.30732,1758076639.30665,0.0,0.0,0.0,-26.52795,-5.09932,5.09932,9.05,1.24,4.43,3.0
1758076639.32423,1758076639.31665,0.0,0.0,0.0,-27.38738,-13.06344,2.11994,9.05,1.24,4.43,3.0
1758076639.32523,1758076639.32665,0.0,0.0,0.0,-28.87707,-21.60051,-1.14592,7.45,0.92,3.94,3.0
1758076639.34131,1758076639.33665,0.0,0.0,0.0,-29.96569,-34.14828,-2.57831,7.45,0.92,3.94,3.0
1758076639.35727,1758076639.34665,0.0,0.0,0.0,-31.16891,-41.88322,-4.18259,6.62,0.51,3.91,3.0
1758076639.35909,1758076639.35665,0.0,0.0,0.0,-31.74186,-50.82136,-4.92744,6.62,0.51,3.91,3.0
1758076639.37407,1758076639.36665,0.0,0.0,0.0,-30.93972,-63.99939,-4.58366,6.25,-0.03,4.07,3.0
1758076639.37572,1758076639.37665,0.0,0.0,0.0,-29.04896,-73.16672,-3.49504,6.48,-0.59,4.43,3.0
1758076639.3901,1758076639.38665,0.0,0.0,0.0,-26.69983,-81.5319,-2.23454,6.48,-0.59,4.43,3.0
1758076639.40611,1758076639.39665,0.0,0.0,0.0,-23.89234,-88.52198,-0.80214,6.91,-0.96,4.43,3.0
1758076639.4073,1758076639.40665,0.0,0.0,0.0,-19.82434,-96.42879,0.74485,6.91,-0.96,4.43,3.0
1758076639.42396,1758076639.41665,0.0,0.0,0.0,-17.87628,-98.66334,1.43239,7.5,-0.92,4.28,3.0
1758076639.42573,1758076639.42665,0.0,0.0,0.0,-17.30333,-99.1217,1.48969,7.5,-0.92,4.28,3.0
1758076639.44138,1758076639.43665,0.0,0.0,0.0,-17.6471,-97.46013,1.66158,8.23,-0.6,3.97,3.0
1758076639.44579,1758076639.44665,0.0,0.0,0.0,-20.51189,-91.67325,2.00535,9.1,-0.15,3.81,3.0
1758076639.46143,1758076639.45665,0.0,0.0,0.0,-23.0902,-85.94368,2.46372,9.1,-0.15,3.81,3.0
1758076639.46547,1758076639.46665,0.0,0.0,0.0,-25.8404,-79.12547,3.49504,9.82,0.19,3.4,3.0
1758076639.48516,1758076639.47665,0.0,0.0,0.0,-28.64789,-70.87489,4.81285,9.82,0.19,3.4,3.0
1758076639.48664,1758076639.48665,0.0,0.0,0.0,-31.11161,-56.60823,7.33386,9.92,0.41,2.68,3.0
1758076639.50195,1758076639.49665,0.0,0.0,0.0,-32.08564,-47.26902,8.70896,9.92,0.41,2.68,3.0
1758076639.50505,1758076639.50665,0.0,0.0,0.0,-31.79916,-37.12767,9.62569,9.62,0.34,2.15,3.0
1758076639.52045,1758076639.51665,0.0,0.0,0.0,-31.11161,-26.69983,10.02676,9.62,0.34,2.15,3.0
1758076639.5372,1758076639.52665,0.0,0.0,0.0,-29.27814,-11.63104,9.74028,9.44,0.0,2.0,3.0
1758076639.54087,1758076639.53665,0.0,0.0,0.0,-28.01764,-2.34913,8.70896,9.17,-0.4,1.81,3.0
1758076639.55723,1758076639.54665,0.0,0.0,0.0,-26.98631,6.18794,7.50575,9.17,-0.4,1.81,3.0
1758076639.56091,1758076639.55665,0.0,0.0,0.0,-25.8404,18.44924,5.72958,9.06,-0.74,1.69,3.0
1758076639.57726,1758076639.56665,0.0,0.0,0.0,-25.43933,25.89769,4.1253,9.06,-0.74,1.69,3.0
1758076639.5809,1758076639.57665,0.0,0.0,0.0,-24.57989,32.48671,2.92208,8.96,-0.9,1.6,3.0
1758076639.59793,1758076639.58665,0.0,0.0,0.0,-23.94964,38.21629,1.83346,8.96,-0.9,1.6,3.0
1758076639.59897,1758076639.59665,0.0,0.0,0.0,-22.97561,47.26902,0.68755,8.76,-0.9,1.54,3.0
1758076639.61449,1758076639.60665,0.0,0.0,0.0,-22.34536,53.91533,-0.0573,8.83,-0.77,1.64,3.0
1758076639.61543,1758076639.61665,0.0,0.0,0.0,-21.37133,56.83742,-0.57296,8.83,-0.77,1.64,3.0
1758076639.63053,1758076639.62665,0.0,0.0,0.0,-20.22541,55.6915,-1.43239,8.21,-0.56,1.83,3.0
1758076639.64734,1758076639.63665,0.0,0.0,0.0,-18.27736,54.3164,-1.66158,8.21,-0.56,1.83,3.0
1758076639.64849,1758076639.64665,0.0,0.0,0.0,-16.84496,51.73809,-1.08862,8.34,-0.48,1.98,3.0
1758076639.66355,1758076639.65665,0.0,0.0,0.0,-15.41257,47.03984,-0.40107,8.34,-0.48,1.98,3.0
1758076639.6647,1758076639.66665,0.0,0.0,0.0,-13.80828,42.39888,0.68755,8.25,-0.52,1.78,3.0
1758076639.67987,1758076639.67665,0.0,0.0,0.0,-11.74564,36.89849,2.06265,8.59,-0.66,1.81,3.0
1758076639.69554,1758076639.68665,0.0,0.0,0.0,-10.59972,35.12231,3.32316,8.59,-0.66,1.81,3.0
1758076639.69672,1758076639.69665,0.0,0.0,0.0,-9.5684,33.46074,4.18259,8.93,-0.82,1.85,3.0
1758076639.71159,1758076639.70665,0.0,0.0,0.0,-8.59437,31.28349,5.09932,8.93,-0.82,1.85,3.0
1758076639.71362,1758076639.71665,0.0,0.0,0.0,-7.44845,28.07493,5.84417,9.01,-0.9,2.08,3.0
1758076639.72998,1758076639.72665,0.0,0.0,0.0,-6.8182,26.06958,6.13065,9.01,-0.9,2.08,3.0
1758076639.74557,1758076639.73665,0.0,0.0,0.0,-6.41713,24.12152,6.18794,9.13,-0.84,2.06,3.0
1758076639.74651,1758076639.74665,0.0,0.0,0.0,-6.13065,22.63183,6.35983,9.13,-0.84,2.06,3.0
1758076639.76461,1758076639.75665,0.0,0.0,0.0,-6.13065,19.76705,6.13065,9.24,-0.65,2.02,3.0
1758076639.76555,1758076639.76665,0.0,0.0,0.0,-6.47442,17.24603,5.90147,9.24,-0.39,1.86,3.0
1758076639.78047,1758076639.77665,0.0,0.0,0.0,-6.7609,15.24068,5.32851,9.24,-0.39,1.86,3.0
1758076639.79638,1758076639.78665,0.0,0.0,0.0,-6.87549,10.65701,4.64096,9.22,-0.16,1.75,3.0
1758076639.79833,1758076639.79665,0.0,0.0,0.0,-6.7609,6.41713,4.29718,9.22,-0.16,1.75,3.0
1758076639.81415,1758076639.80665,0.0,0.0,0.0,-6.58902,3.49504,3.55234,9.04,-0.05,1.45,3.0
1758076639.81541,1758076639.81665,0.0,0.0,0.0,-6.07335,3.66693,2.63561,9.04,-0.05,1.45,3.0
1758076639.8304,1758076639.82665,0.0,0.0,0.0,-4.87014,5.4431,-0.11459,9.58,-0.17,1.32,3.0
1758076639.84993,1758076639.83665,0.0,0.0,0.0,-3.55234,9.74028,-2.06265,10.29,-0.49,1.77,3.0
1758076639.85287,1758076639.84665,0.0,0.0,0.0,-2.23454,15.69904,-4.18259,10.29,-0.49,1.77,3.0
1758076639.85479,1758076639.85665,0.0,0.0,0.0,0.11459,22.51724,-4.87014,11.24,-1.0,2.66,3.0
1758076639.96465,1758076639.86665,0.0,0.0,0.0,3.60963,26.06958,-3.66693,11.24,-1.0,2.66,3.0
1758076639.96555,1758076639.87665,0.0,0.0,0.0,6.24524,24.86637,-0.97403,11.17,-1.5,3.14,3.0
1758076639.97017,1758076639.88665,0.0,0.0,0.0,8.99544,22.00158,2.40642,11.17,-1.5,3.14,3.0
1758076639.97332,1758076639.89665,0.0,0.0,0.0,12.204,16.10011,5.90147,11.12,-1.93,3.38,3.0
1758076639.97383,1758076639.90665,0.0,0.0,0.0,17.36062,-2.7502,13.69369,10.61,-2.3,3.83,3.0
1758076639.9749,1758076639.91665,0.0,0.0,0.0,21.08485,-12.37589,19.99623,10.61,-2.3,3.83,3.0
1758076639.9755,1758076639.92665,0.0,0.0,0.0,22.51724,-17.99088,24.12152,12.15,-2.14,4.64,3.0
1758076639.97707,1758076639.93665,0.0,0.0,0.0,22.40265,-19.76705,25.7831,12.15,-2.14,4.64,3.0
1758076639.9801,1758076639.94665,0.0,0.0,0.0,23.26209,-5.72958,24.63719,13.99,-1.1,5.18,3.0
1758076639.98047,1758076639.95665,0.0,0.0,0.0,23.20479,7.16197,21.7724,13.99,-1.1,5.18,3.0
1758076639.9828,1758076639.96665,0.0,0.0,0.0,23.0902,16.55848,18.44924,15.05,-0.22,5.37,3.0
1758076639.98318,1758076639.97665,0.0,0.0,0.0,22.97561,28.07493,10.65701,15.05,-0.22,5.37,3.0
1758076639.98503,1758076639.98665,0.0,0.0,0.0,22.57454,32.48671,4.29718,14.1,0.14,5.18,3.0
1758076640.00078,1758076639.99665,0.0,0.0,0.0,22.34536,35.58068,-2.00535,12.75,-0.05,4.96,3.0
1758076640.01679,1758076640.00665,0.0,0.0,0.0,22.68913,31.74186,-6.53172,12.75,-0.05,4.96,3.0
1758076640.01764,1758076640.01665,0.0,0.0,0.0,20.62648,15.0115,-13.12073,10.71,-0.43,4.76,3.0
1758076640.05372,1758076640.02665,0.0,0.0,0.0,20.16812,-10.02676,-10.94349,10.71,-0.43,4.76,3.0
1758076640.05467,1758076640.03665,0.0,0.0,0.0,21.6578,-24.23611,-7.67763,8.56,-0.78,4.03,3.0
1758076640.05529,1758076640.04665,0.0,0.0,0.0,22.63183,-24.23611,-2.46372,8.56,-0.78,4.03,3.0
1758076640.05729,1758076640.05665,0.0,0.0,0.0,24.00693,-22.63183,1.94806,10.05,-1.22,3.72,3.0
1758076640.07285,1758076640.06665,0.0,0.0,0.0,25.09555,-28.41871,5.15662,7.64,-1.07,3.51,3.0
1758076640.07368,1758076640.07665,0.0,0.0,0.0,25.72581,-32.77319,6.87549,7.64,-1.07,3.51,3.0
1758076640.08979,1758076640.08665,0.0,0.0,0.0,26.18417,-34.89313,8.59437,6.78,-0.84,4.28,3.0
1758076640.10579,1758076640.09665,0.0,0.0,0.0,26.24147,-42.1124,8.59437,6.78,-0.84,4.28,3.0
1758076640.10722,1758076640.10665,0.0,0.0,0.0,25.72581,-46.98254,7.39116,5.95,-0.25,3.86,3.0
1758076640.12186,1758076640.11665,0.0,0.0,0.0,25.26744,-48.35764,6.8182,5.95,-0.25,3.86,3.0
1758076640.13759,1758076640.12665,0.0,0.0,0.0,25.21014,-47.95657,6.53172,6.5,0.29,3.78,3.0
1758076640.14039,1758076640.13665,0.0,0.0,0.0,25.61122,-49.21708,6.47442,7.11,0.65,3.86,3.0
1758076640.15592,1758076640.14665,0.0,0.0,0.0,26.64254,-49.67545,6.99009,7.11,0.65,3.86,3.0
1758076640.15762,1758076640.15665,0.0,0.0,0.0,27.84575,-48.64412,7.96411,8.03,0.67,3.79,3.0
1758076640.17292,1758076640.16665,0.0,0.0,0.0,29.67921,-46.2377,9.85487,8.03,0.67,3.79,3.0
1758076640.17383,1758076640.17665,0.0,0.0,0.0,32.77319,-39.4768,11.17268,8.85,0.42,3.33,3.0
1758076640.19043,1758076640.18665,0.0,0.0,0.0,34.95043,-33.00237,12.08941,8.85,0.42,3.33,3.0
1758076640.20691,1758076640.19665,0.0,0.0,0.0,36.61201,-25.43933,12.2613,9.3,0.19,2.98,3.0
1758076640.20786,1758076640.20665,0.0,0.0,0.0,38.27358,-13.12073,11.63104,9.3,0.19,2.98,3.0
1758076640.22297,1758076640.21665,0.0,0.0,0.0,38.90384,-5.90147,10.02676,9.09,0.09,2.76,3.0
1758076640.22495,1758076640.22665,0.0,0.0,0.0,39.13302,0.11459,8.0787,8.57,0.17,2.68,3.0
1758076640.24096,1758076640.23665,0.0,0.0,0.0,38.56006,6.07335,5.32851,8.57,0.17,2.68,3.0
1758076640.25789,1758076640.24665,0.0,0.0,0.0,37.87251,14.61043,1.14592,8.61,0.36,2.75,3.0
1758076640.25961,1758076640.25665,0.0,0.0,0.0,36.7266,20.22541,-1.14592,8.61,0.36,2.75,3.0
1758076640.27497,1758076640.26665,0.0,0.0,0.0,35.40879,25.8404,-3.60963,8.77,0.63,2.83,3.0
1758076640.27632,1758076640.27665,0.0,0.0,0.0,34.66395,31.2262,-4.87014,8.77,0.63,2.83,3.0
1758076640.29108,1758076640.28665,0.0,0.0,0.0,33.34615,40.27893,-5.61499,8.92,0.84,2.82,3.0
1758076640.29431,1758076640.29665,0.0,0.0,0.0,33.00237,45.49285,-5.27121,9.08,0.95,2.93,3.0
1758076640.30972,1758076640.30665,0.0,0.0,0.0,32.88778,50.363,-4.0107,9.08,0.95,2.93,3.0
1758076640.32579,1758076640.31665,0.0,0.0,0.0,32.54401,52.71212,-3.49504,8.85,0.89,2.96,3.0
1758076640.32766,1758076640.32665,0.0,0.0,0.0,32.37212,52.71212,-2.29183,8.85,0.89,2.96,3.0
1758076640.34305,1758076640.33665,0.0,0.0,0.0,32.14294,51.27972,-1.3178,8.53,0.76,2.98,3.0
1758076640.34548,1758076640.34665,0.0,0.0,0.0,31.85646,47.49821,-0.45837,8.53,0.76,2.98,3.0
1758076640.36595,1758076640.35665,0.0,0.0,0.0,31.45539,41.94051,-0.34377,8.29,0.58,3.08,3.0
1758076640.36727,1758076640.36665,0.0,0.0,0.0,30.30947,35.12231,-1.20321,8.19,0.44,3.01,3.0
1758076640.38253,1758076640.37665,0.0,0.0,0.0,29.56462,32.37212,-2.40642,8.19,0.44,3.01,3.0
1758076640.38567,1758076640.38665,0.0,0.0,0.0,28.476,30.82513,-3.66693,8.23,0.55,2.75,3.0
1758076640.40501,1758076640.39665,0.0,0.0,0.0,27.04361,29.62192,-5.78687,8.23,0.55,2.75,3.0
1758076640.4063,1758076640.40665,0.0,0.0,0.0,25.8404,27.84575,-7.16197,8.08,0.79,2.84,3.0
1758076640.42283,1758076640.41665,0.0,0.0,0.0,24.5226,26.12688,-8.59437,8.08,0.79,2.84,3.0
1758076640.42536,1758076640.42665,0.0,0.0,0.0,23.60586,23.83505,-9.4538,8.01,0.94,3.1,3.0
1758076640.44193,1758076640.43665,0.0,0.0,0.0,22.00158,19.36597,-9.62569,8.01,0.94,3.1,3.0
1758076640.45968,1758076640.44665,0.0,0.0,0.0,21.31403,16.90226,-8.47978,8.09,0.93,3.04,3.0
1758076640.46059,1758076640.45665,0.0,0.0,0.0,20.51189,14.66772,-6.87549,8.47,0.79,2.99,3.0
1758076640.47584,1758076640.46665,0.0,0.0,0.0,20.16812,12.14671,-4.98473,8.47,0.79,2.99,3.0
1758076640.47726,1758076640.47665,0.0,0.0,0.0,19.70975,9.11003,-2.34913,8.82,0.61,2.95,3.0
1758076640.49215,1758076640.48665,0.0,0.0,0.0,19.48057,7.67763,-1.08862,8.82,0.61,2.95,3.0
1758076640.49383,1758076640.49665,0.0,0.0,0.0,19.53786,6.35983,0.0573,9.17,0.53,2.93,3.0
1758076640.5099,1758076640.50665,0.0,0.0,0.0,19.53786,4.81285,0.68755,9.17,0.53,2.93,3.0
1758076640.52582,1758076640.51665,0.0,0.0,0.0,19.36597,1.60428,0.85944,9.13,0.57,2.89,3.0
1758076640.52715,1758076640.52665,0.0,0.0,0.0,18.79302,-0.22918,0.97403,8.96,0.67,2.72,3.0
1758076640.54189,1758076640.53665,0.0,0.0,0.0,17.99088,-2.6929,1.08862,8.96,0.67,2.72,3.0
1758076640.55789,1758076640.54665,0.0,0.0,0.0,16.67307,-5.72958,1.03132,8.7,0.82,2.57,3.0
1758076640.55911,1758076640.55665,0.0,0.0,0.0,14.15206,-4.64096,1.83346,8.7,0.82,2.57,3.0
1758076640.57396,1758076640.56665,0.0,0.0,0.0,12.43318,-1.71887,2.34913,9.22,1.07,2.57,3.0
1758076640.57509,1758076640.57665,0.0,0.0,0.0,10.94349,0.40107,3.03668,9.22,1.07,2.57,3.0
1758076640.58995,1758076640.58665,0.0,0.0,0.0,8.30789,3.32316,0.74485,9.59,1.36,2.99,3.0
1758076640.60593,1758076640.59665,0.0,0.0,0.0,5.27121,-0.68755,-1.77617,9.35,1.63,3.2,3.0
1758076640.60711,1758076640.60665,0.0,0.0,0.0,2.97938,-6.13065,-3.32316,9.35,1.63,3.2,3.0
1758076640.62195,1758076640.61665,0.0,0.0,0.0,0.45837,-10.19865,-6.53172,9.27,1.77,2.87,3.0
1758076640.63829,1758076640.62665,0.0,0.0,0.0,-2.46372,-13.5791,-10.08406,9.27,1.77,2.87,3.0
1758076640.6402,1758076640.63665,0.0,0.0,0.0,-5.27121,-14.78231,-12.89155,9.74,1.86,2.88,3.0
1758076640.65495,1758076640.64665,0.0,0.0,0.0,-8.47978,-15.41257,-15.12609,9.74,1.86,2.88,3.0
1758076640.65723,1758076640.65665,0.0,0.0,0.0,-11.51645,-15.87093,-17.13144,10.2,2.05,2.8,3.0
1758076640.67276,1758076640.66665,0.0,0.0,0.0,-15.75634,-20.62648,-17.30333,10.2,2.05,2.76,3.0
1758076640.67394,1758076640.67665,0.0,0.0,0.0,-18.62113,-25.72581,-14.49583,10.46,2.1,2.76,3.0
1758076640.68994,1758076640.68665,0.0,0.0,0.0,-21.7151,-33.11696,-10.71431,10.84,2.02,3.3,3.0
1758076640.7068,1758076640.69665,0.0,0.0,0.0,-24.00693,-43.83128,-4.29718,10.84,2.02,3.3,3.0
1758076640.70876,1758076640.70665,0.0,0.0,0.0,-23.0902,-46.69606,-3.09397,11.95,2.09,4.88,3.0
1758076640.72508,1758076640.71665,0.0,0.0,0.0,-21.88699,-20.22541,-4.46907,11.95,2.09,4.88,3.0
1758076640.72643,1758076640.72665,0.0,0.0,0.0,-20.34,-0.22918,-11.51645,17.59,1.65,6.45,3.0
1758076640.74127,1758076640.73665,0.0,0.0,0.0,-17.53251,5.15662,-14.49583,17.59,1.65,6.45,3.0
1758076640.74568,1758076640.74665,0.0,0.0,0.0,-16.38659,6.07335,-13.34992,15.14,0.93,5.87,3.0
1758076640.76103,1758076640.75665,0.0,0.0,0.0,-17.36062,7.73493,-8.93814,13.74,0.6,4.45,3.0
1758076640.77726,1758076640.76665,0.0,0.0,0.0,-19.82434,10.02676,-2.7502,13.74,0.6,4.45,3.0
1758076640.80581,1758076640.77665,0.0,0.0,0.0,-22.34536,13.75099,3.89611,12.69,0.77,3.86,3.0
1758076640.80888,1758076640.78665,0.0,0.0,0.0,-26.87172,19.48057,13.80828,12.69,0.77,3.86,3.0
1758076640.81059,1758076640.79665,0.0,0.0,0.0,-29.73651,19.42327,18.44924,11.31,1.05,4.3,3.0
1758076640.8112,1758076640.80665,0.0,0.0,0.0,-31.85646,15.24068,20.97026,11.31,1.05,4.3,3.0
1758076640.82836,1758076640.81665,0.0,0.0,0.0,-32.88778,8.25059,21.08485,9.24,1.14,4.22,3.0
1758076640.83093,1758076640.82665,0.0,0.0,0.0,-32.25753,-3.38045,19.59516,7.72,1.03,3.98,3.0
1758076640.84647,1758076640.83665,0.0,0.0,0.0,-31.85646,-11.80293,16.84496,7.72,1.03,3.98,3.0
1758076640.84731,1758076640.84665,0.0,0.0,0.0,-31.11161,-18.79302,13.12073,6.61,0.65,3.53,3.0
1758076640.8621,1758076640.85665,0.0,0.0,0.0,-30.48136,-32.42941,7.33386,6.61,0.65,3.53,3.0
1758076640.86492,1758076640.86665,0.0,0.0,0.0,-30.48136,-41.88322,3.26586,5.72,0.24,3.28,3.0
1758076640.88141,1758076640.87665,0.0,0.0,0.0,-30.48136,-51.50891,0.0,5.72,0.24,3.28,3.0
1758076640.95516,1758076640.88665,0.0,0.0,0.0,-30.36677,-61.02001,-3.09397,5.69,-0.25,3.69,3.0
1758076640.95966,1758076640.89665,0.0,0.0,0.0,-29.50733,-73.73967,-6.24524,6.31,-0.25,4.05,3.0
1758076640.96196,1758076640.90665,0.0,0.0,0.0,-28.99167,-79.12547,-7.21927,6.31,-0.7,4.05,3.0
1758076640.96477,1758076640.91665,0.0,0.0,0.0,-28.476,-82.39134,-7.44845,7.44,-0.92,4.12,3.0
1758076640.99075,1758076640.92665,0.0,0.0,0.0,-28.24682,-83.30807,-6.99009,7.44,-0.92,4.12,3.0
1758076640.99405,1758076640.93665,0.0,0.0,0.0,-29.04896,-82.27674,-5.78687,8.4,-0.81,4.03,3.0
1758076640.99466,1758076640.94665,0.0,0.0,0.0,-30.13758,-80.38599,-4.87014,8.4,-0.81,4.03,3.0
1758076640.99602,1758076640.95665,0.0,0.0,0.0,-31.85646,-77.92226,-3.66693,8.87,-0.47,3.6,3.0
1758076640.99763,1758076640.96665,0.0,0.0,0.0,-34.09099,-74.59911,-2.29183,8.87,-0.47,3.6,3.0
1758076640.99802,1758076640.97665,0.0,0.0,0.0,-36.95578,-67.37984,0.0,9.13,-0.18,3.16,3.0
1758076641.00038,1758076640.98665,0.0,0.0,0.0,-38.61736,-61.76485,1.48969,9.26,-0.11,2.64,3.0
1758076641.00074,1758076640.99665,0.0,0.0,0.0,-39.76327,-55.34772,3.26586,9.26,-0.11,2.64,3.0
1758076641.01747,1758076641.00665,0.0,0.0,0.0,-40.10705,-47.72739,5.4431,9.31,-0.22,2.33,3.0
1758076641.01926,1758076641.01665,0.0,0.0,0.0,-39.19032,-35.63798,6.8182,9.31,-0.22,2.33,3.0
1758076641.035,1758076641.02665,0.0,0.0,0.0,-37.92981,-27.38738,8.136,9.22,-0.37,2.05,3.0
1758076641.03779,1758076641.03665,0.0,0.0,0.0,-36.26823,-19.07949,9.22462,9.22,-0.37,2.05,3.0
1758076641.05562,1758076641.04665,0.0,0.0,0.0,-33.34615,-6.18794,10.37054,9.2,-0.57,1.9,3.0
1758076641.06032,1758076641.05665,0.0,0.0,0.0,-31.51268,2.46372,10.48513,9.33,-0.72,1.79,3.0
1758076641.07685,1758076641.06665,0.0,0.0,0.0,-30.02299,10.37054,10.31324,9.33,-0.72,1.79,3.0
1758076641.07889,1758076641.07665,0.0,0.0,0.0,-28.70519,17.81899,9.96947,9.31,-0.71,1.74,3.0
1758076641.09453,1758076641.08665,0.0,0.0,0.0,-28.13223,27.38738,8.93814,9.31,-0.71,1.74,3.0
1758076641.09549,1758076641.09665,0.0,0.0,0.0,-27.84575,32.6013,8.02141,9.18,-0.57,1.75,3.0
1758076641.11051,1758076641.10665,0.0,0.0,0.0,-27.44468,37.52874,6.87549,9.18,-0.57,1.75,3.0
1758076641.12709,1758076641.11665,0.0,0.0,0.0,-27.10091,43.02913,5.72958,9.13,-0.47,1.7,3.0
1758076641.1283,1758076641.12665,0.0,0.0,0.0,-26.64254,49.33167,3.49504,9.2,-0.53,1.64,3.0
1758076641.14519,1758076641.13665,0.0,0.0,0.0,-25.49662,49.56085,2.06265,9.2,-0.53,1.64,3.0
1758076641.1461,1758076641.14665,0.0,0.0,0.0,-24.17882,48.01387,0.57296,8.84,-0.65,1.63,3.0
1758076641.16289,1758076641.15665,0.0,0.0,0.0,-22.57454,47.15443,-0.22918,8.84,-0.65,1.63,3.0
1758076641.16492,1758076641.16665,0.0,0.0,0.0,-20.3973,48.30034,-2.63561,9.23,-0.78,1.45,3.0
1758076641.18059,1758076641.17665,0.0,0.0,0.0,-19.19409,47.89928,-3.83882,9.23,-0.78,1.45,3.0
1758076641.19743,1758076641.18665,0.0,0.0,0.0,-17.58981,47.09713,-5.09932,9.18,-0.89,1.51,3.0
1758076641.19941,1758076641.19665,0.0,0.0,0.0,-16.272,45.20637,-5.90147,9.18,-0.89,1.51,3.0
1758076641.21464,1758076641.20665,0.0,0.0,0.0,-14.61043,44.23235,-6.35983,9.09,-0.94,1.64,3.0
1758076641.21665,1758076641.21665,0.0,0.0,0.0,-13.5791,43.60209,-6.13065,9.16,-0.99,1.74,3.0
1758076641.23611,1758076641.22665,0.0,0.0,0.0,-12.60507,42.1124,-5.78687,9.16,-0.99,1.74,3.0
1758076641.23966,1758076641.23665,0.0,0.0,0.0,-10.94349,39.82057,-4.29718,9.03,-1.0,1.81,3.0
1758076641.25543,1758076641.24665,0.0,0.0,0.0,-9.91217,35.63798,-3.26586,9.03,-1.0,1.81,3.0
1758076641.25734,1758076641.25665,0.0,0.0,0.0,-8.59437,32.37212,-2.00535,8.95,-1.03,1.84,3.0
1758076641.27316,1758076641.26665,0.0,0.0,0.0,-7.44845,29.27814,-0.51566,8.95,-1.03,1.84,3.0
1758076641.27439,1758076641.27665,0.0,0.0,0.0,-5.95876,24.12152,1.3751,8.9,-0.95,1.73,3.0
1758076641.29035,1758076641.28665,0.0,0.0,0.0,-4.98473,20.51189,2.46372,8.79,-0.78,1.7,3.0
1758076641.30997,1758076641.29665,0.0,0.0,0.0,-4.23989,16.3293,3.32316,8.79,-0.78,1.7,3.0
1758076641.31307,1758076641.30665,0.0,0.0,0.0,-3.38045,12.37589,3.95341,8.59,-0.63,1.69,3.0
1758076641.37995,1758076641.31665,0.0,0.0,0.0,-1.71887,8.36518,4.46907,8.59,-0.63,1.69,3.0
1758076641.38487,1758076641.32665,0.0,0.0,0.0,-0.51566,7.21927,3.83882,8.66,-0.69,1.56,3.0
1758076641.3856,1758076641.33665,0.0,0.0,0.0,0.80214,9.28192,2.57831,8.66,-0.69,1.56,3.0
1758076641.38755,1758076641.34665,0.0,0.0,0.0,2.34913,14.9542,1.03132,9.36,-0.85,1.66,3.0
1758076641.38819,1758076641.35665,0.0,0.0,0.0,4.29718,19.99623,-1.20321,9.95,-1.12,2.27,3.0
1758076641.38956,1758076641.36665,0.0,0.0,0.0,5.90147,19.48057,-1.71887,9.95,-1.12,2.27,3.0
1758076641.39003,1758076641.37665,0.0,0.0,0.0,7.44845,19.70975,-0.97403,10.25,-1.43,2.94,3.0
1758076641.39089,1758076641.38665,0.0,0.0,0.0,8.99544,19.07949,0.68755,10.25,-1.43,2.94,3.0
1758076641.40848,1758076641.39665,0.0,0.0,0.0,11.51645,16.3293,5.32851,10.64,-1.73,3.14,3.0
1758076641.40967,1758076641.40665,0.0,0.0,0.0,13.98017,15.0115,9.5684,10.64,-1.73,3.14,3.0
1758076641.42474,1758076641.41665,0.0,0.0,0.0,16.38659,13.17803,13.80828,10.87,-1.92,3.08,3.0
1758076641.4257,1758076641.42665,0.0,0.0,0.0,18.33465,7.96411,17.58981,10.87,-1.92,3.08,3.0
1758076641.44072,1758076641.43665,0.0,0.0,0.0,23.72045,-26.24147,20.16812,10.42,-2.09,3.4,3.0
1758076641.45682,1758076641.44665,0.0,0.0,0.0,26.87172,-50.363,19.42327,9.06,-2.29,4.0,3.0
1758076641.45768,1758076641.45665,0.0,0.0,0.0,27.67386,-36.55471,20.16812,9.06,-2.29,4.0,3.0
1758076641.47255,1758076641.46665,0.0,0.0,0.0,23.37668,7.84952,22.00158,15.51,-1.72,4.09,3.0
1758076641.48877,1758076641.47665,0.0,0.0,0.0,22.34536,17.30333,20.85567,15.51,-1.72,4.09,3.0
1758076641.4897,1758076641.48665,0.0,0.0,0.0,18.10547,6.99009,15.12609,13.84,-0.4,5.5,3.0
1758076641.50457,1758076641.49665,0.0,0.0,0.0,17.01685,-5.84417,13.86558,13.84,-0.4,5.5,3.0
1758076641.50574,1758076641.50665,0.0,0.0,0.0,17.13144,-13.00614,13.46451,12.59,0.25,4.93,3.0
1758076641.52066,1758076641.51665,0.0,0.0,0.0,17.24603,-9.4538,11.28727,14.22,0.02,3.33,3.0
1758076641.53781,1758076641.52665,0.0,0.0,0.0,16.90226,0.0,5.21392,14.22,0.02,3.33,3.0
1758076641.53949,1758076641.53665,0.0,0.0,0.0,17.99088,4.87014,1.60428,13.64,-0.29,3.87,3.0
1758076641.55478,1758076641.54665,0.0,0.0,0.0,19.76705,9.62569,-3.60963,13.64,-0.29,3.87,3.0
1758076641.55578,1758076641.55665,0.0,0.0,0.0,20.3973,10.59972,-6.41713,12.33,-0.83,4.83,3.0
1758076641.57083,1758076641.56665,0.0,0.0,0.0,20.11082,12.43318,-8.59437,12.33,-0.83,4.83,3.0
1758076641.58659,1758076641.57665,0.0,0.0,0.0,19.70975,14.78231,-10.25595,10.74,-1.04,4.31,3.0
1758076641.58889,1758076641.58665,0.0,0.0,0.0,19.25138,17.01685,-11.51645,9.17,-0.92,3.68,3.0
1758076641.6036,1758076641.59665,0.0,0.0,0.0,19.70975,16.61578,-10.94349,9.17,-0.92,3.68,3.0
1758076641.60481,1758076641.60665,0.0,0.0,0.0,20.68378,13.46451,-10.8289,7.53,-0.7,3.68,3.0
1758076641.62089,1758076641.61665,0.0,0.0,0.0,22.34536,7.16197,-7.96411,7.53,-0.7,3.68,3.0
1758076641.63664,1758076641.62665,0.0,0.0,0.0,23.60586,-4.69825,-5.27121,6.23,-0.57,3.84,3.0
1758076641.63793,1758076641.63665,0.0,0.0,0.0,24.92367,-14.66772,-3.60963,6.23,-0.57,3.84,3.0
1758076641.6529,1758076641.64665,0.0,0.0,0.0,25.61122,-24.17882,-2.00535,5.81,-0.34,3.86,3.0
1758076641.65538,1758076641.65665,0.0,0.0,0.0,26.01229,-30.59595,0.11459,5.81,-0.34,3.86,3.0
1758076641.67161,1758076641.66665,0.0,0.0,0.0,26.06958,-38.61736,0.85944,6.33,-0.04,3.91,3.0
1758076641.68866,1758076641.67665,0.0,0.0,0.0,26.01229,-42.91454,1.71887,6.82,0.3,4.06,3.0
1758076641.69005,1758076641.68665,0.0,0.0,0.0,25.72581,-47.38361,2.34913,6.82,0.3,4.06,3.0
1758076641.70489,1758076641.69665,0.0,0.0,0.0,25.7831,-51.45161,3.09397,7.26,0.44,4.08,3.0
1758076641.70592,1758076641.70665,0.0,0.0,0.0,26.12688,-51.85268,3.95341,7.26,0.44,4.08,3.0
1758076641.72095,1758076641.71665,0.0,0.0,0.0,26.81443,-50.363,4.92744,7.9,0.32,3.68,3.0
1758076641.73924,1758076641.72665,0.0,0.0,0.0,28.01764,-47.26902,5.90147,7.9,0.32,3.68,3.0
1758076641.74049,1758076641.73665,0.0,0.0,0.0,29.9084,-41.42485,7.21927,8.46,0.1,3.33,3.0
1758076641.75571,1758076641.74665,0.0,0.0,0.0,31.39809,-36.6693,7.39116,8.68,0.02,3.17,3.0
1758076641.75692,1758076641.75665,0.0,0.0,0.0,32.54401,-30.88243,7.10468,8.68,0.02,3.17,3.0
1758076641.77194,1758076641.76665,0.0,0.0,0.0,33.23156,-25.21014,6.8182,8.79,0.14,2.96,3.0
1758076641.78897,1758076641.77665,0.0,0.0,0.0,33.46074,-17.13144,5.55769,8.79,0.14,2.96,3.0
1758076641.78987,1758076641.78665,0.0,0.0,0.0,32.88778,-10.31324,4.29718,8.67,0.34,2.69,3.0
1758076641.805,1758076641.79665,0.0,0.0,0.0,31.91375,-2.34913,2.97938,8.67,0.34,2.69,3.0
1758076641.80639,1758076641.80665,0.0,0.0,0.0,30.59595,5.61499,1.3178,9.02,0.58,2.63,3.0
1758076641.82171,1758076641.81665,0.0,0.0,0.0,28.36141,15.46986,-1.08862,8.93,0.78,2.59,3.0
1758076641.83792,1758076641.82665,0.0,0.0,0.0,26.98631,20.16812,-2.23454,8.93,0.78,2.59,3.0
1758076641.8393,1758076641.83665,0.0,0.0,0.0,25.72581,24.86637,-3.09397,8.91,0.89,2.54,3.0
1758076641.85492,1758076641.84665,0.0,0.0,0.0,24.92367,30.02299,-3.72423,8.91,0.89,2.54,3.0
1758076641.85606,1758076641.85665,0.0,0.0,0.0,24.23611,35.63798,-3.49504,9.1,0.9,2.56,3.0
1758076641.87109,1758076641.86665,0.0,0.0,0.0,24.23611,38.44547,-2.7502,9.1,0.9,2.56,3.0
1758076641.88788,1758076641.87665,0.0,0.0,0.0,24.17882,41.13837,-2.06265,9.14,0.84,2.69,3.0
1758076641.89043,1758076641.88665,0.0,0.0,0.0,23.83505,45.09178,-1.14592,9.14,0.84,2.69,3.0
1758076641.90688,1758076641.89665,0.0,0.0,0.0,23.0902,46.46688,-0.40107,9.19,0.73,2.63,3.0
1758076641.91025,1758076641.90665,0.0,0.0,0.0,22.74642,43.83128,-0.22918,8.79,0.67,2.63,3.0
1758076641.92688,1758076641.91665,0.0,0.0,0.0,22.34536,39.4195,-0.17189,8.79,0.67,2.63,3.0
1758076641.9302,1758076641.92665,0.0,0.0,0.0,20.97026,34.09099,-1.48969,8.49,0.69,2.78,3.0
1758076641.94691,1758076641.93665,0.0,0.0,0.0,19.76705,32.20023,-2.86479,8.49,0.69,2.78,3.0
1758076641.95102,1758076641.94665,0.0,0.0,0.0,18.56383,30.76784,-4.23989,8.62,0.74,2.69,3.0
1758076641.9669,1758076641.95665,0.0,0.0,0.0,17.18874,28.70519,-5.61499,8.62,0.74,2.69,3.0
1758076641.97055,1758076641.96665,0.0,0.0,0.0,15.41257,24.5226,-7.67763,8.26,0.86,2.85,3.0
1758076641.98589,1758076641.97665,0.0,0.0,0.0,14.09476,21.7151,-8.136,8.15,0.91,2.92,3.0
1758076641.98739,1758076641.98665,0.0,0.0,0.0,13.12073,19.25138,-8.36518,8.15,0.91,2.92,3.0
1758076642.00297,1758076641.99665,0.0,0.0,0.0,12.2613,17.18874,-8.0787,8.38,0.79,2.91,3.0
1758076642.01926,1758076642.00665,0.0,0.0,0.0,11.86023,13.86558,-6.99009,8.38,0.79,2.91,3.0
1758076642.01963,1758076642.01665,0.0,0.0,0.0,11.80293,11.22997,-5.84417,8.71,0.56,2.97,3.0
1758076642.03501,1758076642.02665,0.0,0.0,0.0,11.74564,9.11003,-4.64096,8.71,0.56,2.97,3.0
1758076642.03695,1758076642.03665,0.0,0.0,0.0,11.91752,7.39116,-3.55234,8.98,0.35,3.03,3.0
1758076642.05296,1758076642.04665,0.0,0.0,0.0,12.37589,4.52637,-2.23454,9.03,0.25,2.94,3.0
1758076642.07,1758076642.05665,0.0,0.0,0.0,12.54778,2.6929,-1.66158,9.03,0.25,2.94,3.0
1758076642.07044,1758076642.06665,0.0,0.0,0.0,12.60507,0.45837,-1.08862,8.9,0.27,2.83,3.0
1758076642.08723,1758076642.07665,0.0,0.0,0.0,12.49048,-1.3178,-0.74485,8.9,0.27,2.83,3.0
1758076642.08845,1758076642.08665,0.0,0.0,0.0,11.80293,-3.89611,-0.80214,8.8,0.41,2.63,3.0
1758076642.10325,1758076642.09665,0.0,0.0,0.0,10.59972,-5.27121,-0.40107,8.8,0.41,2.63,3.0
1758076642.10495,1758076642.10665,0.0,0.0,0.0,8.93814,-6.18794,0.17189,8.81,0.64,2.42,3.0
1758076642.1201,1758076642.11665,0.0,0.0,0.0,5.27121,-4.0107,1.77617,8.81,0.64,2.42,3.0
1758076642.13707,1758076642.12665,0.0,0.0,0.0,2.34913,0.68755,2.06265,9.11,0.96,2.31,3.0
1758076642.13797,1758076642.13665,0.0,0.0,0.0,-0.45837,3.03668,1.08862,9.59,1.33,2.51,3.0
1758076642.15531,1758076642.14665,0.0,0.0,0.0,-3.09397,0.74485,0.40107,9.59,1.33,2.51,3.0
1758076642.15698,1758076642.15665,0.0,0.0,0.0,-8.02141,-4.52637,-4.0107,9.34,1.59,2.46,3.0
1758076642.17466,1758076642.16665,0.0,0.0,0.0,-10.8289,-6.18794,-7.73493,9.34,1.59,2.46,3.0
1758076642.18197,1758076642.17665,0.0,0.0,0.0,-13.06344,-7.50575,-10.48513,9.95,1.73,2.47,3.0
1758076642.18531,1758076642.18665,0.0,0.0,0.0,-15.24068,-7.16197,-14.09476,9.95,1.73,2.47,3.0
1758076642.20529,1758076642.19665,0.0,0.0,0.0,-18.85031,-5.15662,-17.93358,10.41,1.69,2.21,3.0
1758076642.20742,1758076642.20665,0.0,0.0,0.0,-21.6578,-3.03668,-20.11082,10.78,1.72,2.51,3.0
1758076642.22334,1758076642.21665,0.0,0.0,0.0,-24.4653,-2.92208,-21.42862,10.78,1.72,2.51,3.0
1758076642.22508,1758076642.22665,0.0,0.0,0.0,-27.04361,-5.21392,-21.48592,10.66,1.77,2.51,3.0
1758076642.24031,1758076642.23665,0.0,0.0,0.0,-30.93972,-13.46451,-17.53251,10.66,1.77,2.51,3.0
1758076642.25606,1758076642.24665,0.0,0.0,0.0,-35.40879,-24.12152,-13.34992,10.22,2.01,2.94,3.0
1758076642.25803,1758076642.25665,0.0,0.0,0.0,-36.49741,-59.81679,-10.8289,10.22,2.01,2.94,3.0
1758076642.28008,1758076642.26665,0.0,0.0,0.0,-33.68992,-84.91235,-6.7609,8.6,2.04,4.07,3.0
1758076642.28425,1758076642.27665,0.0,0.0,0.0,-31.28349,-23.83505,-11.63104,18.0,1.9,5.3,3.0
1758076642.28479,1758076642.28665,0.0,0.0,0.0,-29.96569,11.00079,-18.44924,18.0,1.9,5.3,3.0
1758076642.30539,1758076642.29665,0.0,0.0,0.0,-28.30412,14.43854,-22.51724,15.98,0.69,5.14,3.0
1758076642.31073,1758076642.30665,0.0,0.0,0.0,-26.24147,14.72501,-20.3973,15.98,0.69,5.14,3.0
1758076642.32543,1758076642.31665,0.0,0.0,0.0,-26.64254,15.0115,-16.38659,14.2,0.33,5.12,3.0
1758076642.33145,1758076642.32665,0.0,0.0,0.0,-28.70519,18.33465,-11.97482,14.2,0.33,5.12,3.0
1758076642.34652,1758076642.33665,0.0,0.0,0.0,-30.76784,27.2155,-6.18794,13.63,0.58,3.02,3.0
1758076642.35086,1758076642.34665,0.0,0.0,0.0,-34.37747,30.76784,1.83346,13.63,0.58,4.16,3.0
1758076642.36731,1758076642.35665,0.0,0.0,0.0,-36.32552,27.84575,5.78687,12.16,0.89,4.16,3.0
1758076642.36812,1758076642.36665,0.0,0.0,0.0,-36.89849,24.5226,8.25059,10.46,0.96,4.26,3.0
1758076642.38337,1758076642.37665,0.0,0.0,0.0,-36.21093,21.25674,8.99544,10.46,0.96,4.26,3.0
1758076642.38596,1758076642.38665,0.0,0.0,0.0,-33.74722,15.87093,7.16197,9.61,0.85,3.83,3.0
1758076642.40418,1758076642.39665,0.0,0.0,0.0,-31.79916,11.22997,4.29718,9.61,0.85,3.83,3.0
1758076642.4054,1758076642.40665,0.0,0.0,0.0,-30.59595,6.18794,0.68755,8.4,0.55,3.49,3.0
1758076642.4204,1758076642.41665,0.0,0.0,0.0,-30.13758,0.34377,-3.55234,8.4,0.55,3.49,3.0
1758076642.43726,1758076642.42665,0.0,0.0,0.0,-30.30947,-9.74028,-9.28192,6.9,0.33,3.0,3.0
1758076642.43851,1758076642.43665,0.0,0.0,0.0,-30.59595,-18.56383,-12.204,5.87,0.12,2.95,3.0
1758076642.45349,1758076642.44665,0.0,0.0,0.0,-31.2262,-25.89769,-14.43854,5.87,0.12,2.95,3.0
1758076642.45467,1758076642.45665,0.0,0.0,0.0,-31.91375,-32.37212,-15.58445,5.88,-0.27,3.2,3.0
1758076642.46948,1758076642.46665,0.0,0.0,0.0,-32.48671,-41.02378,-15.46986,5.88,-0.27,3.2,3.0
1758076642.48555,1758076642.47664,0.0,0.0,0.0,-31.91375,-49.04519,-14.15206,6.21,-0.73,3.98,3.0
1758076642.48999,1758076642.48664,0.0,0.0,0.0,-31.16891,-57.86874,-12.2613,6.21,-0.73,3.98,3.0
1758076642.50557,1758076642.49664,0.0,0.0,0.0,-29.22085,-65.83286,-8.42248,6.37,-0.95,4.24,3.0
1758076642.50969,1758076642.50664,0.0,0.0,0.0,-28.30412,-74.94289,-5.95876,7.04,-0.95,4.03,3.0
1758076642.52527,1758076642.51664,0.0,0.0,0.0,-27.44468,-77.86497,-3.60963,7.04,-0.95,4.03,3.0
1758076642.52642,1758076642.52664,0.0,0.0,0.0,-27.67386,-79.12547,-2.11994,8.09,-0.75,3.76,3.0
1758076642.54208,1758076642.53664,0.0,0.0,0.0,-30.13758,-77.52119,-1.3751,8.09,-0.75,3.76,3.0
1758076642.54522,1758076642.54664,0.0,0.0,0.0,-32.83048,-75.28666,-1.83346,9.04,-0.44,3.69,3.0
1758076642.56059,1758076642.55664,0.0,0.0,0.0,-36.21093,-71.67702,-2.57831,9.04,-0.44,3.69,3.0
1758076642.57708,1758076642.56664,0.0,0.0,0.0,-39.70598,-67.09336,-2.97938,9.58,-0.07,3.29,3.0
1758076642.57992,1758076642.57664,0.0,0.0,0.0,-44.00316,-58.67088,-3.32316,9.64,-0.07,2.73,3.0
1758076642.59636,1758076642.58664,0.0,0.0,0.0,-45.72203,-51.73809,-3.38045,9.64,0.19,2.73,3.0
1758076642.59846,1758076642.59664,0.0,0.0,0.0,-46.46688,-44.748,-3.03668,9.45,0.17,2.07,3.0
1758076642.61331,1758076642.60664,0.0,0.0,0.0,-46.1804,-36.89849,-2.29183,9.45,0.17,2.07,3.0
1758076642.61481,1758076642.61664,0.0,0.0,0.0,-44.17505,-23.72045,-1.3751,9.33,-0.17,1.69,3.0
1758076642.63015,1758076642.62664,0.0,0.0,0.0,-42.28429,-15.35527,-0.97403,9.33,-0.17,1.69,3.0
1758076642.64634,1758076642.63664,0.0,0.0,0.0,-39.99245,-7.44845,-0.80214,9.26,-0.68,1.66,3.0
1758076642.64754,1758076642.64664,0.0,0.0,0.0,-37.47144,-0.34377,-0.97403,9.26,-0.68,1.66,3.0
1758076642.66263,1758076642.65664,0.0,0.0,0.0,-33.80451,9.4538,-1.66158,9.29,-1.03,1.65,3.0
1758076642.66785,1758076642.66664,0.0,0.0,0.0,-31.56997,15.24068,-2.40642,9.35,-1.05,1.63,3.0
1758076642.68564,1758076642.67664,0.0,0.0,0.0,-29.96569,20.68378,-3.32316,9.35,-1.05,1.63,3.0
1758076642.68743,1758076642.68664,0.0,0.0,0.0,-29.04896,25.55392,-4.29718,9.4,-0.81,1.69,3.0
1758076642.70263,1758076642.69664,0.0,0.0,0.0,-28.64789,32.71589,-5.21392,9.4,-0.81,1.69,3.0
1758076642.70547,1758076642.70664,0.0,0.0,0.0,-29.10626,37.29956,-6.13065,9.35,-0.53,1.76,3.0
1758076642.72546,1758076642.71664,0.0,0.0,0.0,-29.73651,41.59674,-6.47442,9.35,-0.53,1.76,3.0
1758076642.73088,1758076642.72664,0.0,0.0,0.0,-30.88243,46.46688,-7.62034,9.18,-0.25,1.84,3.0
