timeStamp,timeStampAlign,roll,pitch,yaw,gyro_x,gyro_y,gyro_z,acc_x,acc_y,acc_z,flag_num
1758079510.65424,1758079510.59705,0.0,0.0,0.0,28.01764,23.54857,9.39651,12.29,0.43,0.78,3.0
1758079510.66989,1758079510.60705,0.0,0.0,0.0,22.68913,31.45539,6.47442,11.3,0.92,0.62,3.0
1758079510.67108,1758079510.61705,0.0,0.0,0.0,16.95955,37.01308,1.83346,10.5,1.69,0.61,3.0
1758079510.68614,1758079510.62705,0.0,0.0,0.0,11.51645,39.53409,-2.86479,10.5,1.69,0.61,3.0
1758079510.70216,1758079510.63705,0.0,0.0,0.0,4.52637,39.4195,-9.4538,9.89,2.44,0.88,3.0
1758079510.7035,1758079510.64705,0.0,0.0,0.0,0.51566,39.07573,-13.17803,9.89,2.44,0.88,3.0
1758079510.71817,1758079510.65705,0.0,0.0,0.0,-2.46372,39.13302,-16.38659,9.72,2.71,0.97,3.0
1758079510.71908,1758079510.66705,0.0,0.0,0.0,-4.52637,40.27893,-17.93358,9.72,2.71,0.97,3.0
1758079510.73417,1758079510.67705,0.0,0.0,0.0,-7.16197,42.05511,-18.90761,9.69,2.41,0.9,3.0
1758079510.75015,1758079510.68705,0.0,0.0,0.0,-7.73493,41.25296,-18.10547,9.57,1.74,0.98,3.0
1758079510.75189,1758079510.69705,0.0,0.0,0.0,-7.84952,39.19032,-16.84496,9.57,1.74,0.98,3.0
1758079510.76693,1758079510.70705,0.0,0.0,0.0,-7.84952,35.75257,-15.24068,9.38,1.03,1.14,3.0
1758079510.76809,1758079510.71705,0.0,0.0,0.0,-7.73493,29.96569,-13.12073,9.38,1.03,1.14,3.0
1758079510.78416,1758079510.72705,0.0,0.0,0.0,-8.02141,27.04361,-12.54778,9.4,0.49,1.11,3.0
1758079510.8466,1758079510.73705,0.0,0.0,0.0,-8.70896,24.4653,-12.89155,9.4,0.49,1.11,3.0
1758079510.84894,1758079510.74705,0.0,0.0,0.0,-10.02676,21.7151,-14.15206,9.38,0.37,1.16,3.0
1758079510.85273,1758079510.75705,0.0,0.0,0.0,-11.91752,16.67307,-16.84496,9.11,0.67,1.24,3.0
1758079510.85453,1758079510.76705,0.0,0.0,0.0,-13.12073,13.80828,-18.85031,9.11,0.67,1.24,3.0
1758079510.85589,1758079510.77705,0.0,0.0,0.0,-14.38124,11.74564,-20.51189,9.18,1.11,1.27,3.0
1758079510.85895,1758079510.78705,0.0,0.0,0.0,-15.24068,7.84952,-21.7151,9.18,1.11,1.27,3.0
1758079510.85935,1758079510.79705,0.0,0.0,0.0,-15.06879,4.64096,-21.88699,9.14,1.45,1.14,3.0
1758079510.86094,1758079510.80705,0.0,0.0,0.0,-14.66772,1.83346,-21.25674,9.14,1.45,1.14,3.0
1758079510.87716,1758079510.81705,0.0,0.0,0.0,-13.98017,-0.0573,-19.99623,9.07,1.57,1.09,3.0
1758079510.87894,1758079510.82705,0.0,0.0,0.0,-13.00614,0.0,-17.01685,9.07,1.57,0.96,3.0
1758079510.89894,1758079510.83705,0.0,0.0,0.0,-12.2613,0.45837,-14.83961,9.23,1.42,0.96,3.0
1758079510.90125,1758079510.84705,0.0,0.0,0.0,-11.91752,1.60428,-12.54778,9.2,1.15,0.84,3.0
1758079510.91709,1758079510.85705,0.0,0.0,0.0,-11.91752,2.11994,-10.8289,9.2,1.15,0.84,3.0
1758079510.91879,1758079510.86705,0.0,0.0,0.0,-11.86023,1.43239,-8.36518,9.08,0.76,0.72,3.0
1758079510.93497,1758079510.87705,0.0,0.0,0.0,-12.37589,-0.97403,-7.21927,9.08,0.76,0.72,3.0
1758079510.95095,1758079510.88705,0.0,0.0,0.0,-13.00614,-6.18794,-7.73493,9.0,0.69,0.57,3.0
1758079510.95294,1758079510.89705,0.0,0.0,0.0,-13.23533,-9.85487,-6.24524,9.0,0.69,0.57,3.0
1758079510.96823,1758079510.90705,0.0,0.0,0.0,-14.09476,16.55848,-10.37054,10.02,0.86,0.66,3.0
1758079510.96915,1758079510.91705,0.0,0.0,0.0,-15.12609,33.00237,-12.60507,11.95,1.29,0.7,3.0
1758079510.98423,1758079510.92705,0.0,0.0,0.0,-17.6471,34.49206,-16.73037,11.95,1.29,0.7,3.0
1758079511.00022,1758079510.93705,0.0,0.0,0.0,-19.36597,28.99167,-19.99623,9.72,1.73,1.91,3.0
1758079511.00226,1758079510.94705,0.0,0.0,0.0,-20.05352,18.33465,-21.88699,9.72,1.73,1.91,3.0
1758079511.01906,1758079510.95705,0.0,0.0,0.0,-20.51189,14.49583,-21.31403,9.39,1.86,0.61,3.0
1758079511.02074,1758079510.96705,0.0,0.0,0.0,-21.7151,13.12073,-19.42327,9.39,1.86,0.61,3.0
1758079511.03623,1758079510.97705,0.0,0.0,0.0,-23.89234,14.32395,-15.58445,9.33,1.62,-0.41,3.0
1758079511.03792,1758079510.98705,0.0,0.0,0.0,-24.98096,17.58981,-12.54778,9.4,1.53,0.51,3.0
1758079511.05421,1758079510.99705,0.0,0.0,0.0,-25.49662,18.90761,-9.28192,9.4,1.53,0.51,3.0
1758079511.07027,1758079511.00705,0.0,0.0,0.0,-25.61122,18.9649,-5.95876,9.65,1.49,0.84,3.0
1758079511.07117,1758079511.01705,0.0,0.0,0.0,-25.09555,17.24603,-2.57831,9.65,1.49,0.84,3.0
1758079511.08623,1758079511.02705,0.0,0.0,0.0,-24.5226,15.92823,-1.3751,10.08,1.31,0.88,3.0
1758079511.08796,1758079511.03705,0.0,0.0,0.0,-23.37668,15.12609,-1.3178,10.08,1.31,0.88,3.0
1758079511.10397,1758079511.04705,0.0,0.0,0.0,-22.23076,14.78231,-1.83346,10.49,1.11,0.74,3.0
1758079511.12182,1758079511.05705,0.0,0.0,0.0,-21.02755,14.32395,-3.95341,10.48,1.11,0.84,3.0
1758079511.1236,1758079511.06705,0.0,0.0,0.0,-20.45459,14.38124,-5.32851,10.48,1.1,0.84,3.0
1758079511.13926,1758079511.07705,0.0,0.0,0.0,-20.62648,14.38124,-6.58902,10.25,1.35,0.96,3.0
1758079511.14019,1758079511.08705,0.0,0.0,0.0,-21.14215,14.20935,-7.44845,10.25,1.35,0.96,3.0
1758079511.15496,1758079511.09705,0.0,0.0,0.0,-22.74642,15.35527,-8.02141,10.02,1.63,0.92,3.0
1758079511.17104,1758079511.10705,0.0,0.0,0.0,-24.23611,17.36062,-7.62034,10.02,1.63,0.92,3.0
1758079511.17221,1758079511.11705,0.0,0.0,0.0,-25.61122,19.19409,-6.7609,10.04,1.78,0.81,3.0
1758079511.18704,1758079511.12705,0.0,0.0,0.0,-26.81443,19.99623,-5.78687,10.04,1.78,0.81,3.0
1758079511.18874,1758079511.13705,0.0,0.0,0.0,-27.84575,18.22006,-4.64096,9.83,1.77,0.84,3.0
1758079511.20433,1758079511.14705,0.0,0.0,0.0,-27.96034,14.9542,-4.58366,9.68,1.79,1.07,3.0
1758079511.22111,1758079511.15705,0.0,0.0,0.0,-27.44468,12.14671,-5.27121,9.68,1.79,1.07,3.0
1758079511.22202,1758079511.16705,0.0,0.0,0.0,-26.41335,12.71966,-6.87549,10.19,1.8,1.38,3.0
1758079511.23698,1758079511.17705,0.0,0.0,0.0,-24.23611,16.55848,-7.84952,10.19,1.8,1.38,3.0
1758079511.23826,1758079511.18705,0.0,0.0,0.0,-22.86102,19.42327,-8.42248,10.65,1.71,1.53,3.0
1758079511.25413,1758079511.19705,0.0,0.0,0.0,-21.37133,22.51724,-8.25059,10.65,1.71,1.53,3.0
1758079511.27161,1758079511.20705,0.0,0.0,0.0,-20.68378,22.28806,-6.99009,10.71,1.6,1.56,3.0
1758079511.27363,1758079511.21705,0.0,0.0,0.0,-20.74107,21.88699,-5.90147,10.71,1.59,1.27,3.0
1758079511.28929,1758079511.22705,0.0,0.0,0.0,-21.31403,21.08485,-4.58366,10.71,1.59,1.27,3.0
1758079511.29025,1758079511.23705,0.0,0.0,0.0,-22.23076,20.05352,-3.20856,11.17,1.78,1.24,3.0
1758079511.30531,1758079511.24705,0.0,0.0,0.0,-24.12152,19.42327,-1.3751,11.17,1.78,1.24,3.0
1758079511.32285,1758079511.25705,0.0,0.0,0.0,-25.26744,19.59516,-0.57296,11.7,2.08,1.53,3.0
1758079511.32408,1758079511.26705,0.0,0.0,0.0,-25.8404,20.11082,0.0,11.7,2.08,1.53,3.0
1758079511.339,1758079511.27705,0.0,0.0,0.0,-25.89769,21.02755,0.34377,12.15,2.24,2.04,3.0
1758079511.34052,1758079511.28705,0.0,0.0,0.0,-25.21014,25.72581,0.0573,12.84,2.09,2.35,3.0
1758079511.355,1758079511.29705,0.0,0.0,0.0,-24.35071,30.02299,-0.11459,12.84,2.09,2.35,3.0
1758079511.371,1758079511.30705,0.0,0.0,0.0,-23.26209,34.66395,-0.85944,13.28,1.74,2.65,3.0
1758079511.37259,1758079511.31705,0.0,0.0,0.0,-22.00158,36.61201,-1.43239,13.28,1.74,2.65,3.0
1758079511.38701,1758079511.32705,0.0,0.0,0.0,-20.11082,34.0337,-1.83346,12.9,1.46,3.02,3.0
1758079511.38827,1758079511.33705,0.0,0.0,0.0,-19.25138,30.30947,-2.11994,12.9,1.46,3.02,3.0
1758079511.40437,1758079511.34705,0.0,0.0,0.0,-18.73572,25.8404,-2.34913,12.48,1.48,3.06,3.0
1758079511.42078,1758079511.35705,0.0,0.0,0.0,-18.79302,20.45459,-2.23454,12.48,1.48,3.06,3.0
1758079511.42205,1758079511.36705,0.0,0.0,0.0,-20.22541,11.51645,-1.94806,11.94,1.76,3.07,3.0
1758079511.43733,1758079511.37705,0.0,0.0,0.0,-22.05888,4.92744,-1.94806,11.09,2.1,3.32,3.0
1758079511.43904,1758079511.38705,0.0,0.0,0.0,-24.86637,-2.34913,-1.94806,11.09,2.1,3.32,3.0
1758079511.4572,1758079511.39705,0.0,0.0,0.0,-29.62192,-11.97482,-2.06265,9.88,2.11,3.51,3.0
1758079511.45885,1758079511.40705,0.0,0.0,0.0,-33.05967,-18.44924,-1.83346,9.88,2.11,3.51,3.0
1758079511.47905,1758079511.41705,0.0,0.0,0.0,-36.38282,-24.5226,-2.23454,8.69,1.89,3.61,3.0
1758079511.48064,1758079511.42705,0.0,0.0,0.0,-39.82057,-29.73651,-2.29183,8.69,1.89,3.61,3.0
1758079511.49507,1758079511.43705,0.0,0.0,0.0,-44.51882,-36.84119,-2.40642,7.82,1.72,3.69,3.0
1758079511.51107,1758079511.44705,0.0,0.0,0.0,-46.69606,-41.31026,-2.34913,7.41,1.59,3.59,3.0
1758079511.5123,1758079511.45705,0.0,0.0,0.0,-48.01387,-45.83662,-1.94806,7.41,1.59,3.59,3.0
1758079511.52711,1758079511.46705,0.0,0.0,0.0,-48.41494,-50.59217,-1.48969,7.37,1.2,3.29,3.0
1758079511.52832,1758079511.47705,0.0,0.0,0.0,-47.44091,-57.18119,-0.74485,7.37,1.2,3.29,3.0
1758079511.54416,1758079511.48705,0.0,0.0,0.0,-45.89392,-60.04598,-0.22918,7.5,0.59,3.0,3.0
1758079511.56123,1758079511.49705,0.0,0.0,0.0,-43.54479,-61.24919,0.34377,7.5,0.59,3.0,3.0
1758079511.56291,1758079511.50705,0.0,0.0,0.0,-41.02378,-61.07731,0.85944,7.96,0.0,2.74,3.0
1758079511.57811,1758079511.51705,0.0,0.0,0.0,-37.29956,-59.81679,2.11994,8.39,-0.31,2.79,3.0
1758079511.57932,1758079511.52705,0.0,0.0,0.0,-35.12231,-57.46767,3.26586,8.39,-0.31,2.79,3.0
1758079511.59435,1758079511.53705,0.0,0.0,0.0,-33.40344,-54.88936,4.64096,8.9,-0.33,2.73,3.0
1758079511.61093,1758079511.54705,0.0,0.0,0.0,-32.42941,-51.90998,6.13065,8.9,-0.33,2.73,3.0
1758079511.61327,1758079511.55705,0.0,0.0,0.0,-31.85646,-45.72203,8.65166,9.35,-0.14,2.71,3.0
1758079511.62815,1758079511.56705,0.0,0.0,0.0,-31.85646,-41.08107,10.37054,9.35,-0.14,2.71,3.0
1758079511.62937,1758079511.57705,0.0,0.0,0.0,-32.42941,-35.92446,11.97482,9.6,0.07,2.43,3.0
1758079511.64417,1758079511.58705,0.0,0.0,0.0,-33.23156,-29.96569,14.09476,9.6,0.07,2.43,3.0
1758079511.66098,1758079511.59705,0.0,0.0,0.0,-33.86181,-21.08485,15.0115,9.68,0.26,2.29,3.0
1758079511.66217,1758079511.60705,0.0,0.0,0.0,-34.37747,-15.0115,15.69904,9.63,0.37,2.23,3.0
1758079511.67741,1758079511.61705,0.0,0.0,0.0,-34.72124,-9.28192,15.98552,9.63,0.37,2.23,3.0
1758079511.67913,1758079511.62705,0.0,0.0,0.0,-34.72124,-0.68755,15.64175,9.63,0.41,2.08,3.0
1758079511.69514,1758079511.63705,0.0,0.0,0.0,-34.60666,4.64096,15.0115,9.63,0.41,2.08,3.0
1758079511.71197,1758079511.64705,0.0,0.0,0.0,-34.14828,9.4538,14.15206,9.54,0.42,1.92,3.0
1758079511.71422,1758079511.65705,0.0,0.0,0.0,-33.86181,13.17803,13.12073,9.54,0.42,1.92,3.0
1758079511.72912,1758079511.66705,0.0,0.0,0.0,-33.46074,17.76169,11.80293,9.39,0.45,1.94,3.0
1758079511.7304,1758079511.67705,0.0,0.0,0.0,-33.40344,20.34,11.00079,9.44,0.45,1.98,3.0
1758079511.74862,1758079511.68705,0.0,0.0,0.0,-33.51803,21.48592,10.31324,9.44,0.45,1.98,3.0
1758079511.74978,1758079511.69705,0.0,0.0,0.0,-33.9764,21.88699,9.91217,9.27,0.41,2.06,3.0
1758079511.76754,1758079511.70705,0.0,0.0,0.0,-35.3515,21.42862,9.4538,9.27,0.41,2.06,3.0
1758079511.76877,1758079511.71705,0.0,0.0,0.0,-36.32552,20.16812,9.39651,9.04,0.29,2.08,3.0
1758079511.78417,1758079511.72705,0.0,0.0,0.0,-37.52874,19.13679,8.76626,9.04,0.29,2.08,3.0
1758079511.80108,1758079511.73705,0.0,0.0,0.0,-38.61736,17.6471,8.136,8.89,0.12,2.11,3.0
1758079511.80217,1758079511.74705,0.0,0.0,0.0,-39.82057,15.58445,7.10468,8.79,-0.07,2.08,3.0
1758079511.81897,1758079511.75705,0.0,0.0,0.0,-40.04975,13.34992,6.07335,8.79,-0.07,2.08,3.0
1758079511.82237,1758079511.76705,0.0,0.0,0.0,-39.76327,10.19865,5.09932,8.62,-0.2,2.03,3.0
1758079511.83877,1758079511.77705,0.0,0.0,0.0,-39.13302,7.10468,3.38045,8.62,-0.2,2.03,3.0
1758079511.85275,1758079511.78705,0.0,0.0,0.0,-37.24226,3.60963,2.29183,8.6,-0.28,1.87,3.0
1758079511.85349,1758079511.79705,0.0,0.0,0.0,-35.2942,1.60428,1.60428,8.6,-0.28,1.87,3.0
1758079511.86945,1758079511.80705,0.0,0.0,0.0,-33.23156,-0.51566,1.3751,8.68,-0.32,1.85,3.0
1758079511.87114,1758079511.81705,0.0,0.0,0.0,-29.73651,-3.66693,1.94806,8.68,-0.32,1.85,3.0
1758079511.88622,1758079511.82705,0.0,0.0,0.0,-27.38738,-5.78687,3.49504,8.74,-0.45,1.86,3.0
1758079511.90251,1758079511.83705,0.0,0.0,0.0,-24.86637,-7.21927,6.13065,8.9,-0.73,1.86,3.0
1758079511.90365,1758079511.84705,0.0,0.0,0.0,-22.51724,-8.30789,9.22462,8.9,-0.73,1.86,3.0
1758079511.91852,1758079511.85705,0.0,0.0,0.0,-19.25138,-9.5684,14.32395,9.03,-1.05,1.72,3.0
1758079511.9197,1758079511.86705,0.0,0.0,0.0,-17.53251,-10.08406,17.76169,9.03,-1.05,1.72,3.0
1758079511.93421,1758079511.87705,0.0,0.0,0.0,-15.87093,-9.4538,20.51189,9.18,-1.13,1.64,3.0
1758079511.95024,1758079511.88705,0.0,0.0,0.0,-14.49583,-8.99544,22.40265,9.18,-1.13,1.64,3.0
1758079511.95139,1758079511.89705,0.0,0.0,0.0,-12.49048,-6.47442,23.49127,9.32,-0.99,1.56,3.0
1758079511.9718,1758079511.90705,0.0,0.0,0.0,-11.45916,-5.72958,23.31938,9.29,-0.78,1.52,3.0
1758079511.973,1758079511.91705,0.0,0.0,0.0,-11.17268,-5.61499,22.23076,9.29,-0.78,1.52,3.0
1758079511.99218,1758079511.92705,0.0,0.0,0.0,-11.17268,-6.41713,20.16812,9.05,-0.51,1.56,3.0
1758079511.99341,1758079511.93705,0.0,0.0,0.0,-11.80293,-9.11003,15.69904,9.05,-0.51,1.56,3.0
1758079512.00877,1758079511.94705,0.0,0.0,0.0,-11.63104,-9.85487,12.60507,8.8,-0.21,1.31,3.0
1758079512.00941,1758079511.95705,0.0,0.0,0.0,-12.43318,-8.136,8.25059,8.8,-0.21,1.31,3.0
1758079512.02451,1758079511.96705,0.0,0.0,0.0,-12.204,-0.22918,5.27121,9.12,-0.05,1.24,3.0
1758079512.04203,1758079511.97705,0.0,0.0,0.0,-11.86023,12.37589,0.68755,9.67,-0.06,1.55,3.0
1758079512.04683,1758079511.98705,0.0,0.0,0.0,-10.65701,24.17882,0.34377,9.67,-0.06,1.55,3.0
1758079512.0489,1758079511.99705,0.0,0.0,0.0,-10.08406,28.24682,-2.6929,9.73,-0.28,1.98,3.0
1758079512.06444,1758079512.00705,0.0,0.0,0.0,-6.87549,16.73037,-1.60428,9.73,-0.28,1.98,3.0
1758079512.09356,1758079512.01705,0.0,0.0,0.0,-6.41713,-2.57831,0.40107,8.16,-0.5,1.88,3.0
1758079512.09881,1758079512.02705,0.0,0.0,0.0,-5.09932,-9.4538,4.81285,8.16,-0.5,1.88,3.0
1758079512.09921,1758079512.03705,0.0,0.0,0.0,-4.69825,-4.1253,6.41713,10.09,-1.05,1.11,3.0
1758079512.10043,1758079512.04705,0.0,0.0,0.0,-2.00535,4.18259,10.48513,10.09,-1.05,1.11,3.0
1758079512.11552,1758079512.05705,0.0,0.0,0.0,-0.22918,8.76626,11.28727,10.54,-1.25,0.84,3.0
1758079512.11957,1758079512.06705,0.0,0.0,0.0,1.3178,14.9542,11.22997,10.09,-1.24,1.21,3.0
1758079512.13652,1758079512.07705,0.0,0.0,0.0,2.40642,19.53786,10.25595,10.09,-1.24,1.21,3.0
1758079512.15252,1758079512.08705,0.0,0.0,0.0,3.89611,19.99623,6.99009,9.8,-0.94,2.12,3.0
1758079512.15292,1758079512.09705,0.0,0.0,0.0,4.58366,18.73572,4.46907,9.8,-0.94,2.12,3.0
1758079512.16852,1758079512.10705,0.0,0.0,0.0,4.52637,18.10547,1.77617,9.52,-0.5,1.71,3.0
1758079512.16953,1758079512.11705,0.0,0.0,0.0,4.35448,16.61578,-0.22918,9.52,-0.5,1.71,3.0
1758079512.18454,1758079512.12705,0.0,0.0,0.0,3.38045,11.34457,-1.94806,9.69,-0.23,1.76,3.0
1758079512.20026,1758079512.13705,0.0,0.0,0.0,2.57831,8.30789,-2.34913,9.87,-0.16,1.67,3.0
1758079512.20146,1758079512.14705,0.0,0.0,0.0,1.60428,5.95876,-1.71887,9.87,-0.16,1.67,3.0
1758079512.21626,1758079512.15705,0.0,0.0,0.0,0.45837,4.52637,-0.34377,10.38,-0.27,1.81,3.0
1758079512.2325,1758079512.16705,0.0,0.0,0.0,-0.97403,2.63561,2.29183,10.38,-0.27,1.81,3.0
1758079512.2329,1758079512.17705,0.0,0.0,0.0,-1.3751,2.11994,4.23989,10.48,-0.43,1.75,3.0
1758079512.26989,1758079512.18705,0.0,0.0,0.0,-1.66158,3.49504,5.72958,10.48,-0.43,1.75,3.0
1758079512.27482,1758079512.19705,0.0,0.0,0.0,-2.23454,6.35983,6.58902,10.59,-0.62,1.62,3.0
1758079512.27538,1758079512.20705,0.0,0.0,0.0,-2.11994,10.94349,6.58902,10.51,-0.73,1.37,3.0
1758079512.27817,1758079512.21705,0.0,0.0,0.0,-2.11994,14.43854,6.18794,10.51,-0.73,1.37,3.0
1758079512.2788,1758079512.22705,0.0,0.0,0.0,-2.23454,17.18874,5.50039,10.4,-0.76,1.64,3.0
1758079512.29821,1758079512.23705,0.0,0.0,0.0,-1.83346,17.13144,3.95341,10.4,-0.76,1.64,3.0
1758079512.29952,1758079512.24705,0.0,0.0,0.0,-1.71887,15.29797,2.6929,9.99,-0.76,1.87,3.0
1758079512.31426,1758079512.25705,0.0,0.0,0.0,-1.77617,13.40721,1.77617,9.99,-0.76,1.87,3.0
1758079512.3311,1758079512.26705,0.0,0.0,0.0,-2.00535,11.80293,1.3178,10.05,-0.83,1.93,3.0
1758079512.33229,1758079512.27705,0.0,0.0,0.0,-2.46372,9.62569,0.85944,10.26,-0.83,2.03,3.0
1758079512.34728,1758079512.28705,0.0,0.0,0.0,-2.6929,8.65166,1.20321,10.26,-0.93,2.03,3.0
1758079512.34849,1758079512.29705,0.0,0.0,0.0,-2.63561,8.76626,1.60428,10.52,-0.97,2.05,3.0
1758079512.36459,1758079512.30705,0.0,0.0,0.0,-2.7502,9.68299,1.94806,10.52,-0.97,2.05,3.0
1758079512.36877,1758079512.31705,0.0,0.0,0.0,-2.11994,13.00614,1.77617,10.81,-1.0,1.87,3.0
1758079512.40694,1758079512.32705,0.0,0.0,0.0,-1.43239,16.90226,1.3751,10.81,-1.0,1.87,3.0
1758079512.40819,1758079512.33705,0.0,0.0,0.0,-0.74485,21.7151,0.22918,11.17,-0.95,1.23,3.0
1758079512.40885,1758079512.34705,0.0,0.0,0.0,0.0573,26.75713,-0.85944,11.17,-0.95,1.23,3.0
1758079512.41088,1758079512.35705,0.0,0.0,0.0,0.74485,34.14828,-2.97938,11.5,-0.75,1.08,3.0
1758079512.42792,1758079512.36705,0.0,0.0,0.0,0.80214,39.4768,-4.35448,11.82,-0.48,1.35,3.0
1758079512.42912,1758079512.37705,0.0,0.0,0.0,0.85944,46.06581,-6.13065,11.82,-0.48,1.35,3.0
1758079512.44427,1758079512.38705,0.0,0.0,0.0,-0.40107,48.58683,-9.28192,11.73,-0.33,1.68,3.0
1758079512.46216,1758079512.39705,0.0,0.0,0.0,0.34377,28.01764,-9.68299,11.73,-0.33,1.68,3.0
1758079512.4651,1758079512.40705,0.0,0.0,0.0,2.40642,24.86637,-5.21392,10.62,-0.54,2.07,3.0
1758079512.4842,1758079512.41705,0.0,0.0,0.0,3.20856,34.89313,-4.29718,10.62,-0.54,2.07,3.0
1758079512.4846,1758079512.42705,0.0,0.0,0.0,3.09397,33.80451,-4.35448,13.48,-0.92,2.8,3.0
1758079512.50232,1758079512.43705,0.0,0.0,0.0,3.66693,26.18417,-2.92208,12.32,-0.97,3.48,3.0
1758079512.50281,1758079512.44705,0.0,0.0,0.0,4.1253,23.20479,-1.20321,12.32,-0.97,3.48,3.0
1758079512.51859,1758079512.45705,0.0,0.0,0.0,4.58366,25.49662,-0.57296,13.73,-0.99,4.06,3.0
1758079512.51978,1758079512.46705,0.0,0.0,0.0,6.07335,24.5226,-2.29183,13.73,-0.99,4.06,3.0
1758079512.53461,1758079512.47705,0.0,0.0,0.0,8.65166,18.33465,-3.60963,12.27,-1.03,2.98,3.0
1758079512.55138,1758079512.48705,0.0,0.0,0.0,11.80293,11.91752,-5.09932,12.27,-1.03,2.98,3.0
1758079512.5531,1758079512.49705,0.0,0.0,0.0,15.35527,5.61499,-6.47442,10.22,-1.1,3.94,3.0
1758079512.56862,1758079512.50705,0.0,0.0,0.0,20.68378,-4.87014,-7.96411,8.96,-0.99,3.89,3.0
1758079512.5698,1758079512.51705,0.0,0.0,0.0,23.60586,-12.08941,-8.02141,8.96,-0.99,3.89,3.0
1758079512.58465,1758079512.52705,0.0,0.0,0.0,26.12688,-18.56383,-6.99009,8.26,-0.88,4.0,3.0
1758079512.60065,1758079512.53705,0.0,0.0,0.0,28.01764,-24.00693,-5.4431,8.26,-0.88,4.0,3.0
1758079512.60237,1758079512.54705,0.0,0.0,0.0,30.02299,-30.93972,-2.34913,7.96,-0.75,3.93,3.0
1758079512.61814,1758079512.55705,0.0,0.0,0.0,30.82513,-34.49206,-0.22918,7.96,-0.75,3.93,3.0
1758079512.61936,1758079512.56705,0.0,0.0,0.0,31.16891,-37.81522,1.3178,7.78,-0.55,3.93,3.0
1758079512.63461,1758079512.57705,0.0,0.0,0.0,31.39809,-42.62806,2.46372,7.78,-0.55,3.93,3.0
1758079512.65115,1758079512.58705,0.0,0.0,0.0,31.16891,-51.73809,3.49504,7.33,-0.31,3.75,3.0
1758079512.65256,1758079512.59705,0.0,0.0,0.0,30.65324,-56.14987,3.49504,7.16,-0.03,3.49,3.0
1758079512.66768,1758079512.60705,0.0,0.0,0.0,30.19488,-59.01466,3.03668,7.16,-0.03,3.49,3.0
1758079512.66884,1758079512.61705,0.0,0.0,0.0,30.19488,-61.02001,2.29183,7.59,0.14,3.36,3.0
1758079512.68337,1758079512.62705,0.0,0.0,0.0,30.36677,-61.59297,1.83346,7.59,0.14,3.36,3.0
1758079512.69966,1758079512.63705,0.0,0.0,0.0,31.2262,-59.53032,1.14592,8.34,0.16,3.34,3.0
1758079512.70144,1758079512.64705,0.0,0.0,0.0,32.83048,-56.89471,0.74485,8.34,0.16,3.34,3.0
1758079512.71667,1758079512.65705,0.0,0.0,0.0,35.92446,-52.25375,-0.0573,8.99,0.11,3.19,3.0
1758079512.71919,1758079512.66705,0.0,0.0,0.0,37.98711,-47.61279,-1.03132,9.32,0.06,2.86,3.0
1758079512.73438,1758079512.67705,0.0,0.0,0.0,40.33623,-42.34158,-1.48969,9.32,0.06,2.86,3.0
1758079512.73633,1758079512.68705,0.0,0.0,0.0,42.57077,-36.26823,-2.34913,9.51,0.09,2.61,3.0
1758079512.7698,1758079512.69705,0.0,0.0,0.0,45.03448,-25.89769,-3.38045,9.51,0.09,2.61,3.0
1758079512.77197,1758079512.70705,0.0,0.0,0.0,45.77933,-17.87628,-4.35448,9.59,0.31,2.4,3.0
1758079512.77298,1758079512.71705,0.0,0.0,0.0,46.2377,-9.62569,-5.27121,9.59,0.31,2.4,3.0
1758079512.78943,1758079512.72705,0.0,0.0,0.0,46.1804,-1.43239,-6.13065,9.56,0.7,2.23,3.0
1758079512.79137,1758079512.73705,0.0,0.0,0.0,45.14908,9.22462,-7.50575,9.4,1.05,2.31,3.0
1758079512.80633,1758079512.74705,0.0,0.0,0.0,43.88857,14.66772,-8.30789,9.4,1.05,2.31,3.0
1758079512.80752,1758079512.75705,0.0,0.0,0.0,42.22699,18.85031,-9.22462,9.3,1.28,2.32,3.0
1758079512.82302,1758079512.76705,0.0,0.0,0.0,40.62271,22.86102,-10.02676,9.3,1.28,2.32,3.0
1758079512.83841,1758079512.77705,0.0,0.0,0.0,37.75792,28.64789,-11.17268,9.46,1.43,2.34,3.0
1758079512.84046,1758079512.78705,0.0,0.0,0.0,36.03905,31.74186,-11.86023,9.46,1.43,2.34,3.0
1758079512.85647,1758079512.79705,0.0,0.0,0.0,34.72124,34.0337,-12.08941,9.24,1.38,2.35,3.0
1758079512.85813,1758079512.80705,0.0,0.0,0.0,33.46074,35.40879,-12.37589,9.24,1.38,2.35,3.0
1758079512.8747,1758079512.81705,0.0,0.0,0.0,31.97105,35.12231,-11.91752,8.9,1.25,2.45,3.0
1758079512.89065,1758079512.82705,0.0,0.0,0.0,31.2262,35.40879,-11.74564,8.75,1.12,2.49,3.0
1758079512.89189,1758079512.83705,0.0,0.0,0.0,30.36677,36.21093,-11.57375,8.75,1.12,2.49,3.0
1758079512.9068,1758079512.84705,0.0,0.0,0.0,29.22085,34.0337,-11.91752,8.7,1.08,2.47,3.0
1758079512.90765,1758079512.85705,0.0,0.0,0.0,28.476,30.53865,-11.97482,8.7,1.08,2.47,3.0
1758079512.9231,1758079512.86705,0.0,0.0,0.0,27.2155,27.50197,-12.49048,8.34,1.13,2.37,3.0
1758079512.93876,1758079512.87705,0.0,0.0,0.0,25.8404,25.21014,-12.83425,8.34,1.13,2.37,3.0
1758079512.93967,1758079512.88705,0.0,0.0,0.0,23.26209,22.74642,-13.40721,8.42,1.2,2.18,3.0
1758079512.95543,1758079512.89705,0.0,0.0,0.0,21.48592,20.22541,-13.75099,8.32,1.26,2.08,3.0
1758079512.95903,1758079512.90705,0.0,0.0,0.0,19.99623,16.21471,-13.69369,8.32,1.26,2.08,3.0
1758079512.97474,1758079512.91705,0.0,0.0,0.0,18.27736,12.204,-12.89155,8.22,1.22,2.08,3.0
1758079512.97831,1758079512.92705,0.0,0.0,0.0,16.10011,8.0787,-11.11538,8.22,1.22,2.08,3.0
1758079512.99372,1758079512.93705,0.0,0.0,0.0,14.78231,5.90147,-9.96947,8.6,1.1,2.11,3.0
1758079513.0095,1758079512.94705,0.0,0.0,0.0,13.34992,4.58366,-9.5684,8.6,1.1,2.11,3.0
1758079513.01418,1758079512.95705,0.0,0.0,0.0,11.80293,3.60963,-10.19865,8.99,1.03,2.24,3.0
1758079513.02968,1758079512.96705,0.0,0.0,0.0,9.39651,0.45837,-12.71966,9.03,1.16,2.29,3.0
1758079513.03142,1758079512.97705,0.0,0.0,0.0,8.136,-3.26586,-15.06879,9.03,1.16,2.29,3.0
1758079513.04745,1758079512.98705,0.0,0.0,0.0,6.58902,-6.13065,-17.81899,8.89,1.37,2.06,3.0
1758079513.04869,1758079512.99705,0.0,0.0,0.0,5.4431,-6.70361,-20.34,8.89,1.37,2.06,3.0
1758079513.06369,1758079513.00705,0.0,0.0,0.0,3.55234,-5.55769,-22.97561,9.13,1.52,1.76,3.0
1758079513.07979,1758079513.01705,0.0,0.0,0.0,2.40642,-4.69825,-24.12152,9.13,1.52,1.76,3.0
1758079513.08658,1758079513.02705,0.0,0.0,0.0,1.3178,-5.55769,-23.94964,8.95,1.57,1.62,3.0
1758079513.08876,1758079513.03705,0.0,0.0,0.0,-0.68755,-7.33386,-21.60051,8.95,1.57,1.62,3.0
1758079513.10476,1758079513.04705,0.0,0.0,0.0,-2.06265,-8.30789,-18.79302,8.61,1.43,1.41,3.0
1758079513.10891,1758079513.05705,0.0,0.0,0.0,-3.72423,-8.70896,-15.06879,8.79,1.31,1.22,3.0
1758079513.12477,1758079513.06705,0.0,0.0,0.0,-4.46907,-10.59972,-11.57375,8.79,1.31,1.22,3.0
1758079513.12888,1758079513.07705,0.0,0.0,0.0,-5.84417,-14.9542,-6.87549,8.59,1.16,1.42,3.0
1758079513.14453,1758079513.08705,0.0,0.0,0.0,-7.21927,-17.18874,-4.69825,8.59,1.16,1.42,3.0
1758079513.14898,1758079513.09705,0.0,0.0,0.0,-8.70896,-13.75099,-3.09397,9.19,1.17,1.46,3.0
1758079513.16468,1758079513.10705,0.0,0.0,0.0,-9.68299,-5.78687,0.45837,9.19,1.17,1.46,3.0
1758079513.168,1758079513.11705,0.0,0.0,0.0,-9.96947,17.13144,-3.60963,10.97,1.24,1.87,3.0
1758079513.18346,1758079513.12705,0.0,0.0,0.0,-11.00079,15.29797,-6.7609,10.11,1.57,2.42,3.0
1758079513.19977,1758079513.13705,0.0,0.0,0.0,-12.204,5.50039,-10.08406,10.11,1.57,2.42,3.0
1758079513.20475,1758079513.14705,0.0,0.0,0.0,-12.83425,-3.60963,-14.38124,9.22,1.91,2.37,3.0
1758079513.2195,1758079513.15705,0.0,0.0,0.0,-14.03747,-6.58902,-18.56383,9.22,1.91,2.37,3.0
1758079513.22382,1758079513.16705,0.0,0.0,0.0,-15.0115,-1.3178,-19.70975,10.1,1.88,0.84,3.0
1758079513.23977,1758079513.17705,0.0,0.0,0.0,-15.87093,4.52637,-18.85031,10.1,1.88,0.84,3.0
1758079513.24075,1758079513.18705,0.0,0.0,0.0,-16.21471,8.99544,-16.67307,9.68,1.69,0.89,3.0
1758079513.2555,1758079513.19705,0.0,0.0,0.0,-16.10011,13.12073,-11.11538,9.15,1.45,1.73,3.0
1758079513.25746,1758079513.20705,0.0,0.0,0.0,-14.72501,11.91752,-6.99009,9.15,1.45,1.73,3.0
1758079513.2728,1758079513.21705,0.0,0.0,0.0,-12.49048,5.21392,-3.32316,8.82,1.09,1.59,3.0
1758079513.28879,1758079513.22705,0.0,0.0,0.0,-8.42248,-4.69825,-1.60428,8.82,1.09,1.59,3.0
1758079513.28974,1758079513.23705,0.0,0.0,0.0,-5.72958,-8.42248,-2.63561,9.54,0.87,1.54,3.0
1758079513.30458,1758079513.24705,0.0,0.0,0.0,-2.40642,1.14592,-3.55234,9.54,0.87,1.54,3.0
1758079513.309,1758079513.25705,0.0,0.0,0.0,1.20321,12.2613,-3.32316,11.8,0.83,1.51,3.0
1758079513.32481,1758079513.26705,0.0,0.0,0.0,5.50039,21.6578,-1.77617,11.8,0.83,1.51,3.0
1758079513.32731,1758079513.27705,0.0,0.0,0.0,7.04738,23.54857,-0.57296,11.37,0.9,2.02,3.0
1758079513.34356,1758079513.28705,0.0,0.0,0.0,7.33386,24.00693,0.40107,11.09,1.26,2.27,3.0
1758079513.35986,1758079513.29705,0.0,0.0,0.0,6.70361,24.4653,1.20321,11.09,1.26,2.27,3.0
1758079513.36152,1758079513.30705,0.0,0.0,0.0,4.46907,27.2155,1.94806,11.67,1.8,2.27,3.0
1758079513.37689,1758079513.31705,0.0,0.0,0.0,2.40642,28.87707,2.23454,11.67,1.8,2.27,3.0
1758079513.37935,1758079513.32705,0.0,0.0,0.0,-0.11459,29.67921,2.06265,12.01,2.4,2.81,3.0
1758079513.39489,1758079513.33705,0.0,0.0,0.0,-2.40642,29.9084,1.71887,12.01,2.4,2.81,3.0
1758079513.41057,1758079513.34705,0.0,0.0,0.0,-5.27121,30.19488,0.57296,12.09,2.93,3.31,3.0
1758079513.41177,1758079513.35705,0.0,0.0,0.0,-6.41713,29.39274,-0.22918,12.34,3.34,3.82,3.0
1758079513.4266,1758079513.36705,0.0,0.0,0.0,-6.87549,28.36141,-1.03132,12.34,3.34,3.82,3.0
1758079513.42779,1758079513.37705,0.0,0.0,0.0,-7.39116,25.8404,-1.77617,12.82,3.45,4.22,3.0
1758079513.44288,1758079513.38705,0.0,0.0,0.0,-8.36518,20.34,-3.03668,12.82,3.45,4.22,3.0
1758079513.45946,1758079513.39705,0.0,0.0,0.0,-9.33921,16.38659,-3.60963,13.1,3.13,4.2,3.0
1758079513.46306,1758079513.40705,0.0,0.0,0.0,-10.65701,12.83425,-4.0107,13.1,3.13,4.2,3.0
1758079513.47844,1758079513.41705,0.0,0.0,0.0,-12.49048,9.05273,-3.89611,12.94,2.52,4.33,3.0
1758079513.47969,1758079513.42705,0.0,0.0,0.0,-16.04282,2.11994,-3.09397,11.95,2.14,4.38,3.0
1758079513.49467,1758079513.43705,0.0,0.0,0.0,-19.25138,-3.26586,-2.23454,11.95,2.14,4.38,3.0
1758079513.51067,1758079513.44705,0.0,0.0,0.0,-22.57454,-9.39651,-1.3751,10.64,2.09,4.11,3.0
1758079513.5125,1758079513.45705,0.0,0.0,0.0,-28.24682,-21.31403,0.0573,10.64,2.09,4.11,3.0
1758079513.52745,1758079513.46705,0.0,0.0,0.0,-32.37212,-30.13758,0.57296,8.95,2.02,3.85,3.0
1758079513.52869,1758079513.47705,0.0,0.0,0.0,-36.26823,-38.61736,1.08862,8.95,2.02,3.85,3.0
1758079513.54424,1758079513.48705,0.0,0.0,0.0,-40.04975,-47.15443,1.60428,7.43,1.74,3.61,3.0
1758079513.56048,1758079513.49705,0.0,0.0,0.0,-44.86259,-59.70221,2.00535,7.43,1.74,3.45,3.0
1758079513.56169,1758079513.50705,0.0,0.0,0.0,-47.03984,-68.01009,2.63561,6.39,1.48,3.45,3.0
1758079513.57667,1758079513.51705,0.0,0.0,0.0,-48.35764,-75.05748,3.38045,6.15,1.12,3.2,3.0
1758079513.57863,1758079513.52705,0.0,0.0,0.0,-48.8733,-81.18813,4.35448,6.15,1.12,3.2,3.0
1758079513.59387,1758079513.53705,0.0,0.0,0.0,-47.26902,-86.40204,6.13065,6.97,0.54,2.83,3.0
1758079513.6099,1758079513.54705,0.0,0.0,0.0,-45.09178,-86.51663,7.21927,6.97,0.54,2.83,3.0
1758079513.6108,1758079513.55705,0.0,0.0,0.0,-41.99781,-83.88103,8.0787,8.46,-0.15,2.57,3.0
1758079513.6259,1758079513.56705,0.0,0.0,0.0,-38.61736,-80.0995,8.76626,8.46,-0.15,2.57,3.0
1758079513.62683,1758079513.57705,0.0,0.0,0.0,-32.77319,-73.96885,9.05273,9.69,-0.82,2.48,3.0
1758079513.64275,1758079513.58705,0.0,0.0,0.0,-29.04896,-68.52576,9.39651,9.98,-1.06,2.44,3.0
1758079513.65881,1758079513.59705,0.0,0.0,0.0,-26.01229,-61.99404,9.85487,9.98,-1.06,2.44,3.0
1758079513.66026,1758079513.60705,0.0,0.0,0.0,-23.60586,-54.94666,10.65701,9.88,-0.78,2.31,3.0
1758079513.6746,1758079513.61705,0.0,0.0,0.0,-21.7151,-43.20102,12.60507,9.88,-0.78,2.31,3.0
1758079513.69088,1758079513.62705,0.0,0.0,0.0,-20.97026,-34.72124,14.15206,9.86,-0.39,2.39,3.0
1758079513.69209,1758079513.63705,0.0,0.0,0.0,-20.51189,-26.18417,15.69904,9.86,-0.39,2.39,3.0
1758079513.7079,1758079513.64705,0.0,0.0,0.0,-20.3973,-17.87628,18.16276,10.06,-0.17,2.25,3.0
1758079513.70909,1758079513.65705,0.0,0.0,0.0,-20.22541,-5.55769,19.36597,10.19,-0.04,2.16,3.0
1758079513.72392,1758079513.66705,0.0,0.0,0.0,-20.45459,2.34913,19.88164,10.19,-0.04,2.16,3.0
1758079513.7399,1758079513.67705,0.0,0.0,0.0,-20.79837,9.85487,20.22541,10.03,0.14,2.1,3.0
1758079513.74083,1758079513.68705,0.0,0.0,0.0,-21.48592,19.25138,19.76705,10.03,0.14,2.1,3.0
1758079513.75667,1758079513.69705,0.0,0.0,0.0,-22.34536,24.29341,18.85031,9.57,0.3,2.16,3.0
1758079513.75867,1758079513.70705,0.0,0.0,0.0,-22.97561,28.59059,17.87628,9.57,0.3,2.16,3.0
1758079513.77392,1758079513.71705,0.0,0.0,0.0,-23.83505,32.42941,16.90226,9.1,0.39,2.16,3.0
1758079513.78969,1758079513.72705,0.0,0.0,0.0,-25.15285,37.47144,15.35527,8.77,0.44,2.12,3.0
1758079513.7909,1758079513.73705,0.0,0.0,0.0,-26.18417,39.64868,14.32395,8.77,0.44,2.12,3.0
1758079513.806,1758079513.74705,0.0,0.0,0.0,-27.50197,40.39353,13.06344,8.42,0.44,2.28,3.0
1758079513.80684,1758079513.75705,0.0,0.0,0.0,-28.476,40.45082,12.49048,8.42,0.44,2.28,3.0
1758079513.82264,1758079513.76705,0.0,0.0,0.0,-29.8511,38.50277,11.57375,8.16,0.31,2.23,3.0
1758079513.83878,1758079513.77705,0.0,0.0,0.0,-30.53865,37.01308,11.80293,8.16,0.31,2.23,3.0
1758079513.83992,1758079513.78705,0.0,0.0,0.0,-31.16891,35.40879,12.43318,8.23,0.02,2.2,3.0
1758079513.85892,1758079513.79705,0.0,0.0,0.0,-31.45539,34.0337,13.40721,8.23,0.02,2.2,3.0
1758079513.85988,1758079513.80705,0.0,0.0,0.0,-31.16891,31.11161,14.83961,8.35,-0.32,2.14,3.0
1758079513.87476,1758079513.81705,0.0,0.0,0.0,-30.76784,29.04896,15.58445,8.33,-0.61,2.02,3.0
1758079513.8775,1758079513.82705,0.0,0.0,0.0,-29.96569,26.47065,15.69904,8.33,-0.61,2.02,3.0
1758079513.89392,1758079513.83705,0.0,0.0,0.0,-29.04896,23.72045,14.66772,8.23,-0.69,1.94,3.0
1758079513.90991,1758079513.84705,0.0,0.0,0.0,-27.78845,20.3973,13.23533,8.23,-0.69,1.94,3.0
1758079513.91087,1758079513.85705,0.0,0.0,0.0,-26.47065,17.81899,11.57375,8.23,-0.57,1.87,3.0
1758079513.92594,1758079513.86705,0.0,0.0,0.0,-25.15285,15.41257,9.5684,8.23,-0.57,1.87,3.0
1758079513.92851,1758079513.87705,0.0,0.0,0.0,-22.86102,10.8289,6.58902,8.28,-0.37,1.69,3.0
1758079513.94396,1758079513.88705,0.0,0.0,0.0,-21.60051,8.02141,4.69825,8.4,-0.22,1.76,3.0
1758079513.95974,1758079513.89705,0.0,0.0,0.0,-19.99623,5.84417,3.49504,8.4,-0.22,1.76,3.0
1758079513.96131,1758079513.90705,0.0,0.0,0.0,-18.56383,4.0107,3.32316,8.88,-0.29,1.85,3.0
1758079513.97807,1758079513.91705,0.0,0.0,0.0,-17.13144,1.14592,5.09932,8.88,-0.29,1.85,3.0
1758079513.97895,1758079513.92705,0.0,0.0,0.0,-15.87093,-2.40642,7.33386,9.21,-0.65,2.06,3.0
1758079513.99379,1758079513.93705,0.0,0.0,0.0,-14.9542,-6.41713,9.85487,9.21,-0.65,2.06,3.0
1758079514.00976,1758079513.94705,0.0,0.0,0.0,-13.80828,-9.11003,12.43318,9.24,-1.04,1.81,3.0
1758079514.01094,1758079513.95705,0.0,0.0,0.0,-11.80293,-9.05273,15.64175,9.47,-1.26,1.46,3.0
1758079514.0261,1758079513.96705,0.0,0.0,0.0,-9.74028,-5.61499,16.90226,9.47,-1.26,1.46,3.0
1758079514.02777,1758079513.97705,0.0,0.0,0.0,-7.96411,-1.08862,17.18874,9.71,-1.21,1.24,3.0
1758079514.04281,1758079513.98705,0.0,0.0,0.0,-5.95876,3.55234,16.272,9.71,-1.21,1.24,3.0
1758079514.05898,1758079513.99705,0.0,0.0,0.0,-3.38045,8.36518,13.34992,9.43,-0.94,1.35,3.0
1758079514.06109,1758079514.00705,0.0,0.0,0.0,-2.00535,9.68299,10.94349,9.43,-0.94,1.35,3.0
1758079514.07682,1758079514.01705,0.0,0.0,0.0,-0.80214,9.33921,8.136,8.99,-0.63,1.35,3.0
1758079514.07935,1758079514.02705,0.0,0.0,0.0,0.34377,8.76626,5.55769,8.99,-0.63,1.35,3.0
1758079514.09503,1758079514.03705,0.0,0.0,0.0,1.66158,5.61499,2.23454,8.79,-0.49,1.33,3.0
1758079514.09678,1758079514.04705,0.0,0.0,0.0,2.23454,0.74485,0.68755,8.72,-0.57,1.38,3.0
1758079514.11388,1758079514.05705,0.0,0.0,0.0,3.03668,-2.6929,-0.17189,8.72,-0.57,1.38,3.0
1758079514.13014,1758079514.06705,0.0,0.0,0.0,4.23989,6.13065,-1.77617,9.54,-0.79,1.6,3.0
1758079514.131,1758079514.07705,0.0,0.0,0.0,6.24524,21.08485,-1.14592,9.54,-0.79,1.6,3.0
1758079514.1468,1758079514.08705,0.0,0.0,0.0,8.02141,32.71589,-1.66158,11.11,-1.18,1.89,3.0
1758079514.14778,1758079514.09705,0.0,0.0,0.0,10.25595,42.97184,-1.03132,11.11,-1.18,1.89,3.0
1758079514.16284,1758079514.10705,0.0,0.0,0.0,15.98552,24.29341,-1.83346,10.31,-1.36,2.82,3.0
1758079514.17882,1758079514.11705,0.0,0.0,0.0,16.95955,-1.66158,0.0,7.74,-1.28,2.35,3.0
1758079514.18113,1758079514.12705,0.0,0.0,0.0,19.70975,-16.55848,5.50039,7.74,-1.28,2.35,3.0
1758079514.19582,1758079514.13705,0.0,0.0,0.0,22.63183,-17.93358,10.54242,10.67,-1.52,1.79,3.0
1758079514.19736,1758079514.14705,0.0,0.0,0.0,26.12688,-12.77696,13.69369,10.67,-1.52,1.79,3.0
1758079514.21304,1758079514.15705,0.0,0.0,0.0,27.67386,-6.70361,12.89155,10.47,-1.52,0.95,3.0
1758079514.2288,1758079514.16705,0.0,0.0,0.0,27.84575,-2.86479,10.37054,10.47,-1.52,0.95,3.0
1758079514.23156,1758079514.17705,0.0,0.0,0.0,27.10091,-11.74564,8.42248,9.35,-1.26,2.51,3.0
1758079514.24678,1758079514.18705,0.0,0.0,0.0,26.69983,-19.53786,11.22997,9.47,-0.78,3.27,3.0
1758079514.24829,1758079514.19705,0.0,0.0,0.0,24.98096,-4.29718,10.94349,9.47,-0.78,3.27,3.0
1758079514.26281,1758079514.20705,0.0,0.0,0.0,21.7724,10.19865,7.96411,11.98,-0.18,2.05,3.0
1758079514.27881,1758079514.21705,0.0,0.0,0.0,18.73572,15.24068,3.83882,11.98,-0.18,2.05,3.0
1758079514.28115,1758079514.22705,0.0,0.0,0.0,14.38124,16.50119,-2.11994,10.24,0.44,1.94,3.0
1758079514.29586,1758079514.23705,0.0,0.0,0.0,12.08941,18.16276,-4.92744,10.24,0.44,1.94,3.0
1758079514.29705,1758079514.24705,0.0,0.0,0.0,10.19865,18.56383,-7.33386,10.91,0.69,2.08,3.0
1758079514.31385,1758079514.25705,0.0,0.0,0.0,8.59437,18.33465,-8.65166,10.91,0.69,2.08,3.0
1758079514.33097,1758079514.26705,0.0,0.0,0.0,8.02141,19.13679,-8.42248,11.57,0.22,2.06,3.0
1758079514.36418,1758079514.27705,0.0,0.0,0.0,6.8182,22.51724,-3.72423,13.2,-1.19,3.56,3.0
1758079514.38028,1758079514.28705,0.0,0.0,0.0,6.8182,23.60586,-2.29183,13.65,-1.19,4.09,3.0
1758079514.3869,1758079514.29704,0.0,0.0,0.0,7.10468,23.66316,-1.08862,13.65,-1.19,4.09,3.0
1758079514.38727,1758079514.30704,0.0,0.0,0.0,8.136,20.22541,-0.40107,13.28,-0.78,4.17,3.0
1758079514.40324,1758079514.31704,0.0,0.0,0.0,9.39651,16.38659,-0.40107,12.78,-0.38,4.23,3.0
1758079514.41883,1758079514.32704,0.0,0.0,0.0,11.45916,12.77696,-1.20321,12.78,-0.38,4.23,3.0
1758079514.42084,1758079514.33704,0.0,0.0,0.0,13.75099,8.99544,-2.6929,12.37,-0.28,4.19,3.0
1758079514.43691,1758079514.34704,0.0,0.0,0.0,17.53251,2.63561,-6.07335,12.37,-0.28,4.19,3.0
1758079514.43862,1758079514.35704,0.0,0.0,0.0,19.99623,-1.83346,-8.47978,11.17,-0.43,4.23,3.0
1758079514.45413,1758079514.36704,0.0,0.0,0.0,22.40265,-6.70361,-10.31324,11.17,-0.43,4.23,3.0
1758079514.47018,1758079514.37704,0.0,0.0,0.0,24.17882,-12.08941,-11.45916,9.59,-0.57,3.86,3.0
1758079514.47106,1758079514.38704,0.0,0.0,0.0,26.35606,-20.51189,-10.71431,8.08,-0.6,3.62,3.0
1758079514.48664,1758079514.39704,0.0,0.0,0.0,26.98631,-26.24147,-8.93814,8.08,-0.6,3.62,3.0
1758079514.4879,1758079514.40704,0.0,0.0,0.0,27.10091,-31.85646,-6.41713,7.1,-0.44,3.53,3.0
1758079514.5032,1758079514.41704,0.0,0.0,0.0,26.52795,-37.12767,-2.00535,7.1,-0.44,3.53,3.0
1758079514.51903,1758079514.42704,0.0,0.0,0.0,24.80907,-43.4875,0.57296,6.93,-0.15,3.53,3.0
1758079514.52122,1758079514.43704,0.0,0.0,0.0,23.0902,-47.61279,2.40642,6.93,-0.15,3.53,3.0
1758079514.53867,1758079514.44704,0.0,0.0,0.0,21.37133,-51.73809,3.26586,7.06,0.09,3.34,3.0
1758079514.54,1758079514.45704,0.0,0.0,0.0,19.48057,-55.29043,3.55234,7.06,0.09,3.34,3.0
1758079514.55502,1758079514.46704,0.0,0.0,0.0,19.19409,-56.14987,3.09397,7.33,0.1,3.13,3.0
1758079514.57092,1758079514.47704,0.0,0.0,0.0,19.48057,-56.49364,2.86479,7.7,-0.05,2.89,3.0
1758079514.57241,1758079514.48704,0.0,0.0,0.0,20.68378,-55.86338,2.34913,7.7,-0.05,2.89,3.0
1758079514.58692,1758079514.49704,0.0,0.0,0.0,23.37668,-51.73809,1.20321,8.17,-0.2,2.83,3.0
1758079514.58812,1758079514.50704,0.0,0.0,0.0,25.7831,-48.30034,0.40107,8.17,-0.2,2.83,3.0
1758079514.60301,1758079514.51704,0.0,0.0,0.0,28.24682,-43.77398,-0.85944,8.68,-0.17,2.7,3.0
1758079514.6189,1758079514.52704,0.0,0.0,0.0,30.82513,-39.3622,-1.94806,8.68,-0.17,2.7,3.0
1758079514.62009,1758079514.53704,0.0,0.0,0.0,33.9764,-29.56462,-3.95341,9.08,0.03,2.58,3.0
1758079514.63501,1758079514.54704,0.0,0.0,0.0,35.69527,-23.26209,-5.27121,9.52,0.37,2.57,3.0
1758079514.65093,1758079514.55704,0.0,0.0,0.0,36.95578,-16.38659,-6.7609,9.52,0.37,2.57,3.0
1758079514.65293,1758079514.56704,0.0,0.0,0.0,37.58603,-8.42248,-7.96411,9.84,0.69,2.45,3.0
1758079514.66787,1758079514.57704,0.0,0.0,0.0,37.75792,4.18259,-9.91217,9.84,0.69,2.45,3.0
1758079514.6691,1758079514.58704,0.0,0.0,0.0,37.52874,11.74564,-10.94349,9.99,0.92,2.46,3.0
1758079514.6842,1758079514.59704,0.0,0.0,0.0,37.01308,18.22006,-11.97482,9.99,0.92,2.46,3.0
1758079514.70009,1758079514.60704,0.0,0.0,0.0,36.15364,23.94964,-12.71966,9.89,1.05,2.52,3.0
1758079514.70154,1758079514.61704,0.0,0.0,0.0,34.0337,31.91375,-13.69369,10.0,1.1,2.46,3.0
1758079514.71591,1758079514.62704,0.0,0.0,0.0,32.37212,36.32552,-14.38124,10.0,1.1,2.46,3.0
1758079514.71823,1758079514.63704,0.0,0.0,0.0,30.93972,39.13302,-14.49583,9.86,1.11,2.49,3.0
1758079514.73423,1758079514.64704,0.0,0.0,0.0,29.22085,40.85189,-14.9542,9.86,1.11,2.49,3.0
1758079514.75021,1758079514.65704,0.0,0.0,0.0,28.30412,42.74266,-14.72501,9.57,1.06,2.58,3.0
1758079514.75193,1758079514.66704,0.0,0.0,0.0,27.67386,42.91454,-14.43854,9.57,1.06,2.58,3.0
1758079514.76698,1758079514.67704,0.0,0.0,0.0,27.1582,42.1124,-13.98017,9.31,0.96,2.63,3.0
1758079514.76841,1758079514.68704,0.0,0.0,0.0,26.87172,40.96649,-12.60507,9.31,0.96,2.63,3.0
1758079514.78294,1758079514.69704,0.0,0.0,0.0,26.69983,39.99245,-11.91752,9.05,0.93,2.72,3.0
1758079514.79919,1758079514.70704,0.0,0.0,0.0,26.35606,36.95578,-11.45916,8.72,1.01,2.66,3.0
1758079514.80041,1758079514.71704,0.0,0.0,0.0,25.8404,33.23156,-11.34457,8.72,1.01,2.66,3.0
1758079514.815,1758079514.72704,0.0,0.0,0.0,24.5226,27.84575,-11.34457,8.4,1.17,2.54,3.0
1758079514.83137,1758079514.73704,0.0,0.0,0.0,23.31938,25.43933,-11.91752,8.4,1.17,2.54,3.0
1758079514.83247,1758079514.74704,0.0,0.0,0.0,21.94428,22.91831,-12.60507,8.39,1.33,2.31,3.0
1758079514.84698,1758079514.75704,0.0,0.0,0.0,20.45459,20.16812,-13.46451,8.39,1.33,2.31,3.0
1758079514.84819,1758079514.76704,0.0,0.0,0.0,18.22006,13.17803,-14.09476,8.2,1.45,2.2,3.0
1758079514.86416,1758079514.77704,0.0,0.0,0.0,16.90226,7.67763,-13.5218,7.94,1.46,2.12,3.0
1758079514.88074,1758079514.78704,0.0,0.0,0.0,15.87093,2.57831,-12.54778,7.94,1.46,2.12,3.0
1758079514.88205,1758079514.79704,0.0,0.0,0.0,14.83961,-1.77617,-11.00079,8.16,1.28,2.04,3.0
1758079514.89721,1758079514.80704,0.0,0.0,0.0,13.75099,-7.84952,-8.42248,8.16,1.28,2.04,3.0
1758079514.89898,1758079514.81704,0.0,0.0,0.0,13.46451,-10.94349,-6.99009,8.38,1.02,2.16,3.0
1758079514.91454,1758079514.82704,0.0,0.0,0.0,13.17803,-13.46451,-5.61499,8.38,1.02,2.16,3.0
1758079514.93096,1758079514.83704,0.0,0.0,0.0,13.17803,-15.75634,-4.64096,8.58,0.83,2.41,3.0
1758079514.93301,1758079514.84704,0.0,0.0,0.0,13.5218,-18.73572,-4.52637,8.66,0.78,2.4,3.0
1758079514.94827,1758079514.85704,0.0,0.0,0.0,13.34992,-20.05352,-4.92744,8.66,0.78,2.4,3.0
1758079514.94926,1758079514.86704,0.0,0.0,0.0,12.83425,-19.59516,-6.13065,8.96,0.97,2.37,3.0
1758079514.96402,1758079514.87704,0.0,0.0,0.0,11.34457,-16.90226,-8.59437,8.96,0.97,2.37,3.0
1758079514.98116,1758079514.88704,0.0,0.0,0.0,9.5684,-13.23533,-11.28727,9.34,1.33,2.25,3.0
1758079514.98203,1758079514.89704,0.0,0.0,0.0,7.67763,-8.88085,-14.49583,9.34,1.33,2.25,3.0
1758079514.99735,1758079514.90704,0.0,0.0,0.0,5.61499,-5.4431,-16.95955,9.3,1.81,2.0,3.0
1758079514.99944,1758079514.91704,0.0,0.0,0.0,2.63561,-1.94806,-20.22541,9.08,1.81,1.97,3.0
1758079515.01416,1758079514.92704,0.0,0.0,0.0,0.74485,-1.03132,-21.7724,9.08,2.07,1.97,3.0
1758079515.03128,1758079514.93704,0.0,0.0,0.0,-1.08862,-0.57296,-22.28806,8.92,2.06,1.67,3.0
1758079515.03225,1758079514.94704,0.0,0.0,0.0,-2.86479,0.11459,-22.11617,8.92,2.06,1.67,3.0
1758079515.04705,1758079514.95704,0.0,0.0,0.0,-5.50039,0.57296,-20.16812,9.03,1.86,1.56,3.0
1758079515.04871,1758079514.96704,0.0,0.0,0.0,-7.04738,0.11459,-18.33465,9.03,1.86,1.56,3.0
1758079515.06308,1758079514.97704,0.0,0.0,0.0,-8.30789,-1.03132,-15.69904,9.05,1.64,1.5,3.0
1758079515.07908,1758079514.98704,0.0,0.0,0.0,-9.05273,-2.63561,-12.89155,9.05,1.64,1.5,3.0
1758079515.08023,1758079514.99704,0.0,0.0,0.0,-9.74028,-6.41713,-8.136,8.96,1.29,1.42,3.0
1758079515.09507,1758079515.00704,0.0,0.0,0.0,-9.96947,-8.59437,-4.98473,9.0,1.1,1.45,3.0
1758079515.11104,1758079515.01704,0.0,0.0,0.0,-9.39651,-11.45916,-2.34913,9.0,1.1,1.45,3.0
1758079515.11302,1758079515.02704,0.0,0.0,0.0,-9.28192,-13.34992,-0.22918,9.08,0.96,1.38,3.0
1758079515.12807,1758079515.03704,0.0,0.0,0.0,-8.76626,-16.73037,1.48969,9.08,0.96,1.38,3.0
1758079515.12926,1758079515.04704,0.0,0.0,0.0,-8.25059,-21.02755,2.97938,9.37,1.11,1.54,3.0
1758079515.14439,1758079515.05704,0.0,0.0,0.0,-7.04738,-7.73493,2.46372,9.37,1.11,1.54,3.0
1758079515.16114,1758079515.06704,0.0,0.0,0.0,-8.0787,13.34992,-4.1253,11.24,1.48,1.73,3.0
1758079515.16204,1758079515.07704,0.0,0.0,0.0,-9.96947,13.5791,-9.4538,10.67,2.07,2.41,3.0
1758079515.17735,1758079515.08704,0.0,0.0,0.0,-11.17268,5.90147,-12.83425,10.67,2.07,2.41,3.0
1758079515.17906,1758079515.09704,0.0,0.0,0.0,-11.80293,3.09397,-15.06879,9.76,2.47,2.41,3.0
1758079515.19435,1758079515.10704,0.0,0.0,0.0,-12.77696,7.44845,-15.0115,9.76,2.47,2.41,3.0
1758079515.21175,1758079515.11704,0.0,0.0,0.0,-13.00614,13.46451,-12.37589,10.4,2.31,0.87,3.0
1758079515.23902,1758079515.12704,0.0,0.0,0.0,-12.83425,14.38124,-8.65166,10.4,2.31,0.87,3.0
1758079515.24036,1758079515.13704,0.0,0.0,0.0,-12.71966,8.99544,-5.32851,9.68,1.99,1.94,3.0
1758079515.24406,1758079515.14704,0.0,0.0,0.0,-12.71966,2.97938,-3.26586,9.92,1.76,3.21,3.0
1758079515.25293,1758079515.15704,0.0,0.0,0.0,-12.49048,9.28192,-2.40642,9.92,1.76,3.21,3.0
1758079515.25666,1758079515.16704,0.0,0.0,0.0,-11.00079,19.07949,-0.80214,11.95,1.35,2.6,3.0
1758079515.27291,1758079515.17704,0.0,0.0,0.0,-9.28192,25.38203,1.3178,11.95,1.35,2.6,3.0
1758079515.27431,1758079515.18704,0.0,0.0,0.0,-7.16197,28.07493,4.1253,11.73,1.06,2.7,3.0
1758079515.29309,1758079515.19704,0.0,0.0,0.0,-5.90147,28.476,5.61499,11.73,1.06,2.7,3.0
1758079515.30021,1758079515.20704,0.0,0.0,0.0,-5.09932,29.27814,6.58902,11.98,1.32,2.39,3.0
1758079515.30794,1758079515.21704,0.0,0.0,0.0,-4.58366,31.16891,6.99009,11.98,1.32,2.39,3.0
1758079515.31455,1758079515.22704,0.0,0.0,0.0,-5.21392,33.11696,6.58902,12.8,1.94,2.59,3.0
1758079515.33094,1758079515.23704,0.0,0.0,0.0,-6.18794,32.54401,5.90147,13.0,2.69,3.5,3.0
1758079515.33296,1758079515.24704,0.0,0.0,0.0,-7.79223,30.88243,4.29718,13.0,2.69,3.5,3.0
1758079515.34941,1758079515.25704,0.0,0.0,0.0,-9.68299,28.64789,1.71887,12.72,3.15,4.19,3.0
1758079515.35143,1758079515.26704,0.0,0.0,0.0,-10.08406,25.15285,-0.34377,12.72,3.15,4.19,3.0
1758079515.36694,1758079515.27704,0.0,0.0,0.0,-10.37054,22.97561,-1.77617,12.4,3.08,4.71,3.0
1758079515.3684,1758079515.28704,0.0,0.0,0.0,-10.48513,19.88164,-3.20856,12.4,3.08,4.71,3.0
1758079515.38314,1758079515.29704,0.0,0.0,0.0,-11.11538,12.77696,-3.49504,11.98,2.56,4.54,3.0
1758079515.39917,1758079515.30704,0.0,0.0,0.0,-12.204,5.72958,-3.03668,11.29,1.87,4.24,3.0
1758079515.40146,1758079515.31704,0.0,0.0,0.0,-14.61043,-2.40642,-2.06265,11.29,1.87,4.24,3.0
1758079515.4167,1758079515.32704,0.0,0.0,0.0,-17.53251,-10.94349,-0.80214,10.13,1.42,4.17,3.0
1758079515.41813,1758079515.33704,0.0,0.0,0.0,-22.74642,-21.7724,1.71887,10.13,1.42,4.17,3.0
1758079515.4344,1758079515.34704,0.0,0.0,0.0,-26.35606,-27.78845,3.60963,9.03,1.42,4.03,3.0
1758079515.45042,1758079515.35704,0.0,0.0,0.0,-29.50733,-33.9764,5.32851,9.03,1.42,4.03,3.0
1758079515.45303,1758079515.36704,0.0,0.0,0.0,-32.14294,-40.68,6.99009,7.71,1.59,3.69,3.0
1758079515.46819,1758079515.37704,0.0,0.0,0.0,-35.2369,-50.99325,8.47978,6.63,1.59,3.42,3.0
1758079515.46935,1758079515.38704,0.0,0.0,0.0,-36.03905,-56.89471,9.11003,6.63,1.59,3.42,3.0
1758079515.48442,1758079515.39704,0.0,0.0,0.0,-35.69527,-61.70755,9.05273,6.51,1.27,3.24,3.0
1758079515.50015,1758079515.40704,0.0,0.0,0.0,-34.49206,-66.29122,8.76626,6.51,1.27,3.24,3.0
1758079515.5014,1758079515.41704,0.0,0.0,0.0,-30.53865,-72.13539,7.67763,6.99,0.66,3.23,3.0
1758079515.51817,1758079515.42704,0.0,0.0,0.0,-27.10091,-73.73967,6.7609,6.99,0.66,3.23,3.0
1758079515.51937,1758079515.43704,0.0,0.0,0.0,-23.31938,-73.10942,5.84417,8.07,-0.06,3.26,3.0
1758079515.53446,1758079515.44704,0.0,0.0,0.0,-19.48057,-71.04677,4.98473,8.07,-0.06,3.26,3.0
1758079515.55053,1758079515.45704,0.0,0.0,0.0,-14.38124,-67.15066,4.92744,9.19,-0.64,3.08,3.0
1758079515.55223,1758079515.46704,0.0,0.0,0.0,-11.86023,-62.96807,5.61499,9.59,-0.67,2.94,3.0
1758079515.56727,1758079515.47704,0.0,0.0,0.0,-10.31324,-57.52497,6.8182,9.59,-0.67,2.94,3.0
1758079515.56955,1758079515.48704,0.0,0.0,0.0,-10.02676,-47.89928,8.88085,9.79,-0.25,2.83,3.0
1758079515.58423,1758079515.49704,0.0,0.0,0.0,-10.59972,-40.85189,10.54242,9.79,-0.25,2.83,3.0
1758079515.60049,1758079515.50704,0.0,0.0,0.0,-11.74564,-34.26288,12.49048,9.82,0.29,2.83,3.0
1758079515.60185,1758079515.51704,0.0,0.0,0.0,-12.77696,-27.67386,14.32395,9.82,0.29,2.83,3.0
1758079515.61648,1758079515.52704,0.0,0.0,0.0,-14.03747,-16.55848,16.38659,9.94,0.66,2.7,3.0
1758079515.61765,1758079515.53704,0.0,0.0,0.0,-14.38124,-8.30789,17.36062,10.2,0.68,2.29,3.0
1758079515.63353,1758079515.54704,0.0,0.0,0.0,-14.61043,0.11459,18.10547,10.2,0.68,2.29,3.0
1758079515.64948,1758079515.55704,0.0,0.0,0.0,-14.61043,7.62034,18.27736,10.05,0.52,2.14,3.0
1758079515.65041,1758079515.56704,0.0,0.0,0.0,-14.49583,16.38659,18.16276,10.05,0.52,2.14,3.0
1758079515.66521,1758079515.57704,0.0,0.0,0.0,-14.61043,21.31403,17.93358,9.65,0.36,2.12,3.0
1758079515.66725,1758079515.58704,0.0,0.0,0.0,-14.78231,25.7831,17.58981,9.65,0.36,2.12,3.0
1758079515.68348,1758079515.59704,0.0,0.0,0.0,-15.29797,29.39274,17.36062,9.48,0.31,2.07,3.0
1758079515.69948,1758079515.60704,0.0,0.0,0.0,-16.55848,34.14828,16.55848,9.21,0.3,2.11,3.0
1758079515.70081,1758079515.61704,0.0,0.0,0.0,-17.6471,36.49741,15.98552,9.21,0.3,2.11,3.0
1758079515.71632,1758079515.62704,0.0,0.0,0.0,-19.07949,37.58603,15.12609,8.9,0.31,2.15,3.0
1758079515.71803,1758079515.63704,0.0,0.0,0.0,-20.68378,37.92981,14.09476,8.9,0.31,2.15,3.0
1758079515.73456,1758079515.64704,0.0,0.0,0.0,-23.0329,36.95578,12.83425,8.57,0.28,2.25,3.0
1758079515.75055,1758079515.65704,0.0,0.0,0.0,-24.35071,35.86716,12.2613,8.57,0.28,2.25,3.0
1758079515.7526,1758079515.66704,0.0,0.0,0.0,-25.21014,33.63263,12.37589,8.33,0.21,2.13,3.0
1758079515.76753,1758079515.67704,0.0,0.0,0.0,-25.61122,29.67921,13.00614,8.33,0.21,2.13,3.0
1758079515.76849,1758079515.68704,0.0,0.0,0.0,-25.61122,26.75713,13.5791,8.11,0.04,2.09,3.0
1758079515.78355,1758079515.69704,0.0,0.0,0.0,-24.92367,23.72045,14.38124,7.99,-0.18,1.9,3.0
1758079515.79957,1758079515.70704,0.0,0.0,0.0,-23.72045,21.25674,14.49583,7.99,-0.18,1.9,3.0
1758079515.80048,1758079515.71704,0.0,0.0,0.0,-22.00158,16.21471,14.32395,7.86,-0.36,1.85,3.0
1758079515.81528,1758079515.72704,0.0,0.0,0.0,-20.45459,12.54778,13.5218,7.86,-0.36,1.85,3.0
1758079515.83123,1758079515.73704,0.0,0.0,0.0,-19.36597,8.59437,12.08941,7.7,-0.37,1.76,3.0
1758079515.83244,1758079515.74704,0.0,0.0,0.0,-18.22006,4.52637,10.48513,7.7,-0.37,1.76,3.0
1758079515.84748,1758079515.75704,0.0,0.0,0.0,-16.38659,-0.22918,7.96411,7.75,-0.29,1.73,3.0
1758079515.84872,1758079515.76704,0.0,0.0,0.0,-15.35527,-2.40642,6.53172,8.13,-0.26,1.67,3.0
1758079515.8635,1758079515.77704,0.0,0.0,0.0,-14.38124,-4.69825,5.61499,8.13,-0.26,1.67,3.0
1758079515.87927,1758079515.78704,0.0,0.0,0.0,-13.34992,-7.04738,5.21392,8.48,-0.33,1.69,3.0
1758079515.88052,1758079515.79704,0.0,0.0,0.0,-12.204,-10.48513,5.4431,8.48,-0.33,1.69,3.0
1758079515.89531,1758079515.80704,0.0,0.0,0.0,-11.51645,-11.97482,5.84417,8.91,-0.43,1.68,3.0
1758079515.91162,1758079515.81704,0.0,0.0,0.0,-10.65701,-13.17803,6.70361,8.91,-0.43,1.68,3.0
1758079515.91332,1758079515.82704,0.0,0.0,0.0,-10.19865,-13.75099,7.16197,9.26,-0.47,1.59,3.0
1758079515.92842,1758079515.83704,0.0,0.0,0.0,-9.28192,-12.89155,7.67763,9.56,-0.4,1.55,3.0
1758079515.92952,1758079515.84704,0.0,0.0,0.0,-8.59437,-11.17268,7.79223,9.56,-0.4,1.55,3.0
1758079515.94433,1758079515.85704,0.0,0.0,0.0,-7.50575,-9.62569,8.42248,9.71,-0.34,1.62,3.0
1758079515.96068,1758079515.86704,0.0,0.0,0.0,-5.15662,-6.87549,9.96947,9.71,-0.34,1.62,3.0
1758079515.96233,1758079515.87704,0.0,0.0,0.0,-3.49504,0.74485,10.8862,9.95,-0.41,1.4,3.0
1758079515.97761,1758079515.88704,0.0,0.0,0.0,-1.66158,5.32851,11.28727,9.95,-0.41,1.4,3.0
1758079515.97857,1758079515.89704,0.0,0.0,0.0,0.0,9.05273,11.11538,9.92,-0.51,1.19,3.0
1758079515.99359,1758079515.90704,0.0,0.0,0.0,2.06265,12.60507,9.5684,9.92,-0.51,1.19,3.0
1758079516.00963,1758079515.91704,0.0,0.0,0.0,3.66693,13.5791,7.96411,9.64,-0.49,1.27,3.0
1758079516.01056,1758079515.92704,0.0,0.0,0.0,5.15662,14.03747,6.24524,9.36,-0.47,1.2,3.0
1758079516.02562,1758079515.93704,0.0,0.0,0.0,6.70361,13.80828,4.46907,9.36,-0.47,1.2,3.0
1758079516.04252,1758079515.94704,0.0,0.0,0.0,9.11003,12.49048,2.57831,9.28,-0.57,1.36,3.0
1758079516.04336,1758079515.95704,0.0,0.0,0.0,10.48513,11.34457,1.14592,9.28,-0.57,1.36,3.0
1758079516.05843,1758079515.96704,0.0,0.0,0.0,11.97482,8.70896,0.68755,9.29,-0.69,1.41,3.0
1758079516.06013,1758079515.97704,0.0,0.0,0.0,13.40721,3.66693,0.40107,9.29,-0.69,1.41,3.0
1758079516.07435,1758079515.98704,0.0,0.0,0.0,13.5791,-4.52637,0.11459,9.01,-0.68,1.23,3.0
1758079516.09037,1758079515.99704,0.0,0.0,0.0,14.83961,-0.80214,0.51566,9.69,-0.52,1.13,3.0
1758079516.09158,1758079516.00704,0.0,0.0,0.0,15.69904,15.58445,1.71887,9.69,-0.52,1.13,3.0
1758079516.10664,1758079516.01704,0.0,0.0,0.0,17.01685,34.95043,1.43239,11.7,-0.54,1.75,3.0
1758079516.10787,1758079516.02704,0.0,0.0,0.0,18.79302,50.99325,1.08862,11.7,-0.54,1.75,3.0
1758079516.12338,1758079516.03704,0.0,0.0,0.0,20.74107,44.11775,2.06265,10.57,-0.33,2.67,3.0
1758079516.13967,1758079516.04704,0.0,0.0,0.0,20.62648,23.49127,0.45837,10.57,-0.33,2.67,3.0
1758079516.14215,1758079516.05704,0.0,0.0,0.0,19.59516,-8.25059,4.1253,7.88,-0.28,2.69,3.0
1758079516.15847,1758079516.06704,0.0,0.0,0.0,18.22006,-47.09713,10.8862,9.39,-0.44,2.31,3.0
1758079516.15968,1758079516.07704,0.0,0.0,0.0,17.30333,-47.89928,18.16276,9.39,-0.44,2.31,3.0
1758079516.17472,1758079516.08704,0.0,0.0,0.0,15.06879,-28.36141,22.00158,13.76,-0.6,2.05,3.0
1758079516.19073,1758079516.09704,0.0,0.0,0.0,11.51645,-1.08862,22.40265,13.76,-0.6,2.05,3.0
1758079516.19237,1758079516.10704,0.0,0.0,0.0,8.93814,6.35983,20.62648,13.18,-0.1,2.87,3.0
1758079516.20778,1758079516.11704,0.0,0.0,0.0,5.21392,9.11003,16.95955,13.18,-0.1,2.87,3.0
1758079516.20862,1758079516.12704,0.0,0.0,0.0,1.3178,13.12073,12.204,12.41,0.81,3.94,3.0
1758079516.22343,1758079516.13704,0.0,0.0,0.0,-3.95341,23.94964,4.0107,12.41,0.81,3.16,3.0
1758079516.23943,1758079516.14704,0.0,0.0,0.0,-6.41713,30.88243,-1.43239,14.16,1.41,3.16,3.0
1758079516.24304,1758079516.15704,0.0,0.0,0.0,-6.87549,34.37747,-5.90147,15.07,0.63,3.9,3.0
1758079516.25871,1758079516.16704,0.0,0.0,0.0,-5.84417,33.51803,-8.136,15.07,0.63,3.9,3.0
1758079516.2596,1758079516.17704,0.0,0.0,0.0,-2.92208,28.41871,-8.65166,15.0,-1.2,4.69,3.0
1758079516.27443,1758079516.18704,0.0,0.0,0.0,-0.68755,24.75178,-7.84952,15.0,-1.2,4.69,3.0
1758079516.29038,1758079516.19704,0.0,0.0,0.0,2.00535,21.25674,-6.18794,14.49,-2.35,5.14,3.0
1758079516.29205,1758079516.20704,0.0,0.0,0.0,4.87014,18.62113,-4.0107,14.49,-2.35,5.14,3.0
1758079516.30641,1758079516.21704,0.0,0.0,0.0,9.62569,15.46986,-0.74485,13.3,-2.11,5.06,3.0
1758079516.3084,1758079516.22704,0.0,0.0,0.0,13.17803,12.60507,1.03132,11.3,-1.13,5.03,3.0
1758079516.32469,1758079516.23704,0.0,0.0,0.0,16.67307,9.05273,2.34913,11.3,-1.13,5.03,3.0
1758079516.34063,1758079516.24704,0.0,0.0,0.0,19.99623,4.64096,3.32316,9.02,-0.38,4.46,3.0
1758079516.34366,1758079516.25704,0.0,0.0,0.0,24.63719,-2.23454,4.18259,9.02,-0.38,4.46,3.0
1758079516.35842,1758079516.26704,0.0,0.0,0.0,27.2155,-6.8182,4.46907,7.35,-0.2,3.73,3.0
1758079516.3596,1758079516.27704,0.0,0.0,0.0,29.39274,-10.94349,4.87014,7.35,-0.2,3.73,3.0
1758079516.37444,1758079516.28704,0.0,0.0,0.0,30.82513,-14.49583,4.81285,6.44,-0.3,3.23,3.0
1758079516.39046,1758079516.29704,0.0,0.0,0.0,30.88243,-17.6471,4.52637,6.27,-0.32,2.96,3.0
1758079516.39248,1758079516.30704,0.0,0.0,0.0,29.8511,-19.99623,3.95341,6.27,-0.32,2.96,3.0
1758079516.40776,1758079516.31704,0.0,0.0,0.0,28.13223,-23.49127,3.20856,6.15,-0.19,2.71,3.0
1758079516.40893,1758079516.32704,0.0,0.0,0.0,24.80907,-28.70519,2.06265,6.15,-0.19,2.71,3.0
1758079516.42374,1758079516.33704,0.0,0.0,0.0,22.00158,-29.9084,1.08862,6.47,-0.01,2.4,3.0
1758079516.43977,1758079516.34704,0.0,0.0,0.0,19.42327,-28.99167,0.22918,6.47,-0.01,2.4,3.0
1758079516.44307,1758079516.35704,0.0,0.0,0.0,17.47521,-26.64254,-0.45837,7.33,0.17,2.31,3.0
1758079516.45876,1758079516.36704,0.0,0.0,0.0,16.272,-21.7724,-1.03132,8.01,0.27,2.61,3.0
1758079516.45968,1758079516.37704,0.0,0.0,0.0,16.3293,-18.27736,-1.14592,8.01,0.27,2.61,3.0
1758079516.47455,1758079516.38704,0.0,0.0,0.0,17.81899,-15.64175,-1.60428,8.46,0.22,2.79,3.0
1758079516.49131,1758079516.39704,0.0,0.0,0.0,20.05352,-11.80293,-2.00535,8.46,0.22,2.79,3.0
1758079516.49244,1758079516.40704,0.0,0.0,0.0,24.4653,-5.84417,-3.66693,9.09,0.02,2.89,3.0
1758079516.50747,1758079516.41704,0.0,0.0,0.0,28.13223,-2.7502,-4.98473,9.09,0.02,2.89,3.0
1758079516.50902,1758079516.42704,0.0,0.0,0.0,32.25753,1.43239,-6.70361,9.39,-0.24,2.89,3.0
1758079516.52347,1758079516.43704,0.0,0.0,0.0,36.6693,4.58366,-8.136,9.39,-0.24,2.89,3.0
1758079516.53968,1758079516.44704,0.0,0.0,0.0,42.62806,8.99544,-10.54242,9.54,-0.46,2.97,3.0
1758079516.54304,1758079516.45704,0.0,0.0,0.0,46.35228,12.14671,-11.80293,9.53,-0.47,2.87,3.0
1758079516.55854,1758079516.46704,0.0,0.0,0.0,48.9306,14.38124,-12.71966,9.53,-0.47,2.87,3.0
1758079516.55972,1758079516.47704,0.0,0.0,0.0,50.82136,15.98552,-13.5791,9.37,-0.28,2.91,3.0
1758079516.57482,1758079516.48704,0.0,0.0,0.0,51.5662,17.01685,-13.98017,9.37,-0.28,2.91,3.0
1758079516.59079,1758079516.49704,0.0,0.0,0.0,51.22243,18.16276,-14.43854,9.27,0.07,2.94,3.0
1758079516.59175,1758079516.50704,0.0,0.0,0.0,50.363,18.22006,-14.03747,9.27,0.07,2.94,3.0
1758079516.60679,1758079516.51704,0.0,0.0,0.0,48.24305,19.53786,-13.00614,9.13,0.51,2.79,3.0
1758079516.60805,1758079516.52704,0.0,0.0,0.0,46.69606,19.48057,-11.57375,8.98,0.88,2.96,3.0
1758079516.62383,1758079516.53704,0.0,0.0,0.0,45.03448,18.33465,-10.37054,8.98,0.88,2.96,3.0
1758079516.63985,1758079516.54704,0.0,0.0,0.0,43.37291,16.95955,-8.93814,8.54,1.11,2.78,3.0
1758079516.64103,1758079516.55704,0.0,0.0,0.0,40.7946,15.41257,-6.70361,8.54,1.11,2.78,3.0
1758079516.65631,1758079516.56704,0.0,0.0,0.0,39.3622,14.49583,-5.72958,8.44,1.22,2.74,3.0
1758079516.65756,1758079516.57704,0.0,0.0,0.0,37.92981,13.69369,-4.98473,8.44,1.22,2.74,3.0
1758079516.67373,1758079516.58704,0.0,0.0,0.0,36.38282,12.37589,-4.98473,8.31,1.23,2.66,3.0
1758079516.68987,1758079516.59704,0.0,0.0,0.0,34.32018,10.48513,-5.72958,8.2,1.26,2.56,3.0
1758079516.69078,1758079516.60704,0.0,0.0,0.0,32.88778,8.65166,-6.53172,8.2,1.26,2.56,3.0
1758079516.70633,1758079516.61704,0.0,0.0,0.0,31.74186,7.16197,-7.62034,8.18,1.25,2.39,3.0
1758079516.70759,1758079516.62704,0.0,0.0,0.0,30.59595,5.78687,-8.25059,8.18,1.25,2.39,3.0
1758079516.72382,1758079516.63704,0.0,0.0,0.0,29.10626,3.20856,-8.70896,8.29,1.18,2.31,3.0
1758079516.73981,1758079516.64704,0.0,0.0,0.0,28.13223,1.48969,-8.42248,8.29,1.18,2.31,3.0
1758079516.74077,1758079516.65704,0.0,0.0,0.0,27.33009,0.68755,-7.79223,8.34,1.06,2.15,3.0
1758079516.75584,1758079516.66704,0.0,0.0,0.0,26.41335,0.40107,-6.70361,8.34,1.06,2.15,3.0
1758079516.75921,1758079516.67704,0.0,0.0,0.0,24.92367,0.22918,-5.09932,8.54,0.91,2.1,3.0
1758079516.77852,1758079516.68704,0.0,0.0,0.0,24.23611,0.85944,-4.18259,8.6,0.85,2.07,3.0
1758079516.77976,1758079516.69704,0.0,0.0,0.0,22.97561,1.71887,-3.55234,8.6,0.85,2.07,3.0
1758079516.79856,1758079516.70704,0.0,0.0,0.0,21.25674,2.86479,-3.60963,8.72,0.92,2.14,3.0
1758079516.80004,1758079516.71704,0.0,0.0,0.0,19.88164,3.49504,-4.29718,8.72,0.92,2.14,3.0
1758079516.82224,1758079516.72704,0.0,0.0,0.0,18.33465,3.32316,-5.32851,8.83,1.16,2.08,3.0
1758079516.84369,1758079516.73704,0.0,0.0,0.0,16.90226,2.6929,-6.07335,8.83,1.16,2.08,3.0
1758079516.84431,1758079516.74704,0.0,0.0,0.0,14.32395,0.97403,-6.99009,8.83,1.42,2.08,3.0
1758079516.84553,1758079516.75704,0.0,0.0,0.0,12.2613,0.85944,-7.10468,8.98,1.59,2.11,3.0
1758079516.86075,1758079516.76704,0.0,0.0,0.0,9.85487,4.64096,-8.02141,8.98,1.59,2.11,3.0
1758079516.86452,1758079516.77704,0.0,0.0,0.0,7.39116,7.73493,-8.93814,9.2,1.72,2.29,3.0
1758079516.88041,1758079516.78704,0.0,0.0,0.0,3.38045,5.78687,-10.65701,9.2,1.72,2.29,3.0
1758079516.88236,1758079516.79704,0.0,0.0,0.0,0.57296,1.60428,-11.22997,8.59,1.75,2.34,3.0
1758079516.89789,1758079516.80704,0.0,0.0,0.0,-2.11994,-1.3751,-11.28727,8.59,1.75,2.34,3.0
1758079516.89879,1758079516.81704,0.0,0.0,0.0,-4.64096,-4.35448,-11.11538,8.79,1.68,2.11,3.0
1758079516.91363,1758079516.82704,0.0,0.0,0.0,-8.25059,-9.91217,-10.37054,8.83,1.57,1.69,3.0
1758079516.93007,1758079516.83704,0.0,0.0,0.0,-10.19865,-13.06344,-9.91217,8.83,1.57,1.69,3.0
1758079516.93076,1758079516.84704,0.0,0.0,0.0,-11.57375,-15.29797,-9.62569,8.94,1.54,1.66,3.0
1758079516.94567,1758079516.85704,0.0,0.0,0.0,-12.60507,-16.38659,-9.22462,8.94,1.54,1.66,3.0
1758079516.94873,1758079516.86704,0.0,0.0,0.0,-13.34992,-18.79302,-8.0787,9.25,1.6,1.62,3.0
1758079516.96695,1758079516.87704,0.0,0.0,0.0,-13.12073,-21.42862,-7.62034,9.25,1.6,1.62,3.0
1758079516.96818,1758079516.88704,0.0,0.0,0.0,-12.89155,-23.37668,-6.8182,9.4,1.54,1.61,3.0
1758079516.98488,1758079516.89704,0.0,0.0,0.0,-11.51645,-24.23611,-4.35448,9.4,1.54,1.61,3.0
1758079517.0009,1758079516.90704,0.0,0.0,0.0,-11.45916,-22.23076,-2.57831,10.11,1.49,1.76,3.0
1758079517.0026,1758079516.91704,0.0,0.0,0.0,-11.22997,-18.50654,-2.00535,11.14,1.37,1.96,3.0
1758079517.01788,1758079516.92704,0.0,0.0,0.0,-10.02676,-10.8862,-0.17189,11.14,1.37,1.96,3.0
1758079517.01996,1758079516.93704,0.0,0.0,0.0,-8.88085,14.32395,-1.77617,12.72,1.32,2.12,3.0
1758079517.0349,1758079516.94704,0.0,0.0,0.0,-7.10468,5.55769,-1.66158,12.72,1.32,2.12,3.0
1758079517.05164,1758079516.95704,0.0,0.0,0.0,-7.84952,-30.25217,-6.7609,10.4,1.81,3.53,3.0
1758079517.0544,1758079516.96704,0.0,0.0,0.0,-13.17803,-48.70141,-18.27736,10.4,1.81,3.53,3.0
1758079517.06964,1758079516.97704,0.0,0.0,0.0,-10.37054,-13.46451,-24.80907,12.42,2.57,4.62,3.0
1758079517.07081,1758079516.98704,0.0,0.0,0.0,-7.10468,6.70361,-24.86637,16.4,1.9,3.25,3.0
1758079517.08579,1758079516.99704,0.0,0.0,0.0,-4.46907,11.57375,-22.97561,16.4,1.9,3.25,3.0
1758079517.10266,1758079517.00704,0.0,0.0,0.0,-1.43239,13.17803,-19.48057,13.81,1.31,4.73,3.0
1758079517.10435,1758079517.01704,0.0,0.0,0.0,1.71887,22.05888,-9.96947,13.81,1.31,4.73,3.0
1758079517.11964,1758079517.02704,0.0,0.0,0.0,0.57296,24.00693,-2.86479,15.27,2.06,3.8,3.0
1758079517.1208,1758079517.03704,0.0,0.0,0.0,-2.92208,22.97561,3.09397,15.27,2.06,3.8,3.0
1758079517.13589,1758079517.04704,0.0,0.0,0.0,-8.88085,19.82434,8.02141,14.93,3.19,4.0,3.0
1758079517.1516,1758079517.05704,0.0,0.0,0.0,-20.45459,11.57375,11.22997,13.34,3.31,4.47,3.0
1758079517.15308,1758079517.06704,0.0,0.0,0.0,-28.41871,5.09932,11.11538,13.34,3.31,4.47,3.0
1758079517.16787,1758079517.07704,0.0,0.0,0.0,-35.12231,-1.14592,9.74028,11.03,2.86,4.32,3.0
1758079517.16909,1758079517.08704,0.0,0.0,0.0,-40.7373,-7.84952,6.07335,11.03,2.86,4.32,3.0
1758079517.18363,1758079517.09704,0.0,0.0,0.0,-47.15443,-21.02755,3.49504,8.58,2.21,4.11,3.0
1758079517.19962,1758079517.10704,0.0,0.0,0.0,-50.47758,-30.59595,0.85944,8.58,2.21,4.11,3.0
1758079517.20165,1758079517.11704,0.0,0.0,0.0,-53.51426,-39.64868,-1.60428,6.55,1.57,3.34,3.0
1758079517.21689,1758079517.12704,0.0,0.0,0.0,-56.78012,-52.08187,-3.95341,6.55,1.57,3.34,3.0
1758079517.21869,1758079517.13704,0.0,0.0,0.0,-57.52497,-59.87409,-4.35448,5.62,1.13,2.93,3.0
1758079517.23484,1758079517.14704,0.0,0.0,0.0,-56.83742,-66.635,-3.83882,5.55,0.72,2.57,3.0
1758079517.25089,1758079517.15704,0.0,0.0,0.0,-54.66018,-71.04677,-2.34913,5.55,0.72,2.57,3.0
1758079517.25186,1758079517.16704,0.0,0.0,0.0,-49.33167,-73.45319,0.17189,6.71,0.05,2.66,3.0
1758079517.2671,1758079517.17704,0.0,0.0,0.0,-44.57612,-72.88023,2.23454,6.71,0.05,2.66,3.0
1758079517.26784,1758079517.18704,0.0,0.0,0.0,-39.3622,-70.30193,4.29718,8.35,-0.75,2.86,3.0
1758079517.28393,1758079517.19704,0.0,0.0,0.0,-34.32018,-66.00475,5.84417,8.35,-0.75,2.86,3.0
1758079517.29993,1758079517.20704,0.0,0.0,0.0,-27.84575,-58.49899,8.47978,9.7,-1.29,2.89,3.0
1758079517.30128,1758079517.21704,0.0,0.0,0.0,-24.92367,-52.76942,10.02676,10.03,-1.05,2.52,3.0
1758079517.31653,1758079517.22704,0.0,0.0,0.0,-23.0902,-46.46688,11.74564,10.03,-1.05,2.52,3.0
1758079517.31803,1758079517.23704,0.0,0.0,0.0,-22.11617,-39.64868,13.40721,9.75,-0.34,2.39,3.0
1758079517.33397,1758079517.24704,0.0,0.0,0.0,-22.00158,-28.41871,15.41257,9.75,-0.34,2.39,3.0
1758079517.34981,1758079517.25704,0.0,0.0,0.0,-22.51724,-19.42327,16.50119,9.78,0.12,2.34,3.0
1758079517.35084,1758079517.26704,0.0,0.0,0.0,-23.31938,-9.96947,17.30333,9.78,0.12,2.34,3.0
1758079517.36601,1758079517.27704,0.0,0.0,0.0,-24.23611,-1.71887,17.58981,10.01,0.32,2.38,3.0
1758079517.36768,1758079517.28704,0.0,0.0,0.0,-25.72581,7.73493,17.76169,9.72,0.43,2.36,3.0
1758079517.38397,1758079517.29704,0.0,0.0,0.0,-26.75713,13.75099,17.99088,9.72,0.43,2.36,3.0
1758079517.39996,1758079517.30704,0.0,0.0,0.0,-28.01764,20.34,17.6471,9.6,0.43,2.17,3.0
1758079517.40251,1758079517.31704,0.0,0.0,0.0,-29.8511,29.04896,16.73037,9.6,0.43,2.17,3.0
1758079517.41793,1758079517.32704,0.0,0.0,0.0,-31.11161,34.0337,15.64175,9.13,0.38,1.97,3.0
1758079517.41889,1758079517.33704,0.0,0.0,0.0,-32.42941,38.56006,13.69369,9.13,0.38,1.97,3.0
1758079517.43398,1758079517.34704,0.0,0.0,0.0,-33.46074,41.99781,11.45916,8.69,0.26,1.96,3.0
1758079517.45001,1758079517.35704,0.0,0.0,0.0,-34.60666,43.60209,7.84952,8.69,0.26,1.96,3.0
1758079517.45089,1758079517.36704,0.0,0.0,0.0,-34.72124,44.8053,5.61499,8.24,0.13,1.96,3.0
1758079517.46598,1758079517.37704,0.0,0.0,0.0,-34.49206,45.26366,4.46907,8.26,-0.03,1.89,3.0
1758079517.46778,1758079517.38704,0.0,0.0,0.0,-33.86181,44.86259,3.95341,8.26,-0.03,1.89,3.0
1758079517.48404,1758079517.39704,0.0,0.0,0.0,-32.25753,42.05511,4.87014,8.11,-0.22,1.94,3.0
1758079517.49992,1758079517.40704,0.0,0.0,0.0,-30.88243,40.10705,6.07335,8.11,-0.22,1.94,3.0
1758079517.50363,1758079517.41704,0.0,0.0,0.0,-29.33544,38.61736,7.39116,8.05,-0.46,1.86,3.0
1758079517.51888,1758079517.42704,0.0,0.0,0.0,-27.78845,37.64333,8.70896,8.05,-0.46,1.86,3.0
1758079517.52074,1758079517.43704,0.0,0.0,0.0,-25.61122,34.89313,9.96947,8.03,-0.64,1.88,3.0
1758079517.53649,1758079517.44704,0.0,0.0,0.0,-24.29341,30.99702,10.48513,7.72,-0.62,1.91,3.0
1758079517.53958,1758079517.45704,0.0,0.0,0.0,-23.0902,26.06958,10.31324,7.72,-0.62,1.91,3.0
1758079517.55685,1758079517.46704,0.0,0.0,0.0,-22.23076,20.85567,9.4538,7.59,-0.51,1.84,3.0
1758079517.55877,1758079517.47704,0.0,0.0,0.0,-21.14215,12.2613,7.84952,7.59,-0.51,1.84,3.0
1758079517.5761,1758079517.48704,0.0,0.0,0.0,-20.62648,6.87549,6.58902,7.77,-0.3,1.85,3.0
1758079517.59341,1758079517.49704,0.0,0.0,0.0,-20.3973,2.23454,5.4431,7.77,-0.3,1.85,3.0
1758079517.59722,1758079517.50704,0.0,0.0,0.0,-20.22541,-1.66158,4.0107,8.2,-0.14,1.91,3.0
1758079517.61913,1758079517.51704,0.0,0.0,0.0,-20.22541,-6.41713,3.55234,8.5,-0.1,1.98,3.0
1758079517.62461,1758079517.52704,0.0,0.0,0.0,-20.45459,-9.22462,3.03668,8.5,-0.1,1.98,3.0
1758079517.62661,1758079517.53704,0.0,0.0,0.0,-20.45459,-11.57375,2.92208,8.61,-0.14,1.92,3.0
1758079517.62776,1758079517.54704,0.0,0.0,0.0,-20.45459,-14.66772,2.63561,8.61,-0.14,1.92,3.0
1758079517.64494,1758079517.55704,0.0,0.0,0.0,-20.62648,-16.04282,2.11994,8.73,-0.25,1.81,3.0
1758079517.66085,1758079517.56704,0.0,0.0,0.0,-20.74107,-16.3293,1.48969,8.73,-0.25,1.81,3.0
1758079517.66384,1758079517.57704,0.0,0.0,0.0,-20.16812,-14.66772,1.48969,9.11,-0.32,1.76,3.0
1758079517.67893,1758079517.58704,0.0,0.0,0.0,-19.07949,-4.87014,0.97403,9.91,-0.32,1.61,3.0
1758079517.68349,1758079517.59704,0.0,0.0,0.0,-17.99088,3.32316,0.51566,9.91,-0.41,1.61,3.0
1758079517.69895,1758079517.60704,0.0,0.0,0.0,-16.50119,9.74028,0.40107,9.98,-0.53,1.64,3.0
1758079517.70112,1758079517.61704,0.0,0.0,0.0,-15.12609,13.40721,-0.11459,9.98,-0.53,1.64,3.0
1758079517.71656,1758079517.62704,0.0,0.0,0.0,-13.17803,14.72501,-0.97403,9.55,-0.57,1.65,3.0
1758079517.71856,1758079517.63704,0.0,0.0,0.0,-11.86023,16.04282,-1.08862,9.55,-0.57,1.65,3.0
1758079517.73476,1758079517.64704,0.0,0.0,0.0,-10.37054,17.47521,-1.14592,9.68,-0.6,1.47,3.0
1758079517.73912,1758079517.65704,0.0,0.0,0.0,-9.05273,18.50654,-0.80214,9.68,-0.6,1.47,3.0
1758079517.75483,1758079517.66704,0.0,0.0,0.0,-7.50575,18.10547,-0.57296,9.71,-0.69,1.56,3.0
1758079517.77203,1758079517.67704,0.0,0.0,0.0,-6.70361,16.38659,-0.11459,9.6,-0.73,1.71,3.0
1758079517.77327,1758079517.68704,0.0,0.0,0.0,-6.24524,12.37589,-0.45837,9.6,-0.73,1.71,3.0
1758079517.78783,1758079517.69704,0.0,0.0,0.0,-6.35983,7.44845,-1.08862,9.25,-0.55,1.6,3.0
1758079517.78932,1758079517.70704,0.0,0.0,0.0,-6.13065,6.07335,-2.40642,9.25,-0.55,1.6,3.0
1758079517.80409,1758079517.71704,0.0,0.0,0.0,-6.13065,11.86023,-3.60963,9.96,-0.36,1.6,3.0
1758079517.82006,1758079517.72704,0.0,0.0,0.0,-5.84417,20.74107,-3.66693,9.96,-0.36,1.6,3.0
1758079517.82495,1758079517.73704,0.0,0.0,0.0,-5.78687,36.49741,-6.24524,11.03,-0.34,2.12,3.0
1758079517.8401,1758079517.74704,0.0,0.0,0.0,-6.87549,33.9764,-8.25059,10.71,-0.3,3.33,3.0
1758079517.84177,1758079517.75704,0.0,0.0,0.0,-8.0787,14.9542,-2.40642,10.71,-0.3,3.33,3.0
1758079517.85687,1758079517.76704,0.0,0.0,0.0,-9.85487,-0.85944,-0.80214,10.43,-0.24,3.37,3.0
1758079517.85801,1758079517.77704,0.0,0.0,0.0,-10.37054,-15.0115,4.87014,10.43,-0.24,3.37,3.0
1758079517.87396,1758079517.78704,0.0,0.0,0.0,-11.57375,-10.08406,7.50575,14.17,-0.16,2.94,3.0
1758079517.88985,1758079517.79704,0.0,0.0,0.0,-12.49048,-3.95341,8.47978,14.17,-0.16,2.94,3.0
1758079517.89101,1758079517.80704,0.0,0.0,0.0,-13.00614,5.84417,8.36518,15.95,0.19,3.54,3.0
1758079517.90608,1758079517.81704,0.0,0.0,0.0,-13.86558,21.60051,4.46907,16.16,0.1,4.7,3.0
1758079517.92184,1758079517.82704,0.0,0.0,0.0,-13.80828,25.09555,-0.11459,16.16,0.1,4.7,3.0
1758079517.92376,1758079517.83704,0.0,0.0,0.0,-12.77696,25.21014,-6.07335,14.5,-0.74,4.63,3.0
1758079517.93881,1758079517.84704,0.0,0.0,0.0,-10.8862,25.55392,-12.43318,14.5,-0.74,4.63,3.0
1758079517.94083,1758079517.85704,0.0,0.0,0.0,-6.24524,27.2155,-19.99623,14.28,-1.63,4.73,3.0
1758079517.95769,1758079517.86704,0.0,0.0,0.0,-2.29183,25.43933,-23.20479,14.28,-1.63,4.73,3.0
1758079517.95973,1758079517.87704,0.0,0.0,0.0,2.11994,21.7724,-24.4653,13.32,-1.98,4.97,3.0
1758079517.97491,1758079517.88704,0.0,0.0,0.0,7.16197,15.24068,-23.20479,13.32,-1.98,4.97,3.0
1758079517.99267,1758079517.89704,0.0,0.0,0.0,14.09476,3.60963,-18.79302,11.4,-1.68,5.0,3.0
1758079517.99384,1758079517.90704,0.0,0.0,0.0,18.22006,-2.6929,-14.20935,9.43,-1.16,4.23,3.0
1758079518.009,1758079517.91704,0.0,0.0,0.0,21.7724,-8.47978,-9.39651,9.43,-1.16,4.23,3.0
1758079518.01008,1758079517.92704,0.0,0.0,0.0,26.35606,-14.78231,-2.29183,7.51,-0.84,3.87,3.0
1758079518.02488,1758079517.93704,0.0,0.0,0.0,28.76248,-24.17882,1.43239,7.51,-0.84,3.87,3.0
1758079518.04215,1758079517.94704,0.0,0.0,0.0,30.19488,-29.8511,4.1253,6.12,-0.69,3.55,3.0
1758079518.0439,1758079517.95704,0.0,0.0,0.0,30.82513,-35.2369,5.61499,6.12,-0.69,3.55,3.0
1758079518.0589,1758079517.96704,0.0,0.0,0.0,30.30947,-41.76862,5.72958,5.74,-0.36,3.21,3.0
1758079518.06009,1758079517.97704,0.0,0.0,0.0,28.64789,-45.55015,4.0107,6.08,0.16,3.0,3.0
1758079518.07525,1758079517.98704,0.0,0.0,0.0,26.35606,-48.75871,1.83346,6.08,0.16,3.0,3.0
1758079518.07952,1758079517.99704,0.0,0.0,0.0,23.49127,-50.64947,-0.68755,6.66,0.71,2.86,3.0
1758079518.09592,1758079518.00704,0.0,0.0,0.0,19.07949,-50.59217,-4.87014,6.66,0.71,2.86,3.0
1758079518.11191,1758079518.01704,0.0,0.0,0.0,16.55848,-48.58683,-7.62034,7.45,1.06,2.7,3.0
1758079518.11261,1758079518.02704,0.0,0.0,0.0,14.78231,-45.60744,-9.85487,7.45,1.06,2.7,3.0
1758079518.12892,1758079518.03704,0.0,0.0,0.0,13.98017,-41.71133,-11.57375,8.21,1.15,2.73,3.0
1758079518.13013,1758079518.04704,0.0,0.0,0.0,14.20935,-34.14828,-13.75099,8.79,0.97,2.6,3.0
1758079518.1466,1758079518.05704,0.0,0.0,0.0,15.12609,-28.76248,-14.83961,8.79,0.97,2.6,3.0
1758079518.16384,1758079518.06704,0.0,0.0,0.0,16.61578,-23.37668,-15.69904,9.16,0.64,2.62,3.0
1758079518.16423,1758079518.07704,0.0,0.0,0.0,18.50654,-17.36062,-16.90226,9.16,0.64,2.62,3.0
1758079518.16877,1758079518.08704,0.0,0.0,0.0,21.48592,-8.36518,-18.10547,9.49,0.38,2.59,3.0
1758079518.18424,1758079518.09704,0.0,0.0,0.0,23.31938,-0.97403,-18.90761,9.49,0.38,2.59,3.0
1758079518.20111,1758079518.10704,0.0,0.0,0.0,25.55392,4.87014,-18.9649,9.8,0.29,2.68,3.0
1758079518.20203,1758079518.11704,0.0,0.0,0.0,27.38738,9.74028,-20.22541,9.8,0.29,2.68,3.0
1758079518.21718,1758079518.12704,0.0,0.0,0.0,29.33544,16.272,-21.02755,9.47,0.34,2.77,3.0
1758079518.22163,1758079518.13704,0.0,0.0,0.0,30.53865,19.82434,-21.37133,9.39,0.55,2.67,3.0
1758079518.23895,1758079518.14704,0.0,0.0,0.0,31.39809,22.51724,-21.7724,9.39,0.55,2.67,3.0
1758079518.24048,1758079518.15704,0.0,0.0,0.0,32.37212,23.49127,-21.7724,9.13,0.79,2.69,3.0
1758079518.25814,1758079518.16704,0.0,0.0,0.0,32.42941,24.29341,-21.7151,9.13,0.79,2.69,3.0
1758079518.25981,1758079518.17704,0.0,0.0,0.0,32.42941,24.57989,-20.97026,9.0,0.96,2.62,3.0
1758079518.27788,1758079518.18704,0.0,0.0,0.0,31.97105,24.35071,-19.99623,9.0,0.96,2.62,3.0
1758079518.27951,1758079518.19704,0.0,0.0,0.0,31.39809,22.91831,-17.6471,8.7,1.04,2.55,3.0
1758079518.29674,1758079518.20704,0.0,0.0,0.0,30.65324,21.48592,-15.75634,8.4,1.09,2.61,3.0
1758079518.29853,1758079518.21704,0.0,0.0,0.0,29.67921,20.11082,-14.20935,8.4,1.09,2.61,3.0
1758079518.31428,1758079518.22704,0.0,0.0,0.0,28.41871,17.93358,-12.54778,8.12,1.13,2.47,3.0
1758079518.3308,1758079518.23704,0.0,0.0,0.0,26.35606,14.66772,-11.11538,8.12,1.13,2.47,3.0
1758079518.33308,1758079518.24704,0.0,0.0,0.0,24.57989,12.43318,-10.54242,7.98,1.28,2.4,3.0
1758079518.34961,1758079518.25704,0.0,0.0,0.0,22.40265,9.28192,-10.8289,7.98,1.28,2.4,3.0
1758079518.39351,1758079518.26704,0.0,0.0,0.0,20.05352,5.78687,-11.57375,7.87,1.5,2.35,3.0
1758079518.39413,1758079518.27704,0.0,0.0,0.0,16.272,0.17189,-13.40721,7.82,1.75,2.09,3.0
1758079518.39711,1758079518.28704,0.0,0.0,0.0,13.80828,-3.03668,-14.9542,7.82,1.75,2.09,3.0
1758079518.39865,1758079518.29704,0.0,0.0,0.0,11.45916,-5.90147,-15.87093,7.89,1.88,1.99,3.0
1758079518.39959,1758079518.30704,0.0,0.0,0.0,9.68299,-8.70896,-16.272,7.89,1.88,1.99,3.0
1758079518.40025,1758079518.31704,0.0,0.0,0.0,7.33386,-11.63104,-15.75634,8.03,1.73,1.86,3.0
1758079518.41873,1758079518.32704,0.0,0.0,0.0,6.18794,-12.77696,-14.83961,8.03,1.73,1.86,3.0
1758079518.42044,1758079518.33704,0.0,0.0,0.0,5.4431,-12.71966,-13.5791,8.25,1.46,1.85,3.0
1758079518.42839,1758079518.34704,0.0,0.0,0.0,4.87014,-12.14671,-11.34457,8.25,1.46,1.85,3.0
1758079518.44433,1758079518.35704,0.0,0.0,0.0,4.69825,-11.11538,-10.25595,8.53,1.26,1.91,3.0
1758079518.46196,1758079518.36704,0.0,0.0,0.0,4.58366,-9.39651,-9.39651,8.81,1.19,1.96,3.0
1758079518.46262,1758079518.37704,0.0,0.0,0.0,4.52637,-7.39116,-8.88085,8.81,1.19,1.96,3.0
1758079518.4782,1758079518.38704,0.0,0.0,0.0,4.58366,-3.83882,-9.22462,9.03,1.23,1.97,3.0
1758079518.4792,1758079518.39704,0.0,0.0,0.0,4.35448,-1.43239,-9.39651,9.03,1.23,1.97,3.0
1758079518.49431,1758079518.40704,0.0,0.0,0.0,3.89611,0.68755,-9.91217,9.12,1.32,1.89,3.0
1758079518.51087,1758079518.41704,0.0,0.0,0.0,3.32316,2.7502,-10.02676,9.12,1.32,1.89,3.0
1758079518.514,1758079518.42704,0.0,0.0,0.0,2.46372,5.4431,-10.31324,9.15,1.46,1.77,3.0
1758079518.53087,1758079518.43704,0.0,0.0,0.0,1.71887,6.70361,-9.5684,9.18,1.57,1.82,3.0
1758079518.5321,1758079518.44704,0.0,0.0,0.0,0.51566,7.67763,-8.65166,9.18,1.57,1.82,3.0
1758079518.54896,1758079518.45704,0.0,0.0,0.0,-0.80214,8.93814,-7.33386,9.35,1.63,1.93,3.0
1758079518.55072,1758079518.46704,0.0,0.0,0.0,-3.83882,11.74564,-6.7609,9.35,1.63,1.93,3.0
1758079518.56697,1758079518.47704,0.0,0.0,0.0,-5.95876,10.48513,-6.99009,9.34,1.75,2.1,3.0
1758079518.56809,1758079518.48704,0.0,0.0,0.0,-8.0787,7.96411,-7.16197,9.34,1.75,2.1,3.0
1758079518.58387,1758079518.49704,0.0,0.0,0.0,-9.96947,4.58366,-7.50575,9.02,1.86,2.06,3.0
1758079518.60083,1758079518.50704,0.0,0.0,0.0,-13.06344,-0.0573,-7.67763,9.12,1.91,1.9,3.0
1758079518.60372,1758079518.51704,0.0,0.0,0.0,-15.0115,-2.92208,-7.84952,9.12,1.91,1.9,3.0
1758079518.61907,1758079518.52704,0.0,0.0,0.0,-16.84496,-4.92744,-8.30789,9.29,1.91,1.7,3.0
1758079518.62143,1758079518.53704,0.0,0.0,0.0,-19.19409,-5.27121,-8.99544,9.29,1.91,1.7,3.0
1758079518.63718,1758079518.54704,0.0,0.0,0.0,-20.62648,-5.84417,-9.05273,9.65,1.95,1.73,3.0
1758079518.63892,1758079518.55704,0.0,0.0,0.0,-21.31403,-6.8182,-9.5684,9.65,1.95,1.73,3.0
1758079518.65436,1758079518.56704,0.0,0.0,0.0,-22.23076,-7.62034,-9.5684,9.75,1.97,1.64,3.0
1758079518.6709,1758079518.57704,0.0,0.0,0.0,-23.20479,-5.72958,-8.25059,9.75,1.97,1.64,3.0
1758079518.67209,1758079518.58704,0.0,0.0,0.0,-23.49127,-4.29718,-7.04738,10.09,1.95,1.51,3.0
1758079518.68737,1758079518.59704,0.0,0.0,0.0,-23.94964,-2.46372,-5.84417,10.44,1.87,1.83,3.0
1758079518.68866,1758079518.60704,0.0,0.0,0.0,-23.72045,-0.85944,-4.23989,10.44,1.87,1.83,3.0
1758079518.7031,1758079518.61704,0.0,0.0,0.0,-23.66316,-6.35983,-3.03668,10.72,1.95,1.86,3.0
1758079518.71912,1758079518.62704,0.0,0.0,0.0,-24.4653,-12.2613,-2.6929,10.72,1.95,1.86,3.0
1758079518.72034,1758079518.63704,0.0,0.0,0.0,-24.00693,-14.38124,-1.14592,11.27,2.06,1.95,3.0
1758079518.73511,1758079518.64704,0.0,0.0,0.0,-24.00693,0.57296,-2.40642,11.27,2.06,1.95,3.0
1758079518.73641,1758079518.65704,0.0,0.0,0.0,-27.73116,-18.56383,-10.19865,13.62,2.38,2.37,3.0
1758079518.75255,1758079518.66704,0.0,0.0,0.0,-30.59595,-16.90226,-18.44924,13.52,2.81,4.45,3.0
1758079518.76815,1758079518.67704,0.0,0.0,0.0,-29.56462,-1.60428,-22.63183,13.52,2.81,4.45,3.0
1758079518.76979,1758079518.68704,0.0,0.0,0.0,-26.64254,16.67307,-23.60586,15.73,2.41,3.11,3.0
1758079518.78437,1758079518.69704,0.0,0.0,0.0,-23.37668,28.476,-22.68913,15.73,2.41,3.11,3.0
1758079518.81349,1758079518.70704,0.0,0.0,0.0,-20.74107,32.37212,-19.48057,13.84,1.32,3.49,3.0
1758079518.81897,1758079518.71704,0.0,0.0,0.0,-18.16276,38.61736,-15.12609,13.84,1.32,3.49,3.0
1758079518.81943,1758079518.72704,0.0,0.0,0.0,-16.3293,45.09178,-7.33386,14.77,0.95,3.82,3.0
1758079518.8245,1758079518.73704,0.0,0.0,0.0,-16.67307,44.8053,-2.29183,14.4,1.73,3.95,3.0
1758079518.84017,1758079518.74704,0.0,0.0,0.0,-19.19409,41.13837,1.48969,14.4,1.73,3.95,3.0
1758079518.84297,1758079518.75704,0.0,0.0,0.0,-23.0329,36.55471,4.58366,12.5,2.61,4.55,3.0
1758079518.85855,1758079518.76704,0.0,0.0,0.0,-29.96569,30.53865,6.8182,12.5,2.61,4.55,3.0
1758079518.85938,1758079518.77704,0.0,0.0,0.0,-34.26288,26.18417,7.10468,10.29,2.88,4.51,3.0
1758079518.87825,1758079518.78704,0.0,0.0,0.0,-37.75792,20.34,6.58902,10.29,2.88,4.51,3.0
1758079518.87938,1758079518.79704,0.0,0.0,0.0,-41.02378,12.77696,5.27121,7.99,2.74,4.77,3.0
1758079518.89822,1758079518.80704,0.0,0.0,0.0,-44.748,-0.51566,2.6929,7.99,2.74,4.08,3.0
1758079518.89939,1758079518.81704,0.0,0.0,0.0,-46.81066,-10.37054,1.03132,6.29,2.37,4.08,3.0
1758079518.94705,1758079518.82704,0.0,0.0,0.0,-48.35764,-19.48057,-0.17189,5.64,2.06,3.39,3.0
1758079518.94985,1758079518.83704,0.0,0.0,0.0,-49.21708,-28.476,-0.11459,5.64,2.06,3.39,3.0
1758079518.95316,1758079518.84704,0.0,0.0,0.0,-49.04519,-38.90384,1.71887,5.81,1.68,3.18,3.0
1758079518.95438,1758079518.85704,0.0,0.0,0.0,-48.07116,-43.65939,3.95341,5.81,1.68,3.18,3.0
1758079518.95486,1758079518.86704,0.0,0.0,0.0,-46.1231,-47.15443,6.24524,6.72,1.09,3.44,3.0
1758079518.95913,1758079518.87704,0.0,0.0,0.0,-43.31561,-49.84733,8.42248,6.72,1.09,3.44,3.0
1758079518.97452,1758079518.88704,0.0,0.0,0.0,-38.38818,-49.79003,10.37054,7.81,0.45,3.58,3.0
1758079518.97733,1758079518.89704,0.0,0.0,0.0,-34.77854,-48.41494,10.8862,8.72,0.0,3.21,3.0
