timeStamp,timeStampAlign,roll,pitch,yaw,gyro_x,gyro_y,gyro_z,acc_x,acc_y,acc_z,flag_num
1758077840.0027,1758077839.94577,0.0,0.0,0.0,-13.69369,-12.60507,-0.17189,12.45,2.24,-0.4,2.0
1758077840.01879,1758077839.95577,0.0,0.0,0.0,-20.05352,-16.38659,0.68755,12.45,2.24,-0.4,2.0
1758077840.02002,1758077839.96577,0.0,0.0,0.0,-23.66316,-14.43854,2.34913,12.3,1.6,-0.95,2.0
1758077840.03479,1758077839.97577,0.0,0.0,0.0,-26.18417,-7.39116,5.27121,12.3,1.6,-0.95,2.0
1758077840.05101,1758077839.98577,0.0,0.0,0.0,-27.84575,1.3751,8.47978,12.77,0.79,-1.3,2.0
1758077840.0523,1758077839.99577,0.0,0.0,0.0,-28.476,4.29718,11.00079,11.99,0.79,-0.28,2.0
1758077840.06693,1758077840.00577,0.0,0.0,0.0,-28.41871,-4.0107,11.34457,11.99,0.16,-0.28,2.0
1758077840.0683,1758077840.01577,0.0,0.0,0.0,-27.50197,-20.97026,11.57375,11.52,1.0,1.7,2.0
1758077840.08302,1758077840.02577,0.0,0.0,0.0,-23.54857,-48.58683,10.48513,11.52,1.0,1.7,2.0
1758077840.09878,1758077840.03577,0.0,0.0,0.0,-13.23533,-89.83979,0.34377,11.23,0.63,5.29,2.0
1758077840.10004,1758077840.04577,0.0,0.0,0.0,-8.76626,-109.43494,-9.96947,11.23,0.63,5.29,2.0
1758077840.11563,1758077840.05577,0.0,0.0,0.0,-4.18259,-112.98728,-16.50119,13.54,-1.01,5.42,2.0
1758077840.11676,1758077840.06577,0.0,0.0,0.0,-2.92208,-87.43336,-20.22541,13.54,-1.01,5.42,2.0
1758077840.13321,1758077840.07577,0.0,0.0,0.0,-7.79223,-52.19646,-25.21014,13.95,-1.02,3.16,2.0
1758077840.14882,1758077840.08577,0.0,0.0,0.0,-13.34992,-51.85268,-26.01229,8.51,0.37,2.95,2.0
1758077840.15006,1758077840.09577,0.0,0.0,0.0,-20.51189,-60.10328,-26.01229,8.51,0.37,2.95,2.0
1758077840.16486,1758077840.10577,0.0,0.0,0.0,-27.96034,-60.38975,-21.31403,6.73,1.24,2.0,2.0
1758077840.18112,1758077840.11577,0.0,0.0,0.0,-37.58603,-46.75336,-15.35527,6.73,1.24,2.0,2.0
1758077840.18252,1758077840.12577,0.0,0.0,0.0,-42.05511,-38.44547,-8.02141,9.47,1.02,1.13,2.0
1758077840.19716,1758077840.13577,0.0,0.0,0.0,-44.748,-28.99167,-0.74485,9.47,1.02,1.13,2.0
1758077840.1983,1758077840.14577,0.0,0.0,0.0,-45.20637,-12.60507,8.42248,10.21,0.31,1.27,2.0
1758077840.21312,1758077840.15577,0.0,0.0,0.0,-44.11775,-3.60963,11.86023,9.46,-0.17,1.03,2.0
1758077840.22891,1758077840.16577,0.0,0.0,0.0,-42.1124,2.34913,12.89155,9.46,-0.17,1.03,2.0
1758077840.23093,1758077840.17577,0.0,0.0,0.0,-40.50812,5.78687,11.22997,8.12,-0.34,0.88,2.0
1758077840.24591,1758077840.18577,0.0,0.0,0.0,-38.90384,8.88085,5.84417,8.12,-0.34,0.88,2.0
1758077840.24747,1758077840.19577,0.0,0.0,0.0,-38.21629,10.25595,1.48969,7.79,-0.5,1.37,2.0
1758077840.26288,1758077840.20577,0.0,0.0,0.0,-36.7266,11.45916,-2.11994,7.79,-0.5,1.37,2.0
1758077840.27887,1758077840.21577,0.0,0.0,0.0,-35.2942,12.83425,-5.32851,7.85,-1.04,1.84,2.0
1758077840.28012,1758077840.22577,0.0,0.0,0.0,-30.65324,18.79302,-7.67763,8.43,-1.75,1.72,2.0
1758077840.29492,1758077840.23577,0.0,0.0,0.0,-26.98631,24.75178,-7.73493,8.43,-1.75,1.72,2.0
1758077840.3109,1758077840.24577,0.0,0.0,0.0,-22.91831,31.11161,-7.10468,8.89,-2.05,0.9,2.0
1758077840.31211,1758077840.25577,0.0,0.0,0.0,-18.90761,35.52338,-5.55769,8.89,-2.05,0.9,2.0
1758077840.3273,1758077840.26577,0.0,0.0,0.0,-14.78231,40.50812,-3.32316,8.92,-1.71,0.1,2.0
1758077840.32835,1758077840.27577,0.0,0.0,0.0,-13.12073,45.03448,-2.23454,8.92,-1.71,0.1,2.0
1758077840.34294,1758077840.28577,0.0,0.0,0.0,-12.08941,48.12846,-0.97403,9.47,-1.07,-0.22,2.0
1758077840.35928,1758077840.29577,0.0,0.0,0.0,-11.34457,47.38361,-0.0573,9.47,-1.07,-0.22,2.0
1758077840.36046,1758077840.30577,0.0,0.0,0.0,-10.19865,47.15443,0.11459,9.58,-0.55,-0.1,2.0
1758077840.37495,1758077840.31577,0.0,0.0,0.0,-9.74028,47.49821,-0.57296,10.07,-0.28,-0.07,2.0
1758077840.39096,1758077840.32577,0.0,0.0,0.0,-9.33921,48.30034,-1.77617,10.07,-0.28,-0.07,2.0
1758077840.39216,1758077840.33577,0.0,0.0,0.0,-8.42248,48.01387,-4.23989,9.97,-0.31,0.21,2.0
1758077840.40698,1758077840.34577,0.0,0.0,0.0,-7.73493,47.95657,-5.90147,9.97,-0.31,0.21,2.0
1758077840.40824,1758077840.35577,0.0,0.0,0.0,-6.7609,48.64412,-7.62034,9.76,-0.48,0.39,2.0
1758077840.42301,1758077840.36577,0.0,0.0,0.0,-5.55769,49.79003,-9.22462,9.76,-0.48,0.39,2.0
1758077840.43896,1758077840.37577,0.0,0.0,0.0,-3.49504,50.93595,-11.00079,9.82,-0.66,0.26,2.0
1758077840.4402,1758077840.38577,0.0,0.0,0.0,-1.77617,49.61814,-11.91752,9.81,-0.74,0.13,2.0
1758077840.45505,1758077840.39577,0.0,0.0,0.0,-0.11459,46.2377,-12.2613,9.81,-0.74,0.13,2.0
1758077840.47183,1758077840.40577,0.0,0.0,0.0,1.94806,40.68,-12.2613,9.6,-0.72,-0.06,2.0
1758077840.47333,1758077840.41577,0.0,0.0,0.0,5.61499,33.34615,-12.204,9.6,-0.72,-0.06,2.0
1758077840.4883,1758077840.42577,0.0,0.0,0.0,8.02141,27.50197,-11.91752,9.58,-0.78,-0.54,2.0
1758077840.48947,1758077840.43577,0.0,0.0,0.0,11.17268,18.50654,-11.28727,9.58,-0.78,-0.54,2.0
1758077840.50431,1758077840.44577,0.0,0.0,0.0,14.20935,7.16197,-10.48513,9.0,-1.13,-0.61,2.0
1758077840.52149,1758077840.45577,0.0,0.0,0.0,20.16812,-9.96947,-7.84952,8.71,-1.79,-0.71,2.0
1758077840.52225,1758077840.46577,0.0,0.0,0.0,24.4653,-21.42862,-5.95876,8.71,-1.79,-0.71,2.0
1758077840.53735,1758077840.47577,0.0,0.0,0.0,28.87707,-31.2262,-3.20856,8.84,-2.36,-1.06,2.0
1758077840.53822,1758077840.48577,0.0,0.0,0.0,33.40344,-39.99245,-0.0573,8.84,-2.36,-1.06,2.0
1758077840.55342,1758077840.49577,0.0,0.0,0.0,40.85189,-57.58226,6.24524,8.93,-2.26,-1.33,2.0
1758077840.57036,1758077840.50577,0.0,0.0,0.0,44.00316,-65.2599,5.09932,8.93,-2.26,-1.33,2.0
1758077840.57126,1758077840.51577,0.0,0.0,0.0,50.1911,-67.32255,5.09932,8.74,-1.59,-2.13,2.0
1758077840.58618,1758077840.52577,0.0,0.0,0.0,59.98868,-56.952,2.40642,8.74,-1.59,-2.13,2.0
1758077840.58792,1758077840.53577,0.0,0.0,0.0,67.37984,-36.84119,-1.48969,10.16,-1.15,-2.36,2.0
1758077840.60306,1758077840.54577,0.0,0.0,0.0,75.51585,-27.96034,-5.55769,9.69,-1.02,-1.91,2.0
1758077840.61904,1758077840.55577,0.0,0.0,0.0,82.67782,-24.5226,-8.93814,9.69,-1.02,-1.91,2.0
1758077840.62023,1758077840.56577,0.0,0.0,0.0,89.78249,-28.93437,-9.96947,10.02,-1.43,0.95,2.0
1758077840.63507,1758077840.57577,0.0,0.0,0.0,88.98035,-33.9764,-6.13065,10.02,-1.43,0.95,2.0
1758077840.65106,1758077840.58577,0.0,0.0,0.0,81.36001,-44.63341,4.92744,16.02,-1.8,8.05,2.0
1758077840.65282,1758077840.59577,0.0,0.0,0.0,74.94289,-83.42266,30.25217,16.02,-1.8,8.05,2.0
1758077840.66708,1758077840.60577,0.0,0.0,0.0,63.13995,-116.8261,57.29578,19.21,1.26,12.11,2.0
1758077840.66827,1758077840.61577,0.0,0.0,0.0,58.67088,-97.9185,66.34852,16.9,2.52,2.87,2.0
1758077840.6831,1758077840.62577,0.0,0.0,0.0,52.48294,-60.10328,68.86953,16.9,2.52,2.87,2.0
1758077840.70009,1758077840.63577,0.0,0.0,0.0,50.76406,-36.03905,65.66096,12.22,1.04,1.17,2.0
1758077840.70132,1758077840.64577,0.0,0.0,0.0,55.29043,-34.95043,49.50356,12.22,1.04,1.17,2.0
1758077840.71607,1758077840.65577,0.0,0.0,0.0,60.27517,-25.89769,34.95043,7.54,-0.23,3.56,2.0
1758077840.71759,1758077840.66577,0.0,0.0,0.0,61.24919,-3.49504,18.73572,7.54,-0.23,3.56,2.0
1758077840.73305,1758077840.67577,0.0,0.0,0.0,59.81679,14.78231,4.1253,12.82,1.42,3.5,2.0
1758077840.74914,1758077840.68577,0.0,0.0,0.0,54.08722,34.77854,-10.65701,13.89,2.9,2.19,2.0
1758077840.75112,1758077840.69577,0.0,0.0,0.0,49.38896,52.08187,-16.73037,13.89,2.9,2.19,2.0
1758077840.76638,1758077840.70577,0.0,0.0,0.0,44.11775,66.11933,-19.88164,12.06,2.31,0.88,2.0
1758077840.7676,1758077840.71577,0.0,0.0,0.0,39.70598,73.3386,-18.16276,12.06,2.31,0.88,2.0
1758077840.78313,1758077840.72577,0.0,0.0,0.0,34.49206,80.1568,-15.35527,8.89,1.26,0.66,2.0
1758077840.79915,1758077840.73577,0.0,0.0,0.0,31.56997,83.19347,-12.54778,8.89,1.26,0.66,2.0
1758077840.80034,1758077840.74577,0.0,0.0,0.0,28.41871,85.42801,-11.45916,7.68,0.75,0.73,2.0
1758077840.81546,1758077840.75577,0.0,0.0,0.0,22.23076,87.0323,-8.88085,7.68,0.75,0.73,2.0
1758077840.81744,1758077840.76577,0.0,0.0,0.0,18.56383,86.68852,-7.79223,6.88,0.92,0.35,2.0
1758077840.83343,1758077840.77577,0.0,0.0,0.0,14.66772,86.975,-7.16197,6.5,0.93,0.59,2.0
1758077840.84945,1758077840.78577,0.0,0.0,0.0,11.11538,85.14153,-6.7609,6.5,0.93,0.59,2.0
1758077840.85039,1758077840.79577,0.0,0.0,0.0,5.84417,75.80232,-6.58902,6.11,0.9,1.12,2.0
1758077840.86631,1758077840.80577,0.0,0.0,0.0,2.6929,66.5204,-6.41713,6.11,0.9,1.12,2.0
1758077840.86719,1758077840.81577,0.0,0.0,0.0,-0.0573,58.3844,-6.13065,5.93,1.04,1.04,2.0
1758077840.88318,1758077840.82577,0.0,0.0,0.0,-2.63561,49.04519,-6.07335,5.93,1.04,1.04,2.0
1758077840.90044,1758077840.83577,0.0,0.0,0.0,-5.50039,35.3515,-6.7609,6.52,1.39,0.84,2.0
1758077840.90178,1758077840.84577,0.0,0.0,0.0,-6.58902,28.30412,-7.67763,7.64,1.59,1.1,2.0
1758077840.91621,1758077840.85577,0.0,0.0,0.0,-6.24524,21.94428,-7.84952,7.64,1.59,1.1,2.0
1758077840.91775,1758077840.86577,0.0,0.0,0.0,-5.84417,18.85031,-8.76626,8.62,1.25,1.17,2.0
1758077840.93402,1758077840.87577,0.0,0.0,0.0,-3.09397,12.37589,-8.0787,8.62,1.25,1.17,2.0
1758077840.95126,1758077840.88577,0.0,0.0,0.0,-0.57296,7.44845,-6.41713,8.6,0.47,1.02,2.0
1758077840.95278,1758077840.89577,0.0,0.0,0.0,2.23454,1.77617,-4.1253,8.6,0.47,1.02,2.0
1758077840.96718,1758077840.90577,0.0,0.0,0.0,4.69825,-0.74485,-1.71887,8.4,-0.47,0.51,2.0
1758077840.96855,1758077840.91577,0.0,0.0,0.0,7.67763,1.3751,4.0107,9.27,-0.96,0.37,2.0
1758077840.98359,1758077840.92577,0.0,0.0,0.0,8.47978,4.64096,7.44845,9.27,-0.96,0.37,2.0
1758077841.00058,1758077840.93577,0.0,0.0,0.0,8.0787,9.22462,10.54242,10.31,-0.67,0.98,2.0
1758077841.0018,1758077840.94577,0.0,0.0,0.0,5.4431,11.80293,13.34992,10.31,-0.67,0.98,2.0
1758077841.01662,1758077840.95577,0.0,0.0,0.0,1.77617,9.5684,12.89155,10.48,0.23,1.41,2.0
1758077841.01745,1758077840.96577,0.0,0.0,0.0,-2.6929,4.69825,10.59972,10.48,0.23,1.41,2.0
1758077841.03354,1758077840.97577,0.0,0.0,0.0,-7.50575,-2.40642,6.47442,9.92,1.23,1.04,2.0
1758077841.04934,1758077840.98577,0.0,0.0,0.0,-15.64175,-17.13144,-2.29183,9.92,1.23,1.04,2.0
1758077841.05044,1758077840.99577,0.0,0.0,0.0,-20.51189,-34.14828,-5.61499,9.28,2.12,0.06,2.0
1758077841.06555,1758077841.00577,0.0,0.0,0.0,-24.57989,-47.38361,-9.96947,8.92,2.37,-0.75,2.0
1758077841.08156,1758077841.01577,0.0,0.0,0.0,-28.24682,-61.07731,-11.86023,8.92,2.37,-0.75,2.0
1758077841.08254,1758077841.02577,0.0,0.0,0.0,-35.00772,-60.27517,-9.91217,10.12,2.29,-0.88,2.0
1758077841.09738,1758077841.03577,0.0,0.0,0.0,-40.33623,-29.62192,-9.62569,10.12,2.29,-0.88,2.0
1758077841.09962,1758077841.04577,0.0,0.0,0.0,-45.72203,-1.48969,-7.16197,14.56,1.73,0.26,2.0
1758077841.11501,1758077841.05577,0.0,0.0,0.0,-45.37826,-19.70975,-1.43239,14.56,1.73,0.26,2.0
1758077841.13126,1758077841.06577,0.0,0.0,0.0,-54.431,-44.28964,-1.03132,9.6,0.71,1.01,2.0
1758077841.13326,1758077841.07577,0.0,0.0,0.0,-59.47303,-41.88322,-2.29183,9.92,0.67,-1.54,2.0
1758077841.14914,1758077841.08577,0.0,0.0,0.0,-64.11398,-31.91375,-0.34377,9.92,0.67,-1.54,2.0
1758077841.15106,1758077841.09577,0.0,0.0,0.0,-68.35387,-18.10547,2.6929,10.7,0.32,-1.22,2.0
1758077841.16664,1758077841.10577,0.0,0.0,0.0,-70.87489,-17.36062,8.136,10.7,0.32,-1.22,2.0
1758077841.16944,1758077841.11577,0.0,0.0,0.0,-67.9528,-37.24226,9.68299,11.41,-0.54,3.81,2.0
1758077841.1856,1758077841.12577,0.0,0.0,0.0,-61.59297,-64.45775,6.53172,11.41,-0.54,3.81,2.0
1758077841.20128,1758077841.13577,0.0,0.0,0.0,-52.71212,-89.15224,-14.38124,14.08,-1.67,8.16,2.0
1758077841.20255,1758077841.14577,0.0,0.0,0.0,-32.71589,-83.88103,-30.65324,22.24,-2.84,9.91,2.0
1758077841.21733,1758077841.15577,0.0,0.0,0.0,-17.01685,-69.90086,-42.74266,22.24,-2.84,9.91,2.0
1758077841.21941,1758077841.16577,0.0,0.0,0.0,-4.35448,-56.952,-46.1804,17.54,-2.23,5.38,2.0
1758077841.2346,1758077841.17577,0.0,0.0,0.0,7.62034,-47.89928,-43.4875,17.54,-2.23,5.38,2.0
1758077841.2506,1758077841.18577,0.0,0.0,0.0,7.62034,-41.65404,-35.98175,8.49,-0.11,2.68,2.0
1758077841.25231,1758077841.19577,0.0,0.0,0.0,0.97403,-34.89313,-25.49662,8.49,-0.11,2.68,2.0
1758077841.26859,1758077841.20577,0.0,0.0,0.0,-8.70896,-25.89769,-12.37589,6.08,0.36,-0.11,2.0
1758077841.27111,1758077841.21577,0.0,0.0,0.0,-25.15285,-9.85487,4.87014,7.42,0.36,0.28,2.0
1758077841.28636,1758077841.22577,0.0,0.0,0.0,-34.66395,-1.20321,12.71966,7.42,0.59,0.28,2.0
1758077841.28791,1758077841.23577,0.0,0.0,0.0,-41.59674,3.95341,16.84496,7.93,1.01,1.11,2.0
1758077841.30363,1758077841.24577,0.0,0.0,0.0,-43.14373,4.29718,20.45459,7.93,1.01,1.11,2.0
1758077841.32037,1758077841.25577,0.0,0.0,0.0,-38.21629,-0.34377,21.94428,7.06,0.37,2.39,2.0
1758077841.32188,1758077841.26577,0.0,0.0,0.0,-33.11696,-1.71887,18.73572,7.06,0.37,2.39,2.0
1758077841.33675,1758077841.27577,0.0,0.0,0.0,-25.8404,-0.85944,13.46451,7.99,-1.12,2.71,2.0
1758077841.33923,1758077841.28577,0.0,0.0,0.0,-17.6471,1.48969,7.79223,7.99,-1.12,2.71,2.0
1758077841.35538,1758077841.29577,0.0,0.0,0.0,-4.87014,9.05273,1.66158,8.58,-2.59,0.69,2.0
1758077841.37141,1758077841.30577,0.0,0.0,0.0,2.63561,15.0115,-0.51566,7.93,-2.69,-0.16,2.0
1758077841.37456,1758077841.31577,0.0,0.0,0.0,8.76626,20.22541,-0.85944,7.93,-2.69,-0.16,2.0
1758077841.3897,1758077841.32577,0.0,0.0,0.0,12.43318,23.26209,-0.74485,7.37,-1.85,0.0,2.0
1758077841.39069,1758077841.33577,0.0,0.0,0.0,14.66772,28.59059,-0.34377,7.37,-1.85,0.0,2.0
1758077841.4055,1758077841.34577,0.0,0.0,0.0,13.80828,32.83048,0.40107,8.35,-1.03,0.42,2.0
1758077841.42167,1758077841.35577,0.0,0.0,0.0,12.14671,37.81522,0.68755,8.35,-1.03,0.42,2.0
1758077841.42373,1758077841.36577,0.0,0.0,0.0,7.79223,38.73195,0.85944,9.71,-0.36,0.69,2.0
1758077841.43925,1758077841.37577,0.0,0.0,0.0,4.64096,38.21629,0.57296,9.77,0.22,0.91,2.0
1758077841.44044,1758077841.38577,0.0,0.0,0.0,1.3178,37.92981,0.0,9.77,0.22,0.91,2.0
1758077841.45549,1758077841.39577,0.0,0.0,0.0,-1.94806,38.44547,-1.03132,9.79,0.46,0.94,2.0
1758077841.47147,1758077841.40577,0.0,0.0,0.0,-6.53172,40.16434,-2.97938,9.79,0.46,0.94,2.0
1758077841.47281,1758077841.41577,0.0,0.0,0.0,-8.59437,40.39353,-4.52637,9.5,0.42,0.83,2.0
1758077841.48746,1758077841.42577,0.0,0.0,0.0,-10.25595,38.73195,-6.24524,9.5,0.42,0.83,2.0
1758077841.48945,1758077841.43577,0.0,0.0,0.0,-10.8289,35.86716,-7.79223,8.9,0.09,0.65,2.0
1758077841.50477,1758077841.44577,0.0,0.0,0.0,-9.5684,31.28349,-8.93814,8.8,-0.43,0.65,2.0
1758077841.52175,1758077841.45577,0.0,0.0,0.0,-6.8182,26.87172,-8.0787,8.8,-0.43,0.65,2.0
1758077841.52262,1758077841.46577,0.0,0.0,0.0,-3.49504,22.40265,-6.53172,8.99,-1.04,0.54,2.0
1758077841.53777,1758077841.47577,0.0,0.0,0.0,0.11459,23.49127,-4.98473,8.99,-1.04,0.54,2.0
1758077841.53862,1758077841.48577,0.0,0.0,0.0,5.4431,27.33009,-3.26586,9.95,-1.42,0.48,2.0
1758077841.5538,1758077841.49577,0.0,0.0,0.0,8.99544,25.72581,-2.11994,9.95,-1.42,0.48,2.0
1758077841.57155,1758077841.50577,0.0,0.0,0.0,12.83425,20.85567,-1.3751,9.6,-1.31,0.8,2.0
1758077841.57362,1758077841.51577,0.0,0.0,0.0,16.84496,13.23533,-0.85944,9.6,-1.31,0.8,2.0
1758077841.58878,1758077841.52577,0.0,0.0,0.0,22.63183,-3.09397,-0.34377,9.04,-1.09,0.06,2.0
1758077841.58969,1758077841.53577,0.0,0.0,0.0,26.52795,-19.42327,0.11459,8.25,-1.15,-1.06,2.0
1758077841.60475,1758077841.54577,0.0,0.0,0.0,29.27814,-41.13837,-0.22918,8.25,-1.15,-1.06,2.0
1758077841.62314,1758077841.55577,0.0,0.0,0.0,33.74722,-56.03527,-1.66158,7.73,-1.31,-2.16,2.0
1758077841.62333,1758077841.56577,0.0,0.0,0.0,36.26823,-47.15443,-1.71887,7.73,-1.31,-2.16,2.0
1758077841.63658,1758077841.57577,0.0,0.0,0.0,40.16434,-30.59595,2.57831,10.7,-1.59,-1.41,2.0
1758077841.63796,1758077841.58577,0.0,0.0,0.0,40.96649,-14.78231,2.7502,10.7,-1.59,-1.41,2.0
1758077841.65389,1758077841.59577,0.0,0.0,0.0,40.7946,-22.05888,-2.63561,11.07,-1.69,0.51,2.0
1758077841.6709,1758077841.60577,0.0,0.0,0.0,44.00316,-67.89551,0.17189,5.8,-1.24,-0.76,2.0
1758077841.67219,1758077841.61577,0.0,0.0,0.0,52.71212,-105.65342,5.95876,5.8,-1.24,-0.76,2.0
1758077841.68662,1758077841.62577,0.0,0.0,0.0,59.12925,-103.81995,10.48513,8.48,-1.62,-3.49,2.0
1758077841.68772,1758077841.63577,0.0,0.0,0.0,66.40582,-80.90164,12.08941,8.48,-1.62,-3.49,2.0
1758077841.7056,1758077841.64577,0.0,0.0,0.0,67.72362,-76.0315,13.06344,11.66,-1.32,-0.58,2.0
1758077841.72187,1758077841.65577,0.0,0.0,0.0,64.57235,-80.67246,17.81899,11.66,-1.32,-0.58,2.0
1758077841.72269,1758077841.66577,0.0,0.0,0.0,59.12925,-99.75195,28.64789,16.45,1.23,7.37,2.0
1758077841.73783,1758077841.67577,0.0,0.0,0.0,51.85268,-104.16373,55.11855,23.2,3.99,6.96,2.0
1758077841.73956,1758077841.68577,0.0,0.0,0.0,42.34158,-80.0995,62.5097,23.2,3.99,6.96,2.0
1758077841.75562,1758077841.69577,0.0,0.0,0.0,30.93972,-65.71826,60.16057,17.9,2.7,1.8,2.0
1758077841.77158,1758077841.70577,0.0,0.0,0.0,20.3973,-52.71212,54.08722,17.9,2.7,1.8,2.0
1758077841.77303,1758077841.71577,0.0,0.0,0.0,11.80293,-32.37212,39.13302,8.31,0.6,2.22,2.0
1758077841.78754,1758077841.72577,0.0,0.0,0.0,13.80828,-28.13223,27.67386,8.31,0.6,2.22,2.0
1758077841.78956,1758077841.73577,0.0,0.0,0.0,20.11082,-20.45459,18.16276,5.75,-0.5,2.5,2.0
1758077841.8046,1758077841.74577,0.0,0.0,0.0,28.07493,-1.71887,5.21392,5.75,-0.5,2.5,2.0
1758077841.8206,1758077841.75577,0.0,0.0,0.0,40.62271,26.06958,-0.97403,12.06,-0.75,3.54,2.0
1758077841.82178,1758077841.76577,0.0,0.0,0.0,46.98254,40.39353,-4.92744,14.9,-0.06,1.28,2.0
1758077841.83687,1758077841.77577,0.0,0.0,0.0,50.64947,56.14987,-6.53172,14.9,-0.06,1.28,2.0
1758077841.83805,1758077841.78577,0.0,0.0,0.0,49.79003,80.1568,-7.50575,13.9,0.59,0.01,2.0
1758077841.85478,1758077841.79577,0.0,0.0,0.0,46.98254,91.15759,-8.0787,13.9,0.59,0.01,2.0
1758077841.87064,1758077841.80577,0.0,0.0,0.0,43.4875,95.62666,-7.73493,10.78,0.91,0.21,2.0
1758077841.87186,1758077841.81577,0.0,0.0,0.0,40.27893,95.1683,-6.8182,10.78,0.91,0.21,2.0
1758077841.88659,1758077841.82577,0.0,0.0,0.0,35.63798,93.44942,-5.4431,7.83,1.07,0.73,2.0
1758077841.88786,1758077841.83577,0.0,0.0,0.0,32.48671,92.53268,-5.4431,6.97,1.06,0.79,2.0
1758077841.90366,1758077841.84577,0.0,0.0,0.0,29.96569,90.75652,-5.72958,6.97,1.06,0.79,2.0
1758077841.92192,1758077841.85577,0.0,0.0,0.0,27.61657,87.77714,-6.07335,6.64,1.16,0.71,2.0
1758077841.92235,1758077841.86577,0.0,0.0,0.0,24.17882,80.61517,-5.78687,6.64,1.16,0.71,2.0
1758077841.9377,1758077841.87577,0.0,0.0,0.0,22.57454,74.36993,-4.69825,6.56,1.24,0.99,2.0
1758077841.93924,1758077841.88577,0.0,0.0,0.0,21.08485,68.64035,-3.09397,6.56,1.24,0.99,2.0
1758077841.95362,1758077841.89577,0.0,0.0,0.0,19.59516,60.27517,-1.20321,6.91,1.05,1.11,2.0
1758077841.96971,1758077841.90577,0.0,0.0,0.0,17.24603,46.98254,1.3178,7.1,0.69,1.04,2.0
1758077841.97132,1758077841.91577,0.0,0.0,0.0,15.64175,38.1017,2.06265,7.1,0.69,1.04,2.0
1758077841.98576,1758077841.92577,0.0,0.0,0.0,14.03747,28.87707,1.94806,7.44,0.54,0.81,2.0
1758077842.00193,1758077841.93577,0.0,0.0,0.0,12.60507,20.79837,1.43239,7.44,0.54,0.81,2.0
1758077842.00232,1758077841.94577,0.0,0.0,0.0,11.80293,10.48513,1.43239,7.83,0.75,0.61,2.0
1758077842.01795,1758077841.95577,0.0,0.0,0.0,12.14671,4.64096,2.06265,7.83,0.75,0.61,2.0
1758077842.0189,1758077841.96577,0.0,0.0,0.0,12.54778,-0.57296,3.09397,8.14,0.93,0.98,2.0
1758077842.03394,1758077841.97577,0.0,0.0,0.0,13.46451,-0.34377,4.87014,8.14,0.93,0.98,2.0
1758077842.04971,1758077841.98577,0.0,0.0,0.0,13.80828,4.98473,5.21392,9.17,0.78,0.96,2.0
1758077842.05181,1758077841.99577,0.0,0.0,0.0,13.86558,10.31324,6.35983,10.14,0.45,1.03,2.0
1758077842.067,1758077842.00577,0.0,0.0,0.0,13.5218,14.61043,7.10468,10.14,0.45,1.03,2.0
1758077842.06899,1758077842.01577,0.0,0.0,0.0,11.45916,19.36597,7.96411,10.29,0.22,0.76,2.0
1758077842.08488,1758077842.02577,0.0,0.0,0.0,9.05273,17.30333,8.42248,10.29,0.22,0.76,2.0
1758077842.10095,1758077842.03577,0.0,0.0,0.0,5.84417,10.02676,8.25059,9.62,0.39,0.34,2.0
1758077842.10132,1758077842.04577,0.0,0.0,0.0,2.29183,-3.03668,7.62034,9.62,0.39,0.34,2.0
1758077842.11706,1758077842.05577,0.0,0.0,0.0,-3.38045,-28.24682,6.58902,8.35,1.0,-0.32,2.0
1758077842.11821,1758077842.06577,0.0,0.0,0.0,-7.04738,-43.88857,5.32851,8.14,1.6,-1.66,2.0
1758077842.13301,1758077842.07577,0.0,0.0,0.0,-11.17268,-56.89471,5.21392,8.14,1.6,-1.66,2.0
1758077842.14903,1758077842.08577,0.0,0.0,0.0,-15.87093,-59.64491,6.35983,9.82,2.41,-2.05,2.0
1758077842.15017,1758077842.09577,0.0,0.0,0.0,-24.5226,-26.87172,2.97938,9.82,2.41,-2.05,2.0
1758077842.16503,1758077842.10577,0.0,0.0,0.0,-29.50733,-0.22918,1.83346,13.8,2.93,-0.97,2.0
1758077842.18101,1758077842.11577,0.0,0.0,0.0,-30.53865,-24.12152,2.6929,13.8,2.93,-0.97,2.0
1758077842.18136,1758077842.12577,0.0,0.0,0.0,-38.15899,-46.98254,-2.46372,9.56,2.95,0.33,2.0
1758077842.197,1758077842.13577,0.0,0.0,0.0,-45.83662,-57.18119,-8.47978,10.59,2.77,-0.86,2.0
1758077842.19875,1758077842.14577,0.0,0.0,0.0,-50.47758,-54.08722,-11.63104,10.59,2.77,-0.86,2.0
1758077842.21538,1758077842.15577,0.0,0.0,0.0,-53.17049,-51.16513,-15.29797,12.27,1.74,1.0,2.0
1758077842.23207,1758077842.16577,0.0,0.0,0.0,-51.10783,-55.51962,-19.42327,12.27,1.74,1.0,2.0
1758077842.23242,1758077842.17577,0.0,0.0,0.0,-48.35764,-85.02695,-25.38203,13.94,-1.07,6.28,2.0
1758077842.24808,1758077842.18577,0.0,0.0,0.0,-43.65939,-92.41809,-33.34615,13.94,-1.07,6.28,2.0
1758077842.25095,1758077842.19577,0.0,0.0,0.0,-35.00772,-81.41731,-41.25296,18.56,-3.56,7.95,2.0
1758077842.26609,1758077842.20577,0.0,0.0,0.0,-16.04282,-70.47381,-43.14373,18.56,-3.56,7.95,2.0
1758077842.26811,1758077842.21577,0.0,0.0,0.0,-6.70361,-68.92683,-39.3622,19.21,-5.06,5.92,2.0
1758077842.28294,1758077842.22577,0.0,0.0,0.0,-0.68755,-63.54102,-33.17426,11.87,-2.19,3.79,2.0
1758077842.30019,1758077842.23577,0.0,0.0,0.0,1.20321,-55.97798,-24.75178,11.87,-2.19,3.79,2.0
1758077842.30102,1758077842.24577,0.0,0.0,0.0,-4.1253,-47.32632,-11.51645,8.1,-0.1,1.24,2.0
1758077842.31583,1758077842.25577,0.0,0.0,0.0,-11.63104,-37.12767,-3.09397,8.1,-0.1,1.24,2.0
1758077842.31731,1758077842.26577,0.0,0.0,0.0,-20.22541,-23.72045,6.18794,7.78,0.71,0.71,2.0
1758077842.33239,1758077842.27577,0.0,0.0,0.0,-30.25217,-11.74564,13.06344,7.78,0.71,0.71,2.0
1758077842.34798,1758077842.28577,0.0,0.0,0.0,-41.65404,1.60428,19.19409,8.2,0.86,0.19,2.0
1758077842.34932,1758077842.29577,0.0,0.0,0.0,-46.1804,10.08406,20.45459,8.09,0.6,0.54,2.0
1758077842.36494,1758077842.30577,0.0,0.0,0.0,-48.70141,16.55848,20.34,8.09,0.6,0.54,2.0
1758077842.36586,1758077842.31577,0.0,0.0,0.0,-49.33167,19.99623,17.93358,8.07,0.03,0.83,2.0
1758077842.38142,1758077842.32577,0.0,0.0,0.0,-47.72739,19.53786,10.54242,8.07,0.03,0.83,2.0
1758077842.39691,1758077842.33577,0.0,0.0,0.0,-44.28964,18.73572,4.81285,7.98,-0.9,1.59,2.0
1758077842.39836,1758077842.34577,0.0,0.0,0.0,-39.82057,18.50654,-0.51566,7.98,-0.9,1.59,2.0
1758077842.41316,1758077842.35577,0.0,0.0,0.0,-34.0337,21.02755,-4.58366,8.16,-2.0,1.41,2.0
1758077842.43127,1758077842.36577,0.0,0.0,0.0,-23.0902,27.78845,-7.84952,8.01,-2.62,0.54,2.0
1758077842.43673,1758077842.37577,0.0,0.0,0.0,-16.3293,30.02299,-7.96411,8.01,-2.62,0.54,2.0
1758077842.43715,1758077842.38577,0.0,0.0,0.0,-11.00079,29.9084,-7.79223,7.35,-2.39,0.13,2.0
1758077842.45335,1758077842.39577,0.0,0.0,0.0,-6.41713,31.79916,-6.8182,7.35,-2.39,0.13,2.0
1758077842.46911,1758077842.40577,0.0,0.0,0.0,-5.27121,34.77854,-5.90147,8.44,-1.68,0.0,2.0
1758077842.47098,1758077842.41577,0.0,0.0,0.0,-5.21392,35.98175,-5.15662,8.44,-1.68,0.0,2.0
1758077842.48624,1758077842.42577,0.0,0.0,0.0,-6.24524,32.48671,-3.66693,9.28,-0.86,-0.08,2.0
1758077842.48742,1758077842.43577,0.0,0.0,0.0,-8.70896,31.39809,-1.08862,9.28,-0.86,0.27,2.0
1758077842.50333,1758077842.44577,0.0,0.0,0.0,-10.65701,32.42941,0.11459,9.89,-0.28,0.27,2.0
1758077842.51896,1758077842.45577,0.0,0.0,0.0,-12.71966,31.97105,0.57296,9.94,-0.07,0.11,2.0
1758077842.52043,1758077842.46577,0.0,0.0,0.0,-14.32395,29.10626,0.34377,9.94,-0.07,0.11,2.0
1758077842.53597,1758077842.47577,0.0,0.0,0.0,-15.58445,22.97561,-1.14592,9.02,-0.3,0.4,2.0
1758077842.53718,1758077842.48577,0.0,0.0,0.0,-14.72501,19.36597,-2.34913,9.02,-0.3,0.4,2.0
1758077842.55361,1758077842.49577,0.0,0.0,0.0,-12.77696,16.04282,-3.60963,8.74,-0.8,0.04,2.0
1758077842.56922,1758077842.50577,0.0,0.0,0.0,-9.5684,14.66772,-4.35448,8.74,-0.8,0.04,2.0
1758077842.57093,1758077842.51577,0.0,0.0,0.0,-3.89611,19.36597,-5.72958,8.95,-1.3,-0.02,2.0
1758077842.58615,1758077842.52577,0.0,0.0,0.0,0.17189,24.63719,-6.24524,9.46,-1.54,0.16,2.0
1758077842.58715,1758077842.53577,0.0,0.0,0.0,3.95341,29.62192,-6.8182,9.46,-1.54,0.16,2.0
1758077842.60247,1758077842.54577,0.0,0.0,0.0,7.67763,32.25753,-7.50575,9.6,-1.48,0.4,2.0
1758077842.61924,1758077842.55577,0.0,0.0,0.0,12.14671,30.93972,-9.11003,9.6,-1.48,0.4,2.0
1758077842.62042,1758077842.56577,0.0,0.0,0.0,14.78231,26.01229,-10.31324,9.51,-1.3,0.26,2.0
1758077842.63501,1758077842.57577,0.0,0.0,0.0,16.95955,18.16276,-11.57375,9.51,-1.3,0.26,2.0
1758077842.63646,1758077842.58577,0.0,0.0,0.0,19.48057,7.39116,-13.5218,9.24,-1.09,-0.43,2.0
1758077842.65224,1758077842.59577,0.0,0.0,0.0,21.88699,-4.98473,-14.9542,9.32,-1.02,-1.27,2.0
1758077842.66923,1758077842.60577,0.0,0.0,0.0,24.57989,-0.80214,-16.38659,9.32,-1.02,-1.27,2.0
1758077842.67098,1758077842.61577,0.0,0.0,0.0,28.70519,7.50575,-12.71966,10.78,-1.56,-1.08,2.0
1758077842.68597,1758077842.62577,0.0,0.0,0.0,31.79916,26.24147,-11.86023,10.78,-1.56,-1.08,2.0
1758077842.68751,1758077842.63577,0.0,0.0,0.0,32.71589,19.19409,-15.06879,10.55,-1.88,0.37,2.0
1758077842.70254,1758077842.64577,0.0,0.0,0.0,34.66395,-31.85646,-13.5791,10.55,-1.88,0.37,2.0
1758077842.71897,1758077842.65577,0.0,0.0,0.0,44.51882,-77.57849,-5.50039,5.0,-1.83,-0.41,2.0
1758077842.72048,1758077842.66577,0.0,0.0,0.0,51.50891,-81.5319,5.55769,10.08,-2.15,-2.55,2.0
1758077842.735,1758077842.67577,0.0,0.0,0.0,55.86338,-74.771,9.22462,10.08,-2.15,-2.55,2.0
1758077842.73626,1758077842.68577,0.0,0.0,0.0,60.27517,-72.70835,7.84952,10.22,-1.25,-3.07,2.0
1758077842.75253,1758077842.69577,0.0,0.0,0.0,65.2026,-71.44785,4.35448,10.22,-1.25,-3.07,2.0
1758077842.77171,1758077842.70577,0.0,0.0,0.0,70.81759,-61.59297,-1.08862,9.99,-0.4,-0.74,2.0
1758077842.77368,1758077842.71576,0.0,0.0,0.0,70.01544,-51.22243,-8.136,9.99,-0.4,-0.74,2.0
1758077842.78928,1758077842.72576,0.0,0.0,0.0,65.37449,-48.24305,-11.22997,11.92,-0.17,1.48,2.0
1758077842.79046,1758077842.73576,0.0,0.0,0.0,56.03527,-54.02992,-11.11538,11.92,-0.17,1.48,2.0
1758077842.80607,1758077842.74576,0.0,0.0,0.0,45.14908,-95.62666,11.11538,16.05,1.42,6.72,2.0
1758077842.80725,1758077842.75576,0.0,0.0,0.0,40.68,-95.22559,33.05967,20.31,1.67,6.78,2.0
1758077842.82226,1758077842.76576,0.0,0.0,0.0,33.46074,-75.05748,46.81066,20.31,1.67,6.78,2.0
1758077842.82673,1758077842.77576,0.0,0.0,0.0,27.04361,-57.29578,54.14451,17.3,1.14,1.56,2.0
1758077842.84221,1758077842.78576,0.0,0.0,0.0,18.56383,-28.30412,54.08722,17.3,1.14,1.56,2.0
1758077842.85902,1758077842.79576,0.0,0.0,0.0,16.84496,-13.17803,49.67545,9.88,0.07,2.3,2.0
1758077842.86181,1758077842.80576,0.0,0.0,0.0,20.34,-11.45916,41.71133,9.88,0.07,2.3,2.0
1758077842.87741,1758077842.81576,0.0,0.0,0.0,28.24682,4.52637,25.09555,6.35,-1.0,2.26,2.0
1758077842.87903,1758077842.82576,0.0,0.0,0.0,33.00237,28.87707,11.80293,11.95,-1.0,2.72,2.0
1758077842.8943,1758077842.83576,0.0,0.0,0.0,36.89849,47.26902,-0.34377,11.95,-1.0,2.72,2.0
1758077842.91039,1758077842.84576,0.0,0.0,0.0,40.04975,60.33246,-9.05273,13.72,0.15,1.37,2.0
1758077842.91153,1758077842.85576,0.0,0.0,0.0,40.85189,77.75038,-14.66772,13.72,0.15,1.37,2.0
1758077842.92633,1758077842.86576,0.0,0.0,0.0,39.01843,86.975,-16.3293,12.6,0.84,0.46,2.0
1758077842.92724,1758077842.87576,0.0,0.0,0.0,35.92446,91.1003,-16.272,12.6,0.84,0.46,2.0
1758077842.94238,1758077842.88576,0.0,0.0,0.0,32.25753,90.47005,-14.9542,9.72,0.87,0.26,2.0
1758077842.95806,1758077842.89576,0.0,0.0,0.0,25.7831,85.31342,-12.60507,7.28,0.9,1.26,2.0
1758077842.95931,1758077842.90576,0.0,0.0,0.0,20.85567,81.24542,-11.34457,7.28,0.9,1.26,2.0
1758077842.97406,1758077842.91576,0.0,0.0,0.0,15.58445,76.26069,-10.25595,5.94,1.33,1.38,2.0
1758077842.97632,1758077842.92576,0.0,0.0,0.0,9.11003,71.16136,-9.5684,5.94,1.33,1.38,2.0
1758077842.99207,1758077842.93576,0.0,0.0,0.0,-1.14592,62.22322,-7.84952,5.6,2.1,1.42,2.0
1758077843.00808,1758077842.94576,0.0,0.0,0.0,-8.25059,54.02992,-5.78687,5.6,2.1,1.42,2.0
1758077843.01008,1758077842.95576,0.0,0.0,0.0,-15.06879,43.25832,-4.0107,5.86,2.82,1.08,2.0
1758077843.02624,1758077842.96576,0.0,0.0,0.0,-21.37133,33.51803,-2.63561,5.86,2.82,1.08,2.0
1758077843.02708,1758077842.97576,0.0,0.0,0.0,-28.76248,18.56383,-2.86479,6.89,2.94,0.78,2.0
1758077843.04238,1758077842.98576,0.0,0.0,0.0,-31.85646,10.08406,-5.21392,8.3,2.1,0.29,2.0
1758077843.05822,1758077842.99576,0.0,0.0,0.0,-33.11696,3.66693,-8.70896,8.3,2.1,0.29,2.0
1758077843.0596,1758077843.00576,0.0,0.0,0.0,-32.83048,-2.63561,-14.03747,9.7,0.73,0.37,2.0
1758077843.07529,1758077843.01576,0.0,0.0,0.0,-31.79916,-1.3751,-18.27736,9.7,0.73,0.37,2.0
1758077843.07691,1758077843.02576,0.0,0.0,0.0,-30.19488,2.6929,-21.42862,10.65,-0.26,0.44,2.0
1758077843.09423,1758077843.03576,0.0,0.0,0.0,-27.84575,7.39116,-23.31938,10.65,-0.26,0.44,2.0
1758077843.11096,1758077843.04576,0.0,0.0,0.0,-23.83505,12.89155,-23.0329,10.86,-0.86,0.56,2.0
1758077843.11324,1758077843.05576,0.0,0.0,0.0,-20.79837,15.58445,-21.25674,10.34,-1.09,0.63,2.0
1758077843.12898,1758077843.06576,0.0,0.0,0.0,-18.16276,17.18874,-18.50654,10.34,-1.09,0.63,2.0
1758077843.13371,1758077843.07576,0.0,0.0,0.0,-15.58445,16.84496,-15.12609,9.51,-1.04,0.45,2.0
1758077843.14815,1758077843.08576,0.0,0.0,0.0,-12.14671,11.17268,-9.39651,9.51,-1.04,0.45,2.0
1758077843.15092,1758077843.09576,0.0,0.0,0.0,-10.37054,3.60963,-4.92744,8.33,-0.92,-0.06,2.0
1758077843.16654,1758077843.10576,0.0,0.0,0.0,-9.05273,-2.23454,-1.3751,8.33,-0.92,-0.06,2.0
1758077843.16737,1758077843.11576,0.0,0.0,0.0,-8.70896,-9.91217,0.97403,7.77,-0.51,-0.57,2.0
1758077843.18251,1758077843.12576,0.0,0.0,0.0,-9.96947,-27.10091,2.23454,7.43,0.08,-1.29,2.0
1758077843.2005,1758077843.13576,0.0,0.0,0.0,-12.60507,-35.12231,3.95341,7.43,0.08,-1.29,2.0
1758077843.20167,1758077843.14576,0.0,0.0,0.0,-18.50654,-9.5684,0.57296,10.69,1.01,-1.29,2.0
1758077843.21652,1758077843.15576,0.0,0.0,0.0,-22.91831,24.00693,2.00535,10.69,1.01,-1.29,2.0
1758077843.21773,1758077843.16576,0.0,0.0,0.0,-27.96034,2.6929,3.95341,11.65,1.74,-0.38,2.0
1758077843.23247,1758077843.17576,0.0,0.0,0.0,-35.69527,-27.61657,-0.80214,11.65,1.74,-0.38,2.0
1758077843.2485,1758077843.18576,0.0,0.0,0.0,-39.64868,-39.64868,-4.98473,7.82,2.62,0.11,2.0
1758077843.2497,1758077843.19576,0.0,0.0,0.0,-46.86795,-40.45082,-11.45916,7.82,2.62,0.11,2.0
1758077843.26449,1758077843.20576,0.0,0.0,0.0,-51.6235,-33.40344,-13.80828,11.38,2.88,-2.66,2.0
1758077843.26619,1758077843.21576,0.0,0.0,0.0,-56.20716,-29.56462,-13.5791,11.46,1.83,-0.85,2.0
1758077843.28229,1758077843.22576,0.0,0.0,0.0,-60.44705,-28.87707,-11.34457,11.46,1.83,-0.85,2.0
1758077843.29823,1758077843.23576,0.0,0.0,0.0,-63.8275,-31.45539,-6.58902,10.69,0.62,0.37,2.0
1758077843.30098,1758077843.24576,0.0,0.0,0.0,-63.42643,-33.9764,-3.66693,10.69,0.62,0.37,2.0
1758077843.31729,1758077843.25576,0.0,0.0,0.0,-60.38975,-45.49285,-1.66158,11.82,-0.78,2.15,2.0
1758077843.31823,1758077843.26576,0.0,0.0,0.0,-54.66018,-77.4639,-3.26586,11.82,-0.78,2.15,2.0
1758077843.33326,1758077843.27576,0.0,0.0,0.0,-43.54479,-109.14847,-19.13679,11.33,-2.68,5.82,2.0
1758077843.34951,1758077843.28576,0.0,0.0,0.0,-31.74186,-108.5755,-31.2262,16.64,-3.89,6.79,2.0
1758077843.35149,1758077843.29576,0.0,0.0,0.0,-19.48057,-101.35624,-40.39353,16.64,-3.89,6.79,2.0
1758077843.36625,1758077843.30576,0.0,0.0,0.0,-9.33921,-97.8039,-43.37291,15.58,-2.43,3.9,2.0
1758077843.36832,1758077843.31576,0.0,0.0,0.0,-2.11994,-89.20953,-40.10705,15.58,-2.43,3.9,2.0
1758077843.38349,1758077843.32576,0.0,0.0,0.0,-3.09397,-76.54716,-35.2369,10.97,0.21,2.26,2.0
1758077843.39952,1758077843.33576,0.0,0.0,0.0,-8.93814,-62.05133,-27.96034,10.97,0.21,2.26,2.0
1758077843.40081,1758077843.34576,0.0,0.0,0.0,-17.58981,-48.9879,-17.36062,10.04,0.98,1.38,2.0
1758077843.4153,1758077843.35576,0.0,0.0,0.0,-33.00237,-29.8511,0.11459,9.74,1.45,0.73,2.0
1758077843.4165,1758077843.36576,0.0,0.0,0.0,-41.65404,-17.18874,9.33921,9.74,1.45,0.73,2.0
1758077843.4324,1758077843.37576,0.0,0.0,0.0,-48.58683,-7.96411,14.61043,9.51,1.96,0.22,2.0
1758077843.44936,1758077843.38576,0.0,0.0,0.0,-54.08722,-1.14592,14.38124,9.51,1.96,0.22,2.0
1758077843.45108,1758077843.39576,0.0,0.0,0.0,-58.78547,9.74028,11.00079,9.6,1.83,0.64,2.0
1758077843.46657,1758077843.40576,0.0,0.0,0.0,-59.12925,19.70975,7.21927,9.6,1.83,0.64,2.0
1758077843.46924,1758077843.41576,0.0,0.0,0.0,-57.12389,28.99167,4.1253,10.38,0.53,0.49,2.0
1758077843.48611,1758077843.42576,0.0,0.0,0.0,-49.84733,39.4768,1.60428,10.38,0.53,0.49,2.0
1758077843.48708,1758077843.43576,0.0,0.0,0.0,-44.748,42.74266,0.74485,9.41,-1.46,0.56,2.0
1758077843.50266,1758077843.44576,0.0,0.0,0.0,-39.76327,44.00316,0.51566,7.73,-2.7,-0.19,2.0
1758077843.52054,1758077843.45576,0.0,0.0,0.0,-36.03905,44.17505,0.0,7.73,-2.7,-0.19,2.0
1758077843.52337,1758077843.46576,0.0,0.0,0.0,-30.65324,41.88322,-1.43239,7.02,-2.69,-0.47,2.0
1758077843.53913,1758077843.47576,0.0,0.0,0.0,-27.10091,39.53409,-2.57831,7.02,-2.69,-0.47,2.0
1758077843.54062,1758077843.48576,0.0,0.0,0.0,-23.66316,37.81522,-4.0107,7.48,-1.89,-0.25,2.0
1758077843.55562,1758077843.49576,0.0,0.0,0.0,-20.22541,35.12231,-5.27121,7.48,-1.89,-0.25,2.0
1758077843.55727,1758077843.50576,0.0,0.0,0.0,-14.9542,31.16891,-5.90147,8.37,-1.01,-0.05,2.0
1758077843.57262,1758077843.51576,0.0,0.0,0.0,-11.28727,30.59595,-5.15662,9.34,-0.52,0.18,2.0
1758077843.57916,1758077843.52576,0.0,0.0,0.0,-8.36518,29.8511,-3.60963,9.34,-0.52,0.18,2.0
1758077843.59464,1758077843.53576,0.0,0.0,0.0,-5.32851,28.41871,-1.14592,9.33,-0.75,0.06,2.0
1758077843.59731,1758077843.54576,0.0,0.0,0.0,-1.94806,25.55392,2.29183,9.33,-0.75,0.06,2.0
1758077843.61464,1758077843.55576,0.0,0.0,0.0,0.34377,25.09555,4.23989,9.17,-1.26,0.0,2.0
1758077843.61715,1758077843.56576,0.0,0.0,0.0,2.40642,25.43933,5.27121,9.17,-1.26,0.0,2.0
1758077843.63267,1758077843.57576,0.0,0.0,0.0,3.72423,24.00693,5.72958,9.17,-1.61,-0.17,2.0
1758077843.64844,1758077843.58576,0.0,0.0,0.0,5.15662,21.08485,5.09932,8.87,-1.58,-0.17,2.0
1758077843.65119,1758077843.59576,0.0,0.0,0.0,4.87014,20.11082,3.66693,8.87,-1.58,-0.17,2.0
1758077843.66667,1758077843.60576,0.0,0.0,0.0,4.35448,21.48592,1.43239,8.98,-1.2,-0.39,2.0
1758077843.66761,1758077843.61576,0.0,0.0,0.0,2.57831,23.83505,-2.6929,8.98,-1.2,-0.39,2.0
1758077843.68245,1758077843.62576,0.0,0.0,0.0,1.77617,24.86637,-5.55769,9.06,-0.65,-0.4,2.0
1758077843.6984,1758077843.63576,0.0,0.0,0.0,2.63561,24.5226,-7.04738,9.06,-0.65,-0.4,2.0
1758077843.69997,1758077843.64576,0.0,0.0,0.0,4.81285,27.1582,-8.0787,9.13,-0.3,-0.44,2.0
1758077843.71469,1758077843.65576,0.0,0.0,0.0,10.02676,32.6013,-6.41713,9.13,-0.3,-0.44,2.0
1758077843.73038,1758077843.66576,0.0,0.0,0.0,12.83425,36.84119,-6.7609,9.67,-0.59,-0.81,2.0
1758077843.73189,1758077843.67576,0.0,0.0,0.0,16.55848,39.99245,-6.53172,9.88,-1.12,-0.55,2.0
1758077843.74693,1758077843.68576,0.0,0.0,0.0,21.37133,26.69983,-10.02676,9.88,-1.12,-0.55,2.0
1758077843.74799,1758077843.69576,0.0,0.0,0.0,33.11696,-32.6013,-6.8182,6.57,-2.22,-0.81,2.0
1758077843.76244,1758077843.70576,0.0,0.0,0.0,41.65404,-60.27517,1.66158,6.57,-2.22,-0.81,2.0
1758077843.77923,1758077843.71576,0.0,0.0,0.0,46.81066,-63.02536,7.33386,9.03,-3.43,-2.51,2.0
1758077843.78044,1758077843.72576,0.0,0.0,0.0,52.25375,-59.53032,13.34992,9.03,-3.43,-2.51,2.0
1758077843.79541,1758077843.73576,0.0,0.0,0.0,58.78547,-61.42108,16.21471,12.01,-3.86,-1.51,2.0
1758077843.79659,1758077843.74576,0.0,0.0,0.0,60.90542,-63.02536,15.46986,10.92,-3.15,-1.13,2.0
1758077843.81244,1758077843.75576,0.0,0.0,0.0,60.90542,-63.42643,15.64175,10.92,-3.15,-1.13,2.0
1758077843.8285,1758077843.76576,0.0,0.0,0.0,57.29578,-65.43179,16.61578,11.83,-2.05,0.88,2.0
1758077843.83046,1758077843.77576,0.0,0.0,0.0,45.37826,-68.92683,23.26209,11.83,-2.05,0.88,2.0
1758077843.84566,1758077843.78576,0.0,0.0,0.0,34.37747,-77.92226,30.76784,15.54,1.12,2.69,2.0
1758077843.84661,1758077843.79576,0.0,0.0,0.0,26.35606,-91.90244,42.97184,15.54,1.12,2.69,2.0
1758077843.86329,1758077843.80576,0.0,0.0,0.0,19.19409,-90.92841,55.7488,18.32,4.94,4.06,2.0
1758077843.88075,1758077843.81576,0.0,0.0,0.0,9.22462,-76.66176,55.97798,17.03,5.37,1.83,2.0
1758077843.88197,1758077843.82576,0.0,0.0,0.0,2.11994,-72.19269,51.10783,17.03,5.37,1.83,2.0
1758077843.8965,1758077843.83576,0.0,0.0,0.0,-3.26586,-65.2599,43.94586,9.56,1.99,0.49,2.0
1758077843.89819,1758077843.84576,0.0,0.0,0.0,-7.16197,-51.22243,27.78845,9.56,1.99,0.49,2.0
1758077843.91358,1758077843.85576,0.0,0.0,0.0,-5.61499,-43.25832,16.73037,6.04,-0.13,0.83,2.0
1758077843.92952,1758077843.86576,0.0,0.0,0.0,0.0573,-32.77319,9.39651,6.04,-0.13,0.83,2.0
1758077843.93227,1758077843.87576,0.0,0.0,0.0,8.59437,-17.36062,4.64096,7.69,-0.47,2.38,2.0
1758077843.94852,1758077843.88576,0.0,0.0,0.0,25.8404,3.89611,2.11994,11.84,-0.47,3.51,2.0
1758077843.95057,1758077843.89576,0.0,0.0,0.0,37.35685,17.47521,2.06265,11.84,-0.8,3.51,2.0
1758077843.96582,1758077843.90576,0.0,0.0,0.0,46.69606,31.97105,2.40642,13.42,-1.26,1.35,2.0
1758077843.96831,1758077843.91576,0.0,0.0,0.0,52.42564,46.63877,2.57831,13.42,-1.26,1.35,2.0
1758077843.98584,1758077843.92576,0.0,0.0,0.0,54.77477,67.26525,0.80214,12.84,-1.25,0.11,2.0
1758077843.98669,1758077843.93576,0.0,0.0,0.0,53.74345,80.67246,-1.20321,12.84,-1.25,0.11,2.0
1758077844.00363,1758077843.94576,0.0,0.0,0.0,52.02457,87.14688,-3.26586,11.6,-0.48,0.03,2.0
1758077844.02084,1758077843.95576,0.0,0.0,0.0,50.13381,88.2355,-3.83882,11.6,-0.48,0.03,2.0
1758077844.02201,1758077843.96576,0.0,0.0,0.0,46.1804,87.08958,-2.29183,9.66,0.91,0.13,2.0
1758077844.03669,1758077843.97576,0.0,0.0,0.0,42.57077,85.77179,-0.85944,9.06,2.14,0.02,2.0
1758077844.04126,1758077843.98576,0.0,0.0,0.0,38.15899,83.47996,-0.0573,9.06,2.14,0.02,2.0
1758077844.06097,1758077843.99576,0.0,0.0,0.0,33.46074,81.41731,0.11459,8.58,2.63,-0.04,2.0
1758077844.06175,1758077844.00576,0.0,0.0,0.0,26.64254,80.04221,-1.20321,8.58,2.63,-0.04,2.0
1758077844.07694,1758077844.01576,0.0,0.0,0.0,21.6578,79.06818,-3.26586,8.41,2.32,0.18,2.0
1758077844.08014,1758077844.02576,0.0,0.0,0.0,17.53251,78.26604,-5.32851,8.41,2.32,0.18,2.0
1758077844.09558,1758077844.03576,0.0,0.0,0.0,11.22997,74.14074,-8.42248,8.24,1.64,0.47,2.0
1758077844.09708,1758077844.04576,0.0,0.0,0.0,7.44845,67.72362,-9.96947,7.75,0.85,0.62,2.0
1758077844.11369,1758077844.05576,0.0,0.0,0.0,3.72423,58.21251,-11.51645,7.75,0.85,0.62,2.0
1758077844.12992,1758077844.06576,0.0,0.0,0.0,0.74485,46.52417,-12.60507,7.29,0.5,0.64,2.0
1758077844.13194,1758077844.07576,0.0,0.0,0.0,-2.57831,27.61657,-13.23533,7.29,0.5,0.64,2.0
1758077844.14684,1758077844.08576,0.0,0.0,0.0,-5.50039,20.22541,-14.61043,7.54,0.88,0.7,2.0
1758077844.14977,1758077844.09576,0.0,0.0,0.0,-7.44845,12.77696,-14.66772,7.54,0.88,0.7,2.0
1758077844.16864,1758077844.10576,0.0,0.0,0.0,-9.39651,9.96947,-15.35527,7.88,1.63,0.93,2.0
1758077844.17137,1758077844.11576,0.0,0.0,0.0,-11.11538,10.65701,-13.80828,8.56,1.93,1.03,2.0
1758077844.18685,1758077844.12576,0.0,0.0,0.0,-11.74564,11.17268,-11.91752,8.56,1.93,1.03,2.0
1758077844.18782,1758077844.13576,0.0,0.0,0.0,-11.91752,11.00079,-9.4538,8.7,1.53,1.03,2.0
1758077844.20615,1758077844.14576,0.0,0.0,0.0,-11.74564,10.08406,-6.70361,8.7,1.53,1.03,2.0
1758077844.20701,1758077844.15576,0.0,0.0,0.0,-11.63104,5.95876,-2.6929,8.8,0.72,0.6,2.0
1758077844.22337,1758077844.16576,0.0,0.0,0.0,-11.74564,3.09397,-0.57296,8.8,0.72,0.6,2.0
1758077844.24063,1758077844.17576,0.0,0.0,0.0,-11.86023,0.51566,0.68755,9.03,-0.06,-0.16,2.0
1758077844.24184,1758077844.18576,0.0,0.0,0.0,-11.74564,-5.4431,1.66158,9.03,-0.06,-0.16,2.0
1758077844.25702,1758077844.19576,0.0,0.0,0.0,-12.14671,-21.48592,2.00535,8.79,-0.45,-0.61,2.0
1758077844.25815,1758077844.20576,0.0,0.0,0.0,-12.43318,-26.81443,2.63561,9.12,-0.3,-1.19,2.0
1758077844.27376,1758077844.21576,0.0,0.0,0.0,-15.29797,-8.36518,0.0,9.12,-0.3,-1.19,2.0
1758077844.28997,1758077844.22576,0.0,0.0,0.0,-20.97026,25.7831,-0.0573,13.48,0.65,-0.97,2.0
1758077844.29162,1758077844.23576,0.0,0.0,0.0,-21.14215,14.32395,3.95341,13.48,0.65,-0.97,2.0
1758077844.30703,1758077844.24576,0.0,0.0,0.0,-27.44468,-15.75634,2.00535,8.73,1.76,0.0,2.0
1758077844.30876,1758077844.25576,0.0,0.0,0.0,-31.2262,-26.75713,0.80214,8.73,1.76,0.0,2.0
1758077844.32556,1758077844.26576,0.0,0.0,0.0,-38.21629,-26.75713,-2.11994,10.38,2.97,-1.69,2.0
1758077844.34103,1758077844.27576,0.0,0.0,0.0,-43.60209,-22.40265,-3.32316,11.53,2.86,-1.87,2.0
1758077844.34459,1758077844.28576,0.0,0.0,0.0,-49.27437,-17.93358,-2.00535,11.53,2.86,-1.87,2.0
1758077844.3613,1758077844.29576,0.0,0.0,0.0,-55.23313,-16.272,1.03132,11.21,1.53,-0.58,2.0
1758077844.36599,1758077844.30576,0.0,0.0,0.0,-62.85347,-18.73572,6.7609,11.21,1.53,-0.58,2.0
1758077844.38234,1758077844.31576,0.0,0.0,0.0,-65.89015,-21.08485,9.74028,10.86,0.48,0.1,2.0
1758077844.38619,1758077844.32576,0.0,0.0,0.0,-66.5204,-24.17882,10.8289,10.86,0.48,0.1,2.0
1758077844.40103,1758077844.33576,0.0,0.0,0.0,-63.02536,-40.62271,10.25595,12.09,-0.56,1.82,2.0
1758077844.40217,1758077844.34576,0.0,0.0,0.0,-55.6342,-79.46925,-1.71887,12.34,-1.93,5.24,2.0
1758077844.41705,1758077844.35576,0.0,0.0,0.0,-47.03984,-94.88181,-15.69904,12.34,-1.93,5.24,2.0
1758077844.41794,1758077844.36576,0.0,0.0,0.0,-35.2942,-96.60069,-29.39274,15.66,-3.07,5.53,2.0
1758077844.43462,1758077844.37576,0.0,0.0,0.0,-22.23076,-90.58463,-40.04975,15.66,-3.07,5.53,2.0
1758077844.44998,1758077844.38576,0.0,0.0,0.0,-7.21927,-88.06361,-44.17505,13.81,-2.23,3.72,2.0
1758077844.45172,1758077844.39576,0.0,0.0,0.0,-4.92744,-87.77714,-42.34158,13.81,-2.23,3.72,2.0
1758077844.46694,1758077844.40576,0.0,0.0,0.0,-4.69825,-78.26604,-37.81522,9.26,-0.1,1.63,2.0
1758077844.46795,1758077844.41576,0.0,0.0,0.0,-7.96411,-64.22858,-25.61122,9.26,-0.1,1.63,2.0
1758077844.48303,1758077844.42576,0.0,0.0,0.0,-18.44924,-45.60744,-15.41257,9.46,0.58,1.32,2.0
1758077844.49872,1758077844.43576,0.0,0.0,0.0,-27.33009,-33.34615,-4.58366,9.25,1.0,1.13,2.0
1758077844.50025,1758077844.44576,0.0,0.0,0.0,-35.92446,-20.97026,5.09932,9.25,1.0,1.13,2.0
1758077844.51497,1758077844.45576,0.0,0.0,0.0,-46.75336,-8.02141,13.69369,9.2,1.54,0.39,2.0
1758077844.51674,1758077844.46576,0.0,0.0,0.0,-52.65482,-2.00535,14.32395,9.2,1.54,0.39,2.0
1758077844.5595,1758077844.47576,0.0,0.0,0.0,-57.12389,3.55234,11.97482,9.44,1.65,0.85,2.0
1758077844.56624,1758077844.48576,0.0,0.0,0.0,-59.70221,11.22997,8.30789,9.44,1.65,0.85,2.0
1758077844.5673,1758077844.49576,0.0,0.0,0.0,-58.84277,26.75713,2.29183,10.63,0.76,0.82,2.0
1758077844.57174,1758077844.50576,0.0,0.0,0.0,-55.57691,35.12231,-0.80214,10.33,-1.17,0.94,2.0
1758077844.57208,1758077844.51576,0.0,0.0,0.0,-50.13381,40.45082,-2.06265,10.33,-1.17,0.94,2.0
1758077844.58966,1758077844.52576,0.0,0.0,0.0,-44.9199,41.08107,-2.46372,8.3,-2.59,0.54,2.0
1758077844.59192,1758077844.53576,0.0,0.0,0.0,-38.38818,41.71133,-2.57831,8.3,-2.59,0.54,2.0
1758077844.6068,1758077844.54576,0.0,0.0,0.0,-35.06502,42.62806,-2.40642,7.65,-2.73,-0.12,2.0
1758077844.60804,1758077844.55576,0.0,0.0,0.0,-31.97105,43.31561,-2.57831,7.65,-2.73,-0.12,2.0
1758077844.62301,1758077844.56576,0.0,0.0,0.0,-29.33544,43.77398,-2.97938,8.08,-1.86,-0.22,2.0
1758077844.63895,1758077844.57576,0.0,0.0,0.0,-25.7831,42.91454,-3.55234,8.72,-0.96,-0.01,2.0
1758077844.6401,1758077844.58576,0.0,0.0,0.0,-23.49127,39.82057,-3.83882,8.72,-0.96,-0.01,2.0
1758077844.655,1758077844.59576,0.0,0.0,0.0,-20.97026,34.43476,-3.49504,8.84,-0.48,0.21,2.0
1758077844.67101,1758077844.60576,0.0,0.0,0.0,-18.33465,30.59595,-2.6929,8.84,-0.48,0.21,2.0
1758077844.67317,1758077844.61576,0.0,0.0,0.0,-15.06879,24.57989,-0.85944,9.07,-0.7,0.19,2.0
1758077844.69105,1758077844.62576,0.0,0.0,0.0,-12.60507,19.88164,0.34377,9.07,-0.7,0.19,2.0
1758077844.69205,1758077844.63576,0.0,0.0,0.0,-10.19865,15.75634,1.94806,8.72,-1.3,0.16,2.0
1758077844.70689,1758077844.64576,0.0,0.0,0.0,-5.61499,12.54778,3.95341,8.72,-1.3,0.16,2.0
1758077844.70923,1758077844.65576,0.0,0.0,0.0,-2.29183,12.08941,4.81285,8.8,-1.85,0.16,2.0
1758077844.72406,1758077844.66576,0.0,0.0,0.0,1.3178,13.12073,5.95876,9.12,-2.11,-0.02,2.0
1758077844.74113,1758077844.67576,0.0,0.0,0.0,4.81285,16.3293,6.41713,9.12,-2.11,-0.02,2.0
1758077844.74234,1758077844.68576,0.0,0.0,0.0,9.05273,24.35071,5.50039,9.62,-1.9,-0.09,2.0
1758077844.75718,1758077844.69576,0.0,0.0,0.0,11.34457,29.33544,4.1253,9.62,-1.9,-0.09,2.0
1758077844.75836,1758077844.70576,0.0,0.0,0.0,13.06344,32.08564,2.06265,9.88,-1.36,-0.07,2.0
1758077844.773,1758077844.71576,0.0,0.0,0.0,14.20935,31.79916,-0.0573,9.88,-1.36,-0.07,2.0
1758077844.78895,1758077844.72576,0.0,0.0,0.0,15.06879,25.26744,-3.83882,9.7,-0.84,-0.07,2.0
1758077844.79204,1758077844.73576,0.0,0.0,0.0,16.3293,16.50119,-6.13065,9.5,-0.5,-0.7,2.0
1758077844.80692,1758077844.74576,0.0,0.0,0.0,17.6471,6.70361,-9.33921,9.5,-0.5,-0.7,2.0
1758077844.80817,1758077844.75576,0.0,0.0,0.0,20.05352,9.85487,-11.28727,10.28,-0.6,-1.61,2.0
1758077844.82534,1758077844.76576,0.0,0.0,0.0,25.72581,26.81443,-9.33921,10.28,-0.6,-1.61,2.0
1758077844.84092,1758077844.77576,0.0,0.0,0.0,28.476,38.78925,-9.74028,11.56,-1.52,-1.18,2.0
1758077844.84219,1758077844.78576,0.0,0.0,0.0,30.30947,39.53409,-11.17268,11.56,-1.52,-1.18,2.0
1758077844.85691,1758077844.79576,0.0,0.0,0.0,34.0337,6.07335,-15.06879,8.98,-1.97,0.28,2.0
1758077844.85811,1758077844.80576,0.0,0.0,0.0,42.51347,-66.69229,-5.50039,5.29,-2.69,-1.86,2.0
1758077844.87416,1758077844.81576,0.0,0.0,0.0,49.38896,-79.98491,4.92744,5.29,-2.69,-1.86,2.0
1758077844.87788,1758077844.82576,0.0,0.0,0.0,51.6235,-72.19269,9.33921,10.55,-3.13,-3.04,2.0
1758077844.89295,1758077844.83576,0.0,0.0,0.0,57.63955,-67.66632,13.00614,10.55,-3.13,-3.04,2.0
1758077844.909,1758077844.84576,0.0,0.0,0.0,60.79083,-69.27061,11.57375,9.44,-2.25,-2.88,2.0
1758077844.91092,1758077844.85576,0.0,0.0,0.0,60.67623,-65.89015,9.91217,9.44,-2.25,-2.88,2.0
1758077844.92622,1758077844.86576,0.0,0.0,0.0,57.0093,-65.2599,10.8289,10.84,-1.23,1.34,2.0
1758077844.92713,1758077844.87576,0.0,0.0,0.0,42.39888,-75.34396,15.35527,10.84,-1.23,1.34,2.0
1758077844.94303,1758077844.88576,0.0,0.0,0.0,32.37212,-93.56402,26.69983,14.76,1.41,4.21,2.0
1758077844.96126,1758077844.89576,0.0,0.0,0.0,24.23611,-97.40282,42.97184,20.44,5.22,6.57,2.0
1758077844.96322,1758077844.90576,0.0,0.0,0.0,15.64175,-80.72976,53.97263,20.44,5.22,6.57,2.0
1758077844.97957,1758077844.91576,0.0,0.0,0.0,3.55234,-66.69229,50.82136,18.57,4.61,2.49,2.0
1758077844.981,1758077844.92576,0.0,0.0,0.0,-1.60428,-60.27517,46.63877,18.57,4.61,2.49,2.0
1758077844.99684,1758077844.93576,0.0,0.0,0.0,-3.72423,-43.4875,38.15899,9.77,1.0,1.52,2.0
1758077844.99875,1758077844.94576,0.0,0.0,0.0,-0.57296,-33.68992,29.22085,9.77,1.0,1.52,2.0
1758077845.01669,1758077844.95576,0.0,0.0,0.0,10.25595,-24.80907,15.64175,6.61,-0.75,1.56,2.0
1758077845.01761,1758077844.96576,0.0,0.0,0.0,19.53786,-5.95876,7.10468,9.44,-1.52,2.95,2.0
1758077845.03325,1758077844.97576,0.0,0.0,0.0,28.76248,12.43318,-0.0573,9.44,-1.52,2.95,2.0
1758077845.05026,1758077844.98576,0.0,0.0,0.0,36.21093,25.09555,-6.24524,12.7,-1.46,2.12,2.0
1758077845.05358,1758077844.99576,0.0,0.0,0.0,43.65939,45.89392,-11.86023,12.7,-1.46,2.12,2.0
1758077845.06926,1758077845.00576,0.0,0.0,0.0,44.8053,60.96271,-13.46451,13.0,-0.58,0.62,2.0
1758077845.07176,1758077845.01576,0.0,0.0,0.0,43.60209,72.99483,-14.20935,13.0,-0.58,0.62,2.0
1758077845.09102,1758077845.02576,0.0,0.0,0.0,40.96649,81.01624,-14.20935,11.41,0.35,-0.19,2.0
1758077845.09217,1758077845.03576,0.0,0.0,0.0,36.03905,86.00097,-13.12073,8.98,1.17,0.64,2.0
1758077845.10699,1758077845.04576,0.0,0.0,0.0,31.85646,86.28745,-12.14671,8.98,1.17,0.64,2.0
1758077845.10818,1758077845.05576,0.0,0.0,0.0,27.10091,84.56858,-10.71431,7.12,1.81,0.96,2.0
1758077845.12304,1758077845.06576,0.0,0.0,0.0,18.44924,80.95895,-10.02676,7.12,1.81,0.96,2.0
1758077845.14033,1758077845.07576,0.0,0.0,0.0,12.2613,77.52119,-9.68299,6.41,2.31,1.02,2.0
1758077845.14152,1758077845.08576,0.0,0.0,0.0,6.47442,72.30728,-9.11003,6.41,2.31,1.02,2.0
1758077845.1563,1758077845.09576,0.0,0.0,0.0,0.11459,67.66632,-8.70896,6.52,2.45,0.95,2.0
1758077845.15755,1758077845.10576,0.0,0.0,0.0,-8.36518,59.98868,-7.16197,6.52,2.45,1.15,2.0
1758077845.17395,1758077845.11576,0.0,0.0,0.0,-13.80828,53.68615,-6.7609,7.25,2.15,1.15,2.0
1758077845.19105,1758077845.12576,0.0,0.0,0.0,-18.79302,43.20102,-6.47442,7.53,1.75,1.37,2.0
1758077845.19221,1758077845.13576,0.0,0.0,0.0,-22.74642,30.53865,-6.53172,7.53,1.75,1.37,2.0
1758077845.20803,1758077845.14576,0.0,0.0,0.0,-26.87172,10.8289,-7.62034,7.87,1.26,1.02,2.0
1758077845.2097,1758077845.15576,0.0,0.0,0.0,-27.73116,-2.6929,-8.59437,7.87,1.26,1.02,2.0
1758077845.22616,1758077845.16576,0.0,0.0,0.0,-29.04896,-8.88085,-10.8862,8.65,0.89,0.59,2.0
1758077845.24138,1758077845.17576,0.0,0.0,0.0,-29.33544,-7.62034,-14.03747,8.65,0.89,0.59,2.0
1758077845.2423,1758077845.18576,0.0,0.0,0.0,-27.78845,-1.94806,-16.3293,9.92,0.56,0.37,2.0
1758077845.25839,1758077845.19576,0.0,0.0,0.0,-25.38203,1.3751,-16.3293,10.2,0.0,0.74,2.0
1758077845.26032,1758077845.20576,0.0,0.0,0.0,-22.86102,4.46907,-15.87093,10.2,0.0,0.74,2.0
1758077845.27527,1758077845.21576,0.0,0.0,0.0,-20.34,7.33386,-14.49583,10.19,-0.55,0.71,2.0
1758077845.29114,1758077845.22576,0.0,0.0,0.0,-16.73037,8.88085,-11.22997,10.19,-0.55,0.71,2.0
1758077845.29271,1758077845.23576,0.0,0.0,0.0,-14.72501,6.8182,-8.36518,9.78,-0.89,0.0,2.0
1758077845.31112,1758077845.24576,0.0,0.0,0.0,-12.83425,1.3751,-4.98473,9.78,-0.89,0.0,2.0
1758077845.31231,1758077845.25576,0.0,0.0,0.0,-10.59972,-0.57296,-0.57296,8.79,-0.99,-0.48,2.0
1758077845.33113,1758077845.26576,0.0,0.0,0.0,-9.96947,-6.41713,1.3751,8.42,-0.43,-0.87,2.0
1758077845.33274,1758077845.27576,0.0,0.0,0.0,-10.8862,-15.87093,2.7502,8.42,-0.43,-0.87,2.0
1758077845.35114,1758077845.28576,0.0,0.0,0.0,-13.06344,-24.98096,3.20856,7.96,0.47,-1.01,2.0
1758077845.35238,1758077845.29576,0.0,0.0,0.0,-20.97026,8.47978,1.77617,7.96,0.47,-1.01,2.0
1758077845.36711,1758077845.30576,0.0,0.0,0.0,-27.67386,38.21629,1.20321,12.74,1.67,-0.67,2.0
1758077845.36991,1758077845.31576,0.0,0.0,0.0,-29.56462,17.13144,3.95341,12.74,1.67,-0.67,2.0
1758077845.38618,1758077845.32576,0.0,0.0,0.0,-39.53409,-15.24068,-0.22918,8.13,2.63,0.44,2.0
1758077845.38735,1758077845.33576,0.0,0.0,0.0,-48.01387,-31.45539,-5.15662,9.83,2.63,-1.28,2.0
1758077845.40446,1758077845.34576,0.0,0.0,0.0,-52.19646,-30.93972,-8.02141,9.83,3.54,-1.28,2.0
1758077845.42151,1758077845.35576,0.0,0.0,0.0,-56.55093,-30.02299,-10.8289,11.82,3.22,-2.44,2.0
1758077845.42238,1758077845.36576,0.0,0.0,0.0,-61.24919,-29.10626,-11.91752,11.82,3.22,-2.44,2.0
1758077845.43721,1758077845.37576,0.0,0.0,0.0,-67.9528,-31.11161,-10.8289,11.53,1.89,-0.56,2.0
1758077845.43915,1758077845.38576,0.0,0.0,0.0,-71.50513,-29.8511,-8.136,11.53,1.89,-0.56,2.0
1758077845.47418,1758077845.39576,0.0,0.0,0.0,-72.42187,-23.72045,-4.69825,11.33,0.61,-0.46,2.0
1758077845.47911,1758077845.40576,0.0,0.0,0.0,-70.6457,-18.79302,-1.43239,11.33,0.61,-0.46,2.0
1758077845.48093,1758077845.41576,0.0,0.0,0.0,-63.13995,-34.14828,2.06265,11.89,-0.93,1.04,2.0
1758077845.48205,1758077845.42576,0.0,0.0,0.0,-56.49364,-63.19725,1.03132,10.3,-2.95,4.03,2.0
1758077845.4975,1758077845.43576,0.0,0.0,0.0,-49.96192,-88.00632,-5.32851,10.3,-2.95,4.03,2.0
1758077845.4992,1758077845.44576,0.0,0.0,0.0,-41.65404,-94.82452,-18.33465,13.25,-3.74,3.88,2.0
1758077845.51501,1758077845.45576,0.0,0.0,0.0,-26.98631,-92.93376,-26.24147,13.25,-3.74,3.88,2.0
1758077845.53123,1758077845.46576,0.0,0.0,0.0,-17.81899,-92.07432,-32.08564,14.79,-3.07,4.14,2.0
1758077845.53496,1758077845.47576,0.0,0.0,0.0,-12.49048,-91.73055,-34.89313,14.79,-3.07,4.14,2.0
1758077845.55099,1758077845.48576,0.0,0.0,0.0,-13.98017,-76.77635,-33.34615,13.09,-0.77,4.28,2.0
1758077845.55222,1758077845.49576,0.0,0.0,0.0,-20.68378,-58.78547,-29.22085,13.24,0.76,3.05,2.0
1758077845.56758,1758077845.50576,0.0,0.0,0.0,-30.48136,-43.94586,-22.74642,13.24,0.76,3.05,2.0
1758077845.5687,1758077845.51576,0.0,0.0,0.0,-41.65404,-31.85646,-14.43854,11.89,1.39,1.43,2.0
1758077845.5835,1758077845.52576,0.0,0.0,0.0,-57.52497,-11.00079,0.17189,11.89,1.39,1.43,2.0
1758077845.60054,1758077845.53576,0.0,0.0,0.0,-64.45775,3.66693,8.47978,10.58,2.04,0.16,2.0
1758077845.60173,1758077845.54576,0.0,0.0,0.0,-68.64035,14.72501,13.12073,10.58,2.04,0.16,2.0
1758077845.61656,1758077845.55576,0.0,0.0,0.0,-70.13004,20.3973,13.98017,9.65,2.05,0.74,2.0
1758077845.61937,1758077845.56576,0.0,0.0,0.0,-68.52576,24.35071,10.25595,9.35,0.79,1.78,2.0
1758077845.63558,1758077845.57576,0.0,0.0,0.0,-65.37449,28.41871,6.13065,9.35,0.79,1.78,2.0
1758077845.65154,1758077845.58576,0.0,0.0,0.0,-61.02001,32.77319,2.00535,9.01,-1.65,1.64,2.0
1758077845.65329,1758077845.59576,0.0,0.0,0.0,-55.6342,35.40879,-0.51566,9.01,-1.65,1.64,2.0
1758077845.66934,1758077845.60576,0.0,0.0,0.0,-45.83662,39.07573,-1.20321,7.8,-4.0,0.64,2.0
1758077845.67109,1758077845.61576,0.0,0.0,0.0,-39.70598,38.50277,-0.34377,7.8,-4.0,0.64,2.0
1758077845.68633,1758077845.62576,0.0,0.0,0.0,-33.9764,36.03905,1.20321,6.9,-4.54,0.0,2.0
1758077845.68862,1758077845.63576,0.0,0.0,0.0,-28.99167,34.72124,2.63561,6.9,-4.54,0.0,2.0
1758077845.70427,1758077845.64576,0.0,0.0,0.0,-22.74642,37.24226,3.60963,7.31,-3.15,-0.38,2.0
1758077845.72161,1758077845.65576,0.0,0.0,0.0,-19.53786,39.4768,4.18259,8.6,-1.35,-0.42,2.0
1758077845.72331,1758077845.66576,0.0,0.0,0.0,-17.01685,39.87786,4.46907,8.6,-1.35,-0.42,2.0
1758077845.74154,1758077845.67576,0.0,0.0,0.0,-14.61043,38.61736,4.29718,9.21,-0.21,-0.26,2.0
1758077845.74431,1758077845.68576,0.0,0.0,0.0,-13.5218,38.27358,3.83882,9.21,-0.21,-0.26,2.0
1758077845.76027,1758077845.69576,0.0,0.0,0.0,-13.23533,37.87251,3.66693,9.82,-0.04,0.14,2.0
1758077845.76133,1758077845.70576,0.0,0.0,0.0,-13.5791,37.52874,3.72423,9.82,-0.04,0.14,2.0
1758077845.77634,1758077845.71576,0.0,0.0,0.0,-13.86558,35.52338,4.98473,9.66,-0.68,0.31,2.0
1758077845.77788,1758077845.72576,0.0,0.0,0.0,-13.86558,33.63263,6.24524,9.3,-1.41,0.19,2.0
1758077845.79536,1758077845.73576,0.0,0.0,0.0,-13.5218,31.91375,7.44845,9.3,-1.41,0.19,2.0
1758077845.81138,1758077845.74576,0.0,0.0,0.0,-13.23533,31.51268,8.136,9.21,-1.68,0.0,2.0
1758077845.81367,1758077845.75576,0.0,0.0,0.0,-12.204,31.56997,8.136,9.21,-1.68,0.0,2.0
1758077845.82835,1758077845.76576,0.0,0.0,0.0,-10.94349,30.82513,7.62034,9.14,-1.4,-0.22,2.0
1758077845.83198,1758077845.77576,0.0,0.0,0.0,-9.62569,28.476,6.58902,9.14,-1.4,-0.22,2.0
1758077845.84739,1758077845.78576,0.0,0.0,0.0,-8.02141,23.66316,5.27121,8.63,-0.93,-0.33,2.0
1758077845.851,1758077845.79576,0.0,0.0,0.0,-5.21392,15.41257,1.3751,8.2,-0.52,-0.48,2.0
1758077845.86665,1758077845.80576,0.0,0.0,0.0,-2.92208,13.23533,-1.83346,8.2,-0.52,-0.48,2.0
1758077845.87093,1758077845.81576,0.0,0.0,0.0,-0.0573,24.63719,-5.27121,9.47,-0.48,-0.6,2.0
1758077845.88643,1758077845.82576,0.0,0.0,0.0,3.66693,37.18496,-7.50575,9.47,-0.48,-0.6,2.0
1758077845.88792,1758077845.83576,0.0,0.0,0.0,9.85487,50.2484,-9.68299,10.27,-1.13,0.34,2.0
1758077845.90339,1758077845.84576,0.0,0.0,0.0,13.5218,53.45696,-12.204,10.27,-1.13,0.34,2.0
1758077845.91941,1758077845.85576,0.0,0.0,0.0,16.84496,51.5662,-13.80828,9.76,-1.7,1.1,2.0
1758077845.92088,1758077845.86576,0.0,0.0,0.0,21.31403,47.38361,-15.58445,9.76,-1.7,1.1,2.0
1758077845.93542,1758077845.87576,0.0,0.0,0.0,25.38203,33.17426,-16.84496,9.79,-2.19,0.76,2.0
1758077845.95176,1758077845.88576,0.0,0.0,0.0,28.76248,13.5791,-18.27736,8.6,-2.44,-0.24,2.0
1758077845.95279,1758077845.89576,0.0,0.0,0.0,33.00237,-6.87549,-15.92823,8.6,-2.44,-0.24,2.0
1758077845.96747,1758077845.90576,0.0,0.0,0.0,39.53409,-21.60051,-10.94349,8.82,-2.66,-1.27,2.0
1758077845.9694,1758077845.91576,0.0,0.0,0.0,43.65939,-27.96034,-6.99009,8.82,-2.66,-1.27,2.0
1758077845.98478,1758077845.92576,0.0,0.0,0.0,48.8733,-38.38818,-3.72423,8.95,-3.02,-1.41,2.0
1758077846.00169,1758077845.93576,0.0,0.0,0.0,54.48829,-46.63877,-1.60428,8.95,-3.02,-1.41,2.0
1758077846.00262,1758077845.94576,0.0,0.0,0.0,61.93674,-60.50434,1.60428,8.18,-3.21,-1.94,2.0
1758077846.01764,1758077845.95576,0.0,0.0,0.0,64.51505,-69.61437,3.09397,8.22,-3.08,-1.98,2.0
1758077846.01862,1758077845.96576,0.0,0.0,0.0,64.28587,-77.29202,3.55234,8.22,-3.08,-1.98,2.0
1758077846.03355,1758077845.97576,0.0,0.0,0.0,61.65026,-85.31342,5.21392,8.86,-2.19,-1.55,2.0
1758077846.04967,1758077845.98576,0.0,0.0,0.0,50.363,-104.73669,15.41257,8.86,-2.19,-1.55,2.0
1758077846.05068,1758077845.99576,0.0,0.0,0.0,35.75257,-117.39906,29.39274,12.5,-0.43,3.75,2.0
1758077846.06571,1758077846.00576,0.0,0.0,0.0,16.55848,-132.92622,48.12846,12.5,-0.43,3.75,2.0
1758077846.08149,1758077846.01576,0.0,0.0,0.0,1.20321,-144.49997,70.13004,20.89,5.48,9.18,2.0
1758077846.08215,1758077846.02576,0.0,0.0,0.0,-15.24068,-114.70615,82.96429,22.68,7.4,2.66,2.0
1758077846.09784,1758077846.03576,0.0,0.0,0.0,-23.31938,-91.73055,77.29202,22.68,7.4,2.66,2.0
1758077846.09991,1758077846.04576,0.0,0.0,0.0,-29.39274,-70.76029,66.46311,13.38,2.14,-1.25,2.0
1758077846.11477,1758077846.05576,0.0,0.0,0.0,-33.51803,-53.91533,42.05511,13.38,2.14,-1.25,2.0
1758077846.13053,1758077846.06576,0.0,0.0,0.0,-33.9764,-40.10705,23.0902,6.13,-0.25,0.59,2.0
1758077846.13122,1758077846.07576,0.0,0.0,0.0,-28.30412,-31.16891,7.67763,6.13,-0.25,0.59,2.0
1758077846.14657,1758077846.08576,0.0,0.0,0.0,-19.82434,-14.20935,-4.35448,5.68,-0.26,1.58,2.0
1758077846.14801,1758077846.09576,0.0,0.0,0.0,-3.66693,9.91217,-13.40721,5.68,-0.26,1.58,2.0
1758077846.16361,1758077846.10576,0.0,0.0,0.0,7.33386,21.94428,-16.50119,10.71,-0.6,4.21,2.0
1758077846.18182,1758077846.11576,0.0,0.0,0.0,17.58981,32.88778,-16.10011,12.15,-1.14,2.11,2.0
1758077846.18217,1758077846.12576,0.0,0.0,0.0,24.75178,49.38896,-14.32395,12.15,-1.14,2.11,2.0
1758077846.19784,1758077846.13576,0.0,0.0,0.0,28.93437,75.00018,-10.37054,12.88,-1.36,-0.21,2.0
1758077846.19987,1758077846.14576,0.0,0.0,0.0,29.39274,86.80311,-6.7609,12.88,-1.36,-0.21,2.0
1758077846.21486,1758077846.15576,0.0,0.0,0.0,28.76248,93.10565,-3.89611,11.18,-0.76,-0.61,2.0
1758077846.23083,1758077846.16576,0.0,0.0,0.0,27.96034,93.10565,-1.03132,11.18,-0.76,-0.61,2.0
1758077846.23119,1758077846.17576,0.0,0.0,0.0,25.61122,89.03764,2.34913,8.62,0.29,0.28,2.0
1758077846.24664,1758077846.18576,0.0,0.0,0.0,23.31938,85.08423,3.09397,7.42,1.53,0.8,2.0
1758077846.24799,1758077846.19576,0.0,0.0,0.0,20.62648,81.36001,2.63561,7.42,1.53,0.8,2.0
1758077846.26374,1758077846.20576,0.0,0.0,0.0,17.47521,75.68773,1.20321,7.28,2.47,0.78,2.0
1758077846.2796,1758077846.21576,0.0,0.0,0.0,12.204,67.37984,-2.11994,7.28,2.47,0.78,2.0
1758077846.28102,1758077846.22576,0.0,0.0,0.0,8.47978,61.1346,-4.69825,7.84,2.6,0.76,2.0
1758077846.29555,1758077846.23576,0.0,0.0,0.0,4.29718,52.9986,-7.50575,7.84,2.6,0.76,2.0
1758077846.31154,1758077846.24576,0.0,0.0,0.0,-0.45837,40.85189,-10.54242,8.06,1.95,1.04,2.0
1758077846.31214,1758077846.25576,0.0,0.0,0.0,-7.67763,22.11617,-14.38124,8.08,1.18,0.75,2.0
1758077846.32792,1758077846.26576,0.0,0.0,0.0,-11.51645,10.59972,-15.06879,8.08,1.18,0.75,2.0
1758077846.32877,1758077846.27576,0.0,0.0,0.0,-15.41257,1.60428,-17.24603,8.52,0.86,0.38,2.0
1758077846.34387,1758077846.28576,0.0,0.0,0.0,-18.85031,-6.58902,-18.85031,8.52,0.86,0.38,2.0
1758077846.35986,1758077846.29576,0.0,0.0,0.0,-20.45459,-14.03747,-19.88164,8.62,0.96,0.68,2.0
1758077846.36105,1758077846.30576,0.0,0.0,0.0,-20.85567,-13.46451,-21.02755,8.62,0.96,0.68,2.0
1758077846.3759,1758077846.31576,0.0,0.0,0.0,-20.51189,-9.5684,-20.97026,9.45,1.0,0.63,2.0
1758077846.37678,1758077846.32576,0.0,0.0,0.0,-18.62113,-0.40107,-19.48057,9.45,1.0,0.63,2.0
1758077846.39213,1758077846.33576,0.0,0.0,0.0,-17.01685,4.87014,-17.76169,10.24,0.68,0.5,2.0
1758077846.40762,1758077846.34576,0.0,0.0,0.0,-15.35527,8.30789,-15.29797,10.21,0.06,0.23,2.0
1758077846.40887,1758077846.35576,0.0,0.0,0.0,-13.5791,10.59972,-12.14671,10.21,0.06,0.23,2.0
1758077846.42387,1758077846.36576,0.0,0.0,0.0,-12.08941,15.29797,-6.24524,9.94,-0.59,-0.19,2.0
1758077846.43995,1758077846.37576,0.0,0.0,0.0,-11.63104,18.85031,-2.11994,9.94,-0.59,-0.19,2.0
1758077846.44108,1758077846.38576,0.0,0.0,0.0,-11.57375,19.53786,1.71887,9.79,-0.84,-0.43,2.0
1758077846.45594,1758077846.39576,0.0,0.0,0.0,-11.86023,16.73037,5.21392,9.79,-0.84,-0.43,2.0
1758077846.45682,1758077846.40576,0.0,0.0,0.0,-13.5791,8.99544,9.39651,9.07,-0.42,-0.54,2.0
1758077846.47219,1758077846.41576,0.0,0.0,0.0,-15.87093,14.09476,12.43318,9.87,0.47,-0.72,2.0
1758077846.48791,1758077846.42576,0.0,0.0,0.0,-19.48057,39.70598,10.48513,9.87,0.47,-0.72,2.0
1758077846.48916,1758077846.43576,0.0,0.0,0.0,-26.06958,70.01544,8.42248,13.2,1.69,-0.36,2.0
1758077846.50384,1758077846.44576,0.0,0.0,0.0,-31.97105,41.88322,8.65166,13.2,1.69,-0.36,2.0
1758077846.51967,1758077846.45576,0.0,0.0,0.0,-40.50812,8.25059,3.49504,7.08,2.59,0.78,2.0
1758077846.52085,1758077846.46576,0.0,0.0,0.0,-44.86259,-8.36518,0.57296,7.08,2.59,0.78,2.0
1758077846.53593,1758077846.47576,0.0,0.0,0.0,-50.1911,-13.12073,-2.7502,9.25,3.39,-2.15,2.0
1758077846.53716,1758077846.48576,0.0,0.0,0.0,-57.29578,-19.70975,-3.72423,9.35,3.52,-3.46,2.0
1758077846.55226,1758077846.49576,0.0,0.0,0.0,-61.99404,-23.49127,-5.78687,9.35,3.52,-3.46,2.0
1758077846.568,1758077846.50576,0.0,0.0,0.0,-66.635,-28.87707,-6.7609,8.89,2.87,-1.0,2.0
1758077846.56922,1758077846.51576,0.0,0.0,0.0,-72.88023,-32.71589,-7.04738,8.89,2.87,-1.0,2.0
1758077846.58482,1758077846.52576,0.0,0.0,0.0,-76.31798,-36.21093,-5.72958,9.51,1.73,-0.77,2.0
1758077846.58646,1758077846.53576,0.0,0.0,0.0,-78.15145,-41.71133,-4.35448,9.51,1.73,-0.77,2.0
1758077846.6023,1758077846.54576,0.0,0.0,0.0,-77.4066,-53.62885,-3.55234,10.26,0.37,1.06,2.0
1758077846.61769,1758077846.55576,0.0,0.0,0.0,-69.21331,-87.08958,-5.61499,11.84,0.37,4.85,2.0
1758077846.62076,1758077846.56576,0.0,0.0,0.0,-62.33781,-114.87804,-15.75634,11.84,-2.22,4.85,2.0
1758077846.63581,1758077846.57576,0.0,0.0,0.0,-52.65482,-119.92007,-27.73116,15.81,-5.68,7.27,2.0
1758077846.63676,1758077846.58576,0.0,0.0,0.0,-39.4195,-105.76801,-37.35685,15.81,-5.68,7.27,2.0
1758077846.65312,1758077846.59576,0.0,0.0,0.0,-18.10547,-87.0323,-42.68536,17.7,-5.52,4.08,2.0
1758077846.67136,1758077846.60576,0.0,0.0,0.0,-9.05273,-86.34474,-39.99245,17.7,-5.52,4.08,2.0
1758077846.67235,1758077846.61576,0.0,0.0,0.0,-4.35448,-84.39669,-35.2942,10.73,-1.26,1.78,2.0
1758077846.69029,1758077846.62576,0.0,0.0,0.0,-3.66693,-71.27596,-28.59059,10.73,-1.26,1.78,2.0
1758077846.69137,1758077846.63576,0.0,0.0,0.0,-8.93814,-40.85189,-13.5218,9.78,0.27,0.0,2.0
1758077846.70675,1758077846.64576,0.0,0.0,0.0,-16.21471,-27.38738,-2.11994,10.09,0.57,0.53,2.0
1758077846.70796,1758077846.65576,0.0,0.0,0.0,-24.4653,-17.13144,7.62034,10.09,0.57,0.53,2.0
1758077846.72299,1758077846.66576,0.0,0.0,0.0,-32.83048,-6.8182,13.69369,9.96,1.33,0.62,2.0
1758077846.73892,1758077846.67576,0.0,0.0,0.0,-45.83662,6.13065,14.49583,9.96,1.33,0.62,2.0
1758077846.74029,1758077846.68576,0.0,0.0,0.0,-53.11319,9.22462,11.80293,9.71,2.19,0.25,2.0
1758077846.75494,1758077846.69576,0.0,0.0,0.0,-60.44705,11.11538,6.58902,9.71,2.19,0.25,2.0
1758077846.75625,1758077846.70576,0.0,0.0,0.0,-64.57235,17.6471,0.22918,9.67,1.96,0.88,2.0
1758077846.77203,1758077846.71576,0.0,0.0,0.0,-62.5097,24.5226,-1.77617,10.05,-0.33,1.57,2.0
1758077846.78954,1758077846.72576,0.0,0.0,0.0,-57.46767,29.73651,-2.06265,10.05,-0.33,1.57,2.0
1758077846.79061,1758077846.73576,0.0,0.0,0.0,-50.99325,30.59595,-1.71887,8.65,-2.83,0.51,2.0
1758077846.80581,1758077846.74576,0.0,0.0,0.0,-39.82057,27.67386,-0.45837,8.65,-2.83,0.51,2.0
1758077846.80744,1758077846.75576,0.0,0.0,0.0,-32.48671,26.64254,0.80214,7.14,-3.72,-0.29,2.0
1758077846.82203,1758077846.76576,0.0,0.0,0.0,-25.15285,25.15285,2.6929,7.14,-3.72,-0.29,2.0
1758077846.8382,1758077846.77576,0.0,0.0,0.0,-17.93358,23.54857,4.23989,7.32,-3.19,0.15,2.0
1758077846.83979,1758077846.78576,0.0,0.0,0.0,-6.8182,20.16812,6.13065,8.14,-2.08,0.43,2.0
1758077846.85488,1758077846.79576,0.0,0.0,0.0,0.34377,17.18874,6.7609,8.14,-2.08,0.43,2.0
1758077846.85624,1758077846.80576,0.0,0.0,0.0,7.16197,14.15206,7.33386,8.8,-1.31,0.17,2.0
1758077846.87236,1758077846.81576,0.0,0.0,0.0,13.17803,10.54242,8.0787,8.8,-1.31,0.17,2.0
1758077846.88881,1758077846.82576,0.0,0.0,0.0,20.51189,4.64096,9.39651,8.9,-1.12,-0.22,2.0
1758077846.89162,1758077846.83576,0.0,0.0,0.0,24.57989,3.55234,9.68299,8.9,-1.12,-0.22,2.0
1758077846.90686,1758077846.84576,0.0,0.0,0.0,27.96034,4.0107,9.96947,9.19,-1.31,-0.62,2.0
1758077846.91047,1758077846.85576,0.0,0.0,0.0,30.36677,3.72423,9.74028,9.19,-1.31,-0.62,2.0
1758077846.92583,1758077846.86576,0.0,0.0,0.0,32.42941,5.09932,8.36518,9.26,-1.6,-0.52,2.0
1758077846.92749,1758077846.87576,0.0,0.0,0.0,32.83048,9.85487,7.04738,9.92,-1.61,-0.77,2.0
1758077846.94211,1758077846.88576,0.0,0.0,0.0,32.54401,15.87093,5.50039,9.92,-1.61,-0.77,2.0
1758077846.95892,1758077846.89576,0.0,0.0,0.0,31.28349,21.94428,2.97938,10.53,-1.2,-1.13,2.0
1758077846.96036,1758077846.90576,0.0,0.0,0.0,30.13758,30.19488,1.20321,10.53,-1.2,-1.13,2.0
1758077846.97499,1758077846.91576,0.0,0.0,0.0,28.76248,32.6013,-0.68755,10.44,-0.54,-1.48,2.0
1758077846.97635,1758077846.92576,0.0,0.0,0.0,27.50197,30.99702,-2.46372,10.44,-0.54,-1.48,2.0
1758077846.99219,1758077846.93576,0.0,0.0,0.0,26.06958,22.40265,-4.98473,9.61,0.0,-1.53,2.0
1758077847.01077,1758077846.94576,0.0,0.0,0.0,26.35606,28.41871,-7.50575,9.8,0.04,-1.72,2.0
1758077847.0117,1758077846.95576,0.0,0.0,0.0,27.84575,50.2484,-6.53172,9.8,0.04,-1.72,2.0
1758077847.02694,1758077846.96576,0.0,0.0,0.0,28.476,75.51585,-7.62034,12.27,-0.68,-1.29,2.0
1758077847.0281,1758077846.97576,0.0,0.0,0.0,32.54401,81.5892,-12.60507,12.27,-0.68,-1.29,2.0
1758077847.04292,1758077846.98576,0.0,0.0,0.0,36.26823,42.57077,-17.81899,7.81,-1.28,0.66,2.0
1758077847.04658,1758077846.99576,0.0,0.0,0.0,46.63877,-9.4538,-13.80828,7.81,-1.28,0.66,2.0
1758077847.06193,1758077847.00576,0.0,0.0,0.0,55.6342,-39.4768,-5.27121,4.85,-2.42,-1.22,2.0
1758077847.07895,1758077847.01576,0.0,0.0,0.0,61.99404,-37.35685,0.85944,11.36,-3.49,-3.29,2.0
1758077847.08016,1758077847.02576,0.0,0.0,0.0,65.2599,-36.49741,2.6929,11.36,-3.49,-3.29,2.0
1758077847.09492,1758077847.03576,0.0,0.0,0.0,68.01009,-39.3622,3.60963,10.7,-3.22,-2.53,2.0
1758077847.09616,1758077847.04576,0.0,0.0,0.0,68.86953,-42.34158,2.86479,10.7,-3.22,-2.53,2.0
1758077847.11195,1758077847.05576,0.0,0.0,0.0,66.80688,-48.41494,0.68755,10.29,-2.05,0.26,2.0
1758077847.12897,1758077847.06576,0.0,0.0,0.0,63.88479,-52.36834,-0.40107,10.29,-2.05,0.26,2.0
1758077847.1312,1758077847.07576,0.0,0.0,0.0,57.75415,-52.08187,-1.14592,10.6,-0.47,-1.25,2.0
1758077847.14598,1758077847.08576,0.0,0.0,0.0,49.96192,-49.84733,2.34913,10.6,-0.47,-1.25,2.0
1758077847.14717,1758077847.09576,0.0,0.0,0.0,35.12231,-52.19646,7.10468,13.17,1.36,1.0,2.0
1758077847.16197,1758077847.10576,0.0,0.0,0.0,25.15285,-68.12468,15.0115,14.76,3.53,2.72,2.0
1758077847.1789,1758077847.11576,0.0,0.0,0.0,18.85031,-85.31342,29.96569,14.76,3.53,2.72,2.0
1758077847.18013,1758077847.12576,0.0,0.0,0.0,8.99544,-78.26604,46.63877,16.6,3.89,3.65,2.0
1758077847.19496,1758077847.13576,0.0,0.0,0.0,1.60428,-67.55173,49.84733,16.6,3.89,3.65,2.0
1758077847.1962,1758077847.14576,0.0,0.0,0.0,-6.24524,-60.90542,47.78468,15.09,2.56,0.87,2.0
1758077847.21202,1758077847.15576,0.0,0.0,0.0,-12.60507,-49.56085,43.94586,15.09,2.56,0.87,2.0
1758077847.22905,1758077847.16576,0.0,0.0,0.0,-17.36062,-23.60586,33.11696,10.41,0.33,0.87,2.0
1758077847.23177,1758077847.17576,0.0,0.0,0.0,-16.10011,-13.5791,24.75178,7.29,-0.5,0.87,2.0
1758077847.24701,1758077847.18576,0.0,0.0,0.0,-10.59972,-5.27121,17.99088,7.29,-0.5,0.87,2.0
1758077847.249,1758077847.19576,0.0,0.0,0.0,-2.46372,8.76626,12.71966,9.04,-0.98,2.79,2.0
1758077847.26406,1758077847.20576,0.0,0.0,0.0,10.54242,31.97105,5.09932,9.04,-0.98,2.79,2.0
1758077847.26604,1758077847.21576,0.0,0.0,0.0,17.81899,44.8053,-0.0573,12.82,-1.37,2.8,2.0
1758077847.28299,1758077847.22576,0.0,0.0,0.0,23.94964,57.58226,-3.32316,12.82,-1.37,2.8,2.0
1758077847.29904,1758077847.23576,0.0,0.0,0.0,27.73116,70.76029,-5.55769,13.2,-1.17,0.88,2.0
1758077847.30023,1758077847.24576,0.0,0.0,0.0,29.9084,89.49601,-7.62034,11.89,-0.56,-0.29,2.0
1758077847.31508,1758077847.25576,0.0,0.0,0.0,29.62192,95.62666,-8.93814,11.89,-0.56,-0.29,2.0
1758077847.31624,1758077847.26576,0.0,0.0,0.0,29.22085,95.1683,-8.25059,9.58,0.33,-0.23,2.0
1758077847.3323,1758077847.27576,0.0,0.0,0.0,28.30412,93.96508,-6.47442,9.58,0.33,-0.23,2.0
1758077847.34808,1758077847.28576,0.0,0.0,0.0,24.75178,92.76187,-4.52637,8.39,1.1,0.12,2.0
1758077847.3493,1758077847.29576,0.0,0.0,0.0,21.37133,91.27219,-3.49504,8.39,1.1,0.12,2.0
1758077847.366,1758077847.30576,0.0,0.0,0.0,17.24603,88.98035,-3.55234,7.56,1.63,0.0,2.0
1758077847.36689,1758077847.31576,0.0,0.0,0.0,10.37054,86.11556,-4.0107,7.56,1.63,0.0,2.0
1758077847.38235,1758077847.32576,0.0,0.0,0.0,5.4431,81.70379,-4.58366,7.1,1.91,0.38,2.0
1758077847.3991,1758077847.33576,0.0,0.0,0.0,0.0573,76.83365,-5.4431,7.16,1.86,0.84,2.0
1758077847.40033,1758077847.34576,0.0,0.0,0.0,-5.21392,67.26525,-6.07335,7.16,1.86,0.84,2.0
1758077847.41617,1758077847.35576,0.0,0.0,0.0,-13.34992,47.44091,-7.39116,7.09,1.65,1.19,2.0
1758077847.41736,1758077847.36576,0.0,0.0,0.0,-17.76169,33.34615,-8.65166,7.09,1.65,1.19,2.0
1758077847.43322,1758077847.37576,0.0,0.0,0.0,-21.14215,17.53251,-10.48513,7.69,1.54,1.08,2.0
1758077847.43658,1758077847.38576,0.0,0.0,0.0,-24.29341,8.0787,-13.75099,7.69,1.54,1.08,2.0
1758077847.45298,1758077847.39576,0.0,0.0,0.0,-27.67386,0.57296,-19.48057,8.5,1.63,0.7,2.0
1758077847.47094,1758077847.40576,0.0,0.0,0.0,-28.93437,-0.0573,-22.68913,9.11,1.51,0.6,2.0
1758077847.47258,1758077847.41576,0.0,0.0,0.0,-29.62192,0.57296,-25.21014,9.11,1.51,0.6,2.0
1758077847.48712,1758077847.42576,0.0,0.0,0.0,-29.39274,2.97938,-26.35606,9.4,1.0,0.5,2.0
1758077847.48832,1758077847.43576,0.0,0.0,0.0,-28.87707,8.02141,-26.24147,9.4,1.0,0.5,2.0
1758077847.50344,1758077847.44576,0.0,0.0,0.0,-28.41871,10.59972,-25.21014,9.59,0.31,0.52,2.0
1758077847.52046,1758077847.45576,0.0,0.0,0.0,-27.84575,10.59972,-22.91831,9.59,0.31,0.52,2.0
1758077847.52136,1758077847.46576,0.0,0.0,0.0,-27.50197,7.16197,-19.70975,9.21,-0.37,0.09,2.0
1758077847.53615,1758077847.47576,0.0,0.0,0.0,-26.52795,3.09397,-12.77696,8.77,-0.84,-0.23,2.0
1758077847.53741,1758077847.48576,0.0,0.0,0.0,-25.8404,-0.22918,-7.50575,8.77,-0.84,-0.23,2.0
1758077847.55236,1758077847.49576,0.0,0.0,0.0,-24.98096,-7.33386,-3.26586,8.21,-0.77,-0.74,2.0
1758077847.56922,1758077847.50576,0.0,0.0,0.0,-24.75178,-17.30333,2.29183,8.21,-0.77,-0.74,2.0
1758077847.571,1758077847.51576,0.0,0.0,0.0,-26.06958,-9.96947,5.09932,8.47,-0.23,-0.84,2.0
1758077847.58626,1758077847.52576,0.0,0.0,0.0,-27.96034,22.57454,5.84417,8.47,-0.23,-0.84,2.0
1758077847.58792,1758077847.53576,0.0,0.0,0.0,-33.00237,42.1124,7.73493,13.17,0.75,-0.79,2.0
1758077847.60253,1758077847.54576,0.0,0.0,0.0,-39.70598,-13.40721,4.69825,13.17,0.75,-0.79,2.0
1758077847.61852,1758077847.55576,0.0,0.0,0.0,-42.34158,-29.27814,3.09397,7.6,1.74,0.75,2.0
1758077847.6202,1758077847.56576,0.0,0.0,0.0,-45.72203,-32.42941,-2.86479,11.4,2.64,-1.53,2.0
1758077847.63542,1758077847.57576,0.0,0.0,0.0,-47.32632,-30.02299,-6.07335,11.4,2.64,-1.53,2.0
1758077847.63698,1758077847.58576,0.0,0.0,0.0,-51.27972,-27.10091,-9.33921,12.77,2.42,-1.59,2.0
1758077847.65253,1758077847.59576,0.0,0.0,0.0,-54.48829,-28.07493,-8.70896,12.77,2.42,-1.59,2.0
1758077847.6685,1758077847.60576,0.0,0.0,0.0,-57.52497,-28.476,-6.47442,11.34,1.34,0.05,2.0
1758077847.66955,1758077847.61576,0.0,0.0,0.0,-59.24384,-27.67386,-3.49504,11.34,1.34,0.05,2.0
1758077847.6858,1758077847.62576,0.0,0.0,0.0,-58.49899,-27.84575,0.22918,10.66,0.07,-0.02,2.0
1758077847.68751,1758077847.63576,0.0,0.0,0.0,-55.6915,-36.38282,2.06265,10.63,-1.55,2.14,2.0
1758077847.70223,1758077847.64576,0.0,0.0,0.0,-50.64947,-61.02001,2.97938,10.63,-1.55,2.14,2.0
1758077847.71949,1758077847.65576,0.0,0.0,0.0,-46.2377,-91.90244,-2.46372,9.4,-3.09,4.62,2.0
1758077847.72075,1758077847.66576,0.0,0.0,0.0,-35.75257,-110.58086,-16.3293,9.4,-3.09,4.62,2.0
1758077847.7355,1758077847.67576,0.0,0.0,0.0,-27.50197,-112.18513,-26.47065,12.96,-3.49,4.26,2.0
1758077847.73645,1758077847.68576,0.0,0.0,0.0,-19.36597,-109.26305,-36.15364,12.96,-3.49,4.26,2.0
1758077847.75546,1758077847.69576,0.0,0.0,0.0,-12.08941,-105.71072,-42.68536,14.01,-2.22,5.01,2.0
1758077847.76149,1758077847.70576,0.0,0.0,0.0,-8.65166,-92.4754,-46.35228,13.48,-0.28,3.72,2.0
1758077847.7765,1758077847.71576,0.0,0.0,0.0,-10.8289,-74.88559,-44.28964,13.48,-0.28,3.72,2.0
1758077847.7791,1758077847.72576,0.0,0.0,0.0,-14.9542,-58.3844,-37.58603,13.4,0.99,2.38,2.0
1758077847.79457,1758077847.73576,0.0,0.0,0.0,-26.98631,-39.07573,-21.14215,13.4,0.99,2.38,2.0
1758077847.81108,1758077847.74576,0.0,0.0,0.0,-37.52874,-26.41335,-9.28192,11.22,1.61,0.51,2.0
1758077847.8123,1758077847.75576,0.0,0.0,0.0,-47.78468,-14.61043,1.03132,11.22,1.61,0.51,2.0
1758077847.81694,1758077847.76576,0.0,0.0,0.0,-55.51962,-6.13065,8.0787,9.37,1.77,0.0,2.0
1758077847.83605,1758077847.77576,0.0,0.0,0.0,-62.33781,2.57831,11.57375,9.37,1.77,1.28,2.0
1758077847.83706,1758077847.78576,0.0,0.0,0.0,-63.25455,10.02676,10.37054,9.18,1.48,1.28,2.0
1758077847.85408,1758077847.79576,0.0,0.0,0.0,-60.73353,18.85031,8.02141,10.02,0.01,1.19,2.0
1758077847.8593,1758077847.80576,0.0,0.0,0.0,-55.57691,28.41871,5.21392,10.02,0.01,1.19,2.0
1758077847.87614,1758077847.81576,0.0,0.0,0.0,-45.83662,39.53409,1.08862,8.74,-1.95,0.52,2.0
1758077847.87732,1758077847.82576,0.0,0.0,0.0,-39.3622,44.57612,-0.68755,8.74,-1.95,0.52,2.0
1758077847.89256,1758077847.83576,0.0,0.0,0.0,-33.23156,46.52417,-2.46372,6.69,-3.09,-0.42,2.0
1758077847.90927,1758077847.84576,0.0,0.0,0.0,-27.84575,46.40959,-3.55234,6.69,-3.09,-0.42,2.0
1758077847.91109,1758077847.85576,0.0,0.0,0.0,-20.3973,47.72739,-5.27121,6.03,-3.11,-0.73,2.0
1758077847.9266,1758077847.86576,0.0,0.0,0.0,-15.46986,49.15978,-5.90147,7.37,-2.35,-0.68,2.0
1758077847.92779,1758077847.87576,0.0,0.0,0.0,-10.54242,48.8733,-5.95876,7.37,-2.35,-0.68,2.0
1758077847.94255,1758077847.88576,0.0,0.0,0.0,-5.32851,48.58683,-5.50039,8.5,-1.3,-0.5,2.0
1758077847.94668,1758077847.89576,0.0,0.0,0.0,1.66158,48.30034,-3.03668,8.5,-1.3,-0.5,2.0
1758077847.96232,1758077847.90576,0.0,0.0,0.0,6.24524,49.50356,-0.74485,9.58,-0.65,0.06,2.0
1758077847.98059,1758077847.91576,0.0,0.0,0.0,10.19865,50.1911,1.83346,9.58,-0.65,0.06,2.0
1758077847.98153,1758077847.92576,0.0,0.0,0.0,14.83961,50.2484,5.27121,9.7,-0.64,0.18,2.0
1758077847.99635,1758077847.93576,0.0,0.0,0.0,16.95955,51.10783,6.35983,9.51,-1.01,0.18,2.0
1758077847.99937,1758077847.94576,0.0,0.0,0.0,18.73572,50.87865,6.58902,9.51,-1.01,0.18,2.0
1758077848.0146,1758077847.95576,0.0,0.0,0.0,19.48057,48.12846,6.24524,9.22,-1.33,0.19,2.0
1758077848.02043,1758077847.96576,0.0,0.0,0.0,19.07949,38.50277,4.1253,9.22,-1.33,0.19,2.0
1758077848.03537,1758077847.97576,0.0,0.0,0.0,17.87628,34.89313,0.85944,8.71,-1.43,0.11,2.0
1758077848.04143,1758077847.98576,0.0,0.0,0.0,17.24603,35.40879,-1.71887,8.71,-1.43,0.11,2.0
1758077848.05678,1758077847.99576,0.0,0.0,0.0,16.61578,43.02913,-6.13065,9.63,-1.28,-0.37,2.0
1758077848.05919,1758077848.00576,0.0,0.0,0.0,16.95955,54.14451,-9.85487,10.58,-1.28,-0.13,2.0
1758077848.07465,1758077848.01576,0.0,0.0,0.0,18.79302,51.10783,-10.94349,10.58,-0.97,-0.13,2.0
1758077848.0912,1758077848.02576,0.0,0.0,0.0,21.42862,46.1804,-10.54242,9.89,-0.9,0.41,2.0
1758077848.09265,1758077848.03576,0.0,0.0,0.0,23.66316,46.69606,-10.25595,9.89,-0.9,0.41,2.0
1758077848.10844,1758077848.04576,0.0,0.0,0.0,26.24147,40.16434,-10.8862,10.34,-0.73,-0.36,2.0
1758077848.10986,1758077848.05576,0.0,0.0,0.0,28.07493,26.35606,-11.00079,10.34,-0.73,-0.36,2.0
1758077848.12548,1758077848.06576,0.0,0.0,0.0,31.97105,-7.79223,-9.11003,8.3,-0.78,-0.82,2.0
1758077848.12642,1758077848.07576,0.0,0.0,0.0,39.4195,-46.69606,-3.83882,8.3,-0.78,-0.82,2.0
1758077848.14269,1758077848.08576,0.0,0.0,0.0,45.77933,-66.11933,9.74028,6.89,-1.69,-2.4,2.0
1758077848.15873,1758077848.09576,0.0,0.0,0.0,49.84733,-65.77556,16.95955,10.48,-2.87,-1.81,2.0
1758077848.15992,1758077848.10576,0.0,0.0,0.0,52.9986,-70.47381,20.62648,10.48,-2.87,-1.81,2.0
1758077848.17472,1758077848.11576,0.0,0.0,0.0,55.86338,-75.22936,21.31403,9.58,-2.9,-1.19,2.0
1758077848.19156,1758077848.12576,0.0,0.0,0.0,57.0093,-76.66176,19.82434,9.58,-2.9,-1.19,2.0
1758077848.19364,1758077848.13576,0.0,0.0,0.0,55.6342,-77.92226,18.73572,9.84,-2.32,-0.75,2.0
1758077848.20876,1758077848.14576,0.0,0.0,0.0,50.53488,-78.26604,18.50654,9.84,-2.32,-0.75,2.0
1758077848.2106,1758077848.15576,0.0,0.0,0.0,35.75257,-85.14153,21.7151,11.06,-0.92,0.31,2.0
1758077848.22574,1758077848.16576,0.0,0.0,0.0,25.49662,-108.00255,30.93972,14.53,2.37,5.89,2.0
1758077848.22662,1758077848.17576,0.0,0.0,0.0,18.62113,-122.21191,48.70141,14.53,2.37,5.89,2.0
1758077848.24348,1758077848.18576,0.0,0.0,0.0,10.71431,-107.54418,63.25455,22.07,5.52,7.16,2.0
1758077848.26076,1758077848.19576,0.0,0.0,0.0,1.3751,-92.18892,66.97877,22.07,5.52,7.16,2.0
1758077848.26177,1758077848.20576,0.0,0.0,0.0,-2.34913,-93.39213,63.65561,16.32,4.64,3.44,2.0
1758077848.27677,1758077848.21576,0.0,0.0,0.0,-3.49504,-76.89094,56.78012,16.32,4.64,3.44,2.0
1758077848.27796,1758077848.22576,0.0,0.0,0.0,-0.57296,-59.12925,47.09713,10.17,0.83,3.53,2.0
1758077848.29486,1758077848.23576,0.0,0.0,0.0,9.39651,-49.96192,29.73651,6.74,-0.62,1.69,2.0
1758077848.31056,1758077848.24576,0.0,0.0,0.0,18.73572,-35.2942,18.44924,6.74,-0.62,1.69,2.0
1758077848.31171,1758077848.25576,0.0,0.0,0.0,27.10091,-12.71966,7.16197,11.88,-1.09,3.87,2.0
1758077848.32658,1758077848.26576,0.0,0.0,0.0,34.95043,5.21392,-2.97938,11.88,-1.09,3.87,2.0
1758077848.32973,1758077848.27576,0.0,0.0,0.0,42.34158,31.62727,-13.40721,13.99,-0.62,1.24,2.0
1758077848.34555,1758077848.28576,0.0,0.0,0.0,43.02913,52.19646,-16.73037,13.99,-0.62,1.24,2.0
1758077848.34658,1758077848.29576,0.0,0.0,0.0,41.42485,71.21866,-17.53251,13.83,0.1,-0.15,2.0
1758077848.3662,1758077848.30576,0.0,0.0,0.0,38.90384,84.79775,-16.21471,13.83,0.1,-0.15,2.0
1758077848.36713,1758077848.31576,0.0,0.0,0.0,34.77854,96.88716,-11.57375,11.29,0.7,-0.44,2.0
1758077848.38338,1758077848.32576,0.0,0.0,0.0,31.45539,101.92919,-8.88085,8.81,1.18,0.33,2.0
1758077848.40089,1758077848.33576,0.0,0.0,0.0,28.24682,102.55945,-6.35983,8.81,1.18,0.33,2.0
1758077848.40204,1758077848.34576,0.0,0.0,0.0,22.40265,101.18435,-3.95341,7.02,1.63,0.44,2.0
1758077848.41671,1758077848.35576,0.0,0.0,0.0,18.44924,100.6114,-3.89611,7.02,1.63,0.44,2.0
1758077848.41775,1758077848.36576,0.0,0.0,0.0,14.20935,99.06441,-4.29718,6.6,1.8,0.62,2.0
1758077848.43353,1758077848.37576,0.0,0.0,0.0,10.48513,96.25692,-4.98473,6.6,1.8,0.62,2.0
1758077848.45113,1758077848.38576,0.0,0.0,0.0,4.81285,87.31877,-6.35983,6.43,1.66,0.69,2.0
1758077848.45233,1758077848.39576,0.0,0.0,0.0,1.48969,77.75038,-6.99009,6.33,1.32,1.09,2.0
1758077848.46787,1758077848.40576,0.0,0.0,0.0,-1.77617,65.14531,-8.25059,6.33,1.32,1.09,2.0
1758077848.46904,1758077848.41576,0.0,0.0,0.0,-5.27121,49.38896,-9.33921,6.27,1.04,1.11,2.0
1758077848.4855,1758077848.42576,0.0,0.0,0.0,-9.62569,24.86637,-10.8862,6.27,1.04,1.11,2.0
1758077848.50164,1758077848.43576,0.0,0.0,0.0,-11.86023,9.39651,-10.71431,6.98,0.97,1.07,2.0
1758077848.50339,1758077848.44576,0.0,0.0,0.0,-15.24068,-1.14592,-12.14671,6.98,0.97,1.07,2.0
1758077848.51896,1758077848.45576,0.0,0.0,0.0,-18.16276,-5.78687,-13.23533,8.11,1.21,0.92,2.0
1758077848.52053,1758077848.46576,0.0,0.0,0.0,-21.37133,-5.55769,-13.5791,9.18,1.33,0.7,2.0
1758077848.53589,1758077848.47576,0.0,0.0,0.0,-22.40265,-4.1253,-13.12073,9.18,1.33,0.7,2.0
1758077848.53707,1758077848.48576,0.0,0.0,0.0,-22.51724,-3.09397,-12.14671,9.24,1.09,0.61,2.0
1758077848.55544,1758077848.49576,0.0,0.0,0.0,-22.11617,-3.03668,-10.8289,9.24,1.09,0.61,2.0
1758077848.55687,1758077848.50576,0.0,0.0,0.0,-20.05352,-6.24524,-8.47978,9.24,0.53,0.0,2.0
1758077848.57467,1758077848.51576,0.0,0.0,0.0,-18.73572,-11.28727,-5.78687,9.24,0.53,0.0,2.0
1758077848.5776,1758077848.52576,0.0,0.0,0.0,-16.95955,-14.09476,-3.32316,9.23,-0.24,-0.7,2.0
1758077848.59374,1758077848.53576,0.0,0.0,0.0,-15.58445,-20.62648,-0.11459,9.23,-0.24,-0.7,2.0
1758077848.61096,1758077848.54576,0.0,0.0,0.0,-14.38124,-35.12231,1.14592,9.07,-0.96,-1.32,2.0
1758077848.6118,1758077848.55576,0.0,0.0,0.0,-15.35527,-28.59059,4.87014,10.16,-0.89,-1.54,2.0
1758077848.62692,1758077848.56576,0.0,0.0,0.0,-18.44924,4.29718,2.57831,10.16,-0.89,-1.54,2.0
1758077848.62948,1758077848.57576,0.0,0.0,0.0,-22.51724,32.88778,6.41713,13.6,-0.05,-0.76,2.0
1758077848.647,1758077848.58576,0.0,0.0,0.0,-27.2155,-4.64096,3.83882,13.6,-0.05,-0.76,2.0
1758077848.64815,1758077848.59576,0.0,0.0,0.0,-30.48136,-23.83505,2.46372,7.6,1.34,0.44,2.0
1758077848.66347,1758077848.60576,0.0,0.0,0.0,-34.49206,-31.39809,-1.66158,7.6,1.34,0.44,2.0
1758077848.67966,1758077848.61576,0.0,0.0,0.0,-40.50812,-30.30947,-5.32851,10.49,2.86,-2.07,2.0
1758077848.68111,1758077848.62576,0.0,0.0,0.0,-45.60744,-25.43933,-6.47442,11.37,2.9,-1.36,2.0
1758077848.6965,1758077848.63576,0.0,0.0,0.0,-50.99325,-22.00158,-5.21392,11.37,2.9,-1.36,2.0
1758077848.69796,1758077848.64576,0.0,0.0,0.0,-56.26446,-21.7724,-2.11994,11.03,1.56,-0.67,2.0
1758077848.71277,1758077848.65576,0.0,0.0,0.0,-62.56699,-24.29341,3.60963,11.03,1.56,-0.67,2.0
1758077848.73102,1758077848.66576,0.0,0.0,0.0,-65.03072,-25.55392,6.47442,10.4,0.4,0.05,2.0
1758077848.73227,1758077848.67576,0.0,0.0,0.0,-65.48907,-30.82513,7.79223,10.4,0.4,0.05,2.0
1758077848.7372,1758077848.68576,0.0,0.0,0.0,-62.91077,-49.96192,7.50575,10.64,-0.66,1.57,2.0
1758077848.75545,1758077848.69576,0.0,0.0,0.0,-56.55093,-96.14232,-2.46372,10.4,-1.75,4.64,2.0
1758077848.75685,1758077848.70576,0.0,0.0,0.0,-50.363,-118.43038,-15.35527,10.4,-1.75,4.64,2.0
1758077848.77272,1758077848.71576,0.0,0.0,0.0,-41.88322,-123.24322,-29.04896,14.39,-2.72,5.0,2.0
1758077848.78904,1758077848.72576,0.0,0.0,0.0,-31.62727,-115.79478,-40.27893,14.39,-2.72,5.0,2.0
1758077848.79019,1758077848.73576,0.0,0.0,0.0,-19.07949,-108.05984,-47.72739,14.61,-2.44,4.2,2.0
1758077848.8058,1758077848.74576,0.0,0.0,0.0,-14.32395,-102.61675,-47.03984,14.61,-2.44,4.2,2.0
1758077848.80664,1758077848.75576,0.0,0.0,0.0,-14.9542,-87.26147,-43.83128,11.07,-0.3,2.14,2.0
1758077848.82603,1758077848.76576,0.0,0.0,0.0,-18.62113,-57.58226,-31.74186,11.07,-0.3,2.14,2.0
1758077848.82692,1758077848.77576,0.0,0.0,0.0,-23.26209,-43.20102,-20.11082,11.84,0.7,1.27,2.0
1758077848.84562,1758077848.78576,0.0,0.0,0.0,-28.59059,-27.78845,-6.87549,11.38,1.1,0.48,2.0
1758077848.84677,1758077848.79576,0.0,0.0,0.0,-34.37747,-9.11003,4.87014,11.38,1.1,0.48,2.0
1758077848.86616,1758077848.80576,0.0,0.0,0.0,-42.05511,13.06344,15.35527,10.86,1.33,-0.71,2.0
1758077848.86739,1758077848.81576,0.0,0.0,0.0,-45.72203,22.86102,16.272,10.86,1.33,-0.71,2.0
1758077848.88291,1758077848.82576,0.0,0.0,0.0,-48.35764,31.39809,13.98017,10.24,1.06,-0.19,2.0
1758077848.88811,1758077848.83576,0.0,0.0,0.0,-49.38896,39.70598,10.31324,10.24,1.06,-0.19,2.0
1758077848.90624,1758077848.84576,0.0,0.0,0.0,-47.44091,50.64947,5.27121,10.27,-0.06,0.23,2.0
1758077848.90763,1758077848.85576,0.0,0.0,0.0,-43.37291,54.60288,2.40642,9.02,-1.89,0.76,2.0
1758077848.92272,1758077848.86576,0.0,0.0,0.0,-38.38818,54.08722,0.34377,9.02,-1.89,0.76,2.0
1758077848.92758,1758077848.87576,0.0,0.0,0.0,-33.40344,52.13916,-1.48969,7.03,-2.87,0.46,2.0
1758077848.94276,1758077848.88576,0.0,0.0,0.0,-25.7831,49.21708,-3.38045,7.03,-2.87,0.46,2.0
1758077848.95879,1758077848.89576,0.0,0.0,0.0,-20.3973,47.09713,-4.23989,6.53,-2.71,-0.01,2.0
1758077848.95998,1758077848.90576,0.0,0.0,0.0,-14.43854,43.94586,-5.27121,6.53,-2.71,-0.01,2.0
1758077848.97664,1758077848.91576,0.0,0.0,0.0,-8.02141,40.7373,-5.95876,7.35,-2.15,-0.22,2.0
1758077848.97951,1758077848.92576,0.0,0.0,0.0,1.3751,37.92981,-6.07335,8.63,-1.52,-0.16,2.0
1758077848.9948,1758077848.93576,0.0,0.0,0.0,7.73493,36.03905,-5.09932,8.63,-1.52,-0.16,2.0
1758077849.01077,1758077848.94576,0.0,0.0,0.0,13.86558,32.42941,-2.7502,9.13,-1.2,-0.02,2.0
1758077849.01521,1758077848.95576,0.0,0.0,0.0,21.14215,31.62727,1.3178,9.13,-1.2,-0.02,2.0
1758077849.03167,1758077848.96576,0.0,0.0,0.0,25.26744,28.24682,4.1253,9.11,-1.36,-0.05,2.0
1758077849.03687,1758077848.97576,0.0,0.0,0.0,28.476,25.43933,6.41713,9.11,-1.36,-0.05,2.0
1758077849.04014,1758077848.98576,0.0,0.0,0.0,30.82513,24.23611,7.96411,8.89,-1.61,-0.03,2.0
1758077849.05586,1758077848.99576,0.0,0.0,0.0,33.23156,24.5226,8.59437,8.89,-1.61,-0.03,2.0
1758077849.05733,1758077849.00576,0.0,0.0,0.0,34.0337,22.63183,7.84952,9.31,-1.61,-0.06,2.0
1758077849.07492,1758077849.01576,0.0,0.0,0.0,34.14828,21.08485,7.10468,9.19,-1.26,-0.27,2.0
1758077849.07764,1758077849.02576,0.0,0.0,0.0,33.40344,22.28806,5.27121,9.19,-1.26,-0.27,2.0
1758077849.09484,1758077849.03576,0.0,0.0,0.0,31.79916,28.30412,0.80214,9.68,-0.63,-0.64,2.0
1758077849.09932,1758077849.04576,0.0,0.0,0.0,30.93972,30.65324,-1.94806,9.68,-0.63,-0.64,2.0
1758077849.11495,1758077849.05576,0.0,0.0,0.0,30.25217,30.93972,-5.32851,9.73,0.0,-0.73,2.0
1758077849.11766,1758077849.06576,0.0,0.0,0.0,30.13758,35.86716,-9.11003,9.73,0.0,-0.73,2.0
1758077849.13289,1758077849.07576,0.0,0.0,0.0,32.54401,47.89928,-10.08406,10.36,0.25,-0.64,2.0
1758077849.15175,1758077849.08576,0.0,0.0,0.0,34.60666,55.11855,-10.19865,10.95,-0.07,-0.39,2.0
1758077849.15498,1758077849.09576,0.0,0.0,0.0,34.77854,58.67088,-11.34457,10.95,-0.07,-0.39,2.0
1758077849.17091,1758077849.10576,0.0,0.0,0.0,36.61201,52.08187,-15.41257,9.16,-0.62,0.09,2.0
1758077849.17215,1758077849.11576,0.0,0.0,0.0,42.85724,-17.36062,-13.34992,9.16,-0.62,0.09,2.0
1758077849.19128,1758077849.12576,0.0,0.0,0.0,49.67545,-52.42564,-5.84417,5.22,-1.55,-1.4,2.0
1758077849.19323,1758077849.13576,0.0,0.0,0.0,54.02992,-58.21251,2.92208,5.22,-1.55,-1.4,2.0
1758077849.20904,1758077849.14576,0.0,0.0,0.0,55.6342,-52.65482,12.08941,10.49,-3.06,-2.81,2.0
1758077849.21159,1758077849.15576,0.0,0.0,0.0,58.04062,-57.81144,15.12609,10.47,-3.0,-1.79,2.0
1758077849.22687,1758077849.16576,0.0,0.0,0.0,58.09792,-61.76485,16.04282,10.47,-3.0,-1.79,2.0
1758077849.23157,1758077849.17576,0.0,0.0,0.0,55.92068,-61.07731,15.87093,10.34,-2.09,-0.05,2.0
1758077849.24696,1758077849.18576,0.0,0.0,0.0,49.27437,-67.03606,15.75634,10.34,-2.09,-0.05,2.0
1758077849.25056,1758077849.19576,0.0,0.0,0.0,41.36755,-69.55708,17.36062,10.55,-0.87,-0.14,2.0
1758077849.26592,1758077849.20576,0.0,0.0,0.0,31.11161,-70.53111,21.7151,10.55,-0.87,-0.14,2.0
1758077849.26966,1758077849.21576,0.0,0.0,0.0,19.99623,-77.17742,28.41871,13.94,2.13,2.54,2.0
1758077849.28619,1758077849.22576,0.0,0.0,0.0,10.37054,-90.12627,45.37826,13.94,2.13,3.88,2.0
1758077849.28752,1758077849.23576,0.0,0.0,0.0,4.58366,-79.64114,52.65482,16.42,5.44,3.88,2.0
1758077849.30643,1758077849.24576,0.0,0.0,0.0,-1.60428,-68.06739,53.28508,17.25,5.37,2.93,2.0
1758077849.30846,1758077849.25576,0.0,0.0,0.0,-7.21927,-66.34852,48.9879,17.25,5.37,2.93,2.0
1758077849.32565,1758077849.26576,0.0,0.0,0.0,-13.86558,-54.3164,38.15899,11.46,1.63,1.55,2.0
1758077849.34097,1758077849.27576,0.0,0.0,0.0,-14.20935,-40.04975,29.67921,11.46,1.63,1.55,2.0
1758077849.34217,1758077849.28576,0.0,0.0,0.0,-11.86023,-30.76784,21.42862,9.27,-0.42,1.83,2.0
1758077849.35726,1758077849.29576,0.0,0.0,0.0,-5.84417,-21.88699,15.35527,9.27,-0.42,1.83,2.0
1758077849.36083,1758077849.30576,0.0,0.0,0.0,7.79223,0.97403,9.11003,9.64,-0.96,2.66,2.0
1758077849.37694,1758077849.31576,0.0,0.0,0.0,17.58981,15.58445,5.72958,12.99,-1.26,3.07,2.0
1758077849.38116,1758077849.32576,0.0,0.0,0.0,26.41335,27.84575,2.46372,12.99,-1.26,3.07,2.0
1758077849.3962,1758077849.33576,0.0,0.0,0.0,32.88778,40.10705,0.0,13.16,-0.96,0.89,2.0
1758077849.39718,1758077849.34576,0.0,0.0,0.0,38.15899,59.41573,-1.60428,13.16,-0.96,0.89,2.0
1758077849.41494,1758077849.35576,0.0,0.0,0.0,38.84654,71.73432,-2.23454,12.21,-0.18,0.15,2.0
1758077849.43097,1758077849.36576,0.0,0.0,0.0,38.50277,81.5892,-2.29183,12.21,-0.18,0.15,2.0
1758077849.43932,1758077849.37576,0.0,0.0,0.0,35.63798,87.43336,-1.94806,10.62,0.81,0.29,2.0
1758077849.44186,1758077849.38576,0.0,0.0,0.0,32.83048,85.94368,-0.80214,8.58,1.7,0.55,2.0
1758077849.45892,1758077849.39576,0.0,0.0,0.0,28.99167,83.47996,0.74485,8.58,1.7,0.55,2.0
1758077849.45994,1758077849.40576,0.0,0.0,0.0,24.35071,81.41731,1.3178,7.97,2.1,0.48,2.0
1758077849.47503,1758077849.41576,0.0,0.0,0.0,17.01685,79.41196,1.03132,7.97,2.1,0.48,2.0
1758077849.49104,1758077849.42576,0.0,0.0,0.0,12.2613,78.66711,-0.57296,7.87,1.93,0.52,2.0
1758077849.49415,1758077849.43576,0.0,0.0,0.0,8.65166,77.4639,-1.94806,7.87,1.93,0.52,2.0
1758077849.50936,1758077849.44576,0.0,0.0,0.0,5.55769,75.22936,-4.35448,7.78,1.52,0.79,2.0
1758077849.51098,1758077849.45576,0.0,0.0,0.0,2.57831,67.32255,-6.87549,7.28,0.99,0.86,2.0
1758077849.52695,1758077849.46576,0.0,0.0,0.0,1.20321,59.35843,-8.30789,7.28,0.99,0.86,2.0
1758077849.53064,1758077849.47576,0.0,0.0,0.0,0.22918,51.85268,-9.11003,7.23,0.42,0.91,2.0
1758077849.5461,1758077849.48576,0.0,0.0,0.0,-0.40107,43.4875,-9.62569,7.23,0.42,0.91,2.0
1758077849.54839,1758077849.49576,0.0,0.0,0.0,-0.97403,29.33544,-10.19865,7.41,0.15,0.77,2.0
1758077849.56673,1758077849.50576,0.0,0.0,0.0,-0.85944,18.79302,-8.88085,7.41,0.15,0.77,2.0
1758077849.56791,1758077849.51576,0.0,0.0,0.0,-2.40642,11.80293,-9.22462,7.76,0.2,0.84,2.0
1758077849.58308,1758077849.52576,0.0,0.0,0.0,-3.60963,6.7609,-9.39651,7.76,0.2,0.84,2.0
1758077849.60034,1758077849.53576,0.0,0.0,0.0,-4.64096,6.35983,-9.85487,8.11,0.52,0.7,2.0
1758077849.60159,1758077849.54576,0.0,0.0,0.0,-4.52637,6.13065,-8.70896,8.47,0.72,0.48,2.0
1758077849.61633,1758077849.55576,0.0,0.0,0.0,-3.83882,5.15662,-6.8182,8.47,0.72,0.48,2.0
1758077849.62152,1758077849.56576,0.0,0.0,0.0,-2.46372,4.52637,-2.57831,8.66,0.52,0.71,2.0
1758077849.64615,1758077849.57576,0.0,0.0,0.0,-1.94806,2.92208,0.17189,8.66,0.52,0.71,2.0
1758077849.64933,1758077849.58576,0.0,0.0,0.0,-1.60428,1.71887,2.40642,9.23,0.17,0.33,2.0
1758077849.65046,1758077849.59576,0.0,0.0,0.0,-1.3178,-1.20321,3.89611,9.23,0.17,0.33,2.0
1758077849.66733,1758077849.60576,0.0,0.0,0.0,-1.71887,-10.31324,5.90147,9.37,-0.14,-0.07,2.0
1758077849.66826,1758077849.61576,0.0,0.0,0.0,-2.06265,-19.59516,5.50039,8.92,-0.12,-0.72,2.0
1758077849.68558,1758077849.62576,0.0,0.0,0.0,-2.63561,-32.48671,4.64096,8.92,-0.12,-0.72,2.0
1758077849.7014,1758077849.63576,0.0,0.0,0.0,-4.29718,-46.06581,3.83882,8.51,0.25,-1.52,2.0
1758077849.7023,1758077849.64576,0.0,0.0,0.0,-11.34457,-23.0329,1.3751,8.51,0.25,-1.52,2.0
1758077849.71734,1758077849.65576,0.0,0.0,0.0,-16.55848,13.00614,1.66158,13.2,1.12,-1.37,2.0
1758077849.71937,1758077849.66576,0.0,0.0,0.0,-18.90761,4.29718,5.90147,13.2,1.12,-1.37,2.0
1758077849.73439,1758077849.67576,0.0,0.0,0.0,-27.04361,-32.14294,0.85944,9.73,2.08,-0.42,2.0
1758077849.75092,1758077849.68576,0.0,0.0,0.0,-34.09099,-49.79003,-5.21392,10.33,3.12,-1.07,2.0
1758077849.75219,1758077849.69576,0.0,0.0,0.0,-38.21629,-48.41494,-7.44845,10.33,3.12,-1.07,2.0
1758077849.76738,1758077849.70576,0.0,0.0,0.0,-41.94051,-45.03448,-8.99544,11.72,3.11,-2.49,2.0
1758077849.76908,1758077849.71576,0.0,0.0,0.0,-44.9199,-42.34158,-8.25059,11.72,3.11,-2.49,2.0
1758077849.78442,1758077849.72576,0.0,0.0,0.0,-48.9879,-42.85724,-5.84417,10.99,1.88,-0.1,2.0
1758077849.80145,1758077849.73576,0.0,0.0,0.0,-48.8733,-42.05511,-4.23989,10.99,1.88,-0.1,2.0
1758077849.80234,1758077849.74576,0.0,0.0,0.0,-46.75336,-41.94051,-4.46907,11.96,0.5,1.15,2.0
1758077849.81719,1758077849.75576,0.0,0.0,0.0,-40.45082,-51.10783,-5.90147,11.96,0.5,1.15,2.0
1758077849.81924,1758077849.76576,0.0,0.0,0.0,-30.02299,-93.56402,-18.79302,12.92,-1.74,3.98,2.0
1758077849.83496,1758077849.77576,0.0,0.0,0.0,-22.86102,-101.01247,-31.56997,14.29,-3.6,5.32,2.0
1758077849.85121,1758077849.78576,0.0,0.0,0.0,-13.5791,-92.70457,-41.59674,14.29,-3.6,5.32,2.0
1758077849.85481,1758077849.79576,0.0,0.0,0.0,-0.51566,-82.67782,-47.78468,15.33,-3.45,4.48,2.0
1758077849.87148,1758077849.80576,0.0,0.0,0.0,4.64096,-81.70379,-47.03984,15.33,-3.45,4.48,2.0
1758077849.87673,1758077849.81576,0.0,0.0,0.0,6.35983,-75.57314,-42.91454,10.93,-1.03,4.08,2.0
1758077849.89145,1758077849.82576,0.0,0.0,0.0,3.38045,-64.40046,-35.75257,10.93,-1.03,4.08,2.0
1758077849.89646,1758077849.83576,0.0,0.0,0.0,-7.16197,-49.79003,-20.97026,10.09,0.74,1.74,2.0
1758077849.91121,1758077849.84576,0.0,0.0,0.0,-15.06879,-36.55471,-9.33921,10.43,1.35,0.75,2.0
1758077849.91483,1758077849.85576,0.0,0.0,0.0,-22.40265,-20.51189,1.71887,10.43,1.35,0.75,2.0
1758077850.00041,1758077849.86576,0.0,0.0,0.0,-28.64789,-5.78687,9.91217,11.35,1.36,0.4,2.0
1758077850.00168,1758077849.87576,0.0,0.0,0.0,-33.05967,11.28727,14.61043,11.35,1.36,0.4,2.0
1758077850.00201,1758077849.88576,0.0,0.0,0.0,-33.00237,20.85567,13.34992,11.03,0.88,0.56,2.0
1758077850.00364,1758077849.89576,0.0,0.0,0.0,-30.82513,28.24682,10.25595,11.03,0.88,0.56,2.0
1758077850.00575,1758077849.90576,0.0,0.0,0.0,-27.44468,34.95043,6.07335,10.49,-0.08,0.84,2.0
1758077850.00856,1758077849.91576,0.0,0.0,0.0,-21.7724,44.57612,-0.45837,9.24,-1.4,0.74,2.0
1758077850.0089,1758077849.92576,0.0,0.0,0.0,-17.36062,50.47758,-3.55234,9.24,-1.4,0.74,2.0
1758077850.01008,1758077849.93576,0.0,0.0,0.0,-13.46451,52.71212,-5.55769,7.55,-2.33,-0.17,2.0
1758077850.01159,1758077849.94576,0.0,0.0,0.0,-9.85487,51.6235,-6.70361,7.55,-2.33,-0.17,2.0
1758077850.01436,1758077849.95576,0.0,0.0,0.0,-5.50039,49.67545,-7.44845,6.34,-2.12,-0.52,2.0
1758077850.01905,1758077849.96576,0.0,0.0,0.0,-3.38045,49.21708,-7.73493,6.34,-2.12,-0.52,2.0
1758077850.03527,1758077849.97576,0.0,0.0,0.0,-1.77617,48.12846,-7.84952,6.91,-1.26,-0.57,2.0
1758077850.05128,1758077849.98576,0.0,0.0,0.0,0.0573,46.98254,-8.02141,6.91,-1.26,-0.57,2.0
1758077850.05202,1758077849.99576,0.0,0.0,0.0,1.20321,43.60209,-7.67763,7.92,-0.48,-0.36,2.0
1758077850.06825,1758077850.00576,0.0,0.0,0.0,2.34913,41.94051,-6.47442,9.03,-0.08,-0.19,2.0
1758077850.06953,1758077850.01576,0.0,0.0,0.0,3.26586,42.05511,-5.21392,9.03,-0.08,-0.19,2.0
1758077850.08606,1758077850.02576,0.0,0.0,0.0,4.92744,40.10705,-2.11994,9.59,-0.11,0.17,2.0
1758077850.10154,1758077850.03576,0.0,0.0,0.0,5.95876,38.1017,-0.22918,9.59,-0.11,0.17,2.0
1758077850.1019,1758077850.04576,0.0,0.0,0.0,7.16197,35.75257,1.20321,9.38,-0.54,0.14,2.0
1758077850.12022,1758077850.05576,0.0,0.0,0.0,8.02141,33.00237,2.34913,9.38,-0.54,0.14,2.0
1758077850.12132,1758077850.06576,0.0,0.0,0.0,8.47978,29.9084,2.40642,9.24,-0.99,-0.02,2.0
1758077850.13631,1758077850.07576,0.0,0.0,0.0,8.88085,29.22085,1.94806,9.29,-1.17,-0.19,2.0
1758077850.13749,1758077850.08576,0.0,0.0,0.0,8.65166,28.93437,0.80214,9.29,-1.17,-0.19,2.0
1758077850.15468,1758077850.09576,0.0,0.0,0.0,7.50575,27.78845,-1.20321,8.99,-0.97,-0.24,2.0
1758077850.17122,1758077850.10576,0.0,0.0,0.0,5.55769,26.06958,-4.35448,8.99,-0.97,-0.24,2.0
1758077850.17184,1758077850.11576,0.0,0.0,0.0,4.29718,23.54857,-6.53172,8.7,-0.58,-0.14,2.0
1758077850.18779,1758077850.12576,0.0,0.0,0.0,3.49504,18.56383,-8.36518,8.7,-0.58,-0.14,2.0
1758077850.18893,1758077850.13576,0.0,0.0,0.0,4.35448,15.12609,-10.37054,8.34,-0.28,-0.25,2.0
1758077850.2039,1758077850.14576,0.0,0.0,0.0,8.47978,21.60051,-7.50575,9.57,-0.51,-0.48,2.0
1758077850.22158,1758077850.15576,0.0,0.0,0.0,11.97482,30.02299,-4.81285,9.57,-0.51,-0.48,2.0
1758077850.22191,1758077850.16576,0.0,0.0,0.0,13.5791,34.49206,-4.0107,10.19,-1.01,-0.06,2.0
1758077850.23937,1758077850.17576,0.0,0.0,0.0,17.58981,33.34615,-6.87549,10.19,-1.01,-0.06,2.0
1758077850.24065,1758077850.18576,0.0,0.0,0.0,23.72045,-20.05352,-4.29718,7.8,-1.62,0.03,2.0
1758077850.25537,1758077850.19576,0.0,0.0,0.0,33.51803,-59.70221,3.03668,7.8,-1.62,0.03,2.0
1758077850.27161,1758077850.20576,0.0,0.0,0.0,39.99245,-70.47381,10.31324,8.08,-2.68,-2.12,2.0
1758077850.27193,1758077850.21576,0.0,0.0,0.0,44.57612,-64.91612,17.93358,8.08,-2.68,-2.12,2.0
1758077850.28839,1758077850.22576,0.0,0.0,0.0,46.75336,-63.77021,18.44924,12.28,-3.44,-1.24,2.0
1758077850.29117,1758077850.23576,0.0,0.0,0.0,48.64412,-62.79618,17.76169,11.38,-2.79,-1.32,2.0
1758077850.30648,1758077850.24576,0.0,0.0,0.0,49.15978,-62.68159,16.272,11.38,-2.79,-1.32,2.0
1758077850.30761,1758077850.25576,0.0,0.0,0.0,47.78468,-64.45775,15.29797,10.67,-1.91,-0.45,2.0
1758077850.32265,1758077850.26576,0.0,0.0,0.0,43.65939,-61.87944,14.66772,10.67,-1.91,-0.45,2.0
1758077850.34146,1758077850.27576,0.0,0.0,0.0,37.24226,-57.52497,17.30333,12.04,-0.47,0.02,2.0
1758077850.34201,1758077850.28576,0.0,0.0,0.0,28.476,-57.86874,21.94428,12.04,-0.47,0.02,2.0
1758077850.35776,1758077850.29576,0.0,0.0,0.0,21.02755,-89.83979,37.24226,15.79,2.53,3.82,2.0
1758077850.36021,1758077850.30576,0.0,0.0,0.0,18.33465,-93.10565,48.8733,17.74,4.38,4.06,2.0
1758077850.37573,1758077850.31576,0.0,0.0,0.0,14.20935,-77.29202,53.39967,17.74,4.38,4.06,2.0
1758077850.39169,1758077850.32576,0.0,0.0,0.0,10.48513,-67.55173,51.5662,16.52,3.24,1.83,2.0
1758077850.39203,1758077850.33576,0.0,0.0,0.0,5.32851,-60.90542,43.83128,16.52,3.24,1.83,2.0
1758077850.41085,1758077850.34576,0.0,0.0,0.0,4.1253,-47.89928,35.2942,9.61,0.51,1.64,2.0
1758077850.41174,1758077850.35576,0.0,0.0,0.0,6.70361,-36.61201,26.41335,9.61,0.51,1.64,2.0
1758077850.429,1758077850.36576,0.0,0.0,0.0,12.71966,-28.93437,18.27736,6.97,-0.54,1.55,2.0
1758077850.43179,1758077850.37576,0.0,0.0,0.0,26.69983,-8.70896,10.37054,9.54,-0.71,3.36,2.0
1758077850.45166,1758077850.38576,0.0,0.0,0.0,36.6693,7.96411,6.07335,9.54,-0.71,3.36,2.0
1758077850.45415,1758077850.39576,0.0,0.0,0.0,45.37826,21.7151,2.23454,12.99,-0.46,2.38,2.0
1758077850.46945,1758077850.40576,0.0,0.0,0.0,53.45696,41.48215,-1.83346,12.99,-0.46,2.38,2.0
1758077850.47068,1758077850.41576,0.0,0.0,0.0,54.431,56.32175,-4.0107,13.35,-0.25,0.71,2.0
1758077850.48646,1758077850.42576,0.0,0.0,0.0,53.11319,70.30193,-5.90147,13.35,-0.25,0.71,2.0
1758077850.48955,1758077850.43576,0.0,0.0,0.0,50.59217,81.64648,-6.87549,11.94,0.09,0.09,2.0
1758077850.50469,1758077850.44576,0.0,0.0,0.0,45.60744,92.01703,-7.62034,11.94,0.09,0.09,2.0
1758077850.50729,1758077850.45576,0.0,0.0,0.0,42.28429,91.90244,-7.33386,9.73,0.83,0.35,2.0
1758077850.52554,1758077850.46576,0.0,0.0,0.0,38.61736,88.63658,-6.13065,7.87,1.59,0.26,2.0
1758077850.52645,1758077850.47576,0.0,0.0,0.0,34.09099,86.74582,-5.32851,7.87,1.59,0.26,2.0
1758077850.54202,1758077850.48576,0.0,0.0,0.0,27.33009,84.68317,-4.64096,7.68,2.03,0.15,2.0
1758077850.55929,1758077850.49576,0.0,0.0,0.0,23.20479,82.62051,-4.52637,7.68,2.03,0.15,2.0
1758077850.5603,1758077850.50576,0.0,0.0,0.0,18.85031,80.78706,-5.15662,7.51,2.12,0.37,2.0
1758077850.57625,1758077850.51576,0.0,0.0,0.0,15.06879,79.41196,-5.55769,7.51,2.12,0.37,2.0
1758077850.57984,1758077850.52576,0.0,0.0,0.0,10.08406,72.13539,-6.58902,7.66,1.8,0.74,2.0
1758077850.5966,1758077850.53576,0.0,0.0,0.0,7.44845,62.68159,-6.87549,7.24,1.19,0.89,2.0
1758077850.60098,1758077850.54576,0.0,0.0,0.0,5.21392,51.45161,-7.39116,7.24,1.19,0.89,2.0
1758077850.61632,1758077850.55576,0.0,0.0,0.0,3.09397,41.13837,-7.50575,7.36,0.57,0.89,2.0
1758077850.62015,1758077850.56576,0.0,0.0,0.0,0.57296,28.01764,-6.99009,7.36,0.57,0.89,2.0
1758077850.63636,1758077850.57576,0.0,0.0,0.0,-1.20321,18.85031,-6.41713,7.9,0.42,0.87,2.0
1758077850.6402,1758077850.58576,0.0,0.0,0.0,-2.46372,9.39651,-6.35983,7.9,0.42,0.87,2.0
1758077850.65656,1758077850.59576,0.0,0.0,0.0,-5.09932,3.55234,-6.87549,8.18,0.76,0.85,2.0
1758077850.66021,1758077850.60576,0.0,0.0,0.0,-5.84417,6.58902,-6.70361,9.03,1.18,0.63,2.0
1758077850.67586,1758077850.61576,0.0,0.0,0.0,-6.18794,10.48513,-6.18794,9.03,1.18,0.63,2.0
1758077850.67672,1758077850.62576,0.0,0.0,0.0,-6.07335,12.89155,-5.4431,9.11,1.09,0.83,2.0
1758077850.69532,1758077850.63576,0.0,0.0,0.0,-5.84417,13.86558,-3.66693,9.11,1.09,0.83,2.0
1758077850.69684,1758077850.64576,0.0,0.0,0.0,-6.07335,13.40721,-2.46372,9.05,0.68,0.4,2.0
1758077850.71464,1758077850.65576,0.0,0.0,0.0,-6.41713,11.00079,-1.14592,9.05,0.68,0.4,2.0
1758077850.71713,1758077850.66576,0.0,0.0,0.0,-6.87549,4.52637,0.40107,9.12,0.11,-0.25,2.0
1758077850.73362,1758077850.67576,0.0,0.0,0.0,-7.44845,-9.05273,1.94806,8.63,0.11,-0.82,2.0
1758077850.7404,1758077850.68576,0.0,0.0,0.0,-7.96411,-21.7151,1.77617,8.63,-0.33,-0.82,2.0
1758077850.75586,1758077850.69576,0.0,0.0,0.0,-8.136,-35.63798,1.20321,8.11,-0.31,-1.51,2.0
1758077850.75702,1758077850.70576,0.0,0.0,0.0,-9.28192,-46.63877,0.34377,8.11,-0.31,-1.51,2.0
1758077850.77566,1758077850.71576,0.0,0.0,0.0,-14.9542,-21.7151,-1.03132,10.21,0.51,-1.65,2.0
1758077850.7768,1758077850.72576,0.0,0.0,0.0,-18.44924,12.14671,-0.34377,10.21,0.51,-1.65,2.0
1758077850.79209,1758077850.73576,0.0,0.0,0.0,-18.62113,5.27121,4.23989,13.58,1.45,-0.39,2.0
1758077850.79709,1758077850.74576,0.0,0.0,0.0,-23.94964,-27.33009,0.40107,13.58,1.45,-0.39,2.0
1758077850.81636,1758077850.75576,0.0,0.0,0.0,-29.04896,-39.87786,-5.15662,9.13,2.59,0.69,2.0
1758077850.82073,1758077850.76576,0.0,0.0,0.0,-33.34615,-35.00772,-7.44845,12.53,2.71,-1.41,2.0
1758077850.83644,1758077850.77576,0.0,0.0,0.0,-38.84654,-28.99167,-7.44845,12.53,2.71,-1.41,2.0
1758077850.83781,1758077850.78576,0.0,0.0,0.0,-44.9199,-24.00693,-2.7502,11.93,1.48,-0.99,2.0
1758077850.85589,1758077850.79576,0.0,0.0,0.0,-53.62885,-19.48057,1.60428,11.93,1.48,-0.99,2.0
1758077850.85706,1758077850.80576,0.0,0.0,0.0,-57.58226,-17.58981,6.07335,10.96,0.44,-0.3,2.0
1758077850.87214,1758077850.81576,0.0,0.0,0.0,-59.24384,-15.87093,9.74028,10.96,0.44,-0.3,2.0
1758077850.87675,1758077850.82576,0.0,0.0,0.0,-57.46767,-19.53786,12.08941,11.51,-0.21,0.46,2.0
1758077850.89563,1758077850.83576,0.0,0.0,0.0,-52.08187,-41.76862,10.94349,11.5,-1.33,3.26,2.0
1758077850.89707,1758077850.84576,0.0,0.0,0.0,-48.30034,-75.85962,1.77617,11.5,-1.33,3.26,2.0
1758077850.91187,1758077850.85576,0.0,0.0,0.0,-40.16434,-96.5434,-11.17268,12.39,-1.65,5.32,2.0
1758077850.91678,1758077850.86576,0.0,0.0,0.0,-26.52795,-109.32036,-33.23156,12.39,-1.65,5.32,2.0
1758077850.93543,1758077850.87576,0.0,0.0,0.0,-17.99088,-107.94526,-42.91454,14.08,-1.87,4.78,2.0
1758077850.9369,1758077850.88576,0.0,0.0,0.0,-11.91752,-104.04914,-46.69606,14.08,-1.87,4.78,2.0
1758077850.9516,1758077850.89576,0.0,0.0,0.0,-9.11003,-100.6114,-45.72203,10.72,-0.25,2.91,2.0
1758077850.96892,1758077850.90576,0.0,0.0,0.0,-11.63104,-84.11021,-38.38818,9.1,0.73,1.71,2.0
1758077850.97071,1758077850.91576,0.0,0.0,0.0,-16.50119,-67.37984,-29.04896,9.1,0.73,1.71,2.0
1758077850.98598,1758077850.92576,0.0,0.0,0.0,-23.0329,-53.45696,-17.47521,10.12,0.82,1.05,2.0
1758077850.98688,1758077850.93576,0.0,0.0,0.0,-30.13758,-41.02378,-5.09932,10.12,0.82,1.05,2.0
1758077851.00201,1758077850.94576,0.0,0.0,0.0,-40.50812,-20.16812,9.11003,10.64,0.95,0.45,2.0
1758077851.01864,1758077850.95576,0.0,0.0,0.0,-45.55015,-7.04738,13.46451,10.64,0.95,0.45,2.0
1758077851.02084,1758077850.96576,0.0,0.0,0.0,-48.9879,4.52637,13.5218,10.76,1.25,0.11,2.0
1758077851.03597,1758077850.97576,0.0,0.0,0.0,-49.67545,15.29797,11.28727,10.76,1.25,0.11,2.0
1758077851.03718,1758077850.98576,0.0,0.0,0.0,-46.52417,29.04896,5.78687,10.99,0.84,0.33,2.0
1758077851.05199,1758077850.99576,0.0,0.0,0.0,-42.97184,36.55471,2.00535,10.36,-0.66,0.54,2.0
1758077851.07136,1758077851.00576,0.0,0.0,0.0,-38.56006,41.88322,-0.85944,10.36,-0.66,0.54,2.0
1758077851.07322,1758077851.01576,0.0,0.0,0.0,-31.91375,46.00851,-3.26586,8.57,-2.0,0.26,2.0
1758077851.07704,1758077851.02576,0.0,0.0,0.0,-28.59059,48.35764,-3.95341,8.57,-2.0,0.26,2.0
1758077851.09301,1758077851.03576,0.0,0.0,0.0,-25.38203,48.35764,-3.89611,7.11,-2.38,-0.27,2.0
1758077851.11067,1758077851.04576,0.0,0.0,0.0,-22.57454,48.12846,-3.66693,7.11,-2.38,-0.27,2.0
1758077851.11209,1758077851.05576,0.0,0.0,0.0,-18.79302,45.77933,-3.66693,7.11,-1.83,-0.43,2.0
1758077851.12671,1758077851.06576,0.0,0.0,0.0,-16.3293,43.65939,-3.60963,7.94,-0.92,-0.26,2.0
1758077851.13114,1758077851.07576,0.0,0.0,0.0,-13.5218,40.45082,-2.97938,7.94,-0.92,-0.26,2.0
1758077851.14676,1758077851.08576,0.0,0.0,0.0,-10.59972,37.81522,-2.06265,8.72,-0.3,-0.23,2.0
1758077851.15146,1758077851.09576,0.0,0.0,0.0,-5.72958,35.63798,0.85944,8.72,-0.3,-0.23,2.0
1758077851.16671,1758077851.10576,0.0,0.0,0.0,-2.46372,34.77854,3.26586,9.25,-0.24,-0.12,2.0
1758077851.16958,1758077851.11576,0.0,0.0,0.0,0.40107,34.26288,5.72958,9.25,-0.24,-0.12,2.0
1758077851.18672,1758077851.12576,0.0,0.0,0.0,3.49504,33.46074,7.96411,9.08,-0.66,-0.23,2.0
1758077851.19114,1758077851.13576,0.0,0.0,0.0,7.39116,32.88778,10.08406,9.0,-1.18,-0.28,2.0
1758077851.20691,1758077851.14576,0.0,0.0,0.0,9.4538,33.51803,10.37054,9.0,-1.18,-0.28,2.0
1758077851.20795,1758077851.15576,0.0,0.0,0.0,11.00079,33.51803,10.02676,9.06,-1.43,-0.28,2.0
1758077851.22515,1758077851.16576,0.0,0.0,0.0,11.63104,31.74186,8.88085,9.06,-1.43,-0.28,2.0
1758077851.22634,1758077851.17576,0.0,0.0,0.0,11.45916,26.75713,5.84417,8.73,-1.32,-0.24,2.0
1758077851.24204,1758077851.18576,0.0,0.0,0.0,10.65701,26.47065,2.97938,8.73,-1.32,-0.24,2.0
1758077851.25882,1758077851.19576,0.0,0.0,0.0,9.39651,27.96034,-0.34377,9.08,-0.94,-0.55,2.0
1758077851.26134,1758077851.20576,0.0,0.0,0.0,9.28192,27.67386,-4.92744,9.08,-0.94,-0.55,2.0
1758077851.27708,1758077851.21576,0.0,0.0,0.0,10.54242,27.73116,-6.70361,9.39,-0.5,-0.49,2.0
1758077851.28084,1758077851.22576,0.0,0.0,0.0,13.69369,27.33009,-6.13065,10.13,-0.45,-0.39,2.0
1758077851.29582,1758077851.23576,0.0,0.0,0.0,17.76169,29.96569,-4.0107,10.13,-0.45,-0.39,2.0
1758077851.29727,1758077851.24576,0.0,0.0,0.0,22.05888,37.29956,-5.09932,11.11,-0.71,-0.61,2.0
1758077851.3122,1758077851.25576,0.0,0.0,0.0,24.12152,33.63263,-4.35448,11.11,-0.71,-0.61,2.0
1758077851.32884,1758077851.26576,0.0,0.0,0.0,25.89769,15.0115,-6.13065,10.04,-1.07,-0.08,2.0
1758077851.33081,1758077851.27576,0.0,0.0,0.0,28.87707,-27.2155,-2.63561,10.04,-1.07,-0.08,2.0
1758077851.34609,1758077851.28576,0.0,0.0,0.0,41.08107,-65.08801,8.30789,7.16,-1.68,-1.52,2.0
1758077851.34703,1758077851.29576,0.0,0.0,0.0,42.85724,-65.71826,14.32395,11.05,-2.82,-2.29,2.0
1758077851.36185,1758077851.30576,0.0,0.0,0.0,46.2377,-58.67088,19.48057,11.05,-2.82,-2.29,2.0
1758077851.37887,1758077851.31576,0.0,0.0,0.0,49.56085,-55.86338,20.51189,11.74,-2.53,-2.13,2.0
1758077851.3804,1758077851.32576,0.0,0.0,0.0,51.90998,-55.23313,16.67307,11.74,-2.53,-2.13,2.0
1758077851.39491,1758077851.33576,0.0,0.0,0.0,52.13916,-56.14987,13.06344,10.69,-1.59,-0.58,2.0
1758077851.39634,1758077851.34576,0.0,0.0,0.0,52.36834,-58.49899,9.5684,10.69,-1.59,-0.58,2.0
1758077851.41188,1758077851.35576,0.0,0.0,0.0,49.79003,-54.25911,4.69825,10.03,-0.93,-1.18,2.0
1758077851.43045,1758077851.36576,0.0,0.0,0.0,41.36755,-46.63877,4.35448,13.3,0.58,1.68,2.0
1758077851.43209,1758077851.37576,0.0,0.0,0.0,31.79916,-50.53488,7.96411,13.3,0.58,1.68,2.0
1758077851.44707,1758077851.38576,0.0,0.0,0.0,25.8404,-80.32869,17.81899,15.15,3.32,4.9,2.0
1758077851.45039,1758077851.39576,0.0,0.0,0.0,26.01229,-104.22102,34.77854,15.15,3.32,4.9,2.0
1758077851.46618,1758077851.40576,0.0,0.0,0.0,24.63719,-84.51128,49.84733,16.78,2.84,3.9,2.0
1758077851.46713,1758077851.41576,0.0,0.0,0.0,20.68378,-63.48372,48.75871,16.78,2.84,3.9,2.0
1758077851.4822,1758077851.42576,0.0,0.0,0.0,16.3293,-52.65482,46.46688,12.88,0.94,0.87,2.0
1758077851.48735,1758077851.43576,0.0,0.0,0.0,13.69369,-39.76327,39.01843,12.88,0.94,0.87,2.0
1758077851.50292,1758077851.44576,0.0,0.0,0.0,18.22006,-38.15899,32.37212,6.89,-0.68,3.07,2.0
1758077851.52001,1758077851.45576,0.0,0.0,0.0,26.47065,-30.93972,26.47065,6.78,-1.45,1.86,2.0
1758077851.52145,1758077851.46576,0.0,0.0,0.0,34.60666,-10.02676,19.48057,6.78,-1.45,1.86,2.0
1758077851.53613,1758077851.47576,0.0,0.0,0.0,46.2377,16.67307,8.99544,13.59,-1.58,3.23,2.0
1758077851.53715,1758077851.48576,0.0,0.0,0.0,52.884,29.04896,2.7502,13.59,-1.58,3.23,2.0
1758077851.55223,1758077851.49576,0.0,0.0,0.0,57.58226,44.57612,-2.06265,14.68,-0.84,0.97,2.0
1758077851.56922,1758077851.50576,0.0,0.0,0.0,59.64491,61.65026,-5.61499,14.68,-0.84,0.97,2.0
1758077851.57093,1758077851.51576,0.0,0.0,0.0,58.90006,84.05292,-9.74028,13.5,-0.11,-0.46,2.0
1758077851.58593,1758077851.52576,0.0,0.0,0.0,57.41038,91.84514,-11.28727,10.92,0.59,-0.41,2.0
1758077851.58794,1758077851.53576,0.0,0.0,0.0,55.11855,93.33482,-11.00079,10.92,0.59,-0.41,2.0
1758077851.60296,1758077851.54576,0.0,0.0,0.0,52.36834,93.33482,-9.22462,8.61,1.26,0.45,2.0
1758077851.61994,1758077851.55576,0.0,0.0,0.0,46.63877,93.27753,-7.16197,8.61,1.26,0.45,2.0
1758077851.65227,1758077851.56576,0.0,0.0,0.0,25.15285,90.41274,-5.50039,7.44,1.62,0.71,2.0
1758077851.66925,1758077851.57576,0.0,0.0,0.0,20.05352,86.28745,-5.72958,7.44,1.62,0.71,2.0
1758077851.67181,1758077851.58576,0.0,0.0,0.0,15.58445,78.20874,-5.50039,7.07,1.11,0.8,2.0
1758077851.69024,1758077851.59576,0.0,0.0,0.0,8.99544,69.27061,-5.84417,7.07,1.11,0.8,2.0
1758077851.69122,1758077851.60576,0.0,0.0,0.0,4.69825,55.34772,-6.53172,6.98,0.75,0.92,2.0
1758077851.70631,1758077851.61576,0.0,0.0,0.0,0.97403,44.63341,-7.50575,6.98,0.75,0.92,2.0
1758077851.71044,1758077851.62576,0.0,0.0,0.0,-2.06265,32.37212,-9.05273,7.11,0.77,0.78,2.0
1758077851.72629,1758077851.63576,0.0,0.0,0.0,-5.4431,13.34992,-10.37054,7.11,0.77,0.78,2.0
1758077851.72725,1758077851.64576,0.0,0.0,0.0,-8.42248,8.0787,-13.17803,7.56,1.12,0.9,2.0
1758077851.74603,1758077851.65576,0.0,0.0,0.0,-10.8289,8.76626,-14.61043,9.01,1.55,0.79,2.0
1758077851.74913,1758077851.66576,0.0,0.0,0.0,-12.71966,11.97482,-15.87093,9.01,1.55,0.79,2.0
1758077851.76635,1758077851.67576,0.0,0.0,0.0,-15.12609,16.55848,-15.87093,9.77,1.4,0.77,2.0
1758077851.76752,1758077851.68576,0.0,0.0,0.0,-16.73037,19.07949,-15.41257,9.77,1.4,0.77,2.0
1758077851.78617,1758077851.69576,0.0,0.0,0.0,-18.27736,20.79837,-14.20935,9.98,0.9,0.73,2.0
1758077851.78924,1758077851.70576,0.0,0.0,0.0,-19.53786,19.19409,-12.2613,9.98,0.9,0.73,2.0
1758077851.80674,1758077851.71576,0.0,0.0,0.0,-21.31403,4.98473,-8.93814,9.65,0.38,0.06,2.0
1758077851.81003,1758077851.72576,0.0,0.0,0.0,-21.94428,-8.65166,-6.87549,8.43,-0.16,-0.74,2.0
1758077851.82636,1758077851.73576,0.0,0.0,0.0,-22.91831,-25.15285,-5.09932,8.43,-0.16,-0.74,2.0
1758077851.82756,1758077851.74576,0.0,0.0,0.0,-23.89234,-42.05511,-4.0107,8.16,-0.28,-2.1,2.0
1758077851.84639,1758077851.75576,0.0,0.0,0.0,-27.73116,-48.9306,0.17189,8.16,-0.28,-2.1,2.0
1758077851.84756,1758077851.76576,0.0,0.0,0.0,-30.30947,-25.61122,-3.66693,10.82,0.41,-1.91,2.0
1758077851.86213,1758077851.77576,0.0,0.0,0.0,-35.12231,5.15662,-6.87549,10.82,0.41,-1.91,2.0
1758077851.88011,1758077851.78576,0.0,0.0,0.0,-32.83048,-7.10468,-7.10468,13.45,1.18,-0.79,2.0
1758077851.88108,1758077851.79576,0.0,0.0,0.0,-38.50277,-49.79003,-10.8862,8.9,2.03,1.17,2.0
1758077851.89608,1758077851.80576,0.0,0.0,0.0,-43.83128,-55.6342,-16.38659,8.9,2.03,1.17,2.0
1758077851.89734,1758077851.81576,0.0,0.0,0.0,-46.00851,-54.88936,-17.53251,11.55,2.41,-1.91,2.0
1758077851.91209,1758077851.82576,0.0,0.0,0.0,-53.28508,-50.3057,-18.27736,11.55,2.41,-1.91,2.0
1758077851.92809,1758077851.83576,0.0,0.0,0.0,-57.46767,-44.40423,-17.13144,10.45,1.75,-1.03,2.0
1758077851.93088,1758077851.84576,0.0,0.0,0.0,-57.86874,-40.16434,-15.58445,10.45,1.75,-1.03,2.0
1758077851.94634,1758077851.85576,0.0,0.0,0.0,-55.00395,-42.05511,-14.9542,11.89,0.39,1.76,2.0
1758077851.94731,1758077851.86576,0.0,0.0,0.0,-46.86795,-77.75038,-17.53251,11.89,0.39,5.23,2.0
1758077851.96234,1758077851.87576,0.0,0.0,0.0,-42.51347,-97.8039,-27.50197,12.25,-2.49,5.23,2.0
1758077851.97817,1758077851.88576,0.0,0.0,0.0,-36.15364,-90.58463,-38.90384,16.12,-3.8,5.94,2.0
1758077851.9805,1758077851.89576,0.0,0.0,0.0,-25.61122,-79.35466,-46.35228,16.12,-3.8,5.94,2.0
1758077851.99597,1758077851.90576,0.0,0.0,0.0,-11.57375,-79.35466,-50.82136,16.3,-3.62,6.34,2.0
1758077851.99746,1758077851.91576,0.0,0.0,0.0,-8.25059,-76.20339,-48.75871,16.3,-3.62,6.34,2.0
1758077852.01237,1758077851.92576,0.0,0.0,0.0,-10.08406,-69.3279,-41.76862,11.86,-1.12,4.6,2.0
1758077852.02842,1758077851.93576,0.0,0.0,0.0,-17.87628,-64.17127,-31.91375,11.86,-1.12,4.6,2.0
1758077852.02959,1758077851.94576,0.0,0.0,0.0,-33.11696,-51.22243,-13.5791,9.08,0.65,1.09,2.0
1758077852.04575,1758077851.95576,0.0,0.0,0.0,-41.59674,-33.9764,-1.3751,10.03,1.47,0.7,2.0
1758077852.04734,1758077851.96576,0.0,0.0,0.0,-47.78468,-17.99088,7.62034,10.03,1.47,0.7,2.0
1758077852.06217,1758077851.97576,0.0,0.0,0.0,-51.73809,-6.41713,13.00614,9.93,1.59,0.9,2.0
1758077852.07815,1758077851.98576,0.0,0.0,0.0,-53.97263,7.39116,13.98017,9.93,1.59,0.9,2.0
1758077852.08021,1758077851.99576,0.0,0.0,0.0,-53.39967,13.34992,11.34457,9.58,0.87,0.76,2.0
1758077852.09597,1758077852.00576,0.0,0.0,0.0,-52.25375,15.92823,6.8182,9.58,0.87,0.76,2.0
1758077852.09718,1758077852.01576,0.0,0.0,0.0,-48.07116,18.10547,-1.3178,9.01,-0.41,1.2,2.0
1758077852.11235,1758077852.02576,0.0,0.0,0.0,-44.11775,24.86637,-6.13065,8.28,-1.98,1.18,2.0
1758077852.12848,1758077852.03576,0.0,0.0,0.0,-38.90384,30.36677,-8.99544,8.28,-1.98,1.18,2.0
1758077852.12944,1758077852.04576,0.0,0.0,0.0,-33.68992,36.49741,-9.85487,6.98,-2.87,-0.18,2.0
1758077852.1445,1758077852.05576,0.0,0.0,0.0,-26.47065,41.94051,-8.136,6.98,-2.87,-0.18,2.0
1758077852.16049,1758077852.06576,0.0,0.0,0.0,-23.0902,43.4875,-6.87549,6.05,-2.42,-0.75,2.0
1758077852.1617,1758077852.07576,0.0,0.0,0.0,-20.62648,44.17505,-5.61499,6.05,-2.42,-0.75,2.0
1758077852.17655,1758077852.08576,0.0,0.0,0.0,-18.73572,46.00851,-4.92744,6.78,-1.4,-0.57,2.0
1758077852.17782,1758077852.09576,0.0,0.0,0.0,-17.47521,46.69606,-5.32851,8.55,-0.5,-0.4,2.0
1758077852.19223,1758077852.10576,0.0,0.0,0.0,-16.73037,46.81066,-4.64096,8.55,-0.5,-0.4,2.0
1758077852.20847,1758077852.11576,0.0,0.0,0.0,-16.61578,49.27437,-5.09932,10.03,-0.09,-0.11,2.0
1758077852.20982,1758077852.12576,0.0,0.0,0.0,-15.87093,50.82136,-4.0107,10.03,-0.09,-0.11,2.0
1758077852.22531,1758077852.13576,0.0,0.0,0.0,-14.9542,51.22243,-2.86479,10.06,-0.2,-0.02,2.0
1758077852.22626,1758077852.14576,0.0,0.0,0.0,-14.38124,51.5662,-1.83346,10.06,-0.2,-0.02,2.0
1758077852.24254,1758077852.15576,0.0,0.0,0.0,-13.75099,51.45161,-1.3178,9.69,-0.63,0.2,2.0
1758077852.26054,1758077852.16576,0.0,0.0,0.0,-12.49048,50.47758,-1.20321,9.69,-0.63,0.2,2.0
1758077852.26174,1758077852.17576,0.0,0.0,0.0,-11.17268,45.77933,-2.11994,9.34,-1.08,0.05,2.0
1758077852.27632,1758077852.18576,0.0,0.0,0.0,-10.71431,39.07573,-4.35448,8.85,-1.34,0.03,2.0
1758077852.27781,1758077852.19576,0.0,0.0,0.0,-10.8862,32.88778,-7.67763,8.85,-1.34,0.03,2.0
1758077852.29254,1758077852.20576,0.0,0.0,0.0,-10.25595,29.33544,-13.17803,9.03,-1.35,-0.41,2.0
1758077852.31033,1758077852.21576,0.0,0.0,0.0,-10.02676,33.63263,-16.10011,9.03,-1.35,-0.41,2.0
1758077852.31182,1758077852.22576,0.0,0.0,0.0,-8.59437,33.11696,-18.10547,10.1,-1.21,-0.18,2.0
1758077852.32632,1758077852.23576,0.0,0.0,0.0,-5.55769,24.86637,-18.73572,10.1,-1.21,-0.18,2.0
1758077852.32782,1758077852.24576,0.0,0.0,0.0,0.80214,9.4538,-15.35527,9.16,-1.11,0.18,2.0
1758077852.3426,1758077852.25576,0.0,0.0,0.0,5.21392,5.78687,-13.69369,9.69,-1.24,-0.82,2.0
1758077852.35959,1758077852.26576,0.0,0.0,0.0,9.68299,4.81285,-11.28727,9.69,-1.24,-0.82,2.0
1758077852.36083,1758077852.27576,0.0,0.0,0.0,13.46451,4.58366,-9.05273,10.0,-1.78,-1.19,2.0
1758077852.37551,1758077852.28576,0.0,0.0,0.0,17.13144,-0.97403,-7.10468,10.0,-1.78,-1.19,2.0
1758077852.37658,1758077852.29576,0.0,0.0,0.0,22.40265,-33.05967,-5.55769,8.58,-1.88,-0.51,2.0
1758077852.39251,1758077852.30576,0.0,0.0,0.0,30.02299,-72.36457,-3.38045,8.58,-1.88,-0.51,2.0
1758077852.4083,1758077852.31576,0.0,0.0,0.0,37.58603,-98.43416,7.67763,6.27,-2.58,-2.16,2.0
1758077852.41044,1758077852.32576,0.0,0.0,0.0,42.68536,-94.30885,17.01685,10.46,-3.24,-1.92,2.0
1758077852.42559,1758077852.33576,0.0,0.0,0.0,47.32632,-89.32412,19.13679,10.46,-3.24,-1.92,2.0
1758077852.42658,1758077852.34576,0.0,0.0,0.0,50.01921,-90.58463,17.24603,9.43,-2.69,-2.14,2.0
1758077852.44262,1758077852.35576,0.0,0.0,0.0,49.50356,-87.89172,16.84496,9.43,-2.69,-2.14,2.0
1758077852.45861,1758077852.36576,0.0,0.0,0.0,39.76327,-88.17821,21.88699,11.35,-1.57,2.89,2.0
1758077852.45958,1758077852.37576,0.0,0.0,0.0,25.43933,-95.68395,27.10091,11.35,-1.57,2.89,2.0
1758077852.47459,1758077852.38576,0.0,0.0,0.0,16.61578,-123.12864,41.76862,16.16,2.3,7.39,2.0
1758077852.49026,1758077852.39576,0.0,0.0,0.0,11.34457,-126.91016,59.70221,16.16,2.3,7.39,2.0
1758077852.49183,1758077852.40576,0.0,0.0,0.0,0.57296,-100.95516,68.41116,22.17,6.07,7.16,2.0
1758077852.50633,1758077852.41576,0.0,0.0,0.0,-4.1253,-91.1003,67.37984,15.64,4.09,2.06,2.0
1758077852.50785,1758077852.42576,0.0,0.0,0.0,-8.76626,-70.58841,59.24384,15.64,4.09,2.06,2.0
1758077852.52256,1758077852.43576,0.0,0.0,0.0,-6.13065,-47.61279,43.20102,8.42,0.63,2.93,2.0
1758077852.53835,1758077852.44576,0.0,0.0,0.0,0.68755,-41.76862,29.67921,8.42,0.63,2.93,2.0
1758077852.53986,1758077852.45576,0.0,0.0,0.0,9.4538,-29.50733,17.13144,6.32,-0.76,2.57,2.0
1758077852.55467,1758077852.46576,0.0,0.0,0.0,17.87628,-8.88085,4.46907,6.32,-0.76,2.57,2.0
1758077852.55632,1758077852.47576,0.0,0.0,0.0,28.24682,21.37133,-10.25595,12.43,-0.94,2.54,2.0
1758077852.57239,1758077852.48576,0.0,0.0,0.0,31.39809,40.10705,-16.38659,14.63,-0.55,0.38,2.0
1758077852.5884,1758077852.49576,0.0,0.0,0.0,31.45539,61.53567,-18.16276,14.63,-0.55,0.38,2.0
1758077852.59068,1758077852.50576,0.0,0.0,0.0,28.41871,82.7924,-18.62113,14.37,0.05,-0.83,2.0
1758077852.60563,1758077852.51576,0.0,0.0,0.0,23.20479,96.4861,-14.83961,14.37,0.05,-0.83,2.0
1758077852.60772,1758077852.52576,0.0,0.0,0.0,20.05352,97.23093,-10.31324,10.96,0.8,-0.02,2.0
1758077852.62339,1758077852.53576,0.0,0.0,0.0,16.95955,96.88716,-6.35983,10.96,0.8,-0.02,2.0
1758077852.63941,1758077852.54576,0.0,0.0,0.0,13.86558,96.19962,-3.09397,8.84,1.42,0.25,2.0
1758077852.64074,1758077852.55576,0.0,0.0,0.0,9.28192,95.0537,-1.43239,8.0,1.69,-0.03,2.0
1758077852.65565,1758077852.56576,0.0,0.0,0.0,5.09932,96.31421,-2.40642,8.0,1.69,-0.03,2.0
1758077852.65735,1758077852.57576,0.0,0.0,0.0,1.03132,96.5434,-3.95341,7.75,1.66,0.15,2.0
1758077852.67448,1758077852.58576,0.0,0.0,0.0,-3.26586,95.91314,-6.41713,7.75,1.66,0.15,2.0
1758077852.69044,1758077852.59576,0.0,0.0,0.0,-8.76626,92.53268,-9.91217,7.37,1.37,0.51,2.0
1758077852.69187,1758077852.60576,0.0,0.0,0.0,-11.74564,85.42801,-11.63104,7.37,1.37,0.51,2.0
1758077852.70643,1758077852.61576,0.0,0.0,0.0,-14.15206,74.14074,-13.06344,6.81,0.87,0.89,2.0
1758077852.70794,1758077852.62576,0.0,0.0,0.0,-16.10011,62.56699,-14.03747,6.81,0.87,0.89,2.0
1758077852.7227,1758077852.63576,0.0,0.0,0.0,-16.55848,45.26366,-13.86558,6.58,0.43,1.01,2.0
1758077852.73874,1758077852.64576,0.0,0.0,0.0,-16.55848,34.0337,-13.40721,6.92,0.22,1.02,2.0
1758077852.73988,1758077852.65576,0.0,0.0,0.0,-16.04282,21.42862,-12.60507,6.92,0.22,1.02,2.0
1758077852.75552,1758077852.66576,0.0,0.0,0.0,-15.12609,6.53172,-11.91752,7.09,0.22,1.14,2.0
1758077852.75671,1758077852.67576,0.0,0.0,0.0,-15.06879,3.95341,-11.00079,7.09,0.22,1.14,2.0
1758077852.77248,1758077852.68576,0.0,0.0,0.0,-15.35527,3.32316,-10.08406,7.74,0.67,0.92,2.0
1758077852.78865,1758077852.69576,0.0,0.0,0.0,-15.75634,1.14592,-8.42248,7.74,0.67,0.92,2.0
1758077852.78991,1758077852.70576,0.0,0.0,0.0,-17.87628,-1.08862,-6.24524,7.87,1.12,1.03,2.0
1758077852.80554,1758077852.71576,0.0,0.0,0.0,-20.34,-2.92208,-4.64096,8.51,1.25,0.57,2.0
1758077852.80658,1758077852.72576,0.0,0.0,0.0,-22.97561,-7.16197,-3.60963,8.51,1.25,0.57,2.0
1758077852.82276,1758077852.73576,0.0,0.0,0.0,-25.89769,-15.75634,-2.97938,8.47,1.01,-0.17,2.0
1758077852.83881,1758077852.74576,0.0,0.0,0.0,-29.73651,-31.97105,-3.20856,8.47,1.01,-0.17,2.0
1758077852.84054,1758077852.75576,0.0,0.0,0.0,-32.42941,-42.62806,-4.46907,8.53,0.7,-1.25,2.0
1758077852.8558,1758077852.76576,0.0,0.0,0.0,-35.2942,-55.00395,-5.72958,8.53,0.7,-1.25,2.0
1758077852.85672,1758077852.77576,0.0,0.0,0.0,-39.07573,-62.5097,-5.27121,8.96,0.67,-2.26,2.0
1758077852.87359,1758077852.78576,0.0,0.0,0.0,-46.00851,-13.75099,-6.58902,14.53,1.06,-1.7,2.0
1758077852.89112,1758077852.79576,0.0,0.0,0.0,-51.90998,13.5218,-5.21392,14.53,1.06,-1.7,2.0
1758077852.89232,1758077852.80576,0.0,0.0,0.0,-55.23313,-17.53251,-5.27121,11.88,1.32,-0.24,2.0
