timeStamp,timeStampAlign,roll,pitch,yaw,gyro_x,gyro_y,gyro_z,acc_x,acc_y,acc_z,flag_num
1758079544.50389,1758079544.22702,0.0,0.0,0.0,20.85567,17.99088,-0.85944,10.07,-0.1,0.64,4.0
1758079544.63647,1758079544.23702,0.0,0.0,0.0,20.68378,18.44924,-1.08862,10.03,-0.19,0.57,4.0
1758079544.63924,1758079544.24702,0.0,0.0,0.0,20.3973,18.16276,-1.3751,10.03,-0.19,0.57,4.0
1758079544.64311,1758079544.25702,0.0,0.0,0.0,20.11082,16.95955,-1.3751,9.89,-0.27,0.59,4.0
1758079544.64429,1758079544.26702,0.0,0.0,0.0,19.70975,13.5218,-1.3751,9.89,-0.27,0.59,4.0
1758079544.6481,1758079544.27702,0.0,0.0,0.0,19.36597,9.74028,-1.20321,9.68,-0.28,0.66,4.0
1758079544.65012,1758079544.28702,0.0,0.0,0.0,19.13679,5.78687,-1.14592,9.68,-0.28,0.66,4.0
1758079544.65396,1758079544.29702,0.0,0.0,0.0,19.07949,1.71887,-1.20321,9.39,-0.25,0.56,4.0
1758079544.65477,1758079544.30702,0.0,0.0,0.0,19.13679,-2.97938,-1.20321,9.28,-0.26,0.43,4.0
1758079544.65661,1758079544.31702,0.0,0.0,0.0,19.42327,-5.72958,-1.71887,9.28,-0.26,0.43,4.0
1758079544.65746,1758079544.32702,0.0,0.0,0.0,19.76705,-8.25059,-1.77617,9.11,-0.34,0.33,4.0
1758079544.65855,1758079544.33702,0.0,0.0,0.0,20.11082,-10.25595,-2.34913,9.11,-0.34,0.33,4.0
1758079544.65971,1758079544.34702,0.0,0.0,0.0,20.79837,-13.69369,-2.86479,9.0,-0.48,0.33,4.0
1758079544.6612,1758079544.35702,0.0,0.0,0.0,21.25674,-15.64175,-3.09397,9.0,-0.48,0.33,4.0
1758079544.66183,1758079544.36702,0.0,0.0,0.0,21.7151,-14.83961,-2.46372,9.08,-0.6,0.33,4.0
1758079544.66305,1758079544.37702,0.0,0.0,0.0,21.25674,-6.35983,-3.66693,9.08,-0.6,0.33,4.0
1758079544.66368,1758079544.38702,0.0,0.0,0.0,21.37133,-2.46372,-2.6929,10.2,-0.64,0.84,4.0
1758079544.66683,1758079544.39702,0.0,0.0,0.0,21.08485,-0.57296,-0.85944,11.36,-0.38,2.37,4.0
1758079544.66953,1758079544.40702,0.0,0.0,0.0,20.45459,-5.09932,2.34913,11.36,-0.38,2.37,4.0
1758079544.67311,1758079544.41702,0.0,0.0,0.0,19.42327,-17.01685,7.84952,11.63,0.07,3.68,4.0
1758079544.67378,1758079544.42702,0.0,0.0,0.0,18.56383,-28.13223,9.28192,11.63,0.07,3.68,4.0
1758079544.67457,1758079544.43702,0.0,0.0,0.0,18.33465,-34.95043,9.28192,10.74,0.26,2.91,4.0
1758079544.67565,1758079544.44702,0.0,0.0,0.0,18.56383,-37.52874,7.10468,10.74,0.26,2.91,4.0
1758079544.67641,1758079544.45702,0.0,0.0,0.0,20.85567,-39.01843,3.20856,10.2,0.09,2.48,4.0
1758079544.69415,1758079544.46702,0.0,0.0,0.0,23.72045,-38.44547,0.51566,9.87,-0.08,2.7,4.0
1758079544.69498,1758079544.47702,0.0,0.0,0.0,27.67386,-37.81522,-1.43239,9.87,-0.08,2.7,4.0
1758079544.71124,1758079544.48702,0.0,0.0,0.0,33.00237,-38.21629,-2.97938,9.48,-0.19,2.87,4.0
1758079544.72884,1758079544.49702,0.0,0.0,0.0,42.05511,-37.81522,-3.95341,9.48,-0.19,2.87,4.0
1758079544.73439,1758079544.50702,0.0,0.0,0.0,48.35764,-32.71589,-3.49504,9.41,-0.24,2.21,4.0
1758079544.79606,1758079544.51702,0.0,0.0,0.0,54.60288,-24.92367,-1.3751,9.41,-0.24,2.21,4.0
1758079544.79862,1758079544.52702,0.0,0.0,0.0,59.53032,-14.32395,1.14592,10.2,-0.04,1.5,4.0
1758079544.79917,1758079544.53702,0.0,0.0,0.0,63.65561,6.24524,4.1253,11.03,0.45,1.37,4.0
1758079544.80682,1758079544.54702,0.0,0.0,0.0,64.62964,18.10547,5.50039,11.03,0.45,1.37,4.0
1758079544.80741,1758079544.55702,0.0,0.0,0.0,63.88479,26.41335,6.41713,11.06,0.99,1.59,4.0
1758079544.80895,1758079544.56702,0.0,0.0,0.0,61.42108,33.00237,6.35983,11.06,0.99,1.59,4.0
1758079544.80935,1758079544.57702,0.0,0.0,0.0,59.53032,36.03905,6.18794,10.73,1.32,1.26,4.0
1758079544.81081,1758079544.58702,0.0,0.0,0.0,57.92604,32.54401,5.27121,10.73,1.32,1.26,4.0
1758079544.82692,1758079544.59702,0.0,0.0,0.0,55.97798,26.24147,5.15662,9.99,1.55,0.8,4.0
1758079544.82805,1758079544.60702,0.0,0.0,0.0,50.2484,19.48057,2.92208,9.99,1.55,0.8,4.0
1758079544.84363,1758079544.61702,0.0,0.0,0.0,46.63877,18.73572,0.97403,10.22,1.88,0.84,4.0
1758079544.84652,1758079544.62702,0.0,0.0,0.0,42.22699,22.00158,-2.11994,10.71,2.22,0.92,4.0
1758079544.86287,1758079544.63702,0.0,0.0,0.0,40.10705,34.0337,-2.29183,10.71,2.22,0.92,4.0
1758079544.87965,1758079544.64702,0.0,0.0,0.0,37.52874,38.78925,-3.09397,10.35,2.09,1.52,4.0
1758079544.88085,1758079544.65702,0.0,0.0,0.0,35.2942,36.7266,-3.38045,10.35,2.09,1.52,4.0
1758079544.89692,1758079544.66702,0.0,0.0,0.0,32.71589,34.0337,-4.18259,8.87,1.73,2.12,4.0
1758079544.89875,1758079544.67702,0.0,0.0,0.0,29.96569,31.56997,-4.92744,8.87,1.73,2.12,4.0
1758079544.91408,1758079544.68702,0.0,0.0,0.0,26.01229,26.18417,-6.18794,9.02,1.51,1.52,4.0
1758079544.9156,1758079544.69702,0.0,0.0,0.0,23.37668,22.05888,-6.7609,8.96,1.35,1.34,4.0
1758079544.93419,1758079544.70702,0.0,0.0,0.0,21.02755,17.81899,-6.47442,8.96,1.35,1.34,4.0
1758079545.07964,1758079544.71702,0.0,0.0,0.0,19.07949,13.12073,-5.90147,8.82,1.24,1.43,4.0
1758079545.09781,1758079544.72702,0.0,0.0,0.0,16.84496,8.02141,-4.58366,8.82,1.24,1.43,4.0
1758079545.09853,1758079544.73702,0.0,0.0,0.0,15.58445,6.24524,-3.38045,8.66,1.12,1.33,4.0
1758079545.10086,1758079544.74702,0.0,0.0,0.0,14.49583,4.35448,-2.63561,8.66,1.12,1.33,4.0
1758079545.10123,1758079544.75702,0.0,0.0,0.0,13.5791,2.34913,-1.71887,8.57,1.08,1.47,4.0
1758079545.10242,1758079544.76702,0.0,0.0,0.0,12.49048,1.60428,-1.3178,8.7,1.15,1.6,4.0
1758079545.10384,1758079544.77702,0.0,0.0,0.0,12.14671,2.11994,-1.03132,8.7,1.15,1.6,4.0
1758079545.10698,1758079544.78702,0.0,0.0,0.0,11.91752,2.40642,-1.03132,8.9,1.16,1.63,4.0
1758079545.11165,1758079544.79702,0.0,0.0,0.0,12.08941,3.49504,-1.20321,8.9,1.16,1.63,4.0
1758079545.11283,1758079544.80702,0.0,0.0,0.0,12.14671,3.72423,-1.66158,8.89,1.14,1.62,4.0
1758079545.11394,1758079544.81702,0.0,0.0,0.0,12.14671,3.49504,-2.00535,8.89,1.14,1.62,4.0
1758079545.11475,1758079544.82702,0.0,0.0,0.0,12.14671,3.49504,-2.34913,8.87,1.11,1.38,4.0
1758079545.119,1758079544.83702,0.0,0.0,0.0,11.86023,2.6929,-2.40642,8.87,1.11,1.12,4.0
1758079545.11979,1758079544.84702,0.0,0.0,0.0,11.80293,1.48969,-2.29183,8.94,1.07,1.12,4.0
1758079545.12759,1758079544.85702,0.0,0.0,0.0,11.57375,-0.11459,-2.06265,8.91,0.97,0.89,4.0
1758079545.12801,1758079544.86702,0.0,0.0,0.0,11.51645,-1.60428,-1.71887,8.91,0.97,0.89,4.0
1758079545.12906,1758079544.87702,0.0,0.0,0.0,11.00079,-3.38045,-1.08862,9.05,0.89,0.78,4.0
1758079545.1305,1758079544.88702,0.0,0.0,0.0,10.8289,-4.46907,-0.57296,9.05,0.89,0.78,4.0
1758079545.13174,1758079544.89702,0.0,0.0,0.0,10.54242,-5.90147,0.0,9.21,0.9,0.79,4.0
1758079545.13236,1758079544.90702,0.0,0.0,0.0,10.08406,-7.33386,0.68755,9.21,0.9,0.79,4.0
1758079545.14819,1758079544.91702,0.0,0.0,0.0,9.4538,-9.05273,1.77617,9.38,1.0,0.82,4.0
1758079545.14944,1758079544.92702,0.0,0.0,0.0,8.93814,-9.74028,2.34913,9.59,1.15,0.82,4.0
1758079545.16424,1758079544.93702,0.0,0.0,0.0,8.0787,-10.31324,2.63561,9.59,1.15,0.82,4.0
1758079545.16679,1758079544.94702,0.0,0.0,0.0,7.33386,-10.48513,2.86479,9.65,1.3,0.77,4.0
1758079545.18407,1758079544.95702,0.0,0.0,0.0,6.13065,-10.31324,2.46372,9.65,1.3,0.77,4.0
1758079545.18664,1758079544.96702,0.0,0.0,0.0,5.32851,-10.25595,2.11994,9.65,1.4,0.74,4.0
1758079545.20387,1758079544.97702,0.0,0.0,0.0,4.58366,-10.8289,1.83346,9.65,1.4,0.74,4.0
1758079545.20724,1758079544.98702,0.0,0.0,0.0,3.03668,-11.11538,1.60428,9.58,1.44,0.75,4.0
1758079545.223,1758079544.99702,0.0,0.0,0.0,2.00535,-10.31324,1.66158,9.76,1.4,0.77,4.0
1758079545.23905,1758079545.00702,0.0,0.0,0.0,1.03132,-9.11003,1.83346,9.76,1.4,0.77,4.0
1758079545.24299,1758079545.01702,0.0,0.0,0.0,-0.40107,-8.136,2.00535,9.9,1.35,0.85,4.0
1758079545.25882,1758079545.02702,0.0,0.0,0.0,-2.57831,-6.18794,2.57831,9.9,1.35,0.85,4.0
1758079545.26652,1758079545.03702,0.0,0.0,0.0,-3.89611,-4.92744,2.97938,9.99,1.33,0.86,4.0
1758079545.26784,1758079545.04702,0.0,0.0,0.0,-5.15662,-3.66693,3.55234,9.99,1.33,0.86,4.0
1758079545.28837,1758079545.05702,0.0,0.0,0.0,-6.18794,-2.86479,4.1253,9.96,1.38,0.77,4.0
1758079545.28925,1758079545.06702,0.0,0.0,0.0,-7.44845,-1.60428,4.52637,9.88,1.41,0.73,4.0
1758079545.30432,1758079545.07702,0.0,0.0,0.0,-7.84952,-1.14592,4.81285,9.88,1.41,0.73,4.0
1758079545.30852,1758079545.08702,0.0,0.0,0.0,-8.30789,-0.45837,4.81285,9.73,1.35,0.68,4.0
1758079545.32677,1758079545.09702,0.0,0.0,0.0,-8.47978,0.0573,4.64096,9.73,1.35,0.68,4.0
1758079545.32849,1758079545.10702,0.0,0.0,0.0,-8.42248,0.0573,4.81285,9.61,1.23,0.63,4.0
1758079545.36942,1758079545.11702,0.0,0.0,0.0,-8.42248,0.0,4.58366,9.61,1.23,0.63,4.0
1758079545.39191,1758079545.12702,0.0,0.0,0.0,-8.42248,-0.34377,4.69825,9.5,1.1,0.59,4.0
1758079545.3933,1758079545.13702,0.0,0.0,0.0,-8.30789,-0.51566,4.87014,9.5,1.1,0.59,4.0
1758079545.39427,1758079545.14702,0.0,0.0,0.0,-8.25059,-0.85944,5.21392,9.41,1.07,0.53,4.0
1758079545.39489,1758079545.15702,0.0,0.0,0.0,-8.02141,-1.66158,5.50039,9.26,1.12,0.45,4.0
1758079545.4001,1758079545.16702,0.0,0.0,0.0,-7.67763,-3.20856,5.50039,9.26,1.12,0.45,4.0
1758079545.404,1758079545.17702,0.0,0.0,0.0,-7.33386,-5.21392,5.32851,8.98,1.18,0.3,4.0
1758079545.40873,1758079545.18702,0.0,0.0,0.0,-6.35983,-9.22462,5.09932,8.98,1.18,0.3,4.0
1758079545.42441,1758079545.19702,0.0,0.0,0.0,-5.4431,-12.08941,4.46907,8.63,1.15,0.24,4.0
1758079545.42812,1758079545.20702,0.0,0.0,0.0,-4.52637,-15.06879,3.72423,8.63,1.15,0.24,4.0
1758079545.44862,1758079545.21702,0.0,0.0,0.0,-3.38045,-19.36597,2.57831,8.22,1.12,0.24,4.0
1758079545.44953,1758079545.22702,0.0,0.0,0.0,-2.86479,-22.23076,1.66158,7.73,1.18,0.33,4.0
1758079545.46628,1758079545.23702,0.0,0.0,0.0,-2.86479,-24.5226,0.97403,7.73,1.18,0.33,4.0
1758079545.46951,1758079545.24702,0.0,0.0,0.0,-3.20856,-26.18417,0.40107,7.23,1.35,0.42,4.0
1758079545.48644,1758079545.25702,0.0,0.0,0.0,-4.35448,-29.33544,0.11459,7.23,1.35,0.42,4.0
1758079545.48736,1758079545.26702,0.0,0.0,0.0,-5.55769,-30.88243,0.45837,6.67,1.45,0.52,4.0
1758079545.50222,1758079545.27702,0.0,0.0,0.0,-7.33386,-29.62192,1.03132,6.67,1.45,0.52,4.0
1758079545.51915,1758079545.28702,0.0,0.0,0.0,-9.4538,-25.15285,1.66158,6.52,1.24,0.53,4.0
1758079545.52113,1758079545.29702,0.0,0.0,0.0,-12.71966,-19.82434,1.3751,6.6,0.22,0.85,4.0
1758079545.53821,1758079545.30702,0.0,0.0,0.0,-13.06344,-30.30947,0.34377,6.6,0.22,0.85,4.0
1758079545.53949,1758079545.31702,0.0,0.0,0.0,-13.12073,-57.92604,0.97403,5.26,-0.83,1.95,4.0
1758079545.55444,1758079545.32702,0.0,0.0,0.0,-13.06344,-75.85962,1.14592,5.26,-0.83,1.95,4.0
1758079545.56048,1758079545.33702,0.0,0.0,0.0,-8.59437,-67.72362,-0.51566,11.19,-1.4,3.43,4.0
1758079545.57916,1758079545.34702,0.0,0.0,0.0,-5.21392,-52.13916,-5.72958,11.19,-1.4,3.43,4.0
1758079545.5887,1758079545.35702,0.0,0.0,0.0,0.97403,-27.96034,-9.11003,20.28,-2.37,4.61,4.0
1758079545.59323,1758079545.36702,0.0,0.0,0.0,10.54242,-19.48057,-6.70361,20.28,-2.37,4.61,4.0
1758079545.7106,1758079545.37702,0.0,0.0,0.0,21.42862,-35.75257,-8.99544,19.56,-3.95,2.83,4.0
1758079545.71155,1758079545.38702,0.0,0.0,0.0,24.75178,-34.95043,-8.42248,14.37,-3.16,-0.46,4.0
1758079545.71407,1758079545.39702,0.0,0.0,0.0,29.73651,-28.41871,-1.48969,14.37,-3.16,-0.46,4.0
1758079545.71854,1758079545.40702,0.0,0.0,0.0,33.46074,0.11459,9.62569,15.01,-0.99,-0.3,4.0
1758079545.71895,1758079545.41702,0.0,0.0,0.0,32.71589,22.11617,16.95955,15.01,-0.99,-0.3,4.0
1758079545.72431,1758079545.42702,0.0,0.0,0.0,29.67921,41.71133,21.88699,15.62,0.84,0.94,4.0
1758079545.72648,1758079545.43702,0.0,0.0,0.0,25.61122,55.00395,23.83505,15.62,0.84,0.94,4.0
1758079545.72879,1758079545.44702,0.0,0.0,0.0,17.53251,64.85883,21.37133,13.08,1.69,1.25,4.0
1758079545.73097,1758079545.45702,0.0,0.0,0.0,12.37589,68.58305,17.30333,11.14,1.68,0.5,4.0
1758079545.73128,1758079545.46702,0.0,0.0,0.0,7.96411,60.38975,13.17803,11.14,1.68,0.5,4.0
1758079545.73233,1758079545.47702,0.0,0.0,0.0,4.29718,43.83128,8.42248,8.85,0.78,0.78,4.0
1758079545.73396,1758079545.48702,0.0,0.0,0.0,-1.03132,30.99702,0.17189,8.85,0.78,0.78,4.0
1758079545.73506,1758079545.49702,0.0,0.0,0.0,-2.92208,41.25296,-3.60963,9.78,-0.09,0.23,4.0
1758079545.73581,1758079545.50702,0.0,0.0,0.0,-3.95341,50.2484,-6.41713,9.78,-0.09,0.23,4.0
1758079545.73778,1758079545.51702,0.0,0.0,0.0,-5.09932,51.16513,-8.99544,10.42,-0.6,0.7,4.0
1758079545.75325,1758079545.52702,0.0,0.0,0.0,-6.47442,42.22699,-10.08406,8.57,-0.56,1.51,4.0
1758079545.7695,1758079545.53702,0.0,0.0,0.0,-7.10468,33.00237,-9.33921,8.57,-0.56,1.51,4.0
1758079545.77161,1758079545.54702,0.0,0.0,0.0,-7.21927,22.23076,-7.44845,8.0,-0.27,0.52,4.0
1758079545.78787,1758079545.55702,0.0,0.0,0.0,-6.35983,12.37589,-4.23989,8.0,-0.27,0.52,4.0
1758079545.78994,1758079545.56702,0.0,0.0,0.0,-4.52637,4.0107,0.22918,7.93,-0.28,0.09,4.0
1758079545.80879,1758079545.57702,0.0,0.0,0.0,-2.92208,0.17189,3.32316,7.93,-0.28,0.09,4.0
1758079545.81609,1758079545.58702,0.0,0.0,0.0,-1.14592,1.71887,5.78687,7.9,-0.54,0.41,4.0
1758079545.8366,1758079545.59702,0.0,0.0,0.0,-0.51566,16.272,4.81285,7.9,-0.54,0.41,4.0
1758079545.86301,1758079545.60702,0.0,0.0,0.0,2.29183,31.79916,5.50039,8.96,-0.69,0.75,4.0
1758079545.86364,1758079545.61702,0.0,0.0,0.0,3.66693,36.21093,3.72423,8.18,-0.5,1.55,4.0
1758079545.86687,1758079545.62702,0.0,0.0,0.0,5.09932,32.6013,2.46372,8.18,-0.5,1.55,4.0
1758079545.8673,1758079545.63702,0.0,0.0,0.0,7.84952,21.94428,0.0573,7.31,-0.4,1.13,4.0
1758079545.8691,1758079545.64702,0.0,0.0,0.0,9.11003,13.5218,-2.23454,7.31,-0.4,1.13,4.0
1758079545.88695,1758079545.65702,0.0,0.0,0.0,10.37054,6.99009,-4.35448,7.62,-0.37,-0.1,4.0
1758079545.88889,1758079545.66702,0.0,0.0,0.0,11.91752,3.09397,-6.7609,7.62,-0.37,-0.1,4.0
1758079545.90464,1758079545.67702,0.0,0.0,0.0,15.12609,0.34377,-9.4538,8.31,-0.5,-0.14,4.0
1758079545.90819,1758079545.68702,0.0,0.0,0.0,17.6471,-1.48969,-10.59972,8.69,-0.7,0.22,4.0
1758079545.92357,1758079545.69702,0.0,0.0,0.0,20.16812,-4.18259,-10.8862,8.69,-0.7,0.22,4.0
1758079545.94011,1758079545.70702,0.0,0.0,0.0,22.57454,-7.21927,-10.54242,8.61,-0.83,0.27,4.0
1758079545.94444,1758079545.71702,0.0,0.0,0.0,25.61122,-9.74028,-10.02676,8.61,-0.83,0.27,4.0
1758079545.94673,1758079545.72702,0.0,0.0,0.0,27.44468,-11.63104,-8.99544,8.62,-0.86,-0.01,4.0
1758079545.96315,1758079545.73702,0.0,0.0,0.0,29.10626,-12.54778,-7.79223,8.62,-0.86,-0.01,4.0
1758079546.00711,1758079545.74701,0.0,0.0,0.0,30.53865,-13.40721,-6.47442,8.7,-0.76,-0.17,4.0
1758079546.00896,1758079545.75701,0.0,0.0,0.0,32.08564,-13.17803,-4.64096,8.9,-0.53,0.01,4.0
1758079546.01088,1758079545.76701,0.0,0.0,0.0,32.71589,-12.43318,-3.66693,8.9,-0.53,0.01,4.0
1758079546.01245,1758079545.77701,0.0,0.0,0.0,33.23156,-11.34457,-2.92208,9.14,-0.32,0.32,4.0
1758079546.01316,1758079545.78701,0.0,0.0,0.0,33.46074,-10.37054,-2.57831,9.14,-0.32,0.32,4.0
1758079546.03023,1758079545.79701,0.0,0.0,0.0,33.05967,-10.08406,-2.86479,9.27,-0.23,0.49,4.0
1758079546.0341,1758079545.80701,0.0,0.0,0.0,32.48671,-10.48513,-3.38045,9.27,-0.23,0.49,4.0
1758079546.05614,1758079545.81701,0.0,0.0,0.0,31.56997,-11.74564,-3.95341,9.14,-0.34,0.43,4.0
1758079546.06047,1758079545.82701,0.0,0.0,0.0,29.39274,-15.58445,-4.92744,9.14,-0.34,0.43,4.0
1758079546.06085,1758079545.83701,0.0,0.0,0.0,27.84575,-19.36597,-5.55769,8.6,-0.4,0.25,4.0
1758079546.0767,1758079545.84701,0.0,0.0,0.0,25.72581,-24.17882,-5.50039,7.99,-0.36,0.22,4.0
1758079546.07837,1758079545.85701,0.0,0.0,0.0,23.66316,-28.70519,-5.32851,7.99,-0.36,0.22,4.0
1758079546.09357,1758079545.86701,0.0,0.0,0.0,20.45459,-35.86716,-4.18259,7.54,-0.12,0.17,4.0
1758079546.1097,1758079545.87701,0.0,0.0,0.0,18.50654,-40.50812,-2.97938,7.54,-0.12,0.17,4.0
1758079546.11222,1758079545.88701,0.0,0.0,0.0,16.73037,-46.69606,-1.03132,7.08,0.21,0.34,4.0
1758079546.12825,1758079545.89701,0.0,0.0,0.0,15.41257,-53.39967,1.20321,7.08,0.21,0.34,4.0
1758079546.1294,1758079545.90701,0.0,0.0,0.0,14.49583,-64.62964,4.98473,7.1,0.72,1.27,4.0
1758079546.14459,1758079545.91701,0.0,0.0,0.0,14.09476,-66.46311,7.21927,9.17,1.42,2.68,4.0
1758079546.14804,1758079545.92701,0.0,0.0,0.0,13.12073,-61.87944,9.22462,9.17,1.42,2.68,4.0
1758079546.16345,1758079545.93701,0.0,0.0,0.0,11.97482,-53.11319,11.11538,13.53,2.24,4.11,4.0
1758079546.18263,1758079545.94701,0.0,0.0,0.0,9.62569,-36.21093,12.60507,13.53,2.24,4.11,4.0
1758079546.18659,1758079545.95701,0.0,0.0,0.0,7.67763,-23.83505,12.08941,14.44,2.54,2.63,4.0
1758079546.18792,1758079545.96701,0.0,0.0,0.0,5.21392,-7.96411,9.91217,14.44,2.54,2.63,4.0
1758079546.20875,1758079545.97701,0.0,0.0,0.0,2.34913,10.31324,7.10468,13.69,2.23,1.51,4.0
1758079546.21206,1758079545.98701,0.0,0.0,0.0,-1.83346,29.27814,2.29183,15.07,2.32,2.04,4.0
1758079546.22855,1758079545.99701,0.0,0.0,0.0,-4.0107,8.136,3.26586,15.07,2.32,2.04,4.0
1758079546.23318,1758079546.00701,0.0,0.0,0.0,-4.58366,-10.71431,2.00535,14.5,1.93,2.11,4.0
1758079546.24881,1758079546.01701,0.0,0.0,0.0,0.22918,-22.68913,4.92744,14.5,1.93,2.11,4.0
1758079546.25286,1758079546.02701,0.0,0.0,0.0,0.40107,3.89611,2.6929,17.09,0.91,-0.43,4.0
1758079546.34337,1758079546.03701,0.0,0.0,0.0,0.74485,37.81522,0.34377,17.09,0.91,-0.43,4.0
1758079546.40067,1758079546.04701,0.0,0.0,0.0,3.20856,61.02001,-2.6929,15.76,0.05,0.12,4.0
1758079546.40292,1758079546.05701,0.0,0.0,0.0,7.04738,69.38519,-6.53172,15.76,0.05,0.12,4.0
1758079546.40816,1758079546.06701,0.0,0.0,0.0,9.39651,66.69229,-8.65166,10.83,0.08,2.03,4.0
1758079546.40856,1758079546.07701,0.0,0.0,0.0,12.49048,64.45775,-8.136,10.48,0.67,0.53,4.0
1758079546.4113,1758079546.08701,0.0,0.0,0.0,14.49583,58.84277,-7.96411,10.48,0.67,0.53,4.0
1758079546.41192,1758079546.09701,0.0,0.0,0.0,17.36062,46.1231,-6.53172,10.67,1.14,-0.13,4.0
1758079546.41265,1758079546.10701,0.0,0.0,0.0,18.33465,36.61201,-5.15662,10.67,1.14,-0.13,4.0
1758079546.41459,1758079546.11701,0.0,0.0,0.0,18.73572,26.41335,-3.89611,10.35,1.27,0.32,4.0
1758079546.41907,1758079546.12701,0.0,0.0,0.0,18.56383,19.99623,-3.03668,10.35,1.27,0.32,4.0
1758079546.42041,1758079546.13701,0.0,0.0,0.0,16.84496,24.17882,-0.85944,10.19,1.09,1.0,4.0
1758079546.42119,1758079546.14701,0.0,0.0,0.0,15.35527,38.27358,-0.80214,10.72,1.02,1.2,4.0
1758079546.42233,1758079546.15701,0.0,0.0,0.0,13.69369,44.86259,-1.08862,10.72,1.02,1.2,4.0
1758079546.42308,1758079546.16701,0.0,0.0,0.0,12.14671,39.3622,-1.3178,8.45,1.03,2.11,4.0
1758079546.42423,1758079546.17701,0.0,0.0,0.0,10.31324,24.23611,-2.86479,8.45,1.03,2.11,4.0
1758079546.42798,1758079546.18701,0.0,0.0,0.0,9.11003,17.13144,-3.66693,7.1,1.37,1.26,4.0
1758079546.42915,1758079546.19701,0.0,0.0,0.0,7.79223,13.34992,-4.29718,7.1,1.37,1.26,4.0
1758079546.42984,1758079546.20701,0.0,0.0,0.0,6.58902,12.54778,-4.87014,7.65,1.63,0.29,4.0
1758079546.44655,1758079546.21701,0.0,0.0,0.0,4.46907,13.00614,-4.87014,7.79,1.77,0.68,4.0
1758079546.44932,1758079546.22701,0.0,0.0,0.0,2.92208,12.08941,-4.18259,7.79,1.77,0.68,4.0
1758079546.46482,1758079546.23701,0.0,0.0,0.0,0.85944,10.37054,-3.20856,7.7,1.75,0.98,4.0
1758079546.46846,1758079546.24701,0.0,0.0,0.0,-2.34913,7.10468,-0.97403,7.7,1.75,0.98,4.0
1758079546.48381,1758079546.25701,0.0,0.0,0.0,-4.87014,5.84417,0.40107,7.94,1.56,0.74,4.0
1758079546.48641,1758079546.26701,0.0,0.0,0.0,-7.67763,4.29718,1.83346,7.94,1.56,0.74,4.0
1758079546.50294,1758079546.27701,0.0,0.0,0.0,-10.8862,3.55234,2.97938,8.12,1.41,0.24,4.0
1758079546.51891,1758079546.28701,0.0,0.0,0.0,-15.98552,2.29183,4.1253,8.12,1.41,0.21,4.0
1758079546.52409,1758079546.29701,0.0,0.0,0.0,-19.42327,0.57296,4.64096,8.14,1.38,0.21,4.0
1758079546.53886,1758079546.30701,0.0,0.0,0.0,-22.86102,-1.20321,4.64096,8.05,1.53,0.16,4.0
1758079546.54088,1758079546.31701,0.0,0.0,0.0,-25.72581,-2.29183,4.64096,8.05,1.53,0.16,4.0
1758079546.57837,1758079546.32701,0.0,0.0,0.0,-29.67921,-4.23989,4.1253,8.18,1.77,0.11,4.0
1758079546.58622,1758079546.33701,0.0,0.0,0.0,-31.51268,-6.41713,3.09397,8.18,1.77,0.11,4.0
1758079546.58894,1758079546.34701,0.0,0.0,0.0,-32.83048,-8.47978,2.40642,8.16,1.9,0.1,4.0
1758079546.59016,1758079546.35701,0.0,0.0,0.0,-33.68992,-10.25595,0.85944,8.16,1.9,0.1,4.0
1758079546.59161,1758079546.36701,0.0,0.0,0.0,-34.32018,-12.08941,-1.03132,8.51,1.82,0.24,4.0
1758079546.60892,1758079546.37701,0.0,0.0,0.0,-34.14828,-13.06344,-2.40642,8.82,1.61,0.31,4.0
1758079546.61029,1758079546.38701,0.0,0.0,0.0,-33.68992,-13.80828,-3.49504,8.82,1.61,0.31,4.0
1758079546.62812,1758079546.39701,0.0,0.0,0.0,-32.71589,-14.32395,-4.18259,9.01,1.32,0.32,4.0
1758079546.63057,1758079546.40701,0.0,0.0,0.0,-30.48136,-18.33465,-4.64096,9.01,1.32,0.32,4.0
1758079546.64745,1758079546.41701,0.0,0.0,0.0,-28.30412,-23.31938,-4.18259,8.5,0.96,0.26,4.0
1758079546.64877,1758079546.42701,0.0,0.0,0.0,-25.55392,-28.76248,-3.66693,8.5,0.96,0.26,4.0
1758079546.66368,1758079546.43701,0.0,0.0,0.0,-21.31403,-37.64333,-2.63561,7.96,0.56,-0.06,4.0
1758079546.66765,1758079546.44701,0.0,0.0,0.0,-18.22006,-43.65939,-1.83346,7.49,0.35,-0.12,4.0
1758079546.68292,1758079546.45701,0.0,0.0,0.0,-15.35527,-49.38896,-0.85944,7.49,0.35,-0.12,4.0
1758079546.68891,1758079546.46701,0.0,0.0,0.0,-12.77696,-55.97798,0.22918,6.75,0.35,0.41,4.0
1758079546.70367,1758079546.47701,0.0,0.0,0.0,-10.48513,-64.40046,3.49504,6.75,0.35,0.41,4.0
1758079546.76965,1758079546.48701,0.0,0.0,0.0,-9.85487,-66.06203,5.21392,6.22,0.31,1.37,4.0
1758079546.7716,1758079546.49701,0.0,0.0,0.0,-10.08406,-64.11398,6.47442,6.22,0.31,1.37,4.0
1758079546.77304,1758079546.50701,0.0,0.0,0.0,-10.94349,-60.16057,5.95876,6.88,-0.02,1.75,4.0
1758079546.77427,1758079546.51701,0.0,0.0,0.0,-11.97482,-65.08801,3.26586,7.92,-0.54,2.73,4.0
1758079546.77577,1758079546.52701,0.0,0.0,0.0,-7.84952,-77.29202,2.97938,7.92,-0.54,2.73,4.0
1758079546.77887,1758079546.53701,0.0,0.0,0.0,-5.27121,-80.95895,-0.57296,11.8,-1.04,3.92,4.0
1758079546.77915,1758079546.54701,0.0,0.0,0.0,-1.08862,-68.69764,-4.0107,11.8,-1.04,3.92,4.0
1758079546.78407,1758079546.55701,0.0,0.0,0.0,11.34457,-44.63341,-4.52637,21.49,-2.73,4.13,4.0
1758079546.78896,1758079546.56701,0.0,0.0,0.0,15.92823,-54.77477,-7.62034,21.49,-2.73,4.13,4.0
1758079546.80975,1758079546.57701,0.0,0.0,0.0,21.37133,-57.92604,-9.33921,20.39,-4.52,1.06,4.0
1758079546.81817,1758079546.58701,0.0,0.0,0.0,24.63719,-41.59674,-9.05273,20.39,-4.52,1.06,4.0
1758079546.82437,1758079546.59701,0.0,0.0,0.0,30.13758,-8.70896,0.57296,19.18,-2.66,-2.11,4.0
1758079546.82929,1758079546.60701,0.0,0.0,0.0,30.36677,14.78231,7.44845,16.71,0.43,-0.86,4.0
1758079546.84982,1758079546.61701,0.0,0.0,0.0,28.13223,39.82057,13.75099,16.71,0.43,-0.86,4.0
1758079546.85309,1758079546.62701,0.0,0.0,0.0,23.0902,60.27517,19.13679,14.83,2.19,1.9,4.0
1758079546.86903,1758079546.63701,0.0,0.0,0.0,17.01685,62.5097,21.7151,14.83,2.19,1.9,4.0
1758079546.87152,1758079546.64701,0.0,0.0,0.0,11.11538,50.53488,21.48592,11.35,2.2,1.55,4.0
1758079546.93899,1758079546.65701,0.0,0.0,0.0,5.55769,38.73195,19.25138,11.35,2.2,1.55,4.0
1758079546.93989,1758079546.66701,0.0,0.0,0.0,-3.60963,43.31561,9.5684,10.77,1.39,0.63,4.0
1758079546.94052,1758079546.67701,0.0,0.0,0.0,-6.58902,66.46311,6.99009,12.31,0.59,-0.5,4.0
1758079546.94177,1758079546.68701,0.0,0.0,0.0,-9.74028,78.66711,-0.0573,12.31,0.59,-0.5,4.0
1758079546.94241,1758079546.69701,0.0,0.0,0.0,-11.22997,71.21866,-3.55234,9.27,-0.18,1.2,4.0
1758079546.9439,1758079546.70701,0.0,0.0,0.0,-14.38124,58.4417,-7.10468,9.27,-0.18,1.2,4.0
1758079546.94431,1758079546.71701,0.0,0.0,0.0,-17.18874,53.28508,-9.33921,8.74,-0.66,1.2,4.0
1758079546.94709,1758079546.72701,0.0,0.0,0.0,-19.07949,46.00851,-10.54242,8.74,-0.66,1.2,4.0
1758079546.9628,1758079546.73701,0.0,0.0,0.0,-19.76705,36.03905,-10.02676,8.6,-0.65,0.23,4.0
1758079546.97879,1758079546.74701,0.0,0.0,0.0,-19.59516,23.37668,-7.33386,7.88,-0.69,0.21,4.0
1758079546.98321,1758079546.75701,0.0,0.0,0.0,-19.13679,18.79302,-4.52637,7.88,-0.69,0.21,4.0
1758079546.99209,1758079546.76701,0.0,0.0,0.0,-19.36597,17.30333,-2.86479,7.76,-0.65,0.39,4.0
1758079546.99813,1758079546.77701,0.0,0.0,0.0,-16.272,22.51724,2.29183,7.76,-0.65,0.39,4.0
1758079547.01386,1758079546.78701,0.0,0.0,0.0,-15.29797,46.46688,2.34913,8.6,-0.54,0.7,4.0
1758079547.03062,1758079546.79701,0.0,0.0,0.0,-13.86558,55.57691,0.85944,8.6,-0.54,0.7,4.0
1758079547.03292,1758079546.80701,0.0,0.0,0.0,-10.19865,46.75336,2.63561,7.27,-0.36,1.54,4.0
1758079547.04788,1758079546.81701,0.0,0.0,0.0,-6.41713,26.24147,2.86479,7.27,-0.36,1.54,4.0
1758079547.049,1758079546.82701,0.0,0.0,0.0,-3.09397,13.80828,-0.0573,5.08,-0.48,1.44,4.0
1758079547.0643,1758079546.83701,0.0,0.0,0.0,-0.17189,12.14671,-1.83346,7.2,-0.46,-0.6,4.0
1758079547.06824,1758079546.84701,0.0,0.0,0.0,3.89611,11.97482,-2.97938,7.2,-0.46,-0.6,4.0
1758079547.0841,1758079546.85701,0.0,0.0,0.0,10.65701,13.86558,-5.09932,7.88,-0.87,-1.09,4.0
1758079547.08743,1758079546.86701,0.0,0.0,0.0,15.24068,12.37589,-6.13065,7.88,-0.87,-1.09,4.0
1758079547.1039,1758079546.87701,0.0,0.0,0.0,19.59516,8.65166,-6.99009,7.68,-1.24,-0.41,4.0
1758079547.14356,1758079546.88701,0.0,0.0,0.0,23.60586,4.81285,-8.0787,7.68,-1.24,-0.41,4.0
1758079547.14716,1758079546.89701,0.0,0.0,0.0,28.30412,-2.46372,-9.11003,7.29,-1.39,-0.33,4.0
1758079547.14888,1758079546.90701,0.0,0.0,0.0,30.25217,-7.84952,-9.62569,7.12,-1.25,0.01,4.0
1758079547.1507,1758079546.91701,0.0,0.0,0.0,31.74186,-13.40721,-9.74028,7.12,-1.25,0.01,4.0
1758079547.15125,1758079546.92701,0.0,0.0,0.0,32.71589,-18.56383,-9.74028,7.24,-0.84,0.04,4.0
1758079547.16687,1758079546.93701,0.0,0.0,0.0,32.6013,-25.49662,-8.76626,7.24,-0.84,0.04,4.0
1758079547.16885,1758079546.94701,0.0,0.0,0.0,31.62727,-28.41871,-7.79223,7.75,-0.3,0.23,4.0
1758079547.18388,1758079546.95701,0.0,0.0,0.0,30.76784,-28.70519,-6.70361,7.75,-0.3,0.23,4.0
1758079547.18619,1758079546.96701,0.0,0.0,0.0,28.93437,-26.41335,-5.61499,8.62,0.22,0.0,4.0
1758079547.20295,1758079546.97701,0.0,0.0,0.0,25.89769,-20.85567,-3.38045,9.27,0.55,0.12,4.0
1758079547.21891,1758079546.98701,0.0,0.0,0.0,23.54857,-18.79302,-2.29183,9.27,0.55,0.12,4.0
1758079547.22518,1758079546.99701,0.0,0.0,0.0,20.22541,-19.42327,-1.48969,8.91,0.75,0.45,4.0
1758079547.22707,1758079547.00701,0.0,0.0,0.0,16.38659,-23.0329,-1.03132,8.91,0.75,0.45,4.0
1758079547.24364,1758079547.01701,0.0,0.0,0.0,10.54242,-34.09099,-1.3178,8.05,0.78,0.53,4.0
1758079547.26307,1758079547.02701,0.0,0.0,0.0,6.99009,-43.54479,-1.60428,8.05,0.78,0.53,4.0
1758079547.26431,1758079547.03701,0.0,0.0,0.0,4.23989,-52.65482,-1.48969,7.2,0.46,0.63,4.0
1758079547.29899,1758079547.04701,0.0,0.0,0.0,2.23454,-60.50434,-1.3751,7.2,0.46,0.63,4.0
1758079547.30277,1758079547.05701,0.0,0.0,0.0,2.63561,-68.01009,-1.14592,7.04,-0.02,1.2,4.0
1758079547.30317,1758079547.06701,0.0,0.0,0.0,3.83882,-73.2813,-2.00535,8.05,-0.03,2.49,4.0
1758079547.30438,1758079547.07701,0.0,0.0,0.0,4.87014,-80.04221,-2.34913,8.05,-0.03,2.49,4.0
1758079547.32088,1758079547.08701,0.0,0.0,0.0,3.72423,-73.62508,-2.40642,10.62,0.86,2.93,4.0
1758079547.32444,1758079547.09701,0.0,0.0,0.0,4.23989,-57.41038,-1.20321,10.62,0.86,2.93,4.0
1758079547.33243,1758079547.10701,0.0,0.0,0.0,3.03668,-42.57077,-0.85944,14.41,1.56,2.52,4.0
1758079547.40191,1758079547.11701,0.0,0.0,0.0,0.85944,-25.89769,1.66158,14.41,1.56,2.52,4.0
1758079547.43088,1758079547.12701,0.0,0.0,0.0,-4.46907,14.43854,9.74028,17.76,2.43,4.22,4.0
1758079547.43261,1758079547.13701,0.0,0.0,0.0,-10.8289,21.37133,8.99544,20.68,3.87,1.75,4.0
1758079547.4352,1758079547.14701,0.0,0.0,0.0,-5.15662,-18.33465,18.85031,20.68,3.87,1.75,4.0
1758079547.43656,1758079547.15701,0.0,0.0,0.0,-1.20321,-37.81522,20.34,13.28,3.08,-1.41,4.0
1758079547.44262,1758079547.16701,0.0,0.0,0.0,-2.63561,-26.18417,16.21471,13.28,3.08,-1.41,4.0
1758079547.44433,1758079547.17701,0.0,0.0,0.0,-2.46372,31.16891,10.8289,17.19,0.42,-2.22,4.0
1758079547.44939,1758079547.18701,0.0,0.0,0.0,-0.45837,66.69229,2.6929,17.19,0.42,-2.22,4.0
1758079547.4507,1758079547.19701,0.0,0.0,0.0,3.26586,76.83365,-4.29718,15.65,-1.01,0.54,4.0
1758079547.45139,1758079547.20701,0.0,0.0,0.0,7.67763,70.13004,-11.80293,11.5,-0.72,4.03,4.0
1758079547.45332,1758079547.21701,0.0,0.0,0.0,11.17268,71.44785,-13.40721,11.5,-0.72,4.03,4.0
1758079547.45457,1758079547.22701,0.0,0.0,0.0,14.66772,75.00018,-12.43318,13.07,0.32,-0.97,4.0
1758079547.47106,1758079547.23701,0.0,0.0,0.0,17.13144,71.56243,-7.44845,13.07,0.32,-0.97,4.0
1758079547.47202,1758079547.24701,0.0,0.0,0.0,18.73572,54.66018,-3.38045,11.54,1.09,0.01,4.0
1758079547.48903,1758079547.25701,0.0,0.0,0.0,19.48057,40.10705,1.20321,11.54,1.09,0.01,4.0
1758079547.49022,1758079547.26701,0.0,0.0,0.0,16.84496,27.96034,3.60963,9.94,1.23,0.22,4.0
1758079547.50611,1758079547.27701,0.0,0.0,0.0,13.00614,31.97105,7.73493,9.94,1.23,0.22,4.0
1758079547.50703,1758079547.28701,0.0,0.0,0.0,10.54242,46.75336,10.48513,10.07,1.35,0.49,4.0
1758079547.52234,1758079547.29701,0.0,0.0,0.0,7.39116,55.51962,10.31324,9.88,1.47,0.65,4.0
1758079547.53886,1758079547.30701,0.0,0.0,0.0,3.20856,53.11319,8.88085,9.88,1.47,0.65,4.0
1758079547.54007,1758079547.31701,0.0,0.0,0.0,-2.29183,35.3515,5.55769,6.9,1.7,1.59,4.0
1758079547.55667,1758079547.32701,0.0,0.0,0.0,-5.32851,24.23611,3.49504,6.9,1.7,1.59,4.0
1758079547.55785,1758079547.33701,0.0,0.0,0.0,-8.47978,16.73037,1.3751,6.28,1.87,0.41,4.0
1758079547.57331,1758079547.34701,0.0,0.0,0.0,-12.204,12.2613,0.22918,6.28,1.87,0.41,4.0
1758079547.58908,1758079547.35701,0.0,0.0,0.0,-17.99088,5.21392,-1.20321,6.38,1.98,0.17,4.0
1758079547.59107,1758079547.36701,0.0,0.0,0.0,-22.00158,0.68755,-1.94806,6.03,2.11,0.45,4.0
1758079547.60711,1758079547.37701,0.0,0.0,0.0,-26.41335,-4.69825,-2.40642,6.03,2.11,0.45,4.0
1758079547.60941,1758079547.38701,0.0,0.0,0.0,-30.59595,-9.74028,-2.29183,6.08,2.27,0.16,4.0
1758079547.62437,1758079547.39701,0.0,0.0,0.0,-36.21093,-17.76169,-1.71887,6.08,2.27,0.16,4.0
1758079547.62689,1758079547.40701,0.0,0.0,0.0,-39.53409,-21.6578,-1.14592,6.41,2.2,-0.25,4.0
1758079547.6431,1758079547.41701,0.0,0.0,0.0,-42.28429,-24.12152,-0.45837,6.41,2.2,-0.25,4.0
1758079547.65909,1758079547.42701,0.0,0.0,0.0,-44.57612,-25.43933,-0.11459,7.06,1.84,-0.28,4.0
1758079547.66426,1758079547.43701,0.0,0.0,0.0,-46.86795,-25.72581,0.40107,7.59,1.36,-0.02,4.0
1758079547.67906,1758079547.44701,0.0,0.0,0.0,-47.49821,-23.54857,0.17189,7.59,1.36,-0.02,4.0
1758079547.68427,1758079547.45701,0.0,0.0,0.0,-47.38361,-22.63183,-0.40107,8.01,0.86,0.28,4.0
1758079547.69935,1758079547.46701,0.0,0.0,0.0,-45.03448,-23.0902,-1.77617,8.01,0.86,0.28,4.0
1758079547.70352,1758079547.47701,0.0,0.0,0.0,-41.99781,-22.28806,-2.92208,8.21,0.41,0.12,4.0
1758079547.71937,1758079547.48701,0.0,0.0,0.0,-37.87251,-20.45459,-3.66693,8.21,0.41,0.12,4.0
1758079547.72353,1758079547.49701,0.0,0.0,0.0,-32.71589,-19.42327,-4.35448,8.82,-0.02,-0.23,4.0
1758079547.73908,1758079547.50701,0.0,0.0,0.0,-23.60586,-21.08485,-5.50039,8.82,-0.02,-0.23,4.0
1758079547.74429,1758079547.51701,0.0,0.0,0.0,-17.24603,-23.72045,-5.95876,8.87,-0.28,-0.58,4.0
1758079547.78664,1758079547.52701,0.0,0.0,0.0,-11.00079,-26.75713,-5.95876,8.92,-0.29,-0.54,4.0
1758079547.7886,1758079547.53701,0.0,0.0,0.0,-5.50039,-30.25217,-5.32851,8.92,-0.29,-0.54,4.0
1758079547.7901,1758079547.54701,0.0,0.0,0.0,0.51566,-36.61201,-3.89611,8.75,0.08,-0.09,4.0
1758079547.79209,1758079547.55701,0.0,0.0,0.0,3.32316,-41.59674,-2.6929,8.75,0.08,-0.09,4.0
1758079547.79349,1758079547.56701,0.0,0.0,0.0,4.64096,-48.75871,-1.08862,7.85,0.67,1.13,4.0
1758079547.80945,1758079547.57701,0.0,0.0,0.0,4.35448,-56.83742,1.3178,7.85,0.67,1.13,4.0
1758079547.83359,1758079547.58701,0.0,0.0,0.0,0.57296,-61.70755,4.29718,6.77,1.12,2.28,4.0
1758079547.83426,1758079547.59701,0.0,0.0,0.0,-3.38045,-63.13995,5.21392,6.58,0.99,2.68,4.0
1758079547.8355,1758079547.60701,0.0,0.0,0.0,-6.47442,-68.29657,5.84417,6.58,0.99,2.68,4.0
1758079547.83615,1758079547.61701,0.0,0.0,0.0,-8.76626,-85.37071,6.53172,5.97,-0.08,3.16,4.0
1758079547.8534,1758079547.62701,0.0,0.0,0.0,-11.86023,-91.38677,4.58366,5.97,-0.08,3.16,4.0
1758079547.86944,1758079547.63701,0.0,0.0,0.0,-10.71431,-77.12012,0.0573,10.87,-1.37,3.32,4.0
1758079547.87437,1758079547.64701,0.0,0.0,0.0,-7.16197,-54.3164,-3.49504,10.87,-1.37,3.32,4.0
1758079547.88915,1758079547.65701,0.0,0.0,0.0,-2.23454,-30.02299,-6.47442,19.45,-2.81,3.03,4.0
1758079547.89226,1758079547.66701,0.0,0.0,0.0,6.35983,-32.37212,-10.02676,19.52,-3.62,1.17,4.0
1758079547.90714,1758079547.67701,0.0,0.0,0.0,11.57375,-37.87251,-8.0787,19.52,-3.62,1.17,4.0
1758079547.90838,1758079547.68701,0.0,0.0,0.0,11.97482,-27.38738,-11.45916,17.47,-1.93,-2.23,4.0
1758079547.9235,1758079547.69701,0.0,0.0,0.0,14.78231,2.6929,-4.52637,17.47,-1.93,-2.23,4.0
1758079547.97462,1758079547.70701,0.0,0.0,0.0,13.5791,32.6013,0.22918,17.3,0.62,-2.52,4.0
1758079547.97553,1758079547.71701,0.0,0.0,0.0,12.204,60.79083,5.4431,17.3,0.62,-2.52,4.0
1758079547.9766,1758079547.72701,0.0,0.0,0.0,9.28192,85.54259,9.68299,15.81,1.87,0.61,4.0
1758079547.97896,1758079547.73701,0.0,0.0,0.0,2.11994,113.61753,12.89155,13.07,1.87,0.53,4.0
1758079547.98678,1758079547.74701,0.0,0.0,0.0,-1.77617,111.09652,13.5218,13.07,1.83,0.53,4.0
1758079547.98799,1758079547.75701,0.0,0.0,0.0,-6.18794,93.44942,13.5791,9.46,1.24,0.18,4.0
1758079547.98862,1758079547.76701,0.0,0.0,0.0,-10.54242,74.59911,12.204,9.46,1.24,0.18,4.0
1758079548.00626,1758079547.77701,0.0,0.0,0.0,-16.55848,81.70379,4.87014,10.16,0.4,-0.53,4.0
1758079548.00804,1758079547.78701,0.0,0.0,0.0,-18.44924,92.3035,0.45837,10.16,0.4,-0.53,4.0
1758079548.02348,1758079547.79701,0.0,0.0,0.0,-20.11082,92.07432,-5.27121,11.44,-0.24,-0.26,4.0
1758079548.03925,1758079547.80701,0.0,0.0,0.0,-20.97026,81.76109,-9.74028,11.44,-0.24,-0.26,4.0
1758079548.04289,1758079547.81701,0.0,0.0,0.0,-20.68378,55.97798,-16.04282,8.8,-0.67,1.91,4.0
1758079548.05829,1758079547.82701,0.0,0.0,0.0,-19.59516,40.45082,-17.93358,8.44,-0.71,0.56,4.0
1758079548.06103,1758079547.83701,0.0,0.0,0.0,-18.16276,33.40344,-17.58981,8.44,-0.71,0.56,4.0
1758079548.07924,1758079547.84701,0.0,0.0,0.0,-15.64175,27.84575,-15.24068,9.07,-0.79,0.16,4.0
1758079548.08043,1758079547.85701,0.0,0.0,0.0,-11.80293,50.82136,-16.55848,9.07,-0.79,0.16,4.0
1758079548.09527,1758079547.86701,0.0,0.0,0.0,-13.5791,60.50434,-21.14215,9.56,-0.84,0.39,4.0
1758079548.09886,1758079547.87701,0.0,0.0,0.0,-8.65166,53.74345,-18.10547,9.56,-0.84,0.39,4.0
1758079548.11526,1758079547.88701,0.0,0.0,0.0,-3.55234,30.88243,-14.61043,6.21,-0.57,2.55,4.0
1758079548.11887,1758079547.89701,0.0,0.0,0.0,0.68755,16.61578,-11.80293,5.57,-0.31,0.51,4.0
1758079548.14871,1758079547.90701,0.0,0.0,0.0,4.52637,4.92744,-9.33921,5.57,-0.31,0.51,4.0
1758079548.15197,1758079547.91701,0.0,0.0,0.0,7.96411,-3.60963,-7.16197,6.13,-0.7,-0.68,4.0
1758079548.15259,1758079547.92701,0.0,0.0,0.0,14.15206,-14.49583,-3.89611,6.13,-0.7,-0.68,4.0
1758079548.16857,1758079547.93701,0.0,0.0,0.0,18.16276,-22.57454,-2.46372,6.28,-1.4,-0.88,4.0
1758079548.16952,1758079547.94701,0.0,0.0,0.0,22.05888,-30.53865,-1.08862,6.28,-1.4,-0.88,4.0
1758079548.18548,1758079547.95701,0.0,0.0,0.0,26.06958,-37.12767,-0.34377,6.66,-1.83,-0.51,4.0
1758079548.18922,1758079547.96701,0.0,0.0,0.0,31.39809,-43.4875,0.11459,7.7,-1.72,-0.24,4.0
1758079548.20458,1758079547.97701,0.0,0.0,0.0,34.43476,-38.15899,0.57296,7.7,-1.72,-0.24,4.0
1758079548.20818,1758079547.98701,0.0,0.0,0.0,39.01843,-33.86181,2.00535,9.46,-1.36,0.46,4.0
1758079548.22335,1758079547.99701,0.0,0.0,0.0,41.99781,-31.97105,2.7502,9.46,-1.36,0.46,4.0
1758079548.24038,1758079548.00701,0.0,0.0,0.0,44.23235,-33.68992,2.86479,9.18,-0.64,1.07,4.0
1758079548.24448,1758079548.01701,0.0,0.0,0.0,43.65939,-37.18496,2.63561,9.18,-0.64,1.07,4.0
1758079548.24857,1758079548.02701,0.0,0.0,0.0,42.22699,-40.45082,2.40642,8.5,0.09,0.16,4.0
1758079548.27176,1758079548.03701,0.0,0.0,0.0,40.04975,-41.94051,2.11994,8.5,0.09,0.16,4.0
1758079548.28819,1758079548.04701,0.0,0.0,0.0,35.63798,-40.96649,1.48969,8.51,0.57,-0.69,4.0
1758079548.28923,1758079548.05701,0.0,0.0,0.0,32.25753,-39.24761,0.68755,8.46,0.73,-0.64,4.0
1758079548.29092,1758079548.06701,0.0,0.0,0.0,28.64789,-37.81522,0.0,8.46,0.73,-0.64,4.0
1758079548.3075,1758079548.07701,0.0,0.0,0.0,23.60586,-37.52874,-0.80214,8.05,0.57,0.21,4.0
1758079548.30871,1758079548.08701,0.0,0.0,0.0,20.74107,-42.68536,-0.40107,8.05,0.57,0.21,4.0
1758079548.32368,1758079548.09701,0.0,0.0,0.0,18.10547,-53.05589,0.22918,7.17,0.33,1.41,4.0
1758079548.34029,1758079548.10701,0.0,0.0,0.0,15.87093,-67.37984,1.3178,7.17,0.33,1.41,4.0
1758079548.34451,1758079548.11701,0.0,0.0,0.0,13.5791,-84.11021,3.49504,7.06,0.42,2.81,4.0
1758079548.36288,1758079548.12701,0.0,0.0,0.0,12.37589,-82.67782,5.84417,10.51,1.09,3.67,4.0
1758079548.50765,1758079548.13701,0.0,0.0,0.0,10.19865,-71.04677,8.42248,10.51,1.09,3.67,4.0
1758079548.50803,1758079548.14701,0.0,0.0,0.0,7.44845,-56.03527,10.65701,14.44,2.16,3.47,4.0
1758079548.50918,1758079548.15701,0.0,0.0,0.0,3.26586,-35.63798,10.08406,14.44,2.16,3.47,4.0
1758079548.51144,1758079548.16701,0.0,0.0,0.0,2.00535,-19.07949,7.04738,12.64,2.45,1.33,4.0
1758079548.51217,1758079548.17701,0.0,0.0,0.0,0.17189,4.92744,3.20856,12.64,2.45,1.33,4.0
1758079548.51326,1758079548.18701,0.0,0.0,0.0,-0.22918,21.31403,-1.60428,14.35,2.85,2.18,4.0
1758079548.51403,1758079548.19701,0.0,0.0,0.0,3.60963,-35.92446,2.11994,13.43,3.55,1.4,4.0
1758079548.51716,1758079548.20701,0.0,0.0,0.0,10.71431,-48.9879,11.28727,13.43,3.55,1.4,4.0
1758079548.51828,1758079548.21701,0.0,0.0,0.0,12.83425,-22.91831,12.89155,20.83,1.52,-2.3,4.0
1758079548.51938,1758079548.22701,0.0,0.0,0.0,10.8289,24.23611,11.11538,20.83,1.52,-2.3,4.0
1758079548.52067,1758079548.23701,0.0,0.0,0.0,11.11538,73.73967,7.10468,19.33,-0.52,-2.93,4.0
1758079548.52363,1758079548.24701,0.0,0.0,0.0,11.45916,86.40204,2.34913,19.33,-0.52,-2.93,4.0
1758079548.52749,1758079548.25701,0.0,0.0,0.0,11.80293,92.4754,-1.83346,12.58,-0.96,1.79,4.0
1758079548.52946,1758079548.26701,0.0,0.0,0.0,13.40721,92.99106,-3.66693,12.58,-0.96,1.79,4.0
1758079548.53205,1758079548.27701,0.0,0.0,0.0,16.04282,86.91771,-3.09397,12.16,-0.13,1.1,4.0
1758079548.53295,1758079548.28701,0.0,0.0,0.0,17.36062,76.94823,-2.34913,12.08,0.97,0.01,4.0
1758079548.53364,1758079548.29701,0.0,0.0,0.0,18.44924,66.80688,-0.74485,12.08,0.97,0.01,4.0
1758079548.53601,1758079548.30701,0.0,0.0,0.0,20.16812,49.56085,2.63561,11.27,1.61,-0.43,4.0
1758079548.53769,1758079548.31701,0.0,0.0,0.0,20.74107,39.24761,4.64096,11.27,1.61,-0.43,4.0
1758079548.5889,1758079548.32701,0.0,0.0,0.0,18.62113,36.15364,4.69825,10.08,1.76,0.09,4.0
1758079548.58928,1758079548.33701,0.0,0.0,0.0,18.16276,56.20716,9.28192,10.08,1.76,0.09,4.0
1758079548.59523,1758079548.34701,0.0,0.0,0.0,14.83961,73.51049,9.39651,11.66,1.85,0.38,4.0
1758079548.5972,1758079548.35701,0.0,0.0,0.0,12.54778,65.77556,8.70896,8.48,1.62,2.11,4.0
1758079548.60931,1758079548.36701,0.0,0.0,0.0,9.74028,49.79003,7.10468,8.48,1.62,2.11,4.0
1758079548.60967,1758079548.37701,0.0,0.0,0.0,7.96411,35.69527,5.78687,6.64,1.47,1.11,4.0
1758079548.61086,1758079548.38701,0.0,0.0,0.0,5.21392,23.49127,3.20856,6.64,1.47,1.11,4.0
1758079548.62679,1758079548.39701,0.0,0.0,0.0,3.20856,20.3973,1.60428,7.16,1.31,-0.24,4.0
1758079548.62852,1758079548.40701,0.0,0.0,0.0,1.20321,17.18874,0.45837,7.16,1.31,-0.24,4.0
1758079548.64378,1758079548.41701,0.0,0.0,0.0,-1.14592,12.37589,0.11459,6.76,1.38,0.17,4.0
1758079548.64717,1758079548.42701,0.0,0.0,0.0,-4.92744,3.55234,0.45837,6.04,1.61,0.65,4.0
1758079548.66336,1758079548.43701,0.0,0.0,0.0,-7.67763,-2.06265,1.14592,6.04,1.61,0.65,4.0
1758079548.67954,1758079548.44701,0.0,0.0,0.0,-10.48513,-6.8182,2.11994,6.13,1.77,0.38,4.0
1758079548.68125,1758079548.45701,0.0,0.0,0.0,-13.5218,-10.8289,2.86479,6.13,1.77,0.38,4.0
1758079548.72346,1758079548.46701,0.0,0.0,0.0,-17.53251,-16.10011,3.95341,6.45,1.78,0.08,4.0
1758079548.72778,1758079548.47701,0.0,0.0,0.0,-19.82434,-17.99088,4.64096,6.45,1.78,0.08,4.0
1758079548.72888,1758079548.48701,0.0,0.0,0.0,-21.7724,-19.19409,4.92744,6.9,1.55,-0.16,4.0
1758079548.73054,1758079548.49701,0.0,0.0,0.0,-23.54857,-20.68378,5.21392,6.9,1.55,-0.16,4.0
1758079548.7311,1758079548.50701,0.0,0.0,0.0,-23.89234,-23.72045,5.21392,7.19,1.18,-0.18,4.0
1758079548.74787,1758079548.51701,0.0,0.0,0.0,-23.31938,-25.7831,5.4431,7.48,0.77,-0.16,4.0
1758079548.74904,1758079548.52701,0.0,0.0,0.0,-22.28806,-27.50197,5.32851,7.48,0.77,-0.16,4.0
1758079548.76355,1758079548.53701,0.0,0.0,0.0,-19.25138,-28.76248,4.92744,7.87,0.42,-0.15,4.0
1758079548.76886,1758079548.54701,0.0,0.0,0.0,-16.67307,-29.67921,4.46907,7.87,0.42,-0.15,4.0
1758079548.80814,1758079548.55701,0.0,0.0,0.0,-13.40721,-30.30947,3.95341,8.29,0.18,-0.21,4.0
1758079548.80928,1758079548.56701,0.0,0.0,0.0,-9.62569,-31.39809,3.60963,8.29,0.18,-0.21,4.0
1758079548.81156,1758079548.57701,0.0,0.0,0.0,-3.60963,-32.88778,3.26586,8.53,0.04,-0.19,4.0
1758079548.81275,1758079548.58701,0.0,0.0,0.0,0.45837,-34.72124,3.09397,8.46,0.06,-0.25,4.0
1758079548.82789,1758079548.59701,0.0,0.0,0.0,4.46907,-36.89849,3.03668,8.46,0.06,-0.25,4.0
1758079548.82879,1758079548.60701,0.0,0.0,0.0,7.96411,-39.64868,3.32316,8.11,0.22,-0.19,4.0
1758079548.84389,1758079548.61701,0.0,0.0,0.0,11.97482,-44.63341,4.18259,8.11,0.22,-0.19,4.0
1758079548.84725,1758079548.62701,0.0,0.0,0.0,13.75099,-45.43555,4.98473,7.8,0.51,-0.07,4.0
1758079548.88213,1758079548.63701,0.0,0.0,0.0,13.80828,-45.09178,6.41713,7.8,0.51,-0.07,4.0
1758079548.88807,1758079548.64701,0.0,0.0,0.0,12.83425,-46.06581,8.02141,7.78,0.97,0.46,4.0
1758079548.88906,1758079548.65701,0.0,0.0,0.0,8.70896,-49.96192,10.71431,7.14,1.18,1.89,4.0
1758079548.89078,1758079548.66701,0.0,0.0,0.0,5.27121,-62.96807,10.8289,7.14,1.18,1.89,4.0
1758079548.90722,1758079548.67701,0.0,0.0,0.0,1.83346,-89.89708,11.57375,5.37,0.64,3.38,4.0
1758079549.01186,1758079548.68701,0.0,0.0,0.0,1.60428,-109.60683,11.17268,5.37,0.64,3.38,4.0
1758079549.01221,1758079548.69701,0.0,0.0,0.0,3.26586,-89.6679,6.53172,10.59,-0.58,4.42,4.0
1758079549.0142,1758079548.70701,0.0,0.0,0.0,4.58366,-66.34852,0.17189,10.59,-0.58,4.42,4.0
1758079549.01559,1758079548.71701,0.0,0.0,0.0,8.02141,-41.76862,-5.21392,18.54,-2.09,3.01,4.0
1758079549.01851,1758079548.72701,0.0,0.0,0.0,19.19409,-24.80907,-8.88085,18.54,-2.09,3.01,4.0
1758079549.01911,1758079548.73701,0.0,0.0,0.0,21.7151,-29.10626,-13.06344,18.74,-3.22,2.22,4.0
1758079549.02064,1758079548.74701,0.0,0.0,0.0,26.35606,-24.5226,-12.2613,16.87,-2.59,-1.46,4.0
1758079549.02283,1758079548.75701,0.0,0.0,0.0,27.1582,-6.87549,-13.12073,16.87,-2.59,-1.46,4.0
1758079549.02334,1758079548.76701,0.0,0.0,0.0,26.01229,20.11082,-7.04738,20.05,-0.33,-2.77,4.0
1758079549.02443,1758079548.77701,0.0,0.0,0.0,25.8404,40.33623,1.3178,20.05,-0.33,-2.77,4.0
1758079549.02681,1758079548.78701,0.0,0.0,0.0,23.26209,60.61894,7.10468,18.3,1.32,-0.41,4.0
1758079549.02792,1758079548.79701,0.0,0.0,0.0,20.34,81.5319,12.14671,18.3,1.32,-0.41,4.0
1758079549.02868,1758079548.80701,0.0,0.0,0.0,16.84496,94.70992,15.87093,15.59,1.37,0.19,4.0
1758079549.04705,1758079548.81701,0.0,0.0,0.0,13.98017,83.42266,16.10011,11.16,0.94,0.84,4.0
1758079549.04907,1758079548.82701,0.0,0.0,0.0,11.63104,68.12468,14.49583,11.16,0.94,0.84,4.0
1758079549.06581,1758079548.83701,0.0,0.0,0.0,9.33921,73.45319,10.37054,10.54,0.48,0.33,4.0
1758079549.0686,1758079548.84701,0.0,0.0,0.0,7.33386,92.64729,5.32851,10.54,0.48,0.33,4.0
1758079549.08395,1758079548.85701,0.0,0.0,0.0,5.78687,93.39213,1.43239,11.28,-0.01,0.25,4.0
1758079549.16203,1758079548.86701,0.0,0.0,0.0,4.1253,86.34474,-3.09397,11.28,-0.01,0.25,4.0
1758079549.16918,1758079548.87701,0.0,0.0,0.0,2.06265,72.30728,-7.04738,8.4,-0.46,1.63,4.0
1758079549.1696,1758079548.88701,0.0,0.0,0.0,-0.0573,42.91454,-12.54778,6.96,-0.65,0.98,4.0
1758079549.17865,1758079548.89701,0.0,0.0,0.0,0.34377,23.83505,-14.32395,6.96,-0.65,0.98,4.0
1758079549.18008,1758079548.90701,0.0,0.0,0.0,1.3751,11.22997,-14.61043,7.35,-0.84,0.0,4.0
1758079549.19568,1758079548.91701,0.0,0.0,0.0,2.97938,10.25595,-12.204,7.35,-0.84,0.0,4.0
1758079549.20133,1758079548.92701,0.0,0.0,0.0,4.1253,31.28349,-12.89155,9.22,-0.87,0.17,4.0
1758079549.22468,1758079548.93701,0.0,0.0,0.0,4.64096,44.17505,-13.98017,9.22,-0.87,0.17,4.0
1758079549.22926,1758079548.94701,0.0,0.0,0.0,5.55769,47.15443,-13.06344,9.12,-0.47,1.23,4.0
1758079549.23093,1758079548.95701,0.0,0.0,0.0,10.19865,28.13223,-9.96947,9.12,-0.47,1.23,4.0
1758079549.23832,1758079548.96701,0.0,0.0,0.0,13.75099,11.91752,-7.10468,5.92,-0.2,2.6,4.0
1758079549.24083,1758079548.97701,0.0,0.0,0.0,17.13144,2.11994,-5.4431,5.58,-0.13,0.95,4.0
1758079549.24916,1758079548.98701,0.0,0.0,0.0,20.62648,-1.66158,-3.72423,5.58,-0.13,0.95,4.0
1758079549.24963,1758079548.99701,0.0,0.0,0.0,27.04361,-6.07335,-1.71887,6.36,-0.44,-0.23,4.0
1758079549.25076,1758079549.00701,0.0,0.0,0.0,31.74186,-8.30789,-0.51566,6.36,-0.44,-0.23,4.0
1758079549.2525,1758079549.01701,0.0,0.0,0.0,36.32552,-10.71431,-0.0573,6.41,-0.92,-0.84,4.0
1758079549.25425,1758079549.02701,0.0,0.0,0.0,40.16434,-13.46451,0.0,6.41,-0.92,-0.84,4.0
1758079549.25489,1758079549.03701,0.0,0.0,0.0,45.43555,-18.50654,-0.80214,6.62,-1.36,-1.05,4.0
1758079549.27122,1758079549.04701,0.0,0.0,0.0,48.41494,-21.6578,-1.60428,7.06,-1.63,-0.95,4.0
1758079549.28689,1758079549.05701,0.0,0.0,0.0,50.76406,-24.35071,-2.34913,7.06,-1.63,-0.95,4.0
1758079549.28879,1758079549.06701,0.0,0.0,0.0,52.36834,-27.67386,-2.97938,7.72,-1.57,-0.34,4.0
1758079549.30399,1758079549.07701,0.0,0.0,0.0,54.431,-29.50733,-3.72423,7.72,-1.57,-0.34,4.0
1758079549.30498,1758079549.08701,0.0,0.0,0.0,54.94666,-29.22085,-3.55234,8.52,-1.14,0.23,4.0
1758079549.32263,1758079549.09701,0.0,0.0,0.0,54.77477,-28.07493,-2.7502,8.52,-1.14,0.23,4.0
1758079549.33881,1758079549.10701,0.0,0.0,0.0,53.80074,-28.24682,-0.74485,9.07,-0.5,0.6,4.0
1758079549.3416,1758079549.11701,0.0,0.0,0.0,51.22243,-30.82513,0.80214,8.59,0.13,0.38,4.0
1758079549.36359,1758079549.12701,0.0,0.0,0.0,48.41494,-32.77319,2.6929,8.59,0.13,0.38,4.0
1758079549.41822,1758079549.13701,0.0,0.0,0.0,45.20637,-35.40879,4.1253,8.03,0.6,-0.07,4.0
1758079549.42045,1758079549.14701,0.0,0.0,0.0,39.70598,-39.53409,5.78687,8.03,0.6,-0.07,4.0
1758079549.68097,1758079549.15701,0.0,0.0,0.0,35.86716,-42.28429,6.70361,7.59,0.88,-0.44,4.0
1758079549.6991,1758079549.16701,0.0,0.0,0.0,31.97105,-45.49285,7.50575,7.59,0.88,-0.44,4.0
1758079549.70861,1758079549.17701,0.0,0.0,0.0,28.24682,-48.30034,8.42248,7.36,0.94,0.22,4.0
1758079549.70907,1758079549.18701,0.0,0.0,0.0,23.31938,-50.1911,10.37054,8.38,0.94,2.05,4.0
1758079549.70969,1758079549.19701,0.0,0.0,0.0,21.6578,-56.20716,12.204,8.38,1.08,2.05,4.0
1758079549.71076,1758079549.20701,0.0,0.0,0.0,19.88164,-70.53111,12.14671,9.68,1.79,3.62,4.0
1758079549.71153,1758079549.21701,0.0,0.0,0.0,16.67307,-78.38063,11.80293,9.68,1.79,3.62,4.0
1758079549.71425,1758079549.22701,0.0,0.0,0.0,11.34457,-67.60902,11.11538,13.56,3.06,3.23,4.0
1758079549.7184,1758079549.23701,0.0,0.0,0.0,10.31324,-52.08187,10.02676,13.56,3.06,3.23,4.0
1758079549.72335,1758079549.24701,0.0,0.0,0.0,8.93814,-36.84119,7.16197,15.03,3.08,1.21,4.0
1758079549.72403,1758079549.25701,0.0,0.0,0.0,6.47442,-23.0902,2.92208,15.03,3.08,1.21,4.0
1758079549.72841,1758079549.26701,0.0,0.0,0.0,2.63561,-11.63104,-2.7502,14.12,2.37,0.69,4.0
1758079549.72899,1758079549.27701,0.0,0.0,0.0,1.3178,-14.61043,-4.52637,15.37,2.25,0.94,4.0
1758079549.73127,1758079549.28701,0.0,0.0,0.0,1.77617,-17.93358,-6.18794,15.37,2.25,0.94,4.0
1758079549.73164,1758079549.29701,0.0,0.0,0.0,5.32851,-21.08485,-3.60963,17.88,1.74,-1.15,4.0
1758079549.73365,1758079549.30701,0.0,0.0,0.0,8.65166,9.85487,-6.58902,17.88,1.74,-1.15,4.0
1758079549.7343,1758079549.31701,0.0,0.0,0.0,8.99544,44.46153,-8.42248,19.21,0.67,-2.27,4.0
1758079549.73711,1758079549.32701,0.0,0.0,0.0,11.57375,73.10942,-9.68299,19.21,0.67,-2.27,4.0
1758079549.7389,1758079549.33701,0.0,0.0,0.0,15.64175,97.40282,-11.74564,15.31,0.23,0.11,4.0
1758079549.73926,1758079549.34701,0.0,0.0,0.0,18.10547,100.09573,-11.80293,11.8,0.5,1.57,4.0
1758079549.74445,1758079549.35701,0.0,0.0,0.0,21.31403,91.50137,-9.33921,11.8,0.5,1.57,4.0
1758079549.74882,1758079549.36701,0.0,0.0,0.0,23.54857,77.92226,-7.39116,10.66,0.83,0.55,4.0
1758079549.75028,1758079549.37701,0.0,0.0,0.0,28.24682,60.79083,-2.40642,10.66,0.83,0.55,4.0
1758079549.7516,1758079549.38701,0.0,0.0,0.0,31.45539,50.76406,1.3751,11.12,0.81,-0.91,4.0
1758079549.75254,1758079549.39701,0.0,0.0,0.0,33.11696,38.78925,3.38045,11.12,0.81,-0.91,4.0
1758079549.75295,1758079549.40701,0.0,0.0,0.0,34.89313,41.59674,7.21927,10.63,0.62,-0.42,4.0
1758079549.75402,1758079549.41701,0.0,0.0,0.0,32.71589,76.43258,8.0787,12.87,0.69,0.2,4.0
1758079549.75471,1758079549.42701,0.0,0.0,0.0,31.45539,79.75573,10.02676,12.87,0.69,0.2,4.0
1758079549.75695,1758079549.43701,0.0,0.0,0.0,29.67921,68.58305,9.74028,8.33,0.67,2.32,4.0
1758079549.75892,1758079549.44701,0.0,0.0,0.0,28.93437,52.82671,9.85487,8.33,0.67,2.32,4.0
1758079549.76431,1758079549.45701,0.0,0.0,0.0,27.1582,37.47144,9.4538,6.79,0.86,0.71,4.0
1758079549.76743,1758079549.46701,0.0,0.0,0.0,26.01229,31.97105,7.96411,6.79,0.86,0.71,4.0
1758079549.76864,1758079549.47701,0.0,0.0,0.0,24.5226,27.50197,6.24524,7.08,1.04,-0.58,4.0
1758079549.76903,1758079549.48701,0.0,0.0,0.0,22.57454,22.11617,4.81285,7.08,1.04,-0.58,4.0
1758079549.76975,1758079549.49701,0.0,0.0,0.0,19.53786,12.08941,3.72423,6.39,1.37,-0.16,4.0
1758079549.77164,1758079549.50701,0.0,0.0,0.0,17.24603,5.95876,4.52637,6.23,1.72,0.16,4.0
1758079549.77279,1758079549.51701,0.0,0.0,0.0,14.72501,0.57296,5.50039,6.23,1.72,0.16,4.0
1758079549.77514,1758079549.52701,0.0,0.0,0.0,10.59972,-4.35448,7.44845,6.73,1.96,0.27,4.0
1758079549.7791,1758079549.53701,0.0,0.0,0.0,7.84952,-12.83425,9.33921,6.73,1.96,0.27,4.0
1758079549.78447,1758079549.54701,0.0,0.0,0.0,5.15662,-16.90226,11.11538,7.28,2.01,0.36,4.0
1758079549.78492,1758079549.55701,0.0,0.0,0.0,2.63561,-21.14215,12.60507,7.28,2.01,0.36,4.0
1758079549.78605,1758079549.56701,0.0,0.0,0.0,-0.80214,-26.06958,14.38124,7.61,1.85,0.32,4.0
1758079549.80265,1758079549.57701,0.0,0.0,0.0,-2.86479,-27.44468,14.66772,7.68,1.57,0.21,4.0
1758079549.81908,1758079549.58701,0.0,0.0,0.0,-4.87014,-28.07493,14.38124,7.68,1.57,0.21,4.0
1758079549.82101,1758079549.59701,0.0,0.0,0.0,-6.47442,-28.41871,13.17803,7.48,1.22,-0.07,4.0
1758079549.83932,1758079549.60701,0.0,0.0,0.0,-8.42248,-28.01764,11.00079,7.48,1.22,-0.07,4.0
1758079549.84268,1758079549.61701,0.0,0.0,0.0,-9.28192,-27.10091,9.05273,7.45,0.92,-0.39,4.0
1758079549.8583,1758079549.62701,0.0,0.0,0.0,-9.33921,-26.35606,7.10468,7.45,0.92,-0.39,4.0
1758079549.86038,1758079549.63701,0.0,0.0,0.0,-8.76626,-25.7831,5.32851,7.57,0.73,-0.63,4.0
1758079549.87539,1758079549.64701,0.0,0.0,0.0,-5.95876,-24.86637,3.32316,7.94,0.64,-0.75,4.0
1758079549.87624,1758079549.65701,0.0,0.0,0.0,-3.32316,-24.4653,2.40642,7.94,0.64,-0.75,4.0
1758079549.89112,1758079549.66701,0.0,0.0,0.0,0.0,-23.72045,2.11994,8.54,0.56,-0.64,4.0
1758079549.90747,1758079549.67701,0.0,0.0,0.0,3.72423,-22.63183,2.00535,8.54,0.56,-0.64,4.0
1758079549.90822,1758079549.68701,0.0,0.0,0.0,10.31324,-20.51189,2.00535,9.02,0.46,-0.57,4.0
1758079549.92346,1758079549.69701,0.0,0.0,0.0,14.78231,-19.42327,2.6929,9.02,0.46,-0.57,4.0
1758079549.93911,1758079549.70701,0.0,0.0,0.0,19.36597,-19.82434,2.97938,9.14,0.27,-0.58,4.0
1758079549.97445,1758079549.71701,0.0,0.0,0.0,23.60586,-22.00158,3.55234,9.14,0.27,-0.58,4.0
1758079549.97667,1758079549.72701,0.0,0.0,0.0,29.33544,-27.1582,3.95341,8.63,0.13,-0.88,4.0
1758079549.97838,1758079549.73701,0.0,0.0,0.0,32.37212,-30.88243,4.35448,8.1,0.14,-0.9,4.0
1758079549.97902,1758079549.74701,0.0,0.0,0.0,34.43476,-33.9764,5.09932,8.1,0.14,-0.9,4.0
1758079549.98107,1758079549.75701,0.0,0.0,0.0,35.06502,-39.24761,6.13065,7.98,0.41,0.04,4.0
1758079549.99632,1758079549.76701,0.0,0.0,0.0,33.86181,-44.46153,6.13065,7.98,0.41,0.04,4.0
1758079549.99898,1758079549.77701,0.0,0.0,0.0,31.2262,-48.30034,5.4431,8.43,0.63,2.48,4.0
1758079550.01486,1758079549.78701,0.0,0.0,0.0,27.61657,-46.86795,3.83882,8.43,0.63,2.48,4.0
1758079550.02041,1758079549.79701,0.0,0.0,0.0,25.7831,-67.03606,-0.17189,10.88,0.54,5.46,4.0
1758079550.03826,1758079549.80701,0.0,0.0,0.0,27.73116,-83.88103,-3.66693,9.71,-0.49,4.68,4.0
1758079550.04151,1758079549.81701,0.0,0.0,0.0,30.88243,-95.1683,-0.51566,9.71,-0.49,4.68,4.0
1758079550.06207,1758079549.82701,0.0,0.0,0.0,30.59595,-74.02615,-2.23454,13.33,-1.39,0.89,4.0
1758079550.07127,1758079549.83701,0.0,0.0,0.0,33.68992,-24.12152,-0.17189,13.33,-1.39,0.89,4.0
1758079550.07183,1758079549.84701,0.0,0.0,0.0,37.87251,1.71887,2.06265,17.66,-1.81,-0.75,4.0
1758079550.08811,1758079549.85701,0.0,0.0,0.0,41.48215,-0.68755,0.85944,17.66,-1.81,-0.75,4.0
1758079550.08931,1758079549.86701,0.0,0.0,0.0,41.42485,-9.05273,-2.34913,15.8,-1.8,-1.07,4.0
1758079550.10418,1758079549.87701,0.0,0.0,0.0,38.50277,0.34377,-8.42248,16.31,-0.38,-2.63,4.0
1758079550.10692,1758079549.88701,0.0,0.0,0.0,38.1017,18.22006,-7.33386,16.31,-0.38,-2.63,4.0
1758079550.12309,1758079549.89701,0.0,0.0,0.0,37.75792,40.27893,-4.69825,15.92,1.26,-1.83,4.0
1758079550.13916,1758079549.90701,0.0,0.0,0.0,35.86716,62.62429,-1.03132,15.92,1.26,-1.83,4.0
1758079550.14111,1758079549.91701,0.0,0.0,0.0,30.59595,83.47996,3.83882,13.79,1.89,-0.17,4.0
1758079550.15621,1758079549.92701,0.0,0.0,0.0,25.43933,85.48531,5.27121,13.79,1.89,-0.17,4.0
1758079550.15823,1758079549.93701,0.0,0.0,0.0,19.70975,78.7817,4.18259,11.05,1.54,0.46,4.0
1758079550.17345,1758079549.94701,0.0,0.0,0.0,11.91752,67.66632,1.08862,11.05,1.54,0.46,4.0
1758079550.18924,1758079549.95701,0.0,0.0,0.0,7.62034,44.00316,-2.11994,9.8,0.76,0.34,4.0
1758079550.1912,1758079549.96701,0.0,0.0,0.0,5.09932,40.04975,-6.53172,10.14,-0.29,-0.16,4.0
1758079550.20645,1758079549.97701,0.0,0.0,0.0,4.81285,46.63877,-7.10468,10.14,-0.29,-0.16,4.0
1758079550.20738,1758079549.98701,0.0,0.0,0.0,6.87549,48.01387,-10.31324,11.76,-1.27,0.37,4.0
1758079550.22252,1758079549.99701,0.0,0.0,0.0,8.42248,43.4875,-11.97482,11.76,-1.27,0.37,4.0
1758079550.23847,1758079550.00701,0.0,0.0,0.0,10.8862,33.63263,-11.74564,9.41,-1.29,1.53,4.0
1758079550.2394,1758079550.01701,0.0,0.0,0.0,13.00614,28.41871,-9.96947,9.41,-1.29,1.53,4.0
1758079550.27821,1758079550.02701,0.0,0.0,0.0,15.24068,32.37212,-7.62034,8.37,-0.78,0.47,4.0
1758079550.28114,1758079550.03701,0.0,0.0,0.0,16.61578,29.62192,-5.32851,7.65,-0.39,0.46,4.0
1758079550.28316,1758079550.04701,0.0,0.0,0.0,18.33465,22.68913,-2.11994,7.65,-0.39,0.46,4.0
1758079550.28594,1758079550.05701,0.0,0.0,0.0,20.11082,17.81899,0.34377,6.68,-0.24,0.74,4.0
1758079550.28774,1758079550.06701,0.0,0.0,0.0,23.37668,11.45916,3.49504,6.68,-0.24,0.74,4.0
1758079550.3035,1758079550.07701,0.0,0.0,0.0,25.7831,7.50575,4.87014,7.13,-0.35,0.39,4.0
1758079550.32008,1758079550.08701,0.0,0.0,0.0,28.64789,3.89611,5.78687,7.13,-0.35,0.39,4.0
1758079550.32441,1758079550.09701,0.0,0.0,0.0,31.79916,1.08862,6.24524,7.6,-0.79,0.3,4.0
1758079550.32687,1758079550.10701,0.0,0.0,0.0,36.55471,-1.20321,6.7609,8.37,-1.25,0.32,4.0
1758079550.34241,1758079550.11701,0.0,0.0,0.0,39.24761,-1.94806,6.41713,8.37,-1.25,0.32,4.0
1758079550.36033,1758079550.12701,0.0,0.0,0.0,41.59674,-5.09932,5.78687,8.58,-1.51,0.2,4.0
1758079550.36455,1758079550.13701,0.0,0.0,0.0,43.20102,-9.11003,5.15662,8.58,-1.51,0.2,4.0
1758079550.38003,1758079550.14701,0.0,0.0,0.0,44.748,-14.49583,4.64096,8.55,-1.29,0.18,4.0
1758079550.41346,1758079550.15701,0.0,0.0,0.0,45.09178,-16.84496,4.29718,8.55,-1.29,0.18,4.0
1758079550.41579,1758079550.16701,0.0,0.0,0.0,45.14908,-18.16276,4.18259,8.68,-0.78,-0.22,4.0
1758079550.41842,1758079550.17701,0.0,0.0,0.0,44.46153,-18.56383,4.1253,8.68,-0.78,-0.22,4.0
1758079550.41899,1758079550.18701,0.0,0.0,0.0,43.65939,-17.6471,4.52637,8.75,-0.18,-0.63,4.0
1758079550.42134,1758079550.19701,0.0,0.0,0.0,42.62806,-16.272,4.81285,8.78,0.26,-0.95,4.0
1758079550.43657,1758079550.20701,0.0,0.0,0.0,41.42485,-14.83961,5.09932,8.78,0.26,-0.95,4.0
1758079550.43829,1758079550.21701,0.0,0.0,0.0,39.19032,-14.15206,5.50039,8.57,0.38,-1.06,4.0
1758079550.4543,1758079550.22701,0.0,0.0,0.0,37.18496,-15.06879,5.50039,8.57,0.38,-1.06,4.0
1758079550.4586,1758079550.23701,0.0,0.0,0.0,35.2942,-17.13144,5.4431,8.13,0.22,-0.93,4.0
1758079550.47593,1758079550.24701,0.0,0.0,0.0,33.74722,-20.3973,5.32851,8.13,0.22,-0.93,4.0
1758079550.56919,1758079550.25701,0.0,0.0,0.0,32.20023,-25.7831,5.15662,7.57,-0.2,-0.77,4.0
1758079550.5706,1758079550.26701,0.0,0.0,0.0,31.39809,-30.30947,5.72958,7.41,-0.43,0.39,4.0
1758079550.57183,1758079550.27701,0.0,0.0,0.0,32.20023,-36.21093,6.58902,7.41,-0.43,0.39,4.0
1758079550.57245,1758079550.28701,0.0,0.0,0.0,33.63263,-42.22699,8.30789,8.37,0.0,1.75,4.0
1758079550.5745,1758079550.29701,0.0,0.0,0.0,34.26288,-40.16434,11.34457,8.37,0.0,1.75,4.0
1758079550.57847,1758079550.30701,0.0,0.0,0.0,31.62727,-24.57989,12.54778,12.78,1.71,2.8,4.0
1758079550.57915,1758079550.31701,0.0,0.0,0.0,28.87707,-12.77696,13.75099,12.78,1.71,2.8,4.0
1758079550.58512,1758079550.32701,0.0,0.0,0.0,27.2155,-10.8862,13.17803,15.63,3.51,2.96,4.0
1758079550.5867,1758079550.33701,0.0,0.0,0.0,25.26744,-9.4538,10.71431,14.24,3.92,1.62,4.0
1758079550.58808,1758079550.34701,0.0,0.0,0.0,22.97561,2.57831,9.11003,14.24,3.92,1.62,4.0
1758079550.58925,1758079550.35701,0.0,0.0,0.0,19.07949,21.08485,7.39116,16.4,3.33,0.83,4.0
1758079550.59185,1758079550.36701,0.0,0.0,0.0,11.00079,46.63877,3.55234,16.4,3.33,0.83,4.0
