timeStamp,timeStampAlign,roll,pitch,yaw,gyro_x,gyro_y,gyro_z,acc_x,acc_y,acc_z,flag_num
1758089444.55145,1758089434.42154,0.0,0.0,0.0,0.40107,-18.9649,4.18259,8.07,1.46,1.11,4.0
1758089444.56796,1758089434.43154,0.0,0.0,0.0,-1.48969,-19.13679,4.87014,8.07,1.46,1.11,4.0
1758089444.56912,1758089434.44154,0.0,0.0,0.0,-3.38045,-17.53251,5.61499,8.27,1.34,1.21,4.0
1758089444.58356,1758089434.45154,0.0,0.0,0.0,-6.13065,-14.72501,6.7609,8.41,1.19,1.38,4.0
1758089444.58876,1758089434.46154,0.0,0.0,0.0,-7.73493,-13.5791,6.99009,8.41,1.19,1.38,4.0
1758089444.60367,1758089434.47154,0.0,0.0,0.0,-9.33921,-12.83425,7.16197,8.42,1.1,1.36,4.0
1758089444.60923,1758089434.48154,0.0,0.0,0.0,-10.8862,-12.43318,7.50575,8.42,1.1,1.36,4.0
1758089444.62366,1758089434.49154,0.0,0.0,0.0,-13.23533,-11.97482,8.59437,8.51,1.07,1.12,4.0
1758089444.6289,1758089434.50154,0.0,0.0,0.0,-14.9542,-12.14671,9.85487,8.51,1.07,1.12,4.0
1758089444.64371,1758089434.51154,0.0,0.0,0.0,-16.61578,-13.06344,11.11538,8.61,1.01,0.97,4.0
1758089444.64919,1758089434.52154,0.0,0.0,0.0,-18.56383,-15.06879,13.69369,8.61,1.01,0.97,4.0
1758089444.66368,1758089434.53154,0.0,0.0,0.0,-21.7724,-18.50654,15.58445,8.48,0.9,0.9,4.0
1758089444.66491,1758089434.54154,0.0,0.0,0.0,-24.00693,-20.45459,17.01685,8.53,0.83,0.75,4.0
1758089444.68356,1758089434.55154,0.0,0.0,0.0,-26.24147,-22.97561,18.62113,8.53,0.83,0.75,4.0
1758089444.68932,1758089434.56154,0.0,0.0,0.0,-29.67921,-26.98631,20.45459,8.4,0.82,0.81,4.0
1758089444.70642,1758089434.57154,0.0,0.0,0.0,-31.16891,-29.33544,20.97026,8.4,0.82,0.81,4.0
1758089444.7117,1758089434.58154,0.0,0.0,0.0,-32.20023,-32.6013,21.42862,8.33,0.82,0.9,4.0
1758089444.72751,1758089434.59154,0.0,0.0,0.0,-32.54401,-35.00772,21.7151,8.33,0.82,0.9,4.0
1758089444.72874,1758089434.60154,0.0,0.0,0.0,-32.25753,-34.14828,21.7724,8.29,0.79,1.01,4.0
1758089444.74398,1758089434.61154,0.0,0.0,0.0,-31.62727,-33.9764,22.11617,8.36,0.89,1.17,4.0
1758089444.7521,1758089434.62154,0.0,0.0,0.0,-30.65324,-33.11696,22.74642,8.36,0.89,1.17,4.0
1758089444.75426,1758089434.63154,0.0,0.0,0.0,-29.50733,-30.65324,22.91831,8.25,0.89,1.18,4.0
1758089444.77208,1758089434.64154,0.0,0.0,0.0,-27.61657,-30.02299,23.49127,8.25,0.89,1.18,4.0
1758089444.78774,1758089434.65154,0.0,0.0,0.0,-26.52795,-29.96569,23.37668,7.71,0.58,0.85,4.0
1758089444.78906,1758089434.66154,0.0,0.0,0.0,-25.55392,-30.13758,23.31938,7.71,0.58,0.85,4.0
1758089444.80405,1758089434.67154,0.0,0.0,0.0,-24.86637,-30.25217,22.97561,7.17,0.28,0.7,4.0
1758089444.80888,1758089434.68154,0.0,0.0,0.0,-23.26209,-30.13758,23.0902,6.65,-0.01,0.55,4.0
1758089444.82367,1758089434.69154,0.0,0.0,0.0,-21.42862,-30.88243,23.26209,6.65,-0.01,0.55,4.0
1758089444.82893,1758089434.70154,0.0,0.0,0.0,-19.53786,-30.76784,22.63183,6.17,-0.29,0.54,4.0
1758089444.84402,1758089434.71154,0.0,0.0,0.0,-17.18874,-30.59595,21.42862,6.17,-0.29,0.54,4.0
1758089444.849,1758089434.72154,0.0,0.0,0.0,-13.12073,-30.65324,17.36062,6.55,-0.73,1.19,4.0
1758089444.86405,1758089434.73154,0.0,0.0,0.0,-9.4538,-29.39274,14.03747,6.55,-0.73,1.19,4.0
1758089444.86901,1758089434.74154,0.0,0.0,0.0,-3.49504,-35.00772,11.17268,8.07,-1.57,2.42,4.0
1758089444.8839,1758089434.75154,0.0,0.0,0.0,6.47442,-56.89471,7.62034,8.07,-1.57,2.42,4.0
1758089444.88823,1758089434.76154,0.0,0.0,0.0,14.09476,-65.77556,5.09932,9.52,-2.77,2.86,4.0
1758089444.90404,1758089434.77154,0.0,0.0,0.0,22.68913,-64.45775,4.87014,14.29,-4.41,4.0,4.0
1758089444.90661,1758089434.78154,0.0,0.0,0.0,28.59059,-55.06125,1.14592,14.29,-4.41,4.0,4.0
1758089444.92257,1758089434.79154,0.0,0.0,0.0,37.75792,-50.47758,-6.99009,20.91,-6.55,4.18,4.0
1758089444.92374,1758089434.80154,0.0,0.0,0.0,41.36755,-41.02378,-16.10011,20.91,-6.55,4.18,4.0
1758089444.94376,1758089434.81154,0.0,0.0,0.0,46.46688,-14.20935,-17.76169,23.49,-6.88,0.17,4.0
1758089444.94899,1758089434.82154,0.0,0.0,0.0,52.9986,7.50575,-14.43854,23.49,-6.88,0.17,4.0
1758089444.96704,1758089434.83154,0.0,0.0,0.0,62.79618,34.26288,-4.64096,18.51,-2.63,-1.78,4.0
1758089444.96798,1758089434.84154,0.0,0.0,0.0,66.11933,41.76862,2.86479,13.74,-0.58,1.24,4.0
1758089444.98285,1758089434.85154,0.0,0.0,0.0,64.91612,43.37291,7.67763,13.74,-0.58,1.24,4.0
1758089444.98483,1758089434.86154,0.0,0.0,0.0,61.87944,44.46153,7.96411,13.01,0.43,0.97,4.0
1758089445.00349,1758089434.87154,0.0,0.0,0.0,50.53488,58.55629,2.23454,13.01,0.43,0.97,4.0
1758089445.00482,1758089434.88154,0.0,0.0,0.0,41.48215,61.36378,-3.60963,14.26,0.02,1.62,4.0
1758089445.02148,1758089434.89154,0.0,0.0,0.0,34.0337,60.73353,-9.33921,14.26,0.02,1.62,4.0
1758089445.03797,1758089434.90154,0.0,0.0,0.0,28.41871,67.37984,-13.17803,12.48,-0.14,0.38,4.0
1758089445.03865,1758089434.91154,0.0,0.0,0.0,22.28806,71.16136,-14.61043,11.33,-0.51,1.66,4.0
1758089445.05383,1758089434.92154,0.0,0.0,0.0,19.82434,64.11398,-14.61043,11.33,-0.51,1.66,4.0
1758089445.05497,1758089434.93154,0.0,0.0,0.0,17.24603,52.48294,-14.49583,8.71,-0.87,1.35,4.0
1758089445.07182,1758089434.94154,0.0,0.0,0.0,15.35527,40.85189,-12.43318,8.71,-0.87,1.35,4.0
1758089445.08845,1758089434.95154,0.0,0.0,0.0,14.43854,26.75713,-10.8862,7.98,-1.02,1.01,4.0
1758089445.11409,1758089434.96154,0.0,0.0,0.0,15.12609,17.99088,-8.36518,7.98,-1.02,1.01,4.0
1758089445.11479,1758089434.97154,0.0,0.0,0.0,15.64175,10.94349,-6.35983,7.34,-1.17,0.29,4.0
1758089445.11561,1758089434.98154,0.0,0.0,0.0,14.15206,20.68378,-4.1253,7.34,-1.17,0.29,4.0
1758089445.12088,1758089434.99154,0.0,0.0,0.0,14.32395,32.6013,-4.52637,8.16,-1.18,1.3,4.0
1758089445.13591,1758089435.00154,0.0,0.0,0.0,11.57375,39.53409,-6.24524,8.33,-1.01,2.19,4.0
1758089445.14026,1758089435.01154,0.0,0.0,0.0,10.31324,33.46074,-5.09932,8.33,-1.01,2.19,4.0
1758089445.15587,1758089435.02154,0.0,0.0,0.0,9.22462,17.36062,-1.94806,6.94,-0.79,3.43,4.0
1758089445.16027,1758089435.03154,0.0,0.0,0.0,8.36518,10.02676,0.11459,6.94,-0.79,3.43,4.0
1758089445.17589,1758089435.04154,0.0,0.0,0.0,7.21927,5.27121,1.20321,7.81,-0.71,0.93,4.0
1758089445.17814,1758089435.05154,0.0,0.0,0.0,6.13065,0.97403,2.23454,7.81,-0.71,0.93,4.0
1758089445.19289,1758089435.06154,0.0,0.0,0.0,5.95876,-4.1253,2.6929,7.85,-0.69,0.41,4.0
1758089445.19413,1758089435.07154,0.0,0.0,0.0,6.41713,-9.74028,3.66693,7.52,-0.88,0.85,4.0
1758089445.2089,1758089435.08154,0.0,0.0,0.0,7.33386,-15.46986,4.23989,7.52,-0.88,0.85,4.0
1758089445.22491,1758089435.09154,0.0,0.0,0.0,7.67763,-19.70975,4.64096,7.54,-1.04,0.89,4.0
1758089445.2261,1758089435.10154,0.0,0.0,0.0,8.30789,-23.31938,5.09932,7.54,-1.04,0.89,4.0
1758089445.24169,1758089435.11154,0.0,0.0,0.0,8.59437,-25.38203,4.98473,7.75,-1.05,0.95,4.0
1758089445.24532,1758089435.12154,0.0,0.0,0.0,8.93814,-26.98631,4.81285,7.75,-1.05,0.95,4.0
1758089445.26119,1758089435.13154,0.0,0.0,0.0,8.93814,-27.67386,4.23989,7.72,-0.91,1.11,4.0
1758089445.2646,1758089435.14154,0.0,0.0,0.0,9.05273,-26.75713,2.34913,8.18,-0.57,1.13,4.0
1758089445.28022,1758089435.15154,0.0,0.0,0.0,8.65166,-23.20479,0.51566,8.18,-0.57,1.13,4.0
1758089445.29621,1758089435.16154,0.0,0.0,0.0,7.67763,-17.01685,-2.00535,9.28,-0.18,0.94,4.0
1758089445.29794,1758089435.17154,0.0,0.0,0.0,5.27121,-7.33386,-6.24524,9.28,-0.18,0.94,4.0
1758089445.31373,1758089435.18154,0.0,0.0,0.0,3.03668,-2.29183,-9.11003,10.21,0.23,1.07,4.0
1758089445.31569,1758089435.19154,0.0,0.0,0.0,0.68755,1.3178,-11.86023,10.21,0.23,1.07,4.0
1758089445.33173,1758089435.20154,0.0,0.0,0.0,-1.20321,0.0,-14.43854,10.76,0.31,0.95,4.0
1758089445.34823,1758089435.21154,0.0,0.0,0.0,-3.49504,-9.11003,-18.85031,10.76,0.31,0.95,4.0
1758089445.34861,1758089435.22154,0.0,0.0,0.0,-3.60963,-13.40721,-20.79837,10.55,0.02,0.53,4.0
1758089445.364,1758089435.23154,0.0,0.0,0.0,-2.6929,-11.57375,-22.86102,11.11,-0.54,-0.04,4.0
1758089445.36916,1758089435.24154,0.0,0.0,0.0,-2.00535,-8.42248,-25.15285,11.11,-0.54,-0.04,4.0
1758089445.38401,1758089435.25154,0.0,0.0,0.0,-0.17189,-5.27121,-27.10091,10.59,-1.0,0.35,4.0
1758089445.38911,1758089435.26154,0.0,0.0,0.0,0.85944,-5.21392,-27.33009,10.59,-1.0,0.35,4.0
1758089445.40413,1758089435.27154,0.0,0.0,0.0,1.94806,-5.95876,-27.2155,9.89,-1.02,0.65,4.0
1758089445.40914,1758089435.28154,0.0,0.0,0.0,1.83346,-6.24524,-26.98631,9.89,-1.02,0.65,4.0
1758089445.42403,1758089435.29154,0.0,0.0,0.0,1.60428,-8.0787,-25.72581,10.12,-0.99,0.68,4.0
1758089445.42601,1758089435.30154,0.0,0.0,0.0,0.68755,-9.05273,-24.98096,10.33,-0.94,0.58,4.0
1758089445.441,1758089435.31154,0.0,0.0,0.0,-0.22918,-9.85487,-24.35071,10.33,-0.94,0.58,4.0
1758089445.44377,1758089435.32154,0.0,0.0,0.0,-1.94806,-10.08406,-23.83505,10.33,-0.85,0.64,4.0
1758089445.46083,1758089435.33154,0.0,0.0,0.0,-5.27121,-8.0787,-23.0329,10.33,-0.85,0.64,4.0
1758089445.46435,1758089435.34154,0.0,0.0,0.0,-7.33386,-4.69825,-22.51724,10.06,-0.68,0.8,4.0
1758089445.48129,1758089435.35154,0.0,0.0,0.0,-9.22462,-0.68755,-21.42862,10.06,-0.68,0.8,4.0
1758089445.48402,1758089435.36154,0.0,0.0,0.0,-11.51645,3.03668,-20.22541,9.6,-0.64,1.08,4.0
1758089445.50434,1758089435.37154,0.0,0.0,0.0,-12.77696,5.90147,-19.76705,8.76,-0.71,1.15,4.0
1758089445.50635,1758089435.38154,0.0,0.0,0.0,-14.03747,6.41713,-19.13679,8.76,-0.71,1.15,4.0
1758089445.52281,1758089435.39154,0.0,0.0,0.0,-14.66772,6.13065,-18.10547,8.13,-0.81,0.99,4.0
1758089445.52408,1758089435.40154,0.0,0.0,0.0,-14.72501,4.18259,-16.61578,8.13,-0.81,0.99,4.0
1758089445.53932,1758089435.41154,0.0,0.0,0.0,-14.72501,1.83346,-15.87093,7.78,-0.96,0.62,4.0
1758089445.55618,1758089435.42154,0.0,0.0,0.0,-14.49583,-0.22918,-14.49583,7.78,-0.96,0.62,4.0
1758089445.55883,1758089435.43154,0.0,0.0,0.0,-14.38124,-2.7502,-12.89155,7.85,-1.04,0.38,4.0
1758089445.57397,1758089435.44154,0.0,0.0,0.0,-14.32395,-9.05273,-9.85487,7.72,-1.04,0.38,4.0
1758089445.57677,1758089435.45154,0.0,0.0,0.0,-14.72501,-13.75099,-7.50575,7.72,-1.03,0.38,4.0
1758089445.59206,1758089435.46154,0.0,0.0,0.0,-15.29797,-19.42327,-4.69825,7.4,-1.04,0.47,4.0
1758089445.59324,1758089435.47154,0.0,0.0,0.0,-15.69904,-25.7831,-2.06265,7.4,-1.04,0.47,4.0
1758089445.6086,1758089435.48154,0.0,0.0,0.0,-16.04282,-38.73195,2.29183,7.19,-0.96,0.89,4.0
1758089445.62423,1758089435.49154,0.0,0.0,0.0,-16.04282,-46.00851,5.84417,7.19,-0.96,0.89,4.0
1758089445.64288,1758089435.50154,0.0,0.0,0.0,-16.272,-49.84733,8.47978,8.14,-0.6,1.71,4.0
1758089445.64312,1758089435.51154,0.0,0.0,0.0,-16.84496,-47.44091,10.08406,8.14,-0.6,1.71,4.0
1758089445.64649,1758089435.52154,0.0,0.0,0.0,-19.25138,-40.68,11.17268,10.8,0.07,2.51,4.0
1758089445.66335,1758089435.53154,0.0,0.0,0.0,-22.57454,-32.77319,10.19865,12.98,1.31,3.16,4.0
1758089445.66454,1758089435.54154,0.0,0.0,0.0,-26.52795,-19.70975,7.79223,12.98,1.31,3.16,4.0
1758089445.67907,1758089435.55154,0.0,0.0,0.0,-32.08564,-6.07335,4.18259,14.47,2.64,1.93,4.0
1758089445.68342,1758089435.56154,0.0,0.0,0.0,-42.34158,8.76626,-1.20321,14.47,2.64,1.93,4.0
1758089445.70302,1758089435.57154,0.0,0.0,0.0,-49.67545,16.272,-4.52637,14.26,3.55,1.15,4.0
1758089445.70432,1758089435.58154,0.0,0.0,0.0,-55.51962,20.79837,-7.10468,14.26,3.55,1.15,4.0
1758089445.71939,1758089435.59154,0.0,0.0,0.0,-61.93674,20.51189,-10.08406,13.93,3.56,1.53,4.0
1758089445.73614,1758089435.60154,0.0,0.0,0.0,-63.02536,15.29797,-11.51645,13.71,2.92,2.34,4.0
1758089445.7381,1758089435.61154,0.0,0.0,0.0,-64.28587,8.42248,-13.34992,13.71,2.92,2.34,4.0
1758089445.75331,1758089435.62154,0.0,0.0,0.0,-63.31184,0.40107,-13.5791,13.69,1.94,1.96,4.0
1758089445.7543,1758089435.63154,0.0,0.0,0.0,-61.87944,-3.26586,-13.86558,13.69,1.94,1.96,4.0
1758089445.76912,1758089435.64154,0.0,0.0,0.0,-61.1346,1.14592,-14.61043,13.55,0.69,1.17,4.0
1758089445.7727,1758089435.65154,0.0,0.0,0.0,-58.90006,6.58902,-15.0115,13.55,0.69,1.17,4.0
1758089445.78842,1758089435.66154,0.0,0.0,0.0,-55.40502,8.65166,-14.78231,12.07,-0.06,1.28,4.0
1758089445.80403,1758089435.67154,0.0,0.0,0.0,-48.52953,6.7609,-14.15206,10.37,-0.42,1.46,4.0
1758089445.80536,1758089435.68154,0.0,0.0,0.0,-43.37291,5.4431,-13.5218,10.37,-0.42,1.46,4.0
1758089445.84891,1758089435.69154,0.0,0.0,0.0,-38.21629,4.92744,-12.49048,10.18,-0.32,1.07,4.0
1758089445.854,1758089435.70154,0.0,0.0,0.0,-33.40344,4.58366,-11.28727,10.18,-0.32,1.07,4.0
1758089445.8555,1758089435.71154,0.0,0.0,0.0,-27.38738,4.69825,-9.85487,10.06,0.07,1.16,4.0
1758089445.86411,1758089435.72154,0.0,0.0,0.0,-24.23611,5.21392,-9.33921,10.06,0.07,1.16,4.0
1758089445.86526,1758089435.73154,0.0,0.0,0.0,-21.42862,5.90147,-9.5684,9.99,0.43,1.71,4.0
1758089445.86653,1758089435.74154,0.0,0.0,0.0,-18.90761,6.35983,-10.19865,9.99,0.43,1.71,4.0
1758089445.8824,1758089435.75154,0.0,0.0,0.0,-16.21471,7.96411,-10.94349,10.16,0.5,2.11,4.0
1758089445.88341,1758089435.76154,0.0,0.0,0.0,-14.43854,8.59437,-11.11538,10.17,0.46,1.81,4.0
1758089445.89847,1758089435.77154,0.0,0.0,0.0,-13.34992,5.4431,-11.86023,10.17,0.46,1.81,4.0
1758089445.9142,1758089435.78154,0.0,0.0,0.0,-20.34,0.74485,-12.71966,9.65,0.38,1.57,4.0
1758089445.91646,1758089435.79154,0.0,0.0,0.0,-20.22541,-6.24524,-11.11538,9.65,0.38,1.57,4.0
1758089445.93119,1758089435.80154,0.0,0.0,0.0,-17.6471,-3.95341,-9.62569,9.34,0.77,0.48,4.0
1758089445.93559,1758089435.81154,0.0,0.0,0.0,-14.78231,2.57831,-9.11003,9.34,0.77,0.48,4.0
1758089445.95119,1758089435.82154,0.0,0.0,0.0,-9.74028,11.22997,-8.93814,9.94,0.91,2.32,4.0
1758089445.95399,1758089435.83154,0.0,0.0,0.0,-6.47442,14.66772,-8.65166,9.56,0.47,1.59,4.0
1758089445.97266,1758089435.84154,0.0,0.0,0.0,-3.60963,15.98552,-8.25059,9.56,0.47,1.59,4.0
1758089445.97391,1758089435.85154,0.0,0.0,0.0,-0.85944,16.272,-7.21927,9.61,-0.04,1.34,4.0
1758089445.98935,1758089435.86154,0.0,0.0,0.0,3.09397,15.75634,-4.81285,9.61,-0.04,1.34,4.0
1758089446.00702,1758089435.87154,0.0,0.0,0.0,5.50039,16.10011,-3.20856,9.79,-0.29,1.37,4.0
1758089446.0114,1758089435.88154,0.0,0.0,0.0,7.79223,15.24068,-1.83346,9.79,-0.29,1.37,4.0
1758089446.02624,1758089435.89154,0.0,0.0,0.0,9.91217,13.69369,-0.40107,9.68,-0.28,1.27,4.0
1758089446.02747,1758089435.90154,0.0,0.0,0.0,12.14671,11.22997,1.03132,9.5,-0.11,1.03,4.0
1758089446.04296,1758089435.91154,0.0,0.0,0.0,13.34992,9.91217,1.71887,9.5,-0.11,1.03,4.0
1758089446.04544,1758089435.92154,0.0,0.0,0.0,14.09476,8.47978,2.29183,9.35,0.1,0.74,4.0
1758089446.06318,1758089435.93154,0.0,0.0,0.0,14.72501,7.21927,2.97938,9.35,0.1,0.74,4.0
1758089446.06476,1758089435.94154,0.0,0.0,0.0,14.9542,9.33921,3.09397,9.17,0.33,0.56,4.0
1758089446.08315,1758089435.95154,0.0,0.0,0.0,15.69904,17.36062,5.32851,9.17,0.33,0.56,4.0
1758089446.08442,1758089435.96154,0.0,0.0,0.0,16.3293,20.97026,6.70361,9.66,0.47,0.53,4.0
1758089446.09922,1758089435.97154,0.0,0.0,0.0,17.01685,18.50654,9.33921,9.66,0.47,0.53,4.0
1758089446.11655,1758089435.98154,0.0,0.0,0.0,17.53251,14.66772,11.11538,8.85,0.57,0.95,4.0
1758089446.11822,1758089435.99154,0.0,0.0,0.0,16.90226,14.61043,12.2613,9.46,0.68,0.28,4.0
1758089446.13349,1758089436.00154,0.0,0.0,0.0,15.75634,14.20935,13.00614,9.46,0.68,0.28,4.0
1758089446.13451,1758089436.01154,0.0,0.0,0.0,13.40721,11.34457,12.83425,9.41,0.96,0.18,4.0
1758089446.15218,1758089436.02154,0.0,0.0,0.0,11.74564,9.05273,12.77696,9.41,0.96,0.18,4.0
1758089446.15788,1758089436.03154,0.0,0.0,0.0,10.25595,5.55769,12.77696,9.11,1.25,0.32,4.0
1758089446.19561,1758089436.04154,0.0,0.0,0.0,9.05273,1.48969,12.71966,9.11,1.25,0.32,4.0
1758089446.19916,1758089436.05154,0.0,0.0,0.0,7.39116,-3.66693,13.17803,8.67,1.34,0.32,4.0
1758089446.20211,1758089436.06154,0.0,0.0,0.0,6.35983,-6.70361,13.23533,8.38,1.28,0.3,4.0
1758089446.20514,1758089436.07154,0.0,0.0,0.0,5.27121,-10.37054,13.40721,8.38,1.28,0.3,4.0
1758089446.20876,1758089436.08154,0.0,0.0,0.0,4.18259,-13.46451,13.5791,8.01,1.11,0.26,4.0
1758089446.22632,1758089436.09154,0.0,0.0,0.0,2.11994,-16.73037,13.98017,8.01,1.11,0.26,4.0
1758089446.22779,1758089436.10154,0.0,0.0,0.0,0.80214,-18.27736,14.20935,7.96,0.9,0.34,4.0
1758089446.24338,1758089436.11154,0.0,0.0,0.0,-0.68755,-19.59516,14.38124,7.96,0.9,0.34,4.0
1758089446.24453,1758089436.12154,0.0,0.0,0.0,-2.11994,-20.85567,14.66772,7.9,0.82,0.38,4.0
1758089446.25935,1758089436.13154,0.0,0.0,0.0,-4.52637,-21.37133,15.06879,8.0,0.84,0.41,4.0
1758089446.27539,1758089436.14154,0.0,0.0,0.0,-6.24524,-21.14215,15.35527,8.0,0.84,0.41,4.0
1758089446.27814,1758089436.15154,0.0,0.0,0.0,-7.73493,-20.16812,15.46986,8.12,0.89,0.37,4.0
1758089446.29338,1758089436.16154,0.0,0.0,0.0,-9.22462,-19.19409,15.92823,8.12,0.89,0.37,4.0
1758089446.29564,1758089436.17154,0.0,0.0,0.0,-10.8289,-18.50654,16.55848,8.23,1.02,0.4,4.0
1758089446.31395,1758089436.18154,0.0,0.0,0.0,-11.63104,-17.30333,17.18874,8.23,1.02,0.4,4.0
1758089446.31473,1758089436.19154,0.0,0.0,0.0,-12.49048,-15.12609,17.53251,8.68,1.15,0.3,4.0
1758089446.33112,1758089436.20154,0.0,0.0,0.0,-13.46451,-13.40721,17.58981,8.68,1.15,0.3,4.0
1758089446.33234,1758089436.21154,0.0,0.0,0.0,-13.69369,-11.86023,17.76169,9.48,1.24,0.27,4.0
1758089446.3486,1758089436.22154,0.0,0.0,0.0,-13.40721,-11.51645,17.76169,10.32,1.16,0.05,4.0
1758089446.36441,1758089436.23154,0.0,0.0,0.0,-12.60507,-12.43318,17.6471,10.32,1.16,0.05,4.0
1758089446.3656,1758089436.24154,0.0,0.0,0.0,-10.71431,-16.55848,17.13144,10.51,0.79,0.0,4.0
1758089446.38048,1758089436.25154,0.0,0.0,0.0,-9.28192,-20.05352,16.67307,10.51,0.79,0.0,4.0
1758089446.39635,1758089436.26154,0.0,0.0,0.0,-7.73493,-22.34536,16.21471,9.71,0.36,0.08,4.0
1758089446.39915,1758089436.27154,0.0,0.0,0.0,-6.53172,-23.54857,15.24068,9.71,0.36,0.08,4.0
1758089446.41435,1758089436.28154,0.0,0.0,0.0,-5.09932,-26.52795,13.86558,8.52,0.26,0.5,4.0
1758089446.41632,1758089436.29154,0.0,0.0,0.0,-4.29718,-27.78845,13.46451,7.41,0.5,0.5,4.0
1758089446.43132,1758089436.30154,0.0,0.0,0.0,-3.72423,-28.07493,13.23533,7.41,0.5,0.5,4.0
1758089446.43253,1758089436.31154,0.0,0.0,0.0,-3.26586,-28.24682,13.5218,7.18,0.74,0.19,4.0
1758089446.44832,1758089436.32154,0.0,0.0,0.0,-2.57831,-27.96034,14.43854,7.18,0.74,0.19,4.0
1758089446.46466,1758089436.33154,0.0,0.0,0.0,-1.66158,-28.476,15.24068,7.24,0.71,-0.36,4.0
1758089446.46642,1758089436.34154,0.0,0.0,0.0,-0.45837,-29.56462,15.75634,7.24,0.71,-0.36,4.0
1758089446.48172,1758089436.35154,0.0,0.0,0.0,1.3178,-31.11161,16.50119,7.21,0.39,-0.5,4.0
1758089446.48339,1758089436.36154,0.0,0.0,0.0,5.15662,-35.58068,17.30333,7.41,-0.22,0.3,4.0
1758089446.50384,1758089436.37154,0.0,0.0,0.0,8.65166,-43.88857,16.61578,7.41,-0.22,0.3,4.0
1758089446.50623,1758089436.38154,0.0,0.0,0.0,13.00614,-53.17049,16.3293,8.47,-1.05,2.14,4.0
1758089446.52239,1758089436.39154,0.0,0.0,0.0,17.13144,-61.70755,14.78231,8.47,-1.05,2.14,4.0
1758089446.52339,1758089436.40154,0.0,0.0,0.0,22.86102,-64.17127,13.5218,11.8,-2.08,3.06,4.0
1758089446.53878,1758089436.41154,0.0,0.0,0.0,26.81443,-58.15522,12.08941,11.8,-2.08,3.06,4.0
1758089446.55442,1758089436.42154,0.0,0.0,0.0,31.79916,-44.40423,11.74564,14.65,-3.14,2.58,4.0
1758089446.55648,1758089436.43154,0.0,0.0,0.0,40.10705,-23.94964,11.80293,14.65,-3.14,2.58,4.0
1758089446.57232,1758089436.44154,0.0,0.0,0.0,45.89392,-28.76248,12.204,15.38,-4.0,3.47,4.0
1758089446.57602,1758089436.45154,0.0,0.0,0.0,47.32632,-43.20102,5.90147,14.88,-5.02,2.2,4.0
1758089446.59327,1758089436.46154,0.0,0.0,0.0,49.21708,-42.34158,-0.85944,14.88,-5.02,2.2,4.0
1758089446.59532,1758089436.47154,0.0,0.0,0.0,55.97798,-6.13065,-1.94806,18.2,-4.93,-1.4,4.0
1758089446.61203,1758089436.48154,0.0,0.0,0.0,60.38975,18.90761,0.40107,18.2,-4.93,-1.4,4.0
1758089446.61321,1758089436.49154,0.0,0.0,0.0,63.25455,37.18496,4.18259,15.93,-2.14,-1.16,4.0
1758089446.6284,1758089436.50154,0.0,0.0,0.0,64.51505,48.30034,8.99544,15.93,-2.14,-1.16,4.0
1758089446.64806,1758089436.51154,0.0,0.0,0.0,62.91077,52.36834,14.03747,13.61,-0.19,1.7,4.0
1758089446.65166,1758089436.52154,0.0,0.0,0.0,62.28051,43.14373,17.01685,13.47,0.05,1.56,4.0
1758089446.6667,1758089436.53154,0.0,0.0,0.0,59.75951,37.18496,17.13144,13.47,0.05,1.56,4.0
1758089446.67185,1758089436.54154,0.0,0.0,0.0,55.86338,39.99245,12.77696,14.39,-0.84,0.86,4.0
1758089446.68643,1758089436.55154,0.0,0.0,0.0,52.42564,51.6235,7.73493,14.39,-0.84,0.86,4.0
1758089446.68843,1758089436.56154,0.0,0.0,0.0,50.99325,50.82136,4.18259,13.55,-1.45,1.05,4.0
1758089446.70354,1758089436.57154,0.0,0.0,0.0,49.67545,48.52953,1.60428,13.55,-1.45,1.05,4.0
1758089446.7086,1758089436.58154,0.0,0.0,0.0,48.12846,44.28964,0.0,11.35,-1.57,1.53,4.0
1758089446.72388,1758089436.59154,0.0,0.0,0.0,45.77933,35.52338,-0.45837,10.19,-1.36,0.89,4.0
1758089446.72893,1758089436.60154,0.0,0.0,0.0,44.28964,26.75713,0.34377,10.19,-1.36,0.89,4.0
1758089446.74384,1758089436.61154,0.0,0.0,0.0,43.31561,18.56383,2.40642,8.97,-1.08,0.38,4.0
1758089446.74893,1758089436.62154,0.0,0.0,0.0,41.36755,12.37589,5.90147,8.97,-1.08,0.38,4.0
1758089446.76349,1758089436.63154,0.0,0.0,0.0,39.4768,3.49504,7.96411,8.39,-0.83,0.44,4.0
1758089446.76583,1758089436.64154,0.0,0.0,0.0,37.24226,-0.51566,9.05273,8.39,-0.83,0.44,4.0
1758089446.78084,1758089436.65154,0.0,0.0,0.0,34.95043,-2.7502,9.39651,8.2,-0.5,0.85,4.0
1758089446.7965,1758089436.66154,0.0,0.0,0.0,31.16891,-4.81285,8.76626,8.2,-0.5,0.85,4.0
1758089446.79846,1758089436.67154,0.0,0.0,0.0,28.476,-5.09932,8.42248,8.3,-0.22,1.15,4.0
1758089446.81349,1758089436.68154,0.0,0.0,0.0,25.7831,-5.55769,7.62034,8.35,-0.03,1.45,4.0
1758089446.81467,1758089436.69154,0.0,0.0,0.0,23.20479,-5.61499,7.16197,8.35,-0.03,1.45,4.0
1758089446.82989,1758089436.70154,0.0,0.0,0.0,19.19409,-3.26586,6.41713,8.7,0.06,1.52,4.0
1758089446.83305,1758089436.71154,0.0,0.0,0.0,16.55848,-1.08862,5.95876,8.7,0.06,1.52,4.0
1758089446.84849,1758089436.72154,0.0,0.0,0.0,14.09476,1.77617,5.61499,9.27,0.05,1.43,4.0
1758089446.86681,1758089436.73154,0.0,0.0,0.0,11.91752,5.21392,5.78687,9.27,0.05,1.43,4.0
1758089446.86931,1758089436.74154,0.0,0.0,0.0,8.47978,9.91217,5.21392,9.81,-0.08,1.35,4.0
1758089446.88459,1758089436.75154,0.0,0.0,0.0,7.10468,13.12073,4.81285,10.01,-0.39,1.0,4.0
1758089446.89218,1758089436.76154,0.0,0.0,0.0,5.84417,15.46986,4.29718,10.01,-0.39,1.0,4.0
1758089446.89276,1758089436.77154,0.0,0.0,0.0,4.98473,16.04282,4.0107,9.78,-0.8,0.74,4.0
1758089446.90859,1758089436.78154,0.0,0.0,0.0,4.18259,11.51645,3.38045,9.78,-0.8,0.74,4.0
1758089446.92522,1758089436.79154,0.0,0.0,0.0,3.89611,8.136,3.26586,9.35,-1.08,0.37,4.0
1758089446.92727,1758089436.80154,0.0,0.0,0.0,3.55234,6.18794,3.49504,9.35,-1.08,0.37,4.0
1758089446.94361,1758089436.81154,0.0,0.0,0.0,3.89611,6.87549,3.89611,9.64,-1.22,0.0,4.0
1758089446.94885,1758089436.82154,0.0,0.0,0.0,4.0107,8.25059,3.66693,9.86,-1.16,0.14,4.0
1758089446.96379,1758089436.83154,0.0,0.0,0.0,4.18259,9.05273,3.49504,9.86,-1.16,0.14,4.0
1758089446.96899,1758089436.84154,0.0,0.0,0.0,4.0107,10.31324,2.7502,9.92,-0.96,0.42,4.0
1758089446.98382,1758089436.85154,0.0,0.0,0.0,4.35448,10.31324,1.3178,9.92,-0.96,0.42,4.0
1758089446.98904,1758089436.86154,0.0,0.0,0.0,4.58366,10.19865,0.0573,10.01,-0.78,0.42,4.0
1758089447.00356,1758089436.87154,0.0,0.0,0.0,4.98473,9.33921,-1.03132,10.01,-0.78,0.42,4.0
1758089447.00502,1758089436.88154,0.0,0.0,0.0,5.15662,7.84952,-2.11994,10.07,-0.68,0.4,4.0
1758089447.02064,1758089436.89154,0.0,0.0,0.0,5.21392,11.11538,-3.72423,10.07,-0.68,0.55,4.0
1758089447.03817,1758089436.90154,0.0,0.0,0.0,4.92744,15.58445,-5.4431,10.36,-0.67,0.55,4.0
1758089447.03938,1758089436.91154,0.0,0.0,0.0,5.09932,18.9649,-6.47442,10.37,-0.71,0.94,4.0
1758089447.05549,1758089436.92154,0.0,0.0,0.0,4.69825,18.79302,-7.44845,10.37,-0.71,0.94,4.0
1758089447.05751,1758089436.93154,0.0,0.0,0.0,4.23989,14.83961,-7.67763,9.8,-0.68,1.29,4.0
1758089447.07291,1758089436.94154,0.0,0.0,0.0,3.83882,12.14671,-7.79223,9.8,-0.68,1.29,4.0
1758089447.07382,1758089436.95154,0.0,0.0,0.0,3.26586,9.28192,-8.02141,9.78,-0.72,0.95,4.0
1758089447.08869,1758089436.96154,0.0,0.0,0.0,2.97938,6.24524,-8.36518,9.78,-0.72,0.95,4.0
1758089447.10725,1758089436.97154,0.0,0.0,0.0,2.57831,1.48969,-8.93814,9.67,-0.83,0.68,4.0
1758089447.10977,1758089436.98154,0.0,0.0,0.0,2.46372,-0.74485,-9.28192,9.57,-0.95,0.76,4.0
1758089447.12766,1758089436.99154,0.0,0.0,0.0,2.57831,-3.03668,-9.85487,9.57,-0.95,0.76,4.0
1758089447.12951,1758089437.00154,0.0,0.0,0.0,2.6929,-5.15662,-9.96947,9.48,-0.96,0.87,4.0
1758089447.14731,1758089437.01154,0.0,0.0,0.0,3.09397,-5.61499,-9.96947,9.48,-0.96,0.87,4.0
1758089447.15331,1758089437.02154,0.0,0.0,0.0,3.55234,-4.29718,-9.74028,9.75,-0.92,0.97,4.0
1758089447.15376,1758089437.03154,0.0,0.0,0.0,4.1253,-2.34913,-9.22462,9.75,-0.92,0.97,4.0
1758089447.17111,1758089437.04154,0.0,0.0,0.0,4.18259,-0.85944,-9.11003,9.96,-0.87,1.08,4.0
1758089447.18745,1758089437.05154,0.0,0.0,0.0,3.83882,0.0573,-9.4538,10.04,-0.74,1.18,4.0
1758089447.18952,1758089437.06154,0.0,0.0,0.0,3.26586,1.60428,-9.74028,10.04,-0.74,1.18,4.0
1758089447.20704,1758089437.07154,0.0,0.0,0.0,2.57831,2.6929,-10.02676,10.18,-0.65,1.06,4.0
1758089447.20821,1758089437.08154,0.0,0.0,0.0,1.43239,4.1253,-10.48513,10.18,-0.65,1.06,4.0
1758089447.22367,1758089437.09154,0.0,0.0,0.0,0.68755,4.98473,-10.54242,10.2,-0.68,0.9,4.0
1758089447.22887,1758089437.10154,0.0,0.0,0.0,0.0573,5.84417,-10.59972,10.2,-0.68,0.9,4.0
1758089447.24406,1758089437.11154,0.0,0.0,0.0,-0.17189,6.35983,-10.65701,10.12,-0.81,0.74,4.0
1758089447.24917,1758089437.12154,0.0,0.0,0.0,-0.74485,6.70361,-10.25595,9.92,-0.93,0.56,4.0
1758089447.26366,1758089437.13154,0.0,0.0,0.0,-0.80214,6.7609,-9.74028,9.92,-0.93,0.56,4.0
1758089447.26679,1758089437.14154,0.0,0.0,0.0,-1.08862,6.47442,-9.28192,9.68,-1.0,0.5,4.0
1758089447.28167,1758089437.15154,0.0,0.0,0.0,-0.85944,5.90147,-8.70896,9.68,-1.0,0.5,4.0
1758089447.28366,1758089437.16154,0.0,0.0,0.0,-1.03132,5.78687,-8.0787,9.49,-0.99,0.4,4.0
1758089447.30119,1758089437.17154,0.0,0.0,0.0,-0.97403,5.15662,-7.62034,9.49,-0.99,0.4,4.0
1758089447.30326,1758089437.18154,0.0,0.0,0.0,-0.85944,4.18259,-7.21927,9.31,-0.91,0.5,4.0
1758089447.32371,1758089437.19154,0.0,0.0,0.0,-0.68755,2.57831,-6.87549,9.31,-0.91,0.5,4.0
1758089447.32883,1758089437.20154,0.0,0.0,0.0,-0.51566,0.80214,-6.47442,9.12,-0.78,0.48,4.0
1758089447.34396,1758089437.21154,0.0,0.0,0.0,-0.51566,0.0573,-6.70361,9.19,-0.67,0.46,4.0
1758089447.34688,1758089437.22154,0.0,0.0,0.0,-0.34377,-0.80214,-6.99009,9.19,-0.67,0.46,4.0
1758089447.36399,1758089437.23154,0.0,0.0,0.0,-0.17189,-2.00535,-7.73493,9.28,-0.58,0.48,4.0
1758089447.36924,1758089437.24154,0.0,0.0,0.0,0.0,-3.55234,-8.25059,9.28,-0.58,0.48,4.0
1758089447.38394,1758089437.25154,0.0,0.0,0.0,-0.17189,-4.29718,-8.70896,9.37,-0.52,0.42,4.0
1758089447.38922,1758089437.26154,0.0,0.0,0.0,-0.22918,-4.69825,-8.93814,9.37,-0.52,0.42,4.0
1758089447.40375,1758089437.27154,0.0,0.0,0.0,-0.51566,-4.87014,-8.88085,9.53,-0.45,0.44,4.0
1758089447.40495,1758089437.28154,0.0,0.0,0.0,-0.57296,-4.81285,-8.76626,9.75,-0.41,0.49,4.0
1758089447.42053,1758089437.29154,0.0,0.0,0.0,-0.85944,-4.58366,-8.42248,9.75,-0.41,0.49,4.0
1758089447.43768,1758089437.30154,0.0,0.0,0.0,-1.3178,-4.1253,-8.25059,9.87,-0.39,0.56,4.0
1758089447.43881,1758089437.31154,0.0,0.0,0.0,-2.11994,-3.72423,-7.73493,9.87,-0.39,0.56,4.0
1758089447.45457,1758089437.32154,0.0,0.0,0.0,-2.92208,-3.89611,-7.79223,9.83,-0.43,0.56,4.0
1758089447.45767,1758089437.33154,0.0,0.0,0.0,-3.66693,-4.1253,-7.79223,9.83,-0.43,0.56,4.0
1758089447.47306,1758089437.34154,0.0,0.0,0.0,-4.23989,-3.72423,-8.02141,9.79,-0.51,0.37,4.0
1758089447.47399,1758089437.35154,0.0,0.0,0.0,-4.64096,-2.34913,-8.30789,9.79,-0.63,0.3,4.0
1758089447.57558,1758089437.36154,0.0,0.0,0.0,-4.52637,-2.40642,-8.59437,9.79,-0.63,0.3,4.0
1758089447.5831,1758089437.37154,0.0,0.0,0.0,-4.64096,-2.6929,-8.99544,9.51,-0.7,0.35,4.0
1758089447.5837,1758089437.38154,0.0,0.0,0.0,-4.58366,-3.38045,-9.05273,9.51,-0.7,0.35,4.0
1758089447.58569,1758089437.39154,0.0,0.0,0.0,-4.52637,-5.21392,-9.22462,9.16,-0.74,0.45,4.0
1758089447.58637,1758089437.40154,0.0,0.0,0.0,-4.1253,-6.24524,-9.22462,9.16,-0.74,0.45,4.0
1758089447.58764,1758089437.41154,0.0,0.0,0.0,-3.89611,-6.53172,-9.28192,8.72,-0.78,0.22,4.0
1758089447.58821,1758089437.42154,0.0,0.0,0.0,-3.26586,-6.35983,-9.22462,8.72,-0.78,0.22,4.0
1758089447.589,1758089437.43154,0.0,0.0,0.0,-2.11994,-5.50039,-9.11003,8.39,-0.86,0.19,4.0
1758089447.59248,1758089437.44154,0.0,0.0,0.0,-1.08862,-4.98473,-9.33921,8.34,-0.99,0.29,4.0
1758089447.59325,1758089437.45154,0.0,0.0,0.0,0.17189,-4.58366,-9.85487,8.34,-0.99,0.29,4.0
1758089447.59435,1758089437.46154,0.0,0.0,0.0,1.60428,-4.92744,-10.19865,8.58,-1.0,0.18,4.0
1758089447.59831,1758089437.47154,0.0,0.0,0.0,2.40642,-4.92744,-10.25595,8.58,-1.0,0.18,4.0
1758089447.61376,1758089437.48154,0.0,0.0,0.0,3.26586,-5.09932,-10.25595,9.09,-0.89,-0.01,4.0
1758089447.61673,1758089437.49154,0.0,0.0,0.0,3.55234,-4.87014,-9.96947,9.09,-0.89,-0.01,4.0
1758089447.63286,1758089437.50154,0.0,0.0,0.0,3.49504,-5.32851,-9.62569,9.64,-0.74,0.07,4.0
1758089447.63571,1758089437.51154,0.0,0.0,0.0,3.09397,-5.50039,-9.33921,9.64,-0.6,-0.04,4.0
1758089447.65082,1758089437.52154,0.0,0.0,0.0,2.57831,-5.55769,-9.05273,9.64,-0.6,-0.04,4.0
1758089447.65282,1758089437.53154,0.0,0.0,0.0,2.06265,-6.13065,-9.11003,9.24,-0.56,0.11,4.0
1758089447.66877,1758089437.54154,0.0,0.0,0.0,0.57296,-7.67763,-9.62569,9.24,-0.56,0.11,4.0
1758089447.68506,1758089437.55154,0.0,0.0,0.0,-0.11459,-8.59437,-10.08406,8.47,-0.54,0.1,4.0
1758089447.68603,1758089437.56154,0.0,0.0,0.0,-1.03132,-8.88085,-10.31324,8.47,-0.54,0.1,4.0
1758089447.70368,1758089437.57154,0.0,0.0,0.0,-1.77617,-9.33921,-10.59972,7.79,-0.59,0.28,4.0
1758089447.70865,1758089437.58154,0.0,0.0,0.0,-3.20856,-10.19865,-10.8862,7.09,-0.7,0.26,4.0
1758089447.74878,1758089437.59154,0.0,0.0,0.0,-3.95341,-9.91217,-11.00079,7.09,-0.7,0.26,4.0
1758089447.75233,1758089437.60154,0.0,0.0,0.0,-4.87014,-9.4538,-10.94349,6.77,-0.82,0.18,4.0
1758089447.75273,1758089437.61154,0.0,0.0,0.0,-5.61499,-9.11003,-10.71431,6.77,-0.82,0.18,4.0
1758089447.75383,1758089437.62154,0.0,0.0,0.0,-6.70361,-9.4538,-10.48513,6.58,-0.9,0.1,4.0
1758089447.75486,1758089437.63154,0.0,0.0,0.0,-7.16197,-10.02676,-9.96947,6.58,-0.9,0.1,4.0
1758089447.77115,1758089437.64154,0.0,0.0,0.0,-7.62034,-11.34457,-9.11003,6.51,-0.92,0.01,4.0
1758089447.78776,1758089437.65154,0.0,0.0,0.0,-8.30789,-13.23533,-6.35983,6.51,-0.92,0.01,4.0
1758089447.78895,1758089437.66154,0.0,0.0,0.0,-9.11003,-18.27736,-4.29718,6.54,-0.87,0.17,4.0
1758089447.80395,1758089437.67154,0.0,0.0,0.0,-9.4538,-21.42862,-1.43239,7.39,-0.55,1.0,4.0
1758089447.80501,1758089437.68154,0.0,0.0,0.0,-9.68299,-23.37668,0.68755,7.39,-0.55,1.0,4.0
1758089447.81988,1758089437.69154,0.0,0.0,0.0,-11.74564,-26.01229,2.11994,9.68,0.18,2.2,4.0
1758089447.82344,1758089437.70154,0.0,0.0,0.0,-13.75099,-29.8511,1.83346,9.68,0.18,2.2,4.0
1758089447.85344,1758089437.71154,0.0,0.0,0.0,-16.90226,-35.2369,0.0573,12.01,1.45,3.88,4.0
1758089447.85791,1758089437.72154,0.0,0.0,0.0,-20.68378,-41.31026,-0.80214,12.01,1.45,3.88,4.0
1758089447.85835,1758089437.73154,0.0,0.0,0.0,-27.44468,-33.00237,4.52637,16.35,3.34,6.94,4.0
1758089447.8739,1758089437.74154,0.0,0.0,0.0,-34.49206,-11.97482,6.47442,24.13,6.0,3.55,4.0
1758089447.88411,1758089437.75154,0.0,0.0,0.0,-40.50812,5.72958,5.55769,24.13,6.0,3.55,4.0
1758089447.88455,1758089437.76154,0.0,0.0,0.0,-46.1231,10.19865,1.3178,19.52,4.41,0.21,4.0
1758089447.95911,1758089437.77154,0.0,0.0,0.0,-49.96192,7.62034,-8.59437,19.52,4.41,0.21,4.0
1758089447.9621,1758089437.78154,0.0,0.0,0.0,-51.39432,9.74028,-13.34992,12.45,0.4,-1.03,4.0
1758089447.96412,1758089437.79154,0.0,0.0,0.0,-49.67545,17.18874,-16.90226,12.45,0.4,-1.03,4.0
1758089447.96473,1758089437.80154,0.0,0.0,0.0,-44.40423,24.12152,-18.90761,12.97,-1.59,1.17,4.0
1758089447.96599,1758089437.81154,0.0,0.0,0.0,-28.87707,37.81522,-12.71966,14.21,-1.85,1.08,4.0
1758089447.96659,1758089437.82154,0.0,0.0,0.0,-16.84496,44.57612,-4.69825,14.21,-1.85,1.08,4.0
1758089447.96738,1758089437.83154,0.0,0.0,0.0,-6.87549,45.49285,3.49504,14.13,-1.07,2.42,4.0
1758089447.96851,1758089437.84154,0.0,0.0,0.0,0.97403,42.34158,10.08406,14.13,-1.07,2.42,4.0
1758089447.9872,1758089437.85154,0.0,0.0,0.0,8.93814,36.15364,15.29797,12.13,-0.16,1.91,4.0
1758089447.98971,1758089437.86154,0.0,0.0,0.0,11.97482,33.51803,15.58445,12.13,-0.16,1.91,4.0
1758089448.0078,1758089437.87154,0.0,0.0,0.0,12.43318,27.04361,13.40721,10.89,0.35,0.94,4.0
1758089448.00895,1758089437.88154,0.0,0.0,0.0,11.86023,14.49583,8.76626,10.89,0.35,0.94,4.0
1758089448.02423,1758089437.89154,0.0,0.0,0.0,11.22997,10.37054,5.50039,9.29,1.09,0.55,4.0
1758089448.02595,1758089437.90154,0.0,0.0,0.0,10.94349,11.34457,2.86479,9.25,1.73,1.21,4.0
1758089448.04288,1758089437.91154,0.0,0.0,0.0,10.8289,15.75634,0.45837,9.25,1.73,1.21,4.0
1758089448.04491,1758089437.92154,0.0,0.0,0.0,9.96947,23.66316,-2.97938,9.48,1.66,1.76,4.0
1758089448.06326,1758089437.93154,0.0,0.0,0.0,9.22462,26.01229,-5.27121,9.48,1.66,1.76,4.0
1758089448.06421,1758089437.94154,0.0,0.0,0.0,8.36518,25.8404,-7.50575,8.86,1.21,2.26,4.0
1758089448.07925,1758089437.95154,0.0,0.0,0.0,7.67763,24.35071,-9.22462,8.86,1.21,2.26,4.0
1758089448.09673,1758089437.96154,0.0,0.0,0.0,6.99009,22.23076,-9.96947,8.24,0.86,1.53,4.0
1758089448.09802,1758089437.97154,0.0,0.0,0.0,6.7609,20.79837,-9.22462,7.97,0.72,1.1,4.0
1758089448.11327,1758089437.98154,0.0,0.0,0.0,6.99009,20.11082,-7.67763,7.97,0.72,1.1,4.0
1758089448.11449,1758089437.99154,0.0,0.0,0.0,7.21927,21.08485,-5.32851,8.05,0.78,1.14,4.0
1758089448.12906,1758089438.00154,0.0,0.0,0.0,8.25059,26.69983,-1.3178,8.05,0.78,1.14,4.0
1758089448.146,1758089438.01154,0.0,0.0,0.0,8.47978,29.56462,1.03132,8.63,0.96,1.31,4.0
1758089448.1472,1758089438.02154,0.0,0.0,0.0,8.70896,30.36677,2.86479,8.63,0.96,1.31,4.0
1758089448.16279,1758089438.03154,0.0,0.0,0.0,8.42248,30.13758,3.60963,8.56,1.14,1.29,4.0
1758089448.16403,1758089438.04154,0.0,0.0,0.0,7.73493,25.7831,3.03668,8.16,1.13,0.79,4.0
1758089448.18294,1758089438.05154,0.0,0.0,0.0,6.87549,21.37133,2.11994,8.16,1.13,0.79,4.0
1758089448.18417,1758089438.06154,0.0,0.0,0.0,5.55769,17.24603,1.03132,7.79,1.02,0.29,4.0
1758089448.19901,1758089438.07154,0.0,0.0,0.0,3.26586,14.09476,0.40107,7.79,1.02,0.29,4.0
1758089448.21637,1758089438.08154,0.0,0.0,0.0,1.77617,9.22462,0.51566,7.77,0.93,0.24,4.0
1758089448.21726,1758089438.09154,0.0,0.0,0.0,0.17189,6.18794,1.20321,7.77,0.93,0.24,4.0
1758089448.23227,1758089438.10154,0.0,0.0,0.0,-1.03132,1.3178,2.34913,7.96,0.89,0.27,4.0
1758089448.2334,1758089438.11154,0.0,0.0,0.0,-2.7502,-3.32316,4.18259,7.96,0.89,0.27,4.0
1758089448.24933,1758089438.12154,0.0,0.0,0.0,-3.89611,-5.50039,5.78687,8.46,0.85,0.22,4.0
1758089448.26735,1758089438.13154,0.0,0.0,0.0,-4.87014,-7.39116,7.16197,8.99,0.85,0.35,4.0
1758089448.26854,1758089438.14154,0.0,0.0,0.0,-5.84417,-9.22462,8.65166,8.99,0.85,0.35,4.0
1758089448.28335,1758089438.15154,0.0,0.0,0.0,-7.67763,-10.94349,10.71431,9.37,0.89,0.32,4.0
1758089448.28469,1758089438.16154,0.0,0.0,0.0,-8.93814,-12.14671,11.91752,9.37,0.89,0.32,4.0
1758089448.29933,1758089438.17154,0.0,0.0,0.0,-10.19865,-13.34992,12.77696,9.54,0.95,0.32,4.0
1758089448.31621,1758089438.18154,0.0,0.0,0.0,-11.22997,-14.49583,13.5218,9.54,0.95,0.32,4.0
1758089448.31882,1758089438.19154,0.0,0.0,0.0,-12.77696,-16.95955,14.20935,9.42,1.08,0.13,4.0
1758089448.33433,1758089438.20154,0.0,0.0,0.0,-13.75099,-18.73572,14.43854,9.13,1.1,0.18,4.0
1758089448.33612,1758089438.21154,0.0,0.0,0.0,-14.78231,-19.82434,14.66772,9.13,1.1,0.18,4.0
1758089448.35136,1758089438.22154,0.0,0.0,0.0,-15.58445,-19.76705,14.78231,9.09,0.98,0.28,4.0
1758089448.36712,1758089438.23154,0.0,0.0,0.0,-16.73037,-18.73572,14.9542,9.09,0.98,0.28,4.0
1758089448.36909,1758089438.24154,0.0,0.0,0.0,-17.30333,-18.10547,15.24068,9.04,0.79,0.41,4.0
1758089448.38681,1758089438.25154,0.0,0.0,0.0,-17.58981,-17.13144,15.46986,9.04,0.79,0.41,4.0
1758089448.38933,1758089438.26154,0.0,0.0,0.0,-17.6471,-16.04282,16.38659,8.94,0.58,0.38,4.0
1758089448.40865,1758089438.27154,0.0,0.0,0.0,-17.13144,-14.9542,16.90226,8.78,0.5,0.25,4.0
1758089448.41157,1758089438.28154,0.0,0.0,0.0,-16.38659,-14.38124,17.30333,8.78,0.5,0.25,4.0
1758089448.42611,1758089438.29154,0.0,0.0,0.0,-15.58445,-13.69369,17.6471,8.44,0.55,0.14,4.0
1758089448.42813,1758089438.30154,0.0,0.0,0.0,-13.86558,-13.86558,17.81899,8.44,0.55,0.14,4.0
1758089448.44337,1758089438.31154,0.0,0.0,0.0,-12.54778,-14.72501,17.53251,7.9,0.67,0.17,4.0
1758089448.44464,1758089438.32154,0.0,0.0,0.0,-11.34457,-15.64175,17.01685,7.9,0.67,0.17,4.0
1758089448.46121,1758089438.33154,0.0,0.0,0.0,-9.91217,-16.38659,16.38659,7.52,0.8,0.23,4.0
1758089448.46403,1758089438.34154,0.0,0.0,0.0,-7.67763,-17.58981,15.12609,7.52,0.8,0.22,4.0
1758089448.48043,1758089438.35154,0.0,0.0,0.0,-6.24524,-18.50654,14.38124,7.49,0.97,0.22,4.0
1758089448.48854,1758089438.36154,0.0,0.0,0.0,-4.81285,-19.19409,13.80828,7.55,1.06,0.16,4.0
1758089448.50528,1758089438.37154,0.0,0.0,0.0,-3.49504,-20.22541,13.34992,7.55,1.06,0.16,4.0
1758089448.50853,1758089438.38154,0.0,0.0,0.0,-1.3751,-23.31938,12.43318,7.25,0.99,0.3,4.0
1758089448.52497,1758089438.39154,0.0,0.0,0.0,-0.11459,-26.24147,11.80293,7.25,0.99,0.3,4.0
1758089448.53166,1758089438.40154,0.0,0.0,0.0,0.74485,-30.30947,10.94349,6.53,0.9,0.56,4.0
1758089448.54798,1758089438.41154,0.0,0.0,0.0,1.03132,-34.09099,9.4538,6.53,0.9,0.56,4.0
1758089448.54915,1758089438.42154,0.0,0.0,0.0,1.77617,-46.40959,7.73493,6.25,0.77,1.62,4.0
1758089448.56445,1758089438.43154,0.0,0.0,0.0,2.57831,-55.06125,4.1253,6.97,-0.08,2.88,4.0
1758089448.56535,1758089438.44154,0.0,0.0,0.0,7.44845,-74.25533,5.90147,6.97,-0.08,2.88,4.0
1758089448.58018,1758089438.45154,0.0,0.0,0.0,12.89155,-83.59455,5.95876,9.9,-2.08,4.09,4.0
1758089448.58375,1758089438.46154,0.0,0.0,0.0,19.99623,-73.96885,6.18794,9.9,-2.08,4.09,4.0
1758089448.59943,1758089438.47154,0.0,0.0,0.0,24.29341,-55.92068,6.35983,16.29,-4.63,3.34,4.0
1758089448.61703,1758089438.48154,0.0,0.0,0.0,30.30947,-35.58068,6.53172,16.29,-4.63,3.34,4.0
1758089448.6193,1758089438.49154,0.0,0.0,0.0,38.73195,-15.06879,10.08406,19.6,-6.87,3.95,4.0
1758089448.63436,1758089438.50154,0.0,0.0,0.0,39.13302,-23.26209,7.44845,17.21,-7.75,1.46,4.0
1758089448.63564,1758089438.51154,0.0,0.0,0.0,39.13302,-19.53786,3.66693,17.21,-7.75,1.46,4.0
1758089448.65055,1758089438.52154,0.0,0.0,0.0,39.19032,-6.99009,2.40642,18.46,-5.14,-1.06,4.0
1758089448.66713,1758089438.53154,0.0,0.0,0.0,42.1124,32.48671,6.99009,18.46,-5.14,-1.06,4.0
1758089448.66834,1758089438.54154,0.0,0.0,0.0,42.74266,50.59217,11.17268,17.99,-1.01,-0.12,4.0
1758089448.68354,1758089438.55154,0.0,0.0,0.0,41.36755,62.68159,14.20935,17.99,-1.01,-0.12,4.0
1758089448.68452,1758089438.56154,0.0,0.0,0.0,39.07573,68.06739,15.87093,14.45,0.97,2.4,4.0
1758089448.69942,1758089438.57154,0.0,0.0,0.0,33.46074,72.65105,13.5218,12.82,0.97,2.59,4.0
1758089448.71629,1758089438.58154,0.0,0.0,0.0,28.99167,65.48907,11.91752,12.82,1.19,2.59,4.0
1758089448.71802,1758089438.59154,0.0,0.0,0.0,23.37668,64.51505,6.35983,11.57,0.35,1.27,4.0
1758089448.73325,1758089438.60154,0.0,0.0,0.0,20.11082,68.58305,5.21392,11.57,0.35,1.27,4.0
1758089448.73449,1758089438.61154,0.0,0.0,0.0,13.00614,63.99939,-1.03132,11.32,-0.86,1.19,4.0
1758089448.75163,1758089438.62154,0.0,0.0,0.0,7.84952,59.12925,-4.35448,11.32,-0.86,1.19,4.0
1758089448.7545,1758089438.63154,0.0,0.0,0.0,2.40642,51.79538,-6.99009,10.02,-1.52,1.33,4.0
1758089448.77343,1758089438.64154,0.0,0.0,0.0,-2.63561,40.33623,-8.65166,10.02,-1.52,1.33,4.0
1758089448.77554,1758089438.65154,0.0,0.0,0.0,-7.33386,27.73116,-7.50575,9.06,-1.57,1.54,4.0
1758089448.79253,1758089438.66154,0.0,0.0,0.0,-8.02141,19.25138,-5.21392,8.75,-1.41,1.04,4.0
1758089448.79385,1758089438.67154,0.0,0.0,0.0,-9.22462,12.60507,-3.60963,8.75,-1.41,1.04,4.0
1758089448.80926,1758089438.68154,0.0,0.0,0.0,-9.68299,5.72958,0.17189,8.06,-1.27,1.23,4.0
1758089448.82723,1758089438.69154,0.0,0.0,0.0,-11.45916,22.68913,-2.29183,8.06,-1.27,1.23,4.0
1758089448.83182,1758089438.70154,0.0,0.0,0.0,-12.77696,34.09099,-6.8182,9.42,-0.99,1.67,4.0
1758089448.84709,1758089438.71154,0.0,0.0,0.0,-12.37589,37.24226,-8.02141,9.42,-0.99,1.67,4.0
1758089448.8518,1758089438.72154,0.0,0.0,0.0,-9.68299,24.57989,-7.96411,7.61,-0.82,2.67,4.0
1758089448.86652,1758089438.73154,0.0,0.0,0.0,-7.16197,19.42327,-7.73493,7.15,-1.12,2.07,4.0
1758089448.86752,1758089438.74154,0.0,0.0,0.0,-5.15662,14.9542,-8.59437,7.15,-1.12,2.07,4.0
1758089448.88333,1758089438.75154,0.0,0.0,0.0,-2.34913,7.50575,-8.76626,7.11,-1.52,0.55,4.0
1758089448.88589,1758089438.76154,0.0,0.0,0.0,1.3751,-2.06265,-9.5684,7.11,-1.52,0.55,4.0
1758089448.90324,1758089438.77154,0.0,0.0,0.0,4.1253,-7.04738,-9.96947,7.13,-1.96,0.2,4.0
1758089448.90524,1758089438.78154,0.0,0.0,0.0,6.53172,-10.94349,-10.71431,7.13,-1.96,0.2,4.0
1758089448.9211,1758089438.79154,0.0,0.0,0.0,9.05273,-12.71966,-10.8862,7.5,-2.16,0.4,4.0
1758089448.92385,1758089438.80154,0.0,0.0,0.0,12.08941,-14.78231,-10.94349,7.69,-1.91,0.6,4.0
1758089448.94136,1758089438.81154,0.0,0.0,0.0,14.20935,-13.80828,-10.54242,7.69,-1.91,0.6,4.0
1758089448.94383,1758089438.82154,0.0,0.0,0.0,15.87093,-12.83425,-9.85487,7.82,-1.53,1.01,4.0
1758089448.96363,1758089438.83154,0.0,0.0,0.0,16.90226,-13.80828,-9.68299,7.82,-1.53,1.01,4.0
1758089448.96565,1758089438.84154,0.0,0.0,0.0,17.58981,-14.09476,-10.08406,7.75,-1.13,0.87,4.0
1758089448.98061,1758089438.85154,0.0,0.0,0.0,17.24603,-14.20935,-10.8289,7.75,-1.13,0.87,4.0
1758089448.99656,1758089438.86154,0.0,0.0,0.0,16.50119,-14.15206,-11.51645,7.93,-0.74,0.61,4.0
1758089448.99834,1758089438.87154,0.0,0.0,0.0,15.92823,-13.75099,-12.2613,7.93,-0.74,0.61,4.0
1758089449.01337,1758089438.88154,0.0,0.0,0.0,14.66772,-12.60507,-13.46451,8.12,-0.44,0.36,4.0
1758089449.01541,1758089438.89154,0.0,0.0,0.0,13.5218,-11.80293,-14.66772,8.43,-0.34,0.31,4.0
1758089449.03118,1758089438.90154,0.0,0.0,0.0,12.54778,-10.8289,-16.04282,8.43,-0.34,0.31,4.0
1758089449.04838,1758089438.91154,0.0,0.0,0.0,10.8289,-9.05273,-18.27736,8.85,-0.39,0.08,4.0
1758089449.05055,1758089438.92154,0.0,0.0,0.0,9.62569,-7.16197,-19.76705,8.85,-0.39,0.08,4.0
1758089449.06744,1758089438.93154,0.0,0.0,0.0,8.70896,-7.96411,-20.85567,9.22,-0.53,0.01,4.0
1758089449.0686,1758089438.94154,0.0,0.0,0.0,7.79223,-9.74028,-22.28806,9.22,-0.53,0.01,4.0
1758089449.08363,1758089438.95154,0.0,0.0,0.0,7.44845,-11.91752,-24.23611,9.48,-0.67,0.03,4.0
1758089449.08856,1758089438.96154,0.0,0.0,0.0,7.79223,-12.49048,-24.57989,9.79,-0.79,0.04,4.0
1758089449.10329,1758089438.97154,0.0,0.0,0.0,7.79223,-10.94349,-25.15285,9.79,-0.79,0.04,4.0
1758089449.10542,1758089438.98154,0.0,0.0,0.0,7.21927,-7.44845,-25.7831,9.63,-0.74,0.27,4.0
1758089449.12035,1758089438.99154,0.0,0.0,0.0,6.35983,-4.98473,-25.61122,9.63,-0.74,0.27,4.0
1758089449.13641,1758089439.00154,0.0,0.0,0.0,5.21392,-6.35983,-24.92367,8.7,-0.64,0.72,4.0
1758089449.13762,1758089439.01154,0.0,0.0,0.0,3.72423,-9.05273,-24.12152,8.7,-0.64,0.72,4.0
1758089449.15247,1758089439.02154,0.0,0.0,0.0,1.77617,-12.37589,-22.74642,7.9,-0.81,0.9,4.0
1758089449.15532,1758089439.03154,0.0,0.0,0.0,-0.40107,-17.30333,-20.85567,7.63,-1.31,0.53,4.0
1758089449.17174,1758089439.04154,0.0,0.0,0.0,-1.77617,-20.79837,-19.76705,7.63,-1.31,0.53,4.0
1758089449.1877,1758089439.05154,0.0,0.0,0.0,-3.09397,-24.12152,-18.62113,7.08,-0.95,0.23,4.0
1758089449.18891,1758089439.06154,0.0,0.0,0.0,-4.35448,-27.44468,-17.47521,7.08,-0.95,0.23,4.0
1758089449.2036,1758089439.07154,0.0,0.0,0.0,-5.95876,-33.05967,-16.04282,6.69,-0.85,0.57,4.0
1758089449.20584,1758089439.08154,0.0,0.0,0.0,-6.47442,-37.52874,-14.61043,6.69,-0.85,0.57,4.0
1758089449.22042,1758089439.09154,0.0,0.0,0.0,-7.16197,-43.60209,-13.12073,6.67,-0.92,1.32,4.0
1758089449.23798,1758089439.10154,0.0,0.0,0.0,-8.25059,-51.85268,-9.39651,6.67,-0.92,1.32,4.0
1758089449.23923,1758089439.11154,0.0,0.0,0.0,-10.02676,-67.55173,-6.58902,7.65,-0.67,3.1,4.0
1758089449.25441,1758089439.12154,0.0,0.0,0.0,-11.17268,-72.07809,-4.92744,10.85,0.36,3.54,4.0
1758089449.25556,1758089439.13154,0.0,0.0,0.0,-11.74564,-66.34852,-4.0107,10.85,0.36,3.54,4.0
1758089449.27116,1758089439.14154,0.0,0.0,0.0,-13.75099,-47.09713,-4.58366,14.72,2.34,2.45,4.0
1758089449.28773,1758089439.15154,0.0,0.0,0.0,-16.3293,-28.476,-5.72958,14.72,2.34,2.45,4.0
1758089449.28952,1758089439.16154,0.0,0.0,0.0,-20.11082,-7.16197,-6.8182,16.3,3.7,3.19,4.0
1758089449.30472,1758089439.17154,0.0,0.0,0.0,-25.49662,17.36062,-6.99009,16.3,3.7,3.19,4.0
1758089449.30566,1758089439.18154,0.0,0.0,0.0,-35.69527,41.13837,-7.39116,19.55,5.07,3.33,4.0
1758089449.32075,1758089439.19154,0.0,0.0,0.0,-42.22699,31.74186,-7.16197,17.72,4.18,1.44,4.0
1758089449.33658,1758089439.20154,0.0,0.0,0.0,-40.16434,16.04282,-7.10468,17.72,4.18,1.44,4.0
1758089449.33772,1758089439.21154,0.0,0.0,0.0,-37.92981,6.47442,-3.83882,14.47,0.56,-0.71,4.0
1758089449.35249,1758089439.22154,0.0,0.0,0.0,-42.57077,45.20637,-10.37054,14.47,0.56,-0.71,4.0
1758089449.35369,1758089439.23154,0.0,0.0,0.0,-36.84119,70.18733,-9.96947,17.3,-1.33,0.11,4.0
1758089449.36961,1758089439.24154,0.0,0.0,0.0,-27.61657,66.5204,-8.70896,17.3,-1.33,0.11,4.0
1758089449.38676,1758089439.25154,0.0,0.0,0.0,-19.70975,59.12925,-6.24524,13.03,-1.58,3.01,4.0
1758089449.38771,1758089439.26154,0.0,0.0,0.0,-9.33921,53.17049,-2.34913,13.71,-0.89,3.03,4.0
1758089449.43375,1758089439.27154,0.0,0.0,0.0,-3.89611,43.4875,0.97403,13.71,-0.89,3.03,4.0
1758089449.44404,1758089439.28154,0.0,0.0,0.0,2.23454,32.54401,4.87014,12.01,0.1,0.0,4.0
1758089449.44595,1758089439.29154,0.0,0.0,0.0,7.21927,25.26744,8.0787,12.01,0.1,0.0,4.0
1758089449.46833,1758089439.30154,0.0,0.0,0.0,13.98017,22.23076,11.22997,10.52,0.97,0.66,4.0
1758089449.46896,1758089439.31154,0.0,0.0,0.0,15.69904,29.67921,11.34457,10.52,0.97,0.66,4.0
1758089449.4758,1758089439.32154,0.0,0.0,0.0,15.92823,37.12767,10.31324,10.09,1.41,1.11,4.0
1758089449.47914,1758089439.33154,0.0,0.0,0.0,13.98017,34.43476,6.41713,10.09,1.41,1.11,4.0
1758089449.47951,1758089439.34154,0.0,0.0,0.0,13.5218,26.12688,4.81285,8.36,1.63,3.1,4.0
1758089449.48392,1758089439.35154,0.0,0.0,0.0,12.43318,22.74642,2.86479,7.63,1.53,2.21,4.0
1758089449.48552,1758089439.36154,0.0,0.0,0.0,10.8862,22.28806,0.80214,7.63,1.53,2.21,4.0
1758089449.50161,1758089439.37154,0.0,0.0,0.0,8.59437,19.99623,-1.43239,7.59,1.4,1.32,4.0
1758089449.51761,1758089439.38154,0.0,0.0,0.0,7.39116,17.58981,-2.11994,7.59,1.4,1.32,4.0
1758089449.52523,1758089439.39154,0.0,0.0,0.0,6.35983,17.13144,-2.29183,6.88,1.41,1.29,4.0
1758089449.56549,1758089439.40154,0.0,0.0,0.0,5.55769,16.90226,-1.71887,6.88,1.41,1.29,4.0
1758089449.56758,1758089439.41154,0.0,0.0,0.0,5.27121,15.0115,-0.34377,7.08,1.44,1.6,4.0
1758089449.56812,1758089439.42154,0.0,0.0,0.0,5.15662,12.83425,0.80214,7.24,1.45,1.46,4.0
1758089449.57128,1758089439.43154,0.0,0.0,0.0,4.98473,11.28727,1.83346,7.24,1.45,1.46,4.0
1758089449.57317,1758089439.44154,0.0,0.0,0.0,4.64096,9.74028,2.6929,7.74,1.39,1.34,4.0
1758089449.57443,1758089439.45154,0.0,0.0,0.0,3.83882,6.8182,3.20856,7.74,1.39,1.34,4.0
1758089449.59122,1758089439.46154,0.0,0.0,0.0,2.92208,5.55769,2.92208,7.93,1.24,1.03,4.0
1758089449.60656,1758089439.47154,0.0,0.0,0.0,1.60428,4.52637,2.46372,7.93,1.24,1.03,4.0
1758089449.61102,1758089439.48154,0.0,0.0,0.0,0.0,2.92208,2.06265,8.13,1.09,0.85,4.0
1758089449.62656,1758089439.49154,0.0,0.0,0.0,-2.46372,0.11459,1.60428,8.2,1.07,0.72,4.0
1758089449.62786,1758089439.50154,0.0,0.0,0.0,-4.18259,-1.3751,1.77617,8.2,1.07,0.72,4.0
1758089449.64733,1758089439.51154,0.0,0.0,0.0,-5.61499,-2.7502,2.34913,8.42,1.04,0.61,4.0
1758089449.65014,1758089439.52154,0.0,0.0,0.0,-6.87549,-4.52637,3.55234,8.42,1.04,0.61,4.0
1758089449.66654,1758089439.53154,0.0,0.0,0.0,-7.84952,-7.96411,4.64096,8.29,0.91,0.49,4.0
1758089449.66778,1758089439.54154,0.0,0.0,0.0,-8.36518,-10.31324,5.78687,8.29,0.91,0.49,4.0
1758089449.68285,1758089439.55154,0.0,0.0,0.0,-8.59437,-12.71966,6.99009,8.09,0.73,0.47,4.0
1758089449.68379,1758089439.56154,0.0,0.0,0.0,-9.11003,-14.49583,8.99544,8.09,0.73,0.47,4.0
1758089449.69991,1758089439.57154,0.0,0.0,0.0,-9.5684,-14.78231,10.19865,8.21,0.63,0.51,4.0
1758089449.7159,1758089439.58154,0.0,0.0,0.0,-10.02676,-15.29797,11.74564,8.64,0.61,0.7,4.0
1758089449.71842,1758089439.59154,0.0,0.0,0.0,-10.02676,-15.98552,13.46451,8.64,0.61,0.7,4.0
1758089449.7337,1758089439.60154,0.0,0.0,0.0,-10.48513,-14.72501,16.73037,9.54,0.58,0.78,4.0
1758089449.73513,1758089439.61154,0.0,0.0,0.0,-10.8289,-13.98017,19.19409,9.54,0.58,0.78,4.0
1758089449.75117,1758089439.62154,0.0,0.0,0.0,-11.22997,-13.5218,21.60051,10.67,0.55,0.76,4.0
1758089449.76662,1758089439.63154,0.0,0.0,0.0,-11.63104,-13.23533,23.54857,10.67,0.55,0.76,4.0
1758089449.76742,1758089439.64154,0.0,0.0,0.0,-11.63104,-12.43318,25.8404,11.11,0.35,0.53,4.0
1758089449.78262,1758089439.65154,0.0,0.0,0.0,-11.17268,-12.71966,26.64254,10.67,0.06,0.34,4.0
1758089449.78932,1758089439.66154,0.0,0.0,0.0,-9.96947,-13.40721,27.10091,10.67,0.06,0.34,4.0
1758089449.80671,1758089439.67154,0.0,0.0,0.0,-8.65166,-14.49583,27.33009,9.96,-0.03,0.35,4.0
1758089449.80924,1758089439.68154,0.0,0.0,0.0,-6.07335,-17.58981,27.04361,9.96,-0.03,0.35,4.0
1758089449.82569,1758089439.69154,0.0,0.0,0.0,-4.35448,-19.70975,26.64254,9.19,0.06,0.37,4.0
1758089449.82767,1758089439.70154,0.0,0.0,0.0,-2.92208,-21.48592,25.72581,9.19,0.06,0.37,4.0
1758089449.84264,1758089439.71154,0.0,0.0,0.0,-0.85944,-20.22541,24.4653,8.57,0.31,0.23,4.0
1758089449.84382,1758089439.72154,0.0,0.0,0.0,2.06265,-13.5791,22.86102,8.29,0.62,0.31,4.0
1758089449.85963,1758089439.73154,0.0,0.0,0.0,3.83882,-8.02141,21.7151,8.29,0.62,0.31,4.0
1758089449.86418,1758089439.74154,0.0,0.0,0.0,4.98473,-5.32851,20.16812,7.66,0.91,0.57,4.0
1758089449.87971,1758089439.75154,0.0,0.0,0.0,6.24524,-4.98473,18.16276,7.66,0.91,0.57,4.0
1758089449.884,1758089439.76154,0.0,0.0,0.0,6.87549,-5.15662,16.84496,7.32,1.07,0.16,4.0
1758089449.90392,1758089439.77154,0.0,0.0,0.0,6.99009,-6.18794,16.21471,7.32,1.07,0.16,4.0
1758089449.90511,1758089439.78154,0.0,0.0,0.0,7.10468,-7.79223,15.58445,7.52,0.98,-0.19,4.0
1758089449.92122,1758089439.79154,0.0,0.0,0.0,7.96411,-13.00614,14.78231,7.52,0.98,-0.19,4.0
1758089449.93755,1758089439.80154,0.0,0.0,0.0,8.47978,-18.10547,14.15206,7.44,0.72,-0.06,4.0
1758089449.93823,1758089439.81154,0.0,0.0,0.0,9.39651,-24.4653,12.77696,7.02,0.42,0.73,4.0
1758089449.95363,1758089439.82154,0.0,0.0,0.0,10.25595,-31.62727,11.86023,7.02,0.42,0.73,4.0
1758089449.95564,1758089439.83154,0.0,0.0,0.0,10.71431,-45.49285,9.96947,6.82,0.11,2.3,4.0
1758089449.97151,1758089439.84154,0.0,0.0,0.0,11.17268,-51.10783,9.96947,6.82,0.11,2.3,4.0
1758089449.98878,1758089439.85154,0.0,0.0,0.0,11.57375,-55.6915,8.99544,8.31,-0.44,3.03,4.0
1758089449.98918,1758089439.86154,0.0,0.0,0.0,13.5791,-59.01466,7.67763,8.31,-0.44,3.03,4.0
1758089450.00695,1758089439.87154,0.0,0.0,0.0,20.34,-65.37449,8.42248,10.3,-1.31,3.13,4.0
1758089450.00735,1758089439.88154,0.0,0.0,0.0,25.72581,-62.96807,11.63104,12.05,-2.87,2.87,4.0
1758089450.02296,1758089439.89154,0.0,0.0,0.0,32.77319,-61.30648,13.69369,12.05,-2.87,2.87,4.0
1758089450.02433,1758089439.90154,0.0,0.0,0.0,38.78925,-47.32632,9.4538,16.09,-4.57,4.5,4.0
1758089450.04269,1758089439.91154,0.0,0.0,0.0,50.2484,-34.43476,5.78687,16.09,-4.57,4.5,4.0
1758089450.04388,1758089439.92154,0.0,0.0,0.0,52.08187,-50.93595,-4.81285,19.52,-7.31,1.98,4.0
1758089450.06267,1758089439.93154,0.0,0.0,0.0,54.71747,-29.33544,-7.73493,19.52,-7.31,1.98,4.0
1758089450.06388,1758089439.94154,0.0,0.0,0.0,58.04062,-11.28727,-4.46907,19.12,-4.58,-1.14,4.0
1758089450.07872,1758089439.95154,0.0,0.0,0.0,61.87944,16.38659,1.14592,14.56,-0.57,-1.16,4.0
1758089450.09554,1758089439.96154,0.0,0.0,0.0,62.96807,32.77319,7.39116,14.56,-0.57,-1.16,4.0
1758089450.09749,1758089439.97154,0.0,0.0,0.0,60.79083,40.7946,12.2613,12.5,0.67,1.91,4.0
1758089450.1127,1758089439.98154,0.0,0.0,0.0,52.54023,47.38361,15.06879,12.5,0.67,1.91,4.0
1758089450.11443,1758089439.99154,0.0,0.0,0.0,46.06581,49.15978,14.03747,12.48,0.94,2.59,4.0
1758089450.13074,1758089440.00154,0.0,0.0,0.0,40.39353,41.94051,13.17803,12.48,0.94,2.59,4.0
1758089450.14804,1758089440.01154,0.0,0.0,0.0,34.77854,33.9764,12.14671,11.72,0.62,1.94,4.0
1758089450.14844,1758089440.02154,0.0,0.0,0.0,28.87707,48.75871,8.36518,12.85,0.62,0.86,4.0
1758089450.16367,1758089440.03154,0.0,0.0,0.0,26.35606,58.15522,6.35983,12.85,-0.33,0.86,4.0
1758089450.16887,1758089440.04154,0.0,0.0,0.0,24.5226,55.57691,3.89611,11.79,-1.11,1.91,4.0
1758089450.18375,1758089440.05154,0.0,0.0,0.0,22.97561,52.13916,1.71887,11.79,-1.11,1.91,4.0
1758089450.18578,1758089440.06154,0.0,0.0,0.0,19.76705,48.35764,0.22918,11.23,-1.4,2.0,4.0
1758089450.2007,1758089440.07154,0.0,0.0,0.0,17.24603,40.68,0.34377,11.23,-1.4,2.0,4.0
1758089450.20195,1758089440.08154,0.0,0.0,0.0,15.75634,28.87707,2.11994,10.46,-1.3,1.29,4.0
1758089450.21734,1758089440.09154,0.0,0.0,0.0,14.83961,20.62648,4.0107,10.46,-1.3,1.29,4.0
1758089450.23378,1758089440.10154,0.0,0.0,0.0,15.35527,13.5791,7.73493,9.87,-1.1,1.37,4.0
1758089450.23606,1758089440.11154,0.0,0.0,0.0,15.87093,12.60507,8.65166,9.72,-0.94,1.72,4.0
1758089450.25081,1758089440.12154,0.0,0.0,0.0,14.9542,11.17268,8.36518,9.72,-0.94,1.72,4.0
1758089450.25274,1758089440.13154,0.0,0.0,0.0,13.98017,17.81899,7.33386,9.69,-0.66,2.25,4.0
1758089450.26831,1758089440.14154,0.0,0.0,0.0,11.63104,29.50733,3.03668,9.69,-0.66,2.25,4.0
1758089450.28369,1758089440.15154,0.0,0.0,0.0,9.62569,33.86181,-0.11459,9.69,-0.41,2.03,4.0
1758089450.28493,1758089440.16154,0.0,0.0,0.0,8.136,33.46074,-1.48969,9.69,-0.41,2.03,4.0
1758089450.30003,1758089440.17154,0.0,0.0,0.0,6.8182,28.76248,-2.34913,8.53,-0.39,2.05,4.0
1758089450.30177,1758089440.18154,0.0,0.0,0.0,6.13065,26.12688,-2.86479,8.36,-0.6,1.26,4.0
1758089450.31814,1758089440.19154,0.0,0.0,0.0,5.61499,23.54857,-3.09397,8.36,-0.6,1.26,4.0
1758089450.33383,1758089440.20154,0.0,0.0,0.0,5.55769,20.22541,-3.20856,8.22,-0.79,0.97,4.0
1758089450.33504,1758089440.21154,0.0,0.0,0.0,5.95876,16.272,-2.92208,8.22,-0.79,0.97,4.0
1758089450.34993,1758089440.22154,0.0,0.0,0.0,6.35983,14.61043,-2.86479,8.12,-0.96,1.04,4.0
1758089450.3526,1758089440.23154,0.0,0.0,0.0,6.99009,12.89155,-2.86479,8.12,-0.96,1.04,4.0
1758089450.3727,1758089440.24154,0.0,0.0,0.0,7.84952,11.22997,-2.97938,8.05,-1.07,0.95,4.0
1758089450.37298,1758089440.25154,0.0,0.0,0.0,9.11003,9.28192,-3.83882,8.01,-1.2,0.9,4.0
1758089450.39396,1758089440.26154,0.0,0.0,0.0,10.02676,7.96411,-4.46907,8.01,-1.2,0.9,4.0
1758089450.42316,1758089440.27154,0.0,0.0,0.0,10.8289,6.07335,-5.15662,7.92,-1.26,0.68,4.0
1758089450.42378,1758089440.28154,0.0,0.0,0.0,11.63104,3.95341,-5.61499,7.92,-1.26,0.68,4.0
1758089450.42436,1758089440.29154,0.0,0.0,0.0,12.204,-0.11459,-5.95876,7.71,-1.26,0.44,4.0
1758089450.4323,1758089440.30154,0.0,0.0,0.0,12.37589,-3.66693,-5.95876,7.71,-1.26,0.44,4.0
1758089450.43269,1758089440.31154,0.0,0.0,0.0,12.37589,-7.50575,-5.90147,7.33,-1.21,0.29,4.0
1758089450.44929,1758089440.32154,0.0,0.0,0.0,12.2613,-11.11538,-5.61499,7.33,-1.21,0.29,4.0
1758089450.46483,1758089440.33154,0.0,0.0,0.0,12.83425,-16.38659,-4.98473,7.09,-1.13,0.37,4.0
1758089450.46681,1758089440.34154,0.0,0.0,0.0,13.34992,-19.59516,-4.69825,7.0,-1.02,0.56,4.0
1758089450.4829,1758089440.35154,0.0,0.0,0.0,13.86558,-22.57454,-4.52637,7.0,-1.02,0.56,4.0
1758089450.48396,1758089440.36154,0.0,0.0,0.0,14.72501,-24.92367,-5.27121,7.28,-0.94,0.81,4.0
1758089450.49885,1758089440.37154,0.0,0.0,0.0,15.35527,-26.47065,-6.07335,7.28,-0.94,0.81,4.0
1758089450.50354,1758089440.38154,0.0,0.0,0.0,16.21471,-26.12688,-7.21927,7.95,-0.89,1.0,4.0
1758089450.51887,1758089440.39154,0.0,0.0,0.0,16.84496,-25.72581,-8.30789,7.95,-0.89,1.0,4.0
1758089450.54444,1758089440.40154,0.0,0.0,0.0,17.58981,-24.98096,-10.37054,8.51,-0.88,1.1,4.0
1758089450.54649,1758089440.41154,0.0,0.0,0.0,18.10547,-24.35071,-11.97482,9.01,-0.9,1.13,4.0
1758089450.54704,1758089440.42154,0.0,0.0,0.0,18.50654,-23.54857,-13.34992,9.01,-0.9,1.13,4.0
1758089450.56288,1758089440.43154,0.0,0.0,0.0,18.50654,-22.68913,-14.38124,9.36,-0.93,1.05,4.0
1758089450.56436,1758089440.44154,0.0,0.0,0.0,18.27736,-21.42862,-15.75634,9.36,-0.93,1.05,4.0
1758089450.57889,1758089440.45154,0.0,0.0,0.0,17.87628,-21.31403,-16.3293,9.33,-0.99,1.01,4.0
1758089450.59519,1758089440.46154,0.0,0.0,0.0,17.58981,-20.97026,-16.50119,9.33,-0.99,1.01,4.0
1758089450.59641,1758089440.47154,0.0,0.0,0.0,16.73037,-21.02755,-16.38659,8.97,-1.02,0.88,4.0
1758089450.61096,1758089440.48154,0.0,0.0,0.0,15.75634,-20.34,-15.69904,8.55,-1.04,0.78,4.0
1758089450.61294,1758089440.49154,0.0,0.0,0.0,14.9542,-19.59516,-15.29797,8.55,-1.04,0.78,4.0
1758089450.62892,1758089440.50154,0.0,0.0,0.0,14.20935,-19.19409,-14.66772,8.07,-1.09,0.71,4.0
1758089450.64527,1758089440.51154,0.0,0.0,0.0,13.98017,-18.56383,-14.15206,8.07,-1.09,0.71,4.0
1758089450.64845,1758089440.52154,0.0,0.0,0.0,12.89155,-12.71966,-14.15206,7.84,-1.08,0.2,4.0
1758089450.66731,1758089440.53154,0.0,0.0,0.0,12.43318,-8.42248,-13.86558,7.84,-1.08,0.2,4.0
1758089450.67394,1758089440.54154,0.0,0.0,0.0,11.86023,-6.18794,-13.46451,7.55,-0.96,-0.02,4.0
1758089450.67885,1758089440.55154,0.0,0.0,0.0,11.22997,-6.24524,-12.49048,7.55,-0.96,-0.02,4.0
1758089450.70648,1758089440.56154,0.0,0.0,0.0,10.02676,-9.62569,-10.94349,6.78,-0.79,0.04,4.0
1758089450.70924,1758089440.57154,0.0,0.0,0.0,9.05273,-14.32395,-9.4538,6.64,-0.51,0.64,4.0
1758089450.71159,1758089440.58154,0.0,0.0,0.0,8.42248,-21.7151,-7.50575,6.64,-0.51,0.64,4.0
1758089450.71347,1758089440.59154,0.0,0.0,0.0,7.79223,-33.68992,-3.83882,7.63,0.09,2.24,4.0
1758089450.7292,1758089440.60154,0.0,0.0,0.0,6.99009,-39.01843,-1.83346,7.63,0.09,2.24,4.0
1758089450.73252,1758089440.61154,0.0,0.0,0.0,5.15662,-39.01843,-0.68755,11.45,0.95,3.93,4.0
1758089450.74846,1758089440.62154,0.0,0.0,0.0,1.3178,-35.2942,-1.48969,11.45,0.95,3.93,4.0
1758089450.76386,1758089440.63154,0.0,0.0,0.0,-6.58902,-31.2262,-5.09932,15.29,2.49,4.38,4.0
1758089450.76609,1758089440.64154,0.0,0.0,0.0,-14.15206,-23.37668,-7.62034,16.22,3.69,4.57,4.0
1758089450.78098,1758089440.65154,0.0,0.0,0.0,-22.68913,-14.9542,-9.91217,16.22,3.69,4.57,4.0
1758089450.78375,1758089440.66154,0.0,0.0,0.0,-30.76784,-11.11538,-10.25595,16.84,4.5,3.19,4.0
1758089450.80421,1758089440.67154,0.0,0.0,0.0,-38.38818,-25.49662,-6.70361,16.84,4.5,3.19,4.0
1758089450.80915,1758089440.68154,0.0,0.0,0.0,-39.24761,-22.86102,-4.58366,14.83,2.66,0.52,4.0
1758089450.82399,1758089440.69154,0.0,0.0,0.0,-41.36755,-4.64096,-7.79223,14.83,2.66,0.52,4.0
1758089450.82651,1758089440.70154,0.0,0.0,0.0,-39.87786,15.35527,-10.8862,16.0,0.05,-0.82,4.0
1758089450.8426,1758089440.71154,0.0,0.0,0.0,-33.23156,29.50733,-16.90226,14.03,-1.1,1.77,4.0
1758089450.84806,1758089440.72154,0.0,0.0,0.0,-25.8404,34.09099,-18.44924,14.03,-1.1,1.77,4.0
1758089450.86329,1758089440.73154,0.0,0.0,0.0,-17.87628,37.81522,-17.6471,13.87,-1.45,2.14,4.0
1758089450.86419,1758089440.74154,0.0,0.0,0.0,-9.68299,39.82057,-14.03747,13.87,-1.45,2.14,4.0
1758089450.87888,1758089440.75154,0.0,0.0,0.0,0.97403,37.58603,-5.72958,13.87,-0.91,1.32,4.0
1758089450.91679,1758089440.76154,0.0,0.0,0.0,6.58902,34.49206,-0.40107,13.87,-0.91,1.32,4.0
1758089450.9193,1758089440.77154,0.0,0.0,0.0,11.28727,29.04896,3.66693,13.09,-0.22,1.09,4.0
1758089450.91995,1758089440.78154,0.0,0.0,0.0,16.21471,24.12152,6.18794,13.09,-0.22,1.09,4.0
1758089450.92119,1758089440.79154,0.0,0.0,0.0,18.10547,16.67307,5.84417,11.93,0.15,0.85,4.0
1758089450.93607,1758089440.80154,0.0,0.0,0.0,19.07949,13.40721,4.35448,11.08,0.42,0.96,4.0
1758089450.93723,1758089440.81154,0.0,0.0,0.0,18.73572,16.38659,2.23454,11.08,0.42,0.96,4.0
1758089450.95209,1758089440.82154,0.0,0.0,0.0,18.16276,30.99702,-0.34377,11.25,0.76,1.24,4.0
1758089450.95321,1758089440.83154,0.0,0.0,0.0,17.47521,34.0337,-1.94806,11.25,0.76,1.24,4.0
1758089450.96825,1758089440.84154,0.0,0.0,0.0,17.13144,31.62727,-2.86479,9.82,0.99,2.28,4.0
1758089450.98407,1758089440.85154,0.0,0.0,0.0,16.67307,29.9084,-3.49504,9.82,0.99,2.28,4.0
1758089450.98922,1758089440.86154,0.0,0.0,0.0,16.04282,27.44468,-4.35448,8.99,1.03,2.09,4.0
1758089451.00601,1758089440.87154,0.0,0.0,0.0,15.92823,24.63719,-4.81285,8.47,0.97,1.47,4.0
1758089451.00804,1758089440.88154,0.0,0.0,0.0,15.98552,21.48592,-4.98473,8.47,0.97,1.47,4.0
1758089451.02305,1758089440.89154,0.0,0.0,0.0,16.67307,18.56383,-4.69825,7.96,0.82,1.32,4.0
1758089451.02427,1758089440.90154,0.0,0.0,0.0,17.87628,15.69904,-3.49504,7.96,0.82,1.32,4.0
1758089451.03924,1758089440.91154,0.0,0.0,0.0,18.9649,15.12609,-2.34913,7.82,0.6,1.16,4.0
1758089451.05537,1758089440.92154,0.0,0.0,0.0,19.99623,15.24068,-1.14592,7.82,0.6,1.16,4.0
1758089451.05667,1758089440.93154,0.0,0.0,0.0,20.68378,16.55848,0.11459,7.92,0.48,1.19,4.0
1758089451.0721,1758089440.94154,0.0,0.0,0.0,21.37133,18.50654,1.83346,8.23,0.43,1.25,4.0
1758089451.07389,1758089440.95154,0.0,0.0,0.0,21.60051,19.36597,2.6929,8.23,0.43,1.25,4.0
1758089451.09309,1758089440.96154,0.0,0.0,0.0,21.08485,20.05352,3.55234,8.6,0.56,1.13,4.0
1758089451.09425,1758089440.97154,0.0,0.0,0.0,20.3973,19.59516,4.64096,8.6,0.56,1.13,4.0
1758089451.10908,1758089440.98154,0.0,0.0,0.0,18.62113,19.07949,5.21392,8.84,0.79,0.83,4.0
1758089451.11351,1758089440.99154,0.0,0.0,0.0,17.53251,19.13679,5.78687,8.84,0.79,0.83,4.0
1758089451.12908,1758089441.00154,0.0,0.0,0.0,16.50119,18.79302,6.07335,8.95,0.92,0.43,4.0
1758089451.14608,1758089441.01154,0.0,0.0,0.0,14.78231,17.53251,6.47442,8.95,0.92,0.43,4.0
1758089451.14729,1758089441.02154,0.0,0.0,0.0,13.86558,16.10011,7.04738,8.9,0.87,0.17,4.0
1758089451.16323,1758089441.03154,0.0,0.0,0.0,12.77696,14.20935,7.73493,8.9,0.69,0.01,4.0
1758089451.1641,1758089441.04154,0.0,0.0,0.0,11.63104,11.63104,8.65166,8.9,0.69,0.01,4.0
1758089451.17911,1758089441.05154,0.0,0.0,0.0,10.19865,7.33386,10.54242,8.91,0.53,-0.19,4.0
1758089451.19931,1758089441.06154,0.0,0.0,0.0,9.39651,3.83882,11.80293,8.91,0.53,-0.19,4.0
1758089451.20776,1758089441.07154,0.0,0.0,0.0,8.76626,0.0,13.12073,8.79,0.45,-0.35,4.0
1758089451.2539,1758089441.08154,0.0,0.0,0.0,8.136,-3.83882,14.38124,8.79,0.45,-0.35,4.0
1758089451.2595,1758089441.09154,0.0,0.0,0.0,7.33386,-9.4538,15.64175,8.53,0.44,-0.33,4.0
1758089451.25976,1758089441.10154,0.0,0.0,0.0,6.8182,-13.69369,15.92823,8.24,0.48,-0.26,4.0
1758089451.26262,1758089441.11154,0.0,0.0,0.0,6.47442,-18.62113,16.10011,8.24,0.48,-0.26,4.0
1758089451.26324,1758089441.12154,0.0,0.0,0.0,6.18794,-22.51724,16.10011,8.1,0.56,-0.1,4.0
1758089451.264,1758089441.13154,0.0,0.0,0.0,6.24524,-28.70519,16.04282,8.1,0.56,-0.1,4.0
1758089451.2659,1758089441.14154,0.0,0.0,0.0,6.53172,-31.79916,15.92823,8.14,0.58,-0.08,4.0
1758089451.28213,1758089441.15154,0.0,0.0,0.0,6.8182,-33.68992,15.75634,8.14,0.58,-0.08,4.0
1758089451.28339,1758089441.16154,0.0,0.0,0.0,7.44845,-34.09099,15.75634,8.15,0.49,-0.03,4.0
1758089451.29819,1758089441.17154,0.0,0.0,0.0,8.65166,-33.46074,15.46986,7.97,0.37,0.21,4.0
1758089451.31419,1758089441.18154,0.0,0.0,0.0,9.74028,-32.83048,15.29797,7.97,0.37,0.21,4.0
1758089451.31566,1758089441.19154,0.0,0.0,0.0,10.8289,-31.97105,15.12609,7.71,0.39,0.43,4.0
1758089451.33046,1758089441.20154,0.0,0.0,0.0,12.2613,-30.48136,15.0115,7.71,0.39,0.43,4.0
1758089451.33248,1758089441.21154,0.0,0.0,0.0,13.12073,-26.18417,14.61043,8.03,0.51,0.41,4.0
1758089451.3485,1758089441.22154,0.0,0.0,0.0,13.98017,-24.5226,14.72501,8.03,0.51,0.41,4.0
1758089451.36498,1758089441.23154,0.0,0.0,0.0,15.06879,-22.11617,15.06879,8.44,0.62,0.2,4.0
1758089451.37255,1758089441.24154,0.0,0.0,0.0,16.38659,-17.18874,15.58445,8.44,0.62,0.2,4.0
1758089451.3731,1758089441.25154,0.0,0.0,0.0,17.47521,-15.06879,15.87093,9.05,0.6,-0.08,4.0
1758089451.38948,1758089441.26154,0.0,0.0,0.0,18.50654,-14.32395,16.272,9.12,0.54,-0.18,4.0
1758089451.40695,1758089441.27154,0.0,0.0,0.0,19.48057,-14.83961,16.38659,9.12,0.54,-0.18,4.0
1758089451.41702,1758089441.28154,0.0,0.0,0.0,21.08485,-16.90226,16.21471,8.96,0.51,-0.2,4.0
1758089451.41759,1758089441.29154,0.0,0.0,0.0,22.28806,-19.25138,15.87093,8.96,0.51,-0.2,4.0
1758089451.43347,1758089441.30154,0.0,0.0,0.0,23.72045,-22.57454,15.12609,8.48,0.57,-0.24,4.0
1758089451.4344,1758089441.31154,0.0,0.0,0.0,25.43933,-26.64254,14.49583,8.48,0.57,-0.24,4.0
1758089451.44947,1758089441.32154,0.0,0.0,0.0,28.13223,-32.77319,14.09476,7.75,0.7,-0.17,4.0
1758089451.46729,1758089441.33154,0.0,0.0,0.0,29.8511,-36.7266,14.03747,6.91,0.81,-0.06,4.0
1758089451.46984,1758089441.34154,0.0,0.0,0.0,31.2262,-39.70598,14.43854,6.91,0.81,-0.06,4.0
1758089451.48614,1758089441.35154,0.0,0.0,0.0,32.71589,-43.25832,14.9542,6.05,0.67,0.61,4.0
1758089451.48735,1758089441.36154,0.0,0.0,0.0,34.32018,-54.14451,15.24068,6.05,0.67,0.61,4.0
1758089451.50305,1758089441.37154,0.0,0.0,0.0,33.80451,-61.65026,14.61043,5.49,0.22,2.07,4.0
1758089451.50423,1758089441.38154,0.0,0.0,0.0,33.17426,-64.91612,14.20935,5.49,0.22,2.07,4.0
1758089451.51922,1758089441.39154,0.0,0.0,0.0,32.77319,-64.51505,14.09476,8.47,-0.3,3.01,4.0
1758089451.53542,1758089441.40154,0.0,0.0,0.0,33.00237,-65.66096,13.80828,12.46,-1.87,4.39,4.0
1758089451.53643,1758089441.41154,0.0,0.0,0.0,36.26823,-69.78626,14.09476,12.46,-1.87,4.39,4.0
1758089451.55146,1758089441.42154,0.0,0.0,0.0,42.97184,-63.31184,13.23533,17.72,-4.78,6.34,4.0
1758089451.55243,1758089441.43154,0.0,0.0,0.0,59.64491,-59.12925,12.89155,17.72,-4.78,6.34,4.0
1758089451.56851,1758089441.44154,0.0,0.0,0.0,58.21251,-87.77714,4.98473,20.95,-8.52,3.65,4.0
1758089451.63361,1758089441.45154,0.0,0.0,0.0,61.02001,-78.38063,1.3751,20.95,-8.52,3.65,4.0
1758089451.63869,1758089441.46154,0.0,0.0,0.0,67.09336,-39.82057,3.26586,21.07,-6.07,-2.14,4.0
1758089451.63935,1758089441.47154,0.0,0.0,0.0,76.31798,9.33921,11.45916,21.07,-6.07,-2.9,4.0
1758089451.64379,1758089441.48154,0.0,0.0,0.0,79.41196,20.11082,11.45916,17.73,-1.46,-2.9,4.0
1758089451.64441,1758089441.49154,0.0,0.0,0.0,80.44328,37.64333,16.61578,13.59,1.74,2.68,4.0
1758089451.64653,1758089441.50154,0.0,0.0,0.0,75.28666,44.23235,16.95955,13.59,1.74,2.68,4.0
1758089451.64707,1758089441.51154,0.0,0.0,0.0,65.14531,20.45459,15.87093,12.19,2.36,2.3,4.0
1758089451.64785,1758089441.52154,0.0,0.0,0.0,55.34772,15.75634,11.11538,12.19,2.36,2.3,4.0
1758089451.66331,1758089441.53154,0.0,0.0,0.0,42.68536,23.49127,2.00535,13.9,1.96,1.5,4.0
1758089451.66454,1758089441.54154,0.0,0.0,0.0,33.23156,40.27893,-4.18259,13.9,1.96,1.5,4.0
1758089451.67919,1758089441.55154,0.0,0.0,0.0,22.00158,48.41494,-13.23533,14.82,1.18,-0.19,4.0
1758089451.69555,1758089441.56154,0.0,0.0,0.0,17.58981,46.40959,-16.90226,11.4,0.19,1.61,4.0
1758089451.69655,1758089441.57154,0.0,0.0,0.0,13.69369,44.63341,-18.9649,11.4,0.19,1.61,4.0
1758089451.73649,1758089441.58154,0.0,0.0,0.0,9.74028,41.65404,-20.68378,10.46,-0.28,0.71,4.0
1758089451.73743,1758089441.59154,0.0,0.0,0.0,8.02141,35.52338,-18.33465,10.46,-0.28,0.71,4.0
1758089451.73809,1758089441.60154,0.0,0.0,0.0,8.02141,30.13758,-16.38659,9.44,-0.63,0.86,4.0
1758089451.73946,1758089441.61154,0.0,0.0,0.0,8.93814,25.09555,-13.80828,9.44,-0.63,0.86,4.0
1758089451.75449,1758089441.62154,0.0,0.0,0.0,11.17268,18.62113,-9.85487,8.4,-1.06,0.63,4.0
1758089451.75632,1758089441.63154,0.0,0.0,0.0,12.83425,13.00614,-7.50575,7.82,-1.54,0.85,4.0
1758089451.77131,1758089441.64154,0.0,0.0,0.0,14.15206,12.71966,-5.90147,7.82,-1.54,0.85,4.0
1758089451.77255,1758089441.65154,0.0,0.0,0.0,15.06879,15.29797,-4.52637,8.01,-1.78,0.82,4.0
1758089451.78837,1758089441.66154,0.0,0.0,0.0,15.46986,26.41335,-4.23989,8.01,-1.78,0.82,4.0
1758089451.80462,1758089441.67154,0.0,0.0,0.0,16.10011,32.20023,-3.32316,8.39,-1.73,0.95,4.0
1758089451.80561,1758089441.68154,0.0,0.0,0.0,17.01685,32.14294,-2.29183,8.39,-1.73,0.95,4.0
1758089451.82113,1758089441.69154,0.0,0.0,0.0,17.47521,26.35606,-1.03132,7.38,-1.41,1.39,4.0
1758089451.8239,1758089441.70154,0.0,0.0,0.0,17.87628,19.88164,0.80214,7.49,-1.05,0.62,4.0
1758089451.84146,1758089441.71154,0.0,0.0,0.0,17.81899,15.58445,1.3751,7.49,-1.05,0.62,4.0
1758089451.84395,1758089441.72154,0.0,0.0,0.0,17.93358,11.97482,1.83346,8.19,-0.77,0.09,4.0
1758089451.86105,1758089441.73154,0.0,0.0,0.0,18.22006,10.8862,2.34913,8.19,-0.77,0.09,4.0
1758089451.86306,1758089441.74154,0.0,0.0,0.0,18.9649,9.11003,2.63561,8.93,-0.72,0.25,4.0
1758089451.87933,1758089441.75154,0.0,0.0,0.0,19.53786,8.42248,2.6929,8.93,-0.72,0.25,4.0
1758089451.89569,1758089441.76154,0.0,0.0,0.0,20.34,7.96411,2.6929,9.25,-0.9,0.48,4.0
1758089451.89692,1758089441.77154,0.0,0.0,0.0,21.25674,6.99009,2.92208,9.25,-0.9,0.48,4.0
1758089451.91167,1758089441.78154,0.0,0.0,0.0,22.23076,4.1253,3.26586,9.28,-1.15,0.43,4.0
1758089451.91258,1758089441.79154,0.0,0.0,0.0,22.68913,1.71887,3.38045,9.22,-1.28,0.24,4.0
1758089451.92866,1758089441.80154,0.0,0.0,0.0,22.68913,0.11459,3.20856,9.22,-1.28,0.24,4.0
1758089451.94468,1758089441.81154,0.0,0.0,0.0,22.40265,-1.77617,2.40642,9.24,-1.28,0.09,4.0
1758089451.94636,1758089441.82154,0.0,0.0,0.0,21.88699,-5.61499,2.29183,9.24,-1.28,0.09,4.0
1758089451.96133,1758089441.83154,0.0,0.0,0.0,21.02755,-7.79223,1.83346,9.13,-1.17,0.11,4.0
1758089451.96333,1758089441.84154,0.0,0.0,0.0,20.05352,-9.39651,1.60428,9.13,-1.17,0.11,4.0
1758089451.97825,1758089441.85154,0.0,0.0,0.0,18.62113,-11.86023,0.68755,8.97,-1.05,0.33,4.0
1758089451.99438,1758089441.86154,0.0,0.0,0.0,17.99088,-13.34992,0.11459,8.66,-1.05,0.44,4.0
1758089451.99634,1758089441.87154,0.0,0.0,0.0,17.53251,-14.72501,-0.22918,8.66,-1.05,0.44,4.0
1758089452.01369,1758089441.88154,0.0,0.0,0.0,17.13144,-15.35527,-0.68755,8.4,-1.09,0.55,4.0
1758089452.01568,1758089441.89154,0.0,0.0,0.0,16.90226,-15.87093,-1.43239,8.4,-1.09,0.55,4.0
1758089452.03123,1758089441.90154,0.0,0.0,0.0,16.95955,-15.75634,-1.94806,8.26,-1.06,0.51,4.0
1758089452.03235,1758089441.91154,0.0,0.0,0.0,17.24603,-15.41257,-2.7502,8.26,-1.06,0.51,4.0
1758089452.05164,1758089441.92154,0.0,0.0,0.0,17.53251,-14.32395,-3.66693,8.33,-1.01,0.42,4.0
1758089452.05441,1758089441.93154,0.0,0.0,0.0,18.50654,-11.51645,-5.72958,8.69,-1.02,0.29,4.0
1758089452.0715,1758089441.94153,0.0,0.0,0.0,19.13679,-9.4538,-6.99009,8.69,-1.02,0.29,4.0
1758089452.07246,1758089441.95153,0.0,0.0,0.0,19.59516,-8.25059,-8.42248,9.02,-1.11,0.12,4.0
1758089452.08869,1758089441.96153,0.0,0.0,0.0,20.45459,-8.65166,-9.91217,9.02,-1.11,0.12,4.0
1758089452.1046,1758089441.97153,0.0,0.0,0.0,21.7151,-11.45916,-11.91752,8.96,-1.22,0.03,4.0
1758089452.10672,1758089441.98153,0.0,0.0,0.0,22.86102,-12.71966,-12.89155,8.96,-1.22,0.03,4.0
1758089452.12167,1758089441.99153,0.0,0.0,0.0,24.29341,-12.60507,-13.40721,8.74,-1.33,-0.03,4.0
1758089452.12343,1758089442.00153,0.0,0.0,0.0,25.43933,-10.71431,-14.03747,8.74,-1.33,-0.03,4.0
1758089452.13957,1758089442.01153,0.0,0.0,0.0,26.69983,-6.35983,-14.83961,8.32,-1.38,0.14,4.0
1758089452.16332,1758089442.02153,0.0,0.0,0.0,27.1582,-4.29718,-15.24068,7.53,-1.31,0.45,4.0
1758089452.16883,1758089442.03153,0.0,0.0,0.0,27.50197,-3.32316,-15.29797,7.53,-1.31,0.45,4.0
1758089452.17396,1758089442.04153,0.0,0.0,0.0,27.61657,-3.38045,-14.15206,6.78,-1.28,0.39,4.0
1758089452.17534,1758089442.05153,0.0,0.0,0.0,27.1582,-4.1253,-13.5791,6.78,-1.28,0.39,4.0
1758089452.19286,1758089442.06153,0.0,0.0,0.0,26.87172,-4.81285,-13.06344,6.36,-1.34,0.14,4.0
1758089452.19363,1758089442.07153,0.0,0.0,0.0,26.81443,-4.69825,-12.49048,6.36,-1.34,0.14,4.0
1758089452.20842,1758089442.08153,0.0,0.0,0.0,27.44468,-7.16197,-12.60507,6.14,-1.46,0.0,4.0
1758089452.2247,1758089442.09153,0.0,0.0,0.0,28.476,-9.4538,-12.77696,5.87,-1.41,-0.02,4.0
1758089452.22889,1758089442.10153,0.0,0.0,0.0,29.8511,-11.63104,-12.14671,5.87,-1.41,-0.02,4.0
1758089452.2445,1758089442.11153,0.0,0.0,0.0,30.99702,-14.43854,-11.22997,6.28,-0.87,0.71,4.0
1758089452.2491,1758089442.12153,0.0,0.0,0.0,31.74186,-17.81899,-8.0787,6.28,-0.87,0.71,4.0
1758089452.26477,1758089442.13153,0.0,0.0,0.0,30.76784,-17.13144,-5.09932,8.41,0.03,2.06,4.0
1758089452.26566,1758089442.14153,0.0,0.0,0.0,27.96034,-14.78231,-2.7502,8.41,0.03,2.06,4.0
1758089452.2805,1758089442.15153,0.0,0.0,0.0,23.37668,-13.06344,-1.20321,12.07,1.23,3.26,4.0
1758089452.29649,1758089442.16153,0.0,0.0,0.0,13.80828,-7.79223,-0.68755,15.97,2.75,4.44,4.0
1758089452.30086,1758089442.17153,0.0,0.0,0.0,5.95876,-1.3751,0.0573,15.97,2.75,4.44,4.0
1758089452.31846,1758089442.18153,0.0,0.0,0.0,-3.60963,13.86558,2.11994,22.51,5.7,5.32,4.0
1758089452.31954,1758089442.19153,0.0,0.0,0.0,-13.34992,28.99167,1.03132,22.51,5.7,5.32,4.0
1758089452.3348,1758089442.20153,0.0,0.0,0.0,-21.31403,-8.136,-1.71887,21.81,7.48,1.52,4.0
1758089452.33732,1758089442.21153,0.0,0.0,0.0,-20.22541,-32.42941,-2.06265,21.81,7.48,1.52,4.0
1758089452.35273,1758089442.22153,0.0,0.0,0.0,-28.59059,-10.37054,-12.89155,15.92,3.52,-2.96,4.0
1758089452.35367,1758089442.23153,0.0,0.0,0.0,-30.99702,32.6013,-18.62113,15.92,3.52,-2.96,4.0
1758089452.36856,1758089442.24153,0.0,0.0,0.0,-30.30947,56.26446,-25.21014,17.54,0.41,-0.76,4.0
1758089452.38456,1758089442.25153,0.0,0.0,0.0,-26.18417,42.62806,-28.93437,10.95,-0.85,3.54,4.0
1758089452.38569,1758089442.26153,0.0,0.0,0.0,-18.85031,33.9764,-28.93437,10.95,-0.85,3.54,4.0
1758089452.40069,1758089442.27153,0.0,0.0,0.0,-5.50039,23.89234,-21.48592,12.95,-0.78,1.73,4.0
1758089452.41654,1758089442.28153,0.0,0.0,0.0,2.6929,11.57375,-14.15206,12.95,-0.78,1.73,4.0
1758089452.41767,1758089442.29153,0.0,0.0,0.0,9.68299,-2.40642,-6.35983,12.38,-0.52,-0.96,4.0
1758089452.43276,1758089442.30153,0.0,0.0,0.0,14.66772,-7.04738,-1.14592,12.38,-0.52,-0.96,4.0
1758089452.43526,1758089442.31153,0.0,0.0,0.0,19.82434,21.48592,1.08862,11.69,0.98,0.25,4.0
1758089452.45131,1758089442.32153,0.0,0.0,0.0,20.97026,35.3515,-0.0573,11.72,1.46,1.31,4.0
1758089452.45255,1758089442.33153,0.0,0.0,0.0,23.83505,39.19032,-0.97403,11.72,1.46,1.31,4.0
1758089452.46881,1758089442.34153,0.0,0.0,0.0,25.15285,29.10626,-2.6929,8.22,1.44,2.79,4.0
1758089452.4857,1758089442.35153,0.0,0.0,0.0,26.75713,11.51645,-6.07335,8.22,1.44,2.79,4.0
1758089452.48656,1758089442.36153,0.0,0.0,0.0,26.35606,4.1253,-8.47978,7.22,0.74,0.45,4.0
1758089452.50161,1758089442.37153,0.0,0.0,0.0,26.06958,-0.17189,-9.74028,7.22,0.74,0.45,4.0
1758089452.50325,1758089442.38153,0.0,0.0,0.0,26.41335,-5.21392,-10.8289,7.38,0.38,-0.28,4.0
1758089452.51884,1758089442.39153,0.0,0.0,0.0,27.44468,-11.57375,-10.94349,7.53,0.25,1.03,4.0
1758089452.53547,1758089442.40153,0.0,0.0,0.0,28.476,-12.08941,-10.65701,7.53,0.25,1.03,4.0
1758089452.53733,1758089442.41153,0.0,0.0,0.0,29.50733,-10.94349,-9.74028,8.71,0.37,1.15,4.0
1758089452.5528,1758089442.42153,0.0,0.0,0.0,29.9084,-8.59437,-8.76626,8.71,0.37,1.15,4.0
1758089452.55377,1758089442.43153,0.0,0.0,0.0,30.19488,-0.57296,-6.87549,9.51,0.78,1.13,4.0
1758089452.56859,1758089442.44153,0.0,0.0,0.0,30.25217,6.8182,-4.92744,9.51,0.78,1.13,4.0
1758089452.59233,1758089442.45153,0.0,0.0,0.0,30.30947,13.00614,-3.32316,10.31,1.15,1.15,4.0
1758089452.59412,1758089442.46153,0.0,0.0,0.0,29.10626,16.84496,-1.60428,10.31,1.15,1.15,4.0
1758089452.59584,1758089442.47153,0.0,0.0,0.0,28.01764,17.47521,-1.20321,10.25,1.32,1.07,4.0
1758089452.61276,1758089442.48153,0.0,0.0,0.0,27.1582,17.24603,-0.34377,10.01,1.18,0.62,4.0
1758089452.61377,1758089442.49153,0.0,0.0,0.0,26.35606,17.18874,0.40107,10.01,1.18,0.62,4.0
1758089452.62889,1758089442.50153,0.0,0.0,0.0,25.89769,18.9649,1.83346,9.85,0.98,0.31,4.0
1758089452.64697,1758089442.51153,0.0,0.0,0.0,26.18417,22.23076,3.26586,9.85,0.98,0.31,4.0
1758089452.64816,1758089442.52153,0.0,0.0,0.0,26.64254,24.86637,4.52637,10.01,0.71,0.44,4.0
1758089452.66348,1758089442.53153,0.0,0.0,0.0,27.33009,26.98631,5.95876,10.01,0.71,0.44,4.0
1758089452.66912,1758089442.54153,0.0,0.0,0.0,28.59059,28.476,8.136,10.05,0.55,0.6,4.0
1758089452.68388,1758089442.55153,0.0,0.0,0.0,29.22085,28.07493,9.62569,9.98,0.59,0.49,4.0
1758089452.68482,1758089442.56153,0.0,0.0,0.0,29.73651,27.44468,11.17268,9.98,0.59,0.49,4.0
1758089452.70305,1758089442.57153,0.0,0.0,0.0,30.36677,26.24147,12.43318,9.92,0.72,0.28,4.0
1758089452.70427,1758089442.58153,0.0,0.0,0.0,31.16891,24.23611,14.15206,9.92,0.72,0.28,4.0
1758089452.72151,1758089442.59153,0.0,0.0,0.0,31.2262,23.66316,14.83961,9.89,0.87,0.24,4.0
1758089452.72401,1758089442.60153,0.0,0.0,0.0,31.16891,22.68913,15.69904,9.89,0.87,0.24,4.0
1758089452.74144,1758089442.61153,0.0,0.0,0.0,30.53865,22.00158,16.272,9.85,1.01,0.23,4.0
1758089452.74322,1758089442.62153,0.0,0.0,0.0,28.99167,20.05352,16.84496,9.68,1.23,0.28,4.0
1758089452.75861,1758089442.63153,0.0,0.0,0.0,27.67386,18.16276,17.30333,9.68,1.23,0.28,4.0
1758089452.77456,1758089442.64153,0.0,0.0,0.0,25.72581,17.18874,17.76169,9.54,1.51,0.25,4.0
1758089452.77577,1758089442.65153,0.0,0.0,0.0,22.68913,16.55848,18.44924,9.54,1.51,0.25,4.0
1758089452.79096,1758089442.66153,0.0,0.0,0.0,20.51189,15.69904,18.73572,9.52,1.8,0.32,4.0
1758089452.8069,1758089442.67153,0.0,0.0,0.0,18.33465,14.20935,19.13679,9.52,1.8,0.32,4.0
1758089452.80797,1758089442.68153,0.0,0.0,0.0,16.61578,12.54778,18.9649,9.29,1.95,0.39,4.0
1758089452.82269,1758089442.69153,0.0,0.0,0.0,14.66772,12.14671,18.10547,9.29,1.95,0.39,4.0
1758089452.82384,1758089442.70153,0.0,0.0,0.0,13.98017,12.49048,17.36062,9.37,1.82,0.43,4.0
1758089452.83891,1758089442.71153,0.0,0.0,0.0,14.09476,13.80828,16.61578,9.61,1.4,0.55,4.0
1758089452.85546,1758089442.72153,0.0,0.0,0.0,14.9542,14.09476,15.92823,9.61,1.4,0.55,4.0
1758089452.85748,1758089442.73153,0.0,0.0,0.0,17.36062,11.91752,15.75634,9.7,0.89,0.72,4.0
1758089452.87294,1758089442.74153,0.0,0.0,0.0,18.50654,6.35983,15.75634,9.7,0.89,0.72,4.0
1758089452.87386,1758089442.75153,0.0,0.0,0.0,19.48057,0.80214,16.272,9.42,0.41,0.59,4.0
1758089452.88857,1758089442.76153,0.0,0.0,0.0,20.68378,-3.72423,16.90226,9.42,0.41,0.59,4.0
1758089452.90476,1758089442.77153,0.0,0.0,0.0,21.48592,-9.22462,17.58981,9.47,0.22,0.33,4.0
1758089452.9059,1758089442.78153,0.0,0.0,0.0,21.7151,-11.28727,17.99088,9.56,0.52,0.71,4.0
1758089452.92272,1758089442.79153,0.0,0.0,0.0,21.42862,-12.37589,18.73572,9.56,0.52,0.71,4.0
1758089452.92428,1758089442.80153,0.0,0.0,0.0,21.08485,-11.97482,19.48057,10.14,1.05,1.85,4.0
1758089452.93875,1758089442.81153,0.0,0.0,0.0,19.76705,-10.8862,19.82434,10.14,1.05,1.85,4.0
1758089452.95583,1758089442.82153,0.0,0.0,0.0,18.9649,-10.48513,19.19409,11.52,1.19,2.87,4.0
1758089452.95829,1758089442.83153,0.0,0.0,0.0,18.33465,-9.39651,18.10547,11.52,1.19,2.87,4.0
1758089452.97372,1758089442.84153,0.0,0.0,0.0,18.33465,-6.53172,16.55848,12.94,1.1,3.58,4.0
1758089452.97488,1758089442.85153,0.0,0.0,0.0,19.53786,-4.1253,13.69369,12.97,0.71,2.75,4.0
1758089452.98971,1758089442.86153,0.0,0.0,0.0,20.79837,-4.35448,12.204,12.97,0.71,2.75,4.0
1758089453.00744,1758089442.87153,0.0,0.0,0.0,21.94428,-7.39116,11.11538,11.03,0.39,1.07,4.0
1758089453.00945,1758089442.88153,0.0,0.0,0.0,23.49127,-13.12073,11.57375,11.03,0.39,1.07,4.0
1758089453.02499,1758089442.89153,0.0,0.0,0.0,23.89234,-22.91831,11.74564,8.98,0.42,0.06,4.0
1758089453.02595,1758089442.90153,0.0,0.0,0.0,23.66316,-32.48671,14.66772,8.98,0.42,0.06,4.0
1758089453.04272,1758089442.91153,0.0,0.0,0.0,21.37133,-33.74722,14.83961,7.95,0.39,-0.27,4.0
1758089453.04393,1758089442.92153,0.0,0.0,0.0,18.10547,-21.94428,16.95955,7.95,0.39,0.91,4.0
1758089453.0587,1758089442.93153,0.0,0.0,0.0,16.90226,-20.05352,17.99088,8.94,0.31,0.91,4.0
1758089453.10134,1758089442.94153,0.0,0.0,0.0,14.83961,-21.42862,17.24603,7.89,0.22,2.81,4.0
1758089453.10257,1758089442.95153,0.0,0.0,0.0,12.54778,-22.51724,15.98552,7.89,0.22,2.81,4.0
1758089453.10309,1758089442.96153,0.0,0.0,0.0,9.22462,-23.94964,14.09476,8.45,0.17,3.34,4.0
1758089453.10432,1758089442.97153,0.0,0.0,0.0,7.62034,-25.09555,11.97482,8.45,0.17,3.34,4.0
1758089453.10569,1758089442.98153,0.0,0.0,0.0,6.7609,-25.43933,10.37054,9.11,-0.04,2.75,4.0
1758089453.12171,1758089442.99153,0.0,0.0,0.0,7.04738,-22.63183,8.88085,9.11,-0.04,2.75,4.0
1758089453.1229,1758089443.00153,0.0,0.0,0.0,9.5684,-11.74564,8.42248,10.16,-0.42,2.28,4.0
1758089453.13877,1758089443.01153,0.0,0.0,0.0,12.43318,-6.41713,9.22462,10.42,-0.84,2.27,4.0
1758089453.15502,1758089443.02153,0.0,0.0,0.0,15.58445,-4.29718,10.02676,10.42,-0.84,2.27,4.0
1758089453.15599,1758089443.03153,0.0,0.0,0.0,18.33465,-4.1253,10.71431,9.96,-1.15,2.37,4.0
1758089453.17077,1758089443.04153,0.0,0.0,0.0,21.6578,-4.98473,10.31324,9.96,-1.15,2.37,4.0
1758089453.18706,1758089443.05153,0.0,0.0,0.0,23.89234,-2.23454,9.74028,10.47,-1.31,1.8,4.0
1758089453.18823,1758089443.06153,0.0,0.0,0.0,26.12688,3.26586,8.99544,10.47,-1.31,1.8,4.0
1758089453.20384,1758089443.07153,0.0,0.0,0.0,28.87707,7.50575,8.0787,11.26,-1.41,1.96,4.0
1758089453.20824,1758089443.08153,0.0,0.0,0.0,29.56462,7.16197,6.47442,11.05,-1.27,2.42,4.0
1758089453.2228,1758089443.09153,0.0,0.0,0.0,30.30947,8.0787,5.90147,11.05,-1.27,2.42,4.0
1758089453.22398,1758089443.10153,0.0,0.0,0.0,31.51268,8.47978,6.07335,11.09,-1.08,2.19,4.0
1758089453.23879,1758089443.11153,0.0,0.0,0.0,32.42941,6.24524,6.24524,11.09,-1.08,2.19,4.0
1758089453.25556,1758089443.12153,0.0,0.0,0.0,32.88778,4.69825,6.41713,10.56,-0.84,1.78,4.0
1758089453.25836,1758089443.13153,0.0,0.0,0.0,33.11696,4.87014,6.8182,10.56,-0.84,1.78,4.0
1758089453.27377,1758089443.14153,0.0,0.0,0.0,34.26288,7.16197,7.16197,10.28,-0.77,1.67,4.0
1758089453.27497,1758089443.15153,0.0,0.0,0.0,36.21093,14.49583,7.79223,10.13,-0.77,1.9,4.0
1758089453.29003,1758089443.16153,0.0,0.0,0.0,37.24226,16.61578,7.96411,10.13,-0.86,1.9,4.0
1758089453.30757,1758089443.17153,0.0,0.0,0.0,37.87251,17.30333,7.79223,9.52,-0.84,2.01,4.0
1758089453.31137,1758089443.18153,0.0,0.0,0.0,37.92981,16.84496,7.67763,9.52,-0.84,2.01,4.0
1758089453.32947,1758089443.19153,0.0,0.0,0.0,37.24226,13.98017,7.79223,9.32,-0.75,1.69,4.0
1758089453.3321,1758089443.20153,0.0,0.0,0.0,36.61201,11.97482,7.84952,9.32,-0.75,1.69,4.0
1758089453.34712,1758089443.21153,0.0,0.0,0.0,35.75257,9.85487,7.96411,9.29,-0.59,1.41,4.0
1758089453.34888,1758089443.22153,0.0,0.0,0.0,34.95043,8.47978,8.02141,9.29,-0.59,1.41,4.0
1758089453.3639,1758089443.23153,0.0,0.0,0.0,33.80451,7.16197,7.96411,9.37,-0.45,1.44,4.0
1758089453.37291,1758089443.24153,0.0,0.0,0.0,33.34615,6.07335,7.62034,9.45,-0.33,1.57,4.0
1758089453.37797,1758089443.25153,0.0,0.0,0.0,33.05967,5.50039,7.44845,9.45,-0.33,1.57,4.0
1758089453.4184,1758089443.26153,0.0,0.0,0.0,32.48671,5.50039,6.7609,9.59,-0.28,1.58,4.0
1758089453.42038,1758089443.27153,0.0,0.0,0.0,32.08564,5.78687,6.24524,9.59,-0.28,1.58,4.0
1758089453.42256,1758089443.28153,0.0,0.0,0.0,31.74186,6.70361,5.95876,9.69,-0.33,1.5,4.0
1758089453.42376,1758089443.29153,0.0,0.0,0.0,31.51268,7.39116,5.55769,9.69,-0.33,1.5,4.0
1758089453.42443,1758089443.30153,0.0,0.0,0.0,30.99702,9.05273,4.87014,9.7,-0.45,1.42,4.0
1758089453.44013,1758089443.31153,0.0,0.0,0.0,30.88243,9.68299,4.46907,9.59,-0.6,1.33,4.0
1758089453.45689,1758089443.32153,0.0,0.0,0.0,30.76784,9.5684,4.0107,9.59,-0.6,1.33,4.0
1758089453.45789,1758089443.33153,0.0,0.0,0.0,30.76784,9.22462,3.66693,9.37,-0.7,1.18,4.0
1758089453.47291,1758089443.34153,0.0,0.0,0.0,30.76784,9.05273,3.32316,9.37,-0.7,1.18,4.0
1758089453.4741,1758089443.35153,0.0,0.0,0.0,30.59595,8.93814,2.97938,9.26,-0.74,1.05,4.0
1758089453.48979,1758089443.36153,0.0,0.0,0.0,30.59595,8.59437,2.86479,9.26,-0.74,1.05,4.0
1758089453.50664,1758089443.37153,0.0,0.0,0.0,30.30947,7.96411,2.57831,9.11,-0.69,0.94,4.0
1758089453.50787,1758089443.38153,0.0,0.0,0.0,29.8511,7.16197,2.40642,9.1,-0.59,0.81,4.0
1758089453.52289,1758089443.39153,0.0,0.0,0.0,29.50733,7.16197,1.94806,9.1,-0.59,0.81,4.0
1758089453.5241,1758089443.40153,0.0,0.0,0.0,28.99167,7.33386,1.43239,9.33,-0.41,0.7,4.0
1758089453.53913,1758089443.41153,0.0,0.0,0.0,28.476,7.79223,0.97403,9.33,-0.41,0.7,4.0
1758089453.55618,1758089443.42153,0.0,0.0,0.0,27.96034,8.88085,0.0,9.65,-0.23,0.68,4.0
1758089453.55872,1758089443.43153,0.0,0.0,0.0,27.73116,8.93814,-0.74485,9.65,-0.23,0.68,4.0
1758089453.57394,1758089443.44153,0.0,0.0,0.0,27.44468,8.99544,-1.43239,9.92,-0.11,0.74,4.0
1758089453.57853,1758089443.45153,0.0,0.0,0.0,27.50197,9.4538,-2.23454,9.92,-0.11,0.74,4.0
1758089453.59394,1758089443.46153,0.0,0.0,0.0,27.38738,9.33921,-3.55234,10.12,-0.11,0.76,4.0
1758089453.59593,1758089443.47153,0.0,0.0,0.0,27.1582,8.36518,-4.58366,9.94,-0.17,0.7,4.0
1758089453.61095,1758089443.48153,0.0,0.0,0.0,26.81443,8.02141,-5.32851,9.94,-0.17,0.7,4.0
1758089453.62687,1758089443.49153,0.0,0.0,0.0,25.55392,7.21927,-6.7609,9.83,-0.28,0.66,4.0
1758089453.62812,1758089443.50153,0.0,0.0,0.0,24.35071,5.27121,-7.62034,9.83,-0.28,0.66,4.0
1758089453.64284,1758089443.51153,0.0,0.0,0.0,23.26209,3.83882,-8.25059,9.64,-0.36,0.49,4.0
1758089453.64406,1758089443.52153,0.0,0.0,0.0,21.94428,1.48969,-8.88085,9.64,-0.36,0.49,4.0
1758089453.65897,1758089443.53153,0.0,0.0,0.0,20.11082,-2.57831,-9.4538,9.49,-0.39,0.43,4.0
1758089453.67598,1758089443.54153,0.0,0.0,0.0,19.13679,-4.81285,-9.68299,9.41,-0.34,0.28,4.0
1758089453.67907,1758089443.55153,0.0,0.0,0.0,18.27736,-6.41713,-9.91217,9.41,-0.34,0.28,4.0
1758089453.69432,1758089443.56153,0.0,0.0,0.0,17.6471,-8.42248,-10.19865,9.3,-0.27,0.23,4.0
1758089453.69676,1758089443.57153,0.0,0.0,0.0,17.76169,-10.94349,-10.54242,9.3,-0.27,0.23,4.0
1758089453.7123,1758089443.58153,0.0,0.0,0.0,18.73572,-12.89155,-10.54242,9.15,-0.31,0.24,4.0
1758089453.71319,1758089443.59153,0.0,0.0,0.0,20.22541,-12.60507,-10.65701,9.15,-0.31,0.24,4.0
1758089453.72905,1758089443.60153,0.0,0.0,0.0,23.0902,-12.14671,-10.71431,9.4,-0.64,0.56,4.0
1758089453.74502,1758089443.61153,0.0,0.0,0.0,26.24147,-10.59972,-12.43318,10.03,-1.08,1.29,4.0
1758089453.74617,1758089443.62153,0.0,0.0,0.0,24.92367,-10.65701,-13.40721,10.03,-1.08,1.29,4.0
1758089453.76088,1758089443.63153,0.0,0.0,0.0,22.00158,-13.69369,-12.49048,9.99,-0.04,1.48,4.0
1758089453.77725,1758089443.64153,0.0,0.0,0.0,18.50654,-21.25674,-10.65701,9.99,-0.04,1.48,4.0
1758089453.77926,1758089443.65153,0.0,0.0,0.0,12.77696,-31.28349,-6.07335,10.17,0.64,2.33,4.0
1758089453.79406,1758089443.66153,0.0,0.0,0.0,9.39651,-34.77854,-3.32316,10.17,0.64,2.33,4.0
1758089453.796,1758089443.67153,0.0,0.0,0.0,6.53172,-36.32552,-1.20321,11.15,0.98,2.46,4.0
1758089453.81128,1758089443.68153,0.0,0.0,0.0,2.97938,-32.77319,-1.60428,11.15,0.98,2.46,4.0
1758089453.82731,1758089443.69153,0.0,0.0,0.0,0.0,-24.35071,-4.69825,11.23,1.04,2.13,4.0
1758089453.82824,1758089443.70153,0.0,0.0,0.0,-0.68755,-20.34,-8.02141,10.06,0.91,3.21,4.0
1758089453.84419,1758089443.71153,0.0,0.0,0.0,0.17189,-17.93358,-11.11538,10.06,0.91,3.21,4.0
1758089453.84505,1758089443.72153,0.0,0.0,0.0,2.29183,-19.53786,-14.83961,9.35,0.54,3.75,4.0
1758089453.8611,1758089443.73153,0.0,0.0,0.0,3.32316,-28.41871,-16.3293,9.35,0.54,3.75,4.0
1758089453.87772,1758089443.74153,0.0,0.0,0.0,3.66693,-34.43476,-16.272,9.16,0.05,3.15,4.0
1758089453.87903,1758089443.75153,0.0,0.0,0.0,3.89611,-35.86716,-14.66772,9.16,0.05,3.15,4.0
1758089453.89404,1758089443.76153,0.0,0.0,0.0,7.84952,-33.74722,-10.02676,10.5,-0.22,2.41,4.0
1758089453.89526,1758089443.77153,0.0,0.0,0.0,11.34457,-30.19488,-6.70361,10.91,-0.4,3.04,4.0
1758089453.91004,1758089443.78153,0.0,0.0,0.0,15.24068,-24.92367,-3.60963,10.91,-0.4,3.04,4.0
1758089453.92735,1758089443.79153,0.0,0.0,0.0,18.9649,-18.90761,-1.43239,10.66,-0.33,3.04,4.0
1758089453.92853,1758089443.80153,0.0,0.0,0.0,23.89234,-4.23989,0.34377,10.66,-0.33,3.04,4.0
1758089453.94332,1758089443.81153,0.0,0.0,0.0,26.35606,9.05273,0.57296,10.71,0.01,2.45,4.0
1758089453.94458,1758089443.82153,0.0,0.0,0.0,27.2155,19.76705,1.03132,10.71,0.01,2.45,4.0
1758089453.95904,1758089443.83153,0.0,0.0,0.0,26.64254,24.35071,0.97403,10.28,0.72,2.4,4.0
1758089453.97508,1758089443.84153,0.0,0.0,0.0,26.64254,34.37747,1.14592,10.38,1.24,2.85,4.0
1758089453.97628,1758089443.85153,0.0,0.0,0.0,26.06958,38.44547,2.6929,10.38,1.24,2.85,4.0
1758089453.99134,1758089443.86153,0.0,0.0,0.0,25.55392,36.03905,3.66693,10.27,1.28,2.12,4.0
1758089453.993,1758089443.87153,0.0,0.0,0.0,26.47065,31.51268,5.55769,10.27,1.28,2.12,4.0
1758089454.00909,1758089443.88153,0.0,0.0,0.0,25.89769,22.97561,7.50575,10.36,1.29,2.08,4.0
1758089454.02511,1758089443.89153,0.0,0.0,0.0,25.72581,19.13679,7.79223,10.36,1.29,2.08,4.0
1758089454.02898,1758089443.90153,0.0,0.0,0.0,26.18417,19.53786,8.42248,10.83,1.1,1.69,4.0
1758089454.04431,1758089443.91153,0.0,0.0,0.0,26.87172,22.91831,8.93814,10.83,1.1,1.69,4.0
1758089454.04534,1758089443.92153,0.0,0.0,0.0,27.67386,24.80907,8.76626,10.95,0.86,1.94,4.0
1758089454.06037,1758089443.93153,0.0,0.0,0.0,28.01764,24.86637,8.36518,10.32,0.72,2.41,4.0
1758089454.0761,1758089443.94153,0.0,0.0,0.0,27.96034,23.83505,7.84952,10.32,0.72,2.41,4.0
1758089454.07811,1758089443.95153,0.0,0.0,0.0,27.33009,22.40265,6.7609,10.09,0.77,2.12,4.0
1758089454.0931,1758089443.96153,0.0,0.0,0.0,26.87172,20.85567,6.18794,10.09,0.77,2.12,4.0
1758089454.09434,1758089443.97153,0.0,0.0,0.0,26.18417,18.9649,5.90147,9.72,1.01,1.74,4.0
1758089454.1108,1758089443.98153,0.0,0.0,0.0,25.8404,16.84496,5.78687,9.72,1.01,1.74,4.0
1758089454.12715,1758089443.99153,0.0,0.0,0.0,25.09555,13.98017,5.95876,9.24,1.25,1.48,4.0
1758089454.12831,1758089444.00153,0.0,0.0,0.0,24.4653,11.91752,6.13065,8.85,1.41,1.44,4.0
1758089454.1432,1758089444.01153,0.0,0.0,0.0,24.00693,10.19865,6.13065,8.85,1.41,1.44,4.0
1758089454.14465,1758089444.02153,0.0,0.0,0.0,23.54857,9.4538,6.53172,8.58,1.43,1.37,4.0
1758089454.16043,1758089444.03153,0.0,0.0,0.0,21.94428,7.73493,6.99009,8.58,1.43,1.37,4.0
1758089454.1769,1758089444.04153,0.0,0.0,0.0,20.3973,6.53172,6.99009,8.46,1.45,1.52,4.0
1758089454.17859,1758089444.05153,0.0,0.0,0.0,18.50654,6.7609,7.44845,8.46,1.45,1.52,4.0
1758089454.19314,1758089444.06153,0.0,0.0,0.0,16.50119,7.73493,7.50575,8.63,1.54,1.45,4.0
1758089454.19432,1758089444.07153,0.0,0.0,0.0,13.23533,10.08406,7.10468,8.68,1.61,1.67,4.0
1758089454.21017,1758089444.08153,0.0,0.0,0.0,11.22997,11.34457,6.7609,8.68,1.61,1.67,4.0
1758089454.22648,1758089444.09153,0.0,0.0,0.0,9.39651,11.51645,5.90147,8.5,1.65,1.59,4.0
1758089454.22737,1758089444.10153,0.0,0.0,0.0,7.67763,11.51645,4.98473,8.5,1.65,1.59,4.0
1758089454.24218,1758089444.11153,0.0,0.0,0.0,4.87014,10.37054,4.0107,8.51,1.62,1.39,4.0
1758089454.24444,1758089444.12153,0.0,0.0,0.0,3.03668,8.70896,3.32316,8.51,1.62,1.39,4.0
1758089454.26014,1758089444.13153,0.0,0.0,0.0,1.48969,7.96411,2.97938,8.62,1.5,1.13,4.0
1758089454.27612,1758089444.14153,0.0,0.0,0.0,-0.57296,5.4431,2.11994,8.62,1.5,1.13,4.0
1758089454.27812,1758089444.15153,0.0,0.0,0.0,-1.66158,3.66693,1.94806,8.79,1.3,1.22,4.0
1758089454.29315,1758089444.16153,0.0,0.0,0.0,-2.63561,0.85944,1.71887,8.83,1.1,1.13,4.0
1758089454.29436,1758089444.17153,0.0,0.0,0.0,-3.66693,-2.23454,1.3751,8.83,1.1,1.13,4.0
1758089454.30915,1758089444.18153,0.0,0.0,0.0,-4.87014,-4.98473,1.60428,8.95,0.91,1.03,4.0
1758089454.35237,1758089444.19153,0.0,0.0,0.0,-5.72958,-6.8182,1.94806,8.95,0.91,1.03,4.0
1758089454.35332,1758089444.20153,0.0,0.0,0.0,-6.47442,-8.25059,2.29183,8.92,0.72,0.88,4.0
1758089454.35394,1758089444.21153,0.0,0.0,0.0,-6.8182,-9.33921,3.03668,8.92,0.72,0.88,4.0
1758089454.35593,1758089444.22153,0.0,0.0,0.0,-6.8182,-11.34457,4.0107,8.75,0.51,0.74,4.0
1758089454.35896,1758089444.23153,0.0,0.0,0.0,-6.47442,-12.60507,4.98473,8.56,0.35,0.75,4.0
1758089454.38346,1758089444.24153,0.0,0.0,0.0,-5.95876,-13.5791,6.07335,8.56,0.35,0.75,4.0
1758089454.38546,1758089444.25153,0.0,0.0,0.0,-5.61499,-13.69369,7.33386,8.69,0.3,0.76,4.0
1758089454.38695,1758089444.26153,0.0,0.0,0.0,-4.87014,-13.5218,9.22462,8.69,0.3,0.76,4.0
1758089454.40351,1758089444.27153,0.0,0.0,0.0,-4.58366,-12.77696,10.37054,8.8,0.33,0.85,4.0
1758089454.40469,1758089444.28153,0.0,0.0,0.0,-4.35448,-12.37589,11.51645,8.8,0.33,0.85,4.0
1758089454.41949,1758089444.29153,0.0,0.0,0.0,-4.46907,-11.97482,12.37589,8.71,0.42,0.94,4.0
1758089454.43782,1758089444.30153,0.0,0.0,0.0,-5.21392,-10.02676,13.34992,8.57,0.58,0.85,4.0
1758089454.43931,1758089444.31153,0.0,0.0,0.0,-5.95876,-9.85487,13.75099,8.57,0.58,0.85,4.0
1758089454.45903,1758089444.32153,0.0,0.0,0.0,-6.8182,-10.37054,13.98017,8.25,0.78,0.82,4.0
1758089454.46288,1758089444.33153,0.0,0.0,0.0,-8.36518,-11.22997,14.20935,8.25,0.78,0.82,4.0
1758089454.46327,1758089444.34153,0.0,0.0,0.0,-9.62569,-11.00079,14.66772,8.28,1.0,0.71,4.0
1758089454.47926,1758089444.35153,0.0,0.0,0.0,-10.8289,-10.94349,15.12609,8.28,1.0,0.71,4.0
1758089454.49519,1758089444.36153,0.0,0.0,0.0,-12.08941,-11.22997,15.64175,8.62,1.16,0.7,4.0
1758089454.49723,1758089444.37153,0.0,0.0,0.0,-13.75099,-12.204,16.272,8.62,1.16,0.7,4.0
1758089454.5125,1758089444.38153,0.0,0.0,0.0,-14.61043,-13.98017,16.84496,8.85,1.24,0.65,4.0
1758089454.51344,1758089444.39153,0.0,0.0,0.0,-15.46986,-16.04282,17.13144,8.55,1.16,0.66,4.0
1758089454.52923,1758089444.40153,0.0,0.0,0.0,-15.75634,-18.79302,17.01685,8.55,1.16,0.66,4.0
1758089454.55126,1758089444.41153,0.0,0.0,0.0,-15.92823,-22.74642,16.90226,7.74,0.92,0.66,4.0
1758089454.55316,1758089444.42153,0.0,0.0,0.0,-15.64175,-24.80907,16.50119,7.74,0.92,0.66,4.0
1758089454.55386,1758089444.43153,0.0,0.0,0.0,-15.24068,-26.64254,15.87093,6.82,0.76,0.7,4.0
1758089454.57026,1758089444.44153,0.0,0.0,0.0,-14.20935,-28.41871,15.41257,6.82,0.76,0.7,4.0
1758089454.5876,1758089444.45153,0.0,0.0,0.0,-11.91752,-33.86181,15.41257,5.97,0.77,0.69,4.0
1758089454.58882,1758089444.46153,0.0,0.0,0.0,-10.08406,-36.38282,15.98552,5.36,0.78,0.22,4.0
1758089454.60327,1758089444.47153,0.0,0.0,0.0,-8.02141,-37.52874,16.55848,5.36,0.78,0.22,4.0
1758089454.60526,1758089444.48153,0.0,0.0,0.0,-5.90147,-43.83128,18.16276,5.09,0.54,-0.28,4.0
1758089454.62096,1758089444.49153,0.0,0.0,0.0,-1.94806,-52.08187,20.05352,5.09,0.54,-0.28,4.0
1758089454.62961,1758089444.50153,0.0,0.0,0.0,0.34377,-58.67088,20.34,5.0,-0.05,0.35,4.0
1758089454.64774,1758089444.51153,0.0,0.0,0.0,1.71887,-64.28587,19.70975,5.0,-0.05,0.35,4.0
1758089454.67577,1758089444.52153,0.0,0.0,0.0,3.55234,-66.06203,18.33465,6.38,-0.93,1.75,4.0
1758089454.67751,1758089444.53153,0.0,0.0,0.0,8.99544,-65.08801,18.16276,10.82,-2.43,5.22,4.0
1758089454.67854,1758089444.54153,0.0,0.0,0.0,13.00614,-54.71747,17.47521,10.82,-2.43,5.22,4.0
1758089454.67904,1758089444.55153,0.0,0.0,0.0,19.13679,-44.63341,18.56383,18.13,-4.45,5.91,4.0
1758089454.69555,1758089444.56153,0.0,0.0,0.0,30.25217,-43.14373,17.99088,18.13,-4.45,5.91,4.0
1758089454.69887,1758089444.57153,0.0,0.0,0.0,35.2369,-60.96271,14.03747,21.19,-7.76,7.15,4.0
1758089454.71432,1758089444.58153,0.0,0.0,0.0,39.01843,-81.30271,8.47978,21.19,-7.76,7.15,4.0
1758089454.71554,1758089444.59153,0.0,0.0,0.0,41.71133,-61.87944,2.40642,21.28,-7.99,-0.53,4.0
1758089454.7313,1758089444.60153,0.0,0.0,0.0,49.90463,8.30789,6.35983,23.22,-7.99,-3.23,4.0
1758089454.74755,1758089444.61153,0.0,0.0,0.0,54.71747,45.37826,10.37054,23.22,-3.46,-3.23,4.0
1758089454.74855,1758089444.62153,0.0,0.0,0.0,55.29043,70.47381,13.00614,15.93,0.07,1.27,4.0
1758089454.76344,1758089444.63153,0.0,0.0,0.0,54.88936,83.13618,15.69904,15.93,0.07,1.27,4.0
1758089454.76531,1758089444.64153,0.0,0.0,0.0,48.9306,67.03606,16.272,12.52,1.4,3.68,4.0
1758089454.78051,1758089444.65153,0.0,0.0,0.0,41.99781,53.80074,14.09476,12.52,1.4,3.68,4.0
1758089454.79656,1758089444.66153,0.0,0.0,0.0,34.77854,70.13004,11.28727,13.83,0.81,1.67,4.0
1758089454.7986,1758089444.67153,0.0,0.0,0.0,26.41335,85.02695,4.35448,13.83,0.81,1.67,4.0
1758089454.81333,1758089444.68153,0.0,0.0,0.0,16.272,82.04756,-6.53172,15.21,-0.35,0.43,4.0
1758089454.81565,1758089444.69153,0.0,0.0,0.0,9.85487,79.69843,-12.08941,10.88,-0.85,0.84,4.0
1758089454.83338,1758089444.70153,0.0,0.0,0.0,4.58366,76.60446,-15.41257,10.88,-0.85,0.84,4.0
1758089454.83433,1758089444.71153,0.0,0.0,0.0,1.94806,65.83286,-15.06879,9.1,-1.11,1.83,4.0
1758089454.85039,1758089444.72153,0.0,0.0,0.0,0.51566,46.2377,-10.02676,9.1,-1.11,1.83,4.0
1758089454.86757,1758089444.73153,0.0,0.0,0.0,1.3178,33.11696,-4.23989,7.57,-1.2,0.97,4.0
1758089454.86858,1758089444.74153,0.0,0.0,0.0,1.43239,24.92367,1.3178,7.57,-1.2,0.97,4.0
1758089454.88364,1758089444.75153,0.0,0.0,0.0,2.29183,47.72739,4.23989,7.78,-1.31,0.69,4.0
1758089454.88534,1758089444.76153,0.0,0.0,0.0,-0.57296,64.28587,0.34377,8.6,-1.31,0.86,4.0
1758089454.90258,1758089444.77153,0.0,0.0,0.0,-1.66158,58.90006,0.57296,8.6,-1.31,0.86,4.0
1758089454.90386,1758089444.78153,0.0,0.0,0.0,-1.20321,43.94586,2.46372,5.06,-0.85,3.26,4.0
1758089454.91978,1758089444.79153,0.0,0.0,0.0,-1.43239,24.57989,2.97938,5.06,-0.85,3.26,4.0
1758089454.93539,1758089444.80153,0.0,0.0,0.0,-1.71887,17.36062,2.00535,6.34,-0.83,1.58,4.0
1758089454.93654,1758089444.81153,0.0,0.0,0.0,-1.43239,9.22462,1.03132,6.34,-0.83,1.58,4.0
1758089454.9514,1758089444.82153,0.0,0.0,0.0,-0.85944,1.43239,-0.22918,7.04,-0.96,0.13,4.0
1758089454.96744,1758089444.83153,0.0,0.0,0.0,1.3178,-6.47442,-1.60428,7.67,-1.49,0.89,4.0
1758089454.96817,1758089444.84153,0.0,0.0,0.0,3.32316,-11.86023,-3.20856,7.67,-1.49,0.89,4.0
1758089454.98363,1758089444.85153,0.0,0.0,0.0,5.09932,-19.19409,-3.66693,7.9,-1.86,1.36,4.0
1758089454.98487,1758089444.86153,0.0,0.0,0.0,5.84417,-26.01229,-4.35448,7.9,-1.86,1.36,4.0
1758089454.99968,1758089444.87153,0.0,0.0,0.0,6.58902,-30.25217,-5.27121,8.44,-1.52,1.28,4.0
1758089455.01571,1758089444.88153,0.0,0.0,0.0,8.30789,-23.37668,-4.92744,8.44,-1.52,1.28,4.0
1758089455.01747,1758089444.89153,0.0,0.0,0.0,9.62569,-20.22541,-4.58366,9.65,-1.37,1.56,4.0
1758089455.03247,1758089444.90153,0.0,0.0,0.0,10.31324,-22.40265,-5.21392,9.65,-1.37,1.56,4.0
1758089455.03367,1758089444.91153,0.0,0.0,0.0,9.85487,-19.59516,-6.99009,9.38,-1.14,2.36,4.0
1758089455.04942,1758089444.92153,0.0,0.0,0.0,8.93814,-16.04282,-8.65166,10.31,-0.84,1.85,4.0
1758089455.06648,1758089444.93153,0.0,0.0,0.0,8.02141,-13.86558,-10.48513,10.31,-0.84,1.85,4.0
1758089455.06923,1758089444.94153,0.0,0.0,0.0,6.41713,-11.28727,-12.89155,10.2,-0.56,1.3,4.0
1758089455.08646,1758089444.95153,0.0,0.0,0.0,4.98473,-9.28192,-14.15206,10.2,-0.56,1.3,4.0
1758089455.08918,1758089444.96153,0.0,0.0,0.0,3.83882,-10.65701,-15.12609,9.53,-0.34,1.22,4.0
1758089455.10459,1758089444.97153,0.0,0.0,0.0,3.60963,-15.12609,-15.92823,9.53,-0.34,1.22,4.0
1758089455.10568,1758089444.98153,0.0,0.0,0.0,2.6929,-20.51189,-15.98552,8.66,-0.38,0.8,4.0
1758089455.12051,1758089444.99153,0.0,0.0,0.0,2.63561,-18.50654,-16.38659,9.1,-0.73,0.82,4.0
1758089455.13752,1758089445.00153,0.0,0.0,0.0,2.7502,-14.32395,-18.16276,9.1,-0.73,0.82,4.0
1758089455.13807,1758089445.01153,0.0,0.0,0.0,3.38045,-9.39651,-20.51189,9.5,-1.16,0.95,4.0
1758089455.15353,1758089445.02153,0.0,0.0,0.0,4.98473,-4.52637,-23.31938,9.5,-1.16,0.95,4.0
1758089455.15469,1758089445.03153,0.0,0.0,0.0,6.07335,-3.26586,-24.00693,9.0,-1.29,1.32,4.0
1758089455.16939,1758089445.04153,0.0,0.0,0.0,7.39116,-1.03132,-23.89234,9.0,-1.29,1.32,4.0
1758089455.1868,1758089445.05153,0.0,0.0,0.0,8.65166,0.17189,-23.20479,8.66,-1.22,1.12,4.0
1758089455.18788,1758089445.06153,0.0,0.0,0.0,9.91217,-1.83346,-22.05888,8.04,-1.12,0.7,4.0
1758089455.20362,1758089445.07153,0.0,0.0,0.0,10.54242,-4.64096,-20.85567,8.04,-1.12,0.7,4.0
1758089455.20472,1758089445.08153,0.0,0.0,0.0,11.00079,-8.36518,-19.99623,7.7,-1.12,0.66,4.0
1758089455.21958,1758089445.09153,0.0,0.0,0.0,11.28727,-11.97482,-19.07949,7.7,-1.12,0.66,4.0
1758089455.23562,1758089445.10153,0.0,0.0,0.0,11.17268,-14.03747,-17.58981,7.65,-1.09,0.45,4.0
1758089455.23783,1758089445.11153,0.0,0.0,0.0,10.54242,-9.28192,-17.36062,7.65,-1.09,0.45,4.0
1758089455.25261,1758089445.12153,0.0,0.0,0.0,9.5684,0.17189,-17.81899,8.46,-0.95,0.75,4.0
1758089455.25369,1758089445.13153,0.0,0.0,0.0,7.67763,6.8182,-18.79302,8.46,-0.95,0.75,4.0
1758089455.26891,1758089445.14153,0.0,0.0,0.0,4.69825,8.136,-19.25138,8.51,-0.66,1.39,4.0
1758089455.28448,1758089445.15153,0.0,0.0,0.0,3.60963,2.92208,-18.22006,7.97,-0.44,1.39,4.0
1758089455.28566,1758089445.16153,0.0,0.0,0.0,2.06265,1.20321,-17.47521,7.97,-0.44,1.39,4.0
1758089455.30062,1758089445.17153,0.0,0.0,0.0,0.34377,-0.85944,-15.64175,8.4,-0.34,0.74,4.0
1758089455.31742,1758089445.18153,0.0,0.0,0.0,-0.40107,-4.92744,-14.72501,8.4,-0.34,0.74,4.0
1758089455.31794,1758089445.19153,0.0,0.0,0.0,-1.03132,-9.39651,-14.09476,7.8,-0.42,0.46,4.0
1758089455.3349,1758089445.20153,0.0,0.0,0.0,-1.48969,-14.61043,-14.20935,7.8,-0.42,0.46,4.0
1758089455.33607,1758089445.21153,0.0,0.0,0.0,-2.57831,-17.24603,-14.38124,7.38,-0.51,0.5,4.0
1758089455.35064,1758089445.22153,0.0,0.0,0.0,-2.34913,-19.82434,-14.66772,6.88,-0.48,0.17,4.0
1758089455.36661,1758089445.23153,0.0,0.0,0.0,-2.63561,-23.26209,-14.9542,6.88,-0.48,0.17,4.0
1758089455.37116,1758089445.24153,0.0,0.0,0.0,-3.55234,-26.64254,-15.12609,6.0,-0.32,0.17,4.0
1758089455.37268,1758089445.25153,0.0,0.0,0.0,-5.50039,-32.08564,-14.72501,6.0,-0.32,0.17,4.0
1758089455.38969,1758089445.26153,0.0,0.0,0.0,-6.07335,-38.27358,-13.12073,5.69,0.09,0.76,4.0
1758089455.39372,1758089445.27153,0.0,0.0,0.0,-6.53172,-45.03448,-10.48513,5.69,0.09,0.76,4.0
1758089455.41131,1758089445.28153,0.0,0.0,0.0,-7.44845,-49.04519,-7.62034,7.49,0.5,2.26,4.0
1758089455.41255,1758089445.29153,0.0,0.0,0.0,-10.25595,-48.70141,-4.23989,12.37,0.94,4.02,4.0
1758089455.42821,1758089445.30153,0.0,0.0,0.0,-14.15206,-43.25832,-4.52637,12.37,0.94,4.02,4.0
1758089455.44382,1758089445.31153,0.0,0.0,0.0,-19.42327,-36.49741,-6.70361,15.54,2.05,3.06,4.0
1758089455.44643,1758089445.32153,0.0,0.0,0.0,-25.72581,-27.67386,-10.37054,15.54,2.05,3.06,4.0
1758089455.46262,1758089445.33153,0.0,0.0,0.0,-35.00772,-9.85487,-13.98017,15.66,3.41,3.76,4.0
1758089455.46406,1758089445.34153,0.0,0.0,0.0,-40.27893,6.07335,-13.69369,15.66,3.41,3.76,4.0
1758089455.47857,1758089445.35153,0.0,0.0,0.0,-44.28964,8.30789,-12.2613,19.21,5.01,4.22,4.0
1758089455.49643,1758089445.36153,0.0,0.0,0.0,-48.24305,-4.98473,-9.74028,19.21,5.01,4.22,4.0
1758089455.49824,1758089445.37153,0.0,0.0,0.0,-50.13381,-14.03747,-5.61499,17.26,3.91,1.96,4.0
1758089455.51365,1758089445.38153,0.0,0.0,0.0,-56.14987,3.09397,-8.76626,16.58,0.24,-0.05,4.0
1758089455.5152,1758089445.39153,0.0,0.0,0.0,-59.12925,23.49127,-11.97482,16.58,0.24,-0.05,4.0
1758089455.52965,1758089445.40153,0.0,0.0,0.0,-54.48829,35.2369,-15.64175,14.39,-0.97,1.39,4.0
1758089455.53316,1758089445.41153,0.0,0.0,0.0,-45.83662,32.42941,-14.32395,14.39,-0.97,1.39,4.0
1758089455.54883,1758089445.42153,0.0,0.0,0.0,-36.15364,33.40344,-12.49048,12.92,-1.49,3.43,4.0
1758089455.56568,1758089445.43153,0.0,0.0,0.0,-27.10091,33.34615,-9.68299,12.92,-1.49,3.43,4.0
1758089455.56834,1758089445.44153,0.0,0.0,0.0,-14.66772,31.2262,-2.46372,13.94,-0.87,2.48,4.0
1758089455.58362,1758089445.45153,0.0,0.0,0.0,-8.25059,27.44468,2.00535,12.76,0.02,1.34,4.0
1758089455.58484,1758089445.46153,0.0,0.0,0.0,-3.95341,22.28806,5.21392,12.76,0.02,1.34,4.0
1758089455.60121,1758089445.47153,0.0,0.0,0.0,-1.71887,15.75634,6.35983,10.65,0.67,0.69,4.0
1758089455.60319,1758089445.48153,0.0,0.0,0.0,-0.85944,5.95876,5.21392,10.65,0.67,0.69,4.0
1758089455.61854,1758089445.49153,0.0,0.0,0.0,-1.60428,6.13065,3.49504,9.31,1.04,0.94,4.0
1758089455.63539,1758089445.50153,0.0,0.0,0.0,-3.09397,11.34457,0.0573,9.31,1.04,0.94,4.0
1758089455.63819,1758089445.51153,0.0,0.0,0.0,-4.35448,17.6471,-2.92208,9.47,1.32,1.75,4.0
1758089455.65442,1758089445.52153,0.0,0.0,0.0,-5.72958,20.05352,-6.7609,8.61,1.45,2.42,4.0
1758089455.6556,1758089445.53153,0.0,0.0,0.0,-6.47442,20.45459,-8.70896,8.61,1.45,2.42,4.0
1758089455.67167,1758089445.54153,0.0,0.0,0.0,-7.39116,20.68378,-10.37054,8.42,1.24,1.94,4.0
1758089455.67264,1758089445.55153,0.0,0.0,0.0,-8.36518,18.73572,-11.86023,8.42,1.24,1.94,4.0
1758089455.68818,1758089445.56153,0.0,0.0,0.0,-9.4538,13.80828,-11.91752,7.95,1.01,1.18,4.0
1758089455.70443,1758089445.57153,0.0,0.0,0.0,-9.96947,12.54778,-11.22997,7.95,1.01,1.18,4.0
1758089455.70645,1758089445.58153,0.0,0.0,0.0,-10.19865,13.40721,-9.68299,8.02,0.81,1.15,4.0
1758089455.72259,1758089445.59153,0.0,0.0,0.0,-9.91217,14.03747,-6.35983,8.02,0.81,1.15,4.0
1758089455.72391,1758089445.60153,0.0,0.0,0.0,-9.4538,13.86558,-4.1253,8.15,0.71,1.36,4.0
1758089455.73897,1758089445.61153,0.0,0.0,0.0,-9.68299,13.06344,-2.23454,8.1,0.82,1.43,4.0
1758089455.75493,1758089445.62153,0.0,0.0,0.0,-9.62569,10.37054,-0.97403,8.1,0.82,1.43,4.0
1758089455.75587,1758089445.63153,0.0,0.0,0.0,-9.74028,5.78687,0.0,7.84,0.92,0.97,4.0
1758089455.7711,1758089445.64153,0.0,0.0,0.0,-10.08406,1.83346,0.17189,7.84,0.92,0.97,4.0
1758089455.7719,1758089445.65153,0.0,0.0,0.0,-10.37054,-1.71887,0.0573,7.79,0.9,0.48,4.0
1758089455.78867,1758089445.66153,0.0,0.0,0.0,-10.94349,-5.09932,0.0573,7.79,0.9,0.48,4.0
1758089455.80398,1758089445.67153,0.0,0.0,0.0,-11.80293,-8.93814,0.57296,8.07,0.77,0.26,4.0
1758089455.80491,1758089445.68153,0.0,0.0,0.0,-12.2613,-11.00079,1.3751,8.51,0.58,0.28,4.0
1758089455.82268,1758089445.69153,0.0,0.0,0.0,-12.71966,-12.83425,2.46372,8.51,0.58,0.28,4.0
1758089455.82391,1758089445.70153,0.0,0.0,0.0,-13.00614,-13.98017,3.95341,8.96,0.38,0.3,4.0
1758089455.83857,1758089445.71153,0.0,0.0,0.0,-13.17803,-14.32395,6.8182,8.96,0.38,0.3,4.0
1758089455.85679,1758089445.72153,0.0,0.0,0.0,-13.23533,-14.20935,8.88085,9.71,0.29,0.33,4.0
1758089455.88126,1758089445.73153,0.0,0.0,0.0,-13.00614,-14.43854,10.8862,9.71,0.29,0.33,4.0
1758089455.88407,1758089445.74153,0.0,0.0,0.0,-12.60507,-14.83961,12.77696,10.26,0.33,0.38,4.0
1758089455.88918,1758089445.75153,0.0,0.0,0.0,-11.74564,-14.49583,15.0115,10.52,0.39,0.37,4.0
1758089455.88981,1758089445.76153,0.0,0.0,0.0,-10.8862,-14.66772,15.98552,10.52,0.39,0.37,4.0
1758089455.89351,1758089445.77153,0.0,0.0,0.0,-9.96947,-15.58445,16.61578,10.33,0.42,0.49,4.0
1758089455.91158,1758089445.78153,0.0,0.0,0.0,-8.88085,-17.24603,16.90226,10.33,0.42,0.49,4.0
1758089455.91281,1758089445.79153,0.0,0.0,0.0,-8.25059,-19.53786,16.90226,9.85,0.4,0.55,4.0
1758089455.92827,1758089445.80153,0.0,0.0,0.0,-7.73493,-20.97026,16.90226,9.85,0.4,0.55,4.0
1758089455.94376,1758089445.81153,0.0,0.0,0.0,-7.04738,-20.74107,16.67307,9.32,0.36,0.66,4.0
1758089455.94494,1758089445.82153,0.0,0.0,0.0,-6.47442,-17.93358,16.10011,9.32,0.36,0.66,4.0
1758089455.96054,1758089445.83153,0.0,0.0,0.0,-6.18794,-14.83961,15.75634,8.93,0.31,0.85,4.0
1758089455.96289,1758089445.84153,0.0,0.0,0.0,-5.90147,-11.11538,15.41257,8.72,0.22,1.06,4.0
1758089456.0045,1758089445.85153,0.0,0.0,0.0,-5.50039,-7.44845,15.69904,8.72,0.22,1.06,4.0
1758089456.00705,1758089445.86153,0.0,0.0,0.0,-5.15662,-7.16197,17.13144,8.78,0.21,1.01,4.0
1758089456.00764,1758089445.87153,0.0,0.0,0.0,-4.98473,-10.25595,18.50654,8.78,0.21,1.01,4.0
1758089456.00889,1758089445.88153,0.0,0.0,0.0,-5.21392,-14.9542,19.88164,8.94,0.28,0.47,4.0
1758089456.02376,1758089445.89153,0.0,0.0,0.0,-4.98473,-17.6471,21.37133,8.94,0.28,0.47,4.0
1758089456.02767,1758089445.90153,0.0,0.0,0.0,-4.52637,-18.10547,22.91831,9.49,0.31,-0.1,4.0
1758089456.04272,1758089445.91153,0.0,0.0,0.0,-3.60963,-18.79302,23.26209,9.38,0.29,0.11,4.0
1758089456.04392,1758089445.92153,0.0,0.0,0.0,-2.63561,-20.74107,22.97561,9.38,0.29,0.11,4.0
1758089456.05875,1758089445.93153,0.0,0.0,0.0,-1.20321,-22.86102,22.11617,8.39,0.32,0.61,4.0
1758089456.06312,1758089445.94153,0.0,0.0,0.0,0.0,-23.94964,19.88164,8.39,0.32,0.61,4.0
1758089456.07876,1758089445.95153,0.0,0.0,0.0,1.48969,-22.11617,18.62113,7.77,0.53,0.58,4.0
1758089456.09816,1758089445.96153,0.0,0.0,0.0,2.11994,-16.84496,17.58981,7.77,0.53,0.58,4.0
1758089456.0993,1758089445.97153,0.0,0.0,0.0,3.38045,-10.54242,17.58981,7.89,0.87,0.51,4.0
1758089456.11474,1758089445.98153,0.0,0.0,0.0,4.87014,-6.41713,17.99088,7.75,1.15,0.28,4.0
1758089456.11603,1758089445.99153,0.0,0.0,0.0,5.72958,-6.70361,18.22006,7.75,1.15,0.28,4.0
1758089456.13294,1758089446.00153,0.0,0.0,0.0,6.58902,-8.02141,18.27736,7.77,1.11,-0.16,4.0
1758089456.13402,1758089446.01153,0.0,0.0,0.0,8.36518,-11.17268,17.99088,7.77,1.11,-0.16,4.0
1758089456.17586,1758089446.02153,0.0,0.0,0.0,9.33921,-13.23533,17.24603,7.88,0.77,-0.38,4.0
1758089456.17668,1758089446.03153,0.0,0.0,0.0,10.37054,-16.73037,15.98552,7.88,0.77,-0.38,4.0
1758089456.1773,1758089446.04153,0.0,0.0,0.0,11.34457,-21.6578,14.03747,7.33,0.37,0.28,4.0
1758089456.17927,1758089446.05153,0.0,0.0,0.0,12.43318,-29.39274,11.51645,7.33,0.37,0.84,4.0
1758089456.19502,1758089446.06153,0.0,0.0,0.0,12.49048,-34.37747,10.37054,6.45,0.17,0.84,4.0
1758089456.19602,1758089446.07153,0.0,0.0,0.0,12.08941,-40.62271,9.5684,6.19,0.06,1.91,4.0
1758089456.21081,1758089446.08153,0.0,0.0,0.0,11.57375,-46.35228,8.88085,6.19,0.06,1.91,4.0
1758089456.21199,1758089446.09153,0.0,0.0,0.0,11.17268,-52.71212,9.39651,7.97,-0.51,2.62,4.0
1758089456.22776,1758089446.10153,0.0,0.0,0.0,11.28727,-59.98868,9.91217,7.97,-0.51,2.62,4.0
1758089456.24381,1758089446.11153,0.0,0.0,0.0,15.69904,-73.45319,13.12073,10.84,-1.77,2.87,4.0
1758089456.245,1758089446.12153,0.0,0.0,0.0,21.31403,-74.02615,14.78231,10.84,-1.77,2.87,4.0
1758089456.26015,1758089446.13153,0.0,0.0,0.0,29.04896,-49.21708,15.92823,14.18,-3.4,1.94,4.0
1758089456.27604,1758089446.14153,0.0,0.0,0.0,34.60666,-28.30412,15.41257,17.65,-4.9,2.74,4.0
1758089456.2779,1758089446.15153,0.0,0.0,0.0,41.02378,-16.10011,16.04282,17.65,-4.9,2.74,4.0
1758089456.29521,1758089446.16153,0.0,0.0,0.0,41.88322,-35.52338,9.91217,16.69,-5.78,2.71,4.0
1758089456.30369,1758089446.17153,0.0,0.0,0.0,40.10705,-29.27814,-0.68755,16.69,-5.78,2.71,4.0
1758089456.30501,1758089446.18153,0.0,0.0,0.0,40.96649,-2.63561,-1.3751,19.31,-4.26,-2.22,4.0
1758089456.32309,1758089446.19153,0.0,0.0,0.0,43.02913,27.50197,1.14592,19.31,-4.26,-2.22,4.0
1758089456.32406,1758089446.20153,0.0,0.0,0.0,43.60209,50.76406,7.39116,17.67,-0.79,-1.55,4.0
1758089456.33983,1758089446.21153,0.0,0.0,0.0,41.36755,63.65561,11.80293,13.45,1.24,1.75,4.0
1758089456.34416,1758089446.22153,0.0,0.0,0.0,35.92446,62.16592,12.49048,13.45,1.24,1.75,4.0
1758089456.36011,1758089446.23153,0.0,0.0,0.0,29.27814,50.47758,13.69369,12.14,2.03,1.74,4.0
1758089456.36376,1758089446.24153,0.0,0.0,0.0,16.90226,41.88322,7.50575,12.14,2.03,1.74,4.0
1758089456.37909,1758089446.25153,0.0,0.0,0.0,10.37054,52.42564,2.97938,12.94,1.37,0.36,4.0
1758089456.39513,1758089446.26153,0.0,0.0,0.0,4.52637,53.45696,-2.92208,12.94,1.37,0.36,4.0
1758089456.39765,1758089446.27153,0.0,0.0,0.0,-0.11459,49.61814,-7.79223,12.12,0.11,0.88,4.0
1758089456.41299,1758089446.28153,0.0,0.0,0.0,-5.32851,43.54479,-11.91752,11.07,-0.94,1.63,4.0
1758089456.41437,1758089446.29153,0.0,0.0,0.0,-7.62034,39.13302,-13.23533,11.07,-0.94,1.63,4.0
1758089456.42887,1758089446.30153,0.0,0.0,0.0,-9.22462,33.63263,-13.34992,10.47,-1.43,0.97,4.0
1758089456.44808,1758089446.31153,0.0,0.0,0.0,-9.68299,24.75178,-11.34457,10.47,-1.43,0.97,4.0
1758089456.44928,1758089446.32153,0.0,0.0,0.0,-9.28192,12.77696,-7.44845,9.5,-1.63,0.62,4.0
1758089456.46494,1758089446.33153,0.0,0.0,0.0,-7.67763,3.03668,-3.66693,9.5,-1.63,0.62,4.0
1758089456.46765,1758089446.34153,0.0,0.0,0.0,-7.67763,-2.00535,-1.3178,8.97,-1.56,0.61,4.0
1758089456.48317,1758089446.35153,0.0,0.0,0.0,-6.7609,-6.47442,0.74485,8.97,-1.56,0.61,4.0
1758089456.48488,1758089446.36153,0.0,0.0,0.0,-6.24524,-3.89611,2.63561,8.94,-1.26,1.04,4.0
1758089456.50332,1758089446.37153,0.0,0.0,0.0,-6.47442,6.13065,1.3178,9.75,-0.95,1.43,4.0
1758089456.50453,1758089446.38153,0.0,0.0,0.0,-7.96411,14.72501,-0.74485,9.75,-0.95,1.43,4.0
1758089456.52333,1758089446.39153,0.0,0.0,0.0,-8.70896,19.99623,-1.14592,9.33,-0.63,1.77,4.0
1758089456.52456,1758089446.40153,0.0,0.0,0.0,-8.93814,17.30333,-1.3751,9.33,-0.63,1.77,4.0
1758089456.54097,1758089446.41153,0.0,0.0,0.0,-8.88085,12.83425,-1.3751,8.38,-0.64,1.55,4.0
1758089456.54272,1758089446.42153,0.0,0.0,0.0,-9.28192,10.37054,-1.77617,8.38,-0.64,1.55,4.0
1758089456.55888,1758089446.43153,0.0,0.0,0.0,-9.11003,8.47978,-2.63561,8.54,-0.81,0.46,4.0
1758089456.56326,1758089446.44153,0.0,0.0,0.0,-8.47978,8.76626,-3.26586,8.86,-1.04,0.34,4.0
1758089456.58351,1758089446.45153,0.0,0.0,0.0,-7.50575,9.62569,-3.72423,8.86,-1.04,0.34,4.0
1758089456.58557,1758089446.46153,0.0,0.0,0.0,-6.18794,10.48513,-4.1253,9.13,-1.28,0.65,4.0
1758089456.60194,1758089446.47153,0.0,0.0,0.0,-4.0107,9.22462,-3.95341,9.13,-1.28,0.65,4.0
1758089456.60386,1758089446.48153,0.0,0.0,0.0,-2.34913,8.93814,-3.72423,9.06,-1.41,0.52,4.0
1758089456.6206,1758089446.49153,0.0,0.0,0.0,-0.68755,8.36518,-3.60963,9.06,-1.41,0.52,4.0
1758089456.65367,1758089446.50153,0.0,0.0,0.0,0.85944,7.16197,-3.60963,8.82,-1.49,0.16,4.0
1758089456.65425,1758089446.51153,0.0,0.0,0.0,3.60963,4.64096,-3.72423,8.42,-1.45,0.11,4.0
1758089456.6555,1758089446.52153,0.0,0.0,0.0,5.32851,2.6929,-4.18259,8.42,-1.45,0.11,4.0
1758089456.65611,1758089446.53153,0.0,0.0,0.0,7.21927,0.85944,-4.69825,8.54,-1.41,0.08,4.0
1758089456.67196,1758089446.54153,0.0,0.0,0.0,8.93814,-0.40107,-4.98473,8.54,-1.41,0.08,4.0
1758089456.67344,1758089446.55153,0.0,0.0,0.0,11.11538,-2.6929,-5.21392,8.96,-1.37,0.13,4.0
1758089456.68797,1758089446.56153,0.0,0.0,0.0,11.80293,-4.52637,-5.32851,8.96,-1.37,0.13,4.0
1758089456.70385,1758089446.57153,0.0,0.0,0.0,12.08941,-6.41713,-5.55769,9.31,-1.32,0.22,4.0
1758089456.70598,1758089446.58153,0.0,0.0,0.0,12.204,-7.50575,-5.61499,9.31,-1.32,0.22,4.0
1758089456.72091,1758089446.59153,0.0,0.0,0.0,12.204,-10.37054,-5.95876,9.5,-1.13,0.23,4.0
1758089456.72377,1758089446.60153,0.0,0.0,0.0,12.37589,-12.89155,-5.90147,9.24,-0.79,0.39,4.0
1758089456.74679,1758089446.61153,0.0,0.0,0.0,11.97482,-15.87093,-5.84417,9.24,-0.79,0.39,4.0
1758089456.74856,1758089446.62153,0.0,0.0,0.0,11.80293,-19.82434,-6.24524,8.96,-0.57,0.53,4.0
1758089456.76426,1758089446.63153,0.0,0.0,0.0,11.63104,-22.05888,-6.41713,8.96,-0.57,0.53,4.0
1758089456.7684,1758089446.64153,0.0,0.0,0.0,11.34457,-23.0902,-6.58902,8.78,-0.5,0.48,4.0
1758089456.78398,1758089446.65153,0.0,0.0,0.0,10.71431,-22.91831,-7.10468,8.78,-0.5,0.48,4.0
1758089456.78834,1758089446.66153,0.0,0.0,0.0,9.96947,-20.97026,-7.84952,8.74,-0.53,0.71,4.0
1758089456.80399,1758089446.67153,0.0,0.0,0.0,9.62569,-18.62113,-8.76626,8.73,-0.63,0.87,4.0
1758089456.80597,1758089446.68153,0.0,0.0,0.0,9.22462,-15.64175,-9.39651,8.73,-0.63,0.87,4.0
1758089456.82253,1758089446.69153,0.0,0.0,0.0,9.05273,-12.2613,-10.37054,8.66,-0.74,0.94,4.0
1758089456.82529,1758089446.70153,0.0,0.0,0.0,8.65166,-10.65701,-11.57375,8.66,-0.74,0.94,4.0
1758089456.84103,1758089446.71153,0.0,0.0,0.0,8.136,-12.71966,-12.54778,8.09,-0.7,0.87,4.0
1758089456.84299,1758089446.72153,0.0,0.0,0.0,7.73493,-13.23533,-13.23533,8.09,-0.7,0.87,4.0
1758089456.85898,1758089446.73153,0.0,0.0,0.0,7.62034,-11.86023,-14.20935,8.21,-0.67,0.54,4.0
1758089456.86332,1758089446.74153,0.0,0.0,0.0,7.96411,-7.96411,-15.41257,9.12,-0.73,0.41,4.0
1758089456.87925,1758089446.75153,0.0,0.0,0.0,8.0787,-4.46907,-15.98552,9.12,-0.73,0.41,4.0
1758089456.89706,1758089446.76153,0.0,0.0,0.0,8.36518,-2.92208,-15.92823,9.89,-0.89,0.34,4.0
1758089456.89914,1758089446.77153,0.0,0.0,0.0,8.42248,-3.49504,-16.10011,9.89,-0.89,0.34,4.0
1758089456.91402,1758089446.78153,0.0,0.0,0.0,8.30789,-0.34377,-15.41257,10.55,-0.9,0.09,4.0
1758089456.9177,1758089446.79153,0.0,0.0,0.0,8.02141,3.72423,-14.83961,10.55,-0.9,0.09,4.0
1758089456.933,1758089446.80153,0.0,0.0,0.0,7.67763,9.4538,-14.43854,11.16,-0.85,0.17,4.0
1758089456.93416,1758089446.81153,0.0,0.0,0.0,7.44845,13.69369,-14.15206,11.16,-0.85,0.17,4.0
1758089456.95539,1758089446.82153,0.0,0.0,0.0,6.18794,16.10011,-13.75099,10.5,-0.78,0.6,4.0
1758089456.95899,1758089446.83153,0.0,0.0,0.0,5.21392,16.38659,-13.23533,9.74,-0.73,0.66,4.0
1758089456.97564,1758089446.84153,0.0,0.0,0.0,3.89611,16.21471,-13.00614,9.74,-0.73,0.66,4.0
1758089457.004,1758089446.85153,0.0,0.0,0.0,1.48969,14.20935,-13.12073,9.34,-0.74,0.6,4.0
1758089457.00803,1758089446.86153,0.0,0.0,0.0,-0.11459,11.74564,-13.5791,9.34,-0.74,0.6,4.0
1758089457.01146,1758089446.87153,0.0,0.0,0.0,-1.83346,7.62034,-14.66772,8.94,-0.66,0.5,4.0
1758089457.01198,1758089446.88153,0.0,0.0,0.0,-3.72423,7.62034,-15.12609,8.94,-0.66,0.5,4.0
1758089457.014,1758089446.89153,0.0,0.0,0.0,-4.92744,6.41713,-15.58445,8.87,-0.53,0.33,4.0
1758089457.02941,1758089446.90153,0.0,0.0,0.0,-5.61499,5.4431,-15.64175,8.47,-0.46,0.1,4.0
1758089457.04845,1758089446.91153,0.0,0.0,0.0,-6.47442,4.46907,-15.24068,8.47,-0.46,0.1,4.0
1758089457.05139,1758089446.92153,0.0,0.0,0.0,-7.16197,2.86479,-14.78231,8.08,-0.4,-0.08,4.0
1758089457.06684,1758089446.93153,0.0,0.0,0.0,-8.136,0.45837,-13.69369,8.08,-0.4,-0.08,4.0
1758089457.06888,1758089446.94153,0.0,0.0,0.0,-8.70896,-1.48969,-13.34992,7.51,-0.42,-0.34,4.0
1758089457.08648,1758089446.95153,0.0,0.0,0.0,-9.33921,-3.66693,-13.34992,7.51,-0.42,-0.34,4.0
1758089457.08927,1758089446.96153,0.0,0.0,0.0,-9.62569,-6.07335,-13.5218,7.01,-0.52,-0.45,4.0
1758089457.1041,1758089446.97153,0.0,0.0,0.0,-9.74028,-11.17268,-13.46451,6.62,-0.57,-0.05,4.0
1758089457.10529,1758089446.98153,0.0,0.0,0.0,-9.22462,-17.87628,-13.23533,6.62,-0.57,-0.05,4.0
1758089457.12036,1758089446.99153,0.0,0.0,0.0,-8.25059,-26.41335,-12.54778,6.92,-0.44,0.99,4.0
1758089457.12211,1758089447.00153,0.0,0.0,0.0,-7.96411,-34.89313,-11.63104,6.92,-0.44,0.99,4.0
1758089457.13809,1758089447.01153,0.0,0.0,0.0,-9.33921,-51.85268,-9.22462,8.73,0.15,2.07,4.0
1758089457.15487,1758089447.02153,0.0,0.0,0.0,-11.63104,-61.76485,-8.93814,8.73,0.15,2.07,4.0
1758089457.15611,1758089447.03153,0.0,0.0,0.0,-14.49583,-62.62429,-10.25595,11.82,1.1,2.55,4.0
1758089457.17187,1758089447.04153,0.0,0.0,0.0,-19.25138,-52.02457,-12.89155,11.82,1.1,2.55,4.0
1758089457.17388,1758089447.05153,0.0,0.0,0.0,-22.74642,-42.74266,-14.03747,14.81,2.48,2.8,4.0
1758089457.18907,1758089447.06153,0.0,0.0,0.0,-27.67386,-29.9084,-14.83961,15.56,3.87,2.94,4.0
1758089457.1927,1758089447.07153,0.0,0.0,0.0,-33.23156,-13.12073,-14.78231,15.56,3.87,2.94,4.0
1758089457.20836,1758089447.08153,0.0,0.0,0.0,-43.02913,8.76626,-15.24068,16.53,4.54,1.56,4.0
1758089457.22414,1758089447.09153,0.0,0.0,0.0,-48.9879,21.31403,-16.38659,16.53,4.54,1.56,4.0
1758089457.22716,1758089447.10153,0.0,0.0,0.0,-53.39967,26.41335,-18.73572,15.11,3.32,0.38,4.0
1758089457.24328,1758089447.11153,0.0,0.0,0.0,-54.431,19.99623,-20.22541,15.11,3.32,0.38,4.0
1758089457.24655,1758089447.12153,0.0,0.0,0.0,-52.36834,-2.46372,-19.25138,11.97,1.14,-0.1,4.0
1758089457.26293,1758089447.13153,0.0,0.0,0.0,-49.79003,-3.20856,-18.90761,12.96,-0.53,-0.19,4.0
1758089457.26411,1758089447.14153,0.0,0.0,0.0,-44.23235,17.81899,-16.3293,12.96,-0.53,-0.19,4.0
1758089457.27996,1758089447.15153,0.0,0.0,0.0,-35.3515,27.84575,-13.17803,15.11,-1.44,0.46,4.0
1758089457.29605,1758089447.16153,0.0,0.0,0.0,-20.45459,20.3973,-7.21927,15.11,-1.44,0.46,4.0
1758089457.29729,1758089447.17153,0.0,0.0,0.0,-13.00614,16.50119,-3.38045,13.05,-1.47,2.39,4.0
1758089457.31265,1758089447.18153,0.0,0.0,0.0,-7.10468,11.57375,0.80214,13.05,-1.47,2.39,4.0
1758089457.31338,1758089447.19153,0.0,0.0,0.0,-2.57831,7.44845,4.81285,13.08,-0.92,1.47,4.0
1758089457.32842,1758089447.20153,0.0,0.0,0.0,1.77617,0.85944,9.22462,11.69,-0.2,0.16,4.0
1758089457.3452,1758089447.21153,0.0,0.0,0.0,2.57831,-3.20856,9.96947,11.69,-0.2,0.16,4.0
1758089457.35207,1758089447.22153,0.0,0.0,0.0,2.86479,-6.41713,10.02676,10.32,0.33,0.45,4.0
1758089457.35248,1758089447.23153,0.0,0.0,0.0,2.92208,-6.99009,8.36518,10.32,0.33,0.45,4.0
1758089457.36846,1758089447.24153,0.0,0.0,0.0,2.46372,-2.34913,8.25059,9.78,0.68,0.68,4.0
1758089457.38423,1758089447.25153,0.0,0.0,0.0,1.94806,6.07335,6.35983,9.78,0.68,0.68,4.0
1758089457.38543,1758089447.26153,0.0,0.0,0.0,0.51566,13.5791,4.18259,9.96,0.95,1.34,4.0
1758089457.40029,1758089447.27153,0.0,0.0,0.0,-0.45837,18.10547,2.46372,9.96,0.95,1.34,4.0
1758089457.41608,1758089447.28153,0.0,0.0,0.0,-0.51566,16.50119,2.34913,9.0,1.07,1.74,4.0
1758089457.41898,1758089447.29153,0.0,0.0,0.0,0.17189,13.80828,2.92208,8.23,0.99,1.07,4.0
1758089457.43422,1758089447.30153,0.0,0.0,0.0,0.97403,11.57375,3.66693,8.23,0.99,1.07,4.0
1758089457.43544,1758089447.31153,0.0,0.0,0.0,2.63561,7.84952,5.4431,8.02,0.88,0.43,4.0
1758089457.45108,1758089447.32153,0.0,0.0,0.0,3.60963,6.07335,6.47442,8.02,0.88,0.43,4.0
1758089457.4522,1758089447.33153,0.0,0.0,0.0,4.64096,4.46907,8.30789,8.03,0.67,0.22,4.0
1758089457.47087,1758089447.34153,0.0,0.0,0.0,5.21392,4.46907,9.33921,8.03,0.67,0.22,4.0
1758089457.48653,1758089447.35153,0.0,0.0,0.0,5.72958,9.33921,10.94349,8.55,0.43,0.33,4.0
1758089457.48778,1758089447.36153,0.0,0.0,0.0,6.24524,13.80828,11.97482,9.11,0.3,0.48,4.0
1758089457.50411,1758089447.37153,0.0,0.0,0.0,6.47442,16.95955,12.43318,9.11,0.3,0.48,4.0
1758089457.50773,1758089447.38153,0.0,0.0,0.0,5.95876,17.47521,12.2613,9.0,0.36,0.89,4.0
1758089457.52311,1758089447.39153,0.0,0.0,0.0,5.50039,14.03747,11.57375,9.0,0.36,0.89,4.0
1758089457.52739,1758089447.40153,0.0,0.0,0.0,4.98473,10.94349,10.59972,8.83,0.52,0.45,4.0
