timeStamp,timeStampAlign,roll,pitch,yaw,gyro_x,gyro_y,gyro_z,acc_x,acc_y,acc_z,flag_num
1758077199.15981,1758077199.05494,0.0,0.0,0.0,6.35983,7.44845,-23.72045,8.68,-0.32,2.2,3.0
1758077199.1767,1758077199.06494,0.0,0.0,0.0,7.16197,5.72958,-20.3973,8.66,-0.38,2.25,3.0
1758077199.17899,1758077199.07494,0.0,0.0,0.0,7.39116,4.64096,-16.90226,8.55,-0.2,2.13,3.0
1758077199.18099,1758077199.08494,0.0,0.0,0.0,6.87549,4.1253,-15.75634,8.55,-0.2,2.13,3.0
1758077199.19612,1758077199.09494,0.0,0.0,0.0,6.07335,3.26586,-15.46986,8.31,0.16,2.06,3.0
1758077199.19721,1758077199.10494,0.0,0.0,0.0,5.32851,2.29183,-16.10011,8.31,0.16,2.06,3.0
1758077199.21217,1758077199.11494,0.0,0.0,0.0,3.89611,0.45837,-17.13144,8.14,0.51,2.02,3.0
1758077199.2131,1758077199.12494,0.0,0.0,0.0,2.86479,-0.57296,-18.16276,8.14,0.51,2.02,3.0
1758077199.22818,1758077199.13494,0.0,0.0,0.0,1.77617,-1.83346,-19.07949,8.11,0.7,1.92,3.0
1758077199.24519,1758077199.14494,0.0,0.0,0.0,0.0573,-3.83882,-19.36597,8.11,0.7,1.92,3.0
1758077199.24611,1758077199.15494,0.0,0.0,0.0,-1.08862,-4.69825,-18.90761,8.19,0.67,1.8,3.0
1758077199.26119,1758077199.16494,0.0,0.0,0.0,-2.34913,-4.98473,-18.10547,8.52,0.55,1.7,3.0
1758077199.26557,1758077199.17494,0.0,0.0,0.0,-3.55234,-5.21392,-16.67307,8.52,0.55,1.7,3.0
1758077199.28121,1758077199.18494,0.0,0.0,0.0,-5.32851,-5.61499,-14.32395,8.97,0.44,1.69,3.0
1758077199.29093,1758077199.19494,0.0,0.0,0.0,-6.35983,-5.90147,-12.60507,8.97,0.44,1.69,3.0
1758077199.32908,1758077199.20494,0.0,0.0,0.0,-7.39116,-6.07335,-11.11538,9.39,0.41,1.64,3.0
1758077199.39345,1758077199.21494,0.0,0.0,0.0,-8.70896,-4.52637,-10.31324,9.39,0.41,1.64,3.0
1758077199.39406,1758077199.22494,0.0,0.0,0.0,-10.59972,1.48969,-9.11003,10.03,0.46,1.51,3.0
1758077199.39607,1758077199.23494,0.0,0.0,0.0,-11.80293,6.99009,-8.42248,10.74,0.46,1.35,3.0
1758077199.39671,1758077199.24494,0.0,0.0,0.0,-13.12073,12.14671,-7.79223,10.74,0.46,1.35,3.0
1758077199.39882,1758077199.25494,0.0,0.0,0.0,-14.66772,16.73037,-7.44845,11.14,0.39,1.57,3.0
1758077199.3994,1758077199.26494,0.0,0.0,0.0,-17.30333,22.51724,-6.7609,11.14,0.39,1.57,3.0
1758077199.40223,1758077199.27494,0.0,0.0,0.0,-20.05352,27.2155,-7.21927,11.8,0.49,2.08,3.0
1758077199.40285,1758077199.28494,0.0,0.0,0.0,-23.0902,30.19488,-9.39651,11.8,0.49,2.08,3.0
1758077199.40442,1758077199.29494,0.0,0.0,0.0,-26.47065,26.64254,-11.17268,12.45,0.91,2.47,3.0
1758077199.40553,1758077199.30494,0.0,0.0,0.0,-33.68992,22.57454,-16.50119,12.67,1.53,3.03,3.0
1758077199.40679,1758077199.31494,0.0,0.0,0.0,-38.44547,11.97482,-17.36062,12.67,1.53,3.03,3.0
1758077199.42205,1758077199.32494,0.0,0.0,0.0,-44.40423,-12.2613,-18.85031,11.69,2.39,5.03,3.0
1758077199.42318,1758077199.33494,0.0,0.0,0.0,-51.22243,-48.8733,-27.04361,11.69,2.39,5.03,3.0
1758077199.44108,1758077199.34494,0.0,0.0,0.0,-50.01921,-58.72818,-31.74186,12.68,2.12,6.08,3.0
1758077199.44515,1758077199.35494,0.0,0.0,0.0,-45.72203,-48.52953,-34.49206,12.68,2.12,6.08,3.0
1758077199.46113,1758077199.36494,0.0,0.0,0.0,-42.39888,-32.77319,-32.77319,16.42,0.08,4.04,3.0
1758077199.46312,1758077199.37494,0.0,0.0,0.0,-41.13837,-19.07949,-27.33009,16.42,0.08,4.04,3.0
1758077199.49142,1758077199.38494,0.0,0.0,0.0,-42.28429,-11.91752,-19.99623,14.77,-0.79,3.26,3.0
1758077199.49621,1758077199.39494,0.0,0.0,0.0,-45.77933,-4.98473,-11.80293,12.63,0.24,3.99,3.0
1758077199.49657,1758077199.40494,0.0,0.0,0.0,-49.38896,-0.17189,-2.63561,12.63,0.24,3.99,3.0
1758077199.51212,1758077199.41494,0.0,0.0,0.0,-55.11855,-13.46451,7.10468,10.3,1.24,4.69,3.0
1758077199.51323,1758077199.42494,0.0,0.0,0.0,-59.35843,-29.67921,7.44845,10.3,1.24,4.69,3.0
1758077199.52828,1758077199.43494,0.0,0.0,0.0,-63.13995,-37.01308,7.79223,8.03,1.3,4.4,3.0
1758077199.54534,1758077199.44494,0.0,0.0,0.0,-66.40582,-34.0337,6.7609,8.03,1.3,4.4,3.0
1758077199.54624,1758077199.45494,0.0,0.0,0.0,-69.55708,-36.49741,5.78687,8.78,0.95,2.76,3.0
1758077199.56127,1758077199.46494,0.0,0.0,0.0,-70.18733,-42.51347,5.27121,6.69,0.64,3.48,3.0
1758077199.56495,1758077199.47494,0.0,0.0,0.0,-69.95815,-46.69606,4.81285,6.69,0.64,3.48,3.0
1758077199.58116,1758077199.48494,0.0,0.0,0.0,-69.27061,-47.15443,4.46907,6.74,-0.08,2.92,3.0
1758077199.58544,1758077199.49494,0.0,0.0,0.0,-67.43713,-41.99781,4.18259,6.74,-0.08,2.92,3.0
1758077199.60203,1758077199.50494,0.0,0.0,0.0,-65.2599,-35.92446,4.98473,7.8,-0.91,2.51,3.0
1758077199.60323,1758077199.51494,0.0,0.0,0.0,-61.70755,-29.56462,7.16197,7.8,-0.91,2.51,3.0
1758077199.61807,1758077199.52494,0.0,0.0,0.0,-57.92604,-23.0902,11.11538,8.22,-1.52,2.57,3.0
1758077199.63407,1758077199.53494,0.0,0.0,0.0,-53.28508,-14.20935,13.00614,8.27,-1.62,2.25,3.0
1758077199.6368,1758077199.54494,0.0,0.0,0.0,-52.19646,-7.73493,13.86558,8.27,-1.62,2.25,3.0
1758077199.65605,1758077199.55494,0.0,0.0,0.0,-52.65482,-0.45837,13.5791,8.78,-1.05,1.7,3.0
1758077199.65853,1758077199.56494,0.0,0.0,0.0,-54.3164,14.43854,13.86558,8.78,-1.05,1.7,3.0
1758077199.67308,1758077199.57494,0.0,0.0,0.0,-54.94666,22.05888,14.32395,9.27,-0.41,1.59,3.0
1758077199.67619,1758077199.58494,0.0,0.0,0.0,-55.51962,27.50197,14.20935,9.27,-0.41,1.59,3.0
1758077199.69108,1758077199.59494,0.0,0.0,0.0,-55.40502,33.11696,14.66772,8.97,-0.23,1.86,3.0
1758077199.69337,1758077199.60494,0.0,0.0,0.0,-55.29043,38.50277,14.49583,8.97,-0.23,1.88,3.0
1758077199.7111,1758077199.61494,0.0,0.0,0.0,-55.57691,40.96649,13.40721,8.97,-0.43,1.88,3.0
1758077199.71338,1758077199.62494,0.0,0.0,0.0,-55.97798,41.59674,12.204,8.71,-0.59,2.02,3.0
1758077199.72936,1758077199.63494,0.0,0.0,0.0,-56.49364,42.1124,10.37054,8.71,-0.59,2.02,3.0
1758077199.74536,1758077199.64494,0.0,0.0,0.0,-58.09792,43.31561,7.67763,8.52,-0.61,2.09,3.0
1758077199.74631,1758077199.65494,0.0,0.0,0.0,-59.35843,44.17505,6.41713,8.52,-0.61,2.09,3.0
1758077199.76128,1758077199.66494,0.0,0.0,0.0,-60.61894,42.34158,5.09932,8.16,-0.57,2.09,3.0
1758077199.76565,1758077199.67494,0.0,0.0,0.0,-61.36378,39.76327,4.1253,8.16,-0.57,2.09,3.0
1758077199.78138,1758077199.68494,0.0,0.0,0.0,-61.65026,37.47144,3.72423,7.78,-0.74,2.11,3.0
1758077199.78307,1758077199.69494,0.0,0.0,0.0,-61.42108,36.32552,3.66693,7.94,-1.07,1.84,3.0
1758077199.80092,1758077199.70494,0.0,0.0,0.0,-60.79083,33.86181,3.66693,7.94,-1.07,1.84,3.0
1758077199.81643,1758077199.71494,0.0,0.0,0.0,-59.98868,32.08564,3.49504,7.84,-1.39,1.81,3.0
1758077199.81934,1758077199.72494,0.0,0.0,0.0,-56.89471,29.56462,4.0107,7.84,-1.39,1.81,3.0
1758077199.83412,1758077199.73494,0.0,0.0,0.0,-54.25911,27.67386,4.87014,7.94,-1.64,1.73,3.0
1758077199.8362,1758077199.74494,0.0,0.0,0.0,-51.45161,25.8404,6.13065,7.94,-1.64,1.73,3.0
1758077199.85121,1758077199.75494,0.0,0.0,0.0,-47.38361,22.23076,7.10468,8.07,-1.77,1.8,3.0
1758077199.85355,1758077199.76494,0.0,0.0,0.0,-44.63341,19.42327,6.99009,8.04,-1.71,1.77,3.0
1758077199.87002,1758077199.77494,0.0,0.0,0.0,-42.28429,17.01685,6.47442,8.04,-1.71,1.77,3.0
1758077199.88641,1758077199.78494,0.0,0.0,0.0,-40.10705,15.69904,5.32851,8.18,-1.63,1.77,3.0
1758077199.88936,1758077199.79494,0.0,0.0,0.0,-37.12767,14.61043,2.6929,8.18,-1.63,1.77,3.0
1758077199.90445,1758077199.80494,0.0,0.0,0.0,-35.06502,14.15206,0.97403,8.55,-1.54,1.82,3.0
1758077199.90616,1758077199.81494,0.0,0.0,0.0,-33.23156,13.5791,-0.80214,8.55,-1.54,1.82,3.0
1758077199.92148,1758077199.82494,0.0,0.0,0.0,-31.85646,13.12073,-2.23454,8.79,-1.49,1.96,3.0
1758077199.92325,1758077199.83494,0.0,0.0,0.0,-30.30947,12.43318,-3.20856,8.95,-1.47,1.88,3.0
1758077199.94144,1758077199.84494,0.0,0.0,0.0,-29.10626,11.28727,-3.20856,8.95,-1.47,1.88,3.0
1758077199.94641,1758077199.85494,0.0,0.0,0.0,-28.07493,9.74028,-2.40642,9.0,-1.55,1.95,3.0
1758077199.96219,1758077199.86494,0.0,0.0,0.0,-27.04361,7.96411,-1.71887,9.0,-1.55,1.95,3.0
1758077199.96659,1758077199.87494,0.0,0.0,0.0,-24.92367,4.92744,-0.57296,8.96,-1.73,1.92,3.0
1758077199.98958,1758077199.88494,0.0,0.0,0.0,-23.0902,4.52637,-0.17189,8.96,-1.73,1.92,3.0
1758077199.99646,1758077199.89494,0.0,0.0,0.0,-20.68378,5.90147,-0.0573,9.21,-1.93,1.71,3.0
1758077200.00105,1758077199.90494,0.0,0.0,0.0,-18.27736,7.79223,-0.57296,9.21,-1.93,1.71,3.0
1758077200.00354,1758077199.91494,0.0,0.0,0.0,-14.03747,10.94349,-2.23454,9.54,-2.08,1.69,3.0
1758077200.0215,1758077199.92494,0.0,0.0,0.0,-10.59972,14.09476,-3.26586,10.0,-2.18,1.78,3.0
1758077200.02429,1758077199.93494,0.0,0.0,0.0,-6.99009,18.62113,-3.66693,10.0,-2.18,1.78,3.0
1758077200.04132,1758077199.94494,0.0,0.0,0.0,-2.7502,20.85567,-1.94806,10.6,-2.31,2.2,3.0
1758077200.04223,1758077199.95494,0.0,0.0,0.0,3.55234,17.58981,0.74485,10.6,-2.31,2.2,3.0
1758077200.0593,1758077199.96494,0.0,0.0,0.0,8.36518,15.46986,4.58366,10.53,-2.5,2.39,3.0
1758077200.07522,1758077199.97494,0.0,0.0,0.0,13.23533,13.75099,8.65166,10.53,-2.5,2.39,3.0
1758077200.07643,1758077199.98494,0.0,0.0,0.0,21.31403,11.17268,14.20935,11.24,-2.85,2.47,3.0
1758077200.09136,1758077199.99494,0.0,0.0,0.0,26.75713,7.10468,16.67307,11.68,-3.25,3.02,3.0
1758077200.09566,1758077200.00494,0.0,0.0,0.0,31.97105,-2.92208,18.10547,11.68,-3.25,3.02,3.0
1758077200.11121,1758077200.01494,0.0,0.0,0.0,36.03905,-21.02755,17.58981,11.16,-3.58,4.42,3.0
1758077200.11245,1758077200.02494,0.0,0.0,0.0,38.56006,-51.27972,16.3293,11.16,-3.58,4.42,3.0
1758077200.12932,1758077200.03494,0.0,0.0,0.0,39.13302,-46.1804,17.01685,12.46,-3.16,5.6,3.0
1758077200.14554,1758077200.04494,0.0,0.0,0.0,37.47144,-18.73572,18.22006,12.46,-3.16,5.6,3.0
1758077200.14909,1758077200.05494,0.0,0.0,0.0,34.37747,5.84417,19.13679,18.09,-2.06,4.78,3.0
1758077200.16451,1758077200.06494,0.0,0.0,0.0,27.96034,7.44845,13.17803,13.45,-1.83,3.96,3.0
1758077200.16544,1758077200.07494,0.0,0.0,0.0,26.64254,-6.07335,8.0787,13.45,-1.83,3.96,3.0
1758077200.18132,1758077200.08494,0.0,0.0,0.0,28.70519,-23.94964,3.55234,9.54,-2.25,3.74,3.0
1758077200.18304,1758077200.09494,0.0,0.0,0.0,30.36677,-37.47144,-1.83346,9.54,-2.25,3.74,3.0
1758077200.19924,1758077200.10494,0.0,0.0,0.0,38.15899,-48.24305,-6.99009,10.25,-2.85,4.57,3.0
1758077200.21553,1758077200.11494,0.0,0.0,0.0,43.37291,-52.08187,-8.59437,10.25,-2.85,4.57,3.0
1758077200.21644,1758077200.12494,0.0,0.0,0.0,48.35764,-56.66553,-9.28192,10.37,-3.04,4.34,3.0
1758077200.23154,1758077200.13494,0.0,0.0,0.0,51.90998,-60.33246,-9.39651,10.37,-3.04,4.34,3.0
1758077200.23412,1758077200.14494,0.0,0.0,0.0,53.97263,-62.5097,-9.5684,8.94,-2.48,3.82,3.0
1758077200.25035,1758077200.15494,0.0,0.0,0.0,53.34238,-61.53567,-9.28192,7.65,-1.39,3.4,3.0
1758077200.26637,1758077200.16494,0.0,0.0,0.0,51.16513,-60.27517,-8.65166,7.65,-1.39,3.4,3.0
1758077200.26784,1758077200.17494,0.0,0.0,0.0,46.2377,-57.75415,-6.7609,6.68,0.01,3.25,3.0
1758077200.28336,1758077200.18494,0.0,0.0,0.0,42.39888,-55.51962,-4.81285,6.68,0.01,3.25,3.0
1758077200.28459,1758077200.19494,0.0,0.0,0.0,39.01843,-50.87865,-2.57831,6.76,0.97,2.69,3.0
1758077200.29959,1758077200.20494,0.0,0.0,0.0,36.55471,-44.23235,0.0,6.76,0.97,2.69,3.0
1758077200.31561,1758077200.21494,0.0,0.0,0.0,33.63263,-32.20023,2.40642,8.11,1.19,2.42,3.0
1758077200.31655,1758077200.22494,0.0,0.0,0.0,32.08564,-23.66316,3.03668,8.86,0.92,2.11,3.0
1758077200.33165,1758077200.23494,0.0,0.0,0.0,30.76784,-14.20935,3.26586,8.86,0.92,2.11,3.0
1758077200.33252,1758077200.24494,0.0,0.0,0.0,29.67921,-6.53172,3.89611,9.14,0.44,2.05,3.0
1758077200.34916,1758077200.25494,0.0,0.0,0.0,28.24682,3.49504,3.83882,9.14,0.44,2.05,3.0
1758077200.36678,1758077200.26494,0.0,0.0,0.0,27.2155,9.4538,2.7502,8.93,-0.01,2.08,3.0
1758077200.36989,1758077200.27494,0.0,0.0,0.0,25.8404,14.66772,0.85944,8.93,-0.01,2.08,3.0
1758077200.38539,1758077200.28494,0.0,0.0,0.0,24.12152,19.53786,-1.83346,8.71,-0.25,2.29,3.0
1758077200.38701,1758077200.29494,0.0,0.0,0.0,21.42862,24.92367,-6.58902,8.64,-0.22,2.29,3.0
1758077200.40135,1758077200.30494,0.0,0.0,0.0,19.76705,27.73116,-9.62569,8.64,-0.22,2.29,3.0
1758077200.40261,1758077200.31494,0.0,0.0,0.0,18.27736,28.13223,-12.49048,8.65,-0.16,2.35,3.0
1758077200.41919,1758077200.32494,0.0,0.0,0.0,17.01685,26.52795,-14.20935,8.65,-0.16,2.35,3.0
1758077200.43568,1758077200.33494,0.0,0.0,0.0,15.64175,22.40265,-15.24068,8.42,-0.08,2.39,3.0
1758077200.43656,1758077200.34494,0.0,0.0,0.0,15.29797,20.79837,-14.78231,8.42,-0.08,2.39,3.0
1758077200.45168,1758077200.35494,0.0,0.0,0.0,15.46986,18.9649,-13.80828,8.79,-0.11,2.21,3.0
1758077200.45266,1758077200.36494,0.0,0.0,0.0,15.92823,16.73037,-9.91217,8.79,-0.11,2.21,3.0
1758077200.46965,1758077200.37494,0.0,0.0,0.0,16.10011,12.14671,-7.39116,8.78,-0.2,2.1,3.0
1758077200.48567,1758077200.38494,0.0,0.0,0.0,16.272,10.08406,-4.92744,8.88,-0.2,1.99,3.0
1758077200.48663,1758077200.39494,0.0,0.0,0.0,16.21471,7.21927,-3.83882,8.88,-0.2,1.99,3.0
1758077200.5018,1758077200.40494,0.0,0.0,0.0,15.75634,2.97938,-3.72423,8.78,-0.02,1.79,3.0
1758077200.50424,1758077200.41494,0.0,0.0,0.0,15.58445,1.43239,-4.35448,8.78,-0.02,1.79,3.0
1758077200.52145,1758077200.42494,0.0,0.0,0.0,15.58445,0.22918,-5.09932,8.88,0.16,1.65,3.0
1758077200.52427,1758077200.43494,0.0,0.0,0.0,15.41257,-0.97403,-5.55769,8.88,0.16,1.65,3.0
1758077200.54074,1758077200.44494,0.0,0.0,0.0,14.9542,-2.06265,-5.72958,8.79,0.16,1.62,3.0
1758077200.55684,1758077200.45494,0.0,0.0,0.0,14.66772,-2.34913,-5.09932,8.79,0.02,1.56,3.0
1758077200.55766,1758077200.46494,0.0,0.0,0.0,14.20935,-1.71887,-4.35448,8.79,0.02,1.56,3.0
1758077200.57272,1758077200.47494,0.0,0.0,0.0,14.15206,-0.80214,-3.49504,9.04,-0.16,1.63,3.0
1758077200.5761,1758077200.48494,0.0,0.0,0.0,14.15206,1.08862,-3.03668,9.04,-0.16,1.63,3.0
1758077200.59176,1758077200.49494,0.0,0.0,0.0,14.43854,3.09397,-3.26586,9.33,-0.3,1.6,3.0
1758077200.59269,1758077200.50494,0.0,0.0,0.0,14.78231,5.27121,-4.0107,9.33,-0.3,1.6,3.0
1758077200.61082,1758077200.51494,0.0,0.0,0.0,15.29797,7.10468,-5.15662,9.45,-0.24,1.38,3.0
1758077200.62677,1758077200.52494,0.0,0.0,0.0,15.75634,8.76626,-6.87549,9.27,-0.04,1.2,3.0
1758077200.62803,1758077200.53494,0.0,0.0,0.0,15.69904,10.08406,-8.30789,9.27,-0.04,1.2,3.0
1758077200.64335,1758077200.54494,0.0,0.0,0.0,15.06879,12.204,-9.05273,9.34,0.19,0.82,3.0
1758077200.64654,1758077200.55494,0.0,0.0,0.0,14.09476,14.49583,-8.99544,9.34,0.19,0.82,3.0
1758077200.66155,1758077200.56494,0.0,0.0,0.0,12.204,18.50654,-7.67763,9.62,0.31,0.64,3.0
1758077200.66273,1758077200.57494,0.0,0.0,0.0,10.8862,20.45459,-5.84417,9.62,0.31,0.64,3.0
1758077200.68062,1758077200.58494,0.0,0.0,0.0,9.68299,22.40265,-4.35448,10.05,0.29,0.7,3.0
1758077200.69654,1758077200.59494,0.0,0.0,0.0,7.50575,23.37668,-2.6929,10.05,0.29,0.7,3.0
1758077200.69775,1758077200.60494,0.0,0.0,0.0,6.18794,20.45459,-2.46372,10.62,0.3,0.97,3.0
1758077200.71362,1758077200.61494,0.0,0.0,0.0,4.52637,13.98017,-3.03668,10.84,0.49,1.15,3.0
1758077200.71569,1758077200.62494,0.0,0.0,0.0,3.66693,0.0,-3.26586,10.84,0.49,1.15,3.0
1758077200.73056,1758077200.63494,0.0,0.0,0.0,2.40642,-5.61499,-13.98017,11.44,0.89,2.17,3.0
1758077200.74682,1758077200.64494,0.0,0.0,0.0,2.86479,-5.09932,-21.7724,11.44,0.89,2.17,3.0
1758077200.74779,1758077200.65494,0.0,0.0,0.0,3.95341,-6.7609,-28.476,14.1,0.72,3.78,3.0
1758077200.76416,1758077200.66494,0.0,0.0,0.0,6.18794,-10.31324,-33.34615,14.1,0.72,3.78,3.0
1758077200.76692,1758077200.67494,0.0,0.0,0.0,9.62569,-17.36062,-36.61201,14.37,-0.46,3.7,3.0
1758077200.78259,1758077200.68494,0.0,0.0,0.0,11.86023,-20.74107,-36.03905,13.67,-1.24,3.21,3.0
1758077200.78566,1758077200.69494,0.0,0.0,0.0,12.83425,-13.5791,-31.51268,13.67,-1.24,3.21,3.0
1758077200.80092,1758077200.70494,0.0,0.0,0.0,11.51645,9.33921,-28.01764,15.14,-0.43,3.95,3.0
1758077200.81694,1758077200.71494,0.0,0.0,0.0,4.87014,40.45082,-21.42862,15.14,-0.43,3.95,3.0
1758077200.81861,1758077200.72494,0.0,0.0,0.0,0.97403,34.49206,-13.5218,13.99,1.75,6.08,3.0
1758077200.83382,1758077200.73494,0.0,0.0,0.0,-3.32316,12.37589,-5.55769,13.99,1.75,6.08,3.0
1758077200.83554,1758077200.74494,0.0,0.0,0.0,-9.74028,-2.46372,0.51566,10.93,3.07,5.81,3.0
1758077200.85084,1758077200.75494,0.0,0.0,0.0,-19.70975,-2.23454,10.31324,13.36,2.73,4.94,3.0
1758077200.8669,1758077200.76494,0.0,0.0,0.0,-25.55392,-1.48969,14.49583,13.36,2.73,4.94,3.0
1758077200.86786,1758077200.77494,0.0,0.0,0.0,-29.96569,-1.3178,16.50119,11.82,1.41,5.39,3.0
1758077200.88269,1758077200.78494,0.0,0.0,0.0,-34.77854,-0.11459,16.04282,11.82,1.41,5.39,3.0
1758077200.88495,1758077200.79494,0.0,0.0,0.0,-36.6693,-2.34913,14.66772,9.71,0.13,4.04,3.0
1758077200.90046,1758077200.80494,0.0,0.0,0.0,-37.58603,-7.79223,12.89155,9.71,0.13,4.04,3.0
1758077200.91672,1758077200.81494,0.0,0.0,0.0,-37.64333,-13.23533,10.59972,7.54,-0.68,3.1,3.0
1758077200.91827,1758077200.82494,0.0,0.0,0.0,-36.89849,-17.99088,7.04738,7.54,-0.68,3.1,3.0
1758077200.93268,1758077200.83494,0.0,0.0,0.0,-37.01308,-20.62648,4.92744,6.54,-0.9,2.47,3.0
1758077200.93579,1758077200.84494,0.0,0.0,0.0,-37.18496,-25.21014,3.89611,5.56,-0.47,2.87,3.0
1758077200.95066,1758077200.85494,0.0,0.0,0.0,-37.52874,-31.28349,3.26586,5.56,-0.47,2.87,3.0
1758077200.96664,1758077200.86494,0.0,0.0,0.0,-38.27358,-38.1017,3.55234,5.41,-0.12,3.13,3.0
1758077200.96785,1758077200.87494,0.0,0.0,0.0,-39.3622,-38.27358,4.29718,5.41,-0.12,3.13,3.0
1758077200.98296,1758077200.88494,0.0,0.0,0.0,-41.08107,-36.38282,5.55769,7.09,-0.32,2.83,3.0
1758077200.98392,1758077200.89494,0.0,0.0,0.0,-42.68536,-34.26288,7.39116,7.09,-0.32,2.83,3.0
1758077200.99896,1758077200.90494,0.0,0.0,0.0,-43.25832,-27.84575,12.49048,7.88,-0.83,2.64,3.0
1758077201.01575,1758077200.91494,0.0,0.0,0.0,-41.99781,-22.51724,17.13144,7.77,-1.62,2.62,3.0
1758077201.01698,1758077200.92494,0.0,0.0,0.0,-40.33623,-16.50119,21.31403,7.77,-1.62,2.62,3.0
1758077201.03196,1758077200.93494,0.0,0.0,0.0,-38.73195,-10.37054,24.75178,7.57,-2.16,2.36,3.0
1758077201.03365,1758077200.94494,0.0,0.0,0.0,-37.18496,-3.20856,27.38738,7.57,-2.16,2.36,3.0
1758077201.04995,1758077200.95494,0.0,0.0,0.0,-36.7266,2.40642,27.96034,7.99,-1.92,2.21,3.0
1758077201.06576,1758077200.96494,0.0,0.0,0.0,-36.84119,9.33921,27.33009,7.99,-1.92,2.21,3.0
1758077201.06728,1758077200.97494,0.0,0.0,0.0,-37.01308,16.55848,26.12688,9.04,-1.24,2.02,3.0
1758077201.08195,1758077200.98494,0.0,0.0,0.0,-37.12767,27.33009,24.12152,9.44,-0.73,2.04,3.0
1758077201.08371,1758077200.99494,0.0,0.0,0.0,-36.7266,31.62727,22.51724,9.44,-0.73,2.04,3.0
1758077201.101,1758077201.00494,0.0,0.0,0.0,-36.55471,33.63263,20.79837,8.95,-0.53,2.31,3.0
1758077201.11698,1758077201.01494,0.0,0.0,0.0,-36.7266,35.06502,18.27736,8.95,-0.53,2.31,3.0
1758077201.12033,1758077201.02494,0.0,0.0,0.0,-37.24226,35.40879,16.84496,8.91,-0.83,2.4,3.0
1758077201.13598,1758077201.03494,0.0,0.0,0.0,-38.1017,35.2942,15.12609,8.91,-0.83,2.4,3.0
1758077201.13888,1758077201.04494,0.0,0.0,0.0,-39.24761,34.77854,14.20935,8.91,-1.29,2.48,3.0
1758077201.15376,1758077201.05494,0.0,0.0,0.0,-40.50812,31.16891,13.75099,8.91,-1.29,2.39,3.0
1758077201.15528,1758077201.06494,0.0,0.0,0.0,-40.68,29.04896,13.80828,8.5,-1.57,2.39,3.0
1758077201.16977,1758077201.07494,0.0,0.0,0.0,-40.39353,27.38738,13.86558,8.47,-1.71,2.46,3.0
1758077201.18596,1758077201.08494,0.0,0.0,0.0,-39.70598,25.38203,14.09476,8.47,-1.71,2.46,3.0
1758077201.18696,1758077201.09494,0.0,0.0,0.0,-37.81522,22.23076,14.32395,8.34,-1.71,2.34,3.0
1758077201.20179,1758077201.10494,0.0,0.0,0.0,-36.7266,19.59516,13.5791,8.34,-1.71,2.34,3.0
1758077201.20653,1758077201.11494,0.0,0.0,0.0,-33.51803,20.85567,15.29797,8.43,-1.74,2.18,3.0
1758077201.22173,1758077201.12494,0.0,0.0,0.0,-30.65324,18.90761,15.92823,8.43,-1.74,2.18,3.0
1758077201.2238,1758077201.13494,0.0,0.0,0.0,-26.41335,13.12073,16.84496,7.87,-1.78,2.33,3.0
1758077201.24115,1758077201.14494,0.0,0.0,0.0,-24.12152,10.71431,16.38659,7.71,-2.03,2.14,3.0
1758077201.25706,1758077201.15494,0.0,0.0,0.0,-22.23076,9.39651,15.06879,7.71,-2.03,2.14,3.0
1758077201.25879,1758077201.16494,0.0,0.0,0.0,-20.97026,7.10468,12.83425,7.95,-2.09,2.09,3.0
1758077201.27381,1758077201.17494,0.0,0.0,0.0,-19.53786,3.66693,8.88085,7.95,-2.09,2.09,3.0
1758077201.27665,1758077201.18494,0.0,0.0,0.0,-18.50654,2.23454,5.78687,8.26,-1.94,2.04,3.0
1758077201.29291,1758077201.19494,0.0,0.0,0.0,-17.13144,1.3178,2.86479,8.26,-1.94,2.04,3.0
1758077201.29382,1758077201.20494,0.0,0.0,0.0,-15.75634,0.74485,-1.3178,8.74,-1.73,1.95,3.0
1758077201.30915,1758077201.21494,0.0,0.0,0.0,-14.38124,-0.22918,-3.20856,8.8,-1.67,2.06,3.0
1758077201.32562,1758077201.22494,0.0,0.0,0.0,-13.23533,-0.85944,-4.18259,8.8,-1.67,2.06,3.0
1758077201.32684,1758077201.23494,0.0,0.0,0.0,-11.91752,-1.43239,-4.23989,8.69,-1.8,1.89,3.0
1758077201.34199,1758077201.24494,0.0,0.0,0.0,-10.19865,-2.29183,-3.72423,8.69,-1.8,1.89,3.0
1758077201.34492,1758077201.25494,0.0,0.0,0.0,-9.11003,-2.63561,-3.60963,8.69,-1.99,1.87,3.0
1758077201.36116,1758077201.26494,0.0,0.0,0.0,-8.02141,-3.55234,-3.49504,8.69,-1.99,1.87,3.0
1758077201.37721,1758077201.27494,0.0,0.0,0.0,-7.16197,-3.60963,-3.60963,8.76,-2.05,1.86,3.0
1758077201.37962,1758077201.28494,0.0,0.0,0.0,-5.61499,-3.95341,-4.52637,8.91,-2.05,1.68,3.0
1758077201.39594,1758077201.29494,0.0,0.0,0.0,-4.81285,-5.09932,-5.4431,8.91,-1.95,1.68,3.0
1758077201.39653,1758077201.30494,0.0,0.0,0.0,-3.20856,-3.49504,-5.84417,9.18,-1.9,1.76,3.0
1758077201.41295,1758077201.31494,0.0,0.0,0.0,-1.43239,1.71887,-6.24524,9.18,-1.9,1.76,3.0
1758077201.41585,1758077201.32494,0.0,0.0,0.0,2.40642,12.54778,-5.61499,9.93,-2.03,1.73,3.0
1758077201.43094,1758077201.33494,0.0,0.0,0.0,5.55769,15.24068,-4.18259,9.93,-2.03,1.73,3.0
1758077201.44692,1758077201.34494,0.0,0.0,0.0,8.99544,14.61043,-2.11994,9.45,-2.25,1.94,3.0
1758077201.44764,1758077201.35494,0.0,0.0,0.0,12.43318,13.46451,0.17189,9.45,-2.25,1.94,3.0
1758077201.46498,1758077201.36494,0.0,0.0,0.0,17.87628,12.60507,4.29718,9.4,-2.48,1.93,3.0
1758077201.46592,1758077201.37494,0.0,0.0,0.0,21.7724,12.14671,7.21927,9.8,-2.68,1.87,3.0
1758077201.48112,1758077201.38494,0.0,0.0,0.0,25.55392,11.57375,10.19865,9.8,-2.68,1.87,3.0
1758077201.49699,1758077201.39494,0.0,0.0,0.0,28.87707,9.96947,12.54778,10.03,-2.81,2.01,3.0
1758077201.49748,1758077201.40494,0.0,0.0,0.0,33.34615,2.57831,15.06879,10.03,-2.81,2.01,3.0
1758077201.51372,1758077201.41494,0.0,0.0,0.0,35.06502,-4.87014,15.12609,9.89,-2.83,2.11,3.0
1758077201.51574,1758077201.42494,0.0,0.0,0.0,35.92446,-11.17268,13.46451,9.89,-2.83,2.11,3.0
1758077201.536,1758077201.43494,0.0,0.0,0.0,37.47144,-3.83882,11.00079,10.42,-2.66,1.98,3.0
1758077201.53765,1758077201.44494,0.0,0.0,0.0,39.19032,16.21471,10.65701,13.48,-2.61,2.94,3.0
1758077201.55327,1758077201.45494,0.0,0.0,0.0,39.01843,35.69527,9.5684,13.48,-2.61,2.94,3.0
1758077201.55656,1758077201.46494,0.0,0.0,0.0,36.49741,36.15364,6.53172,13.2,-2.34,4.82,3.0
1758077201.57288,1758077201.47494,0.0,0.0,0.0,25.8404,-5.21392,4.69825,13.2,-2.34,4.82,3.0
1758077201.57634,1758077201.48494,0.0,0.0,0.0,23.89234,-36.26823,15.69904,10.19,-1.34,4.82,3.0
1758077201.59232,1758077201.49494,0.0,0.0,0.0,18.44924,-28.476,23.0329,10.19,-1.34,4.82,3.0
1758077201.59314,1758077201.50494,0.0,0.0,0.0,13.34992,-8.42248,26.24147,17.02,-1.02,2.98,3.0
1758077201.61066,1758077201.51494,0.0,0.0,0.0,8.88085,-0.74485,24.12152,15.08,-1.35,3.83,3.0
1758077201.62735,1758077201.52494,0.0,0.0,0.0,6.99009,-4.29718,18.9649,15.08,-1.35,3.83,3.0
1758077201.62865,1758077201.53494,0.0,0.0,0.0,6.13065,-6.87549,10.94349,12.62,-2.83,4.41,3.0
1758077201.64507,1758077201.54494,0.0,0.0,0.0,7.39116,-8.70896,2.06265,12.62,-2.83,4.41,3.0
1758077201.6464,1758077201.55494,0.0,0.0,0.0,11.17268,-8.0787,-10.65701,11.78,-3.9,4.24,3.0
1758077201.6613,1758077201.56494,0.0,0.0,0.0,14.9542,-11.28727,-17.01685,11.78,-3.9,4.24,3.0
1758077201.6631,1758077201.57494,0.0,0.0,0.0,19.13679,-16.84496,-20.74107,10.55,-3.74,4.64,3.0
1758077201.68088,1758077201.58494,0.0,0.0,0.0,22.97561,-22.68913,-22.34536,10.55,-3.74,4.64,3.0
1758077201.68308,1758077201.59494,0.0,0.0,0.0,27.84575,-32.54401,-20.85567,8.93,-2.83,4.24,3.0
1758077201.70132,1758077201.60494,0.0,0.0,0.0,29.8511,-40.33623,-17.58981,7.5,-1.75,4.0,3.0
1758077201.70487,1758077201.61494,0.0,0.0,0.0,30.53865,-47.26902,-13.69369,7.5,-1.75,4.0,3.0
1758077201.72112,1758077201.62494,0.0,0.0,0.0,30.19488,-52.08187,-5.95876,6.75,-0.73,3.45,3.0
1758077201.72199,1758077201.63494,0.0,0.0,0.0,28.99167,-55.34772,-0.85944,6.75,-0.73,3.45,3.0
1758077201.73761,1758077201.64494,0.0,0.0,0.0,26.87172,-56.20716,3.49504,6.85,0.08,3.12,3.0
1758077201.7545,1758077201.65494,0.0,0.0,0.0,24.12152,-55.11855,6.99009,6.85,0.08,3.12,3.0
1758077201.75601,1758077201.66494,0.0,0.0,0.0,18.10547,-48.64412,8.47978,7.39,0.67,2.92,3.0
1758077201.77111,1758077201.67494,0.0,0.0,0.0,14.20935,-43.94586,7.16197,7.97,0.77,2.7,3.0
1758077201.77312,1758077201.68494,0.0,0.0,0.0,11.17268,-38.84654,5.09932,7.97,0.77,2.7,3.0
1758077201.78904,1758077201.69494,0.0,0.0,0.0,8.88085,-31.85646,2.11994,8.59,0.14,2.36,3.0
1758077201.80531,1758077201.70494,0.0,0.0,0.0,5.78687,-20.79837,-3.26586,8.59,0.14,2.36,3.0
1758077201.80625,1758077201.71494,0.0,0.0,0.0,4.1253,-14.61043,-7.10468,8.7,-0.41,2.25,3.0
1758077201.82134,1758077201.72494,0.0,0.0,0.0,2.6929,-8.59437,-10.65701,8.7,-0.41,2.25,3.0
1758077201.8231,1758077201.73494,0.0,0.0,0.0,1.66158,-2.63561,-14.38124,8.48,-0.54,2.41,3.0
1758077201.83932,1758077201.74494,0.0,0.0,0.0,0.68755,5.61499,-18.90761,8.5,-0.37,2.43,3.0
1758077201.85514,1758077201.75494,0.0,0.0,0.0,0.11459,10.54242,-21.42862,8.5,-0.37,2.43,3.0
1758077201.85653,1758077201.76494,0.0,0.0,0.0,0.0573,13.17803,-22.63183,8.56,-0.4,2.59,3.0
1758077201.87113,1758077201.77494,0.0,0.0,0.0,0.0,13.23533,-24.12152,8.56,-0.4,2.59,3.0
1758077201.87315,1758077201.78494,0.0,0.0,0.0,0.85944,15.12609,-25.55392,8.65,-0.52,2.58,3.0
1758077201.89033,1758077201.79494,0.0,0.0,0.0,1.71887,16.04282,-26.35606,8.65,-0.52,2.58,3.0
1758077201.89238,1758077201.80494,0.0,0.0,0.0,2.97938,21.48592,-26.12688,8.95,-0.78,2.42,3.0
1758077201.91136,1758077201.81494,0.0,0.0,0.0,5.09932,18.85031,-21.94428,8.95,-0.78,2.42,3.0
1758077201.91339,1758077201.82494,0.0,0.0,0.0,6.7609,9.11003,-21.42862,8.27,-1.22,2.42,3.0
1758077201.92937,1758077201.83494,0.0,0.0,0.0,7.96411,10.48513,-21.7151,8.88,-1.12,2.16,3.0
1758077201.94544,1758077201.84494,0.0,0.0,0.0,9.74028,12.89155,-21.25674,8.88,-1.12,2.16,3.0
1758077201.94626,1758077201.85494,0.0,0.0,0.0,12.43318,13.5218,-20.3973,9.13,-0.86,2.03,3.0
1758077201.96141,1758077201.86494,0.0,0.0,0.0,13.69369,11.74564,-19.88164,9.13,-0.86,2.03,3.0
1758077201.96314,1758077201.87494,0.0,0.0,0.0,14.49583,10.37054,-19.88164,8.48,-0.67,2.12,3.0
1758077201.97916,1758077201.88494,0.0,0.0,0.0,15.24068,9.74028,-19.99623,8.48,-0.67,2.12,3.0
1758077201.99552,1758077201.89494,0.0,0.0,0.0,15.69904,9.5684,-19.82434,8.71,-0.46,1.84,3.0
1758077201.99674,1758077201.90494,0.0,0.0,0.0,15.98552,8.70896,-19.42327,8.84,-0.3,1.82,3.0
1758077202.01141,1758077201.91494,0.0,0.0,0.0,15.98552,7.67763,-18.62113,8.84,-0.3,1.82,3.0
1758077202.01342,1758077201.92494,0.0,0.0,0.0,16.10011,7.33386,-17.99088,9.02,-0.26,1.87,3.0
1758077202.02949,1758077201.93494,0.0,0.0,0.0,16.38659,8.25059,-17.01685,9.02,-0.26,1.87,3.0
1758077202.0452,1758077201.94494,0.0,0.0,0.0,16.61578,9.05273,-16.95955,9.36,-0.3,1.95,3.0
1758077202.04678,1758077201.95494,0.0,0.0,0.0,17.24603,10.48513,-17.24603,9.36,-0.3,1.95,3.0
1758077202.0612,1758077201.96494,0.0,0.0,0.0,18.10547,12.43318,-17.93358,9.68,-0.44,1.96,3.0
1758077202.06329,1758077201.97494,0.0,0.0,0.0,19.70975,15.87093,-19.25138,9.97,-0.61,1.91,3.0
1758077202.08044,1758077201.98494,0.0,0.0,0.0,20.68378,18.62113,-20.3973,9.97,-0.61,1.91,3.0
1758077202.08137,1758077201.99494,0.0,0.0,0.0,21.31403,20.45459,-21.02755,10.22,-0.74,1.71,3.0
1758077202.09749,1758077202.00494,0.0,0.0,0.0,21.37133,21.7724,-21.60051,10.22,-0.74,1.71,3.0
1758077202.11345,1758077202.01494,0.0,0.0,0.0,20.34,27.10091,-21.37133,10.61,-0.72,1.24,3.0
1758077202.11461,1758077202.02494,0.0,0.0,0.0,19.42327,30.48136,-20.74107,10.61,-0.72,1.24,3.0
1758077202.12946,1758077202.03494,0.0,0.0,0.0,18.22006,34.49206,-19.48057,11.19,-0.4,0.95,3.0
1758077202.14548,1758077202.04494,0.0,0.0,0.0,16.55848,39.4768,-16.50119,11.19,-0.4,0.95,3.0
1758077202.14662,1758077202.05494,0.0,0.0,0.0,14.9542,45.20637,-13.23533,11.9,0.06,1.49,3.0
1758077202.1612,1758077202.06494,0.0,0.0,0.0,12.37589,46.1804,-9.68299,12.13,0.47,2.22,3.0
1758077202.16246,1758077202.07494,0.0,0.0,0.0,8.42248,36.49741,-6.70361,12.13,0.47,2.22,3.0
1758077202.17756,1758077202.08494,0.0,0.0,0.0,5.55769,4.35448,-8.59437,10.77,0.99,4.5,3.0
1758077202.19324,1758077202.09494,0.0,0.0,0.0,3.95341,-1.77617,-17.6471,10.77,0.99,4.5,3.0
1758077202.19608,1758077202.10494,0.0,0.0,0.0,4.64096,-4.35448,-24.29341,13.36,1.12,6.74,3.0
1758077202.21125,1758077202.11494,0.0,0.0,0.0,5.32851,-8.42248,-31.2262,13.36,1.12,6.74,3.0
1758077202.21246,1758077202.12494,0.0,0.0,0.0,3.72423,-15.64175,-33.80451,14.57,0.7,5.23,3.0
1758077202.22752,1758077202.13494,0.0,0.0,0.0,0.51566,-21.7151,-29.73651,13.33,1.23,4.08,3.0
1758077202.24328,1758077202.14494,0.0,0.0,0.0,-3.66693,-28.24682,-22.00158,13.33,1.23,4.08,3.0
1758077202.24559,1758077202.15494,0.0,0.0,0.0,-8.0787,-31.79916,-13.12073,12.57,1.7,5.17,3.0
1758077202.26057,1758077202.16494,0.0,0.0,0.0,-13.80828,-31.79916,-0.45837,12.57,1.7,5.17,3.0
1758077202.26155,1758077202.17494,0.0,0.0,0.0,-17.01685,-33.34615,5.72958,12.09,1.41,4.9,3.0
1758077202.27758,1758077202.18494,0.0,0.0,0.0,-19.19409,-33.86181,9.4538,12.09,1.41,4.9,3.0
1758077202.29361,1758077202.19494,0.0,0.0,0.0,-21.6578,-31.62727,12.71966,10.24,0.37,4.48,3.0
1758077202.29565,1758077202.20494,0.0,0.0,0.0,-25.21014,-42.74266,13.98017,7.66,-0.1,3.01,3.0
1758077202.31034,1758077202.21494,0.0,0.0,0.0,-27.96034,-50.59217,12.43318,7.66,-0.1,3.01,3.0
1758077202.31153,1758077202.22494,0.0,0.0,0.0,-29.96569,-47.09713,10.19865,7.04,0.44,3.81,3.0
1758077202.32762,1758077202.23494,0.0,0.0,0.0,-32.71589,-40.27893,3.66693,7.04,0.44,3.81,3.0
1758077202.34339,1758077202.24494,0.0,0.0,0.0,-37.98711,-49.61814,-0.80214,6.55,0.87,3.16,3.0
1758077202.34453,1758077202.25494,0.0,0.0,0.0,-41.94051,-59.07195,-5.95876,6.55,0.87,3.16,3.0
1758077202.35959,1758077202.26494,0.0,0.0,0.0,-44.17505,-59.35843,-7.50575,5.49,0.8,3.53,3.0
1758077202.37563,1758077202.27494,0.0,0.0,0.0,-45.49285,-55.00395,-7.16197,5.49,0.8,3.53,3.0
1758077202.37685,1758077202.28493,0.0,0.0,0.0,-45.26366,-52.13916,-4.87014,7.36,0.33,2.5,3.0
1758077202.3916,1758077202.29493,0.0,0.0,0.0,-44.46153,-47.78468,-1.20321,7.67,-0.61,2.37,3.0
1758077202.39256,1758077202.30493,0.0,0.0,0.0,-43.60209,-42.05511,2.34913,7.67,-0.61,2.37,3.0
1758077202.40767,1758077202.31493,0.0,0.0,0.0,-42.39888,-30.19488,7.39116,7.86,-1.45,1.78,3.0
1758077202.42517,1758077202.32493,0.0,0.0,0.0,-41.65404,-21.94428,10.48513,7.86,-1.45,1.78,3.0
1758077202.42636,1758077202.33493,0.0,0.0,0.0,-40.7946,-14.61043,12.71966,7.86,-1.72,1.76,3.0
1758077202.44245,1758077202.34493,0.0,0.0,0.0,-39.70598,-7.73493,14.15206,7.86,-1.72,1.76,3.0
1758077202.44331,1758077202.35493,0.0,0.0,0.0,-37.75792,2.00535,15.41257,8.23,-1.47,2.06,3.0
1758077202.4586,1758077202.36493,0.0,0.0,0.0,-35.86716,9.05273,15.92823,9.06,-1.06,1.91,3.0
1758077202.47462,1758077202.37493,0.0,0.0,0.0,-33.9764,16.21471,16.10011,9.06,-1.06,1.91,3.0
1758077202.47559,1758077202.38493,0.0,0.0,0.0,-32.08564,23.49127,16.55848,9.76,-0.77,1.7,3.0
1758077202.49036,1758077202.39493,0.0,0.0,0.0,-29.96569,34.09099,16.73037,9.76,-0.77,1.7,3.0
1758077202.49158,1758077202.40493,0.0,0.0,0.0,-29.27814,38.73195,17.13144,9.86,-0.64,1.89,3.0
1758077202.50742,1758077202.41493,0.0,0.0,0.0,-29.10626,42.74266,17.58981,9.86,-0.64,1.89,3.0
1758077202.52469,1758077202.42493,0.0,0.0,0.0,-29.50733,46.81066,18.10547,9.51,-0.62,2.17,3.0
1758077202.52559,1758077202.43493,0.0,0.0,0.0,-30.99702,52.884,19.25138,9.42,-0.7,2.15,3.0
1758077202.54071,1758077202.44493,0.0,0.0,0.0,-32.6013,55.29043,19.59516,9.42,-0.7,2.15,3.0
1758077202.54158,1758077202.45493,0.0,0.0,0.0,-34.32018,56.32175,19.59516,9.02,-0.73,2.23,3.0
1758077202.5584,1758077202.46493,0.0,0.0,0.0,-37.01308,57.41038,18.50654,9.02,-0.73,2.23,3.0
1758077202.5811,1758077202.47493,0.0,0.0,0.0,-38.21629,59.35843,17.30333,8.93,-0.78,2.1,3.0
1758077202.58277,1758077202.48493,0.0,0.0,0.0,-39.19032,60.33246,14.78231,8.93,-0.78,2.1,3.0
1758077202.58338,1758077202.49493,0.0,0.0,0.0,-39.4768,60.33246,11.63104,8.92,-0.82,2.18,3.0
1758077202.60048,1758077202.50493,0.0,0.0,0.0,-38.50277,56.952,7.04738,8.92,-0.82,2.18,3.0
1758077202.60166,1758077202.51493,0.0,0.0,0.0,-37.24226,52.42564,4.69825,8.55,-0.85,2.14,3.0
1758077202.6178,1758077202.52493,0.0,0.0,0.0,-35.40879,47.49821,3.03668,8.26,-1.05,2.11,3.0
1758077202.63448,1758077202.53493,0.0,0.0,0.0,-33.05967,43.77398,2.11994,8.26,-1.05,2.11,3.0
1758077202.63648,1758077202.54493,0.0,0.0,0.0,-28.64789,39.13302,2.34913,8.4,-1.41,1.97,3.0
1758077202.66974,1758077202.55493,0.0,0.0,0.0,-25.61122,36.15364,3.49504,8.4,-1.41,1.97,3.0
1758077202.67061,1758077202.56493,0.0,0.0,0.0,-22.63183,31.97105,4.46907,8.17,-1.78,1.94,3.0
1758077202.67237,1758077202.57493,0.0,0.0,0.0,-20.16812,26.87172,4.87014,8.17,-1.78,1.94,3.0
1758077202.67406,1758077202.58493,0.0,0.0,0.0,-16.90226,19.42327,4.35448,7.6,-1.94,1.93,3.0
1758077202.68956,1758077202.59493,0.0,0.0,0.0,-15.75634,14.72501,3.09397,7.58,-1.79,1.79,3.0
1758077202.70569,1758077202.60493,0.0,0.0,0.0,-14.66772,10.25595,1.43239,7.58,-1.79,1.79,3.0
1758077202.70669,1758077202.61493,0.0,0.0,0.0,-14.20935,5.4431,-0.40107,7.98,-1.44,1.93,3.0
1758077202.72174,1758077202.62493,0.0,0.0,0.0,-13.80828,-1.3178,-2.86479,7.98,-1.44,1.93,3.0
1758077202.72267,1758077202.63493,0.0,0.0,0.0,-13.86558,-4.58366,-3.89611,8.52,-1.12,1.9,3.0
1758077202.73776,1758077202.64493,0.0,0.0,0.0,-14.09476,-7.67763,-4.52637,8.52,-1.12,1.9,3.0
1758077202.75344,1758077202.65493,0.0,0.0,0.0,-13.98017,-8.42248,-4.69825,8.93,-0.96,1.63,3.0
1758077202.75468,1758077202.66493,0.0,0.0,0.0,-13.34992,-5.95876,-4.46907,9.3,-1.05,1.44,3.0
1758077202.7697,1758077202.67493,0.0,0.0,0.0,-12.37589,-3.83882,-4.69825,9.3,-1.05,1.44,3.0
1758077202.78554,1758077202.68493,0.0,0.0,0.0,-10.8289,-1.60428,-5.21392,9.56,-1.31,1.48,3.0
1758077202.78674,1758077202.69493,0.0,0.0,0.0,-7.62034,3.09397,-5.78687,9.56,-1.31,1.48,3.0
1758077202.80178,1758077202.70493,0.0,0.0,0.0,-5.21392,7.10468,-6.18794,10.08,-1.66,1.43,3.0
1758077202.80269,1758077202.71493,0.0,0.0,0.0,-2.63561,11.63104,-6.47442,10.08,-1.66,1.43,3.0
1758077202.81783,1758077202.72493,0.0,0.0,0.0,0.45837,17.18874,-5.90147,10.76,-1.98,1.63,3.0
1758077202.83378,1758077202.73493,0.0,0.0,0.0,5.78687,19.99623,-2.46372,10.76,-1.98,2.24,3.0
1758077202.83472,1758077202.74493,0.0,0.0,0.0,9.33921,13.80828,0.85944,10.97,-2.31,2.24,3.0
1758077202.84978,1758077202.75493,0.0,0.0,0.0,12.89155,1.08862,5.4431,10.17,-2.88,3.2,3.0
1758077202.86557,1758077202.76493,0.0,0.0,0.0,17.01685,-15.0115,11.97482,10.17,-2.88,3.2,3.0
1758077202.86701,1758077202.77493,0.0,0.0,0.0,21.94428,-27.73116,24.29341,11.42,-3.21,4.68,3.0
1758077202.88158,1758077202.78493,0.0,0.0,0.0,23.0329,-31.79916,31.28349,11.42,-3.21,4.68,3.0
1758077202.8831,1758077202.79493,0.0,0.0,0.0,22.40265,-29.62192,35.40879,14.55,-2.64,4.98,3.0
1758077202.89783,1758077202.80493,0.0,0.0,0.0,20.85567,-24.80907,35.52338,14.55,-2.64,4.98,3.0
1758077202.91381,1758077202.81493,0.0,0.0,0.0,19.07949,-19.19409,30.02299,16.32,-2.04,5.16,3.0
1758077202.91506,1758077202.82493,0.0,0.0,0.0,18.85031,-17.36062,22.74642,15.18,-2.34,4.9,3.0
1758077202.92987,1758077202.83493,0.0,0.0,0.0,19.36597,-19.13679,13.34992,15.18,-2.34,4.9,3.0
1758077202.94583,1758077202.84493,0.0,0.0,0.0,20.3973,-23.60586,3.55234,12.57,-3.02,5.1,3.0
1758077202.94679,1758077202.85493,0.0,0.0,0.0,24.12152,-25.26744,-9.33921,12.57,-3.02,5.1,3.0
1758077202.96185,1758077202.86493,0.0,0.0,0.0,26.64254,-20.51189,-16.67307,11.58,-3.07,5.38,3.0
1758077202.96278,1758077202.87493,0.0,0.0,0.0,28.76248,-16.04282,-21.94428,11.58,-3.07,5.38,3.0
1758077202.97839,1758077202.88493,0.0,0.0,0.0,30.76784,-16.10011,-27.1582,10.5,-2.36,5.07,3.0
1758077202.99463,1758077202.89493,0.0,0.0,0.0,31.85646,-36.6693,-27.50197,7.46,-1.45,4.63,3.0
1758077202.99581,1758077202.90493,0.0,0.0,0.0,35.63798,-57.0093,-24.00693,7.46,-1.45,4.63,3.0
1758077203.01063,1758077202.91493,0.0,0.0,0.0,36.61201,-75.85962,-19.59516,5.83,-0.53,3.87,3.0
1758077203.01185,1758077202.92493,0.0,0.0,0.0,40.04975,-83.59455,-5.32851,5.83,-0.53,3.87,3.0
1758077203.02791,1758077202.93493,0.0,0.0,0.0,39.82057,-81.24542,2.40642,8.28,-0.13,3.61,3.0
1758077203.04394,1758077202.94493,0.0,0.0,0.0,38.84654,-84.28209,9.33921,8.28,-0.13,3.61,3.0
1758077203.04513,1758077202.95493,0.0,0.0,0.0,36.84119,-84.39669,14.61043,7.87,0.45,2.89,3.0
1758077203.05967,1758077202.96493,0.0,0.0,0.0,32.71589,-72.07809,17.36062,8.82,0.45,2.6,3.0
1758077203.07597,1758077202.97493,0.0,0.0,0.0,29.67921,-62.33781,15.35527,8.82,0.53,2.6,3.0
1758077203.07715,1758077202.98493,0.0,0.0,0.0,26.24147,-52.25375,10.71431,8.47,0.52,2.0,3.0
1758077203.09194,1758077202.99493,0.0,0.0,0.0,22.51724,-42.28429,4.58366,8.47,0.52,2.0,3.0
1758077203.0929,1758077203.00493,0.0,0.0,0.0,17.18874,-28.70519,-5.72958,8.04,0.68,2.34,3.0
1758077203.10791,1758077203.01493,0.0,0.0,0.0,14.61043,-20.11082,-11.80293,8.04,0.68,2.34,3.0
1758077203.12401,1758077203.02493,0.0,0.0,0.0,12.49048,-11.63104,-16.73037,8.27,0.75,2.16,3.0
1758077203.12567,1758077203.03493,0.0,0.0,0.0,11.22997,-3.66693,-20.51189,8.27,0.75,2.16,3.0
1758077203.14072,1758077203.04493,0.0,0.0,0.0,9.96947,7.62034,-24.23611,8.76,0.49,2.12,3.0
1758077203.14186,1758077203.05493,0.0,0.0,0.0,9.96947,14.15206,-25.49662,8.99,0.03,2.25,3.0
1758077203.15768,1758077203.06493,0.0,0.0,0.0,10.19865,20.22541,-26.12688,8.99,0.03,2.25,3.0
1758077203.1739,1758077203.07493,0.0,0.0,0.0,10.59972,26.18417,-26.52795,9.07,-0.36,2.31,3.0
1758077203.17648,1758077203.08493,0.0,0.0,0.0,11.80293,33.23156,-26.41335,9.07,-0.36,2.31,3.0
1758077203.19171,1758077203.09493,0.0,0.0,0.0,12.77696,35.75257,-26.18417,9.16,-0.54,2.37,3.0
1758077203.19297,1758077203.10493,0.0,0.0,0.0,13.86558,36.03905,-25.72581,9.16,-0.54,2.37,3.0
1758077203.2078,1758077203.11493,0.0,0.0,0.0,15.87093,35.12231,-25.21014,8.88,-0.51,2.25,3.0
1758077203.22395,1758077203.12493,0.0,0.0,0.0,17.58981,33.46074,-24.4653,8.69,-0.45,2.14,3.0
1758077203.22544,1758077203.13493,0.0,0.0,0.0,19.19409,32.42941,-23.0902,8.69,-0.45,2.14,3.0
1758077203.23975,1758077203.14493,0.0,0.0,0.0,20.97026,30.88243,-21.42862,8.6,-0.41,2.08,3.0
1758077203.25596,1758077203.15493,0.0,0.0,0.0,23.31938,27.61657,-17.58981,8.6,-0.41,2.08,3.0
1758077203.25722,1758077203.16493,0.0,0.0,0.0,24.5226,25.15285,-14.9542,8.23,-0.34,2.01,3.0
1758077203.27202,1758077203.17493,0.0,0.0,0.0,24.86637,23.0329,-12.43318,8.23,-0.34,2.01,3.0
1758077203.273,1758077203.18493,0.0,0.0,0.0,24.35071,20.05352,-11.17268,8.13,-0.08,2.04,3.0
1758077203.28775,1758077203.19493,0.0,0.0,0.0,23.0902,14.61043,-10.8862,7.94,0.36,1.97,3.0
1758077203.30499,1758077203.20493,0.0,0.0,0.0,21.94428,11.80293,-11.51645,7.94,0.36,1.97,3.0
1758077203.30596,1758077203.21493,0.0,0.0,0.0,20.62648,9.74028,-12.37589,8.14,0.8,1.82,3.0
1758077203.32102,1758077203.22493,0.0,0.0,0.0,19.19409,8.25059,-13.17803,8.14,0.8,1.82,3.0
1758077203.32197,1758077203.23493,0.0,0.0,0.0,17.30333,6.47442,-13.69369,8.12,0.96,1.7,3.0
1758077203.3379,1758077203.24493,0.0,0.0,0.0,16.38659,5.32851,-13.17803,8.12,0.96,1.7,3.0
1758077203.3538,1758077203.25493,0.0,0.0,0.0,15.69904,4.23989,-12.77696,8.11,0.73,1.76,3.0
1758077203.35497,1758077203.26493,0.0,0.0,0.0,15.12609,3.60963,-11.91752,8.11,0.73,1.76,3.0
1758077203.3699,1758077203.27493,0.0,0.0,0.0,14.78231,3.03668,-10.37054,8.39,0.38,1.85,3.0
1758077203.38577,1758077203.28493,0.0,0.0,0.0,14.66772,3.03668,-9.39651,8.76,0.15,1.7,3.0
1758077203.41793,1758077203.29493,0.0,0.0,0.0,13.46451,2.34913,-4.52637,9.1,0.19,1.45,3.0
1758077203.43393,1758077203.30493,0.0,0.0,0.0,12.83425,3.55234,-3.20856,9.1,0.19,1.45,3.0
1758077203.43501,1758077203.31493,0.0,0.0,0.0,11.45916,6.7609,-1.14592,9.62,0.33,1.27,3.0
1758077203.44992,1758077203.32493,0.0,0.0,0.0,10.54242,8.0787,0.17189,10.0,0.4,1.21,3.0
1758077203.46587,1758077203.33493,0.0,0.0,0.0,9.62569,9.74028,1.60428,10.0,0.4,1.21,3.0
1758077203.46707,1758077203.34493,0.0,0.0,0.0,8.65166,14.15206,2.6929,10.65,0.38,1.27,3.0
1758077203.48193,1758077203.35493,0.0,0.0,0.0,6.7609,21.42862,3.49504,10.65,0.38,1.27,3.0
1758077203.48303,1758077203.36493,0.0,0.0,0.0,5.32851,22.28806,2.40642,11.26,0.41,1.6,3.0
1758077203.49785,1758077203.37493,0.0,0.0,0.0,3.89611,19.53786,1.03132,11.26,0.41,1.6,3.0
1758077203.51378,1758077203.38493,0.0,0.0,0.0,2.6929,15.58445,0.34377,11.35,0.52,1.87,3.0
1758077203.51504,1758077203.39493,0.0,0.0,0.0,-0.51566,15.75634,-4.0107,12.34,0.87,2.48,3.0
1758077203.5299,1758077203.40493,0.0,0.0,0.0,-2.57831,16.3293,-8.99544,12.34,0.87,2.48,3.0
1758077203.54602,1758077203.41493,0.0,0.0,0.0,-4.35448,12.204,-12.60507,13.08,1.24,3.47,3.0
1758077203.54711,1758077203.42493,0.0,0.0,0.0,-6.47442,3.66693,-15.87093,13.08,1.24,3.47,3.0
1758077203.56191,1758077203.43493,0.0,0.0,0.0,-8.36518,-13.5218,-17.99088,13.08,1.23,4.18,3.0
1758077203.56308,1758077203.44493,0.0,0.0,0.0,-8.59437,-21.94428,-17.47521,13.08,1.23,4.18,3.0
1758077203.57785,1758077203.45493,0.0,0.0,0.0,-8.88085,-26.52795,-15.64175,13.83,0.89,4.4,3.0
1758077203.5939,1758077203.46493,0.0,0.0,0.0,-8.99544,-26.98631,-11.28727,13.83,0.89,4.4,3.0
1758077203.59512,1758077203.47493,0.0,0.0,0.0,-10.31324,-1.71887,-9.28192,15.28,0.6,4.66,3.0
1758077203.60993,1758077203.48493,0.0,0.0,0.0,-12.2613,23.31938,-7.04738,17.14,0.79,3.86,3.0
1758077203.62592,1758077203.49493,0.0,0.0,0.0,-14.32395,34.89313,-4.1253,17.14,0.79,3.86,3.0
1758077203.62739,1758077203.50493,0.0,0.0,0.0,-17.18874,0.22918,1.08862,12.06,1.39,4.27,3.0
1758077203.64193,1758077203.51493,0.0,0.0,0.0,-22.86102,-11.86023,1.48969,12.06,1.39,4.27,3.0
1758077203.64348,1758077203.52493,0.0,0.0,0.0,-29.22085,-15.46986,4.1253,10.83,1.81,4.14,3.0
1758077203.65797,1758077203.53493,0.0,0.0,0.0,-34.66395,-14.49583,4.98473,10.83,1.81,4.14,3.0
1758077203.67422,1758077203.54493,0.0,0.0,0.0,-40.27893,-15.58445,4.46907,10.98,1.95,3.75,3.0
1758077203.67541,1758077203.55493,0.0,0.0,0.0,-43.20102,-17.47521,3.49504,8.73,1.89,3.92,3.0
1758077203.68994,1758077203.56493,0.0,0.0,0.0,-45.20637,-19.42327,2.57831,8.73,1.89,3.92,3.0
1758077203.70603,1758077203.57493,0.0,0.0,0.0,-46.06581,-22.40265,2.6929,6.81,1.28,3.27,3.0
1758077203.70712,1758077203.58493,0.0,0.0,0.0,-45.26366,-30.13758,4.23989,6.81,1.28,3.27,3.0
1758077203.72202,1758077203.59493,0.0,0.0,0.0,-43.14373,-34.60666,6.24524,5.66,0.29,3.69,3.0
1758077203.72316,1758077203.60493,0.0,0.0,0.0,-40.16434,-37.35685,8.93814,5.66,0.29,3.69,3.0
1758077203.73803,1758077203.61493,0.0,0.0,0.0,-37.35685,-39.64868,11.45916,5.89,-0.74,3.53,3.0
1758077203.75402,1758077203.62493,0.0,0.0,0.0,-34.37747,-40.85189,14.61043,6.72,-1.18,3.03,3.0
1758077203.75518,1758077203.63493,0.0,0.0,0.0,-34.0337,-38.44547,15.24068,6.72,-1.18,3.03,3.0
1758077203.77003,1758077203.64493,0.0,0.0,0.0,-34.43476,-33.00237,15.12609,8.1,-0.91,2.38,3.0
1758077203.78605,1758077203.65493,0.0,0.0,0.0,-35.92446,-26.69983,13.98017,8.1,-0.91,2.38,3.0
1758077203.78718,1758077203.66493,0.0,0.0,0.0,-39.07573,-15.92823,11.22997,8.8,-0.38,1.85,3.0
1758077203.802,1758077203.67493,0.0,0.0,0.0,-41.25296,-8.76626,8.76626,8.8,-0.38,1.85,3.0
1758077203.80322,1758077203.68493,0.0,0.0,0.0,-42.74266,-2.40642,6.35983,8.88,-0.04,1.72,3.0
1758077203.81832,1758077203.69493,0.0,0.0,0.0,-44.11775,3.55234,4.18259,8.88,-0.04,1.72,3.0
1758077203.83404,1758077203.70493,0.0,0.0,0.0,-44.28964,13.40721,3.83882,8.87,-0.25,1.64,3.0
1758077203.83583,1758077203.71493,0.0,0.0,0.0,-43.65939,19.76705,3.72423,9.1,-0.48,1.57,3.0
1758077203.8501,1758077203.72493,0.0,0.0,0.0,-43.02913,24.23611,4.1253,9.1,-0.48,1.57,3.0
1758077203.86602,1758077203.73493,0.0,0.0,0.0,-41.88322,29.27814,5.09932,8.91,-0.51,1.78,3.0
1758077203.86731,1758077203.74493,0.0,0.0,0.0,-41.48215,33.23156,5.72958,8.91,-0.51,1.78,3.0
1758077203.88232,1758077203.75493,0.0,0.0,0.0,-41.25296,36.7266,6.13065,9.03,-0.47,1.93,3.0
1758077203.88354,1758077203.76493,0.0,0.0,0.0,-41.42485,39.4768,6.13065,9.03,-0.47,1.93,3.0
1758077203.89824,1758077203.77493,0.0,0.0,0.0,-41.94051,42.68536,5.4431,8.89,-0.42,2.08,3.0
1758077203.91441,1758077203.78493,0.0,0.0,0.0,-42.28429,43.83128,4.98473,8.73,-0.48,2.08,3.0
1758077203.91522,1758077203.79493,0.0,0.0,0.0,-42.68536,44.9199,4.64096,8.73,-0.48,2.08,3.0
1758077203.93007,1758077203.80493,0.0,0.0,0.0,-42.91454,45.49285,4.29718,8.69,-0.73,2.14,3.0
1758077203.94605,1758077203.81493,0.0,0.0,0.0,-43.25832,45.72203,4.52637,8.69,-0.73,2.14,3.0
1758077203.94726,1758077203.82493,0.0,0.0,0.0,-43.14373,46.52417,5.4431,8.47,-1.01,1.94,3.0
1758077203.96214,1758077203.83493,0.0,0.0,0.0,-42.62806,46.46688,6.7609,8.47,-1.01,1.94,3.0
1758077203.96326,1758077203.84493,0.0,0.0,0.0,-41.71133,44.17505,8.70896,8.33,-1.32,1.99,3.0
1758077203.97811,1758077203.85493,0.0,0.0,0.0,-39.70598,41.02378,11.80293,8.14,-1.53,1.86,3.0
1758077203.99414,1758077203.86493,0.0,0.0,0.0,-37.92981,39.82057,13.34992,8.14,-1.53,1.86,3.0
1758077203.9953,1758077203.87493,0.0,0.0,0.0,-36.03905,38.84654,13.98017,8.27,-1.53,1.67,3.0
1758077204.0101,1758077203.88493,0.0,0.0,0.0,-34.14828,36.7266,12.83425,8.27,-1.53,1.67,3.0
1758077204.0261,1758077203.89493,0.0,0.0,0.0,-30.76784,33.40344,10.8289,8.22,-1.35,1.75,3.0
1758077204.02768,1758077203.90493,0.0,0.0,0.0,-28.13223,31.39809,7.96411,8.22,-1.35,1.75,3.0
1758077204.04213,1758077203.91493,0.0,0.0,0.0,-26.06958,29.27814,4.98473,8.49,-1.2,1.8,3.0
1758077204.0433,1758077203.92493,0.0,0.0,0.0,-22.86102,27.10091,1.03132,8.49,-1.2,1.8,3.0
1758077204.05838,1758077203.93493,0.0,0.0,0.0,-21.25674,25.7831,-0.68755,9.04,-1.19,2.12,3.0
1758077204.07442,1758077203.94493,0.0,0.0,0.0,-19.36597,24.4653,-1.14592,9.33,-1.37,2.25,3.0
1758077204.07536,1758077203.95493,0.0,0.0,0.0,-17.6471,21.88699,-0.40107,9.33,-1.37,2.25,3.0
1758077204.09046,1758077203.96493,0.0,0.0,0.0,-14.72501,17.30333,2.7502,9.25,-1.69,2.3,3.0
1758077204.10614,1758077203.97493,0.0,0.0,0.0,-12.204,17.6471,5.21392,9.25,-1.69,2.3,3.0
1758077204.10736,1758077203.98493,0.0,0.0,0.0,-9.22462,20.05352,7.50575,9.79,-1.95,1.98,3.0
1758077204.12218,1758077203.99493,0.0,0.0,0.0,-6.41713,22.86102,8.47978,9.79,-1.95,1.98,3.0
1758077204.12373,1758077204.00493,0.0,0.0,0.0,-1.66158,24.5226,8.25059,10.01,-2.08,1.78,3.0
1758077204.13824,1758077204.01493,0.0,0.0,0.0,2.23454,23.66316,7.04738,9.79,-2.39,1.8,3.0
1758077204.15418,1758077204.02493,0.0,0.0,0.0,7.04738,21.7724,5.78687,9.79,-2.39,1.8,3.0
1758077204.15538,1758077204.03493,0.0,0.0,0.0,12.37589,20.16812,4.52637,10.15,-2.99,1.98,3.0
1758077204.17018,1758077204.04493,0.0,0.0,0.0,22.57454,18.90761,4.23989,10.15,-2.99,1.98,3.0
1758077204.18626,1758077204.05493,0.0,0.0,0.0,31.11161,16.21471,5.50039,11.05,-3.64,2.7,3.0
1758077204.18738,1758077204.06493,0.0,0.0,0.0,39.4768,10.48513,7.21927,11.05,-3.64,2.7,3.0
1758077204.20253,1758077204.07493,0.0,0.0,0.0,46.98254,-9.5684,7.73493,11.21,-4.13,3.86,3.0
1758077204.20336,1758077204.08493,0.0,0.0,0.0,58.84277,-79.41196,17.36062,8.61,-4.11,8.59,3.0
1758077204.21819,1758077204.09493,0.0,0.0,0.0,60.33246,-113.27376,30.48136,8.61,-4.11,8.59,3.0
1758077204.23453,1758077204.10493,0.0,0.0,0.0,53.62885,-89.55331,38.21629,16.2,-1.97,6.4,3.0
1758077204.23577,1758077204.11493,0.0,0.0,0.0,44.8053,-48.24305,43.20102,16.2,-1.97,6.4,3.0
1758077204.2502,1758077204.12493,0.0,0.0,0.0,39.07573,-39.24761,39.4768,17.25,-0.78,4.39,3.0
1758077204.26624,1758077204.13493,0.0,0.0,0.0,35.63798,-52.9986,33.05967,17.25,-0.78,4.39,3.0
1758077204.2678,1758077204.14493,0.0,0.0,0.0,33.86181,-64.45775,24.23611,9.57,-1.13,5.43,3.0
1758077204.28223,1758077204.15493,0.0,0.0,0.0,34.26288,-67.03606,9.05273,9.57,-1.13,5.43,3.0
1758077204.28368,1758077204.16493,0.0,0.0,0.0,35.2942,-61.59297,-0.0573,9.35,-1.26,5.15,3.0
1758077204.29819,1758077204.17493,0.0,0.0,0.0,36.15364,-51.10783,-7.79223,10.09,-0.45,4.91,3.0
1758077204.31458,1758077204.18493,0.0,0.0,0.0,35.69527,-38.44547,-13.46451,10.09,-0.45,4.91,3.0
1758077204.31548,1758077204.19493,0.0,0.0,0.0,32.88778,-25.26744,-19.82434,9.38,0.26,4.5,3.0
1758077204.33026,1758077204.20493,0.0,0.0,0.0,32.6013,-34.37747,-21.31403,9.38,0.26,4.5,3.0
1758077204.34626,1758077204.21493,0.0,0.0,0.0,31.85646,-65.2026,-20.62648,5.46,0.48,3.97,3.0
1758077204.3474,1758077204.22493,0.0,0.0,0.0,28.30412,-90.41274,-19.99623,5.46,0.48,3.97,3.0
1758077204.36224,1758077204.23493,0.0,0.0,0.0,29.22085,-68.41116,-10.02676,5.71,0.38,3.12,3.0
1758077204.36348,1758077204.24493,0.0,0.0,0.0,30.82513,-51.45161,-2.06265,11.69,-0.07,2.4,3.0
1758077204.37851,1758077204.25493,0.0,0.0,0.0,32.25753,-52.02457,3.55234,11.69,-0.07,2.4,3.0
1758077204.39454,1758077204.26493,0.0,0.0,0.0,32.48671,-53.51426,7.96411,8.44,-0.4,2.96,3.0
1758077204.39575,1758077204.27493,0.0,0.0,0.0,31.91375,-41.65404,9.85487,8.44,-0.4,2.96,3.0
