timeStamp,timeStampAlign,roll,pitch,yaw,gyro_x,gyro_y,gyro_z,acc_x,acc_y,acc_z,flag_num
1758075033.12106,1758075033.01003,0.0,0.0,0.0,-76.54716,-37.24226,-6.07335,14.49,0.1,-2.59,2.0
1758075033.12303,1758075033.02003,0.0,0.0,0.0,-74.88559,-43.65939,-2.92208,14.49,0.1,-2.59,2.0
1758075033.13807,1758075033.03003,0.0,0.0,0.0,-72.0208,-56.952,-2.7502,11.03,-0.02,0.14,2.0
1758075033.15406,1758075033.04003,0.0,0.0,0.0,-68.64035,-80.44328,-4.81285,11.03,-0.02,0.14,2.0
1758075033.15528,1758075033.05003,0.0,0.0,0.0,-62.33781,-116.76881,-28.30412,12.33,-0.41,3.92,2.0
1758075033.17007,1758075033.06003,0.0,0.0,0.0,-46.75336,-128.9155,-50.87865,20.34,-4.63,9.91,2.0
1758075033.17212,1758075033.07003,0.0,0.0,0.0,-32.25753,-113.10187,-71.39055,20.34,-4.63,9.91,2.0
1758075033.1889,1758075033.08003,0.0,0.0,0.0,-16.73037,-93.96508,-84.85506,19.15,-6.56,5.44,2.0
1758075033.20677,1758075033.09003,0.0,0.0,0.0,3.38045,-86.74582,-95.22559,19.15,-6.56,5.44,2.0
1758075033.20791,1758075033.10003,0.0,0.0,0.0,12.2613,-82.21945,-96.42879,7.93,-3.78,5.01,2.0
1758075033.22339,1758075033.11003,0.0,0.0,0.0,17.6471,-70.13004,-93.27753,7.93,-3.78,5.01,2.0
1758075033.22595,1758075033.12003,0.0,0.0,0.0,20.62648,-55.29043,-83.42266,7.26,-1.74,4.55,2.0
1758075033.24118,1758075033.13003,0.0,0.0,0.0,19.70975,-38.78925,-59.07195,7.26,-1.74,4.95,2.0
1758075033.24741,1758075033.14003,0.0,0.0,0.0,16.73037,-28.24682,-37.87251,10.4,0.0,4.95,2.0
1758075033.26215,1758075033.15003,0.0,0.0,0.0,11.91752,-19.88164,-16.84496,11.89,0.94,2.92,2.0
1758075033.26336,1758075033.16003,0.0,0.0,0.0,6.7609,-10.8862,2.06265,11.89,0.94,2.92,2.0
1758075033.28044,1758075033.17003,0.0,0.0,0.0,-0.34377,8.02141,24.00693,12.07,1.72,1.29,2.0
1758075033.28298,1758075033.18003,0.0,0.0,0.0,-3.72423,22.40265,32.6013,12.07,1.72,1.29,2.0
1758075033.29815,1758075033.19003,0.0,0.0,0.0,-6.53172,35.2942,37.47144,11.69,2.15,0.44,2.0
1758075033.30259,1758075033.20003,0.0,0.0,0.0,-8.70896,48.12846,38.44547,11.69,2.15,0.44,2.0
1758075033.31816,1758075033.21003,0.0,0.0,0.0,-10.54242,64.11398,36.38282,10.72,1.6,0.23,2.0
1758075033.33414,1758075033.22003,0.0,0.0,0.0,-11.74564,72.30728,32.54401,9.46,0.66,0.29,2.0
1758075033.33488,1758075033.23003,0.0,0.0,0.0,-12.2613,79.52654,27.50197,9.46,0.66,0.29,2.0
1758075033.35144,1758075033.24003,0.0,0.0,0.0,-13.06344,84.68317,20.68378,8.53,-0.08,0.52,2.0
1758075033.35283,1758075033.25003,0.0,0.0,0.0,-12.89155,88.98035,10.54242,8.53,-0.08,0.52,2.0
1758075033.36721,1758075033.26003,0.0,0.0,0.0,-12.43318,88.29281,3.95341,7.71,-0.69,1.12,2.0
1758075033.38424,1758075033.27003,0.0,0.0,0.0,-11.17268,85.37071,-2.11994,7.71,-0.69,1.12,2.0
1758075033.38524,1758075033.28003,0.0,0.0,0.0,-6.18794,81.93298,-7.79223,6.96,-1.29,1.44,2.0
1758075033.4004,1758075033.29003,0.0,0.0,0.0,-1.43239,74.7137,-9.62569,6.91,-1.84,1.67,2.0
1758075033.40144,1758075033.30003,0.0,0.0,0.0,3.60963,68.52576,-10.54242,6.91,-1.84,1.67,2.0
1758075033.41728,1758075033.31003,0.0,0.0,0.0,9.74028,62.16592,-9.39651,6.89,-2.19,1.48,2.0
1758075033.43328,1758075033.32003,0.0,0.0,0.0,19.13679,49.15978,-5.95876,6.89,-2.19,1.48,2.0
1758075033.43443,1758075033.33003,0.0,0.0,0.0,26.18417,38.56006,-2.86479,7.06,-2.22,1.24,2.0
1758075033.4495,1758075033.34003,0.0,0.0,0.0,33.80451,30.93972,0.97403,7.06,-2.22,1.24,2.0
1758075033.46599,1758075033.35003,0.0,0.0,0.0,41.02378,27.33009,4.46907,7.96,-2.06,0.7,2.0
1758075033.46662,1758075033.36003,0.0,0.0,0.0,50.76406,23.89234,8.99544,8.81,-1.84,0.47,2.0
1758075033.48224,1758075033.37003,0.0,0.0,0.0,56.49364,18.27736,11.11538,8.81,-1.84,0.47,2.0
1758075033.48355,1758075033.38003,0.0,0.0,0.0,61.93674,10.02676,12.54778,8.67,-1.5,0.56,2.0
1758075033.49931,1758075033.39003,0.0,0.0,0.0,66.29122,0.0573,13.12073,8.67,-1.5,0.56,2.0
1758075033.5171,1758075033.40003,0.0,0.0,0.0,70.13004,-21.31403,12.71966,8.69,-1.16,0.19,2.0
1758075033.51757,1758075033.41003,0.0,0.0,0.0,70.18733,-37.18496,10.02676,8.69,-1.16,0.19,2.0
1758075033.53326,1758075033.42003,0.0,0.0,0.0,70.47381,-43.02913,8.88085,8.95,-0.71,-0.32,2.0
1758075033.53478,1758075033.43003,0.0,0.0,0.0,69.3279,-43.31561,7.10468,8.95,-0.71,-0.32,2.0
1758075033.5493,1758075033.44003,0.0,0.0,0.0,67.15066,-28.59059,7.10468,11.19,-0.22,-0.33,2.0
1758075033.55215,1758075033.45003,0.0,0.0,0.0,62.33781,-8.59437,3.83882,13.22,0.42,-0.71,2.0
1758075033.56759,1758075033.46003,0.0,0.0,0.0,57.86874,4.64096,2.97938,13.22,0.42,-0.71,2.0
1758075033.58519,1758075033.47003,0.0,0.0,0.0,53.05589,-1.77617,-0.85944,11.46,1.02,-0.78,2.0
1758075033.58614,1758075033.48003,0.0,0.0,0.0,49.67545,-52.48294,-0.74485,11.46,1.02,-0.78,2.0
1758075033.60155,1758075033.49003,0.0,0.0,0.0,47.15443,-75.40125,8.36518,8.01,0.75,-1.87,2.0
1758075033.60278,1758075033.50003,0.0,0.0,0.0,42.51347,-68.41116,12.60507,8.01,0.75,-1.87,2.0
1758075033.61753,1758075033.51003,0.0,0.0,0.0,32.77319,-59.87409,20.45459,13.56,0.43,1.65,2.0
1758075033.63336,1758075033.52003,0.0,0.0,0.0,23.66316,-71.79161,30.25217,16.42,2.0,5.62,2.0
1758075033.63453,1758075033.53003,0.0,0.0,0.0,13.00614,-86.05827,44.17505,16.42,2.0,5.62,2.0
1758075033.64939,1758075033.54003,0.0,0.0,0.0,2.34913,-93.10565,57.12389,17.42,3.64,6.45,2.0
1758075033.65052,1758075033.55003,0.0,0.0,0.0,-11.86023,-86.11556,68.29657,17.42,3.64,6.45,2.0
1758075033.66768,1758075033.56003,0.0,0.0,0.0,-19.53786,-76.89094,70.76029,11.92,3.12,3.72,2.0
1758075033.66935,1758075033.57003,0.0,0.0,0.0,-25.8404,-69.04142,70.13004,11.92,3.12,3.72,2.0
1758075033.68489,1758075033.58003,0.0,0.0,0.0,-29.73651,-63.99939,66.97877,6.11,1.4,4.41,2.0
1758075033.70118,1758075033.59003,0.0,0.0,0.0,-29.73651,-56.14987,57.86874,4.9,0.28,5.07,2.0
1758075033.70235,1758075033.60003,0.0,0.0,0.0,-25.55392,-50.2484,48.75871,4.9,0.28,5.07,2.0
1758075033.71771,1758075033.61003,0.0,0.0,0.0,-19.25138,-44.9199,37.81522,7.11,-0.69,4.77,2.0
1758075033.71969,1758075033.62003,0.0,0.0,0.0,-11.97482,-39.82057,24.57989,7.11,-0.69,4.77,2.0
1758075033.73492,1758075033.63003,0.0,0.0,0.0,-0.17189,-30.36677,6.70361,9.37,-1.53,2.81,2.0
1758075033.75143,1758075033.64003,0.0,0.0,0.0,6.7609,-17.47521,-3.32316,9.37,-1.53,2.81,2.0
1758075033.75237,1758075033.65003,0.0,0.0,0.0,12.37589,-1.20321,-11.45916,11.18,-1.87,0.97,2.0
1758075033.76742,1758075033.66003,0.0,0.0,0.0,16.21471,16.95955,-16.90226,11.18,-1.87,0.97,2.0
1758075033.76973,1758075033.67003,0.0,0.0,0.0,18.9649,45.26366,-19.99623,12.17,-1.83,0.0,2.0
1758075033.78498,1758075033.68003,0.0,0.0,0.0,19.82434,61.53567,-19.59516,11.79,-1.63,-0.14,2.0
1758075033.80066,1758075033.69003,0.0,0.0,0.0,19.76705,74.08345,-18.27736,11.79,-1.63,-0.14,2.0
1758075033.80163,1758075033.70003,0.0,0.0,0.0,19.82434,86.34474,-12.89155,10.21,-1.31,-0.05,2.0
1758075033.81648,1758075033.71003,0.0,0.0,0.0,20.11082,92.01703,-7.84952,10.21,-1.31,-0.05,2.0
1758075033.83269,1758075033.72003,0.0,0.0,0.0,20.51189,95.51206,-2.63561,9.45,-0.79,0.41,2.0
1758075033.83542,1758075033.73003,0.0,0.0,0.0,20.3973,95.79855,2.11994,9.45,-0.79,0.41,2.0
1758075033.85073,1758075033.74003,0.0,0.0,0.0,18.9649,89.83979,8.65166,8.81,0.0,1.1,2.0
1758075033.85171,1758075033.75003,0.0,0.0,0.0,16.61578,81.70379,11.11538,8.11,0.8,1.58,2.0
1758075033.8666,1758075033.76003,0.0,0.0,0.0,13.75099,69.04142,11.91752,8.11,0.8,1.58,2.0
1758075033.88245,1758075033.77003,0.0,0.0,0.0,10.19865,57.41038,11.63104,7.51,1.39,1.52,2.0
1758075033.88559,1758075033.78003,0.0,0.0,0.0,4.29718,42.62806,9.28192,7.51,1.39,1.52,2.0
1758075033.90229,1758075033.79003,0.0,0.0,0.0,-0.34377,34.77854,6.58902,7.87,1.59,1.24,2.0
1758075033.90515,1758075033.80003,0.0,0.0,0.0,-5.09932,27.67386,3.03668,7.87,1.59,1.24,2.0
1758075033.92076,1758075033.81003,0.0,0.0,0.0,-9.96947,19.88164,0.45837,8.38,1.39,1.27,2.0
1758075033.92276,1758075033.82003,0.0,0.0,0.0,-19.53786,16.95955,-7.10468,8.79,1.07,1.21,2.0
1758075033.93775,1758075033.83003,0.0,0.0,0.0,-24.75178,17.24603,-10.8289,8.79,1.07,1.21,2.0
1758075033.95349,1758075033.84003,0.0,0.0,0.0,-29.56462,18.44924,-14.43854,9.15,0.89,1.16,2.0
1758075033.95661,1758075033.85003,0.0,0.0,0.0,-33.9764,18.33465,-16.90226,9.15,0.89,1.16,2.0
1758075033.97159,1758075033.86003,0.0,0.0,0.0,-40.45082,15.75634,-18.56383,9.3,0.9,1.0,2.0
1758075033.97276,1758075033.87003,0.0,0.0,0.0,-44.46153,10.59972,-18.44924,9.3,0.9,1.0,2.0
1758075033.98784,1758075033.88003,0.0,0.0,0.0,-47.95657,-0.57296,-16.95955,8.99,1.04,0.45,2.0
1758075033.98955,1758075033.89003,0.0,0.0,0.0,-50.93595,-15.87093,-12.89155,8.99,1.04,0.45,2.0
1758075034.00762,1758075033.90003,0.0,0.0,0.0,-50.64947,-41.88322,-10.02676,8.21,0.86,-0.43,2.0
1758075034.01247,1758075033.91003,0.0,0.0,0.0,-50.82136,-60.79083,-4.81285,7.98,0.61,-1.31,2.0
1758075034.03182,1758075033.92003,0.0,0.0,0.0,-50.64947,-58.49899,0.34377,7.98,0.61,-1.31,2.0
1758075034.03523,1758075033.93003,0.0,0.0,0.0,-49.96192,-10.48513,2.11994,12.87,0.27,-1.09,2.0
1758075034.05077,1758075033.94003,0.0,0.0,0.0,-44.9199,-15.12609,6.18794,12.87,0.27,-1.09,2.0
1758075034.05444,1758075033.95003,0.0,0.0,0.0,-45.60744,-33.11696,2.29183,11.34,-0.32,-0.83,2.0
1758075034.07142,1758075033.96003,0.0,0.0,0.0,-42.85724,-40.7946,-0.68755,11.34,-0.32,-0.83,2.0
1758075034.07269,1758075033.97003,0.0,0.0,0.0,-38.56006,-46.06581,-6.13065,10.82,-0.45,-2.03,2.0
1758075034.08783,1758075033.98003,0.0,0.0,0.0,-36.03905,-37.18496,-7.67763,11.93,-0.66,-1.72,2.0
1758075034.08958,1758075033.99003,0.0,0.0,0.0,-33.51803,-28.30412,-9.4538,11.93,-0.66,-1.72,2.0
1758075034.10765,1758075034.00003,0.0,0.0,0.0,-29.62192,-28.13223,-10.8862,12.8,-1.12,1.75,2.0
1758075034.12693,1758075034.01003,0.0,0.0,0.0,-20.05352,-45.55015,-18.85031,12.8,-1.12,1.75,2.0
1758075034.13065,1758075034.02003,0.0,0.0,0.0,-11.74564,-63.88479,-33.00237,14.87,-2.68,5.6,2.0
1758075034.13206,1758075034.03003,0.0,0.0,0.0,-1.20321,-72.65105,-48.30034,14.87,-2.68,5.6,2.0
1758075034.14761,1758075034.04003,0.0,0.0,0.0,9.68299,-74.65641,-61.07731,17.03,-5.17,6.12,2.0
1758075034.14953,1758075034.05003,0.0,0.0,0.0,24.29341,-70.18733,-71.04677,10.67,-3.82,3.17,2.0
1758075034.16658,1758075034.06003,0.0,0.0,0.0,31.79916,-68.75494,-73.96885,10.67,-3.82,3.17,2.0
1758075034.20561,1758075034.07003,0.0,0.0,0.0,36.95578,-64.74423,-73.73967,5.01,-1.53,3.66,2.0
1758075034.2073,1758075034.08003,0.0,0.0,0.0,38.56006,-57.63955,-68.69764,5.01,-1.53,3.66,2.0
1758075034.20794,1758075034.09003,0.0,0.0,0.0,34.37747,-44.40423,-61.99404,6.02,0.02,4.79,2.0
1758075034.21192,1758075034.10003,0.0,0.0,0.0,28.476,-37.18496,-51.50891,6.02,0.02,4.79,2.0
1758075034.21228,1758075034.11003,0.0,0.0,0.0,21.25674,-34.66395,-37.29956,9.2,1.85,4.82,2.0
1758075034.22763,1758075034.12003,0.0,0.0,0.0,9.28192,-27.50197,-13.34992,9.2,1.85,4.82,2.0
1758075034.23216,1758075034.13003,0.0,0.0,0.0,0.85944,-18.56383,1.71887,11.32,2.84,2.7,2.0
1758075034.24793,1758075034.14003,0.0,0.0,0.0,-6.24524,-5.78687,14.15206,12.5,2.89,0.9,2.0
1758075034.24969,1758075034.15003,0.0,0.0,0.0,-11.80293,7.39116,22.57454,12.5,2.89,0.9,2.0
1758075034.26671,1758075034.16003,0.0,0.0,0.0,-17.53251,29.56462,27.78845,12.19,2.5,0.1,2.0
1758075034.2829,1758075034.17003,0.0,0.0,0.0,-20.05352,44.11775,27.10091,12.19,2.5,0.1,2.0
1758075034.28628,1758075034.18003,0.0,0.0,0.0,-21.7724,58.26981,24.5226,11.51,1.64,-0.14,2.0
1758075034.30276,1758075034.19003,0.0,0.0,0.0,-23.20479,70.76029,20.34,11.51,1.64,-0.14,2.0
1758075034.30471,1758075034.20003,0.0,0.0,0.0,-25.09555,83.93832,11.74564,10.41,0.74,-0.15,2.0
1758075034.31973,1758075034.21003,0.0,0.0,0.0,-26.06958,90.12627,5.21392,9.34,0.05,0.16,2.0
1758075034.32599,1758075034.22003,0.0,0.0,0.0,-27.61657,94.53805,-0.45837,9.34,0.05,0.16,2.0
1758075034.34104,1758075034.23003,0.0,0.0,0.0,-28.01764,97.57471,-6.07335,8.96,-0.47,0.97,2.0
1758075034.34784,1758075034.24003,0.0,0.0,0.0,-25.49662,96.25692,-11.57375,8.96,-0.47,0.97,2.0
1758075034.36274,1758075034.25003,0.0,0.0,0.0,-22.28806,94.70992,-13.40721,8.47,-1.16,0.97,2.0
1758075034.36624,1758075034.26003,0.0,0.0,0.0,-17.93358,93.56402,-13.69369,8.47,-1.16,0.97,2.0
1758075034.38173,1758075034.27003,0.0,0.0,0.0,-13.12073,89.43871,-12.37589,8.42,-1.49,1.11,2.0
1758075034.38291,1758075034.28003,0.0,0.0,0.0,-5.50039,76.89094,-8.47978,7.66,-1.48,1.2,2.0
1758075034.39987,1758075034.29003,0.0,0.0,0.0,-0.0573,66.80688,-4.58366,7.66,-1.48,1.2,2.0
1758075034.40092,1758075034.30003,0.0,0.0,0.0,5.27121,56.78012,-0.68755,7.58,-1.44,1.38,2.0
1758075034.41601,1758075034.31003,0.0,0.0,0.0,13.5218,46.75336,4.92744,7.58,-1.44,1.38,2.0
1758075034.43297,1758075034.32003,0.0,0.0,0.0,19.70975,32.88778,8.59437,7.66,-1.41,1.44,2.0
1758075034.43488,1758075034.33003,0.0,0.0,0.0,25.7831,27.61657,11.28727,7.66,-1.41,1.44,2.0
1758075034.44973,1758075034.34003,0.0,0.0,0.0,31.28349,25.61122,13.40721,8.09,-1.4,1.35,2.0
1758075034.45204,1758075034.35003,0.0,0.0,0.0,38.15899,21.42862,15.12609,8.09,-1.4,1.35,2.0
1758075034.46674,1758075034.36003,0.0,0.0,0.0,42.05511,14.61043,15.12609,8.39,-1.38,1.36,2.0
1758075034.48292,1758075034.37003,0.0,0.0,0.0,46.00851,5.27121,15.12609,8.17,-1.28,1.08,2.0
1758075034.48673,1758075034.38003,0.0,0.0,0.0,48.9306,-5.72958,14.72501,8.17,-1.28,1.08,2.0
1758075034.50175,1758075034.39003,0.0,0.0,0.0,50.93595,-30.59595,13.23533,8.09,-1.07,0.65,2.0
1758075034.50652,1758075034.40003,0.0,0.0,0.0,49.79003,-43.02913,9.28192,8.09,-1.07,0.65,2.0
1758075034.52283,1758075034.41003,0.0,0.0,0.0,50.13381,-44.51882,8.88085,8.79,-0.64,0.01,2.0
1758075034.52534,1758075034.42003,0.0,0.0,0.0,49.21708,-41.25296,8.65166,8.79,-0.64,0.01,2.0
1758075034.54183,1758075034.43003,0.0,0.0,0.0,45.09178,-15.0115,5.78687,11.49,-0.06,-0.12,2.0
1758075034.54304,1758075034.44003,0.0,0.0,0.0,41.08107,1.3178,4.69825,13.1,0.65,-0.45,2.0
1758075034.55792,1758075034.45003,0.0,0.0,0.0,36.32552,8.93814,1.3178,13.1,0.65,-0.45,2.0
1758075034.57398,1758075034.46003,0.0,0.0,0.0,32.6013,-15.12609,-2.23454,10.25,1.24,-1.09,2.0
1758075034.57503,1758075034.47003,0.0,0.0,0.0,30.13758,-65.2599,-0.80214,10.25,1.24,-1.09,2.0
1758075034.59247,1758075034.48003,0.0,0.0,0.0,32.08564,-72.0208,5.09932,8.27,0.73,-2.76,2.0
1758075034.5934,1758075034.49003,0.0,0.0,0.0,33.00237,-57.86874,5.55769,8.27,0.73,-2.76,2.0
1758075034.60908,1758075034.50003,0.0,0.0,0.0,33.74722,-43.60209,3.66693,11.84,0.11,-0.93,2.0
1758075034.61034,1758075034.51003,0.0,0.0,0.0,31.91375,-42.1124,2.46372,11.59,0.05,2.04,2.0
1758075034.62682,1758075034.52003,0.0,0.0,0.0,26.87172,-57.29578,4.64096,11.59,0.05,2.04,2.0
1758075034.64321,1758075034.53003,0.0,0.0,0.0,19.82434,-79.64114,12.2613,13.03,0.46,6.67,2.0
1758075034.64638,1758075034.54003,0.0,0.0,0.0,10.59972,-101.92919,34.37747,13.03,0.46,6.67,2.0
1758075034.66197,1758075034.55003,0.0,0.0,0.0,3.32316,-103.1324,50.01921,15.42,2.15,7.31,2.0
1758075034.66345,1758075034.56003,0.0,0.0,0.0,-3.83882,-98.49145,62.79618,15.42,2.15,7.31,2.0
1758075034.67894,1758075034.57003,0.0,0.0,0.0,-10.19865,-92.18892,70.76029,12.26,2.77,6.44,2.0
1758075034.68228,1758075034.58003,0.0,0.0,0.0,-17.81899,-82.16215,76.77635,7.0,2.77,4.9,2.0
1758075034.69787,1758075034.59003,0.0,0.0,0.0,-20.74107,-72.53646,76.1461,7.0,1.81,4.9,2.0
1758075034.7163,1758075034.60003,0.0,0.0,0.0,-21.37133,-63.88479,71.56243,6.26,0.43,4.66,2.0
1758075034.71746,1758075034.61003,0.0,0.0,0.0,-20.74107,-55.00395,61.24919,6.26,0.43,4.66,2.0
1758075034.73293,1758075034.62003,0.0,0.0,0.0,-17.76169,-39.19032,37.64333,8.22,-0.79,4.3,2.0
1758075034.73677,1758075034.63003,0.0,0.0,0.0,-14.78231,-27.73116,19.76705,8.22,-0.79,4.3,2.0
1758075034.75216,1758075034.64003,0.0,0.0,0.0,-11.91752,-14.78231,2.6929,10.72,-1.61,2.45,2.0
1758075034.7531,1758075034.65003,0.0,0.0,0.0,-9.62569,1.43239,-11.57375,10.72,-1.61,2.45,2.0
1758075034.77028,1758075034.66003,0.0,0.0,0.0,-7.84952,31.79916,-26.81443,12.21,-1.94,0.41,2.0
1758075034.77301,1758075034.67003,0.0,0.0,0.0,-7.96411,51.39432,-32.42941,12.54,-1.8,-0.64,2.0
1758075034.78896,1758075034.68003,0.0,0.0,0.0,-7.84952,64.45775,-34.32018,12.54,-1.8,-0.64,2.0
1758075034.79182,1758075034.69003,0.0,0.0,0.0,-7.96411,71.04677,-32.77319,10.74,-1.28,-0.33,2.0
1758075034.80691,1758075034.70003,0.0,0.0,0.0,-6.99009,75.40125,-24.29341,10.74,-1.28,-0.33,2.0
1758075034.82318,1758075034.71003,0.0,0.0,0.0,-5.95876,78.15145,-17.36062,9.75,-0.76,-0.05,2.0
1758075034.82651,1758075034.72003,0.0,0.0,0.0,-5.27121,80.1568,-10.08406,9.75,-0.76,-0.05,2.0
1758075034.84229,1758075034.73003,0.0,0.0,0.0,-4.35448,80.90164,0.17189,9.23,-0.12,0.28,2.0
1758075034.84579,1758075034.74003,0.0,0.0,0.0,-4.64096,79.01089,4.81285,8.56,0.5,0.89,2.0
1758075034.86282,1758075034.75003,0.0,0.0,0.0,-5.84417,76.48987,7.73493,8.56,0.5,0.89,2.0
1758075034.86565,1758075034.76003,0.0,0.0,0.0,-8.02141,73.45319,8.47978,8.25,0.99,1.39,2.0
1758075034.88117,1758075034.77003,0.0,0.0,0.0,-12.49048,66.46311,5.95876,8.25,0.99,1.39,2.0
1758075034.88216,1758075034.78003,0.0,0.0,0.0,-14.9542,57.52497,3.66693,8.08,1.12,1.35,2.0
1758075034.89721,1758075034.79003,0.0,0.0,0.0,-19.70975,51.79538,-2.29183,8.08,1.12,1.35,2.0
1758075034.91325,1758075034.80003,0.0,0.0,0.0,-23.20479,44.57612,-6.87549,8.33,0.88,1.18,2.0
1758075034.91764,1758075034.81003,0.0,0.0,0.0,-28.24682,36.84119,-15.87093,8.57,0.52,1.0,2.0
1758075034.93292,1758075034.82003,0.0,0.0,0.0,-31.16891,33.17426,-20.16812,8.57,0.52,1.0,2.0
1758075034.93473,1758075034.83003,0.0,0.0,0.0,-33.63263,31.85646,-23.72045,8.98,0.36,0.84,2.0
1758075034.94921,1758075034.84003,0.0,0.0,0.0,-35.58068,29.8511,-25.61122,8.98,0.36,0.84,2.0
1758075034.95127,1758075034.85003,0.0,0.0,0.0,-37.58603,17.47521,-25.55392,8.68,0.31,0.75,2.0
1758075034.96725,1758075034.86003,0.0,0.0,0.0,-38.38818,5.90147,-24.12152,8.68,0.31,0.75,2.0
1758075034.98299,1758075034.87003,0.0,0.0,0.0,-38.61736,-8.25059,-21.25674,7.85,0.26,0.54,2.0
1758075034.98532,1758075034.88003,0.0,0.0,0.0,-38.73195,-25.89769,-17.30333,7.85,0.26,0.54,2.0
1758075035.00193,1758075034.89003,0.0,0.0,0.0,-39.07573,-46.1231,-8.0787,7.57,0.11,-0.25,2.0
1758075035.00326,1758075034.90003,0.0,0.0,0.0,-39.3622,-33.80451,-4.98473,10.22,0.18,-0.39,2.0
1758075035.01805,1758075034.91003,0.0,0.0,0.0,-41.31026,-11.97482,-4.35448,10.22,0.18,-0.39,2.0
1758075035.0217,1758075034.92003,0.0,0.0,0.0,-35.69527,3.03668,3.72423,12.57,-0.12,-0.49,2.0
1758075035.03705,1758075034.93003,0.0,0.0,0.0,-37.98711,-35.12231,-1.83346,12.57,-0.12,-0.49,2.0
1758075035.04223,1758075034.94003,0.0,0.0,0.0,-36.15364,-45.89392,-3.95341,9.17,-0.16,-0.7,2.0
1758075035.06031,1758075034.95003,0.0,0.0,0.0,-33.23156,-51.45161,-6.8182,9.17,-0.16,-0.7,2.0
1758075035.06712,1758075034.96003,0.0,0.0,0.0,-31.39809,-37.75792,-11.28727,11.23,-0.42,-2.24,2.0
1758075035.08204,1758075034.97003,0.0,0.0,0.0,-29.73651,-26.12688,-12.37589,12.5,-0.81,-1.26,2.0
1758075035.08752,1758075034.98003,0.0,0.0,0.0,-28.41871,-18.10547,-11.86023,12.5,-0.81,-1.26,2.0
1758075035.1021,1758075034.99003,0.0,0.0,0.0,-26.24147,-13.12073,-10.08406,11.88,-0.97,0.0,2.0
1758075035.10575,1758075035.00003,0.0,0.0,0.0,-19.82434,-13.80828,-6.70361,11.88,-0.97,0.0,2.0
1758075035.12231,1758075035.01003,0.0,0.0,0.0,-13.75099,-22.00158,-7.33386,12.37,-1.48,2.3,2.0
1758075035.12521,1758075035.02003,0.0,0.0,0.0,-5.95876,-33.17426,-13.75099,12.37,-1.48,2.3,2.0
1758075035.14032,1758075035.03003,0.0,0.0,0.0,2.6929,-39.53409,-25.49662,15.4,-3.21,5.3,2.0
1758075035.14298,1758075035.04003,0.0,0.0,0.0,19.07949,-44.51882,-41.65404,15.77,-4.66,4.26,2.0
1758075035.15835,1758075035.05003,0.0,0.0,0.0,28.59059,-48.70141,-48.75871,15.77,-4.66,4.26,2.0
1758075035.16505,1758075035.06003,0.0,0.0,0.0,35.58068,-53.39967,-52.08187,8.71,-2.64,2.42,2.0
1758075035.1804,1758075035.07003,0.0,0.0,0.0,40.62271,-58.09792,-53.62885,8.71,-2.64,2.42,2.0
1758075035.18132,1758075035.08003,0.0,0.0,0.0,43.77398,-56.78012,-52.36834,5.02,-0.62,3.1,2.0
1758075035.2221,1758075035.09003,0.0,0.0,0.0,42.62806,-52.02457,-48.8733,5.02,-0.62,3.1,2.0
1758075035.22602,1758075035.10003,0.0,0.0,0.0,38.15899,-46.63877,-43.94586,6.59,0.62,4.8,2.0
1758075035.22639,1758075035.11003,0.0,0.0,0.0,30.36677,-40.85189,-32.25753,6.59,0.62,4.8,2.0
1758075035.22918,1758075035.12003,0.0,0.0,0.0,14.9542,-36.61201,-22.28806,9.41,2.29,5.04,2.0
1758075035.24574,1758075035.13003,0.0,0.0,0.0,3.49504,-34.14828,-11.57375,10.76,3.65,3.14,2.0
1758075035.24694,1758075035.14003,0.0,0.0,0.0,-8.0787,-27.44468,-1.43239,10.76,3.65,3.14,2.0
1758075035.26218,1758075035.15003,0.0,0.0,0.0,-23.60586,-12.83425,10.19865,11.35,3.88,1.4,2.0
1758075035.26532,1758075035.16003,0.0,0.0,0.0,-31.74186,-1.08862,14.9542,11.35,3.88,1.4,2.0
1758075035.28042,1758075035.17003,0.0,0.0,0.0,-38.38818,11.63104,16.61578,11.17,3.29,0.68,2.0
1758075035.28622,1758075035.18003,0.0,0.0,0.0,-43.25832,23.89234,16.50119,11.17,3.29,0.68,2.0
1758075035.30128,1758075035.19003,0.0,0.0,0.0,-48.12846,41.48215,13.00614,10.72,2.34,0.21,2.0
1758075035.3024,1758075035.20003,0.0,0.0,0.0,-50.1911,51.27972,9.28192,9.9,1.49,-0.22,2.0
1758075035.31749,1758075035.21003,0.0,0.0,0.0,-51.79538,60.04598,4.87014,9.9,1.49,-0.22,2.0
1758075035.33435,1758075035.22003,0.0,0.0,0.0,-53.17049,67.26525,0.40107,9.33,0.74,-0.09,2.0
1758075035.33651,1758075035.23003,0.0,0.0,0.0,-54.08722,73.79697,-5.78687,9.33,0.74,-0.09,2.0
1758075035.3515,1758075035.24003,0.0,0.0,0.0,-53.51426,75.68773,-8.76626,9.07,-0.17,0.27,2.0
1758075035.35282,1758075035.25003,0.0,0.0,0.0,-51.73809,75.85962,-11.17268,9.07,-0.17,0.27,2.0
1758075035.36753,1758075035.26003,0.0,0.0,0.0,-48.75871,75.68773,-12.71966,9.02,-1.08,0.74,2.0
1758075035.38406,1758075035.27003,0.0,0.0,0.0,-41.88322,73.3386,-12.60507,8.77,-1.73,0.81,2.0
1758075035.38523,1758075035.28003,0.0,0.0,0.0,-36.49741,69.27061,-11.51645,8.77,-1.73,0.81,2.0
1758075035.40184,1758075035.29003,0.0,0.0,0.0,-30.19488,62.91077,-9.39651,8.05,-1.92,0.78,2.0
1758075035.40346,1758075035.30003,0.0,0.0,0.0,-23.54857,56.78012,-6.58902,8.05,-1.92,0.78,2.0
1758075035.41931,1758075035.31003,0.0,0.0,0.0,-12.60507,49.90463,-1.60428,8.13,-1.87,0.74,2.0
1758075035.42136,1758075035.32003,0.0,0.0,0.0,-5.09932,46.40959,1.77617,8.13,-1.87,0.74,2.0
1758075035.43759,1758075035.33003,0.0,0.0,0.0,2.34913,42.05511,5.50039,8.54,-1.69,0.96,2.0
1758075035.45507,1758075035.34003,0.0,0.0,0.0,13.34992,36.7266,10.54242,8.54,-1.69,0.96,2.0
1758075035.45715,1758075035.35003,0.0,0.0,0.0,19.70975,32.83048,12.83425,8.7,-1.43,1.14,2.0
1758075035.47253,1758075035.36003,0.0,0.0,0.0,24.75178,33.40344,14.32395,9.51,-1.29,1.19,2.0
1758075035.47355,1758075035.37003,0.0,0.0,0.0,28.93437,33.9764,14.83961,9.51,-1.29,1.19,2.0
1758075035.48936,1758075035.38003,0.0,0.0,0.0,33.68992,29.33544,14.09476,9.61,-1.26,1.25,2.0
1758075035.49114,1758075035.39003,0.0,0.0,0.0,36.84119,21.02755,13.23533,9.61,-1.26,1.25,2.0
1758075035.50655,1758075035.40003,0.0,0.0,0.0,39.19032,8.88085,12.2613,8.97,-1.35,0.56,2.0
1758075035.52233,1758075035.41003,0.0,0.0,0.0,40.50812,-8.30789,10.94349,8.97,-1.35,0.56,2.0
1758075035.52517,1758075035.42003,0.0,0.0,0.0,40.68,-27.78845,7.04738,8.33,-1.31,-0.38,2.0
1758075035.54146,1758075035.43003,0.0,0.0,0.0,41.88322,-30.48136,6.41713,9.76,-1.16,-0.96,2.0
1758075035.5431,1758075035.44003,0.0,0.0,0.0,41.65404,-30.76784,4.64096,9.76,-1.16,-0.96,2.0
1758075035.55968,1758075035.45003,0.0,0.0,0.0,42.34158,-20.79837,7.21927,11.65,-0.77,-1.05,2.0
1758075035.56034,1758075035.46003,0.0,0.0,0.0,41.59674,0.97403,4.87014,11.65,-0.77,-1.05,2.0
1758075035.57657,1758075035.47003,0.0,0.0,0.0,39.53409,10.65701,4.29718,12.5,-0.28,-0.91,2.0
1758075035.59263,1758075035.48003,0.0,0.0,0.0,39.99245,-10.08406,0.0,12.5,-0.28,-0.91,2.0
1758075035.59553,1758075035.49003,0.0,0.0,0.0,41.13837,-49.50356,1.94806,8.37,0.0,-1.04,2.0
1758075035.61218,1758075035.50003,0.0,0.0,0.0,46.75336,-84.2248,13.86558,8.81,-0.75,-0.76,2.0
1758075035.61638,1758075035.51003,0.0,0.0,0.0,46.40959,-76.94823,17.01685,8.81,-0.75,-0.76,2.0
1758075035.63132,1758075035.52003,0.0,0.0,0.0,44.9199,-73.96885,20.68378,13.42,-0.29,3.43,2.0
1758075035.63253,1758075035.53003,0.0,0.0,0.0,40.85189,-88.69387,36.32552,13.42,-0.29,3.43,2.0
1758075035.64775,1758075035.54003,0.0,0.0,0.0,30.25217,-107.65877,51.27972,15.66,1.86,8.4,2.0
1758075035.66361,1758075035.55003,0.0,0.0,0.0,21.7724,-106.97123,63.94209,15.66,1.86,8.4,2.0
1758075035.66531,1758075035.56003,0.0,0.0,0.0,12.49048,-102.04379,73.79697,16.76,3.86,6.57,2.0
1758075035.68121,1758075035.57003,0.0,0.0,0.0,-1.94806,-85.94368,80.67246,16.76,3.86,6.57,2.0
1758075035.68504,1758075035.58003,0.0,0.0,0.0,-9.5684,-76.54716,81.70379,10.94,3.66,4.91,2.0
1758075035.70147,1758075035.59003,0.0,0.0,0.0,-14.66772,-66.69229,79.18277,5.8,2.12,4.01,2.0
1758075035.70278,1758075035.60003,0.0,0.0,0.0,-17.47521,-58.3844,73.73967,5.8,2.12,4.01,2.0
1758075035.71763,1758075035.61003,0.0,0.0,0.0,-16.90226,-47.26902,59.75951,6.07,0.7,4.64,2.0
1758075035.73441,1758075035.62003,0.0,0.0,0.0,-14.72501,-39.4195,45.20637,6.07,0.7,4.64,2.0
1758075035.73987,1758075035.63003,0.0,0.0,0.0,-10.54242,-29.04896,28.93437,9.21,-0.46,3.83,2.0
1758075035.74264,1758075035.64003,0.0,0.0,0.0,-5.84417,-15.12609,12.14671,9.21,-0.46,3.83,2.0
1758075035.76246,1758075035.65003,0.0,0.0,0.0,1.14592,7.33386,-9.33921,11.44,-1.09,1.33,2.0
1758075035.76371,1758075035.66003,0.0,0.0,0.0,4.92744,24.86637,-19.48057,11.59,-1.66,-0.16,2.0
1758075035.78204,1758075035.67003,0.0,0.0,0.0,8.36518,43.20102,-25.26744,11.59,-1.66,-0.16,2.0
1758075035.78564,1758075035.68003,0.0,0.0,0.0,10.37054,61.24919,-28.476,11.55,-2.07,-0.37,2.0
1758075035.8024,1758075035.69003,0.0,0.0,0.0,11.97482,79.12547,-28.70519,11.55,-2.07,-0.37,2.0
1758075035.80512,1758075035.70003,0.0,0.0,0.0,12.60507,84.85506,-25.7831,10.13,-1.79,-0.05,2.0
1758075035.82201,1758075035.71003,0.0,0.0,0.0,13.5218,87.31877,-20.16812,10.13,-1.79,-0.05,2.0
1758075035.8259,1758075035.72003,0.0,0.0,0.0,14.38124,88.80846,-13.34992,9.21,-1.19,0.29,2.0
1758075035.84076,1758075035.73003,0.0,0.0,0.0,15.41257,88.06361,-2.7502,8.62,-0.42,0.6,2.0
1758075035.84244,1758075035.74003,0.0,0.0,0.0,15.41257,85.6572,3.55234,8.62,-0.42,0.6,2.0
1758075035.85763,1758075035.75003,0.0,0.0,0.0,15.06879,80.90164,9.68299,7.91,0.4,1.0,2.0
1758075035.87533,1758075035.76003,0.0,0.0,0.0,11.80293,75.57314,15.58445,7.91,0.4,1.0,2.0
1758075035.877,1758075035.77003,0.0,0.0,0.0,8.47978,70.93218,17.47521,7.89,1.27,1.39,2.0
1758075035.89253,1758075035.78003,0.0,0.0,0.0,4.46907,65.54638,17.36062,7.89,1.27,1.39,2.0
1758075035.89717,1758075035.79003,0.0,0.0,0.0,-0.40107,60.16057,15.29797,7.81,1.76,1.21,2.0
1758075035.91272,1758075035.80003,0.0,0.0,0.0,-7.84952,48.8733,10.8289,7.81,1.76,1.15,2.0
1758075035.91715,1758075035.81003,0.0,0.0,0.0,-14.38124,45.20637,5.27121,8.28,1.74,1.15,2.0
1758075035.93279,1758075035.82003,0.0,0.0,0.0,-19.99623,39.70598,-0.17189,8.71,1.32,1.09,2.0
1758075035.93691,1758075035.83003,0.0,0.0,0.0,-26.06958,35.69527,-6.35983,8.71,1.32,1.09,2.0
1758075035.95278,1758075035.84003,0.0,0.0,0.0,-33.63263,33.23156,-14.03747,9.05,0.9,0.83,2.0
1758075035.95559,1758075035.85003,0.0,0.0,0.0,-37.75792,32.6013,-17.76169,9.05,0.9,0.83,2.0
1758075035.97252,1758075035.86003,0.0,0.0,0.0,-41.59674,30.36677,-19.99623,9.3,0.67,0.76,2.0
1758075035.97689,1758075035.87003,0.0,0.0,0.0,-44.9199,22.23076,-20.74107,9.3,0.67,0.76,2.0
1758075035.99281,1758075035.88003,0.0,0.0,0.0,-48.9879,0.80214,-19.13679,8.46,0.58,0.63,2.0
1758075035.99477,1758075035.89003,0.0,0.0,0.0,-50.01921,-16.50119,-16.95955,7.69,0.4,0.06,2.0
1758075036.0095,1758075035.90003,0.0,0.0,0.0,-51.39432,-36.03905,-12.37589,7.69,0.4,0.06,2.0
1758075036.01094,1758075035.91003,0.0,0.0,0.0,-52.54023,-49.79003,-6.18794,8.25,0.54,-0.85,2.0
1758075036.02677,1758075035.92003,0.0,0.0,0.0,-53.28508,-32.77319,-1.60428,8.25,0.54,-0.85,2.0
1758075036.04279,1758075035.93003,0.0,0.0,0.0,-54.25911,-13.98017,1.03132,12.07,0.47,-0.4,2.0
1758075036.04537,1758075035.94003,0.0,0.0,0.0,-50.87865,-8.36518,7.67763,12.07,0.47,-0.4,2.0
1758075036.06087,1758075035.95003,0.0,0.0,0.0,-48.9306,-34.43476,2.34913,11.31,0.16,-0.38,2.0
1758075036.06287,1758075035.96003,0.0,0.0,0.0,-46.2377,-51.10783,-0.34377,10.69,-0.07,-1.13,2.0
1758075036.07756,1758075035.97003,0.0,0.0,0.0,-42.34158,-57.12389,-3.72423,10.69,-0.07,-1.13,2.0
1758075036.09482,1758075035.98003,0.0,0.0,0.0,-40.45082,-49.50356,-6.35983,12.0,-0.36,-1.3,2.0
1758075036.0974,1758075035.99003,0.0,0.0,0.0,-37.81522,-39.76327,-9.28192,12.0,-0.36,-1.3,2.0
1758075036.11287,1758075036.00003,0.0,0.0,0.0,-34.72124,-40.85189,-10.59972,12.66,-0.81,1.38,2.0
1758075036.11458,1758075036.01003,0.0,0.0,0.0,-29.9084,-50.3057,-13.86558,12.66,-0.81,1.38,2.0
1758075036.13184,1758075036.02003,0.0,0.0,0.0,-22.00158,-64.11398,-21.7151,14.17,-1.81,4.88,2.0
1758075036.13319,1758075036.03003,0.0,0.0,0.0,-6.70361,-77.4066,-41.88322,17.58,-1.81,6.8,2.0
1758075036.14755,1758075036.04003,0.0,0.0,0.0,4.35448,-76.26069,-53.39967,17.58,-4.54,6.8,2.0
1758075036.1646,1758075036.05003,0.0,0.0,0.0,13.69369,-75.28666,-61.24919,13.86,-4.32,3.6,2.0
1758075036.16582,1758075036.06003,0.0,0.0,0.0,21.94428,-74.7137,-64.45775,13.86,-4.32,3.6,2.0
1758075036.18089,1758075036.07003,0.0,0.0,0.0,31.51268,-77.4066,-65.77556,6.34,-1.83,2.95,2.0
1758075036.18178,1758075036.08003,0.0,0.0,0.0,35.12231,-75.51585,-63.19725,6.34,-1.83,2.95,2.0
1758075036.19668,1758075036.09003,0.0,0.0,0.0,35.2942,-70.76029,-58.78547,4.92,-0.35,4.34,2.0
1758075036.21287,1758075036.10003,0.0,0.0,0.0,32.25753,-63.31184,-52.82671,4.92,-0.35,4.34,2.0
1758075036.21379,1758075036.11003,0.0,0.0,0.0,22.86102,-50.82136,-39.13302,7.58,1.1,4.91,2.0
1758075036.22891,1758075036.12003,0.0,0.0,0.0,14.61043,-47.49821,-27.44468,9.51,2.47,3.61,2.0
1758075036.24488,1758075036.13003,0.0,0.0,0.0,5.90147,-43.25832,-14.43854,9.51,2.47,3.61,2.0
1758075036.24583,1758075036.14003,0.0,0.0,0.0,-2.40642,-34.60666,3.49504,11.06,2.84,1.96,2.0
1758075036.26073,1758075036.15003,0.0,0.0,0.0,-13.17803,-16.55848,12.89155,11.06,2.84,1.96,2.0
1758075036.26344,1758075036.16003,0.0,0.0,0.0,-18.56383,-3.03668,18.90761,11.99,2.35,1.09,2.0
1758075036.27868,1758075036.17003,0.0,0.0,0.0,-22.40265,11.17268,21.02755,11.99,2.35,1.09,2.0
1758075036.28303,1758075036.18003,0.0,0.0,0.0,-25.49662,33.05967,19.07949,11.9,1.47,0.56,2.0
1758075036.29899,1758075036.19003,0.0,0.0,0.0,-26.41335,47.38361,15.12609,11.28,0.57,0.03,2.0
1758075036.30306,1758075036.20003,0.0,0.0,0.0,-26.35606,59.35843,10.65701,11.28,0.57,0.03,2.0
1758075036.31896,1758075036.21003,0.0,0.0,0.0,-26.18417,70.01544,5.09932,10.17,-0.05,-0.07,2.0
1758075036.33497,1758075036.22003,0.0,0.0,0.0,-24.98096,80.27139,-2.40642,10.17,-0.05,-0.07,2.0
1758075036.33749,1758075036.23003,0.0,0.0,0.0,-23.54857,84.39669,-6.70361,9.2,-0.47,0.23,2.0
1758075036.35312,1758075036.24003,0.0,0.0,0.0,-21.14215,87.31877,-9.33921,9.2,-0.47,0.23,2.0
1758075036.35471,1758075036.25003,0.0,0.0,0.0,-18.79302,88.40739,-11.00079,8.92,-0.85,0.59,2.0
1758075036.37074,1758075036.26003,0.0,0.0,0.0,-12.54778,88.92306,-11.28727,8.8,-1.18,0.75,2.0
1758075036.37172,1758075036.27003,0.0,0.0,0.0,-7.62034,87.0323,-9.39651,8.8,-1.18,0.75,2.0
1758075036.38703,1758075036.28003,0.0,0.0,0.0,-1.94806,83.47996,-6.58902,8.64,-1.46,0.88,2.0
1758075036.40277,1758075036.29003,0.0,0.0,0.0,3.83882,75.05748,-2.6929,8.64,-1.46,0.88,2.0
1758075036.4039,1758075036.30003,0.0,0.0,0.0,13.06344,58.84277,4.0107,8.13,-1.57,0.96,2.0
1758075036.42008,1758075036.31003,0.0,0.0,0.0,19.70975,48.9879,8.47978,8.13,-1.57,0.96,2.0
1758075036.42087,1758075036.32003,0.0,0.0,0.0,26.47065,39.19032,12.71966,8.16,-1.63,1.2,2.0
1758075036.43675,1758075036.33003,0.0,0.0,0.0,33.34615,31.97105,16.38659,8.16,-1.63,1.2,2.0
1758075036.453,1758075036.34003,0.0,0.0,0.0,42.74266,27.61657,20.51189,7.98,-1.67,1.01,2.0
1758075036.45392,1758075036.35003,0.0,0.0,0.0,48.35764,25.7831,21.37133,7.94,-1.69,1.0,2.0
1758075036.469,1758075036.36003,0.0,0.0,0.0,53.17049,20.45459,21.14215,7.94,-1.69,1.0,2.0
1758075036.48474,1758075036.37003,0.0,0.0,0.0,59.64491,11.74564,18.56383,7.37,-1.63,0.95,2.0
1758075036.48595,1758075036.38003,0.0,0.0,0.0,63.19725,-5.95876,16.21471,7.37,-1.63,0.95,2.0
1758075036.50075,1758075036.39003,0.0,0.0,0.0,65.48907,-22.97561,13.40721,7.18,-1.49,0.36,2.0
1758075036.5031,1758075036.40003,0.0,0.0,0.0,65.54638,-38.1017,7.84952,7.18,-1.49,0.36,2.0
1758075036.51882,1758075036.41003,0.0,0.0,0.0,66.69229,-40.50812,4.58366,7.88,-1.12,-0.47,2.0
1758075036.523,1758075036.42003,0.0,0.0,0.0,66.635,-34.32018,3.03668,10.61,-0.67,-0.59,2.0
1758075036.53882,1758075036.43003,0.0,0.0,0.0,65.66096,-18.33465,2.97938,10.61,-0.67,-0.59,2.0
1758075036.54298,1758075036.44003,0.0,0.0,0.0,61.36378,0.11459,0.68755,12.91,0.13,-0.93,2.0
1758075036.55903,1758075036.45003,0.0,0.0,0.0,55.11855,8.25059,-2.29183,12.91,0.13,-0.93,2.0
1758075036.56073,1758075036.46003,0.0,0.0,0.0,51.6235,-22.68913,0.0,10.96,1.0,-0.93,2.0
1758075036.57679,1758075036.47003,0.0,0.0,0.0,51.6235,-48.9306,0.45837,10.96,1.0,-0.93,2.0
1758075036.59471,1758075036.48003,0.0,0.0,0.0,51.16513,-67.03606,11.22997,8.56,1.02,-2.75,2.0
1758075036.59723,1758075036.49003,0.0,0.0,0.0,49.38896,-50.59217,19.25138,12.13,0.46,-1.26,2.0
1758075036.61467,1758075036.50003,0.0,0.0,0.0,48.70141,-37.92981,21.31403,12.13,0.46,-1.26,2.0
1758075036.61878,1758075036.51003,0.0,0.0,0.0,46.46688,-33.68992,21.94428,12.79,0.62,1.24,2.0
1758075036.63463,1758075036.52003,0.0,0.0,0.0,41.08107,-43.20102,22.97561,12.79,0.62,1.24,2.0
1758075036.63776,1758075036.53003,0.0,0.0,0.0,28.59059,-74.31263,29.10626,13.85,1.67,4.9,2.0
1758075036.65306,1758075036.54003,0.0,0.0,0.0,20.3973,-86.975,39.07573,13.85,1.67,4.9,2.0
1758075036.65737,1758075036.55003,0.0,0.0,0.0,10.94349,-83.93832,49.38896,16.56,3.58,5.15,2.0
1758075036.67442,1758075036.56003,0.0,0.0,0.0,1.20321,-76.31798,60.96271,16.56,3.58,5.15,2.0
1758075036.67569,1758075036.57003,0.0,0.0,0.0,-10.8289,-66.635,61.87944,14.0,3.39,3.72,2.0
1758075036.6931,1758075036.58003,0.0,0.0,0.0,-16.90226,-62.28051,61.42108,7.32,1.57,4.11,2.0
1758075036.69564,1758075036.59003,0.0,0.0,0.0,-20.62648,-56.26446,58.4417,7.32,1.57,4.11,2.0
1758075036.71206,1758075036.60003,0.0,0.0,0.0,-18.85031,-46.00851,50.64947,5.73,0.27,4.93,2.0
1758075036.71299,1758075036.61003,0.0,0.0,0.0,-13.46451,-38.78925,43.14373,5.73,0.27,4.93,2.0
1758075036.72782,1758075036.62003,0.0,0.0,0.0,-6.87549,-31.51268,33.51803,7.05,-0.67,4.39,2.0
1758075036.7449,1758075036.63003,0.0,0.0,0.0,0.34377,-25.26744,23.0902,7.05,-0.67,4.39,2.0
1758075036.74646,1758075036.64003,0.0,0.0,0.0,10.19865,-10.31324,7.16197,9.29,-1.47,2.83,2.0
1758075036.76087,1758075036.65003,0.0,0.0,0.0,15.58445,5.72958,-2.34913,11.69,-1.66,0.85,2.0
1758075036.76254,1758075036.66003,0.0,0.0,0.0,19.82434,23.0329,-9.5684,11.69,-1.66,0.85,2.0
1758075036.77688,1758075036.67003,0.0,0.0,0.0,22.57454,40.04975,-13.80828,12.28,-1.5,0.1,2.0
1758075036.79315,1758075036.68003,0.0,0.0,0.0,24.92367,61.99404,-15.92823,12.28,-1.5,0.1,2.0
1758075036.79434,1758075036.69003,0.0,0.0,0.0,25.61122,72.0208,-14.9542,11.66,-1.47,-0.33,2.0
1758075036.80917,1758075036.70003,0.0,0.0,0.0,26.18417,78.7817,-12.204,11.66,-1.47,-0.33,2.0
1758075036.8252,1758075036.71003,0.0,0.0,0.0,26.41335,84.79775,-8.59437,10.41,-1.4,-0.23,2.0
1758075036.82615,1758075036.72003,0.0,0.0,0.0,26.47065,91.73055,-2.29183,9.65,-1.07,0.0,2.0
1758075036.84113,1758075036.73003,0.0,0.0,0.0,26.69983,92.93376,1.77617,9.65,-1.07,0.0,2.0
1758075036.84212,1758075036.74003,0.0,0.0,0.0,26.06958,91.90244,5.78687,8.72,-0.42,0.67,2.0
1758075036.85721,1758075036.75003,0.0,0.0,0.0,25.15285,87.94903,9.11003,8.72,-0.42,0.67,2.0
1758075036.87322,1758075036.76003,0.0,0.0,0.0,21.48592,76.48987,12.49048,8.02,0.43,1.08,2.0
1758075036.87518,1758075036.77003,0.0,0.0,0.0,18.16276,66.69229,13.46451,8.02,0.43,1.08,2.0
1758075036.88994,1758075036.78003,0.0,0.0,0.0,13.98017,58.67088,12.49048,7.64,1.25,1.11,2.0
1758075036.89224,1758075036.79003,0.0,0.0,0.0,5.84417,48.9306,8.65166,7.64,1.25,1.11,2.0
1758075036.908,1758075036.80003,0.0,0.0,0.0,-0.22918,41.71133,4.29718,8.22,1.77,1.05,2.0
1758075036.91218,1758075036.81003,0.0,0.0,0.0,-6.18794,32.6013,1.14592,8.61,1.86,0.88,2.0
1758075036.92997,1758075036.82003,0.0,0.0,0.0,-14.03747,29.10626,-5.27121,8.61,1.86,0.88,2.0
1758075036.93198,1758075036.83003,0.0,0.0,0.0,-23.37668,25.7831,-11.57375,9.02,1.62,1.16,2.0
1758075036.94836,1758075036.84003,0.0,0.0,0.0,-28.76248,24.4653,-15.92823,9.02,1.62,1.16,2.0
1758075036.96525,1758075036.85003,0.0,0.0,0.0,-33.80451,21.7151,-18.79302,9.16,1.25,0.97,2.0
1758075036.96577,1758075036.86003,0.0,0.0,0.0,-37.87251,14.83961,-19.82434,9.16,1.25,0.97,2.0
1758075036.98127,1758075036.87003,0.0,0.0,0.0,-43.20102,1.20321,-18.62113,8.67,1.02,1.08,2.0
1758075036.98296,1758075036.88003,0.0,0.0,0.0,-45.60744,-10.48513,-16.3293,7.89,0.85,0.34,2.0
1758075036.998,1758075036.89003,0.0,0.0,0.0,-48.07116,-26.35606,-12.54778,7.89,0.85,0.34,2.0
1758075037.01611,1758075036.90003,0.0,0.0,0.0,-50.59217,-40.7373,-8.02141,7.83,0.96,-0.45,2.0
1758075037.01859,1758075036.91003,0.0,0.0,0.0,-53.34238,-38.61736,-1.3751,7.83,0.96,-0.45,2.0
1758075037.03536,1758075036.92003,0.0,0.0,0.0,-55.92068,-17.58981,-0.45837,10.96,0.78,-0.92,2.0
1758075037.03708,1758075036.93003,0.0,0.0,0.0,-54.60288,-6.53172,5.84417,10.96,0.78,-0.92,2.0
1758075037.05225,1758075036.94003,0.0,0.0,0.0,-54.60288,-33.23156,3.20856,11.33,0.43,-1.03,2.0
1758075037.05324,1758075036.95003,0.0,0.0,0.0,-53.05589,-47.78468,-1.20321,10.45,0.28,-1.88,2.0
1758075037.06803,1758075036.96003,0.0,0.0,0.0,-50.93595,-51.85268,-5.95876,10.45,0.28,-1.88,2.0
1758075037.07147,1758075036.97003,0.0,0.0,0.0,-48.75871,-44.00316,-8.70896,12.05,-0.04,-2.45,2.0
1758075037.08709,1758075036.98003,0.0,0.0,0.0,-46.40959,-33.17426,-11.80293,12.05,-0.04,-2.45,2.0
1758075037.10333,1758075036.99003,0.0,0.0,0.0,-44.57612,-24.92367,-12.60507,12.28,-0.36,-0.76,2.0
1758075037.10503,1758075037.00003,0.0,0.0,0.0,-41.31026,-28.64789,-13.23533,12.28,-0.36,-0.76,2.0
1758075037.12034,1758075037.01003,0.0,0.0,0.0,-35.98175,-40.10705,-15.35527,12.25,-0.89,2.39,2.0
1758075037.12282,1758075037.02003,0.0,0.0,0.0,-23.37668,-62.39511,-28.87707,12.25,-0.89,2.39,2.0
1758075037.14032,1758075037.03003,0.0,0.0,0.0,-12.54778,-67.66632,-42.39888,15.17,-3.28,5.87,2.0
1758075037.14128,1758075037.04003,0.0,0.0,0.0,-0.68755,-67.26525,-54.14451,16.58,-5.87,4.81,2.0
1758075037.15689,1758075037.05003,0.0,0.0,0.0,10.65701,-63.25455,-61.87944,16.58,-5.87,4.81,2.0
1758075037.17339,1758075037.06003,0.0,0.0,0.0,25.26744,-62.62429,-66.00475,9.8,-4.04,2.99,2.0
1758075037.17432,1758075037.07003,0.0,0.0,0.0,31.79916,-62.33781,-65.71826,9.8,-4.04,2.99,2.0
1758075037.18943,1758075037.08003,0.0,0.0,0.0,35.40879,-58.4417,-62.96807,5.03,-1.74,3.62,2.0
1758075037.19193,1758075037.09003,0.0,0.0,0.0,35.75257,-52.65482,-58.90006,5.03,-1.74,3.62,2.0
1758075037.2072,1758075037.10003,0.0,0.0,0.0,30.53865,-38.27358,-49.61814,6.71,-0.37,4.61,2.0
1758075037.22343,1758075037.11003,0.0,0.0,0.0,23.66316,-30.48136,-40.27893,10.06,1.3,4.47,2.0
1758075037.22515,1758075037.12003,0.0,0.0,0.0,15.87093,-26.12688,-28.76248,10.06,1.3,4.47,2.0
1758075037.24019,1758075037.13003,0.0,0.0,0.0,7.44845,-20.16812,-16.50119,11.51,2.3,2.65,2.0
1758075037.24136,1758075037.14003,0.0,0.0,0.0,-5.32851,-5.21392,0.57296,11.51,2.3,2.65,2.0
1758075037.25728,1758075037.15003,0.0,0.0,0.0,-12.77696,7.04738,9.62569,12.07,2.28,1.32,2.0
1758075037.26249,1758075037.16003,0.0,0.0,0.0,-18.56383,20.16812,15.12609,12.07,2.28,1.32,2.0
1758075037.27927,1758075037.17003,0.0,0.0,0.0,-22.91831,33.05967,17.87628,11.6,2.04,0.7,2.0
1758075037.28016,1758075037.18003,0.0,0.0,0.0,-26.47065,50.99325,16.50119,10.65,1.61,0.27,2.0
1758075037.2958,1758075037.19003,0.0,0.0,0.0,-28.13223,60.16057,13.5791,10.65,1.61,0.27,2.0
1758075037.31145,1758075037.20003,0.0,0.0,0.0,-29.50733,68.64035,9.11003,9.48,0.98,0.33,2.0
1758075037.31239,1758075037.21003,0.0,0.0,0.0,-30.65324,75.40125,1.83346,9.48,0.98,0.33,2.0
1758075037.32751,1758075037.22003,0.0,0.0,0.0,-30.36677,76.94823,-2.97938,8.56,0.19,0.82,2.0
1758075037.3459,1758075037.23003,0.0,0.0,0.0,-29.22085,76.20339,-7.04738,8.56,0.19,0.82,2.0
1758075037.34677,1758075037.24003,0.0,0.0,0.0,-26.35606,74.14074,-10.37054,8.24,-0.77,1.35,2.0
1758075037.36224,1758075037.25003,0.0,0.0,0.0,-20.62648,68.75494,-14.20935,8.24,-0.77,1.57,2.0
1758075037.36344,1758075037.26003,0.0,0.0,0.0,-14.61043,64.51505,-13.69369,7.91,-1.79,1.57,2.0
1758075037.382,1758075037.27003,0.0,0.0,0.0,-8.0787,58.49899,-12.08941,7.65,-2.58,1.3,2.0
1758075037.38305,1758075037.28003,0.0,0.0,0.0,-0.45837,51.6235,-8.88085,7.65,-2.58,1.3,2.0
1758075037.39922,1758075037.29003,0.0,0.0,0.0,11.97482,43.88857,-2.57831,7.82,-2.87,1.11,2.0
1758075037.40022,1758075037.30003,0.0,0.0,0.0,21.14215,39.76327,2.97938,7.82,-2.87,1.11,2.0
1758075037.4167,1758075037.31003,0.0,0.0,0.0,29.73651,36.15364,8.59437,8.52,-2.53,0.93,2.0
1758075037.43254,1758075037.32003,0.0,0.0,0.0,37.81522,32.88778,14.09476,8.52,-2.53,0.93,2.0
1758075037.43346,1758075037.33003,0.0,0.0,0.0,48.24305,32.71589,20.3973,8.88,-1.88,0.68,2.0
1758075037.44929,1758075037.34003,0.0,0.0,0.0,54.08722,35.86716,23.0902,9.67,-1.29,0.64,2.0
1758075037.45054,1758075037.35003,0.0,0.0,0.0,58.26981,39.07573,23.49127,9.67,-1.29,0.64,2.0
1758075037.46588,1758075037.36003,0.0,0.0,0.0,61.1346,39.64868,21.88699,9.68,-0.79,0.7,2.0
1758075037.48158,1758075037.37003,0.0,0.0,0.0,63.25455,33.51803,17.6471,9.68,-0.79,0.7,2.0
1758075037.4828,1758075037.38003,0.0,0.0,0.0,63.65561,25.43933,14.20935,8.98,-0.48,0.43,2.0
1758075037.49758,1758075037.39003,0.0,0.0,0.0,63.19725,11.51645,10.94349,8.98,-0.48,0.43,2.0
1758075037.50173,1758075037.40003,0.0,0.0,0.0,60.50434,-6.53172,4.81285,7.97,-0.24,-0.26,2.0
1758075037.51764,1758075037.41003,0.0,0.0,0.0,58.3844,-17.81899,2.63561,8.8,-0.11,-1.01,2.0
1758075037.52169,1758075037.42003,0.0,0.0,0.0,56.37905,-22.28806,-0.34377,8.8,-0.11,-1.01,2.0
1758075037.53735,1758075037.43003,0.0,0.0,0.0,55.06125,-15.92823,1.66158,10.87,0.08,-1.09,2.0
1758075037.54252,1758075037.44003,0.0,0.0,0.0,50.2484,9.91217,0.68755,10.87,0.08,-1.09,2.0
1758075037.55948,1758075037.45003,0.0,0.0,0.0,47.49821,19.25138,-0.51566,12.97,0.42,-0.83,2.0
1758075037.56468,1758075037.46003,0.0,0.0,0.0,46.1804,-10.8862,-2.06265,12.97,0.42,-0.83,2.0
1758075037.58255,1758075037.47003,0.0,0.0,0.0,47.49821,-45.77933,-0.57296,9.03,0.71,-1.09,2.0
1758075037.58482,1758075037.48003,0.0,0.0,0.0,48.9879,-79.18277,13.5218,9.65,-0.19,-2.53,2.0
1758075037.60258,1758075037.49003,0.0,0.0,0.0,50.2484,-69.55708,18.16276,9.65,-0.19,-2.53,2.0
1758075037.60434,1758075037.50003,0.0,0.0,0.0,50.99325,-54.431,19.82434,12.48,-0.33,-0.19,2.0
1758075037.61962,1758075037.51003,0.0,0.0,0.0,50.53488,-44.23235,19.19409,12.48,-0.33,-0.19,2.0
1758075037.62083,1758075037.52003,0.0,0.0,0.0,42.57077,-57.81144,18.33465,12.18,0.42,2.82,2.0
1758075037.63755,1758075037.53003,0.0,0.0,0.0,33.68992,-80.55787,23.49127,12.18,0.42,2.82,2.0
1758075037.65264,1758075037.54003,0.0,0.0,0.0,23.66316,-100.43951,32.14294,13.41,2.31,6.93,2.0
1758075037.65361,1758075037.55003,0.0,0.0,0.0,14.09476,-104.6794,46.2377,13.41,2.31,6.93,2.0
1758075037.66935,1758075037.56003,0.0,0.0,0.0,-2.29183,-87.77714,64.91612,16.37,4.56,5.97,2.0
1758075037.67363,1758075037.57003,0.0,0.0,0.0,-11.63104,-77.63579,72.0208,12.23,4.19,4.98,2.0
1758075037.68916,1758075037.58003,0.0,0.0,0.0,-19.88164,-71.21866,75.34396,12.23,4.19,4.98,2.0
1758075037.69041,1758075037.59003,0.0,0.0,0.0,-26.98631,-63.59832,74.54182,6.65,1.93,4.43,2.0
1758075037.70566,1758075037.60003,0.0,0.0,0.0,-32.6013,-48.9306,69.27061,6.65,1.93,4.43,2.0
1758075037.72169,1758075037.61003,0.0,0.0,0.0,-31.85646,-38.50277,61.02001,6.62,0.41,4.83,2.0
1758075037.72291,1758075037.62003,0.0,0.0,0.0,-29.10626,-28.36141,48.12846,6.62,0.41,4.83,2.0
1758075037.74157,1758075037.63003,0.0,0.0,0.0,-20.62648,-13.40721,25.72581,8.77,-0.89,4.54,2.0
1758075037.74512,1758075037.64003,0.0,0.0,0.0,-12.77696,-0.97403,10.94349,10.63,-1.85,2.14,2.0
1758075037.76073,1758075037.65003,0.0,0.0,0.0,-4.87014,14.43854,-2.6929,10.63,-1.85,2.14,2.0
1758075037.76161,1758075037.66003,0.0,0.0,0.0,2.7502,32.08564,-12.71966,11.42,-2.3,0.62,2.0
1758075037.77671,1758075037.67003,0.0,0.0,0.0,12.08941,57.0093,-21.02755,11.42,-2.3,0.62,2.0
1758075037.79242,1758075037.68003,0.0,0.0,0.0,16.50119,70.41652,-22.63183,11.67,-2.52,0.06,2.0
1758075037.79365,1758075037.69003,0.0,0.0,0.0,19.53786,77.63579,-21.88699,11.67,-2.52,0.06,2.0
1758075037.80888,1758075037.70003,0.0,0.0,0.0,21.60051,80.1568,-18.10547,10.67,-2.3,0.65,2.0
1758075037.80967,1758075037.71003,0.0,0.0,0.0,22.74642,81.5892,-10.31324,9.65,-1.76,0.66,2.0
1758075037.82572,1758075037.72003,0.0,0.0,0.0,22.86102,81.76109,-4.58366,9.65,-1.76,0.66,2.0
1758075037.84172,1758075037.73003,0.0,0.0,0.0,22.28806,80.27139,1.03132,8.56,-0.94,0.7,2.0
1758075037.84269,1758075037.74003,0.0,0.0,0.0,20.74107,77.92226,5.50039,8.56,-0.94,0.7,2.0
1758075037.85775,1758075037.75003,0.0,0.0,0.0,17.18874,73.91156,10.25595,7.84,0.27,0.94,2.0
1758075037.87532,1758075037.76003,0.0,0.0,0.0,13.75099,70.53111,11.80293,7.84,0.27,0.94,2.0
1758075037.87734,1758075037.77003,0.0,0.0,0.0,9.39651,66.29122,11.51645,7.88,1.47,1.08,2.0
1758075037.8925,1758075037.78003,0.0,0.0,0.0,4.35448,61.65026,9.39651,7.88,1.47,1.08,2.0
1758075037.89555,1758075037.79003,0.0,0.0,0.0,-4.0107,55.29043,3.95341,8.0,2.03,1.1,2.0
1758075037.91276,1758075037.80003,0.0,0.0,0.0,-10.19865,51.22243,-0.85944,8.5,1.87,1.17,2.0
1758075037.91455,1758075037.81003,0.0,0.0,0.0,-16.50119,47.32632,-6.18794,8.5,1.87,1.17,2.0
1758075037.92956,1758075037.82003,0.0,0.0,0.0,-24.5226,37.12767,-11.28727,8.86,1.25,1.02,2.0
1758075037.93188,1758075037.83003,0.0,0.0,0.0,-31.51268,35.3515,-17.24603,8.86,1.25,1.02,2.0
1758075037.94653,1758075037.84003,0.0,0.0,0.0,-36.55471,33.40344,-19.88164,9.04,0.84,1.0,2.0
1758075037.96278,1758075037.85003,0.0,0.0,0.0,-41.02378,31.45539,-22.28806,9.04,0.84,1.0,2.0
1758075037.96415,1758075037.86003,0.0,0.0,0.0,-46.35228,27.78845,-23.83505,9.21,0.61,0.95,2.0
1758075037.97884,1758075037.87003,0.0,0.0,0.0,-49.67545,23.60586,-23.60586,9.07,0.62,0.99,2.0
1758075037.98055,1758075037.88003,0.0,0.0,0.0,-52.48294,14.72501,-21.94428,9.07,0.62,0.99,2.0
1758075037.99657,1758075037.89003,0.0,0.0,0.0,-54.66018,-0.0573,-19.25138,8.0,0.56,0.51,2.0
1758075038.01283,1758075037.90003,0.0,0.0,0.0,-56.20716,-24.98096,-14.83961,8.0,0.56,0.51,2.0
1758075038.01378,1758075037.91003,0.0,0.0,0.0,-56.49364,-44.23235,-10.37054,7.46,0.46,0.1,2.0
1758075038.02881,1758075037.92003,0.0,0.0,0.0,-57.58226,-59.98868,-4.64096,7.46,0.46,0.1,2.0
1758075038.03176,1758075037.93003,0.0,0.0,0.0,-58.21251,-53.17049,0.0,8.95,0.6,-0.67,2.0
1758075038.04661,1758075037.94003,0.0,0.0,0.0,-58.67088,-17.13144,2.29183,13.56,0.52,-0.42,2.0
1758075038.06286,1758075037.95003,0.0,0.0,0.0,-55.11855,-14.78231,7.62034,13.56,0.52,-0.42,2.0
1758075038.06386,1758075037.96003,0.0,0.0,0.0,-57.58226,-34.43476,1.3751,10.88,0.29,-0.43,2.0
1758075038.08067,1758075037.97003,0.0,0.0,0.0,-55.7488,-41.36755,-1.77617,10.88,0.29,-0.43,2.0
1758075038.0818,1758075037.98003,0.0,0.0,0.0,-52.36834,-44.28964,-7.79223,11.64,0.3,-2.29,2.0
1758075038.09691,1758075037.99003,0.0,0.0,0.0,-50.363,-35.3515,-9.74028,11.64,0.3,-2.29,2.0
1758075038.11289,1758075038.00003,0.0,0.0,0.0,-48.35764,-29.62192,-11.74564,12.77,-0.24,-0.71,2.0
1758075038.11385,1758075038.01003,0.0,0.0,0.0,-41.99781,-29.8511,-14.9542,12.77,-0.24,-0.71,2.0
1758075038.12891,1758075038.02003,0.0,0.0,0.0,-34.49206,-48.24305,-21.08485,13.29,-1.05,2.6,2.0
1758075038.12986,1758075038.03003,0.0,0.0,0.0,-26.01229,-64.45775,-34.09099,15.84,-3.86,6.11,2.0
1758075038.14587,1758075038.04003,0.0,0.0,0.0,-14.83961,-64.40046,-47.67009,15.84,-3.86,6.11,2.0
1758075038.1617,1758075038.05003,0.0,0.0,0.0,4.64096,-50.87865,-60.61894,16.8,-6.7,4.29,2.0
1758075038.16284,1758075038.06003,0.0,0.0,0.0,16.90226,-51.73809,-63.19725,16.8,-6.7,4.29,2.0
1758075038.17797,1758075038.07003,0.0,0.0,0.0,26.69983,-59.98868,-64.51505,8.43,-4.72,3.19,2.0
1758075038.17965,1758075038.08003,0.0,0.0,0.0,34.09099,-64.74423,-62.28051,8.43,-4.72,3.19,2.0
1758075038.19597,1758075038.09003,0.0,0.0,0.0,39.4195,-66.46311,-56.14987,4.02,-2.12,4.06,2.0
1758075038.21178,1758075038.10003,0.0,0.0,0.0,38.73195,-61.24919,-50.93595,6.17,-0.66,5.26,2.0
1758075038.21292,1758075038.11003,0.0,0.0,0.0,35.40879,-51.85268,-44.28964,6.17,-0.66,5.26,2.0
1758075038.22803,1758075038.12003,0.0,0.0,0.0,29.27814,-43.60209,-35.86716,9.75,0.97,5.03,2.0
1758075038.23209,1758075038.13003,0.0,0.0,0.0,17.36062,-36.95578,-19.82434,9.75,0.97,5.03,2.0
1758075038.24774,1758075038.14003,0.0,0.0,0.0,8.88085,-30.82513,-7.96411,10.71,2.27,3.17,2.0
1758075038.2497,1758075038.15003,0.0,0.0,0.0,0.0573,-22.00158,2.7502,10.71,2.27,3.17,2.0
1758075038.26576,1758075038.16003,0.0,0.0,0.0,-7.67763,-10.25595,11.80293,11.37,2.48,1.6,2.0
1758075038.28175,1758075038.17003,0.0,0.0,0.0,-17.24603,9.4538,19.53786,11.31,2.05,0.79,2.0
1758075038.28296,1758075038.18003,0.0,0.0,0.0,-21.7724,24.00693,20.62648,11.31,2.05,0.79,2.0
1758075038.29857,1758075038.19003,0.0,0.0,0.0,-25.49662,37.92981,19.36597,10.89,1.46,0.34,2.0
1758075038.30216,1758075038.20003,0.0,0.0,0.0,-28.13223,50.13381,14.43854,10.89,1.46,0.34,2.0
1758075038.3179,1758075038.21003,0.0,0.0,0.0,-31.62727,65.37449,10.08406,9.87,0.9,0.13,2.0
1758075038.33372,1758075038.22003,0.0,0.0,0.0,-33.46074,71.84892,4.98473,9.87,0.9,0.13,2.0
1758075038.33497,1758075038.23003,0.0,0.0,0.0,-34.95043,77.06283,0.0,8.91,0.4,0.37,2.0
1758075038.3514,1758075038.24003,0.0,0.0,0.0,-35.92446,81.01624,-6.13065,8.91,0.4,0.37,2.0
1758075038.35298,1758075038.25003,0.0,0.0,0.0,-35.58068,82.21945,-9.68299,8.49,-0.18,0.76,2.0
1758075038.36824,1758075038.26003,0.0,0.0,0.0,-33.17426,81.64648,-11.74564,8.4,-0.83,1.21,2.0
1758075038.38409,1758075038.27003,0.0,0.0,0.0,-29.56462,78.7244,-13.34992,8.4,-0.83,1.21,2.0
1758075038.38597,1758075038.28003,0.0,0.0,0.0,-23.0902,71.56243,-13.46451,8.0,-1.45,1.55,2.0
1758075038.40163,1758075038.29003,0.0,0.0,0.0,-17.30333,65.14531,-12.14671,8.0,-1.45,1.55,2.0
1758075038.40282,1758075038.30003,0.0,0.0,0.0,-10.65701,57.23849,-9.96947,7.85,-1.96,1.41,2.0
1758075038.41891,1758075038.31003,0.0,0.0,0.0,-3.03668,52.08187,-6.53172,7.85,-1.96,1.41,2.0
1758075038.42212,1758075038.32003,0.0,0.0,0.0,9.85487,50.2484,-0.51566,8.24,-2.38,1.11,2.0
1758075038.43865,1758075038.33003,0.0,0.0,0.0,18.9649,47.72739,3.95341,8.45,-2.34,0.81,2.0
1758075038.43986,1758075038.34003,0.0,0.0,0.0,28.24682,44.9199,9.5684,8.45,-2.34,0.81,2.0
1758075038.45694,1758075038.35003,0.0,0.0,0.0,35.92446,44.17505,14.66772,8.28,-1.9,0.58,2.0
1758075038.47313,1758075038.36003,0.0,0.0,0.0,45.09178,43.88857,20.79837,8.28,-1.9,0.58,2.0
1758075038.47574,1758075038.37003,0.0,0.0,0.0,49.79003,41.25296,22.51724,8.57,-1.43,0.7,2.0
1758075038.49214,1758075038.38003,0.0,0.0,0.0,53.74345,33.9764,23.20479,8.57,-1.43,0.7,2.0
1758075038.49308,1758075038.39003,0.0,0.0,0.0,56.60823,23.0329,22.51724,8.41,-1.01,0.74,2.0
1758075038.5118,1758075038.40003,0.0,0.0,0.0,58.3844,-2.29183,19.59516,8.29,-0.74,0.24,2.0
1758075038.51272,1758075038.41003,0.0,0.0,0.0,57.41038,-17.76169,15.0115,8.29,-0.74,0.24,2.0
1758075038.5279,1758075038.42003,0.0,0.0,0.0,56.49364,-21.25674,12.89155,9.78,-0.57,-0.6,2.0
1758075038.54491,1758075038.43003,0.0,0.0,0.0,53.28508,-25.43933,6.41713,9.78,-0.57,-0.6,2.0
1758075038.54671,1758075038.44003,0.0,0.0,0.0,50.87865,-22.05888,6.47442,11.38,-0.25,-0.9,2.0
1758075038.56189,1758075038.45003,0.0,0.0,0.0,47.49821,-11.51645,5.50039,11.38,-0.25,-0.9,2.0
1758075038.5631,1758075038.46003,0.0,0.0,0.0,42.51347,1.08862,2.34913,12.92,0.04,-1.29,2.0
1758075038.58136,1758075038.47003,0.0,0.0,0.0,36.15364,8.99544,-1.43239,12.92,0.04,-1.29,2.0
1758075038.58262,1758075038.48003,0.0,0.0,0.0,34.60666,-18.50654,-5.09932,11.99,0.56,-1.14,2.0
1758075038.60137,1758075038.49003,0.0,0.0,0.0,36.6693,-54.14451,-4.0107,7.18,0.33,-1.25,2.0
1758075038.60348,1758075038.50003,0.0,0.0,0.0,38.1017,-86.74582,5.72958,7.18,0.33,-1.25,2.0
1758075038.62143,1758075038.51003,0.0,0.0,0.0,36.61201,-92.07432,14.20935,10.95,-0.59,2.32,2.0
1758075038.62309,1758075038.52003,0.0,0.0,0.0,32.20023,-104.39291,22.57454,10.95,-0.59,2.32,2.0
1758075038.63797,1758075038.53003,0.0,0.0,0.0,27.10091,-119.5763,38.50277,15.15,1.21,7.84,2.0
1758075038.64071,1758075038.54003,0.0,0.0,0.0,20.05352,-125.99342,53.62885,15.15,1.21,7.84,2.0
1758075038.65722,1758075038.55003,0.0,0.0,0.0,7.04738,-116.59692,66.11933,17.67,3.22,8.36,2.0
1758075038.6732,1758075038.56003,0.0,0.0,0.0,-1.94806,-105.53883,69.38519,12.42,2.36,4.36,2.0
1758075038.67413,1758075038.57003,0.0,0.0,0.0,-10.25595,-94.42345,69.04142,12.42,2.36,4.36,2.0
1758075038.68927,1758075038.58003,0.0,0.0,0.0,-16.04282,-84.11021,66.29122,6.71,0.73,4.03,2.0
1758075038.69208,1758075038.59003,0.0,0.0,0.0,-19.25138,-72.88023,58.90006,6.71,0.73,4.03,2.0
1758075038.70829,1758075038.60003,0.0,0.0,0.0,-17.24603,-65.43179,52.08187,6.08,-0.27,4.07,2.0
1758075038.71189,1758075038.61003,0.0,0.0,0.0,-12.89155,-58.4417,42.91454,6.08,-0.27,4.07,2.0
1758075038.72725,1758075038.62003,0.0,0.0,0.0,-7.21927,-49.21708,24.23611,9.18,-1.13,3.95,2.0
1758075038.74328,1758075038.63003,0.0,0.0,0.0,3.66693,-32.6013,11.00079,11.71,-1.53,1.57,2.0
1758075038.74579,1758075038.64003,0.0,0.0,0.0,11.51645,-17.30333,-0.57296,11.71,-1.53,1.57,2.0
1758075038.76181,1758075038.65003,0.0,0.0,0.0,17.99088,-0.34377,-10.02676,11.9,-1.61,0.0,2.0
1758075038.76328,1758075038.66003,0.0,0.0,0.0,24.63719,24.75178,-19.07949,11.9,-1.61,0.0,2.0
1758075038.78185,1758075038.67003,0.0,0.0,0.0,26.69983,42.28429,-21.94428,11.28,-1.66,-0.2,2.0
1758075038.78279,1758075038.68003,0.0,0.0,0.0,27.38738,58.4417,-23.0902,11.28,-1.66,-0.2,2.0
1758075038.8003,1758075038.69003,0.0,0.0,0.0,27.61657,72.99483,-22.40265,10.59,-1.48,0.01,2.0
1758075038.8012,1758075038.70003,0.0,0.0,0.0,27.50197,89.6679,-19.19409,9.77,-1.48,0.28,2.0
1758075038.81712,1758075038.71003,0.0,0.0,0.0,27.73116,103.30429,-14.03747,9.77,-1.02,0.28,2.0
1758075038.83302,1758075038.72003,0.0,0.0,0.0,27.2155,105.13776,-10.65701,9.12,-0.56,0.33,2.0
1758075038.83691,1758075038.73003,0.0,0.0,0.0,26.81443,107.4296,-6.7609,9.12,-0.56,0.33,2.0
1758075038.85237,1758075038.74003,0.0,0.0,0.0,25.38203,113.38836,-1.20321,9.2,0.28,0.85,2.0
1758075038.85512,1758075038.75003,0.0,0.0,0.0,23.60586,111.78407,1.48969,9.2,0.28,0.85,2.0
1758075038.87195,1758075038.76003,0.0,0.0,0.0,21.42862,104.6794,3.03668,8.2,0.91,1.11,2.0
1758075038.87329,1758075038.77003,0.0,0.0,0.0,18.44924,94.07968,3.95341,8.2,0.91,1.11,2.0
1758075038.88835,1758075038.78003,0.0,0.0,0.0,12.77696,76.26069,3.55234,7.26,1.25,1.55,2.0
1758075038.90484,1758075038.79003,0.0,0.0,0.0,8.0787,64.40046,2.46372,7.23,1.33,1.82,2.0
1758075038.90679,1758075038.80003,0.0,0.0,0.0,2.34913,55.86338,0.34377,7.23,1.33,1.82,2.0
1758075038.92235,1758075038.81003,0.0,0.0,0.0,-4.0107,49.15978,-2.46372,8.0,1.4,2.03,2.0
1758075038.92522,1758075038.82003,0.0,0.0,0.0,-13.5791,35.58068,-5.84417,8.0,1.4,2.03,2.0
1758075038.94043,1758075038.83003,0.0,0.0,0.0,-22.23076,29.96569,-10.31324,8.12,1.45,1.73,2.0
1758075038.94284,1758075038.84003,0.0,0.0,0.0,-29.22085,22.74642,-12.71966,8.12,1.45,1.73,2.0
1758075038.95836,1758075038.85003,0.0,0.0,0.0,-39.87786,13.23533,-15.69904,8.32,1.69,1.57,2.0
1758075038.9652,1758075038.86003,0.0,0.0,0.0,-46.63877,3.09397,-17.01685,8.28,1.86,0.69,2.0
1758075038.98041,1758075038.87003,0.0,0.0,0.0,-52.42564,-14.15206,-16.04282,8.28,1.86,0.69,2.0
1758075038.98217,1758075038.88003,0.0,0.0,0.0,-56.66553,-31.97105,-15.06879,7.45,1.5,-0.36,2.0
1758075038.99726,1758075038.89003,0.0,0.0,0.0,-61.93674,-59.64491,-9.85487,7.45,1.5,-0.36,2.0
1758075039.01343,1758075038.90003,0.0,0.0,0.0,-64.45775,-65.48907,-4.1253,8.33,1.17,-0.88,2.0
1758075039.0143,1758075038.91003,0.0,0.0,0.0,-66.635,-49.27437,-3.72423,8.33,1.17,-0.88,2.0
1758075039.02938,1758075038.92003,0.0,0.0,0.0,-68.12468,-24.63719,-2.00535,12.62,0.56,-0.83,2.0
1758075039.03267,1758075038.93003,0.0,0.0,0.0,-63.8275,-25.8404,1.94806,12.51,-0.11,-0.8,2.0
1758075039.04973,1758075038.94003,0.0,0.0,0.0,-63.88479,-37.12767,-0.68755,12.51,-0.11,-0.8,2.0
1758075039.05246,1758075038.95003,0.0,0.0,0.0,-61.07731,-41.76862,-3.03668,11.58,-0.49,-1.59,2.0
1758075039.06909,1758075038.96003,0.0,0.0,0.0,-57.0093,-45.60744,-4.92744,11.58,-0.49,-1.59,2.0
1758075039.07286,1758075038.97003,0.0,0.0,0.0,-51.45161,-36.21093,-7.44845,11.96,-0.68,-2.01,2.0
1758075039.09054,1758075038.98003,0.0,0.0,0.0,-47.32632,-33.11696,-8.99544,11.96,-0.68,-2.01,2.0
1758075039.09214,1758075038.99003,0.0,0.0,0.0,-42.28429,-36.7266,-11.00079,12.57,-0.93,1.9,2.0
1758075039.10742,1758075039.00003,0.0,0.0,0.0,-35.63798,-46.52417,-17.13144,12.57,-0.93,1.9,2.0
1758075039.12524,1758075039.01003,0.0,0.0,0.0,-22.63183,-67.60902,-37.52874,15.02,-2.5,5.67,2.0
1758075039.12643,1758075039.02003,0.0,0.0,0.0,-12.37589,-70.41652,-50.99325,16.87,-5.29,5.75,2.0
1758075039.1412,1758075039.03003,0.0,0.0,0.0,-2.29183,-64.17127,-60.90542,16.87,-5.29,5.75,2.0
1758075039.14513,1758075039.04002,0.0,0.0,0.0,10.8862,-57.75415,-66.80688,11.35,-4.39,2.64,2.0
1758075039.16179,1758075039.05002,0.0,0.0,0.0,17.81899,-58.21251,-67.72362,11.35,-4.39,2.64,2.0
1758075039.16326,1758075039.06002,0.0,0.0,0.0,22.28806,-56.78012,-66.635,5.15,-2.18,3.19,2.0
1758075039.17902,1758075039.07002,0.0,0.0,0.0,23.49127,-51.16513,-63.8275,5.15,-2.18,3.19,2.0
1758075039.18497,1758075039.08002,0.0,0.0,0.0,19.59516,-39.64868,-56.49364,6.0,-0.81,5.01,2.0
1758075039.20025,1758075039.09002,0.0,0.0,0.0,14.03747,-31.79916,-48.41494,9.3,0.89,5.46,2.0
1758075039.20143,1758075039.10002,0.0,0.0,0.0,6.70361,-28.64789,-37.35685,9.3,0.89,5.46,2.0
1758075039.21709,1758075039.11002,0.0,0.0,0.0,-1.08862,-26.41335,-24.63719,10.62,2.28,3.63,2.0
1758075039.22227,1758075039.12002,0.0,0.0,0.0,-13.69369,-16.21471,-5.27121,10.62,2.28,3.63,2.0
1758075039.24131,1758075039.13002,0.0,0.0,0.0,-20.97026,-4.18259,6.41713,11.75,2.64,1.93,2.0
1758075039.24778,1758075039.14002,0.0,0.0,0.0,-27.2155,8.70896,14.49583,11.75,2.64,1.93,2.0
1758075039.26513,1758075039.15002,0.0,0.0,0.0,-31.85646,20.34,19.88164,11.51,2.28,0.96,2.0
1758075039.26632,1758075039.16002,0.0,0.0,0.0,-36.49741,39.76327,21.6578,11.1,1.7,0.59,2.0
1758075039.2816,1758075039.17002,0.0,0.0,0.0,-38.44547,52.08187,20.22541,11.1,1.7,0.59,2.0
1758075039.2825,1758075039.18002,0.0,0.0,0.0,-39.99245,63.65561,17.24603,10.55,0.99,0.22,2.0
1758075039.29758,1758075039.19002,0.0,0.0,0.0,-40.50812,71.67702,13.86558,10.55,0.99,0.22,2.0
1758075039.31584,1758075039.20002,0.0,0.0,0.0,-41.42485,81.24542,6.8182,9.46,0.39,-0.05,2.0
1758075039.3217,1758075039.21002,0.0,0.0,0.0,-41.71133,85.19884,2.40642,9.46,0.39,-0.05,2.0
1758075039.32227,1758075039.22002,0.0,0.0,0.0,-41.71133,86.68852,-1.60428,8.59,-0.1,0.36,2.0
1758075039.33944,1758075039.23002,0.0,0.0,0.0,-40.85189,85.77179,-6.41713,8.59,-0.1,0.36,2.0
1758075039.34198,1758075039.24002,0.0,0.0,0.0,-37.58603,80.95895,-7.33386,7.76,-0.59,0.8,2.0
1758075039.3576,1758075039.25002,0.0,0.0,0.0,-34.14828,76.94823,-8.42248,7.57,-1.2,1.36,2.0
1758075039.37443,1758075039.26002,0.0,0.0,0.0,-28.76248,70.6457,-7.67763,7.57,-1.2,1.36,2.0
1758075039.37646,1758075039.27002,0.0,0.0,0.0,-18.90761,57.63955,-4.23989,7.49,-1.88,1.71,2.0
1758075039.39162,1758075039.28002,0.0,0.0,0.0,-11.34457,47.03984,-1.03132,7.49,-1.88,1.71,2.0
1758075039.39276,1758075039.29002,0.0,0.0,0.0,-3.20856,39.01843,2.7502,7.35,-2.41,1.87,2.0
1758075039.41035,1758075039.30002,0.0,0.0,0.0,5.72958,33.86181,6.47442,7.35,-2.41,1.87,2.0
1758075039.41177,1758075039.31002,0.0,0.0,0.0,19.53786,30.02299,12.08941,7.93,-2.63,1.47,2.0
1758075039.42658,1758075039.32002,0.0,0.0,0.0,28.476,29.67921,15.24068,8.24,-2.43,1.07,2.0
1758075039.44238,1758075039.33002,0.0,0.0,0.0,36.21093,30.30947,18.10547,8.24,-2.43,1.07,2.0
1758075039.44393,1758075039.34002,0.0,0.0,0.0,43.14373,29.62192,20.05352,8.48,-2.03,0.94,2.0
1758075039.45944,1758075039.35002,0.0,0.0,0.0,51.73809,21.08485,20.79837,8.48,-2.03,0.94,2.0
1758075039.46268,1758075039.36002,0.0,0.0,0.0,56.60823,9.22462,20.45459,8.54,-1.64,0.71,2.0
1758075039.47866,1758075039.37002,0.0,0.0,0.0,59.47303,-7.84952,18.33465,8.54,-1.64,0.71,2.0
1758075039.49683,1758075039.38002,0.0,0.0,0.0,61.30648,-16.55848,15.0115,8.73,-1.21,0.11,2.0
1758075039.49797,1758075039.39002,0.0,0.0,0.0,64.51505,-17.18874,11.74564,10.76,-1.0,-0.33,2.0
1758075039.50263,1758075039.40002,0.0,0.0,0.0,65.43179,-14.83961,10.54242,10.76,-1.0,-0.33,2.0
1758075039.51835,1758075039.41002,0.0,0.0,0.0,65.83286,-3.89611,10.31324,12.19,-0.74,-0.81,2.0
1758075039.5347,1758075039.42002,0.0,0.0,0.0,62.91077,4.29718,6.99009,12.19,-0.74,-0.81,2.0
1758075039.53593,1758075039.43002,0.0,0.0,0.0,56.60823,4.52637,3.38045,11.73,-0.2,-0.67,2.0
1758075039.55249,1758075039.44002,0.0,0.0,0.0,53.80074,-26.12688,-0.97403,11.73,-0.2,-0.67,2.0
1758075039.55744,1758075039.45002,0.0,0.0,0.0,54.3164,-59.70221,-1.08862,7.76,0.07,-1.8,2.0
1758075039.57271,1758075039.46002,0.0,0.0,0.0,52.884,-90.69922,9.91217,7.76,0.07,-1.8,2.0
1758075039.57372,1758075039.47002,0.0,0.0,0.0,51.27972,-90.06896,15.35527,8.6,-0.52,-1.29,2.0
1758075039.58869,1758075039.48002,0.0,0.0,0.0,47.67009,-83.59455,19.53786,13.07,-0.13,3.16,2.0
1758075039.60712,1758075039.49002,0.0,0.0,0.0,40.7373,-85.54259,25.38203,13.07,-0.13,3.16,2.0
1758075039.60809,1758075039.50002,0.0,0.0,0.0,24.4653,-108.5755,42.39888,15.62,2.37,8.34,2.0
1758075039.62475,1758075039.51002,0.0,0.0,0.0,11.97482,-111.72677,55.92068,15.62,2.37,8.34,2.0
1758075039.62566,1758075039.52002,0.0,0.0,0.0,-1.3751,-106.79934,67.26525,17.37,4.58,7.27,2.0
1758075039.64046,1758075039.53002,0.0,0.0,0.0,-13.34992,-96.4861,74.94289,17.37,4.58,7.27,2.0
1758075039.6428,1758075039.54002,0.0,0.0,0.0,-26.81443,-79.01089,78.7244,12.42,4.24,4.64,2.0
1758075039.65777,1758075039.55002,0.0,0.0,0.0,-31.45539,-68.01009,78.26604,6.37,1.96,4.45,2.0
1758075039.6772,1758075039.56002,0.0,0.0,0.0,-33.63263,-57.41038,73.96885,6.37,1.96,4.45,2.0
1758075039.68297,1758075039.57002,0.0,0.0,0.0,-32.37212,-50.3057,66.69229,5.7,0.21,5.15,2.0
1758075039.68348,1758075039.58002,0.0,0.0,0.0,-25.89769,-42.62806,48.8733,5.7,0.21,5.15,2.0
1758075039.70168,1758075039.59002,0.0,0.0,0.0,-19.48057,-33.68992,32.77319,8.64,-1.0,4.78,2.0
1758075039.70318,1758075039.60002,0.0,0.0,0.0,-11.34457,-22.40265,16.04282,8.64,-1.0,4.78,2.0
1758075039.71777,1758075039.61002,0.0,0.0,0.0,-3.60963,-8.99544,0.0,11.12,-1.89,1.74,2.0
1758075039.72109,1758075039.62002,0.0,0.0,0.0,5.78687,13.46451,-17.58981,11.26,-2.37,0.3,2.0
1758075039.73661,1758075039.63002,0.0,0.0,0.0,10.31324,29.67921,-24.57989,11.26,-2.37,0.3,2.0
1758075039.7525,1758075039.64002,0.0,0.0,0.0,13.69369,44.40423,-28.24682,11.14,-2.69,0.07,2.0
1758075039.75646,1758075039.65002,0.0,0.0,0.0,15.35527,58.3844,-28.24682,11.14,-2.69,0.07,2.0
1758075039.77152,1758075039.66002,0.0,0.0,0.0,16.95955,72.65105,-25.15285,10.54,-2.46,0.17,2.0
1758075039.77272,1758075039.67002,0.0,0.0,0.0,17.36062,78.20874,-20.34,10.54,-2.46,0.17,2.0
1758075039.78781,1758075039.68002,0.0,0.0,0.0,18.22006,80.72976,-13.69369,9.43,-1.83,0.31,2.0
1758075039.79189,1758075039.69002,0.0,0.0,0.0,19.88164,82.04756,-2.57831,9.43,-1.83,0.31,2.0
1758075039.80784,1758075039.70002,0.0,0.0,0.0,20.45459,81.5892,4.18259,8.68,-1.11,0.45,2.0
1758075039.82461,1758075039.71002,0.0,0.0,0.0,20.3973,79.64114,10.25595,8.02,-0.07,0.83,2.0
1758075039.82731,1758075039.72002,0.0,0.0,0.0,19.59516,75.22936,15.46986,8.02,-0.07,0.83,2.0
1758075039.84285,1758075039.73002,0.0,0.0,0.0,16.21471,69.21331,20.05352,7.63,0.95,1.18,2.0
1758075039.84623,1758075039.74002,0.0,0.0,0.0,12.204,63.77021,20.34,7.63,0.95,1.18,2.0
1758075039.86185,1758075039.75002,0.0,0.0,0.0,7.96411,58.09792,18.79302,7.59,1.65,1.3,2.0
1758075039.86283,1758075039.76002,0.0,0.0,0.0,3.09397,52.36834,15.12609,7.59,1.65,1.3,2.0
1758075039.88089,1758075039.77002,0.0,0.0,0.0,-3.66693,42.85724,8.30789,8.12,1.75,1.29,2.0
1758075039.88183,1758075039.78002,0.0,0.0,0.0,-10.02676,39.82057,0.45837,8.88,1.31,1.14,2.0
1758075039.89689,1758075039.79002,0.0,0.0,0.0,-15.46986,35.2369,-5.95876,8.88,1.31,1.14,2.0
1758075039.91293,1758075039.80002,0.0,0.0,0.0,-20.79837,33.11696,-13.06344,9.1,0.76,0.99,2.0
1758075039.91466,1758075039.81002,0.0,0.0,0.0,-27.44468,31.2262,-20.74107,9.1,0.76,0.99,2.0
1758075039.9299,1758075039.82002,0.0,0.0,0.0,-30.99702,28.93437,-24.4653,9.44,0.39,0.71,2.0
1758075039.93127,1758075039.83002,0.0,0.0,0.0,-34.0337,24.5226,-25.49662,9.44,0.39,0.71,2.0
1758075039.94667,1758075039.84002,0.0,0.0,0.0,-36.7266,18.50654,-25.09555,9.41,0.23,0.66,2.0
1758075039.96267,1758075039.85002,0.0,0.0,0.0,-39.76327,2.11994,-20.97026,8.79,0.16,0.36,2.0
1758075039.96546,1758075039.86002,0.0,0.0,0.0,-41.65404,-14.03747,-15.75634,8.79,0.16,0.36,2.0
1758075039.98096,1758075039.87002,0.0,0.0,0.0,-43.54479,-30.19488,-9.85487,8.51,0.34,-0.12,2.0
1758075039.98187,1758075039.88002,0.0,0.0,0.0,-44.748,-26.47065,-3.20856,8.51,0.34,-0.12,2.0
1758075039.99701,1758075039.89002,0.0,0.0,0.0,-47.32632,-10.54242,-2.11994,11.31,0.56,-0.2,2.0
1758075040.01278,1758075039.90002,0.0,0.0,0.0,-45.03448,-1.48969,3.72423,11.31,0.56,-0.2,2.0
1758075040.0139,1758075039.91002,0.0,0.0,0.0,-43.77398,-30.82513,1.14592,11.28,0.6,-0.25,2.0
1758075040.029,1758075039.92002,0.0,0.0,0.0,-42.34158,-50.82136,-3.72423,11.28,0.6,-0.25,2.0
1758075040.04502,1758075039.93002,0.0,0.0,0.0,-39.87786,-55.06125,-7.39116,10.27,0.67,-0.69,2.0
1758075040.04591,1758075039.94002,0.0,0.0,0.0,-38.50277,-46.46688,-11.11538,12.35,0.29,-1.8,2.0
1758075040.06103,1758075039.95002,0.0,0.0,0.0,-37.87251,-35.69527,-13.69369,12.35,0.29,-1.8,2.0
1758075040.06311,1758075039.96002,0.0,0.0,0.0,-36.84119,-24.80907,-15.06879,12.27,-0.19,-0.91,2.0
1758075040.07776,1758075039.97002,0.0,0.0,0.0,-35.06502,-23.31938,-15.06879,12.27,-0.19,-0.91,2.0
1758075040.0827,1758075039.98002,0.0,0.0,0.0,-30.93972,-30.76784,-15.12609,11.79,-0.66,1.48,2.0
1758075040.09788,1758075039.99002,0.0,0.0,0.0,-24.92367,-47.15443,-19.25138,11.79,-0.66,1.48,2.0
1758075040.11452,1758075040.00002,0.0,0.0,0.0,-13.34992,-69.95815,-38.27358,13.37,-2.26,5.07,2.0
1758075040.11782,1758075040.01002,0.0,0.0,0.0,-2.40642,-77.52119,-51.22243,16.24,-5.53,7.14,2.0
1758075040.13467,1758075040.02002,0.0,0.0,0.0,8.0787,-80.72976,-62.22322,16.24,-5.53,7.14,2.0
1758075040.13711,1758075040.03002,0.0,0.0,0.0,17.30333,-82.67782,-68.41116,11.65,-5.23,5.5,2.0
1758075040.15293,1758075040.04002,0.0,0.0,0.0,26.64254,-85.19884,-70.87489,11.65,-5.23,5.5,2.0
1758075040.15435,1758075040.05002,0.0,0.0,0.0,29.96569,-79.81302,-69.3279,5.85,-2.65,4.28,2.0
1758075040.16909,1758075040.06002,0.0,0.0,0.0,31.56997,-69.21331,-66.17663,5.85,-2.65,4.28,2.0
1758075040.18508,1758075040.07002,0.0,0.0,0.0,29.39274,-59.41573,-59.41573,6.69,-0.66,5.25,2.0
1758075040.18601,1758075040.08002,0.0,0.0,0.0,24.86637,-52.13916,-52.19646,8.91,1.47,5.31,2.0
1758075040.20156,1758075040.09002,0.0,0.0,0.0,19.25138,-46.52417,-41.48215,8.91,1.47,5.31,2.0
1758075040.20283,1758075040.10002,0.0,0.0,0.0,12.60507,-37.29956,-28.87707,11.14,2.7,2.71,2.0
1758075040.21887,1758075040.11002,0.0,0.0,0.0,1.43239,-18.73572,-8.136,11.14,2.7,2.71,2.0
1758075040.22296,1758075040.12002,0.0,0.0,0.0,-5.4431,-2.6929,4.35448,12.06,2.82,0.91,2.0
1758075040.23867,1758075040.13002,0.0,0.0,0.0,-12.204,11.74564,13.86558,12.06,2.82,0.91,2.0
1758075040.26528,1758075040.14002,0.0,0.0,0.0,-17.99088,25.38203,19.36597,11.55,2.44,0.19,2.0
1758075040.26663,1758075040.15002,0.0,0.0,0.0,-24.5226,45.60744,21.14215,11.01,2.44,-0.05,2.0
1758075040.26719,1758075040.16002,0.0,0.0,0.0,-27.96034,56.89471,19.13679,11.01,1.81,-0.05,2.0
1758075040.2829,1758075040.17002,0.0,0.0,0.0,-30.93972,65.89015,15.06879,10.05,1.11,-0.07,2.0
1758075040.28567,1758075040.18002,0.0,0.0,0.0,-33.40344,72.36457,10.19865,10.05,1.11,-0.07,2.0
1758075040.30167,1758075040.19002,0.0,0.0,0.0,-36.03905,78.89629,1.66158,9.15,0.5,0.32,2.0
1758075040.30549,1758075040.20002,0.0,0.0,0.0,-36.95578,81.07353,-3.72423,9.15,0.5,0.32,2.0
1758075040.32085,1758075040.21002,0.0,0.0,0.0,-36.38282,81.93298,-8.88085,8.7,-0.28,1.04,2.0
1758075040.32239,1758075040.22002,0.0,0.0,0.0,-34.43476,81.76109,-13.23533,8.7,-0.28,1.04,2.0
1758075040.33686,1758075040.23002,0.0,0.0,0.0,-28.41871,78.38063,-16.272,8.26,-1.24,1.3,2.0
1758075040.34327,1758075040.24002,0.0,0.0,0.0,-22.86102,74.36993,-16.84496,7.67,-2.21,1.02,2.0
1758075040.36016,1758075040.25002,0.0,0.0,0.0,-15.41257,68.29657,-14.9542,7.67,-2.21,1.02,2.0
1758075040.36194,1758075040.26002,0.0,0.0,0.0,-6.87549,62.39511,-9.4538,7.48,-2.9,0.9,2.0
1758075040.37793,1758075040.27002,0.0,0.0,0.0,7.39116,54.431,-4.18259,7.48,-2.9,0.9,2.0
1758075040.39655,1758075040.28002,0.0,0.0,0.0,17.58981,49.21708,1.83346,7.91,-2.92,0.92,2.0
1758075040.39695,1758075040.29002,0.0,0.0,0.0,27.10091,43.4875,8.02141,7.91,-2.92,0.92,2.0
1758075040.41316,1758075040.30002,0.0,0.0,0.0,39.53409,39.76327,16.3293,8.13,-2.29,0.81,2.0
1758075040.41453,1758075040.31002,0.0,0.0,0.0,46.35228,40.16434,20.45459,8.85,-1.63,0.76,2.0
1758075040.43005,1758075040.32002,0.0,0.0,0.0,51.50891,39.76327,23.0329,8.85,-1.63,0.76,2.0
1758075040.43173,1758075040.33002,0.0,0.0,0.0,55.7488,36.7266,24.00693,8.86,-1.19,0.87,2.0
1758075040.44732,1758075040.34002,0.0,0.0,0.0,59.81679,24.23611,22.34536,8.86,-1.19,0.87,2.0
1758075040.46323,1758075040.35002,0.0,0.0,0.0,61.59297,8.99544,20.34,8.24,-0.95,0.68,2.0
1758075040.46505,1758075040.36002,0.0,0.0,0.0,61.36378,-10.19865,16.84496,8.24,-0.95,0.68,2.0
1758075040.48028,1758075040.37002,0.0,0.0,0.0,61.02001,-18.44924,12.2613,8.0,-0.68,0.08,2.0
1758075040.48155,1758075040.38002,0.0,0.0,0.0,59.87409,-22.00158,6.41713,9.97,-0.47,-0.18,2.0
1758075040.49702,1758075040.39002,0.0,0.0,0.0,58.72818,-20.34,3.72423,9.97,-0.47,-0.18,2.0
1758075040.51329,1758075040.40002,0.0,0.0,0.0,57.12389,-11.17268,3.09397,11.67,-0.09,-0.46,2.0
1758075040.51498,1758075040.41002,0.0,0.0,0.0,52.48294,3.89611,-0.97403,11.67,-0.09,-0.46,2.0
1758075040.52995,1758075040.42002,0.0,0.0,0.0,47.03984,7.84952,-6.35983,12.09,0.49,-0.27,2.0
1758075040.53116,1758075040.43002,0.0,0.0,0.0,44.51882,-25.15285,-5.55769,12.09,0.49,-0.27,2.0
1758075040.54595,1758075040.44002,0.0,0.0,0.0,46.40959,-58.3844,-4.98473,8.1,0.73,-1.33,2.0
1758075040.56195,1758075040.45002,0.0,0.0,0.0,47.89928,-78.7817,4.52637,8.1,0.73,-1.33,2.0
1758075040.56587,1758075040.46002,0.0,0.0,0.0,49.04519,-65.2599,12.43318,10.08,-0.09,-1.58,2.0
1758075040.5813,1758075040.47002,0.0,0.0,0.0,49.61814,-51.50891,13.86558,13.06,-0.08,1.07,2.0
1758075040.58299,1758075040.48002,0.0,0.0,0.0,47.72739,-46.75336,15.0115,13.06,-0.08,1.07,2.0
1758075040.59801,1758075040.49002,0.0,0.0,0.0,37.92981,-56.83742,19.88164,13.69,0.73,4.44,2.0
1758075040.5997,1758075040.50002,0.0,0.0,0.0,28.99167,-89.43871,29.56462,13.69,0.73,4.44,2.0
1758075040.61459,1758075040.51002,0.0,0.0,0.0,19.88164,-98.14767,41.71133,15.64,2.67,6.97,2.0
1758075040.63127,1758075040.52002,0.0,0.0,0.0,9.4538,-89.6679,52.48294,15.64,2.67,6.97,2.0
1758075040.63224,1758075040.53002,0.0,0.0,0.0,-6.07335,-74.08345,64.45775,16.5,4.0,4.87,2.0
1758075040.64732,1758075040.54002,0.0,0.0,0.0,-14.83961,-68.64035,66.80688,9.91,2.91,4.37,2.0
1758075040.66412,1758075040.55002,0.0,0.0,0.0,-21.6578,-63.88479,68.01009,9.91,2.91,4.37,2.0
1758075040.66582,1758075040.56002,0.0,0.0,0.0,-26.41335,-56.83742,66.5204,6.06,1.16,4.54,2.0
1758075040.68116,1758075040.57002,0.0,0.0,0.0,-27.38738,-43.88857,58.4417,6.06,1.16,4.54,2.0
1758075040.68228,1758075040.58002,0.0,0.0,0.0,-24.5226,-34.60666,49.15978,6.85,0.16,4.46,2.0
1758075040.69738,1758075040.59002,0.0,0.0,0.0,-18.9649,-24.98096,38.1017,6.85,0.16,4.46,2.0
1758075040.7131,1758075040.60002,0.0,0.0,0.0,-12.14671,-16.04282,24.98096,9.09,-0.84,3.89,2.0
1758075040.71512,1758075040.61002,0.0,0.0,0.0,-0.85944,0.11459,6.99009,10.07,-1.42,1.63,2.0
1758075040.73133,1758075040.62002,0.0,0.0,0.0,5.84417,15.06879,-3.20856,10.07,-1.42,1.63,2.0
1758075040.73229,1758075040.63002,0.0,0.0,0.0,11.45916,32.25753,-11.22997,10.82,-1.57,0.63,2.0
1758075040.74737,1758075040.64002,0.0,0.0,0.0,15.64175,49.84733,-16.55848,10.82,-1.57,0.63,2.0
1758075040.76335,1758075040.65002,0.0,0.0,0.0,19.25138,74.14074,-20.51189,11.19,-1.69,0.22,2.0
1758075040.76432,1758075040.66002,0.0,0.0,0.0,20.62648,84.74047,-20.11082,11.19,-1.69,0.22,2.0
1758075040.77916,1758075040.67002,0.0,0.0,0.0,21.14215,91.1003,-17.81899,10.31,-1.61,0.68,2.0
1758075040.78029,1758075040.68002,0.0,0.0,0.0,21.42862,95.51206,-11.45916,10.31,-1.61,0.68,2.0
1758075040.79551,1758075040.69002,0.0,0.0,0.0,21.31403,99.179,-6.7609,9.71,-1.25,0.98,2.0
1758075040.81241,1758075040.70002,0.0,0.0,0.0,20.97026,99.29359,-1.66158,9.27,-0.57,1.3,2.0
1758075040.81334,1758075040.71002,0.0,0.0,0.0,20.16812,95.79855,2.11994,9.27,-0.57,1.3,2.0
1758075040.8292,1758075040.72002,0.0,0.0,0.0,17.01685,87.60525,6.7609,8.32,0.34,1.67,2.0
1758075040.83203,1758075040.73002,0.0,0.0,0.0,14.43854,78.43793,8.30789,8.32,0.34,1.67,2.0
1758075040.84742,1758075040.74002,0.0,0.0,0.0,11.28727,67.55173,8.47978,7.49,1.04,1.96,2.0
1758075040.8634,1758075040.75002,0.0,0.0,0.0,7.39116,55.23313,7.44845,7.49,1.04,1.96,2.0
1758075040.86462,1758075040.76002,0.0,0.0,0.0,0.40107,40.45082,4.23989,6.96,1.41,1.73,2.0
1758075040.87918,1758075040.77002,0.0,0.0,0.0,-5.21392,34.66395,0.34377,7.71,1.63,1.63,2.0
1758075040.88114,1758075040.78002,0.0,0.0,0.0,-11.57375,29.50733,-4.52637,7.71,1.63,1.63,2.0
1758075040.89623,1758075040.79002,0.0,0.0,0.0,-16.95955,20.79837,-9.11003,8.11,1.53,1.39,2.0
1758075040.91248,1758075040.80002,0.0,0.0,0.0,-26.87172,19.88164,-16.272,8.11,1.53,1.39,2.0
1758075040.91652,1758075040.81002,0.0,0.0,0.0,-31.62727,19.53786,-19.13679,8.83,1.33,1.4,2.0
1758075040.93249,1758075040.82002,0.0,0.0,0.0,-36.21093,18.62113,-22.28806,8.83,1.33,1.4,2.0
1758075040.9334,1758075040.83002,0.0,0.0,0.0,-40.39353,16.84496,-23.66316,9.14,1.02,1.36,2.0
1758075040.94903,1758075040.84002,0.0,0.0,0.0,-46.06581,12.89155,-23.60586,9.27,0.9,1.09,2.0
1758075040.95213,1758075040.85002,0.0,0.0,0.0,-49.61814,5.78687,-21.94428,9.27,0.9,1.09,2.0
1758075040.96747,1758075040.86002,0.0,0.0,0.0,-52.76942,-7.16197,-18.85031,8.51,0.8,0.47,2.0
1758075040.96923,1758075040.87002,0.0,0.0,0.0,-55.11855,-22.23076,-15.35527,8.51,0.8,0.47,2.0
1758075040.98554,1758075040.88002,0.0,0.0,0.0,-55.51962,-48.8733,-9.05273,7.89,0.36,-0.44,2.0
1758075041.00157,1758075040.89002,0.0,0.0,0.0,-56.32175,-64.40046,-3.32316,7.89,0.36,-0.44,2.0
1758075041.00244,1758075040.90002,0.0,0.0,0.0,-56.66553,-61.07731,1.60428,8.8,0.13,-1.35,2.0
1758075041.01748,1758075040.91002,0.0,0.0,0.0,-56.78012,-21.08485,2.63561,8.8,0.13,-1.35,2.0
1758075041.02166,1758075040.92002,0.0,0.0,0.0,-53.62885,-11.34457,7.50575,13.36,-0.28,-0.78,2.0
1758075041.03758,1758075040.93002,0.0,0.0,0.0,-54.14451,-31.56997,2.40642,10.97,-0.73,-0.83,2.0
1758075041.05518,1758075040.94002,0.0,0.0,0.0,-52.42564,-40.85189,-1.08862,10.97,-0.73,-0.83,2.0
1758075041.05682,1758075040.95002,0.0,0.0,0.0,-47.67009,-52.36834,-5.90147,10.91,-0.67,-2.09,2.0
1758075041.07255,1758075040.96002,0.0,0.0,0.0,-46.69606,-48.52953,-8.30789,10.91,-0.67,-2.09,2.0
1758075041.0754,1758075040.97002,0.0,0.0,0.0,-45.60744,-43.4875,-10.59972,12.19,-0.69,-0.07,2.0
1758075041.09256,1758075040.98002,0.0,0.0,0.0,-43.37291,-41.71133,-11.80293,12.19,-0.69,-0.07,2.0
1758075041.09539,1758075040.99002,0.0,0.0,0.0,-35.3515,-53.80074,-18.85031,14.08,-1.02,3.45,2.0
1758075041.11231,1758075041.00002,0.0,0.0,0.0,-27.61657,-67.66632,-31.62727,16.81,-3.36,7.09,2.0
1758075041.11457,1758075041.01002,0.0,0.0,0.0,-17.13144,-67.60902,-43.02913,16.81,-3.36,7.09,2.0
1758075041.13014,1758075041.02002,0.0,0.0,0.0,-6.58902,-58.26981,-50.82136,15.78,-4.84,4.1,2.0
1758075041.13209,1758075041.03002,0.0,0.0,0.0,7.50575,-43.37291,-54.66018,15.78,-4.84,4.1,2.0
1758075041.14763,1758075041.04002,0.0,0.0,0.0,14.78231,-44.28964,-54.14451,8.43,-2.94,3.06,2.0
1758075041.14946,1758075041.05002,0.0,0.0,0.0,19.82434,-48.64412,-52.884,8.43,-2.94,3.06,2.0
1758075041.16642,1758075041.06002,0.0,0.0,0.0,22.40265,-47.15443,-51.27972,4.7,-1.19,4.1,2.0
1758075041.18236,1758075041.07002,0.0,0.0,0.0,21.25674,-36.21093,-47.72739,8.04,0.15,5.13,2.0
1758075041.18432,1758075041.08002,0.0,0.0,0.0,16.73037,-27.96034,-43.77398,8.04,0.15,5.13,2.0
1758075041.1996,1758075041.09002,0.0,0.0,0.0,10.25595,-22.97561,-37.24226,10.63,1.75,4.61,2.0
1758075041.20056,1758075041.10002,0.0,0.0,0.0,-2.23454,-21.25674,-24.80907,10.63,1.75,4.61,2.0
1758075041.21623,1758075041.11002,0.0,0.0,0.0,-12.08941,-15.12609,-15.46986,11.12,2.62,2.72,2.0
1758075041.2324,1758075041.12002,0.0,0.0,0.0,-21.6578,-5.72958,-6.35983,11.12,2.62,2.72,2.0
1758075041.23356,1758075041.13002,0.0,0.0,0.0,-30.36677,3.66693,1.14592,11.28,2.56,1.73,2.0
1758075041.24871,1758075041.14002,0.0,0.0,0.0,-40.10705,17.53251,8.30789,11.28,2.56,1.73,2.0
1758075041.25145,1758075041.15002,0.0,0.0,0.0,-44.28964,27.04361,9.85487,10.42,2.22,1.42,2.0
1758075041.26743,1758075041.16002,0.0,0.0,0.0,-47.15443,37.12767,9.05273,10.01,1.77,1.08,2.0
1758075041.28339,1758075041.17002,0.0,0.0,0.0,-48.9879,46.63877,7.16197,10.01,1.77,1.08,2.0
1758075041.28492,1758075041.18002,0.0,0.0,0.0,-50.59217,58.4417,2.00535,9.51,1.14,0.8,2.0
1758075041.29942,1758075041.19002,0.0,0.0,0.0,-51.27972,64.57235,-1.77617,9.51,1.14,0.8,2.0
1758075041.30099,1758075041.20002,0.0,0.0,0.0,-51.22243,68.23928,-4.69825,8.67,0.45,0.69,2.0
1758075041.3157,1758075041.21002,0.0,0.0,0.0,-50.99325,70.81759,-7.44845,8.67,0.45,0.69,2.0
1758075041.3317,1758075041.22002,0.0,0.0,0.0,-48.9879,71.04677,-10.02676,8.18,-0.35,0.84,2.0
1758075041.33284,1758075041.23002,0.0,0.0,0.0,-46.46688,70.76029,-10.8289,8.12,-1.2,1.0,2.0
1758075041.34744,1758075041.24002,0.0,0.0,0.0,-42.62806,69.67168,-10.71431,8.12,-1.2,1.0,2.0
1758075041.36373,1758075041.25002,0.0,0.0,0.0,-37.58603,67.37984,-9.96947,8.2,-1.87,1.31,2.0
1758075041.36495,1758075041.26002,0.0,0.0,0.0,-28.24682,59.98868,-7.84952,8.2,-1.87,1.31,2.0
1758075041.37973,1758075041.27002,0.0,0.0,0.0,-20.79837,52.36834,-5.32851,7.92,-2.24,1.61,2.0
1758075041.38094,1758075041.28002,0.0,0.0,0.0,-13.00614,45.60744,-2.6929,7.92,-2.24,1.61,2.0
1758075041.39576,1758075041.29002,0.0,0.0,0.0,-5.09932,41.71133,-0.11459,8.1,-2.39,1.5,2.0
1758075041.41175,1758075041.30002,0.0,0.0,0.0,7.67763,37.58603,3.95341,8.49,-2.14,1.27,2.0
1758075041.41301,1758075041.31002,0.0,0.0,0.0,16.38659,35.2369,7.44845,8.49,-2.14,1.27,2.0
1758075041.42749,1758075041.32002,0.0,0.0,0.0,24.12152,34.09099,10.59972,8.71,-1.77,0.98,2.0
1758075041.44347,1758075041.33002,0.0,0.0,0.0,33.46074,33.05967,14.61043,8.71,-1.77,0.98,2.0
1758075041.44474,1758075041.34002,0.0,0.0,0.0,39.13302,29.50733,15.58445,9.36,-1.53,0.91,2.0
1758075041.45978,1758075041.35002,0.0,0.0,0.0,44.17505,22.11617,16.04282,9.36,-1.53,0.91,2.0
1758075041.46181,1758075041.36002,0.0,0.0,0.0,48.30034,12.60507,16.10011,9.31,-1.38,0.55,2.0
1758075041.47677,1758075041.37002,0.0,0.0,0.0,51.85268,-12.71966,15.92823,9.31,-1.38,-0.14,2.0
1758075041.49283,1758075041.38002,0.0,0.0,0.0,52.42564,-31.28349,13.98017,8.71,-1.25,-0.14,2.0
1758075041.49368,1758075041.39002,0.0,0.0,0.0,52.08187,-33.86181,12.89155,9.68,-1.09,-1.02,2.0
1758075041.50882,1758075041.40002,0.0,0.0,0.0,52.08187,-34.26288,11.63104,9.68,-1.09,-1.02,2.0
1758075041.50972,1758075041.41002,0.0,0.0,0.0,50.93595,-25.21014,11.63104,11.35,-0.67,-1.22,2.0
1758075041.52651,1758075041.42002,0.0,0.0,0.0,49.84733,-10.25595,10.8289,11.35,-0.67,-1.22,2.0
1758075041.54275,1758075041.43002,0.0,0.0,0.0,46.46688,2.11994,8.25059,12.65,-0.23,-1.4,2.0
1758075041.54414,1758075041.44002,0.0,0.0,0.0,43.77398,8.02141,5.55769,12.65,-0.23,-1.4,2.0
1758075041.55856,1758075041.45002,0.0,0.0,0.0,40.85189,-35.92446,2.40642,10.56,0.23,-0.88,2.0
1758075041.55976,1758075041.46002,0.0,0.0,0.0,44.23235,-71.79161,3.49504,6.67,-0.15,-1.46,2.0
1758075041.57586,1758075041.47002,0.0,0.0,0.0,47.49821,-83.25077,10.25595,6.67,-0.15,-1.46,2.0
1758075041.59159,1758075041.48002,0.0,0.0,0.0,46.2377,-79.98491,11.74564,11.66,-0.52,2.87,2.0
1758075041.59279,1758075041.49002,0.0,0.0,0.0,39.53409,-94.53805,19.25138,11.66,-0.52,2.87,2.0
1758075041.60787,1758075041.50002,0.0,0.0,0.0,33.51803,-115.62289,35.69527,14.8,1.5,8.45,2.0
1758075041.62387,1758075041.51002,0.0,0.0,0.0,25.49662,-121.92542,52.19646,14.8,1.5,8.45,2.0
1758075041.62525,1758075041.52002,0.0,0.0,0.0,11.22997,-115.90937,69.15601,18.04,3.97,8.46,2.0
1758075041.63969,1758075041.53002,0.0,0.0,0.0,2.29183,-95.79855,75.57314,13.36,3.91,5.2,2.0
1758075041.64083,1758075041.54002,0.0,0.0,0.0,-5.95876,-83.88103,78.66711,13.36,3.91,5.2,2.0
1758075041.6559,1758075041.55002,0.0,0.0,0.0,-11.97482,-73.96885,78.38063,6.65,1.99,4.15,2.0
1758075041.6719,1758075041.56002,0.0,0.0,0.0,-16.272,-62.16592,72.36457,6.65,1.99,4.15,2.0
1758075041.67288,1758075041.57002,0.0,0.0,0.0,-15.35527,-55.40502,64.45775,5.57,0.35,4.91,2.0
1758075041.68795,1758075041.58002,0.0,0.0,0.0,-12.60507,-47.09713,52.13916,5.57,0.35,4.91,2.0
1758075041.68966,1758075041.59002,0.0,0.0,0.0,-8.36518,-36.95578,36.21093,8.62,-0.91,4.35,2.0
1758075041.70596,1758075041.60002,0.0,0.0,0.0,0.40107,-20.22541,11.00079,10.73,-0.91,1.78,2.0
1758075041.7219,1758075041.61002,0.0,0.0,0.0,6.18794,-6.87549,-3.60963,10.73,-1.65,1.78,2.0
1758075041.72319,1758075041.62002,0.0,0.0,0.0,11.51645,8.59437,-14.83961,10.97,-2.01,0.22,2.0
1758075041.73795,1758075041.63002,0.0,0.0,0.0,15.29797,25.55392,-22.51724,10.97,-2.01,0.22,2.0
1758075041.7537,1758075041.64002,0.0,0.0,0.0,18.50654,52.02457,-27.84575,11.09,-2.08,-0.09,2.0
1758075041.75494,1758075041.65002,0.0,0.0,0.0,18.79302,67.15066,-28.99167,11.09,-2.08,-0.09,2.0
1758075041.76975,1758075041.66002,0.0,0.0,0.0,18.56383,77.23472,-27.50197,10.51,-1.63,0.06,2.0
1758075041.77097,1758075041.67002,0.0,0.0,0.0,18.27736,83.53725,-24.23611,10.51,-1.63,0.06,2.0
1758075041.78577,1758075041.68002,0.0,0.0,0.0,17.58981,91.50137,-15.98552,9.62,-0.89,0.35,2.0
1758075041.8018,1758075041.69002,0.0,0.0,0.0,17.13144,94.65263,-9.74028,9.27,-0.33,0.6,2.0
1758075041.80296,1758075041.70002,0.0,0.0,0.0,16.50119,95.22559,-3.38045,9.27,-0.33,0.6,2.0
1758075041.81857,1758075041.71002,0.0,0.0,0.0,15.12609,93.56402,5.27121,8.43,0.33,1.16,2.0
1758075041.82005,1758075041.72002,0.0,0.0,0.0,12.14671,85.71449,10.94349,8.43,0.33,1.16,2.0
1758075041.83606,1758075041.73002,0.0,0.0,0.0,8.65166,78.43793,14.03747,7.87,1.13,1.53,2.0
1758075041.85202,1758075041.74002,0.0,0.0,0.0,4.58366,70.6457,16.38659,7.87,1.13,1.53,2.0
1758075041.85332,1758075041.75002,0.0,0.0,0.0,-2.92208,60.33246,15.64175,7.52,1.66,1.74,2.0
1758075041.86805,1758075041.76002,0.0,0.0,0.0,-8.65166,54.3737,12.60507,7.72,1.74,1.45,2.0
1758075041.8838,1758075041.77002,0.0,0.0,0.0,-14.49583,48.24305,7.84952,7.72,1.74,1.45,2.0
1758075041.885,1758075041.78002,0.0,0.0,0.0,-19.42327,38.73195,3.72423,8.19,1.4,1.42,2.0
1758075041.90014,1758075041.79002,0.0,0.0,0.0,-28.64789,33.34615,-7.62034,8.19,1.4,1.42,2.0
1758075041.90102,1758075041.80002,0.0,0.0,0.0,-33.80451,31.62727,-13.5218,8.93,0.93,1.3,2.0
1758075041.91608,1758075041.81002,0.0,0.0,0.0,-37.81522,31.2262,-18.85031,8.93,0.93,1.3,2.0
1758075041.93208,1758075041.82002,0.0,0.0,0.0,-41.31026,30.30947,-22.57454,9.53,0.54,1.04,2.0
1758075041.93302,1758075041.83002,0.0,0.0,0.0,-45.89392,23.94964,-24.75178,9.48,0.31,1.02,2.0
1758075041.9481,1758075041.84002,0.0,0.0,0.0,-48.58683,13.34992,-23.66316,9.48,0.31,1.02,2.0
1758075041.96407,1758075041.85002,0.0,0.0,0.0,-50.01921,-2.57831,-20.3973,8.55,0.25,0.46,2.0
1758075041.96709,1758075041.86002,0.0,0.0,0.0,-49.96192,-20.3973,-16.90226,8.55,0.25,0.46,2.0
1758075041.98193,1758075041.87002,0.0,0.0,0.0,-48.12846,-52.25375,-8.70896,7.81,0.02,-0.15,2.0
1758075041.98308,1758075041.88002,0.0,0.0,0.0,-46.00851,-66.17663,-1.3178,7.81,0.02,-0.15,2.0
1758075041.99797,1758075041.89002,0.0,0.0,0.0,-43.77398,-55.6915,1.94806,9.34,-0.15,-0.9,2.0
1758075042.014,1758075041.90002,0.0,0.0,0.0,-42.74266,-29.67921,2.57831,9.34,-0.15,-0.9,2.0
1758075042.01511,1758075041.91002,0.0,0.0,0.0,-34.26288,-24.5226,10.48513,13.58,-0.44,-0.62,2.0
1758075042.02995,1758075041.92002,0.0,0.0,0.0,-35.12231,-42.34158,4.92744,10.38,-0.73,-0.66,2.0
1758075042.03236,1758075041.93002,0.0,0.0,0.0,-33.74722,-51.5662,1.71887,10.38,-0.73,-0.66,2.0
1758075042.04717,1758075041.94002,0.0,0.0,0.0,-31.97105,-60.67623,-2.7502,10.68,-0.58,-2.5,2.0
1758075042.06319,1758075041.95002,0.0,0.0,0.0,-33.17426,-51.73809,-5.72958,10.68,-0.58,-2.5,2.0
1758075042.06523,1758075041.96002,0.0,0.0,0.0,-34.14828,-40.7946,-7.21927,12.08,-0.52,-0.5,2.0
1758075042.08159,1758075041.97002,0.0,0.0,0.0,-34.26288,-36.26823,-7.44845,12.08,-0.52,-0.5,2.0
1758075042.08268,1758075041.98002,0.0,0.0,0.0,-30.53865,-48.8733,-11.45916,12.64,-0.6,2.18,2.0
1758075042.09797,1758075041.99002,0.0,0.0,0.0,-25.43933,-63.88479,-21.25674,14.89,-1.97,6.51,2.0
1758075042.11396,1758075042.00002,0.0,0.0,0.0,-18.33465,-70.6457,-36.26823,14.89,-1.97,6.51,2.0
1758075042.11548,1758075042.01002,0.0,0.0,0.0,-8.65166,-69.95815,-50.363,17.09,-4.64,5.68,2.0
1758075042.12999,1758075042.02002,0.0,0.0,0.0,7.33386,-66.69229,-65.08801,17.09,-4.64,5.68,2.0
1758075042.13197,1758075042.03002,0.0,0.0,0.0,16.50119,-66.34852,-69.04142,10.4,-3.62,3.93,2.0
1758075042.14717,1758075042.04002,0.0,0.0,0.0,23.54857,-66.74959,-70.41652,10.4,-3.62,3.93,2.0
1758075042.16295,1758075042.05002,0.0,0.0,0.0,28.24682,-61.70755,-69.15601,5.24,-1.51,3.62,2.0
1758075042.16532,1758075042.06002,0.0,0.0,0.0,28.76248,-49.90463,-61.1346,6.68,0.04,4.99,2.0
1758075042.18017,1758075042.07002,0.0,0.0,0.0,25.21014,-43.65939,-52.54023,6.68,0.04,4.99,2.0
1758075042.18116,1758075042.08002,0.0,0.0,0.0,19.99623,-38.50277,-40.50812,9.27,1.75,4.91,2.0
1758075042.19704,1758075042.09002,0.0,0.0,0.0,13.80828,-33.9764,-26.52795,9.27,1.75,4.91,2.0
1758075042.21322,1758075042.10002,0.0,0.0,0.0,3.38045,-25.72581,-4.98473,11.33,2.6,2.93,2.0
1758075042.21457,1758075042.11002,0.0,0.0,0.0,-3.72423,-16.21471,6.87549,11.33,2.6,2.93,2.0
1758075042.22912,1758075042.12002,0.0,0.0,0.0,-10.25595,-4.1253,16.50119,12.15,2.46,1.4,2.0
1758075042.23195,1758075042.13002,0.0,0.0,0.0,-15.29797,10.31324,23.0902,12.15,2.46,1.4,2.0
1758075042.24824,1758075042.14002,0.0,0.0,0.0,-20.22541,30.13758,23.37668,11.93,1.8,0.74,2.0
1758075042.26424,1758075042.15002,0.0,0.0,0.0,-22.51724,42.57077,20.74107,10.99,1.09,0.36,2.0
1758075042.2652,1758075042.16002,0.0,0.0,0.0,-23.94964,54.3737,16.67307,10.99,1.09,0.36,2.0
1758075042.28032,1758075042.17002,0.0,0.0,0.0,-26.35606,69.38519,8.76626,10.03,0.57,0.03,2.0
1758075042.2823,1758075042.18002,0.0,0.0,0.0,-27.38738,75.85962,3.72423,10.03,0.57,0.03,2.0
1758075042.29723,1758075042.19002,0.0,0.0,0.0,-28.76248,80.61517,-0.97403,8.73,0.25,0.23,2.0
1758075042.31404,1758075042.20002,0.0,0.0,0.0,-29.67921,83.19347,-4.29718,8.73,0.25,0.23,2.0
1758075042.31603,1758075042.21002,0.0,0.0,0.0,-30.25217,84.79775,-8.42248,8.22,-0.18,0.61,2.0
1758075042.33209,1758075042.22002,0.0,0.0,0.0,-28.70519,84.45398,-9.91217,8.33,-0.77,1.14,2.0
1758075042.33303,1758075042.23002,0.0,0.0,0.0,-26.35606,81.5319,-10.59972,8.33,-0.77,1.14,2.0
1758075042.34811,1758075042.24002,0.0,0.0,0.0,-23.31938,78.03686,-10.65701,8.53,-1.39,1.39,2.0
1758075042.36497,1758075042.25002,0.0,0.0,0.0,-16.84496,69.95815,-8.42248,8.53,-1.39,1.39,2.0
1758075042.36606,1758075042.26002,0.0,0.0,0.0,-11.86023,60.67623,-5.50039,8.25,-1.69,1.41,2.0
1758075042.38109,1758075042.27002,0.0,0.0,0.0,-6.13065,52.54023,-2.34913,8.25,-1.69,1.41,2.0
1758075042.38256,1758075042.28002,0.0,0.0,0.0,0.17189,46.40959,1.08862,7.88,-1.88,1.36,2.0
1758075042.39733,1758075042.29002,0.0,0.0,0.0,10.71431,36.49741,7.10468,7.63,-1.85,1.19,2.0
1758075042.41335,1758075042.30002,0.0,0.0,0.0,17.47521,33.05967,11.11538,7.63,-1.85,1.19,2.0
1758075042.4167,1758075042.31002,0.0,0.0,0.0,23.37668,31.79916,15.35527,7.81,-1.67,0.91,2.0
1758075042.4324,1758075042.32002,0.0,0.0,0.0,28.476,31.39809,18.27736,7.81,-1.67,0.91,2.0
1758075042.43521,1758075042.33002,0.0,0.0,0.0,34.95043,25.7831,20.3973,8.14,-1.44,1.06,2.0
1758075042.45038,1758075042.34002,0.0,0.0,0.0,38.61736,17.6471,19.88164,8.14,-1.44,1.06,2.0
1758075042.45212,1758075042.35002,0.0,0.0,0.0,41.42485,7.62034,18.33465,8.16,-1.24,1.07,2.0
1758075042.4674,1758075042.36002,0.0,0.0,0.0,43.25832,-16.272,14.78231,8.16,-1.24,1.07,2.0
1758075042.48347,1758075042.37002,0.0,0.0,0.0,43.02913,-30.30947,10.8289,8.15,-1.05,0.58,2.0
1758075042.48436,1758075042.38002,0.0,0.0,0.0,42.51347,-31.11161,7.67763,9.61,-0.83,-0.49,2.0
1758075042.49921,1758075042.39002,0.0,0.0,0.0,41.99781,-26.64254,5.15662,9.61,-0.83,-0.49,2.0
1758075042.50192,1758075042.40002,0.0,0.0,0.0,39.76327,-10.54242,3.03668,11.74,-0.44,-0.63,2.0
1758075042.51722,1758075042.41002,0.0,0.0,0.0,36.49741,7.50575,-0.22918,11.74,-0.44,-0.63,2.0
1758075042.53319,1758075042.42002,0.0,0.0,0.0,32.6013,18.33465,-2.40642,12.93,0.05,-0.84,2.0
1758075042.53518,1758075042.43002,0.0,0.0,0.0,29.67921,7.04738,-8.36518,12.93,0.05,-0.84,2.0
1758075042.55096,1758075042.44002,0.0,0.0,0.0,29.04896,-42.85724,-9.85487,9.62,0.48,-1.43,2.0
1758075042.55246,1758075042.45002,0.0,0.0,0.0,30.53865,-68.98412,-1.3178,8.4,-0.08,-2.77,2.0
1758075042.56719,1758075042.46002,0.0,0.0,0.0,30.48136,-58.21251,2.23454,8.4,-0.08,-2.77,2.0
1758075042.58335,1758075042.47002,0.0,0.0,0.0,30.30947,-43.20102,3.60963,12.61,-0.61,0.1,2.0
1758075042.58525,1758075042.48002,0.0,0.0,0.0,26.69983,-37.58603,4.87014,12.61,-0.61,0.1,2.0
1758075042.60128,1758075042.49002,0.0,0.0,0.0,20.51189,-53.34238,10.37054,13.06,-0.4,3.47,2.0
1758075042.60215,1758075042.50002,0.0,0.0,0.0,11.45916,-78.43793,21.7151,13.06,-0.4,3.47,2.0
1758075042.61747,1758075042.51002,0.0,0.0,0.0,2.92208,-99.40818,36.95578,15.53,0.96,8.41,2.0
1758075042.63322,1758075042.52002,0.0,0.0,0.0,-6.87549,-101.18435,60.04598,15.93,3.11,5.46,2.0
1758075042.63442,1758075042.53002,0.0,0.0,0.0,-13.5791,-87.66255,66.97877,15.93,3.11,5.46,2.0
1758075042.65103,1758075042.54002,0.0,0.0,0.0,-20.16812,-77.63579,70.6457,9.81,2.7,4.8,2.0
1758075042.65245,1758075042.55002,0.0,0.0,0.0,-28.07493,-70.18733,69.21331,9.81,2.7,4.8,2.0
1758075042.66777,1758075042.56002,0.0,0.0,0.0,-30.36677,-62.33781,64.80153,4.78,1.18,4.47,2.0
1758075042.6838,1758075042.57002,0.0,0.0,0.0,-29.8511,-55.97798,57.46767,4.78,1.18,4.47,2.0
1758075042.6861,1758075042.58002,0.0,0.0,0.0,-27.04361,-49.67545,46.1231,5.3,0.06,4.57,2.0
1758075042.70262,1758075042.59002,0.0,0.0,0.0,-20.11082,-39.70598,24.17882,5.3,0.06,4.57,2.0
1758075042.7035,1758075042.60002,0.0,0.0,0.0,-14.32395,-31.39809,9.4538,8.62,-0.71,4.25,2.0
1758075042.71936,1758075042.61002,0.0,0.0,0.0,-8.88085,-19.13679,-3.38045,11.7,-1.3,2.08,2.0
1758075042.72312,1758075042.62002,0.0,0.0,0.0,-4.81285,-2.11994,-13.86558,11.7,-1.3,2.08,2.0
1758075042.73914,1758075042.63002,0.0,0.0,0.0,-1.43239,29.9084,-23.54857,12.93,-1.57,0.2,2.0
1758075042.74324,1758075042.64002,0.0,0.0,0.0,-1.08862,51.16513,-26.41335,12.93,-1.57,0.2,2.0
1758075042.75858,1758075042.65002,0.0,0.0,0.0,-1.60428,68.41116,-27.96034,12.19,-1.71,-0.29,2.0
1758075042.77458,1758075042.66002,0.0,0.0,0.0,-1.77617,77.57849,-24.57989,12.19,-1.71,-0.29,2.0
1758075042.77558,1758075042.67002,0.0,0.0,0.0,-2.40642,85.14153,-21.08485,9.96,-1.66,-0.13,2.0
1758075042.79144,1758075042.68002,0.0,0.0,0.0,-2.97938,92.53268,-15.29797,9.78,-1.23,0.25,2.0
1758075042.7927,1758075042.69002,0.0,0.0,0.0,-3.95341,95.0537,-12.43318,9.78,-1.23,0.25,2.0
1758075042.80733,1758075042.70002,0.0,0.0,0.0,-4.52637,96.4861,-8.70896,9.07,-0.57,0.63,2.0
1758075042.8246,1758075042.71002,0.0,0.0,0.0,-5.84417,94.82452,-4.69825,9.07,-0.57,0.63,2.0
1758075042.82558,1758075042.72002,0.0,0.0,0.0,-7.44845,88.92306,-3.03668,8.65,0.26,1.5,2.0
1758075042.84146,1758075042.73002,0.0,0.0,0.0,-10.02676,79.35466,-2.92208,8.65,0.26,1.5,2.0
1758075042.84237,1758075042.74002,0.0,0.0,0.0,-13.00614,68.75494,-3.60963,7.85,1.16,1.94,2.0
1758075042.85734,1758075042.75002,0.0,0.0,0.0,-18.85031,56.66553,-5.50039,7.98,1.67,2.02,2.0
1758075042.87464,1758075042.76002,0.0,0.0,0.0,-23.72045,50.82136,-8.59437,7.98,1.67,2.02,2.0
1758075042.87591,1758075042.77002,0.0,0.0,0.0,-28.476,43.37291,-10.65701,8.26,1.69,1.66,2.0
1758075042.89149,1758075042.78002,0.0,0.0,0.0,-38.21629,36.84119,-17.6471,8.26,1.69,1.66,2.0
1758075042.89282,1758075042.79002,0.0,0.0,0.0,-44.8053,35.2369,-22.11617,8.57,1.39,1.66,2.0
1758075042.90767,1758075042.80002,0.0,0.0,0.0,-50.47758,34.66395,-26.12688,8.57,1.39,1.66,2.0
1758075042.92368,1758075042.81002,0.0,0.0,0.0,-55.7488,34.60666,-29.10626,9.17,0.94,1.18,2.0
1758075042.92489,1758075042.82002,0.0,0.0,0.0,-62.85347,32.20023,-30.88243,9.17,0.94,1.1,2.0
1758075042.93941,1758075042.83002,0.0,0.0,0.0,-67.09336,26.24147,-30.53865,9.51,0.63,1.1,2.0
1758075042.94171,1758075042.84002,0.0,0.0,0.0,-70.6457,15.24068,-28.70519,8.51,0.37,0.43,2.0
1758075042.95765,1758075042.85002,0.0,0.0,0.0,-73.2813,1.77617,-25.61122,8.51,0.37,0.43,2.0
1758075042.97467,1758075042.86002,0.0,0.0,0.0,-75.40125,-23.60586,-20.16812,7.73,0.33,-0.29,2.0
1758075042.9757,1758075042.87002,0.0,0.0,0.0,-75.40125,-43.20102,-16.38659,7.73,0.33,-0.29,2.0
1758075042.9915,1758075042.88002,0.0,0.0,0.0,-75.80232,-51.27972,-9.74028,7.49,-0.01,-1.01,2.0
1758075042.99286,1758075042.89002,0.0,0.0,0.0,-75.63043,-31.85646,-11.91752,7.49,-0.01,-1.01,2.0
1758075043.00772,1758075042.90002,0.0,0.0,0.0,-75.00018,-1.94806,-7.10468,12.03,-0.11,-0.89,2.0
1758075043.02374,1758075042.91002,0.0,0.0,0.0,-72.82294,-28.24682,-8.70896,10.31,-0.64,-0.82,2.0
1758075043.02539,1758075042.92002,0.0,0.0,0.0,-71.73432,-44.86259,-10.48513,10.31,-0.64,-0.82,2.0
1758075043.04078,1758075042.93002,0.0,0.0,0.0,-69.84356,-54.71747,-12.14671,9.46,-0.64,-2.08,2.0
1758075043.0417,1758075042.94002,0.0,0.0,0.0,-67.32255,-62.22322,-15.69904,9.46,-0.64,-2.08,2.0
1758075043.05677,1758075042.95002,0.0,0.0,0.0,-65.66096,-56.49364,-18.50654,10.54,-0.77,-1.01,2.0
1758075043.07253,1758075042.96002,0.0,0.0,0.0,-62.5097,-53.80074,-21.14215,10.54,-0.77,-1.01,2.0
1758075043.07562,1758075042.97002,0.0,0.0,0.0,-55.00395,-65.37449,-34.95043,13.37,-1.48,3.42,2.0
1758075043.09159,1758075042.98002,0.0,0.0,0.0,-46.81066,-77.63579,-51.6235,18.04,-4.36,7.7,2.0
1758075043.09274,1758075042.99002,0.0,0.0,0.0,-36.55471,-70.13004,-65.71826,18.04,-4.36,7.7,2.0
1758075043.10782,1758075043.00002,0.0,0.0,0.0,-25.38203,-62.62429,-75.05748,16.96,-6.0,5.54,2.0
1758075043.12458,1758075043.01002,0.0,0.0,0.0,-12.204,-63.25455,-78.49522,16.96,-6.0,5.54,2.0
1758075043.12569,1758075043.02002,0.0,0.0,0.0,-6.13065,-67.78091,-77.17742,7.27,-3.39,4.77,2.0
1758075043.14085,1758075043.03002,0.0,0.0,0.0,-2.86479,-66.40582,-72.76565,7.27,-3.39,4.77,2.0
1758075043.14173,1758075043.04002,0.0,0.0,0.0,-3.09397,-58.26981,-66.635,5.55,-1.3,4.94,2.0
1758075043.15684,1758075043.05002,0.0,0.0,0.0,-9.11003,-47.89928,-54.66018,8.95,1.13,5.65,2.0
1758075043.17282,1758075043.06002,0.0,0.0,0.0,-16.61578,-42.05511,-43.25832,8.95,1.13,5.65,2.0
1758075043.17374,1758075043.07002,0.0,0.0,0.0,-24.63719,-37.29956,-29.96569,11.36,2.76,3.8,2.0
1758075043.18886,1758075043.08002,0.0,0.0,0.0,-33.46074,-30.88243,-16.04282,11.36,2.76,3.8,2.0
1758075043.20489,1758075043.09002,0.0,0.0,0.0,-46.63877,-13.80828,2.6929,12.26,3.12,1.69,2.0
1758075043.20579,1758075043.10002,0.0,0.0,0.0,-53.74345,-0.34377,12.37589,12.26,3.12,1.69,2.0
1758075043.22091,1758075043.11002,0.0,0.0,0.0,-59.70221,12.14671,18.27736,12.1,2.68,0.51,2.0
1758075043.2218,1758075043.12002,0.0,0.0,0.0,-63.94209,24.12152,20.68378,12.1,2.68,0.51,2.0
1758075043.23768,1758075043.13002,0.0,0.0,0.0,-69.04142,42.97184,19.70975,11.47,1.8,0.11,2.0
1758075043.24185,1758075043.14002,0.0,0.0,0.0,-71.39055,54.3164,15.87093,10.89,0.6,-0.14,2.0
1758075043.25774,1758075043.15002,0.0,0.0,0.0,-73.16672,62.91077,11.11538,10.89,0.6,-0.14,2.0
1758075043.27496,1758075043.16002,0.0,0.0,0.0,-74.59911,70.01544,2.23454,9.47,-0.28,-0.12,2.0
1758075043.2767,1758075043.17002,0.0,0.0,0.0,-74.771,77.80767,-3.09397,9.47,-0.28,-0.12,2.0
1758075043.29189,1758075043.18002,0.0,0.0,0.0,-74.59911,81.5319,-8.30789,8.43,-0.86,0.23,2.0
1758075043.29308,1758075043.19002,0.0,0.0,0.0,-72.82294,82.90699,-12.49048,8.43,-0.86,0.23,2.0
1758075043.30803,1758075043.20002,0.0,0.0,0.0,-68.35387,81.76109,-16.73037,7.66,-1.23,0.51,2.0
1758075043.31198,1758075043.21002,0.0,0.0,0.0,-62.85347,80.0995,-17.87628,7.45,-1.62,0.92,2.0
1758075043.32767,1758075043.22002,0.0,0.0,0.0,-56.55093,77.23472,-17.93358,7.45,-1.62,0.92,2.0
1758075043.33242,1758075043.23002,0.0,0.0,0.0,-48.41494,72.88023,-16.55848,7.55,-2.13,1.29,2.0
1758075043.34767,1758075043.24002,0.0,0.0,0.0,-34.77854,59.12925,-12.37589,7.55,-2.13,1.29,2.0
1758075043.35191,1758075043.25002,0.0,0.0,0.0,-25.09555,48.70141,-8.47978,7.4,-2.75,1.52,2.0
1758075043.36772,1758075043.26002,0.0,0.0,0.0,-15.35527,39.70598,-4.1253,7.4,-2.75,1.52,2.0
1758075043.38499,1758075043.27002,0.0,0.0,0.0,-5.55769,32.48671,0.68755,7.69,-3.05,1.1,2.0
1758075043.38536,1758075043.28002,0.0,0.0,0.0,7.73493,28.87707,6.41713,8.05,-2.76,0.85,2.0
1758075043.40102,1758075043.29002,0.0,0.0,0.0,15.41257,28.13223,9.5684,8.05,-2.76,0.85,2.0
1758075043.40189,1758075043.30002,0.0,0.0,0.0,21.94428,25.15285,11.45916,8.19,-2.25,0.97,2.0
1758075043.41705,1758075043.31002,0.0,0.0,0.0,27.38738,19.88164,12.54778,8.19,-2.25,0.97,2.0
1758075043.43292,1758075043.32002,0.0,0.0,0.0,32.6013,2.46372,12.54778,8.31,-1.79,0.88,2.0
1758075043.43392,1758075043.33002,0.0,0.0,0.0,34.14828,-14.49583,10.65701,8.31,-1.79,0.88,2.0
1758075043.44956,1758075043.34002,0.0,0.0,0.0,34.49206,-26.35606,7.39116,8.45,-1.31,0.33,2.0
1758075043.45147,1758075043.35002,0.0,0.0,0.0,35.12231,-26.24147,6.35983,8.45,-1.31,0.33,2.0
1758075043.46804,1758075043.36002,0.0,0.0,0.0,33.51803,-15.64175,5.15662,10.75,-0.89,0.01,2.0
1758075043.47226,1758075043.37002,0.0,0.0,0.0,30.48136,1.43239,2.00535,12.86,-0.31,-0.3,2.0
1758075043.48803,1758075043.38002,0.0,0.0,0.0,25.89769,14.43854,0.11459,12.86,-0.31,-0.3,2.0
1758075043.49242,1758075043.39002,0.0,0.0,0.0,21.02755,-10.02676,-7.16197,11.29,0.53,-0.49,2.0
1758075043.50704,1758075043.40002,0.0,0.0,0.0,19.70975,-44.11775,-9.05273,11.29,0.53,-0.49,2.0
1758075043.52549,1758075043.41002,0.0,0.0,0.0,18.90761,-78.26604,-2.97938,7.04,0.39,-2.68,2.0
1758075043.52711,1758075043.42002,0.0,0.0,0.0,19.88164,-76.1461,0.0,7.04,0.39,-2.68,2.0
1758075043.547,1758075043.43002,0.0,0.0,0.0,23.72045,-61.36378,-1.03132,10.67,-0.22,-1.87,2.0
1758075043.54802,1758075043.44002,0.0,0.0,0.0,25.72581,-49.27437,-2.57831,11.43,-0.35,0.31,2.0
1758075043.56544,1758075043.45002,0.0,0.0,0.0,24.4653,-49.79003,-4.98473,11.43,-0.35,0.31,2.0
1758075043.56716,1758075043.46002,0.0,0.0,0.0,20.62648,-61.24919,-4.81285,11.2,-0.52,4.52,2.0
1758075043.58309,1758075043.47002,0.0,0.0,0.0,10.48513,-84.2248,6.24524,11.2,-0.52,4.52,2.0
1758075043.58512,1758075043.48002,0.0,0.0,0.0,4.0107,-93.96508,22.40265,15.61,0.28,9.13,2.0
1758075043.60092,1758075043.49002,0.0,0.0,0.0,-3.55234,-93.04835,41.08107,15.61,0.28,9.13,2.0
1758075043.60371,1758075043.50002,0.0,0.0,0.0,-10.25595,-85.54259,57.18119,17.6,2.69,7.04,2.0
1758075043.61908,1758075043.51002,0.0,0.0,0.0,-17.58981,-66.29122,71.50513,10.69,2.85,5.12,2.0
1758075043.61997,1758075043.52002,0.0,0.0,0.0,-21.42862,-59.64491,76.31798,10.69,2.85,5.12,2.0
1758075043.63648,1758075043.53002,0.0,0.0,0.0,-25.15285,-49.50356,75.91692,5.89,1.27,4.18,2.0
1758075043.65211,1758075043.54002,0.0,0.0,0.0,-28.07493,-39.64868,69.15601,5.89,1.27,4.18,2.0
1758075043.65304,1758075043.55002,0.0,0.0,0.0,-30.19488,-25.8404,48.07116,6.92,-0.34,4.48,2.0
1758075043.67148,1758075043.56002,0.0,0.0,0.0,-29.56462,-14.15206,30.19488,6.92,-0.34,4.48,2.0
1758075043.67301,1758075043.57002,0.0,0.0,0.0,-27.67386,-3.20856,12.71966,9.88,-1.42,3.17,2.0
1758075043.68787,1758075043.58002,0.0,0.0,0.0,-24.86637,5.90147,-9.62569,9.88,-1.42,3.17,2.0
1758075043.68994,1758075043.59002,0.0,0.0,0.0,-23.66316,24.80907,-20.51189,11.27,-1.89,1.43,2.0
1758075043.71214,1758075043.60002,0.0,0.0,0.0,-23.0902,40.27893,-27.78845,12.11,-1.81,0.23,2.0
1758075043.71255,1758075043.61002,0.0,0.0,0.0,-23.31938,54.3737,-31.56997,12.11,-1.81,0.23,2.0
1758075043.72989,1758075043.62002,0.0,0.0,0.0,-24.35071,62.62429,-31.79916,10.67,-1.35,0.14,2.0
1758075043.73188,1758075043.63002,0.0,0.0,0.0,-25.21014,63.65561,-28.59059,10.67,-1.35,0.14,2.0
1758075043.74688,1758075043.64002,0.0,0.0,0.0,-25.55392,66.06203,-23.49127,8.89,-0.5,0.45,2.0
1758075043.74888,1758075043.65002,0.0,0.0,0.0,-25.55392,68.58305,-17.47521,8.89,-0.5,0.45,2.0
1758075043.76614,1758075043.66002,0.0,0.0,0.0,-26.81443,69.49979,-9.68299,8.27,0.22,0.44,2.0
1758075043.78191,1758075043.67002,0.0,0.0,0.0,-28.07493,70.47381,-5.84417,7.89,0.9,1.0,2.0
1758075043.78485,1758075043.68002,0.0,0.0,0.0,-30.30947,70.93218,-3.49504,7.89,0.9,1.0,2.0
1758075043.8008,1758075043.69002,0.0,0.0,0.0,-32.77319,67.60902,-1.43239,8.08,1.43,1.36,2.0
1758075043.80196,1758075043.70002,0.0,0.0,0.0,-38.56006,62.05133,-2.86479,8.08,1.43,1.36,2.0
1758075043.81696,1758075043.71002,0.0,0.0,0.0,-42.74266,58.04062,-5.55769,8.35,1.63,1.39,2.0
1758075043.82247,1758075043.72002,0.0,0.0,0.0,-46.06581,54.94666,-9.62569,8.35,1.63,1.39,2.0
1758075043.83875,1758075043.73002,0.0,0.0,0.0,-49.21708,52.884,-14.43854,8.78,1.29,1.18,2.0
1758075043.83992,1758075043.74002,0.0,0.0,0.0,-53.28508,48.12846,-20.3973,9.21,0.66,1.08,2.0
1758075043.85665,1758075043.75002,0.0,0.0,0.0,-55.7488,41.71133,-24.17882,9.21,0.66,1.08,2.0
1758075043.87222,1758075043.76002,0.0,0.0,0.0,-57.52497,30.93972,-26.52795,8.75,-0.01,0.67,2.0
1758075043.87395,1758075043.77002,0.0,0.0,0.0,-58.21251,23.49127,-27.33009,8.75,-0.01,0.67,2.0
1758075043.89303,1758075043.78002,0.0,0.0,0.0,-59.47303,14.9542,-25.21014,9.03,-0.22,0.31,2.0
1758075043.89396,1758075043.79002,0.0,0.0,0.0,-59.87409,9.62569,-21.6578,9.03,-0.22,0.31,2.0
1758075043.90918,1758075043.80002,0.0,0.0,0.0,-61.87944,6.24524,-15.12609,9.17,-0.35,0.35,2.0
1758075043.91212,1758075043.81002,0.0,0.0,0.0,-63.42643,21.25674,-11.51645,9.17,-0.35,0.35,2.0
1758075043.92734,1758075043.82002,0.0,0.0,0.0,-65.89015,25.72581,-8.99544,10.81,0.0,0.43,2.0
1758075043.94463,1758075043.83002,0.0,0.0,0.0,-66.06203,31.56997,-5.09932,10.77,0.04,0.19,2.0
1758075043.94682,1758075043.84002,0.0,0.0,0.0,-61.36378,2.23454,-0.0573,10.77,0.04,0.19,2.0
1758075043.96243,1758075043.85002,0.0,0.0,0.0,-62.39511,-43.02913,-4.81285,6.77,0.0,-0.32,2.0
1758075043.96513,1758075043.86002,0.0,0.0,0.0,-60.10328,-59.75951,-5.95876,6.77,0.0,-0.32,2.0
1758075043.98031,1758075043.87002,0.0,0.0,0.0,-58.78547,-62.05133,-9.22462,9.18,-0.03,-2.13,2.0
1758075043.98558,1758075043.88002,0.0,0.0,0.0,-58.49899,-53.62885,-11.22997,9.18,-0.03,-2.13,2.0
1758075044.00001,1758075043.89002,0.0,0.0,0.0,-57.29578,-41.31026,-11.17268,11.42,-0.51,-1.24,2.0
1758075044.00117,1758075043.90002,0.0,0.0,0.0,-56.26446,-39.99245,-10.37054,11.03,-0.98,-0.45,2.0
1758075044.01708,1758075043.91002,0.0,0.0,0.0,-54.48829,-40.85189,-9.68299,11.03,-0.98,-0.45,2.0
1758075044.03308,1758075043.92002,0.0,0.0,0.0,-49.50356,-44.8053,-8.70896,11.95,-1.87,2.4,2.0
1758075044.03539,1758075043.93002,0.0,0.0,0.0,-36.84119,-61.59297,-16.38659,11.95,-1.87,2.4,2.0
1758075044.0503,1758075043.94002,0.0,0.0,0.0,-25.15285,-66.40582,-29.22085,16.05,-4.69,5.75,2.0
1758075044.05202,1758075043.95002,0.0,0.0,0.0,-11.91752,-66.11933,-42.39888,16.05,-4.69,5.75,2.0
1758075044.06726,1758075043.96002,0.0,0.0,0.0,-0.11459,-63.94209,-53.39967,17.92,-6.99,5.86,2.0
1758075044.06907,1758075043.97002,0.0,0.0,0.0,13.5218,-63.54102,-62.16592,9.87,-3.22,4.6,2.0
1758075044.08609,1758075043.98002,0.0,0.0,0.0,19.19409,-71.73432,-65.2026,9.87,-3.22,4.6,2.0
1758075044.10213,1758075043.99002,0.0,0.0,0.0,22.05888,-77.12012,-65.08801,4.25,-0.41,3.71,2.0
1758075044.10331,1758075044.00002,0.0,0.0,0.0,22.28806,-74.771,-59.64491,4.25,-0.41,3.71,2.0
1758075044.11898,1758075044.01002,0.0,0.0,0.0,18.56383,-67.37984,-54.08722,6.65,0.93,4.84,2.0
1758075044.12046,1758075044.02002,0.0,0.0,0.0,11.91752,-60.10328,-45.83662,6.65,0.93,4.84,2.0
1758075044.13539,1758075044.03002,0.0,0.0,0.0,3.26586,-55.11855,-35.00772,10.33,2.41,5.01,2.0
1758075044.15144,1758075044.04002,0.0,0.0,0.0,-12.2613,-49.79003,-15.75634,10.33,2.41,5.01,2.0
1758075044.15236,1758075044.05002,0.0,0.0,0.0,-23.31938,-41.76862,-3.03668,11.53,3.17,3.1,2.0
1758075044.16744,1758075044.06002,0.0,0.0,0.0,-33.51803,-31.62727,8.136,11.42,2.91,1.46,2.0
1758075044.18478,1758075044.07002,0.0,0.0,0.0,-42.1124,-19.42327,16.90226,11.42,2.91,1.46,2.0
1758075044.18599,1758075044.08002,0.0,0.0,0.0,-51.50891,1.14592,23.20479,11.01,2.29,0.46,2.0
1758075044.20118,1758075044.09002,0.0,0.0,0.0,-55.51962,14.09476,23.49127,11.01,2.29,0.46,2.0
1758075044.20239,1758075044.10002,0.0,0.0,0.0,-58.04062,25.72581,21.02755,10.4,1.71,0.0,2.0
1758075044.21744,1758075044.11002,0.0,0.0,0.0,-59.75951,36.7266,17.53251,10.4,1.71,0.0,2.0
1758075044.21918,1758075044.12002,0.0,0.0,0.0,-61.93674,53.39967,9.96947,9.59,1.12,-0.12,2.0
1758075044.2355,1758075044.13002,0.0,0.0,0.0,-63.31184,60.96271,4.58366,8.74,0.55,0.16,2.0
1758075044.25237,1758075044.14002,0.0,0.0,0.0,-63.94209,66.97877,-0.68755,8.74,0.55,0.16,2.0
1758075044.25422,1758075044.15002,0.0,0.0,0.0,-63.59832,71.50513,-5.15662,8.44,-0.25,0.6,2.0
1758075044.27189,1758075044.16002,0.0,0.0,0.0,-60.10328,78.66711,-10.54242,8.44,-0.25,0.6,2.0
1758075044.27304,1758075044.17002,0.0,0.0,0.0,-55.86338,82.04756,-12.43318,8.75,-1.37,0.84,2.0
1758075044.28929,1758075044.18002,0.0,0.0,0.0,-49.50356,80.90164,-12.77696,8.75,-1.37,0.84,2.0
1758075044.29262,1758075044.19002,0.0,0.0,0.0,-42.1124,77.29202,-11.34457,8.15,-2.34,0.67,2.0
1758075044.30937,1758075044.20002,0.0,0.0,0.0,-29.67921,71.44785,-8.99544,7.91,-2.84,0.75,2.0
1758075044.31127,1758075044.21002,0.0,0.0,0.0,-20.3973,69.55708,-5.78687,7.91,-2.84,0.75,2.0
1758075044.32627,1758075044.22002,0.0,0.0,0.0,-10.31324,68.12468,-1.77617,8.66,-2.97,0.76,2.0
1758075044.34254,1758075044.23002,0.0,0.0,0.0,4.58366,66.34852,5.55769,8.66,-2.97,0.76,2.0
1758075044.34384,1758075044.24002,0.0,0.0,0.0,13.5791,63.99939,10.59972,9.11,-2.56,0.67,2.0
1758075044.3593,1758075044.25002,0.0,0.0,0.0,21.7724,59.35843,14.83961,9.11,-2.56,0.67,2.0
1758075044.36105,1758075044.26002,0.0,0.0,0.0,28.87707,55.34772,18.16276,9.4,-1.93,0.76,2.0
1758075044.37659,1758075044.27002,0.0,0.0,0.0,36.38282,50.3057,20.05352,9.4,-1.93,0.46,2.0
1758075044.39255,1758075044.28002,0.0,0.0,0.0,40.04975,42.05511,19.59516,9.66,-1.39,0.46,2.0
1758075044.39348,1758075044.29002,0.0,0.0,0.0,42.1124,28.87707,17.53251,8.5,-1.02,0.01,2.0
1758075044.4091,1758075044.30002,0.0,0.0,0.0,43.20102,17.6471,14.72501,8.5,-1.02,0.01,2.0
1758075044.41132,1758075044.31002,0.0,0.0,0.0,45.43555,6.58902,10.59972,8.92,-0.79,-0.55,2.0
1758075044.4263,1758075044.32002,0.0,0.0,0.0,46.00851,2.11994,7.96411,8.92,-0.79,-0.55,2.0
1758075044.4423,1758075044.33002,0.0,0.0,0.0,46.2377,2.00535,8.0787,10.03,-0.56,-0.96,2.0
1758075044.4443,1758075044.34002,0.0,0.0,0.0,43.94586,13.17803,5.32851,10.03,-0.56,-0.96,2.0
1758075044.45965,1758075044.35002,0.0,0.0,0.0,39.07573,18.9649,0.80214,11.75,-0.26,-0.94,2.0
1758075044.46052,1758075044.36002,0.0,0.0,0.0,36.89849,1.83346,-5.32851,9.48,0.26,-0.86,2.0
1758075044.47651,1758075044.37002,0.0,0.0,0.0,34.89313,-38.44547,-4.87014,9.48,0.26,-0.86,2.0
1758075044.49261,1758075044.38002,0.0,0.0,0.0,35.92446,-80.44328,-1.14592,6.59,-0.09,-1.44,2.0
1758075044.49357,1758075044.39002,0.0,0.0,0.0,37.98711,-91.73055,10.02676,6.59,-0.09,-1.44,2.0
1758075044.50861,1758075044.40002,0.0,0.0,0.0,34.37747,-99.06441,15.29797,12.09,-0.46,3.99,2.0
1758075044.51217,1758075044.41002,0.0,0.0,0.0,28.24682,-112.47161,29.67921,12.09,-0.46,3.99,2.0
1758075044.52759,1758075044.42002,0.0,0.0,0.0,13.75099,-119.06063,54.60288,16.98,2.14,9.86,2.0
1758075044.52966,1758075044.43002,0.0,0.0,0.0,1.71887,-116.42503,67.37984,19.13,4.98,8.78,2.0
1758075044.54666,1758075044.44002,0.0,0.0,0.0,-9.4538,-106.74203,75.80232,19.13,4.98,8.78,2.0
1758075044.56265,1758075044.45002,0.0,0.0,0.0,-20.22541,-92.18892,79.01089,11.6,3.1,5.32,2.0
1758075044.56361,1758075044.46002,0.0,0.0,0.0,-30.88243,-79.29736,78.38063,11.6,3.1,5.32,2.0
1758075044.58071,1758075044.47002,0.0,0.0,0.0,-33.9764,-74.36993,74.65641,5.21,0.73,3.24,2.0
1758075044.58166,1758075044.48002,0.0,0.0,0.0,-34.72124,-68.23928,67.26525,5.21,0.73,3.24,2.0
1758075044.59667,1758075044.49002,0.0,0.0,0.0,-32.54401,-60.38975,56.03527,6.45,-0.7,4.49,2.0
1758075044.61239,1758075044.50002,0.0,0.0,0.0,-25.89769,-45.72203,32.42941,10.42,-1.65,3.85,2.0
1758075044.61474,1758075044.51002,0.0,0.0,0.0,-19.19409,-35.3515,15.29797,10.42,-1.65,3.85,2.0
1758075044.62969,1758075044.52002,0.0,0.0,0.0,-12.08941,-24.92367,0.0573,11.47,-1.9,1.45,2.0
1758075044.63142,1758075044.53002,0.0,0.0,0.0,-5.15662,-11.80293,-11.57375,11.47,-1.9,1.45,2.0
1758075044.6467,1758075044.54002,0.0,0.0,0.0,2.11994,13.86558,-23.37668,11.11,-2.0,0.14,2.0
1758075044.66267,1758075044.55002,0.0,0.0,0.0,5.55769,30.48136,-26.64254,11.11,-2.0,0.14,2.0
1758075044.66366,1758075044.56002,0.0,0.0,0.0,6.99009,46.98254,-27.67386,10.81,-1.86,-0.04,2.0
1758075044.68032,1758075044.57002,0.0,0.0,0.0,7.44845,62.05133,-27.1582,10.81,-1.86,-0.04,2.0
1758075044.68285,1758075044.58002,0.0,0.0,0.0,8.02141,80.1568,-22.86102,10.11,-1.26,0.37,2.0
1758075044.70039,1758075044.59002,0.0,0.0,0.0,7.84952,89.83979,-18.73572,9.18,-0.53,0.57,2.0
1758075044.70557,1758075044.60002,0.0,0.0,0.0,8.136,97.9185,-13.23533,9.18,-0.53,0.57,2.0
1758075044.72235,1758075044.61002,0.0,0.0,0.0,7.79223,105.42424,-4.58366,8.69,0.11,0.72,2.0
1758075044.72567,1758075044.62002,0.0,0.0,0.0,7.21927,111.84137,0.40107,8.69,0.11,0.72,2.0
1758075044.74049,1758075044.63002,0.0,0.0,0.0,6.13065,112.07055,5.32851,8.02,0.69,1.21,2.0
1758075044.74282,1758075044.64002,0.0,0.0,0.0,4.29718,106.74203,9.05273,8.02,0.69,1.21,2.0
1758075044.75749,1758075044.65002,0.0,0.0,0.0,0.0573,92.76187,12.37589,7.13,1.19,1.75,2.0
1758075044.76694,1758075044.66002,0.0,0.0,0.0,-3.49504,82.50593,13.40721,7.16,1.47,1.88,2.0
1758075044.78159,1758075044.67002,0.0,0.0,0.0,-8.02141,72.53646,13.34992,7.16,1.47,1.88,2.0
1758075044.78276,1758075044.68002,0.0,0.0,0.0,-12.83425,63.25455,11.86023,7.82,1.56,2.08,2.0
1758075044.79754,1758075044.69002,0.0,0.0,0.0,-20.16812,46.98254,7.96411,7.82,1.56,2.08,2.0
1758075044.80042,1758075044.70002,0.0,0.0,0.0,-26.52795,39.24761,2.29183,8.5,1.38,2.05,2.0
1758075044.81664,1758075044.71002,0.0,0.0,0.0,-32.37212,32.83048,-2.97938,8.5,1.38,2.05,2.0
1758075044.83282,1758075044.72002,0.0,0.0,0.0,-37.47144,27.33009,-9.05273,9.03,1.05,1.88,2.0
1758075044.83455,1758075044.73002,0.0,0.0,0.0,-44.40423,20.16812,-15.69904,9.21,0.86,1.22,2.0
1758075044.84957,1758075044.74002,0.0,0.0,0.0,-48.9879,12.71966,-18.50654,9.21,0.86,1.22,2.0
1758075044.85154,1758075044.75002,0.0,0.0,0.0,-53.39967,-1.83346,-19.53786,8.26,0.77,0.73,2.0
1758075044.86655,1758075044.76002,0.0,0.0,0.0,-56.66553,-21.25674,-18.9649,8.26,0.77,0.73,2.0
1758075044.88283,1758075044.77002,0.0,0.0,0.0,-58.90006,-54.48829,-15.98552,7.0,0.49,-0.28,2.0
1758075044.88527,1758075044.78002,0.0,0.0,0.0,-60.90542,-73.73967,-10.8862,7.0,0.49,-0.28,2.0
1758075044.90062,1758075044.79002,0.0,0.0,0.0,-61.1346,-74.02615,-5.50039,7.88,0.4,-1.14,2.0
1758075044.90337,1758075044.80002,0.0,0.0,0.0,-62.05133,-57.0093,-5.32851,7.88,0.4,-1.14,2.0
1758075044.91855,1758075044.81002,0.0,0.0,0.0,-60.27517,-25.89769,2.46372,12.22,0.05,-0.8,2.0
1758075044.91979,1758075044.82002,0.0,0.0,0.0,-58.26981,-47.38361,2.63561,11.08,-0.31,-0.74,2.0
1758075044.93669,1758075044.83002,0.0,0.0,0.0,-57.18119,-57.41038,1.08862,11.08,-0.31,-0.74,2.0
1758075044.95265,1758075044.84002,0.0,0.0,0.0,-54.02992,-66.69229,-0.68755,10.6,-0.38,-1.98,2.0
1758075044.95637,1758075044.85002,0.0,0.0,0.0,-53.45696,-62.39511,-4.1253,10.6,-0.38,-1.98,2.0
1758075044.97167,1758075044.86002,0.0,0.0,0.0,-52.42564,-53.97263,-6.13065,11.21,-0.58,-1.4,2.0
1758075044.97338,1758075044.87002,0.0,0.0,0.0,-48.9306,-49.38896,-7.62034,11.21,-0.58,-1.4,2.0
1758075044.98797,1758075044.88002,0.0,0.0,0.0,-39.87786,-67.26525,-14.72501,12.08,-1.09,3.02,2.0
1758075044.99279,1758075044.89002,0.0,0.0,0.0,-32.42941,-80.32869,-30.25217,15.97,-3.45,8.23,2.0
1758075045.0118,1758075044.90002,0.0,0.0,0.0,-20.16812,-80.38599,-47.78468,15.97,-3.45,8.23,2.0
1758075045.01294,1758075044.91002,0.0,0.0,0.0,-6.99009,-72.53646,-63.8275,18.83,-7.0,6.49,2.0
1758075045.02794,1758075044.92002,0.0,0.0,0.0,11.63104,-62.33781,-77.29202,18.83,-7.0,6.49,2.0
1758075045.03153,1758075044.93002,0.0,0.0,0.0,20.85567,-62.33781,-81.70379,9.94,-4.53,4.68,2.0
1758075045.04693,1758075044.94002,0.0,0.0,0.0,28.01764,-57.63955,-82.16215,9.94,-4.53,4.68,2.0
1758075045.06267,1758075044.95002,0.0,0.0,0.0,31.28349,-49.50356,-78.55252,5.63,-1.73,4.41,2.0
1758075045.06467,1758075044.96002,0.0,0.0,0.0,30.13758,-36.6693,-65.2599,8.22,0.44,5.28,2.0
1758075045.07992,1758075044.97002,0.0,0.0,0.0,26.87172,-29.39274,-50.82136,8.22,0.44,5.28,2.0
1758075045.08089,1758075044.98002,0.0,0.0,0.0,22.51724,-21.7151,-32.77319,11.16,1.91,4.18,2.0
1758075045.09759,1758075044.99002,0.0,0.0,0.0,16.84496,-14.83961,-14.15206,11.16,1.91,4.18,2.0
1758075045.11303,1758075045.00002,0.0,0.0,0.0,6.99009,-2.6929,10.19865,12.01,2.29,2.06,2.0
1758075045.11391,1758075045.01002,0.0,0.0,0.0,0.68755,8.136,21.6578,12.01,2.29,2.06,2.0
1758075045.12904,1758075045.02002,0.0,0.0,0.0,-4.87014,21.25674,28.476,11.96,2.31,0.84,2.0
1758075045.12992,1758075045.03002,0.0,0.0,0.0,-11.11538,33.00237,32.08564,11.96,2.31,0.84,2.0
1758075045.14672,1758075045.04002,0.0,0.0,0.0,-14.15206,49.96192,30.65324,11.21,1.88,0.26,2.0
1758075045.16278,1758075045.05002,0.0,0.0,0.0,-16.50119,59.01466,27.73116,10.07,1.09,0.17,2.0
1758075045.16559,1758075045.06002,0.0,0.0,0.0,-18.50654,66.29122,22.57454,10.07,1.09,0.17,2.0
1758075045.18259,1758075045.07002,0.0,0.0,0.0,-20.51189,71.04677,13.00614,8.65,0.55,0.44,2.0
1758075045.18743,1758075045.08002,0.0,0.0,0.0,-21.42862,71.44785,5.90147,8.65,0.55,0.44,2.0
1758075045.19247,1758075045.09002,0.0,0.0,0.0,-21.94428,70.93218,-0.74485,7.53,0.11,1.05,2.0
1758075045.21208,1758075045.10002,0.0,0.0,0.0,-21.37133,68.86953,-6.70361,7.53,0.11,1.05,2.0
1758075045.24138,1758075045.11002,0.0,0.0,0.0,-18.50654,65.54638,-13.46451,7.01,-0.51,1.5,2.0
1758075045.24269,1758075045.12002,0.0,0.0,0.0,-14.72501,62.85347,-15.75634,7.08,-1.49,1.58,2.0
1758075045.24373,1758075045.13002,0.0,0.0,0.0,-9.33921,62.22322,-16.73037,7.08,-1.49,1.58,2.0
1758075045.24435,1758075045.14002,0.0,0.0,0.0,-2.63561,60.10328,-15.41257,7.53,-2.42,1.38,2.0
1758075045.26173,1758075045.15002,0.0,0.0,0.0,8.136,50.82136,-11.11538,7.53,-2.42,1.38,2.0
1758075045.26303,1758075045.16002,0.0,0.0,0.0,16.55848,44.51882,-6.58902,7.26,-2.78,1.04,2.0
1758075045.27879,1758075045.17002,0.0,0.0,0.0,25.55392,39.01843,-1.14592,7.26,-2.78,1.04,2.0
1758075045.28001,1758075045.18002,0.0,0.0,0.0,33.46074,35.12231,4.69825,7.85,-2.47,0.55,2.0
1758075045.29665,1758075045.19002,0.0,0.0,0.0,43.88857,36.84119,12.54778,8.75,-1.77,0.29,2.0
1758075045.31602,1758075045.20002,0.0,0.0,0.0,49.15978,40.50812,16.73037,8.75,-1.77,0.29,2.0
1758075045.31721,1758075045.21002,0.0,0.0,0.0,53.28508,41.99781,19.36597,9.48,-1.15,0.51,2.0
1758075045.33294,1758075045.22002,0.0,0.0,0.0,56.32175,40.10705,19.88164,9.48,-1.15,0.51,2.0
1758075045.33403,1758075045.23002,0.0,0.0,0.0,59.01466,31.39809,18.90761,9.4,-0.76,0.42,2.0
1758075045.34913,1758075045.24002,0.0,0.0,0.0,59.75951,20.85567,16.95955,9.4,-0.76,0.42,2.0
1758075045.35008,1758075045.25002,0.0,0.0,0.0,58.55629,3.32316,13.23533,8.93,-0.49,0.2,2.0
1758075045.36716,1758075045.26002,0.0,0.0,0.0,55.57691,-12.60507,6.53172,8.93,-0.49,0.2,2.0
1758075045.38602,1758075045.27002,0.0,0.0,0.0,54.431,-18.62113,2.34913,8.93,-0.27,-0.34,2.0
1758075045.39147,1758075045.28002,0.0,0.0,0.0,52.02457,-19.53786,0.0,10.23,0.0,-0.46,2.0
1758075045.39185,1758075045.29002,0.0,0.0,0.0,50.1911,-11.91752,0.85944,10.23,0.0,-0.46,2.0
1758075045.40812,1758075045.30002,0.0,0.0,0.0,42.34158,8.88085,-2.97938,12.17,0.39,-0.71,2.0
1758075045.42571,1758075045.31002,0.0,0.0,0.0,37.92981,6.53172,-7.73493,12.17,0.39,-0.71,2.0
1758075045.42776,1758075045.32002,0.0,0.0,0.0,35.86716,-32.83048,-4.92744,9.63,1.02,-0.59,2.0
1758075045.44555,1758075045.33002,0.0,0.0,0.0,37.18496,-75.22936,-3.49504,9.63,1.02,-0.59,2.0
1758075045.44647,1758075045.34002,0.0,0.0,0.0,40.16434,-89.78249,9.91217,7.14,0.49,-2.19,2.0
1758075045.46228,1758075045.35002,0.0,0.0,0.0,41.59674,-77.23472,13.75099,12.5,-0.05,1.26,2.0
1758075045.46569,1758075045.36002,0.0,0.0,0.0,39.70598,-69.90086,14.9542,12.5,-0.05,1.26,2.0
1758075045.48223,1758075045.37002,0.0,0.0,0.0,34.26288,-81.01624,19.36597,13.92,0.76,5.08,2.0
1758075045.485,1758075045.38002,0.0,0.0,0.0,20.74107,-108.6901,37.18496,13.92,0.76,5.08,2.0
1758075045.50176,1758075045.39002,0.0,0.0,0.0,10.25595,-112.41433,51.6235,17.41,3.04,9.47,2.0
1758075045.50305,1758075045.40002,0.0,0.0,0.0,-0.57296,-107.25771,66.69229,17.41,3.04,9.47,2.0
1758075045.51795,1758075045.41002,0.0,0.0,0.0,-10.71431,-95.68395,77.4066,16.69,4.05,6.37,2.0
1758075045.52226,1758075045.42002,0.0,0.0,0.0,-22.00158,-80.78706,85.42801,9.02,2.31,5.13,2.0
1758075045.53974,1758075045.43002,0.0,0.0,0.0,-26.75713,-74.14074,86.00097,9.02,2.31,5.13,2.0
1758075045.54236,1758075045.44002,0.0,0.0,0.0,-29.22085,-66.11933,82.56322,5.8,0.37,4.45,2.0
1758075045.55899,1758075045.45002,0.0,0.0,0.0,-28.476,-57.23849,67.89551,5.8,0.37,4.45,2.0
1758075045.5607,1758075045.46002,0.0,0.0,0.0,-25.21014,-44.9199,52.25375,8.16,-0.95,4.82,2.0
1758075045.57698,1758075045.47002,0.0,0.0,0.0,-20.05352,-33.80451,34.37747,8.16,-0.95,4.82,2.0
1758075045.58218,1758075045.48002,0.0,0.0,0.0,-13.86558,-22.28806,15.46986,10.59,-1.91,2.74,2.0
1758075045.59901,1758075045.49002,0.0,0.0,0.0,-4.92744,-3.20856,-7.96411,10.59,-1.91,2.74,2.0
1758075045.60159,1758075045.50002,0.0,0.0,0.0,-0.34377,10.94349,-19.42327,10.49,-2.15,0.78,2.0
1758075045.61722,1758075045.51002,0.0,0.0,0.0,2.86479,26.12688,-26.75713,10.65,-2.03,0.03,2.0
1758075045.63302,1758075045.52002,0.0,0.0,0.0,3.72423,42.57077,-30.82513,10.65,-2.03,0.03,2.0
1758075045.63675,1758075045.53002,0.0,0.0,0.0,3.20856,62.5097,-31.45539,10.92,-1.42,0.04,2.0
1758075045.65202,1758075045.54002,0.0,0.0,0.0,2.00535,71.21866,-28.41871,10.92,-1.42,0.04,2.0
1758075045.65596,1758075045.55002,0.0,0.0,0.0,0.51566,78.03686,-23.83505,9.87,-0.65,0.47,2.0
1758075045.67229,1758075045.56002,0.0,0.0,0.0,-0.68755,82.67782,-17.53251,9.87,-0.65,0.47,2.0
1758075045.67434,1758075045.57002,0.0,0.0,0.0,-2.46372,84.56858,-7.44845,8.74,-0.09,0.41,2.0
1758075045.68934,1758075045.58002,0.0,0.0,0.0,-4.18259,82.67782,-1.14592,7.7,0.46,0.73,2.0
1758075045.69136,1758075045.59002,0.0,0.0,0.0,-6.7609,81.5319,4.18259,7.7,0.46,0.73,2.0
1758075045.70734,1758075045.60002,0.0,0.0,0.0,-10.71431,83.02158,8.30789,8.09,1.26,1.18,2.0
1758075045.72303,1758075045.61002,0.0,0.0,0.0,-18.22006,82.21945,10.8289,8.09,1.26,1.18,2.0
1758075045.72506,1758075045.62002,0.0,0.0,0.0,-24.75178,80.04221,8.65166,8.34,1.96,1.31,2.0
1758075045.74006,1758075045.63002,0.0,0.0,0.0,-30.99702,76.94823,5.15662,8.34,1.96,1.31,2.0
1758075045.74368,1758075045.64002,0.0,0.0,0.0,-37.29956,74.42722,-3.38045,8.63,2.15,1.21,2.0
1758075045.75938,1758075045.65002,0.0,0.0,0.0,-44.46153,70.01544,-10.02676,8.91,1.65,1.02,2.0
1758075045.7607,1758075045.66002,0.0,0.0,0.0,-48.52953,65.08801,-16.55848,8.91,1.65,1.02,2.0
1758075045.7769,1758075045.67002,0.0,0.0,0.0,-51.73809,56.03527,-22.86102,8.67,0.87,0.98,2.0
1758075045.7939,1758075045.68002,0.0,0.0,0.0,-54.60288,37.58603,-29.62192,8.67,0.87,0.98,2.0
1758075045.80555,1758075045.69002,0.0,0.0,0.0,-55.6915,28.476,-31.2262,8.07,0.23,0.44,2.0
1758075045.80609,1758075045.70002,0.0,0.0,0.0,-56.78012,20.3973,-30.25217,8.07,0.23,0.44,2.0
1758075045.82505,1758075045.71002,0.0,0.0,0.0,-58.3844,13.46451,-26.24147,8.56,0.01,0.06,2.0
1758075045.82595,1758075045.72002,0.0,0.0,0.0,-60.50434,24.29341,-18.50654,10.57,0.01,0.88,2.0
1758075045.84143,1758075045.73002,0.0,0.0,0.0,-64.80153,26.06958,-15.35527,10.57,0.15,0.88,2.0
1758075045.84262,1758075045.74002,0.0,0.0,0.0,-66.06203,24.29341,-10.25595,10.7,0.21,0.65,2.0
1758075045.85747,1758075045.75002,0.0,0.0,0.0,-64.74423,25.15285,-3.83882,10.7,0.21,0.65,2.0
1758075045.86239,1758075045.76002,0.0,0.0,0.0,-61.65026,-25.09555,0.17189,8.71,0.16,0.25,2.0
1758075045.88199,1758075045.77002,0.0,0.0,0.0,-59.41573,-48.35764,0.97403,8.71,0.16,0.25,2.0
1758075045.8856,1758075045.78002,0.0,0.0,0.0,-55.7488,-59.98868,-0.11459,8.23,0.14,-1.32,2.0
1758075045.901,1758075045.79002,0.0,0.0,0.0,-53.68615,-58.21251,-3.32316,8.23,0.14,-1.32,2.0
1758075045.90264,1758075045.80002,0.0,0.0,0.0,-50.53488,-48.01387,-5.32851,10.95,-0.41,-1.19,2.0
1758075045.91742,1758075045.81002,0.0,0.0,0.0,-47.61279,-44.28964,-6.41713,11.22,-0.96,-1.11,2.0
1758075045.92242,1758075045.82002,0.0,0.0,0.0,-45.03448,-44.23235,-7.33386,11.22,-0.96,-1.11,2.0
1758075045.93929,1758075045.83002,0.0,0.0,0.0,-41.36755,-42.62806,-8.02141,11.17,-1.56,0.68,2.0
