timeStamp,timeStampAlign,roll,pitch,yaw,gyro_x,gyro_y,gyro_z,acc_x,acc_y,acc_z,flag_num
1758078250.10524,1758078236.69087,0.0,0.0,0.0,-16.90226,-26.47065,14.32395,13.29,1.73,2.15,2.0
1758078250.12282,1758078236.70087,0.0,0.0,0.0,-18.44924,-21.88699,12.2613,13.29,1.73,2.15,2.0
1758078250.12404,1758078236.71087,0.0,0.0,0.0,-17.6471,-16.272,8.02141,11.63,0.21,1.93,2.0
1758078250.13929,1758078236.72087,0.0,0.0,0.0,-14.78231,-13.86558,5.55769,9.79,-0.15,2.49,2.0
1758078250.14047,1758078236.73087,0.0,0.0,0.0,-10.54242,-11.80293,3.66693,9.79,-0.15,2.49,2.0
1758078250.15529,1758078236.74087,0.0,0.0,0.0,-5.4431,-8.02141,2.57831,9.28,0.25,2.68,2.0
1758078250.17161,1758078236.75087,0.0,0.0,0.0,3.60963,-1.08862,2.92208,9.28,0.25,2.68,2.0
1758078250.17295,1758078236.76087,0.0,0.0,0.0,9.62569,3.60963,3.83882,9.94,0.33,3.51,2.0
1758078250.18728,1758078236.77087,0.0,0.0,0.0,15.24068,7.33386,4.98473,9.94,0.33,3.51,2.0
1758078250.20329,1758078236.78087,0.0,0.0,0.0,19.59516,9.91217,6.24524,10.49,0.16,3.41,2.0
1758078250.20476,1758078236.79087,0.0,0.0,0.0,22.91831,13.00614,7.50575,10.55,0.3,2.64,2.0
1758078250.21928,1758078236.80087,0.0,0.0,0.0,23.26209,15.06879,8.0787,10.55,0.3,2.64,2.0
1758078250.22046,1758078236.81087,0.0,0.0,0.0,21.7724,18.50654,8.25059,10.39,0.87,1.88,2.0
1758078250.23574,1758078236.82087,0.0,0.0,0.0,16.90226,22.51724,8.0787,10.39,0.87,1.88,2.0
1758078250.25241,1758078236.83087,0.0,0.0,0.0,12.71966,28.24682,7.50575,10.04,1.69,1.66,2.0
1758078250.25329,1758078236.84087,0.0,0.0,0.0,7.44845,30.88243,6.41713,10.04,1.69,1.66,2.0
1758078250.26867,1758078236.85087,0.0,0.0,0.0,2.23454,31.91375,5.09932,9.46,2.24,1.54,2.0
1758078250.26951,1758078236.86087,0.0,0.0,0.0,-5.72958,33.74722,2.57831,9.46,2.24,1.54,2.0
1758078250.28554,1758078236.87087,0.0,0.0,0.0,-10.8289,35.00772,0.45837,9.15,2.36,1.33,2.0
1758078250.30129,1758078236.88087,0.0,0.0,0.0,-15.58445,34.72124,-1.48969,8.73,2.26,1.07,2.0
1758078250.30259,1758078236.89087,0.0,0.0,0.0,-19.53786,33.46074,-3.20856,8.73,2.26,1.07,2.0
1758078250.31758,1758078236.90087,0.0,0.0,0.0,-24.98096,31.56997,-5.61499,8.23,1.99,0.87,2.0
1758078250.33365,1758078236.91087,0.0,0.0,0.0,-28.24682,30.65324,-7.79223,8.23,1.99,0.87,2.0
1758078250.33461,1758078236.92087,0.0,0.0,0.0,-31.2262,28.01764,-10.19865,7.89,1.64,0.84,2.0
1758078250.34965,1758078236.93087,0.0,0.0,0.0,-33.23156,25.38203,-12.08941,7.89,1.64,0.84,2.0
1758078250.3507,1758078236.94087,0.0,0.0,0.0,-36.26823,21.08485,-14.66772,7.7,1.45,0.97,2.0
1758078250.36569,1758078236.95087,0.0,0.0,0.0,-37.81522,17.6471,-15.24068,7.98,1.4,1.29,2.0
1758078250.38148,1758078236.96087,0.0,0.0,0.0,-39.01843,13.86558,-15.12609,7.98,1.4,1.29,2.0
1758078250.38261,1758078236.97087,0.0,0.0,0.0,-39.99245,10.65701,-14.72501,8.42,1.37,1.45,2.0
1758078250.39768,1758078236.98087,0.0,0.0,0.0,-40.68,4.58366,-13.34992,8.42,1.37,1.45,2.0
1758078250.41361,1758078236.99087,0.0,0.0,0.0,-40.68,1.48969,-11.97482,8.63,1.21,1.41,2.0
1758078250.41457,1758078237.00087,0.0,0.0,0.0,-40.68,-1.3178,-10.8862,8.63,1.21,1.41,2.0
1758078250.4295,1758078237.01087,0.0,0.0,0.0,-40.50812,-4.29718,-10.19865,8.73,0.83,1.33,2.0
1758078250.43053,1758078237.02087,0.0,0.0,0.0,-40.04975,-7.44845,-9.74028,8.79,0.27,1.12,2.0
1758078250.4464,1758078237.03087,0.0,0.0,0.0,-39.4768,-9.22462,-9.85487,8.79,0.27,1.12,2.0
1758078250.46239,1758078237.04087,0.0,0.0,0.0,-38.78925,-10.37054,-9.91217,9.16,-0.21,1.08,2.0
1758078250.46357,1758078237.05087,0.0,0.0,0.0,-38.1017,-10.19865,-9.62569,9.16,-0.21,1.08,2.0
1758078250.47876,1758078237.06087,0.0,0.0,0.0,-37.64333,-7.44845,-9.22462,9.78,-0.24,0.88,2.0
1758078250.47962,1758078237.07087,0.0,0.0,0.0,-37.24226,-3.03668,-8.65166,9.78,-0.24,0.88,2.0
1758078250.49543,1758078237.08087,0.0,0.0,0.0,-37.12767,2.6929,-7.67763,10.21,0.13,0.77,2.0
1758078250.51168,1758078237.09087,0.0,0.0,0.0,-37.24226,11.97482,-5.84417,10.21,0.13,0.67,2.0
1758078250.51262,1758078237.10087,0.0,0.0,0.0,-37.92981,16.90226,-4.69825,10.08,0.51,0.67,2.0
1758078250.52766,1758078237.11087,0.0,0.0,0.0,-39.07573,20.62648,-3.60963,9.81,0.62,0.67,2.0
1758078250.54354,1758078237.12087,0.0,0.0,0.0,-40.62271,22.51724,-3.55234,9.81,0.62,0.67,2.0
1758078250.54464,1758078237.13087,0.0,0.0,0.0,-44.00316,19.76705,-4.0107,9.53,0.68,0.59,2.0
1758078250.55973,1758078237.14087,0.0,0.0,0.0,-46.98254,15.87093,-4.46907,9.53,0.68,0.59,2.0
1758078250.56105,1758078237.15087,0.0,0.0,0.0,-50.64947,11.28727,-5.55769,9.28,1.04,0.41,2.0
1758078250.57569,1758078237.16087,0.0,0.0,0.0,-54.3737,6.18794,-6.7609,9.28,1.04,0.41,2.0
1758078250.59147,1758078237.17087,0.0,0.0,0.0,-60.04598,-5.84417,-9.11003,8.86,1.48,0.15,2.0
1758078250.59266,1758078237.18087,0.0,0.0,0.0,-63.31184,-18.90761,-9.68299,8.17,1.68,-0.35,2.0
1758078250.60771,1758078237.19087,0.0,0.0,0.0,-65.89015,-29.8511,-10.71431,8.17,1.68,-0.35,2.0
1758078250.62349,1758078237.20087,0.0,0.0,0.0,-68.29657,-36.21093,-11.63104,8.85,1.33,-1.18,2.0
1758078250.6247,1758078237.21087,0.0,0.0,0.0,-70.30193,-42.1124,-11.17268,8.85,1.33,-1.18,2.0
1758078250.63948,1758078237.22087,0.0,0.0,0.0,-72.47916,-39.19032,-9.96947,10.44,0.88,-0.97,2.0
1758078250.6407,1758078237.23087,0.0,0.0,0.0,-75.17207,-34.60666,-14.61043,10.44,0.88,-0.97,2.0
1758078250.65562,1758078237.24087,0.0,0.0,0.0,-80.1568,-31.2262,-18.90761,11.82,0.9,-0.2,2.0
1758078250.67182,1758078237.25087,0.0,0.0,0.0,-82.33404,-32.08564,-20.85567,11.24,1.59,-0.29,2.0
1758078250.67317,1758078237.26087,0.0,0.0,0.0,-83.76643,-31.56997,-21.02755,11.24,1.59,-0.29,2.0
1758078250.68784,1758078237.27087,0.0,0.0,0.0,-83.82372,-24.00693,-19.76705,11.56,1.62,-0.43,2.0
1758078250.70353,1758078237.28087,0.0,0.0,0.0,-80.61517,-11.80293,-16.04282,11.56,1.62,-0.43,2.0
1758078250.70471,1758078237.29087,0.0,0.0,0.0,-76.1461,-7.33386,-13.17803,12.1,0.07,-0.19,2.0
1758078250.71948,1758078237.30087,0.0,0.0,0.0,-70.76029,-5.50039,-10.94349,12.1,0.07,-0.19,2.0
1758078250.72074,1758078237.31087,0.0,0.0,0.0,-64.85883,-5.32851,-9.5684,12.34,-1.9,0.68,2.0
1758078250.73587,1758078237.32087,0.0,0.0,0.0,-55.51962,-12.83425,-8.47978,11.9,-2.87,1.21,2.0
1758078250.75184,1758078237.33087,0.0,0.0,0.0,-49.90463,-19.76705,-9.5684,11.9,-2.87,1.21,2.0
1758078250.75359,1758078237.34087,0.0,0.0,0.0,-44.23235,-24.75178,-12.08941,12.84,-2.66,2.25,2.0
1758078250.76881,1758078237.35087,0.0,0.0,0.0,-38.61736,-30.13758,-14.9542,12.84,-2.66,2.25,2.0
1758078250.7706,1758078237.36087,0.0,0.0,0.0,-31.85646,-33.9764,-17.01685,14.71,-1.42,3.69,2.0
1758078250.78787,1758078237.37087,0.0,0.0,0.0,-30.25217,-31.62727,-15.87093,14.71,-1.42,3.69,2.0
1758078250.80355,1758078237.38087,0.0,0.0,0.0,-31.91375,-27.73116,-13.5791,13.36,1.18,4.67,2.0
1758078250.80476,1758078237.39087,0.0,0.0,0.0,-37.12767,-26.35606,-11.51645,13.36,1.18,4.67,2.0
1758078250.81957,1758078237.40087,0.0,0.0,0.0,-49.96192,-28.07493,-10.54242,10.17,2.46,4.63,2.0
1758078250.82078,1758078237.41087,0.0,0.0,0.0,-60.27517,-27.10091,-10.65701,9.29,2.54,4.23,2.0
1758078250.83593,1758078237.42087,0.0,0.0,0.0,-71.16136,-25.26744,-11.45916,9.29,2.54,4.23,2.0
1758078250.85191,1758078237.43087,0.0,0.0,0.0,-81.36001,-24.98096,-12.83425,9.92,2.55,3.44,2.0
1758078250.85277,1758078237.44087,0.0,0.0,0.0,-95.22559,-22.86102,-13.46451,9.92,2.55,3.44,2.0
1758078250.86763,1758078237.45087,0.0,0.0,0.0,-101.92919,-19.19409,-13.69369,10.56,2.26,2.44,2.0
1758078250.88369,1758078237.46087,0.0,0.0,0.0,-106.34097,-14.03747,-13.75099,10.56,2.26,2.44,2.0
1758078250.88479,1758078237.47087,0.0,0.0,0.0,-108.46091,-8.70896,-14.03747,10.52,1.39,1.59,2.0
1758078250.89992,1758078237.48087,0.0,0.0,0.0,-107.25771,-6.47442,-14.09476,9.39,0.41,1.51,2.0
1758078250.90127,1758078237.49087,0.0,0.0,0.0,-104.6794,-3.89611,-13.86558,9.39,0.41,1.51,2.0
1758078250.91591,1758078237.50087,0.0,0.0,0.0,-100.43951,-3.32316,-13.23533,8.67,-0.42,1.19,2.0
1758078250.93191,1758078237.51087,0.0,0.0,0.0,-92.81918,-3.60963,-11.80293,8.67,-0.42,1.19,2.0
1758078250.93282,1758078237.52087,0.0,0.0,0.0,-87.54795,-3.89611,-10.8289,8.06,-1.41,0.59,2.0
1758078250.9479,1758078237.53087,0.0,0.0,0.0,-82.50593,-5.15662,-9.5684,8.06,-1.41,0.59,2.0
1758078250.96363,1758078237.54087,0.0,0.0,0.0,-77.57849,-5.78687,-8.59437,7.57,-2.33,0.25,2.0
1758078250.96434,1758078237.55087,0.0,0.0,0.0,-69.78626,-4.87014,-7.33386,7.51,-2.69,0.39,2.0
1758078250.98059,1758078237.56087,0.0,0.0,0.0,-64.80153,-3.83882,-6.47442,7.51,-2.69,0.39,2.0
1758078250.98241,1758078237.57087,0.0,0.0,0.0,-59.87409,-2.63561,-5.61499,7.66,-2.32,0.55,2.0
1758078250.99784,1758078237.58087,0.0,0.0,0.0,-55.6342,-1.60428,-4.98473,7.66,-2.32,0.55,2.0
1758078251.0137,1758078237.59087,0.0,0.0,0.0,-50.2484,0.51566,-4.58366,8.28,-1.47,1.04,2.0
1758078251.01437,1758078237.60087,0.0,0.0,0.0,-47.03984,3.20856,-3.95341,8.28,-1.47,1.04,2.0
1758078251.03074,1758078237.61087,0.0,0.0,0.0,-44.23235,6.99009,-3.60963,9.12,-0.75,0.92,2.0
1758078251.0328,1758078237.62087,0.0,0.0,0.0,-42.28429,10.8289,-3.49504,9.12,-0.75,0.92,2.0
1758078251.04787,1758078237.63087,0.0,0.0,0.0,-40.85189,16.95955,-3.83882,9.57,-0.25,1.19,2.0
1758078251.06393,1758078237.64087,0.0,0.0,0.0,-41.25296,20.85567,-4.35448,9.46,0.14,0.97,2.0
1758078251.06431,1758078237.65087,0.0,0.0,0.0,-42.34158,24.00693,-5.15662,9.46,0.14,0.97,2.0
1758078251.08046,1758078237.66087,0.0,0.0,0.0,-45.20637,28.476,-6.58902,9.46,0.44,0.96,2.0
1758078251.08246,1758078237.67087,0.0,0.0,0.0,-47.38361,30.19488,-7.62034,9.46,0.44,0.96,2.0
1758078251.09789,1758078237.68087,0.0,0.0,0.0,-49.84733,30.53865,-8.65166,9.8,0.53,0.78,2.0
1758078251.11397,1758078237.69087,0.0,0.0,0.0,-52.02457,29.96569,-9.91217,9.8,0.53,0.78,2.0
1758078251.11437,1758078237.70087,0.0,0.0,0.0,-54.431,28.93437,-11.57375,10.12,0.48,0.63,2.0
1758078251.13079,1758078237.71087,0.0,0.0,0.0,-55.11855,27.78845,-12.49048,10.06,0.33,0.37,2.0
1758078251.13169,1758078237.72087,0.0,0.0,0.0,-55.11855,26.35606,-13.5218,10.06,0.33,0.37,2.0
1758078251.14693,1758078237.73087,0.0,0.0,0.0,-54.25911,25.21014,-14.32395,9.71,0.03,0.18,2.0
1758078251.16274,1758078237.74087,0.0,0.0,0.0,-51.50891,24.57989,-15.0115,9.71,0.03,0.18,2.0
1758078251.16326,1758078237.75087,0.0,0.0,0.0,-48.70141,25.09555,-15.64175,9.56,-0.42,0.06,2.0
1758078251.17889,1758078237.76087,0.0,0.0,0.0,-45.20637,24.29341,-15.75634,9.56,-0.42,0.06,2.0
1758078251.17991,1758078237.77087,0.0,0.0,0.0,-41.13837,24.23611,-16.10011,9.31,-0.79,0.2,2.0
1758078251.19659,1758078237.78087,0.0,0.0,0.0,-34.37747,25.26744,-16.272,9.24,-1.11,0.27,2.0
1758078251.21282,1758078237.79087,0.0,0.0,0.0,-28.93437,24.80907,-15.41257,9.24,-1.11,0.27,2.0
1758078251.21458,1758078237.80087,0.0,0.0,0.0,-23.37668,22.91831,-14.38124,9.0,-1.48,0.53,2.0
1758078251.23091,1758078237.81087,0.0,0.0,0.0,-17.58981,20.62648,-12.54778,9.0,-1.48,0.53,2.0
1758078251.23259,1758078237.82087,0.0,0.0,0.0,-9.4538,16.84496,-9.11003,8.95,-1.75,0.51,2.0
1758078251.24802,1758078237.83087,0.0,0.0,0.0,-4.64096,14.66772,-6.13065,8.95,-1.75,0.51,2.0
1758078251.2492,1758078237.84087,0.0,0.0,0.0,-0.40107,13.40721,-3.38045,9.07,-1.78,0.24,2.0
1758078251.26434,1758078237.85087,0.0,0.0,0.0,4.92744,11.51645,-0.17189,9.07,-1.78,0.24,2.0
1758078251.28,1758078237.86087,0.0,0.0,0.0,6.70361,4.29718,0.80214,9.25,-1.49,-0.07,2.0
1758078251.28099,1758078237.87087,0.0,0.0,0.0,6.53172,1.60428,-1.3751,9.22,-0.78,0.22,2.0
1758078251.29707,1758078237.88087,0.0,0.0,0.0,7.33386,2.46372,-2.40642,9.22,-0.78,0.22,2.0
1758078251.29779,1758078237.89087,0.0,0.0,0.0,6.07335,15.87093,-2.86479,10.53,-0.37,-0.2,2.0
1758078251.31334,1758078237.90087,0.0,0.0,0.0,4.98473,23.72045,-4.69825,10.53,-0.37,-0.2,2.0
1758078251.32907,1758078237.91087,0.0,0.0,0.0,7.21927,15.12609,-6.99009,10.82,-0.29,0.15,2.0
1758078251.32998,1758078237.92087,0.0,0.0,0.0,8.47978,-16.50119,-7.04738,10.82,-0.29,0.15,2.0
1758078251.34507,1758078237.93087,0.0,0.0,0.0,11.97482,-31.16891,-3.20856,7.6,-0.5,0.01,2.0
1758078251.36097,1758078237.94087,0.0,0.0,0.0,11.34457,-24.12152,-1.03132,11.27,-0.94,-1.17,2.0
1758078251.36279,1758078237.95087,0.0,0.0,0.0,11.91752,-16.38659,0.51566,11.27,-0.94,-1.17,2.0
1758078251.3779,1758078237.96087,0.0,0.0,0.0,12.83425,-12.89155,1.66158,11.08,-1.28,-1.93,2.0
1758078251.37968,1758078237.97087,0.0,0.0,0.0,12.60507,-9.62569,1.3178,11.08,-1.28,-1.93,2.0
1758078251.39444,1758078237.98087,0.0,0.0,0.0,11.91752,-8.42248,0.51566,11.34,-1.37,0.75,2.0
1758078251.41011,1758078237.99087,0.0,0.0,0.0,11.17268,-9.85487,0.0573,11.34,-1.37,0.75,2.0
1758078251.41107,1758078238.00087,0.0,0.0,0.0,9.91217,-13.5218,0.0,12.47,-0.89,1.62,2.0
1758078251.42609,1758078238.01087,0.0,0.0,0.0,5.95876,-25.7831,2.92208,12.46,-0.02,3.35,2.0
1758078251.42784,1758078238.02087,0.0,0.0,0.0,2.40642,-39.4768,6.35983,12.46,-0.02,3.35,2.0
1758078251.44444,1758078238.03087,0.0,0.0,0.0,-0.45837,-53.05589,11.86023,12.31,0.81,4.69,2.0
1758078251.46012,1758078238.04087,0.0,0.0,0.0,-4.52637,-62.16592,17.13144,12.31,0.81,4.69,2.0
1758078251.46147,1758078238.05087,0.0,0.0,0.0,-9.39651,-63.59832,22.86102,13.58,1.67,4.37,2.0
1758078251.47585,1758078238.06087,0.0,0.0,0.0,-11.91752,-55.92068,23.37668,13.58,1.67,4.37,2.0
1758078251.49227,1758078238.07087,0.0,0.0,0.0,-13.12073,-49.33167,22.34536,13.0,1.77,3.4,2.0
1758078251.49336,1758078238.08087,0.0,0.0,0.0,-12.204,-42.34158,19.19409,13.0,1.77,3.4,2.0
1758078251.50815,1758078238.09087,0.0,0.0,0.0,-9.28192,-38.78925,16.67307,10.95,0.91,3.36,2.0
1758078251.50942,1758078238.10087,0.0,0.0,0.0,-4.64096,-35.98175,14.15206,10.26,0.13,3.75,2.0
1758078251.52443,1758078238.11087,0.0,0.0,0.0,1.60428,-32.83048,11.91752,10.26,0.13,3.75,2.0
1758078251.54096,1758078238.12087,0.0,0.0,0.0,11.74564,-24.12152,9.68299,11.16,0.09,3.94,2.0
1758078251.54234,1758078238.13087,0.0,0.0,0.0,17.99088,-17.30333,8.76626,11.16,0.09,3.94,2.0
1758078251.55856,1758078238.14087,0.0,0.0,0.0,23.26209,-11.34457,8.30789,12.09,0.54,3.72,2.0
1758078251.5613,1758078238.15087,0.0,0.0,0.0,26.35606,-5.61499,8.42248,12.09,0.54,3.72,2.0
1758078251.57807,1758078238.16087,0.0,0.0,0.0,27.04361,3.20856,8.59437,11.46,1.03,2.76,2.0
1758078251.5791,1758078238.17087,0.0,0.0,0.0,25.09555,8.93814,8.59437,10.55,1.21,1.95,2.0
1758078251.59422,1758078238.18087,0.0,0.0,0.0,21.88699,15.58445,8.42248,10.55,1.21,1.95,2.0
1758078251.61022,1758078238.19087,0.0,0.0,0.0,17.93358,20.74107,8.30789,9.71,1.25,1.38,2.0
1758078251.61228,1758078238.20087,0.0,0.0,0.0,10.59972,27.33009,7.04738,9.71,1.25,1.38,2.0
1758078251.62695,1758078238.21087,0.0,0.0,0.0,4.64096,31.39809,5.21392,9.05,1.5,1.31,2.0
1758078251.62815,1758078238.22087,0.0,0.0,0.0,-1.03132,33.86181,3.38045,9.05,1.5,1.31,2.0
1758078251.64456,1758078238.23087,0.0,0.0,0.0,-7.16197,35.58068,1.43239,8.45,1.85,1.16,2.0
1758078251.65996,1758078238.24087,0.0,0.0,0.0,-16.10011,36.26823,-1.94806,7.93,2.19,1.18,2.0
1758078251.66117,1758078238.25087,0.0,0.0,0.0,-22.23076,36.03905,-3.55234,7.93,2.19,1.18,2.0
1758078251.67632,1758078238.26087,0.0,0.0,0.0,-27.78845,36.61201,-5.84417,7.61,2.46,1.12,2.0
1758078251.69225,1758078238.27087,0.0,0.0,0.0,-35.40879,35.69527,-9.05273,7.61,2.46,1.12,2.0
1758078251.69346,1758078238.28087,0.0,0.0,0.0,-39.70598,32.6013,-10.71431,7.4,2.52,1.21,2.0
1758078251.70825,1758078238.29087,0.0,0.0,0.0,-43.4875,29.9084,-12.204,7.4,2.52,1.21,2.0
1758078251.70918,1758078238.30087,0.0,0.0,0.0,-46.75336,27.38738,-13.46451,7.79,2.37,1.57,2.0
1758078251.72469,1758078238.31087,0.0,0.0,0.0,-50.64947,21.31403,-15.64175,7.79,2.37,1.57,2.0
1758078251.74027,1758078238.32087,0.0,0.0,0.0,-52.65482,15.75634,-16.90226,8.39,1.89,1.75,2.0
1758078251.74121,1758078238.33087,0.0,0.0,0.0,-54.3164,10.59972,-17.76169,8.67,1.45,1.82,2.0
1758078251.75627,1758078238.34087,0.0,0.0,0.0,-55.40502,5.84417,-18.10547,8.67,1.45,1.82,2.0
1758078251.77198,1758078238.35087,0.0,0.0,0.0,-55.86338,-0.80214,-17.87628,8.83,1.05,1.53,2.0
1758078251.77359,1758078238.36087,0.0,0.0,0.0,-55.06125,-4.81285,-17.18874,8.83,1.05,1.53,2.0
1758078251.78829,1758078238.37087,0.0,0.0,0.0,-54.25911,-7.62034,-16.84496,8.89,0.59,1.23,2.0
1758078251.78956,1758078238.38087,0.0,0.0,0.0,-52.71212,-10.19865,-16.10011,8.89,0.59,1.23,2.0
1758078251.80402,1758078238.39087,0.0,0.0,0.0,-49.67545,-14.15206,-15.29797,9.1,0.14,1.16,2.0
1758078251.82105,1758078238.40087,0.0,0.0,0.0,-47.61279,-15.41257,-14.15206,9.43,-0.22,1.02,2.0
1758078251.82378,1758078238.41087,0.0,0.0,0.0,-45.37826,-15.24068,-13.17803,9.43,-0.22,1.02,2.0
1758078251.839,1758078238.42087,0.0,0.0,0.0,-43.31561,-14.49583,-11.91752,9.81,-0.5,1.01,2.0
1758078251.84102,1758078238.43087,0.0,0.0,0.0,-41.02378,-8.65166,-10.02676,9.81,-0.5,1.01,2.0
1758078251.85638,1758078238.44087,0.0,0.0,0.0,-39.70598,-2.63561,-8.25059,10.15,-0.6,0.93,2.0
1758078251.87209,1758078238.45087,0.0,0.0,0.0,-38.73195,3.20856,-6.87549,10.15,-0.6,0.93,2.0
1758078251.87327,1758078238.46087,0.0,0.0,0.0,-37.92981,8.25059,-4.92744,10.04,-0.49,0.94,2.0
1758078251.88839,1758078238.47087,0.0,0.0,0.0,-37.81522,14.15206,-3.89611,9.74,-0.23,0.86,2.0
1758078251.88928,1758078238.48087,0.0,0.0,0.0,-37.98711,16.90226,-3.49504,9.74,-0.23,0.86,2.0
1758078251.90404,1758078238.49087,0.0,0.0,0.0,-39.07573,19.19409,-3.09397,9.61,0.13,0.79,2.0
1758078251.92011,1758078238.50087,0.0,0.0,0.0,-40.39353,15.75634,-3.55234,9.61,0.13,0.79,2.0
1758078251.92121,1758078238.51087,0.0,0.0,0.0,-42.51347,10.48513,-5.32851,9.09,0.7,0.78,2.0
1758078251.93712,1758078238.52087,0.0,0.0,0.0,-44.40423,3.72423,-6.7609,9.09,0.7,0.78,2.0
1758078251.93829,1758078238.53087,0.0,0.0,0.0,-46.52417,-4.52637,-7.73493,8.67,1.33,0.68,2.0
1758078251.95443,1758078238.54087,0.0,0.0,0.0,-50.76406,-18.73572,-9.28192,8.67,1.33,0.06,2.0
1758078251.97014,1758078238.55087,0.0,0.0,0.0,-54.25911,-27.50197,-10.31324,8.46,1.63,0.06,2.0
1758078251.97229,1758078238.56087,0.0,0.0,0.0,-57.81144,-33.17426,-11.91752,8.88,1.42,-0.51,2.0
1758078251.9871,1758078238.57087,0.0,0.0,0.0,-60.96271,-40.62271,-14.43854,8.88,1.42,-0.51,2.0
1758078251.98831,1758078238.58087,0.0,0.0,0.0,-64.51505,-51.5662,-17.81899,9.2,1.05,-0.68,2.0
1758078252.0044,1758078238.59087,0.0,0.0,0.0,-65.14531,-50.1911,-18.27736,9.2,1.05,-0.68,2.0
1758078252.02016,1758078238.60087,0.0,0.0,0.0,-65.89015,-46.1804,-17.81899,10.6,0.47,-0.88,2.0
1758078252.02134,1758078238.61087,0.0,0.0,0.0,-67.66632,-43.37291,-16.55848,10.6,0.47,-0.88,2.0
1758078252.03609,1758078238.62087,0.0,0.0,0.0,-68.01009,-49.67545,-11.97482,10.87,0.16,-0.75,2.0
1758078252.05214,1758078238.63087,0.0,0.0,0.0,-69.67168,-56.55093,-10.08406,10.11,-0.01,-1.02,2.0
1758078252.05379,1758078238.64087,0.0,0.0,0.0,-71.04677,-45.37826,-8.70896,10.11,-0.01,-1.02,2.0
1758078252.06871,1758078238.65087,0.0,0.0,0.0,-71.16136,-27.96034,-7.16197,12.95,0.0,-1.16,2.0
1758078252.06936,1758078238.66087,0.0,0.0,0.0,-68.64035,-14.66772,-5.78687,12.95,0.0,-1.16,2.0
1758078252.08436,1758078238.67087,0.0,0.0,0.0,-65.03072,-12.2613,-5.61499,12.89,-0.82,1.02,2.0
1758078252.10047,1758078238.68087,0.0,0.0,0.0,-60.44705,-14.15206,-5.61499,12.89,-0.82,1.02,2.0
1758078252.10779,1758078238.69087,0.0,0.0,0.0,-52.36834,-20.45459,-6.58902,12.97,-1.26,2.24,2.0
1758078252.10826,1758078238.70087,0.0,0.0,0.0,-46.46688,-31.45539,-9.22462,13.23,-1.35,1.96,2.0
1758078252.1244,1758078238.71087,0.0,0.0,0.0,-39.70598,-32.37212,-11.86023,13.23,-1.35,1.96,2.0
1758078252.14017,1758078238.72087,0.0,0.0,0.0,-32.37212,-31.62727,-14.03747,14.54,-1.14,2.57,2.0
1758078252.14166,1758078238.73087,0.0,0.0,0.0,-22.97561,-32.14294,-14.9542,14.54,-1.14,2.57,2.0
1758078252.15644,1758078238.74086,0.0,0.0,0.0,-19.99623,-28.64789,-14.03747,12.53,0.0,3.04,2.0
1758078252.17231,1758078238.75086,0.0,0.0,0.0,-20.34,-22.05888,-11.57375,12.53,0.0,3.04,2.0
1758078252.17372,1758078238.76086,0.0,0.0,0.0,-24.17882,-17.87628,-8.88085,9.99,1.49,3.1,2.0
1758078252.1885,1758078238.77086,0.0,0.0,0.0,-35.75257,-16.73037,-5.09932,8.32,1.49,3.67,2.0
1758078252.18938,1758078238.78086,0.0,0.0,0.0,-46.52417,-16.21471,-3.32316,8.32,1.95,3.67,2.0
1758078252.20545,1758078238.79086,0.0,0.0,0.0,-57.86874,-15.0115,-2.6929,9.45,2.3,4.01,2.0
1758078252.22198,1758078238.80086,0.0,0.0,0.0,-69.15601,-13.46451,-2.46372,9.45,2.3,4.01,2.0
1758078252.22318,1758078238.81086,0.0,0.0,0.0,-82.90699,-11.80293,-3.55234,10.68,2.62,2.96,2.0
1758078252.23853,1758078238.82086,0.0,0.0,0.0,-89.95438,-10.02676,-4.98473,10.68,2.62,2.96,2.0
1758078252.23989,1758078238.83086,0.0,0.0,0.0,-94.88181,-6.58902,-6.47442,10.76,2.44,2.12,2.0
1758078252.25426,1758078238.84086,0.0,0.0,0.0,-97.8039,-1.14592,-7.73493,10.76,2.44,2.12,2.0
1758078252.27024,1758078238.85086,0.0,0.0,0.0,-98.66334,5.4431,-9.28192,10.56,1.63,1.62,2.0
1758078252.27142,1758078238.86086,0.0,0.0,0.0,-97.46013,8.02141,-9.85487,9.86,0.62,1.4,2.0
1758078252.28651,1758078238.87086,0.0,0.0,0.0,-94.53805,8.76626,-9.74028,9.86,0.62,1.4,2.0
1758078252.28852,1758078238.88086,0.0,0.0,0.0,-91.15759,10.08406,-8.88085,9.61,-0.28,1.07,2.0
1758078252.30426,1758078238.89086,0.0,0.0,0.0,-85.02695,11.91752,-7.73493,9.61,-0.28,1.07,2.0
1758078252.32048,1758078238.90086,0.0,0.0,0.0,-81.18813,12.43318,-6.47442,9.28,-0.97,0.44,2.0
1758078252.32144,1758078238.91086,0.0,0.0,0.0,-77.23472,11.86023,-5.21392,9.28,-0.97,0.44,2.0
1758078252.33729,1758078238.92086,0.0,0.0,0.0,-71.73432,9.62569,-4.23989,8.38,-1.35,0.08,2.0
1758078252.33844,1758078238.93086,0.0,0.0,0.0,-68.75494,8.88085,-4.23989,7.89,-1.4,0.03,2.0
1758078252.35424,1758078238.94086,0.0,0.0,0.0,-66.06203,8.88085,-4.35448,7.89,-1.4,0.03,2.0
1758078252.3703,1758078238.95086,0.0,0.0,0.0,-63.88479,11.17268,-4.23989,7.78,-0.98,-0.14,2.0
1758078252.37147,1758078238.96086,0.0,0.0,0.0,-60.73353,12.54778,-4.23989,7.78,-0.98,-0.14,2.0
1758078252.38726,1758078238.97086,0.0,0.0,0.0,-58.49899,13.17803,-3.72423,7.8,-0.53,0.14,2.0
1758078252.38876,1758078238.98086,0.0,0.0,0.0,-56.55093,13.86558,-3.26586,7.8,-0.53,0.14,2.0
1758078252.40461,1758078238.99086,0.0,0.0,0.0,-54.88936,15.12609,-2.97938,8.54,-0.36,0.08,2.0
1758078252.42045,1758078239.00086,0.0,0.0,0.0,-53.17049,17.53251,-3.20856,9.14,-0.45,0.22,2.0
1758078252.4215,1758078239.01086,0.0,0.0,0.0,-52.76942,18.90761,-3.83882,9.14,-0.45,0.22,2.0
1758078252.43741,1758078239.02086,0.0,0.0,0.0,-52.54023,20.51189,-4.58366,9.26,-0.24,0.46,2.0
1758078252.43854,1758078239.03086,0.0,0.0,0.0,-52.71212,21.88699,-5.55769,9.26,-0.24,0.46,2.0
1758078252.45466,1758078239.04086,0.0,0.0,0.0,-53.05589,23.89234,-6.99009,9.19,0.1,0.39,2.0
1758078252.47038,1758078239.05086,0.0,0.0,0.0,-52.9986,24.80907,-7.84952,9.19,0.1,0.39,2.0
1758078252.47315,1758078239.06086,0.0,0.0,0.0,-52.71212,25.43933,-8.70896,9.28,0.24,0.28,2.0
1758078252.4887,1758078239.07086,0.0,0.0,0.0,-52.02457,25.38203,-9.5684,9.28,0.24,0.28,2.0
1758078252.48987,1758078239.08086,0.0,0.0,0.0,-49.15978,25.15285,-11.00079,9.5,-0.01,0.33,2.0
1758078252.50437,1758078239.09086,0.0,0.0,0.0,-46.40959,24.98096,-11.80293,9.7,-0.52,0.47,2.0
1758078252.5204,1758078239.10086,0.0,0.0,0.0,-43.37291,24.5226,-12.43318,9.7,-0.52,0.47,2.0
1758078252.52327,1758078239.11086,0.0,0.0,0.0,-38.27358,25.49662,-13.17803,9.6,-0.92,0.6,2.0
1758078252.53862,1758078239.12086,0.0,0.0,0.0,-34.95043,27.78845,-13.5218,9.6,-0.92,0.6,2.0
1758078252.53959,1758078239.13086,0.0,0.0,0.0,-31.56997,28.70519,-13.98017,9.26,-1.08,0.63,2.0
1758078252.55442,1758078239.14086,0.0,0.0,0.0,-28.36141,27.04361,-14.20935,9.26,-1.08,0.63,2.0
1758078252.5704,1758078239.15086,0.0,0.0,0.0,-23.49127,22.74642,-14.32395,8.65,-1.09,0.32,2.0
1758078252.5735,1758078239.16086,0.0,0.0,0.0,-20.11082,18.27736,-14.03747,8.8,-1.14,-0.39,2.0
1758078252.58862,1758078239.17086,0.0,0.0,0.0,-15.92823,10.65701,-13.23533,8.8,-1.14,-0.39,2.0
1758078252.59068,1758078239.18086,0.0,0.0,0.0,-11.17268,3.26586,-12.2613,9.19,-1.39,-0.93,2.0
1758078252.60571,1758078239.19086,0.0,0.0,0.0,-2.92208,-6.7609,-10.48513,9.19,-1.39,-0.93,2.0
1758078252.62167,1758078239.20086,0.0,0.0,0.0,3.20856,-12.08941,-8.30789,9.8,-1.87,-1.04,2.0
1758078252.62259,1758078239.21086,0.0,0.0,0.0,9.05273,-15.46986,-5.61499,9.8,-1.87,-1.04,2.0
1758078252.63744,1758078239.22086,0.0,0.0,0.0,14.83961,-19.13679,-2.57831,10.09,-2.38,-0.94,2.0
1758078252.63863,1758078239.23086,0.0,0.0,0.0,23.54857,-23.26209,1.3178,10.13,-2.77,-0.85,2.0
1758078252.65453,1758078239.24086,0.0,0.0,0.0,27.84575,-26.47065,2.63561,10.13,-2.77,-0.85,2.0
1758078252.67182,1758078239.25086,0.0,0.0,0.0,30.88243,-28.87707,2.57831,10.49,-2.44,-0.61,2.0
1758078252.67291,1758078239.26086,0.0,0.0,0.0,32.48671,-30.76784,0.57296,10.49,-2.44,-0.61,2.0
1758078252.68788,1758078239.27086,0.0,0.0,0.0,34.14828,-27.04361,-1.43239,11.6,-1.11,0.19,2.0
1758078252.68893,1758078239.28086,0.0,0.0,0.0,33.34615,-21.14215,-1.14592,11.6,-1.11,0.19,2.0
1758078252.70477,1758078239.29086,0.0,0.0,0.0,30.76784,-15.92823,-1.08862,14.07,0.47,2.13,2.0
1758078252.72225,1758078239.30086,0.0,0.0,0.0,26.87172,-13.80828,-0.22918,14.07,0.47,2.13,2.0
1758078252.72376,1758078239.31086,0.0,0.0,0.0,20.45459,-22.34536,0.68755,14.82,2.02,4.41,2.0
1758078252.73846,1758078239.32086,0.0,0.0,0.0,17.01685,-55.6915,4.46907,12.09,2.26,4.84,2.0
1758078252.7408,1758078239.33086,0.0,0.0,0.0,14.66772,-75.28666,9.85487,12.09,2.26,4.84,2.0
1758078252.75654,1758078239.34086,0.0,0.0,0.0,11.45916,-61.02001,13.98017,13.75,1.13,2.24,2.0
1758078252.77248,1758078239.35086,0.0,0.0,0.0,9.62569,-45.60744,14.38124,13.75,1.13,2.24,2.0
1758078252.77369,1758078239.36086,0.0,0.0,0.0,8.76626,-39.99245,13.5218,13.38,0.36,1.96,2.0
1758078252.7888,1758078239.37086,0.0,0.0,0.0,9.5684,-37.52874,12.77696,13.38,0.36,1.96,2.0
1758078252.79052,1758078239.38086,0.0,0.0,0.0,12.204,-30.13758,11.74564,10.19,-0.02,3.82,2.0
1758078252.80579,1758078239.39086,0.0,0.0,0.0,15.98552,-25.72581,11.17268,10.36,0.09,4.15,2.0
1758078252.82173,1758078239.40086,0.0,0.0,0.0,21.94428,-20.79837,10.8862,10.36,0.09,4.15,2.0
1758078252.82273,1758078239.41086,0.0,0.0,0.0,28.30412,-15.58445,10.8289,10.97,0.52,3.61,2.0
1758078252.83805,1758078239.42086,0.0,0.0,0.0,36.95578,-6.24524,10.71431,10.97,0.52,3.61,2.0
1758078252.8387,1758078239.43086,0.0,0.0,0.0,41.31026,-1.08862,10.8289,11.24,0.74,3.28,2.0
1758078252.85453,1758078239.44086,0.0,0.0,0.0,43.94586,3.83882,10.48513,11.24,0.74,3.28,2.0
1758078252.87061,1758078239.45086,0.0,0.0,0.0,45.09178,8.65166,10.59972,10.58,0.88,2.51,2.0
1758078252.87329,1758078239.46086,0.0,0.0,0.0,43.83128,16.84496,10.71431,10.07,1.03,1.99,2.0
1758078252.88881,1758078239.47086,0.0,0.0,0.0,41.48215,21.48592,11.22997,10.07,1.03,1.99,2.0
1758078252.88975,1758078239.48086,0.0,0.0,0.0,37.92981,26.41335,11.74564,9.59,1.31,1.89,2.0
1758078252.90465,1758078239.49086,0.0,0.0,0.0,33.46074,29.8511,11.45916,9.59,1.31,1.89,2.0
1758078252.92073,1758078239.50086,0.0,0.0,0.0,25.49662,33.9764,10.31324,9.05,1.73,1.79,2.0
1758078252.9234,1758078239.51086,0.0,0.0,0.0,19.42327,35.69527,8.99544,9.05,1.73,1.79,2.0
1758078252.9389,1758078239.52086,0.0,0.0,0.0,13.17803,37.24226,7.67763,8.46,2.16,1.67,2.0
1758078252.93977,1758078239.53086,0.0,0.0,0.0,3.38045,37.52874,5.84417,8.46,2.16,1.67,2.0
1758078252.95497,1758078239.54086,0.0,0.0,0.0,-2.7502,36.26823,4.46907,7.89,2.54,1.41,2.0
1758078252.97076,1758078239.55086,0.0,0.0,0.0,-9.11003,34.49206,2.92208,7.45,2.86,1.22,2.0
1758078252.97337,1758078239.56086,0.0,0.0,0.0,-14.9542,32.20023,1.43239,7.45,2.86,1.22,2.0
1758078252.98868,1758078239.57086,0.0,0.0,0.0,-23.37668,25.72581,-1.94806,7.28,3.02,1.31,2.0
1758078252.98984,1758078239.58086,0.0,0.0,0.0,-28.476,20.85567,-4.23989,7.28,3.02,1.31,2.0
1758078253.00655,1758078239.59086,0.0,0.0,0.0,-33.00237,15.35527,-6.47442,7.36,2.93,1.36,2.0
1758078253.02194,1758078239.60086,0.0,0.0,0.0,-37.01308,10.48513,-9.4538,7.36,2.93,1.36,2.0
1758078253.02285,1758078239.61086,0.0,0.0,0.0,-41.99781,2.34913,-13.75099,7.71,2.49,1.43,2.0
1758078253.0379,1758078239.62086,0.0,0.0,0.0,-44.63341,-1.71887,-16.50119,8.02,1.86,1.37,2.0
1758078253.03884,1758078239.63086,0.0,0.0,0.0,-46.40959,-5.95876,-18.16276,8.02,1.86,1.37,2.0
1758078253.05501,1758078239.64086,0.0,0.0,0.0,-47.72739,-8.93814,-19.19409,8.41,1.4,1.28,2.0
1758078253.07278,1758078239.65086,0.0,0.0,0.0,-48.75871,-12.77696,-19.19409,8.41,1.4,1.28,2.0
1758078253.07392,1758078239.66086,0.0,0.0,0.0,-48.64412,-14.20935,-18.22006,8.89,0.92,1.16,2.0
1758078253.08895,1758078239.67086,0.0,0.0,0.0,-48.35764,-14.78231,-16.84496,8.89,0.92,1.16,2.0
1758078253.08993,1758078239.68086,0.0,0.0,0.0,-47.49821,-14.09476,-15.12609,9.36,0.44,1.01,2.0
1758078253.1047,1758078239.69086,0.0,0.0,0.0,-45.60744,-11.34457,-12.43318,9.64,0.05,0.78,2.0
1758078253.1207,1758078239.70086,0.0,0.0,0.0,-43.88857,-7.04738,-10.25595,9.64,0.05,0.78,2.0
1758078253.12264,1758078239.71086,0.0,0.0,0.0,-41.88322,-0.68755,-8.02141,9.98,-0.24,0.58,2.0
1758078253.13773,1758078239.72086,0.0,0.0,0.0,-39.82057,6.53172,-5.15662,9.98,-0.24,0.58,2.0
1758078253.1389,1758078239.73086,0.0,0.0,0.0,-36.49741,17.36062,-3.55234,10.14,-0.49,0.62,2.0
1758078253.15468,1758078239.74086,0.0,0.0,0.0,-34.09099,23.94964,-2.34913,10.14,-0.49,0.62,2.0
1758078253.1728,1758078239.75086,0.0,0.0,0.0,-32.37212,29.27814,-1.3178,10.01,-0.51,0.71,2.0
1758078253.174,1758078239.76086,0.0,0.0,0.0,-30.76784,37.47144,-0.45837,10.01,-0.51,0.71,2.0
1758078253.18901,1758078239.77086,0.0,0.0,0.0,-30.02299,39.4768,0.0573,9.9,-0.28,0.75,2.0
1758078253.18993,1758078239.78086,0.0,0.0,0.0,-29.73651,39.01843,0.57296,9.4,0.0,0.64,2.0
1758078253.20505,1758078239.79086,0.0,0.0,0.0,-29.67921,36.21093,1.3751,9.4,0.0,0.64,2.0
1758078253.22099,1758078239.80086,0.0,0.0,0.0,-29.67921,26.24147,2.46372,9.07,0.42,0.82,2.0
1758078253.22275,1758078239.81086,0.0,0.0,0.0,-30.76784,17.13144,2.63561,9.07,0.42,0.82,2.0
1758078253.23822,1758078239.82086,0.0,0.0,0.0,-32.6013,8.47978,1.83346,9.12,0.88,0.83,2.0
1758078253.23894,1758078239.83086,0.0,0.0,0.0,-35.40879,-1.3178,-0.0573,9.12,0.88,0.83,2.0
1758078253.25607,1758078239.84086,0.0,0.0,0.0,-40.50812,-15.64175,-4.46907,9.43,1.14,0.52,2.0
1758078253.27292,1758078239.85086,0.0,0.0,0.0,-44.11775,-23.31938,-8.65166,9.69,1.34,0.21,2.0
1758078253.27652,1758078239.86086,0.0,0.0,0.0,-47.38361,-30.30947,-14.32395,9.69,1.34,0.21,2.0
1758078253.29275,1758078239.87086,0.0,0.0,0.0,-49.21708,-39.4195,-18.85031,9.84,1.43,-0.43,2.0
1758078253.29776,1758078239.88086,0.0,0.0,0.0,-49.90463,-43.4875,-21.02755,9.84,1.43,-0.43,2.0
1758078253.31388,1758078239.89086,0.0,0.0,0.0,-50.1911,-44.00316,-20.11082,10.87,0.76,-1.25,2.0
1758078253.31755,1758078239.90086,0.0,0.0,0.0,-52.25375,-43.37291,-18.90761,10.87,0.76,-1.25,2.0
1758078253.33362,1758078239.91086,0.0,0.0,0.0,-53.45696,-43.37291,-15.12609,11.44,0.17,-1.17,2.0
1758078253.3348,1758078239.92086,0.0,0.0,0.0,-55.92068,-40.85189,-10.59972,11.68,-0.36,-1.37,2.0
1758078253.35211,1758078239.93086,0.0,0.0,0.0,-58.04062,-24.92367,-8.30789,11.68,-0.36,-1.37,2.0
1758078253.35329,1758078239.94086,0.0,0.0,0.0,-59.24384,-10.65701,-6.13065,13.11,-0.76,-1.07,2.0
1758078253.36787,1758078239.95086,0.0,0.0,0.0,-58.21251,-2.34913,-1.3751,13.11,-0.76,-1.07,2.0
1758078253.36932,1758078239.96086,0.0,0.0,0.0,-55.6915,-2.11994,2.46372,11.84,-0.96,0.75,2.0
1758078253.38607,1758078239.97086,0.0,0.0,0.0,-52.54023,-4.69825,5.72958,11.84,-0.96,0.75,2.0
1758078253.4029,1758078239.98086,0.0,0.0,0.0,-49.21708,-9.96947,7.50575,11.27,-0.83,1.27,2.0
1758078253.40382,1758078239.99086,0.0,0.0,0.0,-43.20102,-23.83505,7.33386,11.27,-0.83,1.27,2.0
1758078253.41889,1758078240.00086,0.0,0.0,0.0,-39.4768,-34.77854,2.34913,11.74,-0.77,1.57,2.0
1758078253.42081,1758078240.01086,0.0,0.0,0.0,-34.72124,-38.21629,-2.6929,13.16,-0.1,2.73,2.0
1758078253.43579,1758078240.02086,0.0,0.0,0.0,-29.62192,-37.92981,-7.16197,13.16,-0.1,2.73,2.0
1758078253.45366,1758078240.03086,0.0,0.0,0.0,-24.75178,-39.4195,-12.204,11.92,1.08,4.21,2.0
1758078253.45816,1758078240.04086,0.0,0.0,0.0,-24.86637,-41.59674,-14.83961,11.92,1.08,4.21,2.0
1758078253.47287,1758078240.05086,0.0,0.0,0.0,-27.10091,-41.42485,-16.10011,9.56,1.91,5.21,2.0
1758078253.47405,1758078240.06086,0.0,0.0,0.0,-31.2262,-38.73195,-15.87093,9.56,1.91,5.21,2.0
1758078253.48909,1758078240.07086,0.0,0.0,0.0,-39.82057,-33.05967,-13.5791,9.35,2.24,5.0,2.0
1758078253.49001,1758078240.08086,0.0,0.0,0.0,-46.2377,-29.27814,-11.74564,10.1,2.34,4.31,2.0
1758078253.50517,1758078240.09086,0.0,0.0,0.0,-52.36834,-26.18417,-9.33921,10.1,2.34,4.31,2.0
1758078253.52288,1758078240.10086,0.0,0.0,0.0,-58.21251,-22.11617,-6.8182,10.99,2.16,3.11,2.0
1758078253.52434,1758078240.11086,0.0,0.0,0.0,-66.00475,-12.2613,-4.23989,10.99,2.16,3.11,2.0
1758078253.5389,1758078240.12086,0.0,0.0,0.0,-70.30193,-6.18794,-3.95341,11.24,1.87,1.85,2.0
1758078253.54011,1758078240.13086,0.0,0.0,0.0,-73.2813,-0.80214,-4.87014,11.24,1.87,1.85,2.0
1758078253.55501,1758078240.14086,0.0,0.0,0.0,-73.73967,3.09397,-7.16197,10.65,1.47,1.54,2.0
1758078253.573,1758078240.15086,0.0,0.0,0.0,-71.21866,8.36518,-8.65166,10.47,0.8,1.48,2.0
1758078253.57392,1758078240.16086,0.0,0.0,0.0,-67.32255,11.74564,-9.85487,10.47,0.8,1.48,2.0
1758078253.589,1758078240.17086,0.0,0.0,0.0,-62.5097,15.58445,-9.4538,10.37,0.22,1.19,2.0
1758078253.59039,1758078240.18086,0.0,0.0,0.0,-55.00395,20.22541,-7.10468,10.37,0.22,1.19,2.0
1758078253.60498,1758078240.19086,0.0,0.0,0.0,-50.3057,21.6578,-5.27121,9.61,-0.2,0.47,2.0
1758078253.62096,1758078240.20086,0.0,0.0,0.0,-46.00851,22.68913,-3.49504,9.61,-0.2,0.47,2.0
1758078253.62215,1758078240.21086,0.0,0.0,0.0,-42.1124,24.17882,-2.00535,8.87,-0.57,0.02,2.0
1758078253.63719,1758078240.22086,0.0,0.0,0.0,-36.89849,26.24147,-0.74485,8.45,-0.57,-0.08,2.0
1758078253.65311,1758078240.23086,0.0,0.0,0.0,-33.46074,28.476,-0.40107,8.45,-0.82,-0.08,2.0
1758078253.6542,1758078240.24086,0.0,0.0,0.0,-30.02299,29.8511,0.11459,8.23,-0.9,0.09,2.0
1758078253.6693,1758078240.25086,0.0,0.0,0.0,-26.64254,30.65324,0.57296,8.23,-0.9,0.09,2.0
1758078253.67214,1758078240.26086,0.0,0.0,0.0,-22.00158,31.97105,1.03132,8.1,-0.73,0.2,2.0
1758078253.68866,1758078240.27086,0.0,0.0,0.0,-19.99623,32.42941,0.80214,8.1,-0.73,0.2,2.0
1758078253.69065,1758078240.28086,0.0,0.0,0.0,-18.62113,32.83048,0.11459,8.26,-0.37,0.39,2.0
1758078253.70607,1758078240.29086,0.0,0.0,0.0,-17.93358,32.37212,-0.85944,8.26,-0.37,0.39,2.0
1758078253.723,1758078240.30086,0.0,0.0,0.0,-18.27736,30.82513,-2.86479,8.39,-0.02,0.54,2.0
1758078253.72446,1758078240.31086,0.0,0.0,0.0,-18.9649,30.13758,-4.35448,8.56,0.3,0.67,2.0
1758078253.73899,1758078240.32086,0.0,0.0,0.0,-19.76705,29.04896,-5.61499,8.56,0.3,0.67,2.0
1758078253.74097,1758078240.33086,0.0,0.0,0.0,-20.85567,27.2155,-6.70361,8.63,0.5,0.6,2.0
1758078253.75627,1758078240.34086,0.0,0.0,0.0,-22.34536,25.15285,-7.16197,8.63,0.5,0.6,2.0
1758078253.77203,1758078240.35086,0.0,0.0,0.0,-23.26209,24.5226,-7.10468,8.73,0.49,0.45,2.0
1758078253.77432,1758078240.36086,0.0,0.0,0.0,-23.54857,22.68913,-6.7609,8.73,0.49,0.45,2.0
1758078253.7891,1758078240.37086,0.0,0.0,0.0,-23.31938,21.31403,-6.24524,8.77,0.26,0.24,2.0
1758078253.79105,1758078240.38086,0.0,0.0,0.0,-22.68913,21.88699,-6.24524,9.05,0.0,0.34,2.0
1758078253.80637,1758078240.39086,0.0,0.0,0.0,-22.11617,23.20479,-7.10468,9.05,0.0,0.34,2.0
1758078253.82306,1758078240.40086,0.0,0.0,0.0,-20.79837,24.17882,-8.02141,9.03,-0.22,0.45,2.0
1758078253.82471,1758078240.41086,0.0,0.0,0.0,-18.27736,23.94964,-9.5684,9.03,-0.22,0.45,2.0
1758078253.83902,1758078240.42086,0.0,0.0,0.0,-16.04282,20.79837,-10.48513,8.81,-0.38,0.73,2.0
1758078253.84301,1758078240.43086,0.0,0.0,0.0,-13.00614,15.87093,-9.96947,8.81,-0.38,0.73,2.0
1758078253.85837,1758078240.44086,0.0,0.0,0.0,-9.22462,9.22462,-9.05273,8.68,-0.52,0.31,2.0
1758078253.8596,1758078240.45086,0.0,0.0,0.0,-2.46372,-1.77617,-6.58902,8.94,-0.91,-0.44,2.0
1758078253.87533,1758078240.46086,0.0,0.0,0.0,2.92208,-8.88085,-4.35448,8.94,-0.91,-0.44,2.0
1758078253.89231,1758078240.47086,0.0,0.0,0.0,8.65166,-15.87093,-1.60428,9.13,-1.56,-0.95,2.0
1758078253.8933,1758078240.48086,0.0,0.0,0.0,14.38124,-21.7724,1.66158,9.13,-1.56,-0.95,2.0
1758078253.90909,1758078240.49086,0.0,0.0,0.0,22.28806,-30.88243,6.47442,9.02,-2.22,-1.28,2.0
1758078253.91038,1758078240.50086,0.0,0.0,0.0,27.38738,-37.35685,9.62569,9.02,-2.22,-1.28,2.0
1758078253.92509,1758078240.51086,0.0,0.0,0.0,32.20023,-44.51882,11.97482,9.0,-2.6,-1.53,2.0
1758078253.94223,1758078240.52086,0.0,0.0,0.0,34.49206,-51.27972,12.43318,9.0,-2.6,-1.53,2.0
1758078253.94367,1758078240.53086,0.0,0.0,0.0,36.84119,-46.81066,12.60507,9.62,-2.36,-1.39,2.0
1758078253.95837,1758078240.54086,0.0,0.0,0.0,37.64333,-33.40344,13.34992,11.87,-1.49,0.04,2.0
1758078253.9596,1758078240.55086,0.0,0.0,0.0,35.40879,-17.58981,10.65701,11.87,-1.49,0.04,2.0
1758078253.97733,1758078240.56086,0.0,0.0,0.0,35.06502,-12.77696,10.8862,12.54,0.04,2.35,2.0
1758078253.99337,1758078240.57086,0.0,0.0,0.0,31.91375,-36.49741,9.68299,12.54,0.04,2.35,2.0
1758078253.9943,1758078240.58086,0.0,0.0,0.0,29.56462,-52.48294,11.80293,12.11,1.76,3.2,2.0
1758078254.01376,1758078240.59086,0.0,0.0,0.0,25.26744,-50.93595,13.98017,12.11,1.76,3.2,2.0
1758078254.01467,1758078240.60086,0.0,0.0,0.0,17.24603,-55.51962,16.67307,15.19,2.63,2.93,2.0
1758078254.03279,1758078240.61086,0.0,0.0,0.0,13.98017,-64.57235,21.08485,13.51,1.93,2.56,2.0
1758078254.0341,1758078240.62086,0.0,0.0,0.0,10.48513,-63.8275,24.57989,13.51,1.93,2.56,2.0
1758078254.04938,1758078240.63086,0.0,0.0,0.0,7.33386,-54.25911,26.69983,15.15,0.92,3.63,2.0
1758078254.05113,1758078240.64086,0.0,0.0,0.0,3.20856,-37.29956,23.54857,15.15,0.92,3.63,2.0
1758078254.06638,1758078240.65086,0.0,0.0,0.0,2.40642,-30.53865,21.14215,13.54,0.62,3.32,2.0
1758078254.08293,1758078240.66086,0.0,0.0,0.0,4.1253,-23.94964,18.50654,13.54,0.62,3.32,2.0
1758078254.08426,1758078240.67086,0.0,0.0,0.0,8.93814,-19.42327,16.272,11.16,0.64,4.58,2.0
1758078254.09914,1758078240.68086,0.0,0.0,0.0,22.28806,-13.86558,13.69369,10.25,0.75,3.44,2.0
1758078254.10117,1758078240.69086,0.0,0.0,0.0,33.11696,-7.84952,12.2613,10.25,0.75,3.44,2.0
1758078254.11639,1758078240.70086,0.0,0.0,0.0,44.28964,-1.48969,11.11538,11.25,0.6,3.1,2.0
1758078254.13231,1758078240.71086,0.0,0.0,0.0,55.11855,4.35448,10.48513,11.25,0.6,3.1,2.0
1758078254.13372,1758078240.72086,0.0,0.0,0.0,68.23928,12.37589,9.39651,11.38,0.08,2.33,2.0
1758078254.14816,1758078240.73086,0.0,0.0,0.0,73.10942,17.36062,9.28192,11.38,0.08,2.33,2.0
1758078254.14937,1758078240.74086,0.0,0.0,0.0,74.88559,24.23611,9.5684,10.9,-0.06,1.91,2.0
1758078254.16842,1758078240.75086,0.0,0.0,0.0,73.73967,31.51268,10.19865,10.9,-0.06,1.91,2.0
1758078254.1694,1758078240.76086,0.0,0.0,0.0,68.29657,39.76327,10.8289,10.47,0.57,1.82,2.0
1758078254.1872,1758078240.77086,0.0,0.0,0.0,62.91077,43.20102,11.34457,9.77,1.51,1.78,2.0
1758078254.20321,1758078240.78086,0.0,0.0,0.0,56.37905,45.77933,11.34457,9.77,1.51,1.78,2.0
1758078254.20441,1758078240.79086,0.0,0.0,0.0,46.1804,49.15978,10.19865,9.15,2.27,1.54,2.0
1758078254.21925,1758078240.80086,0.0,0.0,0.0,39.24761,50.3057,9.33921,9.15,2.27,1.54,2.0
1758078254.22042,1758078240.81086,0.0,0.0,0.0,32.54401,50.3057,7.73493,8.4,2.69,1.22,2.0
1758078254.23524,1758078240.82086,0.0,0.0,0.0,26.12688,48.30034,6.18794,8.4,2.69,1.22,2.0
1758078254.25205,1758078240.83086,0.0,0.0,0.0,17.18874,41.71133,3.32316,7.56,2.92,1.03,2.0
1758078254.25322,1758078240.84086,0.0,0.0,0.0,11.91752,36.15364,1.3178,7.06,2.93,0.78,2.0
1758078254.26852,1758078240.85086,0.0,0.0,0.0,7.44845,31.11161,-0.74485,7.06,2.93,0.78,2.0
1758078254.26986,1758078240.86086,0.0,0.0,0.0,3.83882,26.75713,-2.7502,7.25,2.54,0.53,2.0
1758078254.28632,1758078240.87086,0.0,0.0,0.0,0.0,19.42327,-4.87014,7.25,2.54,0.53,2.0
1758078254.30326,1758078240.88086,0.0,0.0,0.0,-1.71887,14.38124,-5.78687,7.31,1.8,0.91,2.0
1758078254.30446,1758078240.89086,0.0,0.0,0.0,-3.66693,10.08406,-6.41713,7.31,1.8,0.91,2.0
1758078254.3233,1758078240.90086,0.0,0.0,0.0,-5.21392,5.50039,-6.53172,7.53,1.23,1.37,2.0
1758078254.32475,1758078240.91086,0.0,0.0,0.0,-7.33386,-0.40107,-5.95876,7.76,0.98,1.33,2.0
1758078254.33928,1758078240.92086,0.0,0.0,0.0,-8.36518,-3.03668,-5.09932,7.76,0.98,1.33,2.0
1758078254.34056,1758078240.93086,0.0,0.0,0.0,-9.11003,-4.98473,-4.18259,8.11,0.8,1.23,2.0
1758078254.3553,1758078240.94086,0.0,0.0,0.0,-9.33921,-5.50039,-2.97938,8.11,0.8,1.23,2.0
1758078254.37339,1758078240.95086,0.0,0.0,0.0,-8.93814,-5.27121,-0.74485,8.35,0.62,1.02,2.0
1758078254.37427,1758078240.96086,0.0,0.0,0.0,-8.65166,-3.38045,0.45837,8.35,0.62,1.02,2.0
1758078254.39018,1758078240.97086,0.0,0.0,0.0,-8.25059,0.34377,1.77617,8.75,0.41,0.94,2.0
1758078254.39363,1758078240.98086,0.0,0.0,0.0,-6.99009,6.58902,4.1253,8.75,0.41,0.94,2.0
1758078254.40961,1758078240.99086,0.0,0.0,0.0,-5.95876,18.90761,5.21392,9.55,0.27,0.88,2.0
1758078254.41062,1758078241.00086,0.0,0.0,0.0,-5.21392,27.67386,6.41713,10.09,0.26,1.05,2.0
1758078254.4291,1758078241.01086,0.0,0.0,0.0,-4.64096,36.32552,7.39116,10.09,0.26,1.05,2.0
1758078254.4338,1758078241.02086,0.0,0.0,0.0,-4.64096,44.51882,7.84952,10.02,0.47,1.05,2.0
1758078254.44842,1758078241.03086,0.0,0.0,0.0,-5.09932,44.748,7.96411,10.02,0.47,1.05,2.0
1758078254.45026,1758078241.04086,0.0,0.0,0.0,-5.95876,42.22699,7.84952,9.29,0.74,0.56,2.0
1758078254.46755,1758078241.05086,0.0,0.0,0.0,-7.16197,37.47144,7.67763,9.29,0.74,0.56,2.0
1758078254.48338,1758078241.06086,0.0,0.0,0.0,-9.74028,27.10091,7.10468,8.9,1.06,-0.07,2.0
1758078254.48532,1758078241.07086,0.0,0.0,0.0,-11.63104,19.88164,6.24524,8.78,1.29,-0.51,2.0
1758078254.50065,1758078241.08086,0.0,0.0,0.0,-13.86558,11.91752,5.50039,8.78,1.29,-0.51,2.0
1758078254.50318,1758078241.09086,0.0,0.0,0.0,-16.67307,3.66693,4.35448,8.98,1.35,-0.65,2.0
1758078254.51868,1758078241.10086,0.0,0.0,0.0,-20.79837,-11.86023,4.1253,8.98,1.35,-0.65,2.0
1758078254.52044,1758078241.11086,0.0,0.0,0.0,-24.63719,-21.60051,2.06265,9.64,1.16,-0.5,2.0
1758078254.53841,1758078241.12086,0.0,0.0,0.0,-27.96034,-30.36677,-0.11459,9.64,1.16,-0.5,2.0
1758078254.54391,1758078241.13086,0.0,0.0,0.0,-30.99702,-37.47144,-2.34913,10.67,1.08,-0.05,2.0
1758078254.55363,1758078241.14086,0.0,0.0,0.0,-36.32552,-43.60209,-5.72958,10.96,1.21,-0.39,2.0
1758078254.56968,1758078241.15086,0.0,0.0,0.0,-39.70598,-44.63341,-7.16197,10.96,1.21,-0.39,2.0
1758078254.57725,1758078241.16086,0.0,0.0,0.0,-41.88322,-46.69606,-7.21927,11.04,1.28,-0.78,2.0
1758078254.59343,1758078241.17086,0.0,0.0,0.0,-43.65939,-46.69606,-6.87549,11.04,1.28,-0.78,2.0
1758078254.59708,1758078241.18086,0.0,0.0,0.0,-43.65939,-42.22699,-5.72958,12.08,0.74,-0.23,2.0
1758078254.61346,1758078241.19086,0.0,0.0,0.0,-42.57077,-37.47144,-4.52637,12.08,0.74,-0.23,2.0
1758078254.61559,1758078241.20086,0.0,0.0,0.0,-39.53409,-33.40344,-3.09397,13.45,-0.32,0.78,2.0
1758078254.63348,1758078241.21086,0.0,0.0,0.0,-32.20023,-31.45539,-1.77617,13.45,-0.32,0.78,2.0
1758078254.63389,1758078241.22086,0.0,0.0,0.0,-25.38203,-30.53865,-2.11994,13.27,-1.29,2.85,2.0
1758078254.64947,1758078241.23086,0.0,0.0,0.0,-18.62113,-32.48671,-3.38045,14.14,-1.68,3.68,2.0
1758078254.65651,1758078241.24086,0.0,0.0,0.0,-9.74028,-37.47144,-3.20856,14.14,-1.68,3.68,2.0
1758078254.67167,1758078241.25086,0.0,0.0,0.0,-0.80214,-69.55708,-9.05273,13.91,-1.67,4.39,2.0
1758078254.6742,1758078241.26086,0.0,0.0,0.0,3.26586,-78.49522,-10.65701,13.91,-1.67,4.39,2.0
1758078254.69172,1758078241.27086,0.0,0.0,0.0,4.98473,-60.73353,-10.48513,13.07,0.14,3.75,2.0
1758078254.69423,1758078241.28086,0.0,0.0,0.0,2.6929,-42.85724,-10.08406,13.07,0.14,3.75,2.0
1758078254.70947,1758078241.29086,0.0,0.0,0.0,-5.61499,-35.2369,-10.25595,11.61,1.75,3.98,2.0
1758078254.71385,1758078241.30086,0.0,0.0,0.0,-12.83425,-34.32018,-9.91217,8.06,2.46,5.15,2.0
1758078254.72949,1758078241.31086,0.0,0.0,0.0,-19.82434,-32.54401,-8.76626,8.06,2.46,5.15,2.0
1758078254.73149,1758078241.32086,0.0,0.0,0.0,-26.18417,-28.59059,-8.0787,8.48,2.88,3.67,2.0
1758078254.74878,1758078241.33086,0.0,0.0,0.0,-33.46074,-20.97026,-7.33386,8.48,2.88,3.67,2.0
1758078254.75043,1758078241.34086,0.0,0.0,0.0,-36.7266,-16.73037,-7.10468,9.06,2.34,2.86,2.0
1758078254.76853,1758078241.35086,0.0,0.0,0.0,-39.01843,-13.23533,-7.33386,9.06,2.34,2.86,2.0
1758078254.77035,1758078241.36086,0.0,0.0,0.0,-40.10705,-9.39651,-7.62034,9.11,1.27,2.59,2.0
1758078254.78576,1758078241.37086,0.0,0.0,0.0,-40.10705,-2.23454,-7.96411,9.45,0.2,2.41,2.0
1758078254.80352,1758078241.38086,0.0,0.0,0.0,-38.78925,2.06265,-7.67763,9.45,0.2,2.41,2.0
1758078254.80408,1758078241.39086,0.0,0.0,0.0,-36.55471,5.15662,-6.35983,9.29,-0.59,1.94,2.0
1758078254.8198,1758078241.40086,0.0,0.0,0.0,-30.93972,7.79223,-3.95341,9.29,-0.59,1.94,2.0
1758078254.82073,1758078241.41086,0.0,0.0,0.0,-26.64254,14.49583,-2.00535,9.43,-0.91,1.37,2.0
1758078254.83713,1758078241.42086,0.0,0.0,0.0,-21.48592,20.68378,0.57296,9.43,-0.91,1.37,2.0
1758078254.8537,1758078241.43086,0.0,0.0,0.0,-16.10011,26.35606,2.7502,9.65,-1.36,0.76,2.0
1758078254.85412,1758078241.44086,0.0,0.0,0.0,-8.136,28.76248,4.69825,9.65,-1.36,0.76,2.0
1758078254.87186,1758078241.45086,0.0,0.0,0.0,-3.60963,29.27814,5.50039,9.17,-1.79,0.64,2.0
1758078254.87434,1758078241.46086,0.0,0.0,0.0,-0.22918,29.96569,5.61499,8.98,-1.59,0.41,2.0
1758078254.89036,1758078241.47086,0.0,0.0,0.0,2.06265,30.59595,5.27121,8.98,-1.59,0.41,2.0
1758078254.89269,1758078241.48086,0.0,0.0,0.0,4.18259,28.93437,3.66693,8.71,-0.93,0.36,2.0
1758078254.90874,1758078241.49086,0.0,0.0,0.0,5.21392,26.47065,2.63561,8.71,-0.93,0.36,2.0
1758078254.91038,1758078241.50086,0.0,0.0,0.0,5.61499,22.86102,1.71887,8.42,-0.27,0.55,2.0
1758078254.92596,1758078241.51086,0.0,0.0,0.0,5.55769,18.9649,0.57296,8.42,-0.27,0.55,2.0
1758078254.92873,1758078241.52086,0.0,0.0,0.0,5.09932,17.93358,-0.74485,8.62,0.18,0.61,2.0
1758078254.94429,1758078241.53086,0.0,0.0,0.0,4.81285,18.10547,-1.48969,9.05,0.4,0.73,2.0
1758078254.96262,1758078241.54086,0.0,0.0,0.0,4.46907,18.62113,-2.00535,9.05,0.4,0.73,2.0
1758078254.96354,1758078241.55086,0.0,0.0,0.0,4.0107,20.05352,-2.34913,9.11,0.43,0.91,2.0
1758078254.97868,1758078241.56086,0.0,0.0,0.0,3.49504,22.68913,-2.6929,9.11,0.43,0.91,2.0
1758078254.98031,1758078241.57086,0.0,0.0,0.0,3.09397,24.35071,-2.92208,9.21,0.31,0.94,2.0
1758078254.99727,1758078241.58086,0.0,0.0,0.0,3.20856,25.72581,-2.97938,9.21,0.31,0.94,2.0
1758078254.99896,1758078241.59086,0.0,0.0,0.0,2.97938,26.24147,-3.38045,9.23,0.11,0.76,2.0
1758078255.0167,1758078241.60086,0.0,0.0,0.0,2.92208,27.04361,-3.72423,9.27,0.0,0.46,2.0
1758078255.01806,1758078241.61086,0.0,0.0,0.0,3.09397,27.61657,-3.95341,9.27,0.0,0.46,2.0
1758078255.03325,1758078241.62086,0.0,0.0,0.0,3.26586,28.24682,-4.23989,9.28,0.0,0.33,2.0
1758078255.04889,1758078241.63086,0.0,0.0,0.0,4.18259,28.76248,-4.87014,9.28,0.0,0.33,2.0
1758078255.05342,1758078241.64086,0.0,0.0,0.0,5.21392,28.36141,-4.87014,9.14,0.0,0.37,2.0
1758078255.06897,1758078241.65086,0.0,0.0,0.0,6.47442,28.70519,-4.98473,9.14,0.0,0.37,2.0
1758078255.07335,1758078241.66086,0.0,0.0,0.0,7.73493,29.9084,-5.15662,9.09,-0.03,0.29,2.0
1758078255.09188,1758078241.67086,0.0,0.0,0.0,9.85487,29.27814,-5.32851,9.09,-0.03,0.46,2.0
1758078255.0921,1758078241.68086,0.0,0.0,0.0,11.63104,25.26744,-5.21392,8.86,-0.15,0.46,2.0
1758078255.10501,1758078241.69086,0.0,0.0,0.0,13.5218,17.81899,-4.98473,8.36,-0.39,0.33,2.0
1758078255.12079,1758078241.70086,0.0,0.0,0.0,16.10011,8.47978,-4.23989,8.36,-0.39,0.33,2.0
1758078255.12351,1758078241.71086,0.0,0.0,0.0,20.85567,-4.46907,-2.7502,8.56,-0.9,-0.17,2.0
1758078255.13866,1758078241.72086,0.0,0.0,0.0,24.5226,-12.2613,-1.43239,8.56,-0.9,-0.17,2.0
1758078255.14071,1758078241.73086,0.0,0.0,0.0,28.76248,-18.90761,0.45837,8.96,-1.55,-0.75,2.0
1758078255.15596,1758078241.74086,0.0,0.0,0.0,33.05967,-22.97561,2.92208,8.96,-1.55,-0.75,2.0
1758078255.17277,1758078241.75086,0.0,0.0,0.0,39.4195,-27.38738,6.47442,9.48,-1.98,-0.76,2.0
1758078255.17392,1758078241.76086,0.0,0.0,0.0,43.60209,-30.76784,7.39116,9.88,-1.8,-0.48,2.0
1758078255.18895,1758078241.77086,0.0,0.0,0.0,46.63877,-37.52874,9.11003,9.88,-1.8,-0.48,2.0
1758078255.18988,1758078241.78086,0.0,0.0,0.0,47.15443,-40.16434,8.88085,10.4,-1.08,-0.34,2.0
1758078255.20507,1758078241.79086,0.0,0.0,0.0,47.95657,-30.65324,7.10468,10.4,-1.08,-0.34,2.0
1758078255.22069,1758078241.80086,0.0,0.0,0.0,46.52417,-15.35527,5.15662,11.88,-0.25,-0.62,2.0
1758078255.22279,1758078241.81086,0.0,0.0,0.0,46.46688,-3.66693,2.97938,11.88,-0.25,-0.62,2.0
1758078255.23795,1758078241.82086,0.0,0.0,0.0,43.20102,-25.55392,-0.0573,10.95,0.65,-0.62,2.0
1758078255.23929,1758078241.83086,0.0,0.0,0.0,45.14908,-40.16434,1.3178,9.54,1.0,0.04,2.0
1758078255.25405,1758078241.84086,0.0,0.0,0.0,44.8053,-33.46074,1.71887,9.54,1.0,0.04,2.0
1758078255.27065,1758078241.85086,0.0,0.0,0.0,42.68536,-25.15285,2.00535,14.72,0.6,0.61,2.0
1758078255.27299,1758078241.86086,0.0,0.0,0.0,41.31026,-26.64254,3.38045,14.72,0.6,0.61,2.0
1758078255.28777,1758078241.87086,0.0,0.0,0.0,39.07573,-34.60666,5.15662,12.44,0.31,1.57,2.0
1758078255.28924,1758078241.88086,0.0,0.0,0.0,36.6693,-47.72739,9.11003,12.44,0.31,1.57,2.0
1758078255.30406,1758078241.89086,0.0,0.0,0.0,34.89313,-60.04598,15.46986,11.88,0.06,3.82,2.0
1758078255.31975,1758078241.90086,0.0,0.0,0.0,30.99702,-63.88479,22.28806,13.51,0.52,2.93,2.0
1758078255.32097,1758078241.91086,0.0,0.0,0.0,28.24682,-57.12389,25.26744,13.51,0.52,2.93,2.0
1758078255.33606,1758078241.92086,0.0,0.0,0.0,24.98096,-45.55015,26.01229,13.37,1.27,3.32,2.0
1758078255.35285,1758078241.93086,0.0,0.0,0.0,22.97561,-36.89849,25.49662,13.37,1.27,3.32,2.0
1758078255.35377,1758078241.94086,0.0,0.0,0.0,23.60586,-25.15285,24.00693,10.83,1.47,3.66,2.0
1758078255.36903,1758078241.95086,0.0,0.0,0.0,26.69983,-16.38659,22.34536,10.83,1.47,3.66,2.0
1758078255.37271,1758078241.96086,0.0,0.0,0.0,32.20023,-11.28727,19.48057,10.14,0.91,4.03,2.0
1758078255.38812,1758078241.97086,0.0,0.0,0.0,39.76327,-9.62569,17.01685,10.14,0.91,4.03,2.0
1758078255.38937,1758078241.98086,0.0,0.0,0.0,51.22243,-1.60428,13.06344,10.54,0.48,3.46,2.0
1758078255.4038,1758078241.99086,0.0,0.0,0.0,58.04062,5.4431,10.02676,12.63,0.24,2.75,2.0
1758078255.42164,1758078242.00086,0.0,0.0,0.0,63.25455,12.49048,7.96411,12.63,0.24,2.75,2.0
1758078255.42285,1758078242.01086,0.0,0.0,0.0,65.03072,21.37133,6.41713,12.35,0.43,1.67,2.0
1758078255.43805,1758078242.02086,0.0,0.0,0.0,62.91077,35.98175,7.33386,12.35,0.43,1.67,2.0
1758078255.43928,1758078242.03086,0.0,0.0,0.0,58.84277,42.74266,8.36518,11.0,0.94,1.56,2.0
1758078255.45383,1758078242.04086,0.0,0.0,0.0,53.45696,48.35764,9.5684,11.0,0.94,1.56,2.0
1758078255.47008,1758078242.05086,0.0,0.0,0.0,43.83128,53.17049,10.65701,9.9,1.22,1.15,2.0
1758078255.47129,1758078242.06086,0.0,0.0,0.0,37.24226,56.66553,9.68299,9.34,1.57,0.91,2.0
1758078255.48587,1758078242.07086,0.0,0.0,0.0,30.93972,58.67088,8.65166,9.34,1.57,0.91,2.0
1758078255.50211,1758078242.08086,0.0,0.0,0.0,24.23611,60.79083,5.90147,8.76,1.88,0.79,2.0
1758078255.5031,1758078242.09086,0.0,0.0,0.0,14.83961,60.16057,2.63561,8.76,1.88,0.79,2.0
1758078255.51786,1758078242.10086,0.0,0.0,0.0,9.11003,56.03527,0.17189,7.86,2.15,0.99,2.0
1758078255.51986,1758078242.11086,0.0,0.0,0.0,3.72423,51.27972,-2.29183,7.86,2.15,0.99,2.0
1758078255.53723,1758078242.12086,0.0,0.0,0.0,-0.74485,46.1231,-4.46907,7.19,2.32,0.92,2.0
1758078255.53845,1758078242.13086,0.0,0.0,0.0,-6.13065,37.52874,-7.21927,7.1,2.26,0.66,2.0
1758078255.5539,1758078242.14086,0.0,0.0,0.0,-9.28192,30.53865,-8.65166,7.1,2.26,0.66,2.0
1758078255.57069,1758078242.15086,0.0,0.0,0.0,-12.14671,24.29341,-10.02676,7.3,1.92,0.8,2.0
1758078255.57266,1758078242.16086,0.0,0.0,0.0,-14.72501,17.76169,-11.28727,7.3,1.92,0.8,2.0
1758078255.58794,1758078242.17086,0.0,0.0,0.0,-17.81899,8.70896,-12.2613,7.69,1.36,0.94,2.0
1758078255.58991,1758078242.18086,0.0,0.0,0.0,-19.42327,3.20856,-12.2613,7.69,1.36,0.94,2.0
1758078255.60654,1758078242.19086,0.0,0.0,0.0,-20.3973,-1.48969,-11.74564,8.15,0.89,1.13,2.0
1758078255.62351,1758078242.20086,0.0,0.0,0.0,-20.85567,-5.4431,-10.71431,8.15,0.89,1.13,2.0
1758078255.62663,1758078242.21086,0.0,0.0,0.0,-20.51189,-9.85487,-8.88085,8.6,0.45,1.12,2.0
1758078255.6427,1758078242.22086,0.0,0.0,0.0,-19.48057,-11.57375,-7.33386,9.07,0.05,1.04,2.0
1758078255.64392,1758078242.23086,0.0,0.0,0.0,-17.99088,-11.57375,-5.72958,9.07,0.05,1.04,2.0
1758078255.65894,1758078242.24086,0.0,0.0,0.0,-15.0115,-8.93814,-3.60963,9.64,-0.25,0.98,2.0
1758078255.66092,1758078242.25086,0.0,0.0,0.0,-12.83425,-3.83882,-2.11994,9.64,-0.25,0.98,2.0
1758078255.67705,1758078242.26086,0.0,0.0,0.0,-10.59972,2.46372,-0.57296,10.14,-0.36,0.82,2.0
1758078255.67793,1758078242.27086,0.0,0.0,0.0,-8.59437,10.31324,0.45837,10.14,-0.36,0.82,2.0
1758078255.69428,1758078242.28086,0.0,0.0,0.0,-5.90147,22.86102,2.63561,10.32,-0.35,0.74,2.0
1758078255.71094,1758078242.29086,0.0,0.0,0.0,-4.52637,31.39809,4.0107,10.36,-0.22,0.75,2.0
1758078255.71649,1758078242.30086,0.0,0.0,0.0,-4.0107,38.15899,4.92744,10.36,-0.22,0.75,2.0
1758078255.73736,1758078242.31086,0.0,0.0,0.0,-4.58366,40.04975,5.55769,9.81,0.04,0.83,2.0
1758078255.76284,1758078242.32086,0.0,0.0,0.0,-7.16197,36.89849,5.72958,9.81,0.04,0.83,2.0
1758078255.76348,1758078242.33086,0.0,0.0,0.0,-10.54242,33.17426,5.27121,9.28,0.48,0.61,2.0
1758078255.76472,1758078242.34086,0.0,0.0,0.0,-14.78231,28.476,3.89611,9.28,0.48,0.61,2.0
1758078255.76535,1758078242.35086,0.0,0.0,0.0,-19.59516,22.68913,1.94806,9.08,1.06,0.35,2.0
1758078255.78125,1758078242.36086,0.0,0.0,0.0,-27.2155,14.09476,-2.00535,8.75,1.66,0.04,2.0
1758078255.78381,1758078242.37086,0.0,0.0,0.0,-32.48671,5.21392,-5.15662,8.75,1.66,0.04,2.0
1758078255.79903,1758078242.38086,0.0,0.0,0.0,-36.21093,-9.4538,-7.10468,8.22,1.97,-0.43,2.0
1758078255.80099,1758078242.39086,0.0,0.0,0.0,-38.90384,-24.80907,-9.22462,8.22,1.97,-0.43,2.0
1758078255.81715,1758078242.40086,0.0,0.0,0.0,-41.59674,-38.44547,-11.80293,8.89,1.72,-1.38,2.0
1758078255.81802,1758078242.41086,0.0,0.0,0.0,-43.14373,-40.96649,-14.03747,8.89,1.72,-1.38,2.0
1758078255.83424,1758078242.42086,0.0,0.0,0.0,-45.26366,-35.92446,-14.09476,10.84,1.2,-0.62,2.0
1758078255.85099,1758078242.43086,0.0,0.0,0.0,-46.98254,-24.12152,-15.24068,10.84,1.2,-0.62,2.0
1758078255.8531,1758078242.44086,0.0,0.0,0.0,-50.64947,-33.40344,-16.04282,11.86,0.75,-0.2,2.0
1758078255.8683,1758078242.45086,0.0,0.0,0.0,-55.6915,-38.1017,-20.62648,11.0,0.68,0.38,2.0
1758078255.86951,1758078242.46086,0.0,0.0,0.0,-56.55093,-33.51803,-20.05352,11.0,0.68,0.38,2.0
1758078255.88413,1758078242.47086,0.0,0.0,0.0,-55.40502,-20.11082,-18.44924,13.48,0.2,0.65,2.0
1758078255.90221,1758078242.48086,0.0,0.0,0.0,-52.13916,-17.13144,-15.92823,13.48,0.2,0.65,2.0
1758078255.9031,1758078242.49086,0.0,0.0,0.0,-46.86795,-18.85031,-12.43318,12.6,-0.69,0.96,2.0
1758078255.91834,1758078242.50086,0.0,0.0,0.0,-41.08107,-25.26744,-10.37054,12.6,-0.69,0.96,2.0
1758078255.91924,1758078242.51086,0.0,0.0,0.0,-31.97105,-33.80451,-10.08406,11.5,-1.77,2.97,2.0
1758078255.93423,1758078242.52086,0.0,0.0,0.0,-24.80907,-37.29956,-10.25595,12.92,-2.08,2.16,2.0
1758078255.95278,1758078242.53086,0.0,0.0,0.0,-17.58981,-40.04975,-11.80293,12.92,-2.08,2.16,2.0
1758078255.95365,1758078242.54086,0.0,0.0,0.0,-10.48513,-41.76862,-13.06344,13.93,-1.79,3.82,2.0
1758078255.96991,1758078242.55086,0.0,0.0,0.0,-2.40642,-43.31561,-12.89155,13.93,-1.79,3.82,2.0
1758078255.97215,1758078242.56086,0.0,0.0,0.0,-1.03132,-42.97184,-12.77696,12.08,-0.31,3.94,2.0
1758078255.98816,1758078242.57086,0.0,0.0,0.0,-3.38045,-40.45082,-12.77696,12.08,-0.31,3.94,2.0
1758078255.98935,1758078242.58086,0.0,0.0,0.0,-9.22462,-38.1017,-11.86023,9.92,1.48,4.75,2.0
1758078256.00409,1758078242.59086,0.0,0.0,0.0,-22.40265,-36.7266,-10.02676,9.0,2.52,4.4,2.0
1758078256.02278,1758078242.60086,0.0,0.0,0.0,-32.48671,-33.68992,-8.93814,9.0,2.52,4.4,2.0
1758078256.0278,1758078242.61086,0.0,0.0,0.0,-42.22699,-27.73116,-8.42248,10.09,3.11,4.22,2.0
1758078256.02829,1758078242.62086,0.0,0.0,0.0,-50.82136,-23.0902,-7.84952,10.09,3.11,4.22,2.0
1758078256.04824,1758078242.63086,0.0,0.0,0.0,-61.30648,-18.85031,-7.73493,10.35,3.05,3.24,2.0
1758078256.04965,1758078242.64086,0.0,0.0,0.0,-66.06203,-15.64175,-8.76626,10.35,3.05,3.24,2.0
1758078256.06543,1758078242.65086,0.0,0.0,0.0,-69.55708,-11.97482,-10.48513,10.02,2.21,2.4,2.0
1758078256.08304,1758078242.66086,0.0,0.0,0.0,-70.93218,-8.59437,-13.5791,10.02,2.21,2.4,2.0
1758078256.08397,1758078242.67086,0.0,0.0,0.0,-70.18733,-6.13065,-14.49583,9.67,1.01,2.01,2.0
1758078256.09921,1758078242.68086,0.0,0.0,0.0,-67.37984,-4.35448,-14.09476,9.38,-0.21,1.69,2.0
1758078256.10592,1758078242.69086,0.0,0.0,0.0,-63.25455,-1.03132,-13.06344,9.38,-0.21,1.69,2.0
1758078256.12141,1758078242.70086,0.0,0.0,0.0,-54.3164,7.62034,-9.39651,9.58,-1.11,1.21,2.0
1758078256.12398,1758078242.71086,0.0,0.0,0.0,-47.38361,13.17803,-6.07335,9.58,-1.11,1.21,2.0
1758078256.13921,1758078242.72086,0.0,0.0,0.0,-39.53409,17.58981,-2.7502,9.2,-1.77,0.65,2.0
1758078256.14233,1758078242.73086,0.0,0.0,0.0,-31.62727,22.05888,0.0573,9.2,-1.77,0.65,2.0
1758078256.15726,1758078242.74086,0.0,0.0,0.0,-20.16812,27.2155,3.83882,8.85,-2.36,0.47,2.0
1758078256.15839,1758078242.75086,0.0,0.0,0.0,-13.34992,27.1582,5.90147,8.53,-2.51,0.18,2.0
1758078256.17629,1758078242.76086,0.0,0.0,0.0,-7.21927,26.64254,6.8182,8.53,-2.51,0.18,2.0
1758078256.19226,1758078242.77086,0.0,0.0,0.0,-2.00535,26.24147,7.21927,8.51,-2.09,0.01,2.0
1758078256.19346,1758078242.78086,0.0,0.0,0.0,3.72423,25.26744,6.41713,8.51,-2.09,0.01,2.0
1758078256.20849,1758078242.79086,0.0,0.0,0.0,6.13065,24.23611,5.32851,8.45,-1.05,0.12,2.0
1758078256.20945,1758078242.80086,0.0,0.0,0.0,7.67763,23.20479,4.23989,8.45,-1.05,0.12,2.0
1758078256.22453,1758078242.81086,0.0,0.0,0.0,8.42248,22.97561,2.86479,8.46,-0.24,0.46,2.0
1758078256.24295,1758078242.82086,0.0,0.0,0.0,8.02141,22.68913,0.11459,8.72,0.2,0.82,2.0
1758078256.24403,1758078242.83086,0.0,0.0,0.0,6.99009,22.51724,-1.3751,8.72,0.2,0.82,2.0
1758078256.25924,1758078242.84086,0.0,0.0,0.0,5.4431,22.74642,-2.6929,8.94,0.49,0.99,2.0
1758078256.26066,1758078242.85086,0.0,0.0,0.0,2.34913,23.31938,-3.95341,8.94,0.49,0.99,2.0
1758078256.27521,1758078242.86086,0.0,0.0,0.0,0.0573,24.29341,-4.52637,9.13,0.68,1.02,2.0
1758078256.29249,1758078242.87086,0.0,0.0,0.0,-2.06265,25.43933,-4.92744,9.13,0.68,1.02,2.0
1758078256.29368,1758078242.88086,0.0,0.0,0.0,-4.23989,26.81443,-5.32851,9.23,0.69,0.91,2.0
1758078256.30856,1758078242.89086,0.0,0.0,0.0,-6.87549,29.04896,-6.35983,9.23,0.69,0.91,2.0
1758078256.30944,1758078242.90086,0.0,0.0,0.0,-8.36518,30.53865,-7.39116,9.33,0.52,0.81,2.0
1758078256.32472,1758078242.91086,0.0,0.0,0.0,-9.5684,30.59595,-8.30789,9.28,0.27,0.8,2.0
1758078256.34029,1758078242.92086,0.0,0.0,0.0,-9.11003,29.10626,-8.70896,9.28,0.27,0.8,2.0
1758078256.34263,1758078242.93086,0.0,0.0,0.0,-8.42248,25.7831,-9.05273,9.07,0.0,0.85,2.0
1758078256.35761,1758078242.94086,0.0,0.0,0.0,-6.47442,22.57454,-8.99544,9.07,0.0,0.85,2.0
1758078256.35853,1758078242.95086,0.0,0.0,0.0,-3.83882,19.70975,-8.47978,9.02,-0.32,0.55,2.0
1758078256.3746,1758078242.96086,0.0,0.0,0.0,-0.34377,16.84496,-7.62034,9.02,-0.32,0.55,2.0
1758078256.39205,1758078242.97086,0.0,0.0,0.0,6.07335,10.19865,-5.78687,8.96,-0.78,0.36,2.0
1758078256.39333,1758078242.98086,0.0,0.0,0.0,11.00079,6.7609,-4.1253,8.81,-1.28,-0.07,2.0
1758078256.40859,1758078242.99086,0.0,0.0,0.0,15.98552,3.32316,-2.06265,8.81,-1.28,-0.07,2.0
1758078256.41035,1758078243.00086,0.0,0.0,0.0,21.31403,-0.11459,-0.57296,8.91,-1.6,-0.44,2.0
1758078256.42564,1758078243.01086,0.0,0.0,0.0,26.24147,-11.34457,1.3178,8.91,-1.6,-0.44,2.0
1758078256.44133,1758078243.02086,0.0,0.0,0.0,27.38738,-16.55848,0.97403,8.78,-1.39,-0.62,2.0
1758078256.44375,1758078243.03086,0.0,0.0,0.0,28.13223,-16.73037,1.03132,8.78,-1.39,-0.62,2.0
1758078256.45862,1758078243.04086,0.0,0.0,0.0,28.87707,-8.59437,3.66693,10.17,-0.82,-0.3,2.0
1758078256.46071,1758078243.05086,0.0,0.0,0.0,26.41335,8.36518,2.92208,11.29,-0.17,0.43,2.0
1758078256.47624,1758078243.06086,0.0,0.0,0.0,25.61122,-8.59437,-0.22918,11.29,-0.17,0.43,2.0
1758078256.49269,1758078243.07086,0.0,0.0,0.0,27.33009,-44.9199,2.11994,7.31,0.36,0.75,2.0
1758078256.49363,1758078243.08086,0.0,0.0,0.0,26.87172,-58.15522,9.4538,7.31,0.36,0.75,2.0
1758078256.50865,1758078243.09086,0.0,0.0,0.0,23.31938,-44.40423,9.5684,11.22,0.19,-0.82,2.0
1758078256.51041,1758078243.10086,0.0,0.0,0.0,22.11617,-30.82513,10.02676,11.22,0.19,-0.82,2.0
1758078256.52623,1758078243.11086,0.0,0.0,0.0,21.02755,-20.85567,8.30789,12.05,0.38,-2.09,2.0
1758078256.54247,1758078243.12086,0.0,0.0,0.0,17.81899,-9.11003,3.72423,12.05,0.38,0.43,2.0
1758078256.54363,1758078243.13086,0.0,0.0,0.0,14.66772,-5.15662,0.0,11.93,0.41,0.43,2.0
1758078256.55852,1758078243.14086,0.0,0.0,0.0,11.91752,-6.35983,-2.97938,12.7,0.63,1.93,2.0
1758078256.56076,1758078243.15086,0.0,0.0,0.0,8.65166,-8.36518,-4.18259,12.7,0.63,1.93,2.0
1758078256.57653,1758078243.16086,0.0,0.0,0.0,2.6929,-15.06879,-0.34377,12.73,1.05,2.62,2.0
1758078256.59272,1758078243.17086,0.0,0.0,0.0,-1.3751,-25.49662,4.23989,12.73,1.05,2.62,2.0
1758078256.59444,1758078243.18086,0.0,0.0,0.0,-4.35448,-37.12767,10.54242,12.27,1.08,3.38,2.0
1758078256.60951,1758078243.19086,0.0,0.0,0.0,-6.99009,-42.68536,15.87093,12.27,1.08,3.38,2.0
1758078256.61184,1758078243.20086,0.0,0.0,0.0,-8.93814,-37.87251,21.08485,13.13,0.63,3.17,2.0
1758078256.62645,1758078243.21086,0.0,0.0,0.0,-8.99544,-29.10626,21.6578,12.51,0.36,2.95,2.0
1758078256.62879,1758078243.22086,0.0,0.0,0.0,-8.0787,-19.70975,20.11082,12.51,0.36,2.95,2.0
1758078256.64875,1758078243.23086,0.0,0.0,0.0,-5.84417,-13.40721,18.10547,10.97,-0.14,3.61,2.0
1758078256.654,1758078243.24086,0.0,0.0,0.0,0.17189,-9.28192,14.78231,10.97,-0.14,3.61,2.0
1758078256.66882,1758078243.25086,0.0,0.0,0.0,6.87549,-8.42248,12.89155,10.58,-0.43,4.56,2.0
1758078256.67046,1758078243.26086,0.0,0.0,0.0,14.49583,-7.44845,11.28727,10.58,-0.43,4.56,2.0
1758078256.68578,1758078243.27086,0.0,0.0,0.0,25.72581,-5.21392,10.8862,11.89,-0.17,4.27,2.0
1758078256.70286,1758078243.28086,0.0,0.0,0.0,30.88243,3.26586,10.37054,13.21,0.42,3.32,2.0
1758078256.70368,1758078243.29086,0.0,0.0,0.0,34.32018,8.99544,10.37054,13.21,0.42,3.32,2.0
1758078256.71844,1758078243.30086,0.0,0.0,0.0,35.12231,15.58445,9.85487,12.05,0.82,2.52,2.0
1758078256.71965,1758078243.31086,0.0,0.0,0.0,33.17426,24.80907,9.11003,12.05,0.82,2.52,2.0
1758078256.73455,1758078243.32086,0.0,0.0,0.0,30.82513,28.30412,8.76626,10.29,0.71,1.66,2.0
1758078256.75183,1758078243.33086,0.0,0.0,0.0,28.01764,30.48136,8.93814,10.29,0.71,1.66,2.0
1758078256.75345,1758078243.34086,0.0,0.0,0.0,25.21014,32.42941,8.42248,9.1,0.59,1.19,2.0
1758078256.76891,1758078243.35086,0.0,0.0,0.0,21.42862,34.09099,6.99009,8.48,0.59,1.06,2.0
1758078256.77404,1758078243.36086,0.0,0.0,0.0,18.56383,33.68992,5.09932,8.48,0.82,1.06,2.0
1758078256.78881,1758078243.37086,0.0,0.0,0.0,15.69904,30.82513,3.03668,7.38,1.2,1.21,2.0
1758078256.79404,1758078243.38086,0.0,0.0,0.0,12.43318,26.12688,0.80214,7.38,1.2,1.21,2.0
1758078256.80859,1758078243.39086,0.0,0.0,0.0,7.21927,18.56383,-2.06265,6.51,1.46,1.33,2.0
1758078256.8138,1758078243.40086,0.0,0.0,0.0,3.89611,13.5791,-3.60963,6.51,1.46,1.33,2.0
1758078256.82854,1758078243.41086,0.0,0.0,0.0,0.45837,8.99544,-4.87014,6.28,1.54,1.01,2.0
1758078256.83326,1758078243.42086,0.0,0.0,0.0,-2.92208,5.72958,-5.78687,6.28,1.54,1.01,2.0
1758078256.84894,1758078243.43086,0.0,0.0,0.0,-7.21927,0.74485,-6.18794,6.78,1.49,1.05,2.0
1758078256.84976,1758078243.44086,0.0,0.0,0.0,-10.19865,-0.97403,-6.47442,7.68,1.38,1.32,2.0
1758078256.8678,1758078243.45086,0.0,0.0,0.0,-12.71966,-1.66158,-6.70361,7.68,1.38,1.32,2.0
1758078256.86898,1758078243.46086,0.0,0.0,0.0,-14.61043,-2.00535,-7.16197,8.66,1.2,1.35,2.0
1758078256.88717,1758078243.47086,0.0,0.0,0.0,-15.98552,-1.14592,-7.10468,8.66,1.2,1.35,2.0
1758078256.90341,1758078243.48086,0.0,0.0,0.0,-16.272,0.85944,-7.33386,9.34,0.83,1.06,2.0
1758078256.9081,1758078243.49086,0.0,0.0,0.0,-15.35527,3.89611,-6.47442,9.34,0.83,1.06,2.0
1758078256.92373,1758078243.50086,0.0,0.0,0.0,-13.23533,11.17268,-5.95876,9.8,0.34,0.81,2.0
1758078256.92783,1758078243.51086,0.0,0.0,0.0,-11.22997,14.78231,-5.55769,9.97,-0.09,0.62,2.0
1758078256.94347,1758078243.52086,0.0,0.0,0.0,-8.47978,17.93358,-4.87014,9.97,-0.09,0.62,2.0
1758078256.94812,1758078243.53086,0.0,0.0,0.0,-5.78687,20.34,-4.18259,10.08,-0.38,0.42,2.0
1758078256.96268,1758078243.54086,0.0,0.0,0.0,-1.08862,22.51724,-2.00535,10.08,-0.38,0.42,2.0
1758078256.96385,1758078243.55086,0.0,0.0,0.0,1.20321,24.92367,-0.34377,10.14,-0.63,0.25,2.0
1758078256.97882,1758078243.56086,0.0,0.0,0.0,2.86479,29.22085,0.51566,10.14,-0.63,0.25,2.0
1758078256.98067,1758078243.57086,0.0,0.0,0.0,3.55234,34.0337,1.77617,10.28,-0.67,0.47,2.0
1758078256.99752,1758078243.58086,0.0,0.0,0.0,3.72423,38.61736,3.89611,9.95,-0.45,0.54,2.0
1758078257.01374,1758078243.59086,0.0,0.0,0.0,3.03668,38.73195,4.98473,9.95,-0.45,0.54,2.0
1758078257.01705,1758078243.60086,0.0,0.0,0.0,1.3178,35.75257,5.32851,9.46,-0.01,1.01,2.0
1758078257.03268,1758078243.61086,0.0,0.0,0.0,-1.20321,31.74186,5.21392,9.46,-0.01,1.01,2.0
1758078257.03388,1758078243.62086,0.0,0.0,0.0,-6.99009,24.00693,3.66693,9.03,0.71,0.68,2.0
1758078257.049,1758078243.63086,0.0,0.0,0.0,-11.34457,18.73572,1.77617,9.03,0.71,0.68,2.0
1758078257.05313,1758078243.64086,0.0,0.0,0.0,-15.35527,10.31324,0.0,8.26,1.47,0.36,2.0
1758078257.06899,1758078243.65086,0.0,0.0,0.0,-18.79302,-4.0107,-1.71887,8.26,1.47,0.36,2.0
1758078257.07386,1758078243.66086,0.0,0.0,0.0,-22.11617,-26.87172,-3.83882,7.24,1.9,-0.07,2.0
1758078257.08872,1758078243.67086,0.0,0.0,0.0,-24.5226,-40.45082,-5.72958,7.68,1.67,-1.11,2.0
1758078257.09422,1758078243.68086,0.0,0.0,0.0,-26.75713,-48.58683,-6.7609,7.68,1.67,-1.11,2.0
1758078257.10879,1758078243.69086,0.0,0.0,0.0,-26.98631,-46.69606,-8.47978,9.95,1.29,-1.04,2.0
1758078257.10991,1758078243.70086,0.0,0.0,0.0,-28.99167,-21.02755,-10.59972,9.95,1.29,-1.04,2.0
1758078257.12634,1758078243.71086,0.0,0.0,0.0,-32.08564,-35.86716,-14.32395,11.93,0.93,0.87,2.0
1758078257.14387,1758078243.72086,0.0,0.0,0.0,-35.92446,-50.53488,-14.38124,11.93,0.93,0.87,2.0
1758078257.14583,1758078243.73086,0.0,0.0,0.0,-40.50812,-45.09178,-16.50119,10.74,0.85,0.67,2.0
1758078257.16276,1758078243.74086,0.0,0.0,0.0,-43.4875,-36.95578,-15.35527,12.85,0.86,-0.15,2.0
1758078257.16392,1758078243.75086,0.0,0.0,0.0,-44.40423,-28.70519,-12.14671,12.85,0.86,-0.15,2.0
1758078257.17875,1758078243.76086,0.0,0.0,0.0,-43.20102,-20.97026,-7.84952,12.24,-0.1,0.27,2.0
1758078257.18019,1758078243.77086,0.0,0.0,0.0,-38.38818,-16.50119,-0.68755,12.24,-0.1,0.27,2.0
1758078257.19664,1758078243.78086,0.0,0.0,0.0,-34.14828,-18.73572,3.38045,12.22,-1.31,1.18,2.0
1758078257.21209,1758078243.79086,0.0,0.0,0.0,-29.39274,-22.68913,5.78687,12.22,-1.31,1.18,2.0
1758078257.21333,1758078243.80086,0.0,0.0,0.0,-24.86637,-26.69983,4.87014,12.17,-1.91,1.35,2.0
1758078257.23018,1758078243.81086,0.0,0.0,0.0,-16.38659,-35.06502,2.46372,13.19,-1.67,2.55,2.0
1758078257.23291,1758078243.82086,0.0,0.0,0.0,-11.00079,-39.53409,-0.68755,13.19,-1.67,2.55,2.0
1758078257.2481,1758078243.83086,0.0,0.0,0.0,-5.72958,-39.70598,-2.6929,13.52,-0.5,4.15,2.0
1758078257.24897,1758078243.84086,0.0,0.0,0.0,-2.34913,-43.60209,-4.35448,13.52,-0.5,4.15,2.0
1758078257.26595,1758078243.85086,0.0,0.0,0.0,-2.40642,-48.24305,-7.50575,11.32,0.92,4.73,2.0
1758078257.28305,1758078243.86086,0.0,0.0,0.0,-5.84417,-45.60744,-8.59437,11.32,0.92,4.73,2.0
1758078257.28434,1758078243.87086,0.0,0.0,0.0,-12.14671,-40.7946,-7.96411,9.98,1.92,4.5,2.0
1758078257.29893,1758078243.88086,0.0,0.0,0.0,-20.62648,-36.6693,-6.07335,9.98,1.92,4.5,2.0
1758078257.30247,1758078243.89086,0.0,0.0,0.0,-34.26288,-30.48136,-5.55769,8.89,2.48,3.63,2.0
1758078257.31883,1758078243.90086,0.0,0.0,0.0,-42.1124,-24.80907,-5.84417,9.86,2.79,3.22,2.0
1758078257.32002,1758078243.91086,0.0,0.0,0.0,-48.64412,-17.99088,-5.72958,9.86,2.79,3.22,2.0
1758078257.33881,1758078243.92086,0.0,0.0,0.0,-55.40502,-9.05273,-5.84417,10.63,2.58,2.46,2.0
1758078257.34277,1758078243.93086,0.0,0.0,0.0,-58.3844,-2.7502,-6.24524,10.63,2.58,2.46,2.0
1758078257.35886,1758078243.94086,0.0,0.0,0.0,-59.70221,2.46372,-7.33386,10.3,1.91,1.9,2.0
1758078257.3601,1758078243.95086,0.0,0.0,0.0,-59.64491,4.98473,-8.0787,10.3,1.91,1.9,2.0
1758078257.37829,1758078243.96086,0.0,0.0,0.0,-56.952,8.02141,-9.28192,9.66,1.08,1.76,2.0
1758078257.37922,1758078243.97086,0.0,0.0,0.0,-53.51426,9.85487,-9.05273,9.58,0.0,1.64,2.0
1758078257.39675,1758078243.98086,0.0,0.0,0.0,-49.21708,10.59972,-7.84952,9.58,0.0,1.64,2.0
1758078257.41216,1758078243.99086,0.0,0.0,0.0,-44.40423,13.00614,-6.35983,9.51,-1.22,0.98,2.0
1758078257.4135,1758078244.00086,0.0,0.0,0.0,-35.98175,17.13144,-3.89611,9.51,-1.22,0.98,2.0
1758078257.42795,1758078244.01086,0.0,0.0,0.0,-30.36677,18.9649,-2.06265,9.31,-1.91,0.75,2.0
1758078257.43152,1758078244.02086,0.0,0.0,0.0,-25.09555,20.85567,-0.40107,9.31,-1.91,0.75,2.0
1758078257.44923,1758078244.03086,0.0,0.0,0.0,-19.76705,23.0902,1.08862,8.8,-1.95,0.28,2.0
1758078257.45356,1758078244.04086,0.0,0.0,0.0,-12.71966,24.12152,3.09397,8.58,-1.54,0.22,2.0
1758078257.4692,1758078244.05086,0.0,0.0,0.0,-8.59437,24.23611,4.18259,8.58,-1.54,0.22,2.0
1758078257.47009,1758078244.06086,0.0,0.0,0.0,-4.81285,24.5226,4.46907,8.58,-1.01,0.29,2.0
1758078257.48674,1758078244.07086,0.0,0.0,0.0,-1.83346,24.86637,4.1253,8.58,-1.01,0.29,2.0
1758078257.50193,1758078244.08086,0.0,0.0,0.0,0.97403,25.26744,2.46372,8.58,-0.36,0.4,2.0
1758078257.50434,1758078244.09086,0.0,0.0,0.0,1.71887,25.09555,0.97403,8.58,-0.36,0.4,2.0
1758078257.51891,1758078244.10086,0.0,0.0,0.0,1.83346,24.17882,-0.45837,8.46,0.02,0.65,2.0
1758078257.52096,1758078244.11086,0.0,0.0,0.0,1.20321,22.40265,-2.97938,8.46,0.02,0.65,2.0
1758078257.53873,1758078244.12086,0.0,0.0,0.0,0.17189,20.85567,-4.52637,8.38,0.26,0.77,2.0
1758078257.5399,1758078244.13086,0.0,0.0,0.0,-0.97403,18.9649,-5.50039,8.45,0.43,0.79,2.0
1758078257.55684,1758078244.14086,0.0,0.0,0.0,-2.29183,16.67307,-6.18794,8.45,0.43,0.79,2.0
1758078257.572,1758078244.15086,0.0,0.0,0.0,-3.89611,13.12073,-6.7609,8.54,0.49,0.77,2.0
1758078257.57348,1758078244.16086,0.0,0.0,0.0,-4.64096,11.80293,-6.87549,8.54,0.49,0.77,2.0
1758078257.58836,1758078244.17086,0.0,0.0,0.0,-5.09932,10.19865,-6.8182,8.84,0.39,0.69,2.0
1758078257.59029,1758078244.18086,0.0,0.0,0.0,-4.92744,9.5684,-6.47442,8.84,0.39,0.69,2.0
1758078257.60929,1758078244.19086,0.0,0.0,0.0,-3.83882,16.61578,-5.50039,9.18,0.14,0.62,2.0
1758078257.61096,1758078244.20086,0.0,0.0,0.0,-2.00535,22.05888,-4.92744,9.8,-0.21,0.66,2.0
1758078257.62624,1758078244.21086,0.0,0.0,0.0,0.34377,23.66316,-4.23989,9.8,-0.21,0.66,2.0
1758078257.64297,1758078244.22086,0.0,0.0,0.0,2.97938,20.51189,-3.83882,9.1,-0.43,0.96,2.0
1758078257.64421,1758078244.23086,0.0,0.0,0.0,8.0787,12.89155,-2.23454,9.1,-0.43,0.96,2.0
1758078257.65896,1758078244.24086,0.0,0.0,0.0,12.08941,8.42248,-1.03132,8.89,-0.67,0.33,2.0
1758078257.66341,1758078244.25086,0.0,0.0,0.0,16.73037,3.60963,0.51566,8.89,-0.67,0.33,2.0
1758078257.67897,1758078244.26086,0.0,0.0,0.0,21.7724,-1.14592,1.94806,8.85,-1.03,-0.47,2.0
1758078257.68099,1758078244.27086,0.0,0.0,0.0,29.22085,-9.74028,3.60963,8.73,-1.4,-0.86,2.0
1758078257.698,1758078244.28086,0.0,0.0,0.0,33.05967,-18.10547,4.58366,8.73,-1.4,-0.86,2.0
1758078257.6992,1758078244.29086,0.0,0.0,0.0,34.89313,-21.94428,3.60963,8.85,-1.29,-1.17,2.0
1758078257.71684,1758078244.30086,0.0,0.0,0.0,36.49741,-22.34536,3.95341,8.85,-1.29,-1.17,2.0
1758078257.7194,1758078244.31086,0.0,0.0,0.0,37.12767,-8.70896,5.4431,10.53,-0.68,-0.83,2.0
1758078257.73665,1758078244.32086,0.0,0.0,0.0,34.60666,2.7502,6.41713,10.53,-0.68,-0.83,2.0
1758078257.7523,1758078244.33086,0.0,0.0,0.0,33.40344,-0.68755,4.81285,11.06,0.04,0.3,2.0
1758078257.75321,1758078244.34086,0.0,0.0,0.0,35.2942,-48.30034,3.55234,11.06,0.04,0.3,2.0
1758078257.76805,1758078244.35086,0.0,0.0,0.0,34.89313,-61.24919,8.25059,7.59,0.56,-0.27,2.0
1758078257.77003,1758078244.36086,0.0,0.0,0.0,32.20023,-47.44091,9.62569,11.71,-0.04,-1.9,2.0
1758078257.78597,1758078244.37086,0.0,0.0,0.0,31.39809,-34.26288,10.65701,11.71,-0.04,-1.9,2.0
1758078257.8031,1758078244.38086,0.0,0.0,0.0,30.19488,-21.37133,8.136,11.43,-0.08,-2.15,2.0
1758078257.80406,1758078244.39086,0.0,0.0,0.0,28.476,-14.38124,5.4431,11.43,-0.08,-2.15,2.0
1758078257.81907,1758078244.40086,0.0,0.0,0.0,26.87172,-9.91217,2.6929,11.96,0.32,0.79,2.0
1758078257.82303,1758078244.41086,0.0,0.0,0.0,25.26744,-9.5684,0.22918,11.96,0.32,0.79,2.0
1758078257.83812,1758078244.42086,0.0,0.0,0.0,21.02755,-11.86023,-1.60428,13.37,1.2,1.22,2.0
1758078257.83925,1758078244.43086,0.0,0.0,0.0,16.95955,-14.20935,0.11459,13.06,1.98,2.1,2.0
1758078257.85705,1758078244.44086,0.0,0.0,0.0,13.00614,-23.66316,4.0107,13.06,1.98,2.1,2.0
1758078257.87337,1758078244.45086,0.0,0.0,0.0,10.59972,-35.06502,10.31324,12.34,1.33,2.53,2.0
1758078257.87431,1758078244.46086,0.0,0.0,0.0,7.10468,-39.13302,17.47521,12.34,1.33,2.53,2.0
1758078257.8935,1758078244.47086,0.0,0.0,0.0,5.50039,-37.52874,20.34,13.79,0.26,2.27,2.0
1758078257.89825,1758078244.48086,0.0,0.0,0.0,5.27121,-33.68992,21.7151,13.79,0.26,2.27,2.0
1758078257.91336,1758078244.49086,0.0,0.0,0.0,5.61499,-27.44468,20.22541,12.89,-0.16,2.74,2.0
1758078257.91599,1758078244.50086,0.0,0.0,0.0,8.99544,-20.22541,16.73037,10.76,-0.27,3.25,2.0
1758078257.9323,1758078244.51086,0.0,0.0,0.0,13.75099,-16.67307,13.86558,10.76,-0.27,3.25,2.0
1758078257.93425,1758078244.52086,0.0,0.0,0.0,20.51189,-15.24068,11.28727,9.72,-0.26,3.72,2.0
1758078257.94987,1758078244.53086,0.0,0.0,0.0,34.32018,-14.32395,9.05273,9.72,-0.26,3.72,2.0
1758078257.95832,1758078244.54086,0.0,0.0,0.0,43.20102,-9.4538,8.42248,10.8,0.0,3.16,2.0
1758078257.97346,1758078244.55086,0.0,0.0,0.0,50.3057,-3.20856,7.96411,10.8,0.0,3.16,2.0
1758078257.97793,1758078244.56086,0.0,0.0,0.0,55.34772,2.00535,7.44845,12.43,0.3,2.49,2.0
1758078257.99793,1758078244.57086,0.0,0.0,0.0,57.46767,9.96947,6.24524,12.43,0.3,2.49,2.0
1758078258.00074,1758078244.58086,0.0,0.0,0.0,55.86338,16.3293,5.84417,11.7,0.53,2.02,2.0
1758078258.00293,1758078244.59086,0.0,0.0,0.0,52.42564,22.97561,6.07335,10.58,0.76,1.49,2.0
1758078258.0192,1758078244.60086,0.0,0.0,0.0,48.01387,28.41871,6.35983,10.58,0.76,1.49,2.0
1758078258.02037,1758078244.61086,0.0,0.0,0.0,40.85189,33.46074,5.61499,9.5,1.01,0.85,2.0
1758078258.03555,1758078244.62086,0.0,0.0,0.0,36.21093,34.77854,4.92744,9.5,1.01,0.85,2.0
1758078258.0538,1758078244.63086,0.0,0.0,0.0,31.74186,35.75257,3.60963,8.56,1.42,0.83,2.0
1758078258.08292,1758078244.64086,0.0,0.0,0.0,27.67386,36.89849,2.29183,8.56,1.42,0.83,2.0
1758078258.08351,1758078244.65086,0.0,0.0,0.0,21.60051,37.01308,0.0,7.96,1.75,0.95,2.0
1758078258.08869,1758078244.66086,0.0,0.0,0.0,17.53251,35.92446,-1.48969,7.47,1.94,1.08,2.0
1758078258.09014,1758078244.67086,0.0,0.0,0.0,13.75099,33.05967,-2.63561,7.47,1.94,1.08,2.0
1758078258.09222,1758078244.68086,0.0,0.0,0.0,10.19865,29.27814,-3.38045,7.17,1.97,1.06,2.0
1758078258.10723,1758078244.69086,0.0,0.0,0.0,5.4431,22.11617,-3.95341,7.17,1.97,1.06,2.0
1758078258.11027,1758078244.70086,0.0,0.0,0.0,2.34913,19.53786,-4.29718,7.42,1.81,1.02,2.0
1758078258.14843,1758078244.71086,0.0,0.0,0.0,-0.34377,18.27736,-4.87014,7.42,1.81,1.02,2.0
1758078258.15096,1758078244.72086,0.0,0.0,0.0,-2.63561,16.90226,-5.15662,8.01,1.45,1.2,2.0
1758078258.15395,1758078244.73086,0.0,0.0,0.0,-5.15662,13.69369,-5.21392,8.27,1.13,1.15,2.0
1758078258.15758,1758078244.74086,0.0,0.0,0.0,-6.07335,12.2613,-4.98473,8.27,1.13,1.15,2.0
1758078258.17354,1758078244.75086,0.0,0.0,0.0,-6.07335,11.22997,-4.87014,8.81,0.81,0.9,2.0
1758078258.17717,1758078244.76086,0.0,0.0,0.0,-4.81285,11.74564,-4.29718,8.81,0.81,0.9,2.0
1758078258.19416,1758078244.77086,0.0,0.0,0.0,-3.20856,12.89155,-3.83882,9.41,0.43,0.65,2.0
1758078258.19856,1758078244.78086,0.0,0.0,0.0,-0.80214,13.80828,-3.32316,9.41,0.43,0.65,2.0
1758078258.21899,1758078244.79086,0.0,0.0,0.0,1.71887,14.78231,-2.40642,9.68,0.08,0.67,2.0
1758078258.22039,1758078244.80086,0.0,0.0,0.0,5.32851,17.47521,-0.57296,9.97,0.08,0.61,2.0
1758078258.22307,1758078244.81086,0.0,0.0,0.0,6.87549,18.9649,-0.22918,9.97,-0.13,0.61,2.0
1758078258.24035,1758078244.82086,0.0,0.0,0.0,7.62034,22.28806,0.22918,10.04,-0.1,0.62,2.0
1758078258.2432,1758078244.83086,0.0,0.0,0.0,7.96411,27.84575,1.14592,10.04,-0.1,0.62,2.0
1758078258.25857,1758078244.84086,0.0,0.0,0.0,7.44845,36.7266,2.29183,10.26,0.12,0.29,2.0
1758078258.2595,1758078244.85086,0.0,0.0,0.0,6.53172,39.87786,3.55234,10.26,0.12,0.29,2.0
1758078258.2763,1758078244.86086,0.0,0.0,0.0,4.87014,41.76862,4.29718,9.89,0.42,0.65,2.0
1758078258.29318,1758078244.87086,0.0,0.0,0.0,2.40642,41.25296,4.87014,9.89,0.42,0.65,2.0
1758078258.29381,1758078244.88086,0.0,0.0,0.0,-2.57831,37.47144,4.64096,9.51,0.8,0.64,2.0
1758078258.30065,1758078244.89086,0.0,0.0,0.0,-7.04738,34.0337,3.32316,9.2,1.25,0.51,2.0
1758078258.3181,1758078244.90086,0.0,0.0,0.0,-11.91752,27.67386,2.11994,9.2,1.25,0.51,2.0
1758078258.31934,1758078244.91086,0.0,0.0,0.0,-16.04282,16.10011,1.20321,8.46,1.66,0.0,2.0
1758078258.33666,1758078244.92086,0.0,0.0,0.0,-20.3973,-4.81285,0.34377,8.46,1.66,0.0,2.0
1758078258.35318,1758078244.93086,0.0,0.0,0.0,-23.94964,-16.10011,-0.0573,7.99,1.82,-1.03,2.0
1758078258.35374,1758078244.94086,0.0,0.0,0.0,-27.50197,-24.4653,-1.08862,7.99,1.82,-1.03,2.0
1758078258.37364,1758078244.95086,0.0,0.0,0.0,-33.05967,-7.79223,-1.14592,9.37,1.75,-1.12,2.0
1758078258.37402,1758078244.96086,0.0,0.0,0.0,-34.60666,13.5218,-5.21392,12.54,1.66,-0.6,2.0
1758078258.39268,1758078244.97086,0.0,0.0,0.0,-33.86181,-8.88085,-9.11003,12.54,1.66,-0.6,2.0
1758078258.39316,1758078244.98086,0.0,0.0,0.0,-38.61736,-29.04896,-14.20935,8.78,1.9,0.65,2.0
1758078258.40864,1758078244.99086,0.0,0.0,0.0,-42.57077,-39.99245,-22.74642,8.78,1.9,0.65,2.0
1758078258.41388,1758078245.00086,0.0,0.0,0.0,-44.00316,-36.61201,-25.72581,11.87,2.25,0.69,2.0
1758078258.43342,1758078245.01086,0.0,0.0,0.0,-43.54479,-30.82513,-24.92367,11.87,2.25,0.69,2.0
1758078258.43802,1758078245.02086,0.0,0.0,0.0,-41.76862,-23.26209,-22.00158,12.09,1.8,-2.19,2.0
1758078258.45367,1758078245.03086,0.0,0.0,0.0,-36.49741,-13.40721,-16.95955,11.91,0.2,0.07,2.0
1758078258.45405,1758078245.04086,0.0,0.0,0.0,-30.88243,-9.28192,-13.40721,11.91,0.2,0.07,2.0
1758078258.47346,1758078245.05086,0.0,0.0,0.0,-24.00693,-8.136,-8.93814,11.59,-1.8,0.0,2.0
1758078258.47401,1758078245.06086,0.0,0.0,0.0,-17.6471,-8.36518,-5.09932,11.59,-1.8,0.0,2.0
1758078258.51734,1758078245.07086,0.0,0.0,0.0,-9.28192,-16.95955,-2.6929,11.15,-2.82,1.3,2.0
1758078258.51769,1758078245.08086,0.0,0.0,0.0,-4.23989,-25.49662,-2.86479,11.15,-2.82,1.3,2.0
1758078258.51846,1758078245.09086,0.0,0.0,0.0,1.14592,-32.20023,-3.20856,11.11,-2.47,1.73,2.0
1758078258.52042,1758078245.10086,0.0,0.0,0.0,6.87549,-39.13302,-3.66693,11.11,-2.47,1.73,2.0
1758078258.52115,1758078245.11086,0.0,0.0,0.0,14.66772,-49.61814,-4.92744,12.15,-1.33,2.12,2.0
1758078258.53845,1758078245.12086,0.0,0.0,0.0,18.50654,-55.51962,-5.50039,11.75,0.13,3.22,2.0
1758078258.54075,1758078245.13086,0.0,0.0,0.0,20.74107,-58.21251,-5.78687,11.75,0.13,3.22,2.0
1758078258.55879,1758078245.14086,0.0,0.0,0.0,19.53786,-57.46767,-5.72958,10.33,1.29,3.72,2.0
1758078258.56073,1758078245.15086,0.0,0.0,0.0,15.64175,-50.1911,-5.27121,10.33,1.29,3.72,2.0
1758078258.57897,1758078245.16086,0.0,0.0,0.0,9.74028,-44.748,-5.15662,9.83,1.87,4.84,2.0
1758078258.58307,1758078245.17086,0.0,0.0,0.0,1.77617,-39.4768,-5.50039,9.83,1.87,4.84,2.0
1758078258.62857,1758078245.18086,0.0,0.0,0.0,-11.17268,-32.54401,-6.58902,10.52,2.29,5.29,2.0
1758078258.63387,1758078245.19086,0.0,0.0,0.0,-19.42327,-27.61657,-6.7609,11.49,2.6,4.54,2.0
1758078258.63685,1758078245.20086,0.0,0.0,0.0,-26.98631,-22.63183,-6.87549,11.49,2.6,4.54,2.0
1758078258.63933,1758078245.21086,0.0,0.0,0.0,-33.63263,-16.67307,-7.67763,11.15,2.49,2.48,2.0
1758078258.64114,1758078245.22086,0.0,0.0,0.0,-42.34158,-7.04738,-9.62569,11.15,2.49,2.48,2.0
1758078258.64367,1758078245.23086,0.0,0.0,0.0,-46.2377,-1.66158,-11.74564,10.32,1.86,1.72,2.0
1758078258.6593,1758078245.24086,0.0,0.0,0.0,-48.07116,2.97938,-13.34992,10.32,1.86,1.72,2.0
1758078258.66049,1758078245.25086,0.0,0.0,0.0,-47.61279,7.44845,-14.43854,9.81,0.92,1.82,2.0
1758078258.6766,1758078245.26086,0.0,0.0,0.0,-43.20102,14.38124,-14.61043,9.83,-0.17,1.67,2.0
1758078258.6783,1758078245.27086,0.0,0.0,0.0,-38.1017,20.51189,-12.71966,9.83,-0.17,1.67,2.0
1758078258.6942,1758078245.28086,0.0,0.0,0.0,-31.79916,26.01229,-9.5684,9.61,-1.02,1.21,2.0
1758078258.71262,1758078245.29086,0.0,0.0,0.0,-24.98096,28.59059,-5.21392,9.61,-1.02,1.21,2.0
1758078258.71374,1758078245.30086,0.0,0.0,0.0,-15.0115,31.11161,1.08862,8.63,-1.55,0.32,2.0
1758078258.72882,1758078245.31086,0.0,0.0,0.0,-8.93814,33.23156,4.35448,8.63,-1.55,0.32,2.0
1758078258.73407,1758078245.32086,0.0,0.0,0.0,-3.03668,33.9764,7.44845,8.43,-1.84,-0.09,2.0
1758078258.75098,1758078245.33086,0.0,0.0,0.0,2.23454,33.23156,9.33921,8.43,-1.84,-0.09,2.0
1758078258.75862,1758078245.34086,0.0,0.0,0.0,8.42248,29.8511,10.54242,8.13,-1.73,-0.11,2.0
1758078258.76264,1758078245.35086,0.0,0.0,0.0,11.57375,27.33009,10.31324,8.16,-1.12,0.09,2.0
1758078258.77859,1758078245.36086,0.0,0.0,0.0,13.80828,25.72581,9.33921,8.16,-1.12,0.09,2.0
1758078258.77977,1758078245.37086,0.0,0.0,0.0,15.75634,23.0329,7.73493,8.5,-0.37,0.25,2.0
1758078258.79784,1758078245.38086,0.0,0.0,0.0,16.272,22.51724,6.35983,8.5,-0.37,0.25,2.0
1758078258.7989,1758078245.39086,0.0,0.0,0.0,15.92823,22.23076,4.81285,8.75,0.14,0.48,2.0
1758078258.81767,1758078245.40086,0.0,0.0,0.0,15.0115,21.37133,3.38045,8.75,0.14,0.48,2.0
1758078258.81879,1758078245.41086,0.0,0.0,0.0,12.89155,21.42862,1.66158,8.7,0.53,0.6,2.0
1758078258.83795,1758078245.42086,0.0,0.0,0.0,11.34457,22.63183,0.57296,8.83,0.76,0.61,2.0
1758078258.83873,1758078245.43086,0.0,0.0,0.0,9.96947,24.23611,-0.11459,8.83,0.76,0.61,2.0
1758078258.85391,1758078245.44086,0.0,0.0,0.0,8.47978,25.72581,-0.68755,9.02,0.76,0.52,2.0
1758078258.85881,1758078245.45086,0.0,0.0,0.0,6.7609,27.2155,-2.00535,9.02,0.76,0.52,2.0
1758078258.87648,1758078245.46086,0.0,0.0,0.0,6.13065,27.96034,-3.03668,9.1,0.57,0.48,2.0
1758078258.8784,1758078245.47086,0.0,0.0,0.0,6.18794,28.76248,-3.60963,9.1,0.57,0.48,2.0
1758078258.89845,1758078245.48086,0.0,0.0,0.0,7.10468,28.59059,-3.38045,9.25,0.28,0.67,2.0
1758078258.90098,1758078245.49086,0.0,0.0,0.0,8.88085,29.22085,-4.0107,9.36,-0.07,0.5,2.0
1758078258.91674,1758078245.50086,0.0,0.0,0.0,10.94349,27.33009,-4.23989,9.36,-0.07,0.5,2.0
1758078258.91763,1758078245.51086,0.0,0.0,0.0,14.03747,24.12152,-3.55234,9.12,-0.42,0.89,2.0
1758078258.93425,1758078245.52086,0.0,0.0,0.0,17.36062,21.02755,-2.97938,9.12,-0.42,0.89,2.0
1758078258.93882,1758078245.53086,0.0,0.0,0.0,24.35071,14.32395,-0.68755,9.04,-0.83,0.58,2.0
1758078258.9568,1758078245.54086,0.0,0.0,0.0,30.19488,9.39651,1.03132,9.04,-0.83,0.58,2.0
1758078258.95795,1758078245.55086,0.0,0.0,0.0,36.7266,5.55769,3.09397,9.04,-1.33,-0.02,2.0
1758078258.97398,1758078245.56086,0.0,0.0,0.0,46.40959,1.14592,6.24524,9.04,-1.33,-0.02,2.0
1758078258.97836,1758078245.57086,0.0,0.0,0.0,51.45161,-11.74564,6.70361,9.0,-1.74,-0.83,2.0
1758078258.99395,1758078245.58086,0.0,0.0,0.0,56.66553,-16.55848,8.30789,9.14,-1.8,-1.18,2.0
1758078259.01242,1758078245.59086,0.0,0.0,0.0,59.12925,-14.43854,7.96411,9.14,-1.8,-1.18,2.0
1758078259.0176,1758078245.60086,0.0,0.0,0.0,62.56699,0.51566,11.00079,10.98,-1.46,-0.83,2.0
1758078259.0182,1758078245.61086,0.0,0.0,0.0,61.93674,6.41713,10.19865,10.98,-1.46,-0.83,2.0
1758078259.03395,1758078245.62086,0.0,0.0,0.0,62.85347,-23.20479,9.33921,10.0,-1.15,0.2,2.0
1758078259.0389,1758078245.63086,0.0,0.0,0.0,70.53111,-60.50434,12.37589,10.0,-1.15,0.2,2.0
1758078259.05695,1758078245.64086,0.0,0.0,0.0,69.95815,-64.11398,19.25138,7.58,-0.96,-0.8,2.0
1758078259.06065,1758078245.65086,0.0,0.0,0.0,68.86953,-44.11775,18.79302,13.45,-0.61,-1.79,2.0
1758078259.07678,1758078245.66086,0.0,0.0,0.0,68.35387,-30.99702,18.56383,13.45,-0.61,-1.79,2.0
1758078259.0777,1758078245.67086,0.0,0.0,0.0,65.03072,-23.60586,15.46986,13.02,0.72,-1.7,2.0
1758078259.09374,1758078245.68086,0.0,0.0,0.0,56.26446,-18.16276,11.97482,13.02,0.72,-1.7,2.0
1758078259.09883,1758078245.69086,0.0,0.0,0.0,50.47758,-21.08485,9.96947,13.2,1.63,2.77,2.0
1758078259.11656,1758078245.70086,0.0,0.0,0.0,45.20637,-29.10626,8.36518,13.2,1.63,2.77,2.0
1758078259.11858,1758078245.71086,0.0,0.0,0.0,39.82057,-38.84654,9.85487,11.77,1.98,2.16,2.0
1758078259.13711,1758078245.72086,0.0,0.0,0.0,33.23156,-51.90998,16.84496,12.61,2.14,3.9,2.0
1758078259.1471,1758078245.73086,0.0,0.0,0.0,30.25217,-53.05589,21.6578,12.61,2.14,3.9,2.0
1758078259.14767,1758078245.74086,0.0,0.0,0.0,27.96034,-49.33167,24.75178,14.22,2.07,3.4,2.0
1758078259.16423,1758078245.75086,0.0,0.0,0.0,26.06958,-42.05511,26.64254,14.22,2.07,3.4,2.0
1758078259.18008,1758078245.76086,0.0,0.0,0.0,25.38203,-31.56997,26.24147,13.3,1.78,5.07,2.0
1758078259.18208,1758078245.77086,0.0,0.0,0.0,27.73116,-27.96034,25.49662,13.3,1.78,5.07,2.0
1758078259.19707,1758078245.78086,0.0,0.0,0.0,31.79916,-22.57454,23.60586,11.56,1.08,5.16,2.0
1758078259.19793,1758078245.79086,0.0,0.0,0.0,40.62271,-14.38124,18.16276,11.56,1.08,5.16,2.0
1758078259.21383,1758078245.80086,0.0,0.0,0.0,48.9306,-11.51645,14.49583,11.49,0.35,4.58,2.0
1758078259.21815,1758078245.81086,0.0,0.0,0.0,56.89471,-7.62034,11.17268,12.29,0.31,2.64,2.0
1758078259.23409,1758078245.82086,0.0,0.0,0.0,63.02536,0.45837,8.47978,12.29,0.31,2.64,2.0
1758078259.25367,1758078245.83086,0.0,0.0,0.0,67.66632,14.43854,5.27121,13.21,0.84,1.92,2.0
1758078259.27442,1758078245.84086,0.0,0.0,0.0,67.9528,22.97561,4.18259,13.21,0.84,1.92,2.0
1758078259.27664,1758078245.85086,0.0,0.0,0.0,65.66096,33.00237,3.55234,11.38,1.24,1.43,2.0
1758078259.27759,1758078245.86086,0.0,0.0,0.0,61.65026,41.13837,3.72423,11.38,1.24,1.43,2.0
1758078259.27817,1758078245.87086,0.0,0.0,0.0,53.74345,46.63877,3.60963,9.87,1.24,1.21,2.0
1758078259.29397,1758078245.88086,0.0,0.0,0.0,48.07116,48.8733,3.72423,8.61,1.15,0.92,2.0
1758078259.31376,1758078245.89086,0.0,0.0,0.0,42.05511,50.13381,3.03668,8.61,1.15,0.92,2.0
1758078259.31814,1758078245.90086,0.0,0.0,0.0,36.21093,49.84733,2.29183,7.78,1.3,0.69,2.0
1758078259.31865,1758078245.91086,0.0,0.0,0.0,27.61657,45.37826,0.40107,7.78,1.3,0.69,2.0
1758078259.36389,1758078245.92086,0.0,0.0,0.0,21.48592,41.31026,-1.3751,6.74,1.72,0.83,2.0
1758078259.36874,1758078245.93086,0.0,0.0,0.0,15.87093,36.21093,-2.6929,6.74,1.72,0.83,2.0
1758078259.37094,1758078245.94086,0.0,0.0,0.0,9.68299,31.56997,-4.1253,6.17,2.1,1.02,2.0
1758078259.3722,1758078245.95086,0.0,0.0,0.0,0.85944,25.09555,-4.92744,6.21,2.38,1.18,2.0
1758078259.37396,1758078245.96086,0.0,0.0,0.0,-4.87014,20.74107,-5.50039,6.21,2.38,1.18,2.0
1758078259.37886,1758078245.97086,0.0,0.0,0.0,-10.8289,16.95955,-6.70361,6.65,2.46,1.39,2.0
1758078259.39863,1758078245.98086,0.0,0.0,0.0,-18.73572,14.03747,-8.30789,6.65,2.46,1.39,2.0
1758078259.3995,1758078245.99086,0.0,0.0,0.0,-22.91831,10.19865,-8.88085,7.51,2.24,1.45,2.0
1758078259.4168,1758078246.00086,0.0,0.0,0.0,-26.24147,8.88085,-9.05273,7.51,2.24,1.45,2.0
1758078259.4338,1758078246.01086,0.0,0.0,0.0,-28.59059,8.30789,-8.70896,8.45,1.71,1.25,2.0
1758078259.4347,1758078246.02086,0.0,0.0,0.0,-29.8511,8.65166,-7.79223,8.45,1.71,1.25,2.0
1758078259.45217,1758078246.03086,0.0,0.0,0.0,-29.50733,9.91217,-6.87549,9.26,1.07,0.96,2.0
1758078259.45739,1758078246.04086,0.0,0.0,0.0,-28.30412,11.86023,-6.07335,9.94,0.43,0.7,2.0
1758078259.47192,1758078246.05086,0.0,0.0,0.0,-25.8404,13.5218,-4.92744,9.94,0.43,0.7,2.0
1758078259.47744,1758078246.06086,0.0,0.0,0.0,-21.37133,16.10011,-2.92208,10.2,-0.06,0.41,2.0
1758078259.49222,1758078246.07086,0.0,0.0,0.0,-17.81899,18.85031,-1.43239,10.2,-0.06,0.41,2.0
1758078259.49428,1758078246.08086,0.0,0.0,0.0,-13.86558,21.94428,0.11459,10.22,-0.35,0.09,2.0
1758078259.50891,1758078246.09086,0.0,0.0,0.0,-10.19865,26.35606,1.3751,10.22,-0.35,0.09,2.0
1758078259.51176,1758078246.10086,0.0,0.0,0.0,-4.92744,34.26288,3.95341,10.12,-0.53,-0.18,2.0
1758078259.52775,1758078246.11086,0.0,0.0,0.0,-1.83346,39.4768,5.61499,9.99,-0.65,-0.16,2.0
1758078259.52894,1758078246.12086,0.0,0.0,0.0,0.80214,42.51347,7.62034,9.99,-0.65,-0.16,2.0
1758078259.54819,1758078246.13086,0.0,0.0,0.0,2.46372,41.99781,9.74028,9.51,-0.59,0.22,2.0
1758078259.5499,1758078246.14086,0.0,0.0,0.0,2.57831,35.69527,12.49048,9.51,-0.59,0.22,2.0
1758078259.56829,1758078246.15086,0.0,0.0,0.0,0.74485,28.64789,13.00614,9.06,-0.17,0.54,2.0
1758078259.57001,1758078246.16086,0.0,0.0,0.0,-2.29183,19.82434,11.86023,9.06,-0.17,0.54,2.0
1758078259.58827,1758078246.17086,0.0,0.0,0.0,-6.70361,10.31324,7.84952,8.5,0.69,0.4,2.0
1758078259.5892,1758078246.18086,0.0,0.0,0.0,-14.72501,-2.00535,4.18259,7.94,1.73,-0.2,2.0
1758078259.60398,1758078246.19086,0.0,0.0,0.0,-19.76705,-12.43318,0.97403,7.94,1.73,-0.2,2.0
1758078259.60876,1758078246.20086,0.0,0.0,0.0,-23.60586,-28.13223,-1.3751,7.52,2.35,-0.66,2.0
1758078259.62423,1758078246.21086,0.0,0.0,0.0,-27.38738,-50.64947,-4.52637,7.52,2.35,-0.66,2.0
1758078259.6413,1758078246.22086,0.0,0.0,0.0,-29.10626,-59.12925,-7.04738,8.28,2.01,-1.37,2.0
1758078259.64536,1758078246.23086,0.0,0.0,0.0,-30.02299,-60.27517,-9.85487,8.28,2.01,-1.37,2.0
1758078259.64873,1758078246.24086,0.0,0.0,0.0,-30.88243,-47.95657,-13.00614,11.0,1.44,-0.27,2.0
1758078259.66911,1758078246.25086,0.0,0.0,0.0,-31.56997,-46.86795,-15.29797,11.0,1.44,0.56,2.0
1758078259.66996,1758078246.26086,0.0,0.0,0.0,-33.51803,-51.27972,-15.87093,11.87,0.88,0.56,2.0
1758078259.6853,1758078246.27086,0.0,0.0,0.0,-35.98175,-50.53488,-17.18874,11.77,0.82,0.39,2.0
1758078259.69819,1758078246.28086,0.0,0.0,0.0,-35.69527,-42.34158,-14.20935,11.77,0.82,0.39,2.0
1758078259.69881,1758078246.29086,0.0,0.0,0.0,-32.08564,-25.89769,-8.42248,12.42,-0.03,-0.36,2.0
1758078259.71743,1758078246.30086,0.0,0.0,0.0,-27.44468,-18.44924,-4.0107,12.42,-0.03,-0.36,2.0
1758078259.71865,1758078246.31086,0.0,0.0,0.0,-21.7724,-14.32395,0.22918,12.09,-1.41,0.06,2.0
1758078259.73407,1758078246.32086,0.0,0.0,0.0,-16.21471,-13.5791,4.1253,12.09,-1.41,0.06,2.0
1758078259.75232,1758078246.33086,0.0,0.0,0.0,-8.93814,-18.56383,6.70361,11.41,-2.04,0.53,2.0
1758078259.75886,1758078246.34086,0.0,0.0,0.0,-4.92744,-22.63183,4.92744,11.35,-1.54,1.09,2.0
1758078259.75991,1758078246.35086,0.0,0.0,0.0,-0.0573,-29.9084,2.11994,11.35,-1.54,1.09,2.0
1758078259.77834,1758078246.36086,0.0,0.0,0.0,3.60963,-36.15364,-3.60963,12.73,-0.71,2.35,2.0
1758078259.77929,1758078246.37086,0.0,0.0,0.0,8.93814,-40.10705,-10.54242,12.73,-0.71,2.35,2.0
1758078259.79438,1758078246.38086,0.0,0.0,0.0,11.45916,-44.00316,-13.5218,13.05,0.48,4.27,2.0
1758078259.81208,1758078246.39086,0.0,0.0,0.0,11.91752,-49.27437,-16.04282,13.05,0.48,4.27,2.0
1758078259.8141,1758078246.40086,0.0,0.0,0.0,8.36518,-49.56085,-17.36062,11.29,1.42,4.87,2.0
1758078259.8291,1758078246.41086,0.0,0.0,0.0,2.86479,-42.05511,-15.41257,10.51,2.23,4.68,2.0
1758078259.83113,1758078246.42086,0.0,0.0,0.0,-4.64096,-35.98175,-12.60507,10.51,2.23,4.68,2.0
1758078259.84801,1758078246.43086,0.0,0.0,0.0,-13.80828,-30.65324,-10.65701,10.35,2.69,4.12,2.0
1758078259.8489,1758078246.44086,0.0,0.0,0.0,-27.04361,-22.34536,-9.91217,10.35,2.69,4.12,2.0
1758078259.86815,1758078246.45086,0.0,0.0,0.0,-34.49206,-15.87093,-9.33921,11.58,2.84,3.91,2.0
1758078259.87037,1758078246.46086,0.0,0.0,0.0,-40.96649,-11.57375,-8.93814,11.58,2.84,3.91,2.0
1758078259.88538,1758078246.47086,0.0,0.0,0.0,-46.46688,-6.70361,-9.28192,11.28,2.57,2.31,2.0
1758078259.8887,1758078246.48086,0.0,0.0,0.0,-53.11319,0.74485,-11.22997,10.48,2.08,1.62,2.0
1758078259.90643,1758078246.49086,0.0,0.0,0.0,-55.97798,4.23989,-13.12073,10.48,2.08,1.62,2.0
1758078259.90902,1758078246.50086,0.0,0.0,0.0,-56.66553,5.72958,-15.29797,9.78,1.43,1.8,2.0
1758078259.9241,1758078246.51086,0.0,0.0,0.0,-55.06125,8.30789,-16.04282,9.78,1.43,1.8,2.0
1758078259.94296,1758078246.52086,0.0,0.0,0.0,-49.21708,12.49048,-13.46451,9.73,0.31,2.05,2.0
1758078259.94604,1758078246.53086,0.0,0.0,0.0,-43.14373,14.61043,-10.94349,9.73,0.31,2.05,2.0
1758078259.96321,1758078246.54086,0.0,0.0,0.0,-35.98175,18.50654,-7.44845,9.66,-0.86,1.44,2.0
1758078259.96396,1758078246.55086,0.0,0.0,0.0,-28.36141,21.7151,-3.66693,9.66,-0.86,1.44,2.0
1758078259.98045,1758078246.56086,0.0,0.0,0.0,-17.18874,24.92367,1.77617,9.36,-1.74,0.72,2.0
1758078259.98132,1758078246.57086,0.0,0.0,0.0,-10.54242,27.61657,4.52637,8.47,-2.21,-0.02,2.0
1758078259.99625,1758078246.58086,0.0,0.0,0.0,-4.87014,29.10626,6.8182,8.47,-2.21,-0.02,2.0
1758078260.01225,1758078246.59086,0.0,0.0,0.0,0.0573,28.87707,8.47978,7.95,-2.05,-0.17,2.0
1758078260.01821,1758078246.60086,0.0,0.0,0.0,6.13065,27.33009,8.65166,7.95,-2.05,-0.17,2.0
1758078260.0188,1758078246.61086,0.0,0.0,0.0,9.28192,26.98631,8.0787,8.06,-1.43,-0.18,2.0
1758078260.03838,1758078246.62086,0.0,0.0,0.0,11.57375,26.75713,7.16197,8.06,-1.43,-0.18,2.0
1758078260.04398,1758078246.63086,0.0,0.0,0.0,13.98017,26.52795,4.98473,8.42,-0.51,-0.03,2.0
1758078260.0592,1758078246.64086,0.0,0.0,0.0,14.43854,26.24147,3.20856,8.51,0.26,0.4,2.0
1758078260.06049,1758078246.65086,0.0,0.0,0.0,14.43854,25.8404,1.66158,8.51,0.26,0.4,2.0
1758078260.07751,1758078246.66086,0.0,0.0,0.0,13.80828,25.61122,0.45837,8.57,0.69,0.63,2.0
1758078260.09558,1758078246.67086,0.0,0.0,0.0,11.97482,25.55392,-1.08862,8.57,0.69,0.63,2.0
1758078260.09816,1758078246.68086,0.0,0.0,0.0,10.54242,25.09555,-1.71887,8.65,0.85,0.56,2.0
1758078260.0994,1758078246.69086,0.0,0.0,0.0,8.99544,24.86637,-2.11994,8.65,0.85,0.56,2.0
1758078260.11902,1758078246.70086,0.0,0.0,0.0,7.50575,24.75178,-2.57831,8.78,0.78,0.44,2.0
1758078260.12418,1758078246.71086,0.0,0.0,0.0,5.72958,24.00693,-3.26586,8.9,0.52,0.31,2.0
1758078260.13923,1758078246.72086,0.0,0.0,0.0,4.81285,23.31938,-3.83882,8.9,0.52,0.31,2.0
1758078260.14044,1758078246.73086,0.0,0.0,0.0,4.35448,22.97561,-4.52637,9.02,0.29,0.26,2.0
1758078260.1571,1758078246.74086,0.0,0.0,0.0,4.1253,22.68913,-4.81285,9.02,0.29,0.26,2.0
1758078260.1725,1758078246.75086,0.0,0.0,0.0,4.52637,26.98631,-5.72958,9.29,0.14,0.17,2.0
1758078260.17346,1758078246.76086,0.0,0.0,0.0,5.15662,32.08564,-6.24524,9.29,0.14,0.17,2.0
1758078260.18848,1758078246.77086,0.0,0.0,0.0,6.47442,35.69527,-6.47442,9.72,0.09,0.33,2.0
1758078260.19056,1758078246.78086,0.0,0.0,0.0,8.0787,33.80451,-6.58902,9.72,0.09,0.33,2.0
1758078260.20529,1758078246.79086,0.0,0.0,0.0,12.204,24.29341,-5.21392,9.01,0.09,0.89,2.0
1758078260.20896,1758078246.80086,0.0,0.0,0.0,15.87093,17.99088,-3.66693,8.98,-0.25,0.41,2.0
1758078260.23339,1758078246.81086,0.0,0.0,0.0,20.45459,11.57375,-1.48969,8.98,-0.25,0.41,2.0
1758078260.23452,1758078246.82086,0.0,0.0,0.0,28.64789,2.63561,2.00535,9.15,-0.97,-0.28,2.0
1758078260.23862,1758078246.83086,0.0,0.0,0.0,34.09099,-2.00535,4.29718,9.15,-0.97,-0.28,2.0
1758078260.25955,1758078246.84086,0.0,0.0,0.0,39.4195,-6.41713,6.58902,9.26,-1.65,-0.86,2.0
1758078260.26052,1758078246.85086,0.0,0.0,0.0,43.77398,-14.09476,7.73493,9.26,-1.65,-0.86,2.0
1758078260.27854,1758078246.86086,0.0,0.0,0.0,46.52417,-28.24682,8.42248,8.97,-1.71,-0.95,2.0
1758078260.28066,1758078246.87086,0.0,0.0,0.0,46.00851,-30.88243,9.68299,9.96,-1.32,-0.58,2.0
1758078260.2977,1758078246.88086,0.0,0.0,0.0,46.86795,-22.28806,13.06344,9.96,-1.32,-0.58,2.0
1758078260.29893,1758078246.89086,0.0,0.0,0.0,46.06581,-13.00614,11.45916,11.71,-0.88,-0.28,2.0
1758078260.31833,1758078246.90086,0.0,0.0,0.0,48.41494,-43.37291,10.8862,11.71,-0.88,-0.28,2.0
1758078260.32312,1758078246.91086,0.0,0.0,0.0,54.08722,-66.5204,13.06344,8.19,-0.47,-0.83,2.0
1758078260.33843,1758078246.92086,0.0,0.0,0.0,57.92604,-57.75415,16.90226,8.19,-0.47,-0.83,2.0
1758078260.34068,1758078246.93086,0.0,0.0,0.0,59.75951,-39.53409,17.13144,13.19,-0.63,-1.57,2.0
1758078260.35643,1758078246.94086,0.0,0.0,0.0,62.91077,-26.75713,14.9542,13.3,0.15,-1.2,2.0
1758078260.37348,1758078246.95086,0.0,0.0,0.0,61.65026,-24.17882,11.97482,13.3,0.15,-1.2,2.0
1758078260.37711,1758078246.96086,0.0,0.0,0.0,57.75415,-24.75178,10.08406,12.77,1.21,2.72,2.0
1758078260.39351,1758078246.97086,0.0,0.0,0.0,51.90998,-28.24682,8.25059,12.77,1.21,2.72,2.0
1758078260.39713,1758078246.98086,0.0,0.0,0.0,42.97184,-38.15899,8.93814,12.21,1.9,2.96,2.0
1758078260.41282,1758078246.99086,0.0,0.0,0.0,35.63798,-45.60744,11.74564,12.21,1.9,2.96,2.0
1758078260.4136,1758078247.00086,0.0,0.0,0.0,30.13758,-55.6342,16.38659,12.89,2.25,3.41,2.0
1758078260.42841,1758078247.01086,0.0,0.0,0.0,25.15285,-57.52497,23.0329,12.89,2.25,3.41,2.0
1758078260.43366,1758078247.02086,0.0,0.0,0.0,18.62113,-43.02913,26.06958,13.93,2.41,3.65,2.0
1758078260.44866,1758078247.03086,0.0,0.0,0.0,14.78231,-27.84575,26.87172,13.67,2.14,4.47,2.0
1758078260.45366,1758078247.04086,0.0,0.0,0.0,12.204,-16.73037,26.01229,13.67,2.14,4.47,2.0
1758078260.46868,1758078247.05086,0.0,0.0,0.0,13.06344,-6.99009,24.12152,11.05,1.0,5.23,2.0
1758078260.4739,1758078247.06086,0.0,0.0,0.0,16.38659,-1.43239,20.85567,11.05,1.0,5.23,2.0
1758078260.48873,1758078247.07086,0.0,0.0,0.0,22.05888,2.86479,16.67307,10.4,-0.19,4.3,2.0
1758078260.49201,1758078247.08086,0.0,0.0,0.0,29.22085,7.50575,11.91752,10.4,-0.19,4.3,2.0
1758078260.50848,1758078247.09086,0.0,0.0,0.0,39.64868,18.56383,5.72958,11.68,-0.32,2.53,2.0
1758078260.50967,1758078247.10086,0.0,0.0,0.0,44.63341,27.33009,2.6929,12.75,0.21,1.7,2.0
1758078260.52473,1758078247.11086,0.0,0.0,0.0,47.78468,36.38282,1.20321,12.75,0.21,1.7,2.0
1758078260.5407,1758078247.12086,0.0,0.0,0.0,48.75871,45.60744,1.20321,11.05,0.76,1.44,2.0
1758078260.54403,1758078247.13086,0.0,0.0,0.0,45.55015,56.20716,2.11994,11.05,0.76,1.44,2.0
1758078260.5597,1758078247.14086,0.0,0.0,0.0,41.76862,59.01466,2.6929,9.31,0.8,1.42,2.0
1758078260.56225,1758078247.15086,0.0,0.0,0.0,36.89849,60.04598,2.6929,9.31,0.8,1.42,2.0
1758078260.57746,1758078247.16086,0.0,0.0,0.0,31.79916,59.24384,2.97938,8.29,0.79,1.32,2.0
1758078260.57863,1758078247.17086,0.0,0.0,0.0,23.0329,55.40502,2.06265,7.49,1.14,1.16,2.0
1758078260.59716,1758078247.18086,0.0,0.0,0.0,17.18874,49.96192,1.66158,7.49,1.14,1.16,2.0
1758078260.61274,1758078247.19086,0.0,0.0,0.0,11.11538,43.94586,1.08862,6.51,1.68,1.21,2.0
1758078260.61367,1758078247.20086,0.0,0.0,0.0,4.92744,36.95578,0.74485,6.51,1.68,1.21,2.0
1758078260.62855,1758078247.21086,0.0,0.0,0.0,-4.87014,27.44468,-0.97403,6.25,2.06,1.21,2.0
1758078260.63383,1758078247.22086,0.0,0.0,0.0,-11.28727,22.28806,-2.97938,6.25,2.06,1.21,2.0
1758078260.64878,1758078247.23086,0.0,0.0,0.0,-16.84496,17.36062,-4.29718,6.53,2.37,1.05,2.0
1758078260.65374,1758078247.24086,0.0,0.0,0.0,-24.23611,11.91752,-7.16197,6.53,2.37,1.05,2.0
1758078260.66881,1758078247.25086,0.0,0.0,0.0,-28.01764,9.85487,-9.33921,7.25,2.5,1.24,2.0
1758078260.67403,1758078247.26086,0.0,0.0,0.0,-30.76784,7.73493,-11.97482,8.17,2.23,1.24,2.0
1758078260.69095,1758078247.27086,0.0,0.0,0.0,-32.42941,5.15662,-14.03747,8.17,2.23,1.24,2.0
1758078260.69803,1758078247.28086,0.0,0.0,0.0,-33.11696,4.0107,-15.87093,8.94,1.52,0.99,2.0
1758078260.71278,1758078247.29086,0.0,0.0,0.0,-32.42941,4.92744,-15.98552,8.94,1.52,0.99,2.0
1758078260.71375,1758078247.30086,0.0,0.0,0.0,-31.28349,7.21927,-15.75634,9.7,0.74,0.81,2.0
1758078260.72885,1758078247.31086,0.0,0.0,0.0,-29.39274,9.74028,-14.38124,9.7,0.74,0.81,2.0
1758078260.72976,1758078247.32086,0.0,0.0,0.0,-25.43933,13.23533,-11.86023,9.93,0.09,0.68,2.0
1758078260.74775,1758078247.33086,0.0,0.0,0.0,-22.11617,15.0115,-9.68299,9.82,-0.38,0.53,2.0
1758078260.74896,1758078247.34086,0.0,0.0,0.0,-18.50654,17.53251,-7.67763,9.82,-0.38,0.53,2.0
1758078260.76857,1758078247.35086,0.0,0.0,0.0,-14.72501,20.22541,-5.27121,9.92,-0.86,0.32,2.0
1758078260.77168,1758078247.36086,0.0,0.0,0.0,-9.28192,22.91831,-1.77617,9.92,-0.86,0.32,2.0
1758078260.78895,1758078247.37086,0.0,0.0,0.0,-6.53172,26.52795,0.17189,9.77,-1.38,0.3,2.0
1758078260.79407,1758078247.38086,0.0,0.0,0.0,-3.95341,30.65324,2.97938,9.77,-1.38,0.3,2.0
1758078260.80886,1758078247.39086,0.0,0.0,0.0,-1.66158,35.92446,5.55769,9.75,-1.46,0.19,2.0
1758078260.8098,1758078247.40086,0.0,0.0,0.0,0.57296,41.36755,9.5684,9.51,-1.07,0.49,2.0
1758078260.82543,1758078247.41086,0.0,0.0,0.0,1.48969,42.85724,11.51645,9.51,-1.07,0.49,2.0
1758078260.84289,1758078247.42086,0.0,0.0,0.0,1.43239,43.02913,12.71966,9.15,-0.32,0.91,2.0
1758078260.84412,1758078247.43086,0.0,0.0,0.0,-0.17189,41.02378,13.34992,9.15,-0.32,0.91,2.0
1758078260.85896,1758078247.44086,0.0,0.0,0.0,-2.06265,30.76784,12.14671,8.76,0.54,1.12,2.0
1758078260.85987,1758078247.45086,0.0,0.0,0.0,-4.1253,18.73572,10.25595,8.76,0.54,1.12,2.0
1758078260.87624,1758078247.46086,0.0,0.0,0.0,-7.67763,8.136,6.58902,8.45,1.26,0.75,2.0
1758078260.89185,1758078247.47086,0.0,0.0,0.0,-13.5791,-10.8862,0.57296,8.45,1.26,0.75,2.0
1758078260.8928,1758078247.48086,0.0,0.0,0.0,-18.50654,-22.74642,-3.83882,8.56,1.95,0.27,2.0
1758078260.90787,1758078247.49086,0.0,0.0,0.0,-22.63183,-33.46074,-8.59437,9.16,2.32,-0.15,2.0
1758078260.90881,1758078247.50086,0.0,0.0,0.0,-26.24147,-44.28964,-14.43854,9.16,2.32,-0.15,2.0
1758078260.92543,1758078247.51086,0.0,0.0,0.0,-29.67921,-59.18654,-21.7724,9.92,1.94,-0.1,2.0
1758078260.94373,1758078247.52086,0.0,0.0,0.0,-30.13758,-63.13995,-22.63183,9.92,1.94,-0.1,2.0
1758078260.94572,1758078247.53086,0.0,0.0,0.0,-31.97105,-61.70755,-22.91831,11.23,1.18,-0.93,2.0
1758078260.96273,1758078247.54086,0.0,0.0,0.0,-34.0337,-59.70221,-20.85567,11.23,1.18,-0.93,2.0
1758078260.96389,1758078247.55086,0.0,0.0,0.0,-35.86716,-58.90006,-13.69369,12.12,0.04,-0.68,2.0
1758078260.97898,1758078247.56086,0.0,0.0,0.0,-38.27358,-50.76406,-10.48513,12.99,-0.84,-0.2,2.0
1758078260.98097,1758078247.57086,0.0,0.0,0.0,-39.76327,-37.29956,-9.22462,12.99,-0.84,-0.2,2.0
1758078260.99737,1758078247.58086,0.0,0.0,0.0,-37.18496,-27.84575,-4.92744,13.57,-1.49,0.21,2.0
1758078261.01271,1758078247.59086,0.0,0.0,0.0,-30.65324,-26.98631,-1.14592,13.57,-1.49,0.21,2.0
1758078261.0139,1758078247.60086,0.0,0.0,0.0,-24.57989,-31.45539,-0.57296,11.83,-1.64,2.78,2.0
1758078261.02874,1758078247.61086,0.0,0.0,0.0,-17.18874,-40.39353,-1.14592,11.83,-1.64,2.78,2.0
1758078261.0339,1758078247.62086,0.0,0.0,0.0,-9.74028,-50.363,-4.52637,12.66,-1.37,3.24,2.0
1758078261.04895,1758078247.63086,0.0,0.0,0.0,2.57831,-52.02457,-8.93814,13.87,-0.71,4.08,2.0
1758078261.05394,1758078247.64086,0.0,0.0,0.0,8.99544,-51.85268,-11.45916,13.87,-0.71,4.08,2.0
1758078261.06903,1758078247.65086,0.0,0.0,0.0,12.49048,-51.5662,-14.20935,11.76,0.67,5.68,2.0
1758078261.07392,1758078247.66086,0.0,0.0,0.0,11.74564,-45.60744,-17.18874,11.76,0.67,5.68,2.0
1758078261.08899,1758078247.67086,0.0,0.0,0.0,6.7609,-38.90384,-17.24603,10.53,1.93,6.17,2.0
1758078261.09418,1758078247.68086,0.0,0.0,0.0,-0.85944,-34.26288,-16.272,10.53,1.93,6.17,2.0
1758078261.10905,1758078247.69086,0.0,0.0,0.0,-10.08406,-31.51268,-14.15206,10.17,2.92,5.03,2.0
1758078261.11421,1758078247.70086,0.0,0.0,0.0,-22.86102,-25.43933,-10.8289,10.17,2.92,3.87,2.0
1758078261.12903,1758078247.71086,0.0,0.0,0.0,-30.25217,-18.44924,-9.22462,11.13,3.4,3.87,2.0
1758078261.13073,1758078247.72086,0.0,0.0,0.0,-37.29956,-14.38124,-7.96411,10.94,3.1,2.4,2.0
1758078261.14573,1758078247.73086,0.0,0.0,0.0,-43.25832,-7.84952,-7.73493,10.94,3.1,2.4,2.0
1758078261.16287,1758078247.74086,0.0,0.0,0.0,-51.73809,0.0,-9.62569,9.72,2.27,1.7,2.0
1758078261.16406,1758078247.75086,0.0,0.0,0.0,-54.94666,2.06265,-12.37589,9.72,2.27,1.7,2.0
1758078261.17892,1758078247.76086,0.0,0.0,0.0,-56.14987,2.46372,-14.09476,8.87,1.43,1.81,2.0
1758078261.18191,1758078247.77086,0.0,0.0,0.0,-55.40502,5.55769,-14.78231,8.87,1.43,1.81,2.0
1758078261.19713,1758078247.78086,0.0,0.0,0.0,-51.22243,6.58902,-12.77696,9.02,0.45,2.04,2.0
1758078261.21398,1758078247.79086,0.0,0.0,0.0,-46.1804,10.19865,-10.25595,9.13,-0.45,1.15,2.0
1758078261.21643,1758078247.80086,0.0,0.0,0.0,-40.7946,15.06879,-7.33386,9.13,-0.45,1.15,2.0
1758078261.23368,1758078247.81086,0.0,0.0,0.0,-34.89313,19.07949,-3.72423,9.02,-1.19,0.72,2.0
1758078261.23695,1758078247.82086,0.0,0.0,0.0,-25.72581,24.75178,0.80214,9.02,-1.19,0.72,2.0
1758078261.25203,1758078247.83086,0.0,0.0,0.0,-19.59516,29.04896,2.86479,8.43,-1.71,0.08,2.0
1758078261.25298,1758078247.84086,0.0,0.0,0.0,-13.75099,32.25753,4.18259,8.43,-1.71,0.08,2.0
1758078261.26781,1758078247.85086,0.0,0.0,0.0,-4.69825,33.9764,4.69825,8.28,-2.02,0.05,2.0
1758078261.26929,1758078247.86086,0.0,0.0,0.0,0.68755,33.17426,4.46907,8.14,-1.74,-0.07,2.0
1758078261.28819,1758078247.87086,0.0,0.0,0.0,5.09932,32.71589,4.1253,8.14,-1.74,-0.07,2.0
1758078261.28968,1758078247.88086,0.0,0.0,0.0,8.36518,32.14294,3.38045,8.47,-0.94,0.0,2.0
1758078261.3088,1758078247.89086,0.0,0.0,0.0,11.45916,30.88243,2.34913,8.47,-0.94,0.0,2.0
1758078261.3141,1758078247.90086,0.0,0.0,0.0,12.14671,30.30947,1.66158,8.64,-0.14,0.39,2.0
1758078261.33212,1758078247.91086,0.0,0.0,0.0,11.97482,29.10626,0.74485,8.64,-0.14,0.39,2.0
1758078261.33377,1758078247.92086,0.0,0.0,0.0,11.17268,27.44468,0.0573,8.67,0.37,0.74,2.0
1758078261.34894,1758078247.93086,0.0,0.0,0.0,8.99544,26.12688,-0.22918,8.77,0.37,0.89,2.0
1758078261.3541,1758078247.94086,0.0,0.0,0.0,7.16197,25.89769,-0.22918,8.77,0.7,0.89,2.0
1758078261.37197,1758078247.95086,0.0,0.0,0.0,5.50039,25.43933,-0.22918,8.9,0.84,0.7,2.0
1758078261.37283,1758078247.96086,0.0,0.0,0.0,3.89611,25.09555,-0.57296,8.9,0.84,0.7,2.0
1758078261.38814,1758078247.97086,0.0,0.0,0.0,1.77617,24.92367,-1.43239,9.01,0.75,0.67,2.0
1758078261.39146,1758078247.98086,0.0,0.0,0.0,0.51566,24.98096,-2.29183,9.01,0.75,0.67,2.0
1758078261.41425,1758078247.99086,0.0,0.0,0.0,-0.17189,24.86637,-3.26586,9.01,0.57,0.5,2.0
1758078261.41866,1758078248.00086,0.0,0.0,0.0,-0.57296,26.69983,-4.23989,9.01,0.57,0.5,2.0
1758078261.42059,1758078248.01086,0.0,0.0,0.0,-1.03132,30.88243,-6.47442,9.16,0.44,0.43,2.0
1758078261.43751,1758078248.02086,0.0,0.0,0.0,-1.14592,32.6013,-8.136,9.0,0.42,0.48,2.0
1758078261.45318,1758078248.03086,0.0,0.0,0.0,-1.03132,32.6013,-9.68299,9.0,0.42,0.48,2.0
1758078261.45407,1758078248.04086,0.0,0.0,0.0,-0.51566,30.82513,-10.71431,8.62,0.44,0.89,2.0
1758078261.46919,1758078248.05086,0.0,0.0,0.0,1.71887,20.97026,-10.71431,8.62,0.44,0.89,2.0
1758078261.47087,1758078248.06086,0.0,0.0,0.0,4.35448,12.37589,-9.05273,8.4,0.22,0.57,2.0
1758078261.48858,1758078248.07086,0.0,0.0,0.0,8.25059,4.92744,-6.70361,8.4,0.22,0.57,2.0
1758078261.49061,1758078248.08086,0.0,0.0,0.0,15.41257,-5.84417,-2.11994,9.13,-0.48,-0.11,2.0
1758078261.50619,1758078248.09086,0.0,0.0,0.0,21.48592,-11.80293,1.43239,9.52,-1.52,-0.52,2.0
1758078261.52971,1758078248.10086,0.0,0.0,0.0,27.61657,-15.92823,5.32851,9.52,-1.52,-0.52,2.0
1758078261.5382,1758078248.11086,0.0,0.0,0.0,34.0337,-19.19409,8.30789,9.7,-2.3,-0.87,2.0
1758078261.53865,1758078248.12086,0.0,0.0,0.0,40.50812,-35.69527,12.60507,9.7,-2.3,-0.87,2.0
1758078261.53966,1758078248.13086,0.0,0.0,0.0,42.68536,-42.57077,14.03747,9.12,-2.31,-0.93,2.0
1758078261.55509,1758078248.14086,0.0,0.0,0.0,44.51882,-39.53409,16.61578,9.12,-2.31,-0.93,2.0
1758078261.57224,1758078248.15086,0.0,0.0,0.0,45.77933,-25.7831,17.47521,11.71,-2.0,-0.9,2.0
1758078261.57338,1758078248.16086,0.0,0.0,0.0,51.6235,-26.47065,13.34992,11.12,-1.12,-1.09,2.0
1758078261.58843,1758078248.17086,0.0,0.0,0.0,54.25911,-45.55015,13.75099,11.12,-1.12,-1.09,2.0
1758078261.59023,1758078248.18086,0.0,0.0,0.0,57.58226,-52.9986,16.272,10.9,-0.34,-0.53,2.0
1758078261.60919,1758078248.19086,0.0,0.0,0.0,58.78547,-39.70598,17.36062,10.9,-0.34,-0.53,2.0
1758078261.61408,1758078248.20086,0.0,0.0,0.0,57.75415,-24.4653,17.30333,15.7,0.59,0.9,2.0
1758078261.62924,1758078248.21086,0.0,0.0,0.0,53.62885,-24.92367,17.30333,15.7,0.59,0.9,2.0
1758078261.63421,1758078248.22086,0.0,0.0,0.0,47.03984,-31.97105,18.73572,13.61,2.36,2.96,2.0
1758078261.64924,1758078248.23086,0.0,0.0,0.0,39.76327,-46.35228,21.6578,13.61,2.36,2.96,2.0
1758078261.65658,1758078248.24086,0.0,0.0,0.0,30.19488,-63.99939,27.04361,12.78,3.03,4.98,2.0
1758078261.67225,1758078248.25086,0.0,0.0,0.0,23.26209,-60.79083,27.78845,14.1,2.63,2.99,2.0
1758078261.6736,1758078248.26086,0.0,0.0,0.0,16.73037,-51.5662,26.41335,14.1,2.63,2.99,2.0
1758078261.6886,1758078248.27086,0.0,0.0,0.0,7.79223,-41.08107,22.28806,12.96,2.05,3.33,2.0
1758078261.6892,1758078248.28086,0.0,0.0,0.0,4.69825,-30.82513,19.36597,12.96,2.05,3.33,2.0
1758078261.70633,1758078248.29086,0.0,0.0,0.0,4.81285,-25.8404,17.30333,10.75,1.06,4.77,2.0
1758078261.72297,1758078248.30086,0.0,0.0,0.0,8.42248,-22.40265,15.46986,10.75,1.06,4.77,2.0
1758078261.72428,1758078248.31086,0.0,0.0,0.0,19.07949,-18.16276,13.06344,10.45,0.32,5.24,2.0
1758078261.73901,1758078248.32086,0.0,0.0,0.0,27.96034,-12.54778,11.17268,11.79,0.15,4.0,2.0
1758078261.74096,1758078248.33086,0.0,0.0,0.0,37.12767,-6.41713,9.85487,11.79,0.15,4.0,2.0
1758078261.75629,1758078248.34086,0.0,0.0,0.0,45.49285,0.68755,8.30789,12.68,0.2,2.38,2.0
1758078261.77231,1758078248.35086,0.0,0.0,0.0,54.48829,12.14671,5.90147,12.68,0.2,2.38,2.0
1758078261.77323,1758078248.36086,0.0,0.0,0.0,57.86874,20.79837,5.78687,11.37,0.33,1.24,2.0
1758078261.78807,1758078248.37086,0.0,0.0,0.0,58.3844,30.13758,5.84417,11.37,0.33,1.24,2.0
1758078261.79276,1758078248.38086,0.0,0.0,0.0,56.83742,37.01308,5.95876,10.05,0.47,1.01,2.0
1758078261.81177,1758078248.39086,0.0,0.0,0.0,52.02457,44.17505,5.90147,9.03,0.59,1.05,2.0
1758078261.81859,1758078248.40086,0.0,0.0,0.0,47.89928,48.64412,5.50039,9.03,0.59,1.05,2.0
1758078261.81943,1758078248.41086,0.0,0.0,0.0,43.20102,51.22243,5.15662,8.47,0.97,0.88,2.0
1758078261.83829,1758078248.42086,0.0,0.0,0.0,38.15899,52.19646,3.83882,8.47,0.97,0.88,2.0
1758078261.83941,1758078248.43086,0.0,0.0,0.0,30.59595,50.2484,2.11994,7.54,1.44,0.74,2.0
1758078261.85591,1758078248.44086,0.0,0.0,0.0,25.55392,46.40959,1.20321,7.54,1.44,0.74,2.0
1758078261.87314,1758078248.45086,0.0,0.0,0.0,19.88164,42.1124,-0.17189,6.73,1.82,0.76,2.0
1758078261.8739,1758078248.46086,0.0,0.0,0.0,14.43854,36.89849,-1.60428,6.73,1.82,0.76,2.0
1758078261.8902,1758078248.47086,0.0,0.0,0.0,6.07335,29.67921,-2.57831,6.49,2.04,0.76,2.0
1758078261.89113,1758078248.48086,0.0,0.0,0.0,0.74485,25.38203,-3.55234,6.91,2.26,0.91,2.0
1758078261.90642,1758078248.49086,0.0,0.0,0.0,-4.35448,20.3973,-4.69825,6.91,2.26,0.91,2.0
1758078261.91034,1758078248.50086,0.0,0.0,0.0,-10.94349,13.34992,-6.24524,7.39,2.22,1.2,2.0
1758078261.92627,1758078248.51086,0.0,0.0,0.0,-14.43854,9.22462,-6.7609,7.39,2.22,1.2,2.0
1758078261.94312,1758078248.52086,0.0,0.0,0.0,-17.01685,5.21392,-6.8182,8.0,1.76,1.35,2.0
1758078261.94383,1758078248.53086,0.0,0.0,0.0,-18.73572,2.06265,-6.53172,8.0,1.76,1.35,2.0
1758078261.96139,1758078248.54086,0.0,0.0,0.0,-19.70975,-1.60428,-5.90147,8.52,1.21,1.23,2.0
1758078261.96311,1758078248.55086,0.0,0.0,0.0,-19.19409,-2.92208,-5.15662,8.96,0.67,1.0,2.0
1758078261.97842,1758078248.56086,0.0,0.0,0.0,-18.44924,-3.38045,-4.35448,8.96,0.67,1.0,2.0
1758078261.97978,1758078248.57086,0.0,0.0,0.0,-16.84496,-2.46372,-3.66693,9.42,0.23,0.7,2.0
1758078261.99746,1758078248.58086,0.0,0.0,0.0,-13.69369,-0.17189,-2.29183,9.42,0.23,0.7,2.0
1758078261.99947,1758078248.59086,0.0,0.0,0.0,-11.34457,4.23989,-1.66158,9.79,-0.03,0.54,2.0
1758078262.01414,1758078248.60086,0.0,0.0,0.0,-9.22462,10.94349,-0.40107,9.79,-0.03,0.54,2.0
1758078262.03321,1758078248.61086,0.0,0.0,0.0,-7.10468,20.11082,0.85944,10.2,-0.2,0.37,2.0
1758078262.03374,1758078248.62086,0.0,0.0,0.0,-4.81285,32.71589,3.49504,10.23,-0.25,0.48,2.0
1758078262.04998,1758078248.63086,0.0,0.0,0.0,-4.0107,36.61201,4.58366,10.23,-0.25,0.48,2.0
1758078262.05434,1758078248.64086,0.0,0.0,0.0,-4.0107,36.89849,5.72958,9.6,-0.09,0.57,2.0
1758078262.07001,1758078248.65086,0.0,0.0,0.0,-4.92744,33.9764,6.58902,9.6,-0.09,0.57,2.0
1758078262.07867,1758078248.66086,0.0,0.0,0.0,-8.0787,25.61122,6.99009,9.36,0.31,0.39,2.0
1758078262.09026,1758078248.67086,0.0,0.0,0.0,-11.57375,18.79302,6.18794,9.36,0.31,0.39,2.0
1758078262.10351,1758078248.68086,0.0,0.0,0.0,-16.10011,13.00614,4.1253,8.96,1.03,0.13,2.0
1758078262.1056,1758078248.69086,0.0,0.0,0.0,-23.0902,5.72958,0.0,8.96,1.03,0.13,2.0
1758078262.12124,1758078248.70086,0.0,0.0,0.0,-26.81443,-14.38124,-2.23454,8.13,1.85,-0.37,2.0
1758078262.12321,1758078248.71086,0.0,0.0,0.0,-30.19488,-29.9084,-4.29718,7.26,2.2,-1.06,2.0
1758078262.13821,1758078248.72086,0.0,0.0,0.0,-33.68992,-40.85189,-5.55769,7.26,2.2,-1.06,2.0
1758078262.13976,1758078248.73086,0.0,0.0,0.0,-38.21629,-50.13381,-7.67763,8.68,1.85,-2.01,2.0
1758078262.15425,1758078248.74086,0.0,0.0,0.0,-40.7373,-45.60744,-8.02141,8.68,1.85,-2.01,2.0
1758078262.17123,1758078248.75086,0.0,0.0,0.0,-40.50812,-35.00772,-9.62569,11.85,1.33,-0.66,2.0
1758078262.17257,1758078248.76086,0.0,0.0,0.0,-46.1804,-47.38361,-14.61043,11.85,1.33,-0.66,2.0
1758078262.18831,1758078248.77086,0.0,0.0,0.0,-52.54023,-59.01466,-17.36062,10.91,0.95,0.02,2.0
1758078262.19276,1758078248.78086,0.0,0.0,0.0,-54.66018,-50.363,-18.33465,12.51,0.78,-0.49,2.0
1758078262.20849,1758078248.79086,0.0,0.0,0.0,-53.34238,-36.89849,-16.3293,12.51,0.78,-0.49,2.0
1758078262.20945,1758078248.80086,0.0,0.0,0.0,-49.04519,-25.38203,-12.77696,13.04,-0.31,-0.27,2.0
1758078262.22455,1758078248.81086,0.0,0.0,0.0,-36.7266,-15.87093,-5.27121,13.04,-0.31,-0.27,2.0
1758078262.24042,1758078248.82086,0.0,0.0,0.0,-26.52795,-15.06879,-0.22918,12.77,-2.15,1.22,2.0
1758078262.24184,1758078248.83086,0.0,0.0,0.0,-16.50119,-18.22006,3.20856,12.77,-2.15,1.22,2.0
1758078262.25755,1758078248.84086,0.0,0.0,0.0,-7.96411,-22.51724,3.38045,12.05,-2.93,0.75,2.0
1758078262.25852,1758078248.85086,0.0,0.0,0.0,4.64096,-27.67386,0.40107,13.12,-2.5,1.21,2.0
1758078262.27464,1758078248.86086,0.0,0.0,0.0,12.08941,-32.6013,-3.38045,13.12,-2.5,1.21,2.0
1758078262.29289,1758078248.87086,0.0,0.0,0.0,18.73572,-33.80451,-6.47442,13.73,-1.14,2.85,2.0
1758078262.29409,1758078248.88086,0.0,0.0,0.0,23.37668,-35.12231,-9.4538,13.73,-1.14,2.85,2.0
1758078262.30931,1758078248.89086,0.0,0.0,0.0,25.21014,-40.68,-11.00079,12.24,0.53,4.03,2.0
1758078262.31054,1758078248.90086,0.0,0.0,0.0,22.68913,-42.28429,-12.14671,12.24,0.53,4.03,2.0
1758078262.32827,1758078248.91086,0.0,0.0,0.0,17.18874,-39.4195,-11.28727,10.57,1.89,4.79,2.0
1758078262.32883,1758078248.92086,0.0,0.0,0.0,3.95341,-32.08564,-8.136,10.57,1.89,4.79,2.0
1758078262.34837,1758078248.93086,0.0,0.0,0.0,-7.67763,-27.44468,-6.70361,10.18,2.72,4.72,2.0
1758078262.35037,1758078248.94086,0.0,0.0,0.0,-18.85031,-22.23076,-6.13065,10.92,3.24,4.21,2.0
1758078262.36563,1758078248.95086,0.0,0.0,0.0,-28.99167,-17.47521,-5.72958,10.92,3.24,4.21,2.0
1758078262.36811,1758078248.96086,0.0,0.0,0.0,-40.62271,-11.97482,-4.81285,11.44,3.33,3.32,2.0
1758078262.38384,1758078248.97086,0.0,0.0,0.0,-46.00851,-8.59437,-5.15662,11.44,3.33,3.32,2.0
1758078262.4004,1758078248.98086,0.0,0.0,0.0,-49.96192,-5.21392,-6.99009,10.6,2.88,2.21,2.0
1758078262.40135,1758078248.99086,0.0,0.0,0.0,-52.13916,-2.7502,-9.28192,10.6,2.88,2.21,2.0
1758078262.41837,1758078249.00086,0.0,0.0,0.0,-51.90998,0.40107,-12.89155,9.95,2.07,2.08,2.0
1758078262.42035,1758078249.01086,0.0,0.0,0.0,-49.04519,2.29183,-13.34992,9.74,0.82,2.11,2.0
1758078262.43778,1758078249.02086,0.0,0.0,0.0,-44.23235,2.6929,-13.06344,9.74,0.82,2.11,2.0
1758078262.43897,1758078249.03086,0.0,0.0,0.0,-37.92981,3.72423,-11.80293,9.34,-0.56,1.27,2.0
1758078262.45665,1758078249.04086,0.0,0.0,0.0,-27.50197,9.39651,-8.02141,9.34,-0.56,1.27,2.0
1758078262.45761,1758078249.05086,0.0,0.0,0.0,-20.11082,14.78231,-5.15662,9.07,-1.62,0.67,2.0
1758078262.47387,1758078249.06086,0.0,0.0,0.0,-12.71966,19.48057,-2.00535,9.07,-1.62,0.67,2.0
1758078262.48973,1758078249.07086,0.0,0.0,0.0,-5.27121,22.57454,1.14592,8.35,-2.26,0.06,2.0
1758078262.4922,1758078249.08086,0.0,0.0,0.0,5.15662,27.1582,4.98473,8.1,-2.35,0.02,2.0
1758078262.50847,1758078249.09086,0.0,0.0,0.0,11.00079,31.11161,6.53172,8.1,-2.35,0.02,2.0
1758078262.511,1758078249.10086,0.0,0.0,0.0,16.50119,33.9764,7.62034,8.22,-1.84,-0.09,2.0
1758078262.52662,1758078249.11086,0.0,0.0,0.0,22.40265,33.51803,8.25059,8.22,-1.84,-0.09,2.0
1758078262.5284,1758078249.12086,0.0,0.0,0.0,24.80907,28.99167,7.79223,7.7,-0.9,0.06,2.0
1758078262.54963,1758078249.13086,0.0,0.0,0.0,25.7831,26.98631,6.47442,7.7,-0.9,0.06,2.0
1758078262.55136,1758078249.14086,0.0,0.0,0.0,25.61122,25.15285,4.58366,7.85,-0.05,0.07,2.0
1758078262.56664,1758078249.15086,0.0,0.0,0.0,24.17882,22.63183,1.60428,7.85,-0.05,0.07,2.0
1758078262.56882,1758078249.16086,0.0,0.0,0.0,22.11617,21.42862,-0.17189,7.83,0.45,0.2,2.0
1758078262.58647,1758078249.17086,0.0,0.0,0.0,19.70975,21.08485,-1.83346,8.17,0.73,0.5,2.0
1758078262.58821,1758078249.18086,0.0,0.0,0.0,16.73037,21.42862,-2.7502,8.17,0.73,0.5,2.0
1758078262.61031,1758078249.19086,0.0,0.0,0.0,12.14671,22.57454,-3.38045,8.73,0.84,0.58,2.0
1758078262.61772,1758078249.20086,0.0,0.0,0.0,9.11003,23.72045,-3.26586,8.73,0.84,0.58,2.0
1758078262.61818,1758078249.21086,0.0,0.0,0.0,6.35983,24.75178,-3.09397,9.24,0.87,0.58,2.0
1758078262.63633,1758078249.22085,0.0,0.0,0.0,3.60963,25.49662,-2.97938,9.24,0.87,0.58,2.0
1758078262.63893,1758078249.23085,0.0,0.0,0.0,0.34377,26.35606,-3.38045,9.45,0.82,0.5,2.0
1758078262.65602,1758078249.24085,0.0,0.0,0.0,-1.43239,27.50197,-4.23989,9.62,0.78,0.39,2.0
1758078262.65886,1758078249.25085,0.0,0.0,0.0,-2.7502,27.38738,-5.55769,9.62,0.78,0.39,2.0
1758078262.67626,1758078249.26085,0.0,0.0,0.0,-2.7502,27.33009,-6.58902,9.56,0.86,0.44,2.0
1758078262.6789,1758078249.27085,0.0,0.0,0.0,-1.48969,28.13223,-8.02141,9.56,0.86,0.44,2.0
1758078262.6948,1758078249.28085,0.0,0.0,0.0,0.57296,26.35606,-7.50575,9.55,0.78,0.42,2.0
1758078262.71178,1758078249.29085,0.0,0.0,0.0,3.20856,21.6578,-6.41713,9.55,0.78,0.42,2.0
1758078262.71272,1758078249.30085,0.0,0.0,0.0,6.53172,15.58445,-4.87014,9.03,0.25,0.16,2.0
1758078262.72831,1758078249.31085,0.0,0.0,0.0,13.06344,6.07335,-3.20856,9.12,-0.6,0.12,2.0
1758078262.73369,1758078249.32085,0.0,0.0,0.0,18.62113,-0.74485,-1.03132,9.12,-0.6,0.12,2.0
1758078262.74879,1758078249.33085,0.0,0.0,0.0,24.23611,-5.15662,1.48969,9.18,-1.46,-0.72,2.0
1758078262.75376,1758078249.34085,0.0,0.0,0.0,32.6013,-10.54242,5.72958,9.18,-1.46,-0.72,2.0
1758078262.76853,1758078249.35085,0.0,0.0,0.0,37.47144,-15.29797,7.79223,9.43,-1.95,-1.12,2.0
1758078262.76973,1758078249.36085,0.0,0.0,0.0,40.62271,-22.23076,8.70896,9.43,-1.95,-1.12,2.0
1758078262.78536,1758078249.37085,0.0,0.0,0.0,43.20102,-28.01764,9.96947,9.4,-1.74,-1.3,2.0
1758078262.80266,1758078249.38085,0.0,0.0,0.0,44.46153,-25.09555,12.43318,9.4,-1.74,-0.81,2.0
1758078262.80361,1758078249.39085,0.0,0.0,0.0,44.40423,-14.43854,12.2613,11.05,-1.18,-0.81,2.0
1758078262.8186,1758078249.40085,0.0,0.0,0.0,47.32632,-15.46986,10.08406,10.88,-0.67,-0.87,2.0
1758078262.81974,1758078249.41085,0.0,0.0,0.0,48.75871,-41.25296,8.76626,10.88,-0.67,-0.87,2.0
1758078262.83644,1758078249.42085,0.0,0.0,0.0,58.09792,-64.57235,10.8289,7.98,-0.35,-1.81,2.0
1758078262.85324,1758078249.43085,0.0,0.0,0.0,60.67623,-49.33167,11.74564,7.98,-0.35,-1.81,2.0
1758078262.85632,1758078249.44085,0.0,0.0,0.0,63.94209,-35.98175,11.57375,13.08,-0.31,-2.09,2.0
1758078262.87339,1758078249.45085,0.0,0.0,0.0,66.635,-29.8511,10.37054,13.08,-0.31,-2.09,2.0
1758078262.87627,1758078249.46085,0.0,0.0,0.0,65.14531,-29.33544,8.30789,13.03,0.48,-0.37,2.0
1758078262.89189,1758078249.47085,0.0,0.0,0.0,60.96271,-33.05967,8.25059,13.08,1.59,3.84,2.0
1758078262.89393,1758078249.48085,0.0,0.0,0.0,55.06125,-41.99781,9.11003,13.08,1.59,3.84,2.0
1758078262.90898,1758078249.49085,0.0,0.0,0.0,49.61814,-55.51962,13.17803,12.18,2.0,3.45,2.0
1758078262.90977,1758078249.50085,0.0,0.0,0.0,41.25296,-65.08801,21.42862,12.18,2.0,3.45,2.0
1758078262.9264,1758078249.51085,0.0,0.0,0.0,35.52338,-62.5097,26.52795,13.84,2.03,3.72,2.0
1758078262.92817,1758078249.52085,0.0,0.0,0.0,29.73651,-53.39967,29.8511,13.84,2.03,3.72,2.0
1758078262.94392,1758078249.53085,0.0,0.0,0.0,21.42862,-31.11161,30.48136,13.95,2.19,3.52,2.0
1758078262.96067,1758078249.54085,0.0,0.0,0.0,17.93358,-20.05352,29.33544,12.51,1.6,5.06,2.0
1758078262.96347,1758078249.55085,0.0,0.0,0.0,16.61578,-13.00614,27.38738,12.51,1.6,5.06,2.0
1758078262.97902,1758078249.56085,0.0,0.0,0.0,18.73572,-7.44845,24.17882,11.06,0.6,4.75,2.0
1758078262.97983,1758078249.57085,0.0,0.0,0.0,26.35606,0.51566,17.47521,11.06,0.6,4.75,2.0
1758078262.99732,1758078249.58085,0.0,0.0,0.0,33.34615,7.67763,12.60507,11.96,0.25,2.95,2.0
1758078262.99823,1758078249.59085,0.0,0.0,0.0,40.27893,17.24603,7.96411,11.96,0.25,2.95,2.0
1758078263.01368,1758078249.60085,0.0,0.0,0.0,45.77933,28.13223,4.0107,13.35,0.45,1.44,2.0
1758078263.03094,1758078249.61085,0.0,0.0,0.0,49.96192,44.46153,0.40107,12.12,0.63,1.13,2.0
1758078263.03857,1758078249.62085,0.0,0.0,0.0,49.61814,54.77477,-0.68755,12.12,0.63,1.13,2.0
