timeStamp,timeStampAlign,roll,pitch,yaw,gyro_x,gyro_y,gyro_z,acc_x,acc_y,acc_z,flag_num
1758075754.84606,1758075754.85194,0.0,0.0,0.0,-11.97482,7.50575,22.57454,8.52,-1.44,0.05,3.0
1758075754.8473,1758075754.86194,0.0,0.0,0.0,-8.36518,9.91217,17.76169,8.47,-1.42,-0.12,3.0
1758075754.862,1758075754.87194,0.0,0.0,0.0,-5.61499,12.204,14.03747,8.47,-1.42,-0.12,3.0
1758075754.86325,1758075754.88194,0.0,0.0,0.0,-2.23454,12.2613,10.65701,8.84,-1.27,0.21,3.0
1758075754.87809,1758075754.89194,0.0,0.0,0.0,1.3178,9.5684,7.16197,8.84,-1.27,0.21,3.0
1758075754.8944,1758075754.90194,0.0,0.0,0.0,7.44845,18.85031,4.18259,8.99,-1.14,0.12,3.0
1758075754.89568,1758075754.91194,0.0,0.0,0.0,11.63104,32.71589,2.57831,10.91,-1.38,0.32,3.0
1758075754.91014,1758075754.92194,0.0,0.0,0.0,15.64175,47.15443,1.43239,10.91,-1.38,0.32,3.0
1758075754.91215,1758075754.93194,0.0,0.0,0.0,18.62113,50.59217,0.74485,10.97,-1.82,0.82,3.0
1758075754.9312,1758075754.94194,0.0,0.0,0.0,23.20479,26.75713,-1.77617,10.97,-1.82,0.82,3.0
1758075754.93235,1758075754.95194,0.0,0.0,0.0,26.12688,2.86479,0.22918,8.7,-1.72,1.17,3.0
1758075754.94818,1758075754.96194,0.0,0.0,0.0,28.476,-13.75099,3.95341,8.7,-1.72,1.17,3.0
1758075754.96415,1758075754.97194,0.0,0.0,0.0,30.25217,-17.6471,8.25059,9.6,-1.8,0.55,3.0
1758075754.96537,1758075754.98194,0.0,0.0,0.0,31.16891,-9.05273,11.74564,11.3,-1.22,0.79,3.0
1758075754.98085,1758075754.99194,0.0,0.0,0.0,31.62727,-5.27121,13.40721,11.3,-1.22,0.79,3.0
1758075754.98211,1758075755.00194,0.0,0.0,0.0,31.91375,-2.57831,13.00614,10.51,-0.54,1.01,3.0
1758075754.9982,1758075755.01194,0.0,0.0,0.0,31.51268,-0.85944,9.4538,10.51,-0.54,1.01,3.0
1758075755.01597,1758075755.02194,0.0,0.0,0.0,29.9084,-5.84417,6.70361,9.66,-0.22,1.53,3.0
1758075755.01717,1758075755.03194,0.0,0.0,0.0,29.04896,-17.58981,4.23989,9.66,-0.22,1.53,3.0
1758075755.03216,1758075755.04194,0.0,0.0,0.0,29.67921,-32.48671,6.35983,8.71,-0.15,3.88,3.0
1758075755.03337,1758075755.05194,0.0,0.0,0.0,27.1582,-25.55392,11.80293,8.71,-0.15,3.88,3.0
1758075755.04932,1758075755.06194,0.0,0.0,0.0,23.72045,-9.05273,14.03747,11.81,0.45,1.64,3.0
1758075755.06629,1758075755.07194,0.0,0.0,0.0,21.25674,-1.60428,15.0115,11.79,0.53,0.2,3.0
1758075755.06745,1758075755.08194,0.0,0.0,0.0,19.70975,-2.7502,15.24068,11.79,0.53,0.2,3.0
1758075755.08227,1758075755.09194,0.0,0.0,0.0,20.05352,-0.68755,13.17803,8.95,-0.65,0.09,3.0
1758075755.08347,1758075755.10194,0.0,0.0,0.0,21.94428,3.09397,11.45916,8.95,-0.65,0.09,3.0
1758075755.09826,1758075755.11194,0.0,0.0,0.0,24.80907,6.58902,10.19865,9.39,-1.66,0.49,3.0
1758075755.11612,1758075755.12194,0.0,0.0,0.0,27.50197,10.25595,9.22462,9.39,-1.66,0.49,3.0
1758075755.11728,1758075755.13194,0.0,0.0,0.0,31.11161,16.67307,9.11003,10.12,-1.94,0.24,3.0
1758075755.13228,1758075755.14194,0.0,0.0,0.0,32.37212,21.14215,9.33921,10.82,-1.58,0.15,3.0
1758075755.13348,1758075755.15194,0.0,0.0,0.0,33.05967,25.49662,9.22462,10.82,-1.58,0.15,3.0
1758075755.14855,1758075755.16194,0.0,0.0,0.0,32.54401,28.41871,8.30789,10.68,-0.84,-0.08,3.0
1758075755.16535,1758075755.17194,0.0,0.0,0.0,30.53865,28.64789,6.47442,10.68,-0.84,-0.08,3.0
1758075755.16674,1758075755.18194,0.0,0.0,0.0,28.70519,26.18417,4.92744,10.23,-0.14,0.37,3.0
1758075755.18158,1758075755.19194,0.0,0.0,0.0,26.87172,22.51724,3.83882,10.23,-0.14,0.37,3.0
1758075755.18249,1758075755.20194,0.0,0.0,0.0,24.80907,21.31403,3.49504,10.09,0.23,0.79,3.0
1758075755.19929,1758075755.21194,0.0,0.0,0.0,20.62648,26.52795,3.95341,11.08,0.35,0.81,3.0
1758075755.216,1758075755.22194,0.0,0.0,0.0,17.36062,32.42941,4.35448,11.08,0.35,0.81,3.0
1758075755.21723,1758075755.23194,0.0,0.0,0.0,13.5218,37.92981,4.35448,11.54,0.25,0.55,3.0
1758075755.23228,1758075755.24194,0.0,0.0,0.0,8.42248,46.35228,3.09397,11.54,0.25,0.55,3.0
1758075755.23432,1758075755.25194,0.0,0.0,0.0,5.4431,51.10783,1.77617,11.8,-0.11,0.36,3.0
1758075755.24969,1758075755.26194,0.0,0.0,0.0,2.86479,56.952,0.11459,11.8,-0.11,0.36,3.0
1758075755.26613,1758075755.27194,0.0,0.0,0.0,1.03132,62.22322,-1.71887,12.43,-0.54,0.65,3.0
1758075755.26745,1758075755.28194,0.0,0.0,0.0,-0.74485,66.06203,-4.87014,12.43,-0.54,1.05,3.0
1758075755.28261,1758075755.29194,0.0,0.0,0.0,-2.00535,67.37984,-7.33386,12.68,-0.83,1.05,3.0
1758075755.28466,1758075755.30194,0.0,0.0,0.0,-3.32316,68.29657,-9.68299,13.03,-0.95,1.54,3.0
1758075755.29961,1758075755.31194,0.0,0.0,0.0,-4.52637,67.66632,-11.97482,13.03,-0.95,1.54,3.0
1758075755.31717,1758075755.32194,0.0,0.0,0.0,-6.07335,64.85883,-14.43854,13.39,-0.96,1.79,3.0
1758075755.31841,1758075755.33194,0.0,0.0,0.0,-7.10468,62.22322,-15.92823,13.39,-0.96,1.79,3.0
1758075755.3334,1758075755.34194,0.0,0.0,0.0,-8.25059,58.90006,-16.3293,13.57,-0.97,2.08,3.0
1758075755.33487,1758075755.35194,0.0,0.0,0.0,-9.05273,56.26446,-16.272,13.57,-0.97,2.08,3.0
1758075755.34936,1758075755.36194,0.0,0.0,0.0,-9.68299,55.40502,-15.98552,13.53,-0.91,2.1,3.0
1758075755.36732,1758075755.37194,0.0,0.0,0.0,-10.08406,54.08722,-16.3293,13.24,-0.73,2.32,3.0
1758075755.37247,1758075755.38194,0.0,0.0,0.0,-10.37054,50.1911,-16.61578,13.24,-0.73,2.32,3.0
1758075755.37286,1758075755.39194,0.0,0.0,0.0,-10.25595,44.8053,-17.01685,12.11,-0.68,2.66,3.0
1758075755.39004,1758075755.40194,0.0,0.0,0.0,-9.5684,36.26823,-17.81899,12.11,-0.68,2.66,3.0
1758075755.39385,1758075755.41194,0.0,0.0,0.0,-8.59437,29.33544,-17.93358,10.93,-0.86,2.93,3.0
1758075755.41121,1758075755.42194,0.0,0.0,0.0,-6.87549,21.6578,-17.58981,10.93,-0.86,2.93,3.0
1758075755.41269,1758075755.43194,0.0,0.0,0.0,-3.55234,14.20935,-17.01685,9.4,-0.93,3.38,3.0
1758075755.43274,1758075755.44194,0.0,0.0,0.0,0.0,1.08862,-16.90226,7.69,-0.93,3.66,3.0
1758075755.43369,1758075755.45194,0.0,0.0,0.0,3.66693,-6.24524,-15.87093,7.69,-0.93,3.66,3.0
1758075755.44867,1758075755.46194,0.0,0.0,0.0,6.99009,-15.92823,-12.77696,7.3,-0.73,3.89,3.0
1758075755.46463,1758075755.47194,0.0,0.0,0.0,12.89155,-24.75178,-5.72958,7.3,-0.73,3.89,3.0
1758075755.46639,1758075755.48194,0.0,0.0,0.0,17.24603,-25.61122,-1.66158,7.36,-0.78,3.41,3.0
1758075755.4818,1758075755.49194,0.0,0.0,0.0,21.60051,-27.96034,1.48969,7.36,-0.78,3.41,3.0
1758075755.48296,1758075755.50194,0.0,0.0,0.0,25.8404,-32.71589,5.15662,6.33,-0.73,3.26,3.0
1758075755.4985,1758075755.51194,0.0,0.0,0.0,29.62192,-37.92981,9.39651,5.81,-0.73,3.49,3.0
1758075755.51572,1758075755.52194,0.0,0.0,0.0,31.45539,-41.42485,13.86558,5.81,0.09,3.49,3.0
1758075755.51614,1758075755.53194,0.0,0.0,0.0,32.20023,-41.65404,16.3293,6.71,1.29,2.82,3.0
1758075755.53253,1758075755.54194,0.0,0.0,0.0,33.17426,-37.98711,17.81899,6.71,1.29,2.82,3.0
1758075755.53443,1758075755.55194,0.0,0.0,0.0,34.77854,-29.39274,16.73037,9.05,2.0,2.77,3.0
1758075755.55278,1758075755.56194,0.0,0.0,0.0,34.95043,-25.15285,14.32395,9.05,2.0,2.77,3.0
1758075755.55459,1758075755.57194,0.0,0.0,0.0,34.60666,-21.7151,10.8862,10.28,1.87,2.61,3.0
1758075755.57133,1758075755.58194,0.0,0.0,0.0,33.63263,-16.21471,7.10468,10.28,1.87,2.61,3.0
1758075755.57258,1758075755.59194,0.0,0.0,0.0,32.54401,-7.84952,1.83346,10.66,1.21,2.41,3.0
1758075755.59221,1758075755.60194,0.0,0.0,0.0,31.74186,-4.35448,-1.20321,10.08,0.7,2.24,3.0
1758075755.59397,1758075755.61194,0.0,0.0,0.0,31.62727,-2.00535,-3.09397,10.08,0.7,2.24,3.0
1758075755.60979,1758075755.62194,0.0,0.0,0.0,30.88243,1.3178,-5.09932,9.31,0.39,2.02,3.0
1758075755.62682,1758075755.63194,0.0,0.0,0.0,31.2262,5.90147,-5.55769,9.31,0.39,2.02,3.0
1758075755.62721,1758075755.64194,0.0,0.0,0.0,32.20023,8.0787,-6.07335,8.69,0.4,1.75,3.0
1758075755.64537,1758075755.65194,0.0,0.0,0.0,32.6013,10.02676,-5.72958,8.69,0.4,1.75,3.0
1758075755.64655,1758075755.66194,0.0,0.0,0.0,34.09099,10.54242,-7.16197,7.84,0.61,1.74,3.0
1758075755.6616,1758075755.67194,0.0,0.0,0.0,34.66395,11.74564,-8.70896,7.01,0.87,1.6,3.0
1758075755.6628,1758075755.68194,0.0,0.0,0.0,34.72124,12.08941,-10.71431,7.01,0.87,1.6,3.0
1758075755.67861,1758075755.69194,0.0,0.0,0.0,34.89313,11.11538,-12.2613,6.3,1.17,1.43,3.0
1758075755.69588,1758075755.70194,0.0,0.0,0.0,34.32018,11.34457,-15.69904,6.3,1.17,1.43,3.0
1758075755.69785,1758075755.71194,0.0,0.0,0.0,33.11696,11.51645,-18.62113,6.41,1.47,1.48,3.0
1758075755.71595,1758075755.72194,0.0,0.0,0.0,30.76784,10.37054,-21.48592,6.41,1.47,1.48,3.0
1758075755.71632,1758075755.73194,0.0,0.0,0.0,27.96034,8.59437,-25.49662,6.48,1.73,1.66,3.0
1758075755.73199,1758075755.74194,0.0,0.0,0.0,24.00693,3.55234,-30.53865,6.64,1.86,2.47,3.0
1758075755.73283,1758075755.75194,0.0,0.0,0.0,22.23076,-0.80214,-32.71589,6.64,1.86,2.47,3.0
1758075755.74783,1758075755.76194,0.0,0.0,0.0,20.22541,-4.98473,-34.14828,6.99,1.8,2.83,3.0
1758075755.76364,1758075755.77194,0.0,0.0,0.0,18.10547,-9.5684,-34.95043,6.99,1.8,2.83,3.0
1758075755.76486,1758075755.78194,0.0,0.0,0.0,14.15206,-14.32395,-33.40344,7.1,1.81,2.7,3.0
1758075755.77989,1758075755.79194,0.0,0.0,0.0,11.11538,-14.09476,-31.11161,7.1,1.81,2.7,3.0
1758075755.78389,1758075755.80194,0.0,0.0,0.0,6.99009,-11.45916,-28.07493,7.52,2.16,2.28,3.0
1758075755.79983,1758075755.81194,0.0,0.0,0.0,2.6929,-8.88085,-25.26744,7.52,2.16,2.28,3.0
1758075755.80161,1758075755.82194,0.0,0.0,0.0,-4.64096,-10.08406,-21.02755,7.89,2.41,1.82,3.0
1758075755.81728,1758075755.83194,0.0,0.0,0.0,-9.62569,-14.03747,-17.87628,8.51,2.36,1.24,3.0
1758075755.83379,1758075755.84194,0.0,0.0,0.0,-14.61043,-17.93358,-14.78231,8.51,2.36,1.24,3.0
1758075755.83563,1758075755.85194,0.0,0.0,0.0,-21.6578,-23.60586,-8.47978,10.15,2.33,0.64,3.0
1758075755.85144,1758075755.86194,0.0,0.0,0.0,-26.81443,-20.97026,-3.72423,10.15,2.33,0.64,3.0
1758075755.8695,1758075755.87194,0.0,0.0,0.0,-31.51268,-0.57296,2.40642,12.91,2.84,0.17,3.0
1758075755.8698,1758075755.88194,0.0,0.0,0.0,-38.44547,33.74722,5.09932,12.91,2.84,0.17,3.0
1758075755.88397,1758075755.89194,0.0,0.0,0.0,-44.51882,37.18496,4.52637,15.95,3.63,0.8,3.0
1758075755.88487,1758075755.90194,0.0,0.0,0.0,-49.04519,23.37668,3.38045,12.11,4.2,1.94,3.0
1758075755.90097,1758075755.91194,0.0,0.0,0.0,-53.91533,9.5684,0.17189,12.11,4.2,1.94,3.0
1758075755.90232,1758075755.92194,0.0,0.0,0.0,-56.14987,-0.17189,0.11459,11.68,3.85,1.74,3.0
1758075755.91728,1758075755.93194,0.0,0.0,0.0,-59.41573,-47.38361,-8.59437,11.68,3.85,1.74,3.0
1758075755.93304,1758075755.94194,0.0,0.0,0.0,-57.63955,-38.38818,-17.93358,11.48,2.26,4.65,3.0
1758075755.93391,1758075755.95194,0.0,0.0,0.0,-48.70141,5.09932,-20.85567,11.48,2.26,4.65,3.0
1758075755.9498,1758075755.96194,0.0,0.0,0.0,-36.38282,34.0337,-22.40265,18.84,-0.51,3.07,3.0
1758075755.95179,1758075755.97194,0.0,0.0,0.0,-20.74107,35.75257,-19.88164,13.37,-2.2,3.25,3.0
1758075755.96727,1758075755.98194,0.0,0.0,0.0,-13.98017,34.95043,-16.50119,13.37,-2.2,3.25,3.0
1758075755.98271,1758075755.99194,0.0,0.0,0.0,-9.74028,40.39353,-12.14671,13.63,-1.33,3.89,3.0
1758075755.98389,1758075756.00194,0.0,0.0,0.0,-8.42248,44.86259,-6.41713,13.63,-1.33,3.89,3.0
1758075755.99907,1758075756.01194,0.0,0.0,0.0,-10.25595,39.07573,1.3751,13.48,1.18,4.77,3.0
1758075756.00416,1758075756.02194,0.0,0.0,0.0,-12.54778,33.34615,5.21392,13.48,1.18,4.77,3.0
1758075756.01905,1758075756.03194,0.0,0.0,0.0,-14.43854,29.96569,7.50575,12.91,2.64,5.53,3.0
1758075756.02161,1758075756.04194,0.0,0.0,0.0,-15.64175,26.35606,8.02141,12.91,2.64,5.53,3.0
1758075756.03781,1758075756.05194,0.0,0.0,0.0,-16.61578,20.16812,6.07335,12.17,2.58,5.75,3.0
1758075756.05566,1758075756.06194,0.0,0.0,0.0,-17.99088,15.29797,3.49504,10.4,1.99,5.83,3.0
1758075756.06291,1758075756.07194,0.0,0.0,0.0,-20.68378,9.33921,0.40107,10.4,1.99,5.83,3.0
1758075756.0633,1758075756.08194,0.0,0.0,0.0,-26.52795,0.74485,-4.29718,8.44,1.28,5.2,3.0
1758075756.08206,1758075756.09194,0.0,0.0,0.0,-31.11161,-3.89611,-6.8182,8.44,1.28,5.2,3.0
1758075756.08401,1758075756.10194,0.0,0.0,0.0,-35.2942,-7.62034,-8.88085,7.23,0.7,5.05,3.0
1758075756.10005,1758075756.11194,0.0,0.0,0.0,-38.56006,-10.31324,-10.65701,7.23,0.7,5.05,3.0
1758075756.10275,1758075756.12194,0.0,0.0,0.0,-41.31026,-14.83961,-13.06344,6.54,0.13,4.96,3.0
1758075756.12084,1758075756.13194,0.0,0.0,0.0,-41.48215,-17.76169,-14.43854,5.91,-0.25,4.62,3.0
1758075756.12187,1758075756.14194,0.0,0.0,0.0,-40.7946,-18.56383,-15.75634,5.91,-0.25,4.62,3.0
1758075756.13743,1758075756.15194,0.0,0.0,0.0,-39.53409,-17.01685,-17.01685,6.13,-0.34,3.74,3.0
1758075756.15473,1758075756.16194,0.0,0.0,0.0,-37.35685,-10.54242,-20.79837,6.13,-0.34,3.74,3.0
1758075756.15916,1758075756.17194,0.0,0.0,0.0,-36.15364,-8.47978,-23.49127,6.68,-0.45,3.34,3.0
1758075756.16137,1758075756.18194,0.0,0.0,0.0,-34.77854,-8.0787,-24.98096,6.68,-0.45,3.34,3.0
1758075756.17793,1758075756.19194,0.0,0.0,0.0,-33.68992,-5.50039,-25.61122,7.01,-0.54,3.07,3.0
1758075756.19492,1758075756.20194,0.0,0.0,0.0,-33.17426,0.11459,-23.0329,7.97,-0.43,2.61,3.0
1758075756.19614,1758075756.21194,0.0,0.0,0.0,-33.9764,-0.57296,-20.05352,7.97,-0.43,2.61,3.0
1758075756.21161,1758075756.22194,0.0,0.0,0.0,-34.66395,-2.23454,-14.09476,7.78,-0.08,2.6,3.0
1758075756.21284,1758075756.23194,0.0,0.0,0.0,-35.52338,0.34377,-9.22462,7.78,-0.08,2.6,3.0
1758075756.22976,1758075756.24194,0.0,0.0,0.0,-36.03905,2.7502,-1.77617,8.02,0.23,2.37,3.0
1758075756.23255,1758075756.25194,0.0,0.0,0.0,-35.75257,1.3178,1.60428,8.02,0.23,2.37,3.0
1758075756.25196,1758075756.26193,0.0,0.0,0.0,-35.2942,-0.34377,4.1253,7.16,0.49,2.25,3.0
1758075756.25488,1758075756.27193,0.0,0.0,0.0,-35.75257,-1.08862,5.72958,7.16,0.49,2.25,3.0
1758075756.26995,1758075756.28193,0.0,0.0,0.0,-36.38282,-3.55234,5.78687,7.15,0.68,2.23,3.0
1758075756.27192,1758075756.29193,0.0,0.0,0.0,-37.24226,-5.90147,4.92744,7.04,0.63,1.98,3.0
1758075756.28819,1758075756.30193,0.0,0.0,0.0,-38.1017,-8.36518,4.18259,7.04,0.63,1.98,3.0
1758075756.29232,1758075756.31193,0.0,0.0,0.0,-39.87786,-11.28727,2.86479,7.21,0.29,1.67,3.0
1758075756.30802,1758075756.32193,0.0,0.0,0.0,-40.16434,-12.71966,2.40642,7.21,0.29,1.67,3.0
1758075756.32664,1758075756.33193,0.0,0.0,0.0,-39.99245,-13.23533,2.40642,7.52,-0.16,1.56,3.0
1758075756.32857,1758075756.34193,0.0,0.0,0.0,-39.13302,-13.40721,2.86479,7.52,-0.16,1.56,3.0
1758075756.34525,1758075756.35193,0.0,0.0,0.0,-41.48215,-61.07731,5.27121,7.4,-0.78,1.5,3.0
1758075756.34772,1758075756.36193,0.0,0.0,0.0,-40.7946,-102.27297,15.75634,3.97,-0.76,3.18,3.0
1758075756.36311,1758075756.37193,0.0,0.0,0.0,-39.3622,-108.97658,28.30412,3.97,-0.76,3.18,3.0
1758075756.36421,1758075756.38193,0.0,0.0,0.0,-40.16434,-88.17821,35.58068,9.55,-1.47,-0.26,3.0
1758075756.38069,1758075756.39193,0.0,0.0,0.0,-40.50812,-75.97421,41.88322,9.55,-1.47,-0.26,3.0
1758075756.38371,1758075756.40193,0.0,0.0,0.0,-36.95578,-75.91692,39.13302,8.83,-1.63,1.55,3.0
1758075756.40014,1758075756.41193,0.0,0.0,0.0,-32.25753,-61.76485,30.25217,8.83,-1.63,1.55,3.0
1758075756.40189,1758075756.42193,0.0,0.0,0.0,-27.04361,-40.7946,17.53251,10.48,-1.4,0.91,3.0
1758075756.41805,1758075756.43193,0.0,0.0,0.0,-18.27736,-10.94349,-5.32851,10.71,-1.18,0.49,3.0
1758075756.43532,1758075756.44193,0.0,0.0,0.0,-11.57375,4.81285,-17.81899,10.71,-1.18,0.49,3.0
1758075756.43959,1758075756.45193,0.0,0.0,0.0,-3.66693,19.53786,-24.75178,10.65,-1.26,0.75,3.0
1758075756.45508,1758075756.46193,0.0,0.0,0.0,4.58366,29.27814,-25.21014,10.65,-1.26,0.75,3.0
1758075756.45865,1758075756.47193,0.0,0.0,0.0,16.73037,41.94051,-20.11082,11.11,-2.07,0.39,3.0
1758075756.47405,1758075756.48193,0.0,0.0,0.0,24.29341,51.6235,-13.86558,11.11,-2.07,0.39,3.0
1758075756.47527,1758075756.49193,0.0,0.0,0.0,30.82513,59.07195,-7.67763,12.88,-2.97,0.18,3.0
1758075756.49006,1758075756.50193,0.0,0.0,0.0,37.81522,52.9986,-1.83346,12.88,-2.97,0.18,3.0
1758075756.49209,1758075756.51193,0.0,0.0,0.0,40.96649,46.00851,-1.3178,13.2,-2.71,0.84,3.0
1758075756.50994,1758075756.52193,0.0,0.0,0.0,42.34158,47.03984,-3.72423,14.15,-1.85,1.52,3.0
1758075756.51455,1758075756.53193,0.0,0.0,0.0,41.02378,33.74722,-10.8862,14.15,-1.85,1.52,3.0
1758075756.54241,1758075756.54193,0.0,0.0,0.0,46.69606,-14.20935,-6.58902,12.12,-1.41,8.76,3.0
1758075756.54412,1758075756.55193,0.0,0.0,0.0,35.3515,0.51566,0.17189,12.12,-1.41,8.76,3.0
1758075756.54593,1758075756.56193,0.0,0.0,0.0,22.91831,31.45539,4.35448,19.56,1.69,6.07,3.0
1758075756.58296,1758075756.57193,0.0,0.0,0.0,10.71431,39.53409,10.37054,19.56,1.69,6.07,3.0
1758075756.58497,1758075756.58193,0.0,0.0,0.0,-8.76626,0.68755,14.66772,16.6,4.14,3.3,3.0
1758075756.58641,1758075756.59193,0.0,0.0,0.0,-18.16276,-20.3973,15.46986,10.04,2.99,3.0,3.0
1758075756.58772,1758075756.60193,0.0,0.0,0.0,-24.35071,-24.98096,13.23533,10.04,2.99,3.0,3.0
1758075756.60412,1758075756.61193,0.0,0.0,0.0,-26.69983,-21.7151,9.68299,11.1,0.43,4.78,3.0
1758075756.60684,1758075756.62193,0.0,0.0,0.0,-24.57989,-27.10091,5.27121,11.1,0.43,4.78,3.0
1758075756.62252,1758075756.63193,0.0,0.0,0.0,-21.88699,-32.14294,3.20856,9.94,-0.98,5.86,3.0
1758075756.62338,1758075756.64193,0.0,0.0,0.0,-19.13679,-35.58068,1.60428,9.94,-0.98,5.86,3.0
1758075756.64003,1758075756.65193,0.0,0.0,0.0,-16.55848,-37.87251,0.22918,9.25,-1.39,4.73,3.0
1758075756.6562,1758075756.66193,0.0,0.0,0.0,-13.00614,-44.63341,-2.97938,7.17,-1.15,4.18,3.0
1758075756.66038,1758075756.67193,0.0,0.0,0.0,-8.99544,-52.08187,-3.20856,7.17,-1.15,4.18,3.0
1758075756.67548,1758075756.68193,0.0,0.0,0.0,-2.7502,-55.6915,-2.92208,6.03,-0.61,4.44,3.0
1758075756.67675,1758075756.69193,0.0,0.0,0.0,7.33386,-55.29043,-2.40642,6.03,-0.61,4.44,3.0
1758075756.6943,1758075756.70193,0.0,0.0,0.0,14.38124,-53.68615,-2.6929,6.39,0.0,4.03,3.0
1758075756.69551,1758075756.71193,0.0,0.0,0.0,21.08485,-50.13381,-2.63561,6.39,0.0,4.03,3.0
1758075756.71147,1758075756.72193,0.0,0.0,0.0,26.81443,-43.83128,-2.63561,7.31,0.44,3.6,3.0
1758075756.7124,1758075756.73193,0.0,0.0,0.0,33.34615,-31.51268,-0.97403,7.31,0.44,3.6,3.0
1758075756.72746,1758075756.74193,0.0,0.0,0.0,36.84119,-20.62648,0.74485,8.59,0.52,2.78,3.0
1758075756.744,1758075756.75193,0.0,0.0,0.0,39.24761,-8.59437,2.63561,10.14,0.4,2.29,3.0
1758075756.74601,1758075756.76193,0.0,0.0,0.0,40.7946,2.06265,4.81285,10.14,0.4,2.29,3.0
1758075756.76202,1758075756.77193,0.0,0.0,0.0,40.27893,16.38659,8.93814,10.47,0.26,1.84,3.0
1758075756.76432,1758075756.78193,0.0,0.0,0.0,38.56006,24.75178,11.34457,10.47,0.26,1.84,3.0
1758075756.78028,1758075756.79193,0.0,0.0,0.0,36.7266,31.16891,13.69369,9.8,0.44,1.54,3.0
1758075756.78249,1758075756.80193,0.0,0.0,0.0,34.89313,37.75792,14.49583,9.8,0.44,1.54,3.0
1758075756.79944,1758075756.81193,0.0,0.0,0.0,32.71589,45.72203,13.5791,9.18,0.74,1.59,3.0
1758075756.80283,1758075756.82193,0.0,0.0,0.0,31.74186,50.1911,12.37589,8.52,0.9,1.62,3.0
1758075756.81831,1758075756.83193,0.0,0.0,0.0,30.82513,53.11319,10.25595,8.52,0.9,1.62,3.0
1758075756.83553,1758075756.84193,0.0,0.0,0.0,30.59595,53.74345,8.47978,7.48,0.95,1.87,3.0
1758075756.83645,1758075756.85193,0.0,0.0,0.0,30.65324,53.28508,5.61499,7.48,0.95,1.87,3.0
1758075756.85158,1758075756.86193,0.0,0.0,0.0,31.39809,51.39432,3.72423,6.76,1.0,1.8,3.0
1758075756.85293,1758075756.87193,0.0,0.0,0.0,32.08564,48.58683,2.63561,6.76,1.0,1.8,3.0
1758075756.86812,1758075756.88193,0.0,0.0,0.0,32.37212,45.77933,1.66158,6.42,1.02,2.11,3.0
1758075756.87683,1758075756.89193,0.0,0.0,0.0,31.56997,41.25296,1.08862,6.48,1.04,2.2,3.0
1758075756.89239,1758075756.90193,0.0,0.0,0.0,29.8511,37.75792,0.40107,6.48,1.04,2.2,3.0
1758075756.9016,1758075756.91193,0.0,0.0,0.0,26.98631,34.49206,-0.22918,6.61,1.17,2.0,3.0
1758075756.90202,1758075756.92193,0.0,0.0,0.0,21.6578,30.25217,-0.80214,6.61,1.17,2.0,3.0
1758075756.91738,1758075756.93193,0.0,0.0,0.0,17.99088,26.06958,-1.3751,6.87,1.35,1.99,3.0
1758075756.93412,1758075756.94193,0.0,0.0,0.0,14.43854,21.6578,-1.3751,6.87,1.35,1.99,3.0
1758075756.93615,1758075756.95193,0.0,0.0,0.0,11.63104,16.61578,-1.3178,7.03,1.51,2.02,3.0
1758075756.95182,1758075756.96193,0.0,0.0,0.0,8.59437,10.37054,-1.08862,7.47,1.51,2.12,3.0
1758075756.95257,1758075756.97193,0.0,0.0,0.0,7.67763,7.21927,-1.14592,7.47,1.45,2.12,3.0
1758075756.97248,1758075756.98193,0.0,0.0,0.0,7.79223,3.89611,-1.43239,8.03,1.14,2.12,3.0
1758075756.97656,1758075756.99193,0.0,0.0,0.0,8.136,1.77617,-1.94806,8.03,1.14,2.12,3.0
1758075756.99221,1758075757.00193,0.0,0.0,0.0,9.11003,-2.00535,-2.86479,8.57,0.77,2.02,3.0
1758075756.99739,1758075757.01193,0.0,0.0,0.0,10.25595,-3.83882,-2.7502,8.57,0.77,2.02,3.0
1758075757.01267,1758075757.02193,0.0,0.0,0.0,11.00079,-4.0107,-2.6929,8.8,0.57,1.73,3.0
1758075757.0136,1758075757.03193,0.0,0.0,0.0,11.11538,-3.09397,-1.77617,8.8,0.57,1.73,3.0
1758075757.02868,1758075757.04193,0.0,0.0,0.0,9.11003,-0.0573,-1.48969,9.38,0.52,1.54,3.0
1758075757.04542,1758075757.05193,0.0,0.0,0.0,7.33386,-1.60428,-2.23454,9.26,0.69,1.42,3.0
1758075757.04665,1758075757.06193,0.0,0.0,0.0,5.21392,-4.81285,-2.63561,9.26,0.69,1.42,3.0
1758075757.06154,1758075757.07193,0.0,0.0,0.0,2.7502,-6.99009,-3.26586,9.27,1.02,1.09,3.0
1758075757.06343,1758075757.08193,0.0,0.0,0.0,-1.3178,-5.72958,-4.29718,9.27,1.02,1.09,3.0
1758075757.07956,1758075757.09193,0.0,0.0,0.0,-4.1253,-3.83882,-5.4431,10.24,1.49,1.03,3.0
1758075757.0955,1758075757.10193,0.0,0.0,0.0,-6.99009,-4.52637,-7.04738,10.24,1.49,1.03,3.0
1758075757.09667,1758075757.11193,0.0,0.0,0.0,-10.25595,-12.204,-6.41713,10.75,1.92,1.28,3.0
1758075757.11145,1758075757.12193,0.0,0.0,0.0,-12.204,-14.15206,-5.09932,11.48,1.93,1.79,3.0
1758075757.1127,1758075757.13193,0.0,0.0,0.0,-14.49583,-11.63104,-2.92208,11.48,1.93,1.79,3.0
1758075757.12747,1758075757.14193,0.0,0.0,0.0,-17.13144,-3.89611,-0.51566,13.22,1.91,2.17,3.0
1758075757.14375,1758075757.15193,0.0,0.0,0.0,-21.37133,17.01685,2.46372,13.22,1.91,2.17,3.0
1758075757.1447,1758075757.16193,0.0,0.0,0.0,-24.17882,39.99245,2.06265,14.96,1.93,2.73,3.0
1758075757.15953,1758075757.17193,0.0,0.0,0.0,-27.96034,55.40502,4.18259,14.96,1.93,2.73,3.0
1758075757.17573,1758075757.18193,0.0,0.0,0.0,-27.10091,-4.46907,8.76626,13.89,2.02,4.95,3.0
1758075757.18058,1758075757.19193,0.0,0.0,0.0,-24.12152,-61.02001,-11.28727,10.31,0.84,6.7,3.0
1758075757.19738,1758075757.20193,0.0,0.0,0.0,-15.87093,-17.6471,-23.26209,10.31,0.84,6.7,3.0
1758075757.20227,1758075757.21193,0.0,0.0,0.0,-5.95876,19.53786,-31.11161,20.87,-0.4,4.87,3.0
1758075757.20288,1758075757.22193,0.0,0.0,0.0,0.68755,20.85567,-34.77854,20.87,-0.4,4.87,3.0
1758075757.22155,1758075757.23193,0.0,0.0,0.0,7.50575,15.87093,-32.25753,14.74,-0.83,5.31,3.0
1758075757.22264,1758075757.24193,0.0,0.0,0.0,10.65701,23.72045,-26.47065,14.74,-0.83,5.31,3.0
1758075757.23757,1758075757.25193,0.0,0.0,0.0,9.4538,28.476,-19.76705,15.02,1.02,5.2,3.0
1758075757.24193,1758075757.26193,0.0,0.0,0.0,5.72958,25.55392,-11.11538,15.02,1.02,5.2,3.0
1758075757.25775,1758075757.27193,0.0,0.0,0.0,-3.60963,12.49048,-1.14592,11.36,2.68,5.1,3.0
1758075757.27483,1758075757.28193,0.0,0.0,0.0,-8.88085,5.32851,2.63561,9.26,2.89,5.46,3.0
1758075757.27578,1758075757.29193,0.0,0.0,0.0,-12.37589,0.11459,5.50039,9.26,2.89,5.46,3.0
1758075757.2924,1758075757.30193,0.0,0.0,0.0,-15.98552,-3.49504,6.7609,8.9,2.43,5.25,3.0
1758075757.29334,1758075757.31193,0.0,0.0,0.0,-18.56383,-14.43854,5.61499,8.9,2.43,5.25,3.0
1758075757.30967,1758075757.32193,0.0,0.0,0.0,-22.00158,-23.72045,3.20856,7.66,1.57,4.95,3.0
1758075757.32581,1758075757.33193,0.0,0.0,0.0,-25.8404,-33.23156,-0.40107,7.66,1.57,4.95,3.0
1758075757.3279,1758075757.34193,0.0,0.0,0.0,-31.56997,-44.8053,-6.8182,6.53,0.82,4.38,3.0
1758075757.34259,1758075757.35193,0.0,0.0,0.0,-33.40344,-49.15978,-10.19865,5.88,0.43,3.69,3.0
1758075757.34623,1758075757.36193,0.0,0.0,0.0,-33.86181,-51.6235,-13.17803,5.88,0.43,3.69,3.0
1758075757.36171,1758075757.37193,0.0,0.0,0.0,-32.14294,-53.62885,-15.0115,5.46,0.16,3.32,3.0
1758075757.36273,1758075757.38193,0.0,0.0,0.0,-28.64789,-55.23313,-16.38659,5.46,0.16,3.32,3.0
1758075757.37769,1758075757.39193,0.0,0.0,0.0,-27.04361,-53.91533,-17.01685,5.75,-0.22,2.94,3.0
1758075757.40143,1758075757.40193,0.0,0.0,0.0,-26.12688,-50.87865,-17.58981,5.75,-0.22,2.94,3.0
1758075757.40238,1758075757.41193,0.0,0.0,0.0,-25.8404,-46.81066,-18.16276,6.78,-0.44,2.16,3.0
1758075757.40298,1758075757.42193,0.0,0.0,0.0,-25.38203,-39.87786,-18.16276,7.48,-0.37,1.5,3.0
1758075757.41966,1758075757.43193,0.0,0.0,0.0,-24.80907,-36.6693,-17.58981,7.48,-0.37,1.5,3.0
1758075757.43583,1758075757.44193,0.0,0.0,0.0,-24.4653,-35.86716,-16.21471,7.81,-0.08,1.59,3.0
1758075757.43767,1758075757.45193,0.0,0.0,0.0,-23.66316,-35.40879,-13.5791,7.81,-0.08,1.59,3.0
1758075757.45287,1758075757.46193,0.0,0.0,0.0,-22.91831,-27.50197,-9.11003,8.12,0.13,1.46,3.0
1758075757.45459,1758075757.47193,0.0,0.0,0.0,-22.28806,-24.80907,-5.21392,8.12,0.13,1.46,3.0
1758075757.46983,1758075757.48193,0.0,0.0,0.0,-21.88699,-22.11617,-2.00535,7.96,0.26,1.31,3.0
1758075757.47246,1758075757.49193,0.0,0.0,0.0,-20.62648,-20.45459,2.34913,7.96,0.26,1.31,3.0
1758075757.48863,1758075757.50193,0.0,0.0,0.0,-18.56383,-18.10547,4.69825,7.49,0.24,1.48,3.0
1758075757.50461,1758075757.51193,0.0,0.0,0.0,-17.93358,-15.58445,6.41713,7.41,0.03,1.35,3.0
1758075757.50665,1758075757.52193,0.0,0.0,0.0,-17.18874,-12.83425,8.02141,7.41,0.03,1.35,3.0
1758075757.52409,1758075757.53193,0.0,0.0,0.0,-16.50119,-7.67763,9.39651,7.65,-0.15,1.15,3.0
1758075757.55214,1758075757.54193,0.0,0.0,0.0,-16.272,-3.66693,10.08406,7.65,-0.15,1.15,3.0
1758075757.55627,1758075757.55193,0.0,0.0,0.0,-15.69904,0.11459,11.00079,8.28,-0.33,1.06,3.0
1758075757.55805,1758075757.56193,0.0,0.0,0.0,-15.41257,4.98473,11.51645,8.28,-0.33,1.06,3.0
1758075757.56268,1758075757.57193,0.0,0.0,0.0,-14.78231,11.74564,13.06344,9.12,-0.47,1.12,3.0
1758075757.56387,1758075757.58193,0.0,0.0,0.0,-20.97026,-11.45916,9.22462,7.82,-0.51,1.96,3.0
1758075757.579,1758075757.59193,0.0,0.0,0.0,-19.07949,-72.70835,25.61122,7.82,-0.51,1.96,3.0
1758075757.59572,1758075757.60193,0.0,0.0,0.0,-21.7151,-94.25156,34.89313,5.97,-0.32,3.0,3.0
1758075757.59693,1758075757.61193,0.0,0.0,0.0,-24.86637,-62.28051,50.76406,5.97,-0.32,3.0,3.0
1758075757.61198,1758075757.62193,0.0,0.0,0.0,-28.01764,-47.61279,52.82671,11.66,-1.15,-1.68,3.0
1758075757.61297,1758075757.63193,0.0,0.0,0.0,-27.44468,-54.94666,51.50891,11.66,-1.15,-1.68,3.0
1758075757.63179,1758075757.64193,0.0,0.0,0.0,-23.94964,-58.84277,43.37291,7.99,-1.01,1.72,3.0
1758075757.63374,1758075757.65193,0.0,0.0,0.0,-16.21471,-34.77854,18.9649,9.06,-1.19,0.02,3.0
1758075757.64879,1758075757.66193,0.0,0.0,0.0,-11.00079,-17.30333,-0.57296,9.06,-1.19,0.02,3.0
1758075757.66508,1758075757.67193,0.0,0.0,0.0,-4.81285,-2.34913,-17.13144,8.51,-1.25,0.77,3.0
1758075757.66682,1758075757.68193,0.0,0.0,0.0,2.23454,11.11538,-28.01764,8.51,-1.25,0.77,3.0
1758075757.68181,1758075757.69193,0.0,0.0,0.0,13.86558,22.05888,-31.16891,8.34,-1.81,0.76,3.0
1758075757.68302,1758075757.70193,0.0,0.0,0.0,22.34536,26.98631,-26.18417,8.34,-1.81,0.76,3.0
1758075757.69981,1758075757.71193,0.0,0.0,0.0,30.65324,34.32018,-17.36062,9.58,-2.58,0.06,3.0
1758075757.71614,1758075757.72193,0.0,0.0,0.0,41.65404,46.81066,-3.32316,9.58,-2.58,0.06,3.0
1758075757.71697,1758075757.73193,0.0,0.0,0.0,46.98254,63.25455,5.21392,12.12,-2.97,-0.34,3.0
1758075757.73209,1758075757.74193,0.0,0.0,0.0,51.5662,64.40046,10.48513,12.12,-2.33,0.06,3.0
1758075757.73302,1758075757.75193,0.0,0.0,0.0,55.40502,60.10328,14.15206,12.12,-2.33,0.06,3.0
1758075757.74887,1758075757.76193,0.0,0.0,0.0,60.27517,51.22243,14.15206,11.97,-1.33,0.93,3.0
1758075757.76652,1758075757.77193,0.0,0.0,0.0,62.28051,57.58226,11.74564,11.97,-1.33,0.93,3.0
1758075757.76774,1758075757.78193,0.0,0.0,0.0,65.37449,61.93674,6.58902,13.32,-0.99,1.35,3.0
1758075757.80694,1758075757.79193,0.0,0.0,0.0,66.5204,55.34772,2.86479,13.32,-0.99,1.35,3.0
1758075757.84957,1758075757.80193,0.0,0.0,0.0,63.94209,7.04738,1.94806,12.77,-0.94,7.31,3.0
1758075757.85178,1758075757.81193,0.0,0.0,0.0,56.55093,-14.32395,9.22462,14.01,2.1,5.79,3.0
1758075757.853,1758075757.82193,0.0,0.0,0.0,43.94586,-2.11994,18.44924,14.01,2.1,5.79,3.0
1758075757.85467,1758075757.83193,0.0,0.0,0.0,30.93972,28.76248,20.74107,19.87,3.81,1.47,3.0
1758075757.85724,1758075757.84193,0.0,0.0,0.0,13.69369,48.9306,17.18874,19.87,3.81,1.47,3.0
1758075757.85789,1758075757.85193,0.0,0.0,0.0,5.4431,44.11775,11.34457,14.14,3.5,0.02,3.0
1758075757.85943,1758075757.86193,0.0,0.0,0.0,-1.94806,39.07573,2.34913,14.14,3.5,0.02,3.0
1758075757.86213,1758075757.87193,0.0,0.0,0.0,-5.50039,29.9084,-4.98473,12.39,1.6,5.24,3.0
1758075757.86296,1758075757.88193,0.0,0.0,0.0,-6.99009,16.10011,-11.11538,13.46,0.2,5.22,3.0
1758075757.88048,1758075757.89193,0.0,0.0,0.0,-7.79223,17.13144,-12.60507,13.46,0.2,5.22,3.0
1758075757.88249,1758075757.90193,0.0,0.0,0.0,-8.36518,19.25138,-12.54778,14.8,0.13,4.17,3.0
1758075757.89809,1758075757.91193,0.0,0.0,0.0,-7.84952,14.78231,-10.65701,14.8,0.13,4.17,3.0
1758075757.91579,1758075757.92193,0.0,0.0,0.0,-5.09932,3.32316,-10.19865,10.47,-0.35,3.28,3.0
1758075757.91688,1758075757.93193,0.0,0.0,0.0,-1.48969,-6.41713,-8.42248,10.47,-0.35,3.28,3.0
1758075757.93192,1758075757.94193,0.0,0.0,0.0,3.72423,-15.24068,-6.13065,7.03,-0.56,3.36,3.0
1758075757.93395,1758075757.95193,0.0,0.0,0.0,12.83425,-22.40265,-2.97938,7.03,-0.56,3.36,3.0
1758075757.94968,1758075757.96193,0.0,0.0,0.0,18.27736,-24.35071,-0.45837,6.04,0.02,3.43,3.0
1758075757.95332,1758075757.97193,0.0,0.0,0.0,22.68913,-26.41335,2.00535,5.86,0.68,3.95,3.0
1758075757.96992,1758075757.98193,0.0,0.0,0.0,25.72581,-29.9084,4.18259,5.86,0.68,3.95,3.0
1758075757.98595,1758075757.99193,0.0,0.0,0.0,27.67386,-36.03905,7.62034,5.47,1.21,3.9,3.0
1758075757.98717,1758075758.00193,0.0,0.0,0.0,27.78845,-37.52874,9.5684,5.47,1.21,3.9,3.0
1758075758.00197,1758075758.01193,0.0,0.0,0.0,27.73116,-35.69527,11.00079,6.18,1.58,3.31,3.0
1758075758.00394,1758075758.02193,0.0,0.0,0.0,27.44468,-31.28349,13.12073,6.18,1.58,3.31,3.0
1758075758.0198,1758075758.03193,0.0,0.0,0.0,26.41335,-25.43933,16.73037,7.67,1.74,2.8,3.0
1758075758.0362,1758075758.04193,0.0,0.0,0.0,25.61122,-21.14215,18.56383,8.65,1.59,2.25,3.0
1758075758.03743,1758075758.05193,0.0,0.0,0.0,24.80907,-15.64175,19.59516,8.65,1.59,2.25,3.0
1758075758.052,1758075758.06193,0.0,0.0,0.0,23.83505,-9.74028,19.19409,9.49,1.28,2.09,3.0
1758075758.05397,1758075758.07193,0.0,0.0,0.0,22.40265,-2.23454,17.01685,9.49,1.28,2.09,3.0
1758075758.06886,1758075758.08193,0.0,0.0,0.0,21.37133,2.7502,14.78231,9.3,0.99,2.1,3.0
1758075758.08529,1758075758.09193,0.0,0.0,0.0,20.3973,7.21927,12.08941,9.3,0.99,2.1,3.0
1758075758.08696,1758075758.10193,0.0,0.0,0.0,19.59516,11.00079,8.93814,8.79,0.92,2.32,3.0
1758075758.10203,1758075758.11193,0.0,0.0,0.0,18.44924,13.98017,4.81285,8.2,0.92,2.59,3.0
1758075758.1032,1758075758.12193,0.0,0.0,0.0,17.76169,13.5218,2.57831,8.2,0.92,2.59,3.0
1758075758.11806,1758075758.13193,0.0,0.0,0.0,17.01685,13.34992,0.85944,7.73,0.86,2.61,3.0
1758075758.13408,1758075758.14193,0.0,0.0,0.0,16.3293,13.40721,-0.45837,7.73,0.86,2.61,3.0
1758075758.13522,1758075758.15193,0.0,0.0,0.0,15.87093,13.46451,-1.03132,7.72,0.78,2.61,3.0
1758075758.15004,1758075758.16193,0.0,0.0,0.0,15.69904,13.98017,-0.68755,7.72,0.78,2.61,3.0
1758075758.16608,1758075758.17193,0.0,0.0,0.0,15.46986,13.69369,0.11459,7.73,0.68,2.59,3.0
