timeStamp,timeStampAlign,roll,pitch,yaw,gyro_x,gyro_y,gyro_z,acc_x,acc_y,acc_z,flag_num
1758076100.91087,1758076100.86114,0.0,0.0,0.0,35.00772,-45.43555,42.34158,11.09,2.04,2.61,2.0
1758076100.91316,1758076100.87114,0.0,0.0,0.0,29.9084,-41.71133,47.67009,12.49,2.58,2.52,2.0
1758076100.92791,1758076100.88114,0.0,0.0,0.0,24.00693,-39.87786,48.41494,9.48,1.95,3.19,2.0
1758076100.92904,1758076100.89114,0.0,0.0,0.0,18.27736,-38.27358,47.09713,9.48,1.95,3.19,2.0
1758076100.9451,1758076100.90114,0.0,0.0,0.0,12.43318,-32.6013,39.3622,7.89,1.1,3.49,2.0
1758076100.96192,1758076100.91114,0.0,0.0,0.0,11.86023,-29.62192,34.09099,7.89,1.1,3.49,2.0
1758076100.9656,1758076100.92114,0.0,0.0,0.0,13.80828,-27.96034,29.9084,7.86,0.37,4.65,2.0
1758076100.96949,1758076100.93114,0.0,0.0,0.0,17.13144,-24.86637,26.01229,7.86,0.37,4.65,2.0
1758076100.98504,1758076100.94114,0.0,0.0,0.0,22.05888,-17.01685,21.7151,9.59,0.0,4.51,2.0
1758076100.99086,1758076100.95114,0.0,0.0,0.0,24.5226,-12.83425,19.53786,10.43,-0.01,3.09,2.0
1758076101.00917,1758076100.96114,0.0,0.0,0.0,25.89769,-8.59437,18.33465,10.43,-0.01,3.09,2.0
1758076101.01087,1758076100.97114,0.0,0.0,0.0,26.12688,-1.48969,17.36062,11.17,0.02,2.32,2.0
1758076101.02911,1758076100.98114,0.0,0.0,0.0,24.17882,11.74564,14.83961,11.17,0.02,2.32,2.0
1758076101.0309,1758076100.99114,0.0,0.0,0.0,22.11617,20.05352,12.43318,11.73,0.3,1.82,2.0
1758076101.04896,1758076101.00114,0.0,0.0,0.0,19.88164,29.33544,8.76626,11.73,0.3,1.82,2.0
1758076101.05119,1758076101.01114,0.0,0.0,0.0,17.81899,38.73195,2.29183,11.23,0.75,1.52,2.0
1758076101.06592,1758076101.02114,0.0,0.0,0.0,15.24068,49.04519,-3.20856,10.2,1.11,1.41,2.0
1758076101.07022,1758076101.03114,0.0,0.0,0.0,13.98017,53.51426,-8.02141,10.2,1.11,1.41,2.0
1758076101.09,1758076101.04114,0.0,0.0,0.0,12.83425,56.32175,-11.91752,9.47,1.29,1.52,2.0
1758076101.09257,1758076101.05114,0.0,0.0,0.0,11.34457,60.44705,-15.92823,9.47,1.29,1.52,2.0
1758076101.10891,1758076101.06114,0.0,0.0,0.0,9.96947,63.59832,-16.67307,9.47,1.33,1.48,2.0
1758076101.10994,1758076101.07114,0.0,0.0,0.0,8.47978,65.48907,-15.92823,9.47,1.33,1.48,2.0
1758076101.12591,1758076101.08114,0.0,0.0,0.0,6.41713,65.89015,-14.03747,9.3,1.17,1.49,2.0
1758076101.13263,1758076101.09114,0.0,0.0,0.0,2.7502,62.39511,-10.37054,8.68,1.17,1.6,2.0
1758076101.14895,1758076101.10114,0.0,0.0,0.0,-0.11459,59.18654,-7.84952,8.68,0.9,1.6,2.0
1758076101.14987,1758076101.11114,0.0,0.0,0.0,-3.38045,56.26446,-5.90147,8.3,0.67,1.47,2.0
1758076101.16593,1758076101.12114,0.0,0.0,0.0,-6.53172,53.11319,-4.58366,8.3,0.67,1.47,2.0
1758076101.18371,1758076101.13114,0.0,0.0,0.0,-10.59972,47.32632,-4.64096,7.99,0.66,1.34,2.0
1758076101.18489,1758076101.14114,0.0,0.0,0.0,-12.60507,41.48215,-5.32851,7.99,0.66,1.34,2.0
1758076101.19988,1758076101.15114,0.0,0.0,0.0,-14.09476,35.3515,-6.18794,7.64,0.7,1.38,2.0
1758076101.2019,1758076101.16114,0.0,0.0,0.0,-15.12609,29.50733,-6.7609,7.64,0.7,1.38,2.0
1758076101.21689,1758076101.17114,0.0,0.0,0.0,-15.64175,19.99623,-6.87549,7.75,0.6,1.26,2.0
1758076101.23323,1758076101.18114,0.0,0.0,0.0,-15.69904,13.5791,-6.41713,7.87,0.42,1.17,2.0
1758076101.2341,1758076101.19114,0.0,0.0,0.0,-15.41257,8.99544,-5.50039,7.87,0.42,1.17,2.0
1758076101.24894,1758076101.20114,0.0,0.0,0.0,-15.35527,6.07335,-3.66693,8.24,0.21,0.95,2.0
1758076101.25016,1758076101.21114,0.0,0.0,0.0,-14.09476,3.49504,-1.03132,8.24,0.21,0.95,2.0
1758076101.26506,1758076101.22114,0.0,0.0,0.0,-13.17803,1.14592,1.43239,8.51,0.09,0.76,2.0
1758076101.26958,1758076101.23114,0.0,0.0,0.0,-12.54778,-2.06265,3.26586,8.51,0.09,0.76,2.0
1758076101.28594,1758076101.24114,0.0,0.0,0.0,-11.97482,-7.96411,5.90147,8.57,0.04,0.84,2.0
1758076101.302,1758076101.25114,0.0,0.0,0.0,-12.204,-12.54778,7.84952,8.65,0.03,0.77,2.0
1758076101.30473,1758076101.26114,0.0,0.0,0.0,-13.34992,-18.27736,9.11003,8.65,0.03,0.77,2.0
1758076101.3199,1758076101.27114,0.0,0.0,0.0,-14.83961,-24.12152,9.74028,8.82,0.09,1.09,2.0
1758076101.32352,1758076101.28114,0.0,0.0,0.0,-19.13679,-33.17426,10.02676,8.82,0.09,1.09,2.0
1758076101.33915,1758076101.29114,0.0,0.0,0.0,-22.97561,-39.24761,8.30789,9.33,0.35,1.46,2.0
1758076101.34011,1758076101.30114,0.0,0.0,0.0,-27.61657,-44.9199,4.87014,9.33,0.35,1.46,2.0
1758076101.35622,1758076101.31114,0.0,0.0,0.0,-32.54401,-48.41494,0.11459,9.91,0.69,1.68,2.0
1758076101.37317,1758076101.32114,0.0,0.0,0.0,-40.7946,-49.79003,-8.30789,10.54,0.92,1.49,2.0
1758076101.37441,1758076101.33114,0.0,0.0,0.0,-46.1231,-52.13916,-13.5218,10.54,0.92,1.49,2.0
1758076101.38892,1758076101.34114,0.0,0.0,0.0,-51.6235,-52.9986,-17.99088,10.64,1.09,0.95,2.0
1758076101.39327,1758076101.35114,0.0,0.0,0.0,-56.49364,-47.72739,-19.99623,10.64,1.09,0.95,2.0
1758076101.40886,1758076101.36114,0.0,0.0,0.0,-63.59832,-33.46074,-19.07949,11.72,1.11,0.61,2.0
1758076101.41194,1758076101.37114,0.0,0.0,0.0,-67.15066,-21.25674,-15.46986,11.72,1.11,0.61,2.0
1758076101.42916,1758076101.38114,0.0,0.0,0.0,-69.27061,-13.98017,-10.31324,12.22,0.73,0.46,2.0
1758076101.43123,1758076101.39114,0.0,0.0,0.0,-69.67168,-21.02755,-6.87549,12.22,0.73,0.46,2.0
1758076101.44593,1758076101.40114,0.0,0.0,0.0,-63.54102,-27.96034,-0.34377,10.86,0.26,1.16,2.0
1758076101.46401,1758076101.41114,0.0,0.0,0.0,-57.81144,-34.37747,0.0,11.66,-0.57,1.57,2.0
1758076101.46491,1758076101.42114,0.0,0.0,0.0,-52.82671,-41.76862,-2.57831,11.66,-0.57,1.57,2.0
1758076101.47993,1758076101.43114,0.0,0.0,0.0,-45.77933,-49.50356,-9.68299,12.41,-0.6,1.89,2.0
1758076101.48193,1758076101.44114,0.0,0.0,0.0,-40.50812,-55.34772,-15.12609,12.41,-0.6,1.89,2.0
1758076101.49894,1758076101.45114,0.0,0.0,0.0,-37.52874,-44.00316,-21.31403,12.66,-1.03,2.28,2.0
1758076101.50169,1758076101.46114,0.0,0.0,0.0,-36.55471,-33.23156,-27.10091,12.66,-1.03,2.28,2.0
1758076101.51892,1758076101.47114,0.0,0.0,0.0,-35.3515,-30.30947,-36.15364,12.7,-0.79,2.56,2.0
1758076101.52006,1758076101.48114,0.0,0.0,0.0,-34.43476,-31.2262,-40.45082,10.35,-0.2,3.6,2.0
1758076101.53535,1758076101.49114,0.0,0.0,0.0,-32.77319,-26.75713,-42.34158,10.35,-0.2,3.6,2.0
1758076101.53935,1758076101.50114,0.0,0.0,0.0,-31.62727,-22.11617,-41.99781,9.49,0.33,3.38,2.0
1758076101.5552,1758076101.51114,0.0,0.0,0.0,-32.25753,-17.58981,-38.44547,9.49,0.33,3.38,2.0
1758076101.55913,1758076101.52114,0.0,0.0,0.0,-34.60666,-13.69369,-35.52338,8.46,0.67,3.95,2.0
1758076101.57517,1758076101.53114,0.0,0.0,0.0,-37.47144,-11.51645,-33.05967,8.46,0.67,3.95,2.0
1758076101.59206,1758076101.54114,0.0,0.0,0.0,-40.7373,-10.37054,-31.2262,9.3,0.55,4.13,2.0
1758076101.59532,1758076101.55114,0.0,0.0,0.0,-43.37291,-7.50575,-26.24147,11.0,0.47,3.03,2.0
1758076101.59891,1758076101.56114,0.0,0.0,0.0,-43.60209,-5.27121,-22.23076,11.0,0.47,3.03,2.0
1758076101.61496,1758076101.57114,0.0,0.0,0.0,-42.22699,-1.48969,-17.99088,12.0,0.27,2.09,2.0
1758076101.63324,1758076101.58114,0.0,0.0,0.0,-39.4768,3.60963,-14.09476,12.0,0.27,2.09,2.0
1758076101.63375,1758076101.59114,0.0,0.0,0.0,-34.14828,8.99544,-8.76626,11.91,-0.21,1.78,2.0
1758076101.64922,1758076101.60114,0.0,0.0,0.0,-30.30947,11.97482,-5.32851,11.91,-0.21,1.78,2.0
1758076101.65015,1758076101.61114,0.0,0.0,0.0,-27.33009,14.20935,-1.48969,10.86,-0.89,1.58,2.0
1758076101.66598,1758076101.62114,0.0,0.0,0.0,-24.00693,17.36062,1.94806,10.86,-0.89,1.58,2.0
1758076101.68373,1758076101.63114,0.0,0.0,0.0,-19.59516,20.79837,6.99009,10.18,-1.37,1.21,2.0
1758076101.68446,1758076101.64114,0.0,0.0,0.0,-17.18874,23.49127,9.85487,9.7,-1.42,0.94,2.0
1758076101.70024,1758076101.65114,0.0,0.0,0.0,-15.41257,25.55392,11.51645,9.7,-1.42,0.94,2.0
1758076101.70464,1758076101.66114,0.0,0.0,0.0,-12.54778,29.39274,13.17803,9.25,-1.17,0.71,2.0
1758076101.72027,1758076101.67114,0.0,0.0,0.0,-10.71431,31.45539,13.5218,9.25,-1.17,0.71,2.0
1758076101.72116,1758076101.68114,0.0,0.0,0.0,-9.22462,32.83048,13.06344,8.73,-0.85,0.72,2.0
1758076101.73837,1758076101.69114,0.0,0.0,0.0,-8.0787,33.40344,11.97482,8.73,-0.85,0.72,2.0
1758076101.73954,1758076101.70114,0.0,0.0,0.0,-6.07335,31.97105,10.08406,8.13,-0.49,0.88,2.0
1758076101.7552,1758076101.71114,0.0,0.0,0.0,-4.92744,28.93437,8.02141,7.59,-0.19,0.93,2.0
1758076101.75918,1758076101.72114,0.0,0.0,0.0,-4.1253,26.35606,5.90147,7.59,-0.19,0.93,2.0
1758076101.77515,1758076101.73114,0.0,0.0,0.0,-3.20856,24.29341,4.1253,7.59,-0.06,0.99,2.0
1758076101.77919,1758076101.74114,0.0,0.0,0.0,-1.71887,21.88699,2.34913,7.59,-0.06,0.99,2.0
1758076101.79503,1758076101.75114,0.0,0.0,0.0,-0.68755,20.22541,2.00535,7.64,-0.11,0.67,2.0
1758076101.79956,1758076101.76114,0.0,0.0,0.0,0.0573,19.13679,1.60428,7.64,-0.11,0.67,2.0
1758076101.81625,1758076101.77114,0.0,0.0,0.0,0.57296,17.53251,1.48969,7.78,-0.22,0.49,2.0
1758076101.83379,1758076101.78114,0.0,0.0,0.0,1.3751,14.61043,1.03132,7.92,-0.35,0.35,2.0
1758076101.83453,1758076101.79114,0.0,0.0,0.0,1.71887,15.06879,0.11459,7.92,-0.35,0.35,2.0
1758076101.85119,1758076101.80114,0.0,0.0,0.0,1.71887,16.21471,-1.48969,8.4,-0.49,0.18,2.0
1758076101.85508,1758076101.81114,0.0,0.0,0.0,1.77617,16.21471,-3.72423,8.4,-0.49,0.18,2.0
1758076101.87001,1758076101.82114,0.0,0.0,0.0,1.94806,13.80828,-7.84952,8.48,-0.54,0.26,2.0
1758076101.8732,1758076101.83114,0.0,0.0,0.0,2.34913,9.96947,-11.11538,8.48,-0.54,0.26,2.0
1758076101.88825,1758076101.84114,0.0,0.0,0.0,3.26586,6.13065,-15.35527,8.82,-0.44,0.16,2.0
1758076101.8892,1758076101.85114,0.0,0.0,0.0,5.78687,5.55769,-18.50654,8.82,-0.44,0.16,2.0
1758076101.90528,1758076101.86114,0.0,0.0,0.0,8.93814,2.92208,-17.76169,10.05,-0.44,0.69,2.0
1758076101.9213,1758076101.87114,0.0,0.0,0.0,13.00614,-0.22918,-14.38124,10.61,-0.74,0.75,2.0
1758076101.9225,1758076101.88114,0.0,0.0,0.0,17.58981,-5.4431,-9.39651,10.61,-0.74,0.75,2.0
1758076101.93925,1758076101.89114,0.0,0.0,0.0,24.35071,-15.35527,-0.22918,10.75,-0.94,0.81,2.0
1758076101.94046,1758076101.90114,0.0,0.0,0.0,29.10626,-19.48057,5.55769,10.75,-0.94,0.81,2.0
1758076101.95598,1758076101.91114,0.0,0.0,0.0,33.74722,-20.62648,10.71431,11.03,-0.77,0.65,2.0
1758076101.97294,1758076101.92114,0.0,0.0,0.0,38.84654,-20.79837,15.12609,11.03,-0.77,0.65,2.0
1758076101.97534,1758076101.93114,0.0,0.0,0.0,46.2377,-24.98096,18.90761,10.98,-0.6,0.31,2.0
1758076101.99303,1758076101.94114,0.0,0.0,0.0,50.64947,-25.38203,19.76705,10.82,-0.57,0.04,2.0
1758076101.99362,1758076101.95114,0.0,0.0,0.0,55.57691,-20.16812,18.44924,10.82,-0.57,0.04,2.0
1758076102.0092,1758076101.96114,0.0,0.0,0.0,60.27517,-9.39651,15.64175,12.28,-0.97,-0.13,2.0
1758076102.01045,1758076101.97114,0.0,0.0,0.0,67.72362,11.17268,10.19865,12.28,-0.97,-0.13,2.0
1758076102.02528,1758076101.98114,0.0,0.0,0.0,71.21866,22.91831,5.27121,13.02,-1.49,-0.12,2.0
1758076102.04103,1758076101.99114,0.0,0.0,0.0,74.25533,28.36141,0.45837,13.02,-1.49,-0.12,2.0
1758076102.04379,1758076102.00114,0.0,0.0,0.0,77.06283,24.98096,-2.57831,11.93,-1.64,0.26,2.0
1758076102.05933,1758076102.01114,0.0,0.0,0.0,77.57849,3.60963,-4.87014,10.4,-1.09,1.04,2.0
1758076102.06046,1758076102.02114,0.0,0.0,0.0,75.17207,-12.49048,-2.92208,10.4,-1.09,1.04,2.0
1758076102.07533,1758076102.03114,0.0,0.0,0.0,72.76565,-27.67386,3.83882,10.58,0.02,2.28,2.0
1758076102.09306,1758076102.04114,0.0,0.0,0.0,69.04142,-40.16434,14.78231,10.58,0.02,2.28,2.0
1758076102.09358,1758076102.05114,0.0,0.0,0.0,65.71826,-54.88936,25.09555,10.95,1.06,3.13,2.0
1758076102.10904,1758076102.06114,0.0,0.0,0.0,62.56699,-56.26446,34.26288,10.95,1.06,3.13,2.0
1758076102.11019,1758076102.07114,0.0,0.0,0.0,57.86874,-51.45161,41.94051,11.63,1.98,3.18,2.0
1758076102.12532,1758076102.08114,0.0,0.0,0.0,49.96192,-47.32632,49.90463,11.63,1.98,3.18,2.0
1758076102.14101,1758076102.09114,0.0,0.0,0.0,44.8053,-45.37826,51.6235,10.34,2.37,3.57,2.0
1758076102.14415,1758076102.10114,0.0,0.0,0.0,39.70598,-40.50812,50.76406,8.55,2.16,3.41,2.0
1758076102.15931,1758076102.11114,0.0,0.0,0.0,35.92446,-34.49206,48.52953,8.55,2.16,3.41,2.0
1758076102.16028,1758076102.12114,0.0,0.0,0.0,33.00237,-23.60586,43.02913,8.06,1.57,3.72,2.0
1758076102.17531,1758076102.13114,0.0,0.0,0.0,33.17426,-19.99623,39.4768,8.06,1.57,3.72,2.0
1758076102.19187,1758076102.14114,0.0,0.0,0.0,35.40879,-17.99088,37.81522,8.74,1.01,4.44,2.0
1758076102.19474,1758076102.15114,0.0,0.0,0.0,37.87251,-13.06344,35.75257,8.74,1.01,4.44,2.0
1758076102.21091,1758076102.16114,0.0,0.0,0.0,40.96649,-3.38045,30.88243,10.91,0.5,3.59,2.0
1758076102.21526,1758076102.17114,0.0,0.0,0.0,41.42485,4.29718,26.69983,11.95,-0.01,2.35,2.0
1758076102.23119,1758076102.18114,0.0,0.0,0.0,41.25296,12.83425,22.28806,11.95,-0.01,2.35,2.0
1758076102.23471,1758076102.19114,0.0,0.0,0.0,39.64868,21.94428,16.90226,12.26,-0.21,1.65,2.0
1758076102.25121,1758076102.20114,0.0,0.0,0.0,35.69527,36.38282,9.4538,12.26,-0.21,1.65,2.0
1758076102.25768,1758076102.21114,0.0,0.0,0.0,32.48671,44.46153,4.0107,11.71,0.1,1.45,2.0
1758076102.27336,1758076102.22114,0.0,0.0,0.0,29.62192,50.82136,-0.22918,11.71,0.1,1.45,2.0
1758076102.2739,1758076102.23114,0.0,0.0,0.0,27.04361,55.34772,-4.81285,10.55,0.69,1.46,2.0
1758076102.29006,1758076102.24114,0.0,0.0,0.0,23.83505,58.90006,-9.39651,9.62,1.19,1.64,2.0
1758076102.29178,1758076102.25114,0.0,0.0,0.0,21.6578,61.1346,-11.97482,9.62,1.19,1.64,2.0
1758076102.30606,1758076102.26114,0.0,0.0,0.0,19.70975,63.59832,-13.80828,9.38,1.47,1.67,2.0
1758076102.30948,1758076102.27114,0.0,0.0,0.0,16.3293,64.91612,-15.0115,9.38,1.47,1.67,2.0
1758076102.32589,1758076102.28114,0.0,0.0,0.0,13.5791,64.91612,-14.03747,9.13,1.45,1.9,2.0
1758076102.32705,1758076102.29114,0.0,0.0,0.0,10.37054,61.99404,-13.23533,9.13,1.45,1.9,2.0
1758076102.34417,1758076102.30114,0.0,0.0,0.0,6.70361,58.84277,-11.45916,8.53,1.2,1.83,2.0
1758076102.3613,1758076102.31114,0.0,0.0,0.0,0.34377,54.71747,-9.33921,8.53,1.2,1.83,2.0
1758076102.36387,1758076102.32114,0.0,0.0,0.0,-3.60963,52.36834,-8.30789,8.07,0.96,1.7,2.0
1758076102.37932,1758076102.33114,0.0,0.0,0.0,-7.62034,49.15978,-8.02141,7.81,0.82,1.58,2.0
1758076102.3803,1758076102.34114,0.0,0.0,0.0,-10.94349,45.20637,-8.25059,7.81,0.82,1.58,2.0
1758076102.39544,1758076102.35114,0.0,0.0,0.0,-15.12609,38.1017,-9.28192,7.62,0.76,1.66,2.0
1758076102.39709,1758076102.36114,0.0,0.0,0.0,-17.01685,31.2262,-9.91217,7.62,0.76,1.66,2.0
1758076102.41266,1758076102.37114,0.0,0.0,0.0,-18.27736,23.66316,-9.96947,7.44,0.67,1.44,2.0
1758076102.42891,1758076102.38114,0.0,0.0,0.0,-18.85031,16.10011,-9.5684,7.44,0.67,1.44,2.0
1758076102.43362,1758076102.39114,0.0,0.0,0.0,-19.07949,7.16197,-8.65166,7.5,0.56,1.21,2.0
1758076102.44943,1758076102.40114,0.0,0.0,0.0,-18.73572,3.66693,-6.58902,7.92,0.48,0.94,2.0
1758076102.45033,1758076102.41114,0.0,0.0,0.0,-17.93358,1.94806,-4.98473,7.92,0.48,0.94,2.0
1758076102.46612,1758076102.42114,0.0,0.0,0.0,-16.73037,-0.11459,-2.6929,8.29,0.39,0.82,2.0
1758076102.4673,1758076102.43114,0.0,0.0,0.0,-14.66772,-5.95876,1.03132,8.29,0.39,0.82,2.0
1758076102.48395,1758076102.44114,0.0,0.0,0.0,-13.75099,-11.22997,3.49504,8.43,0.27,0.89,2.0
1758076102.49915,1758076102.45114,0.0,0.0,0.0,-13.17803,-17.76169,5.72958,8.43,0.27,0.89,2.0
1758076102.50039,1758076102.46114,0.0,0.0,0.0,-13.17803,-24.98096,8.42248,8.76,0.12,0.94,2.0
1758076102.51544,1758076102.47114,0.0,0.0,0.0,-16.3293,-33.51803,8.65166,9.14,0.11,1.01,2.0
1758076102.53431,1758076102.48114,0.0,0.0,0.0,-19.07949,-39.76327,7.96411,9.14,0.11,1.01,2.0
1758076102.53552,1758076102.49114,0.0,0.0,0.0,-21.7151,-45.09178,6.13065,9.39,0.23,1.06,2.0
1758076102.55141,1758076102.50114,0.0,0.0,0.0,-25.8404,-55.34772,1.3178,9.39,0.23,1.06,2.0
1758076102.55238,1758076102.51114,0.0,0.0,0.0,-28.24682,-63.42643,-2.06265,9.52,0.32,1.48,2.0
1758076102.5674,1758076102.52114,0.0,0.0,0.0,-29.73651,-68.23928,-5.32851,9.52,0.32,1.48,2.0
1758076102.56908,1758076102.53114,0.0,0.0,0.0,-30.65324,-63.54102,-6.41713,9.99,0.12,1.24,2.0
1758076102.58436,1758076102.54114,0.0,0.0,0.0,-34.0337,-45.03448,-6.47442,9.99,0.12,1.37,2.0
1758076102.60023,1758076102.55114,0.0,0.0,0.0,-37.52874,-36.61201,-5.09932,11.71,-0.21,1.37,2.0
1758076102.60156,1758076102.56114,0.0,0.0,0.0,-41.76862,-46.1231,-5.4431,10.68,0.17,0.81,2.0
1758076102.61715,1758076102.57114,0.0,0.0,0.0,-45.37826,-54.60288,-5.15662,10.68,0.17,0.81,2.0
1758076102.61808,1758076102.58114,0.0,0.0,0.0,-49.61814,-56.89471,-3.83882,10.34,0.61,-0.11,2.0
1758076102.63377,1758076102.59114,0.0,0.0,0.0,-51.85268,-48.24305,-2.6929,10.34,0.61,-0.11,2.0
1758076102.64934,1758076102.60114,0.0,0.0,0.0,-53.62885,-37.24226,-2.86479,12.25,1.12,-0.31,2.0
1758076102.65297,1758076102.61114,0.0,0.0,0.0,-54.02992,-28.13223,-4.23989,12.25,1.12,-0.31,2.0
1758076102.66923,1758076102.62114,0.0,0.0,0.0,-53.74345,-17.58981,-9.22462,13.18,1.22,1.2,2.0
1758076102.67544,1758076102.63114,0.0,0.0,0.0,-51.85268,-15.35527,-13.98017,12.99,0.83,2.02,2.0
1758076102.69122,1758076102.64114,0.0,0.0,0.0,-50.01921,-22.28806,-19.76705,12.99,0.83,2.02,2.0
1758076102.69402,1758076102.65114,0.0,0.0,0.0,-48.35764,-30.53865,-26.87172,11.55,0.04,2.87,2.0
1758076102.70945,1758076102.66114,0.0,0.0,0.0,-44.40423,-35.63798,-35.2942,11.55,0.04,2.87,2.0
1758076102.71116,1758076102.67114,0.0,0.0,0.0,-41.25296,-32.14294,-39.19032,12.09,-0.69,3.2,2.0
1758076102.72615,1758076102.68114,0.0,0.0,0.0,-37.18496,-24.5226,-39.87786,12.09,-0.69,3.2,2.0
1758076102.72736,1758076102.69114,0.0,0.0,0.0,-31.16891,-16.10011,-36.89849,11.77,-1.23,3.51,2.0
1758076102.74542,1758076102.70114,0.0,0.0,0.0,-27.44468,-15.41257,-36.15364,9.86,-0.98,4.16,2.0
1758076102.76132,1758076102.71114,0.0,0.0,0.0,-25.49662,-10.8289,-34.89313,9.86,-0.98,4.16,2.0
1758076102.76317,1758076102.72114,0.0,0.0,0.0,-26.12688,-6.35983,-32.6013,9.56,-0.24,4.09,2.0
1758076102.77814,1758076102.73114,0.0,0.0,0.0,-29.9084,-4.81285,-26.52795,9.56,-0.24,4.09,2.0
1758076102.77937,1758076102.74114,0.0,0.0,0.0,-32.48671,-5.50039,-20.85567,9.59,0.59,3.61,2.0
1758076102.79438,1758076102.75114,0.0,0.0,0.0,-34.0337,-4.87014,-14.9542,9.59,0.59,3.61,2.0
1758076102.81052,1758076102.76114,0.0,0.0,0.0,-34.66395,-1.14592,-9.33921,11.05,1.01,2.71,2.0
1758076102.81138,1758076102.77114,0.0,0.0,0.0,-34.09099,7.73493,-3.49504,12.22,0.68,1.9,2.0
1758076102.82722,1758076102.78114,0.0,0.0,0.0,-32.6013,12.60507,-1.3751,12.22,0.68,1.9,2.0
1758076102.82896,1758076102.79114,0.0,0.0,0.0,-30.65324,16.10011,0.22918,11.63,-0.1,1.79,2.0
1758076102.84516,1758076102.80114,0.0,0.0,0.0,-28.93437,20.62648,1.83346,11.63,-0.1,1.79,2.0
1758076102.84717,1758076102.81114,0.0,0.0,0.0,-27.44468,30.36677,2.00535,11.0,-0.81,1.22,2.0
1758076102.86517,1758076102.82114,0.0,0.0,0.0,-25.7831,32.20023,2.92208,11.0,-0.81,1.22,2.0
1758076102.88044,1758076102.83114,0.0,0.0,0.0,-24.17882,34.32018,3.60963,9.96,-1.03,1.35,2.0
1758076102.88135,1758076102.84114,0.0,0.0,0.0,-23.0902,36.89849,3.95341,9.96,-1.03,1.35,2.0
1758076102.89779,1758076102.85114,0.0,0.0,0.0,-21.88699,39.53409,4.92744,9.64,-0.91,0.89,2.0
1758076102.89937,1758076102.86114,0.0,0.0,0.0,-20.74107,41.88322,5.50039,9.21,-0.69,1.01,2.0
1758076102.91578,1758076102.87114,0.0,0.0,0.0,-19.76705,42.57077,5.84417,9.21,-0.69,1.01,2.0
1758076102.93147,1758076102.88114,0.0,0.0,0.0,-18.85031,43.88857,6.35983,8.59,-0.47,1.07,2.0
1758076102.93243,1758076102.89114,0.0,0.0,0.0,-17.30333,44.23235,6.53172,8.59,-0.47,1.07,2.0
1758076102.94741,1758076102.90114,0.0,0.0,0.0,-15.92823,43.02913,6.58902,7.98,-0.36,1.17,2.0
1758076102.94835,1758076102.91114,0.0,0.0,0.0,-14.15206,40.39353,5.90147,7.98,-0.36,1.17,2.0
1758076102.96374,1758076102.92114,0.0,0.0,0.0,-11.74564,37.75792,4.18259,7.55,-0.33,1.14,2.0
1758076102.97943,1758076102.93114,0.0,0.0,0.0,-9.4538,35.12231,3.66693,7.57,-0.39,0.97,2.0
1758076102.98389,1758076102.94114,0.0,0.0,0.0,-7.04738,32.83048,3.32316,7.57,-0.39,0.97,2.0
1758076102.99907,1758076102.95114,0.0,0.0,0.0,-4.64096,30.88243,2.97938,7.73,-0.51,0.78,2.0
1758076103.0011,1758076102.96114,0.0,0.0,0.0,-1.20321,25.72581,2.6929,7.73,-0.51,0.78,2.0
1758076103.0162,1758076102.97114,0.0,0.0,0.0,0.74485,21.42862,2.23454,7.78,-0.57,0.54,2.0
1758076103.01739,1758076102.98114,0.0,0.0,0.0,2.46372,19.53786,1.3751,7.78,-0.57,0.54,2.0
1758076103.03458,1758076102.99114,0.0,0.0,0.0,3.66693,18.85031,-0.0573,8.12,-0.57,0.39,2.0
1758076103.05055,1758076103.00114,0.0,0.0,0.0,4.92744,16.73037,-2.97938,8.19,-0.53,0.43,2.0
1758076103.05138,1758076103.01114,0.0,0.0,0.0,5.61499,14.49583,-5.27121,8.19,-0.53,0.43,2.0
1758076103.06653,1758076103.02114,0.0,0.0,0.0,6.35983,11.22997,-7.96411,8.14,-0.42,0.47,2.0
1758076103.06741,1758076103.03114,0.0,0.0,0.0,7.33386,7.04738,-10.19865,8.14,-0.42,0.47,2.0
1758076103.08543,1758076103.04114,0.0,0.0,0.0,9.4538,-0.51566,-12.08941,8.47,-0.25,0.63,2.0
1758076103.10146,1758076103.05114,0.0,0.0,0.0,11.97482,-6.47442,-11.91752,8.47,-0.25,0.63,2.0
1758076103.10325,1758076103.06114,0.0,0.0,0.0,15.35527,-11.28727,-10.37054,9.33,-0.25,0.84,2.0
1758076103.11806,1758076103.07114,0.0,0.0,0.0,19.36597,-15.29797,-7.21927,9.33,-0.25,0.84,2.0
1758076103.11931,1758076103.08114,0.0,0.0,0.0,25.61122,-22.57454,-0.68755,10.3,-0.49,0.96,2.0
1758076103.1342,1758076103.09114,0.0,0.0,0.0,30.19488,-26.35606,3.83882,10.73,-0.58,0.92,2.0
1758076103.15205,1758076103.10114,0.0,0.0,0.0,34.77854,-28.07493,8.136,10.73,-0.58,0.92,2.0
1758076103.15456,1758076103.11114,0.0,0.0,0.0,41.42485,-35.00772,14.15206,10.69,-0.56,0.74,2.0
1758076103.17208,1758076103.12114,0.0,0.0,0.0,45.03448,-40.04975,17.18874,10.69,-0.56,0.74,2.0
1758076103.17493,1758076103.13114,0.0,0.0,0.0,48.12846,-39.64868,18.22006,10.1,-0.47,0.22,2.0
1758076103.19179,1758076103.14114,0.0,0.0,0.0,52.42564,-33.05967,19.59516,10.1,-0.47,0.22,2.0
1758076103.19457,1758076103.15114,0.0,0.0,0.0,57.86874,-13.46451,19.42327,11.5,-0.56,0.11,2.0
1758076103.21206,1758076103.16114,0.0,0.0,0.0,60.73353,4.1253,18.44924,12.67,-0.82,0.49,2.0
1758076103.21697,1758076103.17114,0.0,0.0,0.0,62.68159,19.82434,16.61578,12.67,-0.82,0.49,2.0
1758076103.21762,1758076103.18114,0.0,0.0,0.0,64.22858,28.76248,13.5791,12.09,-0.93,0.58,2.0
1758076103.23426,1758076103.19114,0.0,0.0,0.0,66.80688,9.68299,7.44845,12.09,-0.93,0.58,2.0
1758076103.25177,1758076103.20114,0.0,0.0,0.0,70.18733,-11.86023,4.18259,9.18,-0.99,0.24,2.0
1758076103.2579,1758076103.21114,0.0,0.0,0.0,71.10406,-22.57454,6.07335,9.18,-0.99,0.24,2.0
1758076103.25838,1758076103.22114,0.0,0.0,0.0,68.98412,-17.36062,5.09932,11.16,-0.93,0.74,2.0
1758076103.27631,1758076103.23114,0.0,0.0,0.0,65.66096,-12.2613,7.33386,12.81,0.12,1.71,2.0
1758076103.27721,1758076103.24114,0.0,0.0,0.0,63.59832,-20.11082,11.63104,12.81,0.12,1.71,2.0
1758076103.2943,1758076103.25114,0.0,0.0,0.0,61.70755,-30.19488,17.58981,11.66,0.64,3.09,2.0
1758076103.31042,1758076103.26114,0.0,0.0,0.0,59.75951,-37.87251,24.86637,11.66,0.64,3.09,2.0
1758076103.31219,1758076103.27114,0.0,0.0,0.0,54.3737,-38.61736,34.49206,12.02,1.63,2.64,2.0
1758076103.32749,1758076103.28114,0.0,0.0,0.0,48.9306,-37.01308,38.84654,12.02,1.63,2.64,2.0
1758076103.32923,1758076103.29114,0.0,0.0,0.0,43.54479,-37.01308,42.22699,11.48,2.47,3.26,2.0
1758076103.34444,1758076103.30114,0.0,0.0,0.0,36.84119,-35.92446,43.77398,11.48,2.47,3.26,2.0
1758076103.36041,1758076103.31114,0.0,0.0,0.0,33.68992,-29.22085,41.36755,10.25,2.36,2.93,2.0
1758076103.3646,1758076103.32114,0.0,0.0,0.0,32.08564,-24.00693,36.89849,8.61,1.2,2.85,2.0
1758076103.38122,1758076103.33114,0.0,0.0,0.0,32.25753,-21.94428,32.25753,8.61,1.2,2.85,2.0
1758076103.38479,1758076103.34114,0.0,0.0,0.0,37.92981,-21.7724,29.04896,8.05,-0.01,4.04,2.0
1758076103.40126,1758076103.35114,0.0,0.0,0.0,43.14373,-18.85031,26.01229,8.05,-0.01,4.04,2.0
1758076103.40482,1758076103.36114,0.0,0.0,0.0,49.84733,-14.20935,24.4653,9.18,-1.16,4.28,2.0
1758076103.42111,1758076103.37114,0.0,0.0,0.0,56.89471,-9.96947,23.20479,9.18,-1.16,4.28,2.0
1758076103.42388,1758076103.38114,0.0,0.0,0.0,65.66096,-3.72423,21.14215,10.22,-1.91,3.61,2.0
1758076103.43949,1758076103.39114,0.0,0.0,0.0,69.61437,2.34913,19.42327,11.02,-1.88,2.71,2.0
1758076103.44157,1758076103.40114,0.0,0.0,0.0,71.90621,10.71431,17.24603,11.02,-1.88,2.71,2.0
1758076103.45788,1758076103.41114,0.0,0.0,0.0,72.82294,19.99623,14.78231,11.83,-0.93,1.74,2.0
1758076103.45935,1758076103.42114,0.0,0.0,0.0,71.79161,33.00237,11.00079,11.83,-0.93,1.74,2.0
1758076103.47787,1758076103.43114,0.0,0.0,0.0,70.01544,39.99245,8.65166,11.49,0.51,1.24,2.0
1758076103.47887,1758076103.44114,0.0,0.0,0.0,67.89551,45.77933,5.61499,11.49,0.51,1.24,2.0
1758076103.49427,1758076103.45114,0.0,0.0,0.0,65.66096,50.363,2.92208,10.56,1.54,1.17,2.0
1758076103.4979,1758076103.46114,0.0,0.0,0.0,61.87944,55.97798,-1.08862,9.74,1.88,1.3,2.0
1758076103.51357,1758076103.47114,0.0,0.0,0.0,59.64491,59.12925,-3.49504,9.74,1.88,1.3,2.0
1758076103.53026,1758076103.48114,0.0,0.0,0.0,56.952,61.87944,-4.98473,9.4,1.76,1.54,2.0
1758076103.53223,1758076103.49114,0.0,0.0,0.0,54.3164,64.11398,-5.55769,9.4,1.76,1.54,2.0
1758076103.54931,1758076103.50114,0.0,0.0,0.0,49.67545,64.45775,-3.95341,9.17,1.47,1.56,2.0
1758076103.55028,1758076103.51114,0.0,0.0,0.0,46.35228,63.94209,-2.23454,9.17,1.47,1.56,2.0
1758076103.56958,1758076103.52114,0.0,0.0,0.0,42.91454,63.25455,-0.22918,8.95,1.24,1.51,2.0
1758076103.5745,1758076103.53114,0.0,0.0,0.0,37.75792,59.01466,2.29183,8.95,1.24,1.51,2.0
1758076103.58956,1758076103.54114,0.0,0.0,0.0,34.43476,55.06125,3.55234,8.68,0.99,1.48,2.0
1758076103.59471,1758076103.55114,0.0,0.0,0.0,31.79916,50.64947,3.95341,8.22,0.86,1.28,2.0
1758076103.60956,1758076103.56114,0.0,0.0,0.0,29.33544,48.01387,4.35448,8.22,0.86,1.28,2.0
1758076103.61137,1758076103.57114,0.0,0.0,0.0,27.04361,41.42485,4.87014,7.91,0.64,1.3,2.0
1758076103.62927,1758076103.58114,0.0,0.0,0.0,26.18417,35.2369,5.90147,7.91,0.64,1.3,2.0
1758076103.63443,1758076103.59114,0.0,0.0,0.0,25.72581,28.64789,6.7609,7.29,0.43,1.2,2.0
1758076103.64925,1758076103.60114,0.0,0.0,0.0,25.61122,21.94428,8.42248,7.29,0.43,1.2,2.0
1758076103.65452,1758076103.61114,0.0,0.0,0.0,25.7831,12.77696,10.94349,7.2,0.24,1.19,2.0
1758076103.6692,1758076103.62114,0.0,0.0,0.0,25.49662,6.47442,11.86023,7.43,0.24,1.11,2.0
1758076103.67126,1758076103.63114,0.0,0.0,0.0,25.09555,2.63561,12.83425,7.43,0.24,1.11,2.0
1758076103.68625,1758076103.64114,0.0,0.0,0.0,24.23611,0.0573,13.5791,8.14,0.45,0.9,2.0
1758076103.68988,1758076103.65114,0.0,0.0,0.0,22.28806,-2.57831,14.83961,8.14,0.45,0.9,2.0
1758076103.70628,1758076103.66114,0.0,0.0,0.0,19.99623,-4.87014,15.75634,8.72,0.73,0.79,2.0
1758076103.70778,1758076103.67114,0.0,0.0,0.0,16.21471,-7.73493,16.04282,8.72,0.73,0.79,2.0
1758076103.72457,1758076103.68114,0.0,0.0,0.0,11.51645,-12.14671,15.35527,9.08,1.0,1.05,2.0
1758076103.74129,1758076103.69114,0.0,0.0,0.0,2.92208,-23.20479,13.40721,9.0,1.39,0.9,2.0
1758076103.7448,1758076103.70114,0.0,0.0,0.0,-4.98473,-27.84575,9.96947,9.0,1.39,0.9,2.0
1758076103.74815,1758076103.71114,0.0,0.0,0.0,-13.17803,-33.51803,6.7609,9.28,1.86,1.19,2.0
1758076103.7642,1758076103.72114,0.0,0.0,0.0,-25.15285,-39.4768,0.22918,9.28,1.86,1.19,2.0
1758076103.7697,1758076103.73114,0.0,0.0,0.0,-32.08564,-52.19646,-4.64096,9.39,2.09,1.43,2.0
1758076103.78907,1758076103.74114,0.0,0.0,0.0,-37.64333,-63.31184,-9.62569,9.39,2.09,1.43,2.0
1758076103.79025,1758076103.75114,0.0,0.0,0.0,-41.31026,-67.9528,-12.83425,9.28,1.83,1.29,2.0
1758076103.80931,1758076103.76114,0.0,0.0,0.0,-42.51347,-56.66553,-13.40721,9.28,1.83,1.29,2.0
1758076103.81126,1758076103.77114,0.0,0.0,0.0,-41.59674,-41.94051,-9.74028,10.75,0.85,1.13,2.0
1758076103.82965,1758076103.78114,0.0,0.0,0.0,-41.02378,-44.11775,-7.33386,11.07,-0.12,1.1,2.0
1758076103.83129,1758076103.79114,0.0,0.0,0.0,-40.68,-55.86338,-5.21392,11.07,-0.12,1.1,2.0
1758076103.84631,1758076103.80114,0.0,0.0,0.0,-38.1017,-60.44705,-4.92744,10.44,-0.18,0.5,2.0
1758076103.84904,1758076103.81114,0.0,0.0,0.0,-35.3515,-46.69606,-5.32851,10.44,-0.18,0.5,2.0
1758076103.86465,1758076103.82114,0.0,0.0,0.0,-32.71589,-30.02299,-6.47442,14.45,0.32,0.96,2.0
1758076103.88051,1758076103.83114,0.0,0.0,0.0,-29.67921,-20.85567,-9.33921,14.45,0.32,0.96,2.0
1758076103.88147,1758076103.84114,0.0,0.0,0.0,-22.68913,-28.36141,-13.75099,14.54,0.16,2.34,2.0
1758076103.89784,1758076103.85114,0.0,0.0,0.0,-18.44924,-41.02378,-17.53251,11.6,-0.24,2.95,2.0
1758076103.89899,1758076103.86114,0.0,0.0,0.0,-15.87093,-48.8733,-20.97026,11.6,-0.24,2.95,2.0
1758076103.91422,1758076103.87114,0.0,0.0,0.0,-13.46451,-47.09713,-23.60586,11.4,-0.65,2.04,2.0
1758076103.93057,1758076103.88114,0.0,0.0,0.0,-10.8862,-40.7946,-26.52795,11.4,-0.65,2.04,2.0
1758076103.93896,1758076103.89114,0.0,0.0,0.0,-9.22462,-36.21093,-27.38738,11.36,-0.56,2.92,2.0
1758076103.93942,1758076103.90114,0.0,0.0,0.0,-7.84952,-31.39809,-27.73116,11.36,-0.56,2.92,2.0
1758076103.95533,1758076103.91114,0.0,0.0,0.0,-6.8182,-27.10091,-28.476,10.29,-0.1,3.51,2.0
1758076103.95882,1758076103.92114,0.0,0.0,0.0,-7.33386,-24.86637,-30.48136,9.07,0.14,4.05,2.0
1758076103.97455,1758076103.93114,0.0,0.0,0.0,-10.37054,-20.62648,-31.28349,9.07,0.14,4.05,2.0
1758076103.9903,1758076103.94114,0.0,0.0,0.0,-15.06879,-17.01685,-31.56997,8.99,0.61,3.83,2.0
1758076103.99473,1758076103.95114,0.0,0.0,0.0,-23.37668,-13.80828,-29.9084,8.99,0.61,3.83,2.0
1758076104.01027,1758076103.96114,0.0,0.0,0.0,-28.64789,-13.23533,-26.69983,9.84,1.07,3.54,2.0
1758076104.017,1758076103.97114,0.0,0.0,0.0,-33.05967,-11.74564,-21.7151,9.84,1.07,3.54,2.0
1758076104.01765,1758076103.98114,0.0,0.0,0.0,-35.69527,-7.62034,-16.272,11.29,1.13,2.55,2.0
1758076104.03431,1758076103.99114,0.0,0.0,0.0,-36.21093,2.40642,-8.30789,11.29,1.13,1.94,2.0
1758076104.05059,1758076104.00114,0.0,0.0,0.0,-34.72124,8.47978,-3.72423,12.33,0.51,1.94,2.0
1758076104.05227,1758076104.01114,0.0,0.0,0.0,-32.6013,12.77696,0.0573,11.56,-0.38,1.69,2.0
1758076104.06729,1758076104.02114,0.0,0.0,0.0,-30.02299,15.98552,3.26586,11.56,-0.38,1.69,2.0
1758076104.06848,1758076104.03114,0.0,0.0,0.0,-25.89769,21.7724,6.53172,10.53,-1.12,1.25,2.0
1758076104.08336,1758076104.04114,0.0,0.0,0.0,-23.54857,25.61122,8.0787,10.53,-1.12,1.25,2.0
1758076104.09959,1758076104.05114,0.0,0.0,0.0,-21.08485,28.24682,8.99544,10.19,-1.51,1.07,2.0
1758076104.1008,1758076104.06114,0.0,0.0,0.0,-19.07949,30.88243,9.4538,10.19,-1.51,1.07,2.0
1758076104.11887,1758076104.07114,0.0,0.0,0.0,-16.04282,33.9764,8.76626,9.86,-1.46,0.99,2.0
1758076104.12403,1758076104.08114,0.0,0.0,0.0,-13.98017,36.15364,7.96411,9.38,-1.13,0.89,2.0
1758076104.13956,1758076104.09114,0.0,0.0,0.0,-12.14671,37.58603,7.21927,9.38,-1.13,0.89,2.0
1758076104.14053,1758076104.10114,0.0,0.0,0.0,-10.31324,38.73195,6.87549,8.77,-0.77,1.01,2.0
1758076104.15713,1758076104.11114,0.0,0.0,0.0,-8.02141,38.38818,5.50039,8.77,-0.77,1.01,2.0
1758076104.15832,1758076104.12114,0.0,0.0,0.0,-6.18794,36.38282,4.58366,8.09,-0.48,1.2,2.0
1758076104.17363,1758076104.13114,0.0,0.0,0.0,-4.23989,35.00772,4.0107,8.09,-0.48,1.2,2.0
1758076104.18964,1758076104.14114,0.0,0.0,0.0,-1.20321,33.63263,2.7502,7.74,-0.38,1.18,2.0
1758076104.19128,1758076104.15114,0.0,0.0,0.0,0.57296,27.84575,2.46372,7.21,-0.45,0.93,2.0
1758076104.20739,1758076104.16114,0.0,0.0,0.0,2.23454,24.23611,2.57831,7.21,-0.45,0.93,2.0
1758076104.20936,1758076104.17114,0.0,0.0,0.0,3.60963,22.23076,2.6929,7.46,-0.49,0.87,2.0
1758076104.22455,1758076104.18114,0.0,0.0,0.0,4.92744,19.13679,2.11994,7.46,-0.49,0.87,2.0
1758076104.24034,1758076104.19114,0.0,0.0,0.0,5.55769,16.21471,0.97403,7.77,-0.56,0.82,2.0
1758076104.24234,1758076104.20114,0.0,0.0,0.0,6.35983,12.54778,-0.34377,7.77,-0.56,0.82,2.0
1758076104.25833,1758076104.21114,0.0,0.0,0.0,7.04738,10.31324,-2.00535,8.01,-0.57,0.72,2.0
1758076104.2595,1758076104.22114,0.0,0.0,0.0,8.36518,8.47978,-7.16197,8.53,-0.61,0.28,2.0
1758076104.27456,1758076104.23114,0.0,0.0,0.0,9.5684,11.57375,-10.19865,8.53,-0.61,0.28,2.0
1758076104.29058,1758076104.24114,0.0,0.0,0.0,11.17268,12.60507,-12.83425,9.13,-0.8,0.6,2.0
1758076104.29154,1758076104.25114,0.0,0.0,0.0,13.75099,11.63104,-13.86558,9.13,-0.8,0.6,2.0
1758076104.30657,1758076104.26114,0.0,0.0,0.0,19.42327,7.21927,-13.17803,9.15,-1.24,0.43,2.0
1758076104.30831,1758076104.27114,0.0,0.0,0.0,23.94964,2.7502,-11.34457,9.15,-1.24,0.43,2.0
1758076104.32537,1758076104.28114,0.0,0.0,0.0,28.59059,-3.72423,-8.70896,9.6,-1.68,0.47,2.0
1758076104.34464,1758076104.29114,0.0,0.0,0.0,33.63263,-12.49048,-4.92744,9.6,-1.68,0.47,2.0
1758076104.34917,1758076104.30114,0.0,0.0,0.0,39.87786,-27.67386,1.66158,9.94,-1.85,0.71,2.0
1758076104.34954,1758076104.31114,0.0,0.0,0.0,42.68536,-38.38818,5.21392,10.08,-1.49,0.77,2.0
1758076104.36928,1758076104.32114,0.0,0.0,0.0,45.03448,-42.97184,7.44845,10.08,-1.49,0.77,2.0
1758076104.37146,1758076104.33114,0.0,0.0,0.0,49.50356,-37.58603,9.28192,11.27,-0.86,0.46,2.0
1758076104.38768,1758076104.34114,0.0,0.0,0.0,56.60823,-11.91752,10.31324,11.27,-0.86,0.46,2.0
1758076104.38889,1758076104.35114,0.0,0.0,0.0,61.36378,6.8182,9.85487,13.09,-0.43,0.7,2.0
1758076104.40345,1758076104.36114,0.0,0.0,0.0,65.08801,21.08485,6.70361,13.09,-0.43,0.7,2.0
1758076104.41966,1758076104.37114,0.0,0.0,0.0,71.27596,11.63104,0.34377,12.3,-0.33,0.81,2.0
1758076104.42058,1758076104.38114,0.0,0.0,0.0,76.89094,-15.46986,-0.74485,8.85,-0.76,-0.09,2.0
1758076104.43771,1758076104.39114,0.0,0.0,0.0,81.5319,-39.82057,0.68755,8.85,-0.76,-0.09,2.0
1758076104.43969,1758076104.40114,0.0,0.0,0.0,85.19884,-35.86716,4.1253,11.4,-1.89,-0.67,2.0
1758076104.4554,1758076104.41114,0.0,0.0,0.0,87.94903,-16.10011,6.41713,11.4,-1.89,-0.67,2.0
1758076104.45918,1758076104.42114,0.0,0.0,0.0,89.15224,-9.85487,9.28192,13.2,-1.83,0.76,2.0
1758076104.47434,1758076104.43114,0.0,0.0,0.0,89.15224,-10.8862,13.23533,13.2,-1.83,0.76,2.0
1758076104.49041,1758076104.44114,0.0,0.0,0.0,87.94903,-18.73572,19.25138,12.01,-0.94,2.3,2.0
1758076104.49551,1758076104.45114,0.0,0.0,0.0,85.94368,-32.77319,29.73651,11.56,0.06,2.49,2.0
1758076104.49783,1758076104.46114,0.0,0.0,0.0,83.53725,-34.49206,36.15364,11.56,0.06,2.49,2.0
1758076104.51464,1758076104.47114,0.0,0.0,0.0,80.32869,-31.2262,40.68,11.61,1.52,1.28,2.0
1758076104.53035,1758076104.48114,0.0,0.0,0.0,76.26069,-28.13223,43.54479,11.61,1.52,1.28,2.0
1758076104.53401,1758076104.49114,0.0,0.0,0.0,68.86953,-28.87707,44.9199,9.74,2.43,2.0,2.0
1758076104.54965,1758076104.50114,0.0,0.0,0.0,63.77021,-31.2262,46.00851,9.74,2.43,2.0,2.0
1758076104.55484,1758076104.51114,0.0,0.0,0.0,59.87409,-29.56462,46.75336,9.03,2.26,3.64,2.0
1758076104.56973,1758076104.52114,0.0,0.0,0.0,57.23849,-23.26209,46.40959,9.03,2.26,3.64,2.0
1758076104.57143,1758076104.53114,0.0,0.0,0.0,56.55093,-15.46986,44.40423,10.11,1.89,3.61,2.0
1758076104.58631,1758076104.54114,0.0,0.0,0.0,57.41038,-14.9542,42.85724,9.76,1.06,4.28,2.0
1758076104.58826,1758076104.55114,0.0,0.0,0.0,58.55629,-10.25595,41.94051,9.76,1.06,4.28,2.0
1758076104.60473,1758076104.56114,0.0,0.0,0.0,60.50434,0.85944,39.01843,10.19,0.5,3.85,2.0
1758076104.62996,1758076104.57114,0.0,0.0,0.0,61.36378,6.58902,37.01308,10.19,0.5,3.85,2.0
1758076104.63504,1758076104.58114,0.0,0.0,0.0,61.53567,11.80293,34.0337,10.0,0.45,2.98,2.0
1758076104.63995,1758076104.59114,0.0,0.0,0.0,60.90542,17.76169,30.25217,10.0,0.45,2.98,2.0
1758076104.64093,1758076104.60114,0.0,0.0,0.0,58.49899,28.476,23.49127,10.66,0.45,2.52,2.0
1758076104.65744,1758076104.61114,0.0,0.0,0.0,56.20716,35.3515,18.27736,11.35,0.69,1.94,2.0
1758076104.65911,1758076104.62114,0.0,0.0,0.0,53.39967,41.42485,13.23533,11.35,0.69,1.94,2.0
1758076104.67437,1758076104.63114,0.0,0.0,0.0,50.13381,47.15443,8.30789,11.27,1.05,1.61,2.0
1758076104.69276,1758076104.64114,0.0,0.0,0.0,45.37826,53.45696,0.34377,11.27,1.05,1.61,2.0
1758076104.69553,1758076104.65114,0.0,0.0,0.0,42.28429,56.14987,-3.72423,10.55,1.38,1.63,2.0
1758076104.71274,1758076104.66114,0.0,0.0,0.0,39.07573,56.55093,-7.10468,10.55,1.38,1.63,2.0
1758076104.71398,1758076104.67114,0.0,0.0,0.0,36.26823,56.14987,-9.11003,9.49,1.55,1.76,2.0
1758076104.72962,1758076104.68114,0.0,0.0,0.0,31.56997,56.49364,-10.25595,8.95,1.56,1.98,2.0
1758076104.73142,1758076104.69114,0.0,0.0,0.0,27.78845,55.34772,-10.25595,8.95,1.56,1.98,2.0
1758076104.74637,1758076104.70114,0.0,0.0,0.0,24.12152,54.3737,-9.5684,8.57,1.57,1.88,2.0
1758076104.74912,1758076104.71114,0.0,0.0,0.0,19.88164,53.74345,-8.30789,8.57,1.57,1.88,2.0
1758076104.76465,1758076104.72114,0.0,0.0,0.0,13.5218,48.9306,-6.58902,8.39,1.52,1.84,2.0
1758076104.78113,1758076104.73114,0.0,0.0,0.0,9.22462,45.03448,-5.84417,8.39,1.52,1.84,2.0
1758076104.78508,1758076104.74114,0.0,0.0,0.0,5.09932,41.76862,-5.4431,8.15,1.46,1.7,2.0
1758076104.78887,1758076104.75114,0.0,0.0,0.0,1.3751,37.98711,-5.72958,8.15,1.46,1.7,2.0
1758076104.8044,1758076104.76114,0.0,0.0,0.0,-3.20856,31.16891,-6.07335,8.11,1.31,1.44,2.0
1758076104.80959,1758076104.77114,0.0,0.0,0.0,-5.4431,25.7831,-5.95876,7.89,0.98,1.3,2.0
1758076104.82971,1758076104.78114,0.0,0.0,0.0,-6.99009,20.68378,-5.32851,7.89,0.98,1.3,2.0
1758076104.83391,1758076104.79114,0.0,0.0,0.0,-8.30789,12.54778,-3.26586,7.87,0.56,1.13,2.0
1758076104.8494,1758076104.80114,0.0,0.0,0.0,-8.93814,7.44845,-1.43239,7.87,0.56,1.13,2.0
1758076104.85389,1758076104.81114,0.0,0.0,0.0,-9.85487,5.27121,-0.34377,8.05,0.31,1.13,2.0
1758076104.8694,1758076104.82114,0.0,0.0,0.0,-10.71431,5.21392,1.03132,8.05,0.31,1.13,2.0
1758076104.87461,1758076104.83114,0.0,0.0,0.0,-12.204,1.48969,2.11994,8.69,0.36,1.04,2.0
1758076104.88942,1758076104.84114,0.0,0.0,0.0,-15.12609,-0.85944,0.80214,8.79,0.69,1.02,2.0
1758076104.89174,1758076104.85114,0.0,0.0,0.0,-18.44924,-3.95341,-0.17189,8.79,0.69,1.02,2.0
1758076104.90839,1758076104.86114,0.0,0.0,0.0,-21.94428,-6.99009,-2.23454,8.87,1.08,0.83,2.0
1758076104.90966,1758076104.87114,0.0,0.0,0.0,-27.2155,-16.84496,-4.87014,8.87,1.08,0.83,2.0
1758076104.9244,1758076104.88114,0.0,0.0,0.0,-30.25217,-29.8511,-5.32851,8.13,1.35,0.58,2.0
1758076104.94139,1758076104.89114,0.0,0.0,0.0,-32.08564,-43.25832,-4.18259,8.13,1.35,0.58,2.0
1758076104.94488,1758076104.90114,0.0,0.0,0.0,-31.85646,-54.02992,-2.06265,7.27,0.81,0.39,2.0
1758076104.96118,1758076104.91114,0.0,0.0,0.0,-31.56997,-65.14531,0.57296,7.99,0.01,0.68,2.0
1758076104.96317,1758076104.92114,0.0,0.0,0.0,-33.51803,-59.41573,0.97403,7.99,0.01,0.68,2.0
1758076104.97967,1758076104.93114,0.0,0.0,0.0,-36.55471,-35.75257,-0.97403,11.73,0.24,0.9,2.0
1758076104.98058,1758076104.94114,0.0,0.0,0.0,-37.87251,-30.88243,-0.40107,11.73,0.24,0.9,2.0
1758076104.99723,1758076104.95114,0.0,0.0,0.0,-49.50356,-47.09713,-10.8289,9.89,0.71,1.58,2.0
1758076104.99816,1758076104.96114,0.0,0.0,0.0,-52.65482,-49.50356,-15.92823,9.89,0.71,1.58,2.0
1758076105.01455,1758076104.97114,0.0,0.0,0.0,-56.14987,-45.77933,-21.08485,10.18,0.86,0.62,2.0
1758076105.03307,1758076104.98114,0.0,0.0,0.0,-60.73353,-33.46074,-26.64254,10.18,0.86,0.62,2.0
1758076105.03485,1758076104.99114,0.0,0.0,0.0,-62.68159,-24.35071,-27.50197,11.02,1.01,0.48,2.0
1758076105.05137,1758076105.00114,0.0,0.0,0.0,-64.11398,-16.95955,-27.1582,11.33,1.08,0.51,2.0
1758076105.05318,1758076105.01114,0.0,0.0,0.0,-65.03072,-9.28192,-24.98096,11.33,1.08,0.51,2.0
1758076105.06869,1758076105.02114,0.0,0.0,0.0,-63.19725,-0.85944,-20.97026,12.23,0.95,1.19,2.0
1758076105.06963,1758076105.03114,0.0,0.0,0.0,-60.38975,1.20321,-18.79302,12.23,0.95,1.19,2.0
1758076105.08429,1758076105.04114,0.0,0.0,0.0,-55.92068,-3.49504,-17.24603,13.14,0.38,1.96,2.0
1758076105.10156,1758076105.05114,0.0,0.0,0.0,-50.13381,-14.20935,-17.47521,13.14,0.38,1.96,2.0
1758076105.1048,1758076105.06114,0.0,0.0,0.0,-40.45082,-32.20023,-20.79837,12.69,-0.28,2.82,2.0
1758076105.10887,1758076105.07114,0.0,0.0,0.0,-34.66395,-39.70598,-24.4653,12.73,-1.07,3.02,2.0
1758076105.12459,1758076105.08114,0.0,0.0,0.0,-29.50733,-42.34158,-28.30412,12.73,-1.07,3.02,2.0
1758076105.12983,1758076105.09114,0.0,0.0,0.0,-25.21014,-40.7946,-31.2262,13.16,-1.79,2.99,2.0
1758076105.14943,1758076105.10114,0.0,0.0,0.0,-20.79837,-35.75257,-31.45539,13.16,-1.79,2.99,2.0
1758076105.15488,1758076105.11114,0.0,0.0,0.0,-18.9649,-36.26823,-31.2262,11.73,-1.39,2.39,2.0
1758076105.16968,1758076105.12114,0.0,0.0,0.0,-18.22006,-35.2942,-30.13758,11.73,-1.39,2.39,2.0
1758076105.17464,1758076105.13114,0.0,0.0,0.0,-20.11082,-34.14828,-28.70519,9.97,-0.12,2.31,2.0
1758076105.18968,1758076105.14114,0.0,0.0,0.0,-27.33009,-33.17426,-27.04361,8.78,1.03,2.41,2.0
1758076105.19058,1758076105.15114,0.0,0.0,0.0,-34.49206,-31.2262,-26.81443,8.78,1.03,2.41,2.0
1758076105.20648,1758076105.16114,0.0,0.0,0.0,-42.51347,-28.07493,-27.33009,9.03,1.76,3.49,2.0
1758076105.20913,1758076105.17114,0.0,0.0,0.0,-54.77477,-27.33009,-29.39274,9.03,1.76,3.49,2.0
1758076105.22471,1758076105.18114,0.0,0.0,0.0,-61.42108,-27.67386,-30.53865,9.53,1.98,3.73,2.0
1758076105.24119,1758076105.19114,0.0,0.0,0.0,-66.29122,-26.52795,-30.65324,9.53,1.98,3.73,2.0
1758076105.24476,1758076105.20114,0.0,0.0,0.0,-68.64035,-22.57454,-28.93437,10.64,1.46,3.02,2.0
1758076105.24857,1758076105.21114,0.0,0.0,0.0,-67.15066,-12.2613,-23.60586,10.64,1.46,3.02,2.0
1758076105.26466,1758076105.22114,0.0,0.0,0.0,-63.94209,-4.0107,-19.19409,11.79,0.33,1.69,2.0
1758076105.28169,1758076105.23114,0.0,0.0,0.0,-59.41573,3.09397,-14.32395,11.59,-0.95,1.17,2.0
1758076105.28454,1758076105.24114,0.0,0.0,0.0,-53.62885,8.59437,-8.93814,11.59,-0.95,1.17,2.0
1758076105.29989,1758076105.25114,0.0,0.0,0.0,-44.9199,15.75634,-1.77617,10.32,-1.87,0.88,2.0
1758076105.30057,1758076105.26114,0.0,0.0,0.0,-39.24761,20.62648,1.94806,10.32,-1.87,0.88,2.0
1758076105.31792,1758076105.27114,0.0,0.0,0.0,-33.34615,24.63719,5.72958,9.8,-2.3,1.03,2.0
1758076105.31906,1758076105.28114,0.0,0.0,0.0,-28.41871,28.70519,7.96411,9.8,-2.3,1.03,2.0
1758076105.33466,1758076105.29114,0.0,0.0,0.0,-22.11617,33.86181,10.65701,9.63,-2.05,0.93,2.0
1758076105.35131,1758076105.30114,0.0,0.0,0.0,-18.9649,37.98711,11.34457,9.52,-1.42,0.7,2.0
1758076105.35557,1758076105.31114,0.0,0.0,0.0,-16.272,42.34158,11.57375,9.52,-1.42,0.7,2.0
1758076105.37149,1758076105.32114,0.0,0.0,0.0,-14.32395,45.77933,11.22997,9.24,-0.76,0.56,2.0
1758076105.37241,1758076105.33114,0.0,0.0,0.0,-12.43318,48.58683,10.08406,9.24,-0.76,0.56,2.0
1758076105.38931,1758076105.34114,0.0,0.0,0.0,-11.86023,50.87865,8.42248,8.8,-0.28,0.62,2.0
1758076105.39022,1758076105.35114,0.0,0.0,0.0,-11.22997,52.13916,6.7609,8.8,-0.28,0.62,2.0
1758076105.40885,1758076105.36114,0.0,0.0,0.0,-10.48513,51.85268,5.09932,8.47,-0.01,0.71,2.0
1758076105.40982,1758076105.37114,0.0,0.0,0.0,-9.4538,48.12846,2.86479,7.83,0.03,0.67,2.0
1758076105.42941,1758076105.38114,0.0,0.0,0.0,-9.22462,45.14908,1.43239,7.83,0.03,0.67,2.0
1758076105.43233,1758076105.39114,0.0,0.0,0.0,-8.99544,43.02913,0.34377,7.68,-0.03,0.54,2.0
1758076105.44907,1758076105.40114,0.0,0.0,0.0,-8.59437,40.04975,-1.20321,7.68,-0.03,0.54,2.0
1758076105.45025,1758076105.41114,0.0,0.0,0.0,-8.30789,37.12767,-2.23454,7.76,-0.13,0.61,2.0
1758076105.46732,1758076105.42114,0.0,0.0,0.0,-7.39116,33.17426,-3.03668,7.76,-0.13,0.61,2.0
1758076105.46903,1758076105.43114,0.0,0.0,0.0,-5.50039,29.9084,-3.26586,7.99,-0.34,0.77,2.0
1758076105.48443,1758076105.44114,0.0,0.0,0.0,-1.77617,25.8404,-4.23989,7.99,-0.34,0.5,2.0
1758076105.50149,1758076105.45114,0.0,0.0,0.0,1.3178,23.0329,-4.98473,8.6,-0.63,0.5,2.0
1758076105.50585,1758076105.46114,0.0,0.0,0.0,4.92744,19.82434,-5.84417,8.9,-0.92,0.44,2.0
1758076105.52173,1758076105.47114,0.0,0.0,0.0,9.22462,14.03747,-6.47442,8.9,-0.92,0.44,2.0
1758076105.52422,1758076105.48114,0.0,0.0,0.0,16.21471,3.26586,-6.58902,8.75,-1.18,0.13,2.0
1758076105.53945,1758076105.49114,0.0,0.0,0.0,21.08485,-4.0107,-6.35983,8.75,-1.18,0.13,2.0
1758076105.54066,1758076105.50114,0.0,0.0,0.0,26.52795,-11.63104,-5.50039,9.05,-1.32,0.04,2.0
1758076105.55837,1758076105.51114,0.0,0.0,0.0,31.51268,-22.97561,-3.66693,9.05,-1.32,0.04,2.0
1758076105.55961,1758076105.52114,0.0,0.0,0.0,36.38282,-45.26366,-1.94806,9.07,-1.28,-0.03,2.0
1758076105.57449,1758076105.53114,0.0,0.0,0.0,40.39353,-51.10783,-0.11459,9.6,-0.98,0.19,2.0
1758076105.57886,1758076105.54114,0.0,0.0,0.0,43.77398,-41.25296,1.66158,9.6,-0.98,0.19,2.0
1758076105.59447,1758076105.55114,0.0,0.0,0.0,48.30034,-21.08485,6.07335,12.85,-0.57,0.86,2.0
1758076105.61131,1758076105.56114,0.0,0.0,0.0,51.5662,15.69904,8.02141,12.85,-0.57,0.86,2.0
1758076105.61807,1758076105.57114,0.0,0.0,0.0,55.86338,13.46451,4.64096,13.0,-0.06,1.86,2.0
1758076105.61865,1758076105.58114,0.0,0.0,0.0,58.55629,-21.42862,5.55769,13.0,-0.06,1.86,2.0
1758076105.63527,1758076105.59114,0.0,0.0,0.0,68.98412,-58.15522,14.20935,7.35,-0.07,1.02,2.0
1758076105.63961,1758076105.60114,0.0,0.0,0.0,71.27596,-55.51962,17.58981,11.83,-1.07,-0.16,2.0
1758076105.65789,1758076105.61114,0.0,0.0,0.0,73.91156,-39.64868,19.48057,11.83,-1.07,-0.16,2.0
1758076105.65908,1758076105.62114,0.0,0.0,0.0,75.63043,-24.63719,20.05352,13.42,-1.2,0.57,2.0
1758076105.67435,1758076105.63114,0.0,0.0,0.0,75.57314,-14.72501,16.61578,13.42,-1.2,0.57,2.0
1758076105.67831,1758076105.64114,0.0,0.0,0.0,73.62508,-9.62569,13.5791,12.47,-0.84,1.81,2.0
1758076105.69372,1758076105.65114,0.0,0.0,0.0,70.13004,-6.41713,10.19865,12.47,-0.84,1.81,2.0
1758076105.70945,1758076105.66114,0.0,0.0,0.0,66.29122,-7.04738,7.96411,12.29,0.19,1.63,2.0
1758076105.71259,1758076105.67114,0.0,0.0,0.0,60.50434,-8.25059,9.11003,11.94,0.19,2.17,2.0
1758076105.7297,1758076105.68114,0.0,0.0,0.0,56.60823,-8.0787,12.60507,11.94,0.96,2.17,2.0
1758076105.73473,1758076105.69114,0.0,0.0,0.0,52.36834,-8.65166,18.73572,12.18,1.67,2.15,2.0
1758076105.74954,1758076105.70114,0.0,0.0,0.0,47.67009,-9.91217,26.24147,12.18,1.67,2.15,2.0
1758076105.75498,1758076105.71114,0.0,0.0,0.0,41.25296,-10.31324,37.12767,11.87,1.88,2.99,2.0
1758076105.76949,1758076105.72114,0.0,0.0,0.0,38.73195,-9.39651,41.59674,11.87,1.88,2.99,2.0
1758076105.7726,1758076105.73114,0.0,0.0,0.0,38.21629,-7.16197,42.57077,10.54,1.34,2.6,2.0
1758076105.78749,1758076105.74114,0.0,0.0,0.0,39.3622,-4.29718,40.04975,10.54,1.34,2.6,2.0
1758076105.79113,1758076105.75114,0.0,0.0,0.0,44.23235,-2.57831,32.83048,8.62,0.16,2.71,2.0
1758076105.80764,1758076105.76114,0.0,0.0,0.0,48.12846,0.0573,28.07493,8.11,-1.06,3.7,2.0
1758076105.80853,1758076105.77114,0.0,0.0,0.0,52.9986,3.03668,23.26209,8.11,-1.06,3.7,2.0
1758076105.82376,1758076105.78114,0.0,0.0,0.0,58.72818,4.52637,18.16276,8.07,-1.5,3.64,2.0
1758076105.83978,1758076105.79114,0.0,0.0,0.0,68.41116,6.99009,16.95955,8.07,-1.5,3.64,2.0
1758076105.84149,1758076105.80114,0.0,0.0,0.0,74.771,10.08406,17.58981,8.86,-1.39,3.74,2.0
1758076105.85675,1758076105.81114,0.0,0.0,0.0,80.78706,12.71966,19.70975,8.86,-1.39,3.74,2.0
1758076105.85765,1758076105.82114,0.0,0.0,0.0,87.37608,17.6471,24.4653,10.37,-0.93,3.31,2.0
1758076105.87377,1758076105.83114,0.0,0.0,0.0,90.29816,22.68913,27.67386,11.54,-0.14,2.54,2.0
1758076105.88973,1758076105.84114,0.0,0.0,0.0,91.67325,29.04896,29.67921,11.54,-0.14,2.54,2.0
1758076105.89244,1758076105.85114,0.0,0.0,0.0,91.67325,35.3515,30.88243,11.58,0.62,1.71,2.0
1758076105.90939,1758076105.86114,0.0,0.0,0.0,89.15224,42.28429,29.10626,11.58,0.62,1.71,2.0
1758076105.91936,1758076105.87114,0.0,0.0,0.0,86.45934,45.26366,26.06958,10.5,1.11,1.42,2.0
1758076105.91983,1758076105.88114,0.0,0.0,0.0,83.25077,47.95657,21.60051,10.5,1.11,1.42,2.0
1758076105.93667,1758076105.89114,0.0,0.0,0.0,79.35466,51.45161,16.50119,9.82,1.39,1.55,2.0
1758076105.93851,1758076105.90114,0.0,0.0,0.0,72.42187,55.06125,7.79223,9.38,1.6,1.74,2.0
1758076105.96013,1758076105.91114,0.0,0.0,0.0,67.55173,55.29043,2.63561,9.38,1.6,1.74,2.0
1758076105.96125,1758076105.92114,0.0,0.0,0.0,62.33781,54.3164,-1.14592,8.8,1.74,1.82,2.0
1758076105.97759,1758076105.93114,0.0,0.0,0.0,56.83742,53.74345,-3.89611,8.8,1.74,1.82,2.0
1758076105.97927,1758076105.94114,0.0,0.0,0.0,48.64412,52.25375,-5.21392,8.69,1.77,1.7,2.0
1758076105.9946,1758076105.95114,0.0,0.0,0.0,43.20102,49.50356,-4.98473,8.69,1.77,1.7,2.0
1758076105.99968,1758076105.96114,0.0,0.0,0.0,37.98711,45.72203,-4.0107,8.38,1.69,1.74,2.0
1758076106.01755,1758076105.97114,0.0,0.0,0.0,33.05967,41.88322,-3.09397,8.38,1.69,1.74,2.0
1758076106.01961,1758076105.98114,0.0,0.0,0.0,27.1582,35.3515,-2.00535,8.26,1.48,1.69,2.0
1758076106.03447,1758076105.99114,0.0,0.0,0.0,24.23611,30.13758,-0.97403,8.01,1.18,1.56,2.0
1758076106.04002,1758076106.00114,0.0,0.0,0.0,22.05888,27.10091,0.68755,8.01,1.18,1.56,2.0
1758076106.05737,1758076106.01114,0.0,0.0,0.0,20.16812,20.51189,3.38045,7.78,0.71,1.53,2.0
1758076106.05853,1758076106.02114,0.0,0.0,0.0,19.82434,10.71431,5.09932,7.78,0.71,1.53,2.0
1758076106.07354,1758076106.03114,0.0,0.0,0.0,20.05352,5.84417,6.47442,7.65,0.53,1.36,2.0
1758076106.08972,1758076106.04114,0.0,0.0,0.0,20.3973,1.14592,7.39116,7.65,0.53,1.36,2.0
1758076106.0947,1758076106.05114,0.0,0.0,0.0,20.79837,-0.17189,9.39651,8.03,0.46,1.32,2.0
1758076106.10985,1758076106.06114,0.0,0.0,0.0,20.74107,0.40107,10.71431,8.65,0.52,1.26,2.0
1758076106.11473,1758076106.07114,0.0,0.0,0.0,19.59516,0.22918,12.08941,8.65,0.52,1.26,2.0
1758076106.12948,1758076106.08114,0.0,0.0,0.0,17.36062,-0.74485,12.71966,8.87,0.82,1.51,2.0
1758076106.13333,1758076106.09114,0.0,0.0,0.0,12.43318,-8.02141,12.60507,8.87,0.82,1.51,2.0
1758076106.14877,1758076106.10114,0.0,0.0,0.0,6.24524,-12.2613,10.37054,8.68,1.27,1.27,2.0
1758076106.1497,1758076106.11114,0.0,0.0,0.0,0.0573,-19.07949,7.62034,8.68,1.27,1.27,2.0
1758076106.16848,1758076106.12114,0.0,0.0,0.0,-6.70361,-25.61122,4.18259,8.41,1.75,1.27,2.0
1758076106.17038,1758076106.13114,0.0,0.0,0.0,-17.13144,-34.09099,-1.20321,8.61,1.98,1.13,2.0
1758076106.18651,1758076106.14114,0.0,0.0,0.0,-23.66316,-43.60209,-4.29718,8.61,1.98,1.13,2.0
1758076106.18886,1758076106.15114,0.0,0.0,0.0,-29.62192,-55.97798,-6.07335,8.46,1.73,1.05,2.0
1758076106.20481,1758076106.16114,0.0,0.0,0.0,-34.43476,-65.37449,-7.67763,8.46,1.73,1.05,2.0
1758076106.22158,1758076106.17114,0.0,0.0,0.0,-40.45082,-65.71826,-8.59437,9.31,1.05,1.12,2.0
1758076106.22431,1758076106.18114,0.0,0.0,0.0,-43.25832,-55.57691,-8.70896,9.31,1.05,1.12,2.0
1758076106.2394,1758076106.19114,0.0,0.0,0.0,-42.57077,-41.25296,-6.53172,11.0,0.22,1.3,2.0
1758076106.24071,1758076106.20114,0.0,0.0,0.0,-39.01843,-49.61814,-6.41713,11.0,0.22,1.3,2.0
1758076106.25583,1758076106.21114,0.0,0.0,0.0,-37.75792,-52.884,-6.87549,9.58,-0.89,2.16,2.0
1758076106.25987,1758076106.22114,0.0,0.0,0.0,-37.24226,-46.46688,-9.85487,11.0,-0.76,0.39,2.0
1758076106.27718,1758076106.23114,0.0,0.0,0.0,-38.56006,-41.13837,-12.60507,11.0,-0.76,0.39,2.0
1758076106.27944,1758076106.24114,0.0,0.0,0.0,-41.13837,-24.23611,-14.66772,11.86,0.06,0.25,2.0
1758076106.32406,1758076106.25114,0.0,0.0,0.0,-43.83128,-11.17268,-13.12073,11.86,0.06,0.25,2.0
1758076106.32693,1758076106.26114,0.0,0.0,0.0,-46.52417,0.40107,-9.5684,12.6,0.6,0.55,2.0
1758076106.32889,1758076106.27114,0.0,0.0,0.0,-49.15978,7.50575,-5.32851,12.6,0.6,0.55,2.0
1758076106.33349,1758076106.28114,0.0,0.0,0.0,-50.99325,7.10468,-0.0573,12.16,0.79,1.06,2.0
1758076106.33391,1758076106.29114,0.0,0.0,0.0,-50.87865,3.83882,1.3751,11.78,0.56,1.56,2.0
1758076106.34958,1758076106.30114,0.0,0.0,0.0,-49.67545,-0.34377,0.85944,11.78,0.56,1.56,2.0
1758076106.35468,1758076106.31114,0.0,0.0,0.0,-48.01387,-7.21927,-1.66158,12.23,0.01,2.09,2.0
1758076106.36979,1758076106.32114,0.0,0.0,0.0,-44.51882,-18.16276,-9.11003,12.23,0.01,2.09,2.0
1758076106.37473,1758076106.33114,0.0,0.0,0.0,-41.36755,-23.60586,-14.49583,12.6,-0.43,2.86,2.0
1758076106.3898,1758076106.34114,0.0,0.0,0.0,-38.27358,-26.98631,-19.42327,12.6,-0.43,2.86,2.0
1758076106.39232,1758076106.35114,0.0,0.0,0.0,-35.00772,-25.55392,-22.97561,12.75,-0.51,3.33,2.0
1758076106.40888,1758076106.36114,0.0,0.0,0.0,-29.56462,-17.30333,-22.91831,11.93,-0.14,2.83,2.0
1758076106.41401,1758076106.37114,0.0,0.0,0.0,-26.98631,-13.86558,-20.34,11.93,-0.14,2.83,2.0
1758076106.42885,1758076106.38114,0.0,0.0,0.0,-25.8404,-13.17803,-16.90226,9.34,0.29,2.56,2.0
1758076106.42974,1758076106.39114,0.0,0.0,0.0,-26.98631,-13.86558,-14.15206,9.34,0.29,2.56,2.0
1758076106.44882,1758076106.40114,0.0,0.0,0.0,-32.14294,-13.69369,-12.204,7.72,0.52,2.64,2.0
1758076106.44974,1758076106.41114,0.0,0.0,0.0,-36.38282,-13.34992,-12.89155,7.72,0.52,2.64,2.0
1758076106.53937,1758076106.42114,0.0,0.0,0.0,-39.53409,-14.43854,-14.61043,8.11,0.73,3.55,2.0
1758076106.54106,1758076106.43114,0.0,0.0,0.0,-41.71133,-15.92823,-17.24603,8.11,0.73,3.55,2.0
1758076106.54167,1758076106.44114,0.0,0.0,0.0,-40.96649,-17.47521,-18.22006,9.31,0.75,3.87,2.0
1758076106.55365,1758076106.45114,0.0,0.0,0.0,-38.38818,-16.90226,-18.10547,10.54,0.29,3.18,2.0
1758076106.55472,1758076106.46114,0.0,0.0,0.0,-34.09099,-14.03747,-16.55848,10.54,0.29,3.18,2.0
1758076106.55756,1758076106.47114,0.0,0.0,0.0,-24.5226,-8.30789,-12.204,11.23,-0.81,2.42,2.0
1758076106.55932,1758076106.48114,0.0,0.0,0.0,-17.58981,-6.70361,-8.36518,11.23,-0.81,2.42,2.0
1758076106.55969,1758076106.49114,0.0,0.0,0.0,-10.54242,-3.49504,-3.89611,10.81,-2.11,2.1,2.0
1758076106.56088,1758076106.50114,0.0,0.0,0.0,-3.32316,0.17189,0.68755,10.81,-2.11,2.1,2.0
1758076106.56159,1758076106.51114,0.0,0.0,0.0,5.95876,7.67763,7.21927,10.48,-2.83,1.71,2.0
1758076106.56501,1758076106.52114,0.0,0.0,0.0,11.22997,12.71966,10.71431,10.31,-2.49,1.53,2.0
1758076106.58157,1758076106.53114,0.0,0.0,0.0,15.58445,17.58981,13.06344,10.31,-2.49,1.53,2.0
1758076106.58431,1758076106.54114,0.0,0.0,0.0,19.53786,23.60586,14.15206,10.38,-1.54,1.26,2.0
1758076106.59945,1758076106.55114,0.0,0.0,0.0,24.00693,31.45539,13.98017,10.38,-1.54,1.26,2.0
1758076106.60154,1758076106.56114,0.0,0.0,0.0,26.06958,36.32552,13.12073,10.2,-0.69,1.2,2.0
1758076106.61726,1758076106.57114,0.0,0.0,0.0,27.78845,40.62271,12.08941,10.2,-0.69,1.2,2.0
1758076106.62115,1758076106.58114,0.0,0.0,0.0,28.87707,43.65939,10.48513,9.56,-0.25,1.24,2.0
1758076106.63764,1758076106.59114,0.0,0.0,0.0,29.9084,45.77933,7.44845,9.01,-0.13,1.45,2.0
1758076106.63942,1758076106.60114,0.0,0.0,0.0,30.25217,46.46688,4.98473,9.01,-0.13,1.45,2.0
1758076106.65453,1758076106.61114,0.0,0.0,0.0,30.82513,46.81066,3.20856,8.72,-0.28,1.62,2.0
1758076106.67182,1758076106.62114,0.0,0.0,0.0,32.25753,45.89392,1.3178,8.72,-0.28,1.62,2.0
1758076106.67283,1758076106.63114,0.0,0.0,0.0,35.86716,40.45082,1.03132,8.36,-0.56,1.67,2.0
1758076106.68873,1758076106.64114,0.0,0.0,0.0,38.56006,36.49741,1.14592,8.36,-0.56,1.67,2.0
1758076106.68966,1758076106.65114,0.0,0.0,0.0,41.99781,33.86181,1.94806,8.23,-0.94,1.53,2.0
1758076106.70485,1758076106.66114,0.0,0.0,0.0,47.44091,31.16891,3.95341,8.23,-0.94,1.53,2.0
1758076106.72166,1758076106.67114,0.0,0.0,0.0,51.45161,29.33544,5.32851,8.32,-1.33,1.31,2.0
1758076106.72561,1758076106.68114,0.0,0.0,0.0,55.11855,26.24147,6.47442,8.15,-1.52,1.34,2.0
1758076106.74166,1758076106.69114,0.0,0.0,0.0,59.07195,22.28806,7.39116,8.15,-1.52,1.34,2.0
1758076106.74437,1758076106.70114,0.0,0.0,0.0,65.2026,17.53251,8.70896,8.14,-1.63,1.33,2.0
1758076106.75951,1758076106.71114,0.0,0.0,0.0,69.61437,13.34992,9.68299,8.14,-1.63,1.33,2.0
1758076106.76167,1758076106.72114,0.0,0.0,0.0,73.73967,9.5684,10.31324,8.42,-1.76,1.13,2.0
1758076106.7767,1758076106.73114,0.0,0.0,0.0,78.09415,6.35983,10.8862,8.42,-1.76,1.13,2.0
1758076106.78131,1758076106.74114,0.0,0.0,0.0,84.28209,1.20321,12.83425,9.0,-1.9,1.08,2.0
1758076106.79919,1758076106.75114,0.0,0.0,0.0,88.52198,-3.26586,15.35527,9.32,-1.91,0.96,2.0
1758076106.80017,1758076106.76114,0.0,0.0,0.0,91.90244,-7.10468,18.50654,9.32,-1.91,0.96,2.0
1758076106.82006,1758076106.77114,0.0,0.0,0.0,95.1683,-9.91217,21.6578,9.72,-1.8,0.67,2.0
1758076106.84076,1758076106.78114,0.0,0.0,0.0,99.29359,-15.35527,26.06958,9.72,-1.8,0.67,2.0
1758076106.84406,1758076106.79114,0.0,0.0,0.0,100.78329,-21.08485,27.04361,9.61,-1.55,0.47,2.0
1758076106.84603,1758076106.80114,0.0,0.0,0.0,101.52813,-25.55392,27.61657,9.61,-1.55,0.47,2.0
1758076106.86091,1758076106.81114,0.0,0.0,0.0,101.92919,-25.49662,27.33009,9.65,-1.16,0.33,2.0
1758076106.86182,1758076106.82114,0.0,0.0,0.0,101.18435,-17.30333,24.98096,10.43,-0.9,0.25,2.0
1758076106.8797,1758076106.83114,0.0,0.0,0.0,100.66869,-5.72958,23.83505,10.43,-0.9,0.25,2.0
1758076106.88084,1758076106.84114,0.0,0.0,0.0,99.58006,6.70361,22.00158,11.21,-0.78,0.79,2.0
1758076106.89558,1758076106.85114,0.0,0.0,0.0,97.40282,19.13679,17.99088,11.21,-0.78,0.79,2.0
1758076106.89839,1758076106.86114,0.0,0.0,0.0,97.86119,10.54242,15.06879,10.26,-0.77,1.1,2.0
1758076106.91363,1758076106.87114,0.0,0.0,0.0,98.09039,-20.11082,15.0115,10.26,-0.77,1.1,2.0
1758076106.92967,1758076106.88114,0.0,0.0,0.0,97.7466,-39.4195,15.06879,7.25,-1.13,0.91,2.0
1758076106.93521,1758076106.89114,0.0,0.0,0.0,100.15303,-51.6235,21.7151,7.25,-1.13,0.91,2.0
1758076106.93965,1758076106.90114,0.0,0.0,0.0,100.43951,-52.25375,26.41335,10.23,-1.37,1.79,2.0
1758076106.95585,1758076106.91114,0.0,0.0,0.0,100.15303,-53.28508,31.91375,12.53,0.0,3.65,2.0
1758076106.95999,1758076106.92114,0.0,0.0,0.0,98.94981,-58.04062,37.98711,12.53,0.0,3.65,2.0
1758076106.97588,1758076106.93114,0.0,0.0,0.0,96.31421,-64.85883,48.8733,12.99,2.2,4.2,2.0
1758076106.98002,1758076106.94114,0.0,0.0,0.0,92.13161,-60.61894,54.431,12.99,2.2,4.2,2.0
1758076106.99592,1758076106.95114,0.0,0.0,0.0,85.08423,-51.73809,56.60823,13.24,3.75,2.61,2.0
1758076106.99997,1758076106.96114,0.0,0.0,0.0,76.89094,-43.94586,57.12389,13.24,3.75,2.61,2.0
1758076107.01735,1758076106.97114,0.0,0.0,0.0,65.03072,-30.99702,54.08722,11.14,4.23,1.22,2.0
1758076107.01913,1758076106.98114,0.0,0.0,0.0,58.15522,-19.59516,49.50356,9.38,2.84,0.82,2.0
1758076107.03488,1758076106.99114,0.0,0.0,0.0,53.62885,-8.59437,43.54479,9.38,2.84,0.82,2.0
1758076107.05399,1758076107.00114,0.0,0.0,0.0,52.42564,-1.3751,37.12767,8.7,1.48,1.52,2.0
1758076107.05529,1758076107.01114,0.0,0.0,0.0,56.32175,3.32316,29.39274,8.7,1.48,1.52,2.0
1758076107.07094,1758076107.02114,0.0,0.0,0.0,61.93674,6.58902,25.61122,9.65,1.1,2.04,2.0
1758076107.07189,1758076107.03114,0.0,0.0,0.0,68.29657,15.29797,21.60051,9.65,1.1,2.04,2.0
1758076107.08693,1758076107.04114,0.0,0.0,0.0,74.36993,23.94964,15.75634,12.18,1.23,2.01,2.0
1758076107.08812,1758076107.05114,0.0,0.0,0.0,82.04756,35.2942,13.40721,12.56,1.32,1.67,2.0
1758076107.10493,1758076107.06114,0.0,0.0,0.0,85.54259,40.04975,11.00079,12.56,1.32,1.67,2.0
1758076107.12169,1758076107.07114,0.0,0.0,0.0,87.89172,42.22699,9.91217,11.59,1.32,1.3,2.0
1758076107.12378,1758076107.08114,0.0,0.0,0.0,89.03764,42.05511,9.11003,11.59,1.32,1.3,2.0
1758076107.13897,1758076107.09114,0.0,0.0,0.0,88.35009,42.97184,8.76626,10.65,1.44,1.09,2.0
1758076107.14034,1758076107.10114,0.0,0.0,0.0,86.91771,44.40423,8.36518,10.65,1.44,1.09,2.0
1758076107.15471,1758076107.11114,0.0,0.0,0.0,84.56858,44.51882,7.21927,10.15,1.76,1.13,2.0
1758076107.17057,1758076107.12114,0.0,0.0,0.0,80.38599,39.82057,4.29718,9.39,1.76,1.44,2.0
1758076107.17179,1758076107.13114,0.0,0.0,0.0,77.06283,35.75257,1.71887,9.39,2.16,1.44,2.0
1758076107.18692,1758076107.14114,0.0,0.0,0.0,73.45319,32.42941,-1.3178,9.18,2.6,1.68,2.0
1758076107.18787,1758076107.15114,0.0,0.0,0.0,69.67168,30.59595,-4.1253,9.18,2.6,1.68,2.0
1758076107.20465,1758076107.16114,0.0,0.0,0.0,64.57235,28.70519,-6.53172,9.08,2.81,1.65,2.0
1758076107.22095,1758076107.17114,0.0,0.0,0.0,61.42108,28.30412,-7.67763,9.08,2.81,1.65,2.0
1758076107.22503,1758076107.18114,0.0,0.0,0.0,58.55629,26.98631,-7.73493,8.57,2.64,1.67,2.0
1758076107.24091,1758076107.19114,0.0,0.0,0.0,56.49364,24.80907,-6.58902,8.57,2.64,1.67,2.0
1758076107.24369,1758076107.20114,0.0,0.0,0.0,54.431,20.05352,-3.55234,8.23,2.16,1.59,2.0
1758076107.2589,1758076107.21114,0.0,0.0,0.0,54.25911,16.61578,-0.40107,8.2,1.58,1.33,2.0
1758076107.26068,1758076107.22114,0.0,0.0,0.0,54.3737,14.32395,2.6929,8.2,1.58,1.33,2.0
1758076107.27642,1758076107.23114,0.0,0.0,0.0,54.77477,12.43318,5.84417,8.54,1.03,1.16,2.0
1758076107.27761,1758076107.24114,0.0,0.0,0.0,55.6915,9.4538,9.68299,8.54,1.03,1.16,2.0
1758076107.29486,1758076107.25114,0.0,0.0,0.0,55.57691,8.88085,10.48513,8.82,0.81,1.08,2.0
1758076107.31254,1758076107.26114,0.0,0.0,0.0,54.77477,10.59972,10.94349,8.82,0.81,1.08,2.0
1758076107.31936,1758076107.27114,0.0,0.0,0.0,52.36834,13.00614,9.11003,9.47,0.97,1.09,2.0
1758076107.3198,1758076107.28114,0.0,0.0,0.0,49.79003,10.8289,7.67763,9.22,1.3,1.04,2.0
1758076107.33807,1758076107.29114,0.0,0.0,0.0,46.98254,7.79223,6.47442,9.22,1.3,1.04,2.0
1758076107.33965,1758076107.30114,0.0,0.0,0.0,43.37291,5.15662,5.55769,8.98,1.53,0.97,2.0
1758076107.35494,1758076107.31114,0.0,0.0,0.0,37.29956,1.48969,4.69825,8.98,1.53,0.97,2.0
1758076107.37146,1758076107.32114,0.0,0.0,0.0,32.77319,-0.68755,4.23989,9.0,1.67,0.84,2.0
1758076107.37347,1758076107.33114,0.0,0.0,0.0,27.96034,-4.87014,4.1253,9.0,1.67,0.84,2.0
1758076107.38889,1758076107.34114,0.0,0.0,0.0,23.37668,-12.54778,4.98473,8.78,1.72,0.72,2.0
1758076107.39097,1758076107.35114,0.0,0.0,0.0,18.16276,-23.0329,7.10468,8.52,1.48,0.47,2.0
1758076107.40741,1758076107.36114,0.0,0.0,0.0,14.83961,-25.21014,8.47978,8.52,1.48,0.47,2.0
1758076107.41515,1758076107.37113,0.0,0.0,0.0,12.08941,-22.97561,10.94349,9.35,1.17,0.4,2.0
1758076107.42997,1758076107.38113,0.0,0.0,0.0,9.28192,-14.61043,13.46451,9.35,1.17,0.4,2.0
1758076107.43407,1758076107.39113,0.0,0.0,0.0,6.24524,-7.21927,17.47521,10.46,0.98,0.63,2.0
1758076107.45,1758076107.40113,0.0,0.0,0.0,-1.14592,-10.37054,12.37589,10.46,0.98,0.63,2.0
1758076107.45171,1758076107.41113,0.0,0.0,0.0,-4.81285,-9.68299,11.51645,9.57,1.17,0.79,2.0
1758076107.46698,1758076107.42113,0.0,0.0,0.0,-5.95876,-15.92823,9.5684,9.57,1.17,0.79,2.0
1758076107.46947,1758076107.43113,0.0,0.0,0.0,-8.59437,-18.90761,5.09932,9.35,1.29,0.78,2.0
1758076107.48994,1758076107.44113,0.0,0.0,0.0,-8.70896,-12.43318,3.32316,10.58,1.08,0.91,2.0
1758076107.49253,1758076107.45113,0.0,0.0,0.0,-8.136,-5.15662,2.92208,10.58,1.08,0.91,2.0
1758076107.50883,1758076107.46113,0.0,0.0,0.0,-6.8182,-1.20321,4.35448,10.73,0.62,0.71,2.0
1758076107.50971,1758076107.47113,0.0,0.0,0.0,-6.13065,0.45837,5.90147,10.73,0.62,0.71,2.0
1758076107.52663,1758076107.48113,0.0,0.0,0.0,-5.78687,3.09397,7.04738,10.61,0.26,0.51,2.0
1758076107.53423,1758076107.49113,0.0,0.0,0.0,-5.95876,7.33386,8.25059,10.61,0.26,0.51,2.0
1758076107.54971,1758076107.50113,0.0,0.0,0.0,-7.21927,11.91752,9.33921,11.22,0.37,0.34,2.0
1758076107.55171,1758076107.51113,0.0,0.0,0.0,-8.30789,14.32395,9.5684,11.83,0.84,1.06,2.0
1758076107.56872,1758076107.52113,0.0,0.0,0.0,-9.22462,14.78231,9.22462,11.83,0.84,1.06,2.0
1758076107.56974,1758076107.53113,0.0,0.0,0.0,-9.91217,12.77696,8.02141,12.6,1.21,1.84,2.0
1758076107.58868,1758076107.54113,0.0,0.0,0.0,-10.8862,6.58902,5.61499,12.6,1.21,1.84,2.0
1758076107.58997,1758076107.55113,0.0,0.0,0.0,-11.74564,1.77617,3.89611,12.79,1.21,2.02,2.0
1758076107.60476,1758076107.56113,0.0,0.0,0.0,-12.54778,-1.94806,2.46372,12.79,1.21,2.02,2.0
1758076107.62193,1758076107.57113,0.0,0.0,0.0,-13.46451,-5.32851,1.60428,12.47,1.03,1.87,2.0
1758076107.6245,1758076107.58113,0.0,0.0,0.0,-14.09476,-10.25595,1.20321,11.5,0.9,1.73,2.0
1758076107.64002,1758076107.59113,0.0,0.0,0.0,-14.32395,-11.63104,1.20321,11.5,0.9,1.73,2.0
1758076107.64367,1758076107.60113,0.0,0.0,0.0,-14.43854,-13.34992,1.94806,10.72,1.02,1.67,2.0
1758076107.65876,1758076107.61113,0.0,0.0,0.0,-15.69904,-15.29797,2.63561,10.72,1.02,1.67,2.0
1758076107.65994,1758076107.62113,0.0,0.0,0.0,-19.53786,-18.50654,1.83346,9.95,1.34,1.95,2.0
1758076107.67474,1758076107.63113,0.0,0.0,0.0,-23.66316,-21.25674,0.11459,9.95,1.34,1.95,2.0
1758076107.69163,1758076107.64113,0.0,0.0,0.0,-28.59059,-24.12152,-2.97938,9.12,1.69,2.31,2.0
1758076107.69288,1758076107.65113,0.0,0.0,0.0,-33.40344,-27.44468,-6.53172,9.12,1.69,2.31,2.0
1758076107.70883,1758076107.66113,0.0,0.0,0.0,-40.39353,-34.14828,-12.71966,8.37,1.74,2.91,2.0
1758076107.70979,1758076107.67113,0.0,0.0,0.0,-44.40423,-38.78925,-16.04282,7.85,1.37,3.63,2.0
1758076107.72882,1758076107.68113,0.0,0.0,0.0,-47.03984,-41.59674,-18.56383,7.85,1.37,3.63,2.0
1758076107.73049,1758076107.69113,0.0,0.0,0.0,-49.04519,-40.85189,-20.3973,8.34,0.65,3.51,2.0
1758076107.74484,1758076107.70113,0.0,0.0,0.0,-48.75871,-37.87251,-20.34,8.34,0.65,3.51,2.0
1758076107.76181,1758076107.71113,0.0,0.0,0.0,-46.75336,-33.63263,-19.59516,9.35,-0.25,2.8,2.0
1758076107.76372,1758076107.72113,0.0,0.0,0.0,-42.39888,-29.56462,-19.59516,9.35,-0.25,2.8,2.0
1758076107.77899,1758076107.73113,0.0,0.0,0.0,-34.32018,-20.62648,-17.24603,10.31,-1.27,2.2,2.0
1758076107.78031,1758076107.74113,0.0,0.0,0.0,-27.50197,-16.04282,-14.43854,10.19,-1.87,1.43,2.0
1758076107.79478,1758076107.75113,0.0,0.0,0.0,-20.68378,-12.71966,-10.65701,10.19,-1.87,1.43,2.0
1758076107.81172,1758076107.76113,0.0,0.0,0.0,-13.75099,-7.50575,-6.24524,9.94,-1.97,1.16,2.0
1758076107.8174,1758076107.77113,0.0,0.0,0.0,-4.23989,0.97403,0.51566,9.94,-1.97,1.16,2.0
1758076107.8318,1758076107.78113,0.0,0.0,0.0,1.20321,6.47442,4.46907,10.16,-1.62,0.94,2.0
1758076107.83459,1758076107.79113,0.0,0.0,0.0,5.78687,11.51645,7.84952,10.16,-1.62,0.94,2.0
1758076107.84977,1758076107.80113,0.0,0.0,0.0,9.22462,17.53251,10.19865,10.19,-1.02,0.69,2.0
1758076107.85187,1758076107.81113,0.0,0.0,0.0,12.83425,26.06958,11.63104,9.99,-0.46,0.45,2.0
1758076107.86696,1758076107.82113,0.0,0.0,0.0,14.09476,31.51268,11.57375,9.99,-0.46,0.45,2.0
1758076107.86963,1758076107.83113,0.0,0.0,0.0,14.78231,36.15364,10.8289,9.62,-0.16,0.45,2.0
1758076107.88503,1758076107.84113,0.0,0.0,0.0,14.9542,40.50812,9.96947,9.62,-0.16,0.45,2.0
1758076107.89104,1758076107.85113,0.0,0.0,0.0,15.64175,44.23235,8.30789,9.38,-0.16,0.68,2.0
1758076107.90906,1758076107.86113,0.0,0.0,0.0,15.98552,44.8053,7.16197,9.38,-0.16,0.68,2.0
1758076107.90997,1758076107.87113,0.0,0.0,0.0,16.84496,44.57612,6.41713,8.97,-0.32,0.77,2.0
1758076107.92464,1758076107.88113,0.0,0.0,0.0,17.81899,42.91454,4.87014,8.97,-0.32,0.77,2.0
1758076107.92918,1758076107.89113,0.0,0.0,0.0,18.90761,40.27893,3.55234,8.59,-0.47,0.77,2.0
1758076107.9489,1758076107.90113,0.0,0.0,0.0,20.3973,39.19032,2.23454,8.38,-0.53,0.76,2.0
1758076107.94981,1758076107.91113,0.0,0.0,0.0,21.88699,36.61201,0.80214,8.38,-0.53,0.76,2.0
1758076107.9648,1758076107.92113,0.0,0.0,0.0,24.29341,30.36677,-1.3178,7.96,-0.53,0.73,2.0
1758076107.96913,1758076107.93113,0.0,0.0,0.0,26.12688,25.61122,-2.46372,7.96,-0.53,0.73,2.0
1758076107.98505,1758076107.94113,0.0,0.0,0.0,28.59059,21.08485,-2.86479,7.91,-0.54,0.7,2.0
1758076107.98915,1758076107.95113,0.0,0.0,0.0,31.74186,19.25138,-2.46372,7.91,-0.54,0.7,2.0
1758076108.00507,1758076107.96113,0.0,0.0,0.0,36.61201,20.3973,-0.68755,8.41,-0.72,0.6,2.0
1758076108.01104,1758076107.97113,0.0,0.0,0.0,40.45082,19.07949,1.66158,8.63,-1.11,0.41,2.0
1758076108.02878,1758076107.98113,0.0,0.0,0.0,44.57612,15.24068,4.64096,8.63,-1.11,0.41,2.0
1758076108.03083,1758076107.99113,0.0,0.0,0.0,48.70141,10.65701,7.39116,8.69,-1.54,0.21,2.0
1758076108.04712,1758076108.00113,0.0,0.0,0.0,55.23313,0.85944,10.19865,8.69,-1.54,0.21,2.0
1758076108.04956,1758076108.01113,0.0,0.0,0.0,59.35843,-10.54242,11.86023,9.2,-1.74,0.0,2.0
1758076108.06594,1758076108.02113,0.0,0.0,0.0,62.5097,-25.26744,12.43318,9.2,-1.74,0.0,2.0
1758076108.06939,1758076108.03113,0.0,0.0,0.0,64.80153,-37.12767,12.60507,9.45,-1.44,-0.02,2.0
1758076108.08592,1758076108.04113,0.0,0.0,0.0,70.18733,-37.92981,10.25595,11.23,-0.93,0.23,2.0
1758076108.08938,1758076108.05113,0.0,0.0,0.0,74.94289,-30.93972,10.8289,11.23,-0.93,0.23,2.0
1758076108.10521,1758076108.06113,0.0,0.0,0.0,79.69843,-23.37668,9.91217,12.79,-0.53,0.97,2.0
1758076108.10849,1758076108.07113,0.0,0.0,0.0,84.28209,-13.69369,9.05273,12.79,-0.53,0.97,2.0
1758076108.12387,1758076108.08113,0.0,0.0,0.0,88.35009,-2.11994,8.0787,13.22,-0.16,1.2,2.0
1758076108.13993,1758076108.09113,0.0,0.0,0.0,89.89708,2.29183,5.90147,13.22,-0.16,1.2,2.0
1758076108.14429,1758076108.10113,0.0,0.0,0.0,90.92841,-14.32395,3.09397,12.24,0.12,1.05,2.0
1758076108.16027,1758076108.11113,0.0,0.0,0.0,94.07968,-55.86338,8.42248,12.24,0.12,1.05,2.0
1758076108.16182,1758076108.12113,0.0,0.0,0.0,94.25156,-70.01544,19.48057,9.98,0.0,1.6,2.0
1758076108.17712,1758076108.13113,0.0,0.0,0.0,90.06896,-66.34852,26.47065,14.86,0.58,2.97,2.0
1758076108.17882,1758076108.14113,0.0,0.0,0.0,86.17285,-61.30648,34.37747,14.86,0.58,2.97,2.0
1758076108.19487,1758076108.15113,0.0,0.0,0.0,81.30271,-52.9986,43.77398,15.19,2.06,2.89,2.0
1758076108.19996,1758076108.16113,0.0,0.0,0.0,77.29202,-43.37291,45.83662,15.19,2.06,2.89,2.0
1758076108.21516,1758076108.17113,0.0,0.0,0.0,72.0208,-33.17426,45.03448,12.88,2.4,1.7,2.0
1758076108.22114,1758076108.18113,0.0,0.0,0.0,65.89015,-26.98631,42.85724,12.88,2.4,1.7,2.0
1758076108.23819,1758076108.19113,0.0,0.0,0.0,58.15522,-18.56383,37.24226,10.05,1.57,1.35,2.0
1758076108.23974,1758076108.20113,0.0,0.0,0.0,55.34772,-12.43318,32.88778,9.31,0.51,2.65,2.0
1758076108.2549,1758076108.21113,0.0,0.0,0.0,55.51962,-9.11003,29.10626,9.31,0.51,2.65,2.0
1758076108.25846,1758076108.22113,0.0,0.0,0.0,58.49899,-8.76626,26.87172,9.13,-0.17,4.07,2.0
1758076108.27389,1758076108.23113,0.0,0.0,0.0,66.46311,-6.58902,26.47065,9.13,-0.17,4.07,2.0
1758076108.28983,1758076108.24113,0.0,0.0,0.0,72.42187,-1.3178,27.38738,9.96,-0.34,4.45,2.0
1758076108.29288,1758076108.25113,0.0,0.0,0.0,78.49522,2.92208,29.67921,9.96,-0.34,4.45,2.0
1758076108.30816,1758076108.26113,0.0,0.0,0.0,84.05292,6.87549,31.85646,10.29,-0.08,3.55,2.0
1758076108.31143,1758076108.27113,0.0,0.0,0.0,89.83979,11.11538,33.9764,9.99,0.26,2.71,2.0
1758076108.32691,1758076108.28113,0.0,0.0,0.0,91.73055,14.9542,33.68992,9.99,0.26,2.71,2.0
1758076108.32964,1758076108.29113,0.0,0.0,0.0,92.07432,19.88164,31.62727,10.14,0.65,2.1,2.0
1758076108.34607,1758076108.30113,0.0,0.0,0.0,89.26682,25.21014,24.75178,10.14,0.65,2.1,2.0
1758076108.34789,1758076108.31113,0.0,0.0,0.0,86.28745,31.28349,18.44924,9.68,1.09,1.75,2.0
1758076108.36516,1758076108.32113,0.0,0.0,0.0,82.39134,35.3515,11.11538,9.68,1.09,1.75,2.0
1758076108.38373,1758076108.33113,0.0,0.0,0.0,77.92226,40.16434,3.60963,9.16,1.5,1.69,2.0
1758076108.38496,1758076108.34113,0.0,0.0,0.0,71.50513,43.77398,-5.78687,9.16,1.5,1.69,2.0
1758076108.39981,1758076108.35113,0.0,0.0,0.0,67.37984,44.57612,-8.99544,8.79,1.97,1.75,2.0
1758076108.40179,1758076108.36113,0.0,0.0,0.0,63.77021,44.40423,-10.8289,8.4,2.23,1.83,2.0
1758076108.41703,1758076108.37113,0.0,0.0,0.0,60.73353,44.9199,-10.59972,8.4,2.23,1.83,2.0
1758076108.41965,1758076108.38113,0.0,0.0,0.0,56.20716,45.55015,-8.0787,8.4,2.11,1.7,2.0
1758076108.43512,1758076108.39113,0.0,0.0,0.0,53.39967,47.78468,-5.09932,8.4,2.11,1.7,2.0
1758076108.43923,1758076108.40113,0.0,0.0,0.0,51.27972,45.37826,-1.03132,8.28,1.67,1.69,2.0
1758076108.45514,1758076108.41113,0.0,0.0,0.0,49.15978,41.48215,2.46372,8.28,1.67,1.69,2.0
1758076108.47458,1758076108.42113,0.0,0.0,0.0,45.60744,37.29956,6.53172,8.02,1.19,1.73,2.0
1758076108.47736,1758076108.43113,0.0,0.0,0.0,43.54479,35.00772,7.62034,8.4,0.9,1.49,2.0
1758076108.49296,1758076108.44113,0.0,0.0,0.0,41.76862,32.08564,7.79223,8.4,0.9,1.49,2.0
1758076108.49389,1758076108.45113,0.0,0.0,0.0,40.45082,28.24682,7.67763,8.35,0.81,1.4,2.0
1758076108.50919,1758076108.46113,0.0,0.0,0.0,38.90384,21.94428,7.50575,8.35,0.81,1.4,2.0
1758076108.51199,1758076108.47113,0.0,0.0,0.0,38.1017,17.58981,7.67763,8.26,0.75,1.57,2.0
1758076108.52879,1758076108.48113,0.0,0.0,0.0,37.01308,13.12073,8.02141,8.26,0.75,1.57,2.0
1758076108.53081,1758076108.49113,0.0,0.0,0.0,35.63798,9.28192,9.85487,8.23,0.84,1.43,2.0
1758076108.54665,1758076108.50113,0.0,0.0,0.0,32.54401,4.46907,11.17268,8.39,1.11,1.31,2.0
1758076108.54789,1758076108.51113,0.0,0.0,0.0,29.67921,3.09397,12.2613,8.39,1.11,1.31,2.0
1758076108.56417,1758076108.52113,0.0,0.0,0.0,26.69983,4.58366,13.80828,8.81,1.41,1.02,2.0
1758076108.5802,1758076108.53113,0.0,0.0,0.0,21.25674,6.53172,16.73037,8.81,1.41,1.02,2.0
1758076108.58357,1758076108.54113,0.0,0.0,0.0,16.61578,6.07335,18.56383,8.97,1.59,0.83,2.0
1758076108.59921,1758076108.55113,0.0,0.0,0.0,10.59972,4.23989,20.22541,8.97,1.59,0.83,2.0
1758076108.6001,1758076108.56113,0.0,0.0,0.0,2.97938,0.57296,20.51189,9.12,1.73,0.91,2.0
1758076108.6151,1758076108.57113,0.0,0.0,0.0,-10.19865,-9.5684,20.11082,9.12,1.73,0.72,2.0
1758076108.61926,1758076108.58113,0.0,0.0,0.0,-20.51189,-16.67307,17.81899,9.5,2.09,0.72,2.0
1758076108.63489,1758076108.59113,0.0,0.0,0.0,-30.82513,-24.86637,14.61043,9.72,2.72,0.95,2.0
1758076108.6384,1758076108.60113,0.0,0.0,0.0,-40.27893,-33.80451,10.59972,9.72,2.72,0.95,2.0
1758076108.65499,1758076108.61113,0.0,0.0,0.0,-53.17049,-47.72739,3.66693,9.9,3.04,1.21,2.0
1758076108.67301,1758076108.62113,0.0,0.0,0.0,-59.53032,-57.0093,-0.85944,9.9,3.04,1.21,2.0
1758076108.67388,1758076108.63113,0.0,0.0,0.0,-63.48372,-63.19725,-3.72423,9.85,2.6,1.02,2.0
1758076108.68967,1758076108.64113,0.0,0.0,0.0,-64.80153,-62.56699,-5.27121,9.85,2.6,1.02,2.0
1758076108.69918,1758076108.65113,0.0,0.0,0.0,-62.16592,-51.16513,-4.98473,10.29,1.28,0.93,2.0
1758076108.69954,1758076108.66113,0.0,0.0,0.0,-58.15522,-45.26366,-4.58366,11.41,-0.16,2.1,2.0
1758076108.71761,1758076108.67113,0.0,0.0,0.0,-52.82671,-44.57612,-5.72958,11.41,-0.16,2.1,2.0
1758076108.71869,1758076108.68113,0.0,0.0,0.0,-45.55015,-52.13916,-7.21927,12.09,-0.9,3.32,2.0
1758076108.73475,1758076108.69113,0.0,0.0,0.0,-34.66395,-87.0323,-14.32395,12.09,-0.9,3.32,2.0
1758076108.73827,1758076108.70113,0.0,0.0,0.0,-25.72581,-110.29437,-20.62648,10.96,-1.83,3.65,2.0
1758076108.75495,1758076108.71113,0.0,0.0,0.0,-17.53251,-120.83681,-27.2155,10.96,-1.83,3.65,2.0
1758076108.76036,1758076108.72113,0.0,0.0,0.0,-8.47978,-112.07055,-32.08564,12.04,-2.58,3.25,2.0
1758076108.77696,1758076108.73113,0.0,0.0,0.0,-7.39116,-70.24463,-33.80451,14.34,-2.03,3.18,2.0
1758076108.77792,1758076108.74113,0.0,0.0,0.0,-9.28192,-43.88857,-34.09099,14.34,-2.03,3.18,2.0
1758076108.79537,1758076108.75113,0.0,0.0,0.0,-13.80828,-35.75257,-36.03905,11.5,-0.5,4.5,2.0
1758076108.7996,1758076108.76113,0.0,0.0,0.0,-19.88164,-39.3622,-40.27893,11.5,-0.5,4.5,2.0
1758076108.81776,1758076108.77113,0.0,0.0,0.0,-22.97561,-34.26288,-40.10705,9.39,0.39,4.22,2.0
1758076108.81871,1758076108.78113,0.0,0.0,0.0,-24.92367,-24.86637,-36.49741,9.39,0.39,4.22,2.0
1758076108.83466,1758076108.79113,0.0,0.0,0.0,-25.38203,-15.92823,-30.19488,11.44,0.7,2.81,2.0
1758076108.83832,1758076108.80113,0.0,0.0,0.0,-22.91831,-3.95341,-17.47521,12.45,0.03,2.39,2.0
1758076108.85494,1758076108.81113,0.0,0.0,0.0,-19.42327,4.1253,-8.70896,12.45,0.03,2.39,2.0
1758076108.87302,1758076108.82113,0.0,0.0,0.0,-15.46986,11.51645,-1.3178,12.42,-0.83,1.58,2.0
1758076108.87509,1758076108.83113,0.0,0.0,0.0,-11.57375,17.99088,4.23989,12.42,-0.83,1.58,2.0
1758076108.89101,1758076108.84113,0.0,0.0,0.0,-5.90147,26.64254,9.33921,10.96,-1.51,1.35,2.0
1758076108.89438,1758076108.85113,0.0,0.0,0.0,-2.7502,30.02299,10.8289,10.96,-1.51,1.35,2.0
1758076108.90993,1758076108.86113,0.0,0.0,0.0,0.17189,32.77319,10.59972,9.56,-1.73,1.4,2.0
1758076108.91115,1758076108.87113,0.0,0.0,0.0,2.92208,34.37747,9.85487,9.56,-1.73,1.4,2.0
1758076108.92677,1758076108.88113,0.0,0.0,0.0,6.24524,38.56006,7.67763,8.97,-1.67,1.23,2.0
1758076108.92956,1758076108.89113,0.0,0.0,0.0,8.136,41.65404,6.41713,9.02,-1.39,1.14,2.0
1758076108.94594,1758076108.90113,0.0,0.0,0.0,10.25595,43.77398,5.78687,9.02,-1.39,1.14,2.0
1758076108.96198,1758076108.91113,0.0,0.0,0.0,12.2613,44.86259,5.72958,8.54,-1.06,1.08,2.0
1758076108.96476,1758076108.92113,0.0,0.0,0.0,14.9542,45.77933,6.07335,8.54,-1.06,1.08,2.0
1758076108.98372,1758076108.93113,0.0,0.0,0.0,15.98552,45.09178,6.47442,8.07,-0.74,1.12,2.0
1758076108.98477,1758076108.94113,0.0,0.0,0.0,16.61578,43.65939,6.8182,8.07,-0.74,1.12,2.0
1758076108.99997,1758076108.95113,0.0,0.0,0.0,16.67307,40.62271,7.04738,7.56,-0.47,1.21,2.0
1758076109.00117,1758076108.96113,0.0,0.0,0.0,16.55848,37.58603,7.39116,7.3,-0.29,1.37,2.0
1758076109.01657,1758076108.97113,0.0,0.0,0.0,16.50119,33.9764,7.67763,7.3,-0.29,1.37,2.0
1758076109.03202,1758076108.98113,0.0,0.0,0.0,16.61578,29.62192,8.0787,7.21,-0.22,1.18,2.0
1758076109.03319,1758076108.99113,0.0,0.0,0.0,16.21471,23.0329,5.84417,7.21,-0.22,1.18,2.0
1758076109.04835,1758076109.00113,0.0,0.0,0.0,15.87093,19.42327,3.83882,7.54,-0.15,1.01,2.0
1758076109.04914,1758076109.01113,0.0,0.0,0.0,15.12609,14.72501,1.71887,7.54,-0.15,1.01,2.0
1758076109.06427,1758076109.02113,0.0,0.0,0.0,14.49583,9.5684,-0.97403,7.63,-0.18,0.7,2.0
1758076109.0803,1758076109.03113,0.0,0.0,0.0,13.5791,5.4431,-5.95876,7.91,-0.24,0.51,2.0
1758076109.08118,1758076109.04113,0.0,0.0,0.0,13.00614,4.29718,-9.5684,7.91,-0.24,0.51,2.0
1758076109.09931,1758076109.05113,0.0,0.0,0.0,12.89155,3.32316,-13.23533,8.46,-0.39,0.51,2.0
1758076109.1006,1758076109.06113,0.0,0.0,0.0,13.5218,0.74485,-16.272,8.46,-0.39,0.51,2.0
1758076109.11599,1758076109.07113,0.0,0.0,0.0,16.61578,-2.97938,-18.85031,9.07,-0.85,0.84,2.0
1758076109.11798,1758076109.08113,0.0,0.0,0.0,20.68378,-5.4431,-18.56383,9.07,-0.85,0.84,2.0
1758076109.13397,1758076109.09113,0.0,0.0,0.0,25.72581,-8.42248,-16.3293,10.01,-1.57,0.91,2.0
1758076109.15106,1758076109.10113,0.0,0.0,0.0,31.45539,-12.89155,-12.71966,10.01,-1.57,0.91,2.0
1758076109.15516,1758076109.11113,0.0,0.0,0.0,40.7373,-20.62648,-4.98473,10.44,-2.15,0.98,2.0
1758076109.17202,1758076109.12113,0.0,0.0,0.0,46.98254,-26.64254,0.97403,10.61,-2.13,0.88,2.0
1758076109.17458,1758076109.13113,0.0,0.0,0.0,51.73809,-34.32018,5.4431,10.61,-2.13,0.88,2.0
1758076109.19105,1758076109.14113,0.0,0.0,0.0,57.0093,-38.21629,10.08406,10.36,-1.49,0.48,2.0
1758076109.19754,1758076109.15113,0.0,0.0,0.0,61.59297,-31.62727,12.49048,10.36,-1.49,0.48,2.0
1758076109.1981,1758076109.16113,0.0,0.0,0.0,64.74423,-16.38659,12.14671,11.79,-1.11,0.03,2.0
1758076109.21393,1758076109.17113,0.0,0.0,0.0,68.01009,2.00535,11.91752,11.79,-1.11,0.03,2.0
1758076109.22998,1758076109.18113,0.0,0.0,0.0,70.41652,22.34536,7.04738,13.21,-1.02,0.2,2.0
1758076109.23317,1758076109.19113,0.0,0.0,0.0,72.0208,12.204,1.83346,11.38,-1.1,0.16,2.0
1758076109.24799,1758076109.20113,0.0,0.0,0.0,74.31263,-13.69369,-0.0573,11.38,-1.1,0.16,2.0
1758076109.25115,1758076109.21113,0.0,0.0,0.0,75.85962,-32.83048,0.97403,9.57,-1.72,-1.12,2.0
1758076109.26898,1758076109.22113,0.0,0.0,0.0,76.48987,-26.64254,4.92744,9.57,-1.72,-1.12,2.0
1758076109.27015,1758076109.23113,0.0,0.0,0.0,75.22936,-18.16276,6.35983,13.12,-2.04,0.21,2.0
1758076109.28926,1758076109.24113,0.0,0.0,0.0,72.76565,-12.54778,8.99544,13.12,-2.04,0.21,2.0
1758076109.29021,1758076109.25113,0.0,0.0,0.0,68.98412,-13.5218,12.60507,12.66,-0.97,1.28,2.0
1758076109.30655,1758076109.26113,0.0,0.0,0.0,62.96807,-20.45459,21.25674,12.2,0.17,2.91,2.0
1758076109.32203,1758076109.27113,0.0,0.0,0.0,58.21251,-22.97561,26.87172,12.2,0.17,2.91,2.0
1758076109.32483,1758076109.28113,0.0,0.0,0.0,52.48294,-23.0329,31.39809,11.92,1.54,1.93,2.0
1758076109.34102,1758076109.29113,0.0,0.0,0.0,45.26366,-22.57454,34.60666,11.92,1.54,1.93,2.0
1758076109.34446,1758076109.30113,0.0,0.0,0.0,33.9764,-23.94964,38.15899,10.8,3.18,2.29,2.0
1758076109.36008,1758076109.31113,0.0,0.0,0.0,26.41335,-23.26209,39.01843,10.8,3.18,2.29,2.0
1758076109.36361,1758076109.32113,0.0,0.0,0.0,19.53786,-19.70975,38.44547,9.79,3.79,2.66,2.0
1758076109.37938,1758076109.33113,0.0,0.0,0.0,11.28727,-14.43854,33.9764,9.79,3.79,2.66,2.0
1758076109.38056,1758076109.34113,0.0,0.0,0.0,8.30789,-7.96411,29.56462,8.95,3.08,2.54,2.0
1758076109.39925,1758076109.35113,0.0,0.0,0.0,7.10468,-4.98473,24.80907,8.37,1.3,3.64,2.0
1758076109.40019,1758076109.36113,0.0,0.0,0.0,8.136,-3.95341,20.22541,8.37,1.3,3.64,2.0
1758076109.4153,1758076109.37113,0.0,0.0,0.0,13.17803,-5.15662,17.36062,9.27,0.03,4.49,2.0
1758076109.42017,1758076109.38113,0.0,0.0,0.0,16.73037,-1.48969,16.95955,9.27,0.03,4.49,2.0
1758076109.4382,1758076109.39113,0.0,0.0,0.0,21.60051,4.92744,17.18874,11.39,-0.16,4.17,2.0
1758076109.43931,1758076109.40113,0.0,0.0,0.0,28.01764,11.45916,17.36062,11.39,-0.16,4.17,2.0
1758076109.45901,1758076109.41113,0.0,0.0,0.0,37.18496,21.14215,17.24603,11.15,-0.16,2.78,2.0
1758076109.46128,1758076109.42113,0.0,0.0,0.0,41.36755,29.39274,17.30333,10.87,-0.05,2.09,2.0
1758076109.4779,1758076109.43113,0.0,0.0,0.0,43.94586,36.32552,16.90226,10.87,-0.05,2.09,2.0
1758076109.47962,1758076109.44113,0.0,0.0,0.0,44.8053,42.22699,15.58445,10.68,0.31,1.89,2.0
1758076109.49532,1758076109.45113,0.0,0.0,0.0,44.17505,49.33167,11.57375,10.68,0.31,1.89,2.0
1758076109.49941,1758076109.46113,0.0,0.0,0.0,42.57077,54.25911,7.73493,10.36,0.71,1.63,2.0
1758076109.515,1758076109.47113,0.0,0.0,0.0,40.33623,59.24384,2.7502,10.36,0.71,1.63,2.0
1758076109.51947,1758076109.48113,0.0,0.0,0.0,37.52874,62.79618,-1.83346,9.89,1.11,1.5,2.0
1758076109.53507,1758076109.49113,0.0,0.0,0.0,32.48671,64.17127,-8.59437,9.08,1.58,1.49,2.0
1758076109.53866,1758076109.50113,0.0,0.0,0.0,29.33544,64.57235,-11.17268,9.08,1.58,1.49,2.0
1758076109.5541,1758076109.51113,0.0,0.0,0.0,25.7831,64.62964,-13.23533,8.75,1.87,1.44,2.0
1758076109.57092,1758076109.52113,0.0,0.0,0.0,22.63183,64.22858,-13.69369,8.75,1.87,1.44,2.0
1758076109.57525,1758076109.53113,0.0,0.0,0.0,17.76169,60.96271,-13.00614,8.32,1.82,1.43,2.0
1758076109.59093,1758076109.54113,0.0,0.0,0.0,14.49583,58.26981,-11.28727,8.32,1.82,1.43,2.0
1758076109.59208,1758076109.55113,0.0,0.0,0.0,11.34457,53.74345,-9.4538,8.03,1.46,1.43,2.0
1758076109.60706,1758076109.56113,0.0,0.0,0.0,7.04738,46.2377,-6.58902,8.03,1.46,1.43,2.0
1758076109.60904,1758076109.57113,0.0,0.0,0.0,4.52637,41.71133,-4.87014,7.93,1.0,1.38,2.0
1758076109.62524,1758076109.58113,0.0,0.0,0.0,2.6929,37.75792,-4.1253,8.17,0.6,1.17,2.0
1758076109.64109,1758076109.59113,0.0,0.0,0.0,1.48969,33.51803,-3.49504,8.17,0.6,1.17,2.0
1758076109.64226,1758076109.60113,0.0,0.0,0.0,1.48969,24.75178,-2.6929,8.1,0.27,1.19,2.0
1758076109.65808,1758076109.61113,0.0,0.0,0.0,2.46372,17.81899,-1.14592,8.1,0.27,1.19,2.0
1758076109.65964,1758076109.62113,0.0,0.0,0.0,3.83882,11.28727,0.51566,7.83,0.03,1.11,2.0
1758076109.67406,1758076109.63113,0.0,0.0,0.0,4.92744,5.50039,2.34913,7.83,0.03,1.11,2.0
1758076109.69121,1758076109.64113,0.0,0.0,0.0,6.18794,0.97403,5.32851,7.97,0.0,1.23,2.0
1758076109.69517,1758076109.65113,0.0,0.0,0.0,5.84417,0.74485,6.41713,8.4,0.25,1.12,2.0
1758076109.7112,1758076109.66113,0.0,0.0,0.0,4.52637,-0.68755,6.99009,8.4,0.25,1.12,2.0
1758076109.71285,1758076109.67113,0.0,0.0,0.0,2.34913,-2.63561,7.10468,8.41,0.73,1.18,2.0
1758076109.72921,1758076109.68113,0.0,0.0,0.0,-3.32316,-7.67763,6.24524,8.41,0.73,1.18,2.0
1758076109.73114,1758076109.69113,0.0,0.0,0.0,-8.0787,-12.2613,5.09932,8.39,1.21,0.87,2.0
1758076109.74606,1758076109.70113,0.0,0.0,0.0,-13.40721,-21.48592,3.66693,8.39,1.21,0.87,2.0
1758076109.76208,1758076109.71113,0.0,0.0,0.0,-18.73572,-36.38282,3.20856,7.92,1.53,0.34,2.0
1758076109.76565,1758076109.72113,0.0,0.0,0.0,-26.35606,-56.89471,3.09397,7.77,1.38,-0.03,2.0
1758076109.78128,1758076109.73113,0.0,0.0,0.0,-32.08564,-66.5204,4.23989,7.77,1.38,-0.03,2.0
1758076109.7839,1758076109.74113,0.0,0.0,0.0,-37.92981,-69.04142,3.66693,9.41,1.33,0.47,2.0
1758076109.79933,1758076109.75113,0.0,0.0,0.0,-47.61279,-51.10783,3.03668,9.41,1.33,0.47,2.0
1758076109.8011,1758076109.76113,0.0,0.0,0.0,-49.79003,-13.98017,5.15662,14.1,1.12,1.61,2.0
1758076109.81608,1758076109.77113,0.0,0.0,0.0,-52.25375,-32.42941,1.20321,14.1,1.12,1.61,2.0
1758076109.8181,1758076109.78113,0.0,0.0,0.0,-53.34238,-45.60744,-0.80214,10.67,0.43,2.68,2.0
1758076109.83413,1758076109.79113,0.0,0.0,0.0,-48.58683,-47.15443,-4.58366,10.67,0.43,2.68,2.0
1758076109.85116,1758076109.80113,0.0,0.0,0.0,-45.72203,-44.46153,-8.59437,11.9,-0.52,0.69,2.0
1758076109.85481,1758076109.81113,0.0,0.0,0.0,-43.02913,-37.58603,-11.45916,12.63,-0.39,0.28,2.0
1758076109.87115,1758076109.82113,0.0,0.0,0.0,-39.64868,-28.476,-12.49048,12.63,-0.39,0.28,2.0
1758076109.87205,1758076109.83113,0.0,0.0,0.0,-31.62727,-19.59516,-11.63104,12.95,-0.49,1.16,2.0
1758076109.88742,1758076109.84113,0.0,0.0,0.0,-24.35071,-21.37133,-12.08941,12.95,-0.49,1.16,2.0
1758076109.88906,1758076109.85113,0.0,0.0,0.0,-15.64175,-29.04896,-13.5791,12.74,-1.05,3.06,2.0
1758076109.90903,1758076109.86113,0.0,0.0,0.0,-7.21927,-40.39353,-16.73037,12.74,-1.05,3.06,2.0
1758076109.91266,1758076109.87113,0.0,0.0,0.0,3.20856,-46.81066,-21.94428,12.04,-1.4,3.44,2.0
1758076109.9295,1758076109.88113,0.0,0.0,0.0,8.47978,-46.1804,-25.26744,11.72,-1.31,2.59,2.0
1758076109.93424,1758076109.89113,0.0,0.0,0.0,11.57375,-43.25832,-28.41871,11.72,-1.31,2.59,2.0
1758076109.94906,1758076109.90113,0.0,0.0,0.0,12.89155,-38.50277,-30.36677,10.52,-0.56,2.83,2.0
1758076109.95433,1758076109.91113,0.0,0.0,0.0,11.97482,-31.45539,-31.85646,10.52,-0.56,2.83,2.0
1758076109.96912,1758076109.92113,0.0,0.0,0.0,9.62569,-30.65324,-33.51803,9.17,0.33,3.6,2.0
1758076109.97294,1758076109.93113,0.0,0.0,0.0,5.61499,-28.99167,-35.12231,9.17,0.33,3.6,2.0
1758076109.98889,1758076109.94113,0.0,0.0,0.0,0.40107,-25.7831,-35.06502,8.95,0.98,4.62,2.0
1758076109.99205,1758076109.95113,0.0,0.0,0.0,-8.65166,-22.05888,-32.14294,9.62,1.69,4.18,2.0
1758076110.00938,1758076109.96113,0.0,0.0,0.0,-13.23533,-20.62648,-28.30412,9.62,1.69,4.18,2.0
1758076110.01108,1758076109.97113,0.0,0.0,0.0,-16.10011,-17.24603,-23.60586,10.73,1.62,3.31,2.0
1758076110.02702,1758076109.98113,0.0,0.0,0.0,-16.55848,-7.67763,-16.55848,10.73,1.62,3.31,2.0
1758076110.0289,1758076109.99113,0.0,0.0,0.0,-14.32395,0.22918,-12.37589,12.09,0.82,2.28,2.0
1758076110.0459,1758076110.00113,0.0,0.0,0.0,-10.59972,7.21927,-8.70896,12.09,0.82,2.28,2.0
1758076110.04953,1758076110.01113,0.0,0.0,0.0,-6.13065,12.37589,-5.50039,11.84,-0.16,1.86,2.0
1758076110.06942,1758076110.02113,0.0,0.0,0.0,0.68755,18.16276,-1.20321,11.84,-0.16,1.63,2.0
1758076110.07139,1758076110.03113,0.0,0.0,0.0,5.09932,22.00158,1.60428,10.55,-0.98,1.63,2.0
1758076110.08608,1758076110.04113,0.0,0.0,0.0,8.93814,25.7831,4.64096,9.95,-1.38,1.35,2.0
1758076110.10392,1758076110.05113,0.0,0.0,0.0,11.97482,29.8511,7.04738,9.95,-1.38,1.35,2.0
1758076110.10569,1758076110.06113,0.0,0.0,0.0,15.58445,33.86181,11.11538,9.6,-1.39,1.05,2.0
1758076110.12232,1758076110.07113,0.0,0.0,0.0,17.58981,36.89849,13.17803,9.6,-1.39,1.05,2.0
1758076110.12409,1758076110.08113,0.0,0.0,0.0,19.07949,39.13302,14.72501,9.17,-1.14,0.84,2.0
1758076110.13937,1758076110.09113,0.0,0.0,0.0,20.22541,41.25296,15.41257,9.17,-1.14,0.84,2.0
1758076110.14112,1758076110.10113,0.0,0.0,0.0,21.42862,43.20102,15.29797,8.6,-0.74,0.8,2.0
1758076110.15639,1758076110.11113,0.0,0.0,0.0,21.88699,43.37291,14.09476,7.97,-0.21,0.88,2.0
1758076110.17215,1758076110.12113,0.0,0.0,0.0,22.23076,42.1124,12.14671,7.97,-0.21,0.88,2.0
1758076110.17335,1758076110.13113,0.0,0.0,0.0,23.0329,40.27893,10.25595,7.52,0.21,0.96,2.0
1758076110.19004,1758076110.14113,0.0,0.0,0.0,24.29341,36.32552,7.50575,7.52,0.21,0.96,2.0
1758076110.19522,1758076110.15113,0.0,0.0,0.0,24.86637,33.34615,6.13065,7.4,0.4,0.82,2.0
1758076110.21185,1758076110.16113,0.0,0.0,0.0,25.15285,31.74186,4.52637,7.4,0.4,0.82,2.0
1758076110.21723,1758076110.17113,0.0,0.0,0.0,25.72581,31.39809,2.63561,7.82,0.35,0.76,2.0
1758076110.2325,1758076110.18113,0.0,0.0,0.0,26.24147,30.02299,1.77617,8.19,0.1,0.79,2.0
1758076110.23339,1758076110.19113,0.0,0.0,0.0,27.33009,26.87172,1.71887,8.19,0.1,0.79,2.0
1758076110.24899,1758076110.20113,0.0,0.0,0.0,29.50733,24.23611,2.29183,8.33,-0.3,0.75,2.0
1758076110.25057,1758076110.21113,0.0,0.0,0.0,32.83048,22.34536,3.89611,8.33,-0.3,0.75,2.0
1758076110.26937,1758076110.22113,0.0,0.0,0.0,34.89313,20.85567,4.52637,8.8,-0.8,0.38,2.0
1758076110.27019,1758076110.23113,0.0,0.0,0.0,37.24226,16.50119,4.87014,8.8,-0.8,0.38,2.0
1758076110.28604,1758076110.24113,0.0,0.0,0.0,40.27893,9.22462,5.32851,8.52,-1.22,0.64,2.0
1758076110.30408,1758076110.25113,0.0,0.0,0.0,45.26366,-3.66693,5.72958,8.42,-1.22,0.29,2.0
1758076110.30498,1758076110.26113,0.0,0.0,0.0,49.15978,-15.75634,6.7609,8.42,-1.49,0.29,2.0
1758076110.32047,1758076110.27113,0.0,0.0,0.0,52.08187,-32.83048,7.21927,8.24,-1.45,-0.1,2.0
1758076110.32219,1758076110.28113,0.0,0.0,0.0,53.74345,-47.95657,8.47978,8.24,-1.45,-0.1,2.0
1758076110.33819,1758076110.29113,0.0,0.0,0.0,58.49899,-39.4195,9.68299,9.73,-1.08,-0.29,2.0
1758076110.33936,1758076110.30113,0.0,0.0,0.0,63.13995,-23.37668,11.22997,9.73,-1.08,-0.29,2.0
1758076110.35457,1758076110.31113,0.0,0.0,0.0,66.69229,-3.49504,13.5791,12.82,-0.75,0.81,2.0
1758076110.37052,1758076110.32113,0.0,0.0,0.0,69.04142,12.60507,14.15206,12.82,-0.75,0.81,2.0
1758076110.37223,1758076110.33113,0.0,0.0,0.0,74.54182,-3.55234,12.54778,12.73,-0.22,1.58,2.0
1758076110.3871,1758076110.34113,0.0,0.0,0.0,79.35466,-32.48671,12.54778,8.22,-0.41,0.61,2.0
1758076110.39087,1758076110.35113,0.0,0.0,0.0,83.65184,-56.83742,17.24603,8.22,-0.41,0.61,2.0
1758076110.40948,1758076110.36113,0.0,0.0,0.0,86.74582,-56.952,21.94428,11.22,-1.2,-0.5,2.0
1758076110.41132,1758076110.37113,0.0,0.0,0.0,90.87111,-43.60209,23.0902,11.22,-1.2,-0.5,2.0
1758076110.42615,1758076110.38113,0.0,0.0,0.0,91.84514,-38.73195,24.23611,13.21,-1.19,1.32,2.0
1758076110.42893,1758076110.39113,0.0,0.0,0.0,91.15759,-43.83128,25.7831,13.21,-1.19,1.32,2.0
1758076110.44535,1758076110.40113,0.0,0.0,0.0,88.29281,-55.06125,32.54401,13.02,0.12,3.85,2.0
1758076110.46129,1758076110.41113,0.0,0.0,0.0,84.68317,-57.18119,37.75792,14.15,1.45,4.03,2.0
1758076110.46402,1758076110.42113,0.0,0.0,0.0,79.01089,-52.76942,41.88322,14.15,1.45,4.03,2.0
1758076110.47951,1758076110.43113,0.0,0.0,0.0,72.30728,-46.98254,45.89392,14.01,3.0,2.92,2.0
1758076110.48126,1758076110.44113,0.0,0.0,0.0,62.16592,-35.58068,48.8733,14.01,3.0,2.92,2.0
1758076110.4973,1758076110.45113,0.0,0.0,0.0,56.55093,-28.01764,47.44091,11.95,3.58,1.31,2.0
1758076110.49819,1758076110.46113,0.0,0.0,0.0,52.76942,-23.49127,43.77398,11.95,3.58,1.31,2.0
1758076110.51426,1758076110.47113,0.0,0.0,0.0,51.90998,-21.25674,38.84654,8.93,2.16,1.5,2.0
1758076110.53221,1758076110.48113,0.0,0.0,0.0,56.20716,-17.99088,30.82513,8.35,0.43,3.3,2.0
1758076110.535,1758076110.49113,0.0,0.0,0.0,62.91077,-14.66772,27.50197,8.35,0.43,3.3,2.0
1758076110.55222,1758076110.50113,0.0,0.0,0.0,70.58841,-8.36518,25.49662,10.06,-0.6,3.8,2.0
1758076110.555,1758076110.51113,0.0,0.0,0.0,78.03686,-1.60428,25.55392,10.06,-0.6,3.8,2.0
1758076110.5702,1758076110.52113,0.0,0.0,0.0,86.80311,9.05273,26.01229,11.25,-0.77,2.89,2.0
1758076110.57176,1758076110.53113,0.0,0.0,0.0,90.81382,15.0115,25.43933,11.25,-0.77,2.89,2.0
1758076110.58818,1758076110.54113,0.0,0.0,0.0,92.81918,21.60051,23.72045,11.14,-0.19,1.8,2.0
1758076110.59255,1758076110.55113,0.0,0.0,0.0,93.16295,29.39274,20.45459,11.14,-0.19,1.8,2.0
1758076110.60928,1758076110.56113,0.0,0.0,0.0,90.75652,39.70598,14.66772,11.06,0.88,1.2,2.0
1758076110.61121,1758076110.57113,0.0,0.0,0.0,87.71984,44.51882,9.85487,10.29,1.88,1.02,2.0
1758076110.62729,1758076110.58113,0.0,0.0,0.0,84.56858,48.35764,5.21392,10.29,1.88,1.02,2.0
1758076110.62906,1758076110.59113,0.0,0.0,0.0,79.35466,52.48294,-1.43239,9.53,2.26,1.13,2.0
1758076110.64525,1758076110.60113,0.0,0.0,0.0,75.80232,56.83742,-5.15662,9.53,2.26,1.13,2.0
1758076110.66446,1758076110.61113,0.0,0.0,0.0,72.19269,57.81144,-7.67763,8.74,2.28,1.4,2.0
1758076110.66561,1758076110.62113,0.0,0.0,0.0,68.75494,56.55093,-8.88085,8.74,2.28,1.4,2.0
1758076110.68158,1758076110.63113,0.0,0.0,0.0,63.65561,53.28508,-8.0787,8.1,2.16,1.57,2.0
1758076110.68402,1758076110.64113,0.0,0.0,0.0,60.38975,52.82671,-6.35983,8.13,1.99,1.52,2.0
1758076110.69929,1758076110.65113,0.0,0.0,0.0,57.0093,51.39432,-4.18259,8.13,1.99,1.52,2.0
1758076110.70044,1758076110.66113,0.0,0.0,0.0,53.62885,48.52953,-1.83346,7.92,1.74,1.43,2.0
1758076110.71521,1758076110.67113,0.0,0.0,0.0,48.07116,43.31561,1.43239,7.92,1.74,1.43,2.0
1758076110.71884,1758076110.68113,0.0,0.0,0.0,44.28964,40.85189,3.20856,7.87,1.49,1.31,2.0
1758076110.73429,1758076110.69113,0.0,0.0,0.0,41.02378,37.64333,4.81285,7.87,1.49,1.31,2.0
1758076110.75298,1758076110.70113,0.0,0.0,0.0,38.21629,33.34615,5.84417,7.87,1.33,1.11,2.0
1758076110.75386,1758076110.71113,0.0,0.0,0.0,34.49206,24.80907,7.62034,7.95,1.23,1.28,2.0
1758076110.76957,1758076110.72113,0.0,0.0,0.0,31.74186,19.88164,7.79223,7.95,1.23,1.28,2.0
1758076110.77528,1758076110.73113,0.0,0.0,0.0,28.24682,16.67307,6.47442,8.42,1.32,1.42,2.0
1758076110.77857,1758076110.74113,0.0,0.0,0.0,24.5226,16.10011,5.4431,8.42,1.32,1.42,2.0
1758076110.7943,1758076110.75113,0.0,0.0,0.0,18.62113,17.24603,3.89611,9.13,1.59,1.42,2.0
1758076110.81032,1758076110.76113,0.0,0.0,0.0,14.61043,17.36062,2.97938,9.13,1.59,1.42,2.0
1758076110.81256,1758076110.77113,0.0,0.0,0.0,10.37054,15.58445,2.11994,9.18,1.95,1.45,2.0
1758076110.82727,1758076110.78113,0.0,0.0,0.0,6.18794,12.2613,2.11994,9.18,1.95,1.45,2.0
1758076110.82879,1758076110.79113,0.0,0.0,0.0,0.0573,4.0107,2.7502,8.72,2.15,1.12,2.0
1758076110.84456,1758076110.80113,0.0,0.0,0.0,-3.66693,-6.18794,4.18259,7.96,2.04,0.65,2.0
1758076110.84979,1758076110.81113,0.0,0.0,0.0,-6.70361,-16.84496,6.7609,7.96,2.04,0.65,2.0
1758076110.86927,1758076110.82113,0.0,0.0,0.0,-9.39651,-32.83048,11.80293,7.72,1.38,0.11,2.0
1758076110.8713,1758076110.83113,0.0,0.0,0.0,-10.8289,-41.59674,15.0115,7.72,1.38,0.11,2.0
1758076110.88734,1758076110.84113,0.0,0.0,0.0,-13.34992,-36.95578,17.6471,8.79,0.9,0.33,2.0
1758076110.88912,1758076110.85113,0.0,0.0,0.0,-16.55848,-9.68299,16.73037,8.79,0.9,0.33,2.0
1758076110.90934,1758076110.86113,0.0,0.0,0.0,-20.62648,-27.1582,14.61043,12.88,1.3,0.81,2.0
1758076110.91455,1758076110.87113,0.0,0.0,0.0,-26.12688,-46.1231,9.68299,9.58,1.75,1.6,2.0
1758076110.92933,1758076110.88113,0.0,0.0,0.0,-28.24682,-55.51962,5.15662,9.58,1.75,1.6,2.0
1758076110.93131,1758076110.89113,0.0,0.0,0.0,-29.73651,-57.0093,-1.08862,11.8,1.56,1.3,2.0
1758076110.94659,1758076110.90113,0.0,0.0,0.0,-30.93972,-43.88857,-6.58902,11.8,1.56,1.3,2.0
1758076110.95074,1758076110.91113,0.0,0.0,0.0,-29.62192,-39.24761,-8.99544,12.91,1.61,1.79,2.0
1758076110.96667,1758076110.92113,0.0,0.0,0.0,-26.01229,-37.98711,-10.65701,12.91,1.61,1.79,2.0
1758076110.9691,1758076110.93113,0.0,0.0,0.0,-20.16812,-39.87786,-12.77696,13.23,0.84,3.77,2.0
1758076110.98963,1758076110.94113,0.0,0.0,0.0,-9.5684,-42.22699,-17.6471,14.55,-0.68,4.87,2.0
1758076110.99054,1758076110.95113,0.0,0.0,0.0,-3.32316,-37.64333,-21.02755,14.55,-0.68,4.87,2.0
1758076111.00694,1758076110.96113,0.0,0.0,0.0,2.97938,-31.45539,-22.86102,14.3,-1.91,2.64,2.0
1758076111.00889,1758076110.97113,0.0,0.0,0.0,8.0787,-25.72581,-23.26209,14.3,-1.91,2.64,2.0
1758076111.02438,1758076110.98113,0.0,0.0,0.0,11.74564,-17.93358,-20.85567,11.14,-1.49,1.28,2.0
1758076111.02985,1758076110.99113,0.0,0.0,0.0,11.57375,-14.20935,-18.22006,11.14,-1.49,1.28,2.0
1758076111.04922,1758076111.00113,0.0,0.0,0.0,9.4538,-13.5791,-17.6471,8.81,-0.05,1.5,2.0
1758076111.07147,1758076111.01113,0.0,0.0,0.0,1.83346,-11.57375,-17.58981,8.81,-0.05,1.5,2.0
1758076111.07427,1758076111.02113,0.0,0.0,0.0,-5.50039,-13.00614,-17.53251,7.87,1.03,3.06,2.0
1758076111.11464,1758076111.03113,0.0,0.0,0.0,-13.75099,-15.46986,-17.76169,7.29,1.84,4.0,2.0
1758076111.11996,1758076111.04113,0.0,0.0,0.0,-22.00158,-17.30333,-17.81899,7.29,1.84,4.0,2.0
1758076111.2132,1758076111.05113,0.0,0.0,0.0,-31.39809,-19.19409,-17.18874,8.06,2.07,4.07,2.0
1758076111.21842,1758076111.06113,0.0,0.0,0.0,-34.77854,-18.22006,-16.10011,8.06,2.07,4.07,2.0
1758076111.21959,1758076111.07113,0.0,0.0,0.0,-35.3515,-13.5218,-14.43854,9.76,1.32,3.42,2.0
1758076111.22425,1758076111.08113,0.0,0.0,0.0,-33.63263,-6.70361,-12.49048,9.76,1.32,3.42,2.0
1758076111.22959,1758076111.09113,0.0,0.0,0.0,-27.78845,3.89611,-8.88085,11.28,0.07,2.32,2.0
1758076111.23324,1758076111.10113,0.0,0.0,0.0,-22.57454,9.4538,-6.07335,11.02,-1.01,1.6,2.0
1758076111.23399,1758076111.11113,0.0,0.0,0.0,-17.18874,13.23533,-3.09397,11.02,-1.01,1.6,2.0
1758076111.23826,1758076111.12113,0.0,0.0,0.0,-11.51645,15.69904,-0.0573,10.19,-1.63,1.52,2.0
1758076111.2405,1758076111.13113,0.0,0.0,0.0,-3.38045,20.62648,4.46907,10.19,-1.63,1.52,2.0
1758076111.24408,1758076111.14113,0.0,0.0,0.0,1.3751,23.37668,7.67763,10.3,-1.87,1.41,2.0
1758076111.24481,1758076111.15113,0.0,0.0,0.0,4.87014,27.50197,10.8289,10.3,-1.87,1.41,2.0
1758076111.24837,1758076111.16113,0.0,0.0,0.0,7.73493,30.99702,13.69369,10.56,-1.71,1.15,2.0
1758076111.24903,1758076111.17113,0.0,0.0,0.0,10.94349,36.32552,16.61578,10.17,-1.16,0.91,2.0
1758076111.25265,1758076111.18113,0.0,0.0,0.0,12.49048,38.61736,17.24603,10.17,-1.16,0.91,2.0
1758076111.25326,1758076111.19113,0.0,0.0,0.0,13.69369,39.99245,17.01685,9.32,-0.49,0.83,2.0
1758076111.25452,1758076111.20113,0.0,0.0,0.0,14.15206,40.33623,14.83961,9.32,-0.49,0.83,2.0
1758076111.25833,1758076111.21113,0.0,0.0,0.0,13.98017,38.44547,12.83425,8.41,0.06,1.01,2.0
1758076111.26515,1758076111.22113,0.0,0.0,0.0,13.5218,35.98175,10.25595,8.41,0.06,1.01,2.0
1758076111.2814,1758076111.23113,0.0,0.0,0.0,13.00614,33.34615,7.67763,7.75,0.31,1.27,2.0
1758076111.28343,1758076111.24113,0.0,0.0,0.0,12.89155,28.99167,5.09932,7.75,0.31,1.27,2.0
1758076111.29855,1758076111.25113,0.0,0.0,0.0,13.12073,26.35606,3.66693,7.67,0.19,1.42,2.0
1758076111.29955,1758076111.26113,0.0,0.0,0.0,13.86558,24.4653,3.03668,7.89,-0.16,1.36,2.0
1758076111.3146,1758076111.27113,0.0,0.0,0.0,15.0115,22.57454,2.63561,7.89,-0.16,1.36,2.0
1758076111.33239,1758076111.28113,0.0,0.0,0.0,17.76169,21.14215,3.49504,8.23,-0.53,1.39,2.0
1758076111.33868,1758076111.29113,0.0,0.0,0.0,20.74107,22.91831,4.69825,8.23,-0.53,1.39,2.0
1758076111.33983,1758076111.30113,0.0,0.0,0.0,24.23611,24.86637,5.95876,8.64,-0.94,1.22,2.0
1758076111.36134,1758076111.31113,0.0,0.0,0.0,27.84575,25.15285,7.04738,8.64,-0.94,1.22,2.0
1758076111.36657,1758076111.32113,0.0,0.0,0.0,33.23156,21.7724,7.62034,8.57,-1.25,1.12,2.0
1758076111.38403,1758076111.33113,0.0,0.0,0.0,37.35685,18.10547,7.39116,8.43,-1.42,1.0,2.0
1758076111.38992,1758076111.34113,0.0,0.0,0.0,41.42485,13.17803,6.8182,8.43,-1.42,1.0,2.0
1758076111.39945,1758076111.35113,0.0,0.0,0.0,45.89392,6.87549,5.90147,8.39,-1.54,0.47,2.0
1758076111.40147,1758076111.36113,0.0,0.0,0.0,52.36834,-7.33386,4.98473,8.39,-1.54,0.47,2.0
1758076111.41902,1758076111.37113,0.0,0.0,0.0,55.97798,-22.28806,4.0107,8.17,-1.59,0.1,2.0
1758076111.42116,1758076111.38113,0.0,0.0,0.0,58.78547,-36.6693,3.49504,8.17,-1.59,0.1,2.0
1758076111.43739,1758076111.39113,0.0,0.0,0.0,63.42643,-38.50277,2.23454,8.66,-1.36,-0.22,2.0
1758076111.4431,1758076111.40113,0.0,0.0,0.0,70.81759,-16.95955,3.38045,12.42,-0.98,0.28,2.0
1758076111.45939,1758076111.41113,0.0,0.0,0.0,75.40125,4.58366,3.60963,12.42,-0.98,0.28,2.0
1758076111.46381,1758076111.42113,0.0,0.0,0.0,78.15145,19.76705,2.34913,13.5,-0.49,1.23,2.0
1758076111.48048,1758076111.43113,0.0,0.0,0.0,84.39669,-15.98552,0.80214,13.5,-0.49,1.23,2.0
1758076111.4842,1758076111.44113,0.0,0.0,0.0,89.95438,-50.59217,-2.97938,8.94,0.08,0.82,2.0
1758076111.49938,1758076111.45113,0.0,0.0,0.0,95.85584,-72.99483,6.47442,8.94,0.08,0.82,2.0
1758076111.50095,1758076111.46113,0.0,0.0,0.0,95.79855,-65.83286,8.59437,11.16,-0.41,-1.12,2.0
1758076111.5173,1758076111.47113,0.0,0.0,0.0,97.6893,-43.4875,12.54778,11.16,-0.41,-1.12,2.0
1758076111.5335,1758076111.48113,0.0,0.0,0.0,97.05905,-36.21093,15.64175,13.49,-0.49,0.29,2.0
1758076111.53469,1758076111.49113,0.0,0.0,0.0,93.44942,-35.06502,18.62113,12.59,0.15,2.13,2.0
1758076111.54966,1758076111.50113,0.0,0.0,0.0,87.37608,-37.29956,22.97561,12.59,0.15,2.13,2.0
1758076111.55495,1758076111.51113,0.0,0.0,0.0,76.89094,-45.43555,32.77319,13.38,1.53,3.63,2.0
1758076111.56942,1758076111.52113,0.0,0.0,0.0,69.67168,-46.00851,40.33623,13.38,1.53,3.63,2.0
1758076111.57462,1758076111.53113,0.0,0.0,0.0,60.96271,-42.68536,46.1804,13.84,2.77,2.4,2.0
1758076111.5897,1758076111.54113,0.0,0.0,0.0,52.13916,-39.76327,50.64947,13.84,2.77,2.4,2.0
1758076111.61985,1758076111.55113,0.0,0.0,0.0,40.68,-33.80451,53.05589,12.0,3.17,2.32,2.0
1758076111.62023,1758076111.56113,0.0,0.0,0.0,34.43476,-26.06958,51.16513,9.25,2.18,1.81,2.0
1758076111.62618,1758076111.57113,0.0,0.0,0.0,29.96569,-19.59516,47.26902,9.25,2.18,1.81,2.0
1758076111.62677,1758076111.58113,0.0,0.0,0.0,27.96034,-15.24068,41.71133,7.12,0.61,3.21,2.0
1758076111.63839,1758076111.59113,0.0,0.0,0.0,30.59595,-13.23533,32.54401,7.12,0.61,3.21,2.0
1758076111.64016,1758076111.60113,0.0,0.0,0.0,35.69527,-12.60507,27.10091,7.29,-0.45,4.95,2.0
1758076111.68851,1758076111.61113,0.0,0.0,0.0,41.59674,-8.93814,22.86102,7.29,-0.45,4.95,2.0
1758076111.68947,1758076111.62113,0.0,0.0,0.0,49.04519,-4.58366,17.76169,10.28,-0.79,4.79,2.0
1758076111.69099,1758076111.63113,0.0,0.0,0.0,51.73809,4.18259,15.0115,12.29,-0.42,3.42,2.0
1758076111.69451,1758076111.64113,0.0,0.0,0.0,52.02457,12.14671,12.54778,12.29,-0.42,3.42,2.0
1758076111.69922,1758076111.65113,0.0,0.0,0.0,50.76406,20.74107,10.31324,12.53,0.38,2.25,2.0
1758076111.70458,1758076111.66113,0.0,0.0,0.0,46.69606,31.62727,7.39116,12.53,0.38,2.25,2.0
1758076111.71972,1758076111.67113,0.0,0.0,0.0,43.37291,36.84119,5.50039,11.29,1.14,1.86,2.0
1758076111.72065,1758076111.68113,0.0,0.0,0.0,39.24761,41.88322,2.7502,11.29,1.14,1.86,2.0
1758076111.83951,1758076111.69113,0.0,0.0,0.0,35.69527,45.43555,-0.11459,9.99,1.4,1.84,2.0
1758076111.9046,1758076111.70113,0.0,0.0,0.0,30.88243,49.50356,-5.32851,9.32,1.4,1.89,2.0
1758076111.90523,1758076111.71113,0.0,0.0,0.0,27.78845,52.25375,-9.05273,9.32,1.38,1.89,2.0
1758076111.90972,1758076111.72113,0.0,0.0,0.0,25.21014,54.08722,-12.37589,9.05,1.4,1.94,2.0
1758076111.913,1758076111.73113,0.0,0.0,0.0,22.57454,53.91533,-15.06879,9.05,1.4,1.94,2.0
1758076111.91389,1758076111.74113,0.0,0.0,0.0,19.07949,52.25375,-17.01685,8.63,1.38,1.91,2.0
1758076111.91449,1758076111.75113,0.0,0.0,0.0,16.61578,49.84733,-16.90226,8.63,1.38,1.91,2.0
1758076111.91862,1758076111.76113,0.0,0.0,0.0,14.03747,45.89392,-15.58445,8.24,1.24,1.82,2.0
1758076111.922,1758076111.77113,0.0,0.0,0.0,11.22997,42.91454,-13.86558,8.24,1.24,1.82,2.0
1758076111.92395,1758076111.78113,0.0,0.0,0.0,6.58902,39.07573,-10.8862,8.02,1.05,1.79,2.0
1758076111.92463,1758076111.79113,0.0,0.0,0.0,3.72423,35.3515,-9.05273,7.86,0.95,1.66,2.0
1758076111.92896,1758076111.80113,0.0,0.0,0.0,1.20321,30.53865,-7.79223,7.86,0.95,1.66,2.0
1758076111.9297,1758076111.81113,0.0,0.0,0.0,-0.68755,24.5226,-6.24524,7.72,0.91,1.56,2.0
1758076111.93372,1758076111.82113,0.0,0.0,0.0,-4.18259,18.79302,-5.27121,7.72,0.91,1.56,2.0
1758076111.93476,1758076111.83113,0.0,0.0,0.0,-6.53172,14.32395,-5.72958,7.9,0.93,1.6,2.0
1758076111.93969,1758076111.84113,0.0,0.0,0.0,-9.22462,12.14671,-6.13065,7.9,0.93,1.6,2.0
1758076111.94061,1758076111.85113,0.0,0.0,0.0,-12.83425,14.32395,-7.16197,8.09,1.05,1.35,2.0
1758076111.94464,1758076111.86113,0.0,0.0,0.0,-15.06879,15.87093,-7.50575,8.66,1.22,1.49,2.0
1758076111.94886,1758076111.87113,0.0,0.0,0.0,-17.30333,14.61043,-7.79223,8.66,1.22,1.49,2.0
1758076111.94948,1758076111.88113,0.0,0.0,0.0,-19.59516,10.31324,-7.79223,8.36,1.37,1.42,2.0
1758076111.95389,1758076111.89113,0.0,0.0,0.0,-23.31938,-0.34377,-7.44845,8.36,1.37,1.42,2.0
1758076111.95452,1758076111.90113,0.0,0.0,0.0,-25.7831,-10.71431,-6.70361,7.96,1.42,0.8,2.0
1758076111.96019,1758076111.91113,0.0,0.0,0.0,-27.73116,-22.00158,-6.13065,7.96,1.42,0.8,2.0
1758076111.99018,1758076111.92113,0.0,0.0,0.0,-29.22085,-33.23156,-4.98473,7.6,1.14,0.08,2.0
1758076111.99139,1758076111.93113,0.0,0.0,0.0,-32.48671,-47.49821,-2.86479,8.01,0.75,-0.1,2.0
1758076111.99919,1758076111.94113,0.0,0.0,0.0,-34.77854,-44.23235,-1.60428,8.01,0.75,-0.1,2.0
1758076112.00048,1758076111.95113,0.0,0.0,0.0,-38.1017,-17.24603,-2.46372,11.61,0.54,0.58,2.0
1758076112.00457,1758076111.96113,0.0,0.0,0.0,-37.18496,-1.83346,2.46372,11.61,0.54,0.58,2.0
1758076112.0093,1758076111.97113,0.0,0.0,0.0,-44.9199,-40.45082,-4.92744,9.58,0.77,1.43,2.0
1758076112.02658,1758076111.98113,0.0,0.0,0.0,-46.86795,-50.93595,-7.44845,9.58,0.77,1.43,2.0
1758076112.0291,1758076111.99113,0.0,0.0,0.0,-49.15978,-50.01921,-9.62569,10.5,1.04,0.42,2.0
1758076112.04459,1758076112.00113,0.0,0.0,0.0,-51.22243,-44.40423,-11.17268,10.5,1.04,0.42,2.0
1758076112.13972,1758076112.01113,0.0,0.0,0.0,-51.27972,-34.95043,-10.37054,12.31,1.08,0.55,2.0
1758076112.16764,1758076112.02113,0.0,0.0,0.0,-49.90463,-30.59595,-8.76626,12.24,0.96,0.78,2.0
1758076112.16847,1758076112.03113,0.0,0.0,0.0,-47.15443,-26.12688,-7.16197,12.24,0.96,0.78,2.0
1758076112.1691,1758076112.04113,0.0,0.0,0.0,-40.04975,-23.60586,-6.18794,12.36,0.16,2.09,2.0
1758076112.17111,1758076112.05113,0.0,0.0,0.0,-33.51803,-28.24682,-8.02141,12.36,0.16,2.09,2.0
1758076112.17259,1758076112.06113,0.0,0.0,0.0,-25.72581,-37.75792,-11.91752,12.28,-1.06,3.28,2.0
1758076112.17383,1758076112.07113,0.0,0.0,0.0,-18.73572,-49.04519,-17.76169,12.28,-1.06,3.28,2.0
1758076112.17445,1758076112.08113,0.0,0.0,0.0,-10.02676,-61.76485,-28.30412,11.43,-1.79,3.73,2.0
1758076112.17968,1758076112.09113,0.0,0.0,0.0,-6.13065,-60.79083,-34.66395,11.76,-2.03,3.24,2.0
1758076112.18436,1758076112.10113,0.0,0.0,0.0,-3.66693,-55.11855,-39.07573,11.76,-2.03,3.24,2.0
1758076112.18506,1758076112.11113,0.0,0.0,0.0,-3.09397,-49.67545,-40.68,11.26,-1.54,3.24,2.0
1758076112.18653,1758076112.12113,0.0,0.0,0.0,-4.69825,-48.30034,-41.25296,11.26,-1.54,3.24,2.0
1758076112.18691,1758076112.13113,0.0,0.0,0.0,-8.02141,-45.26366,-40.50812,9.47,-0.18,3.93,2.0
1758076112.18988,1758076112.14113,0.0,0.0,0.0,-13.5218,-40.45082,-39.13302,9.47,-0.18,3.93,2.0
1758076112.19039,1758076112.15113,0.0,0.0,0.0,-20.74107,-36.21093,-36.38282,9.31,1.08,4.08,2.0
1758076112.19956,1758076112.16113,0.0,0.0,0.0,-32.77319,-30.13758,-30.65324,9.94,1.88,3.64,2.0
1758076112.2149,1758076112.17113,0.0,0.0,0.0,-39.4195,-26.41335,-25.49662,9.94,1.88,3.64,2.0
1758076112.21974,1758076112.18113,0.0,0.0,0.0,-43.77398,-21.02755,-19.48057,11.5,1.87,2.6,2.0
1758076112.23856,1758076112.19113,0.0,0.0,0.0,-45.77933,-12.83425,-13.40721,11.5,1.87,2.6,2.0
1758076112.23983,1758076112.20113,0.0,0.0,0.0,-44.63341,1.43239,-5.84417,12.59,0.92,1.36,2.0
1758076112.25488,1758076112.21113,0.0,0.0,0.0,-41.99781,9.85487,-2.06265,12.59,0.92,1.36,2.0
1758076112.25896,1758076112.22113,0.0,0.0,0.0,-38.73195,17.36062,0.22918,11.78,-0.39,1.09,2.0
1758076112.27461,1758076112.23113,0.0,0.0,0.0,-35.06502,23.0329,2.40642,11.78,-0.39,1.09,2.0
1758076112.279,1758076112.24113,0.0,0.0,0.0,-29.27814,31.28349,4.81285,10.48,-1.34,1.01,2.0
1758076112.29465,1758076112.25113,0.0,0.0,0.0,-25.8404,35.2369,6.70361,9.68,-1.72,0.9,2.0
1758076112.29903,1758076112.26113,0.0,0.0,0.0,-23.0902,38.27358,8.25059,9.68,-1.72,0.9,2.0
1758076112.31485,1758076112.27113,0.0,0.0,0.0,-19.48057,42.97184,10.31324,9.35,-1.65,0.9,2.0
1758076112.32018,1758076112.28113,0.0,0.0,0.0,-17.30333,45.43555,11.57375,9.35,-1.65,0.9,2.0
1758076112.33823,1758076112.29113,0.0,0.0,0.0,-15.75634,47.61279,12.08941,9.11,-1.38,0.8,2.0
1758076112.33977,1758076112.30113,0.0,0.0,0.0,-14.15206,49.21708,12.08941,9.11,-1.38,0.8,2.0
1758076112.35462,1758076112.31113,0.0,0.0,0.0,-11.45916,51.73809,11.11538,8.66,-1.03,0.86,2.0
1758076112.35983,1758076112.32113,0.0,0.0,0.0,-8.93814,52.02457,10.25595,8.27,-0.72,1.03,2.0
1758076112.37738,1758076112.33113,0.0,0.0,0.0,-6.07335,48.41494,9.28192,8.27,-0.72,1.03,2.0
1758076112.37935,1758076112.34113,0.0,0.0,0.0,-3.32316,42.74266,8.30789,7.5,-0.62,0.95,2.0
1758076112.39456,1758076112.35113,0.0,0.0,0.0,0.45837,34.60666,7.21927,7.5,-0.62,0.95,2.0
1758076112.39892,1758076112.36113,0.0,0.0,0.0,3.20856,31.16891,7.67763,7.6,-0.72,0.73,2.0
1758076112.4149,1758076112.37113,0.0,0.0,0.0,6.07335,27.67386,8.47978,7.6,-0.72,0.73,2.0
1758076112.41985,1758076112.38113,0.0,0.0,0.0,8.99544,24.00693,9.5684,7.82,-0.87,0.57,2.0
1758076112.43893,1758076112.39113,0.0,0.0,0.0,13.23533,22.34536,10.59972,8.16,-1.01,0.49,2.0
1758076112.44012,1758076112.40113,0.0,0.0,0.0,15.92823,22.74642,10.59972,8.16,-1.01,0.49,2.0
1758076112.45459,1758076112.41113,0.0,0.0,0.0,18.56383,21.6578,9.85487,8.44,-1.1,0.54,2.0
1758076112.46023,1758076112.42113,0.0,0.0,0.0,20.85567,20.3973,8.136,8.44,-1.1,0.54,2.0
1758076112.47897,1758076112.43113,0.0,0.0,0.0,24.29341,15.41257,5.27121,8.35,-1.18,0.59,2.0
1758076112.48019,1758076112.44113,0.0,0.0,0.0,26.47065,9.05273,3.26586,8.35,-1.18,0.59,2.0
1758076112.54082,1758076112.45113,0.0,0.0,0.0,28.13223,-2.00535,0.85944,7.78,-1.26,0.19,2.0
1758076112.54522,1758076112.46113,0.0,0.0,0.0,29.10626,-16.21471,-4.1253,7.78,-1.26,0.19,2.0
1758076112.54563,1758076112.47113,0.0,0.0,0.0,29.62192,-16.04282,-8.76626,7.03,-1.09,-0.39,2.0
1758076112.54946,1758076112.48113,0.0,0.0,0.0,32.48671,-0.57296,-6.07335,10.43,-1.1,-0.4,2.0
1758076112.54991,1758076112.49113,0.0,0.0,0.0,35.00772,22.57454,-6.7609,10.43,-1.1,-0.4,2.0
1758076112.55344,1758076112.50113,0.0,0.0,0.0,35.00772,35.2942,-13.86558,11.83,-1.11,1.03,2.0
1758076112.55449,1758076112.51113,0.0,0.0,0.0,37.18496,-11.74564,-10.48513,11.83,-1.11,1.03,2.0
1758076112.56965,1758076112.52113,0.0,0.0,0.0,43.54479,-55.86338,-8.59437,6.81,-0.71,1.36,2.0
1758076112.5748,1758076112.53113,0.0,0.0,0.0,48.75871,-70.87489,1.77617,6.81,-0.71,1.36,2.0
1758076112.57786,1758076112.54113,0.0,0.0,0.0,51.39432,-50.3057,6.18794,12.15,-0.99,-0.24,2.0
1758076112.62013,1758076112.55113,0.0,0.0,0.0,54.25911,-35.63798,8.88085,14.47,-0.5,0.62,2.0
1758076112.62172,1758076112.56113,0.0,0.0,0.0,56.83742,-32.20023,9.11003,14.47,-0.5,0.62,2.0
1758076112.62513,1758076112.57113,0.0,0.0,0.0,58.26981,-31.85646,8.36518,12.23,-0.33,0.44,2.0
1758076112.62596,1758076112.58113,0.0,0.0,0.0,55.97798,-24.12152,3.03668,12.23,-0.33,0.44,2.0
1758076112.62933,1758076112.59113,0.0,0.0,0.0,53.11319,-19.99623,-0.68755,12.33,-0.16,1.22,2.0
1758076112.64568,1758076112.60113,0.0,0.0,0.0,48.58683,-18.50654,-3.66693,12.33,-0.16,1.22,2.0
1758076112.65492,1758076112.61113,0.0,0.0,0.0,43.02913,-19.13679,-4.0107,12.82,0.62,2.13,2.0
1758076112.67863,1758076112.62113,0.0,0.0,0.0,35.12231,-26.69983,3.66693,14.27,1.38,4.22,2.0
1758076112.679,1758076112.63113,0.0,0.0,0.0,31.11161,-31.39809,14.15206,14.27,1.38,4.22,2.0
1758076112.68024,1758076112.64113,0.0,0.0,0.0,27.33009,-30.36677,24.75178,14.44,1.91,2.36,2.0
1758076112.69759,1758076112.65113,0.0,0.0,0.0,24.00693,-25.7831,38.44547,14.44,1.91,2.36,2.0
1758076112.69874,1758076112.66113,0.0,0.0,0.0,20.97026,-17.93358,43.88857,12.43,2.06,1.8,2.0
1758076112.71728,1758076112.67113,0.0,0.0,0.0,19.70975,-12.54778,45.72203,12.43,2.06,1.8,2.0
1758076112.71925,1758076112.68113,0.0,0.0,0.0,18.56383,-8.36518,44.748,9.43,1.18,1.69,2.0
1758076112.73498,1758076112.69113,0.0,0.0,0.0,18.27736,-3.26586,39.01843,9.43,1.18,1.69,2.0
1758076112.74014,1758076112.70113,0.0,0.0,0.0,19.25138,-2.06265,33.23156,7.73,0.01,2.98,2.0
1758076112.75856,1758076112.71113,0.0,0.0,0.0,22.00158,-2.46372,28.07493,7.44,-0.75,4.18,2.0
1758076112.7598,1758076112.72113,0.0,0.0,0.0,25.8404,-1.20321,24.12152,7.44,-0.75,4.18,2.0
1758076112.77499,1758076112.73113,0.0,0.0,0.0,32.20023,4.0107,20.11082,9.0,-0.84,4.55,2.0
1758076112.77905,1758076112.74113,0.0,0.0,0.0,36.21093,7.39116,18.44924,9.0,-0.84,4.55,2.0
1758076112.79893,1758076112.75113,0.0,0.0,0.0,39.07573,10.02676,17.93358,10.11,-0.3,3.82,2.0
1758076112.79979,1758076112.76113,0.0,0.0,0.0,40.68,13.34992,17.6471,10.11,-0.3,3.82,2.0
1758076112.84707,1758076112.77113,0.0,0.0,0.0,39.64868,19.99623,16.67307,10.4,0.37,2.93,2.0
1758076112.85965,1758076112.78113,0.0,0.0,0.0,36.95578,24.98096,15.24068,10.43,1.04,2.17,2.0
1758076112.90425,1758076112.79113,0.0,0.0,0.0,33.40344,29.9084,13.17803,10.43,1.04,2.17,2.0
1758076112.90592,1758076112.80113,0.0,0.0,0.0,29.10626,36.21093,9.96947,10.07,1.42,2.04,2.0
1758076112.90934,1758076112.81113,0.0,0.0,0.0,22.34536,40.16434,4.35448,10.07,1.42,2.04,2.0
1758076112.91296,1758076112.82113,0.0,0.0,0.0,17.18874,42.34158,-0.34377,9.01,1.56,1.91,2.0
1758076112.91333,1758076112.83113,0.0,0.0,0.0,12.54778,44.46153,-4.35448,9.01,1.56,1.91,2.0
1758076112.91485,1758076112.84113,0.0,0.0,0.0,7.79223,46.81066,-9.85487,8.93,1.63,1.74,2.0
1758076112.91912,1758076112.85113,0.0,0.0,0.0,1.3751,48.30034,-15.98552,8.93,1.78,1.68,2.0
1758076112.91988,1758076112.86113,0.0,0.0,0.0,-2.11994,49.15978,-19.13679,8.93,1.78,1.68,2.0
1758076112.92575,1758076112.87113,0.0,0.0,0.0,-5.50039,50.87865,-21.48592,9.16,1.62,1.61,2.0
1758076112.92774,1758076112.88113,0.0,0.0,0.0,-9.33921,51.39432,-23.20479,9.16,1.62,1.61,2.0
1758076112.92922,1758076112.89113,0.0,0.0,0.0,-11.80293,50.13381,-23.26209,9.02,1.23,1.6,2.0
1758076112.94492,1758076112.90113,0.0,0.0,0.0,-13.34992,46.2377,-22.00158,9.02,1.23,1.6,2.0
1758076112.94862,1758076112.91113,0.0,0.0,0.0,-14.72501,40.68,-19.99623,8.46,0.74,1.5,2.0
1758076112.96399,1758076112.92113,0.0,0.0,0.0,-16.21471,31.74186,-15.41257,8.46,0.74,1.5,2.0
1758076112.97966,1758076112.93113,0.0,0.0,0.0,-17.13144,26.87172,-12.37589,8.31,0.43,1.39,2.0
1758076112.98485,1758076112.94113,0.0,0.0,0.0,-17.93358,21.60051,-9.74028,8.34,0.29,1.33,2.0
1758076112.99996,1758076112.95113,0.0,0.0,0.0,-18.73572,16.3293,-8.25059,8.34,0.29,1.33,2.0
1758076113.00573,1758076112.96113,0.0,0.0,0.0,-19.88164,10.31324,-7.67763,8.21,0.39,1.47,2.0
1758076113.02332,1758076112.97113,0.0,0.0,0.0,-20.45459,8.136,-7.73493,8.21,0.39,1.47,2.0
1758076113.02854,1758076112.98113,0.0,0.0,0.0,-21.02755,4.92744,-7.79223,8.31,0.55,1.47,2.0
1758076113.02965,1758076112.99113,0.0,0.0,0.0,-21.14215,-1.14592,-7.16197,8.31,0.55,1.47,2.0
1758076113.04927,1758076113.00113,0.0,0.0,0.0,-22.00158,-11.57375,-5.55769,7.88,0.71,1.27,2.0
1758076113.053,1758076113.01113,0.0,0.0,0.0,-22.86102,-18.50654,-4.64096,7.71,0.69,0.92,2.0
1758076113.0688,1758076113.02113,0.0,0.0,0.0,-24.12152,-24.80907,-2.46372,7.71,0.69,0.92,2.0
1758076113.11939,1758076113.03113,0.0,0.0,0.0,-26.18417,-29.96569,-1.48969,7.93,0.89,0.52,2.0
1758076113.11993,1758076113.04113,0.0,0.0,0.0,-29.27814,-20.51189,-1.03132,7.93,0.89,0.52,2.0
1758076113.12464,1758076113.05113,0.0,0.0,0.0,-33.74722,2.06265,-2.00535,9.93,1.19,0.64,2.0
1758076113.12902,1758076113.06113,0.0,0.0,0.0,-36.61201,19.82434,-1.20321,9.93,1.19,0.64,2.0
1758076113.13933,1758076113.07113,0.0,0.0,0.0,-37.29956,-8.25059,-4.0107,9.84,1.29,1.08,2.0
1758076113.13974,1758076113.08113,0.0,0.0,0.0,-46.35228,-30.25217,-5.15662,7.89,1.18,0.74,2.0
1758076113.14885,1758076113.09113,0.0,0.0,0.0,-48.58683,-34.66395,-5.55769,7.89,1.18,0.74,2.0
1758076113.14948,1758076113.10113,0.0,0.0,0.0,-51.5662,-35.86716,-7.73493,10.17,0.56,0.33,2.0
1758076113.19985,1758076113.11113,0.0,0.0,0.0,-51.90998,-29.04896,-5.27121,10.17,0.56,0.33,2.0
1758076113.22566,1758076113.12113,0.0,0.0,0.0,-51.45161,-25.26744,-2.34913,11.36,-0.1,1.23,2.0
1758076113.22635,1758076113.13113,0.0,0.0,0.0,-50.76406,-24.12152,0.97403,11.36,-0.1,1.23,2.0
1758076113.22906,1758076113.14113,0.0,0.0,0.0,-48.9306,-23.0329,4.0107,11.63,-0.3,1.04,2.0
1758076113.23405,1758076113.15113,0.0,0.0,0.0,-44.86259,-24.5226,6.47442,11.63,-0.3,1.66,2.0
1758076113.26659,1758076113.16113,0.0,0.0,0.0,-41.08107,-24.98096,5.95876,11.72,-0.42,1.66,2.0
1758076113.26901,1758076113.17113,0.0,0.0,0.0,-35.75257,-25.49662,2.92208,12.54,-0.67,2.72,2.0
1758076113.26964,1758076113.18113,0.0,0.0,0.0,-29.62192,-31.16891,-3.49504,12.54,-0.67,2.72,2.0
1758076113.27429,1758076113.19113,0.0,0.0,0.0,-18.16276,-48.9879,-17.30333,13.03,-1.29,4.45,2.0
1758076113.27946,1758076113.20113,0.0,0.0,0.0,-11.17268,-57.41038,-27.44468,13.03,-1.29,4.45,2.0
1758076113.2801,1758076113.21113,0.0,0.0,0.0,-5.50039,-57.92604,-35.12231,13.77,-1.69,4.28,2.0
1758076113.28862,1758076113.22113,0.0,0.0,0.0,-1.77617,-53.17049,-39.13302,13.77,-1.69,4.28,2.0
1758076113.29076,1758076113.23113,0.0,0.0,0.0,-0.17189,-43.37291,-38.50277,13.22,-1.38,2.61,2.0
1758076113.29281,1758076113.24113,0.0,0.0,0.0,-1.83346,-37.64333,-34.95043,10.49,0.03,2.14,2.0
1758076113.2945,1758076113.25113,0.0,0.0,0.0,-5.09932,-35.98175,-31.51268,10.49,0.03,2.14,2.0
1758076113.30982,1758076113.26113,0.0,0.0,0.0,-10.08406,-33.05967,-28.59059,8.52,1.05,2.8,2.0
1758076113.31922,1758076113.27113,0.0,0.0,0.0,-20.74107,-24.86637,-23.83505,8.52,1.05,2.8,2.0
1758076113.31967,1758076113.28113,0.0,0.0,0.0,-28.87707,-21.25674,-20.74107,8.23,2.04,3.24,2.0
1758076113.33922,1758076113.29113,0.0,0.0,0.0,-36.15364,-20.11082,-17.24603,8.23,2.04,3.24,2.0
1758076113.3409,1758076113.30113,0.0,0.0,0.0,-42.74266,-19.13679,-11.86023,8.75,2.37,3.24,2.0
1758076113.35768,1758076113.31113,0.0,0.0,0.0,-43.25832,-12.2613,-8.25059,10.93,1.49,2.78,2.0
1758076113.35928,1758076113.32113,0.0,0.0,0.0,-41.08107,-4.98473,-4.52637,10.93,1.49,2.78,2.0
1758076113.375,1758076113.33113,0.0,0.0,0.0,-36.32552,3.26586,-2.00535,12.1,-0.27,1.83,2.0
1758076113.38021,1758076113.34113,0.0,0.0,0.0,-27.38738,12.204,1.03132,12.1,-0.27,1.83,2.0
1758076113.39485,1758076113.35113,0.0,0.0,0.0,-20.74107,16.3293,3.26586,10.99,-1.83,1.39,2.0
1758076113.46091,1758076113.36113,0.0,0.0,0.0,-14.32395,20.51189,4.98473,10.99,-1.83,1.39,2.0
1758076113.46388,1758076113.37113,0.0,0.0,0.0,-8.47978,23.66316,7.16197,9.69,-2.52,1.36,2.0
1758076113.46591,1758076113.38113,0.0,0.0,0.0,-0.97403,28.70519,10.48513,9.09,-2.35,1.21,2.0
1758076113.46893,1758076113.39113,0.0,0.0,0.0,3.20856,31.85646,13.00614,9.09,-2.35,1.21,2.0
1758076113.47415,1758076113.40113,0.0,0.0,0.0,6.53172,35.40879,14.72501,9.19,-1.83,1.1,2.0
1758076113.47485,1758076113.41113,0.0,0.0,0.0,9.33921,38.61736,16.272,9.19,-1.83,1.1,2.0
1758076113.47901,1758076113.42113,0.0,0.0,0.0,12.14671,41.71133,17.6471,9.16,-1.26,0.93,2.0
1758076113.47978,1758076113.43113,0.0,0.0,0.0,13.40721,43.60209,17.81899,9.16,-1.26,0.93,2.0
1758076113.48043,1758076113.44113,0.0,0.0,0.0,14.20935,46.75336,17.01685,8.92,-0.68,0.92,2.0
1758076113.49762,1758076113.45113,0.0,0.0,0.0,14.03747,45.55015,15.46986,8.92,-0.68,0.92,2.0
1758076113.49934,1758076113.46113,0.0,0.0,0.0,14.20935,40.7373,13.23533,8.19,-0.26,1.26,2.0
1758076113.51491,1758076113.47113,0.0,0.0,0.0,14.43854,38.78925,11.51645,7.89,-0.07,1.16,2.0
1758076113.51844,1758076113.48113,0.0,0.0,0.0,15.24068,36.15364,9.96947,7.89,-0.07,1.16,2.0
1758076113.53391,1758076113.49113,0.0,0.0,0.0,16.84496,31.51268,8.36518,7.81,-0.18,1.27,2.0
1758076113.54996,1758076113.50113,0.0,0.0,0.0,19.07949,26.35606,7.04738,7.81,-0.18,1.27,2.0
1758076113.55342,1758076113.51113,0.0,0.0,0.0,20.97026,23.60586,5.55769,8.05,-0.5,1.07,2.0
1758076113.56919,1758076113.52113,0.0,0.0,0.0,23.20479,23.0329,4.0107,8.05,-0.5,1.07,2.0
1758076113.57178,1758076113.53113,0.0,0.0,0.0,26.06958,22.05888,0.57296,8.41,-0.76,0.9,2.0
1758076113.58892,1758076113.54113,0.0,0.0,0.0,27.50197,17.30333,-2.06265,8.2,-0.83,0.84,2.0
1758076113.59341,1758076113.55113,0.0,0.0,0.0,28.36141,10.37054,-4.64096,8.2,-0.83,0.84,2.0
1758076113.60922,1758076113.56113,0.0,0.0,0.0,28.99167,5.32851,-7.84952,8.06,-0.77,0.42,2.0
1758076113.6119,1758076113.57113,0.0,0.0,0.0,31.28349,10.71431,-11.91752,8.06,-0.77,0.42,2.0
1758076113.62898,1758076113.58113,0.0,0.0,0.0,33.34615,14.20935,-11.74564,9.57,-0.78,0.35,2.0
1758076113.63056,1758076113.59113,0.0,0.0,0.0,35.3515,21.48592,-10.65701,9.57,-0.78,0.35,2.0
1758076113.64532,1758076113.60113,0.0,0.0,0.0,35.98175,31.56997,-10.48513,10.54,-0.9,0.8,2.0
1758076113.6511,1758076113.61113,0.0,0.0,0.0,35.75257,30.82513,-12.2613,10.24,-0.7,1.54,2.0
1758076113.66908,1758076113.62113,0.0,0.0,0.0,36.55471,-7.67763,-10.65701,10.24,-0.7,1.54,2.0
1758076113.67023,1758076113.63113,0.0,0.0,0.0,42.05511,-47.26902,-7.50575,6.98,-0.67,0.68,2.0
1758076113.68767,1758076113.64113,0.0,0.0,0.0,47.72739,-65.2026,2.7502,6.98,-0.67,0.68,2.0
1758076113.69101,1758076113.65113,0.0,0.0,0.0,50.93595,-52.48294,7.62034,12.27,-0.8,0.22,2.0
1758076113.70928,1758076113.66113,0.0,0.0,0.0,54.431,-44.8053,10.37054,12.27,-0.8,0.22,2.0
1758076113.71022,1758076113.67113,0.0,0.0,0.0,57.63955,-46.2377,10.37054,12.4,-0.65,0.94,2.0
1758076113.72931,1758076113.68113,0.0,0.0,0.0,59.87409,-46.81066,8.65166,12.4,-0.65,0.94,2.0
1758076113.73106,1758076113.69113,0.0,0.0,0.0,61.59297,-44.11775,3.72423,11.18,-0.39,0.67,2.0
1758076113.74929,1758076113.70113,0.0,0.0,0.0,61.24919,-40.45082,-1.14592,11.04,-0.08,0.41,2.0
1758076113.75133,1758076113.71113,0.0,0.0,0.0,60.10328,-36.61201,-5.32851,11.04,-0.08,0.41,2.0
1758076113.76902,1758076113.72113,0.0,0.0,0.0,55.6915,-28.30412,-8.136,11.89,0.47,1.34,2.0
1758076113.77095,1758076113.73113,0.0,0.0,0.0,51.5662,-28.76248,-5.32851,11.89,0.47,1.34,2.0
1758076113.78769,1758076113.74113,0.0,0.0,0.0,46.40959,-38.1017,1.43239,12.85,1.25,2.89,2.0
1758076113.79271,1758076113.75113,0.0,0.0,0.0,43.14373,-49.50356,13.12073,12.85,1.25,2.89,2.0
1758076113.80863,1758076113.76113,0.0,0.0,0.0,38.84654,-53.39967,31.91375,12.58,1.39,3.11,2.0
1758076113.81064,1758076113.77113,0.0,0.0,0.0,36.26823,-49.27437,42.57077,12.32,1.31,2.47,2.0
1758076113.82593,1758076113.78113,0.0,0.0,0.0,33.68992,-45.60744,50.59217,12.32,1.31,2.47,2.0
1758076113.83138,1758076113.79113,0.0,0.0,0.0,31.85646,-42.85724,56.55093,10.27,0.84,3.54,2.0
