timeStamp,timeStampAlign,roll,pitch,yaw,gyro_x,gyro_y,gyro_z,acc_x,acc_y,acc_z,flag_num
1758088275.26099,1758088272.93646,0.0,0.0,0.0,-23.31938,-7.21927,-0.11459,9.97,0.95,0.19,2.0
1758088275.2612,1758088272.94646,0.0,0.0,0.0,-24.5226,-8.42248,0.0573,9.97,0.95,0.19,2.0
1758088275.27438,1758088272.95646,0.0,0.0,0.0,-25.72581,-8.76626,0.0573,9.88,0.64,0.1,2.0
1758088275.27555,1758088272.96646,0.0,0.0,0.0,-26.98631,-8.65166,-0.0573,9.88,0.64,0.1,2.0
1758088275.29159,1758088272.97646,0.0,0.0,0.0,-26.24147,-10.54242,-0.80214,10.45,0.18,0.98,2.0
1758088275.29263,1758088272.98646,0.0,0.0,0.0,-24.00693,-16.95955,-2.7502,10.45,0.18,0.98,2.0
1758088275.30733,1758088272.99646,0.0,0.0,0.0,-18.56383,-29.04896,-8.02141,11.27,-0.37,2.42,2.0
1758088275.32336,1758088273.00646,0.0,0.0,0.0,-13.86558,-42.74266,-11.45916,12.42,-0.87,3.44,2.0
1758088275.32456,1758088273.01646,0.0,0.0,0.0,-9.68299,-47.95657,-14.9542,12.42,-0.87,3.44,2.0
1758088275.33961,1758088273.02646,0.0,0.0,0.0,-4.0107,-50.01921,-16.50119,13.1,-1.37,2.28,2.0
1758088275.34133,1758088273.03646,0.0,0.0,0.0,1.48969,-52.71212,-16.73037,13.1,-1.37,2.28,2.0
1758088275.35661,1758088273.04646,0.0,0.0,0.0,4.52637,-51.79538,-14.61043,11.45,-1.26,1.34,2.0
1758088275.37236,1758088273.05646,0.0,0.0,0.0,6.35983,-52.42564,-11.00079,11.45,-1.26,1.34,2.0
1758088275.37369,1758088273.06646,0.0,0.0,0.0,5.90147,-47.61279,-7.33386,9.69,-0.54,0.51,2.0
1758088275.38873,1758088273.07646,0.0,0.0,0.0,0.34377,-32.54401,-2.86479,9.84,0.44,0.78,2.0
1758088275.40438,1758088273.08646,0.0,0.0,0.0,-5.15662,-27.61657,-0.11459,9.84,0.44,0.78,2.0
1758088275.40639,1758088273.09646,0.0,0.0,0.0,-11.00079,-26.01229,0.97403,8.83,0.5,1.91,2.0
1758088275.42168,1758088273.10646,0.0,0.0,0.0,-16.04282,-26.18417,1.66158,8.83,0.5,1.91,2.0
1758088275.42285,1758088273.11646,0.0,0.0,0.0,-21.08485,-23.20479,1.3178,9.03,0.39,2.08,2.0
1758088275.43764,1758088273.12646,0.0,0.0,0.0,-22.63183,-18.9649,0.11459,9.03,0.39,2.08,2.0
1758088275.45419,1758088273.13646,0.0,0.0,0.0,-22.74642,-14.9542,-2.06265,9.88,-0.11,2.25,2.0
1758088275.45579,1758088273.14646,0.0,0.0,0.0,-22.11617,-12.37589,-4.58366,9.88,-0.11,2.25,2.0
1758088275.47039,1758088273.15646,0.0,0.0,0.0,-19.99623,-9.4538,-8.25059,9.85,-0.76,2.22,2.0
1758088275.47168,1758088273.16646,0.0,0.0,0.0,-17.99088,-7.04738,-9.68299,9.98,-1.27,1.88,2.0
1758088275.48662,1758088273.17646,0.0,0.0,0.0,-16.10011,-3.49504,-9.85487,9.98,-1.27,1.88,2.0
1758088275.50275,1758088273.18646,0.0,0.0,0.0,-13.86558,0.97403,-7.50575,10.39,-1.41,1.45,2.0
1758088275.50362,1758088273.19646,0.0,0.0,0.0,-11.00079,8.88085,-5.09932,10.39,-1.41,1.45,2.0
1758088275.51839,1758088273.20646,0.0,0.0,0.0,-9.22462,13.12073,-2.00535,10.45,-1.53,1.56,2.0
1758088275.53442,1758088273.21646,0.0,0.0,0.0,-7.39116,16.55848,0.74485,10.45,-1.53,1.56,2.0
1758088275.53563,1758088273.22646,0.0,0.0,0.0,-3.83882,22.34536,4.23989,10.08,-1.59,1.55,2.0
1758088275.55041,1758088273.23646,0.0,0.0,0.0,-1.03132,24.98096,6.07335,10.09,-1.74,1.29,2.0
1758088275.55161,1758088273.24646,0.0,0.0,0.0,1.3751,25.55392,7.10468,10.09,-1.74,1.29,2.0
1758088275.56674,1758088273.25646,0.0,0.0,0.0,3.38045,26.01229,7.44845,9.86,-1.66,0.97,2.0
1758088275.58265,1758088273.26646,0.0,0.0,0.0,5.84417,26.64254,7.50575,9.86,-1.66,0.97,2.0
1758088275.58362,1758088273.27646,0.0,0.0,0.0,6.8182,27.10091,7.33386,9.92,-1.35,0.96,2.0
1758088275.59869,1758088273.28646,0.0,0.0,0.0,7.79223,27.1582,7.10468,9.92,-1.35,0.96,2.0
1758088275.61444,1758088273.29646,0.0,0.0,0.0,8.42248,27.2155,7.10468,9.74,-0.95,1.01,2.0
1758088275.6161,1758088273.30646,0.0,0.0,0.0,8.99544,27.2155,6.8182,9.67,-0.64,1.17,2.0
1758088275.63036,1758088273.31646,0.0,0.0,0.0,9.28192,26.35606,6.70361,9.67,-0.64,1.17,2.0
1758088275.63167,1758088273.32646,0.0,0.0,0.0,9.4538,26.12688,6.53172,9.6,-0.5,1.45,2.0
1758088275.64669,1758088273.33646,0.0,0.0,0.0,9.91217,25.21014,6.41713,9.6,-0.5,1.45,2.0
1758088275.66266,1758088273.34646,0.0,0.0,0.0,9.5684,22.51724,5.78687,9.46,-0.54,1.06,2.0
1758088275.66363,1758088273.35646,0.0,0.0,0.0,9.11003,20.97026,4.81285,9.46,-0.54,1.06,2.0
1758088275.67862,1758088273.36646,0.0,0.0,0.0,8.93814,19.42327,4.1253,9.34,-0.67,1.06,2.0
1758088275.69442,1758088273.37646,0.0,0.0,0.0,8.99544,16.84496,3.72423,9.34,-0.67,1.06,2.0
1758088275.69574,1758088273.38646,0.0,0.0,0.0,10.02676,13.75099,3.83882,9.28,-0.89,0.99,2.0
1758088275.71041,1758088273.39646,0.0,0.0,0.0,11.28727,12.77696,4.0107,9.32,-1.21,0.92,2.0
1758088275.71162,1758088273.40646,0.0,0.0,0.0,12.89155,12.08941,4.1253,9.32,-1.21,0.92,2.0
1758088275.72663,1758088273.41646,0.0,0.0,0.0,15.69904,8.0787,4.81285,9.18,-1.46,0.83,2.0
1758088275.74237,1758088273.42646,0.0,0.0,0.0,17.58981,5.95876,4.87014,9.18,-1.46,0.83,2.0
1758088275.74361,1758088273.43646,0.0,0.0,0.0,19.70975,4.92744,5.21392,9.1,-1.56,0.67,2.0
1758088275.75863,1758088273.44646,0.0,0.0,0.0,21.60051,3.95341,5.21392,9.1,-1.56,0.67,2.0
1758088275.7747,1758088273.45646,0.0,0.0,0.0,24.00693,3.83882,5.09932,9.22,-1.45,0.53,2.0
1758088275.77562,1758088273.46646,0.0,0.0,0.0,25.43933,4.23989,4.35448,9.35,-1.18,0.52,2.0
1758088275.79062,1758088273.47646,0.0,0.0,0.0,26.81443,4.52637,4.0107,9.35,-1.18,0.52,2.0
1758088275.79197,1758088273.48646,0.0,0.0,0.0,27.96034,4.87014,3.09397,9.4,-0.89,0.52,2.0
1758088275.80642,1758088273.49646,0.0,0.0,0.0,29.73651,6.13065,1.94806,9.4,-0.89,0.52,2.0
1758088275.82243,1758088273.50646,0.0,0.0,0.0,30.59595,7.10468,1.03132,9.5,-0.75,0.57,2.0
1758088275.82355,1758088273.51646,0.0,0.0,0.0,31.62727,7.79223,0.22918,9.5,-0.75,0.57,2.0
1758088275.83839,1758088273.52646,0.0,0.0,0.0,32.54401,8.59437,-0.11459,9.57,-0.74,0.6,2.0
1758088275.85437,1758088273.53646,0.0,0.0,0.0,33.9764,7.39116,-0.74485,9.57,-0.83,0.61,2.0
1758088275.85559,1758088273.54646,0.0,0.0,0.0,34.95043,6.13065,-1.03132,9.57,-0.83,0.61,2.0
1758088275.87039,1758088273.55646,0.0,0.0,0.0,35.69527,4.69825,-1.14592,9.54,-0.99,0.5,2.0
1758088275.87159,1758088273.56646,0.0,0.0,0.0,36.55471,2.29183,-1.20321,9.54,-0.99,0.5,2.0
1758088275.88676,1758088273.57646,0.0,0.0,0.0,37.52874,-1.43239,-1.3178,9.34,-1.14,0.39,2.0
1758088275.90261,1758088273.58646,0.0,0.0,0.0,38.38818,-2.7502,-1.3751,9.34,-1.14,0.39,2.0
1758088275.9036,1758088273.59646,0.0,0.0,0.0,39.07573,-3.66693,-1.14592,9.47,-1.21,0.36,2.0
1758088275.91839,1758088273.60646,0.0,0.0,0.0,40.50812,-3.55234,-0.45837,9.47,-1.21,0.36,2.0
1758088275.93439,1758088273.61646,0.0,0.0,0.0,41.59674,-5.27121,0.0,9.56,-1.26,0.29,2.0
1758088275.9356,1758088273.62646,0.0,0.0,0.0,42.91454,-7.33386,0.45837,9.36,-1.31,0.28,2.0
1758088275.95032,1758088273.63646,0.0,0.0,0.0,44.23235,-9.91217,1.08862,9.36,-1.31,0.28,2.0
1758088275.95159,1758088273.64646,0.0,0.0,0.0,46.86795,-14.66772,1.83346,9.16,-1.4,0.05,2.0
1758088275.96638,1758088273.65646,0.0,0.0,0.0,48.58683,-18.56383,2.29183,9.16,-1.4,0.05,2.0
1758088275.98264,1758088273.66646,0.0,0.0,0.0,49.79003,-22.68913,2.29183,8.94,-1.48,-0.33,2.0
1758088275.98386,1758088273.67646,0.0,0.0,0.0,50.64947,-25.26744,2.06265,8.94,-1.48,-0.33,2.0
1758088275.99839,1758088273.68646,0.0,0.0,0.0,52.19646,-30.19488,2.23454,9.08,-1.46,-0.25,2.0
1758088276.01438,1758088273.69646,0.0,0.0,0.0,53.34238,-31.11161,2.29183,10.19,-1.11,0.27,2.0
1758088276.01556,1758088273.70646,0.0,0.0,0.0,53.11319,-31.45539,2.40642,10.19,-1.11,0.27,2.0
1758088276.03039,1758088273.71646,0.0,0.0,0.0,52.82671,-33.40344,5.09932,12.88,-0.14,2.14,2.0
1758088276.03164,1758088273.72646,0.0,0.0,0.0,48.70141,-29.10626,10.19865,12.88,-0.14,2.14,2.0
1758088276.0466,1758088273.73646,0.0,0.0,0.0,44.51882,-23.89234,12.77696,15.28,0.86,3.84,2.0
1758088276.06263,1758088273.74646,0.0,0.0,0.0,38.1017,-24.57989,14.66772,15.28,0.86,3.84,2.0
1758088276.06383,1758088273.75646,0.0,0.0,0.0,31.56997,-27.10091,13.5218,13.24,0.99,2.76,2.0
1758088276.07843,1758088273.76646,0.0,0.0,0.0,22.40265,-30.99702,10.54242,10.36,-0.15,1.51,2.0
1758088276.09459,1758088273.77646,0.0,0.0,0.0,18.27736,-36.95578,8.36518,10.36,-0.15,1.51,2.0
1758088276.09594,1758088273.78646,0.0,0.0,0.0,15.87093,-44.40423,5.84417,9.21,-1.01,0.29,2.0
1758088276.11064,1758088273.79646,0.0,0.0,0.0,18.44924,-50.93595,6.47442,9.21,-1.01,0.29,2.0
1758088276.11184,1758088273.80646,0.0,0.0,0.0,22.63183,-46.75336,8.36518,10.59,-1.29,0.82,2.0
1758088276.12664,1758088273.81646,0.0,0.0,0.0,27.50197,-40.45082,10.31324,10.59,-1.29,0.82,2.0
1758088276.14239,1758088273.82646,0.0,0.0,0.0,31.97105,-35.75257,11.91752,11.6,-0.93,1.14,2.0
1758088276.1436,1758088273.83646,0.0,0.0,0.0,37.24226,-34.95043,13.69369,11.6,-0.93,1.14,2.0
1758088276.15864,1758088273.84646,0.0,0.0,0.0,39.13302,-32.54401,14.32395,10.14,-0.29,2.37,2.0
1758088276.17464,1758088273.85646,0.0,0.0,0.0,40.27893,-28.30412,14.38124,9.82,0.35,2.14,2.0
1758088276.17602,1758088273.86646,0.0,0.0,0.0,40.10705,-23.54857,13.86558,9.82,0.35,2.14,2.0
1758088276.1904,1758088273.87646,0.0,0.0,0.0,38.78925,-18.10547,12.83425,9.76,0.85,2.13,2.0
1758088276.19195,1758088273.88646,0.0,0.0,0.0,37.58603,-14.49583,11.80293,9.76,0.85,2.13,2.0
1758088276.2069,1758088273.89646,0.0,0.0,0.0,36.61201,-10.71431,10.08406,9.85,0.92,1.96,2.0
1758088276.22264,1758088273.90646,0.0,0.0,0.0,35.75257,-6.18794,8.30789,9.85,0.92,1.96,2.0
1758088276.22388,1758088273.91646,0.0,0.0,0.0,34.32018,1.43239,4.98473,9.95,0.73,1.42,2.0
1758088276.23869,1758088273.92646,0.0,0.0,0.0,33.46074,7.16197,2.92208,9.99,0.58,1.05,2.0
1758088276.25463,1758088273.93646,0.0,0.0,0.0,32.48671,12.77696,1.3178,9.99,0.58,1.05,2.0
1758088276.25592,1758088273.94646,0.0,0.0,0.0,31.39809,18.9649,-0.11459,10.27,0.67,1.06,2.0
1758088276.27065,1758088273.95646,0.0,0.0,0.0,28.64789,26.98631,-1.71887,10.27,0.67,1.06,2.0
1758088276.27162,1758088273.96646,0.0,0.0,0.0,27.04361,28.64789,-2.34913,10.35,0.74,1.05,2.0
1758088276.28664,1758088273.97646,0.0,0.0,0.0,25.26744,29.10626,-2.34913,10.35,0.74,1.05,2.0
1758088276.30242,1758088273.98646,0.0,0.0,0.0,23.83505,29.96569,-2.23454,10.08,0.56,0.93,2.0
1758088276.30403,1758088273.99646,0.0,0.0,0.0,22.63183,31.79916,-1.94806,10.1,0.21,0.82,2.0
1758088276.31843,1758088274.00646,0.0,0.0,0.0,22.23076,32.48671,-1.66158,10.1,0.21,0.82,2.0
1758088276.33444,1758088274.01646,0.0,0.0,0.0,22.40265,33.05967,-1.60428,9.88,-0.05,0.93,2.0
1758088276.33562,1758088274.02646,0.0,0.0,0.0,22.86102,33.9764,-1.77617,9.88,-0.05,0.93,2.0
1758088276.35072,1758088274.03646,0.0,0.0,0.0,23.49127,34.77854,-2.11994,9.83,-0.14,1.04,2.0
1758088276.35162,1758088274.04646,0.0,0.0,0.0,24.23611,35.3515,-2.40642,9.83,-0.14,1.04,2.0
1758088276.36645,1758088274.05646,0.0,0.0,0.0,24.92367,35.58068,-2.7502,9.79,-0.04,1.05,2.0
1758088276.38266,1758088274.06646,0.0,0.0,0.0,26.18417,35.3515,-2.6929,9.79,-0.04,1.05,2.0
1758088276.38363,1758088274.07646,0.0,0.0,0.0,26.75713,34.95043,-2.46372,9.66,0.11,1.05,2.0
1758088276.39864,1758088274.08646,0.0,0.0,0.0,26.98631,34.43476,-2.34913,9.6,0.24,0.96,2.0
1758088276.41439,1758088274.09646,0.0,0.0,0.0,27.04361,33.86181,-2.11994,9.6,0.24,0.96,2.0
1758088276.41579,1758088274.10646,0.0,0.0,0.0,26.41335,32.14294,-1.83346,9.52,0.27,0.94,2.0
1758088276.43041,1758088274.11646,0.0,0.0,0.0,26.06958,29.22085,-1.66158,9.52,0.27,0.94,2.0
1758088276.43153,1758088274.12646,0.0,0.0,0.0,25.49662,25.38203,-1.20321,9.2,0.24,0.92,2.0
1758088276.44643,1758088274.13646,0.0,0.0,0.0,24.86637,21.14215,-0.74485,9.2,0.24,0.92,2.0
1758088276.46244,1758088274.14646,0.0,0.0,0.0,23.49127,15.75634,0.51566,9.07,0.27,0.84,2.0
1758088276.46418,1758088274.15646,0.0,0.0,0.0,21.7724,13.34992,0.80214,9.24,0.38,0.88,2.0
1758088276.47839,1758088274.16646,0.0,0.0,0.0,19.76705,10.54242,0.74485,9.24,0.38,0.88,2.0
1758088276.49444,1758088274.17646,0.0,0.0,0.0,17.30333,6.70361,0.51566,9.15,0.53,0.8,2.0
1758088276.49562,1758088274.18646,0.0,0.0,0.0,13.40721,2.40642,0.17189,9.15,0.53,0.8,2.0
1758088276.51043,1758088274.19646,0.0,0.0,0.0,10.8289,1.08862,-0.17189,9.38,0.6,0.81,2.0
1758088276.51155,1758088274.20646,0.0,0.0,0.0,8.59437,0.0,-0.17189,9.38,0.6,0.81,2.0
1758088276.52642,1758088274.21646,0.0,0.0,0.0,5.84417,-1.14592,-0.34377,9.54,0.43,0.62,2.0
1758088276.54358,1758088274.22646,0.0,0.0,0.0,4.46907,-2.11994,0.0573,9.55,0.16,0.7,2.0
1758088276.54539,1758088274.23646,0.0,0.0,0.0,3.49504,-2.46372,0.51566,9.55,0.16,0.7,2.0
1758088276.56046,1758088274.24646,0.0,0.0,0.0,2.7502,-3.03668,1.14592,9.56,0.03,0.6,2.0
1758088276.56162,1758088274.25646,0.0,0.0,0.0,2.06265,-2.57831,2.00535,9.56,0.03,0.6,2.0
1758088276.57643,1758088274.26646,0.0,0.0,0.0,1.60428,-1.66158,2.57831,9.66,0.09,0.66,2.0
1758088276.59269,1758088274.27646,0.0,0.0,0.0,1.03132,-0.80214,2.86479,9.66,0.09,0.66,2.0
1758088276.59366,1758088274.28646,0.0,0.0,0.0,0.40107,-0.17189,3.03668,9.75,0.24,0.71,2.0
1758088276.60868,1758088274.29646,0.0,0.0,0.0,-1.03132,0.17189,2.86479,9.75,0.34,0.7,2.0
1758088276.6244,1758088274.30646,0.0,0.0,0.0,-2.23454,0.0,2.63561,9.75,0.34,0.7,2.0
1758088276.62566,1758088274.31646,0.0,0.0,0.0,-3.26586,0.0,2.34913,9.75,0.36,0.58,2.0
1758088276.64065,1758088274.32646,0.0,0.0,0.0,-4.52637,0.45837,1.83346,9.75,0.36,0.58,2.0
1758088276.64162,1758088274.33646,0.0,0.0,0.0,-6.13065,-0.57296,1.48969,9.75,0.32,0.46,2.0
1758088276.6567,1758088274.34646,0.0,0.0,0.0,-7.21927,-1.60428,1.60428,9.75,0.32,0.46,2.0
1758088276.67245,1758088274.35646,0.0,0.0,0.0,-8.36518,-1.77617,1.60428,9.69,0.3,0.44,2.0
1758088276.67365,1758088274.36646,0.0,0.0,0.0,-9.33921,-1.3751,1.83346,9.69,0.3,0.44,2.0
1758088276.68869,1758088274.37646,0.0,0.0,0.0,-11.00079,0.22918,1.94806,9.94,0.35,0.45,2.0
1758088276.70469,1758088274.38646,0.0,0.0,0.0,-12.43318,0.85944,1.3751,10.07,0.49,0.6,2.0
1758088276.70564,1758088274.39646,0.0,0.0,0.0,-13.86558,1.83346,0.85944,10.07,0.49,0.6,2.0
1758088276.72047,1758088274.40646,0.0,0.0,0.0,-16.04282,1.83346,0.0,10.08,0.7,0.61,2.0
1758088276.72161,1758088274.41646,0.0,0.0,0.0,-17.53251,0.17189,-0.51566,10.08,0.7,0.61,2.0
1758088276.73645,1758088274.42646,0.0,0.0,0.0,-19.07949,-1.14592,-1.3178,10.0,0.88,0.58,2.0
1758088276.75284,1758088274.43646,0.0,0.0,0.0,-20.16812,-4.1253,-1.83346,10.0,0.88,0.58,2.0
1758088276.75364,1758088274.44646,0.0,0.0,0.0,-22.11617,-8.02141,-2.7502,9.82,0.96,0.41,2.0
1758088276.76848,1758088274.45646,0.0,0.0,0.0,-23.31938,-9.11003,-3.03668,9.84,0.94,0.18,2.0
1758088276.78446,1758088274.46646,0.0,0.0,0.0,-24.35071,-9.33921,-3.38045,9.84,0.94,0.18,2.0
1758088276.78564,1758088274.47646,0.0,0.0,0.0,-25.21014,-9.62569,-2.92208,9.96,0.81,0.07,2.0
1758088276.8007,1758088274.48646,0.0,0.0,0.0,-27.33009,-8.0787,-2.23454,9.96,0.81,0.07,2.0
1758088276.80164,1758088274.49646,0.0,0.0,0.0,-28.59059,-7.67763,-2.06265,10.22,0.79,0.06,2.0
1758088276.81648,1758088274.50646,0.0,0.0,0.0,-29.39274,-8.99544,-1.83346,10.22,0.79,0.06,2.0
1758088276.83264,1758088274.51646,0.0,0.0,0.0,-30.48136,-11.28727,-2.06265,9.87,0.7,0.15,2.0
1758088276.83362,1758088274.52646,0.0,0.0,0.0,-31.62727,-9.74028,-2.6929,10.78,0.78,0.82,2.0
1758088276.84849,1758088274.53646,0.0,0.0,0.0,-31.39809,-2.7502,-4.81285,10.78,0.78,0.82,2.0
1758088276.85095,1758088274.54646,0.0,0.0,0.0,-29.50733,6.07335,-7.33386,13.08,0.27,2.17,2.0
1758088276.86669,1758088274.55646,0.0,0.0,0.0,-25.89769,1.14592,-9.33921,13.08,0.27,2.17,2.0
1758088276.88248,1758088274.56646,0.0,0.0,0.0,-25.61122,-33.51803,-17.01685,11.38,-0.03,3.3,2.0
1758088276.88388,1758088274.57646,0.0,0.0,0.0,-25.43933,-46.35228,-21.31403,11.38,-0.03,3.3,2.0
1758088276.90165,1758088274.58646,0.0,0.0,0.0,-23.54857,-40.04975,-24.4653,12.45,-0.13,2.11,2.0
1758088276.90315,1758088274.59646,0.0,0.0,0.0,-20.68378,-30.76784,-23.49127,12.45,-0.13,2.11,2.0
1758088276.91843,1758088274.60646,0.0,0.0,0.0,-16.3293,-23.0902,-20.16812,13.22,-0.41,0.92,2.0
1758088276.92039,1758088274.61646,0.0,0.0,0.0,-14.49583,-19.48057,-15.69904,10.64,-0.66,1.47,2.0
1758088276.93643,1758088274.62646,0.0,0.0,0.0,-12.71966,-17.6471,-10.37054,10.64,-0.66,1.47,2.0
1758088276.95398,1758088274.63646,0.0,0.0,0.0,-10.54242,-16.73037,-2.7502,8.92,-0.72,0.96,2.0
1758088276.95522,1758088274.64646,0.0,0.0,0.0,-9.85487,-15.24068,0.85944,8.92,-0.72,0.96,2.0
1758088276.9705,1758088274.65646,0.0,0.0,0.0,-9.96947,-12.43318,3.49504,8.39,-0.9,0.95,2.0
1758088276.97166,1758088274.66646,0.0,0.0,0.0,-10.65701,-10.08406,4.87014,8.39,-0.9,0.95,2.0
1758088276.98666,1758088274.67646,0.0,0.0,0.0,-13.00614,-8.76626,4.1253,8.45,-0.92,1.23,2.0
1758088277.00243,1758088274.68646,0.0,0.0,0.0,-14.49583,-8.59437,2.11994,8.55,-0.62,2.04,2.0
1758088277.00387,1758088274.69646,0.0,0.0,0.0,-16.10011,-8.36518,-0.22918,8.55,-0.62,2.04,2.0
1758088277.01846,1758088274.70646,0.0,0.0,0.0,-17.47521,-7.16197,-2.92208,9.07,-0.28,2.29,2.0
1758088277.03448,1758088274.71646,0.0,0.0,0.0,-19.19409,-4.58366,-6.35983,9.07,-0.28,2.29,2.0
1758088277.03565,1758088274.72646,0.0,0.0,0.0,-19.48057,-1.71887,-7.67763,9.73,-0.33,2.25,2.0
1758088277.05044,1758088274.73646,0.0,0.0,0.0,-19.48057,2.00535,-8.136,9.73,-0.33,2.25,2.0
1758088277.05165,1758088274.74646,0.0,0.0,0.0,-19.13679,5.90147,-7.44845,10.42,-0.69,2.08,2.0
1758088277.06638,1758088274.75646,0.0,0.0,0.0,-18.27736,13.5791,-5.21392,10.72,-1.1,1.91,2.0
1758088277.08384,1758088274.76646,0.0,0.0,0.0,-17.24603,18.44924,-3.55234,10.72,-1.1,1.91,2.0
1758088277.08603,1758088274.77646,0.0,0.0,0.0,-16.50119,23.31938,-1.83346,10.63,-1.35,1.72,2.0
1758088277.10141,1758088274.78646,0.0,0.0,0.0,-15.69904,28.07493,-0.40107,10.63,-1.35,1.72,2.0
1758088277.1026,1758088274.79646,0.0,0.0,0.0,-14.20935,33.68992,0.68755,10.46,-1.31,1.66,2.0
1758088277.1182,1758088274.80646,0.0,0.0,0.0,-12.89155,37.12767,1.08862,10.46,-1.31,1.66,2.0
1758088277.13443,1758088274.81646,0.0,0.0,0.0,-11.45916,39.82057,1.3751,10.34,-1.17,1.63,2.0
1758088277.13562,1758088274.82646,0.0,0.0,0.0,-9.05273,41.42485,1.66158,10.34,-1.17,1.63,2.0
1758088277.15069,1758088274.83646,0.0,0.0,0.0,-7.67763,41.02378,1.60428,10.09,-1.15,1.56,2.0
1758088277.15205,1758088274.84646,0.0,0.0,0.0,-5.90147,39.64868,2.23454,9.61,-1.22,1.52,2.0
1758088277.16666,1758088274.85646,0.0,0.0,0.0,-4.52637,37.29956,2.57831,9.61,-1.22,1.52,2.0
1758088277.18371,1758088274.86646,0.0,0.0,0.0,-2.34913,32.20023,3.60963,9.01,-1.33,1.5,2.0
1758088277.18541,1758088274.87646,0.0,0.0,0.0,-0.97403,28.476,4.23989,9.01,-1.33,1.5,2.0
1758088277.2004,1758088274.88646,0.0,0.0,0.0,0.85944,24.80907,4.92744,8.72,-1.34,1.76,2.0
1758088277.20162,1758088274.89646,0.0,0.0,0.0,2.46372,20.34,5.4431,8.72,-1.34,1.76,2.0
1758088277.21666,1758088274.90646,0.0,0.0,0.0,4.0107,13.17803,5.50039,8.69,-1.23,1.87,2.0
1758088277.23404,1758088274.91646,0.0,0.0,0.0,4.98473,9.85487,5.50039,8.98,-1.02,1.84,2.0
1758088277.2352,1758088274.92646,0.0,0.0,0.0,5.55769,7.79223,5.32851,8.98,-1.02,1.84,2.0
1758088277.2504,1758088274.93646,0.0,0.0,0.0,6.35983,6.07335,5.4431,9.31,-0.84,1.8,2.0
1758088277.2516,1758088274.94646,0.0,0.0,0.0,7.50575,2.92208,6.07335,9.31,-0.84,1.8,2.0
1758088277.2667,1758088274.95646,0.0,0.0,0.0,7.96411,1.3751,6.35983,9.41,-0.81,1.78,2.0
1758088277.28275,1758088274.96646,0.0,0.0,0.0,8.25059,0.51566,6.7609,9.41,-0.81,1.78,2.0
1758088277.28367,1758088274.97646,0.0,0.0,0.0,8.136,-0.0573,6.8182,9.68,-0.82,1.65,2.0
1758088277.29846,1758088274.98646,0.0,0.0,0.0,7.50575,-0.0573,6.99009,9.86,-0.78,1.49,2.0
1758088277.31439,1758088274.99646,0.0,0.0,0.0,7.04738,1.43239,6.7609,9.86,-0.78,1.49,2.0
1758088277.31593,1758088275.00646,0.0,0.0,0.0,6.24524,2.6929,6.41713,9.96,-0.71,1.35,2.0
1758088277.33065,1758088275.01646,0.0,0.0,0.0,5.27121,2.6929,5.72958,9.96,-0.71,1.35,2.0
1758088277.33166,1758088275.02646,0.0,0.0,0.0,4.81285,3.89611,5.27121,9.69,-0.67,1.22,2.0
1758088277.34673,1758088275.03646,0.0,0.0,0.0,4.46907,4.81285,4.58366,9.69,-0.67,1.22,2.0
1758088277.3645,1758088275.04646,0.0,0.0,0.0,4.35448,5.50039,4.29718,9.65,-0.67,1.09,2.0
1758088277.36543,1758088275.05646,0.0,0.0,0.0,4.87014,6.58902,4.1253,9.65,-0.67,1.09,2.0
1758088277.3807,1758088275.06646,0.0,0.0,0.0,5.27121,6.8182,3.95341,9.49,-0.73,1.02,2.0
1758088277.38157,1758088275.07646,0.0,0.0,0.0,5.78687,6.13065,3.72423,9.38,-0.84,0.98,2.0
1758088277.39673,1758088275.08646,0.0,0.0,0.0,6.70361,5.50039,3.55234,9.38,-0.84,0.98,2.0
1758088277.41397,1758088275.09646,0.0,0.0,0.0,8.0787,4.92744,3.26586,9.46,-1.01,0.91,2.0
1758088277.4152,1758088275.10646,0.0,0.0,0.0,9.11003,4.18259,3.26586,9.46,-1.01,0.91,2.0
1758088277.43037,1758088275.11646,0.0,0.0,0.0,9.96947,3.09397,3.20856,9.4,-1.11,0.86,2.0
1758088277.43157,1758088275.12646,0.0,0.0,0.0,10.59972,2.23454,3.20856,9.4,-1.11,0.86,2.0
1758088277.44673,1758088275.13646,0.0,0.0,0.0,11.34457,3.20856,2.97938,9.37,-1.06,0.89,2.0
1758088277.46437,1758088275.14646,0.0,0.0,0.0,11.86023,4.81285,2.6929,9.6,-0.93,0.96,2.0
1758088277.46603,1758088275.15646,0.0,0.0,0.0,12.204,6.99009,2.40642,9.6,-0.93,0.96,2.0
1758088277.48173,1758088275.16646,0.0,0.0,0.0,12.60507,8.65166,2.11994,9.75,-0.82,1.19,2.0
1758088277.48845,1758088275.17646,0.0,0.0,0.0,13.69369,8.02141,2.06265,9.75,-0.82,1.19,2.0
1758088277.49152,1758088275.18646,0.0,0.0,0.0,14.61043,5.50039,2.29183,9.56,-0.76,1.25,2.0
1758088277.50847,1758088275.19646,0.0,0.0,0.0,15.41257,3.03668,2.34913,9.56,-0.76,1.25,2.0
1758088277.51135,1758088275.20646,0.0,0.0,0.0,16.10011,0.45837,2.11994,9.51,-0.78,1.01,2.0
1758088277.52641,1758088275.21646,0.0,0.0,0.0,17.53251,-3.32316,1.77617,9.46,-0.82,0.77,2.0
1758088277.54342,1758088275.22646,0.0,0.0,0.0,18.56383,-7.33386,1.71887,9.46,-0.82,0.77,2.0
1758088277.54443,1758088275.23646,0.0,0.0,0.0,18.9649,-13.98017,1.60428,9.13,-0.79,0.7,2.0
1758088277.56037,1758088275.24646,0.0,0.0,0.0,19.82434,-19.53786,1.60428,9.13,-0.79,0.7,2.0
1758088277.56779,1758088275.25646,0.0,0.0,0.0,19.88164,-22.68913,1.14592,9.38,-0.77,0.51,2.0
1758088277.5716,1758088275.26646,0.0,0.0,0.0,20.74107,-22.68913,1.08862,9.38,-0.77,0.51,2.0
1758088277.59141,1758088275.27646,0.0,0.0,0.0,21.37133,-19.82434,0.17189,9.85,-0.78,0.46,2.0
1758088277.59258,1758088275.28646,0.0,0.0,0.0,22.86102,-9.5684,1.08862,10.74,-0.78,0.92,2.0
1758088277.60816,1758088275.29646,0.0,0.0,0.0,23.94964,-1.83346,1.60428,10.74,-0.87,0.92,2.0
1758088277.62472,1758088275.30646,0.0,0.0,0.0,24.57989,4.64096,0.68755,10.59,-1.02,1.0,2.0
1758088277.62562,1758088275.31646,0.0,0.0,0.0,24.86637,7.84952,-0.0573,10.59,-1.02,1.0,2.0
1758088277.64064,1758088275.32646,0.0,0.0,0.0,24.86637,7.39116,-1.48969,9.96,-0.86,1.07,2.0
1758088277.64162,1758088275.33646,0.0,0.0,0.0,26.52795,0.17189,-2.40642,9.96,-0.86,1.07,2.0
1758088277.65671,1758088275.34646,0.0,0.0,0.0,26.06958,-14.78231,-4.98473,8.86,-0.83,0.19,2.0
1758088277.67257,1758088275.35646,0.0,0.0,0.0,28.93437,-30.53865,-3.66693,8.86,-0.83,0.19,2.0
1758088277.67359,1758088275.36646,0.0,0.0,0.0,33.80451,-33.68992,0.0,8.34,-0.91,-0.5,2.0
1758088277.68866,1758088275.37646,0.0,0.0,0.0,35.63798,-27.04361,1.3178,10.69,-1.19,-0.33,2.0
1758088277.70447,1758088275.38646,0.0,0.0,0.0,36.84119,-22.68913,2.57831,10.69,-1.19,-0.33,2.0
1758088277.70566,1758088275.39646,0.0,0.0,0.0,35.63798,-21.02755,4.0107,11.59,-0.76,1.33,2.0
1758088277.7204,1758088275.40646,0.0,0.0,0.0,29.9084,-28.07493,5.90147,11.59,-0.76,1.33,2.0
1758088277.72164,1758088275.41646,0.0,0.0,0.0,25.15285,-36.26823,8.36518,12.67,0.27,3.65,2.0
1758088277.73672,1758088275.42646,0.0,0.0,0.0,18.73572,-41.99781,11.28727,12.67,0.27,3.65,2.0
1758088277.75242,1758088275.43646,0.0,0.0,0.0,10.54242,-47.38361,15.87093,13.57,1.19,3.17,2.0
1758088277.75364,1758088275.44646,0.0,0.0,0.0,5.27121,-46.69606,16.38659,12.89,0.6,1.88,2.0
1758088277.76841,1758088275.45646,0.0,0.0,0.0,0.74485,-43.25832,14.72501,12.89,0.6,1.88,2.0
1758088277.78445,1758088275.46646,0.0,0.0,0.0,-2.7502,-39.76327,11.00079,10.6,-0.59,1.13,2.0
1758088277.78639,1758088275.47646,0.0,0.0,0.0,-5.95876,-33.05967,3.60963,10.6,-0.59,1.13,2.0
1758088277.80139,1758088275.48646,0.0,0.0,0.0,-6.07335,-28.07493,-0.68755,8.98,-1.38,1.08,2.0
1758088277.80289,1758088275.49646,0.0,0.0,0.0,-4.23989,-23.49127,-3.60963,8.98,-1.38,1.08,2.0
1758088277.81816,1758088275.50646,0.0,0.0,0.0,-1.03132,-20.11082,-4.87014,8.39,-1.5,1.19,2.0
1758088277.83437,1758088275.51646,0.0,0.0,0.0,5.15662,-16.61578,-3.60963,8.39,-1.22,1.77,2.0
1758088277.83559,1758088275.52646,0.0,0.0,0.0,9.4538,-14.15206,-0.97403,8.39,-1.22,1.77,2.0
1758088277.85138,1758088275.53646,0.0,0.0,0.0,13.12073,-11.80293,2.11994,9.13,-0.94,2.24,2.0
1758088277.85601,1758088275.54646,0.0,0.0,0.0,15.58445,-9.5684,5.32851,9.13,-0.94,2.24,2.0
1758088277.87167,1758088275.55646,0.0,0.0,0.0,16.84496,-5.27121,9.33921,10.09,-0.61,2.59,2.0
1758088277.87525,1758088275.56646,0.0,0.0,0.0,16.50119,-2.06265,10.8289,10.09,-0.61,2.59,2.0
1758088277.89042,1758088275.57646,0.0,0.0,0.0,15.41257,1.71887,11.34457,10.73,-0.09,2.19,2.0
1758088277.89157,1758088275.58646,0.0,0.0,0.0,13.80828,5.21392,10.94349,10.73,-0.09,2.19,2.0
1758088277.90639,1758088275.59646,0.0,0.0,0.0,10.25595,11.97482,8.65166,10.8,0.33,1.88,2.0
1758088277.91186,1758088275.60646,0.0,0.0,0.0,7.50575,16.272,6.35983,10.69,0.47,1.79,2.0
1758088277.92845,1758088275.61646,0.0,0.0,0.0,4.69825,19.25138,3.72423,10.69,0.47,1.79,2.0
1758088277.94469,1758088275.62646,0.0,0.0,0.0,0.34377,21.7724,-0.34377,10.38,0.26,1.65,2.0
1758088277.9474,1758088275.63646,0.0,0.0,0.0,-2.34913,22.86102,-3.26586,10.38,0.26,1.65,2.0
1758088277.9658,1758088275.64646,0.0,0.0,0.0,-4.52637,23.72045,-5.50039,10.1,-0.02,1.34,2.0
1758088277.967,1758088275.65646,0.0,0.0,0.0,-6.24524,24.5226,-7.10468,10.1,-0.02,1.34,2.0
1758088277.9856,1758088275.66646,0.0,0.0,0.0,-7.67763,24.98096,-7.73493,9.79,-0.12,1.1,2.0
1758088277.9868,1758088275.67646,0.0,0.0,0.0,-8.136,24.75178,-7.33386,9.52,-0.13,1.09,2.0
1758088278.00554,1758088275.68646,0.0,0.0,0.0,-8.42248,23.89234,-6.58902,9.52,-0.13,1.09,2.0
1758088278.00675,1758088275.69646,0.0,0.0,0.0,-8.25059,23.31938,-5.90147,9.36,-0.09,1.09,2.0
1758088278.02553,1758088275.70646,0.0,0.0,0.0,-7.62034,22.63183,-4.69825,9.36,-0.09,1.09,2.0
1758088278.02711,1758088275.71646,0.0,0.0,0.0,-6.87549,22.86102,-4.0107,9.4,-0.13,1.15,2.0
1758088278.04636,1758088275.72646,0.0,0.0,0.0,-6.41713,23.83505,-3.38045,9.4,-0.13,1.15,2.0
1758088278.04784,1758088275.73646,0.0,0.0,0.0,-5.84417,25.09555,-3.20856,9.52,-0.25,1.21,2.0
1758088278.08511,1758088275.74646,0.0,0.0,0.0,-5.32851,24.75178,-2.97938,9.38,-0.37,1.26,2.0
1758088278.08766,1758088275.75646,0.0,0.0,0.0,-4.81285,23.26209,-2.92208,9.38,-0.37,1.26,2.0
1758088278.0915,1758088275.76646,0.0,0.0,0.0,-4.29718,21.88699,-2.86479,9.26,-0.46,1.17,2.0
1758088278.09673,1758088275.77646,0.0,0.0,0.0,-3.83882,20.34,-2.63561,9.26,-0.46,1.17,2.0
1758088278.09834,1758088275.78646,0.0,0.0,0.0,-3.55234,18.56383,-2.46372,9.48,-0.45,1.11,2.0
1758088278.11625,1758088275.79646,0.0,0.0,0.0,-3.66693,16.38659,-2.46372,9.48,-0.45,1.11,2.0
1758088278.11791,1758088275.80646,0.0,0.0,0.0,-4.46907,14.72501,-2.92208,9.58,-0.27,1.12,2.0
1758088278.13413,1758088275.81646,0.0,0.0,0.0,-6.70361,14.15206,-3.89611,9.58,-0.27,1.12,2.0
1758088278.13613,1758088275.82646,0.0,0.0,0.0,-8.76626,13.17803,-4.87014,9.85,0.03,1.0,2.0
1758088278.15139,1758088275.83646,0.0,0.0,0.0,-11.17268,12.49048,-6.13065,9.82,0.28,0.75,2.0
1758088278.15254,1758088275.84646,0.0,0.0,0.0,-13.5791,11.11538,-6.8182,9.82,0.28,0.75,2.0
1758088278.17042,1758088275.85646,0.0,0.0,0.0,-16.61578,6.87549,-7.33386,9.55,0.31,0.59,2.0
1758088278.1721,1758088275.86646,0.0,0.0,0.0,-18.62113,3.89611,-7.79223,9.55,0.31,0.59,2.0
1758088278.18971,1758088275.87646,0.0,0.0,0.0,-20.22541,1.43239,-7.84952,9.2,0.14,0.45,2.0
1758088278.19176,1758088275.88646,0.0,0.0,0.0,-21.37133,0.11459,-7.62034,9.2,0.14,0.45,2.0
1758088278.20973,1758088275.89646,0.0,0.0,0.0,-22.57454,-1.14592,-6.7609,8.98,-0.09,0.32,2.0
1758088278.21097,1758088275.90646,0.0,0.0,0.0,-22.68913,-1.60428,-6.13065,8.8,-0.26,0.38,2.0
1758088278.22639,1758088275.91646,0.0,0.0,0.0,-22.86102,-1.83346,-5.27121,8.8,-0.26,0.38,2.0
1758088278.24234,1758088275.92646,0.0,0.0,0.0,-22.91831,-1.66158,-4.23989,8.93,-0.32,0.45,2.0
1758088278.24361,1758088275.93646,0.0,0.0,0.0,-22.86102,-0.97403,-2.92208,8.93,-0.32,0.45,2.0
1758088278.2587,1758088275.94646,0.0,0.0,0.0,-23.0902,-1.08862,-2.11994,9.21,-0.26,0.41,2.0
1758088278.27435,1758088275.95646,0.0,0.0,0.0,-23.60586,-2.00535,-1.77617,9.21,-0.26,0.41,2.0
1758088278.27554,1758088275.96646,0.0,0.0,0.0,-24.63719,-2.97938,-1.48969,9.29,-0.23,0.36,2.0
1758088278.29036,1758088275.97646,0.0,0.0,0.0,-26.41335,-5.09932,-1.48969,9.34,-0.18,0.11,2.0
1758088278.29157,1758088275.98646,0.0,0.0,0.0,-27.67386,-6.24524,-1.66158,9.34,-0.18,0.11,2.0
1758088278.30639,1758088275.99646,0.0,0.0,0.0,-28.87707,-7.16197,-1.66158,9.45,-0.11,-0.09,2.0
1758088278.32236,1758088276.00646,0.0,0.0,0.0,-29.73651,-7.16197,-1.14592,9.45,-0.11,-0.09,2.0
1758088278.32598,1758088276.01646,0.0,0.0,0.0,-30.82513,-8.36518,-0.57296,9.6,-0.06,-0.02,2.0
1758088278.34133,1758088276.02646,0.0,0.0,0.0,-31.51268,-10.8289,-0.40107,9.6,-0.06,-0.02,2.0
1758088278.34256,1758088276.03646,0.0,0.0,0.0,-32.54401,-13.69369,-0.57296,9.48,0.0,0.11,2.0
1758088278.35767,1758088276.04646,0.0,0.0,0.0,-34.49206,-16.50119,-1.20321,9.48,0.0,0.11,2.0
1758088278.37415,1758088276.05646,0.0,0.0,0.0,-36.15364,-18.73572,-1.83346,9.54,0.14,0.05,2.0
1758088278.37572,1758088276.06646,0.0,0.0,0.0,-37.52874,-20.51189,-2.40642,9.47,0.28,-0.07,2.0
1758088278.39036,1758088276.07646,0.0,0.0,0.0,-39.24761,-21.42862,-3.20856,9.47,0.28,-0.07,2.0
1758088278.39156,1758088276.08646,0.0,0.0,0.0,-41.31026,-23.60586,-4.23989,9.41,0.34,-0.34,2.0
1758088278.40665,1758088276.09646,0.0,0.0,0.0,-42.1124,-26.12688,-4.52637,9.41,0.34,-0.34,2.0
1758088278.42232,1758088276.10646,0.0,0.0,0.0,-42.91454,-28.41871,-4.81285,9.09,0.24,-0.71,2.0
1758088278.42379,1758088276.11646,0.0,0.0,0.0,-42.91454,-29.33544,-5.09932,9.09,0.24,-0.71,2.0
1758088278.43859,1758088276.12646,0.0,0.0,0.0,-42.05511,-31.2262,-5.55769,9.2,0.05,-0.74,2.0
1758088278.45469,1758088276.13646,0.0,0.0,0.0,-39.13302,-37.12767,-6.99009,10.22,-0.23,0.34,2.0
1758088278.45707,1758088276.14646,0.0,0.0,0.0,-35.12231,-45.49285,-10.94349,10.22,-0.23,0.34,2.0
1758088278.47453,1758088276.15646,0.0,0.0,0.0,-29.8511,-52.48294,-15.98552,12.63,-1.0,2.68,2.0
1758088278.47571,1758088276.16646,0.0,0.0,0.0,-21.7151,-64.62964,-24.5226,12.63,-1.0,2.68,2.0
1758088278.49058,1758088276.17646,0.0,0.0,0.0,-16.95955,-67.37984,-27.44468,13.93,-1.62,3.09,2.0
1758088278.49188,1758088276.18646,0.0,0.0,0.0,-11.80293,-55.06125,-27.78845,13.93,-1.62,3.09,2.0
1758088278.50658,1758088276.19646,0.0,0.0,0.0,-7.16197,-40.16434,-25.61122,14.43,-1.8,1.45,2.0
1758088278.52341,1758088276.20646,0.0,0.0,0.0,-1.94806,-34.60666,-19.13679,11.11,-1.15,0.87,2.0
1758088278.52434,1758088276.21646,0.0,0.0,0.0,-0.68755,-35.52338,-14.38124,11.11,-1.15,0.87,2.0
1758088278.53956,1758088276.22646,0.0,0.0,0.0,-0.97403,-32.08564,-9.11003,10.18,-0.47,0.78,2.0
1758088278.54129,1758088276.23646,0.0,0.0,0.0,-3.26586,-23.83505,-1.60428,10.18,-0.47,0.78,2.0
1758088278.55637,1758088276.24646,0.0,0.0,0.0,-6.24524,-18.10547,1.3178,11.54,-0.29,1.1,2.0
1758088278.57396,1758088276.25646,0.0,0.0,0.0,-10.25595,-14.78231,2.11994,11.54,-0.29,1.1,2.0
1758088278.57511,1758088276.26646,0.0,0.0,0.0,-15.29797,-15.69904,0.57296,11.66,-0.27,3.01,2.0
1758088278.59056,1758088276.27646,0.0,0.0,0.0,-23.31938,-21.37133,-3.83882,11.66,-0.27,3.01,2.0
1758088278.59391,1758088276.28646,0.0,0.0,0.0,-28.36141,-23.94964,-6.87549,10.29,-0.17,2.73,2.0
1758088278.60926,1758088276.29646,0.0,0.0,0.0,-33.00237,-22.51724,-9.28192,9.8,-0.06,1.92,2.0
1758088278.61049,1758088276.30646,0.0,0.0,0.0,-37.12767,-15.35527,-10.19865,9.8,-0.06,1.92,2.0
1758088278.62623,1758088276.31646,0.0,0.0,0.0,-42.39888,-1.14592,-10.19865,10.59,-0.08,1.38,2.0
1758088278.64227,1758088276.32646,0.0,0.0,0.0,-45.03448,6.41713,-8.76626,10.59,-0.08,1.38,2.0
1758088278.64667,1758088276.33646,0.0,0.0,0.0,-46.98254,11.63104,-6.07335,10.66,-0.55,1.37,2.0
1758088278.66573,1758088276.34646,0.0,0.0,0.0,-48.12846,17.30333,-3.49504,10.66,-0.55,1.37,2.0
1758088278.66668,1758088276.35646,0.0,0.0,0.0,-47.03984,26.87172,0.68755,10.66,-1.07,0.98,2.0
1758088278.67635,1758088276.36646,0.0,0.0,0.0,-44.8053,34.32018,2.92208,10.7,-1.75,0.53,2.0
1758088278.69547,1758088276.37646,0.0,0.0,0.0,-41.65404,40.85189,4.64096,10.7,-1.75,0.53,2.0
1758088278.69672,1758088276.38646,0.0,0.0,0.0,-38.1017,45.43555,5.90147,10.32,-2.12,0.47,2.0
1758088278.71403,1758088276.39646,0.0,0.0,0.0,-33.17426,48.30034,6.58902,10.32,-2.12,0.47,2.0
1758088278.71505,1758088276.40646,0.0,0.0,0.0,-30.53865,50.363,6.47442,9.94,-1.89,0.56,2.0
1758088278.73036,1758088276.41646,0.0,0.0,0.0,-28.87707,52.42564,6.24524,9.94,-1.89,0.56,2.0
1758088278.73179,1758088276.42646,0.0,0.0,0.0,-27.1582,53.45696,5.4431,9.89,-1.35,0.63,2.0
1758088278.74632,1758088276.43646,0.0,0.0,0.0,-26.81443,53.28508,4.64096,9.55,-0.86,0.78,2.0
1758088278.76256,1758088276.44646,0.0,0.0,0.0,-27.04361,51.90998,4.23989,9.55,-0.86,0.78,2.0
1758088278.76431,1758088276.45646,0.0,0.0,0.0,-27.33009,50.01921,3.95341,9.33,-0.58,1.14,2.0
1758088278.77931,1758088276.46646,0.0,0.0,0.0,-28.13223,47.89928,3.95341,9.33,-0.58,1.14,2.0
1758088278.78052,1758088276.47646,0.0,0.0,0.0,-29.04896,45.77933,3.72423,9.25,-0.57,1.07,2.0
1758088278.79661,1758088276.48646,0.0,0.0,0.0,-29.9084,42.97184,3.49504,9.25,-0.57,1.07,2.0
1758088278.81262,1758088276.49646,0.0,0.0,0.0,-30.53865,39.87786,3.09397,9.0,-0.72,1.1,2.0
1758088278.81355,1758088276.50646,0.0,0.0,0.0,-30.53865,35.40879,2.63561,8.88,-0.72,1.0,2.0
1758088278.82861,1758088276.51646,0.0,0.0,0.0,-30.02299,33.17426,2.34913,8.88,-0.97,1.0,2.0
1758088278.84459,1758088276.52646,0.0,0.0,0.0,-28.76248,30.82513,2.00535,8.9,-1.26,0.83,2.0
1758088278.84547,1758088276.53646,0.0,0.0,0.0,-27.33009,28.87707,1.48969,8.9,-1.26,0.83,2.0
1758088278.8605,1758088276.54646,0.0,0.0,0.0,-24.12152,24.98096,0.80214,8.83,-1.52,0.72,2.0
1758088278.86258,1758088276.55646,0.0,0.0,0.0,-21.60051,21.60051,0.45837,8.83,-1.52,0.72,2.0
1758088278.87729,1758088276.56646,0.0,0.0,0.0,-19.13679,17.93358,0.0,8.64,-1.71,0.62,2.0
1758088278.89406,1758088276.57646,0.0,0.0,0.0,-16.50119,15.46986,-0.22918,8.64,-1.71,0.62,2.0
1758088278.89568,1758088276.58646,0.0,0.0,0.0,-12.2613,16.50119,-0.97403,8.79,-1.84,0.44,2.0
1758088278.91054,1758088276.59646,0.0,0.0,0.0,-9.4538,18.16276,-1.77617,9.2,-1.79,0.35,2.0
1758088278.91147,1758088276.60646,0.0,0.0,0.0,-6.87549,19.99623,-2.40642,9.2,-1.79,0.35,2.0
1758088278.92648,1758088276.61646,0.0,0.0,0.0,-4.64096,20.79837,-4.23989,9.28,-1.5,0.5,2.0
1758088278.94229,1758088276.62646,0.0,0.0,0.0,-1.3178,21.14215,-5.55769,9.28,-1.5,0.5,2.0
1758088278.94664,1758088276.63646,0.0,0.0,0.0,0.74485,21.08485,-6.35983,9.22,-1.19,0.62,2.0
1758088278.96226,1758088276.64646,0.0,0.0,0.0,2.86479,19.88164,-7.10468,9.22,-1.19,0.62,2.0
1758088278.96686,1758088276.65646,0.0,0.0,0.0,5.4431,16.61578,-7.96411,9.13,-1.05,0.55,2.0
1758088278.98249,1758088276.66646,0.0,0.0,0.0,6.8182,12.204,-7.96411,8.99,-1.02,0.59,2.0
1758088278.98697,1758088276.67646,0.0,0.0,0.0,8.02141,6.87549,-7.96411,8.99,-1.02,0.59,2.0
1758088279.00223,1758088276.68646,0.0,0.0,0.0,8.70896,2.06265,-7.96411,8.96,-0.99,0.34,2.0
1758088279.00424,1758088276.69646,0.0,0.0,0.0,8.99544,-4.64096,-8.30789,8.96,-0.99,0.34,2.0
1758088279.02149,1758088276.70646,0.0,0.0,0.0,8.93814,-9.33921,-8.65166,9.17,-0.98,0.22,2.0
1758088279.02244,1758088276.71646,0.0,0.0,0.0,8.93814,-14.49583,-8.76626,9.17,-0.98,0.22,2.0
1758088279.03723,1758088276.72646,0.0,0.0,0.0,9.39651,-19.25138,-8.59437,9.43,-1.09,0.12,2.0
1758088279.05904,1758088276.73646,0.0,0.0,0.0,10.59972,-24.23611,-8.36518,9.79,-1.36,0.03,2.0
1758088279.06027,1758088276.74646,0.0,0.0,0.0,11.86023,-27.04361,-8.30789,9.79,-1.36,0.03,2.0
1758088279.06139,1758088276.75646,0.0,0.0,0.0,13.17803,-29.27814,-8.30789,9.89,-1.65,-0.01,2.0
1758088279.07805,1758088276.76646,0.0,0.0,0.0,15.0115,-31.79916,-7.79223,9.89,-1.65,-0.01,2.0
1758088279.09508,1758088276.77646,0.0,0.0,0.0,17.24603,-35.40879,-6.87549,9.93,-1.81,0.1,2.0
1758088279.0967,1758088276.78646,0.0,0.0,0.0,18.44924,-37.98711,-5.4431,9.93,-1.81,0.1,2.0
1758088279.11151,1758088276.79646,0.0,0.0,0.0,18.85031,-39.76327,-3.09397,10.8,-1.53,0.91,2.0
1758088279.11269,1758088276.80646,0.0,0.0,0.0,17.47521,-42.74266,0.0,10.8,-1.53,0.91,2.0
1758088279.13087,1758088276.81646,0.0,0.0,0.0,11.34457,-52.08187,6.41713,12.77,-0.48,2.19,2.0
1758088279.13221,1758088276.82646,0.0,0.0,0.0,5.72958,-56.20716,11.22997,13.66,0.32,3.37,2.0
1758088279.14806,1758088276.83646,0.0,0.0,0.0,-0.57296,-55.23313,15.29797,13.66,0.32,3.37,2.0
1758088279.15166,1758088276.84646,0.0,0.0,0.0,-10.65701,-46.35228,17.01685,13.7,0.54,1.99,2.0
1758088279.16739,1758088276.85646,0.0,0.0,0.0,-16.84496,-38.44547,14.72501,13.7,0.54,1.99,2.0
1758088279.18427,1758088276.86646,0.0,0.0,0.0,-22.05888,-31.51268,10.94349,11.85,-0.16,1.12,2.0
1758088279.18626,1758088276.87646,0.0,0.0,0.0,-26.06958,-24.5226,6.58902,11.85,-0.16,1.12,2.0
1758088279.20123,1758088276.88646,0.0,0.0,0.0,-28.30412,-13.34992,-0.0573,10.73,-0.95,0.93,2.0
1758088279.20593,1758088276.89646,0.0,0.0,0.0,-29.56462,-9.85487,-6.18794,10.23,-0.97,1.41,2.0
1758088279.22127,1758088276.90646,0.0,0.0,0.0,-27.10091,-21.60051,-6.35983,10.23,-0.97,1.41,2.0
1758088279.22358,1758088276.91646,0.0,0.0,0.0,-21.42862,-37.75792,-4.58366,8.43,-0.62,2.15,2.0
1758088279.23846,1758088276.92646,0.0,0.0,0.0,-12.54778,-38.78925,0.45837,8.43,-0.62,2.15,2.0
1758088279.24025,1758088276.93646,0.0,0.0,0.0,-5.61499,-30.82513,4.58366,10.45,-0.72,2.25,2.0
1758088279.25656,1758088276.94646,0.0,0.0,0.0,0.0573,-28.24682,7.96411,10.45,-0.72,2.25,2.0
1758088279.27252,1758088276.95645,0.0,0.0,0.0,3.20856,-29.04896,10.48513,9.56,-0.62,2.57,2.0
1758088279.27507,1758088276.96645,0.0,0.0,0.0,3.66693,-27.04361,12.49048,9.2,-0.32,3.37,2.0
1758088279.29052,1758088276.97645,0.0,0.0,0.0,1.66158,-23.37668,12.49048,9.2,-0.32,3.37,2.0
1758088279.29169,1758088276.98645,0.0,0.0,0.0,-1.14592,-18.9649,11.51645,9.86,0.26,2.08,2.0
1758088279.30652,1758088276.99645,0.0,0.0,0.0,-5.09932,-13.40721,10.19865,9.86,0.26,2.08,2.0
1758088279.32248,1758088277.00645,0.0,0.0,0.0,-11.28727,-4.52637,7.44845,10.31,0.76,1.73,2.0
1758088279.32419,1758088277.01645,0.0,0.0,0.0,-14.9542,1.20321,5.15662,10.31,0.76,1.73,2.0
1758088279.34037,1758088277.02645,0.0,0.0,0.0,-17.6471,7.10468,3.09397,10.45,0.9,1.23,2.0
1758088279.3412,1758088277.03645,0.0,0.0,0.0,-20.51189,12.60507,0.0573,10.45,0.9,1.23,2.0
1758088279.35646,1758088277.04645,0.0,0.0,0.0,-21.6578,19.99623,-1.48969,10.55,0.77,1.14,2.0
1758088279.37486,1758088277.05645,0.0,0.0,0.0,-22.28806,24.12152,-2.97938,10.28,0.56,1.05,2.0
1758088279.37662,1758088277.06645,0.0,0.0,0.0,-22.86102,27.33009,-4.0107,10.28,0.56,1.05,2.0
1758088279.39565,1758088277.07645,0.0,0.0,0.0,-23.37668,31.51268,-4.92744,10.06,0.4,1.12,2.0
1758088279.39666,1758088277.08645,0.0,0.0,0.0,-23.72045,34.43476,-5.09932,10.06,0.4,1.12,2.0
1758088279.41251,1758088277.09645,0.0,0.0,0.0,-24.17882,37.24226,-5.27121,10.03,0.24,1.25,2.0
1758088279.41502,1758088277.10645,0.0,0.0,0.0,-24.35071,38.73195,-5.61499,10.03,0.24,1.25,2.0
1758088279.43055,1758088277.11645,0.0,0.0,0.0,-24.4653,39.76327,-6.18794,9.77,0.02,1.34,2.0
1758088279.43144,1758088277.12645,0.0,0.0,0.0,-24.00693,40.45082,-6.35983,9.6,-0.2,1.23,2.0
1758088279.44624,1758088277.13645,0.0,0.0,0.0,-23.0902,40.10705,-6.58902,9.6,-0.2,1.23,2.0
1758088279.46218,1758088277.14645,0.0,0.0,0.0,-21.7724,39.07573,-6.47442,9.32,-0.33,1.17,2.0
1758088279.46335,1758088277.15645,0.0,0.0,0.0,-19.53786,37.58603,-5.90147,9.32,-0.33,1.17,2.0
1758088279.47839,1758088277.16645,0.0,0.0,0.0,-17.76169,36.38282,-5.55769,9.27,-0.39,1.12,2.0
1758088279.48016,1758088277.17645,0.0,0.0,0.0,-16.50119,34.49206,-5.32851,9.27,-0.39,1.12,2.0
1758088279.49619,1758088277.18645,0.0,0.0,0.0,-15.12609,32.37212,-5.09932,9.09,-0.32,1.09,2.0
1758088279.51248,1758088277.19645,0.0,0.0,0.0,-13.80828,29.96569,-4.23989,9.1,-0.21,1.13,2.0
1758088279.51503,1758088277.20645,0.0,0.0,0.0,-13.5218,28.01764,-4.1253,9.1,-0.21,1.13,2.0
1758088279.53022,1758088277.21645,0.0,0.0,0.0,-13.5791,25.43933,-4.35448,9.05,-0.05,1.14,2.0
1758088279.53219,1758088277.22645,0.0,0.0,0.0,-14.09476,22.00158,-5.32851,9.05,-0.05,1.14,2.0
1758088279.54741,1758088277.23645,0.0,0.0,0.0,-14.9542,16.55848,-5.95876,8.95,0.11,0.94,2.0
1758088279.5659,1758088277.24645,0.0,0.0,0.0,-15.41257,13.5791,-6.41713,8.95,0.11,0.94,2.0
1758088279.57189,1758088277.25645,0.0,0.0,0.0,-15.58445,11.17268,-6.58902,9.11,0.15,0.67,2.0
1758088279.57381,1758088277.26645,0.0,0.0,0.0,-15.06879,6.99009,-6.70361,9.11,0.15,0.67,2.0
1758088279.5915,1758088277.27645,0.0,0.0,0.0,-14.49583,4.87014,-6.70361,9.16,-0.04,0.55,2.0
1758088279.59412,1758088277.28645,0.0,0.0,0.0,-13.34992,2.46372,-5.95876,9.32,-0.39,0.47,2.0
1758088279.63132,1758088277.29645,0.0,0.0,0.0,-12.08941,-0.17189,-5.27121,9.32,-0.39,0.47,2.0
1758088279.63394,1758088277.30645,0.0,0.0,0.0,-9.96947,-3.49504,-3.72423,9.28,-0.62,0.4,2.0
1758088279.63535,1758088277.31645,0.0,0.0,0.0,-8.36518,-4.0107,-2.34913,9.28,-0.62,0.4,2.0
1758088279.63659,1758088277.32645,0.0,0.0,0.0,-6.53172,-4.46907,-0.97403,9.37,-0.72,0.42,2.0
1758088279.65224,1758088277.33645,0.0,0.0,0.0,-4.98473,-4.64096,0.11459,9.37,-0.72,0.42,2.0
1758088279.65425,1758088277.34645,0.0,0.0,0.0,-3.26586,-5.32851,1.60428,9.29,-0.6,0.53,2.0
1758088279.66947,1758088277.35645,0.0,0.0,0.0,-2.40642,-5.27121,2.40642,9.43,-0.39,0.5,2.0
1758088279.67208,1758088277.36645,0.0,0.0,0.0,-2.34913,-4.0107,2.86479,9.43,-0.39,0.5,2.0
1758088279.68751,1758088277.37645,0.0,0.0,0.0,-2.29183,-3.72423,3.72423,9.68,-0.24,0.36,2.0
1758088279.69083,1758088277.38645,0.0,0.0,0.0,-3.49504,-4.46907,4.23989,9.68,-0.24,0.36,2.0
1758088279.70649,1758088277.39645,0.0,0.0,0.0,-4.69825,-5.78687,4.64096,9.73,-0.12,0.25,2.0
1758088279.72225,1758088277.40645,0.0,0.0,0.0,-6.41713,-6.13065,4.92744,9.73,-0.12,0.25,2.0
1758088279.72594,1758088277.41645,0.0,0.0,0.0,-8.25059,-5.72958,5.21392,10.09,0.02,0.18,2.0
1758088279.74145,1758088277.42645,0.0,0.0,0.0,-10.8289,-2.86479,5.21392,10.48,0.23,0.26,2.0
1758088279.74347,1758088277.43645,0.0,0.0,0.0,-12.71966,-1.3178,4.87014,10.48,0.23,0.26,2.0
1758088279.759,1758088277.44645,0.0,0.0,0.0,-14.83961,-0.97403,3.55234,10.4,0.48,0.41,2.0
1758088279.76021,1758088277.45645,0.0,0.0,0.0,-17.53251,-4.23989,1.43239,10.4,0.48,0.41,2.0
1758088279.77648,1758088277.46645,0.0,0.0,0.0,-19.42327,-6.24524,0.0,10.03,0.67,0.25,2.0
1758088279.79246,1758088277.47645,0.0,0.0,0.0,-20.85567,-7.84952,-1.08862,10.03,0.67,0.25,2.0
1758088279.79503,1758088277.48645,0.0,0.0,0.0,-22.28806,-9.39651,-2.29183,10.09,0.73,0.0,2.0
1758088279.81018,1758088277.49645,0.0,0.0,0.0,-23.72045,-12.89155,-3.03668,10.09,0.73,-0.28,2.0
1758088279.8114,1758088277.50645,0.0,0.0,0.0,-24.5226,-14.03747,-2.63561,9.95,0.64,-0.28,2.0
1758088279.82622,1758088277.51645,0.0,0.0,0.0,-25.09555,-13.86558,-1.48969,10.04,0.37,-0.41,2.0
1758088279.84214,1758088277.52645,0.0,0.0,0.0,-25.8404,-12.43318,0.0,10.04,0.37,-0.41,2.0
1758088279.84417,1758088277.53645,0.0,0.0,0.0,-27.33009,-9.22462,2.86479,10.13,0.11,-0.29,2.0
1758088279.85941,1758088277.54645,0.0,0.0,0.0,-28.59059,-8.76626,4.52637,10.13,0.11,-0.29,2.0
1758088279.86148,1758088277.55645,0.0,0.0,0.0,-29.62192,-10.71431,5.72958,9.87,0.03,0.05,2.0
1758088279.87797,1758088277.56645,0.0,0.0,0.0,-29.62192,-16.84496,5.61499,9.87,0.03,0.05,2.0
1758088279.88074,1758088277.57645,0.0,0.0,0.0,-26.12688,-36.03905,0.57296,10.22,-0.29,1.29,2.0
1758088279.89652,1758088277.58645,0.0,0.0,0.0,-22.51724,-47.61279,-5.21392,11.51,-0.96,2.79,2.0
1758088279.91567,1758088277.59645,0.0,0.0,0.0,-17.76169,-61.65026,-11.17268,11.51,-0.96,2.79,2.0
1758088279.91657,1758088277.60645,0.0,0.0,0.0,-12.89155,-77.52119,-17.53251,12.5,-1.5,2.46,2.0
1758088279.93245,1758088277.61645,0.0,0.0,0.0,-6.99009,-79.18277,-23.60586,12.5,-1.5,2.46,2.0
1758088279.93338,1758088277.62645,0.0,0.0,0.0,-3.26586,-59.35843,-24.35071,14.14,-1.39,1.49,2.0
1758088279.9482,1758088277.63645,0.0,0.0,0.0,0.0,-49.21708,-22.40265,14.14,-1.39,1.49,2.0
1758088279.95177,1758088277.64645,0.0,0.0,0.0,2.00535,-52.71212,-15.87093,11.61,-0.46,0.8,2.0
1758088279.96714,1758088277.65645,0.0,0.0,0.0,1.66158,-54.88936,-10.19865,7.85,0.35,1.63,2.0
1758088279.98423,1758088277.66645,0.0,0.0,0.0,1.3178,-52.65482,-3.55234,7.85,0.35,1.63,2.0
1758088279.98619,1758088277.67645,0.0,0.0,0.0,0.57296,-46.1231,3.03668,8.07,0.17,0.45,2.0
1758088280.00121,1758088277.68645,0.0,0.0,0.0,-1.08862,-34.37747,10.19865,8.07,0.17,0.45,2.0
1758088280.00428,1758088277.69645,0.0,0.0,0.0,-2.86479,-26.01229,11.97482,9.11,-0.54,1.8,2.0
1758088280.01943,1758088277.70645,0.0,0.0,0.0,-4.87014,-20.34,11.80293,9.11,-0.54,1.8,2.0
1758088280.02144,1758088277.71645,0.0,0.0,0.0,-6.99009,-16.90226,9.62569,9.87,-0.94,2.33,2.0
1758088280.03983,1758088277.72645,0.0,0.0,0.0,-9.74028,-13.46451,3.95341,10.29,-0.96,1.61,2.0
1758088280.04076,1758088277.73645,0.0,0.0,0.0,-11.28727,-9.96947,0.45837,10.29,-0.96,1.61,2.0
1758088280.05649,1758088277.74645,0.0,0.0,0.0,-12.83425,-2.34913,-2.23454,11.15,-0.68,0.35,2.0
1758088280.07543,1758088277.75645,0.0,0.0,0.0,-14.15206,7.04738,-3.60963,11.15,-0.68,0.35,2.0
1758088280.07696,1758088277.76645,0.0,0.0,0.0,-16.04282,22.00158,-2.11994,11.89,-0.51,0.35,2.0
1758088280.09252,1758088277.77645,0.0,0.0,0.0,-16.61578,28.76248,-0.40107,11.89,-0.51,0.35,2.0
1758088280.09656,1758088277.78645,0.0,0.0,0.0,-16.84496,34.49206,1.43239,11.04,-0.46,0.85,2.0
1758088280.1154,1758088277.79645,0.0,0.0,0.0,-16.55848,37.52874,3.09397,11.04,-0.46,0.85,2.0
1758088280.11683,1758088277.80645,0.0,0.0,0.0,-14.9542,37.64333,5.27121,10.08,-0.78,0.67,2.0
1758088280.1362,1758088277.81645,0.0,0.0,0.0,-13.46451,36.95578,6.41713,9.8,-1.19,0.33,2.0
1758088280.1381,1758088277.82645,0.0,0.0,0.0,-11.74564,36.7266,6.99009,9.8,-1.19,0.33,2.0
1758088280.15397,1758088277.83645,0.0,0.0,0.0,-8.47978,37.52874,7.62034,9.93,-1.4,0.34,2.0
1758088280.15626,1758088277.84645,0.0,0.0,0.0,-6.24524,37.81522,7.50575,9.93,-1.4,0.34,2.0
1758088280.17143,1758088277.85645,0.0,0.0,0.0,-4.1253,37.35685,7.33386,9.73,-1.38,0.56,2.0
1758088280.17403,1758088277.86645,0.0,0.0,0.0,-2.06265,36.03905,7.16197,9.73,-1.38,0.56,2.0
1758088280.1894,1758088277.87645,0.0,0.0,0.0,0.45837,34.43476,6.8182,9.55,-1.26,0.66,2.0
1758088280.1906,1758088277.88645,0.0,0.0,0.0,2.11994,33.63263,6.70361,9.59,-1.05,1.04,2.0
1758088280.2064,1758088277.89645,0.0,0.0,0.0,3.60963,32.08564,6.47442,9.59,-1.05,1.04,2.0
1758088280.22218,1758088277.90645,0.0,0.0,0.0,4.52637,29.62192,6.13065,9.33,-0.81,0.85,2.0
1758088280.22334,1758088277.91645,0.0,0.0,0.0,4.46907,25.21014,4.69825,9.33,-0.81,0.85,2.0
1758088280.23991,1758088277.92645,0.0,0.0,0.0,3.95341,22.34536,3.95341,9.14,-0.59,0.83,2.0
1758088280.2412,1758088277.93645,0.0,0.0,0.0,3.60963,19.88164,3.66693,9.14,-0.59,0.83,2.0
1758088280.25641,1758088277.94645,0.0,0.0,0.0,3.32316,17.99088,3.66693,9.1,-0.54,0.79,2.0
1758088280.27243,1758088277.95645,0.0,0.0,0.0,3.09397,14.66772,3.83882,9.07,-0.74,0.62,2.0
1758088280.27414,1758088277.96645,0.0,0.0,0.0,3.38045,11.97482,4.23989,9.07,-0.74,0.62,2.0
1758088280.29101,1758088277.97645,0.0,0.0,0.0,3.60963,10.02676,4.52637,9.0,-1.06,0.47,2.0
1758088280.29234,1758088277.98645,0.0,0.0,0.0,3.83882,9.39651,4.46907,9.0,-1.06,0.47,2.0
1758088280.30877,1758088277.99645,0.0,0.0,0.0,3.89611,9.85487,4.18259,9.12,-1.26,0.14,2.0
1758088280.3124,1758088278.00645,0.0,0.0,0.0,4.18259,10.19865,3.32316,9.12,-1.26,0.14,2.0
1758088280.32717,1758088278.01645,0.0,0.0,0.0,3.95341,10.37054,2.34913,9.11,-1.14,0.17,2.0
1758088280.34441,1758088278.02645,0.0,0.0,0.0,3.95341,11.22997,0.97403,9.11,-1.14,0.17,2.0
1758088280.34652,1758088278.03645,0.0,0.0,0.0,4.1253,11.91752,-0.17189,9.13,-0.8,0.12,2.0
1758088280.36139,1758088278.04645,0.0,0.0,0.0,4.29718,12.2613,-1.08862,9.24,-0.49,0.12,2.0
1758088280.36348,1758088278.05645,0.0,0.0,0.0,4.64096,12.71966,-2.23454,9.24,-0.49,0.12,2.0
1758088280.37837,1758088278.06645,0.0,0.0,0.0,5.15662,13.40721,-3.49504,9.39,-0.4,0.26,2.0
1758088280.39415,1758088278.07645,0.0,0.0,0.0,5.50039,12.60507,-3.95341,9.39,-0.4,0.26,2.0
1758088280.3954,1758088278.08645,0.0,0.0,0.0,6.35983,11.00079,-4.18259,9.37,-0.53,0.31,2.0
1758088280.41015,1758088278.09645,0.0,0.0,0.0,7.10468,8.70896,-4.23989,9.37,-0.53,0.31,2.0
1758088280.41178,1758088278.10645,0.0,0.0,0.0,8.36518,4.1253,-4.23989,9.41,-0.72,0.29,2.0
1758088280.42618,1758088278.11645,0.0,0.0,0.0,9.4538,1.08862,-4.0107,9.47,-0.87,0.05,2.0
1758088280.43182,1758088278.12645,0.0,0.0,0.0,10.54242,-2.34913,-4.23989,9.47,-0.87,0.05,2.0
1758088280.44713,1758088278.13645,0.0,0.0,0.0,11.63104,-4.46907,-4.29718,9.62,-0.94,-0.16,2.0
1758088280.46443,1758088278.14645,0.0,0.0,0.0,13.34992,-5.27121,-4.69825,9.62,-0.94,-0.16,2.0
1758088280.46618,1758088278.15645,0.0,0.0,0.0,14.66772,-4.46907,-4.64096,10.11,-1.02,-0.18,2.0
1758088280.48136,1758088278.16645,0.0,0.0,0.0,15.58445,-3.66693,-4.52637,10.11,-1.02,-0.18,2.0
1758088280.48229,1758088278.17645,0.0,0.0,0.0,16.84496,-2.86479,-4.23989,10.32,-1.14,-0.08,2.0
1758088280.4973,1758088278.18645,0.0,0.0,0.0,18.22006,-2.29183,-3.49504,10.31,-1.26,-0.05,2.0
1758088280.51421,1758088278.19645,0.0,0.0,0.0,18.9649,-2.7502,-3.20856,10.31,-1.26,-0.05,2.0
1758088280.51533,1758088278.20645,0.0,0.0,0.0,19.76705,-3.55234,-3.09397,10.19,-1.29,-0.37,2.0
1758088280.5312,1758088278.21645,0.0,0.0,0.0,20.16812,-4.92744,-3.03668,10.19,-1.29,-0.37,2.0
1758088280.53233,1758088278.22645,0.0,0.0,0.0,20.16812,-9.28192,-3.55234,10.05,-1.24,-0.63,2.0
1758088280.54902,1758088278.23645,0.0,0.0,0.0,20.22541,-13.5791,-4.35448,10.05,-1.24,-0.63,2.0
1758088280.55152,1758088278.24645,0.0,0.0,0.0,20.45459,-16.84496,-5.09932,9.71,-1.12,-0.81,2.0
1758088280.56739,1758088278.25645,0.0,0.0,0.0,20.51189,-16.73037,-7.04738,9.71,-1.12,-0.81,2.0
1758088280.57156,1758088278.26645,0.0,0.0,0.0,21.37133,-13.86558,-7.96411,9.8,-0.96,-1.13,2.0
1758088280.58901,1758088278.27645,0.0,0.0,0.0,21.25674,-12.60507,-7.96411,10.74,-0.7,-0.22,2.0
1758088280.59501,1758088278.28645,0.0,0.0,0.0,20.68378,-17.93358,-5.27121,10.74,-0.7,-0.22,2.0
1758088280.61014,1758088278.29645,0.0,0.0,0.0,17.53251,-38.38818,1.77617,11.39,0.01,1.84,2.0
1758088280.61133,1758088278.30645,0.0,0.0,0.0,13.5218,-49.67545,8.25059,11.39,0.01,1.84,2.0
1758088280.62615,1758088278.31645,0.0,0.0,0.0,8.99544,-48.24305,12.83425,13.05,0.14,3.44,2.0
1758088280.64244,1758088278.32645,0.0,0.0,0.0,4.29718,-38.78925,17.24603,13.05,0.14,3.44,2.0
1758088280.6441,1758088278.33645,0.0,0.0,0.0,-2.23454,-33.11696,19.99623,15.3,0.23,2.92,2.0
1758088280.65912,1758088278.34645,0.0,0.0,0.0,-6.07335,-36.84119,15.29797,11.83,-0.56,2.56,2.0
1758088280.66138,1758088278.35645,0.0,0.0,0.0,-6.8182,-49.61814,11.00079,11.83,-0.56,2.56,2.0
1758088280.67786,1758088278.36645,0.0,0.0,0.0,-5.90147,-61.70755,7.44845,8.13,-1.31,0.84,2.0
1758088280.6949,1758088278.37645,0.0,0.0,0.0,-1.83346,-56.60823,5.95876,8.13,-1.31,0.84,2.0
1758088280.69635,1758088278.38645,0.0,0.0,0.0,1.71887,-46.52417,4.29718,9.44,-1.59,0.65,2.0
1758088280.7111,1758088278.39645,0.0,0.0,0.0,6.47442,-43.54479,3.60963,9.44,-1.59,0.65,2.0
1758088280.71391,1758088278.40645,0.0,0.0,0.0,10.02676,-41.88322,2.40642,8.13,-1.18,1.31,2.0
1758088280.73004,1758088278.41645,0.0,0.0,0.0,13.5791,-34.89313,1.71887,9.06,-0.56,3.26,2.0
1758088280.7311,1758088278.42645,0.0,0.0,0.0,15.29797,-28.59059,1.66158,9.06,-0.56,3.26,2.0
1758088280.74612,1758088278.43645,0.0,0.0,0.0,15.75634,-22.40265,1.66158,10.54,0.3,2.42,2.0
1758088280.76212,1758088278.44645,0.0,0.0,0.0,14.83961,-16.21471,2.86479,10.54,0.3,2.42,2.0
1758088280.76442,1758088278.45645,0.0,0.0,0.0,13.80828,-8.02141,3.49504,11.3,0.75,1.79,2.0
1758088280.77935,1758088278.46645,0.0,0.0,0.0,13.06344,-1.60428,3.32316,11.3,0.75,1.79,2.0
1758088280.78109,1758088278.47645,0.0,0.0,0.0,12.49048,6.8182,2.6929,11.38,0.54,0.66,2.0
1758088280.79738,1758088278.48645,0.0,0.0,0.0,12.08941,19.48057,0.74485,11.38,0.54,0.66,2.0
1758088280.81399,1758088278.49645,0.0,0.0,0.0,11.74564,26.24147,-0.97403,11.33,0.05,0.6,2.0
1758088280.81543,1758088278.50645,0.0,0.0,0.0,11.28727,32.54401,-2.6929,10.53,-0.22,0.98,2.0
1758088280.83039,1758088278.51645,0.0,0.0,0.0,10.59972,37.98711,-4.1253,10.53,-0.22,0.98,2.0
1758088280.83162,1758088278.52645,0.0,0.0,0.0,8.70896,43.4875,-5.72958,9.96,-0.06,1.12,2.0
1758088280.84639,1758088278.53645,0.0,0.0,0.0,7.16197,43.14373,-5.90147,9.96,-0.06,1.12,2.0
1758088280.86215,1758088278.54645,0.0,0.0,0.0,5.15662,41.88322,-5.84417,9.35,0.27,0.99,2.0
1758088280.86442,1758088278.55645,0.0,0.0,0.0,3.03668,41.71133,-5.32851,9.35,0.27,0.99,2.0
1758088280.87916,1758088278.56645,0.0,0.0,0.0,-0.17189,43.14373,-4.81285,9.5,0.5,0.88,2.0
1758088280.88034,1758088278.57645,0.0,0.0,0.0,-1.83346,43.4875,-4.52637,9.45,0.52,0.77,2.0
1758088280.89626,1758088278.58645,0.0,0.0,0.0,-3.32316,44.00316,-4.46907,9.45,0.52,0.77,2.0
1758088280.91715,1758088278.59645,0.0,0.0,0.0,-4.35448,44.748,-4.58366,9.3,0.35,0.92,2.0
1758088280.92611,1758088278.60645,0.0,0.0,0.0,-5.21392,45.14908,-4.23989,9.3,0.35,0.92,2.0
1758088280.92672,1758088278.61645,0.0,0.0,0.0,-4.98473,44.8053,-4.23989,9.21,0.17,0.96,2.0
1758088280.94309,1758088278.62645,0.0,0.0,0.0,-4.92744,43.94586,-4.23989,9.21,0.17,0.96,2.0
1758088280.94437,1758088278.63645,0.0,0.0,0.0,-4.18259,42.22699,-3.49504,9.22,0.03,1.0,2.0
1758088280.95913,1758088278.64645,0.0,0.0,0.0,-3.49504,39.19032,-2.6929,9.42,-0.08,0.97,2.0
1758088280.96143,1758088278.65645,0.0,0.0,0.0,-3.32316,37.87251,-2.23454,9.42,-0.08,0.97,2.0
1758088280.97727,1758088278.66645,0.0,0.0,0.0,-3.83882,36.38282,-2.34913,9.61,-0.1,0.9,2.0
1758088280.99402,1758088278.67645,0.0,0.0,0.0,-5.09932,32.08564,-2.57831,9.61,-0.1,0.9,2.0
1758088280.99515,1758088278.68645,0.0,0.0,0.0,-6.18794,29.67921,-2.46372,9.41,0.04,0.62,2.0
1758088281.01096,1758088278.69645,0.0,0.0,0.0,-7.67763,28.30412,-2.57831,9.41,0.04,0.62,2.0
1758088281.01486,1758088278.70645,0.0,0.0,0.0,-9.22462,26.69983,-2.6929,9.41,0.22,0.56,2.0
1758088281.03014,1758088278.71645,0.0,0.0,0.0,-11.63104,23.26209,-3.26586,9.1,0.22,0.56,2.0
1758088281.03134,1758088278.72645,0.0,0.0,0.0,-13.00614,19.82434,-3.26586,9.1,0.37,0.56,2.0
1758088281.04615,1758088278.73645,0.0,0.0,0.0,-14.38124,15.87093,-3.09397,8.83,0.36,0.67,2.0
1758088281.06215,1758088278.74645,0.0,0.0,0.0,-15.41257,10.37054,-2.57831,8.83,0.36,0.67,2.0
1758088281.06377,1758088278.75645,0.0,0.0,0.0,-16.84496,5.21392,-1.94806,8.68,0.2,0.46,2.0
1758088281.08163,1758088278.76645,0.0,0.0,0.0,-17.58981,4.29718,-1.3751,8.68,0.2,0.46,2.0
1758088281.08251,1758088278.77645,0.0,0.0,0.0,-18.16276,4.23989,-0.45837,9.08,0.07,0.39,2.0
1758088281.09816,1758088278.78645,0.0,0.0,0.0,-18.79302,4.0107,0.34377,9.08,0.07,0.39,2.0
1758088281.10183,1758088278.79645,0.0,0.0,0.0,-20.22541,2.23454,1.3178,9.36,0.06,0.6,2.0
1758088281.12141,1758088278.80645,0.0,0.0,0.0,-21.7151,0.74485,1.3751,9.57,0.13,0.63,2.0
1758088281.12345,1758088278.81645,0.0,0.0,0.0,-23.49127,-0.17189,1.43239,9.57,0.13,0.63,2.0
1758088281.14137,1758088278.82645,0.0,0.0,0.0,-25.38203,-0.17189,1.08862,9.83,0.13,0.42,2.0
1758088281.1456,1758088278.83645,0.0,0.0,0.0,-28.01764,0.45837,0.45837,9.83,0.13,0.42,2.0
1758088281.16146,1758088278.84645,0.0,0.0,0.0,-29.56462,-0.68755,0.34377,10.02,0.06,0.34,2.0
1758088281.16559,1758088278.85645,0.0,0.0,0.0,-30.82513,-2.46372,-0.11459,10.02,0.06,0.34,2.0
1758088281.18137,1758088278.86645,0.0,0.0,0.0,-32.6013,-3.03668,-0.68755,10.12,0.11,0.39,2.0
1758088281.18413,1758088278.87645,0.0,0.0,0.0,-34.0337,-2.40642,-1.3178,10.49,0.32,0.33,2.0
1758088281.19923,1758088278.88645,0.0,0.0,0.0,-35.63798,-2.40642,-2.11994,10.49,0.32,0.33,2.0
1758088281.20034,1758088278.89645,0.0,0.0,0.0,-37.35685,-3.20856,-2.92208,10.31,0.6,0.21,2.0
1758088281.21616,1758088278.90645,0.0,0.0,0.0,-40.7946,-3.09397,-3.83882,10.31,0.6,0.21,2.0
1758088281.23309,1758088278.91645,0.0,0.0,0.0,-42.97184,-2.34913,-4.69825,10.37,0.8,0.03,2.0
1758088281.2349,1758088278.92645,0.0,0.0,0.0,-45.20637,-1.94806,-5.55769,10.37,0.8,0.03,2.0
1758088281.25013,1758088278.93645,0.0,0.0,0.0,-47.61279,-2.92208,-6.24524,10.26,0.89,-0.23,2.0
1758088281.25132,1758088278.94645,0.0,0.0,0.0,-50.13381,-2.11994,-5.55769,10.31,0.67,-0.38,2.0
1758088281.26611,1758088278.95645,0.0,0.0,0.0,-51.27972,0.0573,-4.92744,10.31,0.67,-0.38,2.0
1758088281.28253,1758088278.96645,0.0,0.0,0.0,-51.85268,1.3178,-4.64096,10.78,0.24,0.29,2.0
1758088281.28411,1758088278.97645,0.0,0.0,0.0,-50.87865,-1.66158,-5.55769,10.78,0.24,0.29,2.0
1758088281.30111,1758088278.98645,0.0,0.0,0.0,-46.86795,-16.95955,-9.5684,11.18,-0.39,1.57,2.0
1758088281.30553,1758088278.99645,0.0,0.0,0.0,-42.91454,-32.48671,-13.40721,11.18,-0.39,1.57,2.0
1758088281.32113,1758088279.00645,0.0,0.0,0.0,-38.21629,-46.06581,-18.10547,11.29,-1.05,2.6,2.0
1758088281.32341,1758088279.01645,0.0,0.0,0.0,-32.54401,-53.62885,-21.7151,11.29,-1.05,2.6,2.0
1758088281.33814,1758088279.02645,0.0,0.0,0.0,-23.31938,-58.4417,-24.80907,12.04,-1.61,1.8,2.0
1758088281.34009,1758088279.03645,0.0,0.0,0.0,-17.53251,-58.04062,-24.23611,11.34,-1.84,1.11,2.0
1758088281.35641,1758088279.04645,0.0,0.0,0.0,-12.37589,-55.23313,-21.25674,11.34,-1.84,1.11,2.0
1758088281.37209,1758088279.05645,0.0,0.0,0.0,-7.73493,-55.51962,-14.15206,9.55,-1.25,0.68,2.0
1758088281.37488,1758088279.06645,0.0,0.0,0.0,-7.21927,-61.36378,-9.22462,9.55,-1.25,0.68,2.0
1758088281.39121,1758088279.07645,0.0,0.0,0.0,-8.36518,-65.83286,-3.89611,7.94,-0.44,0.77,2.0
1758088281.39367,1758088279.08645,0.0,0.0,0.0,-11.63104,-56.55093,0.0573,7.94,-0.44,0.77,2.0
1758088281.41097,1758088279.09645,0.0,0.0,0.0,-20.45459,-36.6693,2.23454,9.9,0.04,1.02,2.0
1758088281.41218,1758088279.10645,0.0,0.0,0.0,-27.04361,-32.6013,0.85944,10.41,0.05,2.54,2.0
1758088281.42733,1758088279.11645,0.0,0.0,0.0,-32.20023,-33.9764,-1.08862,10.41,0.05,2.54,2.0
1758088281.44348,1758088279.12645,0.0,0.0,0.0,-35.69527,-33.46074,-3.49504,9.65,-0.06,3.13,2.0
1758088281.44604,1758088279.13645,0.0,0.0,0.0,-37.18496,-24.23611,-6.53172,9.65,-0.06,3.13,2.0
1758088281.46137,1758088279.14645,0.0,0.0,0.0,-37.12767,-15.41257,-8.30789,10.66,-0.52,1.73,2.0
1758088281.46342,1758088279.15645,0.0,0.0,0.0,-36.6693,-6.7609,-9.28192,10.66,-0.52,1.73,2.0
1758088281.4781,1758088279.16645,0.0,0.0,0.0,-35.98175,0.45837,-9.22462,10.97,-1.18,1.26,2.0
1758088281.48009,1758088279.17645,0.0,0.0,0.0,-35.06502,9.62569,-7.50575,10.73,-1.42,0.98,2.0
1758088281.49608,1758088279.18645,0.0,0.0,0.0,-34.77854,16.04282,-5.61499,10.73,-1.42,0.98,2.0
1758088281.51322,1758088279.19645,0.0,0.0,0.0,-34.32018,23.20479,-2.7502,10.84,-1.37,0.74,2.0
1758088281.52004,1758088279.20645,0.0,0.0,0.0,-34.26288,31.2262,-0.22918,10.84,-1.37,0.74,2.0
1758088281.52045,1758088279.21645,0.0,0.0,0.0,-33.51803,40.96649,2.6929,10.99,-1.33,1.08,2.0
1758088281.53617,1758088279.22645,0.0,0.0,0.0,-32.42941,45.37826,3.89611,10.99,-1.33,1.08,2.0
1758088281.55482,1758088279.23645,0.0,0.0,0.0,-30.99702,46.69606,4.87014,10.6,-1.37,1.08,2.0
1758088281.55651,1758088279.24645,0.0,0.0,0.0,-29.50733,46.46688,4.98473,10.6,-1.37,1.08,2.0
1758088281.57633,1758088279.25645,0.0,0.0,0.0,-27.38738,46.00851,4.64096,10.1,-1.42,0.87,2.0
1758088281.57897,1758088279.26645,0.0,0.0,0.0,-26.12688,45.83662,4.29718,9.98,-1.39,0.73,2.0
1758088281.59597,1758088279.27645,0.0,0.0,0.0,-24.92367,45.43555,3.60963,9.98,-1.39,0.73,2.0
1758088281.5969,1758088279.28645,0.0,0.0,0.0,-23.0329,44.51882,2.97938,9.64,-1.24,0.98,2.0
1758088281.61319,1758088279.29645,0.0,0.0,0.0,-22.23076,43.02913,2.7502,9.64,-1.24,0.98,2.0
1758088281.61972,1758088279.30645,0.0,0.0,0.0,-21.60051,40.39353,2.40642,9.22,-1.04,1.04,2.0
1758088281.62138,1758088279.31645,0.0,0.0,0.0,-20.85567,38.44547,2.00535,9.22,-1.04,1.04,2.0
1758088281.63851,1758088279.32645,0.0,0.0,0.0,-20.45459,35.3515,1.43239,8.98,-0.89,1.0,2.0
1758088281.64053,1758088279.33645,0.0,0.0,0.0,-19.99623,33.51803,1.03132,8.88,-0.84,1.01,2.0
1758088281.65733,1758088279.34645,0.0,0.0,0.0,-19.42327,31.39809,0.74485,8.88,-0.84,1.01,2.0
1758088281.66066,1758088279.35645,0.0,0.0,0.0,-18.44924,29.62192,0.51566,8.77,-0.95,1.0,2.0
1758088281.67625,1758088279.36645,0.0,0.0,0.0,-16.67307,26.18417,0.51566,8.77,-0.95,1.0,2.0
1758088281.69554,1758088279.37645,0.0,0.0,0.0,-15.41257,23.66316,0.40107,8.72,-1.19,0.92,2.0
1758088281.69678,1758088279.38645,0.0,0.0,0.0,-13.98017,22.05888,0.11459,8.72,-1.19,0.92,2.0
1758088281.71239,1758088279.39645,0.0,0.0,0.0,-12.60507,19.25138,-0.0573,8.84,-1.5,0.79,2.0
1758088281.71647,1758088279.40645,0.0,0.0,0.0,-10.08406,16.50119,-0.22918,8.93,-1.72,0.65,2.0
1758088281.73236,1758088279.41645,0.0,0.0,0.0,-8.36518,17.01685,-0.45837,8.93,-1.72,0.65,2.0
1758088281.73491,1758088279.42645,0.0,0.0,0.0,-6.70361,17.87628,-0.97403,9.28,-1.74,0.53,2.0
1758088281.75087,1758088279.43645,0.0,0.0,0.0,-4.81285,18.10547,-1.48969,9.28,-1.74,0.53,2.0
1758088281.75561,1758088279.44645,0.0,0.0,0.0,-1.83346,17.99088,-2.34913,9.18,-1.53,0.55,2.0
1758088281.77015,1758088279.45645,0.0,0.0,0.0,0.11459,18.33465,-2.92208,9.18,-1.53,0.55,2.0
1758088281.77127,1758088279.46645,0.0,0.0,0.0,2.34913,18.62113,-3.20856,9.21,-1.26,0.54,2.0
1758088281.80794,1758088279.47645,0.0,0.0,0.0,5.61499,18.79302,-3.89611,9.21,-1.26,0.54,2.0
1758088281.81222,1758088279.48645,0.0,0.0,0.0,7.73493,17.53251,-4.18259,9.19,-1.01,0.62,2.0
1758088281.81473,1758088279.49645,0.0,0.0,0.0,9.91217,15.35527,-4.18259,9.09,-0.83,0.65,2.0
1758088281.81727,1758088279.50645,0.0,0.0,0.0,11.80293,13.06344,-4.46907,9.09,-0.83,0.65,2.0
1758088281.83386,1758088279.51645,0.0,0.0,0.0,13.86558,6.58902,-4.64096,9.05,-0.76,0.49,2.0
1758088281.83596,1758088279.52645,0.0,0.0,0.0,14.9542,0.57296,-4.64096,9.05,-0.76,0.49,2.0
1758088281.85113,1758088279.53645,0.0,0.0,0.0,15.46986,-5.72958,-4.58366,8.9,-0.79,0.31,2.0
1758088281.8539,1758088279.54645,0.0,0.0,0.0,15.46986,-11.17268,-4.58366,8.9,-0.79,0.31,2.0
1758088281.87068,1758088279.55645,0.0,0.0,0.0,14.9542,-16.21471,-4.87014,9.43,-0.92,0.02,2.0
1758088281.87666,1758088279.56645,0.0,0.0,0.0,14.61043,-17.93358,-5.09932,10.12,-1.15,0.0,2.0
1758088281.89667,1758088279.57645,0.0,0.0,0.0,14.15206,-19.07949,-4.98473,10.12,-1.15,0.0,2.0
1758088281.89764,1758088279.58645,0.0,0.0,0.0,13.98017,-19.25138,-4.69825,10.46,-1.45,0.11,2.0
1758088281.91493,1758088279.59645,0.0,0.0,0.0,14.03747,-19.53786,-3.83882,10.46,-1.45,0.11,2.0
1758088281.91589,1758088279.60645,0.0,0.0,0.0,14.20935,-18.56383,-3.20856,10.51,-1.69,0.12,2.0
1758088281.93112,1758088279.61645,0.0,0.0,0.0,14.72501,-17.24603,-2.34913,10.51,-1.69,0.12,2.0
1758088281.93645,1758088279.62645,0.0,0.0,0.0,15.24068,-16.10011,-1.94806,10.47,-1.78,-0.08,2.0
1758088281.95117,1758088279.63645,0.0,0.0,0.0,16.3293,-15.64175,-1.3178,10.16,-1.74,-0.42,2.0
1758088281.95658,1758088279.64645,0.0,0.0,0.0,17.30333,-15.24068,-1.14592,10.16,-1.74,-0.42,2.0
1758088281.97134,1758088279.65645,0.0,0.0,0.0,18.50654,-14.03747,-1.03132,10.32,-1.47,-0.06,2.0
1758088281.97392,1758088279.66645,0.0,0.0,0.0,19.53786,-13.5218,0.0,10.32,-1.47,-0.06,2.0
1758088281.99067,1758088279.67645,0.0,0.0,0.0,18.73572,-22.91831,2.6929,11.57,-0.47,1.08,2.0
1758088281.99187,1758088279.68645,0.0,0.0,0.0,15.98552,-35.75257,6.35983,11.57,-0.47,1.08,2.0
1758088282.0087,1758088279.69645,0.0,0.0,0.0,12.89155,-49.04519,11.51645,12.07,0.52,3.22,2.0
1758088282.01387,1758088279.70645,0.0,0.0,0.0,5.95876,-55.11855,18.44924,12.07,0.52,3.22,2.0
1758088282.03095,1758088279.71645,0.0,0.0,0.0,0.45837,-55.34772,22.34536,13.09,0.83,3.04,2.0
1758088282.03432,1758088279.72645,0.0,0.0,0.0,-5.21392,-50.93595,23.0902,12.68,0.29,2.51,2.0
1758088282.05067,1758088279.73645,0.0,0.0,0.0,-10.48513,-48.8733,20.45459,12.68,0.29,2.51,2.0
1758088282.05187,1758088279.74645,0.0,0.0,0.0,-13.86558,-41.65404,13.86558,10.14,-1.12,1.72,2.0
1758088282.06732,1758088279.75645,0.0,0.0,0.0,-15.12609,-44.17505,8.47978,10.14,-1.12,1.72,2.0
1758088282.08335,1758088279.76645,0.0,0.0,0.0,-12.37589,-48.70141,3.66693,8.3,-1.78,1.35,2.0
1758088282.08446,1758088279.77645,0.0,0.0,0.0,-4.35448,-52.42564,2.92208,8.3,-1.78,1.35,2.0
1758088282.10115,1758088279.78645,0.0,0.0,0.0,10.08406,-47.09713,4.23989,8.59,-1.92,1.96,2.0
1758088282.10357,1758088279.79645,0.0,0.0,0.0,18.79302,-41.36755,5.78687,10.34,-1.14,2.36,2.0
1758088282.11816,1758088279.80645,0.0,0.0,0.0,24.92367,-35.3515,7.21927,10.34,-1.14,2.36,2.0
1758088282.12007,1758088279.81645,0.0,0.0,0.0,27.78845,-28.59059,8.76626,11.1,0.12,2.87,2.0
1758088282.13639,1758088279.82645,0.0,0.0,0.0,26.69983,-17.24603,10.08406,11.1,0.12,2.87,2.0
1758088282.15451,1758088279.83645,0.0,0.0,0.0,23.31938,-10.48513,10.59972,11.33,1.06,2.22,2.0
1758088282.15919,1758088279.84645,0.0,0.0,0.0,18.79302,-4.35448,10.31324,11.33,1.06,2.22,2.0
1758088282.17518,1758088279.85645,0.0,0.0,0.0,11.86023,1.3178,8.02141,10.73,1.19,1.49,2.0
1758088282.17609,1758088279.86645,0.0,0.0,0.0,7.44845,11.45916,5.55769,10.3,0.54,1.13,2.0
1758088282.19129,1758088279.87645,0.0,0.0,0.0,4.0107,17.6471,3.20856,10.3,0.54,1.13,2.0
1758088282.19397,1758088279.88645,0.0,0.0,0.0,1.71887,22.91831,0.85944,10.3,0.05,1.14,2.0
1758088282.20941,1758088279.89645,0.0,0.0,0.0,-0.34377,28.36141,-1.60428,10.3,0.05,1.14,2.0
1758088282.21027,1758088279.90645,0.0,0.0,0.0,-1.71887,30.76784,-2.7502,10.1,0.13,1.22,2.0
1758088282.22709,1758088279.91645,0.0,0.0,0.0,-2.92208,34.66395,-4.0107,10.1,0.13,1.22,2.0
1758088282.24332,1758088279.92645,0.0,0.0,0.0,-4.0107,37.52874,-4.81285,9.99,0.56,1.15,2.0
1758088282.24472,1758088279.93645,0.0,0.0,0.0,-6.58902,39.53409,-5.95876,9.52,0.56,1.1,2.0
1758088282.26141,1758088279.94645,0.0,0.0,0.0,-8.25059,39.53409,-6.53172,9.52,0.87,1.1,2.0
1758088282.26314,1758088279.95645,0.0,0.0,0.0,-9.5684,38.84654,-7.04738,9.2,0.8,1.05,2.0
1758088282.27815,1758088279.96645,0.0,0.0,0.0,-10.48513,38.38818,-7.21927,9.2,0.8,1.05,2.0
1758088282.29411,1758088279.97645,0.0,0.0,0.0,-10.65701,38.50277,-7.39116,9.24,0.33,1.0,2.0
1758088282.29575,1758088279.98645,0.0,0.0,0.0,-10.48513,38.44547,-7.21927,9.24,0.33,1.0,2.0
1758088282.31193,1758088279.99645,0.0,0.0,0.0,-10.02676,37.75792,-7.33386,9.16,-0.15,0.94,2.0
1758088282.31526,1758088280.00645,0.0,0.0,0.0,-9.22462,36.15364,-6.70361,9.16,-0.15,0.94,2.0
1758088282.33063,1758088280.01645,0.0,0.0,0.0,-7.84952,33.68992,-5.4431,8.98,-0.48,0.97,2.0
1758088282.3313,1758088280.02645,0.0,0.0,0.0,-7.16197,31.45539,-4.52637,9.02,-0.55,0.98,2.0
1758088282.34605,1758088280.03645,0.0,0.0,0.0,-6.99009,29.62192,-3.83882,9.02,-0.55,0.98,2.0
1758088282.35132,1758088280.04645,0.0,0.0,0.0,-6.87549,27.61657,-3.60963,9.06,-0.32,0.98,2.0
1758088282.36711,1758088280.05645,0.0,0.0,0.0,-7.21927,22.91831,-3.60963,9.06,-0.32,0.98,2.0
1758088282.38413,1758088280.06645,0.0,0.0,0.0,-8.0787,20.11082,-3.55234,8.9,0.05,0.8,2.0
1758088282.38683,1758088280.07645,0.0,0.0,0.0,-9.05273,17.24603,-3.83882,8.9,0.05,0.8,2.0
1758088282.39485,1758088280.08645,0.0,0.0,0.0,-11.00079,12.43318,-4.18259,8.79,0.38,0.7,2.0
1758088282.41478,1758088280.09645,0.0,0.0,0.0,-12.14671,10.8862,-4.1253,8.84,0.53,0.47,2.0
1758088282.4164,1758088280.10645,0.0,0.0,0.0,-13.23533,8.65166,-3.95341,8.84,0.53,0.47,2.0
1758088282.43445,1758088280.11645,0.0,0.0,0.0,-14.32395,5.84417,-4.23989,8.86,0.39,0.54,2.0
1758088282.43808,1758088280.12645,0.0,0.0,0.0,-15.87093,1.94806,-3.89611,8.86,0.39,0.54,2.0
1758088282.45545,1758088280.13645,0.0,0.0,0.0,-16.50119,-0.51566,-3.66693,9.04,0.08,0.51,2.0
1758088282.45699,1758088280.14645,0.0,0.0,0.0,-17.36062,-2.63561,-3.55234,9.04,0.08,0.51,2.0
1758088282.47446,1758088280.15645,0.0,0.0,0.0,-18.16276,-4.87014,-3.32316,9.27,-0.07,0.35,2.0
1758088282.47644,1758088280.16645,0.0,0.0,0.0,-19.36597,-8.02141,-3.55234,9.42,0.07,0.45,2.0
1758088282.50005,1758088280.17645,0.0,0.0,0.0,-20.11082,-10.31324,-3.60963,9.42,0.07,0.45,2.0
1758088282.50122,1758088280.18645,0.0,0.0,0.0,-21.08485,-12.71966,-4.0107,9.64,0.28,0.56,2.0
1758088282.50182,1758088280.19645,0.0,0.0,0.0,-22.51724,-15.12609,-4.46907,9.64,0.28,0.56,2.0
1758088282.51812,1758088280.20645,0.0,0.0,0.0,-24.35071,-18.79302,-4.69825,9.78,0.35,0.48,2.0
1758088282.52161,1758088280.21645,0.0,0.0,0.0,-25.72581,-19.88164,-4.64096,9.78,0.35,0.48,2.0
1758088282.53945,1758088280.22645,0.0,0.0,0.0,-26.98631,-19.82434,-4.58366,10.05,0.3,0.28,2.0
1758088282.54103,1758088280.23645,0.0,0.0,0.0,-27.84575,-19.48057,-3.89611,10.05,0.3,0.28,2.0
1758088282.55716,1758088280.24645,0.0,0.0,0.0,-29.67921,-17.53251,-3.32316,10.37,0.25,0.06,2.0
1758088282.57318,1758088280.25645,0.0,0.0,0.0,-30.93972,-14.72501,-3.20856,10.78,0.25,-0.1,2.0
1758088282.57579,1758088280.26645,0.0,0.0,0.0,-32.14294,-11.86023,-3.26586,10.78,0.25,-0.1,2.0
1758088282.59135,1758088280.27645,0.0,0.0,0.0,-34.77854,-7.73493,-3.83882,10.88,0.37,-0.36,2.0
1758088282.59467,1758088280.28645,0.0,0.0,0.0,-36.61201,-5.27121,-4.1253,10.88,0.37,-0.36,2.0
1758088282.61008,1758088280.29645,0.0,0.0,0.0,-38.78925,-3.03668,-4.58366,10.74,0.51,-0.48,2.0
1758088282.61124,1758088280.30645,0.0,0.0,0.0,-41.08107,-0.74485,-4.81285,10.74,0.51,-0.48,2.0
1758088282.62652,1758088280.31645,0.0,0.0,0.0,-44.57612,2.40642,-4.0107,10.47,0.61,-0.96,2.0
1758088282.64217,1758088280.32645,0.0,0.0,0.0,-46.86795,4.64096,-3.09397,10.3,0.56,-1.04,2.0
1758088282.64328,1758088280.33645,0.0,0.0,0.0,-49.04519,5.32851,-2.34913,10.3,0.56,-1.04,2.0
1758088282.65811,1758088280.34645,0.0,0.0,0.0,-50.93595,2.34913,-2.00535,10.13,0.39,-0.22,2.0
1758088282.66009,1758088280.35645,0.0,0.0,0.0,-50.363,-16.272,-3.72423,10.13,0.39,-0.22,2.0
1758088282.67626,1758088280.36645,0.0,0.0,0.0,-48.12846,-37.87251,-8.99544,10.55,-0.28,1.65,2.0
1758088282.69445,1758088280.37645,0.0,0.0,0.0,-45.14908,-58.78547,-16.67307,10.55,-0.28,1.65,2.0
1758088282.69566,1758088280.38645,0.0,0.0,0.0,-40.16434,-72.47916,-23.60586,11.99,-1.18,3.44,2.0
1758088282.71129,1758088280.39645,0.0,0.0,0.0,-30.82513,-80.44328,-32.42941,13.13,-2.1,1.94,2.0
1758088282.71547,1758088280.40645,0.0,0.0,0.0,-24.00693,-76.60446,-33.40344,13.13,-2.1,1.94,2.0
1758088282.73128,1758088280.41645,0.0,0.0,0.0,-18.22006,-68.29657,-30.48136,11.79,-1.85,1.49,2.0
1758088282.73552,1758088280.42645,0.0,0.0,0.0,-13.75099,-59.64491,-24.12152,11.79,-1.85,1.49,2.0
1758088282.75137,1758088280.43645,0.0,0.0,0.0,-11.97482,-55.97798,-12.14671,9.07,-0.5,0.78,2.0
1758088282.75545,1758088280.44645,0.0,0.0,0.0,-14.61043,-61.1346,-5.15662,9.07,-0.5,0.78,2.0
1758088282.77134,1758088280.45645,0.0,0.0,0.0,-18.85031,-61.93674,2.34913,7.35,0.23,1.57,2.0
1758088282.77462,1758088280.46645,0.0,0.0,0.0,-30.19488,-49.27437,8.0787,7.35,0.23,1.57,2.0
1758088282.79188,1758088280.47645,0.0,0.0,0.0,-38.21629,-28.07493,8.136,10.61,0.42,1.67,2.0
1758088282.79678,1758088280.48645,0.0,0.0,0.0,-44.8053,-23.83505,6.35983,11.4,0.07,3.18,2.0
1758088282.81603,1758088280.49645,0.0,0.0,0.0,-49.50356,-22.97561,3.60963,11.4,0.07,3.18,2.0
1758088282.81715,1758088280.50645,0.0,0.0,0.0,-52.82671,-13.06344,-1.08862,11.14,-0.48,2.13,2.0
1758088282.83603,1758088280.51645,0.0,0.0,0.0,-52.9986,-2.46372,-3.89611,11.14,-0.48,2.13,2.0
1758088282.83713,1758088280.52645,0.0,0.0,0.0,-52.02457,7.04738,-5.72958,11.61,-1.05,0.53,2.0
1758088282.85203,1758088280.53645,0.0,0.0,0.0,-50.2484,15.58445,-6.70361,11.61,-1.05,0.53,2.0
1758088282.85517,1758088280.54645,0.0,0.0,0.0,-46.86795,26.12688,-5.27121,10.76,-1.29,0.61,2.0
1758088282.87025,1758088280.55645,0.0,0.0,0.0,-45.09178,33.05967,-3.20856,10.69,-1.12,0.78,2.0
1758088282.87121,1758088280.56645,0.0,0.0,0.0,-43.60209,38.56006,-0.45837,10.69,-1.12,0.78,2.0
1758088282.88629,1758088280.57645,0.0,0.0,0.0,-42.68536,43.54479,2.23454,10.71,-1.0,0.88,2.0
1758088282.90197,1758088280.58645,0.0,0.0,0.0,-41.88322,48.52953,5.78687,10.71,-1.0,0.88,2.0
1758088282.90321,1758088280.59645,0.0,0.0,0.0,-40.7946,50.76406,7.33386,10.44,-1.04,0.92,2.0
1758088282.918,1758088280.60645,0.0,0.0,0.0,-39.82057,51.79538,8.25059,10.44,-1.04,0.92,2.0
1758088282.9204,1758088280.61645,0.0,0.0,0.0,-38.73195,52.42564,8.30789,9.97,-1.19,0.81,2.0
1758088282.93603,1758088280.62645,0.0,0.0,0.0,-37.35685,52.884,7.50575,9.71,-1.27,0.77,2.0
1758088282.95437,1758088280.63645,0.0,0.0,0.0,-36.55471,51.85268,6.58902,9.71,-1.27,0.77,2.0
1758088282.95671,1758088280.64645,0.0,0.0,0.0,-36.15364,50.13381,5.32851,9.29,-1.15,0.92,2.0
1758088282.97543,1758088280.65645,0.0,0.0,0.0,-35.52338,48.07116,4.0107,9.29,-1.15,0.92,2.0
1758088282.97749,1758088280.66645,0.0,0.0,0.0,-34.89313,43.94586,3.03668,9.07,-0.95,1.01,2.0
1758088282.99438,1758088280.67645,0.0,0.0,0.0,-34.32018,41.13837,2.46372,9.07,-0.95,1.01,2.0
1758088282.99559,1758088280.68645,0.0,0.0,0.0,-33.86181,39.4195,1.94806,8.92,-0.77,0.86,2.0
1758088283.01233,1758088280.69645,0.0,0.0,0.0,-32.77319,35.3515,1.3178,8.92,-0.77,0.86,2.0
1758088283.01474,1758088280.70645,0.0,0.0,0.0,-31.79916,33.05967,0.80214,8.84,-0.7,0.82,2.0
1758088283.03048,1758088280.71645,0.0,0.0,0.0,-30.19488,30.76784,0.74485,8.83,-0.86,0.76,2.0
1758088283.0312,1758088280.72645,0.0,0.0,0.0,-28.07493,28.99167,0.74485,8.83,-0.86,0.76,2.0
1758088283.04596,1758088280.73645,0.0,0.0,0.0,-24.4653,26.52795,1.20321,8.96,-1.21,0.66,2.0
1758088283.06195,1758088280.74645,0.0,0.0,0.0,-21.6578,23.83505,1.43239,8.96,-1.21,0.66,2.0
1758088283.06326,1758088280.75645,0.0,0.0,0.0,-18.73572,21.08485,1.71887,8.88,-1.63,0.53,2.0
1758088283.07991,1758088280.76645,0.0,0.0,0.0,-15.46986,18.44924,2.06265,8.88,-1.63,0.53,2.0
1758088283.081,1758088280.77645,0.0,0.0,0.0,-10.71431,17.24603,2.11994,8.87,-1.93,0.41,2.0
1758088283.096,1758088280.78645,0.0,0.0,0.0,-7.67763,17.81899,1.83346,9.1,-1.93,0.26,2.0
1758088283.1162,1758088280.79645,0.0,0.0,0.0,-4.92744,18.9649,1.08862,9.1,-1.93,0.26,2.0
1758088283.11993,1758088280.80645,0.0,0.0,0.0,-2.23454,19.25138,0.40107,9.07,-1.63,0.34,2.0
1758088283.12034,1758088280.81645,0.0,0.0,0.0,1.83346,19.07949,-0.34377,9.07,-1.63,0.34,2.0
1758088283.13709,1758088280.82645,0.0,0.0,0.0,4.29718,18.50654,-0.57296,8.97,-1.26,0.33,2.0
1758088283.15407,1758088280.83645,0.0,0.0,0.0,6.87549,17.87628,-0.34377,8.97,-1.26,0.33,2.0
1758088283.15502,1758088280.84645,0.0,0.0,0.0,9.28192,16.90226,-0.0573,9.03,-1.01,0.37,2.0
1758088283.17107,1758088280.85645,0.0,0.0,0.0,12.54778,15.0115,1.14592,9.09,-0.92,0.3,2.0
1758088283.17443,1758088280.86645,0.0,0.0,0.0,14.32395,12.43318,1.66158,9.09,-0.92,0.3,2.0
1758088283.19036,1758088280.87645,0.0,0.0,0.0,15.75634,8.59437,2.00535,9.06,-0.92,0.28,2.0
1758088283.19147,1758088280.88645,0.0,0.0,0.0,16.90226,0.80214,2.29183,9.06,-0.92,0.28,2.0
1758088283.206,1758088280.89645,0.0,0.0,0.0,17.18874,-5.09932,2.11994,9.1,-0.93,0.12,2.0
1758088283.222,1758088280.90645,0.0,0.0,0.0,17.18874,-11.17268,1.94806,9.1,-0.93,0.12,2.0
1758088283.22476,1758088280.91645,0.0,0.0,0.0,16.73037,-16.04282,1.60428,9.45,-0.93,-0.23,2.0
1758088283.24091,1758088280.92645,0.0,0.0,0.0,16.3293,-19.82434,0.22918,9.45,-0.93,-0.33,2.0
1758088283.24268,1758088280.93645,0.0,0.0,0.0,16.10011,-20.51189,-0.80214,10.11,-1.01,-0.33,2.0
1758088283.25721,1758088280.94645,0.0,0.0,0.0,16.55848,-20.62648,-1.60428,10.48,-1.13,-0.17,2.0
1758088283.27505,1758088280.95645,0.0,0.0,0.0,17.24603,-19.53786,-2.06265,10.48,-1.13,-0.17,2.0
1758088283.276,1758088280.96645,0.0,0.0,0.0,18.85031,-15.64175,-2.29183,10.59,-1.26,-0.09,2.0
1758088283.29126,1758088280.97645,0.0,0.0,0.0,20.51189,-12.77696,-2.06265,10.59,-1.26,-0.09,2.0
1758088283.2922,1758088280.98645,0.0,0.0,0.0,22.86102,-11.11538,-1.60428,10.48,-1.4,-0.35,2.0
1758088283.30699,1758088280.99645,0.0,0.0,0.0,25.7831,-10.25595,-1.3178,10.48,-1.4,-0.35,2.0
1758088283.32297,1758088281.00645,0.0,0.0,0.0,30.82513,-7.33386,-0.80214,10.27,-1.57,-0.59,2.0
1758088283.32657,1758088281.01645,0.0,0.0,0.0,33.68992,-6.7609,0.0,10.95,-1.4,0.08,2.0
1758088283.342,1758088281.02645,0.0,0.0,0.0,35.2942,-13.00614,2.34913,10.95,-1.4,0.08,2.0
1758088283.34349,1758088281.03645,0.0,0.0,0.0,34.66395,-26.12688,5.78687,11.79,-0.37,2.04,2.0
1758088283.35798,1758088281.04645,0.0,0.0,0.0,30.59595,-55.97798,14.9542,11.79,-0.37,2.04,2.0
1758088283.37405,1758088281.05645,0.0,0.0,0.0,25.7831,-71.04677,21.88699,12.3,0.26,4.0,2.0
1758088283.37546,1758088281.06645,0.0,0.0,0.0,19.59516,-75.28666,27.2155,12.3,0.26,4.0,2.0
1758088283.39182,1758088281.07645,0.0,0.0,0.0,9.5684,-72.82294,30.30947,14.18,0.43,2.97,2.0
1758088283.39552,1758088281.08645,0.0,0.0,0.0,4.52637,-62.56699,27.73116,12.44,-0.41,2.32,2.0
1758088283.41031,1758088281.09645,0.0,0.0,0.0,0.85944,-54.08722,23.0902,12.44,-0.41,2.32,2.0
1758088283.41144,1758088281.10645,0.0,0.0,0.0,-1.20321,-44.63341,17.99088,10.14,-1.48,1.5,2.0
1758088283.42597,1758088281.11645,0.0,0.0,0.0,-0.80214,-26.87172,8.47978,10.14,-1.48,1.5,2.0
1758088283.44208,1758088281.12645,0.0,0.0,0.0,4.23989,-24.4653,3.26586,8.81,-1.68,1.74,2.0
1758088283.44671,1758088281.13645,0.0,0.0,0.0,9.28192,-37.58603,-2.40642,8.81,-1.68,1.74,2.0
1758088283.46206,1758088281.14645,0.0,0.0,0.0,20.05352,-61.87944,-1.48969,6.16,-1.21,2.31,2.0
1758088283.46722,1758088281.15645,0.0,0.0,0.0,37.98711,-52.76942,0.57296,9.55,-1.07,1.7,2.0
1758088283.48234,1758088281.16645,0.0,0.0,0.0,47.72739,-34.89313,4.58366,9.55,-1.07,1.7,2.0
1758088283.48347,1758088281.17645,0.0,0.0,0.0,54.3737,-27.04361,8.93814,12.04,-0.4,1.64,2.0
1758088283.50115,1758088281.18645,0.0,0.0,0.0,57.12389,-25.09555,12.2613,12.04,-0.4,1.64,2.0
1758088283.50216,1758088281.19645,0.0,0.0,0.0,55.51962,-17.01685,15.35527,11.17,0.11,2.59,2.0
1758088283.51699,1758088281.20645,0.0,0.0,0.0,51.22243,-10.54242,15.35527,11.17,0.11,2.59,2.0
1758088283.53321,1758088281.21645,0.0,0.0,0.0,45.09178,-3.83882,13.80828,11.19,0.6,1.61,2.0
1758088283.53531,1758088281.22645,0.0,0.0,0.0,38.21629,3.60963,11.28727,11.19,0.6,1.61,2.0
1758088283.55075,1758088281.23645,0.0,0.0,0.0,28.36141,14.49583,5.78687,10.61,0.83,1.47,2.0
1758088283.5552,1758088281.24645,0.0,0.0,0.0,22.86102,19.76705,2.29183,10.06,0.84,0.98,2.0
1758088283.57074,1758088281.25645,0.0,0.0,0.0,18.33465,24.35071,-0.80214,10.06,0.84,0.98,2.0
1758088283.57463,1758088281.26645,0.0,0.0,0.0,15.06879,28.36141,-3.95341,10.03,0.99,0.95,2.0
1758088283.58996,1758088281.27645,0.0,0.0,0.0,11.91752,33.34615,-5.09932,10.03,0.99,0.95,2.0
1758088283.59627,1758088281.28645,0.0,0.0,0.0,10.94349,35.75257,-5.50039,10.16,1.04,0.98,2.0
1758088283.61089,1758088281.29645,0.0,0.0,0.0,10.25595,38.61736,-5.4431,10.16,1.04,0.98,2.0
1758088283.62249,1758088281.30645,0.0,0.0,0.0,9.62569,42.91454,-5.15662,10.14,0.84,1.16,2.0
1758088283.6258,1758088281.31645,0.0,0.0,0.0,9.33921,45.03448,-4.87014,9.72,0.47,1.11,2.0
1758088283.6412,1758088281.32645,0.0,0.0,0.0,8.99544,46.46688,-4.18259,9.72,0.47,1.11,2.0
1758088283.64216,1758088281.33645,0.0,0.0,0.0,8.93814,48.01387,-3.49504,9.29,0.12,1.02,2.0
1758088283.65725,1758088281.34645,0.0,0.0,0.0,8.93814,49.67545,-2.11994,9.29,0.12,1.02,2.0
1758088283.67297,1758088281.35645,0.0,0.0,0.0,9.11003,48.75871,-1.20321,9.14,-0.11,1.01,2.0
1758088283.67492,1758088281.36645,0.0,0.0,0.0,9.28192,47.67009,-0.17189,9.14,-0.11,1.01,2.0
1758088283.68989,1758088281.37645,0.0,0.0,0.0,9.33921,46.1804,0.85944,9.02,-0.26,0.9,2.0
1758088283.69193,1758088281.38645,0.0,0.0,0.0,9.33921,44.40423,2.40642,9.13,-0.29,0.87,2.0
1758088283.70802,1758088281.39645,0.0,0.0,0.0,9.05273,43.31561,3.26586,9.13,-0.29,0.87,2.0
1758088283.71453,1758088281.40645,0.0,0.0,0.0,8.59437,40.39353,3.89611,9.03,-0.16,0.9,2.0
1758088283.72992,1758088281.41645,0.0,0.0,0.0,7.62034,37.29956,3.66693,9.03,-0.16,0.9,2.0
1758088283.73439,1758088281.42645,0.0,0.0,0.0,5.32851,31.97105,3.49504,8.88,0.09,0.82,2.0
1758088283.74994,1758088281.43645,0.0,0.0,0.0,3.55234,28.01764,2.92208,8.88,0.09,0.82,2.0
1758088283.75112,1758088281.44645,0.0,0.0,0.0,1.20321,23.83505,2.23454,8.82,0.44,0.67,2.0
1758088283.76593,1758088281.45645,0.0,0.0,0.0,-1.66158,20.34,1.14592,8.82,0.44,0.67,2.0
1758088283.78201,1758088281.46645,0.0,0.0,0.0,-5.61499,14.38124,0.51566,8.7,0.72,0.31,2.0
1758088283.78389,1758088281.47645,0.0,0.0,0.0,-8.136,10.19865,0.0573,8.63,0.68,0.23,2.0
1758088283.80076,1758088281.48645,0.0,0.0,0.0,-10.19865,5.84417,0.40107,8.63,0.68,0.23,2.0
1758088283.80168,1758088281.49645,0.0,0.0,0.0,-12.83425,0.51566,0.57296,8.73,0.31,0.15,2.0
1758088283.82154,1758088281.50645,0.0,0.0,0.0,-14.38124,-2.23454,0.80214,8.73,0.31,0.15,2.0
1758088283.82673,1758088281.51645,0.0,0.0,0.0,-15.41257,-4.69825,1.71887,9.04,0.03,0.08,2.0
1758088283.84194,1758088281.52645,0.0,0.0,0.0,-16.272,-7.21927,2.29183,9.04,0.03,0.08,2.0
1758088283.84632,1758088281.53645,0.0,0.0,0.0,-17.53251,-12.08941,3.26586,9.4,0.0,0.39,2.0
1758088283.86193,1758088281.54645,0.0,0.0,0.0,-18.85031,-15.41257,3.26586,9.63,0.09,0.57,2.0
1758088283.86552,1758088281.55645,0.0,0.0,0.0,-20.34,-18.10547,2.97938,9.63,0.09,0.57,2.0
1758088283.88117,1758088281.56645,0.0,0.0,0.0,-21.7724,-19.88164,2.57831,9.88,0.2,0.52,2.0
1758088283.88242,1758088281.57645,0.0,0.0,0.0,-24.23611,-22.34536,1.43239,9.88,0.2,0.52,2.0
1758088283.89954,1758088281.58645,0.0,0.0,0.0,-25.43933,-22.11617,0.74485,9.97,0.36,0.37,2.0
1758088283.90073,1758088281.59645,0.0,0.0,0.0,-26.47065,-21.25674,-0.40107,9.97,0.36,0.37,2.0
1758088283.91624,1758088281.60645,0.0,0.0,0.0,-27.10091,-19.82434,-1.3751,10.18,0.57,0.12,2.0
1758088283.93219,1758088281.61645,0.0,0.0,0.0,-27.96034,-15.64175,-2.06265,10.34,0.73,-0.11,2.0
1758088283.93472,1758088281.62645,0.0,0.0,0.0,-28.64789,-12.08941,-2.29183,10.34,0.73,-0.11,2.0
1758088283.95078,1758088281.63645,0.0,0.0,0.0,-29.33544,-8.93814,-2.40642,10.45,0.71,-0.08,2.0
1758088283.95459,1758088281.64645,0.0,0.0,0.0,-30.53865,-6.41713,-2.40642,10.45,0.71,-0.08,2.0
1758088283.9707,1758088281.65645,0.0,0.0,0.0,-33.40344,-0.34377,-3.26586,10.54,0.64,-0.24,2.0
1758088283.97458,1758088281.66645,0.0,0.0,0.0,-35.2369,4.87014,-3.38045,10.54,0.64,-0.24,2.0
1758088283.99098,1758088281.67645,0.0,0.0,0.0,-36.95578,7.44845,-4.1253,11.18,0.59,-0.13,2.0
1758088283.9946,1758088281.68645,0.0,0.0,0.0,-36.55471,3.26586,-6.18794,11.18,0.59,-0.13,2.0
1758088284.01118,1758088281.69645,0.0,0.0,0.0,-35.3515,-15.75634,-8.99544,11.42,0.19,1.02,2.0
1758088284.01539,1758088281.70645,0.0,0.0,0.0,-33.05967,-32.37212,-12.37589,11.67,-0.42,2.24,2.0
1758088284.03198,1758088281.71645,0.0,0.0,0.0,-29.96569,-46.06581,-17.01685,11.67,-0.42,2.24,2.0
1758088284.03527,1758088281.72645,0.0,0.0,0.0,-23.20479,-52.54023,-22.34536,12.87,-1.05,2.23,2.0
1758088284.05093,1758088281.73645,0.0,0.0,0.0,-17.6471,-48.30034,-23.49127,12.87,-1.05,2.23,2.0
1758088284.05555,1758088281.74645,0.0,0.0,0.0,-12.2613,-42.57077,-22.34536,13.17,-1.8,1.81,2.0
1758088284.07589,1758088281.75645,0.0,0.0,0.0,-7.10468,-41.02378,-19.42327,13.17,-1.8,1.81,2.0
1758088284.08037,1758088281.76645,0.0,0.0,0.0,-2.23454,-43.4875,-12.71966,10.65,-1.74,1.68,2.0
1758088284.08145,1758088281.77645,0.0,0.0,0.0,-1.20321,-44.9199,-7.73493,8.88,-1.05,1.29,2.0
1758088284.10191,1758088281.78645,0.0,0.0,0.0,-1.77617,-43.25832,-3.38045,8.88,-1.05,1.29,2.0
1758088284.1061,1758088281.79645,0.0,0.0,0.0,-3.38045,-37.98711,0.45837,9.23,-0.76,1.09,2.0
1758088284.12112,1758088281.80645,0.0,0.0,0.0,-7.84952,-32.42941,2.6929,9.23,-0.76,1.09,2.0
1758088284.1224,1758088281.81645,0.0,0.0,0.0,-11.80293,-37.98711,1.71887,9.34,-0.78,2.1,2.0
1758088284.13799,1758088281.82645,0.0,0.0,0.0,-15.75634,-51.39432,-1.20321,9.34,-0.78,2.1,2.0
1758088284.15497,1758088281.83645,0.0,0.0,0.0,-19.59516,-64.74423,-5.72958,8.04,-0.55,2.67,2.0
1758088284.15588,1758088281.84645,0.0,0.0,0.0,-23.83505,-69.04142,-10.25595,9.54,-0.38,1.4,2.0
1758088284.17084,1758088281.85645,0.0,0.0,0.0,-25.7831,-52.54023,-11.63104,9.54,-0.38,1.4,2.0
1758088284.17317,1758088281.86645,0.0,0.0,0.0,-29.8511,-22.11617,-13.5218,13.53,-0.41,0.96,2.0
1758088284.18893,1758088281.87645,0.0,0.0,0.0,-34.0337,-2.86479,-12.43318,13.53,-0.41,0.96,2.0
1758088284.19577,1758088281.88645,0.0,0.0,0.0,-37.75792,7.50575,-11.74564,11.61,-0.82,1.84,2.0
1758088284.21111,1758088281.89645,0.0,0.0,0.0,-37.92981,8.93814,-9.85487,11.61,-0.82,1.84,2.0
1758088284.2162,1758088281.90645,0.0,0.0,0.0,-35.52338,14.43854,-7.39116,9.68,-1.11,1.5,2.0
1758088284.23118,1758088281.91645,0.0,0.0,0.0,-28.70519,29.8511,-2.06265,9.68,-1.11,1.5,2.0
1758088284.23453,1758088281.92645,0.0,0.0,0.0,-23.20479,37.58603,1.20321,10.64,-2.02,-0.05,2.0
1758088284.25095,1758088281.93645,0.0,0.0,0.0,-17.36062,40.62271,4.0107,10.24,-2.7,0.39,2.0
1758088284.25641,1758088281.94645,0.0,0.0,0.0,-12.14671,42.68536,6.35983,10.24,-2.7,0.39,2.0
1758088284.27119,1758088281.95645,0.0,0.0,0.0,-5.95876,47.15443,7.62034,9.99,-2.56,0.64,2.0
1758088284.27528,1758088281.96645,0.0,0.0,0.0,-3.03668,48.75871,7.50575,9.99,-2.56,0.64,2.0
1758088284.29089,1758088281.97645,0.0,0.0,0.0,-1.08862,48.52953,6.8182,9.69,-1.93,0.41,2.0
1758088284.29491,1758088281.98645,0.0,0.0,0.0,-0.17189,47.72739,5.84417,9.69,-1.93,0.41,2.0
1758088284.30986,1758088281.99645,0.0,0.0,0.0,-0.22918,46.2377,4.92744,9.48,-1.27,0.64,2.0
1758088284.3111,1758088282.00645,0.0,0.0,0.0,-0.68755,46.63877,4.35448,9.57,-0.8,1.03,2.0
1758088284.32596,1758088282.01645,0.0,0.0,0.0,-1.20321,46.35228,4.29718,9.57,-0.8,1.03,2.0
1758088284.34195,1758088282.02645,0.0,0.0,0.0,-1.20321,44.63341,3.89611,9.19,-0.65,1.11,2.0
1758088284.3454,1758088282.03645,0.0,0.0,0.0,-1.14592,42.57077,3.32316,9.19,-0.65,1.11,2.0
1758088284.36082,1758088282.04645,0.0,0.0,0.0,-1.20321,40.7946,2.40642,8.92,-0.72,0.89,2.0
1758088284.36235,1758088282.05645,0.0,0.0,0.0,-1.3751,36.7266,1.66158,8.92,-0.72,0.89,2.0
1758088284.37685,1758088282.06645,0.0,0.0,0.0,-1.43239,31.85646,0.34377,8.53,-0.83,0.89,2.0
1758088284.39575,1758088282.07645,0.0,0.0,0.0,-0.68755,25.49662,-0.11459,8.55,-0.97,0.76,2.0
1758088284.39664,1758088282.08645,0.0,0.0,0.0,0.11459,21.88699,-0.68755,8.55,-0.97,0.76,2.0
1758088284.41212,1758088282.09645,0.0,0.0,0.0,1.60428,18.90761,-0.57296,8.67,-1.19,0.48,2.0
1758088284.41707,1758088282.10645,0.0,0.0,0.0,4.18259,14.20935,-0.40107,8.67,-1.19,0.48,2.0
1758088284.4321,1758088282.11645,0.0,0.0,0.0,6.24524,11.34457,-0.11459,8.73,-1.4,0.41,2.0
1758088284.43702,1758088282.12645,0.0,0.0,0.0,8.136,10.8289,-0.0573,8.73,-1.4,0.41,2.0
1758088284.45189,1758088282.13645,0.0,0.0,0.0,10.02676,11.11538,-0.0573,9.16,-1.48,0.33,2.0
1758088284.50013,1758088282.14645,0.0,0.0,0.0,12.204,12.71966,-0.22918,9.16,-1.48,0.33,2.0
1758088284.50182,1758088282.15645,0.0,0.0,0.0,13.46451,13.5791,-0.57296,9.42,-1.28,0.33,2.0
1758088284.50679,1758088282.16645,0.0,0.0,0.0,14.43854,14.9542,-1.08862,9.4,-0.94,0.29,2.0
1758088284.51168,1758088282.17645,0.0,0.0,0.0,15.06879,15.92823,-1.71887,9.4,-0.94,0.29,2.0
1758088284.52162,1758088282.18645,0.0,0.0,0.0,15.98552,17.36062,-3.03668,9.43,-0.65,0.29,2.0
1758088284.52306,1758088282.19645,0.0,0.0,0.0,16.38659,18.22006,-3.83882,9.43,-0.65,0.29,2.0
1758088284.526,1758088282.20645,0.0,0.0,0.0,16.90226,17.76169,-4.46907,9.49,-0.49,0.47,2.0
1758088284.55665,1758088282.21645,0.0,0.0,0.0,17.13144,15.69904,-4.81285,9.49,-0.49,0.47,2.0
1758088284.56031,1758088282.22645,0.0,0.0,0.0,17.76169,10.31324,-4.98473,9.31,-0.41,0.53,2.0
1758088284.56095,1758088282.23645,0.0,0.0,0.0,18.16276,5.15662,-4.98473,9.22,-0.42,0.46,2.0
1758088284.56176,1758088282.24645,0.0,0.0,0.0,18.62113,-0.51566,-4.87014,9.22,-0.42,0.46,2.0
1758088284.56279,1758088282.25645,0.0,0.0,0.0,18.9649,-6.47442,-4.87014,9.17,-0.5,0.04,2.0
1758088284.58109,1758088282.26645,0.0,0.0,0.0,19.82434,-14.72501,-4.81285,9.17,-0.5,0.04,2.0
1758088284.58316,1758088282.27645,0.0,0.0,0.0,20.3973,-18.50654,-4.29718,9.45,-0.67,-0.19,2.0
1758088284.59784,1758088282.28645,0.0,0.0,0.0,20.97026,-20.34,-3.60963,9.45,-0.67,-0.19,2.0
1758088284.60057,1758088282.29645,0.0,0.0,0.0,21.48592,-18.73572,-2.63561,10.1,-0.95,-0.2,2.0
1758088284.61687,1758088282.30645,0.0,0.0,0.0,22.23076,-15.64175,-2.06265,10.73,-1.23,-0.09,2.0
1758088284.65671,1758088282.31645,0.0,0.0,0.0,23.0902,-11.34457,-1.60428,10.73,-1.23,-0.09,2.0
1758088284.65947,1758088282.32645,0.0,0.0,0.0,24.12152,-7.16197,-1.43239,10.92,-1.4,0.02,2.0
1758088284.66007,1758088282.33645,0.0,0.0,0.0,26.01229,-1.71887,-1.48969,10.92,-1.4,0.02,2.0
1758088284.66216,1758088282.34645,0.0,0.0,0.0,27.33009,1.66158,-1.66158,10.73,-1.46,-0.04,2.0
1758088284.66279,1758088282.35645,0.0,0.0,0.0,28.99167,3.66693,-1.83346,10.73,-1.46,-0.04,2.0
1758088284.67976,1758088282.36645,0.0,0.0,0.0,29.96569,3.72423,-2.11994,10.43,-1.38,-0.37,2.0
1758088284.68107,1758088282.37645,0.0,0.0,0.0,30.76784,-0.74485,-2.23454,10.01,-1.18,-0.64,2.0
1758088284.69667,1758088282.38645,0.0,0.0,0.0,30.65324,-4.69825,-2.40642,10.01,-1.18,-0.64,2.0
1758088284.71463,1758088282.39645,0.0,0.0,0.0,30.25217,-7.50575,-2.29183,10.1,-0.92,-0.86,2.0
1758088284.71678,1758088282.40645,0.0,0.0,0.0,30.19488,-5.61499,-2.23454,10.1,-0.92,-0.86,2.0
1758088284.7321,1758088282.41645,0.0,0.0,0.0,28.476,-2.97938,-0.17189,12.25,-0.38,0.08,2.0
1758088284.73541,1758088282.42645,0.0,0.0,0.0,24.98096,-10.25595,2.92208,12.25,-0.38,0.08,2.0
1758088284.75085,1758088282.43645,0.0,0.0,0.0,19.70975,-21.6578,8.42248,13.13,0.71,2.6,2.0
1758088284.75207,1758088282.44645,0.0,0.0,0.0,12.77696,-26.06958,14.38124,13.13,0.71,2.6,2.0
1758088284.76702,1758088282.45645,0.0,0.0,0.0,2.7502,-25.72581,19.88164,13.65,0.95,4.17,2.0
1758088284.78406,1758088282.46645,0.0,0.0,0.0,-4.0107,-34.37747,20.74107,11.86,0.5,2.15,2.0
1758088284.78665,1758088282.47645,0.0,0.0,0.0,-9.22462,-39.70598,19.88164,11.86,0.5,2.15,2.0
1758088284.80174,1758088282.48645,0.0,0.0,0.0,-14.03747,-44.57612,14.9542,9.33,-0.88,1.56,2.0
1758088284.80571,1758088282.49645,0.0,0.0,0.0,-15.12609,-51.73809,8.70896,9.33,-0.88,1.56,2.0
1758088284.82185,1758088282.50645,0.0,0.0,0.0,-12.08941,-58.15522,5.21392,7.78,-1.72,-0.02,2.0
1758088284.82279,1758088282.51645,0.0,0.0,0.0,-7.50575,-58.21251,3.26586,7.78,-1.72,-0.02,2.0
1758088284.83787,1758088282.52645,0.0,0.0,0.0,2.34913,-56.20716,1.71887,8.75,-2.3,1.4,2.0
1758088284.85537,1758088282.53645,0.0,0.0,0.0,9.96947,-57.29578,2.00535,8.89,-1.74,2.09,2.0
1758088284.85772,1758088282.54645,0.0,0.0,0.0,16.90226,-55.6915,3.49504,8.89,-1.74,2.09,2.0
1758088284.87179,1758088282.55645,0.0,0.0,0.0,22.28806,-50.1911,6.18794,10.17,-0.66,3.58,2.0
1758088284.87697,1758088282.56645,0.0,0.0,0.0,28.01764,-40.27893,10.71431,10.17,-0.66,3.58,2.0
1758088284.89178,1758088282.57645,0.0,0.0,0.0,29.04896,-33.63263,13.40721,10.92,0.24,2.64,2.0
1758088284.89612,1758088282.58645,0.0,0.0,0.0,28.07493,-27.67386,14.9542,10.92,0.24,2.64,2.0
1758088284.912,1758088282.59645,0.0,0.0,0.0,26.06958,-22.74642,15.24068,10.85,0.59,1.8,2.0
1758088284.91693,1758088282.60645,0.0,0.0,0.0,21.6578,-12.43318,12.2613,10.61,0.21,0.89,2.0
1758088284.97161,1758088282.61645,0.0,0.0,0.0,18.73572,-3.09397,9.05273,10.61,0.21,0.89,2.0
1758088284.97595,1758088282.62645,0.0,0.0,0.0,16.10011,5.55769,5.55769,10.67,-0.21,0.86,2.0
1758088284.97634,1758088282.63645,0.0,0.0,0.0,13.46451,13.5218,2.00535,10.67,-0.21,0.86,2.0
1758088284.9775,1758088282.64645,0.0,0.0,0.0,9.68299,24.29341,-2.46372,10.33,-0.23,0.8,2.0
1758088284.97816,1758088282.65645,0.0,0.0,0.0,7.04738,31.16891,-4.52637,10.33,-0.23,0.8,2.0
1758088284.98031,1758088282.66645,0.0,0.0,0.0,4.18259,38.44547,-6.24524,10.28,0.24,0.5,2.0
1758088284.98163,1758088282.67645,0.0,0.0,0.0,1.60428,43.20102,-7.04738,10.28,0.24,0.5,2.0
1758088285.00082,1758088282.68645,0.0,0.0,0.0,-1.94806,46.52417,-6.70361,10.07,0.78,0.23,2.0
1758088285.00308,1758088282.69645,0.0,0.0,0.0,-3.55234,48.64412,-5.90147,9.88,0.86,0.35,2.0
1758088285.01958,1758088282.70645,0.0,0.0,0.0,-4.64096,51.10783,-4.81285,9.88,0.86,0.35,2.0
1758088285.02078,1758088282.71645,0.0,0.0,0.0,-5.72958,54.25911,-3.72423,9.8,0.52,0.49,2.0
1758088285.03654,1758088282.72645,0.0,0.0,0.0,-5.72958,56.03527,-3.20856,9.8,0.52,0.49,2.0
1758088285.0578,1758088282.73645,0.0,0.0,0.0,-5.72958,57.29578,-2.7502,9.48,0.01,0.63,2.0
1758088285.06029,1758088282.74645,0.0,0.0,0.0,-5.4431,57.41038,-2.7502,9.48,0.01,0.63,2.0
1758088285.06095,1758088282.75645,0.0,0.0,0.0,-5.21392,55.97798,-2.29183,9.12,-0.39,0.75,2.0
1758088285.07676,1758088282.76645,0.0,0.0,0.0,-5.15662,53.91533,-2.06265,8.92,-0.57,0.7,2.0
1758088285.0948,1758088282.77645,0.0,0.0,0.0,-5.15662,51.45161,-1.3751,8.92,-0.57,0.7,2.0
1758088285.09575,1758088282.78645,0.0,0.0,0.0,-5.50039,48.70141,-0.68755,8.86,-0.47,0.66,2.0
1758088285.11105,1758088282.79645,0.0,0.0,0.0,-6.87549,44.9199,-0.11459,8.86,-0.47,0.66,2.0
1758088285.11194,1758088282.80645,0.0,0.0,0.0,-8.42248,42.28429,-0.45837,8.91,-0.12,0.77,2.0
1758088285.12975,1758088282.81645,0.0,0.0,0.0,-10.37054,38.61736,-1.08862,8.91,-0.12,0.77,2.0
1758088285.13108,1758088282.82645,0.0,0.0,0.0,-12.71966,34.32018,-2.23454,8.69,0.35,0.64,2.0
1758088285.14599,1758088282.83645,0.0,0.0,0.0,-15.98552,25.7831,-3.55234,8.31,0.75,0.45,2.0
1758088285.16196,1758088282.84645,0.0,0.0,0.0,-18.16276,19.36597,-4.35448,8.31,0.75,0.45,2.0
1758088285.16723,1758088282.85645,0.0,0.0,0.0,-20.11082,13.40721,-4.46907,7.93,0.86,0.08,2.0
1758088285.20625,1758088282.86645,0.0,0.0,0.0,-21.37133,6.87549,-4.69825,7.93,0.86,0.08,2.0
1758088285.21618,1758088282.87645,0.0,0.0,0.0,-22.68913,-2.34913,-5.61499,7.81,0.59,0.03,2.0
1758088285.21767,1758088282.88645,0.0,0.0,0.0,-23.37668,-6.87549,-6.35983,7.81,0.59,0.03,2.0
1758088285.22314,1758088282.89645,0.0,0.0,0.0,-23.83505,-10.8289,-6.41713,8.46,0.13,0.05,2.0
1758088285.22457,1758088282.90645,0.0,0.0,0.0,-24.80907,-16.95955,-6.24524,8.46,0.13,0.05,2.0
1758088285.22544,1758088282.91645,0.0,0.0,0.0,-25.72581,-20.74107,-5.95876,9.28,0.0,0.39,2.0
1758088285.24114,1758088282.92645,0.0,0.0,0.0,-26.87172,-24.86637,-5.15662,9.9,0.14,0.77,2.0
1758088285.24192,1758088282.93645,0.0,0.0,0.0,-28.64789,-28.07493,-4.98473,9.9,0.14,0.77,2.0
1758088285.25673,1758088282.94645,0.0,0.0,0.0,-31.85646,-31.16891,-5.15662,10.24,0.28,0.78,2.0
1758088285.2769,1758088282.95645,0.0,0.0,0.0,-34.43476,-30.82513,-5.84417,10.24,0.28,0.78,2.0
1758088285.34609,1758088282.96645,0.0,0.0,0.0,-36.95578,-28.476,-7.04738,10.45,0.3,0.12,2.0
1758088285.34664,1758088282.97645,0.0,0.0,0.0,-39.07573,-24.5226,-8.59437,10.45,0.3,0.12,2.0
1758088285.34944,1758088282.98645,0.0,0.0,0.0,-41.48215,-17.6471,-9.85487,10.66,0.43,-0.6,2.0
1758088285.3501,1758088282.99645,0.0,0.0,0.0,-43.20102,-12.89155,-9.74028,10.81,0.6,-1.08,2.0
1758088285.35132,1758088283.00645,0.0,0.0,0.0,-44.748,-6.58902,-9.33921,10.81,0.6,-1.08,2.0
1758088285.35621,1758088283.01645,0.0,0.0,0.0,-46.1804,0.85944,-8.76626,11.27,0.65,-1.3,2.0
1758088285.35665,1758088283.02645,0.0,0.0,0.0,-48.12846,13.40721,-6.99009,11.27,0.65,-1.3,2.0
1758088285.35973,1758088283.03645,0.0,0.0,0.0,-49.90463,20.45459,-5.78687,11.67,0.49,-1.09,2.0
1758088285.36016,1758088283.04645,0.0,0.0,0.0,-51.85268,22.23076,-5.15662,11.67,0.49,-1.09,2.0
1758088285.36126,1758088283.05645,0.0,0.0,0.0,-53.17049,15.06879,-4.92744,11.43,0.27,0.44,2.0
1758088285.37698,1758088283.06645,0.0,0.0,0.0,-53.45696,-13.40721,-8.36518,11.33,-0.4,2.25,2.0
1758088285.39557,1758088283.07645,0.0,0.0,0.0,-52.71212,-37.92981,-14.03747,11.33,-0.4,2.25,2.0
1758088285.39677,1758088283.08645,0.0,0.0,0.0,-50.99325,-57.63955,-22.23076,12.65,-1.18,3.86,2.0
1758088285.412,1758088283.09645,0.0,0.0,0.0,-44.00316,-65.2026,-32.14294,12.65,-1.18,3.86,2.0
1758088285.4148,1758088283.10645,0.0,0.0,0.0,-37.24226,-54.08722,-33.80451,14.41,-1.91,2.36,2.0
1758088285.42997,1758088283.11645,0.0,0.0,0.0,-30.82513,-42.68536,-31.74186,14.41,-1.91,2.36,2.0
1758088285.43117,1758088283.12645,0.0,0.0,0.0,-25.7831,-42.1124,-27.61657,12.18,-1.6,2.49,2.0
1758088285.44608,1758088283.13645,0.0,0.0,0.0,-22.40265,-52.71212,-17.36062,12.18,-1.6,2.49,2.0
1758088285.46197,1758088283.14645,0.0,0.0,0.0,-23.0902,-57.46767,-9.85487,7.87,-0.51,1.85,2.0
1758088285.46568,1758088283.15645,0.0,0.0,0.0,-25.55392,-56.55093,-3.09397,7.85,-0.25,1.21,2.0
1758088285.48067,1758088283.16645,0.0,0.0,0.0,-29.10626,-49.67545,0.97403,7.85,-0.25,1.21,2.0
1758088285.48192,1758088283.17645,0.0,0.0,0.0,-36.55471,-32.83048,2.86479,9.64,-0.51,1.6,2.0
1758088285.49704,1758088283.18645,0.0,0.0,0.0,-41.31026,-21.02755,1.43239,9.64,-0.51,1.6,2.0
1758088285.51527,1758088283.19645,0.0,0.0,0.0,-45.77933,-23.94964,-1.60428,10.32,-0.86,3.25,2.0
1758088285.51677,1758088283.20645,0.0,0.0,0.0,-50.2484,-40.04975,-6.53172,10.32,-0.86,3.25,2.0
1758088285.53196,1758088283.21645,0.0,0.0,0.0,-53.97263,-58.67088,-12.49048,8.14,-0.89,2.35,2.0
1758088285.53448,1758088283.22645,0.0,0.0,0.0,-54.3737,-59.07195,-13.34992,9.82,-1.01,0.12,2.0
1758088285.54975,1758088283.23645,0.0,0.0,0.0,-54.08722,-41.08107,-12.54778,9.82,-1.01,0.12,2.0
1758088285.55089,1758088283.24645,0.0,0.0,0.0,-53.97263,-5.4431,-11.91752,13.86,-1.04,0.05,2.0
1758088285.57129,1758088283.25645,0.0,0.0,0.0,-56.32175,25.15285,-6.87549,13.86,-1.04,0.05,2.0
1758088285.5741,1758088283.26645,0.0,0.0,0.0,-57.29578,30.13758,-4.98473,11.2,-1.07,1.75,2.0
1758088285.59094,1758088283.27645,0.0,0.0,0.0,-55.51962,31.62727,-1.83346,11.2,-1.07,1.75,2.0
1758088285.59454,1758088283.28645,0.0,0.0,0.0,-52.02457,34.95043,2.57831,8.85,-0.95,1.46,2.0
1758088285.61074,1758088283.29645,0.0,0.0,0.0,-44.63341,43.25832,5.55769,10.06,-1.66,0.13,2.0
1758088285.61609,1758088283.30645,0.0,0.0,0.0,-39.70598,46.63877,7.96411,10.06,-1.66,0.13,2.0
1758088285.63095,1758088283.31645,0.0,0.0,0.0,-35.3515,47.49821,8.99544,10.14,-2.36,0.43,2.0
1758088285.63588,1758088283.32645,0.0,0.0,0.0,-30.13758,50.93595,8.93814,10.14,-2.36,0.43,2.0
1758088285.65104,1758088283.33645,0.0,0.0,0.0,-27.61657,53.39967,7.84952,10.08,-2.24,0.77,2.0
1758088285.6546,1758088283.34645,0.0,0.0,0.0,-26.01229,53.62885,6.35983,10.08,-2.24,0.77,2.0
1758088285.69699,1758088283.35645,0.0,0.0,0.0,-25.43933,52.65482,4.64096,9.47,-1.57,0.69,2.0
1758088285.73914,1758088283.36645,0.0,0.0,0.0,-25.21014,51.90998,2.7502,9.28,-1.57,1.0,2.0
1758088285.74086,1758088283.37645,0.0,0.0,0.0,-25.55392,52.25375,1.71887,9.28,-0.95,1.0,2.0
1758088285.74182,1758088283.38645,0.0,0.0,0.0,-26.24147,51.16513,0.97403,9.19,-0.61,0.93,2.0
1758088285.74421,1758088283.39645,0.0,0.0,0.0,-27.10091,49.56085,0.22918,9.19,-0.61,0.93,2.0
1758088285.7461,1758088283.40645,0.0,0.0,0.0,-27.73116,46.40959,-0.68755,8.88,-0.52,1.16,2.0
1758088285.74676,1758088283.41645,0.0,0.0,0.0,-27.38738,44.23235,-0.85944,8.88,-0.52,1.16,2.0
1758088285.75173,1758088283.42645,0.0,0.0,0.0,-26.52795,41.94051,-1.08862,8.75,-0.73,1.07,2.0
1758088285.75609,1758088283.43645,0.0,0.0,0.0,-24.92367,39.53409,-1.14592,8.75,-0.73,1.07,2.0
1758088285.7565,1758088283.44645,0.0,0.0,0.0,-21.14215,36.49741,-1.20321,8.68,-1.22,0.85,2.0
1758088285.77431,1758088283.45645,0.0,0.0,0.0,-17.76169,33.68992,-1.43239,8.55,-1.81,0.61,2.0
1758088285.77707,1758088283.46645,0.0,0.0,0.0,-13.80828,29.27814,-1.60428,8.55,-1.81,0.61,2.0
1758088285.81686,1758088283.47645,0.0,0.0,0.0,-9.33921,24.86637,-1.48969,8.38,-2.3,0.35,2.0
1758088285.81942,1758088283.48645,0.0,0.0,0.0,-2.11994,20.74107,-1.14592,8.38,-2.3,0.35,2.0
1758088285.82036,1758088283.49645,0.0,0.0,0.0,2.97938,19.70975,-0.85944,8.62,-2.48,0.03,2.0
1758088285.82125,1758088283.50645,0.0,0.0,0.0,7.73493,18.22006,-0.80214,8.62,-2.48,0.03,2.0
1758088285.82231,1758088283.51645,0.0,0.0,0.0,14.78231,13.80828,-0.22918,8.46,-2.28,-0.12,2.0
1758088285.83775,1758088283.52645,0.0,0.0,0.0,18.90761,10.02676,0.0,8.35,-1.83,0.02,2.0
1758088285.84127,1758088283.53645,0.0,0.0,0.0,22.68913,5.90147,0.57296,8.35,-1.83,0.02,2.0
1758088285.88479,1758088283.54645,0.0,0.0,0.0,25.72581,2.57831,1.43239,8.68,-1.38,-0.01,2.0
1758088285.88685,1758088283.55645,0.0,0.0,0.0,28.36141,-2.34913,1.77617,8.68,-1.38,-0.01,2.0
1758088285.88725,1758088283.56645,0.0,0.0,0.0,28.64789,-6.70361,1.77617,9.09,-1.13,-0.01,2.0
1758088285.88831,1758088283.57645,0.0,0.0,0.0,27.84575,-12.43318,1.3751,9.09,-1.13,-0.01,2.0
1758088285.9039,1758088283.58645,0.0,0.0,0.0,26.18417,-18.22006,0.85944,9.28,-0.91,0.05,2.0
1758088285.90691,1758088283.59645,0.0,0.0,0.0,22.86102,-26.64254,0.0,9.65,-0.72,-0.25,2.0
1758088285.92172,1758088283.60645,0.0,0.0,0.0,20.16812,-30.48136,-0.68755,9.65,-0.72,-0.25,2.0
1758088285.9253,1758088283.61645,0.0,0.0,0.0,17.30333,-32.71589,-2.00535,10.06,-0.65,-0.5,2.0
1758088285.94171,1758088283.62645,0.0,0.0,0.0,14.49583,-32.77319,-3.20856,10.06,-0.65,-0.5,2.0
1758088285.94292,1758088283.63645,0.0,0.0,0.0,11.28727,-30.30947,-4.87014,10.25,-0.72,-0.5,2.0
1758088285.95804,1758088283.64645,0.0,0.0,0.0,10.48513,-28.07493,-5.32851,10.25,-0.72,-0.5,2.0
1758088285.97635,1758088283.65645,0.0,0.0,0.0,10.65701,-24.17882,-5.09932,10.52,-0.99,-0.13,2.0
1758088285.97841,1758088283.66645,0.0,0.0,0.0,11.45916,-19.13679,-4.29718,10.52,-0.99,-0.13,2.0
1758088285.99638,1758088283.67645,0.0,0.0,0.0,12.71966,-24.12152,-0.0573,12.28,-1.06,1.1,2.0
1758088285.99976,1758088283.68645,0.0,0.0,0.0,12.43318,-38.56006,4.92744,13.04,-0.32,3.09,2.0
1758088286.00123,1758088283.69645,0.0,0.0,0.0,11.57375,-55.40502,11.74564,13.04,-0.32,3.09,2.0
1758088286.04067,1758088283.70645,0.0,0.0,0.0,9.28192,-63.65561,20.85567,13.17,-0.12,3.34,2.0
1758088286.04164,1758088283.71645,0.0,0.0,0.0,6.70361,-55.23313,24.63719,13.17,-0.12,3.34,2.0
1758088286.04225,1758088283.72645,0.0,0.0,0.0,3.49504,-45.77933,25.49662,13.82,-0.49,1.79,2.0
1758088286.04429,1758088283.73645,0.0,0.0,0.0,0.68755,-41.48215,23.66316,13.82,-0.49,1.79,2.0
1758088286.06092,1758088283.74645,0.0,0.0,0.0,-1.08862,-44.40423,18.16276,11.49,-1.16,2.57,2.0
1758088286.06189,1758088283.75645,0.0,0.0,0.0,-0.68755,-46.2377,13.98017,9.98,-1.44,2.59,2.0
1758088286.07695,1758088283.76645,0.0,0.0,0.0,1.83346,-44.63341,10.31324,9.98,-1.44,2.59,2.0
1758088286.09453,1758088283.77645,0.0,0.0,0.0,6.13065,-39.4195,9.22462,10.38,-1.08,2.67,2.0
1758088286.09812,1758088283.78645,0.0,0.0,0.0,13.75099,-22.34536,8.59437,10.38,-1.08,2.67,2.0
1758088286.11615,1758088283.79645,0.0,0.0,0.0,18.85031,-9.11003,8.76626,10.94,-0.43,3.12,2.0
1758088286.16064,1758088283.80645,0.0,0.0,0.0,22.91831,4.29718,9.22462,10.94,-0.43,3.12,2.0
1758088286.16117,1758088283.81645,0.0,0.0,0.0,26.75713,9.28192,9.28192,10.86,0.33,3.09,2.0
1758088286.16636,1758088283.82645,0.0,0.0,0.0,30.36677,-10.71431,7.44845,8.4,0.61,2.04,2.0
1758088286.17182,1758088283.83645,0.0,0.0,0.0,31.91375,-35.92446,6.41713,8.4,0.61,2.04,2.0
1758088286.22882,1758088283.84645,0.0,0.0,0.0,33.51803,-24.63719,6.8182,9.76,0.15,0.66,2.0
1758088286.23109,1758088283.85645,0.0,0.0,0.0,36.7266,-3.72423,8.47978,9.76,0.15,0.66,2.0
1758088286.23177,1758088283.86645,0.0,0.0,0.0,40.62271,4.92744,8.93814,12.57,-0.14,1.01,2.0
1758088286.23603,1758088283.87645,0.0,0.0,0.0,39.87786,4.0107,7.84952,12.57,-0.14,1.01,2.0
1758088286.23677,1758088283.88645,0.0,0.0,0.0,37.24226,7.04738,6.70361,9.7,-0.15,2.34,2.0
1758088286.24143,1758088283.89645,0.0,0.0,0.0,32.48671,12.54778,3.83882,9.7,-0.15,2.34,2.0
1758088286.24186,1758088283.90645,0.0,0.0,0.0,23.0329,19.25138,0.80214,9.66,0.44,1.37,2.0
1758088286.24534,1758088283.91645,0.0,0.0,0.0,16.67307,23.94964,-1.71887,9.39,1.39,0.58,2.0
1758088286.24609,1758088283.92645,0.0,0.0,0.0,10.94349,28.24682,-3.89611,9.39,1.39,0.58,2.0
1758088286.24721,1758088283.93645,0.0,0.0,0.0,4.98473,31.2262,-5.78687,9.47,1.66,0.84,2.0
1758088286.25209,1758088283.94645,0.0,0.0,0.0,2.63561,32.6013,-6.13065,9.47,1.66,0.84,2.0
1758088286.27199,1758088283.95645,0.0,0.0,0.0,1.3751,34.89313,-5.90147,9.31,1.21,0.59,2.0
1758088286.27612,1758088283.96645,0.0,0.0,0.0,1.48969,36.84119,-5.21392,9.31,1.21,0.59,2.0
1758088286.29193,1758088283.97645,0.0,0.0,0.0,3.20856,38.21629,-3.83882,9.31,0.38,0.78,2.0
1758088286.29671,1758088283.98645,0.0,0.0,0.0,4.92744,38.27358,-2.57831,9.11,-0.24,0.9,2.0
1758088286.31193,1758088283.99645,0.0,0.0,0.0,6.53172,39.70598,-2.11994,9.11,-0.24,0.9,2.0
1758088286.31771,1758088284.00645,0.0,0.0,0.0,8.30789,40.7946,-0.80214,9.15,-0.47,1.0,2.0
1758088286.31991,1758088284.01645,0.0,0.0,0.0,9.33921,42.34158,0.22918,9.15,-0.47,1.0,2.0
1758088286.33568,1758088284.02645,0.0,0.0,0.0,9.22462,43.31561,0.74485,9.13,-0.34,0.9,2.0
1758088286.35163,1758088284.03645,0.0,0.0,0.0,8.65166,44.00316,1.08862,9.13,-0.34,0.9,2.0
1758088286.35523,1758088284.04645,0.0,0.0,0.0,7.62034,43.4875,1.48969,9.13,-0.08,0.81,2.0
1758088286.37146,1758088284.05645,0.0,0.0,0.0,5.09932,41.36755,1.83346,8.89,0.2,0.53,2.0
1758088286.37539,1758088284.06645,0.0,0.0,0.0,3.03668,38.38818,1.83346,8.89,0.2,0.53,2.0
1758088286.39182,1758088284.07645,0.0,0.0,0.0,1.08862,34.14828,1.77617,8.55,0.37,0.23,2.0
1758088286.39662,1758088284.08645,0.0,0.0,0.0,-0.57296,29.50733,2.11994,8.55,0.37,0.23,2.0
1758088286.41196,1758088284.09645,0.0,0.0,0.0,-3.09397,22.40265,2.11994,8.41,0.4,0.1,2.0
1758088286.41685,1758088284.10645,0.0,0.0,0.0,-4.81285,15.29797,2.57831,8.41,0.4,0.1,2.0
1758088286.4317,1758088284.11645,0.0,0.0,0.0,-6.70361,9.05273,2.23454,8.15,0.32,-0.07,2.0
1758088286.43613,1758088284.12645,0.0,0.0,0.0,-8.99544,4.69825,2.63561,8.15,0.32,-0.07,2.0
1758088286.45176,1758088284.13645,0.0,0.0,0.0,-9.91217,2.34913,2.97938,8.69,0.26,-0.02,2.0
1758088286.45529,1758088284.14645,0.0,0.0,0.0,-10.94349,-0.22918,3.55234,9.15,0.31,0.24,2.0
1758088286.47148,1758088284.15645,0.0,0.0,0.0,-11.97482,-3.66693,3.89611,9.15,0.31,0.24,2.0
1758088286.47695,1758088284.16645,0.0,0.0,0.0,-13.75099,-9.91217,4.18259,9.4,0.34,0.76,2.0
1758088286.49191,1758088284.17645,0.0,0.0,0.0,-15.29797,-13.98017,3.66693,9.4,0.34,0.76,2.0
1758088286.49609,1758088284.18645,0.0,0.0,0.0,-16.90226,-17.30333,2.97938,9.54,0.26,0.72,2.0
1758088286.51195,1758088284.19645,0.0,0.0,0.0,-18.62113,-20.22541,2.06265,9.54,0.26,0.72,2.0
1758088286.5168,1758088284.20645,0.0,0.0,0.0,-21.08485,-22.57454,0.68755,9.78,0.16,0.53,2.0
1758088286.53443,1758088284.21645,0.0,0.0,0.0,-22.23076,-23.37668,-0.17189,10.14,0.18,0.27,2.0
1758088286.53624,1758088284.22645,0.0,0.0,0.0,-23.0902,-22.63183,-1.08862,10.14,0.18,0.27,2.0
1758088286.55164,1758088284.23645,0.0,0.0,0.0,-23.83505,-20.51189,-1.66158,10.55,0.34,-0.06,2.0
1758088286.55614,1758088284.24645,0.0,0.0,0.0,-24.5226,-15.92823,-1.66158,10.55,0.34,-0.06,2.0
1758088286.57164,1758088284.25645,0.0,0.0,0.0,-24.80907,-13.23533,-0.85944,10.83,0.5,-0.36,2.0
1758088286.5761,1758088284.26645,0.0,0.0,0.0,-25.26744,-9.91217,-0.11459,10.83,0.5,-0.36,2.0
1758088286.59164,1758088284.27645,0.0,0.0,0.0,-25.89769,-5.55769,0.68755,11.07,0.51,-0.46,2.0
1758088286.59617,1758088284.28645,0.0,0.0,0.0,-27.44468,-0.74485,1.83346,11.34,0.46,-0.32,2.0
1758088286.61167,1758088284.29645,0.0,0.0,0.0,-29.04896,2.23454,1.66158,11.34,0.46,-0.32,2.0
1758088286.61612,1758088284.30645,0.0,0.0,0.0,-29.96569,5.21392,1.14592,12.06,0.26,0.47,2.0
1758088286.6316,1758088284.31645,0.0,0.0,0.0,-28.07493,1.3178,-1.83346,12.06,0.26,0.47,2.0
1758088286.63608,1758088284.32645,0.0,0.0,0.0,-25.43933,-17.53251,-5.90147,12.22,-0.37,1.86,2.0
1758088286.65164,1758088284.33645,0.0,0.0,0.0,-22.28806,-32.20023,-11.17268,12.22,-0.37,1.86,2.0
1758088286.65607,1758088284.34645,0.0,0.0,0.0,-18.44924,-42.91454,-16.61578,12.16,-0.76,3.01,2.0
1758088286.67168,1758088284.35645,0.0,0.0,0.0,-11.63104,-46.98254,-22.00158,12.16,-0.76,3.01,2.0
1758088286.67597,1758088284.36645,0.0,0.0,0.0,-6.7609,-43.37291,-22.63183,12.4,-1.02,1.82,2.0
1758088286.69175,1758088284.37645,0.0,0.0,0.0,-2.46372,-42.1124,-20.3973,11.33,-1.18,1.65,2.0
1758088286.696,1758088284.38645,0.0,0.0,0.0,0.68755,-43.83128,-16.67307,11.33,-1.18,1.65,2.0
1758088286.71191,1758088284.39645,0.0,0.0,0.0,3.03668,-47.38361,-9.33921,9.16,-0.88,1.7,2.0
1758088286.71637,1758088284.40645,0.0,0.0,0.0,2.11994,-48.52953,-4.29718,9.16,-0.88,1.7,2.0
1758088286.73164,1758088284.41645,0.0,0.0,0.0,-1.03132,-47.09713,-1.14592,8.58,-0.5,1.76,2.0
1758088286.73599,1758088284.42645,0.0,0.0,0.0,-5.09932,-42.74266,-0.51566,8.58,-0.5,1.76,2.0
1758088286.75155,1758088284.43645,0.0,0.0,0.0,-13.06344,-32.48671,-0.85944,9.21,-0.37,2.01,2.0
1758088286.75601,1758088284.44645,0.0,0.0,0.0,-16.73037,-31.39809,-1.66158,9.75,-0.43,3.12,2.0
1758088286.77167,1758088284.45645,0.0,0.0,0.0,-21.6578,-44.40423,-5.95876,9.75,-0.43,3.12,2.0
1758088286.77602,1758088284.46645,0.0,0.0,0.0,-25.38203,-58.49899,-9.91217,8.48,-0.25,2.71,2.0
1758088286.79188,1758088284.47645,0.0,0.0,0.0,-28.87707,-65.48907,-13.46451,8.48,-0.25,2.71,2.0
1758088286.79599,1758088284.48645,0.0,0.0,0.0,-30.65324,-52.76942,-14.09476,10.76,-0.37,0.99,2.0
1758088286.81189,1758088284.49645,0.0,0.0,0.0,-32.6013,-24.23611,-13.69369,10.76,-0.37,0.99,2.0
1758088286.81603,1758088284.50645,0.0,0.0,0.0,-38.1017,-0.85944,-10.8289,13.87,-0.51,0.64,2.0
1758088286.83183,1758088284.51645,0.0,0.0,0.0,-39.76327,14.32395,-9.5684,11.11,-0.9,2.12,2.0
1758088286.84108,1758088284.52645,0.0,0.0,0.0,-39.4768,16.84496,-6.58902,11.11,-0.9,2.12,2.0
1758088286.87193,1758088284.53645,0.0,0.0,0.0,-37.29956,21.31403,-4.35448,9.68,-1.03,1.25,2.0
1758088286.87688,1758088284.54645,0.0,0.0,0.0,-31.16891,33.40344,-0.34377,9.68,-1.03,1.25,2.0
1758088286.87749,1758088284.55645,0.0,0.0,0.0,-26.18417,41.48215,2.34913,10.73,-1.74,0.21,2.0
1758088286.87954,1758088284.56645,0.0,0.0,0.0,-21.48592,46.1804,4.58366,10.73,-1.74,0.21,2.0
1758088286.88091,1758088284.57645,0.0,0.0,0.0,-17.13144,49.27437,6.18794,10.29,-2.24,0.45,2.0
1758088286.89656,1758088284.58645,0.0,0.0,0.0,-11.74564,53.28508,7.10468,9.75,-2.24,0.67,2.0
1758088286.91689,1758088284.59645,0.0,0.0,0.0,-9.5684,54.48829,7.04738,9.75,-2.08,0.67,2.0
1758088286.92174,1758088284.60645,0.0,0.0,0.0,-8.0787,54.3737,6.07335,9.26,-1.51,0.51,2.0
1758088286.96838,1758088284.61645,0.0,0.0,0.0,-7.73493,52.82671,4.23989,9.26,-1.51,0.51,2.0
1758088286.97072,1758088284.62645,0.0,0.0,0.0,-8.136,50.53488,2.23454,9.01,-0.9,0.88,2.0
1758088286.97167,1758088284.63645,0.0,0.0,0.0,-8.93814,49.50356,0.85944,9.01,-0.9,0.88,2.0
1758088286.97659,1758088284.64645,0.0,0.0,0.0,-9.85487,46.81066,0.17189,9.03,-0.49,0.8,2.0
1758088286.97717,1758088284.65645,0.0,0.0,0.0,-10.8862,45.20637,-0.45837,9.03,-0.49,0.8,2.0
1758088286.97797,1758088284.66645,0.0,0.0,0.0,-12.43318,42.57077,-1.08862,8.82,-0.35,0.81,2.0
1758088286.98064,1758088284.67645,0.0,0.0,0.0,-13.00614,39.4768,-1.43239,8.47,-0.48,0.86,2.0
1758088286.99682,1758088284.68645,0.0,0.0,0.0,-13.06344,35.58068,-1.43239,8.47,-0.48,0.86,2.0
1758088287.02854,1758088284.69645,0.0,0.0,0.0,-12.83425,32.88778,-1.48969,8.32,-0.81,0.76,2.0
1758088287.03857,1758088284.70645,0.0,0.0,0.0,-11.22997,29.56462,-1.48969,8.32,-0.81,0.76,2.0
1758088287.03995,1758088284.71645,0.0,0.0,0.0,-9.85487,25.8404,-1.83346,8.35,-1.2,0.53,2.0
1758088287.04165,1758088284.72645,0.0,0.0,0.0,-7.84952,21.37133,-2.29183,8.35,-1.2,0.53,2.0
1758088287.0463,1758088284.73645,0.0,0.0,0.0,-4.69825,18.33465,-2.92208,8.27,-1.56,0.32,2.0
1758088287.05155,1758088284.74645,0.0,0.0,0.0,-2.92208,18.79302,-3.60963,8.83,-1.73,0.1,2.0
1758088287.07058,1758088284.75645,0.0,0.0,0.0,-1.08862,17.24603,-4.35448,8.83,-1.73,0.1,2.0
1758088287.07172,1758088284.76645,0.0,0.0,0.0,1.03132,13.75099,-4.64096,8.5,-1.62,0.12,2.0
1758088287.09148,1758088284.77645,0.0,0.0,0.0,4.81285,9.05273,-4.46907,8.5,-1.62,0.12,2.0
1758088287.09667,1758088284.78645,0.0,0.0,0.0,7.16197,7.04738,-3.83882,8.5,-1.4,-0.06,2.0
1758088287.11185,1758088284.79645,0.0,0.0,0.0,9.62569,4.1253,-2.7502,8.5,-1.4,-0.06,2.0
1758088287.11592,1758088284.80645,0.0,0.0,0.0,11.97482,1.03132,-1.48969,8.61,-1.18,-0.05,2.0
1758088287.2285,1758088284.81645,0.0,0.0,0.0,14.78231,-4.87014,0.11459,8.83,-0.97,0.12,2.0
1758088287.23592,1758088284.82645,0.0,0.0,0.0,15.87093,-10.08406,0.97403,8.83,-0.97,0.12,2.0
1758088287.2365,1758088284.83645,0.0,0.0,0.0,16.3293,-15.41257,1.14592,9.03,-0.83,0.23,2.0
1758088287.24087,1758088284.84645,0.0,0.0,0.0,16.10011,-21.6578,0.85944,9.03,-0.83,0.23,2.0
1758088287.24153,1758088284.85645,0.0,0.0,0.0,14.9542,-30.88243,0.0573,9.39,-0.69,0.13,2.0
1758088287.24634,1758088284.86645,0.0,0.0,0.0,13.5791,-34.89313,-0.80214,9.39,-0.69,0.13,2.0
1758088287.24677,1758088284.87645,0.0,0.0,0.0,12.204,-37.18496,-1.94806,10.08,-0.69,-0.12,2.0
1758088287.24733,1758088284.88645,0.0,0.0,0.0,10.8289,-37.52874,-3.03668,10.08,-0.69,-0.12,2.0
1758088287.24959,1758088284.89645,0.0,0.0,0.0,9.39651,-33.68992,-4.52637,10.65,-0.96,-0.43,2.0
1758088287.25,1758088284.90645,0.0,0.0,0.0,9.22462,-28.93437,-4.81285,11.1,-1.42,-0.48,2.0
1758088287.25105,1758088284.91645,0.0,0.0,0.0,9.68299,-23.20479,-4.81285,11.1,-1.42,-0.48,2.0
1758088287.25187,1758088284.92645,0.0,0.0,0.0,11.63104,-14.72501,-4.1253,11.26,-1.87,-0.48,2.0
1758088287.25704,1758088284.93645,0.0,0.0,0.0,14.20935,-10.94349,-3.03668,11.26,-1.87,-0.48,2.0
1758088287.33147,1758088284.94645,0.0,0.0,0.0,17.6471,-8.30789,-1.3751,11.44,-2.1,0.02,2.0
1758088287.45188,1758088284.95645,0.0,0.0,0.0,21.02755,-8.65166,0.85944,11.44,-2.1,0.02,2.0
1758088287.45594,1758088284.96645,0.0,0.0,0.0,23.94964,-20.62648,5.90147,12.47,-1.44,0.8,2.0
1758088287.46116,1758088284.97645,0.0,0.0,0.0,24.35071,-37.47144,10.65701,12.39,-0.56,2.97,2.0
1758088287.46154,1758088284.98645,0.0,0.0,0.0,24.00693,-52.13916,16.55848,12.39,-0.56,2.97,2.0
1758088287.46596,1758088284.99645,0.0,0.0,0.0,22.00158,-61.42108,22.05888,12.73,-0.34,2.97,2.0
1758088287.46659,1758088285.00645,0.0,0.0,0.0,16.67307,-59.53032,26.35606,12.73,-0.34,2.97,2.0
1758088287.46782,1758088285.01645,0.0,0.0,0.0,12.43318,-52.42564,25.49662,12.93,-0.48,2.01,2.0
1758088287.4684,1758088285.02645,0.0,0.0,0.0,8.30789,-46.75336,21.7151,12.93,-0.48,2.01,2.0
1758088287.47,1758088285.03645,0.0,0.0,0.0,5.27121,-44.23235,17.24603,10.83,-0.89,1.63,2.0
1758088287.4711,1758088285.04645,0.0,0.0,0.0,4.52637,-37.92981,10.25595,9.71,-1.27,1.67,2.0
1758088287.47182,1758088285.05645,0.0,0.0,0.0,6.87549,-31.91375,6.8182,9.71,-1.27,1.67,2.0
1758088287.4769,1758088285.06645,0.0,0.0,0.0,10.71431,-22.86102,4.23989,9.92,-0.97,2.31,2.0
1758088287.48031,1758088285.07645,0.0,0.0,0.0,15.92823,-11.57375,3.60963,9.92,-0.97,2.31,2.0
1758088287.4814,1758088285.08645,0.0,0.0,0.0,25.89769,-3.66693,5.95876,10.29,-0.27,3.33,2.0
1758088287.48188,1758088285.09645,0.0,0.0,0.0,30.99702,-6.41713,6.24524,10.29,-0.27,3.33,2.0
1758088287.48864,1758088285.10645,0.0,0.0,0.0,37.92981,-26.69983,9.39651,9.07,0.21,2.7,2.0
1758088287.49167,1758088285.11645,0.0,0.0,0.0,44.40423,-34.43476,10.48513,9.07,0.21,2.7,2.0
1758088287.49846,1758088285.12645,0.0,0.0,0.0,48.8733,-8.25059,13.40721,10.16,-0.06,1.1,2.0
1758088287.50417,1758088285.13645,0.0,0.0,0.0,51.85268,2.92208,15.41257,13.41,-0.31,1.18,2.0
1758088287.50588,1758088285.14645,0.0,0.0,0.0,51.90998,4.23989,14.61043,13.41,-0.31,1.18,2.0
1758088287.50687,1758088285.15645,0.0,0.0,0.0,47.78468,8.0787,11.17268,10.53,-0.41,2.35,2.0
1758088287.51093,1758088285.16645,0.0,0.0,0.0,42.34158,13.98017,8.47978,10.53,-0.41,2.35,2.0
1758088287.51394,1758088285.17645,0.0,0.0,0.0,35.12231,20.45459,4.87014,10.17,0.11,1.49,2.0
1758088287.51554,1758088285.18645,0.0,0.0,0.0,27.33009,27.10091,1.43239,10.17,0.11,1.49,2.0
1758088287.5391,1758088285.19645,0.0,0.0,0.0,15.98552,34.89313,-2.97938,9.77,1.22,0.45,2.0
1758088287.53978,1758088285.20645,0.0,0.0,0.0,9.91217,37.64333,-4.87014,9.61,1.94,0.51,2.0
1758088287.54244,1758088285.21645,0.0,0.0,0.0,5.72958,40.04975,-5.84417,9.61,1.94,0.51,2.0
1758088287.54609,1758088285.22645,0.0,0.0,0.0,2.7502,41.88322,-6.24524,9.47,1.8,0.54,2.0
1758088287.54695,1758088285.23645,0.0,0.0,0.0,0.68755,43.60209,-5.95876,9.47,1.8,0.54,2.0
1758088287.55593,1758088285.24645,0.0,0.0,0.0,0.97403,43.4875,-5.15662,9.23,0.99,0.84,2.0
1758088287.57157,1758088285.25645,0.0,0.0,0.0,2.06265,43.20102,-4.35448,9.23,0.99,0.84,2.0
1758088287.57436,1758088285.26645,0.0,0.0,0.0,3.95341,41.25296,-3.26586,8.91,0.1,1.09,2.0
1758088287.58984,1758088285.27645,0.0,0.0,0.0,6.47442,42.05511,-2.40642,8.87,-0.51,1.09,2.0
1758088287.59099,1758088285.28645,0.0,0.0,0.0,7.79223,42.34158,-1.60428,8.87,-0.51,1.09,2.0
1758088287.6056,1758088285.29645,0.0,0.0,0.0,8.65166,42.51347,-0.45837,8.72,-0.63,1.02,2.0
1758088287.62174,1758088285.30645,0.0,0.0,0.0,8.59437,42.62806,0.80214,8.72,-0.63,1.02,2.0
1758088287.62596,1758088285.31645,0.0,0.0,0.0,7.16197,41.88322,1.20321,8.73,-0.38,1.12,2.0
1758088287.64181,1758088285.32645,0.0,0.0,0.0,5.50039,40.39353,1.77617,8.73,-0.38,1.12,2.0
1758088287.64458,1758088285.33645,0.0,0.0,0.0,3.49504,38.90384,2.11994,8.63,0.05,0.82,2.0
1758088287.66059,1758088285.34645,0.0,0.0,0.0,0.22918,35.75257,2.86479,8.63,0.05,0.82,2.0
1758088287.66155,1758088285.35645,0.0,0.0,0.0,-1.66158,32.37212,2.92208,8.54,0.4,0.5,2.0
1758088287.67678,1758088285.36645,0.0,0.0,0.0,-3.20856,27.1582,2.92208,8.3,0.55,0.4,2.0
1758088287.69431,1758088285.37645,0.0,0.0,0.0,-4.18259,21.37133,3.26586,8.3,0.55,0.4,2.0
1758088287.69714,1758088285.38645,0.0,0.0,0.0,-5.72958,13.80828,3.38045,8.31,0.49,0.33,2.0
1758088287.70016,1758088285.39645,0.0,0.0,0.0,-6.41713,9.68299,3.38045,8.31,0.49,0.33,2.0
1758088287.71678,1758088285.40645,0.0,0.0,0.0,-6.99009,5.84417,3.38045,8.51,0.22,0.11,2.0
1758088287.73427,1758088285.41645,0.0,0.0,0.0,-7.62034,1.71887,3.72423,8.51,0.22,0.11,2.0
1758088287.73714,1758088285.42645,0.0,0.0,0.0,-8.88085,-5.4431,4.18259,8.8,-0.01,0.29,2.0
1758088287.75436,1758088285.43645,0.0,0.0,0.0,-9.91217,-9.39651,4.18259,9.19,-0.03,0.42,2.0
1758088287.75551,1758088285.44645,0.0,0.0,0.0,-10.94349,-13.46451,4.64096,9.19,-0.03,0.42,2.0
1758088287.77181,1758088285.45645,0.0,0.0,0.0,-12.2613,-17.13144,4.46907,9.62,0.0,0.57,2.0
1758088287.7759,1758088285.46645,0.0,0.0,0.0,-14.15206,-21.7151,4.1253,9.62,0.0,0.57,2.0
1758088287.79176,1758088285.47645,0.0,0.0,0.0,-15.41257,-23.72045,3.55234,9.88,-0.05,0.53,2.0
1758088287.79587,1758088285.48645,0.0,0.0,0.0,-16.90226,-24.98096,3.32316,9.88,-0.05,0.53,2.0
1758088287.81177,1758088285.49645,0.0,0.0,0.0,-18.10547,-25.49662,2.86479,10.18,-0.16,0.4,2.0
1758088287.817,1758088285.50645,0.0,0.0,0.0,-19.25138,-24.98096,2.34913,10.44,-0.12,0.15,2.0
1758088287.86165,1758088285.51645,0.0,0.0,0.0,-19.99623,-23.0902,2.46372,10.44,-0.12,0.15,2.0
1758088287.86661,1758088285.52645,0.0,0.0,0.0,-20.74107,-19.88164,3.03668,10.92,0.08,-0.08,2.0
1758088287.86722,1758088285.53645,0.0,0.0,0.0,-22.74642,-14.20935,3.89611,10.92,0.08,-0.08,2.0
1758088287.86926,1758088285.54645,0.0,0.0,0.0,-24.75178,-9.62569,4.1253,11.23,0.37,-0.19,2.0
1758088287.87065,1758088285.55645,0.0,0.0,0.0,-26.98631,-4.92744,4.29718,11.23,0.37,-0.19,2.0
1758088287.87464,1758088285.56645,0.0,0.0,0.0,-29.62192,-0.40107,4.0107,11.34,0.62,-0.29,2.0
1758088287.89181,1758088285.57645,0.0,0.0,0.0,-33.80451,3.38045,2.92208,11.34,0.62,-0.29,2.0
1758088287.89702,1758088285.58645,0.0,0.0,0.0,-36.84119,5.09932,2.00535,11.1,0.73,-0.34,2.0
1758088287.91178,1758088285.59645,0.0,0.0,0.0,-39.4768,7.16197,1.20321,11.01,0.62,-0.31,2.0
1758088287.91594,1758088285.60645,0.0,0.0,0.0,-41.08107,7.67763,0.85944,11.01,0.62,-0.31,2.0
1758088287.93153,1758088285.61645,0.0,0.0,0.0,-40.10705,1.20321,-0.85944,11.2,0.1,0.64,2.0
1758088287.93433,1758088285.62645,0.0,0.0,0.0,-37.58603,-9.96947,-3.83882,11.2,0.1,0.64,2.0
1758088287.95178,1758088285.63645,0.0,0.0,0.0,-33.51803,-25.72581,-7.62034,11.38,-0.77,2.24,2.0
1758088287.95585,1758088285.64645,0.0,0.0,0.0,-28.64789,-41.36755,-12.77696,11.38,-0.77,2.24,2.0
1758088287.9715,1758088285.65645,0.0,0.0,0.0,-19.99623,-55.6342,-19.25138,11.75,-1.39,2.67,2.0
1758088287.97588,1758088285.66645,0.0,0.0,0.0,-13.46451,-58.09792,-21.7151,12.27,-1.93,2.09,2.0
1758088287.9918,1758088285.67645,0.0,0.0,0.0,-6.99009,-56.78012,-21.88699,12.27,-1.93,2.09,2.0
1758088287.99595,1758088285.68645,0.0,0.0,0.0,-1.83346,-52.54023,-19.70975,11.21,-1.93,1.66,2.0
1758088288.0118,1758088285.69645,0.0,0.0,0.0,3.72423,-43.77398,-12.2613,11.21,-1.93,1.66,2.0
1758088288.03601,1758088285.70645,0.0,0.0,0.0,4.98473,-37.47144,-6.41713,9.52,-1.02,1.49,2.0
1758088288.03663,1758088285.71645,0.0,0.0,0.0,4.69825,-37.92981,0.11459,9.52,-1.02,1.49,2.0
1758088288.04028,1758088285.72645,0.0,0.0,0.0,-0.97403,-54.08722,3.89611,7.55,-0.28,2.03,2.0
1758088288.04089,1758088285.73645,0.0,0.0,0.0,-6.13065,-72.07809,4.81285,7.06,-0.01,2.0,2.0
1758088288.0568,1758088285.74645,0.0,0.0,0.0,-11.51645,-64.22858,4.81285,7.06,-0.01,2.0,2.0
1758088288.09579,1758088285.75645,0.0,0.0,0.0,-17.58981,-42.91454,1.60428,11.99,0.17,1.94,2.0
1758088288.09672,1758088285.76645,0.0,0.0,0.0,-25.38203,-22.05888,-5.95876,11.99,0.17,1.94,2.0
1758088288.09825,1758088285.77645,0.0,0.0,0.0,-28.64789,-18.10547,-9.4538,12.07,-0.36,2.94,2.0
1758088288.10112,1758088285.78645,0.0,0.0,0.0,-30.19488,-14.78231,-12.37589,12.07,-0.36,2.94,2.0
1758088288.10165,1758088285.79645,0.0,0.0,0.0,-29.62192,-6.70361,-13.46451,10.71,-0.75,1.79,2.0
1758088288.1185,1758088285.80645,0.0,0.0,0.0,-25.7831,8.136,-12.204,10.83,-0.75,0.49,2.0
1758088288.12131,1758088285.81645,0.0,0.0,0.0,-22.05888,16.90226,-10.02676,10.83,-1.29,0.49,2.0
1758088288.13782,1758088285.82645,0.0,0.0,0.0,-17.87628,24.35071,-7.04738,10.26,-1.77,0.73,2.0
1758088288.14031,1758088285.83645,0.0,0.0,0.0,-13.5791,31.28349,-3.83882,10.26,-1.77,0.73,2.0
1758088288.15675,1758088285.84645,0.0,0.0,0.0,-7.73493,39.4768,0.57296,10.17,-1.98,0.89,2.0
1758088288.17665,1758088285.85645,0.0,0.0,0.0,-3.95341,44.28964,3.09397,10.17,-1.98,0.89,2.0
1758088288.20083,1758088285.86645,0.0,0.0,0.0,-0.85944,48.52953,4.87014,10.22,-1.93,0.73,2.0
1758088288.2014,1758088285.87645,0.0,0.0,0.0,1.48969,50.93595,5.95876,10.22,-1.93,0.73,2.0
