timeStamp,timeStampAlign,roll,pitch,yaw,gyro_x,gyro_y,gyro_z,acc_x,acc_y,acc_z,flag_num
1758078513.36466,1758078513.34436,0.0,0.0,0.0,23.0902,-48.58683,-11.28727,8.02,0.3,3.18,3.0
1758078513.38091,1758078513.35436,0.0,0.0,0.0,24.17882,-51.50891,-9.5684,8.02,0.3,3.18,3.0
1758078513.38184,1758078513.36436,0.0,0.0,0.0,25.7831,-53.39967,-7.04738,8.27,0.18,3.1,3.0
1758078513.39693,1758078513.37436,0.0,0.0,0.0,28.76248,-54.08722,-3.49504,8.27,0.18,3.1,3.0
1758078513.41295,1758078513.38436,0.0,0.0,0.0,31.11161,-52.76942,-1.08862,8.55,-0.16,3.08,3.0
1758078513.41385,1758078513.39436,0.0,0.0,0.0,33.46074,-50.3057,1.03132,8.55,-0.16,3.08,3.0
1758078513.42862,1758078513.40436,0.0,0.0,0.0,35.58068,-46.52417,2.34913,9.02,-0.28,3.01,3.0
1758078513.42983,1758078513.41436,0.0,0.0,0.0,37.47144,-38.21629,3.03668,9.44,-0.09,2.63,3.0
1758078513.44501,1758078513.42436,0.0,0.0,0.0,37.98711,-32.08564,2.6929,9.44,-0.09,2.63,3.0
1758078513.46118,1758078513.43436,0.0,0.0,0.0,37.58603,-25.55392,2.11994,9.39,0.37,2.32,3.0
1758078513.46229,1758078513.44436,0.0,0.0,0.0,36.21093,-18.44924,0.80214,9.39,0.37,2.32,3.0
1758078513.47665,1758078513.45436,0.0,0.0,0.0,33.9764,-7.33386,-1.60428,9.34,0.85,2.2,3.0
1758078513.49293,1758078513.46435,0.0,0.0,0.0,31.79916,-0.80214,-3.32316,9.34,0.85,2.2,3.0
1758078513.49413,1758078513.47435,0.0,0.0,0.0,29.67921,4.98473,-4.98473,9.13,1.07,2.05,3.0
1758078513.50872,1758078513.48435,0.0,0.0,0.0,27.33009,10.31324,-6.70361,9.13,1.07,2.05,3.0
1758078513.50991,1758078513.49435,0.0,0.0,0.0,24.00693,17.47521,-8.76626,9.14,1.09,1.81,3.0
1758078513.525,1758078513.50435,0.0,0.0,0.0,21.37133,20.79837,-10.08406,8.96,0.92,1.75,3.0
1758078513.5418,1758078513.51435,0.0,0.0,0.0,19.36597,22.91831,-11.17268,8.96,0.92,1.75,3.0
1758078513.54463,1758078513.52435,0.0,0.0,0.0,16.73037,25.55392,-12.83425,8.71,0.83,1.52,3.0
1758078513.56072,1758078513.53435,0.0,0.0,0.0,15.75634,26.98631,-13.98017,8.71,0.83,1.52,3.0
1758078513.56171,1758078513.54435,0.0,0.0,0.0,15.06879,27.67386,-14.72501,8.63,0.87,1.63,3.0
1758078513.577,1758078513.55435,0.0,0.0,0.0,15.06879,28.99167,-15.12609,8.63,0.87,1.63,3.0
1758078513.59431,1758078513.56435,0.0,0.0,0.0,15.64175,29.73651,-15.12609,8.78,0.95,1.7,3.0
1758078513.59588,1758078513.57435,0.0,0.0,0.0,15.92823,29.27814,-14.32395,8.62,1.03,1.73,3.0
1758078513.61111,1758078513.58435,0.0,0.0,0.0,16.21471,29.50733,-12.60507,8.62,1.03,1.73,3.0
1758078513.61219,1758078513.59435,0.0,0.0,0.0,16.3293,29.96569,-10.54242,8.65,1.08,1.97,3.0
1758078513.62668,1758078513.60435,0.0,0.0,0.0,15.64175,30.13758,-7.33386,8.65,1.08,1.97,3.0
1758078513.64277,1758078513.61435,0.0,0.0,0.0,13.98017,29.67921,-6.7609,8.61,1.01,2.27,3.0
1758078513.64398,1758078513.62435,0.0,0.0,0.0,11.86023,27.61657,-7.10468,8.61,1.01,2.27,3.0
1758078513.65879,1758078513.63435,0.0,0.0,0.0,9.39651,23.60586,-8.25059,8.36,1.06,2.38,3.0
1758078513.6607,1758078513.64435,0.0,0.0,0.0,5.84417,19.25138,-10.02676,8.33,1.3,2.11,3.0
1758078513.6758,1758078513.65435,0.0,0.0,0.0,3.72423,17.81899,-10.25595,8.33,1.3,2.11,3.0
1758078513.69176,1758078513.66435,0.0,0.0,0.0,1.83346,17.76169,-10.08406,8.65,1.53,1.91,3.0
1758078513.69296,1758078513.67435,0.0,0.0,0.0,0.40107,16.90226,-9.4538,8.65,1.53,1.91,3.0
1758078513.70866,1758078513.68435,0.0,0.0,0.0,-1.08862,15.35527,-7.44845,8.63,1.45,1.99,3.0
1758078513.71003,1758078513.69435,0.0,0.0,0.0,-2.06265,15.46986,-6.07335,8.63,1.45,1.99,3.0
1758078513.72482,1758078513.70435,0.0,0.0,0.0,-3.49504,16.55848,-4.92744,8.94,1.14,2.18,3.0
1758078513.74182,1758078513.71435,0.0,0.0,0.0,-4.58366,16.21471,-4.58366,8.94,1.14,2.18,3.0
1758078513.74352,1758078513.72435,0.0,0.0,0.0,-7.04738,15.06879,-4.52637,9.07,0.93,2.26,3.0
1758078513.75897,1758078513.73435,0.0,0.0,0.0,-8.65166,14.49583,-5.15662,9.09,0.89,2.19,3.0
1758078513.76071,1758078513.74435,0.0,0.0,0.0,-10.48513,12.77696,-6.18794,9.09,0.89,2.19,3.0
1758078513.77585,1758078513.75435,0.0,0.0,0.0,-12.83425,9.39651,-8.136,8.65,0.93,2.07,3.0
1758078513.7918,1758078513.76435,0.0,0.0,0.0,-14.20935,7.73493,-9.62569,8.65,0.93,2.07,3.0
1758078513.79305,1758078513.77435,0.0,0.0,0.0,-15.46986,5.72958,-11.00079,8.57,1.07,1.97,3.0
1758078513.80869,1758078513.78435,0.0,0.0,0.0,-16.3293,2.86479,-11.80293,8.57,1.07,1.97,3.0
1758078513.81059,1758078513.79435,0.0,0.0,0.0,-17.47521,-2.23454,-12.08941,8.56,1.18,1.97,3.0
1758078513.82583,1758078513.80435,0.0,0.0,0.0,-17.99088,-6.41713,-11.28727,8.77,1.19,2.0,3.0
1758078513.84216,1758078513.81435,0.0,0.0,0.0,-18.9649,-8.25059,-10.19865,8.77,1.19,2.0,3.0
1758078513.84307,1758078513.82435,0.0,0.0,0.0,-20.05352,-5.27121,-8.42248,9.61,1.11,2.07,3.0
1758078513.85792,1758078513.83435,0.0,0.0,0.0,-22.57454,-3.26586,-7.10468,9.61,1.11,2.07,3.0
1758078513.85904,1758078513.84435,0.0,0.0,0.0,-24.63719,-7.67763,-7.04738,9.41,1.17,2.68,3.0
1758078513.87488,1758078513.85435,0.0,0.0,0.0,-26.41335,-15.92823,-7.50575,9.41,1.17,2.68,3.0
1758078513.89166,1758078513.86435,0.0,0.0,0.0,-29.39274,-19.19409,-9.11003,8.96,1.18,2.39,3.0
1758078513.89316,1758078513.87435,0.0,0.0,0.0,-32.83048,-23.26209,-13.34992,9.24,1.29,2.18,3.0
1758078513.90883,1758078513.88435,0.0,0.0,0.0,-35.92446,-24.29341,-17.58981,9.24,1.29,2.18,3.0
1758078513.91223,1758078513.89435,0.0,0.0,0.0,-37.52874,-25.61122,-20.85567,9.35,1.38,1.99,3.0
1758078513.92897,1758078513.90435,0.0,0.0,0.0,-40.04975,-29.27814,-26.06958,9.35,1.38,1.99,3.0
1758078513.93224,1758078513.91435,0.0,0.0,0.0,-41.76862,-34.26288,-30.82513,9.09,1.41,1.69,3.0
1758078513.95035,1758078513.92435,0.0,0.0,0.0,-42.34158,-35.06502,-31.97105,9.09,1.41,1.69,3.0
1758078513.95151,1758078513.93435,0.0,0.0,0.0,-42.39888,-35.75257,-31.91375,9.62,1.27,1.32,3.0
1758078513.96687,1758078513.94435,0.0,0.0,0.0,-41.36755,-37.98711,-29.04896,9.62,1.27,1.32,3.0
1758078513.96937,1758078513.95435,0.0,0.0,0.0,-39.70598,-45.89392,-26.69983,9.17,0.8,1.11,3.0
1758078513.98488,1758078513.96435,0.0,0.0,0.0,-38.1017,-48.24305,-24.75178,8.92,0.25,1.45,3.0
1758078514.0009,1758078513.97435,0.0,0.0,0.0,-35.69527,-50.1911,-20.85567,8.92,0.25,1.45,3.0
1758078514.00212,1758078513.98435,0.0,0.0,0.0,-31.28349,-25.7831,-16.95955,10.81,0.27,1.58,3.0
1758078514.01716,1758078513.99435,0.0,0.0,0.0,-30.30947,-10.8862,-15.92823,10.81,0.27,1.58,3.0
1758078514.03483,1758078514.00435,0.0,0.0,0.0,-28.87707,-10.19865,-17.53251,12.23,0.71,2.46,3.0
1758078514.03596,1758078514.01435,0.0,0.0,0.0,-26.47065,-20.68378,-19.88164,12.23,0.71,2.46,3.0
1758078514.05092,1758078514.02435,0.0,0.0,0.0,-23.66316,-18.79302,-23.60586,9.9,1.07,3.34,3.0
1758078514.05218,1758078514.03435,0.0,0.0,0.0,-22.28806,-5.27121,-23.72045,11.0,0.99,0.18,3.0
1758078514.06699,1758078514.04435,0.0,0.0,0.0,-20.74107,5.61499,-20.16812,11.0,0.99,0.18,3.0
1758078514.09091,1758078514.05435,0.0,0.0,0.0,-19.88164,9.62569,-15.12609,9.85,0.54,0.53,3.0
1758078514.14179,1758078514.06435,0.0,0.0,0.0,-18.9649,9.74028,-7.62034,9.85,0.54,0.53,3.0
1758078514.14381,1758078514.07435,0.0,0.0,0.0,-18.33465,11.63104,-3.49504,9.66,0.29,1.6,3.0
1758078514.14622,1758078514.08435,0.0,0.0,0.0,-17.18874,13.40721,-0.51566,9.66,0.29,1.6,3.0
1758078514.1467,1758078514.09435,0.0,0.0,0.0,-16.21471,15.87093,0.80214,10.71,0.66,1.11,3.0
1758078514.14892,1758078514.10435,0.0,0.0,0.0,-14.66772,22.05888,-0.74485,11.5,1.13,1.2,3.0
1758078514.1493,1758078514.11435,0.0,0.0,0.0,-14.03747,25.09555,-3.09397,11.5,1.13,1.2,3.0
1758078514.14994,1758078514.12435,0.0,0.0,0.0,-13.86558,25.8404,-6.24524,11.35,1.44,1.38,3.0
1758078514.15105,1758078514.13435,0.0,0.0,0.0,-13.98017,26.75713,-11.17268,11.35,1.44,1.38,3.0
1758078514.16696,1758078514.14435,0.0,0.0,0.0,-14.32395,27.78845,-13.80828,10.93,1.64,1.37,3.0
1758078514.18466,1758078514.15435,0.0,0.0,0.0,-14.61043,27.84575,-15.75634,10.93,1.64,1.37,3.0
1758078514.18578,1758078514.16435,0.0,0.0,0.0,-14.61043,27.04361,-16.84496,10.42,1.72,1.4,3.0
1758078514.20184,1758078514.17435,0.0,0.0,0.0,-14.83961,26.47065,-17.47521,10.42,1.72,1.4,3.0
1758078514.20458,1758078514.18435,0.0,0.0,0.0,-14.9542,26.01229,-16.95955,10.25,1.65,1.62,3.0
1758078514.22031,1758078514.19435,0.0,0.0,0.0,-14.66772,25.21014,-15.64175,10.38,1.4,1.88,3.0
1758078514.22148,1758078514.20435,0.0,0.0,0.0,-13.98017,23.89234,-14.03747,10.38,1.4,1.88,3.0
1758078514.23602,1758078514.21435,0.0,0.0,0.0,-12.77696,20.45459,-11.34457,10.46,1.11,2.11,3.0
1758078514.25226,1758078514.22435,0.0,0.0,0.0,-11.57375,19.42327,-9.39651,10.46,1.11,2.11,3.0
1758078514.2541,1758078514.23435,0.0,0.0,0.0,-10.31324,20.68378,-7.16197,11.03,0.97,2.32,3.0
1758078514.26931,1758078514.24435,0.0,0.0,0.0,-8.93814,22.05888,-4.92744,11.03,0.97,2.32,3.0
1758078514.27105,1758078514.25435,0.0,0.0,0.0,-6.99009,22.23076,-0.97403,11.95,1.01,2.57,3.0
1758078514.28636,1758078514.26435,0.0,0.0,0.0,-6.13065,18.9649,1.43239,12.43,1.27,2.84,3.0
1758078514.30225,1758078514.27435,0.0,0.0,0.0,-6.13065,16.04282,3.38045,12.43,1.27,2.84,3.0
1758078514.30436,1758078514.28435,0.0,0.0,0.0,-6.41713,15.75634,4.87014,13.29,1.68,2.89,3.0
1758078514.31906,1758078514.29435,0.0,0.0,0.0,-7.10468,15.98552,5.55769,13.29,1.68,2.89,3.0
1758078514.32384,1758078514.30435,0.0,0.0,0.0,-7.33386,16.84496,5.09932,13.74,1.91,2.85,3.0
1758078514.33905,1758078514.31435,0.0,0.0,0.0,-7.67763,17.01685,3.66693,13.74,1.91,2.85,3.0
1758078514.34201,1758078514.32435,0.0,0.0,0.0,-8.30789,16.50119,2.23454,13.35,1.93,3.16,3.0
1758078514.35733,1758078514.33435,0.0,0.0,0.0,-9.22462,14.20935,0.0,12.34,1.72,3.41,3.0
1758078514.38721,1758078514.34435,0.0,0.0,0.0,-10.08406,12.08941,-1.08862,12.34,1.72,3.41,3.0
1758078514.39594,1758078514.35435,0.0,0.0,0.0,-11.28727,9.39651,-2.00535,11.18,1.36,3.46,3.0
1758078514.39722,1758078514.36435,0.0,0.0,0.0,-12.83425,5.90147,-2.7502,11.18,1.36,3.46,3.0
1758078514.399,1758078514.37435,0.0,0.0,0.0,-13.5791,3.32316,-2.63561,10.22,1.15,3.49,3.0
1758078514.39999,1758078514.38435,0.0,0.0,0.0,-14.20935,-0.74485,-1.60428,10.22,1.15,3.49,3.0
1758078514.41611,1758078514.39435,0.0,0.0,0.0,-14.83961,-4.87014,-0.11459,9.32,1.11,3.5,3.0
1758078514.43239,1758078514.40435,0.0,0.0,0.0,-15.58445,-13.17803,3.09397,9.32,1.11,3.5,3.0
1758078514.43498,1758078514.41435,0.0,0.0,0.0,-16.04282,-20.3973,5.32851,8.68,1.01,3.65,3.0
1758078514.4501,1758078514.42435,0.0,0.0,0.0,-16.10011,-27.84575,6.87549,7.99,0.64,3.77,3.0
1758078514.45243,1758078514.43435,0.0,0.0,0.0,-16.04282,-35.92446,7.67763,7.99,0.64,3.77,3.0
1758078514.46718,1758078514.44435,0.0,0.0,0.0,-15.87093,-50.01921,7.73493,7.31,0.17,3.64,3.0
1758078514.46908,1758078514.45435,0.0,0.0,0.0,-15.24068,-58.72818,7.44845,7.31,0.17,3.64,3.0
1758078514.48621,1758078514.46435,0.0,0.0,0.0,-14.83961,-64.45775,6.47442,7.09,0.0,3.1,3.0
1758078514.50245,1758078514.47435,0.0,0.0,0.0,-14.72501,-67.55173,5.32851,7.09,0.0,3.1,3.0
1758078514.50406,1758078514.48435,0.0,0.0,0.0,-16.04282,-70.41652,2.86479,7.6,0.28,2.68,3.0
1758078514.51954,1758078514.49435,0.0,0.0,0.0,-17.30333,-70.58841,0.85944,7.92,0.8,2.73,3.0
1758078514.52192,1758078514.50435,0.0,0.0,0.0,-19.25138,-69.61437,-0.80214,7.92,0.8,2.73,3.0
1758078514.53739,1758078514.51435,0.0,0.0,0.0,-21.08485,-67.09336,-1.83346,8.47,1.21,2.47,3.0
1758078514.53912,1758078514.52435,0.0,0.0,0.0,-23.89234,-59.64491,-2.57831,8.47,1.21,2.47,3.0
1758078514.55702,1758078514.53435,0.0,0.0,0.0,-25.09555,-52.82671,-2.57831,9.13,1.28,2.26,3.0
1758078514.55957,1758078514.54435,0.0,0.0,0.0,-26.64254,-45.37826,-1.77617,9.13,1.28,2.26,3.0
1758078514.57614,1758078514.55435,0.0,0.0,0.0,-27.33009,-37.35685,0.40107,9.36,1.01,1.9,3.0
1758078514.59213,1758078514.56435,0.0,0.0,0.0,-27.61657,-23.49127,2.6929,9.52,0.59,1.59,3.0
1758078514.59606,1758078514.57435,0.0,0.0,0.0,-27.33009,-14.20935,5.27121,9.52,0.59,1.59,3.0
1758078514.61146,1758078514.58435,0.0,0.0,0.0,-27.04361,-6.47442,7.84952,9.41,0.32,1.56,3.0
1758078514.6124,1758078514.59435,0.0,0.0,0.0,-26.69983,3.09397,12.43318,9.41,0.32,1.56,3.0
1758078514.63037,1758078514.60435,0.0,0.0,0.0,-26.69983,9.96947,14.66772,9.43,0.3,1.71,3.0
1758078514.63141,1758078514.61435,0.0,0.0,0.0,-26.75713,15.58445,16.73037,9.43,0.3,1.71,3.0
1758078514.64629,1758078514.62435,0.0,0.0,0.0,-26.52795,21.14215,17.6471,9.41,0.36,1.7,3.0
1758078514.6623,1758078514.63435,0.0,0.0,0.0,-26.12688,27.67386,17.36062,9.17,0.36,1.71,3.0
1758078514.66459,1758078514.64435,0.0,0.0,0.0,-26.12688,30.65324,16.67307,9.17,0.38,1.71,3.0
1758078514.68108,1758078514.65435,0.0,0.0,0.0,-25.72581,33.34615,16.38659,9.07,0.33,1.73,3.0
1758078514.68201,1758078514.66435,0.0,0.0,0.0,-25.72581,32.48671,16.3293,9.07,0.33,1.73,3.0
1758078514.6975,1758078514.67435,0.0,0.0,0.0,-25.55392,27.73116,16.3293,8.66,0.25,1.67,3.0
1758078514.69923,1758078514.68435,0.0,0.0,0.0,-25.8404,27.50197,16.38659,8.66,0.25,1.67,3.0
1758078514.71526,1758078514.69435,0.0,0.0,0.0,-26.06958,27.61657,16.55848,8.95,0.18,1.56,3.0
1758078514.73131,1758078514.70435,0.0,0.0,0.0,-26.06958,27.78845,16.67307,8.95,0.18,1.56,3.0
1758078514.73243,1758078514.71435,0.0,0.0,0.0,-25.61122,27.67386,16.55848,8.79,0.11,1.56,3.0
1758078514.74726,1758078514.72435,0.0,0.0,0.0,-25.15285,28.30412,16.10011,8.56,-0.12,1.74,3.0
1758078514.76435,1758078514.73435,0.0,0.0,0.0,-24.75178,28.99167,15.35527,8.56,-0.12,1.74,3.0
1758078514.76525,1758078514.74435,0.0,0.0,0.0,-23.89234,28.70519,14.78231,8.4,-0.33,1.69,3.0
1758078514.78047,1758078514.75435,0.0,0.0,0.0,-22.51724,26.52795,13.86558,8.4,-0.33,1.69,3.0
1758078514.78145,1758078514.76435,0.0,0.0,0.0,-21.37133,24.35071,13.34992,8.27,-0.41,1.71,3.0
1758078514.79627,1758078514.77435,0.0,0.0,0.0,-20.34,21.7724,13.23533,8.27,-0.41,1.71,3.0
1758078514.81227,1758078514.78435,0.0,0.0,0.0,-19.19409,18.44924,13.23533,8.47,-0.39,1.74,3.0
1758078514.8151,1758078514.79435,0.0,0.0,0.0,-18.22006,15.24068,13.46451,8.68,-0.38,1.74,3.0
1758078514.83107,1758078514.80435,0.0,0.0,0.0,-17.53251,10.65701,13.46451,8.68,-0.38,1.74,3.0
1758078514.83228,1758078514.81435,0.0,0.0,0.0,-17.13144,6.07335,13.17803,8.6,-0.42,1.82,3.0
1758078514.84726,1758078514.82435,0.0,0.0,0.0,-16.67307,-0.45837,12.71966,8.6,-0.42,1.82,3.0
1758078514.8633,1758078514.83435,0.0,0.0,0.0,-16.272,-5.09932,12.77696,8.66,-0.48,1.92,3.0
1758078514.8645,1758078514.84435,0.0,0.0,0.0,-15.75634,-9.85487,12.54778,8.66,-0.48,1.92,3.0
1758078514.87953,1758078514.85435,0.0,0.0,0.0,-14.78231,-12.77696,11.86023,8.56,-0.49,1.8,3.0
1758078514.88132,1758078514.86435,0.0,0.0,0.0,-12.77696,-9.33921,9.62569,9.03,-0.5,1.69,3.0
1758078514.8966,1758078514.87435,0.0,0.0,0.0,-10.65701,-5.50039,8.136,9.03,-0.5,1.69,3.0
1758078514.91259,1758078514.88435,0.0,0.0,0.0,-7.96411,-3.83882,7.50575,9.22,-0.66,1.98,3.0
1758078514.91389,1758078514.89435,0.0,0.0,0.0,-4.87014,-6.41713,7.44845,9.22,-0.66,1.98,3.0
1758078514.92939,1758078514.90435,0.0,0.0,0.0,0.0573,-11.86023,8.70896,9.08,-1.13,1.93,3.0
1758078514.93053,1758078514.91435,0.0,0.0,0.0,3.49504,-13.86558,10.54242,9.08,-1.13,1.93,3.0
1758078514.94556,1758078514.92435,0.0,0.0,0.0,7.33386,-15.46986,13.06344,9.6,-1.57,1.65,3.0
1758078514.96262,1758078514.93435,0.0,0.0,0.0,11.22997,-16.21471,15.29797,9.6,-1.57,1.65,3.0
1758078514.96352,1758078514.94435,0.0,0.0,0.0,18.16276,-15.06879,17.81899,9.83,-1.73,1.49,3.0
1758078514.97865,1758078514.95435,0.0,0.0,0.0,22.91831,-14.72501,18.79302,9.55,-1.73,1.22,3.0
1758078514.97951,1758078514.96435,0.0,0.0,0.0,26.81443,-15.12609,18.90761,9.55,-1.73,1.22,3.0
1758078514.99535,1758078514.97435,0.0,0.0,0.0,29.9084,-16.3293,18.33465,9.25,-1.43,1.98,3.0
1758078515.01147,1758078514.98435,0.0,0.0,0.0,31.11161,-22.51724,17.30333,9.25,-1.43,1.98,3.0
1758078515.01247,1758078514.99435,0.0,0.0,0.0,29.96569,-21.6578,15.12609,9.42,-0.8,3.06,3.0
1758078515.02896,1758078515.00435,0.0,0.0,0.0,27.33009,-21.6578,15.35527,9.42,-0.8,3.06,3.0
1758078515.03013,1758078515.01435,0.0,0.0,0.0,20.45459,-13.75099,16.04282,10.62,0.18,3.75,3.0
1758078515.04645,1758078515.02435,0.0,0.0,0.0,14.15206,-14.78231,14.32395,10.36,1.11,3.46,3.0
1758078515.06235,1758078515.03435,0.0,0.0,0.0,13.34992,-26.24147,20.79837,10.36,1.11,3.46,3.0
1758078515.06536,1758078515.04435,0.0,0.0,0.0,12.60507,-28.64789,23.31938,10.17,1.06,1.72,3.0
1758078515.08066,1758078515.05435,0.0,0.0,0.0,15.35527,-15.69904,28.87707,10.17,1.06,1.72,3.0
1758078515.08186,1758078515.06435,0.0,0.0,0.0,18.16276,-2.92208,29.62192,11.9,-0.35,1.43,3.0
1758078515.0966,1758078515.07435,0.0,0.0,0.0,19.99623,6.7609,25.49662,11.9,-0.35,1.43,3.0
1758078515.11252,1758078515.08435,0.0,0.0,0.0,21.31403,13.98017,19.36597,10.68,-1.73,2.71,3.0
1758078515.11433,1758078515.09435,0.0,0.0,0.0,20.51189,19.42327,10.19865,9.69,-1.36,2.97,3.0
1758078515.12969,1758078515.10435,0.0,0.0,0.0,19.07949,17.30333,6.70361,9.69,-1.36,2.97,3.0
1758078515.13063,1758078515.11435,0.0,0.0,0.0,16.73037,16.21471,5.72958,9.33,-0.14,2.32,3.0
1758078515.14645,1758078515.12435,0.0,0.0,0.0,13.69369,17.47521,6.53172,9.33,-0.14,2.32,3.0
1758078515.16269,1758078515.13435,0.0,0.0,0.0,8.93814,20.3973,8.36518,9.86,0.54,1.85,3.0
1758078515.16362,1758078515.14435,0.0,0.0,0.0,6.8182,21.02755,9.33921,9.86,0.54,1.85,3.0
1758078515.1786,1758078515.15435,0.0,0.0,0.0,5.27121,21.02755,9.85487,9.5,0.36,1.84,3.0
1758078515.18078,1758078515.16435,0.0,0.0,0.0,4.87014,21.6578,9.5684,9.5,0.36,1.84,3.0
1758078515.19673,1758078515.17435,0.0,0.0,0.0,5.61499,20.79837,9.74028,9.39,-0.22,2.24,3.0
1758078515.21447,1758078515.18435,0.0,0.0,0.0,6.47442,20.22541,9.85487,9.32,-0.69,2.26,3.0
1758078515.2157,1758078515.19435,0.0,0.0,0.0,7.44845,20.16812,9.68299,9.32,-0.69,2.26,3.0
1758078515.23153,1758078515.20435,0.0,0.0,0.0,9.05273,18.50654,9.62569,9.29,-0.94,2.12,3.0
1758078515.2327,1758078515.21435,0.0,0.0,0.0,9.91217,18.27736,9.11003,9.29,-0.94,2.12,3.0
1758078515.24933,1758078515.22435,0.0,0.0,0.0,10.94349,18.79302,8.59437,9.3,-1.01,2.02,3.0
1758078515.25261,1758078515.23435,0.0,0.0,0.0,11.17268,17.81899,7.84952,9.3,-1.01,2.02,3.0
1758078515.26769,1758078515.24435,0.0,0.0,0.0,10.94349,16.04282,6.7609,9.28,-0.92,1.98,3.0
1758078515.28348,1758078515.25435,0.0,0.0,0.0,10.37054,15.46986,5.55769,9.41,-0.78,1.86,3.0
1758078515.28524,1758078515.26435,0.0,0.0,0.0,9.68299,15.64175,4.64096,9.41,-0.78,1.86,3.0
1758078515.29968,1758078515.27435,0.0,0.0,0.0,8.88085,16.95955,3.66693,9.92,-0.64,1.87,3.0
1758078515.30102,1758078515.28435,0.0,0.0,0.0,7.16197,17.18874,3.32316,9.92,-0.64,1.87,3.0
1758078515.31568,1758078515.29435,0.0,0.0,0.0,5.78687,15.0115,3.09397,10.39,-0.6,2.21,3.0
1758078515.33175,1758078515.30435,0.0,0.0,0.0,3.95341,13.5791,2.6929,10.39,-0.6,2.21,3.0
1758078515.33309,1758078515.31435,0.0,0.0,0.0,2.23454,13.34992,1.94806,11.14,-0.7,2.24,3.0
1758078515.34749,1758078515.32435,0.0,0.0,0.0,0.11459,12.2613,0.80214,11.9,-0.95,2.33,3.0
1758078515.36432,1758078515.33435,0.0,0.0,0.0,-0.80214,11.91752,-0.17189,11.9,-0.95,2.33,3.0
1758078515.36627,1758078515.34435,0.0,0.0,0.0,-0.97403,11.80293,-1.3178,12.68,-1.43,2.75,3.0
1758078515.38147,1758078515.35435,0.0,0.0,0.0,-1.03132,10.71431,-2.97938,12.68,-1.43,2.75,3.0
1758078515.38439,1758078515.36435,0.0,0.0,0.0,0.0,10.37054,-5.09932,13.29,-1.88,3.23,3.0
1758078515.39968,1758078515.37435,0.0,0.0,0.0,1.43239,11.00079,-6.18794,13.29,-1.88,3.23,3.0
1758078515.40145,1758078515.38435,0.0,0.0,0.0,2.86479,10.8862,-6.70361,13.8,-1.85,3.57,3.0
1758078515.41653,1758078515.39435,0.0,0.0,0.0,4.64096,10.19865,-6.07335,13.8,-1.85,3.57,3.0
1758078515.4328,1758078515.40435,0.0,0.0,0.0,5.61499,8.76626,-4.98473,13.59,-1.48,3.5,3.0
1758078515.43498,1758078515.41435,0.0,0.0,0.0,6.35983,7.73493,-4.0107,13.12,-1.19,3.28,3.0
1758078515.45114,1758078515.42435,0.0,0.0,0.0,7.39116,5.95876,-3.38045,13.12,-1.19,3.28,3.0
1758078515.45396,1758078515.43435,0.0,0.0,0.0,9.74028,1.71887,-3.83882,12.15,-1.23,2.69,3.0
1758078515.47146,1758078515.44435,0.0,0.0,0.0,12.43318,-2.06265,-4.81285,12.15,-1.23,2.69,3.0
1758078515.47231,1758078515.45435,0.0,0.0,0.0,15.41257,-4.92744,-6.18794,10.79,-1.39,2.53,3.0
1758078515.48943,1758078515.46435,0.0,0.0,0.0,19.07949,-8.136,-7.16197,10.79,-1.39,2.53,3.0
1758078515.49145,1758078515.47435,0.0,0.0,0.0,24.12152,-11.28727,-8.02141,9.74,-1.57,2.65,3.0
1758078515.50653,1758078515.48435,0.0,0.0,0.0,27.2155,-14.43854,-8.30789,8.98,-1.69,2.75,3.0
1758078515.53208,1758078515.49435,0.0,0.0,0.0,29.8511,-18.10547,-8.25059,8.98,-1.69,2.75,3.0
1758078515.53701,1758078515.50435,0.0,0.0,0.0,32.42941,-22.57454,-8.136,8.29,-1.62,2.68,3.0
1758078515.53926,1758078515.51435,0.0,0.0,0.0,35.69527,-30.76784,-7.73493,8.29,-1.62,2.68,3.0
1758078515.54048,1758078515.52435,0.0,0.0,0.0,37.47144,-37.81522,-7.39116,7.58,-1.1,2.66,3.0
1758078515.55682,1758078515.53435,0.0,0.0,0.0,38.78925,-44.63341,-7.33386,7.58,-1.1,2.66,3.0
1758078515.57466,1758078515.54435,0.0,0.0,0.0,39.82057,-50.59217,-6.8182,7.02,-0.42,2.84,3.0
1758078515.57566,1758078515.55435,0.0,0.0,0.0,41.31026,-59.41573,-5.90147,6.95,0.04,3.1,3.0
1758078515.59058,1758078515.56435,0.0,0.0,0.0,42.1124,-62.33781,-4.81285,6.95,0.04,3.1,3.0
1758078515.59265,1758078515.57435,0.0,0.0,0.0,42.97184,-63.77021,-3.83882,7.48,0.16,2.89,3.0
1758078515.60786,1758078515.58435,0.0,0.0,0.0,44.17505,-64.11398,-2.34913,7.48,0.16,2.89,3.0
1758078515.62381,1758078515.59435,0.0,0.0,0.0,45.60744,-61.24919,0.11459,7.97,-0.16,2.55,3.0
1758078515.62666,1758078515.60435,0.0,0.0,0.0,46.35228,-57.58226,2.06265,7.97,-0.16,2.55,3.0
1758078515.64161,1758078515.61435,0.0,0.0,0.0,46.52417,-52.65482,4.23989,8.67,-0.19,2.5,3.0
1758078515.64362,1758078515.62435,0.0,0.0,0.0,46.06581,-40.39353,6.8182,8.67,-0.19,2.5,3.0
1758078515.65858,1758078515.63435,0.0,0.0,0.0,44.63341,-29.73651,8.02141,9.56,0.19,1.81,3.0
1758078515.65977,1758078515.64435,0.0,0.0,0.0,42.97184,-19.48057,7.84952,10.19,0.63,1.38,3.0
1758078515.67594,1758078515.65435,0.0,0.0,0.0,40.7946,-10.08406,7.16197,10.19,0.63,1.38,3.0
1758078515.69168,1758078515.66435,0.0,0.0,0.0,37.35685,5.27121,4.64096,10.34,0.88,1.36,3.0
1758078515.69317,1758078515.67435,0.0,0.0,0.0,35.3515,14.61043,2.00535,10.34,0.88,1.36,3.0
1758078515.7102,1758078515.68435,0.0,0.0,0.0,33.40344,22.91831,-0.80214,10.54,0.9,1.41,3.0
1758078515.71156,1758078515.69435,0.0,0.0,0.0,31.39809,29.39274,-3.38045,10.54,0.9,1.41,3.0
1758078515.72704,1758078515.70435,0.0,0.0,0.0,28.76248,37.75792,-6.7609,10.31,0.74,1.56,3.0
1758078515.74267,1758078515.71435,0.0,0.0,0.0,27.10091,41.94051,-8.47978,10.15,0.59,1.47,3.0
1758078515.7446,1758078515.72435,0.0,0.0,0.0,25.49662,43.31561,-10.08406,10.15,0.59,1.47,3.0
1758078515.76041,1758078515.73435,0.0,0.0,0.0,24.23611,44.748,-10.8289,9.78,0.53,1.55,3.0
1758078515.76161,1758078515.74435,0.0,0.0,0.0,22.68913,47.49821,-10.8289,9.78,0.53,1.55,3.0
1758078515.77661,1758078515.75435,0.0,0.0,0.0,22.05888,48.30034,-9.74028,9.73,0.5,1.7,3.0
1758078515.79296,1758078515.76435,0.0,0.0,0.0,21.42862,47.67009,-9.05273,9.73,0.5,1.7,3.0
1758078515.79386,1758078515.77435,0.0,0.0,0.0,21.14215,45.89392,-8.36518,9.21,0.46,1.86,3.0
1758078515.81102,1758078515.78435,0.0,0.0,0.0,20.34,40.33623,-8.70896,8.46,0.46,1.74,3.0
1758078515.81218,1758078515.79435,0.0,0.0,0.0,19.99623,38.27358,-9.39651,8.46,0.46,1.74,3.0
1758078515.82665,1758078515.80435,0.0,0.0,0.0,19.42327,37.29956,-10.37054,8.21,0.67,1.55,3.0
1758078515.83213,1758078515.81435,0.0,0.0,0.0,19.25138,35.92446,-12.14671,8.21,0.67,1.55,3.0
1758078515.84973,1758078515.82435,0.0,0.0,0.0,19.48057,29.73651,-12.89155,7.78,0.94,1.64,3.0
1758078515.8509,1758078515.83435,0.0,0.0,0.0,19.48057,25.49662,-13.46451,7.78,0.94,1.64,3.0
1758078515.8675,1758078515.84435,0.0,0.0,0.0,19.70975,22.40265,-13.5791,7.65,0.99,1.62,3.0
1758078515.88477,1758078515.85435,0.0,0.0,0.0,19.13679,17.99088,-13.69369,7.65,0.99,1.62,3.0
1758078515.88639,1758078515.86435,0.0,0.0,0.0,18.33465,14.72501,-13.12073,7.81,0.91,1.38,3.0
1758078515.902,1758078515.87435,0.0,0.0,0.0,17.01685,11.97482,-12.37589,7.89,0.79,1.49,3.0
1758078515.90336,1758078515.88435,0.0,0.0,0.0,15.24068,9.05273,-11.57375,7.89,0.79,1.49,3.0
1758078515.91853,1758078515.89435,0.0,0.0,0.0,11.86023,4.52637,-10.37054,8.13,0.75,1.58,3.0
1758078515.92241,1758078515.90435,0.0,0.0,0.0,9.4538,0.74485,-9.62569,8.13,0.75,1.58,3.0
1758078515.93894,1758078515.91435,0.0,0.0,0.0,7.16197,-3.55234,-9.28192,8.17,0.85,1.6,3.0
1758078515.94101,1758078515.92435,0.0,0.0,0.0,4.87014,-6.87549,-9.33921,8.17,0.85,1.6,3.0
1758078515.95872,1758078515.93435,0.0,0.0,0.0,2.06265,-10.25595,-9.85487,8.28,1.02,1.56,3.0
1758078515.96083,1758078515.94435,0.0,0.0,0.0,0.22918,-10.31324,-9.5684,8.59,1.05,1.29,3.0
1758078515.97698,1758078515.95435,0.0,0.0,0.0,-1.14592,-10.08406,-9.05273,8.59,1.05,1.29,3.0
1758078515.99465,1758078515.96435,0.0,0.0,0.0,-2.6929,-8.93814,-7.67763,8.88,0.91,1.36,3.0
1758078515.99504,1758078515.97435,0.0,0.0,0.0,-4.69825,-4.87014,-5.21392,8.88,0.91,1.36,3.0
1758078516.01097,1758078515.98435,0.0,0.0,0.0,-6.70361,-3.32316,-4.1253,9.4,0.74,1.67,3.0
1758078516.01193,1758078515.99435,0.0,0.0,0.0,-9.28192,-6.87549,-4.29718,9.4,0.74,1.67,3.0
1758078516.0306,1758078516.00435,0.0,0.0,0.0,-12.14671,-13.34992,-5.84417,9.21,0.82,2.0,3.0
1758078516.03176,1758078516.01435,0.0,0.0,0.0,-15.58445,-22.97561,-6.07335,9.78,1.22,1.61,3.0
1758078516.04674,1758078516.02435,0.0,0.0,0.0,-21.25674,-22.51724,-11.80293,9.78,1.22,1.61,3.0
1758078516.06624,1758078516.03435,0.0,0.0,0.0,-24.63719,-23.83505,-14.78231,10.66,1.78,1.79,3.0
1758078516.06671,1758078516.04435,0.0,0.0,0.0,-29.56462,-24.17882,-20.51189,10.66,1.78,1.79,3.0
1758078516.08462,1758078516.05435,0.0,0.0,0.0,-32.88778,-26.35606,-23.31938,11.17,1.89,1.78,3.0
1758078516.08518,1758078516.06435,0.0,0.0,0.0,-35.69527,-33.68992,-25.49662,11.17,1.89,1.78,3.0
1758078516.10209,1758078516.07435,0.0,0.0,0.0,-36.61201,-42.1124,-25.8404,11.06,1.64,1.9,3.0
1758078516.10486,1758078516.08435,0.0,0.0,0.0,-34.09099,-50.87865,-23.83505,11.06,1.64,2.87,3.0
1758078516.12187,1758078516.09435,0.0,0.0,0.0,-32.25753,-56.20716,-24.63719,12.11,1.02,2.87,3.0
1758078516.12515,1758078516.10435,0.0,0.0,0.0,-25.49662,-55.86338,-23.72045,13.74,-0.29,3.63,3.0
1758078516.14101,1758078516.11435,0.0,0.0,0.0,-17.81899,-43.4875,-22.34536,13.74,-0.29,3.63,3.0
1758078516.14198,1758078516.12435,0.0,0.0,0.0,-13.69369,-4.46907,-23.0902,16.55,-0.79,2.79,3.0
1758078516.15709,1758078516.13435,0.0,0.0,0.0,-13.23533,9.74028,-22.51724,16.55,-0.79,2.79,3.0
1758078516.16198,1758078516.14435,0.0,0.0,0.0,-15.24068,12.08941,-19.88164,14.74,0.34,3.39,3.0
1758078516.17967,1758078516.15435,0.0,0.0,0.0,-18.56383,11.57375,-14.83961,14.74,0.34,3.39,3.0
1758078516.18063,1758078516.16435,0.0,0.0,0.0,-26.81443,11.86023,-7.39116,13.05,2.16,3.43,3.0
1758078516.19607,1758078516.17435,0.0,0.0,0.0,-31.74186,13.5791,-3.20856,13.5,2.92,3.49,3.0
1758078516.2121,1758078516.18435,0.0,0.0,0.0,-34.72124,15.0115,-0.34377,13.5,2.92,3.49,3.0
1758078516.21542,1758078516.19435,0.0,0.0,0.0,-35.75257,18.73572,0.74485,13.43,2.15,3.57,3.0
1758078516.23091,1758078516.20435,0.0,0.0,0.0,-35.06502,26.18417,0.97403,13.43,2.15,3.57,3.0
1758078516.23233,1758078516.21435,0.0,0.0,0.0,-34.37747,26.75713,0.80214,12.85,0.92,3.09,3.0
1758078516.24681,1758078516.22435,0.0,0.0,0.0,-33.68992,23.72045,0.51566,12.85,0.92,3.09,3.0
1758078516.24807,1758078516.23435,0.0,0.0,0.0,-33.51803,19.07949,-0.17189,10.71,0.24,2.54,3.0
1758078516.26343,1758078516.24435,0.0,0.0,0.0,-33.74722,11.22997,-1.3178,8.77,0.1,2.32,3.0
1758078516.27888,1758078516.25435,0.0,0.0,0.0,-34.60666,3.83882,-2.92208,8.77,0.1,2.32,3.0
1758078516.28163,1758078516.26435,0.0,0.0,0.0,-35.52338,-4.46907,-5.27121,7.0,0.33,2.58,3.0
1758078516.29687,1758078516.27435,0.0,0.0,0.0,-35.69527,-19.88164,-8.136,7.0,0.33,2.58,3.0
1758078516.29886,1758078516.28435,0.0,0.0,0.0,-35.52338,-30.82513,-7.62034,5.79,0.62,2.84,3.0
1758078516.31638,1758078516.29435,0.0,0.0,0.0,-35.12231,-37.01308,-6.35983,5.79,0.62,2.84,3.0
1758078516.3189,1758078516.30435,0.0,0.0,0.0,-35.06502,-41.13837,-4.1253,6.48,0.53,3.05,3.0
1758078516.33553,1758078516.31435,0.0,0.0,0.0,-35.40879,-48.75871,0.22918,7.11,0.53,3.03,3.0
1758078516.35088,1758078516.32435,0.0,0.0,0.0,-35.92446,-53.51426,2.34913,7.11,0.14,3.03,3.0
1758078516.35211,1758078516.33435,0.0,0.0,0.0,-36.26823,-55.57691,3.95341,7.89,-0.21,2.5,3.0
1758078516.36688,1758078516.34435,0.0,0.0,0.0,-36.95578,-54.94666,4.46907,7.89,-0.21,2.5,3.0
1758078516.37047,1758078516.35435,0.0,0.0,0.0,-38.15899,-49.90463,3.60963,8.86,-0.08,1.96,3.0
1758078516.38691,1758078516.36435,0.0,0.0,0.0,-39.19032,-45.09178,1.60428,8.86,-0.08,1.96,3.0
1758078516.39076,1758078516.37435,0.0,0.0,0.0,-40.16434,-40.16434,-0.22918,9.34,0.46,2.06,3.0
1758078516.40692,1758078516.38435,0.0,0.0,0.0,-40.7946,-36.21093,-2.00535,9.34,0.46,2.06,3.0
1758078516.4116,1758078516.39435,0.0,0.0,0.0,-41.25296,-28.87707,-3.89611,9.75,0.87,2.03,3.0
1758078516.42693,1758078516.40435,0.0,0.0,0.0,-40.7946,-23.0329,-4.58366,10.32,0.66,1.93,3.0
1758078516.43213,1758078516.41435,0.0,0.0,0.0,-40.45082,-15.98552,-5.09932,10.32,0.66,1.93,3.0
1758078516.45088,1758078516.42435,0.0,0.0,0.0,-39.64868,-9.05273,-4.92744,10.55,0.15,1.79,3.0
1758078516.47212,1758078516.43435,0.0,0.0,0.0,-38.15899,1.03132,-4.46907,10.55,0.15,1.79,3.0
1758078516.47484,1758078516.44435,0.0,0.0,0.0,-37.35685,6.7609,-4.1253,10.27,-0.12,1.75,3.0
1758078516.47718,1758078516.45435,0.0,0.0,0.0,-36.6693,10.8862,-3.49504,10.27,-0.12,1.75,3.0
1758078516.4922,1758078516.46435,0.0,0.0,0.0,-35.40879,14.61043,-2.46372,9.65,-0.14,1.67,3.0
1758078516.49592,1758078516.47435,0.0,0.0,0.0,-34.89313,16.67307,-1.66158,9.37,-0.09,1.67,3.0
1758078516.51098,1758078516.48435,0.0,0.0,0.0,-34.49206,18.79302,-0.45837,9.37,-0.09,1.67,3.0
1758078516.51215,1758078516.49435,0.0,0.0,0.0,-34.60666,21.08485,0.51566,9.32,-0.03,1.67,3.0
1758078516.52723,1758078516.50435,0.0,0.0,0.0,-35.06502,22.86102,2.00535,9.32,-0.03,1.67,3.0
1758078516.52818,1758078516.51435,0.0,0.0,0.0,-35.63798,22.28806,3.20856,8.91,0.01,1.68,3.0
1758078516.54534,1758078516.52435,0.0,0.0,0.0,-36.21093,21.31403,4.1253,8.91,0.01,1.68,3.0
1758078516.56129,1758078516.53435,0.0,0.0,0.0,-36.61201,20.68378,4.92744,8.47,-0.01,1.55,3.0
1758078516.56219,1758078516.54435,0.0,0.0,0.0,-37.12767,21.14215,5.90147,8.41,-0.19,1.43,3.0
1758078516.57701,1758078516.55435,0.0,0.0,0.0,-36.49741,21.08485,6.7609,8.41,-0.19,1.43,3.0
1758078516.57819,1758078516.56435,0.0,0.0,0.0,-35.12231,18.50654,7.96411,8.01,-0.4,1.34,3.0
1758078516.59447,1758078516.57435,0.0,0.0,0.0,-33.46074,16.3293,8.99544,8.01,-0.4,1.34,3.0
1758078516.61094,1758078516.58435,0.0,0.0,0.0,-30.36677,14.72501,9.96947,7.82,-0.55,1.16,3.0
1758078516.6122,1758078516.59435,0.0,0.0,0.0,-28.30412,12.83425,9.62569,7.82,-0.55,1.16,3.0
1758078516.627,1758078516.60435,0.0,0.0,0.0,-26.35606,11.00079,8.93814,7.57,-0.63,0.97,3.0
1758078516.62927,1758078516.61435,0.0,0.0,0.0,-24.98096,9.39651,7.44845,7.57,-0.63,0.97,3.0
1758078516.647,1758078516.62435,0.0,0.0,0.0,-23.83505,6.7609,4.69825,7.49,-0.6,1.02,3.0
1758078516.65089,1758078516.63435,0.0,0.0,0.0,-23.49127,4.52637,3.03668,7.57,-0.39,1.05,3.0
1758078516.6663,1758078516.64435,0.0,0.0,0.0,-23.31938,2.6929,1.60428,7.57,-0.39,1.05,3.0
1758078516.68234,1758078516.65435,0.0,0.0,0.0,-23.66316,1.83346,1.03132,8.11,-0.2,1.2,3.0
1758078516.6859,1758078516.66435,0.0,0.0,0.0,-23.66316,-0.34377,1.43239,8.11,-0.2,1.2,3.0
1758078516.70116,1758078516.67435,0.0,0.0,0.0,-23.94964,-2.57831,2.40642,8.44,-0.17,1.18,3.0
1758078516.70223,1758078516.68435,0.0,0.0,0.0,-24.12152,-3.38045,3.72423,8.44,-0.17,1.18,3.0
1758078516.71722,1758078516.69435,0.0,0.0,0.0,-23.89234,-3.95341,5.32851,8.79,-0.34,1.13,3.0
1758078516.719,1758078516.70435,0.0,0.0,0.0,-23.31938,-4.87014,6.18794,8.95,-0.56,0.91,3.0
1758078516.73605,1758078516.71435,0.0,0.0,0.0,-22.51724,-5.72958,5.95876,8.95,-0.56,0.91,3.0
1758078516.75233,1758078516.72435,0.0,0.0,0.0,-21.48592,-7.39116,4.64096,8.98,-0.53,0.83,3.0
1758078516.75326,1758078516.73435,0.0,0.0,0.0,-19.42327,-7.84952,1.43239,8.98,-0.53,0.83,3.0
1758078516.77105,1758078516.74435,0.0,0.0,0.0,-17.99088,-7.39116,-1.3178,9.33,-0.37,0.72,3.0
1758078516.7727,1758078516.75435,0.0,0.0,0.0,-16.10011,-5.4431,-3.60963,9.33,-0.37,0.72,3.0
1758078516.78705,1758078516.76435,0.0,0.0,0.0,-14.20935,-0.45837,-5.50039,10.03,-0.36,0.84,3.0
1758078516.78917,1758078516.77435,0.0,0.0,0.0,-11.34457,5.27121,-6.13065,10.65,-0.64,1.09,3.0
1758078516.80634,1758078516.78435,0.0,0.0,0.0,-9.11003,5.09932,-4.92744,10.65,-0.64,1.09,3.0
1758078516.82213,1758078516.79435,0.0,0.0,0.0,-7.04738,5.32851,-2.57831,10.53,-1.02,1.26,3.0
1758078516.8233,1758078516.80435,0.0,0.0,0.0,-4.52637,6.35983,1.43239,10.53,-1.02,1.26,3.0
1758078516.83934,1758078516.81435,0.0,0.0,0.0,-0.45837,8.59437,7.96411,10.86,-1.34,1.07,3.0
1758078516.84113,1758078516.82435,0.0,0.0,0.0,2.7502,9.68299,11.45916,10.86,-1.34,1.07,3.0
1758078516.85644,1758078516.83435,0.0,0.0,0.0,6.18794,10.71431,13.5791,10.86,-1.53,0.49,3.0
1758078516.87241,1758078516.84435,0.0,0.0,0.0,10.54242,9.96947,17.18874,10.86,-1.53,0.49,3.0
1758078516.87359,1758078516.85435,0.0,0.0,0.0,12.54778,-9.62569,20.05352,10.65,-1.52,1.33,3.0
1758078516.88913,1758078516.86435,0.0,0.0,0.0,10.65701,-11.91752,18.33465,11.13,-0.7,2.64,3.0
1758078516.89034,1758078516.87435,0.0,0.0,0.0,7.33386,3.20856,16.21471,11.13,-0.7,2.64,3.0
1758078516.90542,1758078516.88435,0.0,0.0,0.0,1.71887,25.15285,13.12073,14.25,0.44,3.27,3.0
1758078516.9214,1758078516.89435,0.0,0.0,0.0,0.0,29.8511,12.2613,14.25,0.44,3.27,3.0
1758078516.92235,1758078516.90435,0.0,0.0,0.0,-3.60963,21.7151,7.62034,12.42,1.06,3.22,3.0
1758078516.93745,1758078516.91435,0.0,0.0,0.0,-3.66693,2.06265,8.65166,12.42,1.06,3.22,3.0
1758078516.93914,1758078516.92435,0.0,0.0,0.0,-1.94806,-10.59972,10.65701,11.0,0.21,2.73,3.0
1758078516.95645,1758078516.93435,0.0,0.0,0.0,-2.11994,3.26586,8.0787,13.82,-1.69,2.72,3.0
1758078516.9721,1758078516.94435,0.0,0.0,0.0,0.57296,13.40721,8.59437,13.82,-1.69,2.72,3.0
1758078516.97338,1758078516.95435,0.0,0.0,0.0,3.55234,13.80828,6.7609,14.04,-2.58,4.7,3.0
1758078516.9895,1758078516.96435,0.0,0.0,0.0,7.10468,14.03747,1.71887,14.04,-2.58,4.7,3.0
1758078516.99119,1758078516.97435,0.0,0.0,0.0,8.02141,17.18874,-2.97938,14.46,-1.75,4.66,3.0
1758078517.00652,1758078516.98435,0.0,0.0,0.0,8.25059,19.82434,-6.99009,14.46,-1.75,4.66,3.0
1758078517.02245,1758078516.99435,0.0,0.0,0.0,8.65166,20.11082,-9.39651,14.07,-0.53,3.68,3.0
1758078517.02421,1758078517.00435,0.0,0.0,0.0,9.85487,17.47521,-10.25595,12.01,-0.2,3.69,3.0
1758078517.04105,1758078517.01435,0.0,0.0,0.0,11.63104,14.66772,-9.11003,12.01,-0.2,3.69,3.0
1758078517.04201,1758078517.02435,0.0,0.0,0.0,14.32395,11.57375,-7.04738,10.7,-0.43,3.64,3.0
1758078517.05752,1758078517.03435,0.0,0.0,0.0,17.18874,7.73493,-5.4431,10.7,-0.43,3.64,3.0
1758078517.06112,1758078517.04435,0.0,0.0,0.0,23.26209,1.14592,-1.83346,9.59,-0.77,3.43,3.0
1758078517.07625,1758078517.05435,0.0,0.0,0.0,27.61657,-3.55234,-0.11459,9.59,-0.77,3.43,3.0
1758078517.07825,1758078517.06435,0.0,0.0,0.0,31.79916,-8.30789,1.71887,8.57,-1.17,3.09,3.0
1758078517.09418,1758078517.07435,0.0,0.0,0.0,37.58603,-15.06879,3.60963,8.57,-1.17,3.09,3.0
1758078517.11031,1758078517.08435,0.0,0.0,0.0,40.7946,-19.82434,4.69825,7.65,-1.24,2.84,3.0
1758078517.11224,1758078517.09435,0.0,0.0,0.0,43.20102,-25.21014,5.21392,6.83,-0.81,2.72,3.0
1758078517.12749,1758078517.10435,0.0,0.0,0.0,44.8053,-30.36677,5.61499,6.83,-0.81,2.72,3.0
1758078517.12843,1758078517.11435,0.0,0.0,0.0,46.40959,-35.63798,5.55769,6.62,-0.14,2.73,3.0
1758078517.14543,1758078517.12435,0.0,0.0,0.0,46.75336,-37.75792,5.32851,6.62,-0.14,2.73,3.0
1758078517.15203,1758078517.13435,0.0,0.0,0.0,46.98254,-38.78925,5.72958,7.21,0.39,2.53,3.0
1758078517.16823,1758078517.14435,0.0,0.0,0.0,47.03984,-37.58603,6.13065,7.21,0.39,2.53,3.0
1758078517.16945,1758078517.15435,0.0,0.0,0.0,46.86795,-32.54401,6.7609,8.08,0.56,2.6,3.0
1758078517.18428,1758078517.16435,0.0,0.0,0.0,46.69606,-28.93437,7.16197,8.78,0.48,2.46,3.0
1758078517.20132,1758078517.17435,0.0,0.0,0.0,46.35228,-25.09555,7.39116,8.78,0.48,2.46,3.0
1758078517.20333,1758078517.18435,0.0,0.0,0.0,45.72203,-20.3973,7.39116,9.04,0.45,2.33,3.0
1758078517.21857,1758078517.19435,0.0,0.0,0.0,44.40423,-12.43318,6.58902,9.04,0.45,2.33,3.0
1758078517.21978,1758078517.20435,0.0,0.0,0.0,43.31561,-7.33386,5.61499,9.14,0.52,2.17,3.0
1758078517.23654,1758078517.21435,0.0,0.0,0.0,42.28429,-2.00535,4.29718,9.14,0.52,2.17,3.0
1758078517.25229,1758078517.22435,0.0,0.0,0.0,41.42485,3.95341,2.7502,9.21,0.64,2.07,3.0
1758078517.25591,1758078517.23435,0.0,0.0,0.0,40.39353,13.23533,0.11459,9.37,0.67,1.98,3.0
1758078517.27155,1758078517.24435,0.0,0.0,0.0,40.04975,18.27736,-1.94806,9.37,0.67,1.98,3.0
1758078517.27249,1758078517.25435,0.0,0.0,0.0,39.64868,23.31938,-3.83882,9.29,0.65,2.0,3.0
1758078517.28807,1758078517.26435,0.0,0.0,0.0,39.70598,26.81443,-5.95876,9.29,0.65,2.0,3.0
1758078517.29207,1758078517.27435,0.0,0.0,0.0,40.04975,30.48136,-6.87549,9.1,0.59,2.1,3.0
1758078517.30759,1758078517.28435,0.0,0.0,0.0,40.33623,31.51268,-7.39116,9.1,0.59,2.1,3.0
1758078517.3085,1758078517.29435,0.0,0.0,0.0,41.08107,32.14294,-6.87549,8.85,0.46,2.01,3.0
1758078517.32612,1758078517.30435,0.0,0.0,0.0,42.1124,33.00237,-5.55769,8.85,0.46,2.01,3.0
1758078517.34351,1758078517.31435,0.0,0.0,0.0,42.85724,31.74186,-4.29718,8.75,0.3,2.01,3.0
1758078517.34872,1758078517.32435,0.0,0.0,0.0,43.65939,29.22085,-2.92208,8.38,0.25,2.0,3.0
1758078517.34921,1758078517.33435,0.0,0.0,0.0,44.23235,26.81443,-1.48969,8.38,0.25,2.0,3.0
1758078517.36638,1758078517.34435,0.0,0.0,0.0,44.86259,24.80907,0.22918,8.46,0.33,1.94,3.0
1758078517.38242,1758078517.35435,0.0,0.0,0.0,44.9199,22.34536,0.85944,8.46,0.33,1.94,3.0
1758078517.38691,1758078517.36435,0.0,0.0,0.0,44.28964,19.48057,0.74485,8.42,0.51,2.13,3.0
1758078517.40262,1758078517.37435,0.0,0.0,0.0,43.37291,16.61578,-0.34377,8.42,0.51,2.13,3.0
1758078517.40765,1758078517.38435,0.0,0.0,0.0,41.31026,12.14671,-3.03668,8.34,0.81,2.17,3.0
1758078517.41251,1758078517.39435,0.0,0.0,0.0,39.87786,8.25059,-4.58366,8.19,1.13,1.87,3.0
1758078517.42867,1758078517.40435,0.0,0.0,0.0,38.50277,5.21392,-5.55769,8.19,1.13,1.87,3.0
1758078517.43126,1758078517.41435,0.0,0.0,0.0,37.18496,2.6929,-5.90147,8.23,1.22,1.79,3.0
1758078517.44666,1758078517.42435,0.0,0.0,0.0,35.63798,-0.80214,-4.81285,8.23,1.22,1.79,3.0
1758078517.44945,1758078517.43435,0.0,0.0,0.0,35.06502,-2.11994,-3.83882,8.27,1.07,1.68,3.0
1758078517.46638,1758078517.44435,0.0,0.0,0.0,34.60666,-2.34913,-2.11994,8.27,1.07,1.68,3.0
1758078517.47247,1758078517.45435,0.0,0.0,0.0,33.86181,-2.11994,-0.97403,8.56,0.92,1.82,3.0
1758078517.49068,1758078517.46435,0.0,0.0,0.0,32.42941,-0.74485,0.34377,8.88,0.98,1.85,3.0
1758078517.49162,1758078517.47435,0.0,0.0,0.0,31.11161,0.22918,0.80214,8.88,0.98,1.85,3.0
1758078517.50671,1758078517.48435,0.0,0.0,0.0,29.10626,1.14592,0.74485,9.01,1.16,1.84,3.0
1758078517.51197,1758078517.49435,0.0,0.0,0.0,25.21014,2.34913,0.34377,9.01,1.16,1.84,3.0
1758078517.5277,1758078517.50435,0.0,0.0,0.0,22.28806,2.97938,-0.34377,9.03,1.38,1.83,3.0
1758078517.53114,1758078517.51435,0.0,0.0,0.0,18.9649,2.00535,-0.68755,9.03,1.38,1.83,3.0
1758078517.54679,1758078517.52435,0.0,0.0,0.0,15.58445,0.57296,-1.20321,8.88,1.52,1.76,3.0
1758078517.55198,1758078517.53435,0.0,0.0,0.0,10.71431,-0.51566,-1.14592,8.88,1.52,1.76,3.0
1758078517.56937,1758078517.54435,0.0,0.0,0.0,8.36518,-2.29183,-0.85944,8.96,1.42,1.61,3.0
1758078517.575,1758078517.55435,0.0,0.0,0.0,6.41713,-4.23989,-0.34377,9.04,1.21,1.55,3.0
1758078517.59203,1758078517.56435,0.0,0.0,0.0,4.98473,-3.60963,0.40107,9.04,1.21,1.55,3.0
1758078517.59563,1758078517.57435,0.0,0.0,0.0,2.40642,2.29183,0.85944,9.76,1.06,1.74,3.0
1758078517.61075,1758078517.58435,0.0,0.0,0.0,0.74485,2.46372,0.74485,9.76,1.06,1.74,3.0
1758078517.61435,1758078517.59435,0.0,0.0,0.0,-0.80214,0.40107,0.45837,9.54,1.17,2.08,3.0
1758078517.63184,1758078517.60435,0.0,0.0,0.0,-2.57831,-2.46372,0.57296,9.54,1.17,2.08,3.0
1758078517.63547,1758078517.61435,0.0,0.0,0.0,-7.10468,-2.86479,-2.92208,9.41,1.39,2.03,3.0
1758078517.65076,1758078517.62435,0.0,0.0,0.0,-10.48513,-2.46372,-5.78687,9.56,1.76,1.93,3.0
1758078517.65244,1758078517.63435,0.0,0.0,0.0,-14.03747,-2.57831,-8.99544,9.56,1.76,1.93,3.0
1758078517.66934,1758078517.64435,0.0,0.0,0.0,-17.87628,-1.77617,-12.2613,9.67,2.04,1.95,3.0
1758078517.67509,1758078517.65435,0.0,0.0,0.0,-23.31938,-8.76626,-16.73037,9.67,2.04,1.95,3.0
1758078517.69156,1758078517.66435,0.0,0.0,0.0,-26.18417,-14.83961,-19.25138,9.15,2.02,2.03,3.0
1758078517.6957,1758078517.67435,0.0,0.0,0.0,-28.476,-20.34,-20.34,9.15,2.02,2.03,3.0
1758078517.71697,1758078517.68435,0.0,0.0,0.0,-29.56462,-25.72581,-17.58981,9.27,1.71,1.43,3.0
1758078517.74628,1758078517.69435,0.0,0.0,0.0,-30.88243,-33.68992,-16.55848,9.22,1.21,1.75,3.0
1758078517.74914,1758078517.70435,0.0,0.0,0.0,-30.76784,-38.84654,-13.80828,9.22,1.21,1.75,3.0
1758078517.75182,1758078517.71435,0.0,0.0,0.0,-29.73651,-35.75257,-11.11538,10.26,0.84,2.69,3.0
1758078517.75494,1758078517.72435,0.0,0.0,0.0,-28.01764,-8.93814,-15.75634,10.26,0.84,2.69,3.0
1758078517.75612,1758078517.73435,0.0,0.0,0.0,-26.24147,-1.14592,-19.88164,12.06,0.72,2.67,3.0
1758078517.77156,1758078517.74435,0.0,0.0,0.0,-24.5226,-3.95341,-22.68913,12.06,0.72,2.67,3.0
1758078517.77467,1758078517.75435,0.0,0.0,0.0,-25.09555,-13.80828,-25.7831,9.92,0.9,3.32,3.0
1758078517.78984,1758078517.76435,0.0,0.0,0.0,-25.55392,-8.0787,-26.01229,10.21,0.9,0.94,3.0
1758078517.79239,1758078517.77435,0.0,0.0,0.0,-25.09555,3.20856,-23.31938,10.21,0.96,0.94,3.0
1758078517.8096,1758078517.78435,0.0,0.0,0.0,-23.89234,9.85487,-19.13679,10.75,0.94,1.1,3.0
1758078517.81237,1758078517.79435,0.0,0.0,0.0,-22.51724,12.89155,-14.66772,10.75,0.94,1.1,3.0
1758078517.82871,1758078517.80435,0.0,0.0,0.0,-19.59516,17.36062,-8.99544,11.03,0.62,2.26,3.0
1758078517.83193,1758078517.81435,0.0,0.0,0.0,-16.67307,21.60051,-6.58902,11.03,0.62,2.26,3.0
1758078517.8479,1758078517.82435,0.0,0.0,0.0,-13.06344,24.5226,-4.92744,12.3,0.25,2.14,3.0
1758078517.85437,1758078517.83435,0.0,0.0,0.0,-9.4538,27.50197,-4.52637,12.3,0.25,2.14,3.0
1758078517.86966,1758078517.84435,0.0,0.0,0.0,-5.61499,30.19488,-5.61499,12.65,0.23,2.07,3.0
1758078517.87163,1758078517.85435,0.0,0.0,0.0,-4.1253,30.99702,-6.99009,12.17,0.73,2.25,3.0
1758078517.88669,1758078517.86435,0.0,0.0,0.0,-3.55234,30.59595,-8.25059,12.17,0.73,2.25,3.0
1758078517.8902,1758078517.87435,0.0,0.0,0.0,-3.60963,29.50733,-9.39651,11.43,1.38,2.45,3.0
1758078517.90676,1758078517.88435,0.0,0.0,0.0,-4.92744,27.61657,-10.8862,11.43,1.38,2.45,3.0
1758078517.92268,1758078517.89435,0.0,0.0,0.0,-6.70361,25.43933,-11.86023,11.24,1.96,3.02,3.0
1758078517.92413,1758078517.90435,0.0,0.0,0.0,-8.93814,22.51724,-12.14671,11.24,1.96,3.02,3.0
1758078517.93876,1758078517.91435,0.0,0.0,0.0,-12.60507,17.99088,-11.74564,11.45,2.42,3.72,3.0
1758078517.94063,1758078517.92435,0.0,0.0,0.0,-15.24068,15.75634,-10.37054,12.12,2.64,3.96,3.0
1758078517.95596,1758078517.93435,0.0,0.0,0.0,-17.93358,13.34992,-8.25059,12.12,2.64,3.96,3.0
1758078517.97162,1758078517.94435,0.0,0.0,0.0,-20.45459,10.54242,-5.78687,12.52,2.59,3.95,3.0
1758078517.97314,1758078517.95435,0.0,0.0,0.0,-22.86102,7.79223,-2.63561,12.52,2.59,3.95,3.0
1758078517.98873,1758078517.96435,0.0,0.0,0.0,-23.89234,6.35983,-1.66158,12.34,2.19,3.83,3.0
1758078517.99052,1758078517.97435,0.0,0.0,0.0,-24.35071,3.89611,-0.80214,12.34,2.19,3.83,3.0
1758078518.00598,1758078517.98435,0.0,0.0,0.0,-24.00693,1.94806,-1.03132,11.44,1.57,3.61,3.0
1758078518.02177,1758078517.99435,0.0,0.0,0.0,-22.86102,-2.23454,-1.48969,10.48,1.03,3.39,3.0
1758078518.02284,1758078518.00435,0.0,0.0,0.0,-22.00158,-5.84417,-1.94806,10.48,1.03,3.39,3.0
1758078518.03874,1758078518.01435,0.0,0.0,0.0,-21.25674,-8.76626,-2.92208,9.39,0.67,3.21,3.0
1758078518.04083,1758078518.02435,0.0,0.0,0.0,-20.85567,-13.75099,-3.32316,9.39,0.67,3.21,3.0
1758078518.05593,1758078518.03435,0.0,0.0,0.0,-20.97026,-21.48592,-4.23989,8.11,0.51,3.11,3.0
1758078518.07194,1758078518.04435,0.0,0.0,0.0,-21.37133,-28.30412,-3.89611,8.11,0.51,3.11,3.0
1758078518.07291,1758078518.05435,0.0,0.0,0.0,-21.48592,-35.3515,-3.83882,6.93,0.43,3.19,3.0
1758078518.08853,1758078518.06435,0.0,0.0,0.0,-21.60051,-43.77398,-2.29183,6.93,0.43,3.19,3.0
1758078518.09093,1758078518.07435,0.0,0.0,0.0,-21.14215,-53.05589,0.0573,6.35,0.4,3.0,3.0
1758078518.10604,1758078518.08435,0.0,0.0,0.0,-20.79837,-58.3844,2.34913,6.79,0.22,2.81,3.0
1758078518.12205,1758078518.09435,0.0,0.0,0.0,-20.74107,-63.02536,4.52637,6.79,0.22,2.81,3.0
1758078518.12293,1758078518.10435,0.0,0.0,0.0,-21.08485,-65.71826,6.8182,7.76,-0.07,2.8,3.0
1758078518.13879,1758078518.11435,0.0,0.0,0.0,-21.60051,-64.85883,7.62034,7.76,-0.07,2.8,3.0
1758078518.14138,1758078518.12435,0.0,0.0,0.0,-22.40265,-62.5097,7.62034,8.9,0.03,2.61,3.0
1758078518.15704,1758078518.13435,0.0,0.0,0.0,-23.94964,-59.47303,6.70361,8.9,0.03,2.61,3.0
1758078518.17274,1758078518.14435,0.0,0.0,0.0,-27.1582,-53.80074,4.58366,9.41,0.72,2.6,3.0
1758078518.17505,1758078518.15435,0.0,0.0,0.0,-29.73651,-49.67545,3.20856,9.66,1.46,2.59,3.0
1758078518.19082,1758078518.16435,0.0,0.0,0.0,-32.37212,-44.23235,1.83346,9.66,1.46,2.59,3.0
1758078518.19176,1758078518.17435,0.0,0.0,0.0,-34.95043,-36.7266,0.85944,10.13,1.74,2.39,3.0
1758078518.20673,1758078518.18435,0.0,0.0,0.0,-38.15899,-23.89234,0.34377,10.13,1.74,2.39,3.0
1758078518.22277,1758078518.19435,0.0,0.0,0.0,-39.4195,-15.24068,0.57296,10.48,1.35,2.06,3.0
1758078518.2243,1758078518.20435,0.0,0.0,0.0,-40.39353,-6.47442,0.85944,10.48,1.35,2.06,3.0
1758078518.23876,1758078518.21435,0.0,0.0,0.0,-40.7373,2.29183,1.3178,10.55,0.59,1.79,3.0
1758078518.24111,1758078518.22435,0.0,0.0,0.0,-40.68,12.54778,1.08862,10.14,0.02,1.57,3.0
1758078518.25601,1758078518.23435,0.0,0.0,0.0,-40.45082,17.87628,0.74485,10.14,0.02,1.57,3.0
1758078518.27209,1758078518.24435,0.0,0.0,0.0,-40.39353,22.40265,1.08862,9.68,0.0,1.59,3.0
1758078518.27322,1758078518.25435,0.0,0.0,0.0,-40.45082,26.87172,1.3751,9.68,0.0,1.59,3.0
1758078518.28891,1758078518.26435,0.0,0.0,0.0,-40.7946,34.14828,2.6929,9.69,0.26,1.6,3.0
1758078518.29492,1758078518.27435,0.0,0.0,0.0,-41.48215,36.15364,3.83882,9.69,0.26,1.6,3.0
1758078518.31092,1758078518.28435,0.0,0.0,0.0,-42.1124,37.92981,4.98473,9.37,0.48,1.59,3.0
1758078518.31177,1758078518.29435,0.0,0.0,0.0,-42.74266,40.10705,5.78687,9.37,0.48,1.59,3.0
1758078518.32678,1758078518.30435,0.0,0.0,0.0,-43.60209,40.68,6.99009,9.15,0.4,1.54,3.0
1758078518.3323,1758078518.31435,0.0,0.0,0.0,-44.00316,37.24226,7.44845,8.58,0.18,1.51,3.0
1758078518.35161,1758078518.32435,0.0,0.0,0.0,-43.88857,32.37212,8.0787,8.58,0.18,1.51,3.0
1758078518.3542,1758078518.33435,0.0,0.0,0.0,-43.02913,25.89769,8.99544,8.22,-0.1,1.55,3.0
1758078518.37094,1758078518.34435,0.0,0.0,0.0,-42.05511,24.23611,9.68299,8.22,-0.1,1.55,3.0
1758078518.37506,1758078518.35435,0.0,0.0,0.0,-40.33623,23.83505,10.31324,8.6,-0.5,1.49,3.0
1758078518.39072,1758078518.36435,0.0,0.0,0.0,-38.44547,23.54857,10.48513,8.6,-0.5,1.49,3.0
1758078518.39431,1758078518.37435,0.0,0.0,0.0,-34.95043,21.7151,9.68299,8.65,-0.8,1.56,3.0
1758078518.41065,1758078518.38435,0.0,0.0,0.0,-32.54401,20.34,8.65166,8.5,-0.8,1.63,3.0
1758078518.41455,1758078518.39435,0.0,0.0,0.0,-30.30947,19.59516,7.62034,8.5,-0.8,1.63,3.0
1758078518.43067,1758078518.40435,0.0,0.0,0.0,-28.13223,18.50654,6.53172,8.49,-0.59,1.58,3.0
1758078518.43456,1758078518.41435,0.0,0.0,0.0,-25.49662,13.98017,4.92744,8.49,-0.59,1.58,3.0
1758078518.45064,1758078518.42435,0.0,0.0,0.0,-24.29341,10.8862,4.1253,8.33,-0.39,1.69,3.0
1758078518.45458,1758078518.43435,0.0,0.0,0.0,-23.37668,7.62034,3.49504,8.33,-0.39,1.69,3.0
1758078518.47093,1758078518.44435,0.0,0.0,0.0,-22.74642,4.46907,3.20856,8.29,-0.32,1.68,3.0
1758078518.47509,1758078518.45435,0.0,0.0,0.0,-22.00158,-0.57296,3.49504,8.23,-0.36,1.66,3.0
1758078518.48994,1758078518.46435,0.0,0.0,0.0,-21.25674,-4.29718,4.0107,8.23,-0.36,1.66,3.0
1758078518.49189,1758078518.47435,0.0,0.0,0.0,-20.34,-8.02141,4.81285,8.17,-0.54,1.57,3.0
1758078518.50692,1758078518.48435,0.0,0.0,0.0,-19.13679,-11.91752,5.72958,8.17,-0.54,1.57,3.0
1758078518.51134,1758078518.49435,0.0,0.0,0.0,-16.90226,-15.98552,6.58902,8.2,-0.79,1.43,3.0
1758078518.52693,1758078518.50435,0.0,0.0,0.0,-15.12609,-15.98552,6.24524,8.2,-0.79,1.43,3.0
1758078518.53237,1758078518.51435,0.0,0.0,0.0,-13.17803,-14.49583,4.81285,8.52,-0.89,1.36,3.0
1758078518.55023,1758078518.52435,0.0,0.0,0.0,-10.19865,-12.49048,1.77617,8.52,-0.89,1.36,3.0
1758078518.55112,1758078518.53435,0.0,0.0,0.0,-7.62034,-8.47978,0.57296,8.91,-0.85,1.66,3.0
1758078518.56597,1758078518.54435,0.0,0.0,0.0,-4.87014,-8.59437,0.68755,9.39,-0.9,1.97,3.0
1758078518.57223,1758078518.55435,0.0,0.0,0.0,-2.11994,-10.94349,2.11994,9.39,-0.9,1.97,3.0
1758078518.58824,1758078518.56435,0.0,0.0,0.0,1.71887,-12.77696,5.15662,9.66,-1.15,1.7,3.0
1758078518.58941,1758078518.57435,0.0,0.0,0.0,4.87014,-12.60507,7.73493,9.66,-1.15,1.7,3.0
1758078518.60622,1758078518.58435,0.0,0.0,0.0,8.02141,-12.204,10.71431,10.11,-1.4,1.43,3.0
1758078518.62228,1758078518.59435,0.0,0.0,0.0,11.51645,-11.22997,13.23533,10.11,-1.4,1.43,3.0
1758078518.6266,1758078518.60435,0.0,0.0,0.0,15.64175,-11.34457,15.29797,10.17,-1.44,1.35,3.0
1758078518.64223,1758078518.61435,0.0,0.0,0.0,18.79302,-9.11003,15.0115,9.96,-1.22,1.23,3.0
1758078518.64668,1758078518.62435,0.0,0.0,0.0,21.14215,-8.65166,15.69904,9.96,-1.22,1.23,3.0
1758078518.66228,1758078518.63435,0.0,0.0,0.0,21.7151,-9.33921,15.41257,9.77,-0.92,1.46,3.0
1758078518.66472,1758078518.64435,0.0,0.0,0.0,20.45459,-5.15662,11.80293,9.77,-0.92,1.46,3.0
1758078518.68219,1758078518.65435,0.0,0.0,0.0,19.88164,-3.20856,10.71431,10.13,-0.39,2.17,3.0
1758078518.6864,1758078518.66435,0.0,0.0,0.0,17.76169,-0.34377,7.67763,10.13,-0.39,2.17,3.0
1758078518.70201,1758078518.67435,0.0,0.0,0.0,16.50119,0.34377,6.8182,10.66,0.32,2.57,3.0
1758078518.70642,1758078518.68435,0.0,0.0,0.0,13.23533,-10.71431,7.62034,10.2,0.65,2.53,3.0
1758078518.72222,1758078518.69435,0.0,0.0,0.0,12.08941,-11.80293,11.22997,10.2,0.65,2.53,3.0
1758078518.7243,1758078518.70435,0.0,0.0,0.0,12.77696,-14.61043,18.9649,11.7,0.33,1.92,3.0
1758078518.73896,1758078518.71435,0.0,0.0,0.0,10.8862,-3.83882,23.0329,11.7,0.33,1.92,3.0
1758078518.74131,1758078518.72435,0.0,0.0,0.0,10.08406,8.65166,22.63183,12.68,-0.3,1.77,3.0
1758078518.75624,1758078518.73435,0.0,0.0,0.0,10.37054,13.40721,21.88699,12.68,-0.3,1.77,3.0
1758078518.77228,1758078518.74435,0.0,0.0,0.0,9.68299,18.62113,18.73572,12.11,-0.72,2.71,3.0
1758078518.77477,1758078518.75435,0.0,0.0,0.0,7.67763,25.09555,13.17803,12.11,-0.72,2.71,3.0
1758078518.79025,1758078518.76435,0.0,0.0,0.0,5.95876,28.59059,8.99544,12.4,-0.68,3.19,3.0
1758078518.79233,1758078518.77435,0.0,0.0,0.0,4.29718,30.13758,6.13065,12.45,-0.42,3.25,3.0
1758078518.80708,1758078518.78435,0.0,0.0,0.0,2.63561,28.76248,3.89611,12.45,-0.42,3.25,3.0
1758078518.80937,1758078518.79435,0.0,0.0,0.0,0.34377,26.81443,1.20321,12.34,-0.43,3.57,3.0
1758078518.82614,1758078518.80435,0.0,0.0,0.0,-0.57296,24.00693,-0.40107,12.34,-0.43,3.57,3.0
1758078518.84208,1758078518.81435,0.0,0.0,0.0,-0.51566,20.68378,-1.94806,12.63,-0.89,4.06,3.0
1758078518.84326,1758078518.82435,0.0,0.0,0.0,0.40107,16.272,-3.55234,12.63,-0.89,4.06,3.0
1758078518.85798,1758078518.83435,0.0,0.0,0.0,3.60963,11.00079,-5.84417,13.2,-1.3,4.4,3.0
1758078518.85929,1758078518.84435,0.0,0.0,0.0,6.18794,7.84952,-6.53172,13.29,-1.18,4.39,3.0
1758078518.87506,1758078518.85435,0.0,0.0,0.0,8.93814,4.64096,-6.70361,13.29,-1.18,4.39,3.0
1758078518.89107,1758078518.86435,0.0,0.0,0.0,11.86023,1.20321,-5.90147,12.29,-0.92,4.28,3.0
1758078518.89225,1758078518.87435,0.0,0.0,0.0,15.69904,-4.81285,-3.95341,12.29,-0.92,4.28,3.0
1758078518.90708,1758078518.88435,0.0,0.0,0.0,18.10547,-8.99544,-2.63561,10.99,-0.82,3.78,3.0
1758078518.90914,1758078518.89435,0.0,0.0,0.0,20.74107,-13.5218,-1.14592,10.99,-0.82,3.78,3.0
1758078518.92614,1758078518.90435,0.0,0.0,0.0,23.20479,-18.22006,0.11459,9.69,-0.77,3.31,3.0
1758078518.94214,1758078518.91435,0.0,0.0,0.0,27.2155,-24.92367,2.11994,8.46,-0.84,2.92,3.0
1758078518.94644,1758078518.92435,0.0,0.0,0.0,29.9084,-29.10626,2.7502,8.46,-0.84,2.92,3.0
1758078518.96233,1758078518.93435,0.0,0.0,0.0,32.25753,-33.05967,3.09397,7.63,-0.88,2.68,3.0
1758078518.9637,1758078518.94435,0.0,0.0,0.0,35.58068,-35.69527,3.26586,7.63,-0.88,2.68,3.0
1758078518.97829,1758078518.95435,0.0,0.0,0.0,37.81522,-39.19032,3.38045,7.21,-0.59,2.55,3.0
1758078518.98169,1758078518.96435,0.0,0.0,0.0,39.53409,-41.48215,3.66693,7.21,-0.59,2.55,3.0
1758078518.99726,1758078518.97435,0.0,0.0,0.0,40.68,-43.31561,3.89611,7.08,-0.14,2.53,3.0
1758078518.99908,1758078518.98435,0.0,0.0,0.0,41.48215,-43.83128,3.72423,7.08,-0.14,2.53,3.0
1758078519.01632,1758078518.99435,0.0,0.0,0.0,41.48215,-41.76862,3.83882,7.44,0.2,2.42,3.0
1758078519.0323,1758078519.00435,0.0,0.0,0.0,40.96649,-39.4195,3.60963,7.94,0.37,2.53,3.0
1758078519.03643,1758078519.01435,0.0,0.0,0.0,40.33623,-36.03905,3.38045,7.94,0.37,2.53,3.0
1758078519.05244,1758078519.02435,0.0,0.0,0.0,38.90384,-29.04896,2.7502,8.41,0.44,2.4,3.0
1758078519.05332,1758078519.03435,0.0,0.0,0.0,38.1017,-23.54857,2.29183,8.41,0.44,2.4,3.0
1758078519.06944,1758078519.04435,0.0,0.0,0.0,37.29956,-17.87628,1.77617,8.93,0.58,2.21,3.0
1758078519.07191,1758078519.05435,0.0,0.0,0.0,36.6693,-11.34457,1.08862,8.93,0.58,2.21,3.0
1758078519.08715,1758078519.06435,0.0,0.0,0.0,35.98175,-1.03132,0.0,9.15,0.63,1.93,3.0
1758078519.08916,1758078519.07435,0.0,0.0,0.0,35.58068,6.41713,-0.74485,9.3,0.59,1.91,3.0
1758078519.10644,1758078519.08435,0.0,0.0,0.0,34.95043,13.17803,-1.83346,9.3,0.59,1.91,3.0
1758078519.12245,1758078519.09435,0.0,0.0,0.0,34.37747,20.05352,-2.7502,9.42,0.56,1.89,3.0
1758078519.12337,1758078519.10435,0.0,0.0,0.0,33.74722,28.13223,-4.1253,9.42,0.56,1.89,3.0
1758078519.13851,1758078519.11435,0.0,0.0,0.0,33.63263,32.54401,-4.87014,9.35,0.49,1.98,3.0
1758078519.13982,1758078519.12435,0.0,0.0,0.0,33.51803,36.49741,-5.09932,9.35,0.49,1.98,3.0
1758078519.15647,1758078519.13435,0.0,0.0,0.0,33.23156,39.64868,-5.90147,9.35,0.43,2.0,3.0
1758078519.17242,1758078519.14435,0.0,0.0,0.0,32.88778,40.50812,-6.07335,9.18,0.49,2.01,3.0
1758078519.17491,1758078519.15435,0.0,0.0,0.0,32.88778,39.4195,-6.07335,9.18,0.49,2.01,3.0
1758078519.19047,1758078519.16435,0.0,0.0,0.0,32.88778,39.01843,-5.78687,9.11,0.46,2.0,3.0
1758078519.19135,1758078519.17435,0.0,0.0,0.0,33.11696,37.64333,-5.50039,9.11,0.46,2.0,3.0
1758078519.20617,1758078519.18435,0.0,0.0,0.0,33.34615,35.69527,-5.21392,8.91,0.36,1.99,3.0
1758078519.21164,1758078519.19435,0.0,0.0,0.0,33.86181,32.25753,-4.58366,8.91,0.36,1.99,3.0
1758078519.22719,1758078519.20435,0.0,0.0,0.0,34.43476,27.61657,-3.55234,8.46,0.31,2.18,3.0
1758078519.22921,1758078519.21435,0.0,0.0,0.0,35.00772,21.14215,-1.94806,8.46,0.31,2.3,3.0
1758078519.24604,1758078519.22435,0.0,0.0,0.0,34.77854,18.33465,-1.83346,8.37,0.35,2.3,3.0
1758078519.26247,1758078519.23435,0.0,0.0,0.0,33.9764,14.38124,-2.7502,8.35,0.65,2.22,3.0
1758078519.26416,1758078519.24435,0.0,0.0,0.0,32.83048,10.48513,-4.23989,8.35,0.65,2.22,3.0
1758078519.28106,1758078519.25435,0.0,0.0,0.0,31.2262,4.69825,-5.90147,8.15,1.04,1.94,3.0
1758078519.2824,1758078519.26435,0.0,0.0,0.0,29.96569,1.60428,-6.24524,8.15,1.04,1.94,3.0
1758078519.29718,1758078519.27435,0.0,0.0,0.0,28.476,-1.71887,-6.24524,8.24,1.23,1.93,3.0
1758078519.31323,1758078519.28435,0.0,0.0,0.0,27.10091,-4.46907,-5.50039,8.24,1.23,1.93,3.0
1758078519.31552,1758078519.29435,0.0,0.0,0.0,25.26744,-6.8182,-3.83882,8.35,1.12,1.89,3.0
1758078519.33053,1758078519.30435,0.0,0.0,0.0,24.00693,-7.84952,-2.63561,8.63,0.93,1.97,3.0
1758078519.33168,1758078519.31435,0.0,0.0,0.0,22.63183,-7.50575,-1.71887,8.63,0.93,1.97,3.0
1758078519.34654,1758078519.32435,0.0,0.0,0.0,21.48592,-7.16197,-1.14592,8.86,0.87,1.93,3.0
1758078519.36256,1758078519.33435,0.0,0.0,0.0,19.48057,-5.61499,-1.08862,8.86,0.87,1.93,3.0
1758078519.36371,1758078519.34435,0.0,0.0,0.0,18.10547,-4.18259,-1.83346,9.06,0.99,1.92,3.0
1758078519.37846,1758078519.35435,0.0,0.0,0.0,16.38659,-2.23454,-2.92208,9.06,0.99,1.92,3.0
1758078519.38059,1758078519.36435,0.0,0.0,0.0,13.69369,-0.51566,-4.64096,9.17,1.13,1.89,3.0
1758078519.39528,1758078519.37435,0.0,0.0,0.0,11.91752,1.3751,-5.61499,9.18,1.14,1.75,3.0
1758078519.4116,1758078519.38435,0.0,0.0,0.0,10.25595,3.03668,-6.24524,9.18,1.14,1.75,3.0
1758078519.41275,1758078519.39435,0.0,0.0,0.0,8.59437,4.29718,-6.58902,9.27,1.05,1.67,3.0
1758078519.42731,1758078519.40435,0.0,0.0,0.0,6.41713,4.1253,-5.90147,9.27,1.05,1.67,3.0
1758078519.44331,1758078519.41435,0.0,0.0,0.0,4.81285,4.52637,-3.89611,9.13,0.93,1.52,3.0
1758078519.44705,1758078519.42435,0.0,0.0,0.0,2.97938,6.18794,-2.29183,9.13,0.93,1.52,3.0
1758078519.46261,1758078519.43435,0.0,0.0,0.0,0.97403,6.24524,-1.60428,9.45,0.83,1.73,3.0
1758078519.4644,1758078519.44435,0.0,0.0,0.0,-2.23454,5.50039,-1.43239,9.44,0.9,1.74,3.0
1758078519.48171,1758078519.45435,0.0,0.0,0.0,-4.52637,6.13065,-2.00535,9.44,0.9,1.74,3.0
1758078519.48292,1758078519.46435,0.0,0.0,0.0,-6.41713,3.95341,-1.66158,9.54,1.11,1.6,3.0
1758078519.49911,1758078519.47435,0.0,0.0,0.0,-10.31324,5.15662,-4.69825,9.54,1.11,1.6,3.0
1758078519.50033,1758078519.48435,0.0,0.0,0.0,-14.15206,4.58366,-8.136,9.46,1.39,1.77,3.0
1758078519.51534,1758078519.49435,0.0,0.0,0.0,-17.18874,4.18259,-11.11538,9.46,1.39,1.77,3.0
1758078519.53134,1758078519.50435,0.0,0.0,0.0,-20.45459,4.46907,-14.43854,9.53,1.65,1.71,3.0
1758078519.53254,1758078519.51435,0.0,0.0,0.0,-23.49127,5.21392,-17.47521,9.53,1.65,1.71,3.0
1758078519.54734,1758078519.52435,0.0,0.0,0.0,-27.50197,-3.49504,-20.22541,9.57,1.75,1.82,3.0
1758078519.56441,1758078519.53435,0.0,0.0,0.0,-29.27814,-11.34457,-21.60051,8.9,1.6,1.5,3.0
1758078519.56695,1758078519.54435,0.0,0.0,0.0,-29.96569,-19.36597,-20.79837,8.9,1.6,1.5,3.0
1758078519.58315,1758078519.55435,0.0,0.0,0.0,-30.82513,-26.47065,-16.38659,9.17,1.15,1.16,3.0
1758078519.5851,1758078519.56435,0.0,0.0,0.0,-29.96569,-35.86716,-13.5218,9.17,1.15,1.16,3.0
1758078519.60165,1758078519.57435,0.0,0.0,0.0,-28.01764,-35.3515,-9.39651,10.08,0.66,2.1,3.0
1758078519.60263,1758078519.58435,0.0,0.0,0.0,-24.63719,-11.80293,-12.89155,10.08,0.66,2.1,3.0
1758078519.61763,1758078519.59435,0.0,0.0,0.0,-22.74642,10.19865,-17.99088,13.73,0.46,2.51,3.0
1758078519.63365,1758078519.60435,0.0,0.0,0.0,-22.40265,2.11994,-22.51724,11.81,0.57,4.28,3.0
1758078519.63617,1758078519.61435,0.0,0.0,0.0,-21.48592,-4.92744,-24.57989,11.81,0.57,4.28,3.0
1758078519.65249,1758078519.62435,0.0,0.0,0.0,-21.88699,0.97403,-25.8404,12.36,0.6,2.31,3.0
1758078519.65618,1758078519.63435,0.0,0.0,0.0,-20.51189,16.50119,-22.28806,12.36,0.6,2.31,3.0
1758078519.67172,1758078519.64435,0.0,0.0,0.0,-18.50654,18.56383,-17.81899,13.12,0.69,1.8,3.0
1758078519.67498,1758078519.65435,0.0,0.0,0.0,-15.75634,20.05352,-12.2613,13.12,0.69,1.8,3.0
1758078519.69123,1758078519.66435,0.0,0.0,0.0,-12.89155,22.63183,-7.16197,13.02,0.66,3.54,3.0
1758078519.69434,1758078519.67435,0.0,0.0,0.0,-9.39651,27.61657,-1.3178,13.86,0.96,3.81,3.0
1758078519.70966,1758078519.68435,0.0,0.0,0.0,-8.76626,28.01764,1.66158,13.86,0.96,3.81,3.0
1758078519.71149,1758078519.69435,0.0,0.0,0.0,-9.5684,24.57989,3.49504,13.27,1.84,3.83,3.0
1758078519.72698,1758078519.70435,0.0,0.0,0.0,-11.86023,20.85567,4.29718,13.27,1.84,3.83,3.0
1758078519.74458,1758078519.71435,0.0,0.0,0.0,-17.36062,17.01685,3.60963,13.04,2.64,3.66,3.0
1758078519.74625,1758078519.72435,0.0,0.0,0.0,-22.23076,14.49583,1.83346,13.04,2.64,3.66,3.0
1758078519.76173,1758078519.73435,0.0,0.0,0.0,-26.52795,11.86023,-0.51566,12.46,2.8,3.75,3.0
1758078519.7626,1758078519.74435,0.0,0.0,0.0,-30.76784,8.65166,-3.20856,12.46,2.8,3.75,3.0
1758078519.77766,1758078519.75435,0.0,0.0,0.0,-35.75257,0.51566,-6.70361,11.14,2.39,4.04,3.0
1758078519.79452,1758078519.76435,0.0,0.0,0.0,-38.1017,-5.27121,-8.30789,9.77,1.83,3.9,3.0
1758078519.79622,1758078519.77435,0.0,0.0,0.0,-40.10705,-11.17268,-9.05273,9.77,1.83,3.9,3.0
1758078519.81174,1758078519.78435,0.0,0.0,0.0,-42.22699,-16.10011,-8.36518,8.91,1.42,3.43,3.0
1758078519.81263,1758078519.79435,0.0,0.0,0.0,-43.37291,-27.2155,-6.99009,8.91,1.42,3.43,3.0
1758078519.83052,1758078519.80435,0.0,0.0,0.0,-44.11775,-35.75257,-4.92744,7.95,0.97,3.15,3.0
1758078519.83162,1758078519.81435,0.0,0.0,0.0,-44.9199,-43.77398,-2.92208,7.95,0.97,3.15,3.0
1758078519.84675,1758078519.82435,0.0,0.0,0.0,-45.89392,-56.952,-1.03132,7.38,0.44,3.02,3.0
1758078519.8647,1758078519.83435,0.0,0.0,0.0,-46.35228,-65.66096,-0.45837,6.74,0.02,3.05,3.0
1758078519.86622,1758078519.84435,0.0,0.0,0.0,-46.1804,-71.90621,-0.17189,6.74,0.02,3.05,3.0
1758078519.88174,1758078519.85435,0.0,0.0,0.0,-46.00851,-76.20339,-0.11459,6.98,-0.13,3.0,3.0
1758078519.88427,1758078519.86435,0.0,0.0,0.0,-45.20637,-79.92762,-1.3751,6.98,-0.13,3.0,3.0
1758078519.90089,1758078519.87435,0.0,0.0,0.0,-44.51882,-80.32869,-2.63561,7.52,0.0,2.8,3.0
1758078519.90147,1758078519.88435,0.0,0.0,0.0,-43.65939,-78.839,-4.18259,7.52,0.0,2.8,3.0
1758078519.91654,1758078519.89435,0.0,0.0,0.0,-42.62806,-75.80232,-5.50039,8.17,0.21,2.48,3.0
1758078519.93509,1758078519.90435,0.0,0.0,0.0,-41.08107,-69.04142,-6.8182,8.72,0.23,2.16,3.0
1758078519.93581,1758078519.91435,0.0,0.0,0.0,-39.87786,-63.31184,-6.99009,8.72,0.23,2.16,3.0
1758078519.95171,1758078519.92435,0.0,0.0,0.0,-38.61736,-56.49364,-6.53172,9.36,0.05,1.95,3.0
1758078519.95298,1758078519.93435,0.0,0.0,0.0,-37.35685,-48.75871,-5.72958,9.36,0.05,1.95,3.0
1758078519.96777,1758078519.94435,0.0,0.0,0.0,-35.06502,-36.38282,-3.26586,9.84,-0.15,1.77,3.0
1758078519.97267,1758078519.95435,0.0,0.0,0.0,-33.46074,-27.73116,-1.48969,9.84,-0.15,1.77,3.0
1758078519.99087,1758078519.96435,0.0,0.0,0.0,-31.74186,-19.25138,0.17189,10.06,-0.24,1.63,3.0
1758078519.99173,1758078519.97435,0.0,0.0,0.0,-29.8511,-11.80293,2.40642,10.06,-0.24,1.63,3.0
1758078520.00679,1758078519.98435,0.0,0.0,0.0,-26.69983,-1.3751,3.49504,9.99,-0.25,1.41,3.0
1758078520.01019,1758078519.99435,0.0,0.0,0.0,-24.63719,5.32851,4.23989,9.93,-0.35,1.39,3.0
1758078520.02636,1758078520.00435,0.0,0.0,0.0,-22.86102,10.94349,4.52637,9.93,-0.35,1.39,3.0
1758078520.04254,1758078520.01435,0.0,0.0,0.0,-20.3973,17.87628,4.87014,9.67,-0.36,1.43,3.0
1758078520.04327,1758078520.02435,0.0,0.0,0.0,-19.19409,21.88699,4.81285,9.67,-0.36,1.43,3.0
1758078520.06033,1758078520.03435,0.0,0.0,0.0,-18.27736,24.4653,4.69825,9.41,-0.21,1.5,3.0
1758078520.06234,1758078520.04435,0.0,0.0,0.0,-17.58981,26.41335,4.64096,9.41,-0.21,1.5,3.0
1758078520.07832,1758078520.05435,0.0,0.0,0.0,-16.84496,30.88243,5.09932,9.13,-0.08,1.41,3.0
1758078520.08109,1758078520.06435,0.0,0.0,0.0,-15.75634,32.25753,6.41713,9.05,-0.18,1.44,3.0
1758078520.09654,1758078520.07435,0.0,0.0,0.0,-14.49583,30.65324,7.96411,9.05,-0.18,1.44,3.0
1758078520.11594,1758078520.08435,0.0,0.0,0.0,-13.69369,29.27814,9.74028,8.53,-0.34,1.29,3.0
1758078520.1165,1758078520.09435,0.0,0.0,0.0,-12.43318,29.33544,11.91752,8.53,-0.34,1.29,3.0
1758078520.13515,1758078520.10435,0.0,0.0,0.0,-11.80293,29.96569,13.00614,8.76,-0.4,1.4,3.0
1758078520.13574,1758078520.11435,0.0,0.0,0.0,-11.22997,29.96569,13.40721,8.76,-0.4,1.4,3.0
1758078520.15183,1758078520.12435,0.0,0.0,0.0,-10.8289,29.27814,13.06344,8.64,-0.3,1.36,3.0
1758078520.15435,1758078520.13435,0.0,0.0,0.0,-10.37054,27.84575,11.17268,8.53,-0.21,1.44,3.0
1758078520.17094,1758078520.14435,0.0,0.0,0.0,-9.96947,25.89769,9.11003,8.53,-0.21,1.44,3.0
1758078520.17267,1758078520.15435,0.0,0.0,0.0,-9.96947,24.5226,7.10468,8.43,-0.17,1.28,3.0
1758078520.19083,1758078520.16435,0.0,0.0,0.0,-9.62569,23.89234,5.21392,8.43,-0.17,1.28,3.0
1758078520.1918,1758078520.17435,0.0,0.0,0.0,-9.33921,21.7151,3.89611,8.67,-0.19,1.42,3.0
1758078520.20665,1758078520.18435,0.0,0.0,0.0,-8.93814,19.19409,3.60963,8.67,-0.19,1.42,3.0
1758078520.22286,1758078520.19435,0.0,0.0,0.0,-8.47978,17.58981,4.29718,8.75,-0.22,1.46,3.0
1758078520.22665,1758078520.20435,0.0,0.0,0.0,-7.67763,15.46986,5.78687,8.75,-0.22,1.46,3.0
1758078520.23196,1758078520.21435,0.0,0.0,0.0,-6.53172,14.09476,6.70361,8.93,-0.29,1.43,3.0
1758078520.24797,1758078520.22435,0.0,0.0,0.0,-5.50039,13.12073,7.50575,8.96,-0.38,1.33,3.0
1758078520.26396,1758078520.23435,0.0,0.0,0.0,-4.46907,12.49048,8.25059,8.96,-0.38,1.33,3.0
1758078520.26614,1758078520.24435,0.0,0.0,0.0,-2.57831,9.05273,8.70896,9.03,-0.47,1.35,3.0
1758078520.28194,1758078520.25435,0.0,0.0,0.0,-1.77617,5.95876,8.0787,9.03,-0.47,1.35,3.0
1758078520.28282,1758078520.26435,0.0,0.0,0.0,-0.97403,3.72423,7.16197,8.94,-0.42,1.24,3.0
1758078520.29879,1758078520.27435,0.0,0.0,0.0,0.0,3.09397,7.10468,8.94,-0.42,1.24,3.0
1758078520.29965,1758078520.28435,0.0,0.0,0.0,1.3178,1.08862,7.16197,9.21,-0.31,1.41,3.0
1758078520.31502,1758078520.29435,0.0,0.0,0.0,2.34913,-1.71887,7.50575,9.0,-0.31,1.41,3.0
1758078520.33087,1758078520.30435,0.0,0.0,0.0,3.55234,-4.81285,8.59437,9.0,-0.31,1.41,3.0
1758078520.33212,1758078520.31435,0.0,0.0,0.0,4.87014,-7.21927,9.68299,9.0,-0.43,1.46,3.0
1758078520.34671,1758078520.32435,0.0,0.0,0.0,6.87549,-8.65166,12.08941,9.0,-0.43,1.46,3.0
1758078520.34813,1758078520.33435,0.0,0.0,0.0,8.88085,-8.70896,13.86558,9.32,-0.52,1.3,3.0
1758078520.36409,1758078520.34435,0.0,0.0,0.0,10.59972,-8.25059,15.29797,9.32,-0.52,1.3,3.0
1758078520.38201,1758078520.35435,0.0,0.0,0.0,11.63104,-7.67763,16.04282,9.42,-0.48,1.22,3.0
1758078520.38289,1758078520.36435,0.0,0.0,0.0,14.61043,-2.34913,15.98552,9.65,-0.41,1.09,3.0
1758078520.39853,1758078520.37435,0.0,0.0,0.0,15.87093,0.68755,15.12609,9.65,-0.41,1.09,3.0
1758078520.40161,1758078520.38435,0.0,0.0,0.0,16.61578,4.46907,13.5218,9.95,-0.48,1.24,3.0
1758078520.41695,1758078520.39435,0.0,0.0,0.0,17.01685,7.50575,10.08406,9.95,-0.48,1.24,3.0
1758078520.41788,1758078520.40435,0.0,0.0,0.0,16.84496,12.89155,9.4538,10.31,-0.54,1.24,3.0
1758078520.4349,1758078520.41435,0.0,0.0,0.0,17.13144,21.25674,8.65166,10.31,-0.54,1.24,3.0
1758078520.45102,1758078520.42435,0.0,0.0,0.0,17.13144,27.96034,8.36518,11.46,-0.37,1.57,3.0
1758078520.45233,1758078520.43435,0.0,0.0,0.0,16.73037,20.11082,6.53172,11.46,-0.37,1.57,3.0
1758078520.46691,1758078520.44435,0.0,0.0,0.0,17.93358,3.32316,13.12073,10.4,-0.14,2.16,3.0
1758078520.4695,1758078520.45435,0.0,0.0,0.0,15.92823,-13.40721,16.55848,10.21,-0.15,2.36,3.0
1758078520.48697,1758078520.46435,0.0,0.0,0.0,14.9542,-18.44924,21.94428,10.21,-0.15,2.36,3.0
1758078520.49194,1758078520.47435,0.0,0.0,0.0,12.37589,-7.33386,28.59059,12.71,0.05,1.97,3.0
1758078520.50866,1758078520.48435,0.0,0.0,0.0,10.65701,3.83882,29.04896,12.71,0.05,1.97,3.0
1758078520.51616,1758078520.49435,0.0,0.0,0.0,8.93814,8.99544,25.7831,12.85,0.11,2.09,3.0
1758078520.53441,1758078520.50435,0.0,0.0,0.0,6.99009,9.11003,21.14215,12.85,0.11,2.09,3.0
1758078520.53694,1758078520.51435,0.0,0.0,0.0,3.89611,14.15206,12.89155,11.57,0.33,2.44,3.0
1758078520.55196,1758078520.52435,0.0,0.0,0.0,1.66158,19.42327,7.33386,12.47,0.38,2.67,3.0
1758078520.557,1758078520.53435,0.0,0.0,0.0,-0.22918,22.91831,1.3751,12.47,0.38,2.67,3.0
1758078520.57206,1758078520.54435,0.0,0.0,0.0,-1.3178,24.35071,-2.63561,12.78,0.04,3.18,3.0
1758078520.57541,1758078520.55435,0.0,0.0,0.0,-1.77617,24.80907,-4.64096,12.78,0.04,3.18,3.0
1758078520.59094,1758078520.56435,0.0,0.0,0.0,-1.60428,23.26209,-4.23989,13.92,-0.75,3.89,3.0
1758078520.59194,1758078520.57435,0.0,0.0,0.0,-1.3751,21.42862,-2.92208,13.92,-0.75,3.89,3.0
1758078520.60677,1758078520.58435,0.0,0.0,0.0,-0.74485,20.34,-1.48969,14.62,-1.28,3.76,3.0
1758078520.608,1758078520.59435,0.0,0.0,0.0,0.51566,18.62113,-0.22918,14.16,-1.16,3.8,3.0
1758078520.62506,1758078520.60435,0.0,0.0,0.0,1.77617,15.98552,0.22918,14.16,-1.16,3.8,3.0
1758078520.65676,1758078520.61435,0.0,0.0,0.0,2.97938,12.49048,0.34377,12.49,-0.85,3.9,3.0
1758078520.66599,1758078520.62435,0.0,0.0,0.0,4.46907,6.70361,0.34377,12.49,-0.85,3.9,3.0
1758078520.69206,1758078520.63435,0.0,0.0,0.0,4.87014,2.40642,-0.22918,10.8,-0.79,3.72,3.0
1758078520.69613,1758078520.64435,0.0,0.0,0.0,5.21392,-1.3751,-0.97403,10.8,-0.79,3.72,3.0
1758078520.69762,1758078520.65435,0.0,0.0,0.0,5.90147,-4.35448,-2.06265,9.37,-0.84,3.43,3.0
1758078520.70356,1758078520.66435,0.0,0.0,0.0,7.21927,-8.76626,-3.32316,9.37,-0.84,3.43,3.0
1758078520.70417,1758078520.67435,0.0,0.0,0.0,8.30789,-12.14671,-4.18259,8.39,-0.86,3.36,3.0
1758078520.70655,1758078520.68435,0.0,0.0,0.0,9.5684,-16.21471,-4.81285,7.58,-0.67,3.34,3.0
1758078520.72208,1758078520.69435,0.0,0.0,0.0,10.37054,-20.45459,-5.32851,7.58,-0.67,3.34,3.0
1758078520.72383,1758078520.70435,0.0,0.0,0.0,10.59972,-28.70519,-6.07335,6.88,-0.27,3.35,3.0
1758078520.73903,1758078520.71435,0.0,0.0,0.0,10.25595,-34.66395,-6.18794,6.88,-0.27,3.35,3.0
1758078520.74158,1758078520.72435,0.0,0.0,0.0,9.33921,-39.87786,-6.41713,6.33,0.06,3.08,3.0
1758078520.75714,1758078520.73435,0.0,0.0,0.0,8.36518,-44.86259,-6.8182,6.33,0.06,3.08,3.0
1758078520.75882,1758078520.74435,0.0,0.0,0.0,7.10468,-51.45161,-7.21927,6.28,0.13,2.67,3.0
1758078520.77714,1758078520.75435,0.0,0.0,0.0,6.07335,-55.06125,-7.21927,6.69,0.11,2.38,3.0
1758078520.77885,1758078520.76435,0.0,0.0,0.0,5.15662,-55.6342,-7.21927,6.69,0.11,2.38,3.0
1758078520.795,1758078520.77435,0.0,0.0,0.0,4.64096,-54.25911,-6.99009,7.68,0.12,2.21,3.0
1758078520.81171,1758078520.78435,0.0,0.0,0.0,4.18259,-50.93595,-6.07335,7.68,0.12,2.21,3.0
1758078520.81476,1758078520.79435,0.0,0.0,0.0,4.18259,-47.61279,-5.61499,8.3,0.07,2.18,3.0
1758078520.86981,1758078520.80435,0.0,0.0,0.0,4.18259,-43.25832,-4.87014,8.3,0.07,2.18,3.0
1758078520.87633,1758078520.81435,0.0,0.0,0.0,3.66693,-37.92981,-4.64096,8.88,0.0,2.19,3.0
1758078520.87696,1758078520.82435,0.0,0.0,0.0,2.97938,-28.93437,-4.81285,9.12,0.09,1.93,3.0
1758078520.87912,1758078520.83435,0.0,0.0,0.0,2.23454,-22.11617,-5.27121,9.12,0.09,1.93,3.0
1758078520.88528,1758078520.84435,0.0,0.0,0.0,0.97403,-15.58445,-6.47442,9.14,0.23,1.81,3.0
1758078520.88653,1758078520.85435,0.0,0.0,0.0,-1.48969,-7.67763,-9.22462,9.14,0.23,1.81,3.0
1758078520.8871,1758078520.86435,0.0,0.0,0.0,-3.26586,-3.38045,-10.8862,8.98,0.38,1.72,3.0
1758078520.88909,1758078520.87435,0.0,0.0,0.0,-4.98473,0.57296,-12.37589,8.98,0.38,1.72,3.0
1758078520.90573,1758078520.88435,0.0,0.0,0.0,-7.04738,4.58366,-13.5791,9.08,0.45,1.72,3.0
1758078520.92196,1758078520.89435,0.0,0.0,0.0,-10.02676,9.28192,-14.83961,9.19,0.45,1.88,3.0
1758078520.92395,1758078520.90435,0.0,0.0,0.0,-11.57375,11.63104,-15.24068,9.19,0.49,1.88,3.0
1758078520.93894,1758078520.91435,0.0,0.0,0.0,-13.17803,13.80828,-15.12609,9.18,0.42,1.8,3.0
1758078520.94202,1758078520.92435,0.0,0.0,0.0,-14.20935,15.35527,-15.0115,9.18,0.42,1.8,3.0
1758078520.95724,1758078520.93435,0.0,0.0,0.0,-15.46986,16.61578,-14.38124,9.12,0.37,1.88,3.0
1758078520.9589,1758078520.94435,0.0,0.0,0.0,-16.272,18.16276,-14.09476,9.12,0.37,1.88,3.0
1758078520.97592,1758078520.95435,0.0,0.0,0.0,-16.95955,18.27736,-14.20935,9.19,0.37,1.89,3.0
1758078520.99195,1758078520.96435,0.0,0.0,0.0,-17.36062,15.98552,-14.38124,9.19,0.37,1.89,3.0
1758078520.99548,1758078520.97435,0.0,0.0,0.0,-17.81899,12.49048,-14.61043,8.97,0.32,1.8,3.0
1758078521.01176,1758078520.98435,0.0,0.0,0.0,-18.27736,10.31324,-14.49583,9.03,0.32,1.76,3.0
1758078521.01632,1758078520.99435,0.0,0.0,0.0,-18.56383,6.58902,-14.72501,9.03,0.32,1.76,3.0
1758078521.03096,1758078521.00435,0.0,0.0,0.0,-18.85031,2.00535,-14.43854,8.8,0.4,1.63,3.0
1758078521.03241,1758078521.01435,0.0,0.0,0.0,-19.48057,-4.29718,-14.15206,8.8,0.4,1.63,3.0
1758078521.047,1758078521.02435,0.0,0.0,0.0,-19.82434,-8.47978,-13.80828,8.77,0.46,1.65,3.0
1758078521.04842,1758078521.03435,0.0,0.0,0.0,-20.22541,-12.49048,-13.34992,8.77,0.46,1.65,3.0
1758078521.06435,1758078521.04435,0.0,0.0,0.0,-21.14215,-17.36062,-13.12073,8.85,0.42,1.66,3.0
1758078521.08198,1758078521.05435,0.0,0.0,0.0,-22.57454,-18.33465,-13.5791,9.18,0.4,1.73,3.0
1758078521.08499,1758078521.06435,0.0,0.0,0.0,-24.23611,-20.22541,-14.78231,9.18,0.4,1.73,3.0
1758078521.09996,1758078521.07435,0.0,0.0,0.0,-25.8404,-21.7151,-16.04282,9.09,0.56,1.39,3.0
1758078521.10111,1758078521.08435,0.0,0.0,0.0,-27.50197,-23.0902,-17.36062,9.09,0.56,1.39,3.0
1758078521.11618,1758078521.09435,0.0,0.0,0.0,-27.78845,-23.0329,-17.53251,9.21,0.69,1.24,3.0
1758078521.13198,1758078521.10435,0.0,0.0,0.0,-27.33009,-22.74642,-17.13144,9.21,0.69,1.24,3.0
1758078521.13483,1758078521.11435,0.0,0.0,0.0,-26.52795,-22.34536,-16.04282,9.35,0.54,1.08,3.0
1758078521.15025,1758078521.12435,0.0,0.0,0.0,-24.86637,-21.31403,-13.80828,9.52,0.25,1.07,3.0
1758078521.15625,1758078521.13435,0.0,0.0,0.0,-23.89234,-20.11082,-12.2613,9.52,0.25,1.07,3.0
1758078521.17097,1758078521.14435,0.0,0.0,0.0,-23.26209,-16.73037,-10.8289,9.89,0.05,0.96,3.0
1758078521.17215,1758078521.15435,0.0,0.0,0.0,-22.51724,-11.91752,-9.33921,9.89,0.05,0.96,3.0
1758078521.18701,1758078521.16435,0.0,0.0,0.0,-22.05888,-4.81285,-7.44845,10.14,0.09,0.92,3.0
1758078521.18899,1758078521.17435,0.0,0.0,0.0,-22.11617,-0.74485,-6.58902,10.14,0.09,0.92,3.0
1758078521.20609,1758078521.18435,0.0,0.0,0.0,-22.57454,2.7502,-5.95876,9.99,0.28,0.98,3.0
1758078521.22228,1758078521.19435,0.0,0.0,0.0,-23.26209,6.18794,-5.61499,9.99,0.28,0.98,3.0
1758078521.22641,1758078521.20435,0.0,0.0,0.0,-24.80907,10.48513,-5.50039,9.84,0.48,0.88,3.0
1758078521.24206,1758078521.21435,0.0,0.0,0.0,-25.7831,11.86023,-5.15662,9.64,0.66,0.73,3.0
1758078521.24639,1758078521.22435,0.0,0.0,0.0,-26.69983,13.75099,-4.87014,9.64,0.66,0.73,3.0
1758078521.26205,1758078521.23435,0.0,0.0,0.0,-28.13223,17.6471,-3.95341,9.85,0.73,0.62,3.0
1758078521.26636,1758078521.24435,0.0,0.0,0.0,-28.87707,23.37668,-3.32316,9.85,0.73,0.62,3.0
1758078521.28283,1758078521.25435,0.0,0.0,0.0,-29.50733,24.35071,-2.63561,9.94,0.67,0.74,3.0
1758078521.28405,1758078521.26435,0.0,0.0,0.0,-30.02299,24.63719,-2.11994,9.94,0.67,0.74,3.0
1758078521.30231,1758078521.27435,0.0,0.0,0.0,-30.82513,25.09555,-1.14592,9.77,0.54,0.83,3.0
1758078521.30609,1758078521.28435,0.0,0.0,0.0,-32.25753,24.12152,-1.3178,9.77,0.49,0.88,3.0
1758078521.32132,1758078521.29435,0.0,0.0,0.0,-34.32018,21.14215,-1.77617,9.77,0.49,0.88,3.0
1758078521.32224,1758078521.30435,0.0,0.0,0.0,-36.6693,15.64175,-1.43239,9.41,0.74,0.83,3.0
1758078521.33732,1758078521.31435,0.0,0.0,0.0,-43.37291,12.49048,-5.95876,9.41,0.74,0.83,3.0
1758078521.34174,1758078521.32435,0.0,0.0,0.0,-47.72739,8.93814,-8.65166,9.22,1.35,0.9,3.0
1758078521.35737,1758078521.33435,0.0,0.0,0.0,-51.6235,3.03668,-11.11538,9.22,1.35,0.9,3.0
1758078521.35909,1758078521.34435,0.0,0.0,0.0,-55.86338,-2.34913,-14.78231,8.65,1.95,0.65,3.0
1758078521.37608,1758078521.35435,0.0,0.0,0.0,-59.53032,-17.99088,-17.36062,8.24,2.11,0.24,3.0
1758078521.39222,1758078521.36435,0.0,0.0,0.0,-60.61894,-33.80451,-16.95955,8.24,2.11,0.24,3.0
1758078521.39606,1758078521.37435,0.0,0.0,0.0,-60.96271,-47.15443,-16.61578,7.91,1.52,-0.21,3.0
1758078521.41108,1758078521.38435,0.0,0.0,0.0,-61.07731,-58.49899,-15.64175,7.91,1.52,-0.21,3.0
1758078521.41231,1758078521.39435,0.0,0.0,0.0,-60.16057,-64.28587,-13.40721,9.03,0.91,-0.73,3.0
1758078521.43196,1758078521.40435,0.0,0.0,0.0,-59.81679,-54.08722,-9.96947,9.03,0.91,-0.73,3.0
1758078521.43497,1758078521.41435,0.0,0.0,0.0,-60.10328,-23.37668,-9.91217,11.75,0.56,0.05,3.0
1758078521.45033,1758078521.42435,0.0,0.0,0.0,-58.49899,-9.4538,-6.87549,11.75,0.56,0.05,3.0
1758078521.45453,1758078521.43435,0.0,0.0,0.0,-61.76485,-19.42327,-7.50575,11.57,0.51,0.76,3.0
1758078521.47036,1758078521.44435,0.0,0.0,0.0,-63.31184,-21.7724,-8.136,9.74,0.82,1.4,3.0
1758078521.47564,1758078521.45435,0.0,0.0,0.0,-65.83286,-21.6578,-9.91217,9.74,0.82,1.4,3.0
1758078521.49015,1758078521.46435,0.0,0.0,0.0,-67.89551,-15.41257,-10.8862,10.89,0.75,-0.09,3.0
1758078521.49163,1758078521.47435,0.0,0.0,0.0,-67.15066,-11.57375,-11.28727,10.89,0.75,-0.09,3.0
1758078521.50637,1758078521.48435,0.0,0.0,0.0,-65.14531,-8.88085,-11.45916,11.5,0.23,0.74,3.0
1758078521.52241,1758078521.49435,0.0,0.0,0.0,-61.65026,-8.42248,-11.86023,11.5,0.23,0.74,3.0
1758078521.52377,1758078521.50435,0.0,0.0,0.0,-54.77477,-9.11003,-13.86558,11.98,-0.66,2.0,3.0
1758078521.53824,1758078521.51435,0.0,0.0,0.0,-49.79003,-6.70361,-16.50119,12.93,-1.34,2.09,3.0
1758078521.53938,1758078521.52435,0.0,0.0,0.0,-44.63341,-1.3178,-18.90761,12.93,-1.34,2.09,3.0
1758078521.55443,1758078521.53435,0.0,0.0,0.0,-39.99245,3.55234,-20.22541,12.89,-0.84,1.78,3.0
1758078521.59739,1758078521.54435,0.0,0.0,0.0,-34.0337,4.52637,-18.79302,12.89,-0.84,1.78,3.0
1758078521.60308,1758078521.55435,0.0,0.0,0.0,-30.99702,2.97938,-16.04282,10.53,0.58,1.52,3.0
1758078521.60854,1758078521.56435,0.0,0.0,0.0,-29.50733,-0.40107,-12.71966,10.53,0.58,1.52,3.0
1758078521.60972,1758078521.57435,0.0,0.0,0.0,-29.39274,-4.98473,-8.93814,8.81,1.24,0.69,3.0
1758078521.61035,1758078521.58435,0.0,0.0,0.0,-32.08564,-10.48513,-4.92744,8.48,1.01,0.41,3.0
1758078521.61277,1758078521.59435,0.0,0.0,0.0,-35.12231,-14.83961,-3.26586,8.48,1.01,0.41,3.0
1758078521.63028,1758078521.60435,0.0,0.0,0.0,-38.78925,-20.22541,-2.7502,8.62,0.35,1.02,3.0
1758078521.63282,1758078521.61435,0.0,0.0,0.0,-42.57077,-24.92367,-2.97938,8.62,0.35,1.02,3.0
1758078521.65024,1758078521.62435,0.0,0.0,0.0,-47.15443,-28.36141,-4.69825,9.19,-0.25,1.45,3.0
1758078521.65278,1758078521.63435,0.0,0.0,0.0,-48.35764,-30.13758,-5.90147,9.19,-0.25,1.45,3.0
1758078521.67032,1758078521.64435,0.0,0.0,0.0,-48.30034,-31.91375,-7.10468,9.68,-0.64,1.72,3.0
1758078521.67452,1758078521.65435,0.0,0.0,0.0,-46.1231,-33.80451,-8.30789,9.68,-0.64,1.72,3.0
1758078521.69024,1758078521.66435,0.0,0.0,0.0,-44.17505,-35.52338,-8.36518,9.6,-0.7,1.84,3.0
1758078521.69284,1758078521.67435,0.0,0.0,0.0,-41.88322,-34.60666,-7.84952,9.5,-0.56,1.56,3.0
1758078521.71005,1758078521.68435,0.0,0.0,0.0,-39.82057,-32.71589,-7.10468,9.5,-0.56,1.56,3.0
1758078521.71124,1758078521.69435,0.0,0.0,0.0,-37.18496,-28.476,-5.4431,9.66,-0.44,1.61,3.0
1758078521.72656,1758078521.70435,0.0,0.0,0.0,-35.92446,-25.61122,-4.23989,9.66,-0.44,1.61,3.0
1758078521.74228,1758078521.71435,0.0,0.0,0.0,-34.72124,-22.63183,-2.86479,9.71,-0.49,1.6,3.0
1758078521.74426,1758078521.72435,0.0,0.0,0.0,-33.63263,-19.70975,-1.71887,9.71,-0.49,1.6,3.0
1758078521.75931,1758078521.73435,0.0,0.0,0.0,-32.14294,-14.43854,-0.51566,9.6,-0.71,1.31,3.0
1758078521.76124,1758078521.74435,0.0,0.0,0.0,-30.76784,-9.62569,0.0573,9.62,-1.01,0.88,3.0
1758078521.77664,1758078521.75435,0.0,0.0,0.0,-29.56462,-3.66693,0.17189,9.62,-1.01,0.88,3.0
1758078521.79232,1758078521.76435,0.0,0.0,0.0,-28.36141,2.57831,-0.0573,9.83,-1.17,0.76,3.0
1758078521.79589,1758078521.77435,0.0,0.0,0.0,-26.35606,12.2613,-0.51566,9.83,-1.17,0.76,3.0
1758078521.8116,1758078521.78435,0.0,0.0,0.0,-24.80907,16.50119,-0.57296,10.09,-1.07,0.9,3.0
1758078521.81251,1758078521.79435,0.0,0.0,0.0,-23.37668,18.62113,-0.68755,10.09,-1.07,0.9,3.0
1758078521.82834,1758078521.80435,0.0,0.0,0.0,-22.57454,19.82434,-0.80214,10.16,-0.71,0.76,3.0
1758078521.83167,1758078521.81435,0.0,0.0,0.0,-21.42862,20.45459,-0.45837,10.38,-0.35,0.56,3.0
1758078521.84838,1758078521.82435,0.0,0.0,0.0,-20.79837,20.05352,-0.17189,10.38,-0.35,0.56,3.0
1758078521.84932,1758078521.83435,0.0,0.0,0.0,-20.11082,19.70975,0.45837,10.43,-0.22,0.53,3.0
1758078521.86613,1758078521.84435,0.0,0.0,0.0,-18.9649,19.36597,1.43239,10.43,-0.22,0.53,3.0
1758078521.88157,1758078521.85435,0.0,0.0,0.0,-17.53251,16.10011,2.29183,10.18,-0.34,0.69,3.0
1758078521.88253,1758078521.86435,0.0,0.0,0.0,-16.50119,13.69369,2.86479,10.18,-0.34,0.69,3.0
1758078521.90163,1758078521.87435,0.0,0.0,0.0,-15.69904,13.40721,3.26586,9.91,-0.42,0.68,3.0
1758078521.90253,1758078521.88435,0.0,0.0,0.0,-14.83961,11.74564,3.95341,9.91,-0.42,0.68,3.0
1758078521.91958,1758078521.89435,0.0,0.0,0.0,-14.32395,9.5684,4.46907,9.9,-0.37,0.74,3.0
1758078521.92128,1758078521.90435,0.0,0.0,0.0,-13.80828,8.59437,4.87014,9.67,-0.31,0.8,3.0
1758078521.9366,1758078521.91435,0.0,0.0,0.0,-13.69369,8.42248,4.92744,9.67,-0.31,0.8,3.0
1758078521.95264,1758078521.92435,0.0,0.0,0.0,-13.75099,9.28192,4.69825,9.66,-0.28,0.69,3.0
1758078521.95518,1758078521.93435,0.0,0.0,0.0,-13.86558,10.48513,4.64096,9.66,-0.28,0.69,3.0
1758078521.97065,1758078521.94435,0.0,0.0,0.0,-14.20935,11.51645,4.23989,9.62,-0.25,0.76,3.0
1758078521.9719,1758078521.95435,0.0,0.0,0.0,-14.66772,11.51645,3.66693,9.62,-0.25,0.76,3.0
1758078521.98666,1758078521.96435,0.0,0.0,0.0,-15.58445,9.85487,2.29183,9.54,-0.19,0.87,3.0
1758078522.0144,1758078521.97435,0.0,0.0,0.0,-15.92823,9.74028,1.14592,9.67,-0.13,0.81,3.0
1758078522.01693,1758078521.98435,0.0,0.0,0.0,-16.38659,9.39651,0.0,9.67,-0.13,0.81,3.0
1758078522.0195,1758078521.99435,0.0,0.0,0.0,-16.3293,8.76626,-0.85944,9.65,-0.15,0.75,3.0
1758078522.02193,1758078522.00435,0.0,0.0,0.0,-15.58445,8.0787,-1.48969,9.65,-0.15,0.75,3.0
1758078522.03845,1758078522.01435,0.0,0.0,0.0,-14.78231,7.79223,-1.71887,9.61,-0.31,0.69,3.0
1758078522.06203,1758078522.02435,0.0,0.0,0.0,-13.5791,9.33921,-1.66158,9.61,-0.31,0.69,3.0
1758078522.06376,1758078522.03435,0.0,0.0,0.0,-12.49048,12.49048,-1.3751,9.84,-0.54,0.49,3.0
1758078522.06635,1758078522.04435,0.0,0.0,0.0,-11.17268,17.30333,-1.3751,10.02,-0.63,0.46,3.0
1758078522.0814,1758078522.05435,0.0,0.0,0.0,-10.48513,20.45459,-1.60428,10.02,-0.63,0.46,3.0
1758078522.08617,1758078522.06435,0.0,0.0,0.0,-9.91217,24.63719,-1.77617,10.06,-0.56,0.51,3.0
1758078522.10133,1758078522.07435,0.0,0.0,0.0,-9.22462,28.41871,-2.40642,10.06,-0.56,0.51,3.0
1758078522.10458,1758078522.08435,0.0,0.0,0.0,-8.93814,31.11161,-3.09397,9.98,-0.43,0.52,3.0
1758078522.11972,1758078522.09435,0.0,0.0,0.0,-8.65166,29.73651,-3.66693,9.98,-0.43,0.52,3.0
1758078522.12135,1758078522.10435,0.0,0.0,0.0,-8.136,26.41335,-4.18259,9.54,-0.29,0.66,3.0
1758078522.13677,1758078522.11435,0.0,0.0,0.0,-6.18794,19.70975,-4.1253,9.54,-0.29,0.66,3.0
1758078522.15303,1758078522.12435,0.0,0.0,0.0,-4.1253,14.9542,-3.26586,9.35,-0.26,0.6,3.0
1758078522.15446,1758078522.13435,0.0,0.0,0.0,-1.77617,10.54242,-2.00535,9.25,-0.42,0.37,3.0
1758078522.17126,1758078522.14435,0.0,0.0,0.0,1.08862,7.96411,-0.80214,9.25,-0.42,0.37,3.0
1758078522.17293,1758078522.15435,0.0,0.0,0.0,3.32316,-2.06265,0.51566,9.05,-0.58,0.21,3.0
1758078522.18874,1758078522.16435,0.0,0.0,0.0,3.49504,-8.30789,-0.51566,9.05,-0.58,0.21,3.0
1758078522.18995,1758078522.17435,0.0,0.0,0.0,4.23989,-9.22462,-0.45837,8.89,-0.56,0.62,3.0
1758078522.20634,1758078522.18435,0.0,0.0,0.0,4.29718,-0.85944,-1.66158,8.89,-0.56,0.62,3.0
1758078522.22174,1758078522.19435,0.0,0.0,0.0,3.49504,9.85487,-3.66693,10.36,-0.32,0.6,3.0
1758078522.22339,1758078522.20435,0.0,0.0,0.0,4.81285,11.00079,-5.50039,9.69,-0.11,1.22,3.0
1758078522.23874,1758078522.21435,0.0,0.0,0.0,3.89611,-12.14671,-9.33921,9.69,-0.11,1.22,3.0
1758078522.24048,1758078522.22435,0.0,0.0,0.0,11.45916,-39.53409,-5.84417,6.55,-0.15,0.46,3.0
1758078522.25547,1758078522.23435,0.0,0.0,0.0,13.80828,-43.20102,-0.80214,6.55,-0.15,0.46,3.0
1758078522.27487,1758078522.24435,0.0,0.0,0.0,11.80293,-28.36141,-2.86479,10.49,-0.18,-0.6,3.0
1758078522.27608,1758078522.25435,0.0,0.0,0.0,13.86558,-17.99088,0.0,10.49,-0.18,-0.6,3.0
1758078522.29149,1758078522.26435,0.0,0.0,0.0,15.12609,-11.57375,0.57296,11.31,-0.4,-0.81,3.0
1758078522.29515,1758078522.27435,0.0,0.0,0.0,15.98552,-3.60963,0.0573,11.69,-0.54,1.36,3.0
1758078522.31079,1758078522.28435,0.0,0.0,0.0,14.83961,1.60428,-1.14592,11.69,-0.54,1.36,3.0
1758078522.31247,1758078522.29435,0.0,0.0,0.0,12.43318,4.87014,-2.23454,13.13,0.04,1.62,3.0
1758078522.32752,1758078522.30435,0.0,0.0,0.0,6.47442,0.68755,-1.3178,13.13,0.04,1.62,3.0
1758078522.3298,1758078522.31435,0.0,0.0,0.0,1.20321,-5.21392,0.74485,14.17,1.38,3.39,3.0
1758078522.34663,1758078522.32435,0.0,0.0,0.0,-4.52637,-13.17803,3.49504,14.17,1.38,3.39,3.0
1758078522.36367,1758078522.33435,0.0,0.0,0.0,-9.62569,-16.50119,7.79223,13.33,2.18,2.6,3.0
1758078522.36451,1758078522.34435,0.0,0.0,0.0,-16.90226,-9.11003,9.91217,13.33,2.18,1.47,3.0
1758078522.38061,1758078522.35435,0.0,0.0,0.0,-20.11082,-3.20856,8.36518,11.92,1.17,1.47,3.0
1758078522.38154,1758078522.36435,0.0,0.0,0.0,-21.48592,0.85944,6.35983,9.83,-0.21,1.11,3.0
1758078522.39656,1758078522.37435,0.0,0.0,0.0,-21.88699,3.66693,3.49504,9.83,-0.21,1.11,3.0
1758078522.3993,1758078522.38435,0.0,0.0,0.0,-19.99623,2.29183,-0.85944,8.91,-0.75,1.28,3.0
1758078522.41582,1758078522.39435,0.0,0.0,0.0,-17.47521,-1.60428,-3.32316,8.91,-0.75,1.28,3.0
1758078522.43604,1758078522.40435,0.0,0.0,0.0,-14.66772,-4.69825,-4.81285,8.85,-0.47,1.38,3.0
1758078522.43695,1758078522.41435,0.0,0.0,0.0,-11.91752,-6.47442,-4.98473,8.85,-0.47,1.38,3.0
1758078522.44187,1758078522.42435,0.0,0.0,0.0,-10.02676,-8.25059,-4.0107,9.75,0.14,2.06,3.0
1758078522.45782,1758078522.43435,0.0,0.0,0.0,-9.91217,-9.62569,-2.7502,10.02,0.5,2.69,3.0
1758078522.46064,1758078522.44435,0.0,0.0,0.0,-10.19865,-11.86023,-1.3178,10.02,0.5,2.69,3.0
1758078522.47672,1758078522.45435,0.0,0.0,0.0,-9.96947,-14.61043,-0.22918,9.24,0.39,2.63,3.0
1758078522.48125,1758078522.46435,0.0,0.0,0.0,-9.28192,-17.58981,0.51566,9.24,0.39,2.63,3.0
1758078522.61464,1758078522.47435,0.0,0.0,0.0,-8.59437,-18.73572,0.51566,8.53,0.2,2.22,3.0
1758078522.61628,1758078522.48435,0.0,0.0,0.0,-8.02141,-19.82434,0.51566,8.53,0.2,2.22,3.0
1758078522.61693,1758078522.49435,0.0,0.0,0.0,-7.44845,-20.74107,0.0573,8.4,0.15,2.31,3.0
1758078522.61976,1758078522.50435,0.0,0.0,0.0,-7.44845,-21.25674,-0.17189,8.6,0.23,2.43,3.0
1758078522.62039,1758078522.51435,0.0,0.0,0.0,-7.50575,-20.45459,-0.57296,8.6,0.23,2.43,3.0
1758078522.62163,1758078522.52435,0.0,0.0,0.0,-7.79223,-18.73572,-1.03132,9.13,0.39,2.26,3.0
1758078522.62226,1758078522.53435,0.0,0.0,0.0,-8.42248,-14.49583,-1.66158,9.13,0.39,2.26,3.0
1758078522.62303,1758078522.54435,0.0,0.0,0.0,-8.99544,-11.51645,-1.60428,9.74,0.6,2.09,3.0
1758078522.62575,1758078522.55435,0.0,0.0,0.0,-9.68299,-7.79223,-1.77617,9.74,0.6,2.09,3.0
1758078522.62652,1758078522.56435,0.0,0.0,0.0,-10.31324,-3.55234,-1.94806,10.27,0.71,1.88,3.0
1758078522.62841,1758078522.57435,0.0,0.0,0.0,-10.65701,2.23454,-2.63561,10.62,0.71,1.76,3.0
1758078522.62918,1758078522.58435,0.0,0.0,0.0,-10.31324,5.27121,-2.92208,10.62,0.54,1.76,3.0
1758078522.63164,1758078522.59435,0.0,0.0,0.0,-10.25595,8.99544,-3.32316,10.74,0.41,1.7,3.0
1758078522.63202,1758078522.60435,0.0,0.0,0.0,-10.02676,12.43318,-3.83882,10.74,0.41,1.7,3.0
1758078522.63652,1758078522.61435,0.0,0.0,0.0,-9.62569,15.06879,-3.66693,10.48,0.48,1.74,3.0
1758078522.65189,1758078522.62435,0.0,0.0,0.0,-9.39651,16.73037,-3.09397,10.48,0.48,1.74,3.0
1758078522.65311,1758078522.63435,0.0,0.0,0.0,-9.4538,19.13679,-2.46372,10.08,0.54,1.62,3.0
1758078522.67029,1758078522.64435,0.0,0.0,0.0,-9.91217,22.28806,-1.71887,10.08,0.54,1.62,3.0
1758078522.6713,1758078522.65435,0.0,0.0,0.0,-11.17268,24.63719,-1.14592,9.97,0.57,1.58,3.0
1758078522.68673,1758078522.66435,0.0,0.0,0.0,-12.204,24.80907,-1.03132,9.64,0.65,1.58,3.0
1758078522.68859,1758078522.67435,0.0,0.0,0.0,-13.17803,24.4653,-0.80214,9.64,0.65,1.58,3.0
1758078522.70655,1758078522.68435,0.0,0.0,0.0,-14.32395,23.0329,-0.22918,9.61,0.76,1.58,3.0
1758078522.7219,1758078522.69435,0.0,0.0,0.0,-16.67307,21.94428,-0.68755,9.61,0.76,1.58,3.0
1758078522.72482,1758078522.70435,0.0,0.0,0.0,-18.90761,21.31403,-1.3751,9.84,0.91,1.61,3.0
1758078522.74072,1758078522.71435,0.0,0.0,0.0,-21.42862,18.33465,-2.57831,9.84,0.91,1.61,3.0
1758078522.74198,1758078522.72435,0.0,0.0,0.0,-25.55392,12.43318,-4.52637,9.45,1.1,1.55,3.0
1758078522.75695,1758078522.73435,0.0,0.0,0.0,-28.36141,10.8862,-6.13065,9.26,1.31,1.34,3.0
1758078522.75952,1758078522.74435,0.0,0.0,0.0,-30.99702,8.76626,-7.73493,9.26,1.31,1.34,3.0
1758078522.77566,1758078522.75435,0.0,0.0,0.0,-33.00237,5.21392,-8.70896,8.96,1.34,1.18,3.0
1758078522.79193,1758078522.76435,0.0,0.0,0.0,-34.72124,-0.68755,-9.05273,8.96,1.34,1.18,3.0
1758078522.79714,1758078522.77435,0.0,0.0,0.0,-35.2942,-4.29718,-8.88085,8.85,1.1,1.06,3.0
1758078522.83846,1758078522.78435,0.0,0.0,0.0,-35.52338,-7.79223,-8.25059,8.85,1.1,1.06,3.0
1758078522.84178,1758078522.79435,0.0,0.0,0.0,-35.52338,-11.91752,-7.33386,8.96,0.76,0.99,3.0
1758078522.84236,1758078522.80435,0.0,0.0,0.0,-35.58068,-11.51645,-6.18794,9.32,0.51,0.9,3.0
1758078522.84439,1758078522.81435,0.0,0.0,0.0,-35.3515,-8.65166,-5.32851,9.32,0.51,0.9,3.0
1758078522.84584,1758078522.82435,0.0,0.0,0.0,-34.72124,-5.21392,-4.58366,9.62,0.35,0.93,3.0
1758078522.86197,1758078522.83435,0.0,0.0,0.0,-34.37747,-1.94806,-3.72423,9.62,0.35,0.93,3.0
1758078522.86299,1758078522.84435,0.0,0.0,0.0,-34.14828,4.0107,-2.63561,9.66,0.27,0.95,3.0
1758078522.87881,1758078522.85435,0.0,0.0,0.0,-34.32018,8.59437,-2.06265,9.66,0.27,0.95,3.0
1758078522.88082,1758078522.86435,0.0,0.0,0.0,-34.77854,12.43318,-1.48969,9.8,0.31,0.79,3.0
1758078522.896,1758078522.87435,0.0,0.0,0.0,-35.69527,15.12609,-1.3178,9.8,0.31,0.79,3.0
1758078522.91174,1758078522.88435,0.0,0.0,0.0,-37.58603,17.18874,-0.80214,9.85,0.51,0.72,3.0
1758078522.91455,1758078522.89435,0.0,0.0,0.0,-39.19032,18.56383,-0.68755,9.98,0.81,0.67,3.0
1758078522.93003,1758078522.90435,0.0,0.0,0.0,-40.85189,18.44924,-0.68755,9.98,0.81,0.67,3.0
1758078522.93175,1758078522.91435,0.0,0.0,0.0,-43.37291,16.73037,-1.14592,9.77,1.08,0.64,3.0
1758078522.94696,1758078522.92435,0.0,0.0,0.0,-45.03448,8.42248,-1.14592,9.77,1.08,0.64,3.0
1758078522.96384,1758078522.93435,0.0,0.0,0.0,-47.61279,4.23989,-1.83346,9.33,1.26,0.56,3.0
1758078522.96716,1758078522.94435,0.0,0.0,0.0,-50.363,-1.71887,-2.46372,9.33,1.26,0.56,3.0
1758078522.98272,1758078522.95435,0.0,0.0,0.0,-56.32175,-10.65701,-4.0107,9.27,1.4,0.56,3.0
1758078522.98397,1758078522.96435,0.0,0.0,0.0,-60.90542,-15.92823,-5.72958,9.24,1.56,0.43,3.0
1758078523.00202,1758078522.97435,0.0,0.0,0.0,-65.37449,-20.68378,-7.39116,9.24,1.56,0.43,3.0
1758078523.00691,1758078522.98435,0.0,0.0,0.0,-70.24463,-24.4653,-9.85487,9.22,1.71,0.07,3.0
1758078523.01185,1758078522.99435,0.0,0.0,0.0,-76.0315,-33.46074,-13.23533,9.22,1.71,0.07,3.0
1758078523.03126,1758078523.00435,0.0,0.0,0.0,-78.66711,-43.02913,-14.15206,8.76,1.78,-0.41,3.0
1758078523.03242,1758078523.01435,0.0,0.0,0.0,-80.78706,-49.04519,-13.5218,8.76,1.78,-0.41,3.0
1758078523.05092,1758078523.02435,0.0,0.0,0.0,-81.99026,-52.02457,-11.86023,8.79,1.4,-0.84,3.0
1758078523.05559,1758078523.03435,0.0,0.0,0.0,-82.50593,-49.33167,-9.22462,9.76,0.78,-0.8,3.0
1758078523.07193,1758078523.04435,0.0,0.0,0.0,-82.04756,-43.88857,-6.18794,9.76,0.78,-0.8,3.0
1758078523.07522,1758078523.05435,0.0,0.0,0.0,-81.01624,-33.40344,-3.26586,11.49,0.12,0.45,3.0
1758078523.0908,1758078523.06435,0.0,0.0,0.0,-78.15145,-12.204,-1.3751,11.49,0.12,0.45,3.0
1758078523.09202,1758078523.07435,0.0,0.0,0.0,-75.91692,-5.55769,-1.94806,13.66,-0.77,1.82,3.0
1758078523.1068,1758078523.08435,0.0,0.0,0.0,-73.2813,-15.64175,-4.81285,13.66,-0.77,1.82,3.0
1758078523.11038,1758078523.09435,0.0,0.0,0.0,-69.78626,-32.20023,-9.33921,12.17,-1.34,3.1,3.0
1758078523.23578,1758078523.10435,0.0,0.0,0.0,-66.29122,-48.9306,-19.82434,12.17,-1.34,3.1,3.0
1758078523.23699,1758078523.11435,0.0,0.0,0.0,-59.75951,-46.00851,-24.80907,12.47,-1.55,2.11,3.0
1758078523.24105,1758078523.12435,0.0,0.0,0.0,-54.71747,-29.96569,-26.18417,14.43,-1.09,1.16,3.0
1758078523.24203,1758078523.13435,0.0,0.0,0.0,-49.50356,-16.04282,-23.49127,14.43,-1.09,1.16,3.0
1758078523.24344,1758078523.14435,0.0,0.0,0.0,-43.37291,-6.41713,-14.03747,11.95,0.01,1.57,3.0
1758078523.24967,1758078523.15435,0.0,0.0,0.0,-41.25296,-4.58366,-6.35983,11.95,0.01,1.57,3.0
1758078523.29843,1758078523.16435,0.0,0.0,0.0,-41.08107,-4.92744,0.45837,9.57,0.36,0.88,3.0
1758078523.29888,1758078523.17435,0.0,0.0,0.0,-42.68536,-5.4431,5.72958,9.57,0.36,0.88,3.0
1758078523.30671,1758078523.18435,0.0,0.0,0.0,-47.38361,-5.61499,8.47978,8.77,0.04,0.39,3.0
1758078523.30994,1758078523.19435,0.0,0.0,0.0,-52.19646,-6.70361,6.24524,9.41,-0.25,1.41,3.0
1758078523.31493,1758078523.20435,0.0,0.0,0.0,-56.83742,-6.87549,1.71887,9.41,-0.25,1.41,3.0
1758078523.31537,1758078523.21435,0.0,0.0,0.0,-60.50434,-4.98473,-3.89611,10.74,-0.19,1.89,3.0
1758078523.31693,1758078523.22435,0.0,0.0,0.0,-64.22858,-0.97403,-12.08941,10.74,-0.19,1.89,3.0
1758078523.31807,1758078523.23435,0.0,0.0,0.0,-65.2026,1.94806,-16.04282,10.83,0.11,1.38,3.0
1758078523.32089,1758078523.24435,0.0,0.0,0.0,-65.08801,3.60963,-18.73572,10.83,0.11,1.38,3.0
1758078523.32143,1758078523.25435,0.0,0.0,0.0,-63.59832,4.46907,-19.19409,9.97,0.16,1.19,3.0
1758078523.32345,1758078523.26435,0.0,0.0,0.0,-59.41573,3.66693,-17.01685,9.2,-0.41,1.06,3.0
1758078523.32647,1758078523.27435,0.0,0.0,0.0,-55.51962,2.46372,-14.38124,9.2,-0.41,1.06,3.0
1758078523.3317,1758078523.28435,0.0,0.0,0.0,-51.10783,0.57296,-11.11538,8.87,-1.54,1.37,3.0
1758078523.33632,1758078523.29435,0.0,0.0,0.0,-46.2377,0.40107,-7.73493,8.87,-1.54,1.37,3.0
1758078523.33758,1758078523.30435,0.0,0.0,0.0,-39.82057,0.74485,-2.63561,9.02,-2.38,1.6,3.0
1758078523.33816,1758078523.31435,0.0,0.0,0.0,-36.6693,-0.51566,0.22918,9.02,-2.38,1.6,3.0
1758078523.33946,1758078523.32435,0.0,0.0,0.0,-34.77854,-1.48969,1.94806,8.89,-2.4,1.8,3.0
1758078523.35894,1758078523.33435,0.0,0.0,0.0,-33.51803,-2.11994,3.03668,8.89,-2.4,1.8,3.0
1758078523.36422,1758078523.34435,0.0,0.0,0.0,-33.34615,-0.97403,2.7502,9.38,-1.93,1.85,3.0
1758078523.37896,1758078523.35435,0.0,0.0,0.0,-33.11696,0.74485,2.29183,10.22,-1.32,1.76,3.0
1758078523.38089,1758078523.36435,0.0,0.0,0.0,-32.54401,2.11994,1.71887,10.22,-1.32,1.76,3.0
1758078523.39621,1758078523.37435,0.0,0.0,0.0,-31.16891,5.21392,1.3178,10.22,-0.8,1.57,3.0
1758078523.4122,1758078523.38435,0.0,0.0,0.0,-29.73651,6.47442,1.48969,10.22,-0.8,1.57,3.0
1758078523.41396,1758078523.39435,0.0,0.0,0.0,-28.41871,6.41713,1.71887,9.78,-0.72,1.38,3.0
1758078523.43097,1758078523.40435,0.0,0.0,0.0,-27.50197,6.58902,2.06265,9.78,-0.72,1.38,3.0
1758078523.43271,1758078523.41435,0.0,0.0,0.0,-27.10091,8.59437,2.97938,9.67,-0.92,1.35,3.0
1758078523.447,1758078523.42435,0.0,0.0,0.0,-27.50197,8.02141,3.38045,10.05,-0.93,1.5,3.0
1758078523.44897,1758078523.43435,0.0,0.0,0.0,-28.41871,7.79223,3.09397,10.05,-0.93,1.5,3.0
1758078523.46601,1758078523.44435,0.0,0.0,0.0,-29.27814,8.0787,2.6929,10.25,-0.75,1.42,3.0
1758078523.48226,1758078523.45435,0.0,0.0,0.0,-29.27814,7.79223,2.57831,10.25,-0.75,1.42,3.0
1758078523.48395,1758078523.46435,0.0,0.0,0.0,-28.476,7.10468,2.97938,10.05,-0.69,1.2,3.0
1758078523.499,1758078523.47435,0.0,0.0,0.0,-27.33009,6.99009,3.66693,10.05,-0.69,1.2,3.0
1758078523.50021,1758078523.48435,0.0,0.0,0.0,-25.7831,7.16197,4.52637,9.79,-0.87,1.01,3.0
1758078523.51498,1758078523.49435,0.0,0.0,0.0,-23.72045,7.84952,5.50039,9.8,-1.06,0.94,3.0
1758078523.53105,1758078523.50435,0.0,0.0,0.0,-22.57454,8.70896,5.72958,9.8,-1.06,0.94,3.0
1758078523.65476,1758078523.51435,0.0,0.0,0.0,-21.48592,8.76626,5.84417,9.86,-1.07,1.04,3.0
1758078523.65725,1758078523.52435,0.0,0.0,0.0,-20.97026,7.84952,5.95876,9.86,-1.07,1.04,3.0
1758078523.65843,1758078523.53435,0.0,0.0,0.0,-20.68378,8.02141,5.55769,9.86,-0.89,1.02,3.0
1758078523.65963,1758078523.54435,0.0,0.0,0.0,-20.62648,8.99544,5.21392,9.86,-0.89,1.02,3.0
1758078523.66971,1758078523.55435,0.0,0.0,0.0,-20.79837,9.4538,4.87014,10.1,-0.62,1.01,3.0
1758078523.67021,1758078523.56435,0.0,0.0,0.0,-20.3973,11.17268,3.95341,10.1,-0.62,1.01,3.0
1758078523.69953,1758078523.57435,0.0,0.0,0.0,-19.53786,13.23533,3.49504,9.98,-0.5,0.97,3.0
1758078523.69992,1758078523.58435,0.0,0.0,0.0,-18.27736,13.75099,3.20856,9.93,-0.62,0.94,3.0
1758078523.70234,1758078523.59435,0.0,0.0,0.0,-16.61578,13.12073,3.20856,9.93,-0.62,0.94,3.0
1758078523.70598,1758078523.60435,0.0,0.0,0.0,-13.75099,13.5218,3.09397,9.79,-0.82,0.82,3.0
1758078523.70642,1758078523.61435,0.0,0.0,0.0,-11.51645,13.5791,3.20856,9.79,-0.82,0.82,3.0
1758078523.70753,1758078523.62435,0.0,0.0,0.0,-9.39651,13.5218,3.09397,9.82,-0.97,0.69,3.0
1758078523.70871,1758078523.63435,0.0,0.0,0.0,-7.33386,14.49583,3.20856,9.82,-0.97,0.69,3.0
1758078523.71016,1758078523.64435,0.0,0.0,0.0,-4.29718,16.21471,3.49504,9.97,-1.13,0.77,3.0
1758078523.71102,1758078523.65435,0.0,0.0,0.0,-2.29183,15.29797,4.23989,9.81,-1.18,0.85,3.0
1758078523.71632,1758078523.66435,0.0,0.0,0.0,-0.45837,11.91752,5.09932,9.81,-1.18,0.85,3.0
1758078523.7167,1758078523.67435,0.0,0.0,0.0,1.3751,7.50575,6.41713,9.37,-1.11,0.92,3.0
1758078523.72136,1758078523.68435,0.0,0.0,0.0,4.23989,2.29183,9.39651,9.37,-1.11,0.92,3.0
1758078523.72176,1758078523.69435,0.0,0.0,0.0,6.24524,2.34913,11.22997,9.48,-1.14,0.81,3.0
1758078523.72455,1758078523.70435,0.0,0.0,0.0,8.136,4.87014,13.17803,9.48,-1.14,0.81,3.0
1758078523.76136,1758078523.71435,0.0,0.0,0.0,9.39651,8.0787,13.69369,9.93,-1.14,0.75,3.0
1758078523.8162,1758078523.72435,0.0,0.0,0.0,12.49048,12.83425,15.06879,9.94,-1.15,0.79,3.0
1758078523.82029,1758078523.73435,0.0,0.0,0.0,15.12609,14.38124,14.43854,9.94,-1.15,0.79,3.0
1758078523.85193,1758078523.74435,0.0,0.0,0.0,16.84496,14.83961,14.43854,9.45,-1.1,0.5,3.0
1758078523.85236,1758078523.75435,0.0,0.0,0.0,18.56383,14.83961,12.204,9.45,-1.1,0.5,3.0
1758078523.85585,1758078523.76435,0.0,0.0,0.0,19.70975,14.15206,9.91217,9.14,-0.97,0.51,3.0
1758078523.85651,1758078523.77435,0.0,0.0,0.0,21.60051,14.20935,7.44845,9.14,-0.97,0.51,3.0
1758078523.85731,1758078523.78435,0.0,0.0,0.0,22.28806,21.02755,4.23989,9.19,-0.76,0.41,3.0
1758078523.86003,1758078523.79435,0.0,0.0,0.0,23.94964,34.89313,2.86479,9.19,-0.76,0.41,3.0
1758078523.86115,1758078523.80435,0.0,0.0,0.0,27.73116,41.94051,4.52637,10.44,-0.86,0.94,3.0
1758078523.86187,1758078523.81435,0.0,0.0,0.0,28.24682,35.2942,2.63561,9.32,-0.97,1.43,3.0
1758078523.8627,1758078523.82435,0.0,0.0,0.0,30.88243,13.5218,6.87549,9.32,-0.97,1.43,3.0
1758078523.8638,1758078523.83435,0.0,0.0,0.0,32.14294,6.18794,10.37054,9.19,-1.03,0.91,3.0
1758078523.86451,1758078523.84435,0.0,0.0,0.0,32.77319,5.09932,12.49048,9.19,-1.03,0.91,3.0
1758078523.88148,1758078523.85435,0.0,0.0,0.0,31.97105,4.87014,12.89155,10.66,-1.0,0.35,3.0
1758078523.88317,1758078523.86435,0.0,0.0,0.0,31.16891,6.58902,11.80293,10.66,-1.0,0.35,3.0
1758078523.89817,1758078523.87435,0.0,0.0,0.0,28.59059,11.28727,7.67763,10.36,-0.73,0.8,3.0
1758078523.90106,1758078523.88435,0.0,0.0,0.0,26.18417,11.74564,4.92744,10.18,-0.3,1.5,3.0
1758078523.91874,1758078523.89435,0.0,0.0,0.0,23.0329,8.02141,3.26586,10.18,-0.3,1.5,3.0
1758078523.92643,1758078523.90435,0.0,0.0,0.0,18.62113,5.27121,3.66693,10.36,0.33,2.46,3.0
1758078523.94148,1758078523.91435,0.0,0.0,0.0,10.8862,11.17268,5.72958,10.36,0.33,2.46,3.0
1758078523.9424,1758078523.92435,0.0,0.0,0.0,5.95876,16.61578,6.18794,11.95,0.72,2.04,3.0
1758078523.95754,1758078523.93435,0.0,0.0,0.0,2.86479,18.62113,6.07335,11.95,0.72,2.04,3.0
1758078523.96197,1758078523.94434,0.0,0.0,0.0,1.48969,18.62113,5.27121,11.43,0.46,1.3,3.0
1758078523.97821,1758078523.95434,0.0,0.0,0.0,1.43239,18.73572,3.89611,11.23,-0.31,1.13,3.0
1758078523.98018,1758078523.96434,0.0,0.0,0.0,2.06265,19.88164,3.03668,11.23,-0.31,1.13,3.0
1758078523.99884,1758078523.97434,0.0,0.0,0.0,2.57831,22.05888,1.77617,12.09,-1.12,1.61,3.0
1758078524.00112,1758078523.98434,0.0,0.0,0.0,3.26586,24.80907,0.45837,12.09,-1.12,1.61,3.0
1758078524.0163,1758078523.99434,0.0,0.0,0.0,3.03668,26.41335,-0.45837,13.33,-1.45,2.4,3.0
1758078524.02077,1758078524.00434,0.0,0.0,0.0,2.40642,26.06958,-1.3751,13.33,-1.45,2.4,3.0
1758078524.03627,1758078524.01434,0.0,0.0,0.0,1.20321,22.51724,-2.11994,14.14,-1.13,2.62,3.0
1758078524.04163,1758078524.02434,0.0,0.0,0.0,-1.08862,17.87628,-2.63561,14.22,-1.13,2.48,3.0
1758078524.05752,1758078524.03434,0.0,0.0,0.0,-2.63561,15.64175,-2.57831,14.22,-0.61,2.48,3.0
1758078524.07499,1758078524.04434,0.0,0.0,0.0,-3.60963,12.60507,-3.20856,13.54,-0.39,2.47,3.0
1758078524.07609,1758078524.05434,0.0,0.0,0.0,-3.66693,8.42248,-4.1253,13.54,-0.39,2.47,3.0
1758078524.14337,1758078524.06434,0.0,0.0,0.0,-2.23454,4.18259,-5.90147,12.41,-0.48,2.65,3.0
1758078524.14878,1758078524.07434,0.0,0.0,0.0,-0.85944,2.23454,-7.39116,12.41,-0.48,2.65,3.0
1758078524.15163,1758078524.08434,0.0,0.0,0.0,0.74485,-0.17189,-8.88085,11.78,-0.71,3.08,3.0
1758078524.15283,1758078524.09434,0.0,0.0,0.0,2.7502,-3.60963,-9.74028,11.78,-0.71,3.08,3.0
1758078524.15505,1758078524.10434,0.0,0.0,0.0,5.90147,-8.76626,-10.31324,10.88,-0.84,3.21,3.0
1758078524.15629,1758078524.11434,0.0,0.0,0.0,7.84952,-11.80293,-10.25595,9.9,-1.0,3.28,3.0
1758078524.15693,1758078524.12434,0.0,0.0,0.0,9.74028,-14.9542,-9.85487,9.9,-1.0,3.28,3.0
1758078524.15859,1758078524.13434,0.0,0.0,0.0,11.57375,-18.73572,-9.4538,9.0,-1.11,3.21,3.0
1758078524.16075,1758078524.14434,0.0,0.0,0.0,13.5791,-25.15285,-9.05273,9.0,-1.11,3.21,3.0
1758078524.17631,1758078524.15434,0.0,0.0,0.0,14.66772,-29.9084,-8.36518,8.49,-0.82,3.01,3.0
1758078524.1923,1758078524.16434,0.0,0.0,0.0,15.24068,-34.66395,-8.0787,8.49,-0.82,3.01,3.0
1758078524.19485,1758078524.17434,0.0,0.0,0.0,16.04282,-42.62806,-7.10468,8.17,-0.18,3.12,3.0
1758078524.21124,1758078524.18434,0.0,0.0,0.0,16.67307,-47.15443,-6.35983,7.8,0.28,3.39,3.0
1758078524.21487,1758078524.19434,0.0,0.0,0.0,17.6471,-48.75871,-5.32851,7.8,0.28,3.39,3.0
1758078524.23113,1758078524.20434,0.0,0.0,0.0,19.25138,-48.8733,-4.18259,8.03,0.22,3.48,3.0
1758078524.23259,1758078524.21434,0.0,0.0,0.0,22.57454,-47.89928,-1.71887,8.03,0.22,3.48,3.0
1758078524.24765,1758078524.22434,0.0,0.0,0.0,24.80907,-46.2377,-0.11459,8.18,-0.17,3.24,3.0
1758078524.26416,1758078524.23434,0.0,0.0,0.0,26.87172,-42.91454,1.3751,8.18,-0.17,3.24,3.0
1758078524.26673,1758078524.24434,0.0,0.0,0.0,28.476,-38.27358,2.57831,8.64,-0.41,2.8,3.0
1758078524.27168,1758078524.25434,0.0,0.0,0.0,29.9084,-28.93437,3.49504,9.3,-0.16,2.34,3.0
1758078524.2882,1758078524.26434,0.0,0.0,0.0,29.9084,-20.62648,3.49504,9.3,-0.16,2.34,3.0
1758078524.29528,1758078524.27434,0.0,0.0,0.0,29.56462,-12.14671,3.03668,9.77,0.23,2.12,3.0
1758078524.31036,1758078524.28434,0.0,0.0,0.0,29.39274,-4.52637,2.00535,9.77,0.23,2.12,3.0
1758078524.31156,1758078524.29434,0.0,0.0,0.0,28.87707,6.18794,0.80214,9.54,0.4,2.08,3.0
1758078524.32637,1758078524.30434,0.0,0.0,0.0,28.41871,13.69369,0.0573,9.54,0.4,2.08,3.0
1758078524.34431,1758078524.31434,0.0,0.0,0.0,28.01764,20.97026,-0.51566,9.47,0.37,2.02,3.0
1758078524.34469,1758078524.32434,0.0,0.0,0.0,27.78845,26.69983,-0.74485,9.47,0.37,2.02,3.0
1758078524.3645,1758078524.33434,0.0,0.0,0.0,27.73116,33.80451,-1.08862,9.27,0.35,1.91,3.0
1758078524.36632,1758078524.34434,0.0,0.0,0.0,27.78845,37.87251,-1.83346,9.11,0.33,1.77,3.0
1758078524.37141,1758078524.35434,0.0,0.0,0.0,27.44468,41.25296,-2.6929,9.11,0.33,1.77,3.0
1758078524.38662,1758078524.36434,0.0,0.0,0.0,26.75713,42.05511,-4.87014,8.8,0.46,1.65,3.0
1758078524.39193,1758078524.37434,0.0,0.0,0.0,26.41335,42.51347,-6.18794,8.8,0.46,1.65,3.0
1758078524.40763,1758078524.38434,0.0,0.0,0.0,25.7831,43.54479,-7.62034,8.72,0.7,1.74,3.0
1758078524.41038,1758078524.39434,0.0,0.0,0.0,25.26744,44.00316,-8.59437,8.72,0.7,1.74,3.0
1758078524.42622,1758078524.40434,0.0,0.0,0.0,24.4653,43.25832,-8.99544,8.7,0.96,1.82,3.0
1758078524.49635,1758078524.41434,0.0,0.0,0.0,23.26209,45.26366,-9.85487,8.72,1.08,1.88,3.0
1758078524.49687,1758078524.42434,0.0,0.0,0.0,21.7724,46.1231,-10.37054,8.72,1.08,1.88,3.0
1758078524.50084,1758078524.43434,0.0,0.0,0.0,19.99623,45.20637,-11.34457,8.31,1.1,1.85,3.0
1758078524.50122,1758078524.44434,0.0,0.0,0.0,17.24603,41.36755,-12.204,8.31,1.1,1.85,3.0
1758078524.50239,1758078524.45434,0.0,0.0,0.0,15.58445,37.81522,-11.91752,7.91,1.09,1.86,3.0
1758078524.50658,1758078524.46434,0.0,0.0,0.0,13.80828,35.12231,-11.00079,7.91,1.09,1.86,3.0
1758078524.50746,1758078524.47434,0.0,0.0,0.0,11.86023,33.23156,-10.08406,7.98,1.0,1.68,3.0
1758078524.50808,1758078524.48434,0.0,0.0,0.0,9.33921,29.73651,-7.96411,8.01,0.88,1.83,3.0
1758078524.51092,1758078524.49434,0.0,0.0,0.0,8.25059,27.78845,-6.35983,8.01,0.88,1.83,3.0
1758078524.52651,1758078524.50434,0.0,0.0,0.0,7.33386,25.72581,-4.98473,8.05,0.81,2.05,3.0
1758078524.52875,1758078524.51434,0.0,0.0,0.0,6.41713,24.00693,-4.29718,8.05,0.81,2.05,3.0
1758078524.5468,1758078524.52434,0.0,0.0,0.0,5.09932,21.25674,-4.58366,8.19,0.86,2.19,3.0
1758078524.5487,1758078524.53434,0.0,0.0,0.0,4.0107,18.56383,-5.4431,8.19,0.86,2.19,3.0
1758078524.56752,1758078524.54434,0.0,0.0,0.0,2.86479,16.73037,-6.70361,8.27,1.01,2.21,3.0
1758078524.56791,1758078524.55434,0.0,0.0,0.0,1.20321,15.92823,-8.47978,8.27,1.01,2.21,3.0
1758078524.58641,1758078524.56434,0.0,0.0,0.0,-1.66158,11.34457,-11.11538,8.55,1.2,2.19,3.0
1758078524.58881,1758078524.57434,0.0,0.0,0.0,-3.66693,8.30789,-12.08941,8.42,1.27,1.88,3.0
1758078524.60655,1758078524.58434,0.0,0.0,0.0,-5.78687,4.64096,-12.71966,8.42,1.27,1.88,3.0
1758078524.60746,1758078524.59434,0.0,0.0,0.0,-8.30789,-2.06265,-12.43318,8.34,1.2,1.74,3.0
1758078524.62702,1758078524.60434,0.0,0.0,0.0,-9.96947,-6.99009,-11.17268,8.34,1.2,1.74,3.0
1758078524.63511,1758078524.61434,0.0,0.0,0.0,-11.63104,-8.36518,-8.99544,8.42,0.98,1.5,3.0
1758078524.708,1758078524.62434,0.0,0.0,0.0,-13.40721,-5.55769,-6.35983,8.42,0.98,1.5,3.0
1758078524.71875,1758078524.63434,0.0,0.0,0.0,-15.41257,-4.29718,-3.66693,9.25,0.77,2.0,3.0
1758078524.72129,1758078524.64434,0.0,0.0,0.0,-16.95955,-7.62034,-3.38045,9.01,0.74,2.36,3.0
1758078524.72701,1758078524.65434,0.0,0.0,0.0,-17.36062,-13.80828,-2.86479,9.01,0.74,2.36,3.0
1758078524.73202,1758078524.66434,0.0,0.0,0.0,-20.22541,-13.5791,-5.4431,9.26,0.95,2.0,3.0
1758078524.73681,1758078524.67434,0.0,0.0,0.0,-23.26209,-14.9542,-8.88085,9.26,0.95,2.0,3.0
1758078524.73908,1758078524.68434,0.0,0.0,0.0,-25.38203,-15.41257,-12.204,9.47,1.4,1.81,3.0
1758078524.74185,1758078524.69434,0.0,0.0,0.0,-28.64789,-17.24603,-15.41257,9.47,1.4,1.81,3.0
1758078524.74836,1758078524.70434,0.0,0.0,0.0,-32.20023,-20.45459,-18.85031,9.54,1.61,1.86,3.0
1758078524.75619,1758078524.71434,0.0,0.0,0.0,-35.92446,-30.25217,-22.05888,9.43,1.52,1.56,3.0
1758078524.75815,1758078524.72434,0.0,0.0,0.0,-37.29956,-38.1017,-22.34536,9.43,1.52,1.56,3.0
1758078524.75859,1758078524.73434,0.0,0.0,0.0,-37.52874,-45.49285,-20.11082,9.75,1.01,1.98,3.0
1758078524.76236,1758078524.74434,0.0,0.0,0.0,-36.61201,-57.86874,-19.88164,9.75,1.01,1.98,3.0
1758078524.77773,1758078524.75434,0.0,0.0,0.0,-32.54401,-66.92148,-17.01685,10.71,0.4,2.85,3.0
1758078524.78215,1758078524.76434,0.0,0.0,0.0,-27.84575,-48.9879,-16.67307,10.71,0.4,2.85,3.0
1758078524.7995,1758078524.77434,0.0,0.0,0.0,-25.15285,-20.79837,-17.58981,14.6,-0.17,3.08,3.0
1758078524.82592,1758078524.78434,0.0,0.0,0.0,-22.57454,-6.8182,-18.9649,14.6,-0.17,3.08,3.0
1758078524.85522,1758078524.79434,0.0,0.0,0.0,-21.42862,-10.8289,-19.07949,13.77,-0.08,3.61,3.0
1758078524.85825,1758078524.80434,0.0,0.0,0.0,-22.23076,-9.62569,-18.33465,12.26,0.28,2.78,3.0
1758078524.86022,1758078524.81434,0.0,0.0,0.0,-23.20479,-0.97403,-15.69904,12.26,0.28,2.78,3.0
1758078524.86223,1758078524.82434,0.0,0.0,0.0,-23.94964,11.80293,-8.30789,13.89,0.79,1.92,3.0
1758078524.86875,1758078524.83434,0.0,0.0,0.0,-23.60586,17.01685,-2.40642,13.89,0.79,1.92,3.0
1758078524.86913,1758078524.84434,0.0,0.0,0.0,-22.74642,21.60051,2.23454,13.95,1.04,3.55,3.0
1758078524.87034,1758078524.85434,0.0,0.0,0.0,-21.42862,25.43933,5.21392,13.95,1.04,3.55,3.0
1758078524.8921,1758078524.86434,0.0,0.0,0.0,-18.90761,25.09555,6.18794,14.0,0.8,3.64,3.0
1758078524.93987,1758078524.87434,0.0,0.0,0.0,-17.30333,23.60586,5.32851,13.36,0.48,3.11,3.0
1758078524.94043,1758078524.88434,0.0,0.0,0.0,-15.87093,22.28806,3.89611,13.36,0.48,3.11,3.0
1758078524.94328,1758078524.89434,0.0,0.0,0.0,-15.24068,20.97026,2.57831,12.86,0.47,2.72,3.0
1758078524.96222,1758078524.90434,0.0,0.0,0.0,-15.92823,17.76169,0.80214,12.86,0.47,2.72,3.0
1758078524.96713,1758078524.91434,0.0,0.0,0.0,-17.53251,12.83425,-0.68755,11.85,0.72,3.14,3.0
1758078524.97017,1758078524.92434,0.0,0.0,0.0,-19.25138,6.35983,-1.66158,11.85,0.72,3.14,3.0
1758078524.97206,1758078524.93434,0.0,0.0,0.0,-21.14215,-0.51566,-2.63561,10.33,0.99,3.19,3.0
1758078524.976,1758078524.94434,0.0,0.0,0.0,-24.63719,-10.71431,-3.66693,9.13,1.13,3.29,3.0
1758078524.97676,1758078524.95434,0.0,0.0,0.0,-27.10091,-17.47521,-3.95341,9.13,1.13,3.29,3.0
1758078524.97943,1758078524.96434,0.0,0.0,0.0,-29.33544,-25.38203,-3.83882,8.23,1.14,3.38,3.0
1758078525.00073,1758078524.97434,0.0,0.0,0.0,-31.39809,-34.0337,-3.20856,8.23,1.14,3.38,3.0
1758078525.00192,1758078524.98434,0.0,0.0,0.0,-33.11696,-44.9199,-1.48969,7.61,0.99,3.23,3.0
1758078525.01664,1758078524.99434,0.0,0.0,0.0,-34.37747,-50.99325,-0.85944,7.61,0.99,3.23,3.0
1758078525.01787,1758078525.00434,0.0,0.0,0.0,-35.2369,-55.92068,-0.40107,7.32,0.7,3.0,3.0
1758078525.03546,1758078525.01434,0.0,0.0,0.0,-36.15364,-61.30648,-0.17189,7.32,0.7,3.0,3.0
1758078525.05194,1758078525.02434,0.0,0.0,0.0,-36.49741,-62.85347,-0.0573,7.28,0.38,2.71,3.0
1758078525.05288,1758078525.03434,0.0,0.0,0.0,-37.35685,-62.91077,-0.74485,7.61,0.26,2.3,3.0
1758078525.06845,1758078525.04434,0.0,0.0,0.0,-38.50277,-61.76485,-1.3751,7.61,0.26,2.3,3.0
1758078525.07155,1758078525.05434,0.0,0.0,0.0,-40.33623,-58.4417,-2.92208,7.89,0.36,2.02,3.0
1758078525.08687,1758078525.06434,0.0,0.0,0.0,-41.36755,-54.25911,-4.1253,7.89,0.36,2.02,3.0
1758078525.08964,1758078525.07434,0.0,0.0,0.0,-42.05511,-49.33167,-4.58366,8.26,0.55,1.97,3.0
1758078525.10698,1758078525.08434,0.0,0.0,0.0,-42.57077,-44.11775,-4.58366,8.26,0.55,1.97,3.0
1758078525.10949,1758078525.09434,0.0,0.0,0.0,-42.51347,-34.77854,-3.55234,8.75,0.48,1.85,3.0
1758078525.12673,1758078525.10434,0.0,0.0,0.0,-41.94051,-27.1582,-2.23454,9.38,0.2,1.51,3.0
1758078525.12978,1758078525.11434,0.0,0.0,0.0,-41.48215,-18.9649,-0.57296,9.38,0.2,1.51,3.0
1758078525.14669,1758078525.12434,0.0,0.0,0.0,-40.7373,-10.19865,0.80214,9.92,-0.03,1.26,3.0
1758078525.14949,1758078525.13434,0.0,0.0,0.0,-39.64868,2.86479,2.57831,9.92,-0.03,1.26,3.0
1758078525.16679,1758078525.14434,0.0,0.0,0.0,-38.50277,9.91217,3.32316,10.0,-0.17,1.25,3.0
1758078525.16811,1758078525.15434,0.0,0.0,0.0,-37.29956,15.41257,4.0107,10.0,-0.17,1.25,3.0
1758078525.18666,1758078525.16434,0.0,0.0,0.0,-35.98175,20.3973,4.29718,9.77,-0.32,1.32,3.0
1758078525.20176,1758078525.17434,0.0,0.0,0.0,-34.49206,26.75713,4.87014,9.81,-0.47,1.37,3.0
1758078525.20295,1758078525.18434,0.0,0.0,0.0,-33.23156,31.16891,4.81285,9.81,-0.47,1.37,3.0
1758078525.21884,1758078525.19434,0.0,0.0,0.0,-32.08564,34.60666,4.29718,9.74,-0.49,1.42,3.0
1758078525.22088,1758078525.20434,0.0,0.0,0.0,-29.62192,36.49741,2.63561,9.74,-0.49,1.42,3.0
1758078525.23603,1758078525.21434,0.0,0.0,0.0,-27.33009,38.21629,1.71887,9.34,-0.49,1.34,3.0
1758078525.25178,1758078525.22434,0.0,0.0,0.0,-24.80907,38.38818,1.08862,9.34,-0.49,1.34,3.0
1758078525.25616,1758078525.23434,0.0,0.0,0.0,-22.23076,37.47144,1.48969,9.12,-0.59,1.37,3.0
1758078525.27173,1758078525.24434,0.0,0.0,0.0,-18.79302,36.7266,3.20856,9.12,-0.59,1.37,3.0
1758078525.27538,1758078525.25434,0.0,0.0,0.0,-17.01685,35.75257,4.69825,9.07,-0.62,1.49,3.0
1758078525.29155,1758078525.26434,0.0,0.0,0.0,-15.87093,33.63263,6.24524,8.8,-0.51,1.62,3.0
1758078525.29474,1758078525.27434,0.0,0.0,0.0,-15.35527,30.82513,7.44845,8.8,-0.51,1.62,3.0
1758078525.31004,1758078525.28434,0.0,0.0,0.0,-15.58445,27.96034,8.0787,8.36,-0.37,1.51,3.0
1758078525.3113,1758078525.29434,0.0,0.0,0.0,-16.3293,26.52795,7.96411,8.36,-0.37,1.51,3.0
1758078525.3258,1758078525.30434,0.0,0.0,0.0,-17.30333,24.5226,7.39116,8.25,-0.22,1.41,3.0
1758078525.34186,1758078525.31434,0.0,0.0,0.0,-17.93358,21.37133,6.70361,8.25,-0.22,1.41,3.0
1758078525.34462,1758078525.32434,0.0,0.0,0.0,-18.62113,16.73037,6.35983,8.16,-0.03,1.57,3.0
1758078525.35189,1758078525.33434,0.0,0.0,0.0,-18.73572,13.46451,6.53172,8.36,-0.03,1.62,3.0
1758078525.36889,1758078525.34434,0.0,0.0,0.0,-18.50654,10.54242,7.04738,8.36,-0.03,1.62,3.0
1758078525.37214,1758078525.35434,0.0,0.0,0.0,-17.99088,7.16197,7.79223,8.51,-0.25,1.64,3.0
1758078525.38804,1758078525.36434,0.0,0.0,0.0,-16.90226,0.97403,8.65166,8.51,-0.25,1.64,3.0
1758078525.38929,1758078525.37434,0.0,0.0,0.0,-15.92823,-3.38045,8.88085,8.39,-0.56,1.6,3.0
1758078525.40486,1758078525.38434,0.0,0.0,0.0,-14.83961,-8.0787,8.76626,8.39,-0.56,1.6,3.0
1758078525.4219,1758078525.39434,0.0,0.0,0.0,-13.5791,-11.80293,8.47978,8.28,-0.8,1.34,3.0
1758078525.42278,1758078525.40434,0.0,0.0,0.0,-11.97482,-11.00079,6.18794,8.66,-0.81,1.19,3.0
1758078525.43889,1758078525.41434,0.0,0.0,0.0,-10.8289,-9.33921,4.0107,8.66,-0.81,1.19,3.0
1758078525.44093,1758078525.42434,0.0,0.0,0.0,-9.22462,-6.7609,1.43239,9.02,-0.68,1.18,3.0
1758078525.4558,1758078525.43434,0.0,0.0,0.0,-6.47442,-0.45837,-1.20321,9.02,-0.68,1.18,3.0
1758078525.47208,1758078525.44434,0.0,0.0,0.0,-4.35448,2.06265,-1.14592,9.71,-0.73,1.54,3.0
1758078525.47493,1758078525.45434,0.0,0.0,0.0,-1.83346,0.22918,0.51566,9.71,-0.73,1.54,3.0
1758078525.4901,1758078525.46434,0.0,0.0,0.0,0.51566,-2.23454,2.97938,9.51,-1.18,1.51,3.0
1758078525.49107,1758078525.47434,0.0,0.0,0.0,4.64096,-2.29183,7.73493,9.51,-1.18,1.24,3.0
1758078525.50618,1758078525.48434,0.0,0.0,0.0,7.73493,-2.23454,11.45916,9.86,-1.47,1.24,3.0
1758078525.52214,1758078525.49434,0.0,0.0,0.0,11.28727,-3.32316,14.72501,9.72,-1.46,1.07,3.0
1758078525.52303,1758078525.50434,0.0,0.0,0.0,14.78231,-2.63561,16.73037,9.72,-1.46,1.07,3.0
1758078525.53787,1758078525.51434,0.0,0.0,0.0,19.76705,-4.29718,18.22006,9.7,-1.34,1.1,3.0
1758078525.53906,1758078525.52434,0.0,0.0,0.0,22.57454,-10.94349,17.87628,9.7,-1.34,1.1,3.0
1758078525.55391,1758078525.53434,0.0,0.0,0.0,22.63183,-17.30333,16.04282,8.94,-1.04,1.3,3.0
1758078525.57012,1758078525.54434,0.0,0.0,0.0,21.60051,-15.41257,12.2613,8.94,-1.04,1.3,3.0
1758078525.57102,1758078525.55434,0.0,0.0,0.0,18.16276,-5.09932,8.25059,10.34,-0.3,2.38,3.0
1758078525.58617,1758078525.56434,0.0,0.0,0.0,13.98017,7.79223,5.32851,12.91,0.62,3.47,3.0
1758078525.6021,1758078525.57434,0.0,0.0,0.0,11.22997,6.53172,6.41713,12.91,0.62,3.47,3.0
1758078525.60336,1758078525.58434,0.0,0.0,0.0,7.21927,-2.57831,3.20856,11.89,1.23,3.09,3.0
1758078525.61818,1758078525.59434,0.0,0.0,0.0,6.13065,-20.22541,9.4538,11.89,1.23,3.09,3.0
1758078525.61988,1758078525.60434,0.0,0.0,0.0,5.90147,-16.3293,10.8862,12.97,0.23,2.32,3.0
1758078525.6349,1758078525.61434,0.0,0.0,0.0,7.50575,1.03132,9.91217,12.97,0.23,2.32,3.0
1758078525.65092,1758078525.62434,0.0,0.0,0.0,12.08941,7.44845,5.32851,15.63,-1.18,2.46,3.0
1758078525.65209,1758078525.63434,0.0,0.0,0.0,15.29797,9.96947,0.74485,15.02,-1.82,4.28,3.0
1758078525.6671,1758078525.64434,0.0,0.0,0.0,16.67307,15.75634,-4.1253,15.02,-1.82,4.28,3.0
1758078525.66841,1758078525.65434,0.0,0.0,0.0,16.67307,20.16812,-7.84952,15.53,-1.02,3.79,3.0
1758078525.68418,1758078525.66434,0.0,0.0,0.0,15.46986,23.89234,-11.17268,15.53,-1.02,3.79,3.0
1758078525.70099,1758078525.67434,0.0,0.0,0.0,14.15206,23.0329,-11.45916,13.7,-0.08,3.34,3.0
1758078525.70508,1758078525.68434,0.0,0.0,0.0,12.77696,20.3973,-10.8862,13.7,-0.08,3.34,3.0
1758078525.72162,1758078525.69434,0.0,0.0,0.0,12.08941,17.58981,-9.96947,12.07,0.23,3.49,3.0
1758078525.72514,1758078525.70434,0.0,0.0,0.0,12.54778,14.03747,-7.16197,11.12,0.23,3.25,3.0
1758078525.74033,1758078525.71434,0.0,0.0,0.0,14.32395,10.37054,-4.58366,11.12,0.0,3.25,3.0
1758078525.74113,1758078525.72434,0.0,0.0,0.0,16.84496,5.78687,-2.29183,9.97,-0.52,3.46,3.0
1758078525.75621,1758078525.73434,0.0,0.0,0.0,19.48057,1.60428,-0.22918,9.97,-0.52,3.46,3.0
1758078525.7611,1758078525.74434,0.0,0.0,0.0,23.31938,-5.09932,1.94806,9.0,-1.03,3.25,3.0
1758078525.77599,1758078525.75434,0.0,0.0,0.0,25.8404,-9.62569,2.7502,9.0,-1.03,3.25,3.0
1758078525.79196,1758078525.76434,0.0,0.0,0.0,28.01764,-14.66772,3.09397,8.11,-1.07,3.1,3.0
1758078525.79427,1758078525.77434,0.0,0.0,0.0,29.50733,-19.25138,2.92208,8.11,-1.07,3.1,3.0
1758078525.80898,1758078525.78434,0.0,0.0,0.0,31.39809,-26.52795,1.48969,7.26,-0.58,3.0,3.0
1758078525.81042,1758078525.79434,0.0,0.0,0.0,32.42941,-30.36677,0.45837,6.81,0.0,2.95,3.0
1758078525.82573,1758078525.80434,0.0,0.0,0.0,33.34615,-33.17426,-0.80214,6.81,0.0,2.95,3.0
1758078525.84202,1758078525.81434,0.0,0.0,0.0,34.32018,-35.06502,-2.11994,7.08,0.27,2.71,3.0
1758078525.84317,1758078525.82434,0.0,0.0,0.0,36.26823,-35.63798,-2.86479,7.08,0.27,2.71,3.0
1758078525.85824,1758078525.83434,0.0,0.0,0.0,37.98711,-34.43476,-2.86479,7.65,0.13,2.53,3.0
1758078525.85919,1758078525.84434,0.0,0.0,0.0,40.10705,-31.39809,-2.46372,7.65,0.13,2.53,3.0
1758078525.87402,1758078525.85434,0.0,0.0,0.0,43.14373,-24.86637,-1.08862,8.42,-0.07,2.39,3.0
1758078525.88998,1758078525.86434,0.0,0.0,0.0,45.14908,-19.07949,0.22918,8.86,-0.02,2.13,3.0
1758078525.8923,1758078525.87434,0.0,0.0,0.0,46.40959,-12.37589,1.3751,8.86,-0.02,2.13,3.0
1758078525.90698,1758078525.88434,0.0,0.0,0.0,47.32632,-5.55769,2.29183,8.92,0.28,1.93,3.0
1758078525.90896,1758078525.89434,0.0,0.0,0.0,47.89928,3.72423,2.6929,8.92,0.28,1.93,3.0
1758078525.9266,1758078525.90434,0.0,0.0,0.0,47.32632,9.96947,2.86479,8.65,0.6,1.71,3.0
1758078525.93097,1758078525.91434,0.0,0.0,0.0,46.1804,15.69904,2.6929,8.65,0.6,1.71,3.0
1758078525.94702,1758078525.92434,0.0,0.0,0.0,44.51882,20.74107,2.57831,8.6,0.85,1.83,3.0
1758078525.94902,1758078525.93434,0.0,0.0,0.0,41.94051,27.44468,2.06265,8.66,0.88,1.79,3.0
1758078525.96636,1758078525.94434,0.0,0.0,0.0,40.04975,30.53865,1.77617,8.66,0.88,1.79,3.0
1758078525.98208,1758078525.95434,0.0,0.0,0.0,38.21629,32.37212,1.3178,8.71,0.84,1.95,3.0
1758078525.98602,1758078525.96434,0.0,0.0,0.0,36.61201,31.97105,0.51566,8.71,0.84,1.95,3.0
1758078526.00137,1758078525.97434,0.0,0.0,0.0,34.32018,31.16891,-0.85944,8.58,0.81,1.88,3.0
1758078526.00307,1758078525.98434,0.0,0.0,0.0,33.00237,29.67921,-1.94806,8.58,0.81,1.88,3.0
1758078526.0181,1758078525.99434,0.0,0.0,0.0,31.91375,27.67386,-2.6929,8.36,0.76,1.78,3.0
1758078526.02406,1758078526.00434,0.0,0.0,0.0,31.45539,26.35606,-3.09397,8.36,0.76,1.78,3.0
1758078526.04227,1758078526.01434,0.0,0.0,0.0,31.56997,23.49127,-2.7502,8.19,0.66,1.87,3.0
1758078526.04444,1758078526.02434,0.0,0.0,0.0,31.56997,22.11617,-2.34913,8.18,0.61,2.14,3.0
1758078526.05909,1758078526.03434,0.0,0.0,0.0,31.56997,23.26209,-2.34913,8.18,0.61,2.14,3.0
1758078526.06452,1758078526.04434,0.0,0.0,0.0,30.99702,22.00158,-3.26586,8.47,0.79,2.27,3.0
1758078526.07902,1758078526.05434,0.0,0.0,0.0,30.25217,17.24603,-3.66693,8.47,0.79,2.27,3.0
1758078526.08197,1758078526.06434,0.0,0.0,0.0,29.22085,14.20935,-4.23989,8.25,1.03,2.07,3.0
1758078526.0971,1758078526.07434,0.0,0.0,0.0,27.96034,12.08941,-4.35448,8.25,1.03,2.07,3.0
1758078526.10179,1758078526.08434,0.0,0.0,0.0,25.8404,9.05273,-4.46907,8.51,1.16,2.07,3.0
1758078526.11835,1758078526.09434,0.0,0.0,0.0,24.75178,6.8182,-3.95341,8.52,1.12,2.02,3.0
1758078526.12121,1758078526.10434,0.0,0.0,0.0,23.60586,5.55769,-3.20856,8.52,1.12,2.02,3.0
1758078526.13633,1758078526.11434,0.0,0.0,0.0,22.40265,5.27121,-2.11994,8.79,1.05,2.14,3.0
1758078526.1524,1758078526.12434,0.0,0.0,0.0,21.02755,5.90147,-0.57296,8.79,1.05,2.14,3.0
1758078526.15494,1758078526.13434,0.0,0.0,0.0,19.99623,7.10468,-0.11459,9.08,1.01,2.07,3.0
1758078526.17187,1758078526.14434,0.0,0.0,0.0,18.90761,8.25059,0.0573,9.08,1.01,2.07,3.0
1758078526.17481,1758078526.15434,0.0,0.0,0.0,17.6471,9.62569,-0.11459,9.23,1.03,2.13,3.0
1758078526.19042,1758078526.16434,0.0,0.0,0.0,15.12609,11.11538,-1.43239,9.25,1.12,2.05,3.0
1758078526.19137,1758078526.17434,0.0,0.0,0.0,13.23533,9.68299,-2.7502,9.25,1.12,2.05,3.0
1758078526.20644,1758078526.18434,0.0,0.0,0.0,11.51645,7.67763,-3.49504,8.96,1.16,1.96,3.0
1758078526.22241,1758078526.19434,0.0,0.0,0.0,9.74028,7.10468,-4.35448,8.96,1.16,1.96,3.0
1758078526.22375,1758078526.20434,0.0,0.0,0.0,6.70361,7.39116,-4.69825,9.14,1.18,1.92,3.0
1758078526.24085,1758078526.21434,0.0,0.0,0.0,4.35448,8.25059,-4.46907,9.14,1.18,1.92,3.0
1758078526.24172,1758078526.22434,0.0,0.0,0.0,2.00535,9.05273,-4.1253,9.28,1.22,1.86,3.0
1758078526.25717,1758078526.23434,0.0,0.0,0.0,-0.22918,7.44845,-2.6929,9.28,1.22,1.86,3.0
1758078526.25993,1758078526.24434,0.0,0.0,0.0,-3.38045,4.23989,-2.11994,9.1,1.18,1.91,3.0
1758078526.2762,1758078526.25434,0.0,0.0,0.0,-5.55769,2.86479,-1.83346,9.21,1.04,1.89,3.0
1758078526.29215,1758078526.26434,0.0,0.0,0.0,-7.10468,0.97403,-1.60428,9.21,1.04,1.89,3.0
1758078526.295,1758078526.27434,0.0,0.0,0.0,-9.85487,-1.71887,-2.06265,9.22,0.99,1.86,3.0
1758078526.31045,1758078526.28434,0.0,0.0,0.0,-11.91752,-2.63561,-3.49504,9.22,0.99,1.86,3.0
1758078526.31139,1758078526.29434,0.0,0.0,0.0,-14.61043,-3.03668,-5.78687,9.27,1.21,2.01,3.0
1758078526.32621,1758078526.30434,0.0,0.0,0.0,-16.95955,-4.0107,-8.0787,9.27,1.21,2.01,3.0
1758078526.3422,1758078526.31434,0.0,0.0,0.0,-21.37133,-4.1253,-11.63104,9.38,1.53,1.98,3.0
1758078526.34574,1758078526.32434,0.0,0.0,0.0,-24.17882,-8.70896,-14.20935,9.2,1.63,1.79,3.0
