timeStamp,timeStampAlign,roll,pitch,yaw,gyro_x,gyro_y,gyro_z,acc_x,acc_y,acc_z,flag_num
1758076940.07366,1758076940.01595,0.0,0.0,0.0,-45.77933,32.37212,-7.39116,14.06,-1.25,0.33,2.0
1758076940.07781,1758076940.02595,0.0,0.0,0.0,-39.70598,33.46074,-6.41713,9.76,-1.41,1.86,2.0
1758076940.07843,1758076940.03595,0.0,0.0,0.0,-33.63263,38.38818,-5.21392,9.54,-1.95,-0.36,2.0
1758076940.08866,1758076940.04595,0.0,0.0,0.0,-28.24682,43.54479,-3.55234,9.54,-1.95,-0.36,2.0
1758076940.10672,1758076940.05595,0.0,0.0,0.0,-21.25674,49.84733,-0.85944,9.42,-2.23,0.33,2.0
1758076940.11254,1758076940.06595,0.0,0.0,0.0,-17.24603,51.5662,0.68755,9.42,-2.23,0.33,2.0
1758076940.11309,1758076940.07595,0.0,0.0,0.0,-13.86558,53.05589,1.94806,8.87,-1.78,0.62,2.0
1758076940.12901,1758076940.08595,0.0,0.0,0.0,-11.34457,54.3737,2.6929,8.87,-1.78,0.62,2.0
1758076940.13278,1758076940.09595,0.0,0.0,0.0,-8.93814,51.27972,2.97938,8.54,-1.08,0.72,2.0
1758076940.14828,1758076940.10595,0.0,0.0,0.0,-8.0787,48.30034,2.57831,8.03,-0.49,0.7,2.0
1758076940.16396,1758076940.11595,0.0,0.0,0.0,-7.96411,45.60744,1.71887,8.03,-0.49,0.7,2.0
1758076940.17064,1758076940.12595,0.0,0.0,0.0,-8.02141,42.39888,0.80214,8.09,-0.02,0.9,2.0
1758076940.18597,1758076940.13595,0.0,0.0,0.0,-8.70896,37.58603,-0.51566,8.09,-0.02,0.9,2.0
1758076940.18876,1758076940.14595,0.0,0.0,0.0,-9.39651,35.06502,-1.03132,8.26,0.2,0.79,2.0
1758076940.2049,1758076940.15595,0.0,0.0,0.0,-10.19865,32.71589,-1.20321,8.26,0.2,0.79,2.0
1758076940.20595,1758076940.16595,0.0,0.0,0.0,-10.8289,30.19488,-1.14592,8.55,0.16,0.67,2.0
1758076940.22291,1758076940.17595,0.0,0.0,0.0,-11.91752,27.78845,-0.97403,8.73,-0.05,0.45,2.0
1758076940.22374,1758076940.18595,0.0,0.0,0.0,-12.54778,25.55392,-0.85944,8.73,-0.05,0.45,2.0
1758076940.23927,1758076940.19595,0.0,0.0,0.0,-13.17803,22.97561,-0.80214,8.6,-0.25,0.39,2.0
1758076940.24339,1758076940.20595,0.0,0.0,0.0,-13.69369,18.50654,-0.22918,8.6,-0.25,0.39,2.0
1758076940.26086,1758076940.21595,0.0,0.0,0.0,-13.69369,15.06879,0.22918,8.5,-0.32,0.28,2.0
1758076940.27625,1758076940.22595,0.0,0.0,0.0,-13.5791,11.63104,0.57296,8.5,-0.32,0.28,2.0
1758076940.27794,1758076940.23595,0.0,0.0,0.0,-13.12073,8.02141,1.08862,8.61,-0.31,0.18,2.0
1758076940.29327,1758076940.24595,0.0,0.0,0.0,-11.91752,5.90147,1.3178,8.61,-0.31,0.0,2.0
1758076940.29531,1758076940.25595,0.0,0.0,0.0,-10.8862,5.78687,0.97403,9.08,-0.22,0.0,2.0
1758076940.3124,1758076940.26595,0.0,0.0,0.0,-9.85487,5.32851,0.74485,9.44,-0.21,0.01,2.0
1758076940.31361,1758076940.27595,0.0,0.0,0.0,-8.47978,5.15662,0.11459,9.44,-0.21,0.01,2.0
1758076940.33059,1758076940.28595,0.0,0.0,0.0,-5.95876,5.95876,-1.14592,9.74,-0.35,0.07,2.0
1758076940.33338,1758076940.29595,0.0,0.0,0.0,-4.1253,6.7609,-2.06265,9.74,-0.35,0.07,2.0
1758076940.35169,1758076940.30595,0.0,0.0,0.0,-1.66158,7.10468,-2.92208,10.09,-0.62,0.11,2.0
1758076940.35369,1758076940.31595,0.0,0.0,0.0,0.80214,6.24524,-3.09397,10.09,-0.62,0.11,2.0
1758076940.36901,1758076940.32595,0.0,0.0,0.0,4.35448,3.03668,-2.46372,10.23,-0.93,0.08,2.0
1758076940.38606,1758076940.33595,0.0,0.0,0.0,6.47442,0.51566,-1.20321,10.45,-1.15,-0.3,2.0
1758076940.39044,1758076940.34595,0.0,0.0,0.0,8.59437,-3.03668,0.17189,10.45,-1.15,-0.3,2.0
1758076940.40646,1758076940.35595,0.0,0.0,0.0,10.19865,-7.73493,1.83346,10.51,-1.18,-0.72,2.0
1758076940.41152,1758076940.36595,0.0,0.0,0.0,12.43318,-13.06344,3.95341,10.51,-1.18,-0.72,2.0
1758076940.4271,1758076940.37595,0.0,0.0,0.0,14.20935,-13.00614,5.09932,10.73,-1.05,-0.94,2.0
1758076940.43046,1758076940.38595,0.0,0.0,0.0,16.10011,-12.204,5.09932,10.73,-1.05,-0.94,2.0
1758076940.44605,1758076940.39595,0.0,0.0,0.0,18.90761,-11.74564,5.09932,11.1,-0.98,-0.51,2.0
1758076940.45044,1758076940.40595,0.0,0.0,0.0,19.59516,-20.05352,6.24524,11.44,-1.06,1.96,2.0
1758076940.46596,1758076940.41595,0.0,0.0,0.0,18.90761,-34.0337,9.5684,11.44,-1.06,1.96,2.0
1758076940.47123,1758076940.42595,0.0,0.0,0.0,16.272,-46.1804,13.46451,12.13,-0.52,4.58,2.0
1758076940.48598,1758076940.43595,0.0,0.0,0.0,10.8862,-52.65482,21.37133,12.13,-0.52,4.58,2.0
1758076940.48729,1758076940.44595,0.0,0.0,0.0,8.30789,-51.6235,26.12688,13.47,0.29,4.37,2.0
1758076940.52923,1758076940.45595,0.0,0.0,0.0,7.04738,-54.48829,30.36677,13.47,0.29,4.37,2.0
1758076940.53181,1758076940.46595,0.0,0.0,0.0,6.24524,-56.60823,31.62727,10.88,0.44,2.42,2.0
1758076940.53233,1758076940.47595,0.0,0.0,0.0,8.0787,-63.42643,30.30947,8.36,-0.24,2.42,2.0
1758076940.53441,1758076940.48595,0.0,0.0,0.0,12.49048,-75.68773,29.33544,8.36,-0.24,2.42,2.0
1758076940.53538,1758076940.49595,0.0,0.0,0.0,17.81899,-83.42266,27.61657,7.77,-0.88,3.75,2.0
1758076940.55208,1758076940.50595,0.0,0.0,0.0,24.4653,-74.02615,26.69983,7.77,-0.88,3.75,2.0
1758076940.55328,1758076940.51595,0.0,0.0,0.0,33.11696,-52.19646,25.72581,11.98,-1.46,3.58,2.0
1758076940.5681,1758076940.52595,0.0,0.0,0.0,37.87251,-39.4768,23.0902,11.98,-1.46,3.58,2.0
1758076940.58672,1758076940.53595,0.0,0.0,0.0,41.71133,-32.42941,22.28806,12.55,-1.32,3.31,2.0
1758076940.58931,1758076940.54595,0.0,0.0,0.0,42.85724,-21.42862,18.73572,12.55,-1.32,3.31,2.0
1758076940.60609,1758076940.55595,0.0,0.0,0.0,40.7373,1.43239,11.45916,11.88,-0.89,1.87,2.0
1758076940.60736,1758076940.56595,0.0,0.0,0.0,37.52874,16.272,6.07335,11.62,-0.05,1.01,2.0
1758076940.62873,1758076940.57595,0.0,0.0,0.0,33.86181,28.59059,0.85944,11.62,-0.05,1.01,2.0
1758076940.64282,1758076940.58595,0.0,0.0,0.0,29.8511,38.84654,-5.50039,10.96,0.82,1.09,2.0
1758076940.64399,1758076940.59595,0.0,0.0,0.0,23.26209,53.11319,-8.59437,10.96,0.82,1.09,2.0
1758076940.65274,1758076940.60595,0.0,0.0,0.0,19.07949,60.04598,-10.02676,10.89,1.5,0.87,2.0
1758076940.65323,1758076940.61595,0.0,0.0,0.0,15.35527,64.62964,-9.85487,10.89,1.5,0.87,2.0
1758076940.67126,1758076940.62595,0.0,0.0,0.0,11.22997,68.41116,-8.02141,10.39,1.77,0.87,2.0
1758076940.6721,1758076940.63595,0.0,0.0,0.0,8.76626,69.67168,-5.4431,10.06,1.42,1.12,2.0
1758076940.68837,1758076940.64595,0.0,0.0,0.0,7.04738,69.3279,-3.49504,10.06,1.42,1.12,2.0
1758076940.70689,1758076940.65595,0.0,0.0,0.0,6.13065,68.64035,-1.60428,9.47,0.78,1.49,2.0
1758076940.70929,1758076940.66595,0.0,0.0,0.0,5.61499,67.32255,-0.40107,9.47,0.78,1.49,2.0
1758076940.71331,1758076940.67595,0.0,0.0,0.0,5.61499,65.2599,-0.51566,8.75,0.11,1.61,2.0
1758076940.73719,1758076940.68595,0.0,0.0,0.0,5.72958,62.22322,-1.14592,8.75,0.11,1.61,2.0
1758076940.74225,1758076940.69595,0.0,0.0,0.0,5.72958,58.67088,-2.34913,7.94,-0.38,1.88,2.0
1758076940.74328,1758076940.70595,0.0,0.0,0.0,5.15662,50.363,-4.0107,7.36,-0.54,1.64,2.0
1758076940.75998,1758076940.71595,0.0,0.0,0.0,4.52637,43.83128,-5.27121,7.36,-0.54,1.64,2.0
1758076940.77769,1758076940.72595,0.0,0.0,0.0,3.89611,36.21093,-6.35983,7.0,-0.39,1.31,2.0
1758076940.77893,1758076940.73595,0.0,0.0,0.0,3.03668,28.476,-6.99009,7.0,-0.39,1.31,2.0
1758076940.79579,1758076940.74595,0.0,0.0,0.0,1.66158,17.58981,-7.21927,7.03,-0.04,1.01,2.0
1758076940.80251,1758076940.75595,0.0,0.0,0.0,0.40107,10.8862,-6.87549,7.03,-0.04,1.01,2.0
1758076940.80428,1758076940.76595,0.0,0.0,0.0,-0.85944,5.21392,-6.35983,7.29,0.35,1.02,2.0
1758076940.82216,1758076940.77595,0.0,0.0,0.0,-2.11994,1.43239,-5.55769,7.29,0.35,1.02,2.0
1758076940.82335,1758076940.78595,0.0,0.0,0.0,-3.83882,-2.00535,-3.95341,7.92,0.64,1.04,2.0
1758076940.83818,1758076940.79595,0.0,0.0,0.0,-4.64096,-4.58366,-3.32316,8.61,0.55,0.96,2.0
1758076940.8553,1758076940.80595,0.0,0.0,0.0,-5.4431,-7.10468,-3.38045,8.61,0.55,0.96,2.0
1758076940.85703,1758076940.81595,0.0,0.0,0.0,-5.95876,-9.4538,-3.55234,9.01,0.17,0.83,2.0
1758076940.87244,1758076940.82595,0.0,0.0,0.0,-6.35983,-13.17803,-3.95341,9.01,0.17,0.83,2.0
1758076940.87334,1758076940.83595,0.0,0.0,0.0,-6.47442,-15.58445,-4.23989,9.08,-0.22,0.57,2.0
1758076940.88824,1758076940.84595,0.0,0.0,0.0,-7.10468,-18.85031,-4.46907,9.08,-0.22,0.57,2.0
1758076940.90503,1758076940.85595,0.0,0.0,0.0,-8.02141,-22.74642,-5.21392,8.89,-0.46,0.49,2.0
1758076940.90619,1758076940.86595,0.0,0.0,0.0,-8.42248,-25.8404,-5.32851,9.07,-0.62,0.44,2.0
1758076940.92155,1758076940.87595,0.0,0.0,0.0,-8.76626,-29.33544,-5.84417,9.07,-0.62,0.44,2.0
1758076940.92345,1758076940.88595,0.0,0.0,0.0,-9.62569,-32.42941,-5.95876,9.52,-0.68,0.49,2.0
1758076940.94339,1758076940.89595,0.0,0.0,0.0,-11.11538,-35.12231,-4.87014,9.52,-0.68,0.49,2.0
1758076940.94867,1758076940.90595,0.0,0.0,0.0,-12.37589,-35.12231,-3.60963,10.23,-0.57,0.27,2.0
1758076940.96403,1758076940.91595,0.0,0.0,0.0,-13.86558,-34.32018,-2.00535,10.23,-0.57,0.27,2.0
1758076940.97188,1758076940.92595,0.0,0.0,0.0,-15.64175,-32.42941,-0.45837,10.89,-0.33,0.06,2.0
1758076940.97225,1758076940.93595,0.0,0.0,0.0,-18.56383,-29.10626,1.3178,11.16,-0.03,-0.31,2.0
1758076940.98849,1758076940.94595,0.0,0.0,0.0,-20.51189,-25.72581,1.48969,11.16,-0.03,-0.31,2.0
1758076941.00705,1758076940.95595,0.0,0.0,0.0,-22.63183,-22.23076,0.74485,11.18,0.16,-0.54,2.0
1758076941.01329,1758076940.96595,0.0,0.0,0.0,-24.5226,-19.25138,-0.57296,11.18,0.16,-0.54,2.0
1758076941.01441,1758076940.97595,0.0,0.0,0.0,-26.01229,-19.36597,-3.03668,11.51,0.06,-0.03,2.0
1758076941.03362,1758076940.98595,0.0,0.0,0.0,-25.8404,-22.23076,-4.87014,11.51,0.06,-0.03,2.0
1758076941.0354,1758076940.99595,0.0,0.0,0.0,-24.57989,-27.04361,-6.70361,12.09,-0.38,0.69,2.0
1758076941.0505,1758076941.00595,0.0,0.0,0.0,-22.40265,-34.0337,-9.62569,12.09,-0.38,0.69,2.0
1758076941.06726,1758076941.01595,0.0,0.0,0.0,-18.9649,-45.20637,-11.86023,12.13,-0.78,1.33,2.0
1758076941.07094,1758076941.02595,0.0,0.0,0.0,-15.58445,-48.64412,-14.15206,13.13,-0.91,2.53,2.0
1758076941.08703,1758076941.03595,0.0,0.0,0.0,-13.23533,-53.28508,-17.58981,13.13,-0.91,2.53,2.0
1758076941.0892,1758076941.04595,0.0,0.0,0.0,-10.19865,-50.363,-18.9649,14.07,-0.33,3.59,2.0
1758076941.10705,1758076941.05595,0.0,0.0,0.0,-9.33921,-48.52953,-17.47521,14.07,-0.33,3.59,2.0
1758076941.11173,1758076941.06595,0.0,0.0,0.0,-11.51645,-46.35228,-15.69904,12.3,1.08,3.21,2.0
1758076941.114,1758076941.07595,0.0,0.0,0.0,-14.38124,-41.76862,-13.5791,12.3,1.08,3.21,2.0
1758076941.13114,1758076941.08595,0.0,0.0,0.0,-23.37668,-40.7373,-12.204,9.85,1.6,3.57,2.0
1758076941.14732,1758076941.09595,0.0,0.0,0.0,-31.45539,-35.40879,-13.00614,8.81,1.29,4.81,2.0
1758076941.14827,1758076941.10595,0.0,0.0,0.0,-40.04975,-23.20479,-14.32395,8.81,1.29,4.81,2.0
1758076941.16354,1758076941.11595,0.0,0.0,0.0,-46.35228,-11.74564,-14.20935,10.72,0.68,3.94,2.0
1758076941.16444,1758076941.12595,0.0,0.0,0.0,-53.28508,-29.27814,-16.50119,10.72,0.68,3.94,2.0
1758076941.18005,1758076941.13595,0.0,0.0,0.0,-54.3164,-38.50277,-16.21471,9.22,0.13,2.74,2.0
1758076941.1868,1758076941.14595,0.0,0.0,0.0,-53.62885,-48.8733,-16.50119,9.22,0.13,2.74,2.0
1758076941.20252,1758076941.15595,0.0,0.0,0.0,-51.85268,-51.50891,-15.64175,10.17,-0.49,0.68,2.0
1758076941.20384,1758076941.16595,0.0,0.0,0.0,-46.81066,-9.33921,-13.46451,14.24,-0.77,0.46,2.0
1758076941.21859,1758076941.17595,0.0,0.0,0.0,-48.9879,26.47065,-13.75099,14.24,-0.77,0.46,2.0
1758076941.23429,1758076941.18595,0.0,0.0,0.0,-48.01387,42.62806,-11.11538,12.86,-1.1,0.33,2.0
1758076941.23715,1758076941.19595,0.0,0.0,0.0,-45.72203,44.8053,-10.31324,12.86,-1.1,0.33,2.0
1758076941.25257,1758076941.20595,0.0,0.0,0.0,-39.4768,43.02913,-9.22462,8.51,-0.92,2.11,2.0
1758076941.25349,1758076941.21595,0.0,0.0,0.0,-34.72124,46.52417,-8.30789,8.51,-0.92,2.11,2.0
1758076941.26832,1758076941.22595,0.0,0.0,0.0,-30.99702,50.64947,-6.7609,9.05,-1.32,0.07,2.0
1758076941.28456,1758076941.23595,0.0,0.0,0.0,-26.81443,52.884,-4.29718,9.05,-1.32,0.07,2.0
1758076941.2855,1758076941.24595,0.0,0.0,0.0,-24.5226,54.77477,-3.26586,9.08,-1.53,0.54,2.0
1758076941.30034,1758076941.25595,0.0,0.0,0.0,-22.11617,56.14987,-2.29183,8.75,-1.21,0.75,2.0
1758076941.30229,1758076941.26595,0.0,0.0,0.0,-20.68378,57.63955,-1.94806,8.75,-1.21,0.75,2.0
1758076941.31861,1758076941.27595,0.0,0.0,0.0,-19.59516,57.41038,-2.11994,8.26,-0.72,0.86,2.0
1758076941.33526,1758076941.28595,0.0,0.0,0.0,-19.99623,55.40502,-2.63561,8.26,-0.72,0.86,2.0
1758076941.33727,1758076941.29595,0.0,0.0,0.0,-20.97026,52.42564,-3.60963,7.53,-0.2,0.69,2.0
1758076941.35228,1758076941.30595,0.0,0.0,0.0,-22.28806,50.47758,-4.23989,7.53,-0.2,0.69,2.0
1758076941.35343,1758076941.31595,0.0,0.0,0.0,-24.29341,47.61279,-4.98473,7.61,0.14,0.81,2.0
1758076941.36857,1758076941.32595,0.0,0.0,0.0,-25.72581,44.9199,-4.92744,7.97,0.2,0.84,2.0
1758076941.38668,1758076941.33595,0.0,0.0,0.0,-26.75713,42.39888,-4.81285,7.97,0.2,0.84,2.0
1758076941.38868,1758076941.34595,0.0,0.0,0.0,-27.73116,40.16434,-4.23989,8.44,0.0,0.89,2.0
1758076941.40457,1758076941.35595,0.0,0.0,0.0,-28.30412,37.58603,-3.26586,8.44,0.0,0.89,2.0
1758076941.40554,1758076941.36595,0.0,0.0,0.0,-28.07493,35.92446,-2.40642,8.99,-0.35,0.67,2.0
1758076941.42056,1758076941.37595,0.0,0.0,0.0,-27.61657,33.17426,-1.48969,8.99,-0.35,0.67,2.0
1758076941.43738,1758076941.38595,0.0,0.0,0.0,-26.64254,29.33544,-0.74485,9.04,-0.65,0.27,2.0
1758076941.43912,1758076941.39595,0.0,0.0,0.0,-24.4653,23.72045,0.0573,8.97,-0.86,0.14,2.0
1758076941.45538,1758076941.40595,0.0,0.0,0.0,-22.63183,19.42327,0.34377,8.97,-0.86,0.14,2.0
1758076941.46013,1758076941.41595,0.0,0.0,0.0,-20.34,14.78231,0.45837,8.75,-0.95,0.02,2.0
1758076941.47432,1758076941.42595,0.0,0.0,0.0,-17.76169,10.8862,0.17189,8.75,-0.95,0.02,2.0
1758076941.47567,1758076941.43595,0.0,0.0,0.0,-14.09476,8.136,-0.22918,8.86,-0.94,0.08,2.0
1758076941.49037,1758076941.44595,0.0,0.0,0.0,-11.57375,7.67763,-1.14592,8.86,-0.94,0.08,2.0
1758076941.50828,1758076941.45595,0.0,0.0,0.0,-9.11003,7.10468,-1.94806,9.13,-0.95,0.19,2.0
1758076941.51085,1758076941.46595,0.0,0.0,0.0,-5.32851,4.64096,-2.63561,9.13,-0.95,0.19,2.0
1758076941.52744,1758076941.47595,0.0,0.0,0.0,-2.92208,2.46372,-2.86479,9.27,-0.95,0.35,2.0
1758076941.5286,1758076941.48595,0.0,0.0,0.0,-0.40107,-0.97403,-2.40642,9.46,-1.01,0.22,2.0
1758076941.54359,1758076941.49595,0.0,0.0,0.0,2.23454,-4.64096,-1.48969,9.46,-1.01,0.22,2.0
1758076941.54456,1758076941.50595,0.0,0.0,0.0,5.78687,-10.25595,0.34377,9.85,-1.09,-0.08,2.0
1758076941.56045,1758076941.51595,0.0,0.0,0.0,8.42248,-15.06879,1.60428,9.85,-1.09,-0.08,2.0
1758076941.57801,1758076941.52595,0.0,0.0,0.0,10.37054,-21.37133,2.92208,10.14,-1.1,-0.25,2.0
1758076941.58026,1758076941.53595,0.0,0.0,0.0,11.80293,-28.36141,3.72423,10.14,-1.1,-0.25,2.0
1758076941.60627,1758076941.54595,0.0,0.0,0.0,12.89155,-40.68,6.47442,10.44,-1.1,0.43,2.0
1758076941.60708,1758076941.55595,0.0,0.0,0.0,12.89155,-47.49821,9.4538,12.44,-1.0,2.0,2.0
1758076941.60804,1758076941.56595,0.0,0.0,0.0,10.65701,-51.27972,13.69369,12.44,-1.0,2.0,2.0
1758076941.62367,1758076941.57595,0.0,0.0,0.0,7.39116,-51.10783,17.93358,15.49,0.21,4.27,2.0
1758076941.62492,1758076941.58595,0.0,0.0,0.0,1.71887,-43.25832,22.40265,15.49,0.21,4.27,2.0
1758076941.63966,1758076941.59595,0.0,0.0,0.0,-0.80214,-33.86181,23.0329,15.48,1.03,3.55,2.0
1758076941.65726,1758076941.60595,0.0,0.0,0.0,-2.40642,-27.38738,22.34536,15.48,1.03,3.55,2.0
1758076941.65849,1758076941.61595,0.0,0.0,0.0,-1.43239,-29.73651,21.60051,13.05,0.55,2.33,2.0
1758076941.6734,1758076941.62595,0.0,0.0,0.0,0.17189,-49.50356,16.04282,10.01,-0.33,2.47,2.0
1758076941.6757,1758076941.63595,0.0,0.0,0.0,2.63561,-56.66553,13.98017,10.01,-0.33,2.47,2.0
1758076941.69309,1758076941.64595,0.0,0.0,0.0,5.84417,-54.3737,12.77696,11.07,-0.81,3.38,2.0
1758076941.69754,1758076941.65595,0.0,0.0,0.0,11.80293,-45.49285,13.98017,11.07,-0.81,3.38,2.0
1758076941.71271,1758076941.66595,0.0,0.0,0.0,16.21471,-23.72045,15.35527,11.69,-0.63,4.34,2.0
1758076941.71359,1758076941.67595,0.0,0.0,0.0,19.59516,-5.4431,16.84496,11.69,-0.63,4.34,2.0
1758076941.72874,1758076941.68595,0.0,0.0,0.0,22.28806,8.93814,17.76169,10.47,-0.26,3.77,2.0
1758076941.74545,1758076941.69595,0.0,0.0,0.0,23.37668,-2.86479,16.84496,10.47,-0.26,3.77,2.0
1758076941.74898,1758076941.70595,0.0,0.0,0.0,28.13223,-41.48215,19.36597,6.67,-0.41,2.74,2.0
1758076941.76476,1758076941.71595,0.0,0.0,0.0,31.11161,-39.07573,17.93358,7.21,-0.81,2.48,2.0
1758076941.76674,1758076941.72595,0.0,0.0,0.0,34.0337,-21.25674,20.79837,7.21,-0.81,2.48,2.0
1758076941.78335,1758076941.73595,0.0,0.0,0.0,35.69527,2.97938,12.2613,13.58,-0.72,1.69,2.0
1758076941.7885,1758076941.74595,0.0,0.0,0.0,35.69527,14.9542,8.93814,13.58,-0.72,1.69,2.0
1758076941.80375,1758076941.75595,0.0,0.0,0.0,34.66395,26.64254,6.47442,11.36,0.16,2.18,2.0
1758076941.807,1758076941.76595,0.0,0.0,0.0,31.74186,37.12767,3.26586,11.36,0.16,2.18,2.0
1758076941.82277,1758076941.77595,0.0,0.0,0.0,25.09555,44.11775,-1.14592,9.5,0.82,1.15,2.0
1758076941.82472,1758076941.78595,0.0,0.0,0.0,20.51189,43.83128,-3.26586,8.24,1.46,0.77,2.0
1758076941.83979,1758076941.79595,0.0,0.0,0.0,16.67307,43.94586,-4.29718,8.24,1.46,0.77,2.0
1758076941.85668,1758076941.80595,0.0,0.0,0.0,13.40721,47.26902,-4.58366,9.02,1.63,1.33,2.0
1758076941.85758,1758076941.81595,0.0,0.0,0.0,10.08406,51.73809,-3.83882,9.02,1.63,1.33,2.0
1758076941.8725,1758076941.82595,0.0,0.0,0.0,9.4538,51.79538,-2.34913,9.26,1.16,1.3,2.0
1758076941.87451,1758076941.83595,0.0,0.0,0.0,10.02676,51.10783,-1.20321,9.26,1.16,1.3,2.0
1758076941.89054,1758076941.84595,0.0,0.0,0.0,11.51645,49.04519,0.80214,8.6,0.33,1.75,2.0
1758076941.8931,1758076941.85595,0.0,0.0,0.0,15.0115,45.49285,1.48969,8.3,-0.51,1.68,2.0
1758076941.90853,1758076941.86595,0.0,0.0,0.0,17.87628,42.62806,2.29183,8.3,-0.51,1.68,2.0
1758076941.91284,1758076941.87595,0.0,0.0,0.0,20.97026,40.7373,2.86479,8.3,-0.97,1.88,2.0
1758076941.92878,1758076941.88595,0.0,0.0,0.0,24.86637,36.89849,3.60963,8.3,-0.97,1.88,2.0
1758076941.94555,1758076941.89595,0.0,0.0,0.0,26.75713,34.60666,3.95341,8.35,-1.01,1.84,2.0
1758076941.95234,1758076941.90595,0.0,0.0,0.0,27.84575,31.79916,4.46907,8.35,-1.01,1.84,2.0
1758076941.95293,1758076941.91595,0.0,0.0,0.0,28.30412,28.64789,4.69825,8.42,-0.68,1.72,2.0
1758076941.96856,1758076941.92595,0.0,0.0,0.0,27.50197,22.86102,5.32851,8.42,-0.68,1.43,2.0
1758076941.98658,1758076941.93595,0.0,0.0,0.0,25.8404,19.19409,5.4431,8.46,-0.04,1.43,2.0
1758076941.9875,1758076941.94595,0.0,0.0,0.0,23.60586,15.46986,5.32851,8.56,0.71,1.27,2.0
1758076942.00278,1758076941.95595,0.0,0.0,0.0,20.74107,11.45916,4.64096,8.56,0.71,1.27,2.0
1758076942.00376,1758076941.96595,0.0,0.0,0.0,15.41257,8.42248,2.92208,8.54,1.25,1.02,2.0
1758076942.01854,1758076941.97595,0.0,0.0,0.0,11.97482,7.16197,1.48969,8.54,1.25,1.02,2.0
1758076942.02332,1758076941.98595,0.0,0.0,0.0,8.59437,5.61499,0.22918,8.65,1.35,0.86,2.0
1758076942.03883,1758076941.99595,0.0,0.0,0.0,5.4431,3.38045,-0.68755,8.65,1.35,0.86,2.0
1758076942.05715,1758076942.00595,0.0,0.0,0.0,1.3751,-1.43239,-1.77617,8.66,1.09,0.84,2.0
1758076942.05836,1758076942.01595,0.0,0.0,0.0,-0.80214,-5.4431,-2.23454,8.76,0.74,0.78,2.0
1758076942.07362,1758076942.02595,0.0,0.0,0.0,-2.7502,-11.80293,-1.77617,8.76,0.74,0.78,2.0
1758076942.07554,1758076942.03595,0.0,0.0,0.0,-4.46907,-18.79302,-1.71887,8.79,0.34,1.04,2.0
1758076942.09183,1758076942.04595,0.0,0.0,0.0,-6.41713,-29.39274,-1.14592,8.79,0.34,1.04,2.0
1758076942.09318,1758076942.05595,0.0,0.0,0.0,-7.39116,-35.52338,-0.80214,9.04,-0.06,1.08,2.0
1758076942.10859,1758076942.06595,0.0,0.0,0.0,-8.02141,-40.85189,-0.34377,9.04,-0.06,1.08,2.0
1758076942.12681,1758076942.07595,0.0,0.0,0.0,-8.30789,-46.1231,0.85944,9.31,-0.18,0.84,2.0
1758076942.12778,1758076942.08595,0.0,0.0,0.0,-8.30789,-54.02992,1.03132,9.4,-0.07,0.69,2.0
1758076942.1426,1758076942.09595,0.0,0.0,0.0,-8.0787,-59.64491,1.3178,9.4,-0.07,0.69,2.0
1758076942.1438,1758076942.10595,0.0,0.0,0.0,-8.136,-63.02536,1.60428,9.98,-0.11,0.05,2.0
1758076942.15857,1758076942.11595,0.0,0.0,0.0,-8.88085,-59.01466,1.83346,9.98,-0.11,0.05,2.0
1758076942.16282,1758076942.12595,0.0,0.0,0.0,-10.02676,-51.5662,1.77617,11.31,-0.25,-0.63,2.0
1758076942.18163,1758076942.13595,0.0,0.0,0.0,-11.80293,-43.77398,1.20321,11.31,-0.25,-0.63,2.0
1758076942.18352,1758076942.14595,0.0,0.0,0.0,-13.75099,-36.55471,0.0,11.63,-0.09,-1.0,2.0
1758076942.19858,1758076942.15595,0.0,0.0,0.0,-15.29797,-30.76784,-2.92208,11.42,0.07,-0.38,2.0
1758076942.20371,1758076942.16595,0.0,0.0,0.0,-14.72501,-32.42941,-5.61499,11.42,0.07,-0.38,2.0
1758076942.21859,1758076942.17595,0.0,0.0,0.0,-12.204,-36.38282,-8.42248,11.59,-0.13,1.01,2.0
1758076942.22309,1758076942.18595,0.0,0.0,0.0,-8.36518,-41.99781,-11.57375,11.59,-0.13,1.01,2.0
1758076942.23886,1758076942.19595,0.0,0.0,0.0,-1.71887,-48.12846,-16.67307,12.17,-0.49,2.28,2.0
1758076942.25596,1758076942.20595,0.0,0.0,0.0,4.52637,-48.12846,-17.87628,12.17,-0.49,2.28,2.0
1758076942.25836,1758076942.21595,0.0,0.0,0.0,8.02141,-54.60288,-20.3973,13.26,-0.78,2.44,2.0
1758076942.27396,1758076942.22595,0.0,0.0,0.0,9.91217,-65.14531,-22.57454,13.26,-0.78,2.44,2.0
1758076942.27563,1758076942.23595,0.0,0.0,0.0,10.71431,-64.91612,-21.02755,12.37,-0.45,2.57,2.0
1758076942.29189,1758076942.24595,0.0,0.0,0.0,9.5684,-60.44705,-18.62113,12.01,0.53,2.04,2.0
1758076942.29323,1758076942.25595,0.0,0.0,0.0,6.07335,-54.71747,-16.95955,12.01,0.53,2.04,2.0
1758076942.31064,1758076942.26595,0.0,0.0,0.0,0.57296,-49.56085,-14.83961,10.38,1.08,3.33,2.0
1758076942.32665,1758076942.27595,0.0,0.0,0.0,-11.51645,-49.90463,-14.9542,10.38,1.08,3.33,2.0
1758076942.32741,1758076942.28595,0.0,0.0,0.0,-21.08485,-48.9879,-15.0115,8.81,1.24,4.35,2.0
1758076942.34763,1758076942.29595,0.0,0.0,0.0,-30.02299,-43.37291,-15.24068,8.81,1.24,4.35,2.0
1758076942.34859,1758076942.30595,0.0,0.0,0.0,-38.84654,-33.11696,-15.06879,10.05,1.23,3.29,2.0
1758076942.35319,1758076942.31595,0.0,0.0,0.0,-41.13837,-26.69983,-13.69369,11.19,0.72,2.11,2.0
1758076942.36865,1758076942.32595,0.0,0.0,0.0,-40.7946,-14.49583,-11.80293,11.19,0.72,2.11,2.0
1758076942.38774,1758076942.33595,0.0,0.0,0.0,-39.53409,5.61499,-9.62569,12.93,0.02,1.31,2.0
1758076942.38813,1758076942.34595,0.0,0.0,0.0,-38.56006,30.02299,-8.136,12.93,0.02,1.31,2.0
1758076942.40385,1758076942.35595,0.0,0.0,0.0,-36.21093,39.01843,-7.16197,12.37,-0.68,0.87,2.0
1758076942.40511,1758076942.36595,0.0,0.0,0.0,-33.05967,41.36755,-6.70361,12.37,-0.68,0.87,2.0
1758076942.42074,1758076942.37595,0.0,0.0,0.0,-29.33544,43.20102,-7.04738,10.31,-1.18,0.83,2.0
1758076942.42324,1758076942.38595,0.0,0.0,0.0,-22.91831,47.72739,-6.53172,9.86,-1.7,0.34,2.0
1758076942.43998,1758076942.39595,0.0,0.0,0.0,-19.13679,49.15978,-5.95876,9.86,-1.7,0.34,2.0
1758076942.45582,1758076942.40595,0.0,0.0,0.0,-15.46986,51.22243,-5.4431,9.45,-1.88,0.52,2.0
1758076942.45758,1758076942.41595,0.0,0.0,0.0,-11.97482,52.13916,-4.58366,9.45,-1.88,0.52,2.0
1758076942.47287,1758076942.42595,0.0,0.0,0.0,-7.96411,50.99325,-3.09397,9.04,-1.49,0.64,2.0
1758076942.47391,1758076942.43595,0.0,0.0,0.0,-5.95876,48.9879,-2.23454,9.04,-1.49,0.64,2.0
1758076942.48969,1758076942.44595,0.0,0.0,0.0,-4.98473,44.57612,-1.43239,8.46,-0.87,0.71,2.0
1758076942.50593,1758076942.45595,0.0,0.0,0.0,-4.81285,39.87786,-1.03132,8.46,-0.87,0.71,2.0
1758076942.50636,1758076942.46595,0.0,0.0,0.0,-5.61499,33.74722,-1.3751,7.91,-0.25,0.65,2.0
1758076942.52194,1758076942.47595,0.0,0.0,0.0,-6.35983,29.67921,-1.43239,7.76,0.19,0.77,2.0
1758076942.52289,1758076942.48595,0.0,0.0,0.0,-7.10468,25.38203,-2.11994,7.76,0.19,0.77,2.0
1758076942.53768,1758076942.49595,0.0,0.0,0.0,-7.84952,20.85567,-3.03668,7.68,0.35,0.81,2.0
1758076942.55378,1758076942.50595,0.0,0.0,0.0,-8.42248,14.83961,-3.49504,7.68,0.35,0.81,2.0
1758076942.55496,1758076942.51595,0.0,0.0,0.0,-9.05273,11.91752,-3.83882,8.01,0.18,0.75,2.0
1758076942.59661,1758076942.52595,0.0,0.0,0.0,-9.5684,10.25595,-3.72423,8.01,0.18,0.75,2.0
1758076942.60264,1758076942.53595,0.0,0.0,0.0,-10.31324,9.39651,-3.49504,8.53,-0.2,0.37,2.0
1758076942.60319,1758076942.54595,0.0,0.0,0.0,-11.11538,8.42248,-3.60963,8.85,-0.48,0.26,2.0
1758076942.61192,1758076942.55595,0.0,0.0,0.0,-11.91752,7.50575,-3.20856,8.85,-0.48,0.26,2.0
1758076942.61237,1758076942.56595,0.0,0.0,0.0,-12.49048,6.53172,-3.03668,9.02,-0.56,0.12,2.0
1758076942.61354,1758076942.57595,0.0,0.0,0.0,-13.12073,5.27121,-2.7502,9.02,-0.56,0.12,2.0
1758076942.62994,1758076942.58595,0.0,0.0,0.0,-13.00614,3.72423,-2.86479,9.16,-0.44,-0.08,2.0
1758076942.64653,1758076942.59595,0.0,0.0,0.0,-12.77696,4.0107,-3.20856,9.16,-0.44,-0.08,2.0
1758076942.64904,1758076942.60595,0.0,0.0,0.0,-12.2613,4.87014,-3.55234,9.26,-0.16,-0.15,2.0
1758076942.68675,1758076942.61595,0.0,0.0,0.0,-10.94349,6.99009,-4.29718,9.3,0.04,-0.19,2.0
1758076942.68715,1758076942.62595,0.0,0.0,0.0,-9.39651,8.70896,-4.64096,9.3,0.04,-0.19,2.0
1758076942.69064,1758076942.63595,0.0,0.0,0.0,-7.50575,10.59972,-4.58366,9.49,0.0,-0.16,2.0
1758076942.69125,1758076942.64595,0.0,0.0,0.0,-5.27121,12.83425,-4.29718,9.49,0.0,-0.16,2.0
1758076942.70707,1758076942.65595,0.0,0.0,0.0,-1.3751,15.35527,-3.03668,9.8,-0.44,-0.23,2.0
1758076942.70745,1758076942.66595,0.0,0.0,0.0,1.43239,14.20935,-1.66158,9.8,-0.44,-0.23,2.0
1758076942.72299,1758076942.67595,0.0,0.0,0.0,4.69825,12.14671,0.0,9.81,-1.08,-0.13,2.0
1758076942.72434,1758076942.68595,0.0,0.0,0.0,8.30789,8.76626,2.7502,9.81,-1.08,-0.13,2.0
1758076942.74295,1758076942.69595,0.0,0.0,0.0,12.71966,-0.51566,3.89611,9.89,-1.62,-0.4,2.0
1758076942.74426,1758076942.70595,0.0,0.0,0.0,15.24068,-4.98473,5.4431,10.09,-1.75,-0.66,2.0
1758076942.75876,1758076942.71595,0.0,0.0,0.0,18.9649,-4.23989,5.4431,10.09,-1.75,-0.66,2.0
1758076942.7747,1758076942.72595,0.0,0.0,0.0,24.86637,-0.51566,5.78687,11.27,-1.64,-0.56,2.0
1758076942.77633,1758076942.73595,0.0,0.0,0.0,28.476,0.11459,5.95876,11.27,-1.64,-0.56,2.0
1758076942.792,1758076942.74595,0.0,0.0,0.0,30.99702,-3.26586,7.04738,12.18,-1.39,1.07,2.0
1758076942.79325,1758076942.75595,0.0,0.0,0.0,30.59595,-10.02676,8.99544,12.18,-1.39,1.07,2.0
1758076942.80794,1758076942.76595,0.0,0.0,0.0,24.86637,-19.36597,13.98017,13.93,-0.57,3.58,2.0
1758076942.82408,1758076942.77595,0.0,0.0,0.0,19.25138,-23.54857,16.61578,14.86,0.78,3.46,2.0
1758076942.82521,1758076942.78595,0.0,0.0,0.0,14.72501,-27.2155,18.73572,14.86,0.78,3.46,2.0
1758076942.8408,1758076942.79595,0.0,0.0,0.0,10.65701,-29.96569,19.13679,12.68,1.21,1.46,2.0
1758076942.84363,1758076942.80595,0.0,0.0,0.0,6.13065,-35.92446,18.27736,12.68,1.21,1.46,2.0
1758076942.8588,1758076942.81595,0.0,0.0,0.0,4.52637,-39.24761,17.13144,10.95,0.69,1.49,2.0
1758076942.87477,1758076942.82595,0.0,0.0,0.0,4.92744,-42.62806,16.04282,10.95,0.69,1.49,2.0
1758076942.87594,1758076942.83595,0.0,0.0,0.0,5.61499,-46.1231,14.43854,10.31,0.0,2.99,2.0
1758076942.89185,1758076942.84595,0.0,0.0,0.0,9.05273,-47.72739,13.12073,9.74,-0.37,3.81,2.0
1758076942.89276,1758076942.85595,0.0,0.0,0.0,11.51645,-39.76327,12.37589,9.74,-0.37,3.81,2.0
1758076942.90882,1758076942.86595,0.0,0.0,0.0,15.41257,-25.49662,12.89155,9.96,-0.41,3.34,2.0
1758076942.91609,1758076942.87595,0.0,0.0,0.0,18.27736,-28.07493,12.77696,9.96,-0.41,3.34,2.0
1758076942.93177,1758076942.88595,0.0,0.0,0.0,24.17882,-43.65939,17.47521,7.26,-0.42,2.79,2.0
1758076942.93296,1758076942.89595,0.0,0.0,0.0,26.69983,-42.68536,20.34,7.26,-0.42,2.79,2.0
1758076942.94808,1758076942.90595,0.0,0.0,0.0,27.04361,-33.40344,19.36597,10.0,-0.82,1.9,2.0
1758076942.96381,1758076942.91595,0.0,0.0,0.0,24.86637,-18.9649,14.83961,10.0,-0.82,1.9,2.0
1758076942.96523,1758076942.92595,0.0,0.0,0.0,22.00158,4.1253,10.8862,11.96,-0.18,1.44,2.0
1758076942.98003,1758076942.93595,0.0,0.0,0.0,18.33465,18.9649,6.99009,11.36,0.79,0.86,2.0
1758076942.9826,1758076942.94595,0.0,0.0,0.0,14.09476,32.77319,2.46372,11.36,0.79,0.86,2.0
1758076942.99906,1758076942.95595,0.0,0.0,0.0,6.58902,46.00851,-3.95341,10.24,1.67,0.34,2.0
1758076943.01508,1758076942.96595,0.0,0.0,0.0,2.00535,50.3057,-6.8182,10.24,1.67,0.34,2.0
1758076943.01791,1758076942.97595,0.0,0.0,0.0,-1.60428,53.17049,-8.65166,9.59,2.03,0.25,2.0
1758076943.03311,1758076942.98595,0.0,0.0,0.0,-4.1253,56.78012,-9.33921,9.59,2.03,0.25,2.0
1758076943.03516,1758076942.99595,0.0,0.0,0.0,-6.41713,61.42108,-8.30789,10.14,1.69,0.52,2.0
1758076943.05156,1758076943.00595,0.0,0.0,0.0,-6.58902,63.65561,-7.04738,10.37,0.87,0.8,2.0
1758076943.05282,1758076943.01595,0.0,0.0,0.0,-5.72958,64.80153,-5.27121,10.37,0.87,0.8,2.0
1758076943.0691,1758076943.02595,0.0,0.0,0.0,-4.64096,65.03072,-4.1253,9.86,0.05,1.22,2.0
1758076943.07157,1758076943.03595,0.0,0.0,0.0,-2.29183,64.22858,-1.48969,9.86,0.05,1.22,2.0
1758076943.09301,1758076943.04595,0.0,0.0,0.0,-0.80214,62.91077,-0.17189,9.12,-0.48,1.35,2.0
1758076943.09548,1758076943.05595,0.0,0.0,0.0,0.11459,61.02001,0.45837,9.12,-0.48,1.35,2.0
1758076943.11315,1758076943.06595,0.0,0.0,0.0,0.85944,57.92604,0.97403,8.24,-0.65,1.52,2.0
1758076943.11517,1758076943.07595,0.0,0.0,0.0,1.08862,49.79003,0.80214,7.46,-0.5,1.66,2.0
1758076943.13081,1758076943.08595,0.0,0.0,0.0,0.68755,43.02913,0.34377,7.46,-0.5,1.66,2.0
1758076943.13214,1758076943.09595,0.0,0.0,0.0,0.0573,35.2942,-0.34377,7.19,-0.1,1.64,2.0
1758076943.14825,1758076943.10595,0.0,0.0,0.0,-0.57296,27.38738,-2.00535,7.19,-0.1,1.64,2.0
1758076943.16417,1758076943.11595,0.0,0.0,0.0,-2.06265,16.73037,-3.26586,7.38,0.39,1.51,2.0
1758076943.16547,1758076943.12595,0.0,0.0,0.0,-3.38045,10.31324,-4.29718,7.38,0.39,1.51,2.0
1758076943.18091,1758076943.13595,0.0,0.0,0.0,-4.81285,4.18259,-5.55769,7.85,0.79,1.51,2.0
1758076943.18337,1758076943.14595,0.0,0.0,0.0,-7.67763,-1.20321,-7.39116,7.85,0.79,1.51,2.0
1758076943.20048,1758076943.15595,0.0,0.0,0.0,-9.74028,-3.20856,-8.47978,8.34,0.93,1.36,2.0
1758076943.20164,1758076943.16595,0.0,0.0,0.0,-11.86023,-4.46907,-9.4538,8.59,0.7,1.28,2.0
1758076943.21754,1758076943.17595,0.0,0.0,0.0,-14.15206,-5.90147,-10.31324,8.59,0.7,1.28,2.0
1758076943.23317,1758076943.18595,0.0,0.0,0.0,-17.24603,-8.47978,-11.22997,8.54,0.21,1.24,2.0
1758076943.23517,1758076943.19595,0.0,0.0,0.0,-19.53786,-10.54242,-11.45916,8.54,0.21,1.24,2.0
1758076943.25095,1758076943.20595,0.0,0.0,0.0,-21.6578,-13.34992,-10.8289,8.49,-0.3,1.14,2.0
1758076943.25213,1758076943.21595,0.0,0.0,0.0,-23.54857,-15.46986,-10.19865,8.49,-0.3,1.14,2.0
1758076943.26827,1758076943.22595,0.0,0.0,0.0,-25.55392,-17.76169,-8.0787,8.61,-0.58,1.01,2.0
1758076943.28405,1758076943.23595,0.0,0.0,0.0,-26.52795,-18.9649,-6.70361,9.12,-0.61,0.93,2.0
1758076943.29067,1758076943.24595,0.0,0.0,0.0,-27.2155,-20.05352,-5.55769,9.12,-0.61,0.93,2.0
1758076943.29127,1758076943.25595,0.0,0.0,0.0,-27.61657,-20.22541,-5.15662,9.91,-0.52,0.57,2.0
1758076943.30832,1758076943.26595,0.0,0.0,0.0,-27.73116,-20.16812,-5.32851,9.91,-0.52,0.57,2.0
1758076943.3258,1758076943.27595,0.0,0.0,0.0,-27.38738,-20.05352,-6.07335,10.74,-0.46,0.14,2.0
1758076943.32987,1758076943.28595,0.0,0.0,0.0,-27.10091,-19.25138,-6.99009,10.74,-0.46,0.14,2.0
1758076943.34522,1758076943.29595,0.0,0.0,0.0,-26.12688,-20.51189,-7.67763,11.17,-0.53,-0.36,2.0
1758076943.34805,1758076943.30595,0.0,0.0,0.0,-24.4653,-25.38203,-7.39116,10.88,-0.74,-0.78,2.0
1758076943.36288,1758076943.31595,0.0,0.0,0.0,-23.31938,-26.81443,-6.99009,10.88,-0.74,-0.78,2.0
1758076943.36493,1758076943.32595,0.0,0.0,0.0,-21.60051,-28.59059,-6.35983,10.99,-0.86,-0.62,2.0
1758076943.37994,1758076943.33595,0.0,0.0,0.0,-19.36597,-29.67921,-6.13065,10.99,-0.86,-0.62,2.0
1758076943.38273,1758076943.34595,0.0,0.0,0.0,-16.10011,-30.19488,-6.53172,11.5,-1.02,0.24,2.0
1758076943.39895,1758076943.35595,0.0,0.0,0.0,-13.12073,-29.39274,-7.44845,11.5,-1.02,0.24,2.0
1758076943.41503,1758076943.36595,0.0,0.0,0.0,-10.02676,-28.13223,-7.73493,12.84,-1.14,1.55,2.0
1758076943.41724,1758076943.37595,0.0,0.0,0.0,-5.27121,-25.49662,-7.44845,12.84,-1.14,1.55,2.0
1758076943.43196,1758076943.38595,0.0,0.0,0.0,-1.94806,-22.74642,-6.53172,13.49,-1.28,2.25,2.0
1758076943.43314,1758076943.39595,0.0,0.0,0.0,0.40107,-25.26744,-6.70361,13.83,-0.84,3.1,2.0
1758076943.44803,1758076943.40595,0.0,0.0,0.0,2.06265,-36.15364,-7.73493,13.83,-0.84,3.1,2.0
1758076943.46426,1758076943.41595,0.0,0.0,0.0,1.3178,-40.16434,-10.54242,13.04,0.37,3.35,2.0
1758076943.47159,1758076943.42595,0.0,0.0,0.0,-0.68755,-35.92446,-10.08406,13.04,0.37,3.35,2.0
1758076943.47211,1758076943.43595,0.0,0.0,0.0,-5.32851,-33.63263,-8.93814,12.57,1.62,2.33,2.0
1758076943.48912,1758076943.44595,0.0,0.0,0.0,-11.86023,-32.77319,-7.44845,12.57,1.62,2.33,2.0
1758076943.49101,1758076943.45595,0.0,0.0,0.0,-24.98096,-34.66395,-7.67763,9.79,2.35,2.63,2.0
1758076943.51221,1758076943.46595,0.0,0.0,0.0,-34.77854,-35.75257,-9.74028,7.97,2.69,3.99,2.0
1758076943.51323,1758076943.47595,0.0,0.0,0.0,-44.17505,-35.75257,-14.15206,7.97,2.69,3.99,2.0
1758076943.53052,1758076943.48595,0.0,0.0,0.0,-51.79538,-35.63798,-18.44924,8.11,2.5,4.31,2.0
1758076943.53259,1758076943.49595,0.0,0.0,0.0,-58.26981,-35.58068,-23.89234,8.11,2.5,4.31,2.0
1758076943.54828,1758076943.50595,0.0,0.0,0.0,-59.70221,-34.0337,-25.09555,8.73,1.74,2.63,2.0
1758076943.5643,1758076943.51595,0.0,0.0,0.0,-60.10328,-29.56462,-24.75178,8.73,1.74,2.63,2.0
1758076943.56756,1758076943.52595,0.0,0.0,0.0,-59.70221,-18.16276,-22.05888,10.01,0.83,1.33,2.0
1758076943.5871,1758076943.53595,0.0,0.0,0.0,-57.92604,-2.57831,-18.27736,11.08,-0.16,1.1,2.0
1758076943.59338,1758076943.54595,0.0,0.0,0.0,-55.40502,5.09932,-14.78231,11.08,-0.16,1.1,2.0
1758076943.59384,1758076943.55595,0.0,0.0,0.0,-51.79538,9.62569,-11.22997,10.48,-1.05,1.49,2.0
1758076943.61104,1758076943.56595,0.0,0.0,0.0,-44.46153,15.29797,-6.99009,10.48,-1.05,1.49,2.0
1758076943.61198,1758076943.57595,0.0,0.0,0.0,-38.44547,20.22541,-4.35448,9.95,-1.79,0.65,2.0
1758076943.62722,1758076943.58595,0.0,0.0,0.0,-31.91375,25.15285,-2.40642,9.95,-1.79,0.65,2.0
1758076943.64425,1758076943.59595,0.0,0.0,0.0,-25.26744,28.99167,-0.45837,9.47,-2.25,0.36,2.0
1758076943.65106,1758076943.60595,0.0,0.0,0.0,-17.18874,37.29956,1.71887,9.47,-2.25,0.44,2.0
1758076943.65143,1758076943.61595,0.0,0.0,0.0,-13.40721,40.33623,2.57831,9.3,-1.95,0.44,2.0
1758076943.66699,1758076943.62595,0.0,0.0,0.0,-10.48513,41.76862,3.09397,8.85,-1.13,0.33,2.0
1758076943.68328,1758076943.63595,0.0,0.0,0.0,-8.93814,42.62806,3.09397,8.85,-1.13,0.33,2.0
1758076943.68422,1758076943.64595,0.0,0.0,0.0,-8.70896,43.37291,3.03668,8.84,-0.28,0.62,2.0
1758076943.69983,1758076943.65595,0.0,0.0,0.0,-9.28192,43.37291,2.57831,8.84,-0.28,0.62,2.0
1758076943.70135,1758076943.66595,0.0,0.0,0.0,-10.94349,42.62806,1.60428,8.91,0.37,0.7,2.0
1758076943.71797,1758076943.67595,0.0,0.0,0.0,-12.83425,41.71133,0.57296,8.91,0.37,0.7,2.0
1758076943.73528,1758076943.68595,0.0,0.0,0.0,-15.75634,38.84654,-0.97403,8.92,0.72,0.97,2.0
1758076943.7429,1758076943.69595,0.0,0.0,0.0,-17.76169,37.24226,-1.77617,8.87,0.64,1.07,2.0
1758076943.74325,1758076943.70595,0.0,0.0,0.0,-19.42327,36.6693,-2.46372,8.87,0.64,1.07,2.0
1758076943.77252,1758076943.71595,0.0,0.0,0.0,-21.02755,36.21093,-2.97938,8.84,0.26,1.0,2.0
1758076943.77777,1758076943.72595,0.0,0.0,0.0,-22.63183,34.77854,-3.09397,8.84,0.26,1.0,2.0
1758076943.77833,1758076943.73595,0.0,0.0,0.0,-22.97561,33.63263,-3.03668,8.68,-0.22,0.82,2.0
1758076943.78354,1758076943.74595,0.0,0.0,0.0,-22.91831,31.79916,-2.63561,8.68,-0.22,0.82,2.0
1758076943.80284,1758076943.75595,0.0,0.0,0.0,-22.00158,28.99167,-1.3178,8.65,-0.67,0.62,2.0
1758076943.80827,1758076943.76595,0.0,0.0,0.0,-20.68378,25.09555,0.17189,8.82,-1.0,0.41,2.0
1758076943.82306,1758076943.77595,0.0,0.0,0.0,-18.56383,22.40265,1.83346,8.82,-1.0,0.41,2.0
1758076943.82906,1758076943.78595,0.0,0.0,0.0,-15.98552,18.9649,4.29718,9.05,-1.19,0.25,2.0
1758076943.83159,1758076943.79595,0.0,0.0,0.0,-11.17268,14.66772,7.62034,9.05,-1.19,0.25,2.0
1758076943.84733,1758076943.80595,0.0,0.0,0.0,-7.44845,12.49048,9.39651,9.28,-1.27,-0.01,2.0
1758076943.86646,1758076943.81595,0.0,0.0,0.0,-3.95341,11.57375,10.65701,9.28,-1.27,-0.01,2.0
1758076943.86762,1758076943.82595,0.0,0.0,0.0,-0.45837,10.71431,11.11538,9.62,-1.29,0.05,2.0
1758076943.88333,1758076943.83595,0.0,0.0,0.0,4.58366,5.4431,11.34457,9.69,-1.19,0.32,2.0
1758076943.88854,1758076943.84595,0.0,0.0,0.0,7.50575,1.3178,11.34457,9.69,-1.19,0.32,2.0
1758076943.92286,1758076943.85595,0.0,0.0,0.0,10.08406,-2.6929,11.34457,10.06,-0.98,0.21,2.0
1758076943.92712,1758076943.86595,0.0,0.0,0.0,12.08941,-6.99009,11.34457,10.06,-0.98,0.21,2.0
1758076943.92753,1758076943.87595,0.0,0.0,0.0,13.5791,-13.17803,11.91752,10.49,-0.67,-0.05,2.0
1758076943.93069,1758076943.88595,0.0,0.0,0.0,14.38124,-16.95955,12.37589,10.49,-0.67,-0.05,2.0
1758076943.93302,1758076943.89595,0.0,0.0,0.0,14.49583,-20.74107,12.77696,10.69,-0.44,-0.2,2.0
1758076943.9482,1758076943.90595,0.0,0.0,0.0,14.38124,-26.01229,13.23533,10.69,-0.44,-0.2,2.0
1758076943.96671,1758076943.91595,0.0,0.0,0.0,14.03747,-36.26823,14.72501,10.67,-0.43,0.19,2.0
1758076944.00218,1758076943.92595,0.0,0.0,0.0,14.03747,-42.85724,15.92823,11.56,-0.45,1.3,2.0
1758076944.02308,1758076943.93595,0.0,0.0,0.0,13.17803,-47.26902,17.6471,11.56,-0.45,1.3,2.0
1758076944.03305,1758076943.94595,0.0,0.0,0.0,12.83425,-48.75871,20.51189,13.41,-0.05,2.58,2.0
1758076944.03341,1758076943.95595,0.0,0.0,0.0,13.80828,-44.28964,22.05888,13.41,-0.05,2.58,2.0
1758076944.03463,1758076943.96595,0.0,0.0,0.0,16.10011,-38.21629,23.37668,13.67,-0.25,3.17,2.0
1758076944.0353,1758076943.97595,0.0,0.0,0.0,19.70975,-35.52338,24.12152,13.67,-0.25,3.17,2.0
1758076944.03687,1758076943.98595,0.0,0.0,0.0,27.2155,-43.54479,23.60586,11.89,-1.25,2.64,2.0
1758076944.03827,1758076943.99595,0.0,0.0,0.0,33.23156,-55.7488,22.23076,9.43,-1.61,3.4,2.0
1758076944.04318,1758076944.00595,0.0,0.0,0.0,39.3622,-62.39511,21.6578,9.43,-1.61,3.4,2.0
1758076944.06206,1758076944.01595,0.0,0.0,0.0,45.09178,-61.65026,22.00158,9.99,-1.1,4.19,2.0
1758076944.06327,1758076944.02595,0.0,0.0,0.0,51.85268,-48.8733,23.94964,9.99,-1.1,4.19,2.0
1758076944.0781,1758076944.03595,0.0,0.0,0.0,54.431,-32.6013,25.38203,11.07,0.0,4.43,2.0
1758076944.08342,1758076944.04595,0.0,0.0,0.0,55.40502,-11.63104,26.75713,11.07,0.0,4.43,2.0
1758076944.10096,1758076944.05595,0.0,0.0,0.0,56.03527,2.00535,28.13223,11.2,0.87,3.79,2.0
1758076944.10265,1758076944.06595,0.0,0.0,0.0,53.62885,-22.68913,25.55392,7.14,1.07,2.74,2.0
1758076944.11836,1758076944.07595,0.0,0.0,0.0,51.90998,-45.26366,21.7151,7.14,1.07,2.74,2.0
1758076944.13533,1758076944.08595,0.0,0.0,0.0,54.94666,-39.01843,26.12688,9.6,0.41,2.13,2.0
1758076944.13795,1758076944.09595,0.0,0.0,0.0,54.14451,-21.6578,23.20479,9.6,0.41,2.13,2.0
1758076944.1534,1758076944.10595,0.0,0.0,0.0,52.82671,1.3751,16.10011,13.77,0.27,2.19,2.0
1758076944.1548,1758076944.11595,0.0,0.0,0.0,49.50356,14.83961,11.63104,13.77,0.27,2.19,2.0
1758076944.1718,1758076944.12595,0.0,0.0,0.0,44.28964,24.86637,7.67763,11.77,0.56,2.36,2.0
1758076944.1743,1758076944.13595,0.0,0.0,0.0,37.98711,32.77319,2.7502,11.77,0.56,2.36,2.0
1758076944.19072,1758076944.14595,0.0,0.0,0.0,27.38738,36.95578,-2.97938,9.37,1.28,1.47,2.0
1758076944.19272,1758076944.15595,0.0,0.0,0.0,20.97026,37.75792,-5.55769,8.35,1.97,1.11,2.0
1758076944.20817,1758076944.16595,0.0,0.0,0.0,15.0115,41.08107,-7.21927,8.35,1.97,1.11,2.0
1758076944.2253,1758076944.17595,0.0,0.0,0.0,8.136,45.26366,-8.30789,9.01,2.04,1.5,2.0
1758076944.23171,1758076944.18595,0.0,0.0,0.0,5.32851,47.32632,-8.0787,9.01,2.04,1.5,2.0
1758076944.23318,1758076944.19595,0.0,0.0,0.0,3.89611,46.40959,-7.16197,8.78,1.46,1.85,2.0
1758076944.25263,1758076944.20595,0.0,0.0,0.0,3.72423,45.49285,-6.7609,8.78,1.46,1.85,2.0
1758076944.25338,1758076944.21595,0.0,0.0,0.0,5.27121,44.46153,-6.18794,8.62,0.57,2.15,2.0
1758076944.26842,1758076944.22595,0.0,0.0,0.0,6.87549,43.60209,-5.90147,8.82,-0.24,1.68,2.0
1758076944.28522,1758076944.23595,0.0,0.0,0.0,8.99544,43.37291,-5.09932,8.82,-0.24,1.68,2.0
1758076944.28618,1758076944.24595,0.0,0.0,0.0,11.00079,45.37826,-4.35448,9.21,-0.76,1.4,2.0
1758076944.30154,1758076944.25595,0.0,0.0,0.0,13.75099,47.26902,-2.7502,9.21,-0.76,1.4,2.0
1758076944.30319,1758076944.26595,0.0,0.0,0.0,15.12609,47.72739,-1.77617,9.07,-0.76,0.84,2.0
1758076944.31812,1758076944.27595,0.0,0.0,0.0,16.10011,47.44091,-0.57296,9.07,-0.76,0.84,2.0
1758076944.33547,1758076944.28595,0.0,0.0,0.0,16.55848,46.1804,0.74485,8.94,-0.36,0.73,2.0
1758076944.33984,1758076944.29595,0.0,0.0,0.0,15.75634,43.65939,2.57831,8.94,0.16,0.69,2.0
1758076944.35546,1758076944.30595,0.0,0.0,0.0,14.09476,42.51347,3.72423,8.94,0.16,0.69,2.0
1758076944.35663,1758076944.31595,0.0,0.0,0.0,11.91752,41.71133,4.23989,9.02,0.71,0.95,2.0
1758076944.37222,1758076944.32595,0.0,0.0,0.0,8.93814,41.02378,4.0107,9.02,0.71,0.95,2.0
1758076944.37319,1758076944.33595,0.0,0.0,0.0,3.89611,38.84654,2.97938,9.02,0.99,0.89,2.0
1758076944.38847,1758076944.34595,0.0,0.0,0.0,0.40107,37.12767,1.48969,9.02,0.99,0.89,2.0
1758076944.40504,1758076944.35595,0.0,0.0,0.0,-2.7502,36.03905,0.17189,9.15,0.88,0.6,2.0
1758076944.40857,1758076944.36595,0.0,0.0,0.0,-5.84417,35.69527,-1.03132,9.15,0.88,0.6,2.0
1758076944.42499,1758076944.37595,0.0,0.0,0.0,-10.19865,33.46074,-0.80214,9.49,0.6,0.24,2.0
1758076944.4262,1758076944.38595,0.0,0.0,0.0,-12.89155,29.39274,-0.68755,9.37,0.33,0.34,2.0
1758076944.44153,1758076944.39595,0.0,0.0,0.0,-15.24068,24.12152,0.11459,9.37,0.33,0.34,2.0
1758076944.44513,1758076944.40595,0.0,0.0,0.0,-17.36062,13.5218,1.60428,9.41,-0.1,0.59,2.0
1758076944.46051,1758076944.41595,0.0,0.0,0.0,-17.99088,5.32851,1.77617,9.41,-0.1,0.59,2.0
1758076944.46221,1758076944.42595,0.0,0.0,0.0,-17.93358,-3.83882,1.83346,9.61,-0.6,0.89,2.0
1758076944.47836,1758076944.43595,0.0,0.0,0.0,-17.36062,-13.46451,1.48969,9.61,-0.6,0.89,2.0
1758076944.49548,1758076944.44595,0.0,0.0,0.0,-15.29797,-28.87707,0.74485,9.64,-0.91,0.97,2.0
1758076944.49805,1758076944.45595,0.0,0.0,0.0,-13.12073,-42.57077,0.40107,9.15,-0.85,0.7,2.0
1758076944.51358,1758076944.46595,0.0,0.0,0.0,-11.00079,-56.952,-0.34377,9.15,-0.85,0.7,2.0
1758076944.51486,1758076944.47595,0.0,0.0,0.0,-8.76626,-68.12468,-1.03132,9.14,-0.89,-0.16,2.0
1758076944.52956,1758076944.48595,0.0,0.0,0.0,-6.99009,-72.19269,-2.29183,9.14,-0.89,-0.16,2.0
1758076944.53118,1758076944.49595,0.0,0.0,0.0,-7.33386,-66.97877,-3.38045,10.54,-0.89,-0.69,2.0
1758076944.5483,1758076944.50595,0.0,0.0,0.0,-8.02141,-57.75415,-3.72423,10.54,-0.89,-0.69,2.0
1758076944.56537,1758076944.51595,0.0,0.0,0.0,-8.70896,-47.26902,-5.55769,11.93,-0.62,0.09,2.0
1758076944.56655,1758076944.52595,0.0,0.0,0.0,-9.4538,-39.99245,-8.99544,11.71,-0.42,1.66,2.0
1758076944.58313,1758076944.53595,0.0,0.0,0.0,-9.62569,-40.45082,-12.204,11.71,-0.42,1.66,2.0
1758076944.5881,1758076944.54595,0.0,0.0,0.0,-10.59972,-42.22699,-15.0115,10.94,0.67,2.97,2.0
1758076944.60354,1758076944.55595,0.0,0.0,0.0,-13.46451,-44.86259,-16.55848,10.94,0.67,2.97,2.0
1758076944.60559,1758076944.56595,0.0,0.0,0.0,-19.76705,-46.98254,-17.99088,11.74,2.7,3.11,2.0
1758076944.62135,1758076944.57595,0.0,0.0,0.0,-20.22541,-47.44091,-19.70975,11.74,2.7,3.11,2.0
1758076944.62226,1758076944.58595,0.0,0.0,0.0,-20.79837,-55.51962,-23.54857,12.02,1.46,2.52,2.0
1758076944.63758,1758076944.59595,0.0,0.0,0.0,-17.01685,-62.62429,-27.33009,12.02,1.46,2.52,2.0
1758076944.65515,1758076944.60595,0.0,0.0,0.0,-12.14671,-71.50513,-28.93437,10.43,-0.37,2.53,2.0
1758076944.65845,1758076944.61595,0.0,0.0,0.0,-6.18794,-74.771,-29.33544,9.64,-1.04,3.25,2.0
1758076944.67366,1758076944.62595,0.0,0.0,0.0,-0.57296,-75.85962,-28.99167,9.64,-1.04,3.25,2.0
1758076944.67557,1758076944.63595,0.0,0.0,0.0,3.89611,-71.39055,-27.84575,9.29,-0.84,4.93,2.0
1758076944.69112,1758076944.64595,0.0,0.0,0.0,3.38045,-65.2026,-25.61122,9.29,-0.84,4.93,2.0
1758076944.69269,1758076944.65595,0.0,0.0,0.0,1.14592,-57.46767,-22.91831,9.86,-0.47,5.26,2.0
1758076944.70749,1758076944.66595,0.0,0.0,0.0,-1.3751,-51.79538,-19.42327,9.86,-0.47,5.26,2.0
1758076944.72358,1758076944.67595,0.0,0.0,0.0,-3.83882,-41.65404,-11.74564,10.24,-0.26,3.83,2.0
1758076944.72528,1758076944.68595,0.0,0.0,0.0,-4.87014,-30.13758,-6.13065,11.28,-0.23,1.35,2.0
1758076944.7411,1758076944.69595,0.0,0.0,0.0,-5.27121,-15.46986,-1.3751,11.28,-0.23,1.35,2.0
1758076944.74576,1758076944.70595,0.0,0.0,0.0,-5.4431,-1.77617,1.60428,12.27,-0.45,0.18,2.0
1758076944.76234,1758076944.71595,0.0,0.0,0.0,-4.35448,14.43854,2.97938,12.27,-0.45,0.18,2.0
1758076944.7636,1758076944.72595,0.0,0.0,0.0,-2.40642,24.35071,2.06265,11.81,-0.7,0.06,2.0
1758076944.77856,1758076944.73595,0.0,0.0,0.0,-0.11459,33.05967,0.45837,11.81,-0.7,0.06,2.0
1758076944.79519,1758076944.74595,0.0,0.0,0.0,2.34913,40.33623,-1.94806,10.98,-0.72,0.31,2.0
1758076944.79806,1758076944.75595,0.0,0.0,0.0,8.36518,48.9879,-3.09397,9.97,-0.75,0.66,2.0
1758076944.81328,1758076944.76595,0.0,0.0,0.0,12.2613,50.2484,-4.0107,9.97,-0.75,0.66,2.0
1758076944.81716,1758076944.77595,0.0,0.0,0.0,13.06344,52.76942,-5.09932,8.98,-0.48,0.99,2.0
1758076944.83328,1758076944.78595,0.0,0.0,0.0,14.09476,52.884,-4.23989,8.98,-0.48,0.99,2.0
1758076944.83554,1758076944.79595,0.0,0.0,0.0,14.32395,47.95657,-2.7502,8.19,-0.28,0.87,2.0
1758076944.85049,1758076944.80595,0.0,0.0,0.0,13.5218,44.00316,-1.08862,8.19,-0.28,0.87,2.0
1758076944.85174,1758076944.81595,0.0,0.0,0.0,12.77696,40.10705,0.51566,8.18,0.03,1.57,2.0
1758076944.86724,1758076944.82595,0.0,0.0,0.0,11.51645,36.38282,2.57831,8.18,0.03,1.57,2.0
1758076944.88505,1758076944.83595,0.0,0.0,0.0,10.37054,34.37747,3.38045,8.54,0.24,0.96,2.0
1758076944.88788,1758076944.84595,0.0,0.0,0.0,9.11003,31.11161,3.72423,8.61,0.33,1.13,2.0
1758076944.90332,1758076944.85595,0.0,0.0,0.0,8.02141,27.2155,4.0107,8.61,0.33,1.13,2.0
1758076944.90522,1758076944.86595,0.0,0.0,0.0,5.90147,20.68378,3.95341,8.42,0.28,0.91,2.0
1758076944.92028,1758076944.87595,0.0,0.0,0.0,4.58366,16.272,3.55234,8.42,0.28,0.91,2.0
1758076944.92259,1758076944.88595,0.0,0.0,0.0,3.20856,11.97482,3.03668,8.35,0.09,0.58,2.0
1758076944.93852,1758076944.89595,0.0,0.0,0.0,1.94806,8.0787,2.34913,8.35,0.09,0.58,2.0
1758076944.95449,1758076944.90595,0.0,0.0,0.0,-0.40107,0.74485,1.60428,8.31,-0.05,0.33,2.0
1758076944.95546,1758076944.91595,0.0,0.0,0.0,-1.66158,-4.29718,1.43239,8.21,-0.01,0.53,2.0
1758076944.97052,1758076944.92595,0.0,0.0,0.0,-2.7502,-8.99544,1.77617,8.21,-0.01,0.53,2.0
1758076944.974,1758076944.93595,0.0,0.0,0.0,-3.49504,-12.60507,2.06265,8.59,0.26,0.6,2.0
1758076944.98956,1758076944.94595,0.0,0.0,0.0,-4.1253,-15.29797,3.26586,8.59,0.26,0.6,2.0
1758076944.9913,1758076944.95595,0.0,0.0,0.0,-4.1253,-14.66772,3.83882,9.45,0.41,0.27,2.0
1758076945.00744,1758076944.96595,0.0,0.0,0.0,-3.95341,-13.06344,4.29718,9.45,0.41,0.27,2.0
1758076945.02336,1758076944.97595,0.0,0.0,0.0,-3.38045,-10.37054,4.52637,10.47,0.26,-0.33,2.0
1758076945.02499,1758076944.98595,0.0,0.0,0.0,-1.66158,-7.21927,4.46907,10.79,-0.3,-0.5,2.0
1758076945.04172,1758076944.99595,0.0,0.0,0.0,0.45837,-4.98473,4.58366,10.79,-0.3,-0.5,2.0
1758076945.04364,1758076945.00595,0.0,0.0,0.0,2.86479,-1.83346,4.87014,10.71,-0.84,-0.39,2.0
1758076945.06121,1758076945.01595,0.0,0.0,0.0,7.84952,0.45837,5.4431,10.71,-0.84,-0.39,2.0
1758076945.06326,1758076945.02595,0.0,0.0,0.0,11.57375,1.3178,5.90147,10.5,-1.15,-0.18,2.0
1758076945.07831,1758076945.03595,0.0,0.0,0.0,15.75634,-0.11459,6.24524,10.5,-1.15,-0.18,2.0
1758076945.08266,1758076945.04595,0.0,0.0,0.0,20.22541,-1.66158,6.53172,10.44,-1.29,-0.51,2.0
1758076945.09832,1758076945.05595,0.0,0.0,0.0,27.04361,-2.7502,6.58902,10.44,-1.29,-0.51,2.0
1758076945.11439,1758076945.06595,0.0,0.0,0.0,31.56997,-3.55234,6.58902,10.76,-1.25,-0.92,2.0
1758076945.11577,1758076945.07595,0.0,0.0,0.0,35.98175,-4.58366,6.53172,10.8,-1.11,-1.2,2.0
1758076945.13034,1758076945.08595,0.0,0.0,0.0,39.70598,-7.84952,6.58902,10.8,-1.11,-1.2,2.0
1758076945.13231,1758076945.09595,0.0,0.0,0.0,43.4875,-22.63183,8.70896,10.4,-0.98,-0.36,2.0
1758076945.14859,1758076945.10595,0.0,0.0,0.0,44.00316,-37.52874,11.57375,10.4,-0.98,-0.36,2.0
1758076945.16602,1758076945.11595,0.0,0.0,0.0,41.36755,-52.48294,15.58445,10.82,-0.74,1.84,2.0
1758076945.17064,1758076945.12595,0.0,0.0,0.0,35.63798,-61.87944,20.85567,10.82,-0.74,1.84,2.0
1758076945.18773,1758076945.13595,0.0,0.0,0.0,24.92367,-62.56699,28.41871,13.07,0.4,4.2,2.0
1758076945.18894,1758076945.14595,0.0,0.0,0.0,18.27736,-53.39967,30.82513,14.35,1.45,3.39,2.0
1758076945.20459,1758076945.15595,0.0,0.0,0.0,13.00614,-41.71133,30.88243,14.35,1.45,3.39,2.0
1758076945.20556,1758076945.16595,0.0,0.0,0.0,9.33921,-30.02299,28.87707,12.16,1.59,1.48,2.0
1758076945.2211,1758076945.17595,0.0,0.0,0.0,8.76626,-23.20479,22.57454,12.16,1.59,1.48,2.0
1758076945.22309,1758076945.18595,0.0,0.0,0.0,9.5684,-29.33544,17.87628,8.84,0.6,1.24,2.0
1758076945.23857,1758076945.19595,0.0,0.0,0.0,12.89155,-52.08187,16.61578,8.84,0.6,1.24,2.0
1758076945.25456,1758076945.20595,0.0,0.0,0.0,17.30333,-68.69764,19.13679,6.52,-1.05,3.9,2.0
1758076945.25739,1758076945.21595,0.0,0.0,0.0,26.18417,-54.08722,21.7151,10.92,-2.23,4.07,2.0
1758076945.27795,1758076945.22595,0.0,0.0,0.0,31.85646,-41.42485,23.66316,10.92,-2.23,4.07,2.0
1758076945.2835,1758076945.23595,0.0,0.0,0.0,37.35685,-31.85646,23.31938,11.59,-1.55,3.05,2.0
1758076945.28781,1758076945.24595,0.0,0.0,0.0,44.17505,-16.67307,21.60051,11.59,-1.55,3.05,2.0
1758076945.29214,1758076945.25595,0.0,0.0,0.0,46.40959,-2.6929,18.27736,10.7,-0.74,1.56,2.0
1758076945.30872,1758076945.26595,0.0,0.0,0.0,46.69606,13.34992,14.61043,10.7,-0.74,1.56,2.0
1758076945.32732,1758076945.27595,0.0,0.0,0.0,45.60744,28.01764,10.8289,11.49,0.02,-0.1,2.0
1758076945.32894,1758076945.28595,0.0,0.0,0.0,40.96649,45.72203,6.35983,11.49,0.02,-0.13,2.0
1758076945.34784,1758076945.29595,0.0,0.0,0.0,37.01308,53.80074,4.23989,11.72,0.81,-0.13,2.0
1758076945.34878,1758076945.30595,0.0,0.0,0.0,32.54401,60.33246,3.09397,10.97,1.37,0.07,2.0
1758076945.36604,1758076945.31595,0.0,0.0,0.0,28.24682,63.88479,2.29183,10.97,1.37,0.07,2.0
1758076945.36795,1758076945.32595,0.0,0.0,0.0,22.23076,68.01009,0.80214,9.99,1.48,0.63,2.0
1758076945.38357,1758076945.33595,0.0,0.0,0.0,19.25138,68.98412,0.45837,9.99,1.48,0.63,2.0
1758076945.38457,1758076945.34595,0.0,0.0,0.0,16.73037,69.04142,0.11459,9.45,0.97,0.93,2.0
1758076945.40124,1758076945.35595,0.0,0.0,0.0,14.61043,67.26525,-0.57296,9.45,0.97,0.93,2.0
1758076945.40329,1758076945.36595,0.0,0.0,0.0,12.89155,63.48372,-2.11994,9.16,0.57,1.55,2.0
1758076945.41865,1758076945.37595,0.0,0.0,0.0,12.14671,60.16057,-3.72423,9.12,0.14,1.74,2.0
1758076945.4354,1758076945.38595,0.0,0.0,0.0,11.91752,57.18119,-5.32851,9.12,0.14,1.74,2.0
1758076945.43685,1758076945.39595,0.0,0.0,0.0,12.08941,53.74345,-6.87549,8.96,-0.09,1.41,2.0
1758076945.45263,1758076945.40595,0.0,0.0,0.0,12.49048,48.12846,-8.70896,8.96,-0.09,1.41,2.0
1758076945.45517,1758076945.41595,0.0,0.0,0.0,13.23533,42.51347,-9.28192,8.38,-0.2,1.3,2.0
1758076945.47067,1758076945.42595,0.0,0.0,0.0,13.5791,35.69527,-9.74028,8.38,-0.2,1.3,2.0
1758076945.50374,1758076945.43595,0.0,0.0,0.0,15.29797,12.77696,-7.84952,7.42,-0.11,1.29,2.0
1758076945.51125,1758076945.44595,0.0,0.0,0.0,15.46986,6.7609,-6.99009,7.63,0.1,0.89,2.0
1758076945.51171,1758076945.45595,0.0,0.0,0.0,15.35527,-1.43239,-6.13065,7.63,0.1,0.89,2.0
1758076945.52773,1758076945.46595,0.0,0.0,0.0,14.61043,-3.72423,-6.41713,7.92,0.14,0.63,2.0
1758076945.54371,1758076945.47594,0.0,0.0,0.0,13.69369,-4.81285,-6.70361,7.92,0.14,0.63,2.0
1758076945.54539,1758076945.48594,0.0,0.0,0.0,12.49048,-5.32851,-7.33386,8.46,0.11,0.3,2.0
1758076945.56061,1758076945.49594,0.0,0.0,0.0,10.08406,-6.53172,-7.96411,8.73,0.16,0.5,2.0
1758076945.56156,1758076945.50594,0.0,0.0,0.0,8.0787,-7.44845,-7.96411,8.73,0.16,0.5,2.0
1758076945.57745,1758076945.51594,0.0,0.0,0.0,5.78687,-8.02141,-7.96411,9.02,0.24,0.64,2.0
1758076945.59366,1758076945.52594,0.0,0.0,0.0,3.49504,-8.42248,-7.67763,9.02,0.24,0.64,2.0
1758076945.59651,1758076945.53594,0.0,0.0,0.0,0.34377,-11.28727,-7.33386,9.27,0.31,0.64,2.0
1758076945.61145,1758076945.54594,0.0,0.0,0.0,-1.3178,-14.09476,-7.33386,9.27,0.31,0.64,2.0
1758076945.61262,1758076945.55594,0.0,0.0,0.0,-2.86479,-17.13144,-6.99009,9.46,0.33,0.55,2.0
1758076945.62774,1758076945.56594,0.0,0.0,0.0,-4.23989,-19.99623,-7.10468,9.46,0.33,0.55,2.0
1758076945.64368,1758076945.57594,0.0,0.0,0.0,-6.07335,-23.89234,-7.73493,9.78,0.3,0.33,2.0
1758076945.64799,1758076945.58594,0.0,0.0,0.0,-7.39116,-25.7831,-8.42248,10.14,0.32,-0.19,2.0
1758076945.66346,1758076945.59594,0.0,0.0,0.0,-8.70896,-27.38738,-9.62569,10.14,0.32,-0.19,2.0
1758076945.66862,1758076945.60594,0.0,0.0,0.0,-9.62569,-31.2262,-10.19865,10.28,0.39,-0.38,2.0
1758076945.68355,1758076945.61594,0.0,0.0,0.0,-11.11538,-36.61201,-9.96947,10.28,0.39,-0.38,2.0
1758076945.68631,1758076945.62594,0.0,0.0,0.0,-11.97482,-37.18496,-9.39651,10.53,0.3,-0.6,2.0
1758076945.70256,1758076945.63594,0.0,0.0,0.0,-13.34992,-35.2369,-8.30789,10.53,0.3,-0.6,2.0
1758076945.70373,1758076945.64594,0.0,0.0,0.0,-16.3293,-29.96569,-6.7609,11.03,0.16,-0.9,2.0
1758076945.71872,1758076945.65594,0.0,0.0,0.0,-18.62113,-26.41335,-6.13065,11.07,0.06,-0.78,2.0
1758076945.73349,1758076945.66594,0.0,0.0,0.0,-20.85567,-23.89234,-5.78687,11.07,0.06,-0.78,2.0
1758076945.73396,1758076945.67594,0.0,0.0,0.0,-22.68913,-24.00693,-5.72958,11.19,-0.12,-0.14,2.0
1758076945.75133,1758076945.68594,0.0,0.0,0.0,-23.49127,-27.78845,-5.90147,11.19,-0.12,-0.14,2.0
1758076945.75251,1758076945.69594,0.0,0.0,0.0,-22.57454,-33.05967,-6.58902,11.26,-0.23,0.56,2.0
1758076945.76777,1758076945.70594,0.0,0.0,0.0,-19.53786,-41.94051,-8.02141,11.26,-0.23,0.56,2.0
1758076945.78374,1758076945.71594,0.0,0.0,0.0,-15.06879,-51.79538,-11.00079,10.88,-0.56,0.91,2.0
1758076945.791,1758076945.72594,0.0,0.0,0.0,-5.61499,-59.12925,-16.10011,12.12,-0.87,1.7,2.0
1758076945.79268,1758076945.73594,0.0,0.0,0.0,-1.3178,-65.08801,-21.48592,12.12,-0.87,1.7,2.0
1758076945.80858,1758076945.74594,0.0,0.0,0.0,1.43239,-66.92148,-25.8404,13.29,-0.45,3.27,2.0
1758076945.81472,1758076945.75594,0.0,0.0,0.0,3.83882,-63.77021,-27.33009,13.29,-0.45,3.27,2.0
1758076945.83073,1758076945.76594,0.0,0.0,0.0,3.66693,-55.57691,-26.35606,12.92,0.54,3.14,2.0
1758076945.83242,1758076945.77594,0.0,0.0,0.0,0.57296,-53.34238,-24.92367,12.92,0.54,3.14,2.0
1758076945.84867,1758076945.78594,0.0,0.0,0.0,-4.92744,-54.02992,-23.94964,10.41,1.24,2.73,2.0
1758076945.852,1758076945.79594,0.0,0.0,0.0,-12.2613,-55.6342,-22.57454,10.41,1.24,2.73,2.0
1758076945.86773,1758076945.80594,0.0,0.0,0.0,-25.7831,-49.04519,-20.68378,8.75,1.34,3.41,2.0
1758076945.88571,1758076945.81594,0.0,0.0,0.0,-35.3515,-39.07573,-20.16812,10.08,0.88,3.77,2.0
1758076945.89065,1758076945.82594,0.0,0.0,0.0,-43.4875,-27.50197,-19.59516,10.08,0.88,3.77,2.0
1758076945.90545,1758076945.83594,0.0,0.0,0.0,-51.16513,-18.73572,-18.22006,10.85,0.19,2.97,2.0
1758076945.91095,1758076945.84594,0.0,0.0,0.0,-53.05589,-7.16197,-16.55848,10.85,0.19,2.97,2.0
1758076945.92813,1758076945.85594,0.0,0.0,0.0,-52.48294,2.92208,-14.03747,11.26,-0.34,1.64,2.0
1758076945.93101,1758076945.86594,0.0,0.0,0.0,-50.1911,14.49583,-11.51645,11.26,-0.34,1.64,2.0
1758076945.94541,1758076945.87594,0.0,0.0,0.0,-44.57612,30.30947,-8.47978,12.38,-0.7,0.57,2.0
1758076945.95093,1758076945.88594,0.0,0.0,0.0,-39.19032,41.08107,-6.8182,12.15,-1.06,0.25,2.0
1758076945.96555,1758076945.89594,0.0,0.0,0.0,-33.68992,50.87865,-5.90147,12.15,-1.06,0.25,2.0
1758076945.97069,1758076945.90594,0.0,0.0,0.0,-28.36141,59.12925,-5.09932,11.18,-1.21,0.21,2.0
1758076945.9855,1758076945.91594,0.0,0.0,0.0,-21.14215,65.89015,-4.98473,11.18,-1.21,0.21,2.0
1758076945.98754,1758076945.92594,0.0,0.0,0.0,-17.53251,67.55173,-5.21392,9.8,-1.33,0.37,2.0
1758076946.00283,1758076945.93594,0.0,0.0,0.0,-14.9542,68.58305,-4.64096,9.8,-1.33,0.37,2.0
1758076946.00478,1758076945.94594,0.0,0.0,0.0,-13.06344,69.49979,-4.1253,9.34,-1.36,0.61,2.0
1758076946.02035,1758076945.95594,0.0,0.0,0.0,-10.25595,67.15066,-3.49504,8.98,-1.17,0.82,2.0
1758076946.02317,1758076945.96594,0.0,0.0,0.0,-8.99544,64.85883,-2.92208,8.98,-1.17,0.82,2.0
1758076946.04271,1758076945.97594,0.0,0.0,0.0,-8.02141,61.87944,-2.00535,8.57,-0.85,0.96,2.0
1758076946.04399,1758076945.98594,0.0,0.0,0.0,-7.04738,59.01466,-0.97403,8.57,-0.85,0.96,2.0
1758076946.05859,1758076945.99594,0.0,0.0,0.0,-5.78687,54.3737,0.17189,8.22,-0.6,0.9,2.0
1758076946.07635,1758076946.00594,0.0,0.0,0.0,-5.15662,51.73809,0.85944,8.22,-0.6,0.9,2.0
1758076946.07834,1758076946.01594,0.0,0.0,0.0,-4.81285,48.52953,1.3178,8.06,-0.33,0.93,2.0
1758076946.0938,1758076946.02594,0.0,0.0,0.0,-4.46907,44.46153,1.66158,8.06,-0.33,0.93,2.0
1758076946.09583,1758076946.03594,0.0,0.0,0.0,-3.95341,37.87251,1.43239,7.98,-0.15,0.96,2.0
1758076946.11156,1758076946.04594,0.0,0.0,0.0,-3.55234,34.0337,1.3178,8.42,-0.15,0.82,2.0
1758076946.11255,1758076946.05594,0.0,0.0,0.0,-3.20856,31.79916,1.14592,8.42,-0.15,0.82,2.0
1758076946.1278,1758076946.06594,0.0,0.0,0.0,-2.6929,28.41871,0.51566,9.15,-0.24,0.48,2.0
1758076946.16576,1758076946.07594,0.0,0.0,0.0,-2.63561,25.55392,0.17189,9.15,-0.24,0.48,2.0
1758076946.16741,1758076946.08594,0.0,0.0,0.0,-2.57831,21.42862,-0.34377,9.24,-0.31,0.51,2.0
1758076946.1681,1758076946.09594,0.0,0.0,0.0,-2.29183,17.18874,-0.57296,9.24,-0.31,0.51,2.0
1758076946.17323,1758076946.10594,0.0,0.0,0.0,-1.83346,10.19865,-0.80214,9.0,-0.37,0.65,2.0
1758076946.174,1758076946.11594,0.0,0.0,0.0,-1.14592,5.32851,-0.74485,8.78,-0.43,0.78,2.0
1758076946.19072,1758076946.12594,0.0,0.0,0.0,-0.11459,1.48969,-0.40107,8.78,-0.43,0.78,2.0
1758076946.19217,1758076946.13594,0.0,0.0,0.0,0.97403,-0.51566,0.17189,8.83,-0.44,0.55,2.0
1758076946.20759,1758076946.14594,0.0,0.0,0.0,2.63561,-1.20321,0.97403,8.83,-0.44,0.55,2.0
1758076946.22486,1758076946.15594,0.0,0.0,0.0,3.72423,-2.23454,1.48969,9.27,-0.44,0.31,2.0
1758076946.22896,1758076946.16594,0.0,0.0,0.0,5.09932,-3.49504,2.06265,9.27,-0.44,0.31,2.0
1758076946.24487,1758076946.17594,0.0,0.0,0.0,6.53172,-3.83882,2.34913,9.6,-0.48,0.2,2.0
1758076946.24577,1758076946.18594,0.0,0.0,0.0,9.05273,-5.27121,2.92208,9.99,-0.61,0.07,2.0
1758076946.26062,1758076946.19594,0.0,0.0,0.0,11.11538,-6.13065,3.20856,9.99,-0.61,0.07,2.0
1758076946.26369,1758076946.20594,0.0,0.0,0.0,12.89155,-7.79223,3.49504,10.16,-0.82,0.05,2.0
1758076946.28562,1758076946.21594,0.0,0.0,0.0,15.12609,-10.8289,3.72423,10.16,-0.82,0.05,2.0
1758076946.28758,1758076946.22594,0.0,0.0,0.0,17.99088,-18.33465,3.95341,10.02,-1.04,0.03,2.0
1758076946.3028,1758076946.23594,0.0,0.0,0.0,19.36597,-21.94428,3.55234,10.02,-1.04,0.03,2.0
1758076946.30571,1758076946.24594,0.0,0.0,0.0,20.68378,-22.05888,2.86479,10.29,-1.16,-0.24,2.0
1758076946.32284,1758076946.25594,0.0,0.0,0.0,22.74642,-19.48057,1.94806,10.29,-1.16,-0.24,2.0
1758076946.32379,1758076946.26594,0.0,0.0,0.0,24.5226,-16.38659,1.48969,10.85,-1.14,-0.63,2.0
1758076946.33884,1758076946.27594,0.0,0.0,0.0,25.55392,-19.59516,2.06265,10.97,-1.22,0.43,2.0
1758076946.35664,1758076946.28594,0.0,0.0,0.0,25.8404,-29.73651,4.52637,10.97,-1.22,0.43,2.0
1758076946.35759,1758076946.29594,0.0,0.0,0.0,23.0329,-51.16513,12.71966,12.03,-0.75,2.88,2.0
1758076946.37285,1758076946.30594,0.0,0.0,0.0,19.19409,-58.21251,17.58981,12.03,-0.75,2.88,2.0
1758076946.37379,1758076946.31594,0.0,0.0,0.0,14.49583,-57.75415,20.79837,14.05,0.63,3.75,2.0
1758076946.38885,1758076946.32594,0.0,0.0,0.0,11.11538,-53.39967,21.42862,14.05,0.63,3.75,2.0
1758076946.40724,1758076946.33594,0.0,0.0,0.0,8.25059,-45.43555,19.76705,13.36,1.55,3.05,2.0
1758076946.40815,1758076946.34594,0.0,0.0,0.0,8.30789,-41.71133,17.47521,11.55,1.38,2.7,2.0
1758076946.42409,1758076946.35594,0.0,0.0,0.0,8.25059,-42.62806,14.61043,11.55,1.38,2.7,2.0
1758076946.42831,1758076946.36594,0.0,0.0,0.0,9.28192,-44.8053,12.54778,9.95,0.78,3.26,2.0
1758076946.44445,1758076946.37594,0.0,0.0,0.0,11.86023,-37.18496,11.00079,9.95,0.78,3.26,2.0
1758076946.4488,1758076946.38594,0.0,0.0,0.0,16.10011,-30.76784,12.37589,10.24,0.05,3.74,2.0
1758076946.46366,1758076946.39594,0.0,0.0,0.0,15.06879,-35.52338,11.45916,10.24,0.05,3.74,2.0
1758076946.46479,1758076946.40594,0.0,0.0,0.0,21.02755,-55.51962,13.75099,7.97,-0.19,3.35,2.0
1758076946.47992,1758076946.41594,0.0,0.0,0.0,28.476,-55.06125,18.79302,8.65,-0.98,1.74,2.0
1758076946.4832,1758076946.42594,0.0,0.0,0.0,32.48671,-39.76327,19.48057,8.65,-0.98,1.74,2.0
1758076946.49982,1758076946.43594,0.0,0.0,0.0,34.43476,-21.6578,14.83961,12.56,-0.8,1.8,2.0
1758076946.50354,1758076946.44594,0.0,0.0,0.0,35.12231,-6.07335,10.37054,12.56,-0.8,1.8,2.0
1758076946.52291,1758076946.45594,0.0,0.0,0.0,32.48671,13.12073,7.21927,11.67,0.34,1.58,2.0
1758076946.52538,1758076946.46594,0.0,0.0,0.0,28.476,24.12152,4.52637,11.67,0.34,1.58,2.0
1758076946.54286,1758076946.47594,0.0,0.0,0.0,22.57454,34.32018,0.68755,10.3,1.81,0.93,2.0
1758076946.54438,1758076946.48594,0.0,0.0,0.0,11.86023,43.20102,-4.0107,10.3,1.81,0.93,2.0
1758076946.55997,1758076946.49594,0.0,0.0,0.0,4.29718,46.2377,-5.90147,9.41,2.94,0.24,2.0
1758076946.56362,1758076946.50594,0.0,0.0,0.0,-2.7502,48.9306,-6.58902,9.49,3.27,0.82,2.0
1758076946.58291,1758076946.51594,0.0,0.0,0.0,-9.4538,52.08187,-6.53172,9.49,3.27,0.82,2.0
1758076946.58412,1758076946.52594,0.0,0.0,0.0,-17.58981,57.18119,-5.61499,9.84,2.48,0.74,2.0
1758076946.59967,1758076946.53594,0.0,0.0,0.0,-21.88699,58.04062,-4.58366,9.84,2.48,0.74,2.0
1758076946.61598,1758076946.54594,0.0,0.0,0.0,-25.09555,57.92604,-3.95341,9.58,1.36,1.0,2.0
1758076946.61777,1758076946.55594,0.0,0.0,0.0,-27.1582,57.12389,-3.38045,9.58,1.36,1.0,2.0
1758076946.63292,1758076946.56594,0.0,0.0,0.0,-28.87707,54.94666,-3.95341,9.41,0.54,1.3,2.0
1758076946.63388,1758076946.57594,0.0,0.0,0.0,-29.22085,53.68615,-4.58366,9.1,0.09,1.54,2.0
1758076946.64995,1758076946.58594,0.0,0.0,0.0,-29.04896,51.5662,-5.4431,9.1,0.09,1.54,2.0
1758076946.66594,1758076946.59594,0.0,0.0,0.0,-28.76248,48.64412,-6.41713,8.54,-0.03,1.68,2.0
1758076946.66714,1758076946.60594,0.0,0.0,0.0,-28.13223,44.00316,-7.62034,8.54,-0.03,1.68,2.0
1758076946.68199,1758076946.61594,0.0,0.0,0.0,-28.07493,40.50812,-8.25059,8.17,0.06,1.56,2.0
1758076946.68289,1758076946.62594,0.0,0.0,0.0,-28.07493,35.98175,-8.70896,8.17,0.06,1.56,2.0
1758076946.69794,1758076946.63594,0.0,0.0,0.0,-28.30412,30.53865,-8.65166,7.95,0.3,1.14,2.0
1758076946.7139,1758076946.64594,0.0,0.0,0.0,-29.27814,21.6578,-7.96411,8.14,0.53,0.81,2.0
1758076946.71523,1758076946.65594,0.0,0.0,0.0,-30.19488,16.61578,-7.62034,8.14,0.53,0.81,2.0
1758076946.72964,1758076946.66594,0.0,0.0,0.0,-31.11161,11.63104,-7.16197,8.63,0.6,0.64,2.0
1758076946.74568,1758076946.67594,0.0,0.0,0.0,-32.37212,7.84952,-7.10468,8.63,0.6,0.64,2.0
1758076946.74725,1758076946.68594,0.0,0.0,0.0,-32.54401,4.1253,-6.87549,8.96,0.39,0.8,2.0
1758076946.76169,1758076946.69594,0.0,0.0,0.0,-32.77319,2.23454,-7.50575,8.96,0.39,0.8,2.0
1758076946.76366,1758076946.70594,0.0,0.0,0.0,-32.48671,-0.34377,-8.25059,8.94,0.0,1.22,2.0
1758076946.78293,1758076946.71594,0.0,0.0,0.0,-32.20023,-4.46907,-9.39651,8.94,0.0,1.22,2.0
1758076946.78429,1758076946.72594,0.0,0.0,0.0,-31.97105,-6.99009,-9.96947,8.74,-0.26,1.26,2.0
1758076946.79896,1758076946.73594,0.0,0.0,0.0,-31.97105,-9.11003,-10.48513,8.72,-0.27,1.08,2.0
1758076946.81575,1758076946.74594,0.0,0.0,0.0,-31.62727,-11.45916,-10.37054,8.72,-0.27,1.08,2.0
1758076946.81744,1758076946.75594,0.0,0.0,0.0,-31.39809,-14.61043,-10.02676,8.9,-0.15,0.81,2.0
1758076946.83272,1758076946.76594,0.0,0.0,0.0,-30.99702,-16.61578,-9.39651,8.9,-0.15,0.81,2.0
1758076946.83397,1758076946.77594,0.0,0.0,0.0,-30.59595,-17.93358,-8.59437,9.39,-0.2,0.62,2.0
1758076946.84872,1758076946.78594,0.0,0.0,0.0,-30.25217,-18.90761,-7.33386,9.39,-0.2,0.62,2.0
1758076946.85228,1758076946.79594,0.0,0.0,0.0,-30.02299,-19.42327,-5.32851,9.97,-0.39,0.51,2.0
1758076946.86803,1758076946.80594,0.0,0.0,0.0,-29.96569,-19.48057,-4.23989,10.25,-0.54,0.62,2.0
1758076946.88474,1758076946.81594,0.0,0.0,0.0,-30.30947,-19.76705,-3.26586,10.25,-0.54,0.62,2.0
1758076946.88804,1758076946.82594,0.0,0.0,0.0,-30.93972,-19.76705,-3.09397,10.2,-0.57,0.66,2.0
1758076946.90395,1758076946.83594,0.0,0.0,0.0,-32.20023,-21.02755,-3.66693,10.2,-0.57,0.66,2.0
1758076946.90927,1758076946.84594,0.0,0.0,0.0,-33.23156,-21.94428,-4.29718,10.04,-0.44,0.55,2.0
1758076946.92371,1758076946.85594,0.0,0.0,0.0,-34.66395,-22.63183,-5.61499,10.04,-0.44,0.55,2.0
1758076946.92494,1758076946.86594,0.0,0.0,0.0,-35.86716,-24.57989,-7.16197,10.05,-0.23,0.22,2.0
1758076946.93999,1758076946.87594,0.0,0.0,0.0,-37.64333,-28.24682,-7.84952,10.09,-0.04,-0.37,2.0
1758076946.94171,1758076946.88594,0.0,0.0,0.0,-39.07573,-28.76248,-7.79223,10.09,-0.04,-0.37,2.0
1758076946.95794,1758076946.89594,0.0,0.0,0.0,-40.7373,-27.84575,-7.16197,10.5,0.16,-0.85,2.0
1758076946.97398,1758076946.90594,0.0,0.0,0.0,-44.40423,-25.09555,-5.78687,10.5,0.16,-0.85,2.0
1758076946.97611,1758076946.91594,0.0,0.0,0.0,-47.89928,-23.0902,-4.92744,10.72,0.34,-0.8,2.0
1758076946.99072,1758076946.92594,0.0,0.0,0.0,-52.82671,-21.42862,-4.92744,10.72,0.34,-0.8,2.0
1758076946.99224,1758076946.93594,0.0,0.0,0.0,-59.24384,-19.36597,-5.21392,11.66,0.94,0.36,2.0
1758076947.00799,1758076946.94594,0.0,0.0,0.0,-65.37449,-13.34992,-6.53172,11.66,0.94,1.76,2.0
1758076947.02402,1758076946.95594,0.0,0.0,0.0,-64.17127,-15.87093,-8.25059,12.95,0.77,1.76,2.0
1758076947.02538,1758076946.96594,0.0,0.0,0.0,-56.03527,-40.96649,-10.59972,11.62,-0.56,1.0,2.0
1758076947.04068,1758076946.97594,0.0,0.0,0.0,-50.82136,-64.62964,-18.73572,11.62,-0.56,1.0,2.0
1758076947.04257,1758076946.98594,0.0,0.0,0.0,-39.13302,-63.77021,-26.12688,12.7,-1.35,2.01,2.0
1758076947.059,1758076946.99594,0.0,0.0,0.0,-33.34615,-47.89928,-27.2155,12.7,-1.35,2.01,2.0
1758076947.07582,1758076947.00594,0.0,0.0,0.0,-28.76248,-35.75257,-25.49662,14.82,-0.6,1.79,2.0
1758076947.077,1758076947.01594,0.0,0.0,0.0,-26.35606,-29.9084,-22.28806,14.82,-0.6,1.79,2.0
1758076947.09202,1758076947.02594,0.0,0.0,0.0,-26.18417,-27.67386,-16.04282,11.36,0.44,2.77,2.0
1758076947.093,1758076947.03594,0.0,0.0,0.0,-28.64789,-27.33009,-12.71966,9.11,0.95,2.81,2.0
1758076947.10806,1758076947.04594,0.0,0.0,0.0,-31.97105,-25.26744,-11.11538,9.11,0.95,2.81,2.0
1758076947.12731,1758076947.05594,0.0,0.0,0.0,-35.58068,-23.31938,-11.45916,8.7,1.04,4.24,2.0
1758076947.12817,1758076947.06594,0.0,0.0,0.0,-39.99245,-25.09555,-14.78231,8.7,1.04,4.24,2.0
1758076947.14702,1758076947.07594,0.0,0.0,0.0,-41.36755,-26.64254,-17.13144,8.71,0.69,4.04,2.0
1758076947.14819,1758076947.08594,0.0,0.0,0.0,-41.13837,-25.15285,-18.56383,8.71,0.69,4.04,2.0
1758076947.16408,1758076947.09594,0.0,0.0,0.0,-39.19032,-19.59516,-18.33465,9.87,0.1,2.94,2.0
1758076947.16527,1758076947.10594,0.0,0.0,0.0,-36.95578,-7.62034,-16.61578,10.99,-0.55,1.52,2.0
1758076947.18002,1758076947.11594,0.0,0.0,0.0,-34.0337,1.77617,-13.75099,10.99,-0.55,1.52,2.0
1758076947.19608,1758076947.12594,0.0,0.0,0.0,-30.99702,8.99544,-10.54242,10.96,-1.0,1.18,2.0
1758076947.19779,1758076947.13594,0.0,0.0,0.0,-25.7831,17.93358,-5.61499,10.96,-1.0,1.18,2.0
1758076947.21304,1758076947.14594,0.0,0.0,0.0,-21.60051,22.91831,-2.6929,10.4,-1.14,0.86,2.0
1758076947.21514,1758076947.15594,0.0,0.0,0.0,-17.24603,27.1582,-0.51566,10.4,-1.14,0.86,2.0
1758076947.22991,1758076947.16594,0.0,0.0,0.0,-12.83425,31.85646,1.60428,9.99,-1.16,0.64,2.0
1758076947.23175,1758076947.17594,0.0,0.0,0.0,-5.55769,36.38282,2.97938,9.72,-1.16,0.73,2.0
1758076947.24808,1758076947.18594,0.0,0.0,0.0,-3.38045,39.64868,4.29718,9.72,-0.95,0.73,2.0
1758076947.2641,1758076947.19594,0.0,0.0,0.0,-1.94806,42.39888,4.69825,9.48,-0.61,0.47,2.0
1758076947.26542,1758076947.20594,0.0,0.0,0.0,-1.43239,44.86259,4.92744,9.48,-0.61,0.47,2.0
1758076947.28065,1758076947.21594,0.0,0.0,0.0,-1.77617,46.46688,4.64096,9.34,-0.17,0.76,2.0
1758076947.28363,1758076947.22594,0.0,0.0,0.0,-2.46372,46.81066,4.29718,9.34,-0.17,0.76,2.0
1758076947.30182,1758076947.23594,0.0,0.0,0.0,-3.60963,47.61279,3.72423,9.3,0.27,0.58,2.0
1758076947.30279,1758076947.24594,0.0,0.0,0.0,-5.27121,48.64412,3.03668,9.3,0.27,0.58,2.0
1758076947.31798,1758076947.25594,0.0,0.0,0.0,-7.67763,49.79003,2.23454,9.47,0.6,0.66,2.0
1758076947.33379,1758076947.26594,0.0,0.0,0.0,-8.76626,48.75871,2.00535,9.14,0.78,0.95,2.0
1758076947.33503,1758076947.27594,0.0,0.0,0.0,-9.74028,46.98254,1.94806,9.14,0.78,0.95,2.0
1758076947.35093,1758076947.28594,0.0,0.0,0.0,-10.37054,45.60744,1.60428,8.89,0.66,1.1,2.0
1758076947.35185,1758076947.29594,0.0,0.0,0.0,-11.80293,44.23235,1.3178,8.89,0.66,1.1,2.0
1758076947.36816,1758076947.30594,0.0,0.0,0.0,-12.43318,43.37291,0.85944,8.98,0.27,0.91,2.0
1758076947.38412,1758076947.31594,0.0,0.0,0.0,-12.83425,41.88322,0.51566,8.98,0.27,0.91,2.0
1758076947.38505,1758076947.32594,0.0,0.0,0.0,-12.83425,39.07573,0.17189,9.11,-0.15,0.87,2.0
1758076947.40277,1758076947.33594,0.0,0.0,0.0,-12.71966,35.75257,-0.11459,9.15,-0.5,0.91,2.0
1758076947.40415,1758076947.34594,0.0,0.0,0.0,-12.08941,31.28349,-0.0573,9.15,-0.5,0.91,2.0
1758076947.41994,1758076947.35594,0.0,0.0,0.0,-11.28727,26.35606,0.17189,8.96,-0.69,0.7,2.0
1758076947.43585,1758076947.36594,0.0,0.0,0.0,-9.33921,19.88164,1.3178,8.96,-0.69,0.7,2.0
1758076947.43703,1758076947.37594,0.0,0.0,0.0,-7.50575,15.29797,2.23454,8.91,-0.72,0.73,2.0
1758076947.45183,1758076947.38594,0.0,0.0,0.0,-5.32851,10.71431,3.49504,8.91,-0.72,0.73,2.0
1758076947.45303,1758076947.39594,0.0,0.0,0.0,-2.92208,5.72958,4.64096,8.71,-0.75,0.65,2.0
1758076947.46809,1758076947.40594,0.0,0.0,0.0,0.97403,2.6929,6.13065,8.93,-0.81,0.54,2.0
1758076947.48569,1758076947.41594,0.0,0.0,0.0,3.49504,2.63561,6.99009,8.93,-0.81,0.54,2.0
1758076947.49073,1758076947.42594,0.0,0.0,0.0,5.95876,2.57831,7.79223,9.35,-0.82,0.55,2.0
1758076947.50586,1758076947.43594,0.0,0.0,0.0,8.25059,1.83346,8.36518,9.35,-0.82,0.55,2.0
1758076947.50708,1758076947.44594,0.0,0.0,0.0,6.8182,2.7502,8.99544,9.59,-0.69,0.78,2.0
1758076947.52297,1758076947.45594,0.0,0.0,0.0,8.36518,-1.43239,9.68299,9.59,-0.69,0.78,2.0
1758076947.52411,1758076947.46594,0.0,0.0,0.0,7.62034,-5.32851,9.91217,9.52,-0.51,1.01,2.0
1758076947.54318,1758076947.47594,0.0,0.0,0.0,7.16197,-11.17268,10.59972,9.52,-0.51,1.01,2.0
1758076947.54517,1758076947.48594,0.0,0.0,0.0,5.21392,-16.55848,10.65701,9.2,-0.46,0.22,2.0
1758076947.56099,1758076947.49594,0.0,0.0,0.0,6.41713,-12.71966,11.45916,9.87,-0.55,-0.31,2.0
1758076947.56266,1758076947.50594,0.0,0.0,0.0,7.21927,-4.0107,10.71431,9.87,-0.55,-0.31,2.0
1758076947.57885,1758076947.51594,0.0,0.0,0.0,11.74564,5.21392,10.08406,11.06,-0.95,-0.08,2.0
1758076947.58323,1758076947.52594,0.0,0.0,0.0,15.0115,15.41257,8.76626,11.06,-0.95,-0.08,2.0
1758076947.59886,1758076947.53594,0.0,0.0,0.0,18.50654,17.30333,7.33386,11.09,-1.09,-0.09,2.0
1758076947.60335,1758076947.54594,0.0,0.0,0.0,21.7151,15.92823,5.95876,11.09,-1.09,-0.09,2.0
1758076947.61886,1758076947.55594,0.0,0.0,0.0,26.64254,7.04738,4.52637,10.62,-1.03,0.54,2.0
1758076947.6233,1758076947.56594,0.0,0.0,0.0,28.476,0.45837,4.81285,11.04,-1.01,1.12,2.0
1758076947.63915,1758076947.57594,0.0,0.0,0.0,28.70519,-6.70361,6.13065,11.04,-1.01,1.12,2.0
1758076947.64325,1758076947.58594,0.0,0.0,0.0,29.33544,-22.97561,8.99544,11.82,-0.59,3.19,2.0
1758076947.6589,1758076947.59594,0.0,0.0,0.0,30.93972,-60.33246,18.10547,11.82,-0.59,3.19,2.0
1758076947.66322,1758076947.60594,0.0,0.0,0.0,29.50733,-63.99939,23.20479,11.17,0.07,3.26,2.0
1758076947.67918,1758076947.61594,0.0,0.0,0.0,27.1582,-61.76485,25.89769,11.17,0.07,3.26,2.0
1758076947.6833,1758076947.62594,0.0,0.0,0.0,22.68913,-59.18654,25.43933,12.14,0.26,2.1,2.0
1758076947.69919,1758076947.63594,0.0,0.0,0.0,15.46986,-59.75951,21.48592,10.01,0.86,2.85,2.0
1758076947.71673,1758076947.64594,0.0,0.0,0.0,12.71966,-67.78091,20.85567,10.01,0.86,2.85,2.0
1758076947.71794,1758076947.65594,0.0,0.0,0.0,11.91752,-74.31263,21.7151,9.37,0.21,3.33,2.0
1758076947.73316,1758076947.66594,0.0,0.0,0.0,11.74564,-71.39055,21.08485,9.37,0.21,3.33,2.0
1758076947.73526,1758076947.67594,0.0,0.0,0.0,13.17803,-58.55629,20.16812,11.57,0.03,4.28,2.0
1758076947.75153,1758076947.68594,0.0,0.0,0.0,15.06879,-52.48294,19.59516,11.57,0.03,4.28,2.0
1758076947.75267,1758076947.69594,0.0,0.0,0.0,18.16276,-45.26366,18.16276,11.01,0.54,3.88,2.0
1758076947.76818,1758076947.70594,0.0,0.0,0.0,21.60051,-39.4768,17.36062,11.01,0.54,3.88,2.0
1758076947.78391,1758076947.71594,0.0,0.0,0.0,25.7831,-29.10626,15.12609,10.13,0.66,2.63,2.0
1758076947.78593,1758076947.72594,0.0,0.0,0.0,27.44468,-20.45459,11.11538,10.47,0.5,2.21,2.0
1758076947.80252,1758076947.73594,0.0,0.0,0.0,27.78845,-8.47978,6.18794,10.47,0.5,2.21,2.0
1758076947.80369,1758076947.74594,0.0,0.0,0.0,26.06958,14.38124,-1.3751,11.98,0.34,1.82,2.0
1758076947.81888,1758076947.75594,0.0,0.0,0.0,23.89234,28.87707,-5.78687,11.98,0.34,1.82,2.0
1758076947.83763,1758076947.76594,0.0,0.0,0.0,20.45459,41.02378,-9.33921,12.18,0.59,1.34,2.0
1758076947.83978,1758076947.77594,0.0,0.0,0.0,16.04282,51.45161,-11.91752,12.18,0.59,1.34,2.0
1758076947.85495,1758076947.78594,0.0,0.0,0.0,8.65166,60.61894,-13.69369,11.05,1.09,1.12,2.0
1758076947.85857,1758076947.79594,0.0,0.0,0.0,3.60963,62.16592,-13.5791,9.78,1.67,1.03,2.0
1758076947.87397,1758076947.80594,0.0,0.0,0.0,-0.51566,63.19725,-12.08941,9.78,1.67,1.03,2.0
1758076947.87511,1758076947.81594,0.0,0.0,0.0,-4.46907,64.17127,-10.48513,9.71,1.86,1.13,2.0
1758076947.89148,1758076947.82594,0.0,0.0,0.0,-8.76626,64.51505,-8.65166,9.71,1.86,1.13,2.0
1758076947.89296,1758076947.83594,0.0,0.0,0.0,-10.48513,62.79618,-8.30789,9.55,1.34,1.31,2.0
1758076947.9083,1758076947.84594,0.0,0.0,0.0,-11.51645,60.90542,-8.0787,9.55,1.34,1.31,2.0
1758076947.92402,1758076947.85594,0.0,0.0,0.0,-12.14671,59.18654,-8.36518,9.07,0.51,1.39,2.0
1758076947.92515,1758076947.86594,0.0,0.0,0.0,-12.204,56.66553,-8.76626,8.45,0.02,1.29,2.0
1758076947.94148,1758076947.87594,0.0,0.0,0.0,-12.204,53.17049,-9.28192,8.45,0.02,1.29,2.0
1758076947.94272,1758076947.88594,0.0,0.0,0.0,-12.43318,48.52953,-9.96947,7.54,-0.15,1.43,2.0
1758076947.95801,1758076947.89594,0.0,0.0,0.0,-12.60507,42.34158,-10.25595,7.54,-0.15,1.43,2.0
1758076947.97399,1758076947.90594,0.0,0.0,0.0,-13.00614,31.79916,-10.94349,6.96,-0.13,1.56,2.0
1758076947.97512,1758076947.91594,0.0,0.0,0.0,-13.23533,25.43933,-11.28727,6.96,-0.13,1.56,2.0
1758076947.99154,1758076947.92594,0.0,0.0,0.0,-13.5218,19.53786,-11.80293,7.12,0.01,1.62,2.0
1758076947.99382,1758076947.93594,0.0,0.0,0.0,-13.80828,13.75099,-11.86023,7.12,0.01,1.62,2.0
1758076948.00924,1758076947.94594,0.0,0.0,0.0,-14.09476,5.4431,-11.45916,7.55,0.25,1.61,2.0
1758076948.02533,1758076947.95594,0.0,0.0,0.0,-14.49583,1.3751,-11.22997,8.01,0.48,1.56,2.0
1758076948.02774,1758076947.96594,0.0,0.0,0.0,-15.0115,-0.74485,-10.59972,8.01,0.48,1.56,2.0
1758076948.04334,1758076947.97594,0.0,0.0,0.0,-16.21471,-1.83346,-10.02676,8.59,0.6,1.43,2.0
1758076948.04538,1758076947.98594,0.0,0.0,0.0,-16.90226,-2.11994,-9.5684,8.59,0.6,1.43,2.0
1758076948.06016,1758076947.99594,0.0,0.0,0.0,-17.81899,-2.11994,-9.5684,8.9,0.41,1.42,2.0
1758076948.07706,1758076948.00594,0.0,0.0,0.0,-18.73572,-2.57831,-9.68299,8.9,0.41,1.42,2.0
1758076948.07799,1758076948.01594,0.0,0.0,0.0,-20.16812,-3.38045,-10.02676,8.99,0.05,1.31,2.0
1758076948.09309,1758076948.02594,0.0,0.0,0.0,-22.97561,-1.71887,-11.97482,9.17,0.21,1.4,2.0
1758076948.09452,1758076948.03594,0.0,0.0,0.0,-27.10091,-1.77617,-14.78231,9.17,0.21,1.4,2.0
1758076948.10927,1758076948.04594,0.0,0.0,0.0,-29.73651,-6.58902,-15.87093,8.98,0.65,1.12,2.0
1758076948.12599,1758076948.05594,0.0,0.0,0.0,-32.14294,-13.23533,-14.43854,8.98,0.65,1.12,2.0
1758076948.12876,1758076948.06594,0.0,0.0,0.0,-34.37747,-14.9542,-13.69369,9.62,0.15,0.65,2.0
1758076948.14429,1758076948.07594,0.0,0.0,0.0,-36.55471,-17.30333,-13.00614,9.62,0.15,0.65,2.0
1758076948.14922,1758076948.08594,0.0,0.0,0.0,-38.44547,-20.3973,-12.54778,9.86,0.11,0.5,2.0
1758076948.16432,1758076948.09594,0.0,0.0,0.0,-40.33623,-25.72581,-12.08941,9.97,-0.01,0.47,2.0
1758076948.1684,1758076948.10594,0.0,0.0,0.0,-40.7946,-31.56997,-11.22997,9.97,-0.01,0.47,2.0
1758076948.18431,1758076948.11594,0.0,0.0,0.0,-41.25296,-37.64333,-10.8862,10.05,-0.14,0.05,2.0
1758076948.19187,1758076948.12594,0.0,0.0,0.0,-41.36755,-41.76862,-10.54242,10.05,-0.14,0.05,2.0
1758076948.19225,1758076948.13594,0.0,0.0,0.0,-41.59674,-42.68536,-10.02676,10.54,-0.38,-0.16,2.0
1758076948.20835,1758076948.14594,0.0,0.0,0.0,-41.99781,-41.99781,-9.22462,10.54,-0.38,-0.16,2.0
1758076948.22409,1758076948.15594,0.0,0.0,0.0,-43.14373,-40.04975,-8.65166,11.13,-0.5,-0.54,2.0
1758076948.22683,1758076948.16594,0.0,0.0,0.0,-45.72203,-35.00772,-7.73493,11.13,-0.5,-0.54,2.0
1758076948.24468,1758076948.17594,0.0,0.0,0.0,-48.75871,-28.476,-8.02141,11.33,-0.43,-0.54,2.0
1758076948.25202,1758076948.18594,0.0,0.0,0.0,-51.50891,-20.3973,-7.44845,12.11,-0.16,-0.15,2.0
1758076948.25337,1758076948.19594,0.0,0.0,0.0,-54.71747,-11.00079,-7.33386,12.11,-0.16,-0.15,2.0
1758076948.27287,1758076948.20594,0.0,0.0,0.0,-58.49899,-0.22918,-8.70896,13.45,-0.18,0.9,2.0
1758076948.27508,1758076948.21594,0.0,0.0,0.0,-60.04598,-5.90147,-9.5684,13.45,-0.18,0.9,2.0
1758076948.29183,1758076948.22594,0.0,0.0,0.0,-60.50434,-27.61657,-12.60507,11.4,-0.16,2.14,2.0
1758076948.2928,1758076948.23594,0.0,0.0,0.0,-60.10328,-43.31561,-14.61043,11.4,-0.16,2.14,2.0
1758076948.30827,1758076948.24594,0.0,0.0,0.0,-59.07195,-59.47303,-20.16812,10.69,0.5,2.49,2.0
1758076948.31323,1758076948.25594,0.0,0.0,0.0,-57.12389,-58.26981,-22.68913,12.6,0.66,2.88,2.0
1758076948.3327,1758076948.26594,0.0,0.0,0.0,-55.00395,-52.76942,-23.31938,12.6,0.66,2.88,2.0
1758076948.33442,1758076948.27594,0.0,0.0,0.0,-53.11319,-49.50356,-21.7151,11.82,0.76,3.16,2.0
1758076948.35192,1758076948.28594,0.0,0.0,0.0,-53.17049,-47.72739,-16.61578,11.82,0.76,3.16,2.0
1758076948.35283,1758076948.29594,0.0,0.0,0.0,-55.6342,-47.89928,-14.20935,9.23,0.92,3.28,2.0
1758076948.36807,1758076948.30594,0.0,0.0,0.0,-59.35843,-47.72739,-13.06344,9.23,0.92,3.28,2.0
1758076948.38513,1758076948.31594,0.0,0.0,0.0,-63.65561,-44.17505,-13.86558,8.46,0.83,3.91,2.0
1758076948.38797,1758076948.32594,0.0,0.0,0.0,-70.53111,-42.22699,-17.93358,9.37,0.82,4.91,2.0
1758076948.40337,1758076948.33594,0.0,0.0,0.0,-75.40125,-45.89392,-21.02755,9.37,0.82,4.91,2.0
1758076948.40424,1758076948.34594,0.0,0.0,0.0,-78.55252,-49.56085,-23.37668,9.61,0.76,3.26,2.0
1758076948.41934,1758076948.35594,0.0,0.0,0.0,-80.95895,-50.01921,-23.89234,9.61,0.76,3.26,2.0
1758076948.43663,1758076948.36594,0.0,0.0,0.0,-81.64648,-34.26288,-23.54857,11.42,0.6,1.4,2.0
1758076948.43783,1758076948.37594,0.0,0.0,0.0,-81.24542,-23.54857,-20.51189,11.42,0.6,1.4,2.0
1758076948.45327,1758076948.38594,0.0,0.0,0.0,-80.27139,-13.40721,-17.58981,12.49,0.2,0.8,2.0
1758076948.45425,1758076948.39594,0.0,0.0,0.0,-75.97421,-2.29183,-11.86023,12.49,0.2,0.8,2.0
1758076948.4709,1758076948.40594,0.0,0.0,0.0,-71.39055,3.20856,-7.84952,11.5,-0.2,0.93,2.0
1758076948.48606,1758076948.41594,0.0,0.0,0.0,-65.71826,9.39651,-4.18259,10.43,-0.94,0.25,2.0
1758076948.48723,1758076948.42594,0.0,0.0,0.0,-59.64491,15.98552,-0.80214,10.43,-0.94,0.25,2.0
1758076948.5021,1758076948.43594,0.0,0.0,0.0,-50.59217,25.43933,3.03668,9.87,-1.77,-0.14,2.0
1758076948.50326,1758076948.44594,0.0,0.0,0.0,-45.14908,31.45539,5.21392,9.87,-1.77,-0.14,2.0
1758076948.51809,1758076948.45594,0.0,0.0,0.0,-40.7373,36.55471,6.53172,9.39,-2.06,0.01,2.0
1758076948.53537,1758076948.46594,0.0,0.0,0.0,-37.35685,40.62271,8.02141,9.39,-2.06,0.01,2.0
1758076948.53707,1758076948.47594,0.0,0.0,0.0,-34.09099,44.23235,8.65166,8.89,-1.65,0.35,2.0
1758076948.55234,1758076948.48594,0.0,0.0,0.0,-32.37212,47.03984,8.47978,8.84,-0.88,0.68,2.0
1758076948.55327,1758076948.49594,0.0,0.0,0.0,-31.11161,49.67545,7.79223,8.84,-0.88,0.68,2.0
1758076948.56835,1758076948.50594,0.0,0.0,0.0,-29.9084,51.16513,7.16197,9.06,-0.19,0.74,2.0
1758076948.5851,1758076948.51594,0.0,0.0,0.0,-29.62192,52.76942,5.09932,9.06,-0.19,0.74,2.0
1758076948.58879,1758076948.52594,0.0,0.0,0.0,-30.59595,54.431,3.09397,9.19,0.4,0.94,2.0
1758076948.60518,1758076948.53594,0.0,0.0,0.0,-33.17426,55.92068,1.43239,9.19,0.4,0.94,2.0
1758076948.60606,1758076948.54594,0.0,0.0,0.0,-35.69527,55.06125,0.17189,9.19,1.2,1.24,2.0
1758076948.62269,1758076948.55594,0.0,0.0,0.0,-37.87251,53.28508,0.34377,9.09,0.94,0.7,2.0
1758076948.62408,1758076948.56594,0.0,0.0,0.0,-38.38818,53.74345,0.68755,9.09,0.94,0.7,2.0
1758076948.63941,1758076948.57594,0.0,0.0,0.0,-38.56006,54.431,1.3178,9.17,0.19,0.04,2.0
1758076948.65534,1758076948.58594,0.0,0.0,0.0,-37.64333,56.14987,2.34913,9.17,0.19,0.04,2.0
1758076948.65736,1758076948.59594,0.0,0.0,0.0,-36.84119,55.92068,2.29183,9.02,-0.43,0.04,2.0
1758076948.67239,1758076948.60594,0.0,0.0,0.0,-35.12231,51.85268,2.63561,9.02,-0.43,0.04,2.0
1758076948.6733,1758076948.61594,0.0,0.0,0.0,-32.37212,46.35228,3.66693,8.5,-0.92,0.38,2.0
1758076948.68845,1758076948.62594,0.0,0.0,0.0,-26.87172,38.1017,5.4431,8.5,-0.92,0.21,2.0
1758076948.70495,1758076948.63594,0.0,0.0,0.0,-22.74642,32.25753,6.70361,8.57,-1.21,0.21,2.0
1758076948.7086,1758076948.64594,0.0,0.0,0.0,-18.33465,26.35606,7.62034,8.51,-1.29,0.08,2.0
1758076948.72524,1758076948.65594,0.0,0.0,0.0,-14.09476,19.99623,8.47978,8.51,-1.29,0.08,2.0
1758076948.73118,1758076948.66594,0.0,0.0,0.0,-8.136,15.29797,9.11003,8.46,-1.35,0.25,2.0
1758076948.74724,1758076948.67594,0.0,0.0,0.0,-4.58366,12.71966,9.62569,8.46,-1.35,0.25,2.0
1758076948.74839,1758076948.68594,0.0,0.0,0.0,-1.14592,8.70896,10.37054,8.63,-1.44,0.38,2.0
1758076948.76337,1758076948.69594,0.0,0.0,0.0,2.00535,1.83346,11.11538,8.63,-1.44,0.38,2.0
1758076948.76472,1758076948.70594,0.0,0.0,0.0,5.95876,-10.8289,12.204,8.41,-1.56,0.67,2.0
1758076948.77918,1758076948.71594,0.0,0.0,0.0,7.44845,-19.99623,12.37589,8.74,-1.29,0.5,2.0
1758076948.79542,1758076948.72594,0.0,0.0,0.0,7.73493,-27.67386,11.91752,8.74,-1.29,0.5,2.0
1758076948.79666,1758076948.73594,0.0,0.0,0.0,6.99009,-30.25217,10.54242,9.95,-0.63,0.08,2.0
1758076948.81158,1758076948.74594,0.0,0.0,0.0,7.39116,-27.2155,9.5684,9.95,-0.63,0.08,2.0
1758076948.81235,1758076948.75594,0.0,0.0,0.0,8.47978,-23.49127,8.70896,11.63,-0.15,-0.33,2.0
1758076948.82825,1758076948.76594,0.0,0.0,0.0,10.8289,-20.85567,7.62034,11.63,-0.15,-0.33,2.0
1758076948.8453,1758076948.77594,0.0,0.0,0.0,13.5218,-20.74107,6.07335,12.4,-0.11,-0.7,2.0
1758076948.84612,1758076948.78594,0.0,0.0,0.0,13.75099,-26.06958,5.95876,12.91,-0.49,0.95,2.0
1758076948.86143,1758076948.79594,0.0,0.0,0.0,12.83425,-33.05967,7.10468,12.91,-0.49,0.95,2.0
1758076948.86346,1758076948.80594,0.0,0.0,0.0,11.11538,-40.62271,8.76626,13.56,-0.71,3.24,2.0
1758076948.88225,1758076948.81594,0.0,0.0,0.0,7.67763,-49.04519,13.12073,13.56,-0.71,3.24,2.0
1758076948.88388,1758076948.82594,0.0,0.0,0.0,5.95876,-51.22243,17.36062,13.69,-0.55,3.8,2.0
1758076948.89824,1758076948.83594,0.0,0.0,0.0,4.81285,-51.45161,20.74107,13.69,-0.55,3.8,2.0
1758076948.91535,1758076948.84594,0.0,0.0,0.0,4.58366,-51.79538,22.05888,12.73,-0.16,3.02,2.0
1758076948.91695,1758076948.85594,0.0,0.0,0.0,6.18794,-50.99325,21.02755,11.08,-0.16,2.69,2.0
1758076948.93243,1758076948.86594,0.0,0.0,0.0,9.74028,-51.50891,18.90761,11.08,-0.28,2.69,2.0
1758076948.93334,1758076948.87594,0.0,0.0,0.0,12.83425,-54.94666,15.87093,10.0,-0.96,3.27,2.0
1758076948.9483,1758076948.88594,0.0,0.0,0.0,17.81899,-59.53032,13.80828,10.0,-0.96,3.27,2.0
1758076948.96641,1758076948.89594,0.0,0.0,0.0,24.23611,-60.61894,11.97482,9.99,-1.28,4.55,2.0
1758076948.96767,1758076948.90594,0.0,0.0,0.0,27.84575,-60.73353,12.14671,9.99,-1.28,4.55,2.0
1758076948.98219,1758076948.91594,0.0,0.0,0.0,35.00772,-62.85347,14.38124,9.42,-1.17,4.12,2.0
1758076948.98372,1758076948.92594,0.0,0.0,0.0,41.02378,-63.65561,14.66772,9.42,-1.17,4.12,2.0
1758076949.00221,1758076948.93594,0.0,0.0,0.0,50.53488,-56.83742,16.38659,8.49,-0.95,3.16,2.0
1758076949.0034,1758076948.94594,0.0,0.0,0.0,53.62885,-45.83662,14.66772,10.38,-0.77,2.46,2.0
1758076949.0182,1758076948.95594,0.0,0.0,0.0,54.66018,-32.42941,12.49048,10.38,-0.77,2.46,2.0
1758076949.03496,1758076948.96594,0.0,0.0,0.0,54.14451,-18.50654,10.02676,11.4,-0.16,1.49,2.0
1758076949.03693,1758076948.97594,0.0,0.0,0.0,51.10783,3.03668,8.59437,11.4,-0.16,1.49,2.0
1758076949.05224,1758076948.98594,0.0,0.0,0.0,46.86795,15.46986,7.73493,11.16,0.73,0.31,2.0
1758076949.05341,1758076948.99594,0.0,0.0,0.0,41.48215,27.33009,6.13065,11.16,0.73,0.31,2.0
1758076949.06853,1758076949.00594,0.0,0.0,0.0,32.42941,43.37291,4.18259,10.5,1.58,-0.11,2.0
1758076949.08447,1758076949.01594,0.0,0.0,0.0,26.75713,51.73809,3.20856,9.87,1.88,-0.23,2.0
1758076949.08541,1758076949.02594,0.0,0.0,0.0,21.02755,56.78012,2.06265,9.87,1.88,-0.23,2.0
1758076949.10047,1758076949.03594,0.0,0.0,0.0,15.75634,59.47303,1.14592,9.09,1.59,0.58,2.0
1758076949.11625,1758076949.04594,0.0,0.0,0.0,9.28192,63.25455,-0.17189,9.09,1.59,0.58,2.0
1758076949.11855,1758076949.05594,0.0,0.0,0.0,6.13065,64.40046,-0.97403,8.85,0.89,1.04,2.0
1758076949.13323,1758076949.06594,0.0,0.0,0.0,3.38045,63.31184,-1.77617,8.85,0.89,1.04,2.0
1758076949.13524,1758076949.07594,0.0,0.0,0.0,1.60428,61.53567,-2.7502,8.46,0.29,1.76,2.0
1758076949.15055,1758076949.08594,0.0,0.0,0.0,0.22918,56.89471,-3.95341,8.01,-0.05,1.87,2.0
1758076949.16706,1758076949.09594,0.0,0.0,0.0,-0.0573,53.45696,-4.69825,8.01,-0.05,1.87,2.0
1758076949.17102,1758076949.10594,0.0,0.0,0.0,0.17189,49.90463,-5.09932,7.92,-0.12,1.89,2.0
1758076949.17268,1758076949.11594,0.0,0.0,0.0,0.51566,46.06581,-5.50039,7.92,-0.12,1.89,2.0
1758076949.18851,1758076949.12594,0.0,0.0,0.0,0.80214,39.24761,-6.18794,7.9,-0.07,1.8,2.0
1758076949.20735,1758076949.13594,0.0,0.0,0.0,0.85944,34.89313,-6.58902,7.9,-0.07,1.8,2.0
1758076949.21148,1758076949.14594,0.0,0.0,0.0,0.68755,29.73651,-7.04738,8.1,0.07,1.65,2.0
1758076949.21312,1758076949.15594,0.0,0.0,0.0,0.17189,23.94964,-7.62034,8.1,0.07,1.65,2.0
1758076949.22823,1758076949.16594,0.0,0.0,0.0,-0.57296,14.32395,-8.70896,8.19,0.22,1.39,2.0
1758076949.23248,1758076949.17594,0.0,0.0,0.0,-1.3751,8.76626,-8.99544,8.34,0.3,0.92,2.0
1758076949.24829,1758076949.18594,0.0,0.0,0.0,-2.34913,4.64096,-9.39651,8.34,0.3,0.92,2.0
1758076949.25249,1758076949.19594,0.0,0.0,0.0,-3.83882,3.32316,-9.62569,8.64,0.18,0.65,2.0
1758076949.26831,1758076949.20594,0.0,0.0,0.0,-4.87014,2.97938,-9.28192,8.64,0.18,0.65,2.0
1758076949.27249,1758076949.21594,0.0,0.0,0.0,-5.55769,1.77617,-8.59437,8.86,-0.04,0.83,2.0
1758076949.28857,1758076949.22594,0.0,0.0,0.0,-6.18794,1.08862,-7.79223,8.86,-0.04,0.83,2.0
1758076949.29282,1758076949.23594,0.0,0.0,0.0,-7.50575,-2.06265,-4.81285,8.97,-0.22,1.03,2.0
1758076949.30834,1758076949.24594,0.0,0.0,0.0,-9.22462,-5.55769,-3.20856,9.12,-0.18,1.03,2.0
1758076949.3136,1758076949.25594,0.0,0.0,0.0,-11.22997,-8.02141,-2.40642,9.12,-0.18,1.03,2.0
1758076949.3311,1758076949.26594,0.0,0.0,0.0,-14.15206,-10.02676,-2.23454,9.67,0.14,0.85,2.0
1758076949.33279,1758076949.27594,0.0,0.0,0.0,-19.59516,-14.32395,-3.89611,9.67,0.14,0.85,2.0
1758076949.35271,1758076949.28594,0.0,0.0,0.0,-23.49127,-18.33465,-5.61499,10.11,0.49,0.48,2.0
1758076949.35363,1758076949.29594,0.0,0.0,0.0,-27.2155,-22.68913,-7.84952,10.11,0.49,0.48,2.0
1758076949.37081,1758076949.30594,0.0,0.0,0.0,-30.25217,-30.25217,-9.96947,10.29,0.7,0.09,2.0
1758076949.37285,1758076949.31594,0.0,0.0,0.0,-34.60666,-43.88857,-12.204,9.94,0.64,-0.36,2.0
1758076949.38828,1758076949.32594,0.0,0.0,0.0,-37.18496,-49.21708,-13.12073,9.94,0.64,-0.36,2.0
1758076949.39265,1758076949.33594,0.0,0.0,0.0,-39.3622,-50.64947,-13.80828,10.51,0.16,-1.04,2.0
1758076949.4125,1758076949.34594,0.0,0.0,0.0,-41.31026,-49.96192,-13.34992,10.51,0.16,-1.04,2.0
1758076949.41349,1758076949.35594,0.0,0.0,0.0,-44.8053,-43.25832,-11.86023,11.45,-0.26,-0.92,2.0
1758076949.42856,1758076949.36594,0.0,0.0,0.0,-45.72203,-37.58603,-10.31324,11.45,-0.26,-0.92,2.0
1758076949.43349,1758076949.37594,0.0,0.0,0.0,-45.14908,-31.16891,-8.76626,12.22,-0.84,-0.41,2.0
1758076949.45229,1758076949.38594,0.0,0.0,0.0,-43.37291,-22.97561,-7.10468,12.22,-0.84,-0.41,2.0
1758076949.45327,1758076949.39594,0.0,0.0,0.0,-38.50277,-16.04282,-6.47442,13.52,-1.17,0.43,2.0
1758076949.46856,1758076949.40594,0.0,0.0,0.0,-32.6013,-26.35606,-6.13065,12.77,-1.32,2.08,2.0
1758076949.47331,1758076949.41594,0.0,0.0,0.0,-29.9084,-47.26902,-10.25595,12.77,-1.32,2.08,2.0
1758076949.49256,1758076949.42594,0.0,0.0,0.0,-26.52795,-60.73353,-15.98552,11.47,-0.28,2.35,2.0
1758076949.49771,1758076949.43594,0.0,0.0,0.0,-24.92367,-53.91533,-20.22541,11.47,-0.28,2.35,2.0
1758076949.51334,1758076949.44594,0.0,0.0,0.0,-22.23076,-42.39888,-21.6578,13.84,0.88,1.69,2.0
1758076949.51727,1758076949.45594,0.0,0.0,0.0,-19.42327,-34.60666,-20.79837,13.84,0.88,1.69,2.0
1758076949.53241,1758076949.46594,0.0,0.0,0.0,-16.73037,-27.50197,-16.84496,12.03,0.95,1.95,2.0
1758076949.56331,1758076949.47594,0.0,0.0,0.0,-17.36062,-25.43933,-14.72501,9.52,0.7,2.87,2.0
1758076949.56383,1758076949.48594,0.0,0.0,0.0,-18.9649,-27.84575,-13.23533,9.52,0.7,2.87,2.0
1758076949.56776,1758076949.49594,0.0,0.0,0.0,-22.00158,-30.76784,-14.03747,8.04,0.01,4.28,2.0
1758076949.56813,1758076949.50594,0.0,0.0,0.0,-26.01229,-32.48671,-16.50119,8.04,0.01,4.28,2.0
1758076949.57332,1758076949.51594,0.0,0.0,0.0,-27.61657,-30.02299,-18.50654,9.16,-0.66,4.65,2.0
1758076949.59279,1758076949.52594,0.0,0.0,0.0,-27.84575,-26.69983,-19.82434,9.16,-0.66,4.65,2.0
1758076949.59366,1758076949.53594,0.0,0.0,0.0,-26.69983,-26.01229,-20.3973,10.3,-0.68,3.14,2.0
1758076949.61015,1758076949.54594,0.0,0.0,0.0,-23.37668,-21.6578,-18.44924,10.58,-0.42,1.81,2.0
1758076949.62123,1758076949.55594,0.0,0.0,0.0,-22.34536,-4.46907,-15.75634,10.58,-0.42,1.81,2.0
1758076949.6229,1758076949.56594,0.0,0.0,0.0,-22.23076,9.39651,-11.28727,12.32,0.0,1.13,2.0
1758076949.64235,1758076949.57594,0.0,0.0,0.0,-21.14215,19.88164,-7.04738,12.32,0.0,1.13,2.0
1758076949.64467,1758076949.58594,0.0,0.0,0.0,-17.53251,28.41871,-0.74485,11.02,-0.1,1.61,2.0
1758076949.66347,1758076949.59594,0.0,0.0,0.0,-13.69369,33.51803,2.40642,11.02,-0.1,1.61,2.0
1758076949.66882,1758076949.60594,0.0,0.0,0.0,-9.62569,39.4768,5.15662,10.38,-0.67,0.79,2.0
1758076949.67266,1758076949.61594,0.0,0.0,0.0,-3.72423,43.77398,8.02141,10.38,-0.67,0.79,2.0
1758076949.68859,1758076949.62594,0.0,0.0,0.0,-0.34377,48.58683,9.11003,10.03,-1.43,0.27,2.0
1758076949.70468,1758076949.63594,0.0,0.0,0.0,2.00535,53.05589,9.33921,9.85,-1.69,0.53,2.0
1758076949.7087,1758076949.64594,0.0,0.0,0.0,4.46907,56.952,9.28192,9.85,-1.69,0.53,2.0
1758076949.72461,1758076949.65594,0.0,0.0,0.0,6.7609,59.35843,8.36518,9.41,-1.31,0.47,2.0
1758076949.72555,1758076949.66594,0.0,0.0,0.0,6.99009,58.67088,7.44845,9.41,-1.31,0.47,2.0
1758076949.74303,1758076949.67594,0.0,0.0,0.0,6.70361,56.37905,6.7609,8.7,-0.61,0.71,2.0
1758076949.74877,1758076949.68594,0.0,0.0,0.0,5.55769,53.74345,5.84417,8.7,-0.61,0.71,2.0
1758076949.7647,1758076949.69594,0.0,0.0,0.0,3.66693,49.56085,4.18259,8.25,0.07,0.67,2.0
1758076949.7664,1758076949.70594,0.0,0.0,0.0,2.11994,47.32632,2.86479,8.16,0.64,0.91,2.0
1758076949.78218,1758076949.71594,0.0,0.0,0.0,0.85944,44.00316,1.83346,8.16,0.64,0.91,2.0
1758076949.78368,1758076949.72594,0.0,0.0,0.0,0.0,40.39353,1.77617,8.1,0.81,0.97,2.0
1758076949.80266,1758076949.73594,0.0,0.0,0.0,-1.3751,35.58068,2.29183,8.1,0.81,0.97,2.0
1758076949.80465,1758076949.74594,0.0,0.0,0.0,-2.34913,32.54401,3.20856,8.32,0.48,0.78,2.0
1758076949.82034,1758076949.75594,0.0,0.0,0.0,-3.32316,29.73651,4.18259,8.32,0.48,0.78,2.0
1758076949.82567,1758076949.76594,0.0,0.0,0.0,-4.52637,26.75713,5.09932,8.47,0.0,0.48,2.0
1758076949.84362,1758076949.77594,0.0,0.0,0.0,-5.95876,21.14215,5.84417,8.4,-0.31,0.4,2.0
1758076949.84643,1758076949.78594,0.0,0.0,0.0,-6.87549,16.95955,6.47442,8.4,-0.31,0.4,2.0
1758076949.86322,1758076949.79594,0.0,0.0,0.0,-7.73493,13.00614,6.87549,8.39,-0.45,0.39,2.0
1758076949.86817,1758076949.80594,0.0,0.0,0.0,-8.02141,9.11003,7.33386,8.39,-0.45,0.39,2.0
1758076949.88365,1758076949.81594,0.0,0.0,0.0,-7.96411,3.95341,7.39116,8.67,-0.46,0.43,2.0
1758076949.88888,1758076949.82594,0.0,0.0,0.0,-7.73493,2.11994,7.79223,8.67,-0.46,0.43,2.0
1758076949.9037,1758076949.83594,0.0,0.0,0.0,-8.0787,1.14592,7.04738,9.19,-0.39,0.39,2.0
1758076949.90533,1758076949.84594,0.0,0.0,0.0,-6.41713,2.29183,7.16197,9.19,-0.39,0.39,2.0
1758076949.92243,1758076949.85594,0.0,0.0,0.0,-5.72958,4.0107,7.50575,9.63,-0.39,0.05,2.0
1758076949.92339,1758076949.86594,0.0,0.0,0.0,-4.92744,5.27121,7.84952,9.84,-0.39,0.25,2.0
1758076949.93843,1758076949.87594,0.0,0.0,0.0,-4.18259,5.50039,8.65166,9.84,-0.39,0.25,2.0
1758076949.95433,1758076949.88594,0.0,0.0,0.0,-3.26586,3.49504,10.08406,9.65,-0.42,0.27,2.0
1758076949.95715,1758076949.89594,0.0,0.0,0.0,-2.46372,0.45837,11.00079,9.65,-0.42,0.27,2.0
1758076949.97238,1758076949.90594,0.0,0.0,0.0,-1.3751,-2.63561,11.45916,9.53,-0.5,0.32,2.0
1758076949.97445,1758076949.91594,0.0,0.0,0.0,0.0573,-6.18794,11.45916,9.53,-0.5,0.32,2.0
1758076949.98964,1758076949.92594,0.0,0.0,0.0,3.72423,-12.60507,10.54242,9.63,-0.66,-0.11,2.0
1758076949.99145,1758076949.93594,0.0,0.0,0.0,7.04738,-15.98552,9.74028,10.1,-0.92,-0.47,2.0
1758076950.00808,1758076949.94594,0.0,0.0,0.0,11.00079,-16.67307,8.59437,10.1,-0.92,-0.47,2.0
1758076950.0238,1758076949.95594,0.0,0.0,0.0,15.58445,-14.09476,7.10468,11.12,-1.15,-0.66,2.0
1758076950.02549,1758076949.96594,0.0,0.0,0.0,23.83505,-9.85487,4.46907,11.12,-1.15,-0.66,2.0
1758076950.0407,1758076949.97594,0.0,0.0,0.0,28.64789,-17.81899,4.1253,11.62,-1.8,0.31,2.0
1758076950.04325,1758076949.98594,0.0,0.0,0.0,31.39809,-33.9764,5.95876,11.62,-1.8,0.31,2.0
1758076950.05854,1758076949.99594,0.0,0.0,0.0,31.45539,-49.61814,9.91217,12.13,-1.94,3.67,2.0
1758076950.06043,1758076950.00594,0.0,0.0,0.0,27.38738,-63.65561,18.44924,14.28,-0.61,5.14,2.0
1758076950.07596,1758076950.01594,0.0,0.0,0.0,24.86637,-60.38975,23.26209,14.28,-0.61,5.14,2.0
1758076950.09371,1758076950.02594,0.0,0.0,0.0,22.05888,-54.48829,25.09555,13.71,0.57,3.29,2.0
1758076950.09573,1758076950.03594,0.0,0.0,0.0,20.22541,-50.82136,24.57989,13.71,0.57,3.29,2.0
1758076950.11046,1758076950.04594,0.0,0.0,0.0,20.11082,-52.71212,21.37133,10.7,0.62,2.94,2.0
1758076950.11257,1758076950.05594,0.0,0.0,0.0,22.74642,-54.66018,19.53786,10.7,0.62,2.94,2.0
1758076950.12774,1758076950.06594,0.0,0.0,0.0,25.55392,-48.07116,17.6471,9.89,-0.1,3.69,2.0
1758076950.14373,1758076950.07594,0.0,0.0,0.0,32.83048,-31.97105,17.13144,9.89,-0.1,3.69,2.0
1758076950.14547,1758076950.08594,0.0,0.0,0.0,35.52338,-23.26209,15.75634,11.6,-0.72,4.6,2.0
1758076950.16373,1758076950.09594,0.0,0.0,0.0,40.7946,-39.01843,18.33465,9.25,-1.01,3.72,2.0
1758076950.16862,1758076950.10594,0.0,0.0,0.0,45.37826,-52.02457,17.99088,9.25,-1.01,3.72,2.0
1758076950.1837,1758076950.11594,0.0,0.0,0.0,52.9986,-35.40879,20.22541,9.45,-1.59,1.8,2.0
1758076950.18628,1758076950.12594,0.0,0.0,0.0,55.57691,-18.22006,16.84496,9.45,-1.59,1.8,2.0
1758076950.20227,1758076950.13594,0.0,0.0,0.0,57.92604,-2.6929,13.06344,12.69,-1.39,1.84,2.0
1758076950.20345,1758076950.14594,0.0,0.0,0.0,58.3844,8.93814,10.19865,12.69,-1.39,1.84,2.0
1758076950.2188,1758076950.15594,0.0,0.0,0.0,56.78012,23.54857,6.70361,11.15,-0.62,1.83,2.0
1758076950.22285,1758076950.16594,0.0,0.0,0.0,53.39967,34.26288,4.64096,10.08,0.3,0.95,2.0
1758076950.23871,1758076950.17594,0.0,0.0,0.0,48.75871,43.54479,2.7502,10.08,0.3,0.95,2.0
1758076950.24251,1758076950.18594,0.0,0.0,0.0,43.20102,50.53488,1.66158,9.4,1.37,0.31,2.0
1758076950.25829,1758076950.19594,0.0,0.0,0.0,34.66395,56.60823,2.11994,9.4,1.37,0.31,2.0
1758076950.26297,1758076950.20594,0.0,0.0,0.0,29.10626,59.07195,3.38045,9.02,2.0,0.48,2.0
1758076950.27848,1758076950.21594,0.0,0.0,0.0,23.72045,60.27517,4.92744,9.02,2.0,0.48,2.0
1758076950.28212,1758076950.22594,0.0,0.0,0.0,19.53786,62.05133,6.47442,8.67,1.84,0.66,2.0
1758076950.29856,1758076950.23594,0.0,0.0,0.0,14.15206,59.98868,7.21927,8.08,1.18,0.99,2.0
1758076950.31721,1758076950.24594,0.0,0.0,0.0,11.80293,57.41038,6.99009,8.08,1.18,0.99,2.0
1758076950.31894,1758076950.25594,0.0,0.0,0.0,10.19865,52.71212,5.84417,7.67,0.34,1.45,2.0
1758076950.33449,1758076950.26594,0.0,0.0,0.0,9.05273,46.35228,3.26586,7.67,0.34,1.45,2.0
1758076950.33899,1758076950.27594,0.0,0.0,0.0,8.88085,42.22699,1.3751,7.75,-0.25,1.38,2.0
1758076950.35484,1758076950.28594,0.0,0.0,0.0,8.70896,37.87251,-0.51566,7.75,-0.25,1.38,2.0
1758076950.3574,1758076950.29594,0.0,0.0,0.0,8.136,34.77854,-1.94806,7.95,-0.46,1.33,2.0
1758076950.3728,1758076950.30594,0.0,0.0,0.0,7.67763,28.41871,-3.55234,7.95,-0.46,1.32,2.0
1758076950.37367,1758076950.31594,0.0,0.0,0.0,6.87549,23.20479,-4.18259,8.16,-0.35,1.32,2.0
1758076950.38882,1758076950.32594,0.0,0.0,0.0,5.78687,18.79302,-4.23989,8.34,-0.03,1.28,2.0
1758076950.39378,1758076950.33594,0.0,0.0,0.0,4.64096,14.43854,-4.1253,8.34,-0.03,1.28,2.0
1758076950.40871,1758076950.34594,0.0,0.0,0.0,2.86479,9.74028,-4.18259,8.46,0.28,0.88,2.0
1758076950.41205,1758076950.35594,0.0,0.0,0.0,2.23454,9.85487,-3.72423,8.46,0.28,0.88,2.0
1758076950.42779,1758076950.36594,0.0,0.0,0.0,2.23454,10.59972,-3.20856,8.9,0.37,0.7,2.0
1758076950.44382,1758076950.37594,0.0,0.0,0.0,2.46372,11.17268,-2.40642,8.9,0.37,0.7,2.0
1758076950.4456,1758076950.38594,0.0,0.0,0.0,3.20856,9.28192,-2.11994,9.09,0.11,1.03,2.0
1758076950.46214,1758076950.39594,0.0,0.0,0.0,3.66693,7.21927,-1.60428,9.15,-0.26,1.1,2.0
1758076950.46333,1758076950.40594,0.0,0.0,0.0,3.89611,5.55769,-1.48969,9.15,-0.26,1.1,2.0
1758076950.48353,1758076950.41594,0.0,0.0,0.0,3.55234,2.7502,-0.80214,9.25,-0.47,0.96,2.0
1758076950.50194,1758076950.42594,0.0,0.0,0.0,1.08862,-2.92208,-0.68755,9.25,-0.47,0.96,2.0
1758076950.50221,1758076950.43594,0.0,0.0,0.0,-1.71887,-6.8182,-0.74485,9.42,-0.36,0.8,2.0
1758076950.50436,1758076950.44594,0.0,0.0,0.0,-5.4431,-11.86023,-1.66158,9.42,-0.36,0.8,2.0
1758076950.52286,1758076950.45594,0.0,0.0,0.0,-12.37589,-17.58981,-4.46907,9.85,0.0,0.73,2.0
1758076950.52376,1758076950.46594,0.0,0.0,0.0,-16.73037,-25.89769,-6.99009,10.34,0.49,0.55,2.0
1758076950.53887,1758076950.47594,0.0,0.0,0.0,-20.74107,-33.11696,-8.88085,10.34,0.49,0.55,2.0
1758076950.54326,1758076950.48594,0.0,0.0,0.0,-24.23611,-39.4195,-10.37054,10.52,0.62,0.1,2.0
1758076950.56084,1758076950.49594,0.0,0.0,0.0,-28.76248,-43.31561,-12.54778,10.52,0.62,0.1,2.0
1758076950.5634,1758076950.50594,0.0,0.0,0.0,-31.62727,-42.22699,-13.69369,11.06,0.32,-0.43,2.0
1758076950.57881,1758076950.51594,0.0,0.0,0.0,-34.09099,-38.44547,-13.17803,11.06,0.32,-0.43,2.0
1758076950.58254,1758076950.52594,0.0,0.0,0.0,-36.03905,-32.54401,-12.37589,11.84,-0.07,-0.39,2.0
1758076950.59835,1758076950.53594,0.0,0.0,0.0,-37.92981,-23.60586,-10.71431,12.25,-0.07,0.17,2.0
1758076950.61535,1758076950.54594,0.0,0.0,0.0,-38.61736,-20.16812,-10.31324,12.25,-0.64,0.17,2.0
1758076950.61738,1758076950.55594,0.0,0.0,0.0,-38.78925,-21.37133,-10.19865,12.69,-0.98,1.19,2.0
1758076950.63275,1758076950.56594,0.0,0.0,0.0,-38.50277,-25.09555,-10.8862,12.69,-0.98,1.19,2.0
1758076950.63379,1758076950.57594,0.0,0.0,0.0,-34.43476,-33.86181,-12.83425,12.84,-1.32,3.45,2.0
1758076950.65247,1758076950.58594,0.0,0.0,0.0,-30.13758,-49.56085,-15.12609,12.84,-1.32,3.45,2.0
1758076950.65341,1758076950.59594,0.0,0.0,0.0,-25.7831,-76.1461,-21.60051,11.61,-0.86,4.51,2.0
1758076950.66962,1758076950.60594,0.0,0.0,0.0,-21.08485,-82.56322,-25.72581,11.61,-0.86,4.51,2.0
1758076950.67273,1758076950.61594,0.0,0.0,0.0,-15.24068,-72.42187,-27.78845,11.43,0.62,3.33,2.0
1758076950.68887,1758076950.62594,0.0,0.0,0.0,-14.09476,-61.65026,-27.44468,10.34,1.67,1.51,2.0
1758076950.69331,1758076950.63594,0.0,0.0,0.0,-15.75634,-54.431,-26.47065,10.34,1.67,1.51,2.0
1758076950.70888,1758076950.64594,0.0,0.0,0.0,-20.51189,-54.88936,-25.55392,7.86,1.48,3.6,2.0
1758076950.71246,1758076950.65594,0.0,0.0,0.0,-29.8511,-55.7488,-24.98096,7.86,1.48,3.6,2.0
1758076950.72888,1758076950.66594,0.0,0.0,0.0,-34.77854,-48.64412,-24.57989,8.7,0.64,4.33,2.0
1758076950.7449,1758076950.67594,0.0,0.0,0.0,-37.92981,-39.4195,-24.35071,8.7,0.64,4.33,2.0
1758076950.74582,1758076950.68594,0.0,0.0,0.0,-37.35685,-23.54857,-22.74642,11.72,-0.38,3.21,2.0
1758076950.76091,1758076950.69594,0.0,0.0,0.0,-33.86181,-12.54778,-21.7151,12.62,-1.24,1.72,2.0
1758076950.76259,1758076950.70594,0.0,0.0,0.0,-28.59059,0.45837,-19.53786,12.62,-1.24,1.72,2.0
1758076950.77767,1758076950.71594,0.0,0.0,0.0,-23.26209,13.75099,-17.53251,12.25,-1.53,0.76,2.0
1758076950.7939,1758076950.72594,0.0,0.0,0.0,-13.86558,28.93437,-12.60507,12.25,-1.53,0.76,2.0
1758076950.79559,1758076950.73594,0.0,0.0,0.0,-6.70361,35.3515,-8.70896,10.79,-1.49,1.15,2.0
1758076950.81085,1758076950.74594,0.0,0.0,0.0,0.57296,41.13837,-4.46907,10.79,-1.49,1.15,2.0
1758076950.81188,1758076950.75594,0.0,0.0,0.0,8.136,47.44091,-0.40107,9.92,-1.62,0.68,2.0
1758076950.828,1758076950.76594,0.0,0.0,0.0,20.74107,57.23849,5.50039,9.75,-1.94,0.63,2.0
1758076950.84472,1758076950.77594,0.0,0.0,0.0,28.07493,58.15522,9.05273,9.75,-1.94,0.63,2.0
1758076950.8488,1758076950.78594,0.0,0.0,0.0,33.68992,56.78012,12.60507,8.75,-1.88,1.13,2.0
1758076950.86469,1758076950.79594,0.0,0.0,0.0,36.15364,61.42108,15.29797,8.75,-1.88,1.13,2.0
1758076950.86878,1758076950.80594,0.0,0.0,0.0,37.29956,65.03072,19.70975,8.96,-1.71,0.99,2.0
1758076950.8848,1758076950.81594,0.0,0.0,0.0,36.89849,63.25455,21.31403,8.96,-1.71,0.99,2.0
1758076950.88962,1758076950.82594,0.0,0.0,0.0,35.75257,59.64491,21.6578,8.29,-1.19,1.79,2.0
1758076950.90464,1758076950.83594,0.0,0.0,0.0,34.72124,56.20716,21.31403,8.29,-1.19,1.79,2.0
1758076950.90583,1758076950.84594,0.0,0.0,0.0,32.20023,51.45161,18.56383,8.42,-0.37,1.93,2.0
1758076950.9225,1758076950.85594,0.0,0.0,0.0,30.30947,47.61279,16.3293,8.6,0.37,1.76,2.0
1758076950.92369,1758076950.86594,0.0,0.0,0.0,28.70519,43.14373,14.32395,8.6,0.37,1.76,2.0
1758076950.93892,1758076950.87594,0.0,0.0,0.0,27.04361,38.56006,11.45916,8.62,0.68,1.5,2.0
1758076950.95491,1758076950.88594,0.0,0.0,0.0,26.35606,32.25753,10.02676,8.62,0.68,1.5,2.0
1758076950.95577,1758076950.89594,0.0,0.0,0.0,25.89769,27.78845,9.05273,8.69,0.56,1.19,2.0
1758076950.97086,1758076950.90594,0.0,0.0,0.0,25.61122,23.60586,8.42248,8.69,0.56,1.19,2.0
1758076950.97186,1758076950.91594,0.0,0.0,0.0,25.49662,16.67307,8.36518,8.52,0.21,0.97,2.0
1758076950.98667,1758076950.92594,0.0,0.0,0.0,26.01229,12.77696,8.99544,8.4,-0.17,0.91,2.0
1758076951.0027,1758076950.93594,0.0,0.0,0.0,26.75713,8.88085,10.08406,8.4,-0.17,0.91,2.0
1758076951.00415,1758076950.94594,0.0,0.0,0.0,28.01764,7.33386,11.45916,8.68,-0.57,0.72,2.0
1758076951.02262,1758076950.95594,0.0,0.0,0.0,30.76784,8.30789,13.5218,8.68,-0.57,0.72,2.0
1758076951.02385,1758076950.96594,0.0,0.0,0.0,32.88778,9.05273,14.78231,9.29,-0.84,0.52,2.0
1758076951.03877,1758076950.97594,0.0,0.0,0.0,35.63798,7.73493,16.3293,9.29,-0.84,0.52,2.0
1758076951.05468,1758076950.98594,0.0,0.0,0.0,39.07573,4.87014,17.58981,9.23,-1.05,0.66,2.0
1758076951.05617,1758076950.99594,0.0,0.0,0.0,44.748,-3.03668,18.50654,8.85,-1.17,0.31,2.0
1758076951.07305,1758076951.00594,0.0,0.0,0.0,48.07116,-10.8862,17.99088,8.85,-1.17,0.31,2.0
1758076951.07385,1758076951.01594,0.0,0.0,0.0,50.363,-18.62113,17.24603,8.53,-1.01,-0.22,2.0
1758076951.08896,1758076951.02594,0.0,0.0,0.0,52.19646,-23.60586,15.58445,8.53,-1.01,-0.22,2.0
1758076951.09224,1758076951.03594,0.0,0.0,0.0,54.02992,-18.62113,12.83425,9.58,-0.58,-0.57,2.0
1758076951.10794,1758076951.04594,0.0,0.0,0.0,56.20716,-15.87093,11.80293,9.58,-0.58,-0.57,2.0
1758076951.12395,1758076951.05594,0.0,0.0,0.0,57.29578,-13.69369,10.02676,10.54,-0.08,-0.45,2.0
1758076951.12496,1758076951.06594,0.0,0.0,0.0,57.86874,-10.94349,7.10468,10.54,-0.08,-0.45,2.0
1758076951.14237,1758076951.07594,0.0,0.0,0.0,56.952,-9.28192,5.15662,10.81,0.39,-0.06,2.0
1758076951.14327,1758076951.08594,0.0,0.0,0.0,54.77477,-12.08941,3.49504,10.46,0.6,0.25,2.0
1758076951.15891,1758076951.09594,0.0,0.0,0.0,51.5662,-17.30333,2.92208,10.46,0.6,0.25,2.0
1758076951.16385,1758076951.10594,0.0,0.0,0.0,45.43555,-31.62727,4.69825,11.08,0.67,1.47,2.0
1758076951.19274,1758076951.11594,0.0,0.0,0.0,39.24761,-55.6915,6.47442,11.08,0.67,1.47,2.0
1758076951.19344,1758076951.12594,0.0,0.0,0.0,35.58068,-76.54716,14.32395,11.36,0.98,3.09,2.0
1758076951.19541,1758076951.13594,0.0,0.0,0.0,31.91375,-80.04221,19.88164,11.36,0.98,3.09,2.0
1758076951.21096,1758076951.14594,0.0,0.0,0.0,26.52795,-68.98412,22.57454,13.28,0.74,2.77,2.0
1758076951.21197,1758076951.15594,0.0,0.0,0.0,24.12152,-57.63955,21.60051,13.0,0.14,2.26,2.0
1758076951.22672,1758076951.16594,0.0,0.0,0.0,23.0902,-50.99325,20.45459,13.0,0.14,2.26,2.0
1758076951.24479,1758076951.17594,0.0,0.0,0.0,24.4653,-51.85268,19.36597,10.42,-1.06,2.92,2.0
1758076951.24897,1758076951.18594,0.0,0.0,0.0,28.41871,-53.62885,18.44924,10.42,-1.06,2.92,2.0
1758076951.26478,1758076951.19594,0.0,0.0,0.0,33.17426,-51.16513,18.62113,10.5,-1.67,4.24,2.0
1758076951.26893,1758076951.20594,0.0,0.0,0.0,39.07573,-48.24305,19.19409,10.5,-1.67,4.24,2.0
1758076951.28401,1758076951.21594,0.0,0.0,0.0,45.09178,-46.46688,20.3973,11.46,-1.16,5.18,2.0
1758076951.28523,1758076951.22594,0.0,0.0,0.0,54.71747,-42.28429,21.6578,10.91,-0.39,3.96,2.0
1758076951.29972,1758076951.23594,0.0,0.0,0.0,60.50434,-39.24761,21.60051,10.91,-0.39,3.96,2.0
1758076951.30097,1758076951.24594,0.0,0.0,0.0,64.57235,-33.40344,19.48057,10.71,-0.01,2.53,2.0
1758076951.31704,1758076951.25594,0.0,0.0,0.0,66.635,-22.86102,15.75634,10.71,-0.01,2.53,2.0
1758076951.33382,1758076951.26594,0.0,0.0,0.0,67.03606,-3.49504,9.28192,12.14,0.45,2.03,2.0
1758076951.3375,1758076951.27594,0.0,0.0,0.0,65.2026,9.4538,5.4431,12.14,0.45,2.03,2.0
1758076951.35275,1758076951.28594,0.0,0.0,0.0,61.99404,21.88699,1.48969,12.4,1.16,1.67,2.0
1758076951.35444,1758076951.29594,0.0,0.0,0.0,54.77477,33.40344,-2.63561,12.4,1.16,1.67,2.0
1758076951.3714,1758076951.30594,0.0,0.0,0.0,48.70141,49.21708,-4.64096,11.12,1.57,0.9,2.0
1758076951.37262,1758076951.31594,0.0,0.0,0.0,41.65404,58.3844,-5.84417,10.12,1.7,0.59,2.0
1758076951.38805,1758076951.32594,0.0,0.0,0.0,34.14828,64.91612,-7.16197,10.12,1.7,0.59,2.0
1758076951.39239,1758076951.33594,0.0,0.0,0.0,23.31938,67.60902,-7.84952,9.11,1.63,0.71,2.0
1758076951.40816,1758076951.34594,0.0,0.0,0.0,16.90226,66.80688,-7.73493,9.11,1.63,0.71,2.0
1758076951.42731,1758076951.35594,0.0,0.0,0.0,11.00079,66.40582,-7.62034,8.44,1.43,1.14,2.0
1758076951.43167,1758076951.36594,0.0,0.0,0.0,6.13065,65.43179,-7.10468,8.44,1.43,1.14,2.0
1758076951.43202,1758076951.37594,0.0,0.0,0.0,0.57296,62.22322,-7.10468,8.15,1.16,1.57,2.0
1758076951.44804,1758076951.38594,0.0,0.0,0.0,-1.60428,59.64491,-7.16197,7.59,0.82,1.82,2.0
1758076951.46733,1758076951.39594,0.0,0.0,0.0,-2.92208,56.55093,-7.62034,7.59,0.82,1.82,2.0
1758076951.46894,1758076951.40594,0.0,0.0,0.0,-3.89611,52.25375,-7.79223,7.17,0.57,1.87,2.0
1758076951.48729,1758076951.41594,0.0,0.0,0.0,-4.46907,44.748,-7.96411,7.17,0.57,1.87,2.0
1758076951.48899,1758076951.42594,0.0,0.0,0.0,-4.29718,37.81522,-8.02141,6.92,0.35,1.77,2.0
1758076951.50708,1758076951.43594,0.0,0.0,0.0,-4.1253,30.76784,-7.96411,6.92,0.35,1.77,2.0
1758076951.50891,1758076951.44594,0.0,0.0,0.0,-3.83882,24.98096,-7.44845,7.08,0.18,1.58,2.0
1758076951.5115,1758076951.45594,0.0,0.0,0.0,-3.89611,17.53251,-6.70361,7.86,0.05,1.46,2.0
1758076951.52709,1758076951.46594,0.0,0.0,0.0,-3.83882,13.34992,-5.95876,7.86,0.05,1.46,2.0
1758076951.54282,1758076951.47594,0.0,0.0,0.0,-4.0107,8.99544,-5.21392,8.63,-0.01,1.38,2.0
1758076951.54517,1758076951.48594,0.0,0.0,0.0,-4.46907,5.32851,-4.69825,8.63,-0.01,1.38,2.0
1758076951.56085,1758076951.49594,0.0,0.0,0.0,-4.87014,4.69825,-4.29718,9.32,-0.06,1.24,2.0
1758076951.56338,1758076951.50594,0.0,0.0,0.0,-4.81285,5.95876,-3.89611,9.32,-0.06,1.24,2.0
1758076951.58304,1758076951.51594,0.0,0.0,0.0,-4.46907,7.04738,-3.26586,9.81,-0.18,1.25,2.0
1758076951.58514,1758076951.52594,0.0,0.0,0.0,-4.35448,7.16197,-2.63561,9.81,-0.18,1.25,2.0
1758076951.59985,1758076951.53594,0.0,0.0,0.0,-4.64096,6.53172,-2.46372,9.78,-0.34,1.35,2.0
1758076951.60259,1758076951.54594,0.0,0.0,0.0,-5.72958,5.50039,-2.7502,9.64,-0.32,1.09,2.0
1758076951.61909,1758076951.55594,0.0,0.0,0.0,-7.39116,4.1253,-3.49504,9.64,-0.32,1.09,2.0
1758076951.63505,1758076951.56594,0.0,0.0,0.0,-10.8862,0.40107,-5.27121,9.44,-0.02,0.87,2.0
1758076951.6368,1758076951.57594,0.0,0.0,0.0,-13.46451,-3.72423,-6.87549,9.44,-0.02,0.87,2.0
1758076951.65204,1758076951.58594,0.0,0.0,0.0,-15.64175,-12.37589,-8.65166,9.12,0.28,0.85,2.0
1758076951.65325,1758076951.59594,0.0,0.0,0.0,-17.01685,-25.8404,-9.11003,9.12,0.28,0.85,2.0
1758076951.66787,1758076951.60594,0.0,0.0,0.0,-17.24603,-45.49285,-9.4538,8.47,0.2,0.52,2.0
1758076951.67174,1758076951.61594,0.0,0.0,0.0,-16.95955,-55.92068,-9.11003,8.95,-0.07,0.02,2.0
1758076951.68712,1758076951.62594,0.0,0.0,0.0,-18.10547,-57.23849,-8.47978,8.95,-0.07,0.02,2.0
1758076951.70281,1758076951.63594,0.0,0.0,0.0,-17.99088,-42.74266,-6.8182,11.54,-0.12,-0.15,2.0
1758076951.70825,1758076951.64594,0.0,0.0,0.0,-19.25138,-5.32851,-6.07335,11.54,-0.12,-0.15,2.0
1758076951.72313,1758076951.65594,0.0,0.0,0.0,-19.19409,2.06265,-4.64096,12.97,-0.57,0.58,2.0
1758076951.73154,1758076951.66594,0.0,0.0,0.0,-18.27736,-19.25138,-4.58366,12.97,-0.57,0.58,2.0
1758076951.73289,1758076951.67594,0.0,0.0,0.0,-18.44924,-31.39809,-4.92744,8.68,-0.84,0.78,2.0
1758076951.75152,1758076951.68594,0.0,0.0,0.0,-18.50654,-34.66395,-4.46907,10.32,-1.01,-0.93,2.0
1758076951.75245,1758076951.69594,0.0,0.0,0.0,-18.16276,-37.92981,-4.87014,10.32,-1.01,-0.93,2.0
1758076951.76815,1758076951.70594,0.0,0.0,0.0,-16.73037,-42.51347,-5.78687,10.69,-1.18,0.12,2.0
1758076951.78391,1758076951.71594,0.0,0.0,0.0,-12.54778,-48.24305,-7.84952,10.69,-1.18,0.12,2.0
1758076951.78697,1758076951.72594,0.0,0.0,0.0,-8.70896,-60.27517,-9.05273,11.17,-1.06,2.25,2.0
1758076951.80292,1758076951.73594,0.0,0.0,0.0,-4.81285,-69.67168,-11.51645,11.17,-1.06,2.25,2.0
1758076951.80428,1758076951.74594,0.0,0.0,0.0,-1.60428,-74.771,-15.24068,12.36,-0.23,2.9,2.0
1758076951.81915,1758076951.75594,0.0,0.0,0.0,2.00535,-67.72362,-17.87628,12.36,-0.23,2.9,2.0
1758076951.82278,1758076951.76594,0.0,0.0,0.0,1.77617,-58.4417,-17.18874,14.33,0.77,3.31,2.0
1758076951.83805,1758076951.77594,0.0,0.0,0.0,-0.57296,-49.96192,-14.72501,13.37,1.71,3.44,2.0
1758076951.85401,1758076951.78594,0.0,0.0,0.0,-6.07335,-42.39888,-12.2613,13.37,1.71,3.44,2.0
1758076951.85829,1758076951.79594,0.0,0.0,0.0,-18.10547,-37.18496,-9.33921,10.78,1.92,3.39,2.0
1758076951.87386,1758076951.80594,0.0,0.0,0.0,-27.67386,-39.01843,-9.33921,10.78,1.92,3.39,2.0
1758076951.87697,1758076951.81594,0.0,0.0,0.0,-37.18496,-39.4768,-10.65701,8.68,1.94,3.98,2.0
1758076951.89215,1758076951.82594,0.0,0.0,0.0,-45.55015,-39.19032,-12.60507,8.68,1.94,3.98,2.0
1758076951.89501,1758076951.83594,0.0,0.0,0.0,-53.74345,-35.86716,-16.50119,9.51,1.64,3.64,2.0
1758076951.91087,1758076951.84594,0.0,0.0,0.0,-55.97798,-29.04896,-18.27736,11.07,0.83,2.61,2.0
1758076951.91191,1758076951.85594,0.0,0.0,0.0,-56.03527,-16.272,-19.07949,11.07,0.83,2.61,2.0
1758076951.92712,1758076951.86594,0.0,0.0,0.0,-54.431,-3.38045,-19.25138,12.5,0.0,1.78,2.0
1758076951.94316,1758076951.87594,0.0,0.0,0.0,-48.8733,11.45916,-15.75634,12.5,0.0,1.78,2.0
1758076951.94492,1758076951.88594,0.0,0.0,0.0,-44.28964,18.90761,-12.71966,11.78,-0.86,1.34,2.0
1758076951.96016,1758076951.89594,0.0,0.0,0.0,-39.3622,24.5226,-9.05273,11.78,-0.86,1.34,2.0
1758076951.96269,1758076951.90594,0.0,0.0,0.0,-33.80451,29.67921,-3.20856,10.58,-1.51,0.71,2.0
1758076951.97789,1758076951.91594,0.0,0.0,0.0,-25.43933,38.1017,0.34377,9.9,-2.12,0.39,2.0
1758076951.99391,1758076951.92594,0.0,0.0,0.0,-20.62648,43.54479,3.38045,9.9,-2.12,0.39,2.0
1758076951.99627,1758076951.93594,0.0,0.0,0.0,-16.04282,48.12846,5.78687,9.45,-2.21,0.65,2.0
1758076952.01292,1758076951.94594,0.0,0.0,0.0,-10.8289,51.90998,8.59437,9.45,-2.21,0.65,2.0
1758076952.01492,1758076951.95594,0.0,0.0,0.0,-8.136,53.62885,9.62569,8.85,-1.76,0.92,2.0
1758076952.031,1758076951.96594,0.0,0.0,0.0,-6.35983,54.431,10.37054,8.85,-1.76,0.92,2.0
1758076952.0322,1758076951.97594,0.0,0.0,0.0,-5.4431,53.80074,10.37054,8.51,-1.06,1.05,2.0
1758076952.04727,1758076951.98594,0.0,0.0,0.0,-5.4431,51.10783,8.93814,8.51,-1.06,1.18,2.0
1758076952.06325,1758076951.99594,0.0,0.0,0.0,-5.90147,48.35764,7.67763,8.15,-0.37,1.18,2.0
1758076952.06926,1758076952.00594,0.0,0.0,0.0,-6.7609,46.1231,5.90147,8.24,0.12,1.31,2.0
1758076952.08432,1758076952.01594,0.0,0.0,0.0,-7.96411,43.4875,4.1253,8.24,0.12,1.31,2.0
1758076952.08866,1758076952.02594,0.0,0.0,0.0,-9.91217,39.19032,1.66158,8.62,0.41,1.27,2.0
1758076952.1043,1758076952.03594,0.0,0.0,0.0,-11.17268,37.12767,0.51566,8.62,0.41,1.27,2.0
1758076952.10514,1758076952.04594,0.0,0.0,0.0,-12.2613,34.72124,-0.22918,9.09,0.34,1.25,2.0
1758076952.12098,1758076952.05594,0.0,0.0,0.0,-13.12073,31.2262,-0.57296,9.09,0.34,1.25,2.0
1758076952.12267,1758076952.06594,0.0,0.0,0.0,-13.34992,26.06958,0.0,9.12,-0.01,1.07,2.0
1758076952.13824,1758076952.07594,0.0,0.0,0.0,-12.60507,23.49127,0.57296,9.02,-0.54,0.68,2.0
1758076952.15423,1758076952.08594,0.0,0.0,0.0,-11.34457,21.7151,1.66158,9.02,-0.54,0.68,2.0
1758076952.15538,1758076952.09594,0.0,0.0,0.0,-9.74028,20.3973,2.86479,8.86,-0.99,0.37,2.0
1758076952.171,1758076952.10594,0.0,0.0,0.0,-7.39116,18.33465,4.29718,8.86,-0.99,0.37,2.0
1758076952.1722,1758076952.11594,0.0,0.0,0.0,-6.13065,17.13144,4.92744,8.77,-1.23,0.28,2.0
1758076952.18727,1758076952.12594,0.0,0.0,0.0,-4.98473,15.41257,5.55769,8.77,-1.23,0.28,2.0
1758076952.20329,1758076952.13594,0.0,0.0,0.0,-1.43239,13.80828,6.07335,8.84,-1.25,0.34,2.0
1758076952.20818,1758076952.14594,0.0,0.0,0.0,0.74485,12.49048,5.32851,9.17,-1.2,0.17,2.0
1758076952.22328,1758076952.15594,0.0,0.0,0.0,3.38045,15.41257,6.13065,9.17,-1.2,0.17,2.0
1758076952.22532,1758076952.16594,0.0,0.0,0.0,6.70361,16.84496,5.72958,9.81,-1.1,0.48,2.0
1758076952.24323,1758076952.17594,0.0,0.0,0.0,11.28727,18.9649,6.18794,9.81,-1.1,0.48,2.0
1758076952.24445,1758076952.18594,0.0,0.0,0.0,14.09476,20.3973,5.61499,9.85,-0.98,1.01,2.0
1758076952.25901,1758076952.19594,0.0,0.0,0.0,16.3293,21.02755,4.81285,9.85,-0.98,1.01,2.0
1758076952.27527,1758076952.20594,0.0,0.0,0.0,17.93358,20.22541,3.72423,9.61,-0.9,1.14,2.0
1758076952.27697,1758076952.21594,0.0,0.0,0.0,20.34,15.0115,2.34913,9.15,-0.9,0.9,2.0
1758076952.29224,1758076952.22594,0.0,0.0,0.0,22.57454,3.09397,0.51566,9.15,-0.75,0.9,2.0
1758076952.29355,1758076952.23594,0.0,0.0,0.0,24.29341,-19.53786,0.0,7.72,-0.87,0.11,2.0
1758076952.30907,1758076952.24594,0.0,0.0,0.0,27.1582,-38.84654,2.34913,7.72,-0.87,0.11,2.0
1758076952.31239,1758076952.25594,0.0,0.0,0.0,30.76784,-45.43555,5.50039,9.34,-1.27,-0.67,2.0
1758076952.3283,1758076952.26594,0.0,0.0,0.0,31.45539,-41.08107,6.18794,9.34,-1.27,-0.67,2.0
1758076952.34667,1758076952.27594,0.0,0.0,0.0,28.99167,-33.63263,5.84417,11.56,-1.44,0.01,2.0
1758076952.34915,1758076952.28594,0.0,0.0,0.0,22.97561,-29.39274,5.50039,11.56,-1.44,0.01,2.0
1758076952.35167,1758076952.29594,0.0,0.0,0.0,9.5684,-36.84119,7.62034,13.05,-0.52,3.14,2.0
1758076952.3672,1758076952.30594,0.0,0.0,0.0,2.23454,-48.41494,9.91217,13.14,1.24,4.44,2.0
1758076952.38323,1758076952.31594,0.0,0.0,0.0,-2.86479,-52.884,12.37589,13.14,1.24,4.44,2.0
1758076952.38448,1758076952.32594,0.0,0.0,0.0,-8.02141,-46.81066,11.51645,13.23,1.74,1.95,2.0
1758076952.39906,1758076952.33594,0.0,0.0,0.0,-13.17803,-36.89849,8.99544,13.23,1.74,1.95,2.0
1758076952.40106,1758076952.34594,0.0,0.0,0.0,-13.86558,-36.6693,7.73493,11.59,0.78,1.55,2.0
1758076952.41797,1758076952.35594,0.0,0.0,0.0,-12.2613,-39.4768,7.04738,11.59,0.78,1.55,2.0
1758076952.43508,1758076952.36594,0.0,0.0,0.0,-7.39116,-45.89392,7.33386,9.92,-0.68,2.32,2.0
1758076952.43676,1758076952.37594,0.0,0.0,0.0,-2.7502,-45.55015,7.84952,10.35,-1.36,3.28,2.0
1758076952.45203,1758076952.38594,0.0,0.0,0.0,3.66693,-39.99245,9.39651,10.35,-1.36,3.28,2.0
1758076952.45323,1758076952.39594,0.0,0.0,0.0,11.11538,-34.0337,10.71431,10.85,-1.18,4.31,2.0
1758076952.46826,1758076952.40594,0.0,0.0,0.0,22.11617,-29.8511,14.72501,10.85,-1.18,4.31,2.0
1758076952.48665,1758076952.41594,0.0,0.0,0.0,28.87707,-24.4653,18.56383,9.71,-0.52,3.75,2.0
1758076952.48836,1758076952.42594,0.0,0.0,0.0,34.66395,-19.07949,21.60051,9.71,-0.52,3.75,2.0
1758076952.50642,1758076952.43594,0.0,0.0,0.0,38.38818,-14.9542,22.68913,9.64,-0.36,2.94,2.0
1758076952.5084,1758076952.44594,0.0,0.0,0.0,40.62271,-4.98473,19.99623,10.06,-0.31,2.0,2.0
1758076952.52501,1758076952.45594,0.0,0.0,0.0,39.82057,5.95876,15.46986,10.06,-0.31,2.0,2.0
1758076952.52596,1758076952.46594,0.0,0.0,0.0,37.92981,18.50654,9.91217,11.12,-0.01,1.41,2.0
1758076952.5411,1758076952.47594,0.0,0.0,0.0,35.12231,28.93437,3.55234,11.12,-0.01,1.41,2.0
1758076952.54382,1758076952.48594,0.0,0.0,0.0,29.62192,40.7946,-5.27121,10.69,0.45,1.06,2.0
1758076952.56207,1758076952.49594,0.0,0.0,0.0,24.98096,46.40959,-10.54242,10.69,0.45,1.06,2.0
1758076952.56322,1758076952.50594,0.0,0.0,0.0,20.3973,49.27437,-13.5218,9.83,1.06,0.89,2.0
1758076952.57804,1758076952.51594,0.0,0.0,0.0,15.98552,51.16513,-15.0115,9.83,1.06,0.89,2.0
1758076952.59486,1758076952.52594,0.0,0.0,0.0,9.74028,52.48294,-13.86558,9.44,1.57,0.82,2.0
1758076952.59683,1758076952.53594,0.0,0.0,0.0,5.95876,52.76942,-11.74564,9.45,1.64,1.17,2.0
1758076952.61225,1758076952.54594,0.0,0.0,0.0,2.92208,52.25375,-9.5684,9.45,1.64,1.17,2.0
1758076952.61323,1758076952.55594,0.0,0.0,0.0,-0.51566,51.5662,-6.35983,9.12,1.26,1.41,2.0
1758076952.62805,1758076952.56594,0.0,0.0,0.0,-1.83346,47.95657,-4.87014,9.12,1.26,1.41,2.0
1758076952.64642,1758076952.57594,0.0,0.0,0.0,-2.92208,44.63341,-4.18259,8.45,0.67,1.6,2.0
1758076952.64772,1758076952.58594,0.0,0.0,0.0,-3.38045,41.08107,-3.95341,8.45,0.67,1.6,2.0
1758076952.66343,1758076952.59594,0.0,0.0,0.0,-4.0107,36.15364,-4.69825,8.03,0.16,1.61,2.0
1758076952.66589,1758076952.60594,0.0,0.0,0.0,-4.69825,31.91375,-6.13065,8.02,-0.09,1.69,2.0
1758076952.68337,1758076952.61594,0.0,0.0,0.0,-5.15662,27.50197,-7.62034,8.02,-0.09,1.69,2.0
1758076952.68583,1758076952.62594,0.0,0.0,0.0,-5.78687,20.85567,-8.76626,8.0,-0.04,1.78,2.0
1758076952.7031,1758076952.63594,0.0,0.0,0.0,-7.39116,10.59972,-9.74028,8.0,-0.04,1.78,2.0
1758076952.70453,1758076952.64594,0.0,0.0,0.0,-8.30789,4.64096,-10.08406,8.17,0.27,1.42,2.0
1758076952.71934,1758076952.65594,0.0,0.0,0.0,-10.08406,0.0573,-10.31324,8.17,0.27,1.42,2.0
1758076952.72185,1758076952.66594,0.0,0.0,0.0,-11.97482,-3.72423,-10.31324,8.62,0.77,1.29,2.0
1758076952.73802,1758076952.67594,0.0,0.0,0.0,-15.58445,-3.38045,-10.71431,9.17,1.13,0.98,2.0
1758076952.75517,1758076952.68594,0.0,0.0,0.0,-17.87628,-0.45837,-10.59972,9.17,1.13,0.98,2.0
1758076952.75774,1758076952.69594,0.0,0.0,0.0,-20.34,3.49504,-10.94349,9.89,1.12,1.05,2.0
1758076952.77338,1758076952.70594,0.0,0.0,0.0,-22.91831,7.33386,-11.57375,9.89,1.12,1.05,2.0
1758076952.77429,1758076952.71594,0.0,0.0,0.0,-26.87172,11.86023,-13.23533,10.12,0.76,1.19,2.0
1758076952.78914,1758076952.72594,0.0,0.0,0.0,-29.56462,12.83425,-14.83961,10.12,0.76,1.19,2.0
1758076952.79231,1758076952.73594,0.0,0.0,0.0,-32.48671,12.37589,-16.90226,9.78,0.33,1.13,2.0
1758076952.80839,1758076952.74594,0.0,0.0,0.0,-35.52338,11.11538,-18.50654,9.78,0.33,1.13,2.0
1758076952.8252,1758076952.75594,0.0,0.0,0.0,-39.64868,2.06265,-20.51189,9.41,0.09,0.95,2.0
1758076952.82609,1758076952.76594,0.0,0.0,0.0,-41.08107,-10.19865,-20.05352,8.36,-0.02,0.64,2.0
1758076952.84116,1758076952.77594,0.0,0.0,0.0,-41.48215,-21.7724,-19.70975,8.36,-0.02,0.64,2.0
1758076952.84317,1758076952.78594,0.0,0.0,0.0,-42.22699,-40.68,-17.81899,8.22,-0.02,0.55,2.0
1758076952.85811,1758076952.79594,0.0,0.0,0.0,-42.85724,-46.81066,-16.10011,8.22,-0.02,0.55,2.0
1758076952.87491,1758076952.80594,0.0,0.0,0.0,-42.51347,-33.34615,-15.12609,9.61,-0.03,0.39,2.0
1758076952.87635,1758076952.81594,0.0,0.0,0.0,-43.88857,-4.52637,-15.46986,9.61,-0.03,0.39,2.0
1758076952.8914,1758076952.82594,0.0,0.0,0.0,-43.37291,16.272,-12.08941,13.87,-0.19,0.78,2.0
1758076952.89256,1758076952.83594,0.0,0.0,0.0,-39.82057,-9.5684,-11.34457,9.64,-0.48,2.14,2.0
1758076952.90742,1758076952.84594,0.0,0.0,0.0,-38.90384,-27.78845,-12.43318,9.64,-0.48,2.14,2.0
1758076952.92338,1758076952.85594,0.0,0.0,0.0,-37.52874,-32.48671,-11.45916,9.84,-0.9,-0.05,2.0
1758076952.92471,1758076952.86594,0.0,0.0,0.0,-35.3515,-32.88778,-9.91217,9.84,-0.9,-0.05,2.0
1758076952.93942,1758076952.87594,0.0,0.0,0.0,-33.9764,-31.79916,-9.28192,11.0,-1.34,-1.54,2.0
1758076952.9554,1758076952.88594,0.0,0.0,0.0,-31.74186,-32.42941,-8.70896,11.0,-1.34,-1.54,2.0
1758076952.95675,1758076952.89594,0.0,0.0,0.0,-29.22085,-37.12767,-8.25059,11.69,-1.97,0.34,2.0
1758076952.97143,1758076952.90594,0.0,0.0,0.0,-24.86637,-48.58683,-7.67763,11.55,-1.61,2.17,2.0
1758076952.97231,1758076952.91594,0.0,0.0,0.0,-21.48592,-58.78547,-8.88085,11.55,-1.61,2.17,2.0
