timeStamp,timeStampAlign,roll,pitch,yaw,gyro_x,gyro_y,gyro_z,acc_x,acc_y,acc_z,flag_num
1758088368.08615,1758088365.47637,0.0,0.0,0.0,-10.71431,13.17803,0.80214,9.33,-1.15,1.65,4.0
1758088368.09769,1758088365.48637,0.0,0.0,0.0,-10.59972,13.5218,0.22918,9.32,-1.24,1.57,4.0
1758088368.09996,1758088365.49637,0.0,0.0,0.0,-10.25595,12.89155,-0.57296,9.32,-1.24,1.57,4.0
1758088368.10117,1758088365.50637,0.0,0.0,0.0,-9.96947,10.94349,-1.08862,9.22,-1.35,1.46,4.0
1758088368.10179,1758088365.51637,0.0,0.0,0.0,-9.5684,8.65166,-1.43239,9.01,-1.4,1.3,4.0
1758088368.10301,1758088365.52637,0.0,0.0,0.0,-9.33921,6.8182,-1.94806,9.01,-1.4,1.3,4.0
1758088368.10366,1758088365.53637,0.0,0.0,0.0,-8.70896,5.61499,-2.57831,9.1,-1.4,1.12,4.0
1758088368.10601,1758088365.54637,0.0,0.0,0.0,-7.96411,5.50039,-2.92208,9.1,-1.4,1.12,4.0
1758088368.11141,1758088365.55637,0.0,0.0,0.0,-7.44845,5.32851,-3.49504,9.18,-1.39,1.12,4.0
1758088368.1147,1758088365.56637,0.0,0.0,0.0,-6.70361,4.98473,-4.0107,9.18,-1.39,1.12,4.0
1758088368.11695,1758088365.57637,0.0,0.0,0.0,-5.32851,3.89611,-4.98473,9.1,-1.4,1.15,4.0
1758088368.11784,1758088365.58637,0.0,0.0,0.0,-4.46907,2.63561,-5.50039,9.06,-1.45,1.09,4.0
1758088368.13363,1758088365.59637,0.0,0.0,0.0,-3.49504,0.45837,-5.90147,9.06,-1.45,1.09,4.0
1758088368.15071,1758088365.60637,0.0,0.0,0.0,-2.46372,-1.77617,-6.35983,8.91,-1.45,1.01,4.0
1758088368.15372,1758088365.61637,0.0,0.0,0.0,-0.97403,-4.18259,-6.8182,8.91,-1.45,1.01,4.0
1758088368.17071,1758088365.62637,0.0,0.0,0.0,0.11459,-4.29718,-7.21927,8.96,-1.44,0.79,4.0
1758088368.17139,1758088365.63637,0.0,0.0,0.0,1.08862,-4.0107,-7.84952,8.96,-1.44,0.79,4.0
1758088368.18978,1758088365.64637,0.0,0.0,0.0,2.40642,-4.92744,-8.25059,8.88,-1.44,0.78,4.0
1758088368.19655,1758088365.65637,0.0,0.0,0.0,4.29718,-7.50575,-8.88085,8.67,-1.46,0.92,4.0
1758088368.19768,1758088365.66637,0.0,0.0,0.0,5.90147,-9.5684,-9.11003,8.67,-1.46,0.92,4.0
1758088368.21399,1758088365.67637,0.0,0.0,0.0,7.44845,-10.94349,-9.11003,8.86,-1.47,0.99,4.0
1758088368.23069,1758088365.68637,0.0,0.0,0.0,9.5684,-11.45916,-9.05273,8.86,-1.47,0.99,4.0
1758088368.23133,1758088365.69637,0.0,0.0,0.0,10.48513,-10.37054,-8.99544,9.12,-1.47,1.07,4.0
1758088368.25066,1758088365.70637,0.0,0.0,0.0,11.28727,-9.74028,-9.22462,9.12,-1.47,1.07,4.0
1758088368.25616,1758088365.71637,0.0,0.0,0.0,11.91752,-8.25059,-9.5684,9.24,-1.45,1.18,4.0
1758088368.31587,1758088365.72637,0.0,0.0,0.0,12.60507,-5.90147,-9.85487,9.24,-1.45,1.18,4.0
1758088368.31624,1758088365.73637,0.0,0.0,0.0,12.49048,-4.18259,-9.4538,9.42,-1.39,1.31,4.0
1758088368.32388,1758088365.74637,0.0,0.0,0.0,11.86023,-2.29183,-10.02676,9.5,-1.25,1.32,4.0
1758088368.32629,1758088365.75637,0.0,0.0,0.0,11.34457,-0.11459,-10.19865,9.5,-1.25,1.32,4.0
1758088368.32882,1758088365.76637,0.0,0.0,0.0,10.71431,2.6929,-10.48513,9.62,-1.16,1.34,4.0
1758088368.33554,1758088365.77637,0.0,0.0,0.0,10.65701,3.49504,-10.48513,9.62,-1.16,1.34,4.0
1758088368.33624,1758088365.78637,0.0,0.0,0.0,10.8862,3.49504,-10.48513,9.64,-1.11,1.28,4.0
1758088368.33687,1758088365.79637,0.0,0.0,0.0,11.17268,3.26586,-10.65701,9.64,-1.11,1.28,4.0
1758088368.33892,1758088365.80637,0.0,0.0,0.0,12.08941,2.23454,-10.59972,9.73,-1.16,1.29,4.0
1758088368.35371,1758088365.81637,0.0,0.0,0.0,12.89155,0.85944,-10.48513,9.55,-1.24,1.14,4.0
1758088368.37071,1758088365.82637,0.0,0.0,0.0,13.75099,0.0573,-10.37054,9.55,-1.24,1.14,4.0
1758088368.37146,1758088365.83637,0.0,0.0,0.0,14.61043,-1.03132,-10.19865,9.41,-1.33,1.14,4.0
1758088368.39096,1758088365.84637,0.0,0.0,0.0,15.98552,-2.97938,-9.74028,9.41,-1.33,1.14,4.0
1758088368.39138,1758088365.85637,0.0,0.0,0.0,16.73037,-4.0107,-9.22462,9.3,-1.39,1.09,4.0
1758088368.41098,1758088365.86637,0.0,0.0,0.0,17.36062,-5.21392,-8.99544,9.3,-1.39,1.09,4.0
1758088368.41136,1758088365.87637,0.0,0.0,0.0,17.93358,-6.58902,-8.65166,9.22,-1.35,1.02,4.0
1758088368.41956,1758088365.88637,0.0,0.0,0.0,17.87628,-8.70896,-8.42248,9.07,-1.29,1.0,4.0
1758088368.43729,1758088365.89637,0.0,0.0,0.0,17.87628,-10.02676,-8.30789,9.07,-1.29,1.0,4.0
1758088368.44196,1758088365.90637,0.0,0.0,0.0,17.76169,-10.48513,-8.25059,8.98,-1.23,0.86,4.0
1758088368.45698,1758088365.91637,0.0,0.0,0.0,17.24603,-9.68299,-7.96411,8.98,-1.23,0.86,4.0
1758088368.45792,1758088365.92637,0.0,0.0,0.0,17.01685,-9.5684,-7.96411,8.96,-1.18,0.76,4.0
1758088368.47528,1758088365.93637,0.0,0.0,0.0,16.67307,-9.39651,-7.79223,8.96,-1.18,0.76,4.0
1758088368.47728,1758088365.94637,0.0,0.0,0.0,16.272,-9.68299,-7.73493,8.78,-1.13,0.62,4.0
1758088368.49345,1758088365.95637,0.0,0.0,0.0,15.58445,-10.59972,-7.62034,8.59,-1.13,0.41,4.0
1758088368.51072,1758088365.96637,0.0,0.0,0.0,15.0115,-10.8862,-7.21927,8.59,-1.03,0.41,4.0
1758088368.51142,1758088365.97637,0.0,0.0,0.0,14.32395,-11.22997,-7.04738,8.49,-0.94,0.38,4.0
1758088368.53075,1758088365.98637,0.0,0.0,0.0,13.5791,-11.22997,-6.87549,8.49,-0.94,0.38,4.0
1758088368.53148,1758088365.99637,0.0,0.0,0.0,12.54778,-11.74564,-6.7609,8.39,-0.93,0.3,4.0
1758088368.55076,1758088366.00637,0.0,0.0,0.0,11.74564,-11.80293,-6.70361,8.39,-0.93,0.3,4.0
1758088368.55148,1758088366.01637,0.0,0.0,0.0,10.65701,-11.91752,-6.70361,8.26,-0.98,0.25,4.0
1758088368.57072,1758088366.02637,0.0,0.0,0.0,9.4538,-12.2613,-6.47442,8.26,-0.98,0.25,4.0
1758088368.57424,1758088366.03637,0.0,0.0,0.0,7.73493,-12.89155,-6.13065,8.0,-1.01,0.09,4.0
1758088368.59099,1758088366.04637,0.0,0.0,0.0,6.58902,-14.03747,-5.78687,7.8,-1.02,0.06,4.0
1758088368.59133,1758088366.05637,0.0,0.0,0.0,5.27121,-14.78231,-5.32851,7.8,-1.02,0.06,4.0
1758088368.61063,1758088366.06637,0.0,0.0,0.0,3.83882,-15.92823,-4.29718,8.16,-0.86,0.36,4.0
1758088368.61124,1758088366.07637,0.0,0.0,0.0,1.66158,-17.6471,-2.34913,8.16,-0.86,0.36,4.0
1758088368.6309,1758088366.08637,0.0,0.0,0.0,-0.17189,-19.13679,-0.51566,9.79,-0.35,1.29,4.0
1758088368.63126,1758088366.09637,0.0,0.0,0.0,-2.92208,-20.16812,1.08862,9.79,-0.35,1.29,4.0
1758088368.65173,1758088366.10637,0.0,0.0,0.0,-9.05273,-23.49127,3.60963,12.36,0.0,2.82,4.0
1758088368.65453,1758088366.11637,0.0,0.0,0.0,-14.38124,-26.87172,5.09932,13.24,0.31,3.45,4.0
1758088368.67072,1758088366.12637,0.0,0.0,0.0,-19.25138,-28.99167,5.50039,13.24,0.31,3.45,4.0
1758088368.67132,1758088366.13637,0.0,0.0,0.0,-22.91831,-30.82513,4.58366,12.26,0.43,2.88,4.0
1758088368.69093,1758088366.14637,0.0,0.0,0.0,-25.21014,-32.37212,1.20321,12.26,0.43,2.88,4.0
1758088368.69131,1758088366.15637,0.0,0.0,0.0,-24.35071,-28.13223,-1.83346,10.49,0.06,1.58,4.0
1758088368.71075,1758088366.16637,0.0,0.0,0.0,-22.40265,-19.70975,-5.27121,10.49,0.06,1.58,4.0
1758088368.71131,1758088366.17637,0.0,0.0,0.0,-19.48057,-10.48513,-7.62034,11.49,-0.4,2.04,4.0
1758088368.73073,1758088366.18637,0.0,0.0,0.0,-13.00614,-5.09932,-6.47442,14.49,-0.12,3.03,4.0
1758088368.73126,1758088366.19637,0.0,0.0,0.0,-8.59437,1.20321,-4.23989,14.49,-0.12,3.03,4.0
1758088368.75074,1758088366.20637,0.0,0.0,0.0,-5.15662,7.39116,-1.60428,16.68,0.26,2.16,4.0
1758088368.7513,1758088366.21637,0.0,0.0,0.0,-2.00535,10.54242,0.85944,16.68,0.26,2.16,4.0
1758088368.77117,1758088366.22637,0.0,0.0,0.0,2.57831,15.0115,2.11994,14.46,-0.61,1.31,4.0
1758088368.77635,1758088366.23637,0.0,0.0,0.0,5.72958,20.34,1.43239,14.46,-0.61,1.31,4.0
1758088368.77688,1758088366.24637,0.0,0.0,0.0,8.42248,26.35606,0.68755,12.62,-1.69,1.37,4.0
1758088368.79625,1758088366.25637,0.0,0.0,0.0,11.80293,32.08564,0.11459,12.62,-1.69,1.37,4.0
1758088368.79859,1758088366.26637,0.0,0.0,0.0,17.76169,32.88778,0.0,12.56,-1.78,1.85,4.0
1758088368.81541,1758088366.27637,0.0,0.0,0.0,21.48592,28.70519,0.51566,12.18,-0.67,1.45,4.0
1758088368.81778,1758088366.28637,0.0,0.0,0.0,24.00693,22.63183,1.3751,12.18,-0.67,1.45,4.0
1758088368.83546,1758088366.29637,0.0,0.0,0.0,24.75178,16.84496,1.14592,11.32,0.51,1.28,4.0
1758088368.84046,1758088366.30637,0.0,0.0,0.0,23.72045,15.58445,-0.0573,11.32,0.51,1.28,4.0
1758088368.85573,1758088366.31637,0.0,0.0,0.0,23.20479,23.89234,-0.85944,10.88,1.06,1.13,4.0
1758088368.85696,1758088366.32637,0.0,0.0,0.0,21.60051,31.97105,-2.34913,10.88,1.06,1.13,4.0
1758088368.87547,1758088366.33637,0.0,0.0,0.0,18.10547,31.51268,-5.32851,10.23,1.15,1.74,4.0
1758088368.87857,1758088366.34637,0.0,0.0,0.0,15.64175,24.92367,-8.0787,8.26,1.11,2.06,4.0
1758088368.89602,1758088366.35637,0.0,0.0,0.0,13.34992,18.22006,-10.59972,8.26,1.11,2.06,4.0
1758088368.89773,1758088366.36637,0.0,0.0,0.0,11.34457,13.5218,-13.00614,7.85,0.99,0.99,4.0
1758088368.91516,1758088366.37637,0.0,0.0,0.0,8.65166,9.11003,-15.29797,7.85,0.99,0.99,4.0
1758088368.91775,1758088366.38637,0.0,0.0,0.0,7.21927,8.47978,-15.75634,7.88,0.87,0.67,4.0
1758088368.93516,1758088366.39637,0.0,0.0,0.0,6.18794,9.62569,-15.64175,7.88,0.87,0.67,4.0
1758088368.94143,1758088366.40637,0.0,0.0,0.0,5.21392,11.00079,-14.78231,8.14,0.71,0.79,4.0
1758088368.95714,1758088366.41637,0.0,0.0,0.0,4.35448,11.86023,-13.06344,8.31,0.54,1.08,4.0
1758088368.95914,1758088366.42637,0.0,0.0,0.0,3.66693,11.74564,-11.63104,8.31,0.54,1.08,4.0
1758088368.98124,1758088366.43637,0.0,0.0,0.0,3.20856,10.25595,-9.85487,8.46,0.46,1.15,4.0
1758088369.21149,1758088366.44637,0.0,0.0,0.0,2.6929,8.42248,-8.42248,8.46,0.46,1.15,4.0
1758088369.23016,1758088366.45637,0.0,0.0,0.0,1.66158,4.92744,-5.95876,8.62,0.4,1.06,4.0
1758088369.23176,1758088366.46637,0.0,0.0,0.0,1.14592,1.94806,-4.18259,8.62,0.4,1.06,4.0
1758088369.23519,1758088366.47637,0.0,0.0,0.0,0.45837,-1.83346,-2.57831,8.65,0.36,0.94,4.0
1758088369.23647,1758088366.48637,0.0,0.0,0.0,-0.22918,-6.58902,-0.45837,8.65,0.36,0.94,4.0
1758088369.23784,1758088366.49637,0.0,0.0,0.0,-1.71887,-12.43318,0.74485,8.53,0.4,0.9,4.0
1758088369.24075,1758088366.50637,0.0,0.0,0.0,-2.92208,-15.06879,1.3751,8.85,0.53,0.89,4.0
1758088369.2413,1758088366.51637,0.0,0.0,0.0,-4.46907,-18.27736,1.83346,8.85,0.53,0.89,4.0
1758088369.24526,1758088366.52637,0.0,0.0,0.0,-6.7609,-23.94964,1.43239,9.05,0.7,1.04,4.0
1758088369.24825,1758088366.53637,0.0,0.0,0.0,-8.0787,-26.98631,0.97403,9.05,0.7,1.04,4.0
1758088369.24865,1758088366.54637,0.0,0.0,0.0,-9.28192,-28.476,0.0,9.34,0.89,1.08,4.0
1758088369.25172,1758088366.55637,0.0,0.0,0.0,-9.91217,-28.476,-0.97403,9.34,0.89,1.08,4.0
1758088369.2566,1758088366.56637,0.0,0.0,0.0,-10.71431,-26.06958,-2.23454,9.73,1.01,1.16,4.0
1758088369.26277,1758088366.57637,0.0,0.0,0.0,-11.11538,-22.63183,-2.97938,9.93,0.99,1.29,4.0
1758088369.26513,1758088366.58637,0.0,0.0,0.0,-11.28727,-18.73572,-2.92208,9.93,0.99,1.29,4.0
1758088369.2663,1758088366.59637,0.0,0.0,0.0,-11.45916,-14.72501,-2.63561,9.98,0.77,1.36,4.0
1758088369.26693,1758088366.60637,0.0,0.0,0.0,-11.22997,-10.02676,-1.77617,9.98,0.77,1.36,4.0
1758088369.32595,1758088366.61637,0.0,0.0,0.0,-11.34457,-10.48513,-1.03132,9.7,0.48,1.36,4.0
1758088369.33056,1758088366.62637,0.0,0.0,0.0,-10.8862,-13.75099,0.11459,9.7,0.48,1.36,4.0
1758088369.33572,1758088366.63637,0.0,0.0,0.0,-11.00079,-18.44924,0.57296,9.16,0.18,1.15,4.0
1758088369.33637,1758088366.64637,0.0,0.0,0.0,-10.08406,-19.42327,1.94806,9.53,-0.03,0.76,4.0
1758088369.33871,1758088366.65637,0.0,0.0,0.0,-8.99544,-15.41257,3.09397,9.53,-0.03,0.76,4.0
1758088369.33909,1758088366.66637,0.0,0.0,0.0,-7.50575,-10.65701,4.46907,9.88,-0.13,0.69,4.0
1758088369.34016,1758088366.67637,0.0,0.0,0.0,-6.18794,-6.70361,5.78687,9.88,-0.13,0.69,4.0
1758088369.3409,1758088366.68637,0.0,0.0,0.0,-4.29718,-2.00535,7.16197,9.47,-0.15,0.95,4.0
1758088369.3417,1758088366.69637,0.0,0.0,0.0,-3.26586,0.11459,8.136,9.47,-0.15,0.95,4.0
1758088369.34539,1758088366.70637,0.0,0.0,0.0,-2.11994,1.3751,8.76626,9.2,-0.03,0.86,4.0
1758088369.34586,1758088366.71637,0.0,0.0,0.0,-0.74485,0.97403,10.02676,9.2,-0.03,0.86,4.0
1758088369.3489,1758088366.72637,0.0,0.0,0.0,0.0573,0.68755,10.59972,8.89,0.15,0.67,4.0
1758088369.35095,1758088366.73637,0.0,0.0,0.0,0.40107,-0.51566,11.11538,8.76,0.33,0.43,4.0
1758088369.35522,1758088366.74637,0.0,0.0,0.0,0.68755,-3.26586,11.22997,8.76,0.33,0.43,4.0
1758088369.35584,1758088366.75637,0.0,0.0,0.0,1.20321,-6.35983,11.80293,8.53,0.41,0.23,4.0
1758088369.35898,1758088366.76637,0.0,0.0,0.0,1.3751,-6.8182,11.57375,8.53,0.41,0.23,4.0
1758088369.36044,1758088366.77637,0.0,0.0,0.0,1.66158,-3.09397,11.51645,8.7,0.39,0.0,4.0
1758088369.36136,1758088366.78637,0.0,0.0,0.0,2.34913,0.17189,11.91752,8.7,0.39,0.0,4.0
1758088369.36276,1758088366.79637,0.0,0.0,0.0,2.97938,-0.22918,12.54778,8.83,0.33,0.02,4.0
1758088369.36403,1758088366.80637,0.0,0.0,0.0,3.32316,-3.26586,12.77696,8.19,0.26,0.04,4.0
1758088369.36624,1758088366.81637,0.0,0.0,0.0,3.60963,-5.15662,12.89155,8.19,0.26,0.04,4.0
1758088369.36701,1758088366.82637,0.0,0.0,0.0,3.95341,-6.18794,12.83425,8.36,0.22,-0.24,4.0
1758088369.36811,1758088366.83637,0.0,0.0,0.0,4.35448,-7.50575,12.77696,8.36,0.22,-0.24,4.0
1758088369.38402,1758088366.84637,0.0,0.0,0.0,4.92744,-8.65166,12.71966,8.51,0.24,-0.23,4.0
1758088369.38771,1758088366.85637,0.0,0.0,0.0,5.84417,-10.48513,12.49048,8.51,0.24,-0.23,4.0
1758088369.40844,1758088366.86637,0.0,0.0,0.0,6.87549,-11.80293,12.2613,8.39,0.26,-0.11,4.0
1758088369.41547,1758088366.87637,0.0,0.0,0.0,8.99544,-14.32395,12.08941,8.14,0.29,-0.14,4.0
1758088369.41746,1758088366.88637,0.0,0.0,0.0,10.31324,-16.04282,11.86023,8.14,0.29,-0.14,4.0
1758088369.43681,1758088366.89637,0.0,0.0,0.0,11.74564,-18.10547,11.51645,7.83,0.34,-0.06,4.0
1758088369.44049,1758088366.90637,0.0,0.0,0.0,14.09476,-21.14215,10.65701,7.83,0.34,-0.06,4.0
1758088369.45581,1758088366.91637,0.0,0.0,0.0,15.58445,-27.44468,9.33921,8.05,0.19,0.56,4.0
1758088369.45779,1758088366.92637,0.0,0.0,0.0,17.18874,-32.71589,7.50575,8.05,0.19,0.56,4.0
1758088369.47441,1758088366.93637,0.0,0.0,0.0,18.90761,-35.00772,5.32851,9.59,-0.2,1.4,4.0
1758088369.47559,1758088366.94637,0.0,0.0,0.0,22.40265,-34.32018,2.40642,9.59,-0.2,1.4,4.0
1758088369.49146,1758088366.95637,0.0,0.0,0.0,24.98096,-33.34615,1.43239,12.12,-0.83,1.94,4.0
1758088369.49582,1758088366.96637,0.0,0.0,0.0,27.78845,-32.6013,0.97403,13.13,-1.79,2.07,4.0
1758088369.53632,1758088366.97637,0.0,0.0,0.0,30.59595,-33.11696,1.08862,13.13,-1.79,2.07,4.0
1758088369.53709,1758088366.98637,0.0,0.0,0.0,34.95043,-29.04896,3.26586,12.26,-2.48,1.18,4.0
1758088369.54008,1758088366.99637,0.0,0.0,0.0,37.47144,-23.0329,5.90147,12.26,-2.48,1.18,4.0
1758088369.54044,1758088367.00637,0.0,0.0,0.0,39.76327,-16.272,8.93814,12.31,-2.34,1.22,4.0
1758088369.55608,1758088367.01637,0.0,0.0,0.0,41.31026,-11.86023,11.00079,12.31,-2.34,1.22,4.0
1758088369.55782,1758088367.02637,0.0,0.0,0.0,41.59674,-7.04738,11.28727,14.81,-2.0,2.93,4.0
1758088369.5744,1758088367.03637,0.0,0.0,0.0,39.99245,-10.94349,9.91217,16.89,-2.04,1.71,4.0
1758088369.57587,1758088367.04637,0.0,0.0,0.0,36.7266,-12.204,7.62034,16.89,-2.04,1.71,4.0
1758088369.59143,1758088367.05637,0.0,0.0,0.0,34.32018,-4.92744,6.13065,16.37,-1.5,0.36,4.0
1758088369.5958,1758088367.06637,0.0,0.0,0.0,33.23156,13.06344,7.67763,16.37,-1.5,0.36,4.0
1758088369.61151,1758088367.07637,0.0,0.0,0.0,32.6013,19.42327,9.28192,14.93,-0.63,1.01,4.0
1758088369.62888,1758088367.08637,0.0,0.0,0.0,31.16891,23.31938,10.54242,14.93,-0.63,1.01,4.0
1758088369.63005,1758088367.09637,0.0,0.0,0.0,28.99167,26.52795,11.22997,13.39,-0.18,1.49,4.0
1758088369.64592,1758088367.10637,0.0,0.0,0.0,24.23611,29.50733,10.31324,13.36,-0.51,1.22,4.0
1758088369.64714,1758088367.11637,0.0,0.0,0.0,21.60051,29.8511,9.28192,13.36,-0.51,1.22,4.0
1758088369.66288,1758088367.12637,0.0,0.0,0.0,19.76705,30.82513,7.79223,12.49,-1.12,1.23,4.0
1758088369.67911,1758088367.13637,0.0,0.0,0.0,18.85031,35.40879,6.7609,12.49,-1.12,1.23,4.0
1758088369.6808,1758088367.14637,0.0,0.0,0.0,18.90761,36.15364,6.7609,11.26,-1.44,1.02,4.0
1758088369.69585,1758088367.15637,0.0,0.0,0.0,18.73572,34.09099,7.50575,11.26,-1.44,1.02,4.0
1758088369.69782,1758088367.16637,0.0,0.0,0.0,18.33465,30.19488,8.65166,9.67,-1.32,1.28,4.0
1758088369.71597,1758088367.17637,0.0,0.0,0.0,17.36062,25.15285,10.94349,9.67,-1.32,0.92,4.0
1758088369.71761,1758088367.18637,0.0,0.0,0.0,16.95955,22.51724,12.49048,8.59,-1.1,0.92,4.0
1758088369.73396,1758088367.19637,0.0,0.0,0.0,16.55848,19.99623,14.09476,7.76,-0.98,0.78,4.0
1758088369.73562,1758088367.20637,0.0,0.0,0.0,15.98552,16.73037,15.29797,7.76,-0.98,0.78,4.0
1758088369.75766,1758088367.21637,0.0,0.0,0.0,15.29797,11.22997,16.10011,7.16,-0.95,0.92,4.0
1758088369.7888,1758088367.22637,0.0,0.0,0.0,14.43854,8.0787,15.87093,7.16,-0.95,0.92,4.0
1758088369.79096,1758088367.23637,0.0,0.0,0.0,13.75099,5.95876,15.12609,7.24,-0.9,0.9,4.0
1758088369.79859,1758088367.24637,0.0,0.0,0.0,12.71966,4.81285,13.98017,7.24,-0.9,0.9,4.0
1758088369.80794,1758088367.25637,0.0,0.0,0.0,11.34457,5.72958,11.80293,7.71,-0.81,0.87,4.0
1758088369.80894,1758088367.26637,0.0,0.0,0.0,10.37054,7.84952,10.31324,8.29,-0.69,0.82,4.0
1758088369.81547,1758088367.27637,0.0,0.0,0.0,9.28192,9.96947,8.76626,8.29,-0.69,0.82,4.0
1758088369.81829,1758088367.28637,0.0,0.0,0.0,8.42248,12.89155,7.44845,8.76,-0.63,0.67,4.0
1758088369.93699,1758088367.29637,0.0,0.0,0.0,6.7609,16.73037,5.50039,8.76,-0.63,0.67,4.0
1758088369.95799,1758088367.30637,0.0,0.0,0.0,5.61499,17.93358,4.35448,9.06,-0.69,0.48,4.0
1758088369.96612,1758088367.31637,0.0,0.0,0.0,3.66693,18.33465,2.63561,9.06,-0.69,0.48,4.0
1758088369.97,1758088367.32637,0.0,0.0,0.0,1.08862,18.10547,-0.34377,9.22,-0.78,0.29,4.0
1758088369.99549,1758088367.33637,0.0,0.0,0.0,-0.80214,21.08485,-2.57831,9.81,-0.77,0.18,4.0
1758088369.99714,1758088367.34637,0.0,0.0,0.0,-2.34913,23.20479,-4.52637,9.81,-0.77,0.18,4.0
1758088369.99917,1758088367.35637,0.0,0.0,0.0,-3.60963,24.63719,-5.84417,10.17,-0.72,0.47,4.0
1758088370.00147,1758088367.36637,0.0,0.0,0.0,-4.69825,24.12152,-6.47442,10.17,-0.72,0.47,4.0
1758088370.00298,1758088367.37637,0.0,0.0,0.0,-4.98473,22.74642,-6.24524,9.96,-0.81,0.7,4.0
1758088370.02464,1758088367.38637,0.0,0.0,0.0,-4.46907,21.42862,-6.18794,9.96,-0.81,0.7,4.0
1758088370.02536,1758088367.39637,0.0,0.0,0.0,-4.0107,19.19409,-5.61499,9.52,-1.07,0.41,4.0
1758088370.02885,1758088367.40637,0.0,0.0,0.0,-3.20856,13.86558,-5.27121,8.97,-1.33,0.45,4.0
1758088370.03117,1758088367.41637,0.0,0.0,0.0,-2.63561,10.65701,-5.84417,8.97,-1.33,0.45,4.0
1758088370.0363,1758088367.42637,0.0,0.0,0.0,-1.83346,6.47442,-6.35983,8.62,-1.43,0.29,4.0
1758088370.0369,1758088367.43637,0.0,0.0,0.0,-1.14592,1.94806,-7.10468,8.62,-1.43,0.29,4.0
1758088370.03818,1758088367.44637,0.0,0.0,0.0,0.40107,-5.21392,-7.67763,8.52,-1.38,0.49,4.0
1758088370.04069,1758088367.45637,0.0,0.0,0.0,1.14592,-8.30789,-8.59437,8.52,-1.38,0.49,4.0
1758088370.04165,1758088367.46637,0.0,0.0,0.0,1.94806,-9.33921,-8.70896,8.82,-1.22,0.66,4.0
1758088370.04227,1758088367.47637,0.0,0.0,0.0,2.06265,-11.00079,-9.05273,8.82,-1.22,0.66,4.0
1758088370.04305,1758088367.48637,0.0,0.0,0.0,1.3178,-14.66772,-9.68299,9.02,-1.0,1.02,4.0
1758088370.04895,1758088367.49637,0.0,0.0,0.0,0.51566,-16.21471,-10.08406,8.96,-0.73,1.0,4.0
1758088370.05147,1758088367.50637,0.0,0.0,0.0,-0.22918,-17.18874,-10.65701,8.96,-0.73,1.0,4.0
1758088370.05479,1758088367.51637,0.0,0.0,0.0,-1.20321,-17.53251,-11.51645,9.0,-0.56,0.87,4.0
1758088370.05559,1758088367.52637,0.0,0.0,0.0,-2.6929,-18.50654,-12.204,9.0,-0.56,0.87,4.0
1758088370.07117,1758088367.53637,0.0,0.0,0.0,-3.72423,-18.56383,-13.23533,8.99,-0.56,0.74,4.0
1758088370.08816,1758088367.54637,0.0,0.0,0.0,-4.92744,-17.87628,-14.03747,8.99,-0.56,0.74,4.0
1758088370.08913,1758088367.55637,0.0,0.0,0.0,-6.58902,-16.90226,-15.46986,9.15,-0.67,0.69,4.0
1758088370.10563,1758088367.56637,0.0,0.0,0.0,-7.96411,-16.21471,-16.21471,9.19,-0.76,0.6,4.0
1758088370.10991,1758088367.57637,0.0,0.0,0.0,-9.05273,-14.83961,-16.73037,9.19,-0.76,0.6,4.0
1758088370.12687,1758088367.58637,0.0,0.0,0.0,-10.19865,-13.06344,-17.13144,9.34,-0.81,0.47,4.0
1758088370.12808,1758088367.59637,0.0,0.0,0.0,-11.74564,-9.28192,-17.47521,9.34,-0.81,0.47,4.0
1758088370.14581,1758088367.60637,0.0,0.0,0.0,-12.60507,-7.21927,-17.30333,9.39,-0.87,0.34,4.0
1758088370.15079,1758088367.61637,0.0,0.0,0.0,-13.46451,-5.72958,-17.36062,9.39,-0.87,0.34,4.0
1758088370.19687,1758088367.62637,0.0,0.0,0.0,-14.38124,-5.21392,-17.30333,9.25,-0.93,0.22,4.0
1758088370.20021,1758088367.63637,0.0,0.0,0.0,-15.64175,-4.69825,-17.13144,9.14,-1.01,0.04,4.0
1758088370.20166,1758088367.64637,0.0,0.0,0.0,-16.61578,-4.29718,-16.95955,9.14,-1.01,0.04,4.0
1758088370.20528,1758088367.65637,0.0,0.0,0.0,-17.36062,-3.20856,-16.55848,9.21,-1.05,-0.04,4.0
1758088370.20986,1758088367.66637,0.0,0.0,0.0,-18.22006,-1.48969,-16.10011,9.21,-1.05,-0.04,4.0
1758088370.21537,1758088367.67637,0.0,0.0,0.0,-19.48057,-1.71887,-15.29797,9.1,-1.04,0.06,4.0
1758088370.21572,1758088367.68637,0.0,0.0,0.0,-20.45459,-2.46372,-14.72501,9.1,-1.04,0.06,4.0
1758088370.24179,1758088367.69637,0.0,0.0,0.0,-21.37133,-2.63561,-14.20935,8.84,-1.01,0.09,4.0
1758088370.25929,1758088367.70637,0.0,0.0,0.0,-22.11617,-2.97938,-13.40721,8.84,-1.01,0.09,4.0
1758088370.26051,1758088367.71637,0.0,0.0,0.0,-23.0329,-3.60963,-12.37589,8.62,-1.01,0.02,4.0
1758088370.26572,1758088367.72637,0.0,0.0,0.0,-23.72045,-4.0107,-11.91752,8.25,-1.09,0.04,4.0
1758088370.26891,1758088367.73637,0.0,0.0,0.0,-24.4653,-4.81285,-11.34457,8.25,-1.09,0.04,4.0
1758088370.28603,1758088367.74637,0.0,0.0,0.0,-25.21014,-6.47442,-10.8862,7.99,-1.19,0.1,4.0
1758088370.28691,1758088367.75637,0.0,0.0,0.0,-25.7831,-7.96411,-10.59972,7.99,-1.19,0.1,4.0
1758088370.30193,1758088367.76637,0.0,0.0,0.0,-26.35606,-9.4538,-10.37054,7.77,-1.25,0.12,4.0
1758088370.31894,1758088367.77637,0.0,0.0,0.0,-26.87172,-11.28727,-9.96947,7.77,-1.25,0.12,4.0
1758088370.32073,1758088367.78637,0.0,0.0,0.0,-28.01764,-14.66772,-8.99544,7.66,-1.19,0.01,4.0
1758088370.33622,1758088367.79637,0.0,0.0,0.0,-28.70519,-17.36062,-7.96411,7.96,-1.06,0.15,4.0
1758088370.34235,1758088367.80637,0.0,0.0,0.0,-29.67921,-20.79837,-6.35983,7.96,-1.06,0.15,4.0
1758088370.3572,1758088367.81637,0.0,0.0,0.0,-30.53865,-24.98096,-4.58366,9.22,-0.7,1.03,4.0
1758088370.36053,1758088367.82637,0.0,0.0,0.0,-31.97105,-27.50197,-2.86479,9.22,-0.7,1.03,4.0
1758088370.3762,1758088367.83637,0.0,0.0,0.0,-33.05967,-28.36141,-1.14592,11.69,-0.42,2.65,4.0
1758088370.37798,1758088367.84637,0.0,0.0,0.0,-35.52338,-32.08564,-0.74485,11.69,-0.42,2.65,4.0
1758088370.3938,1758088367.85637,0.0,0.0,0.0,-37.35685,-37.92981,0.0573,13.39,0.21,3.84,4.0
1758088370.39523,1758088367.86637,0.0,0.0,0.0,-39.70598,-49.27437,-1.3751,12.68,0.82,2.71,4.0
1758088370.41121,1758088367.87637,0.0,0.0,0.0,-40.10705,-47.67009,-3.20856,12.68,0.82,2.71,4.0
1758088370.42821,1758088367.88637,0.0,0.0,0.0,-39.82057,-36.38282,-5.78687,13.3,0.76,1.56,4.0
1758088370.43583,1758088367.89637,0.0,0.0,0.0,-39.13302,-21.37133,-8.47978,13.3,0.76,1.56,4.0
1758088370.43622,1758088367.90637,0.0,0.0,0.0,-37.92981,-7.50575,-9.96947,14.58,0.53,2.43,4.0
1758088370.45369,1758088367.91637,0.0,0.0,0.0,-36.55471,3.49504,-8.47978,14.58,0.53,2.43,4.0
1758088370.45522,1758088367.92637,0.0,0.0,0.0,-35.2942,16.50119,-6.07335,16.72,0.91,2.67,4.0
1758088370.4713,1758088367.93637,0.0,0.0,0.0,-33.40344,26.69983,-2.57831,16.72,0.91,2.67,4.0
1758088370.48817,1758088367.94637,0.0,0.0,0.0,-30.88243,34.32018,-1.48969,16.6,0.85,1.62,4.0
1758088370.4979,1758088367.95637,0.0,0.0,0.0,-28.13223,37.24226,-1.77617,13.77,-0.18,1.13,4.0
1758088370.49931,1758088367.96637,0.0,0.0,0.0,-23.89234,35.06502,-1.3751,13.77,-0.18,1.13,4.0
1758088370.51573,1758088367.97637,0.0,0.0,0.0,-17.36062,24.98096,-2.40642,12.13,-1.24,1.36,4.0
1758088370.51696,1758088367.98637,0.0,0.0,0.0,-12.60507,18.73572,-3.38045,12.13,-1.24,1.36,4.0
1758088370.53431,1758088367.99637,0.0,0.0,0.0,-7.21927,16.61578,-4.64096,12.23,-1.55,1.42,4.0
1758088370.53795,1758088368.00637,0.0,0.0,0.0,-2.57831,17.87628,-5.72958,12.23,-1.55,1.42,4.0
1758088370.55552,1758088368.01637,0.0,0.0,0.0,3.49504,25.38203,-4.29718,12.59,-1.03,1.15,4.0
1758088370.55752,1758088368.02637,0.0,0.0,0.0,6.47442,29.56462,-3.09397,11.72,-0.3,2.03,4.0
1758088370.57537,1758088368.03637,0.0,0.0,0.0,7.33386,29.50733,-1.83346,11.72,-0.3,2.03,4.0
1758088370.58321,1758088368.04637,0.0,0.0,0.0,6.53172,26.06958,-1.3178,9.83,0.23,2.0,4.0
1758088370.59796,1758088368.05637,0.0,0.0,0.0,4.23989,18.62113,-1.60428,9.83,0.23,2.0,4.0
1758088370.60083,1758088368.06637,0.0,0.0,0.0,2.46372,14.49583,-2.40642,8.84,0.49,1.6,4.0
1758088370.61592,1758088368.07637,0.0,0.0,0.0,0.80214,12.14671,-3.95341,8.84,0.49,1.6,4.0
1758088370.61795,1758088368.08637,0.0,0.0,0.0,-0.45837,11.28727,-5.72958,8.43,0.61,1.29,4.0
1758088370.63553,1758088368.09637,0.0,0.0,0.0,-1.77617,11.22997,-8.30789,8.02,0.72,1.29,4.0
1758088370.63651,1758088368.10637,0.0,0.0,0.0,-2.34913,10.94349,-10.02676,8.02,0.72,1.29,4.0
1758088370.66154,1758088368.11637,0.0,0.0,0.0,-2.46372,10.54242,-11.22997,7.63,0.72,1.38,4.0
1758088370.6911,1758088368.12637,0.0,0.0,0.0,-2.34913,9.96947,-12.54778,7.63,0.72,1.38,4.0
1758088370.6965,1758088368.13637,0.0,0.0,0.0,-1.66158,9.85487,-12.71966,7.63,0.54,1.19,4.0
1758088370.72126,1758088368.14637,0.0,0.0,0.0,-0.74485,10.94349,-12.49048,7.63,0.54,1.19,4.0
1758088370.72632,1758088368.15637,0.0,0.0,0.0,0.11459,11.91752,-11.80293,8.06,0.23,1.04,4.0
1758088370.73596,1758088368.16637,0.0,0.0,0.0,1.43239,14.38124,-10.31324,8.06,0.23,1.04,4.0
1758088370.73646,1758088368.17637,0.0,0.0,0.0,2.46372,18.33465,-8.99544,8.68,-0.03,0.95,4.0
1758088370.73802,1758088368.18637,0.0,0.0,0.0,3.26586,22.97561,-7.21927,9.56,-0.22,0.88,4.0
1758088370.7607,1758088368.19637,0.0,0.0,0.0,4.29718,27.73116,-5.15662,9.56,-0.22,0.88,4.0
1758088370.76633,1758088368.20637,0.0,0.0,0.0,5.50039,31.97105,-2.6929,9.81,-0.35,0.9,4.0
1758088370.76806,1758088368.21637,0.0,0.0,0.0,7.21927,31.16891,-0.0573,9.81,-0.35,0.9,4.0
1758088370.76882,1758088368.22637,0.0,0.0,0.0,7.39116,24.57989,0.11459,9.26,-0.35,0.9,4.0
1758088370.77068,1758088368.23637,0.0,0.0,0.0,8.88085,13.80828,2.6929,9.26,-0.35,0.9,4.0
1758088370.78804,1758088368.24637,0.0,0.0,0.0,10.94349,5.50039,6.53172,8.49,-0.18,0.57,4.0
1758088370.78898,1758088368.25637,0.0,0.0,0.0,11.91752,4.18259,8.42248,9.52,-0.06,0.52,4.0
1758088370.80395,1758088368.26637,0.0,0.0,0.0,11.91752,2.29183,9.4538,9.52,-0.06,0.52,4.0
1758088370.80521,1758088368.27637,0.0,0.0,0.0,11.11538,-0.17189,9.33921,9.24,0.28,0.65,4.0
1758088370.82099,1758088368.28637,0.0,0.0,0.0,8.47978,-5.50039,8.0787,9.24,0.28,0.65,4.0
1758088370.83699,1758088368.29637,0.0,0.0,0.0,6.53172,-10.08406,7.16197,8.86,0.75,0.89,4.0
1758088370.8417,1758088368.30637,0.0,0.0,0.0,4.69825,-14.83961,6.13065,8.86,0.75,0.89,4.0
1758088370.85724,1758088368.31637,0.0,0.0,0.0,3.32316,-18.50654,5.4431,8.47,1.04,0.46,4.0
1758088370.85861,1758088368.32637,0.0,0.0,0.0,1.3178,-21.14215,4.1253,8.58,1.06,0.48,4.0
1758088370.87395,1758088368.33637,0.0,0.0,0.0,0.22918,-22.23076,3.38045,8.58,1.06,0.48,4.0
1758088370.87524,1758088368.34637,0.0,0.0,0.0,-0.45837,-22.23076,2.63561,8.76,0.84,0.45,4.0
1758088370.89114,1758088368.35637,0.0,0.0,0.0,-0.97403,-21.31403,2.29183,8.76,0.84,0.45,4.0
1758088370.907,1758088368.36637,0.0,0.0,0.0,-1.03132,-18.22006,2.40642,9.13,0.5,0.66,4.0
1758088370.91479,1758088368.37637,0.0,0.0,0.0,-0.85944,-15.58445,2.97938,9.13,0.5,0.66,4.0
1758088370.91514,1758088368.38637,0.0,0.0,0.0,-0.40107,-13.06344,4.1253,9.31,0.19,0.62,4.0
1758088370.93093,1758088368.39637,0.0,0.0,0.0,0.51566,-9.85487,6.47442,9.31,0.19,0.62,4.0
1758088370.94797,1758088368.40637,0.0,0.0,0.0,1.3178,-8.47978,8.0787,9.37,-0.04,0.7,4.0
1758088370.95002,1758088368.41637,0.0,0.0,0.0,2.29183,-7.73493,9.5684,9.34,-0.23,0.61,4.0
1758088370.96593,1758088368.42637,0.0,0.0,0.0,3.49504,-7.79223,11.11538,9.34,-0.23,0.61,4.0
1758088370.97128,1758088368.43637,0.0,0.0,0.0,5.32851,-10.19865,12.71966,9.28,-0.31,0.52,4.0
1758088370.98597,1758088368.44637,0.0,0.0,0.0,6.70361,-12.43318,13.40721,9.28,-0.31,0.52,4.0
1758088370.9875,1758088368.45637,0.0,0.0,0.0,8.25059,-13.5791,13.98017,9.24,-0.29,0.35,4.0
1758088371.00596,1758088368.46637,0.0,0.0,0.0,9.62569,-13.12073,14.43854,9.24,-0.29,0.35,4.0
1758088371.01138,1758088368.47637,0.0,0.0,0.0,11.57375,-11.17268,15.06879,9.49,-0.12,0.2,4.0
1758088371.07091,1758088368.48637,0.0,0.0,0.0,12.60507,-9.91217,15.41257,9.44,0.07,0.19,4.0
1758088371.07625,1758088368.49637,0.0,0.0,0.0,13.75099,-8.88085,15.24068,9.44,0.07,0.19,4.0
1758088371.07749,1758088368.50637,0.0,0.0,0.0,14.43854,-7.67763,14.9542,9.25,0.25,0.14,4.0
1758088371.07911,1758088368.51637,0.0,0.0,0.0,15.24068,-5.84417,14.38124,9.25,0.25,0.14,4.0
1758088371.08054,1758088368.52637,0.0,0.0,0.0,15.58445,-5.4431,13.75099,9.04,0.43,0.07,4.0
1758088371.08147,1758088368.53637,0.0,0.0,0.0,15.87093,-5.27121,13.40721,9.04,0.43,0.07,4.0
1758088371.08603,1758088368.54637,0.0,0.0,0.0,15.92823,-4.87014,12.77696,8.64,0.56,-0.06,4.0
1758088371.08765,1758088368.55637,0.0,0.0,0.0,15.87093,-1.14592,12.83425,8.65,0.63,-0.07,4.0
1758088371.10604,1758088368.56637,0.0,0.0,0.0,15.46986,1.20321,12.60507,8.65,0.63,-0.07,4.0
1758088371.11121,1758088368.57637,0.0,0.0,0.0,15.24068,0.74485,12.54778,8.24,0.65,-0.04,4.0
1758088371.12633,1758088368.58637,0.0,0.0,0.0,14.66772,-3.20856,11.80293,8.24,0.65,-0.04,4.0
1758088371.13147,1758088368.59637,0.0,0.0,0.0,14.38124,-6.24524,11.17268,7.69,0.58,-0.06,4.0
1758088371.14654,1758088368.60637,0.0,0.0,0.0,14.38124,-9.28192,10.59972,7.69,0.58,-0.06,4.0
1758088371.15375,1758088368.61637,0.0,0.0,0.0,14.61043,-11.97482,9.91217,7.54,0.56,-0.26,4.0
1758088371.18818,1758088368.62637,0.0,0.0,0.0,15.06879,-16.38659,8.99544,7.42,0.56,-0.27,4.0
1758088371.19632,1758088368.63637,0.0,0.0,0.0,15.58445,-19.42327,8.42248,7.42,0.59,-0.27,4.0
1758088371.19766,1758088368.64637,0.0,0.0,0.0,16.10011,-22.05888,7.73493,7.53,0.62,0.1,4.0
1758088371.20133,1758088368.65637,0.0,0.0,0.0,16.84496,-26.47065,6.53172,7.53,0.62,0.1,4.0
1758088371.20193,1758088368.66637,0.0,0.0,0.0,17.93358,-36.38282,2.92208,8.47,0.39,1.23,4.0
1758088371.21837,1758088368.67637,0.0,0.0,0.0,18.90761,-39.4768,0.11459,8.47,0.39,1.23,4.0
1758088371.21921,1758088368.68637,0.0,0.0,0.0,21.08485,-41.13837,-2.23454,11.21,-0.25,2.16,4.0
1758088371.23403,1758088368.69637,0.0,0.0,0.0,23.37668,-43.14373,-4.23989,11.21,-0.25,2.16,4.0
1758088371.23523,1758088368.70637,0.0,0.0,0.0,27.73116,-45.89392,-5.27121,13.1,-1.42,3.15,4.0
1758088371.25115,1758088368.71637,0.0,0.0,0.0,30.65324,-46.75336,-4.58366,12.82,-2.62,2.72,4.0
1758088371.33598,1758088368.72637,0.0,0.0,0.0,33.34615,-44.9199,-2.40642,12.82,-2.62,2.72,4.0
1758088371.33796,1758088368.73637,0.0,0.0,0.0,35.69527,-39.07573,0.51566,12.86,-3.02,2.04,4.0
1758088371.341,1758088368.74637,0.0,0.0,0.0,39.01843,-26.41335,5.61499,12.86,-3.02,2.04,4.0
1758088371.34294,1758088368.75637,0.0,0.0,0.0,41.25296,-19.82434,7.44845,15.4,-2.94,3.17,4.0
1758088371.34356,1758088368.76637,0.0,0.0,0.0,42.57077,-13.75099,7.84952,15.4,-2.94,3.17,4.0
1758088371.34645,1758088368.77637,0.0,0.0,0.0,39.53409,-19.25138,7.44845,17.7,-2.73,1.75,4.0
1758088371.34783,1758088368.78637,0.0,0.0,0.0,37.12767,-19.07949,7.39116,15.95,-1.6,0.17,4.0
1758088371.34945,1758088368.79637,0.0,0.0,0.0,35.3515,-5.15662,8.65166,15.95,-1.6,0.17,4.0
1758088371.35051,1758088368.80637,0.0,0.0,0.0,34.72124,11.45916,10.48513,14.82,-0.42,-0.01,4.0
1758088371.35131,1758088368.81637,0.0,0.0,0.0,32.88778,29.22085,13.5218,14.82,-0.42,-0.01,4.0
1758088371.36931,1758088368.82637,0.0,0.0,0.0,29.50733,35.40879,14.72501,12.74,0.14,1.12,4.0
1758088371.37018,1758088368.83637,0.0,0.0,0.0,25.43933,39.01843,14.38124,12.74,0.14,1.12,4.0
1758088371.38503,1758088368.84637,0.0,0.0,0.0,21.08485,39.4768,13.46451,12.78,0.03,1.21,4.0
1758088371.38621,1758088368.85637,0.0,0.0,0.0,14.61043,39.70598,10.19865,13.0,-0.52,1.39,4.0
1758088371.40104,1758088368.86637,0.0,0.0,0.0,11.11538,39.53409,8.136,13.0,-0.52,1.39,4.0
1758088371.41783,1758088368.87637,0.0,0.0,0.0,8.36518,39.99245,6.24524,11.74,-0.93,0.83,4.0
1758088371.41982,1758088368.88637,0.0,0.0,0.0,6.7609,42.22699,4.92744,11.74,-0.93,0.83,4.0
1758088371.43525,1758088368.89637,0.0,0.0,0.0,4.58366,42.34158,4.0107,10.48,-0.98,0.85,4.0
1758088371.4365,1758088368.90637,0.0,0.0,0.0,3.38045,40.68,4.29718,10.48,-0.98,0.85,4.0
1758088371.45135,1758088368.91637,0.0,0.0,0.0,2.46372,38.44547,5.21392,9.3,-0.84,0.81,4.0
1758088371.46807,1758088368.92637,0.0,0.0,0.0,1.94806,35.2369,6.58902,9.3,-0.84,0.81,4.0
1758088371.46903,1758088368.93637,0.0,0.0,0.0,1.3751,28.07493,8.70896,8.62,-0.82,0.83,4.0
1758088371.48415,1758088368.94637,0.0,0.0,0.0,1.60428,23.94964,9.96947,8.25,-0.95,0.77,4.0
1758088371.4868,1758088368.95637,0.0,0.0,0.0,2.06265,20.62648,10.71431,8.25,-0.95,0.77,4.0
1758088371.50387,1758088368.96637,0.0,0.0,0.0,3.20856,17.58981,10.59972,8.2,-1.16,0.85,4.0
1758088371.50582,1758088368.97637,0.0,0.0,0.0,3.89611,13.98017,9.91217,8.2,-1.16,0.85,4.0
1758088371.52391,1758088368.98637,0.0,0.0,0.0,4.0107,13.69369,8.93814,8.14,-1.22,0.83,4.0
1758088371.52563,1758088368.99637,0.0,0.0,0.0,3.83882,15.46986,6.99009,8.14,-1.22,0.83,4.0
1758088371.54129,1758088369.00637,0.0,0.0,0.0,4.18259,25.89769,4.29718,8.34,-1.1,0.73,4.0
1758088371.55829,1758088369.01637,0.0,0.0,0.0,2.86479,35.3515,1.94806,8.83,-0.86,0.63,4.0
1758088371.56035,1758088369.02637,0.0,0.0,0.0,2.40642,38.61736,1.08862,8.83,-0.86,0.63,4.0
1758088371.57535,1758088369.03637,0.0,0.0,0.0,1.83346,35.3515,0.45837,7.66,-0.62,1.05,4.0
1758088371.57645,1758088369.04637,0.0,0.0,0.0,0.40107,19.88164,-0.57296,7.66,-0.62,1.05,4.0
1758088371.59109,1758088369.05637,0.0,0.0,0.0,-1.14592,11.51645,-2.00535,7.08,-0.52,0.36,4.0
1758088371.60784,1758088369.06637,0.0,0.0,0.0,-2.11994,8.88085,-3.49504,7.08,-0.52,0.36,4.0
1758088371.60982,1758088369.07637,0.0,0.0,0.0,-2.57831,9.28192,-4.87014,8.44,-0.5,-0.24,4.0
1758088371.62506,1758088369.08637,0.0,0.0,0.0,-2.29183,6.7609,-5.95876,8.87,-0.72,0.45,4.0
1758088371.62625,1758088369.09637,0.0,0.0,0.0,-1.77617,3.20856,-6.35983,8.87,-0.72,0.45,4.0
1758088371.64106,1758088369.10637,0.0,0.0,0.0,-1.3178,-0.17189,-6.41713,8.85,-1.03,0.71,4.0
1758088371.658,1758088369.11637,0.0,0.0,0.0,-0.74485,-4.23989,-6.41713,8.85,-1.03,0.71,4.0
1758088371.66154,1758088369.12637,0.0,0.0,0.0,-0.40107,-9.4538,-6.41713,8.68,-1.3,0.34,4.0
1758088371.70018,1758088369.13637,0.0,0.0,0.0,-0.17189,-11.86023,-6.07335,8.68,-1.3,0.34,4.0
1758088371.71181,1758088369.14637,0.0,0.0,0.0,-0.0573,-14.03747,-5.90147,8.51,-1.49,0.19,4.0
1758088371.77683,1758088369.15637,0.0,0.0,0.0,-0.0573,-15.58445,-6.47442,8.51,-1.49,0.19,4.0
1758088371.85684,1758088369.16637,0.0,0.0,0.0,0.0,-18.50654,-5.90147,8.5,-1.44,0.28,4.0
1758088371.859,1758088369.17637,0.0,0.0,0.0,-0.45837,-19.42327,-6.35983,8.77,-1.18,0.51,4.0
1758088371.8616,1758088369.18637,0.0,0.0,0.0,-0.85944,-18.90761,-6.13065,8.77,-1.18,0.51,4.0
1758088371.86338,1758088369.19637,0.0,0.0,0.0,-1.83346,-17.24603,-7.21927,9.23,-0.89,0.54,4.0
1758088371.86582,1758088369.20637,0.0,0.0,0.0,-2.86479,-16.3293,-8.25059,9.23,-0.89,0.54,4.0
1758088371.8665,1758088369.21637,0.0,0.0,0.0,-3.72423,-15.87093,-9.62569,9.2,-0.6,0.55,4.0
1758088371.86989,1758088369.22637,0.0,0.0,0.0,-4.52637,-15.24068,-11.00079,9.2,-0.6,0.55,4.0
1758088371.87793,1758088369.23637,0.0,0.0,0.0,-5.61499,-13.5791,-13.00614,9.17,-0.45,0.42,4.0
1758088371.87866,1758088369.24637,0.0,0.0,0.0,-5.95876,-12.43318,-14.32395,9.23,-0.6,0.42,4.0
1758088371.88052,1758088369.25637,0.0,0.0,0.0,-6.35983,-11.17268,-15.35527,9.23,-0.6,0.42,4.0
1758088371.88169,1758088369.26637,0.0,0.0,0.0,-6.8182,-10.02676,-16.21471,9.24,-0.9,0.47,4.0
1758088371.88241,1758088369.27637,0.0,0.0,0.0,-7.44845,-8.42248,-16.84496,9.24,-0.9,0.47,4.0
1758088371.88304,1758088369.28637,0.0,0.0,0.0,-7.84952,-7.39116,-16.55848,9.21,-1.22,0.52,4.0
1758088371.88586,1758088369.29637,0.0,0.0,0.0,-8.47978,-6.7609,-15.87093,9.21,-1.22,0.52,4.0
1758088371.88649,1758088369.30637,0.0,0.0,0.0,-9.05273,-6.47442,-14.83961,9.07,-1.42,0.51,4.0
1758088371.89169,1758088369.31637,0.0,0.0,0.0,-10.25595,-6.8182,-13.06344,8.83,-1.52,0.47,4.0
1758088371.89474,1758088369.32637,0.0,0.0,0.0,-11.11538,-6.58902,-11.86023,8.83,-1.52,0.47,4.0
1758088371.89594,1758088369.33637,0.0,0.0,0.0,-11.91752,-5.72958,-10.71431,8.56,-1.48,0.36,4.0
1758088371.89842,1758088369.34637,0.0,0.0,0.0,-13.00614,-4.35448,-9.85487,8.56,-1.48,0.36,4.0
1758088371.90015,1758088369.35637,0.0,0.0,0.0,-14.15206,-4.46907,-9.28192,8.13,-1.36,0.33,4.0
1758088371.90083,1758088369.36637,0.0,0.0,0.0,-15.0115,-5.78687,-9.22462,8.13,-1.36,0.33,4.0
1758088371.90712,1758088369.37637,0.0,0.0,0.0,-15.69904,-7.79223,-9.39651,7.61,-1.19,0.3,4.0
1758088371.92391,1758088369.38637,0.0,0.0,0.0,-16.61578,-10.25595,-9.85487,7.61,-1.19,0.3,4.0
1758088371.92669,1758088369.39637,0.0,0.0,0.0,-17.18874,-13.5791,-10.19865,7.34,-1.06,0.09,4.0
1758088371.94314,1758088369.40637,0.0,0.0,0.0,-17.76169,-15.92823,-10.48513,7.15,-1.0,-0.08,4.0
1758088371.94593,1758088369.41637,0.0,0.0,0.0,-18.10547,-18.56383,-10.25595,7.15,-1.0,-0.08,4.0
1758088371.9614,1758088369.42637,0.0,0.0,0.0,-18.90761,-22.11617,-9.11003,7.12,-1.0,-0.03,4.0
1758088371.98049,1758088369.43637,0.0,0.0,0.0,-19.25138,-23.89234,-7.67763,7.12,-1.0,-0.03,4.0
1758088371.98944,1758088369.44637,0.0,0.0,0.0,-19.82434,-26.81443,-5.27121,7.97,-0.85,0.82,4.0
1758088371.9911,1758088369.45637,0.0,0.0,0.0,-20.34,-31.74186,-3.20856,7.97,-0.85,0.82,4.0
1758088371.99681,1758088369.46637,0.0,0.0,0.0,-22.23076,-39.01843,0.80214,9.77,-0.54,2.23,4.0
1758088372.01631,1758088369.47637,0.0,0.0,0.0,-24.92367,-46.81066,2.63561,12.32,0.03,3.53,4.0
1758088372.02316,1758088369.48637,0.0,0.0,0.0,-28.30412,-54.60288,2.6929,12.32,0.03,3.53,4.0
1758088372.03847,1758088369.49637,0.0,0.0,0.0,-31.16891,-58.72818,1.43239,13.41,0.91,3.04,4.0
1758088372.04081,1758088369.50637,0.0,0.0,0.0,-33.17426,-51.85268,-2.06265,13.41,0.91,3.04,4.0
1758088372.05632,1758088369.51637,0.0,0.0,0.0,-33.74722,-38.38818,-5.55769,13.47,1.18,1.64,4.0
1758088372.05807,1758088369.52637,0.0,0.0,0.0,-33.9764,-22.74642,-9.28192,13.47,1.18,1.64,4.0
1758088372.07388,1758088369.53637,0.0,0.0,0.0,-34.37747,-5.95876,-11.86023,13.81,1.14,1.84,4.0
1758088372.07609,1758088369.54637,0.0,0.0,0.0,-36.84119,20.62648,-12.2613,17.3,1.78,2.81,4.0
1758088372.09232,1758088369.55637,0.0,0.0,0.0,-38.78925,35.2369,-10.54242,17.3,1.78,2.81,4.0
1758088372.10994,1758088369.56637,0.0,0.0,0.0,-38.73195,36.15364,-9.39651,17.85,1.99,0.92,4.0
1758088372.11185,1758088369.57637,0.0,0.0,0.0,-37.01308,19.59516,-9.5684,17.85,1.99,0.92,4.0
1758088372.12822,1758088369.58637,0.0,0.0,0.0,-27.33009,-2.34913,-5.32851,12.73,0.1,0.01,4.0
1758088372.13226,1758088369.59637,0.0,0.0,0.0,-24.5226,2.40642,-7.33386,12.73,0.1,0.01,4.0
1758088372.14994,1758088369.60637,0.0,0.0,0.0,-22.40265,29.50733,-10.19865,14.59,-1.9,0.43,4.0
1758088372.15185,1758088369.61637,0.0,0.0,0.0,-13.00614,56.89471,-9.68299,14.59,-1.9,0.43,4.0
1758088372.16795,1758088369.62637,0.0,0.0,0.0,-7.96411,57.92604,-7.73493,15.43,-2.25,0.71,4.0
1758088372.16938,1758088369.63637,0.0,0.0,0.0,-3.83882,53.51426,-5.09932,13.22,-1.2,2.91,4.0
1758088372.18409,1758088369.64637,0.0,0.0,0.0,-1.43239,48.12846,-2.86479,13.22,-1.2,2.91,4.0
1758088372.18687,1758088369.65637,0.0,0.0,0.0,-0.0573,34.0337,0.74485,12.34,-0.26,0.84,4.0
1758088372.20553,1758088369.66637,0.0,0.0,0.0,-0.74485,26.24147,1.48969,12.34,-0.26,0.84,4.0
1758088372.20965,1758088369.67637,0.0,0.0,0.0,-2.7502,17.47521,2.00535,10.98,0.22,1.16,4.0
1758088372.2254,1758088369.68637,0.0,0.0,0.0,-4.52637,11.97482,1.3178,10.98,0.22,1.16,4.0
1758088372.22634,1758088369.69637,0.0,0.0,0.0,-7.50575,14.15206,-0.80214,9.99,0.47,1.02,4.0
1758088372.24296,1758088369.70637,0.0,0.0,0.0,-9.05273,19.53786,-2.11994,9.8,0.81,1.38,4.0
1758088372.25997,1758088369.71637,0.0,0.0,0.0,-11.17268,22.91831,-4.81285,9.8,0.81,1.38,4.0
1758088372.26198,1758088369.72637,0.0,0.0,0.0,-12.71966,22.91831,-7.79223,8.43,0.98,1.63,4.0
1758088372.28046,1758088369.73637,0.0,0.0,0.0,-14.20935,19.53786,-11.45916,8.43,0.98,1.63,4.0
1758088372.28226,1758088369.74637,0.0,0.0,0.0,-15.12609,18.62113,-13.5791,7.43,1.14,1.33,4.0
1758088372.30195,1758088369.75637,0.0,0.0,0.0,-14.78231,15.64175,-13.69369,7.43,1.14,1.33,4.0
1758088372.34187,1758088369.76637,0.0,0.0,0.0,-14.83961,14.9542,-14.03747,7.15,0.95,0.97,4.0
1758088372.34568,1758088369.77637,0.0,0.0,0.0,-13.40721,12.54778,-13.34992,7.27,0.57,0.9,4.0
1758088372.34766,1758088369.78637,0.0,0.0,0.0,-12.14671,9.33921,-12.54778,7.27,0.57,0.9,4.0
1758088372.34827,1758088369.79637,0.0,0.0,0.0,-10.59972,5.84417,-11.34457,7.38,0.1,0.82,4.0
1758088372.35058,1758088369.80637,0.0,0.0,0.0,-7.84952,7.33386,-9.28192,7.38,0.1,0.82,4.0
1758088372.35096,1758088369.81637,0.0,0.0,0.0,-5.50039,12.54778,-7.10468,8.43,-0.28,0.81,4.0
1758088372.36817,1758088369.82637,0.0,0.0,0.0,-3.32316,18.22006,-5.4431,8.43,-0.28,0.81,4.0
1758088372.37074,1758088369.83637,0.0,0.0,0.0,-1.94806,20.3973,-3.95341,8.93,-0.4,1.17,4.0
1758088372.3861,1758088369.84637,0.0,0.0,0.0,-0.68755,18.33465,-2.63561,8.93,-0.4,1.15,4.0
1758088372.38731,1758088369.85637,0.0,0.0,0.0,-0.45837,16.73037,-2.23454,8.63,-0.32,1.15,4.0
1758088372.40392,1758088369.86637,0.0,0.0,0.0,-0.57296,14.83961,-1.48969,8.85,-0.06,0.65,4.0
1758088372.40569,1758088369.87637,0.0,0.0,0.0,-0.51566,13.23533,-0.74485,8.85,-0.06,0.65,4.0
1758088372.42111,1758088369.88637,0.0,0.0,0.0,-0.80214,11.34457,0.34377,9.14,0.27,0.37,4.0
1758088372.4379,1758088369.89637,0.0,0.0,0.0,-0.80214,9.68299,1.20321,9.14,0.27,0.37,4.0
1758088372.44066,1758088369.90637,0.0,0.0,0.0,-1.03132,7.62034,2.06265,9.53,0.51,0.49,4.0
1758088372.45614,1758088369.91637,0.0,0.0,0.0,-1.03132,4.35448,2.57831,9.53,0.51,0.49,4.0
1758088372.45764,1758088369.92637,0.0,0.0,0.0,-1.3751,-3.03668,3.20856,9.51,0.67,0.47,4.0
1758088372.47393,1758088369.93637,0.0,0.0,0.0,-1.3751,-8.42248,3.72423,9.31,0.67,0.39,4.0
1758088372.47569,1758088369.94637,0.0,0.0,0.0,-1.66158,-12.77696,4.1253,9.31,0.67,0.39,4.0
1758088372.4914,1758088369.95637,0.0,0.0,0.0,-2.11994,-15.92823,4.23989,9.21,0.57,0.44,4.0
1758088372.50809,1758088369.96637,0.0,0.0,0.0,-2.40642,-20.79837,3.89611,9.21,0.57,0.44,4.0
1758088372.51676,1758088369.97637,0.0,0.0,0.0,-2.57831,-24.35071,3.55234,9.0,0.46,0.57,4.0
1758088372.52108,1758088369.98637,0.0,0.0,0.0,-2.11994,-27.1582,2.92208,9.0,0.46,0.57,4.0
1758088372.6311,1758088369.99637,0.0,0.0,0.0,-1.48969,-27.84575,2.29183,9.03,0.37,0.7,4.0
1758088372.63975,1758088370.00637,0.0,0.0,0.0,-0.68755,-26.64254,2.57831,9.39,0.28,0.68,4.0
1758088372.64197,1758088370.01637,0.0,0.0,0.0,0.0573,-24.35071,2.92208,9.39,0.28,0.68,4.0
1758088372.64853,1758088370.02637,0.0,0.0,0.0,0.97403,-20.97026,4.1253,9.71,0.2,0.77,4.0
1758088372.64988,1758088370.03637,0.0,0.0,0.0,2.11994,-15.41257,6.7609,9.71,0.2,0.77,4.0
1758088372.65117,1758088370.04637,0.0,0.0,0.0,3.03668,-11.63104,8.65166,9.87,0.1,0.84,4.0
1758088372.65412,1758088370.05637,0.0,0.0,0.0,3.66693,-10.25595,10.71431,9.87,0.1,0.84,4.0
1758088372.6589,1758088370.06637,0.0,0.0,0.0,4.52637,-10.08406,12.83425,9.69,-0.05,0.69,4.0
1758088372.66321,1758088370.07637,0.0,0.0,0.0,5.15662,-15.58445,14.09476,9.12,-0.05,0.47,4.0
1758088372.66684,1758088370.08637,0.0,0.0,0.0,5.55769,-18.44924,14.43854,9.12,-0.18,0.47,4.0
1758088372.67168,1758088370.09637,0.0,0.0,0.0,6.47442,-17.30333,14.9542,9.32,-0.11,0.03,4.0
1758088372.67578,1758088370.10637,0.0,0.0,0.0,7.44845,-13.34992,15.87093,9.32,-0.11,0.03,4.0
1758088372.67803,1758088370.11637,0.0,0.0,0.0,8.59437,-7.10468,16.67307,9.62,0.09,0.02,4.0
1758088372.67968,1758088370.12637,0.0,0.0,0.0,9.28192,-4.1253,16.95955,9.62,0.09,0.02,4.0
1758088372.69026,1758088370.13637,0.0,0.0,0.0,9.74028,-2.40642,16.84496,9.23,0.22,0.17,4.0
1758088372.76869,1758088370.14637,0.0,0.0,0.0,10.48513,-1.60428,16.73037,9.23,0.22,0.17,4.0
1758088372.79107,1758088370.15637,0.0,0.0,0.0,11.11538,-2.00535,16.38659,8.82,0.28,0.08,4.0
1758088372.79409,1758088370.16637,0.0,0.0,0.0,11.63104,-2.92208,16.21471,8.43,0.34,-0.11,4.0
1758088372.79693,1758088370.17637,0.0,0.0,0.0,12.14671,-4.29718,16.04282,8.43,0.34,-0.11,4.0
1758088372.79758,1758088370.18637,0.0,0.0,0.0,12.54778,-5.27121,16.272,8.2,0.38,-0.25,4.0
1758088372.80549,1758088370.19637,0.0,0.0,0.0,13.00614,-4.87014,16.04282,8.2,0.38,-0.25,4.0
1758088372.86817,1758088370.20637,0.0,0.0,0.0,13.80828,-1.83346,16.67307,8.21,0.36,-0.36,4.0
1758088372.87021,1758088370.21637,0.0,0.0,0.0,14.43854,0.22918,17.18874,8.21,0.36,-0.36,4.0
1758088372.87368,1758088370.22637,0.0,0.0,0.0,15.0115,-1.3751,17.18874,8.14,0.33,-0.2,4.0
1758088372.87532,1758088370.23637,0.0,0.0,0.0,15.58445,-5.32851,17.01685,7.41,0.33,-0.15,4.0
1758088372.87637,1758088370.24637,0.0,0.0,0.0,15.98552,-9.91217,16.84496,7.41,0.33,-0.15,4.0
1758088372.87965,1758088370.25637,0.0,0.0,0.0,16.50119,-13.98017,16.84496,7.1,0.32,-0.5,4.0
1758088372.88063,1758088370.26637,0.0,0.0,0.0,17.24603,-18.62113,16.67307,7.1,0.32,-0.5,4.0
1758088372.88138,1758088370.27637,0.0,0.0,0.0,17.87628,-21.31403,16.21471,7.04,0.31,-0.74,4.0
1758088372.88327,1758088370.28637,0.0,0.0,0.0,18.62113,-24.17882,15.75634,7.04,0.31,-0.74,4.0
1758088372.88629,1758088370.29637,0.0,0.0,0.0,19.36597,-27.10091,15.35527,6.87,0.37,-0.6,4.0
1758088372.88754,1758088370.30637,0.0,0.0,0.0,21.25674,-33.80451,13.98017,7.1,0.38,0.35,4.0
1758088372.88895,1758088370.31637,0.0,0.0,0.0,22.05888,-41.02378,11.63104,7.1,0.38,0.35,4.0
1758088372.89016,1758088370.32637,0.0,0.0,0.0,22.68913,-45.14908,9.22462,8.57,0.05,1.46,4.0
1758088372.89159,1758088370.33637,0.0,0.0,0.0,24.12152,-44.11775,7.62034,8.57,0.05,1.46,4.0
1758088372.89448,1758088370.34637,0.0,0.0,0.0,26.35606,-40.7946,4.29718,11.92,-0.66,2.81,4.0
1758088372.89509,1758088370.35637,0.0,0.0,0.0,28.87707,-39.53409,3.32316,11.92,-0.66,2.81,4.0
1758088372.89622,1758088370.36637,0.0,0.0,0.0,31.39809,-48.01387,4.18259,13.11,-1.86,3.27,4.0
1758088372.9115,1758088370.37637,0.0,0.0,0.0,34.32018,-59.18654,5.84417,13.11,-1.86,3.27,4.0
1758088372.92844,1758088370.38637,0.0,0.0,0.0,41.59674,-59.70221,11.17268,12.3,-3.07,2.68,4.0
1758088372.92938,1758088370.39637,0.0,0.0,0.0,45.20637,-47.95657,9.91217,17.4,-4.65,2.79,4.0
1758088372.94597,1758088370.40637,0.0,0.0,0.0,47.89928,-31.16891,9.22462,17.4,-4.65,2.79,4.0
1758088372.95102,1758088370.41637,0.0,0.0,0.0,47.61279,-34.95043,8.136,19.09,-5.11,0.0,4.0
1758088372.96618,1758088370.42637,0.0,0.0,0.0,45.09178,-29.73651,8.47978,19.09,-5.11,0.0,4.0
1758088372.9717,1758088370.43637,0.0,0.0,0.0,44.28964,-11.34457,12.71966,16.38,-2.93,-0.37,4.0
1758088372.98618,1758088370.44637,0.0,0.0,0.0,43.65939,8.47978,16.90226,16.38,-2.93,-0.37,4.0
1758088372.98928,1758088370.45637,0.0,0.0,0.0,42.28429,29.10626,22.28806,15.68,-0.9,-0.6,4.0
1758088373.00576,1758088370.46637,0.0,0.0,0.0,38.56006,32.20023,23.72045,14.14,-0.14,1.84,4.0
1758088373.00937,1758088370.47637,0.0,0.0,0.0,33.68992,31.56997,23.20479,14.14,-0.14,1.84,4.0
1758088373.02764,1758088370.48637,0.0,0.0,0.0,29.22085,30.82513,20.3973,14.54,-0.57,1.21,4.0
1758088373.08073,1758088370.49637,0.0,0.0,0.0,23.66316,30.02299,13.5791,14.54,-0.57,1.21,4.0
1758088373.0848,1758088370.50637,0.0,0.0,0.0,20.79837,29.56462,9.28192,13.98,-1.34,1.22,4.0
1758088373.08918,1758088370.51637,0.0,0.0,0.0,18.50654,31.91375,6.07335,13.98,-1.34,1.22,4.0
1758088373.08952,1758088370.52637,0.0,0.0,0.0,18.10547,40.62271,5.21392,12.58,-1.5,0.67,4.0
1758088373.091,1758088370.53637,0.0,0.0,0.0,17.13144,46.06581,5.90147,11.42,-1.35,0.81,4.0
1758088373.09135,1758088370.54637,0.0,0.0,0.0,16.61578,44.17505,7.10468,11.42,-1.35,0.81,4.0
1758088373.09553,1758088370.55637,0.0,0.0,0.0,15.87093,41.08107,8.59437,9.56,-1.21,0.78,4.0
1758088373.09646,1758088370.56637,0.0,0.0,0.0,15.24068,39.07573,9.96947,9.56,-1.21,0.78,4.0
1758088373.11347,1758088370.57637,0.0,0.0,0.0,14.49583,35.40879,12.2613,8.74,-1.21,0.49,4.0
1758088373.1184,1758088370.58637,0.0,0.0,0.0,14.38124,31.56997,13.23533,8.74,-1.21,0.49,4.0
1758088373.13442,1758088370.59637,0.0,0.0,0.0,14.38124,25.49662,13.5218,7.71,-1.33,0.78,4.0
1758088373.1386,1758088370.60637,0.0,0.0,0.0,14.32395,18.56383,12.60507,7.71,-1.33,0.78,4.0
1758088373.15646,1758088370.61637,0.0,0.0,0.0,14.20935,8.88085,11.80293,6.94,-1.42,0.81,4.0
1758088373.1598,1758088370.62637,0.0,0.0,0.0,14.09476,5.15662,10.37054,6.97,-1.4,0.7,4.0
1758088373.17522,1758088370.63637,0.0,0.0,0.0,13.98017,1.94806,9.05273,6.97,-1.4,0.7,4.0
1758088373.17648,1758088370.64637,0.0,0.0,0.0,13.40721,-3.03668,6.7609,6.94,-1.2,0.74,4.0
1758088373.19151,1758088370.65637,0.0,0.0,0.0,12.83425,-5.78687,5.4431,6.94,-1.2,0.74,4.0
1758088373.19651,1758088370.66637,0.0,0.0,0.0,11.80293,-4.23989,4.1253,7.15,-0.94,0.78,4.0
1758088373.21507,1758088370.67637,0.0,0.0,0.0,11.51645,1.83346,2.7502,7.15,-0.94,0.78,4.0
1758088373.36778,1758088370.68637,0.0,0.0,0.0,9.4538,15.41257,0.97403,8.11,-0.81,0.53,4.0
1758088373.36839,1758088370.69637,0.0,0.0,0.0,8.99544,23.83505,-0.17189,8.65,-0.78,0.72,4.0
1758088373.36969,1758088370.70637,0.0,0.0,0.0,8.42248,26.81443,-0.51566,8.65,-0.78,0.72,4.0
1758088373.37027,1758088370.71637,0.0,0.0,0.0,6.99009,23.31938,-1.43239,8.23,-0.87,0.56,4.0
1758088373.37151,1758088370.72637,0.0,0.0,0.0,4.29718,11.74564,-3.89611,8.23,-0.87,0.56,4.0
1758088373.37642,1758088370.73637,0.0,0.0,0.0,2.06265,10.54242,-5.55769,8.5,-0.87,-0.11,4.0
1758088373.37774,1758088370.74637,0.0,0.0,0.0,0.45837,13.86558,-6.70361,8.5,-0.87,-0.11,4.0
1758088373.38138,1758088370.75637,0.0,0.0,0.0,-1.08862,15.75634,-7.73493,10.01,-0.93,-0.43,4.0
1758088373.38686,1758088370.76637,0.0,0.0,0.0,-3.03668,14.83961,-8.47978,9.88,-1.13,0.36,4.0
1758088373.3894,1758088370.77637,0.0,0.0,0.0,-3.83882,13.34992,-8.70896,9.88,-1.13,0.36,4.0
1758088373.39063,1758088370.78637,0.0,0.0,0.0,-3.95341,11.80293,-8.65166,9.63,-1.3,0.28,4.0
1758088373.3913,1758088370.79637,0.0,0.0,0.0,-4.0107,9.68299,-8.65166,9.63,-1.3,0.28,4.0
1758088373.39562,1758088370.80637,0.0,0.0,0.0,-4.1253,5.55769,-9.5684,9.08,-1.46,0.17,4.0
1758088373.39676,1758088370.81637,0.0,0.0,0.0,-3.55234,1.66158,-9.85487,9.08,-1.46,0.17,4.0
1758088373.39714,1758088370.82637,0.0,0.0,0.0,-3.03668,-1.60428,-10.71431,8.53,-1.46,0.05,4.0
1758088373.39874,1758088370.83637,0.0,0.0,0.0,-1.83346,-6.13065,-11.97482,8.53,-1.46,0.05,4.0
1758088373.40067,1758088370.84637,0.0,0.0,0.0,-1.20321,-8.70896,-12.89155,8.51,-1.42,-0.03,4.0
1758088373.40164,1758088370.85637,0.0,0.0,0.0,-0.11459,-10.8862,-13.5791,8.7,-1.34,0.09,4.0
1758088373.40389,1758088370.86637,0.0,0.0,0.0,0.34377,-11.80293,-14.61043,8.7,-1.34,0.09,4.0
1758088373.4065,1758088370.87637,0.0,0.0,0.0,1.43239,-12.49048,-15.06879,9.22,-1.29,0.3,4.0
1758088373.42534,1758088370.88637,0.0,0.0,0.0,1.77617,-13.69369,-15.64175,9.22,-1.29,0.3,4.0
1758088373.42652,1758088370.89637,0.0,0.0,0.0,1.83346,-14.61043,-16.10011,9.39,-1.29,0.5,4.0
1758088373.44162,1758088370.90637,0.0,0.0,0.0,1.83346,-14.83961,-16.55848,9.39,-1.29,0.5,4.0
1758088373.44571,1758088370.91637,0.0,0.0,0.0,1.66158,-15.46986,-17.13144,9.55,-1.35,0.63,4.0
1758088373.46161,1758088370.92637,0.0,0.0,0.0,1.20321,-16.55848,-17.36062,9.31,-1.39,0.66,4.0
1758088373.54049,1758088370.93637,0.0,0.0,0.0,0.85944,-17.30333,-17.87628,9.31,-1.39,0.66,4.0
1758088373.54142,1758088370.94637,0.0,0.0,0.0,0.22918,-16.50119,-17.99088,9.22,-1.36,0.55,4.0
1758088373.54328,1758088370.95637,0.0,0.0,0.0,-0.17189,-14.66772,-18.44924,9.22,-1.36,0.55,4.0
1758088373.54578,1758088370.96637,0.0,0.0,0.0,-0.22918,-13.17803,-18.73572,9.2,-1.34,0.41,4.0
1758088373.5463,1758088370.97637,0.0,0.0,0.0,0.0,-11.86023,-18.62113,9.2,-1.34,0.41,4.0
1758088373.54834,1758088370.98637,0.0,0.0,0.0,0.17189,-10.19865,-18.16276,9.16,-1.35,0.44,4.0
1758088373.54928,1758088370.99637,0.0,0.0,0.0,0.74485,-8.47978,-17.13144,9.0,-1.4,0.3,4.0
1758088373.54977,1758088371.00637,0.0,0.0,0.0,1.14592,-7.50575,-16.272,9.0,-1.4,0.3,4.0
1758088373.55078,1758088371.01637,0.0,0.0,0.0,1.48969,-6.58902,-15.29797,8.78,-1.5,0.23,4.0
1758088373.55613,1758088371.02637,0.0,0.0,0.0,2.06265,-5.61499,-13.5218,8.78,-1.5,0.23,4.0
1758088373.57263,1758088371.03637,0.0,0.0,0.0,2.29183,-4.87014,-12.43318,8.56,-1.58,0.19,4.0
1758088373.58962,1758088371.04637,0.0,0.0,0.0,2.46372,-4.87014,-11.74564,8.56,-1.58,0.19,4.0
1758088373.59084,1758088371.05637,0.0,0.0,0.0,2.34913,-4.87014,-11.00079,8.28,-1.55,0.09,4.0
1758088373.60532,1758088371.06637,0.0,0.0,0.0,2.06265,-6.07335,-10.37054,8.28,-1.55,0.09,4.0
1758088373.61128,1758088371.07637,0.0,0.0,0.0,1.77617,-6.87549,-10.25595,7.99,-1.46,-0.04,4.0
1758088373.62784,1758088371.08637,0.0,0.0,0.0,1.3178,-7.62034,-10.02676,7.77,-1.35,-0.12,4.0
1758088373.6339,1758088371.09637,0.0,0.0,0.0,0.74485,-8.02141,-9.91217,7.77,-1.35,-0.12,4.0
1758088373.63609,1758088371.10637,0.0,0.0,0.0,-0.34377,-9.28192,-9.28192,7.61,-1.23,-0.18,4.0
1758088373.66563,1758088371.11637,0.0,0.0,0.0,-1.20321,-10.54242,-8.93814,7.61,-1.23,-0.18,4.0
1758088373.66685,1758088371.12637,0.0,0.0,0.0,-2.46372,-11.57375,-7.67763,7.67,-1.02,-0.07,4.0
1758088373.67148,1758088371.13637,0.0,0.0,0.0,-4.18259,-13.5791,-5.90147,7.67,-1.02,-0.07,4.0
1758088373.67718,1758088371.14637,0.0,0.0,0.0,-7.21927,-19.53786,-3.66693,8.65,-0.73,0.62,4.0
1758088373.69231,1758088371.15637,0.0,0.0,0.0,-9.96947,-24.80907,-1.94806,10.83,-0.36,1.71,4.0
1758088373.70955,1758088371.16637,0.0,0.0,0.0,-13.75099,-28.13223,-0.45837,10.83,-0.36,1.71,4.0
1758088373.71153,1758088371.17637,0.0,0.0,0.0,-18.33465,-29.56462,1.03132,13.78,0.43,2.7,4.0
1758088373.72633,1758088371.18637,0.0,0.0,0.0,-25.21014,-30.19488,2.40642,13.78,0.43,2.7,4.0
1758088373.72856,1758088371.19637,0.0,0.0,0.0,-28.70519,-28.70519,1.66158,14.0,1.31,2.19,4.0
1758088373.74598,1758088371.20637,0.0,0.0,0.0,-30.82513,-25.15285,-0.40107,14.0,1.31,2.19,4.0
1758088373.7965,1758088371.21637,0.0,0.0,0.0,-31.39809,-19.13679,-5.09932,12.1,1.12,0.99,4.0
1758088373.82263,1758088371.22637,0.0,0.0,0.0,-29.73651,-5.21392,-8.36518,11.9,0.41,0.77,4.0
1758088373.82384,1758088371.23637,0.0,0.0,0.0,-27.44468,4.52637,-10.65701,11.9,0.41,0.77,4.0
1758088373.82559,1758088371.24637,0.0,0.0,0.0,-24.80907,13.80828,-10.71431,14.02,-0.04,2.33,4.0
1758088373.82648,1758088371.25637,0.0,0.0,0.0,-21.14215,26.69983,-7.62034,14.02,-0.04,2.33,4.0
1758088373.8282,1758088371.26637,0.0,0.0,0.0,-18.90761,30.36677,-4.1253,17.42,0.25,2.34,4.0
1758088373.83109,1758088371.27637,0.0,0.0,0.0,-16.21471,29.9084,-0.34377,17.42,0.25,2.34,4.0
1758088373.83374,1758088371.28637,0.0,0.0,0.0,-12.49048,24.5226,3.03668,15.77,-0.13,1.63,4.0
1758088373.83531,1758088371.29637,0.0,0.0,0.0,-5.78687,15.06879,5.61499,15.77,-0.13,0.59,4.0
1758088373.83654,1758088371.30637,0.0,0.0,0.0,-3.20856,4.35448,5.90147,11.94,-1.12,0.59,4.0
1758088373.8564,1758088371.31637,0.0,0.0,0.0,-1.3751,3.03668,4.92744,10.92,-1.93,1.41,4.0
1758088373.86071,1758088371.32636,0.0,0.0,0.0,1.66158,10.48513,3.03668,10.92,-1.93,1.41,4.0
1758088373.88137,1758088371.33636,0.0,0.0,0.0,9.33921,21.6578,1.3751,12.32,-1.64,1.18,4.0
1758088373.97565,1758088371.34636,0.0,0.0,0.0,14.49583,24.12152,1.20321,12.32,-1.64,1.18,4.0
1758088373.97615,1758088371.35636,0.0,0.0,0.0,18.56383,21.88699,1.43239,11.93,-0.71,1.69,4.0
1758088374.00121,1758088371.36636,0.0,0.0,0.0,21.02755,15.98552,1.3751,11.93,-0.71,1.69,4.0
1758088374.00972,1758088371.37636,0.0,0.0,0.0,21.94428,6.07335,1.14592,10.73,-0.03,1.55,4.0
1758088374.03939,1758088371.38636,0.0,0.0,0.0,20.97026,1.14592,1.14592,9.97,0.23,1.03,4.0
1758088374.04068,1758088371.39636,0.0,0.0,0.0,18.9649,-2.00535,0.51566,9.97,0.23,1.03,4.0
1758088374.04145,1758088371.40636,0.0,0.0,0.0,16.10011,-3.38045,-0.0573,9.43,0.41,1.28,4.0
1758088374.13866,1758088371.41636,0.0,0.0,0.0,12.60507,-3.38045,-0.97403,9.43,0.41,1.28,4.0
1758088374.14357,1758088371.42636,0.0,0.0,0.0,10.71431,-2.34913,-2.34913,8.68,0.68,1.3,4.0
1758088374.14983,1758088371.43636,0.0,0.0,0.0,8.93814,-0.11459,-4.52637,8.68,0.68,1.3,4.0
1758088374.17529,1758088371.44636,0.0,0.0,0.0,7.21927,5.27121,-7.84952,8.77,0.85,1.21,4.0
1758088374.18109,1758088371.45636,0.0,0.0,0.0,6.47442,9.33921,-9.85487,8.97,0.98,0.93,4.0
1758088374.18683,1758088371.46636,0.0,0.0,0.0,5.78687,12.08941,-11.51645,8.97,0.98,0.93,4.0
1758088374.2154,1758088371.47636,0.0,0.0,0.0,5.78687,13.17803,-12.2613,8.81,0.8,0.76,4.0
1758088374.2232,1758088371.48636,0.0,0.0,0.0,5.90147,13.17803,-12.60507,8.81,0.8,0.76,4.0
1758088374.2257,1758088371.49636,0.0,0.0,0.0,6.07335,12.49048,-12.37589,8.85,0.39,0.54,4.0
1758088374.22981,1758088371.50636,0.0,0.0,0.0,6.47442,11.97482,-11.57375,8.85,0.39,0.54,4.0
1758088374.23072,1758088371.51636,0.0,0.0,0.0,6.70361,12.204,-10.54242,9.01,-0.01,0.38,4.0
1758088374.23167,1758088371.52636,0.0,0.0,0.0,6.70361,12.08941,-8.36518,9.15,-0.34,0.32,4.0
1758088374.235,1758088371.53636,0.0,0.0,0.0,6.70361,12.77696,-6.7609,9.15,-0.34,0.32,4.0
1758088374.23561,1758088371.54636,0.0,0.0,0.0,6.47442,13.86558,-4.81285,9.33,-0.45,0.3,4.0
1758088374.23808,1758088371.55636,0.0,0.0,0.0,5.95876,15.12609,-3.20856,9.33,-0.45,0.3,4.0
1758088374.24069,1758088371.56636,0.0,0.0,0.0,4.87014,22.97561,-0.51566,9.7,-0.29,0.14,4.0
1758088374.24307,1758088371.57636,0.0,0.0,0.0,4.64096,31.39809,1.43239,9.7,-0.29,0.14,4.0
1758088374.24573,1758088371.58636,0.0,0.0,0.0,4.1253,37.75792,3.26586,10.17,0.02,0.15,4.0
1758088374.2465,1758088371.59636,0.0,0.0,0.0,4.18259,37.35685,4.81285,10.17,0.02,0.15,4.0
1758088374.25638,1758088371.60636,0.0,0.0,0.0,3.83882,23.20479,4.92744,9.08,0.37,0.42,4.0
1758088374.25792,1758088371.61636,0.0,0.0,0.0,3.03668,11.00079,5.4431,7.82,0.62,-0.03,4.0
1758088374.26141,1758088371.62636,0.0,0.0,0.0,3.55234,5.21392,8.136,7.82,0.62,-0.03,4.0
1758088374.26366,1758088371.63636,0.0,0.0,0.0,2.11994,4.46907,9.62569,8.98,0.63,-0.31,4.0
1758088374.26652,1758088371.64636,0.0,0.0,0.0,-0.11459,2.00535,9.74028,8.98,0.63,-0.31,4.0
1758088374.26791,1758088371.65636,0.0,0.0,0.0,-3.20856,-1.08862,9.05273,8.52,0.74,-0.06,4.0
1758088374.26912,1758088371.66636,0.0,0.0,0.0,-7.16197,-5.15662,8.136,8.52,0.74,-0.06,4.0
1758088374.2697,1758088371.67636,0.0,0.0,0.0,-12.71966,-13.5791,7.04738,8.11,0.91,0.17,4.0
1758088374.27103,1758088371.68636,0.0,0.0,0.0,-15.87093,-20.22541,6.8182,7.73,0.97,-0.36,4.0
1758088374.27162,1758088371.69636,0.0,0.0,0.0,-18.50654,-25.43933,6.8182,7.73,0.97,-0.36,4.0
1758088374.27411,1758088371.70636,0.0,0.0,0.0,-20.74107,-28.13223,6.18794,8.0,0.86,-0.38,4.0
1758088374.27585,1758088371.71636,0.0,0.0,0.0,-22.11617,-31.28349,6.07335,8.0,0.86,-0.38,4.0
1758088374.27747,1758088371.72636,0.0,0.0,0.0,-22.63183,-31.16891,5.72958,8.54,0.55,-0.24,4.0
1758088374.27928,1758088371.73636,0.0,0.0,0.0,-22.63183,-28.93437,5.50039,8.54,0.55,-0.24,4.0
1758088374.2801,1758088371.74636,0.0,0.0,0.0,-22.00158,-25.61122,5.84417,9.2,0.18,0.16,4.0
1758088374.29853,1758088371.75636,0.0,0.0,0.0,-20.85567,-20.62648,6.70361,9.21,-0.09,0.16,4.0
1758088374.30082,1758088371.76636,0.0,0.0,0.0,-20.22541,-17.18874,7.79223,9.21,-0.09,0.16,4.0
1758088374.32201,1758088371.77636,0.0,0.0,0.0,-19.19409,-14.9542,9.05273,8.93,-0.29,0.12,4.0
1758088374.34046,1758088371.78636,0.0,0.0,0.0,-18.27736,-14.15206,10.54242,8.93,-0.29,0.12,4.0
1758088374.34086,1758088371.79636,0.0,0.0,0.0,-17.13144,-19.70975,11.74564,8.33,-0.38,-0.19,4.0
1758088374.34364,1758088371.80636,0.0,0.0,0.0,-16.50119,-22.86102,12.204,8.33,-0.38,-0.19,4.0
1758088374.35868,1758088371.81636,0.0,0.0,0.0,-15.69904,-22.86102,12.83425,8.21,-0.31,-0.61,4.0
1758088374.36118,1758088371.82636,0.0,0.0,0.0,-15.0115,-20.05352,13.98017,8.21,-0.31,-0.61,4.0
1758088374.37671,1758088371.83636,0.0,0.0,0.0,-14.66772,-14.15206,15.24068,8.8,-0.1,-0.91,4.0
1758088374.37845,1758088371.84636,0.0,0.0,0.0,-14.78231,-10.94349,15.87093,8.71,0.18,-0.84,4.0
1758088374.39345,1758088371.85636,0.0,0.0,0.0,-14.9542,-8.65166,16.04282,8.71,0.18,-0.84,4.0
1758088374.40969,1758088371.86636,0.0,0.0,0.0,-15.64175,-7.33386,15.64175,8.36,0.39,-0.58,4.0
1758088374.41104,1758088371.87636,0.0,0.0,0.0,-16.10011,-7.44845,14.9542,8.36,0.39,-0.58,4.0
1758088374.42554,1758088371.88636,0.0,0.0,0.0,-16.73037,-8.47978,13.75099,7.91,0.6,-0.7,4.0
1758088374.42666,1758088371.89636,0.0,0.0,0.0,-16.95955,-9.68299,12.2613,7.91,0.6,-0.7,4.0
1758088374.46166,1758088371.90636,0.0,0.0,0.0,-17.24603,-11.86023,9.96947,7.47,0.75,-0.76,4.0
1758088374.46455,1758088371.91636,0.0,0.0,0.0,-17.13144,-11.80293,8.76626,7.24,0.88,-0.66,4.0
1758088374.46595,1758088371.92636,0.0,0.0,0.0,-16.95955,-9.11003,7.16197,7.24,0.88,-0.66,4.0
1758088374.47146,1758088371.93636,0.0,0.0,0.0,-15.69904,-7.62034,5.50039,8.03,0.8,0.45,4.0
1758088374.48637,1758088371.94636,0.0,0.0,0.0,-14.72501,-11.34457,-0.22918,8.03,0.8,0.45,4.0
1758088374.49159,1758088371.95636,0.0,0.0,0.0,-12.83425,-15.12609,-5.09932,10.14,0.16,2.39,4.0
1758088374.50667,1758088371.96636,0.0,0.0,0.0,-9.05273,-18.73572,-9.85487,10.14,0.16,2.39,4.0
1758088374.50853,1758088371.97636,0.0,0.0,0.0,-3.89611,-29.33544,-12.60507,13.55,-1.18,3.77,4.0
1758088374.52584,1758088371.98636,0.0,0.0,0.0,4.29718,-48.75871,-12.37589,13.57,-2.83,3.91,4.0
1758088374.52973,1758088371.99636,0.0,0.0,0.0,10.48513,-55.86338,-10.48513,13.57,-2.83,3.91,4.0
1758088374.5469,1758088372.00636,0.0,0.0,0.0,16.21471,-53.11319,-7.16197,13.2,-3.99,1.58,4.0
1758088374.57669,1758088372.01636,0.0,0.0,0.0,21.48592,-41.65404,-3.49504,13.2,-3.99,1.58,4.0
1758088374.60632,1758088372.02636,0.0,0.0,0.0,29.8511,-22.86102,3.09397,14.56,-4.3,2.13,4.0
1758088374.64107,1758088372.03636,0.0,0.0,0.0,34.09099,-14.03747,6.41713,14.56,-4.3,2.13,4.0
1758088374.64361,1758088372.04636,0.0,0.0,0.0,37.47144,-9.96947,9.05273,16.31,-4.32,1.96,4.0
1758088374.64975,1758088372.05636,0.0,0.0,0.0,35.12231,-14.20935,8.59437,16.31,-4.32,1.96,4.0
1758088374.65081,1758088372.06636,0.0,0.0,0.0,32.6013,-3.66693,7.44845,15.75,-3.15,0.56,4.0
1758088374.65159,1758088372.07636,0.0,0.0,0.0,31.85646,15.12609,8.59437,16.02,-1.51,-0.91,4.0
1758088374.65577,1758088372.08636,0.0,0.0,0.0,30.99702,30.93972,9.05273,16.02,-1.51,-0.91,4.0
1758088374.65671,1758088372.09636,0.0,0.0,0.0,27.61657,44.17505,9.4538,14.31,-0.77,0.63,4.0
1758088374.66177,1758088372.10636,0.0,0.0,0.0,23.31938,46.81066,8.59437,14.31,-0.77,0.63,4.0
1758088374.66327,1758088372.11636,0.0,0.0,0.0,18.90761,48.07116,7.39116,13.48,-0.88,1.29,4.0
1758088374.66594,1758088372.12636,0.0,0.0,0.0,14.72501,48.24305,5.90147,13.48,-0.88,1.29,4.0
1758088374.66753,1758088372.13636,0.0,0.0,0.0,9.05273,48.64412,3.89611,13.76,-1.25,1.29,4.0
1758088374.68603,1758088372.14636,0.0,0.0,0.0,6.18794,48.8733,2.86479,12.74,-1.44,0.92,4.0
1758088374.6953,1758088372.15636,0.0,0.0,0.0,4.1253,50.1911,2.00535,12.74,-1.44,0.92,4.0
1758088374.7008,1758088372.16636,0.0,0.0,0.0,2.86479,51.45161,1.71887,11.46,-1.52,0.92,4.0
1758088375.21547,1758088372.17636,0.0,0.0,0.0,3.03668,52.9986,2.97938,11.46,-1.52,0.92,4.0
1758088375.22362,1758088372.18636,0.0,0.0,0.0,3.32316,50.3057,3.95341,10.25,-1.6,1.08,4.0
1758088375.22532,1758088372.19636,0.0,0.0,0.0,3.89611,44.57612,5.15662,10.25,-1.6,1.08,4.0
1758088375.22896,1758088372.20636,0.0,0.0,0.0,4.81285,37.98711,6.24524,8.73,-1.67,1.0,4.0
1758088375.23035,1758088372.21636,0.0,0.0,0.0,6.99009,29.33544,8.42248,8.04,-1.76,0.8,4.0
1758088375.23374,1758088372.22636,0.0,0.0,0.0,8.47978,25.89769,9.74028,8.04,-1.76,0.8,4.0
1758088375.23432,1758088372.23636,0.0,0.0,0.0,10.08406,22.34536,10.59972,7.63,-1.8,0.84,4.0
1758088375.23629,1758088372.24636,0.0,0.0,0.0,11.74564,17.6471,10.94349,7.63,-1.8,0.84,4.0
1758088375.23948,1758088372.25636,0.0,0.0,0.0,13.80828,14.03747,10.59972,7.05,-1.74,0.91,4.0
1758088375.24013,1758088372.26636,0.0,0.0,0.0,14.72501,14.43854,10.19865,7.05,-1.74,0.91,4.0
1758088375.24363,1758088372.27636,0.0,0.0,0.0,14.09476,22.86102,8.36518,7.61,-1.53,0.9,4.0
1758088375.24441,1758088372.28636,0.0,0.0,0.0,13.98017,36.84119,4.69825,7.61,-1.53,0.9,4.0
1758088375.24627,1758088372.29636,0.0,0.0,0.0,14.72501,35.3515,4.0107,8.17,-1.19,0.94,4.0
1758088375.24744,1758088372.30636,0.0,0.0,0.0,14.9542,27.78845,3.66693,6.65,-1.05,1.46,4.0
1758088375.24897,1758088372.31636,0.0,0.0,0.0,14.20935,15.46986,3.26586,6.65,-1.05,1.46,4.0
1758088375.25148,1758088372.32636,0.0,0.0,0.0,13.06344,8.30789,1.20321,6.66,-1.04,0.6,4.0
1758088375.25401,1758088372.33636,0.0,0.0,0.0,12.49048,9.96947,-0.11459,6.66,-1.04,0.6,4.0
1758088375.25467,1758088372.34636,0.0,0.0,0.0,12.49048,11.63104,-0.80214,8.22,-1.07,-0.15,4.0
1758088375.25601,1758088372.35636,0.0,0.0,0.0,12.71966,10.8862,-1.3178,8.22,-1.07,-0.15,4.0
1758088375.25653,1758088372.36636,0.0,0.0,0.0,13.69369,7.62034,-1.60428,8.61,-1.27,0.65,4.0
1758088375.26017,1758088372.37636,0.0,0.0,0.0,14.03747,5.21392,-1.48969,9.05,-1.45,0.64,4.0
1758088375.26078,1758088372.38636,0.0,0.0,0.0,14.20935,3.03668,-1.20321,9.05,-1.45,0.64,4.0
1758088375.2616,1758088372.39636,0.0,0.0,0.0,14.20935,-0.11459,-0.97403,9.31,-1.61,0.65,4.0
1758088375.26505,1758088372.40636,0.0,0.0,0.0,13.98017,-3.38045,-1.3178,9.31,-1.61,0.65,4.0
1758088375.26582,1758088372.41636,0.0,0.0,0.0,13.80828,-5.55769,-1.3178,9.33,-1.64,0.38,4.0
1758088375.27124,1758088372.42636,0.0,0.0,0.0,13.40721,-7.10468,-1.94806,9.33,-1.64,0.38,4.0
1758088375.27162,1758088372.43636,0.0,0.0,0.0,13.46451,-11.00079,-1.83346,9.38,-1.57,0.54,4.0
1758088375.27517,1758088372.44636,0.0,0.0,0.0,12.71966,-15.12609,-2.40642,9.55,-1.39,0.65,4.0
1758088375.27598,1758088372.45636,0.0,0.0,0.0,12.08941,-16.21471,-2.97938,9.55,-1.39,0.65,4.0
1758088375.28026,1758088372.46636,0.0,0.0,0.0,11.51645,-15.92823,-3.66693,10.08,-1.17,0.74,4.0
1758088375.28085,1758088372.47636,0.0,0.0,0.0,10.8862,-13.00614,-4.69825,10.08,-1.17,0.74,4.0
1758088375.2845,1758088372.48636,0.0,0.0,0.0,10.19865,-11.51645,-5.61499,10.18,-1.0,0.79,4.0
1758088375.28588,1758088372.49636,0.0,0.0,0.0,9.68299,-10.48513,-6.53172,10.18,-1.0,0.79,4.0
1758088375.28798,1758088372.50636,0.0,0.0,0.0,8.99544,-9.96947,-7.62034,9.77,-0.89,0.94,4.0
1758088375.29021,1758088372.51636,0.0,0.0,0.0,8.0787,-10.31324,-8.70896,9.77,-0.89,0.94,4.0
1758088375.29404,1758088372.52636,0.0,0.0,0.0,7.44845,-10.94349,-9.5684,9.66,-0.92,0.9,4.0
1758088375.29442,1758088372.53636,0.0,0.0,0.0,7.16197,-11.34457,-10.54242,9.68,-1.13,0.87,4.0
1758088375.29602,1758088372.54636,0.0,0.0,0.0,6.7609,-11.63104,-11.28727,9.68,-1.13,0.87,4.0
1758088375.2979,1758088372.55636,0.0,0.0,0.0,5.95876,-12.2613,-11.91752,9.64,-1.37,0.85,4.0
1758088375.30127,1758088372.56636,0.0,0.0,0.0,5.50039,-13.06344,-12.2613,9.64,-1.37,0.85,4.0
1758088375.30295,1758088372.57636,0.0,0.0,0.0,4.81285,-13.34992,-12.43318,9.45,-1.47,0.83,4.0
1758088375.30619,1758088372.58636,0.0,0.0,0.0,4.0107,-13.17803,-12.2613,9.45,-1.47,0.83,4.0
1758088375.30841,1758088372.59636,0.0,0.0,0.0,2.92208,-12.14671,-11.91752,9.45,-1.48,0.77,4.0
1758088375.31037,1758088372.60636,0.0,0.0,0.0,2.00535,-11.63104,-11.51645,9.35,-1.4,0.78,4.0
1758088375.31627,1758088372.61636,0.0,0.0,0.0,1.3178,-11.22997,-11.45916,9.35,-1.4,0.78,4.0
1758088375.31682,1758088372.62636,0.0,0.0,0.0,0.45837,-11.17268,-10.8862,9.09,-1.29,0.76,4.0
1758088375.31813,1758088372.63636,0.0,0.0,0.0,-0.74485,-11.57375,-10.37054,9.09,-1.29,0.76,4.0
1758088375.32043,1758088372.64636,0.0,0.0,0.0,-1.43239,-11.28727,-10.08406,8.83,-1.28,0.61,4.0
1758088375.32162,1758088372.65636,0.0,0.0,0.0,-1.94806,-11.34457,-10.02676,8.83,-1.28,0.61,4.0
1758088375.32621,1758088372.66636,0.0,0.0,0.0,-2.6929,-11.22997,-10.08406,8.57,-1.31,0.39,4.0
1758088375.3315,1758088372.67636,0.0,0.0,0.0,-2.97938,-11.11538,-10.19865,8.44,-1.37,0.26,4.0
1758088375.33387,1758088372.68636,0.0,0.0,0.0,-3.38045,-11.17268,-10.48513,8.44,-1.37,0.26,4.0
1758088375.33445,1758088372.69636,0.0,0.0,0.0,-3.72423,-11.00079,-10.94349,8.35,-1.41,0.11,4.0
1758088375.33554,1758088372.70636,0.0,0.0,0.0,-4.64096,-11.28727,-11.34457,8.35,-1.41,0.11,4.0
1758088375.33629,1758088372.71636,0.0,0.0,0.0,-5.72958,-12.77696,-11.34457,8.2,-1.36,0.05,4.0
1758088375.33821,1758088372.72636,0.0,0.0,0.0,-7.04738,-14.49583,-11.34457,8.2,-1.36,0.05,4.0
1758088375.33897,1758088372.73636,0.0,0.0,0.0,-8.59437,-15.29797,-11.11538,7.96,-1.26,-0.1,4.0
1758088375.34402,1758088372.74636,0.0,0.0,0.0,-11.11538,-14.66772,-10.19865,8.0,-1.26,-0.23,4.0
1758088375.34644,1758088372.75636,0.0,0.0,0.0,-12.89155,-14.43854,-9.39651,8.0,-1.22,-0.23,4.0
1758088375.3475,1758088372.76636,0.0,0.0,0.0,-14.78231,-15.24068,-8.65166,7.73,-1.24,-0.13,4.0
1758088375.34811,1758088372.77636,0.0,0.0,0.0,-16.73037,-16.272,-7.84952,7.73,-1.24,-0.13,4.0
1758088375.34938,1758088372.78636,0.0,0.0,0.0,-19.42327,-18.44924,-5.95876,7.76,-1.19,0.2,4.0
1758088375.35001,1758088372.79636,0.0,0.0,0.0,-20.74107,-20.97026,-4.46907,7.76,-1.19,0.2,4.0
1758088375.35128,1758088372.80636,0.0,0.0,0.0,-21.7151,-23.54857,-2.06265,8.72,-0.83,1.08,4.0
1758088375.35187,1758088372.81636,0.0,0.0,0.0,-23.20479,-23.89234,0.0,8.72,-0.83,1.08,4.0
1758088375.36988,1758088372.82636,0.0,0.0,0.0,-25.89769,-21.88699,2.86479,10.95,-0.27,2.31,4.0
1758088375.37078,1758088372.83636,0.0,0.0,0.0,-28.70519,-29.33544,3.83882,12.44,0.56,3.28,4.0
1758088375.38554,1758088372.84636,0.0,0.0,0.0,-33.11696,-41.42485,1.83346,12.44,0.56,3.28,4.0
1758088375.38839,1758088372.85636,0.0,0.0,0.0,-36.32552,-47.95657,-0.68755,12.33,1.39,2.22,4.0
1758088375.4058,1758088372.86636,0.0,0.0,0.0,-38.78925,-36.84119,-4.69825,12.33,1.39,2.22,4.0
1758088375.40704,1758088372.87636,0.0,0.0,0.0,-39.4195,-21.6578,-7.96411,13.81,1.31,1.11,4.0
1758088375.42284,1758088372.88636,0.0,0.0,0.0,-40.33623,-7.50575,-10.65701,13.81,1.31,1.11,4.0
1758088375.43964,1758088372.89636,0.0,0.0,0.0,-41.65404,10.37054,-12.204,14.08,1.01,1.67,4.0
1758088375.44101,1758088372.90636,0.0,0.0,0.0,-42.51347,20.74107,-11.57375,15.61,1.25,2.24,4.0
1758088375.45574,1758088372.91636,0.0,0.0,0.0,-43.88857,28.76248,-9.96947,15.61,1.25,2.24,4.0
1758088375.4568,1758088372.92636,0.0,0.0,0.0,-44.57612,34.14828,-8.47978,16.73,1.48,1.32,4.0
1758088375.4744,1758088372.93636,0.0,0.0,0.0,-41.48215,32.08564,-7.16197,16.73,1.48,1.32,4.0
1758088375.47614,1758088372.94636,0.0,0.0,0.0,-39.99245,19.99623,-8.136,14.19,0.29,0.77,4.0
1758088375.49339,1758088372.95636,0.0,0.0,0.0,-34.95043,2.7502,-8.65166,14.19,0.29,0.77,4.0
1758088375.50981,1758088372.96636,0.0,0.0,0.0,-31.11161,-1.3178,-8.47978,11.07,-0.95,0.57,4.0
1758088375.51161,1758088372.97636,0.0,0.0,0.0,-24.23611,20.79837,-8.42248,13.04,-1.52,0.15,4.0
1758088375.52769,1758088372.98636,0.0,0.0,0.0,-19.82434,32.83048,-7.21927,13.04,-1.52,0.15,4.0
1758088375.53531,1758088372.99636,0.0,0.0,0.0,-15.46986,33.34615,-5.78687,11.92,-1.18,1.89,4.0
1758088375.53577,1758088373.00636,0.0,0.0,0.0,-12.54778,25.8404,-4.64096,11.92,-1.18,1.89,4.0
1758088375.55161,1758088373.01636,0.0,0.0,0.0,-10.54242,9.28192,-2.92208,10.26,-0.36,1.78,4.0
1758088375.57104,1758088373.02636,0.0,0.0,0.0,-10.19865,1.48969,-2.63561,10.26,-0.36,1.78,4.0
1758088375.57223,1758088373.03636,0.0,0.0,0.0,-10.48513,-3.49504,-2.57831,9.86,0.11,0.91,4.0
1758088375.57631,1758088373.04636,0.0,0.0,0.0,-11.28727,-5.50039,-2.86479,9.86,0.11,0.91,4.0
1758088375.59188,1758088373.05636,0.0,0.0,0.0,-14.09476,-3.09397,-4.18259,9.6,0.32,0.99,4.0
1758088375.6096,1758088373.06636,0.0,0.0,0.0,-16.10011,-2.57831,-4.92744,9.21,0.65,1.6,4.0
1758088375.61216,1758088373.07636,0.0,0.0,0.0,-18.22006,-2.06265,-5.95876,9.21,0.65,1.6,4.0
1758088375.62684,1758088373.08636,0.0,0.0,0.0,-20.3973,-0.22918,-7.04738,9.08,0.84,1.52,4.0
1758088375.6281,1758088373.09636,0.0,0.0,0.0,-21.94428,8.42248,-8.42248,9.08,0.84,1.52,4.0
1758088375.64291,1758088373.10636,0.0,0.0,0.0,-22.34536,13.23533,-8.76626,9.39,0.82,1.27,4.0
1758088375.64624,1758088373.11636,0.0,0.0,0.0,-21.88699,13.5218,-8.93814,9.39,0.82,1.27,4.0
1758088375.66588,1758088373.12636,0.0,0.0,0.0,-19.99623,4.29718,-9.4538,8.49,0.51,1.42,4.0
1758088375.66678,1758088373.13636,0.0,0.0,0.0,-17.93358,1.03132,-10.37054,8.31,0.15,1.11,4.0
1758088375.68588,1758088373.14636,0.0,0.0,0.0,-15.12609,1.3751,-10.19865,8.31,0.15,1.11,4.0
1758088375.68682,1758088373.15636,0.0,0.0,0.0,-11.91752,4.35448,-9.68299,9.38,-0.28,0.87,4.0
1758088375.70592,1758088373.16636,0.0,0.0,0.0,-6.41713,7.44845,-7.96411,9.38,-0.28,0.87,4.0
1758088375.70685,1758088373.17636,0.0,0.0,0.0,-2.34913,7.50575,-5.95876,9.63,-0.76,1.27,4.0
1758088375.72166,1758088373.18636,0.0,0.0,0.0,2.00535,7.44845,-3.72423,9.63,-0.76,1.27,4.0
1758088375.7377,1758088373.19636,0.0,0.0,0.0,5.95876,8.59437,-1.77617,9.7,-1.2,1.04,4.0
1758088375.73886,1758088373.20636,0.0,0.0,0.0,10.59972,11.00079,0.0573,9.8,-1.28,0.88,4.0
1758088375.7559,1758088373.21636,0.0,0.0,0.0,12.77696,12.89155,0.80214,9.8,-1.28,0.88,4.0
1758088375.75708,1758088373.22636,0.0,0.0,0.0,14.20935,13.98017,1.14592,9.82,-0.85,0.84,4.0
1758088375.77273,1758088373.23636,0.0,0.0,0.0,15.41257,15.06879,1.71887,9.82,-0.85,0.84,4.0
1758088375.77682,1758088373.24636,0.0,0.0,0.0,15.92823,16.55848,2.00535,10.0,-0.19,0.6,4.0
1758088375.79276,1758088373.25636,0.0,0.0,0.0,16.04282,16.95955,2.11994,10.0,-0.19,0.6,4.0
1758088375.81046,1758088373.26636,0.0,0.0,0.0,15.69904,16.95955,2.06265,10.14,0.33,0.36,4.0
1758088375.81165,1758088373.27636,0.0,0.0,0.0,15.24068,16.21471,2.00535,10.14,0.33,0.36,4.0
1758088375.83066,1758088373.28636,0.0,0.0,0.0,14.15206,12.2613,1.83346,10.03,0.59,0.1,4.0
1758088375.83167,1758088373.29636,0.0,0.0,0.0,13.12073,8.65166,1.71887,9.71,0.62,0.0,4.0
1758088375.91175,1758088373.30636,0.0,0.0,0.0,12.54778,5.84417,1.94806,9.71,0.62,0.0,4.0
1758088375.92015,1758088373.31636,0.0,0.0,0.0,10.65701,6.07335,1.3178,9.64,0.36,0.0,4.0
1758088375.92076,1758088373.32636,0.0,0.0,0.0,10.65701,15.0115,2.6929,9.64,0.36,0.0,4.0
1758088375.92588,1758088373.33636,0.0,0.0,0.0,10.54242,23.0902,3.89611,10.31,0.02,0.14,4.0
1758088375.92708,1758088373.34636,0.0,0.0,0.0,9.96947,26.64254,5.09932,10.31,0.02,0.14,4.0
1758088375.92895,1758088373.35636,0.0,0.0,0.0,9.33921,22.86102,6.53172,9.33,-0.2,0.9,4.0
1758088375.92934,1758088373.36636,0.0,0.0,0.0,9.22462,17.6471,7.39116,8.53,-0.25,0.49,4.0
1758088375.93009,1758088373.37636,0.0,0.0,0.0,9.39651,11.86023,8.30789,8.53,-0.25,0.49,4.0
1758088375.93141,1758088373.38636,0.0,0.0,0.0,9.91217,6.18794,9.39651,8.27,-0.16,-0.02,4.0
1758088375.93183,1758088373.39636,0.0,0.0,0.0,11.17268,-0.45837,10.94349,8.27,-0.16,-0.02,4.0
1758088375.94872,1758088373.40636,0.0,0.0,0.0,12.08941,-4.81285,11.91752,8.35,-0.04,0.02,4.0
1758088375.94988,1758088373.41636,0.0,0.0,0.0,12.71966,-8.47978,12.43318,8.35,-0.04,0.02,4.0
1758088375.9656,1758088373.42636,0.0,0.0,0.0,13.34992,-12.2613,12.71966,8.53,0.0,0.21,4.0
1758088375.96667,1758088373.43636,0.0,0.0,0.0,13.86558,-17.81899,12.60507,8.6,0.05,0.25,4.0
1758088375.98168,1758088373.44636,0.0,0.0,0.0,14.15206,-20.74107,12.204,8.6,0.05,0.25,4.0
1758088375.99974,1758088373.45636,0.0,0.0,0.0,14.43854,-22.28806,11.57375,8.76,0.1,0.25,4.0
1758088376.00153,1758088373.46636,0.0,0.0,0.0,14.9542,-23.54857,11.00079,8.76,0.1,0.25,4.0
1758088376.01691,1758088373.47636,0.0,0.0,0.0,15.35527,-24.23611,9.68299,8.9,0.14,0.21,4.0
1758088376.0179,1758088373.48636,0.0,0.0,0.0,15.69904,-24.00693,8.99544,8.9,0.14,0.21,4.0
1758088376.03386,1758088373.49636,0.0,0.0,0.0,16.3293,-22.91831,8.30789,9.18,0.15,0.23,4.0
1758088376.04992,1758088373.50636,0.0,0.0,0.0,17.47521,-19.99623,7.79223,9.18,0.15,0.23,4.0
1758088376.05111,1758088373.51636,0.0,0.0,0.0,18.10547,-17.47521,7.79223,9.41,0.1,0.11,4.0
1758088376.06594,1758088373.52636,0.0,0.0,0.0,18.62113,-14.78231,8.0787,9.52,0.04,0.06,4.0
1758088376.06717,1758088373.53636,0.0,0.0,0.0,19.19409,-12.60507,8.47978,9.52,0.04,0.06,4.0
1758088376.08187,1758088373.54636,0.0,0.0,0.0,20.16812,-11.11538,8.99544,9.37,-0.03,-0.08,4.0
1758088376.1059,1758088373.55636,0.0,0.0,0.0,20.45459,-11.97482,9.33921,9.37,-0.03,-0.08,4.0
1758088376.13518,1758088373.56636,0.0,0.0,0.0,21.02755,-12.54778,9.68299,9.12,0.01,-0.28,4.0
1758088376.13732,1758088373.57636,0.0,0.0,0.0,20.85567,-11.17268,9.4538,9.12,0.01,-0.28,4.0
1758088376.14527,1758088373.58636,0.0,0.0,0.0,21.02755,-6.58902,9.62569,9.26,0.11,-0.53,4.0
1758088376.14662,1758088373.59636,0.0,0.0,0.0,21.14215,-4.23989,9.96947,9.39,0.22,-0.43,4.0
1758088376.15348,1758088373.60636,0.0,0.0,0.0,21.42862,-3.38045,10.65701,9.39,0.22,-0.43,4.0
1758088376.15396,1758088373.61636,0.0,0.0,0.0,21.7151,-3.83882,11.22997,9.09,0.23,-0.58,4.0
1758088376.15664,1758088373.62636,0.0,0.0,0.0,22.23076,-4.29718,11.45916,9.09,0.23,-0.58,4.0
1758088376.17596,1758088373.63636,0.0,0.0,0.0,22.28806,-4.69825,11.45916,8.99,0.24,-0.87,4.0
1758088376.18295,1758088373.64636,0.0,0.0,0.0,22.23076,-3.89611,11.00079,8.99,0.24,-0.87,4.0
1758088376.20996,1758088373.65636,0.0,0.0,0.0,22.11617,-2.86479,10.65701,9.05,0.31,-0.88,4.0
1758088376.21422,1758088373.66636,0.0,0.0,0.0,22.63183,1.20321,10.31324,9.14,0.31,-0.82,4.0
1758088376.21528,1758088373.67636,0.0,0.0,0.0,23.0902,3.66693,10.08406,9.14,0.31,-0.82,4.0
1758088376.21697,1758088373.68636,0.0,0.0,0.0,23.54857,4.1253,10.02676,8.74,0.28,-0.87,4.0
1758088376.23505,1758088373.69636,0.0,0.0,0.0,23.89234,3.09397,9.4538,8.74,0.28,-0.87,4.0
1758088376.23592,1758088373.70636,0.0,0.0,0.0,24.12152,-1.14592,9.11003,8.24,0.23,-1.0,4.0
1758088376.25203,1758088373.71636,0.0,0.0,0.0,24.29341,-4.29718,8.93814,8.24,0.23,-1.0,4.0
1758088376.29568,1758088373.72636,0.0,0.0,0.0,24.86637,-7.10468,8.88085,8.04,0.22,-1.34,4.0
1758088376.29846,1758088373.73636,0.0,0.0,0.0,25.72581,-11.17268,8.70896,8.04,0.22,-1.34,4.0
1758088376.30015,1758088373.74636,0.0,0.0,0.0,26.75713,-14.38124,8.42248,7.99,0.22,-1.32,4.0
1758088376.3011,1758088373.75636,0.0,0.0,0.0,27.96034,-17.87628,7.33386,8.2,0.1,-0.74,4.0
1758088376.30172,1758088373.76636,0.0,0.0,0.0,29.62192,-23.31938,5.55769,8.2,0.1,-0.74,4.0
1758088376.31802,1758088373.77636,0.0,0.0,0.0,32.37212,-31.56997,1.3751,9.38,-0.15,0.49,4.0
1758088376.32137,1758088373.78636,0.0,0.0,0.0,35.2942,-36.03905,-1.3178,9.38,-0.15,0.49,4.0
1758088376.33678,1758088373.79636,0.0,0.0,0.0,38.56006,-41.25296,-4.23989,11.7,-0.82,2.35,4.0
1758088376.3387,1758088373.80636,0.0,0.0,0.0,41.59674,-45.89392,-6.47442,11.7,-0.82,2.35,4.0
1758088376.35371,1758088373.81636,0.0,0.0,0.0,45.03448,-46.2377,-6.24524,13.39,-1.82,3.63,4.0
1758088376.37143,1758088373.82636,0.0,0.0,0.0,46.81066,-40.7373,-3.72423,13.71,-2.48,2.69,4.0
1758088376.37337,1758088373.83636,0.0,0.0,0.0,48.24305,-31.62727,0.0,13.71,-2.48,2.69,4.0
1758088376.38876,1758088373.84636,0.0,0.0,0.0,48.8733,-21.60051,3.89611,12.87,-2.22,2.38,4.0
1758088376.38998,1758088373.85636,0.0,0.0,0.0,49.67545,-9.33921,7.04738,12.87,-2.22,2.38,4.0
1758088376.4066,1758088373.86636,0.0,0.0,0.0,50.64947,-6.07335,5.72958,13.58,-1.75,3.23,4.0
1758088376.40757,1758088373.87636,0.0,0.0,0.0,51.39432,-19.53786,3.83882,13.58,-1.75,3.23,4.0
1758088376.42284,1758088373.88636,0.0,0.0,0.0,53.62885,-42.68536,0.11459,14.23,-1.98,2.75,4.0
1758088376.44062,1758088373.89636,0.0,0.0,0.0,52.42564,-51.79538,-4.0107,16.31,-2.47,-0.05,4.0
1758088376.44154,1758088373.90636,0.0,0.0,0.0,52.54023,-36.89849,-5.15662,16.31,-2.47,-0.05,4.0
1758088376.45701,1758088373.91636,0.0,0.0,0.0,52.42564,-20.3973,-4.29718,17.07,-1.89,-0.57,4.0
1758088376.45831,1758088373.92636,0.0,0.0,0.0,53.74345,3.38045,0.68755,17.07,-1.89,-0.57,4.0
1758088376.47462,1758088373.93636,0.0,0.0,0.0,54.71747,13.69369,4.23989,14.1,-0.97,0.43,4.0
1758088376.48996,1758088373.94636,0.0,0.0,0.0,54.48829,18.50654,7.73493,14.1,-0.97,0.43,4.0
1758088376.49099,1758088373.95636,0.0,0.0,0.0,53.28508,20.51189,10.48513,11.76,-0.8,0.5,4.0
1758088376.5059,1758088373.96636,0.0,0.0,0.0,49.50356,23.72045,11.74564,11.76,-0.8,0.33,4.0
1758088376.50808,1758088373.97636,0.0,0.0,0.0,46.52417,27.33009,10.65701,11.43,-0.92,0.33,4.0
1758088376.52387,1758088373.98636,0.0,0.0,0.0,43.88857,30.59595,8.99544,11.28,-0.86,0.8,4.0
1758088376.52635,1758088373.99636,0.0,0.0,0.0,42.05511,36.55471,6.87549,11.28,-0.86,0.8,4.0
1758088376.54356,1758088374.00636,0.0,0.0,0.0,41.13837,43.65939,4.46907,10.83,-0.8,1.15,4.0
1758088376.55992,1758088374.01636,0.0,0.0,0.0,41.36755,44.23235,3.72423,10.83,-0.8,1.15,4.0
1758088376.56132,1758088374.02636,0.0,0.0,0.0,41.76862,42.05511,3.49504,9.48,-0.83,1.3,4.0
1758088376.57578,1758088374.03636,0.0,0.0,0.0,42.28429,39.07573,3.38045,9.48,-0.83,1.3,4.0
1758088376.58033,1758088374.04636,0.0,0.0,0.0,43.25832,33.40344,3.95341,8.6,-0.93,0.91,4.0
1758088376.59577,1758088374.05636,0.0,0.0,0.0,44.46153,29.67921,4.98473,8.15,-1.09,0.74,4.0
1758088376.66418,1758088374.06636,0.0,0.0,0.0,45.77933,26.12688,5.95876,8.15,-1.09,0.74,4.0
1758088376.6672,1758088374.07636,0.0,0.0,0.0,47.44091,23.60586,7.10468,8.11,-1.42,0.65,4.0
1758088376.67453,1758088374.08636,0.0,0.0,0.0,49.67545,21.6578,8.136,8.11,-1.42,0.65,4.0
1758088376.6755,1758088374.09636,0.0,0.0,0.0,50.59217,21.14215,8.47978,8.25,-1.6,0.72,4.0
1758088376.67753,1758088374.10636,0.0,0.0,0.0,50.87865,21.31403,8.36518,8.25,-1.6,0.72,4.0
1758088376.67785,1758088374.11636,0.0,0.0,0.0,50.82136,21.37133,7.50575,8.32,-1.58,0.57,4.0
1758088376.67979,1758088374.12636,0.0,0.0,0.0,50.2484,22.40265,6.18794,8.45,-1.24,0.29,4.0
1758088376.68149,1758088374.13636,0.0,0.0,0.0,49.61814,24.80907,4.98473,8.45,-1.24,0.29,4.0
1758088376.682,1758088374.14636,0.0,0.0,0.0,48.35764,29.8511,3.09397,9.02,-0.84,0.05,4.0
1758088376.69787,1758088374.15636,0.0,0.0,0.0,46.75336,34.49206,0.68755,9.02,-0.84,0.05,4.0
1758088376.70011,1758088374.16636,0.0,0.0,0.0,46.1231,33.46074,-0.0573,9.07,-0.52,0.22,4.0
1758088376.715,1758088374.17636,0.0,0.0,0.0,45.43555,31.16891,-0.45837,9.07,-0.52,0.22,4.0
1758088376.7162,1758088374.18636,0.0,0.0,0.0,44.57612,28.93437,-0.74485,9.05,-0.53,0.38,4.0
1758088376.73183,1758088374.19636,0.0,0.0,0.0,43.20102,24.63719,-0.97403,9.29,-0.74,0.0,4.0
1758088376.74887,1758088374.20636,0.0,0.0,0.0,42.28429,21.48592,-0.74485,9.29,-0.74,0.0,4.0
1758088376.75033,1758088374.21636,0.0,0.0,0.0,41.31026,17.76169,-0.85944,9.46,-1.1,0.01,4.0
1758088376.76561,1758088374.22636,0.0,0.0,0.0,40.33623,12.89155,-0.45837,9.46,-1.1,0.01,4.0
1758088376.76706,1758088374.23636,0.0,0.0,0.0,39.01843,5.84417,-0.22918,9.71,-1.42,-0.17,4.0
1758088376.78601,1758088374.24636,0.0,0.0,0.0,37.92981,1.08862,-0.0573,9.71,-1.42,-0.17,4.0
1758088376.79104,1758088374.25636,0.0,0.0,0.0,36.84119,-1.71887,-0.51566,10.02,-1.6,-0.38,4.0
1758088376.80601,1758088374.26636,0.0,0.0,0.0,35.69527,-2.86479,-1.14592,10.02,-1.6,-0.38,4.0
1758088376.80811,1758088374.27636,0.0,0.0,0.0,34.09099,0.34377,-1.48969,10.48,-1.57,-0.35,4.0
1758088376.82304,1758088374.28636,0.0,0.0,0.0,33.46074,2.23454,-1.48969,10.72,-1.36,-0.11,4.0
1758088376.83987,1758088374.29636,0.0,0.0,0.0,32.6013,2.06265,-1.48969,10.72,-1.36,-0.11,4.0
1758088376.84078,1758088374.30636,0.0,0.0,0.0,31.74186,0.40107,-2.34913,10.03,-1.16,0.0,4.0
1758088376.85608,1758088374.31636,0.0,0.0,0.0,30.02299,-7.79223,-2.6929,10.03,-1.16,0.0,4.0
1758088376.85794,1758088374.32636,0.0,0.0,0.0,29.10626,-13.17803,-2.7502,9.24,-0.95,-0.26,4.0
1758088376.87548,1758088374.33636,0.0,0.0,0.0,28.30412,-18.16276,-2.46372,9.24,-0.95,-0.26,4.0
1758088376.87746,1758088374.34636,0.0,0.0,0.0,27.33009,-25.38203,-0.85944,9.92,-0.46,0.58,4.0
1758088376.93779,1758088374.35636,0.0,0.0,0.0,26.41335,-31.11161,1.14592,11.64,0.51,2.44,4.0
1758088376.93894,1758088374.36636,0.0,0.0,0.0,24.75178,-31.97105,2.29183,11.64,0.51,2.44,4.0
1758088376.94065,1758088374.37636,0.0,0.0,0.0,23.26209,-29.22085,3.55234,12.73,0.64,3.32,4.0
1758088376.94163,1758088374.38636,0.0,0.0,0.0,21.08485,-17.87628,3.38045,12.73,0.64,3.32,4.0
1758088376.94223,1758088374.39636,0.0,0.0,0.0,19.76705,-14.15206,2.46372,11.56,-0.51,2.22,4.0
1758088376.94506,1758088374.40636,0.0,0.0,0.0,18.79302,-23.54857,1.20321,11.56,-0.51,2.22,4.0
1758088376.96092,1758088374.41636,0.0,0.0,0.0,18.56383,-31.28349,-0.11459,8.49,-1.25,1.28,4.0
1758088376.96183,1758088374.42636,0.0,0.0,0.0,20.11082,-31.79916,-2.23454,8.93,-1.26,0.87,4.0
1758088376.97687,1758088374.43636,0.0,0.0,0.0,22.86102,-30.82513,-2.63561,8.93,-1.26,0.87,4.0
1758088376.97883,1758088374.44636,0.0,0.0,0.0,26.69983,-28.13223,-1.66158,9.91,-0.78,1.83,4.0
1758088376.99569,1758088374.45636,0.0,0.0,0.0,31.16891,-25.15285,-0.0573,9.91,-0.78,1.83,4.0
1758088376.99789,1758088374.46636,0.0,0.0,0.0,38.1017,-24.35071,3.66693,10.38,0.03,3.15,4.0
1758088377.0139,1758088374.47636,0.0,0.0,0.0,42.05511,-23.26209,5.55769,10.38,0.03,3.15,4.0
1758088377.01649,1758088374.48636,0.0,0.0,0.0,45.55015,-22.68913,7.44845,9.95,0.63,2.84,4.0
1758088377.0321,1758088374.49636,0.0,0.0,0.0,47.95657,-19.99623,8.25059,9.95,0.63,2.84,4.0
1758088377.04887,1758088374.50636,0.0,0.0,0.0,49.15978,-11.17268,7.50575,9.97,0.81,2.07,4.0
1758088377.05478,1758088374.51636,0.0,0.0,0.0,48.01387,-5.27121,5.95876,10.3,0.88,1.86,4.0
1758088377.0699,1758088374.52636,0.0,0.0,0.0,45.43555,-0.0573,4.35448,10.3,0.88,1.86,4.0
1758088377.07106,1758088374.53636,0.0,0.0,0.0,39.53409,8.30789,1.83346,10.48,1.18,1.86,4.0
1758088377.08585,1758088374.54636,0.0,0.0,0.0,35.06502,14.03747,0.45837,10.48,1.18,1.86,4.0
1758088377.09104,1758088374.55636,0.0,0.0,0.0,30.65324,18.79302,-0.57296,10.8,1.69,1.56,4.0
1758088377.23398,1758088374.56636,0.0,0.0,0.0,26.47065,22.23076,-1.66158,10.8,1.69,1.56,4.0
1758088377.23618,1758088374.57636,0.0,0.0,0.0,21.48592,25.38203,-2.23454,10.69,2.0,1.37,4.0
1758088377.23723,1758088374.58636,0.0,0.0,0.0,18.90761,27.04361,-2.97938,10.5,1.88,1.24,4.0
1758088377.2396,1758088374.59636,0.0,0.0,0.0,17.13144,25.61122,-3.26586,10.5,1.88,1.24,4.0
1758088377.24071,1758088374.60636,0.0,0.0,0.0,15.69904,23.20479,-4.23989,9.88,1.44,1.23,4.0
1758088377.24387,1758088374.61636,0.0,0.0,0.0,15.69904,20.85567,-4.46907,9.88,1.44,1.23,4.0
1758088377.24498,1758088374.62636,0.0,0.0,0.0,16.272,20.74107,-4.69825,9.7,0.82,1.15,4.0
1758088377.24582,1758088374.63636,0.0,0.0,0.0,17.47521,21.02755,-4.98473,9.7,0.82,1.15,4.0
1758088377.24685,1758088374.64636,0.0,0.0,0.0,19.36597,21.7724,-4.69825,9.61,0.26,1.26,4.0
1758088377.2477,1758088374.65636,0.0,0.0,0.0,22.63183,24.29341,-4.29718,9.53,-0.08,1.31,4.0
1758088377.24873,1758088374.66636,0.0,0.0,0.0,24.86637,25.49662,-3.66693,9.53,-0.08,1.31,4.0
1758088377.24947,1758088374.67636,0.0,0.0,0.0,27.04361,25.61122,-2.86479,9.31,-0.19,1.28,4.0
1758088377.25059,1758088374.68636,0.0,0.0,0.0,29.22085,24.75178,-1.94806,9.31,-0.19,1.28,4.0
1758088377.25184,1758088374.69636,0.0,0.0,0.0,31.79916,22.86102,-0.17189,9.16,-0.1,1.1,4.0
1758088377.25324,1758088374.70636,0.0,0.0,0.0,33.23156,21.31403,1.08862,9.16,-0.1,1.1,4.0
1758088377.25385,1758088374.71636,0.0,0.0,0.0,34.26288,19.53786,2.23454,9.17,0.14,1.0,4.0
1758088377.26995,1758088374.72636,0.0,0.0,0.0,35.00772,17.76169,3.83882,9.17,0.14,1.0,4.0
1758088377.27113,1758088374.73636,0.0,0.0,0.0,34.77854,15.0115,4.64096,9.18,0.44,0.99,4.0
1758088377.28596,1758088374.74636,0.0,0.0,0.0,34.37747,13.69369,5.21392,9.28,0.75,1.02,4.0
1758088377.29138,1758088374.75636,0.0,0.0,0.0,33.51803,12.37589,5.50039,9.28,0.75,1.02,4.0
1758088377.30594,1758088374.76636,0.0,0.0,0.0,31.2262,10.25595,5.84417,9.35,1.0,0.99,4.0
1758088377.30818,1758088374.77636,0.0,0.0,0.0,29.33544,9.5684,6.13065,9.35,1.0,0.99,4.0
1758088377.3229,1758088374.78636,0.0,0.0,0.0,26.98631,9.33921,6.24524,9.41,1.18,0.91,4.0
1758088377.32692,1758088374.79636,0.0,0.0,0.0,24.57989,10.48513,7.04738,9.41,1.18,0.91,4.0
1758088377.34191,1758088374.80636,0.0,0.0,0.0,20.45459,12.71966,7.44845,9.58,1.31,0.94,4.0
1758088377.3595,1758088374.81636,0.0,0.0,0.0,17.47521,12.54778,7.96411,9.55,1.32,1.07,4.0
1758088377.36075,1758088374.82636,0.0,0.0,0.0,14.66772,12.14671,8.02141,9.55,1.32,1.07,4.0
1758088377.37618,1758088374.83636,0.0,0.0,0.0,12.37589,11.86023,8.136,9.61,1.11,1.18,4.0
1758088377.37739,1758088374.84636,0.0,0.0,0.0,9.4538,9.33921,7.84952,9.61,1.11,1.18,4.0
1758088377.39215,1758088374.85636,0.0,0.0,0.0,8.36518,6.8182,7.73493,9.61,0.73,1.08,4.0
1758088377.4092,1758088374.86636,0.0,0.0,0.0,7.50575,3.72423,7.79223,9.61,0.73,1.08,4.0
1758088377.41167,1758088374.87636,0.0,0.0,0.0,7.10468,0.68755,8.02141,9.51,0.44,0.81,4.0
1758088377.42715,1758088374.88636,0.0,0.0,0.0,6.87549,-3.49504,8.59437,9.47,0.37,0.52,4.0
1758088377.43055,1758088374.89636,0.0,0.0,0.0,6.8182,-6.58902,8.99544,9.47,0.37,0.52,4.0
1758088377.44595,1758088374.90636,0.0,0.0,0.0,7.04738,-9.96947,9.68299,9.4,0.41,0.33,4.0
1758088377.44955,1758088374.91636,0.0,0.0,0.0,7.44845,-13.46451,10.8862,9.4,0.41,0.33,4.0
1758088377.46574,1758088374.92636,0.0,0.0,0.0,7.96411,-17.81899,11.80293,9.33,0.51,0.23,4.0
1758088377.46883,1758088374.93636,0.0,0.0,0.0,8.02141,-20.68378,13.00614,9.33,0.51,0.23,4.0
1758088377.48413,1758088374.94636,0.0,0.0,0.0,7.79223,-23.37668,14.03747,9.43,0.57,0.39,4.0
1758088377.50025,1758088374.95636,0.0,0.0,0.0,7.33386,-27.38738,15.06879,9.43,0.57,0.39,4.0
1758088377.50116,1758088374.96636,0.0,0.0,0.0,7.50575,-30.25217,14.43854,10.4,0.51,1.26,4.0
1758088377.51621,1758088374.97636,0.0,0.0,0.0,8.30789,-31.51268,13.00614,12.15,0.11,2.33,4.0
1758088377.51718,1758088374.98636,0.0,0.0,0.0,9.4538,-29.62192,10.65701,12.15,0.11,2.33,4.0
1758088377.53224,1758088374.99636,0.0,0.0,0.0,11.80293,-22.63183,7.21927,13.44,-0.33,2.58,4.0
1758088377.54918,1758088375.00636,0.0,0.0,0.0,13.17803,-17.01685,5.50039,13.44,-0.33,2.58,4.0
1758088377.55093,1758088375.01636,0.0,0.0,0.0,14.61043,-10.65701,5.09932,12.58,-0.29,2.04,4.0
1758088377.56596,1758088375.02636,0.0,0.0,0.0,15.69904,-5.90147,6.35983,12.58,-0.29,2.04,4.0
1758088377.56716,1758088375.03636,0.0,0.0,0.0,16.21471,-3.32316,8.25059,10.99,-0.04,1.58,4.0
1758088377.58195,1758088375.04636,0.0,0.0,0.0,15.98552,-4.18259,9.05273,9.76,0.21,1.36,4.0
1758088377.59796,1758088375.05636,0.0,0.0,0.0,15.29797,-6.13065,9.96947,9.76,0.21,1.36,4.0
1758088377.59992,1758088375.06636,0.0,0.0,0.0,14.15206,-8.93814,10.08406,9.34,0.18,1.62,4.0
1758088377.61492,1758088375.07636,0.0,0.0,0.0,13.46451,-15.98552,9.33921,9.34,0.18,1.62,4.0
1758088377.61641,1758088375.08636,0.0,0.0,0.0,13.34992,-23.72045,8.47978,8.84,-0.21,2.15,4.0
1758088377.63504,1758088375.09636,0.0,0.0,0.0,13.69369,-32.88778,7.73493,8.84,-0.21,2.15,4.0
1758088377.63594,1758088375.10636,0.0,0.0,0.0,14.15206,-39.13302,6.8182,8.51,-0.73,2.6,4.0
1758088377.65379,1758088375.11636,0.0,0.0,0.0,15.46986,-44.00316,5.55769,9.02,-1.23,2.6,4.0
1758088377.67002,1758088375.12636,0.0,0.0,0.0,16.61578,-46.40959,4.46907,9.02,-1.23,2.6,4.0
1758088377.67308,1758088375.13636,0.0,0.0,0.0,17.58981,-48.12846,3.72423,9.11,-1.49,2.49,4.0
1758088377.68799,1758088375.14636,0.0,0.0,0.0,19.53786,-48.41494,3.26586,9.11,-1.49,2.49,4.0
1758088377.68921,1758088375.15636,0.0,0.0,0.0,21.02755,-43.94586,3.55234,9.52,-1.49,2.08,4.0
1758088377.70424,1758088375.16636,0.0,0.0,0.0,22.74642,-37.12767,4.69825,9.52,-1.49,2.08,4.0
1758088377.71997,1758088375.17636,0.0,0.0,0.0,24.57989,-30.88243,6.07335,10.09,-1.5,1.84,4.0
1758088377.72199,1758088375.18636,0.0,0.0,0.0,27.2155,-21.7724,8.70896,10.09,-1.5,1.84,4.0
1758088377.73699,1758088375.19636,0.0,0.0,0.0,28.59059,-21.25674,9.68299,9.96,-1.63,1.74,4.0
1758088377.73875,1758088375.20636,0.0,0.0,0.0,29.27814,-19.53786,10.37054,9.62,-1.69,1.48,4.0
1758088377.75376,1758088375.21636,0.0,0.0,0.0,29.50733,-18.85031,10.31324,9.62,-1.69,1.48,4.0
1758088377.77007,1758088375.22636,0.0,0.0,0.0,29.33544,-13.00614,9.62569,10.14,-1.51,1.18,4.0
1758088377.77121,1758088375.23636,0.0,0.0,0.0,29.50733,-6.41713,9.33921,10.14,-1.51,1.18,4.0
1758088377.78596,1758088375.24636,0.0,0.0,0.0,29.50733,-0.17189,9.22462,10.86,-1.26,1.2,4.0
1758088377.78722,1758088375.25636,0.0,0.0,0.0,29.39274,5.32851,9.28192,10.86,-1.26,1.2,4.0
1758088377.80302,1758088375.26636,0.0,0.0,0.0,29.22085,11.57375,9.28192,10.84,-0.92,1.27,4.0
1758088377.81904,1758088375.27636,0.0,0.0,0.0,28.99167,13.46451,9.22462,10.43,-0.68,1.04,4.0
1758088377.82098,1758088375.28636,0.0,0.0,0.0,28.59059,15.06879,8.88085,10.43,-0.68,1.04,4.0
1758088377.83598,1758088375.29636,0.0,0.0,0.0,28.01764,16.73037,8.30789,10.27,-0.58,0.85,4.0
1758088377.83718,1758088375.30636,0.0,0.0,0.0,27.04361,20.11082,7.16197,10.27,-0.58,0.85,4.0
1758088377.85206,1758088375.31636,0.0,0.0,0.0,26.41335,22.40265,6.35983,10.25,-0.63,0.78,4.0
1758088377.868,1758088375.32636,0.0,0.0,0.0,25.8404,24.12152,5.50039,10.25,-0.63,0.78,4.0
1758088377.86944,1758088375.33636,0.0,0.0,0.0,25.49662,25.21014,4.18259,10.09,-0.8,0.85,4.0
1758088377.88414,1758088375.34636,0.0,0.0,0.0,25.43933,25.8404,3.55234,9.93,-0.99,0.82,4.0
1758088377.88599,1758088375.35636,0.0,0.0,0.0,25.72581,24.86637,3.03668,9.93,-0.99,0.82,4.0
1758088377.902,1758088375.36636,0.0,0.0,0.0,26.41335,23.26209,2.7502,9.7,-1.2,0.78,4.0
1758088377.91978,1758088375.37636,0.0,0.0,0.0,28.01764,20.34,2.40642,9.7,-1.2,0.78,4.0
1758088377.92099,1758088375.38636,0.0,0.0,0.0,29.27814,19.07949,2.34913,9.62,-1.39,0.72,4.0
1758088377.93599,1758088375.39636,0.0,0.0,0.0,30.65324,17.01685,2.29183,9.62,-1.39,0.72,4.0
1758088377.93724,1758088375.40636,0.0,0.0,0.0,32.14294,14.83961,2.11994,9.49,-1.55,0.78,4.0
1758088377.9523,1758088375.41636,0.0,0.0,0.0,34.32018,11.17268,2.11994,9.32,-1.55,0.88,4.0
1758088377.96927,1758088375.42636,0.0,0.0,0.0,35.58068,8.30789,2.40642,9.32,-1.62,0.88,4.0
1758088377.97023,1758088375.43636,0.0,0.0,0.0,36.55471,6.18794,2.11994,9.28,-1.59,0.74,4.0
1758088377.98506,1758088375.44636,0.0,0.0,0.0,38.1017,5.90147,2.40642,9.28,-1.59,0.74,4.0
1758088377.98624,1758088375.45636,0.0,0.0,0.0,39.70598,9.91217,2.57831,9.72,-1.52,0.73,4.0
1758088378.00382,1758088375.46636,0.0,0.0,0.0,40.50812,12.83425,2.63561,9.72,-1.52,0.73,4.0
1758088378.02021,1758088375.47636,0.0,0.0,0.0,41.08107,14.15206,2.29183,9.82,-1.4,0.69,4.0
1758088378.02125,1758088375.48636,0.0,0.0,0.0,41.31026,13.40721,1.83346,9.82,-1.4,0.69,4.0
1758088378.03637,1758088375.49636,0.0,0.0,0.0,41.08107,8.93814,0.80214,9.32,-1.27,0.78,4.0
1758088378.03808,1758088375.50636,0.0,0.0,0.0,40.68,4.81285,0.34377,8.92,-1.07,0.43,4.0
1758088378.05383,1758088375.51636,0.0,0.0,0.0,39.99245,0.74485,-0.17189,8.92,-1.07,0.43,4.0
1758088378.07015,1758088375.52636,0.0,0.0,0.0,39.4195,-2.7502,-0.85944,8.97,-0.94,0.32,4.0
1758088378.07125,1758088375.53636,0.0,0.0,0.0,38.21629,-6.99009,-1.71887,8.97,-0.94,0.32,4.0
1758088378.08605,1758088375.54636,0.0,0.0,0.0,37.52874,-9.4538,-2.11994,9.17,-0.85,0.23,4.0
1758088378.08722,1758088375.55636,0.0,0.0,0.0,36.38282,-11.86023,-2.46372,9.17,-0.85,0.23,4.0
1758088378.10245,1758088375.56636,0.0,0.0,0.0,34.66395,-14.49583,-2.6929,9.31,-0.83,0.15,4.0
1758088378.11847,1758088375.57636,0.0,0.0,0.0,33.34615,-15.41257,-2.63561,9.43,-0.81,-0.21,4.0
1758088378.12003,1758088375.58636,0.0,0.0,0.0,32.14294,-15.41257,-2.11994,9.43,-0.81,-0.21,4.0
1758088378.1353,1758088375.59636,0.0,0.0,0.0,30.65324,-15.06879,-1.43239,9.64,-0.79,-0.55,4.0
1758088378.13625,1758088375.60636,0.0,0.0,0.0,28.70519,-13.23533,0.0,9.64,-0.79,-0.55,4.0
1758088378.15203,1758088375.61636,0.0,0.0,0.0,27.38738,-11.34457,1.08862,9.87,-0.78,-0.8,4.0
1758088378.16931,1758088375.62636,0.0,0.0,0.0,25.89769,-9.11003,1.77617,9.87,-0.78,-0.8,4.0
1758088378.17022,1758088375.63636,0.0,0.0,0.0,24.29341,-6.47442,1.77617,10.04,-0.82,-0.94,4.0
1758088378.18527,1758088375.64636,0.0,0.0,0.0,21.7151,-3.38045,0.51566,9.97,-0.93,-0.8,4.0
1758088378.18659,1758088375.65636,0.0,0.0,0.0,20.16812,-2.11994,-1.03132,9.97,-0.93,-0.8,4.0
1758088378.20305,1758088375.66636,0.0,0.0,0.0,19.19409,-0.97403,-2.46372,9.96,-1.02,-0.03,4.0
1758088378.21985,1758088375.67636,0.0,0.0,0.0,18.79302,0.11459,-3.89611,9.96,-1.02,-0.03,4.0
1758088378.22108,1758088375.68636,0.0,0.0,0.0,18.73572,0.22918,-4.52637,10.98,-0.72,1.18,4.0
1758088378.23636,1758088375.69636,0.0,0.0,0.0,17.81899,-1.77617,-3.55234,10.98,-0.72,1.18,4.0
1758088378.23731,1758088375.70636,0.0,0.0,0.0,16.21471,-4.23989,-1.60428,11.99,-0.08,2.53,4.0
1758088378.25204,1758088375.71636,0.0,0.0,0.0,14.20935,-7.44845,0.68755,11.99,-0.08,2.53,4.0
1758088378.27001,1758088375.72636,0.0,0.0,0.0,11.28727,-13.23533,4.0107,12.0,0.16,2.83,4.0
1758088378.27101,1758088375.73636,0.0,0.0,0.0,9.28192,-14.9542,3.95341,11.08,-0.33,1.85,4.0
1758088378.28604,1758088375.74636,0.0,0.0,0.0,7.21927,-14.32395,2.11994,11.08,-0.33,1.85,4.0
1758088378.2872,1758088375.75636,0.0,0.0,0.0,5.78687,-14.20935,-2.29183,10.46,-1.24,1.23,4.0
1758088378.30205,1758088375.76636,0.0,0.0,0.0,6.24524,-13.17803,-5.78687,10.46,-1.24,1.23,4.0
1758088378.31909,1758088375.77636,0.0,0.0,0.0,8.59437,-12.77696,-7.10468,10.3,-1.79,1.21,4.0
1758088378.32253,1758088375.78636,0.0,0.0,0.0,11.57375,-6.70361,-8.99544,10.3,-1.79,1.21,4.0
1758088378.33913,1758088375.79636,0.0,0.0,0.0,18.85031,2.29183,-8.136,11.03,-1.66,1.69,4.0
1758088378.34089,1758088375.80636,0.0,0.0,0.0,24.29341,0.45837,-4.92744,10.43,-1.28,2.31,4.0
1758088378.35617,1758088375.81636,0.0,0.0,0.0,26.47065,-8.76626,-4.46907,10.43,-1.28,2.31,4.0
1758088378.35731,1758088375.82636,0.0,0.0,0.0,28.64789,-15.98552,-2.29183,9.03,-0.55,2.45,4.0
1758088378.37393,1758088375.83636,0.0,0.0,0.0,31.85646,-15.92823,0.22918,9.03,-0.55,2.45,4.0
1758088378.38995,1758088375.84636,0.0,0.0,0.0,34.32018,-14.38124,2.00535,9.76,0.05,1.87,4.0
1758088378.39139,1758088375.85636,0.0,0.0,0.0,37.01308,-12.43318,3.32316,9.76,0.05,1.87,4.0
1758088378.41085,1758088375.86636,0.0,0.0,0.0,39.70598,-11.51645,4.64096,9.39,0.26,1.89,4.0
1758088378.41519,1758088375.87636,0.0,0.0,0.0,43.02913,-7.62034,6.24524,9.25,0.15,1.56,4.0
1758088378.43036,1758088375.88636,0.0,0.0,0.0,44.11775,-3.20856,6.13065,9.25,0.15,1.56,4.0
1758088378.43129,1758088375.89636,0.0,0.0,0.0,44.00316,2.6929,5.95876,9.75,0.11,1.73,4.0
1758088378.44607,1758088375.90636,0.0,0.0,0.0,42.68536,9.62569,4.98473,9.75,0.11,1.73,4.0
1758088378.44768,1758088375.91636,0.0,0.0,0.0,38.90384,16.90226,3.38045,10.38,0.43,2.13,4.0
1758088378.46207,1758088375.92636,0.0,0.0,0.0,34.95043,20.11082,2.00535,10.38,0.43,2.13,4.0
1758088378.47937,1758088375.93636,0.0,0.0,0.0,31.51268,21.60051,0.97403,10.45,0.96,2.36,4.0
1758088378.48051,1758088375.94636,0.0,0.0,0.0,27.84575,21.6578,-0.85944,10.45,0.96,2.36,4.0
1758088378.49534,1758088375.95636,0.0,0.0,0.0,23.83505,20.51189,-1.94806,10.3,1.45,2.03,4.0
1758088378.49626,1758088375.96636,0.0,0.0,0.0,22.00158,19.42327,-3.32316,10.19,1.51,1.86,4.0
1758088378.51335,1758088375.97636,0.0,0.0,0.0,21.14215,18.10547,-4.58366,10.19,1.51,1.86,4.0
1758088378.52999,1758088375.98636,0.0,0.0,0.0,21.37133,14.66772,-6.13065,10.04,1.14,1.81,4.0
1758088378.53101,1758088375.99636,0.0,0.0,0.0,22.34536,13.40721,-7.10468,10.04,1.14,1.81,4.0
1758088378.5461,1758088376.00636,0.0,0.0,0.0,23.83505,13.12073,-7.73493,9.92,0.52,1.74,4.0
1758088378.54727,1758088376.01636,0.0,0.0,0.0,25.26744,13.80828,-8.36518,9.92,0.52,1.74,4.0
1758088378.56403,1758088376.02636,0.0,0.0,0.0,28.30412,15.24068,-8.42248,9.84,0.0,1.69,4.0
1758088378.5802,1758088376.03636,0.0,0.0,0.0,30.25217,15.98552,-8.0787,9.51,-0.35,1.53,4.0
1758088378.58137,1758088376.04636,0.0,0.0,0.0,32.14294,15.75634,-7.39116,9.51,-0.35,1.53,4.0
1758088378.59633,1758088376.05636,0.0,0.0,0.0,33.74722,15.24068,-6.35983,9.16,-0.44,1.43,4.0
1758088378.59807,1758088376.06636,0.0,0.0,0.0,35.98175,14.03747,-4.23989,9.16,-0.44,1.43,4.0
1758088378.61311,1758088376.07636,0.0,0.0,0.0,37.01308,13.46451,-2.57831,8.99,-0.25,1.37,4.0
1758088378.64977,1758088376.08636,0.0,0.0,0.0,37.58603,12.89155,-1.03132,8.99,-0.25,1.37,4.0
1758088378.6559,1758088376.09636,0.0,0.0,0.0,37.92981,12.77696,0.51566,9.03,0.13,1.36,4.0
1758088378.65747,1758088376.10636,0.0,0.0,0.0,37.35685,12.83425,2.34913,9.22,0.54,1.43,4.0
1758088378.66193,1758088376.11636,0.0,0.0,0.0,36.38282,13.23533,3.32316,9.22,0.54,1.43,4.0
1758088378.66231,1758088376.12636,0.0,0.0,0.0,35.00772,14.09476,3.89611,9.46,0.89,1.48,4.0
1758088378.67991,1758088376.13636,0.0,0.0,0.0,33.11696,14.66772,4.46907,9.46,0.89,1.48,4.0
1758088378.6811,1758088376.14636,0.0,0.0,0.0,29.67921,14.9542,4.69825,9.56,1.17,1.55,4.0
1758088378.6961,1758088376.15636,0.0,0.0,0.0,27.10091,14.83961,4.69825,9.56,1.17,1.55,4.0
1758088378.69729,1758088376.16636,0.0,0.0,0.0,24.35071,14.09476,4.35448,9.59,1.31,1.52,4.0
1758088378.71213,1758088376.17636,0.0,0.0,0.0,20.34,13.06344,3.89611,9.59,1.31,1.52,4.0
1758088378.72902,1758088376.18636,0.0,0.0,0.0,17.58981,11.22997,3.49504,9.54,1.29,1.4,4.0
1758088378.73031,1758088376.19636,0.0,0.0,0.0,14.83961,10.8289,3.03668,9.56,1.15,1.25,4.0
1758088378.74513,1758088376.20636,0.0,0.0,0.0,12.49048,10.71431,2.97938,9.56,1.15,1.25,4.0
1758088378.74633,1758088376.21636,0.0,0.0,0.0,9.22462,11.74564,3.26586,9.65,0.95,1.21,4.0
1758088378.76337,1758088376.22636,0.0,0.0,0.0,7.33386,12.08941,3.49504,9.65,0.95,1.21,4.0
1758088378.81594,1758088376.23636,0.0,0.0,0.0,5.61499,12.71966,3.89611,9.59,0.75,1.25,4.0
1758088378.8172,1758088376.24636,0.0,0.0,0.0,4.29718,13.75099,4.35448,9.59,0.75,1.25,4.0
1758088378.81766,1758088376.25636,0.0,0.0,0.0,2.63561,13.86558,5.55769,9.63,0.61,1.23,4.0
1758088378.82032,1758088376.26636,0.0,0.0,0.0,1.77617,12.71966,6.58902,9.49,0.52,1.02,4.0
1758088378.82095,1758088376.27636,0.0,0.0,0.0,0.97403,11.51645,7.50575,9.49,0.52,1.02,4.0
1758088378.82179,1758088376.28636,0.0,0.0,0.0,0.0,9.85487,8.25059,9.49,0.51,0.84,4.0
1758088378.83813,1758088376.29636,0.0,0.0,0.0,-1.94806,5.78687,8.88085,9.49,0.51,0.84,4.0
1758088378.84017,1758088376.30636,0.0,0.0,0.0,-3.03668,2.7502,9.11003,9.45,0.56,0.68,4.0
1758088378.85514,1758088376.31636,0.0,0.0,0.0,-4.69825,-0.51566,8.93814,9.45,0.56,0.68,4.0
1758088378.85637,1758088376.32636,0.0,0.0,0.0,-6.18794,-3.55234,8.47978,9.55,0.66,0.72,4.0
1758088378.87237,1758088376.33636,0.0,0.0,0.0,-8.65166,-7.50575,8.02141,9.71,0.82,0.74,4.0
1758088378.8893,1758088376.34636,0.0,0.0,0.0,-9.96947,-9.62569,7.79223,9.71,0.82,0.74,4.0
1758088378.8903,1758088376.35636,0.0,0.0,0.0,-11.11538,-11.45916,7.79223,9.69,0.94,0.83,4.0
1758088378.90516,1758088376.36636,0.0,0.0,0.0,-12.14671,-13.06344,7.79223,9.69,0.94,0.83,4.0
1758088378.90662,1758088376.37636,0.0,0.0,0.0,-13.40721,-16.04282,7.79223,9.57,0.93,0.86,4.0
1758088378.92341,1758088376.38636,0.0,0.0,0.0,-14.09476,-17.53251,7.79223,9.57,0.93,0.86,4.0
1758088378.94046,1758088376.39636,0.0,0.0,0.0,-14.43854,-18.79302,7.73493,9.71,0.82,1.07,4.0
1758088378.94137,1758088376.40636,0.0,0.0,0.0,-13.5791,-20.68378,7.10468,9.71,0.82,1.07,4.0
1758088378.95644,1758088376.41636,0.0,0.0,0.0,-11.74564,-21.42862,5.84417,10.63,0.6,1.83,4.0
1758088378.95737,1758088376.42636,0.0,0.0,0.0,-8.70896,-21.37133,3.60963,12.01,0.01,2.61,4.0
1758088378.9754,1758088376.43636,0.0,0.0,0.0,-4.58366,-20.45459,1.08862,12.01,0.01,2.61,4.0
1758088378.97672,1758088376.44636,0.0,0.0,0.0,1.20321,-18.10547,-1.43239,12.57,-0.57,2.62,4.0
1758088379.00104,1758088376.45636,0.0,0.0,0.0,4.87014,-17.30333,-1.71887,12.57,-0.57,2.62,4.0
1758088379.11566,1758088376.46636,0.0,0.0,0.0,7.84952,-17.47521,-0.80214,11.57,-0.88,1.56,4.0
1758088379.1163,1758088376.47636,0.0,0.0,0.0,9.62569,-16.84496,1.43239,11.57,-0.88,1.56,4.0
1758088379.11836,1758088376.48636,0.0,0.0,0.0,10.31324,-12.43318,5.27121,10.61,-0.62,1.02,4.0
1758088379.12151,1758088376.49636,0.0,0.0,0.0,9.68299,-6.13065,8.59437,10.8,-0.15,1.04,4.0
1758088379.12496,1758088376.50636,0.0,0.0,0.0,8.02141,0.0573,10.71431,10.8,-0.15,1.04,4.0
1758088379.12562,1758088376.51636,0.0,0.0,0.0,5.09932,4.23989,12.14671,10.75,0.27,2.12,4.0
1758088379.12638,1758088376.52636,0.0,0.0,0.0,-0.57296,5.55769,11.51645,10.75,0.27,2.12,4.0
1758088379.12754,1758088376.53636,0.0,0.0,0.0,-4.81285,2.97938,9.4538,10.31,0.65,2.82,4.0
1758088379.12905,1758088376.54636,0.0,0.0,0.0,-8.93814,-0.57296,6.7609,10.31,0.65,2.82,4.0
1758088379.13017,1758088376.55636,0.0,0.0,0.0,-11.97482,-6.18794,3.20856,9.79,0.69,3.01,4.0
1758088379.13092,1758088376.56636,0.0,0.0,0.0,-15.41257,-22.05888,-1.48969,8.51,0.24,2.6,4.0
1758088379.13286,1758088376.57636,0.0,0.0,0.0,-15.58445,-35.52338,-1.48969,8.51,0.24,2.6,4.0
1758088379.13373,1758088376.58636,0.0,0.0,0.0,-15.41257,-43.77398,-1.08862,8.19,-0.29,2.29,4.0
1758088379.13472,1758088376.59636,0.0,0.0,0.0,-15.0115,-44.9199,-0.74485,8.19,-0.29,2.29,4.0
1758088379.15055,1758088376.60636,0.0,0.0,0.0,-15.24068,-45.26366,-0.51566,9.05,-0.87,2.38,4.0
1758088379.15093,1758088376.61636,0.0,0.0,0.0,-16.10011,-45.89392,-0.85944,9.05,-0.87,2.38,4.0
1758088379.1662,1758088376.62636,0.0,0.0,0.0,-17.30333,-44.63341,-1.66158,8.88,-1.07,2.6,4.0
1758088379.16984,1758088376.63636,0.0,0.0,0.0,-18.9649,-37.92981,-2.7502,8.88,-1.07,2.42,4.0
1758088379.18546,1758088376.64636,0.0,0.0,0.0,-19.13679,-27.78845,-1.94806,9.66,-1.1,2.42,4.0
1758088379.1867,1758088376.65636,0.0,0.0,0.0,-18.44924,-19.36597,-0.22918,10.6,-1.39,2.07,4.0
1758088379.20319,1758088376.66636,0.0,0.0,0.0,-17.99088,-13.86558,1.43239,10.6,-1.39,2.07,4.0
1758088379.21998,1758088376.67636,0.0,0.0,0.0,-18.10547,-18.62113,3.38045,9.86,-1.72,2.07,4.0
1758088379.22072,1758088376.68636,0.0,0.0,0.0,-18.79302,-17.47521,3.66693,9.86,-1.72,2.07,4.0
1758088379.23648,1758088376.69636,0.0,0.0,0.0,-18.73572,-9.11003,4.92744,10.26,-1.7,1.38,4.0
1758088379.23856,1758088376.70636,0.0,0.0,0.0,-17.58981,2.40642,6.58902,10.26,-1.7,1.38,4.0
1758088379.25349,1758088376.71636,0.0,0.0,0.0,-14.78231,18.22006,8.76626,11.45,-1.68,1.12,4.0
1758088379.27004,1758088376.72636,0.0,0.0,0.0,-13.06344,23.83505,9.68299,10.62,-1.73,1.52,4.0
1758088379.27218,1758088376.73636,0.0,0.0,0.0,-11.45916,26.18417,10.02676,10.62,-1.73,1.52,4.0
1758088379.28748,1758088376.74636,0.0,0.0,0.0,-9.68299,29.04896,10.02676,10.0,-1.71,1.28,4.0
1758088379.29083,1758088376.75636,0.0,0.0,0.0,-7.67763,34.95043,9.62569,10.0,-1.71,1.28,4.0
1758088379.30623,1758088376.76636,0.0,0.0,0.0,-6.41713,39.07573,8.93814,10.11,-1.68,1.17,4.0
1758088379.30858,1758088376.77636,0.0,0.0,0.0,-5.72958,41.94051,8.0787,10.11,-1.68,1.17,4.0
1758088379.32355,1758088376.78636,0.0,0.0,0.0,-5.15662,43.02913,6.99009,9.79,-1.52,1.52,4.0
1758088379.34002,1758088376.79636,0.0,0.0,0.0,-4.87014,43.25832,6.41713,9.34,-1.36,1.57,4.0
1758088379.34079,1758088376.80636,0.0,0.0,0.0,-4.81285,42.51347,6.07335,9.34,-1.36,1.57,4.0
1758088379.35653,1758088376.81636,0.0,0.0,0.0,-4.69825,40.27893,5.90147,9.11,-1.27,1.57,4.0
1758088379.3582,1758088376.82636,0.0,0.0,0.0,-4.1253,37.87251,5.32851,9.11,-1.27,1.57,4.0
1758088379.37347,1758088376.83636,0.0,0.0,0.0,-3.38045,35.63798,4.64096,8.97,-1.35,1.49,4.0
1758088379.39054,1758088376.84636,0.0,0.0,0.0,-2.34913,32.48671,4.1253,8.97,-1.35,1.49,4.0
1758088379.3909,1758088376.85636,0.0,0.0,0.0,-1.48969,28.30412,3.60963,8.6,-1.45,1.48,4.0
1758088379.40622,1758088376.86636,0.0,0.0,0.0,-0.51566,21.7151,2.40642,8.27,-1.45,1.51,4.0
1758088379.40744,1758088376.87636,0.0,0.0,0.0,0.0,17.30333,1.71887,8.27,-1.53,1.51,4.0
1758088379.42224,1758088376.88636,0.0,0.0,0.0,0.51566,13.75099,1.20321,8.07,-1.54,1.4,4.0
1758088379.43929,1758088376.89636,0.0,0.0,0.0,1.60428,9.85487,0.85944,8.07,-1.54,1.4,4.0
1758088379.43978,1758088376.90636,0.0,0.0,0.0,2.40642,9.62569,0.45837,8.07,-1.47,1.31,4.0
1758088379.4555,1758088376.91636,0.0,0.0,0.0,3.49504,14.66772,-0.22918,8.07,-1.47,1.31,4.0
1758088379.45719,1758088376.92636,0.0,0.0,0.0,4.81285,16.84496,-1.20321,8.68,-1.4,1.37,4.0
1758088379.4725,1758088376.93636,0.0,0.0,0.0,6.07335,14.43854,-2.34913,8.68,-1.4,1.37,4.0
1758088379.4895,1758088376.94636,0.0,0.0,0.0,9.05273,6.24524,-3.95341,8.05,-1.41,1.61,4.0
1758088379.48997,1758088376.95636,0.0,0.0,0.0,11.74564,3.26586,-4.58366,8.37,-1.52,1.34,4.0
1758088379.50567,1758088376.96636,0.0,0.0,0.0,14.83961,3.03668,-5.15662,8.37,-1.52,1.34,4.0
1758088379.50654,1758088376.97636,0.0,0.0,0.0,18.22006,2.63561,-5.95876,8.84,-1.75,1.1,4.0
1758088379.52123,1758088376.98636,0.0,0.0,0.0,23.20479,-0.85944,-6.47442,8.84,-1.75,1.1,4.0
1758088379.53751,1758088376.99636,0.0,0.0,0.0,26.18417,-3.66693,-6.35983,8.27,-1.89,1.24,4.0
1758088379.53876,1758088377.00636,0.0,0.0,0.0,29.10626,-6.18794,-6.07335,8.27,-1.89,1.24,4.0
1758088379.55326,1758088377.01636,0.0,0.0,0.0,33.11696,-11.80293,-4.87014,8.11,-1.81,1.14,4.0
1758088379.56946,1758088377.02636,0.0,0.0,0.0,35.40879,-15.75634,-3.83882,7.99,-1.68,0.97,4.0
1758088379.5699,1758088377.03636,0.0,0.0,0.0,37.18496,-19.70975,-3.32316,7.99,-1.68,0.97,4.0
1758088379.58544,1758088377.04636,0.0,0.0,0.0,38.50277,-22.57454,-2.7502,8.35,-1.49,0.9,4.0
1758088379.58653,1758088377.05636,0.0,0.0,0.0,39.19032,-25.7831,-2.63561,8.35,-1.49,0.9,4.0
1758088379.63204,1758088377.06636,0.0,0.0,0.0,39.01843,-27.1582,-2.86479,8.85,-1.22,0.9,4.0
1758088379.66137,1758088377.07636,0.0,0.0,0.0,38.21629,-28.70519,-2.97938,8.85,-1.22,0.9,4.0
1758088379.66307,1758088377.08636,0.0,0.0,0.0,37.12767,-30.53865,-3.55234,9.2,-0.91,0.9,4.0
1758088379.66807,1758088377.09636,0.0,0.0,0.0,34.72124,-32.37212,-4.35448,9.37,-0.6,0.8,4.0
1758088379.67102,1758088377.10636,0.0,0.0,0.0,32.77319,-32.25753,-4.87014,9.37,-0.6,0.8,4.0
1758088379.67465,1758088377.11636,0.0,0.0,0.0,30.88243,-32.71589,-5.61499,9.39,-0.38,0.54,4.0
1758088379.67794,1758088377.12636,0.0,0.0,0.0,28.76248,-32.71589,-6.53172,9.39,-0.38,0.54,4.0
1758088379.68078,1758088377.13636,0.0,0.0,0.0,25.55392,-31.28349,-7.16197,9.25,-0.24,0.52,4.0
1758088379.68508,1758088377.14636,0.0,0.0,0.0,23.54857,-30.13758,-7.79223,9.25,-0.24,0.52,4.0
1758088379.68632,1758088377.15636,0.0,0.0,0.0,21.37133,-28.476,-8.42248,9.05,-0.27,0.34,4.0
1758088379.7013,1758088377.16636,0.0,0.0,0.0,18.9649,-26.52795,-9.05273,9.05,-0.27,0.34,4.0
1758088379.71747,1758088377.17636,0.0,0.0,0.0,15.46986,-24.12152,-9.5684,8.98,-0.35,0.48,4.0
1758088379.71884,1758088377.18636,0.0,0.0,0.0,13.34992,-22.28806,-9.28192,9.09,-0.34,0.32,4.0
1758088379.73448,1758088377.19636,0.0,0.0,0.0,10.71431,-20.62648,-8.42248,9.09,-0.34,0.32,4.0
1758088379.73693,1758088377.20636,0.0,0.0,0.0,7.10468,-19.59516,-7.39116,9.21,-0.41,0.27,4.0
1758088379.75237,1758088377.21636,0.0,0.0,0.0,4.46907,-17.01685,-6.70361,9.21,-0.41,0.27,4.0
1758088379.76856,1758088377.22636,0.0,0.0,0.0,2.06265,-14.72501,-6.18794,9.35,-0.56,0.06,4.0
1758088379.77192,1758088377.23636,0.0,0.0,0.0,-0.11459,-12.43318,-6.07335,9.35,-0.56,0.06,4.0
1758088379.78731,1758088377.24636,0.0,0.0,0.0,-3.09397,-10.19865,-6.07335,9.29,-0.71,0.08,4.0
1758088379.78856,1758088377.25636,0.0,0.0,0.0,-4.46907,-9.96947,-6.41713,8.98,-0.81,0.02,4.0
1758088379.80352,1758088377.26636,0.0,0.0,0.0,-5.78687,-9.91217,-7.04738,8.98,-0.81,0.02,4.0
1758088379.80673,1758088377.27636,0.0,0.0,0.0,-6.7609,-9.5684,-7.62034,8.7,-0.88,-0.06,4.0
1758088379.82231,1758088377.28636,0.0,0.0,0.0,-7.84952,-8.93814,-8.02141,8.7,-0.88,-0.06,4.0
1758088379.83832,1758088377.29636,0.0,0.0,0.0,-8.30789,-9.4538,-8.30789,8.39,-0.91,0.0,4.0
1758088379.83954,1758088377.30636,0.0,0.0,0.0,-8.70896,-11.22997,-8.42248,8.39,-0.91,0.0,4.0
1758088379.85559,1758088377.31636,0.0,0.0,0.0,-9.22462,-14.61043,-8.59437,7.85,-0.92,0.12,4.0
1758088379.85671,1758088377.32636,0.0,0.0,0.0,-10.31324,-21.31403,-8.70896,7.27,-0.92,0.0,4.0
1758088379.87374,1758088377.33636,0.0,0.0,0.0,-11.00079,-24.98096,-8.99544,7.27,-0.92,0.0,4.0
1758088379.87529,1758088377.34636,0.0,0.0,0.0,-11.74564,-28.01764,-9.05273,7.03,-0.92,-0.1,4.0
1758088379.89091,1758088377.35636,0.0,0.0,0.0,-12.14671,-29.39274,-9.33921,7.03,-0.92,-0.1,4.0
1758088379.90659,1758088377.36636,0.0,0.0,0.0,-11.91752,-31.91375,-7.84952,7.28,-0.67,0.57,4.0
1758088379.90863,1758088377.37636,0.0,0.0,0.0,-11.63104,-36.21093,-6.47442,7.28,-0.67,0.57,4.0
1758088379.92545,1758088377.38636,0.0,0.0,0.0,-11.00079,-43.65939,-5.27121,8.03,-0.22,2.33,4.0
1758088379.92651,1758088377.39636,0.0,0.0,0.0,-11.86023,-55.57691,-4.81285,8.03,-0.22,2.33,4.0
1758088379.94133,1758088377.40636,0.0,0.0,0.0,-15.87093,-66.00475,-5.09932,10.06,0.23,3.81,4.0
1758088379.97547,1758088377.41636,0.0,0.0,0.0,-17.36062,-64.11398,-5.55769,13.73,0.99,3.96,4.0
1758088379.97722,1758088377.42636,0.0,0.0,0.0,-17.93358,-57.46767,-6.13065,13.73,0.99,3.96,4.0
1758088379.97784,1758088377.43636,0.0,0.0,0.0,-18.10547,-35.98175,-6.24524,15.33,1.44,2.76,4.0
1758088379.97988,1758088377.44636,0.0,0.0,0.0,-18.90761,-12.77696,-5.90147,15.33,1.44,2.76,4.0
1758088379.99522,1758088377.45636,0.0,0.0,0.0,-22.11617,13.23533,-4.81285,18.6,2.23,4.24,4.0
1758088379.99646,1758088377.46636,0.0,0.0,0.0,-26.81443,30.88243,-2.97938,18.6,2.23,4.24,4.0
1758088380.01159,1758088377.47636,0.0,0.0,0.0,-27.1582,-3.20856,-2.40642,19.65,3.51,2.3,4.0
1758088380.02759,1758088377.48636,0.0,0.0,0.0,-19.76705,-29.33544,1.48969,13.51,1.31,0.45,4.0
1758088380.02932,1758088377.49636,0.0,0.0,0.0,-15.87093,-33.9764,-0.68755,13.51,1.31,0.45,4.0
1758088380.04455,1758088377.50636,0.0,0.0,0.0,-13.34992,-1.48969,-6.07335,16.46,-1.63,-0.25,4.0
1758088380.04552,1758088377.51636,0.0,0.0,0.0,-5.4431,52.884,-12.71966,16.46,-1.63,-0.25,4.0
1758088380.06096,1758088377.52636,0.0,0.0,0.0,0.40107,60.96271,-16.55848,15.83,-2.61,0.66,4.0
1758088380.07632,1758088377.53636,0.0,0.0,0.0,5.15662,66.80688,-17.99088,15.83,-2.61,0.66,4.0
1758088380.08021,1758088377.54636,0.0,0.0,0.0,10.59972,71.50513,-13.86558,12.88,-1.45,3.05,4.0
1758088380.09569,1758088377.55636,0.0,0.0,0.0,15.41257,65.71826,-6.53172,12.61,0.02,0.15,4.0
1758088380.09653,1758088377.56636,0.0,0.0,0.0,14.32395,48.70141,-3.55234,12.61,0.02,0.15,4.0
1758088380.11159,1758088377.57636,0.0,0.0,0.0,13.5218,35.75257,0.34377,11.33,0.82,1.33,4.0
1758088380.12763,1758088377.58636,0.0,0.0,0.0,12.49048,31.2262,3.95341,11.33,0.82,1.33,4.0
1758088380.1288,1758088377.59636,0.0,0.0,0.0,10.65701,27.61657,5.15662,11.29,0.82,0.45,4.0
1758088380.14439,1758088377.60636,0.0,0.0,0.0,8.136,24.92367,3.26586,11.29,0.82,0.45,4.0
1758088380.14613,1758088377.61636,0.0,0.0,0.0,5.90147,32.42941,0.51566,9.96,0.77,1.29,4.0
1758088380.16238,1758088377.62636,0.0,0.0,0.0,2.11994,55.6915,-3.38045,9.96,0.77,1.29,4.0
1758088380.17834,1758088377.63636,0.0,0.0,0.0,2.11994,60.67623,-5.84417,10.38,0.81,1.12,4.0
1758088380.18038,1758088377.64636,0.0,0.0,0.0,2.23454,55.6915,-6.7609,7.66,0.8,1.78,4.0
1758088380.19532,1758088377.65636,0.0,0.0,0.0,1.60428,49.79003,-7.96411,7.66,0.8,1.78,4.0
1758088380.19655,1758088377.66636,0.0,0.0,0.0,0.85944,40.33623,-8.47978,6.9,0.74,1.26,4.0
1758088380.21261,1758088377.67636,0.0,0.0,0.0,0.97403,34.26288,-8.25059,6.9,0.74,1.26,4.0
1758088380.2144,1758088377.68636,0.0,0.0,0.0,1.14592,30.13758,-7.33386,6.66,0.64,0.32,4.0
1758088380.25173,1758088377.69636,0.0,0.0,0.0,1.48969,28.24682,-5.95876,6.66,0.64,0.32,4.0
1758088380.25323,1758088377.70636,0.0,0.0,0.0,2.57831,24.63719,-2.92208,6.8,0.45,0.46,4.0
1758088380.25436,1758088377.71636,0.0,0.0,0.0,3.38045,20.16812,-1.03132,6.44,0.23,0.75,4.0
1758088380.25576,1758088377.72636,0.0,0.0,0.0,3.83882,14.61043,0.80214,6.44,0.23,0.75,4.0
1758088380.2719,1758088377.73636,0.0,0.0,0.0,3.66693,9.5684,2.46372,6.37,0.08,0.9,4.0
1758088380.28755,1758088377.74636,0.0,0.0,0.0,2.92208,2.11994,4.58366,6.37,0.08,0.9,4.0
1758088380.28889,1758088377.75636,0.0,0.0,0.0,2.06265,-2.40642,5.61499,6.78,0.04,0.51,4.0
1758088380.30344,1758088377.76636,0.0,0.0,0.0,1.3178,-7.73493,6.70361,6.78,0.04,0.51,4.0
1758088380.30652,1758088377.77636,0.0,0.0,0.0,0.34377,-11.51645,6.99009,7.44,0.18,0.26,4.0
1758088380.32239,1758088377.78636,0.0,0.0,0.0,-0.51566,-17.53251,7.67763,8.34,0.42,0.2,4.0
1758088380.32552,1758088377.79636,0.0,0.0,0.0,-1.08862,-21.7151,7.96411,8.34,0.42,0.2,4.0
1758088380.34097,1758088377.80636,0.0,0.0,0.0,-1.3751,-26.06958,7.79223,8.96,0.61,0.35,4.0
1758088380.3567,1758088377.81636,0.0,0.0,0.0,-1.66158,-29.8511,6.70361,8.96,0.61,0.35,4.0
1758088380.35837,1758088377.82636,0.0,0.0,0.0,-0.85944,-33.11696,5.55769,9.2,0.6,0.44,4.0
1758088380.37443,1758088377.83636,0.0,0.0,0.0,-0.11459,-34.37747,4.52637,9.2,0.6,0.44,4.0
1758088380.37562,1758088377.84636,0.0,0.0,0.0,0.80214,-34.26288,3.49504,9.17,0.48,0.52,4.0
1758088380.39685,1758088377.85636,0.0,0.0,0.0,1.94806,-30.53865,2.86479,9.17,0.48,0.52,4.0
1758088380.42421,1758088377.86636,0.0,0.0,0.0,2.7502,-25.72581,3.20856,9.32,0.33,0.52,4.0
1758088380.42757,1758088377.87636,0.0,0.0,0.0,3.49504,-20.79837,3.89611,9.66,0.2,0.53,4.0
1758088380.43136,1758088377.88636,0.0,0.0,0.0,4.18259,-16.272,5.61499,9.66,0.2,0.53,4.0
1758088380.43416,1758088377.89636,0.0,0.0,0.0,5.55769,-14.38124,9.05273,9.76,0.1,0.59,4.0
1758088380.43523,1758088377.90636,0.0,0.0,0.0,6.13065,-20.16812,9.62569,9.76,0.1,0.59,4.0
1758088380.45445,1758088377.91636,0.0,0.0,0.0,6.47442,-25.8404,10.65701,9.14,0.01,0.39,4.0
1758088380.4561,1758088377.92636,0.0,0.0,0.0,7.62034,-26.81443,11.74564,9.14,0.01,0.39,4.0
1758088380.47101,1758088377.93636,0.0,0.0,0.0,8.93814,-19.99623,13.75099,9.73,-0.05,-0.14,4.0
1758088380.48641,1758088377.94636,0.0,0.0,0.0,9.74028,-15.12609,15.12609,9.72,0.01,-0.23,4.0
1758088380.5345,1758088377.95636,0.0,0.0,0.0,10.31324,-11.45916,16.10011,9.72,0.01,-0.23,4.0
1758088380.53499,1758088377.96636,0.0,0.0,0.0,10.59972,-9.11003,16.90226,9.02,0.14,0.34,4.0
1758088380.53622,1758088377.97636,0.0,0.0,0.0,10.65701,-8.136,17.13144,9.02,0.14,0.34,4.0
1758088380.53685,1758088377.98636,0.0,0.0,0.0,10.48513,-8.42248,16.84496,8.68,0.39,0.41,4.0
1758088380.54045,1758088377.99636,0.0,0.0,0.0,10.02676,-8.59437,16.21471,8.68,0.39,0.41,4.0
1758088380.54109,1758088378.00636,0.0,0.0,0.0,9.85487,-7.67763,14.66772,8.61,0.7,0.06,4.0
1758088380.55773,1758088378.01636,0.0,0.0,0.0,9.85487,-6.99009,13.17803,8.51,0.82,-0.14,4.0
1758088380.5602,1758088378.02636,0.0,0.0,0.0,10.08406,-5.61499,12.08941,8.51,0.82,-0.14,4.0
1758088380.57573,1758088378.03636,0.0,0.0,0.0,10.8862,-2.7502,11.34457,8.61,0.91,-0.28,4.0
1758088380.57777,1758088378.04636,0.0,0.0,0.0,12.37589,-0.34377,10.94349,8.61,0.91,-0.28,4.0
1758088380.59351,1758088378.05636,0.0,0.0,0.0,13.46451,-1.3178,10.65701,8.29,0.88,0.03,4.0
1758088380.59606,1758088378.06636,0.0,0.0,0.0,14.03747,-4.81285,10.08406,8.29,0.88,0.03,4.0
1758088380.64163,1758088378.07636,0.0,0.0,0.0,14.72501,-9.39651,9.74028,7.52,0.76,0.07,4.0
1758088380.64748,1758088378.08636,0.0,0.0,0.0,15.87093,-15.92823,9.39651,7.52,0.76,0.01,4.0
1758088380.64815,1758088378.09636,0.0,0.0,0.0,16.67307,-19.59516,9.11003,7.13,0.73,0.01,4.0
1758088380.64937,1758088378.10636,0.0,0.0,0.0,17.6471,-23.83505,8.65166,7.05,0.79,0.12,4.0
1758088380.65001,1758088378.11636,0.0,0.0,0.0,18.56383,-30.59595,7.96411,7.05,0.79,0.12,4.0
1758088380.66547,1758088378.12636,0.0,0.0,0.0,19.99623,-46.35228,5.50039,7.54,0.69,1.29,4.0
1758088380.66694,1758088378.13636,0.0,0.0,0.0,21.08485,-50.82136,3.72423,7.54,0.69,1.29,4.0
1758088380.68173,1758088378.14636,0.0,0.0,0.0,23.0902,-50.53488,2.46372,10.48,0.09,2.05,4.0
1758088380.69874,1758088378.15636,0.0,0.0,0.0,26.01229,-51.90998,1.3178,10.48,0.09,2.05,4.0
1758088380.70127,1758088378.16636,0.0,0.0,0.0,30.82513,-53.91533,0.0573,12.88,-1.28,3.0,4.0
1758088380.71671,1758088378.17636,0.0,0.0,0.0,34.26288,-53.05589,0.74485,12.84,-2.8,2.29,4.0
1758088380.72009,1758088378.18636,0.0,0.0,0.0,37.29956,-47.03984,2.34913,12.84,-2.8,2.29,4.0
1758088380.7355,1758088378.19636,0.0,0.0,0.0,39.99245,-36.7266,5.72958,13.06,-3.31,1.54,4.0
1758088380.73671,1758088378.20636,0.0,0.0,0.0,43.4875,-21.14215,10.31324,13.06,-3.31,1.54,4.0
1758088380.75175,1758088378.21636,0.0,0.0,0.0,45.72203,-17.87628,12.71966,16.21,-3.5,3.61,4.0
1758088380.76873,1758088378.22636,0.0,0.0,0.0,43.83128,-30.82513,9.91217,16.21,-3.5,3.61,4.0
1758088380.77495,1758088378.23636,0.0,0.0,0.0,35.86716,-36.55471,5.27121,17.0,-3.29,0.86,4.0
1758088380.77539,1758088378.24636,0.0,0.0,0.0,33.46074,-10.8862,7.39116,17.63,-1.34,-1.17,4.0
1758088380.7918,1758088378.25636,0.0,0.0,0.0,32.08564,8.65166,10.02676,17.63,-1.34,-1.17,4.0
1758088380.83002,1758088378.26636,0.0,0.0,0.0,31.2262,27.67386,12.71966,15.15,0.06,-0.55,4.0
1758088380.83445,1758088378.27636,0.0,0.0,0.0,26.81443,42.22699,15.64175,15.15,0.06,-0.55,4.0
1758088380.83497,1758088378.28636,0.0,0.0,0.0,21.60051,44.8053,14.72501,13.92,0.51,1.7,4.0
1758088380.83627,1758088378.29636,0.0,0.0,0.0,16.61578,45.20637,12.77696,13.92,0.51,1.7,4.0
1758088380.83782,1758088378.30636,0.0,0.0,0.0,11.97482,44.40423,8.65166,14.85,-0.12,1.24,4.0
1758088380.85632,1758088378.31636,0.0,0.0,0.0,7.21927,42.97184,3.38045,14.06,-1.16,1.25,4.0
1758088380.86007,1758088378.32636,0.0,0.0,0.0,5.09932,43.94586,0.45837,14.06,-1.16,1.25,4.0
1758088380.87591,1758088378.33636,0.0,0.0,0.0,4.69825,52.08187,-0.34377,12.87,-1.63,0.82,4.0
1758088380.87668,1758088378.34636,0.0,0.0,0.0,4.35448,57.41038,-0.45837,12.87,-1.63,0.82,4.0
1758088380.89182,1758088378.35636,0.0,0.0,0.0,3.55234,56.03527,1.20321,11.23,-1.64,1.18,4.0
1758088380.90959,1758088378.36636,0.0,0.0,0.0,2.6929,50.363,2.92208,11.23,-1.64,1.18,4.0
1758088380.91097,1758088378.37636,0.0,0.0,0.0,1.66158,43.88857,5.09932,9.33,-1.39,1.01,4.0
1758088380.92582,1758088378.38636,0.0,0.0,0.0,1.3178,38.1017,7.79223,9.33,-1.39,1.01,4.0
1758088380.92833,1758088378.39636,0.0,0.0,0.0,2.00535,30.13758,11.91752,8.5,-1.15,0.51,4.0
1758088380.94563,1758088378.40636,0.0,0.0,0.0,2.7502,26.12688,13.86558,7.73,-1.09,0.49,4.0
1758088380.947,1758088378.41636,0.0,0.0,0.0,3.66693,21.7724,15.12609,7.73,-1.09,0.49,4.0
1758088380.96186,1758088378.42636,0.0,0.0,0.0,4.29718,17.76169,15.46986,7.13,-1.16,0.76,4.0
1758088380.97859,1758088378.43636,0.0,0.0,0.0,4.98473,20.22541,14.20935,7.13,-1.16,0.76,4.0
1758088380.98134,1758088378.44636,0.0,0.0,0.0,4.69825,29.67921,10.48513,7.53,-1.07,0.59,4.0
1758088380.99739,1758088378.45636,0.0,0.0,0.0,5.15662,37.52874,8.136,7.53,-1.07,0.59,4.0
1758088380.99938,1758088378.46636,0.0,0.0,0.0,5.84417,43.20102,4.0107,7.64,-0.86,0.56,4.0
