timeStamp,timeStampAlign,roll,pitch,yaw,gyro_x,gyro_y,gyro_z,acc_x,acc_y,acc_z,flag_num
1758088949.42568,1758088949.43655,0.0,0.0,0.0,-31.28349,-25.72581,-6.18794,8.2,1.5,-0.46,3.0
1758088949.42686,1758088949.44655,0.0,0.0,0.0,-34.14828,-33.63263,-6.99009,8.01,1.74,-0.85,3.0
1758088949.44243,1758088949.45655,0.0,0.0,0.0,-36.7266,-39.4768,-7.50575,8.01,1.74,-0.85,3.0
1758088949.45864,1758088949.46655,0.0,0.0,0.0,-39.01843,-43.31561,-8.02141,8.3,1.69,-1.01,3.0
1758088949.45984,1758088949.47655,0.0,0.0,0.0,-42.85724,-45.83662,-8.02141,9.2,1.68,-1.13,3.0
1758088949.47468,1758088949.48655,0.0,0.0,0.0,-45.09178,-45.03448,-7.10468,9.2,1.68,-1.13,3.0
1758088949.47588,1758088949.49655,0.0,0.0,0.0,-48.35764,-33.11696,-6.47442,11.02,1.67,-1.02,3.0
1758088949.49198,1758088949.50655,0.0,0.0,0.0,-50.363,-10.19865,-5.50039,11.02,1.67,-1.02,3.0
1758088949.50878,1758088949.51655,0.0,0.0,0.0,-51.79538,5.15662,-3.03668,12.69,1.19,-1.16,3.0
1758088949.50969,1758088949.52655,0.0,0.0,0.0,-54.08722,-8.30789,-3.83882,12.69,1.19,-1.16,3.0
1758088949.52472,1758088949.53655,0.0,0.0,0.0,-54.48829,-22.51724,-5.09932,9.08,1.27,-0.98,3.0
1758088949.52601,1758088949.54655,0.0,0.0,0.0,-54.94666,-27.73116,-9.5684,9.08,1.27,-0.98,3.0
1758088949.54172,1758088949.55655,0.0,0.0,0.0,-54.431,-19.82434,-9.85487,10.35,1.47,-1.67,3.0
1758088949.55845,1758088949.56655,0.0,0.0,0.0,-53.11319,-10.71431,-8.47978,11.81,1.33,-1.64,3.0
1758088949.55967,1758088949.57655,0.0,0.0,0.0,-50.87865,-5.09932,-5.90147,11.81,1.33,-1.64,3.0
1758088949.57477,1758088949.58655,0.0,0.0,0.0,-46.00851,-6.35983,-1.43239,10.64,0.98,-1.12,3.0
1758088949.57593,1758088949.59655,0.0,0.0,0.0,-41.99781,-9.4538,1.94806,10.64,0.98,-1.12,3.0
1758088949.59304,1758088949.60655,0.0,0.0,0.0,-37.92981,-11.45916,5.27121,9.65,0.71,-1.53,3.0
1758088949.60877,1758088949.61655,0.0,0.0,0.0,-34.09099,-11.91752,8.42248,9.65,0.71,-1.53,3.0
1758088949.60999,1758088949.62655,0.0,0.0,0.0,-29.8511,-10.65701,12.37589,9.96,0.65,-1.76,3.0
1758088949.62475,1758088949.63655,0.0,0.0,0.0,-27.96034,-9.33921,14.20935,10.01,0.88,-1.82,3.0
1758088949.62596,1758088949.64655,0.0,0.0,0.0,-26.87172,-7.33386,15.41257,10.01,0.88,-1.82,3.0
1758088949.64176,1758088949.65655,0.0,0.0,0.0,-26.35606,-4.98473,16.3293,9.85,1.23,-1.63,3.0
1758088949.65779,1758088949.66655,0.0,0.0,0.0,-24.86637,-5.55769,16.272,9.85,1.23,-1.63,3.0
1758088949.65903,1758088949.67655,0.0,0.0,0.0,-23.0902,-12.49048,13.5218,10.05,1.4,-0.22,3.0
1758088949.67382,1758088949.68655,0.0,0.0,0.0,-21.14215,-21.48592,8.136,10.05,1.4,-0.22,3.0
1758088949.6898,1758088949.69655,0.0,0.0,0.0,-18.9649,-25.89769,2.06265,11.87,0.96,0.62,3.0
1758088949.69104,1758088949.70655,0.0,0.0,0.0,-15.12609,-24.75178,-5.27121,14.51,-0.06,0.73,3.0
1758088949.70595,1758088949.71655,0.0,0.0,0.0,-11.63104,-23.0329,-9.28192,14.51,-0.06,0.73,3.0
1758088949.70706,1758088949.72655,0.0,0.0,0.0,-7.73493,-22.28806,-12.14671,14.82,-1.07,1.83,3.0
1758088949.72414,1758088949.73655,0.0,0.0,0.0,-2.11994,-18.85031,-13.5218,14.82,-1.07,1.83,3.0
1758088949.73987,1758088949.74655,0.0,0.0,0.0,1.3751,-16.55848,-11.97482,12.95,-1.03,0.87,3.0
1758088949.74106,1758088949.75655,0.0,0.0,0.0,3.38045,-13.69369,-9.5684,12.95,-1.03,0.87,3.0
1758088949.75609,1758088949.76655,0.0,0.0,0.0,3.32316,-8.136,-5.90147,11.0,-0.21,1.82,3.0
1758088949.75709,1758088949.77655,0.0,0.0,0.0,-1.71887,-1.60428,-0.34377,11.0,-0.21,1.82,3.0
1758088949.77214,1758088949.78655,0.0,0.0,0.0,-7.73493,1.08862,2.34913,10.3,0.52,2.43,3.0
1758088949.78888,1758088949.79655,0.0,0.0,0.0,-15.69904,4.87014,4.23989,10.03,1.2,1.91,3.0
1758088949.79011,1758088949.80655,0.0,0.0,0.0,-24.92367,9.62569,5.32851,10.03,1.2,1.91,3.0
1758088949.8048,1758088949.81655,0.0,0.0,0.0,-38.38818,18.27736,5.61499,10.64,1.49,0.85,3.0
1758088949.80683,1758088949.82655,0.0,0.0,0.0,-45.72203,23.37668,4.87014,10.64,1.49,0.85,3.0
1758088949.82395,1758088949.83655,0.0,0.0,0.0,-51.22243,27.1582,3.66693,10.73,1.03,0.85,3.0
1758088949.84018,1758088949.84655,0.0,0.0,0.0,-54.66018,30.88243,2.7502,10.73,1.03,0.85,3.0
1758088949.84122,1758088949.85655,0.0,0.0,0.0,-56.32175,37.12767,2.57831,10.24,0.12,0.87,3.0
1758088949.8562,1758088949.86655,0.0,0.0,0.0,-55.7488,38.50277,2.97938,9.56,-0.78,0.94,3.0
1758088949.85793,1758088949.87655,0.0,0.0,0.0,-54.08722,37.64333,3.72423,9.56,-0.78,0.94,3.0
1758088949.87295,1758088949.88655,0.0,0.0,0.0,-51.73809,37.58603,4.58366,8.91,-1.49,1.05,3.0
1758088949.88919,1758088949.89655,0.0,0.0,0.0,-47.61279,39.19032,6.07335,8.91,-1.49,1.05,3.0
1758088949.89046,1758088949.90655,0.0,0.0,0.0,-45.20637,39.24761,6.7609,8.87,-1.8,1.03,3.0
1758088949.9051,1758088949.91655,0.0,0.0,0.0,-43.4875,37.92981,7.39116,8.87,-1.8,1.03,3.0
1758088949.90858,1758088949.92655,0.0,0.0,0.0,-42.1124,36.03905,8.136,8.56,-1.59,1.2,3.0
1758088949.92382,1758088949.93655,0.0,0.0,0.0,-42.1124,33.11696,8.25059,8.75,-1.09,1.24,3.0
1758088949.92587,1758088949.94655,0.0,0.0,0.0,-42.74266,29.9084,8.25059,8.75,-1.09,1.24,3.0
1758088949.94198,1758088949.95655,0.0,0.0,0.0,-43.77398,25.7831,7.96411,8.93,-0.53,1.27,3.0
1758088949.95876,1758088949.96655,0.0,0.0,0.0,-45.55015,20.16812,7.73493,8.93,-0.53,1.27,3.0
1758088949.95993,1758088949.97655,0.0,0.0,0.0,-46.69606,17.58981,7.67763,9.26,-0.1,1.17,3.0
1758088949.97498,1758088949.98655,0.0,0.0,0.0,-47.95657,15.75634,7.39116,9.26,-0.1,1.17,3.0
1758088949.97616,1758088949.99655,0.0,0.0,0.0,-48.8733,13.5791,7.04738,9.59,0.05,1.18,3.0
1758088949.99194,1758088950.00655,0.0,0.0,0.0,-49.67545,10.59972,6.07335,9.74,0.05,1.16,3.0
1758088950.00828,1758088950.01655,0.0,0.0,0.0,-49.56085,9.22462,5.15662,9.74,-0.02,1.16,3.0
1758088950.0093,1758088950.02655,0.0,0.0,0.0,-49.04519,7.67763,4.64096,9.82,-0.31,1.05,3.0
1758088950.02399,1758088950.03655,0.0,0.0,0.0,-47.89928,6.07335,4.46907,9.82,-0.31,1.05,3.0
1758088950.03989,1758088950.04655,0.0,0.0,0.0,-45.03448,3.60963,4.81285,9.75,-0.77,1.02,3.0
1758088950.04112,1758088950.05655,0.0,0.0,0.0,-42.68536,1.66158,5.61499,9.75,-0.77,1.02,3.0
1758088950.05604,1758088950.06655,0.0,0.0,0.0,-39.70598,0.11459,6.8182,9.68,-1.24,0.87,3.0
1758088950.05721,1758088950.07655,0.0,0.0,0.0,-36.61201,-0.57296,8.136,9.68,-1.24,0.87,3.0
1758088950.07228,1758088950.08655,0.0,0.0,0.0,-32.08564,-1.20321,10.65701,9.75,-1.55,0.64,3.0
1758088950.08832,1758088950.09655,0.0,0.0,0.0,-28.76248,-1.14592,12.08941,9.79,-1.62,0.43,3.0
1758088950.08923,1758088950.10655,0.0,0.0,0.0,-25.55392,-0.68755,13.46451,9.79,-1.62,0.43,3.0
1758088950.10424,1758088950.11655,0.0,0.0,0.0,-22.34536,0.11459,14.9542,9.78,-1.48,0.33,3.0
1758088950.12004,1758088950.12655,0.0,0.0,0.0,-17.76169,1.60428,15.24068,9.78,-1.48,0.33,3.0
1758088950.12132,1758088950.13655,0.0,0.0,0.0,-14.72501,2.40642,15.41257,9.76,-1.22,0.26,3.0
1758088950.13607,1758088950.14655,0.0,0.0,0.0,-12.37589,2.34913,14.83961,9.76,-1.22,0.26,3.0
1758088950.13723,1758088950.15655,0.0,0.0,0.0,-8.99544,1.94806,13.46451,9.68,-1.01,0.27,3.0
1758088950.15202,1758088950.16655,0.0,0.0,0.0,-6.53172,0.51566,11.74564,9.64,-0.93,0.2,3.0
1758088950.16803,1758088950.17655,0.0,0.0,0.0,-4.23989,-1.03132,9.68299,9.64,-0.93,0.2,3.0
1758088950.16928,1758088950.18655,0.0,0.0,0.0,-2.00535,-2.63561,7.39116,9.56,-0.94,0.25,3.0
1758088950.18409,1758088950.19655,0.0,0.0,0.0,2.29183,-2.92208,3.83882,9.56,-0.94,0.25,3.0
1758088950.20008,1758088950.20655,0.0,0.0,0.0,4.69825,-1.14592,1.3751,9.68,-1.07,0.28,3.0
1758088950.2013,1758088950.21655,0.0,0.0,0.0,7.67763,4.52637,0.68755,9.68,-1.07,0.28,3.0
1758088950.21612,1758088950.22655,0.0,0.0,0.0,10.08406,11.91752,0.97403,10.1,-1.27,0.56,3.0
1758088950.21732,1758088950.23655,0.0,0.0,0.0,12.2613,18.56383,1.48969,10.43,-1.33,2.08,3.0
1758088950.23222,1758088950.24655,0.0,0.0,0.0,13.34992,6.87549,4.35448,10.43,-1.33,2.08,3.0
1758088950.24814,1758088950.25655,0.0,0.0,0.0,13.12073,-15.75634,7.84952,8.96,-0.65,2.37,3.0
1758088950.24935,1758088950.26655,0.0,0.0,0.0,12.77696,-33.23156,14.61043,8.96,-0.65,2.37,3.0
1758088950.2642,1758088950.27655,0.0,0.0,0.0,10.94349,-36.49741,22.74642,10.59,-0.26,1.44,3.0
1758088950.28014,1758088950.28655,0.0,0.0,0.0,9.74028,-29.27814,28.01764,10.59,-0.26,1.44,3.0
1758088950.28134,1758088950.29655,0.0,0.0,0.0,8.70896,-24.92367,32.77319,10.92,-0.13,0.66,3.0
1758088950.29645,1758088950.30655,0.0,0.0,0.0,6.99009,-24.00693,36.15364,10.92,-0.13,0.66,3.0
1758088950.29735,1758088950.31655,0.0,0.0,0.0,2.86479,-23.20479,37.47144,9.4,-0.23,0.9,3.0
1758088950.3124,1758088950.32655,0.0,0.0,0.0,0.0,-21.7151,35.75257,9.15,-0.17,0.04,3.0
1758088950.3285,1758088950.33655,0.0,0.0,0.0,-2.57831,-19.99623,32.71589,9.15,-0.17,0.04,3.0
1758088950.32939,1758088950.34655,0.0,0.0,0.0,-5.15662,-17.36062,26.12688,9.23,-0.14,-0.42,3.0
1758088950.34449,1758088950.35655,0.0,0.0,0.0,-5.90147,-11.80293,21.42862,9.23,-0.14,-0.42,3.0
1758088950.36051,1758088950.36655,0.0,0.0,0.0,-6.13065,-8.36518,16.272,9.74,-0.48,-0.36,3.0
1758088950.36142,1758088950.37655,0.0,0.0,0.0,-5.78687,-4.98473,11.57375,9.74,-0.48,-0.36,3.0
1758088950.37645,1758088950.38655,0.0,0.0,0.0,-4.64096,-3.09397,7.04738,10.05,-0.93,-0.37,3.0
1758088950.37744,1758088950.39655,0.0,0.0,0.0,-3.95341,-2.7502,5.55769,10.07,-1.14,-0.49,3.0
1758088950.3921,1758088950.40655,0.0,0.0,0.0,-3.49504,-0.97403,4.87014,10.07,-1.14,-0.49,3.0
1758088950.40849,1758088950.41655,0.0,0.0,0.0,-3.03668,1.60428,4.87014,10.44,-1.05,-0.63,3.0
1758088950.40944,1758088950.42655,0.0,0.0,0.0,-2.63561,5.21392,5.84417,10.44,-1.05,-0.63,3.0
1758088950.42425,1758088950.43655,0.0,0.0,0.0,-2.6929,6.8182,6.8182,10.38,-0.8,-0.44,3.0
1758088950.4405,1758088950.44655,0.0,0.0,0.0,-2.6929,8.36518,7.62034,10.38,-0.8,-0.44,3.0
1758088950.44145,1758088950.45655,0.0,0.0,0.0,-2.92208,9.5684,7.84952,10.11,-0.62,-0.34,3.0
1758088950.45629,1758088950.46655,0.0,0.0,0.0,-2.86479,10.08406,7.39116,9.81,-0.59,-0.35,3.0
1758088950.45747,1758088950.47655,0.0,0.0,0.0,-2.57831,11.34457,6.53172,9.81,-0.59,-0.35,3.0
1758088950.47253,1758088950.48655,0.0,0.0,0.0,-1.94806,12.71966,5.32851,9.95,-0.75,-0.36,3.0
1758088950.48855,1758088950.49655,0.0,0.0,0.0,-1.20321,13.40721,4.0107,9.95,-0.75,-0.36,3.0
1758088950.48949,1758088950.50655,0.0,0.0,0.0,-0.17189,13.23533,1.94806,9.96,-1.02,-0.34,3.0
1758088950.5042,1758088950.51655,0.0,0.0,0.0,0.45837,12.77696,1.03132,9.96,-1.02,-0.34,3.0
1758088950.52036,1758088950.52655,0.0,0.0,0.0,1.20321,11.74564,0.34377,9.89,-1.21,-0.32,3.0
1758088950.5215,1758088950.53655,0.0,0.0,0.0,1.77617,10.8289,-0.11459,9.89,-1.21,-0.32,3.0
1758088950.53658,1758088950.54655,0.0,0.0,0.0,2.46372,9.4538,-0.22918,9.81,-1.21,-0.34,3.0
1758088950.53832,1758088950.55655,0.0,0.0,0.0,2.92208,8.65166,-0.0573,9.87,-1.02,-0.35,3.0
1758088950.55331,1758088950.56655,0.0,0.0,0.0,3.66693,7.33386,0.17189,9.87,-1.02,-0.35,3.0
1758088950.56931,1758088950.57655,0.0,0.0,0.0,4.87014,5.27121,0.80214,9.91,-0.83,-0.46,3.0
1758088950.57053,1758088950.58655,0.0,0.0,0.0,5.90147,4.0107,1.3178,9.91,-0.83,-0.46,3.0
1758088950.58564,1758088950.59655,0.0,0.0,0.0,7.16197,3.03668,1.43239,10.05,-0.79,-0.57,3.0
1758088950.58687,1758088950.60655,0.0,0.0,0.0,8.30789,2.57831,1.3751,10.05,-0.79,-0.57,3.0
1758088950.60232,1758088950.61655,0.0,0.0,0.0,9.96947,2.40642,1.3178,10.27,-0.98,-0.66,3.0
1758088950.61832,1758088950.62655,0.0,0.0,0.0,10.94349,2.97938,1.43239,10.4,-1.23,-0.7,3.0
1758088950.61954,1758088950.63655,0.0,0.0,0.0,11.51645,4.18259,1.60428,10.4,-1.23,-0.7,3.0
1758088950.63431,1758088950.64655,0.0,0.0,0.0,11.91752,5.55769,1.71887,10.28,-1.3,-0.72,3.0
1758088950.65034,1758088950.65655,0.0,0.0,0.0,12.37589,6.47442,1.48969,10.28,-1.3,-0.72,3.0
1758088950.65154,1758088950.66655,0.0,0.0,0.0,12.2613,5.90147,1.60428,9.88,-1.25,-0.69,3.0
1758088950.66664,1758088950.67655,0.0,0.0,0.0,12.14671,6.47442,1.77617,9.88,-1.25,-0.69,3.0
1758088950.66759,1758088950.68655,0.0,0.0,0.0,11.80293,7.96411,1.66158,9.79,-1.25,-0.7,3.0
1758088950.68374,1758088950.69655,0.0,0.0,0.0,11.28727,8.76626,0.80214,9.69,-1.2,-0.66,3.0
1758088950.69942,1758088950.70655,0.0,0.0,0.0,10.8289,8.47978,0.17189,9.69,-1.2,-0.66,3.0
1758088950.70099,1758088950.71655,0.0,0.0,0.0,10.37054,10.25595,-0.34377,9.79,-1.19,-0.6,3.0
1758088950.7155,1758088950.72655,0.0,0.0,0.0,10.48513,14.20935,-1.66158,9.79,-1.19,-0.6,3.0
1758088950.71662,1758088950.73655,0.0,0.0,0.0,9.68299,13.80828,-3.38045,10.01,-1.12,-0.69,3.0
1758088950.73251,1758088950.74655,0.0,0.0,0.0,8.93814,14.49583,-3.72423,10.01,-1.12,-0.69,3.0
1758088950.74836,1758088950.75655,0.0,0.0,0.0,8.0787,16.10011,-4.58366,10.3,-1.12,-0.3,3.0
1758088950.74961,1758088950.76655,0.0,0.0,0.0,7.84952,18.27736,-5.4431,10.3,-1.12,-0.3,3.0
1758088950.76442,1758088950.77655,0.0,0.0,0.0,8.02141,19.99623,-5.78687,10.34,-1.05,-0.53,3.0
1758088950.78057,1758088950.78655,0.0,0.0,0.0,8.70896,22.34536,-6.47442,10.31,-1.01,-0.52,3.0
1758088950.78163,1758088950.79655,0.0,0.0,0.0,9.85487,23.94964,-7.21927,10.31,-1.01,-0.52,3.0
1758088950.79646,1758088950.80655,0.0,0.0,0.0,12.54778,26.69983,-8.36518,10.23,-1.14,-0.59,3.0
1758088950.79846,1758088950.81655,0.0,0.0,0.0,15.12609,28.87707,-9.22462,10.23,-1.14,-0.59,3.0
1758088950.81345,1758088950.82655,0.0,0.0,0.0,18.10547,30.76784,-10.02676,10.39,-1.35,-0.5,3.0
1758088950.83223,1758088950.83655,0.0,0.0,0.0,21.37133,33.23156,-10.59972,10.39,-1.35,-0.5,3.0
1758088950.83251,1758088950.84655,0.0,0.0,0.0,26.41335,35.06502,-11.11538,10.63,-1.56,-0.5,3.0
1758088950.84551,1758088950.85655,0.0,0.0,0.0,29.96569,34.77854,-10.8862,10.72,-1.7,-0.17,3.0
1758088950.84748,1758088950.86655,0.0,0.0,0.0,33.23156,34.49206,-10.37054,10.72,-1.7,-0.17,3.0
1758088950.86274,1758088950.87655,0.0,0.0,0.0,36.15364,33.63263,-9.68299,11.28,-1.73,0.1,3.0
1758088950.87848,1758088950.88655,0.0,0.0,0.0,39.3622,30.76784,-8.25059,11.28,-1.73,0.1,3.0
1758088950.8805,1758088950.89655,0.0,0.0,0.0,40.7373,30.53865,-6.7609,12.13,-1.65,0.31,3.0
1758088950.89576,1758088950.90655,0.0,0.0,0.0,40.85189,34.26288,-5.78687,12.13,-1.65,0.31,3.0
1758088950.89749,1758088950.91655,0.0,0.0,0.0,40.10705,38.15899,-5.50039,13.72,-1.38,0.48,3.0
1758088950.91373,1758088950.92655,0.0,0.0,0.0,36.89849,39.99245,-5.72958,14.37,-0.6,0.92,3.0
1758088950.92949,1758088950.93655,0.0,0.0,0.0,34.43476,42.68536,-5.27121,14.37,-0.6,0.92,3.0
1758088950.93068,1758088950.94655,0.0,0.0,0.0,30.88243,46.1231,-6.35983,15.35,0.03,1.27,3.0
1758088950.9456,1758088950.95655,0.0,0.0,0.0,25.38203,48.64412,-8.136,15.35,0.03,1.27,3.0
1758088950.9467,1758088950.96655,0.0,0.0,0.0,21.42862,50.82136,-9.85487,15.44,0.35,1.52,3.0
1758088950.96376,1758088950.97655,0.0,0.0,0.0,17.58981,51.22243,-12.08941,15.44,0.35,1.52,3.0
1758088950.97949,1758088950.98655,0.0,0.0,0.0,13.98017,49.56085,-14.15206,14.86,0.26,1.94,3.0
1758088950.98099,1758088950.99655,0.0,0.0,0.0,8.70896,42.34158,-17.30333,14.86,0.26,1.94,3.0
1758088950.99553,1758088951.00655,0.0,0.0,0.0,5.61499,34.95043,-18.56383,13.5,0.07,2.27,3.0
1758088950.99675,1758088951.01655,0.0,0.0,0.0,2.63561,26.52795,-18.73572,11.88,-0.06,2.56,3.0
1758088951.01479,1758088951.02655,0.0,0.0,0.0,0.34377,16.73037,-17.87628,11.88,-0.06,2.56,3.0
1758088951.03059,1758088951.03655,0.0,0.0,0.0,-2.00535,1.83346,-14.9542,9.89,-0.22,2.68,3.0
1758088951.03175,1758088951.04655,0.0,0.0,0.0,-2.46372,-8.70896,-11.57375,9.89,-0.22,2.68,3.0
1758088951.04686,1758088951.05655,0.0,0.0,0.0,-2.6929,-20.62648,-7.84952,8.07,-0.39,3.18,3.0
1758088951.04779,1758088951.06655,0.0,0.0,0.0,-2.34913,-33.05967,-3.49504,8.07,-0.39,3.18,3.0
1758088951.06285,1758088951.07655,0.0,0.0,0.0,-1.48969,-48.70141,1.83346,7.06,-0.47,3.64,3.0
1758088951.07892,1758088951.08655,0.0,0.0,0.0,0.80214,-92.4754,4.69825,7.46,-0.42,3.59,3.0
1758088951.07986,1758088951.09655,0.0,0.0,0.0,0.40107,-58.04062,6.13065,7.46,-0.42,3.59,3.0
1758088951.09467,1758088951.10655,0.0,0.0,0.0,2.11994,-62.85347,6.8182,8.29,-0.28,3.46,3.0
1758088951.11065,1758088951.11655,0.0,0.0,0.0,4.92744,-60.90542,6.13065,8.29,-0.28,3.46,3.0
1758088951.11185,1758088951.12655,0.0,0.0,0.0,7.21927,-56.66553,4.58366,8.89,-0.14,3.0,3.0
1758088951.12655,1758088951.13655,0.0,0.0,0.0,9.74028,-51.5662,2.40642,8.89,-0.14,3.0,3.0
1758088951.12778,1758088951.14655,0.0,0.0,0.0,12.08941,-46.98254,-1.66158,8.92,-0.09,2.51,3.0
1758088951.14294,1758088951.15655,0.0,0.0,0.0,15.46986,-38.61736,-4.52637,8.73,0.05,2.11,3.0
1758088951.15894,1758088951.16655,0.0,0.0,0.0,17.30333,-31.2262,-7.50575,8.73,0.05,2.11,3.0
1758088951.16014,1758088951.17655,0.0,0.0,0.0,18.73572,-23.83505,-10.31324,8.9,0.34,1.88,3.0
1758088951.17496,1758088951.18655,0.0,0.0,0.0,19.82434,-12.204,-14.20935,8.9,0.34,1.88,3.0
1758088951.19071,1758088951.19655,0.0,0.0,0.0,19.82434,-4.18259,-16.67307,9.06,0.65,1.72,3.0
1758088951.19187,1758088951.20655,0.0,0.0,0.0,19.70975,3.60963,-19.07949,9.06,0.65,1.72,3.0
1758088951.20662,1758088951.21655,0.0,0.0,0.0,19.25138,10.65701,-21.25674,9.16,0.89,1.54,3.0
1758088951.20784,1758088951.22655,0.0,0.0,0.0,18.50654,20.11082,-23.60586,9.16,0.89,1.48,3.0
1758088951.22269,1758088951.23655,0.0,0.0,0.0,17.6471,24.23611,-24.4653,8.97,0.87,1.48,3.0
1758088951.23869,1758088951.24655,0.0,0.0,0.0,17.53251,27.33009,-24.86637,8.56,0.75,1.32,3.0
1758088951.23991,1758088951.25655,0.0,0.0,0.0,16.3293,29.56462,-25.15285,8.56,0.75,1.32,3.0
1758088951.25468,1758088951.26655,0.0,0.0,0.0,15.58445,29.10626,-24.80907,8.3,0.49,1.36,3.0
1758088951.27109,1758088951.27655,0.0,0.0,0.0,15.41257,29.33544,-24.63719,8.3,0.49,1.36,3.0
1758088951.27273,1758088951.28655,0.0,0.0,0.0,15.35527,27.78845,-24.57989,8.12,0.35,1.24,3.0
1758088951.288,1758088951.29655,0.0,0.0,0.0,15.46986,24.86637,-24.00693,8.12,0.35,1.24,3.0
1758088951.28893,1758088951.30655,0.0,0.0,0.0,15.12609,21.42862,-23.0902,7.72,0.47,1.18,3.0
1758088951.30381,1758088951.31655,0.0,0.0,0.0,14.9542,18.33465,-22.00158,7.64,0.69,0.93,3.0
1758088951.31981,1758088951.32655,0.0,0.0,0.0,14.43854,15.75634,-20.45459,7.64,0.69,0.93,3.0
1758088951.32054,1758088951.33655,0.0,0.0,0.0,13.46451,12.49048,-19.25138,7.51,0.92,0.78,3.0
1758088951.33599,1758088951.34655,0.0,0.0,0.0,11.63104,9.96947,-16.84496,7.51,0.92,0.78,3.0
1758088951.33726,1758088951.35655,0.0,0.0,0.0,10.19865,7.50575,-15.69904,7.71,1.12,0.96,3.0
1758088951.35378,1758088951.36655,0.0,0.0,0.0,8.42248,4.52637,-14.49583,7.71,1.12,0.96,3.0
1758088951.37004,1758088951.37655,0.0,0.0,0.0,6.13065,2.11994,-13.75099,7.7,1.25,1.03,3.0
1758088951.37042,1758088951.38655,0.0,0.0,0.0,4.35448,0.0,-13.80828,8.03,1.25,1.11,3.0
1758088951.38579,1758088951.39655,0.0,0.0,0.0,2.92208,-0.85944,-13.98017,8.03,1.25,1.11,3.0
1758088951.38702,1758088951.40655,0.0,0.0,0.0,1.48969,-1.66158,-14.15206,8.25,1.12,1.1,3.0
1758088951.40284,1758088951.41655,0.0,0.0,0.0,0.0,-3.38045,-13.69369,8.25,1.12,1.1,3.0
1758088951.41911,1758088951.42655,0.0,0.0,0.0,-0.22918,-4.23989,-13.06344,8.49,0.88,1.17,3.0
1758088951.42031,1758088951.43655,0.0,0.0,0.0,-0.85944,-5.09932,-12.71966,8.49,0.88,1.17,3.0
1758088951.43487,1758088951.44655,0.0,0.0,0.0,-0.74485,-4.87014,-12.37589,8.8,0.69,1.27,3.0
1758088951.43718,1758088951.45655,0.0,0.0,0.0,-0.51566,-4.58366,-12.37589,9.02,0.62,1.47,3.0
1758088951.45191,1758088951.46655,0.0,0.0,0.0,-0.40107,-5.90147,-13.06344,9.02,0.62,1.47,3.0
1758088951.46788,1758088951.47655,0.0,0.0,0.0,-0.57296,-9.28192,-13.5791,8.69,0.74,1.42,3.0
1758088951.46907,1758088951.48655,0.0,0.0,0.0,-1.43239,-12.54778,-13.80828,8.69,0.74,1.42,3.0
1758088951.48388,1758088951.49655,0.0,0.0,0.0,-3.09397,-15.64175,-13.40721,8.49,0.92,1.0,3.0
1758088951.4999,1758088951.50655,0.0,0.0,0.0,-5.15662,-15.64175,-13.06344,8.49,0.92,1.0,3.0
1758088951.50046,1758088951.51655,0.0,0.0,0.0,-7.50575,-16.61578,-12.43318,8.54,1.01,0.85,3.0
1758088951.51588,1758088951.52655,0.0,0.0,0.0,-9.74028,-19.19409,-11.57375,8.54,1.01,0.85,3.0
1758088951.51708,1758088951.53655,0.0,0.0,0.0,-13.34992,-24.23611,-9.85487,8.27,1.08,0.8,3.0
1758088951.53209,1758088951.54655,0.0,0.0,0.0,-15.29797,-26.18417,-8.70896,8.75,1.06,0.58,3.0
1758088951.5487,1758088951.55655,0.0,0.0,0.0,-17.13144,-27.1582,-7.33386,8.75,1.06,0.58,3.0
1758088951.54989,1758088951.56655,0.0,0.0,0.0,-18.9649,-27.10091,-5.15662,9.76,1.12,0.73,3.0
1758088951.565,1758088951.57655,0.0,0.0,0.0,-20.74107,-26.87172,-4.0107,9.76,1.12,0.73,3.0
1758088951.56615,1758088951.58655,0.0,0.0,0.0,-21.25674,-26.87172,-3.09397,10.31,1.15,1.01,3.0
1758088951.58149,1758088951.59655,0.0,0.0,0.0,-22.05888,-21.7724,-1.71887,10.31,1.15,1.01,3.0
1758088951.59684,1758088951.60655,0.0,0.0,0.0,-23.60586,-6.53172,-0.51566,11.29,1.41,1.1,3.0
1758088951.59896,1758088951.61655,0.0,0.0,0.0,-24.12152,1.3751,1.14592,11.3,1.6,1.01,3.0
1758088951.61394,1758088951.62655,0.0,0.0,0.0,-24.29341,-1.60428,1.14592,11.3,1.6,1.01,3.0
1758088951.61521,1758088951.63655,0.0,0.0,0.0,-24.12152,-7.50575,0.11459,9.79,1.66,0.94,3.0
1758088951.63052,1758088951.64655,0.0,0.0,0.0,-24.12152,-5.95876,-2.46372,9.79,1.66,0.94,3.0
1758088951.64598,1758088951.65655,0.0,0.0,0.0,-23.94964,0.45837,-3.49504,11.26,1.51,0.36,3.0
1758088951.64797,1758088951.66655,0.0,0.0,0.0,-23.20479,3.55234,-5.09932,11.26,1.51,0.36,3.0
1758088951.66326,1758088951.67655,0.0,0.0,0.0,-20.85567,-0.97403,-7.73493,11.76,1.25,1.28,3.0
1758088951.67925,1758088951.68655,0.0,0.0,0.0,-16.95955,-0.40107,-15.69904,12.67,1.04,2.04,3.0
1758088951.68021,1758088951.69655,0.0,0.0,0.0,-13.23533,13.80828,-19.48057,12.67,1.04,2.04,3.0
1758088951.69507,1758088951.70655,0.0,0.0,0.0,-10.31324,27.38738,-21.48592,14.21,0.61,0.55,3.0
1758088951.69618,1758088951.71655,0.0,0.0,0.0,-8.47978,35.63798,-22.11617,14.21,0.61,0.55,3.0
1758088951.71268,1758088951.72655,0.0,0.0,0.0,-6.53172,43.14373,-20.62648,13.67,0.42,1.13,3.0
1758088951.72829,1758088951.73655,0.0,0.0,0.0,-5.78687,46.75336,-17.81899,13.67,0.42,1.13,3.0
1758088951.72921,1758088951.74655,0.0,0.0,0.0,-5.78687,47.78468,-14.61043,14.5,0.87,1.6,3.0
1758088951.74396,1758088951.75655,0.0,0.0,0.0,-6.35983,50.47758,-10.8862,14.5,0.87,1.6,3.0
1758088951.7452,1758088951.76655,0.0,0.0,0.0,-8.59437,52.25375,-4.52637,15.42,2.15,2.5,3.0
1758088951.76159,1758088951.77655,0.0,0.0,0.0,-10.59972,48.52953,-0.68755,14.95,3.13,3.09,3.0
1758088951.77733,1758088951.78655,0.0,0.0,0.0,-12.54778,44.57612,2.97938,14.95,3.13,3.09,3.0
1758088951.77826,1758088951.79655,0.0,0.0,0.0,-15.69904,37.87251,7.39116,14.73,2.89,3.19,3.0
1758088951.79336,1758088951.80655,0.0,0.0,0.0,-17.81899,33.40344,9.62569,14.73,2.89,3.19,3.0
1758088951.80914,1758088951.81655,0.0,0.0,0.0,-20.11082,27.38738,11.45916,13.85,2.0,3.03,3.0
1758088951.8103,1758088951.82655,0.0,0.0,0.0,-23.0329,19.76705,12.71966,13.85,2.0,3.03,3.0
1758088951.82508,1758088951.83655,0.0,0.0,0.0,-28.13223,6.24524,13.46451,11.78,1.37,2.96,3.0
1758088951.82628,1758088951.84655,0.0,0.0,0.0,-31.56997,-2.63561,13.40721,9.61,1.18,2.66,3.0
1758088951.84137,1758088951.85655,0.0,0.0,0.0,-34.89313,-11.17268,12.83425,9.61,1.18,2.66,3.0
1758088951.85713,1758088951.86655,0.0,0.0,0.0,-37.98711,-19.48057,12.204,8.02,1.15,2.79,3.0
1758088951.85833,1758088951.87655,0.0,0.0,0.0,-41.94051,-33.34615,10.54242,8.02,1.15,2.79,3.0
1758088951.87315,1758088951.88655,0.0,0.0,0.0,-43.83128,-43.60209,9.4538,7.08,1.1,3.05,3.0
1758088951.8894,1758088951.89655,0.0,0.0,0.0,-45.37826,-52.54023,8.65166,7.08,1.1,3.05,3.0
1758088951.89033,1758088951.90655,0.0,0.0,0.0,-46.69606,-58.3844,7.79223,7.23,0.95,3.05,3.0
1758088951.90518,1758088951.91655,0.0,0.0,0.0,-48.12846,-62.16592,7.67763,8.15,0.98,2.6,3.0
1758088951.9072,1758088951.92655,0.0,0.0,0.0,-49.33167,-61.87944,8.136,8.15,0.98,2.6,3.0
1758088951.92409,1758088951.93655,0.0,0.0,0.0,-51.16513,-58.67088,9.05273,8.73,1.15,2.06,3.0
1758088951.9394,1758088951.94655,0.0,0.0,0.0,-53.05589,-53.11319,9.74028,8.73,1.15,2.06,3.0
1758088951.94058,1758088951.95655,0.0,0.0,0.0,-56.83742,-45.37826,10.59972,8.76,1.3,1.71,3.0
1758088951.95541,1758088951.96655,0.0,0.0,0.0,-59.53032,-41.65404,10.59972,8.76,1.3,1.71,3.0
1758088951.95635,1758088951.97655,0.0,0.0,0.0,-62.22322,-36.55471,10.94349,8.22,1.24,1.58,3.0
1758088951.97135,1758088951.98655,0.0,0.0,0.0,-65.89015,-30.36677,11.00079,8.22,1.24,1.58,3.0
1758088951.98717,1758088951.99655,0.0,0.0,0.0,-67.66632,-20.68378,11.28727,8.49,0.82,1.38,3.0
1758088951.98994,1758088952.00655,0.0,0.0,0.0,-68.69764,-13.40721,11.91752,8.7,0.16,1.27,3.0
1758088952.00541,1758088952.01655,0.0,0.0,0.0,-69.27061,-6.41713,13.12073,8.7,0.16,1.27,3.0
1758088952.00638,1758088952.02655,0.0,0.0,0.0,-69.04142,4.1253,15.0115,8.79,-0.41,1.15,3.0
1758088952.02149,1758088952.03655,0.0,0.0,0.0,-68.52576,10.08406,16.272,8.79,-0.41,1.15,3.0
1758088952.03749,1758088952.04655,0.0,0.0,0.0,-67.66632,15.06879,17.47521,8.52,-0.7,1.14,3.0
1758088952.03917,1758088952.05655,0.0,0.0,0.0,-66.46311,19.13679,18.50654,8.52,-0.7,1.14,3.0
1758088952.05422,1758088952.06655,0.0,0.0,0.0,-64.51505,24.00693,19.13679,8.27,-0.76,1.16,3.0
1758088952.0557,1758088952.07655,0.0,0.0,0.0,-63.02536,25.55392,18.9649,8.12,-0.7,1.2,3.0
1758088952.0725,1758088952.08655,0.0,0.0,0.0,-62.05133,25.7831,18.22006,8.12,-0.7,1.2,3.0
1758088952.08825,1758088952.09655,0.0,0.0,0.0,-60.67623,26.01229,16.73037,7.92,-0.68,1.09,3.0
1758088952.08945,1758088952.10655,0.0,0.0,0.0,-58.3844,24.86637,14.32395,7.92,-0.68,1.09,3.0
1758088952.10424,1758088952.11655,0.0,0.0,0.0,-56.952,23.0902,11.91752,7.83,-0.76,1.03,3.0
1758088952.10544,1758088952.12655,0.0,0.0,0.0,-55.29043,19.99623,10.48513,7.83,-0.76,1.03,3.0
1758088952.12354,1758088952.13655,0.0,0.0,0.0,-53.39967,17.6471,8.36518,7.58,-0.9,1.1,3.0
1758088952.12686,1758088952.14655,0.0,0.0,0.0,-49.96192,12.60507,5.78687,7.4,-1.09,0.99,3.0
1758088952.14232,1758088952.15655,0.0,0.0,0.0,-47.26902,9.33921,4.46907,7.4,-1.09,0.99,3.0
1758088952.15956,1758088952.16655,0.0,0.0,0.0,-44.23235,6.18794,3.55234,7.47,-1.29,1.21,3.0
1758088952.16049,1758088952.17655,0.0,0.0,0.0,-40.96649,2.00535,3.55234,7.47,-1.29,1.21,3.0
1758088952.17555,1758088952.18655,0.0,0.0,0.0,-35.40879,-3.72423,3.95341,7.59,-1.4,1.22,3.0
1758088952.1765,1758088952.19655,0.0,0.0,0.0,-31.74186,-6.47442,4.81285,7.59,-1.4,1.22,3.0
1758088952.19127,1758088952.20655,0.0,0.0,0.0,-27.96034,-9.22462,5.84417,8.0,-1.52,1.23,3.0
1758088952.2073,1758088952.21655,0.0,0.0,0.0,-22.28806,-12.14671,6.70361,8.0,-1.52,1.23,3.0
1758088952.20851,1758088952.22655,0.0,0.0,0.0,-18.62113,-13.23533,7.16197,8.27,-1.63,1.24,3.0
1758088952.22335,1758088952.23655,0.0,0.0,0.0,-15.24068,-14.03747,7.50575,8.66,-1.64,1.17,3.0
1758088952.22532,1758088952.24655,0.0,0.0,0.0,-11.97482,-14.38124,8.02141,8.66,-1.64,1.17,3.0
1758088952.24204,1758088952.25655,0.0,0.0,0.0,-8.25059,-13.69369,8.76626,9.11,-1.47,1.21,3.0
1758088952.25856,1758088952.26655,0.0,0.0,0.0,-5.84417,-12.204,9.28192,9.11,-1.47,1.21,3.0
1758088952.25955,1758088952.27655,0.0,0.0,0.0,-3.89611,-10.19865,9.91217,9.62,-1.07,1.06,3.0
1758088952.27436,1758088952.28655,0.0,0.0,0.0,-1.83346,-6.99009,10.37054,9.62,-1.07,1.06,3.0
1758088952.27602,1758088952.29655,0.0,0.0,0.0,0.80214,-1.71887,11.00079,9.93,-0.69,0.93,3.0
1758088952.29177,1758088952.30655,0.0,0.0,0.0,2.23454,1.66158,11.00079,9.82,-0.37,0.88,3.0
1758088952.30836,1758088952.31655,0.0,0.0,0.0,2.86479,4.52637,9.85487,9.82,-0.37,0.88,3.0
1758088952.30959,1758088952.32655,0.0,0.0,0.0,4.69825,4.0107,8.36518,9.26,-0.2,0.75,3.0
1758088952.32437,1758088952.33655,0.0,0.0,0.0,10.37054,3.03668,7.62034,9.26,-0.2,0.75,3.0
1758088952.32561,1758088952.34655,0.0,0.0,0.0,14.9542,6.35983,7.04738,9.59,-1.16,0.48,3.0
1758088952.34159,1758088952.35655,0.0,0.0,0.0,19.59516,9.74028,6.58902,9.59,-1.16,0.48,3.0
1758088952.35832,1758088952.36655,0.0,0.0,0.0,24.17882,12.2613,6.13065,9.75,-1.63,0.49,3.0
1758088952.35955,1758088952.37655,0.0,0.0,0.0,29.9084,12.08941,5.27121,9.39,-1.54,0.52,3.0
1758088952.3744,1758088952.38655,0.0,0.0,0.0,33.05967,10.37054,4.69825,9.39,-1.54,0.52,3.0
1758088952.37638,1758088952.39655,0.0,0.0,0.0,35.2369,8.59437,4.64096,9.41,-1.22,0.44,3.0
1758088952.39267,1758088952.40655,0.0,0.0,0.0,37.35685,5.84417,4.98473,9.41,-1.22,0.44,3.0
1758088952.40867,1758088952.41655,0.0,0.0,0.0,37.98711,3.89611,5.50039,9.95,-0.83,0.62,3.0
1758088952.40962,1758088952.42655,0.0,0.0,0.0,37.98711,2.34913,5.50039,9.95,-0.83,0.62,3.0
1758088952.42444,1758088952.43655,0.0,0.0,0.0,37.12767,0.74485,5.21392,10.63,-0.56,0.88,3.0
1758088952.42642,1758088952.44655,0.0,0.0,0.0,35.52338,-9.62569,4.0107,10.63,-0.56,0.88,3.0
1758088952.44451,1758088952.45655,0.0,0.0,0.0,34.37747,-5.15662,2.34913,10.88,-0.49,1.2,3.0
1758088952.44696,1758088952.46655,0.0,0.0,0.0,33.46074,10.65701,3.55234,13.94,-0.7,1.97,3.0
1758088952.46244,1758088952.47655,0.0,0.0,0.0,28.59059,24.86637,4.0107,13.94,-0.7,1.97,3.0
1758088952.47933,1758088952.48655,0.0,0.0,0.0,23.49127,19.25138,7.21927,14.18,-0.29,3.18,3.0
1758088952.48138,1758088952.49655,0.0,0.0,0.0,18.56383,-1.71887,11.17268,14.18,-0.29,3.18,3.0
1758088952.49653,1758088952.50655,0.0,0.0,0.0,14.32395,-9.91217,15.87093,12.62,0.79,2.61,3.0
1758088952.49764,1758088952.51655,0.0,0.0,0.0,10.8289,-2.06265,17.24603,12.62,0.79,2.61,3.0
1758088952.51269,1758088952.52655,0.0,0.0,0.0,6.87549,18.79302,15.0115,16.19,0.95,1.49,3.0
1758088952.52872,1758088952.53655,0.0,0.0,0.0,5.4431,28.64789,12.71966,15.93,0.23,2.92,3.0
1758088952.52965,1758088952.54655,0.0,0.0,0.0,4.23989,30.93972,9.74028,15.93,0.23,2.92,3.0
1758088952.54475,1758088952.55655,0.0,0.0,0.0,2.92208,31.85646,6.07335,14.8,-0.87,3.18,3.0
1758088952.54648,1758088952.56655,0.0,0.0,0.0,0.34377,33.68992,-1.77617,14.8,-0.87,3.18,3.0
1758088952.56274,1758088952.57655,0.0,0.0,0.0,-1.14592,34.72124,-7.10468,14.51,-1.17,2.78,3.0
1758088952.57978,1758088952.58655,0.0,0.0,0.0,-2.6929,35.40879,-12.2613,14.51,-1.17,2.78,3.0
1758088952.58257,1758088952.59655,0.0,0.0,0.0,-3.55234,35.00772,-17.36062,13.28,-0.68,2.84,3.0
1758088952.59943,1758088952.60655,0.0,0.0,0.0,-3.89611,28.64789,-19.07949,10.93,-0.18,2.78,3.0
1758088952.60054,1758088952.61655,0.0,0.0,0.0,-3.03668,21.02755,-19.19409,10.93,-0.18,2.78,3.0
1758088952.61547,1758088952.62655,0.0,0.0,0.0,-1.66158,12.83425,-17.99088,8.75,-0.15,2.66,3.0
1758088952.61673,1758088952.63655,0.0,0.0,0.0,1.71887,-3.55234,-14.43854,8.75,-0.15,2.66,3.0
1758088952.63223,1758088952.64655,0.0,0.0,0.0,3.95341,-16.50119,-11.51645,6.88,-0.49,2.86,3.0
1758088952.64854,1758088952.65655,0.0,0.0,0.0,6.07335,-27.67386,-8.88085,6.88,-0.49,2.86,3.0
1758088952.64993,1758088952.66655,0.0,0.0,0.0,7.84952,-35.52338,-6.70361,6.23,-0.83,3.04,3.0
1758088952.66469,1758088952.67655,0.0,0.0,0.0,9.85487,-41.59674,-5.55769,6.74,-0.83,2.36,3.0
1758088952.6669,1758088952.68655,0.0,0.0,0.0,9.96947,-40.96649,-6.07335,6.74,-0.9,2.36,3.0
1758088952.68578,1758088952.69655,0.0,0.0,0.0,9.5684,-37.29956,-8.65166,7.82,-0.43,2.18,3.0
1758088952.68912,1758088952.70655,0.0,0.0,0.0,11.00079,-33.51803,-10.02676,7.82,-0.43,2.18,3.0
1758088952.70452,1758088952.71655,0.0,0.0,0.0,15.06879,-26.18417,-11.34457,8.58,-0.27,1.79,3.0
1758088952.71083,1758088952.72655,0.0,0.0,0.0,18.22006,-21.88699,-11.91752,8.58,-0.27,1.79,3.0
1758088952.72768,1758088952.73655,0.0,0.0,0.0,21.42862,-18.33465,-12.2613,8.62,-0.11,2.17,3.0
1758088952.73042,1758088952.74655,0.0,0.0,0.0,24.57989,-15.75634,-12.49048,8.62,-0.11,2.17,3.0
1758088952.74587,1758088952.75655,0.0,0.0,0.0,28.59059,-10.37054,-12.89155,8.47,0.11,2.34,3.0
1758088952.74761,1758088952.76655,0.0,0.0,0.0,30.59595,-5.21392,-13.80828,8.83,0.31,2.15,3.0
1758088952.7647,1758088952.77655,0.0,0.0,0.0,32.48671,-0.74485,-14.38124,8.83,0.31,2.15,3.0
1758088952.76642,1758088952.78655,0.0,0.0,0.0,34.14828,4.98473,-15.58445,9.45,0.24,2.01,3.0
1758088952.78365,1758088952.79655,0.0,0.0,0.0,35.75257,14.09476,-16.67307,9.45,0.24,2.01,3.0
1758088952.79952,1758088952.80655,0.0,0.0,0.0,36.15364,17.18874,-17.30333,9.77,0.01,2.0,3.0
1758088952.80076,1758088952.81655,0.0,0.0,0.0,36.15364,18.50654,-17.76169,9.77,0.01,2.0,3.0
1758088952.81674,1758088952.82655,0.0,0.0,0.0,36.26823,18.79302,-16.67307,9.45,-0.21,2.14,3.0
1758088952.81765,1758088952.83655,0.0,0.0,0.0,35.92446,18.33465,-15.29797,9.36,-0.27,2.08,3.0
1758088952.83289,1758088952.84655,0.0,0.0,0.0,35.86716,18.85031,-13.5218,9.36,-0.27,2.08,3.0
1758088952.8486,1758088952.85655,0.0,0.0,0.0,36.15364,17.58981,-11.80293,8.89,-0.11,1.94,3.0
1758088952.84978,1758088952.86655,0.0,0.0,0.0,36.38282,12.83425,-9.11003,8.89,-0.11,1.94,3.0
1758088952.86465,1758088952.87655,0.0,0.0,0.0,37.01308,8.70896,-7.73493,8.12,0.11,1.98,3.0
1758088952.86584,1758088952.88655,0.0,0.0,0.0,37.64333,6.24524,-6.7609,8.12,0.11,1.98,3.0
1758088952.88248,1758088952.89655,0.0,0.0,0.0,38.50277,4.29718,-6.8182,7.97,0.36,1.64,3.0
1758088952.89872,1758088952.90655,0.0,0.0,0.0,38.84654,1.08862,-7.50575,7.86,0.6,1.51,3.0
1758088952.89986,1758088952.91655,0.0,0.0,0.0,38.61736,-0.11459,-8.0787,7.86,0.6,1.51,3.0
1758088952.91471,1758088952.92655,0.0,0.0,0.0,37.98711,-1.03132,-8.70896,7.91,0.84,1.28,3.0
1758088952.91589,1758088952.93655,0.0,0.0,0.0,37.01308,-1.94806,-8.99544,7.91,0.84,1.28,3.0
1758088952.93251,1758088952.94655,0.0,0.0,0.0,34.95043,-2.29183,-9.39651,7.87,0.98,1.2,3.0
1758088952.94891,1758088952.95655,0.0,0.0,0.0,33.00237,-1.66158,-9.62569,7.87,0.98,1.2,3.0
1758088952.94991,1758088952.96655,0.0,0.0,0.0,31.2262,-0.85944,-9.91217,7.9,1.05,1.09,3.0
1758088952.96461,1758088952.97655,0.0,0.0,0.0,29.10626,0.22918,-10.19865,7.9,1.05,1.09,3.0
1758088952.96585,1758088952.98655,0.0,0.0,0.0,26.41335,2.06265,-10.8289,7.95,1.01,1.02,3.0
1758088952.98201,1758088952.99655,0.0,0.0,0.0,24.86637,4.18259,-10.94349,8.12,0.88,0.98,3.0
1758088952.99853,1758088953.00655,0.0,0.0,0.0,23.26209,6.18794,-10.8289,8.12,0.88,0.98,3.0
1758088953.00013,1758088953.01655,0.0,0.0,0.0,21.14215,8.02141,-9.74028,8.3,0.67,0.98,3.0
1758088953.01475,1758088953.02655,0.0,0.0,0.0,20.05352,10.8289,-8.47978,8.3,0.67,0.98,3.0
1758088953.01704,1758088953.03655,0.0,0.0,0.0,18.85031,12.37589,-6.8182,8.48,0.55,1.1,3.0
1758088953.03274,1758088953.04655,0.0,0.0,0.0,17.81899,13.98017,-4.81285,8.48,0.55,1.1,3.0
1758088953.04875,1758088953.05655,0.0,0.0,0.0,15.87093,15.29797,-1.48969,8.55,0.54,1.01,3.0
1758088953.04993,1758088953.06655,0.0,0.0,0.0,14.66772,14.32395,0.51566,8.41,0.61,1.15,3.0
1758088953.0648,1758088953.07655,0.0,0.0,0.0,13.06344,12.2613,2.40642,8.41,0.61,1.15,3.0
1758088953.06602,1758088953.08655,0.0,0.0,0.0,11.57375,8.99544,4.0107,8.29,0.78,1.17,3.0
1758088953.08187,1758088953.09655,0.0,0.0,0.0,9.11003,1.3751,5.55769,8.29,0.78,1.17,3.0
1758088953.09859,1758088953.10655,0.0,0.0,0.0,7.21927,-2.46372,5.84417,8.27,0.98,1.04,3.0
1758088953.09979,1758088953.11655,0.0,0.0,0.0,5.32851,-5.15662,5.27121,8.27,0.98,1.04,3.0
1758088953.11479,1758088953.12655,0.0,0.0,0.0,3.20856,-6.35983,4.0107,8.79,1.18,0.91,3.0
1758088953.11601,1758088953.13655,0.0,0.0,0.0,0.0573,-6.8182,0.74485,9.41,1.38,0.96,3.0
1758088953.13213,1758088953.14655,0.0,0.0,0.0,-2.34913,-6.8182,-2.00535,9.41,1.38,0.96,3.0
1758088953.14791,1758088953.15655,0.0,0.0,0.0,-4.81285,-5.90147,-4.35448,10.23,1.51,0.85,3.0
1758088953.14907,1758088953.16655,0.0,0.0,0.0,-7.67763,-3.89611,-7.10468,10.23,1.51,0.85,3.0
1758088953.16418,1758088953.17655,0.0,0.0,0.0,-11.51645,0.68755,-10.59972,11.2,1.57,0.94,3.0
1758088953.17989,1758088953.18655,0.0,0.0,0.0,-13.5218,3.20856,-12.204,11.2,1.57,0.94,3.0
1758088953.1811,1758088953.19655,0.0,0.0,0.0,-15.24068,5.32851,-12.83425,12.0,1.49,0.92,3.0
1758088953.19616,1758088953.20655,0.0,0.0,0.0,-15.69904,6.07335,-10.94349,12.0,1.49,0.92,3.0
1758088953.1971,1758088953.21655,0.0,0.0,0.0,-15.06879,-10.37054,-10.02676,12.53,1.37,1.28,3.0
1758088953.21217,1758088953.22655,0.0,0.0,0.0,-13.23533,-24.86637,-9.5684,12.16,1.4,2.57,3.0
1758088953.22903,1758088953.23655,0.0,0.0,0.0,-10.31324,-29.62192,-11.17268,12.16,1.4,2.57,3.0
1758088953.2299,1758088953.24655,0.0,0.0,0.0,-4.35448,-21.37133,-14.72501,15.57,1.51,3.44,3.0
1758088953.24519,1758088953.25655,0.0,0.0,0.0,-0.68755,-7.33386,-17.30333,15.57,1.51,3.44,3.0
1758088953.24614,1758088953.26655,0.0,0.0,0.0,2.00535,14.9542,-19.48057,17.24,1.2,2.82,3.0
1758088953.26193,1758088953.27655,0.0,0.0,0.0,4.23989,28.59059,-19.53786,17.24,1.2,2.82,3.0
1758088953.27901,1758088953.28655,0.0,0.0,0.0,4.92744,41.36755,-17.53251,15.69,1.27,2.6,3.0
1758088953.28023,1758088953.29655,0.0,0.0,0.0,3.95341,38.38818,-14.15206,13.97,2.1,3.64,3.0
1758088953.2952,1758088953.30655,0.0,0.0,0.0,2.63561,33.23156,-9.68299,13.97,2.1,3.64,3.0
1758088953.29623,1758088953.31655,0.0,0.0,0.0,1.14592,29.8511,-5.09932,13.64,2.26,3.85,3.0
1758088953.3119,1758088953.32655,0.0,0.0,0.0,-0.57296,28.64789,2.29183,13.64,2.26,3.85,3.0
1758088953.32986,1758088953.33655,0.0,0.0,0.0,-1.03132,29.39274,6.70361,13.47,1.77,3.71,3.0
1758088953.33079,1758088953.34655,0.0,0.0,0.0,-1.20321,28.36141,10.94349,13.47,1.77,3.71,3.0
1758088953.34596,1758088953.35655,0.0,0.0,0.0,-1.14592,24.17882,14.83961,11.81,1.1,3.45,3.0
1758088953.34726,1758088953.36655,0.0,0.0,0.0,-2.00535,15.35527,18.56383,9.88,0.82,3.3,3.0
1758088953.36193,1758088953.37655,0.0,0.0,0.0,-3.09397,7.79223,19.48057,9.88,0.82,3.3,3.0
1758088953.37798,1758088953.38655,0.0,0.0,0.0,-4.52637,-1.77617,19.36597,8.18,0.84,3.41,3.0
1758088953.37917,1758088953.39655,0.0,0.0,0.0,-6.07335,-14.38124,18.27736,8.18,0.84,3.41,3.0
1758088953.39399,1758088953.40655,0.0,0.0,0.0,-8.65166,-35.2942,15.69904,6.61,0.88,3.61,3.0
1758088953.41008,1758088953.41655,0.0,0.0,0.0,-10.8862,-47.32632,13.23533,6.61,0.88,3.61,3.0
1758088953.41123,1758088953.42655,0.0,0.0,0.0,-13.5218,-56.78012,10.8862,6.54,0.87,3.27,3.0
1758088953.42598,1758088953.43655,0.0,0.0,0.0,-17.87628,-65.37449,7.10468,6.54,0.87,3.27,3.0
1758088953.42722,1758088953.44655,0.0,0.0,0.0,-20.97026,-68.06739,4.69825,7.33,0.94,2.71,3.0
1758088953.44202,1758088953.45655,0.0,0.0,0.0,-24.35071,-67.37984,2.97938,8.04,1.13,2.06,3.0
1758088953.45903,1758088953.46655,0.0,0.0,0.0,-28.41871,-65.48907,1.66158,8.04,1.13,2.06,3.0
1758088953.46022,1758088953.47655,0.0,0.0,0.0,-35.40879,-60.10328,-0.57296,8.28,1.29,1.73,3.0
1758088953.47505,1758088953.48655,0.0,0.0,0.0,-40.39353,-56.55093,-1.71887,8.28,1.29,1.73,3.0
1758088953.47708,1758088953.49655,0.0,0.0,0.0,-45.37826,-52.71212,-2.11994,8.3,1.27,1.58,3.0
1758088953.4941,1758088953.50655,0.0,0.0,0.0,-50.1911,-47.61279,-1.94806,8.3,1.27,1.58,3.0
1758088953.51008,1758088953.51655,0.0,0.0,0.0,-56.32175,-38.50277,-0.17189,8.6,1.06,1.4,3.0
1758088953.51128,1758088953.52655,0.0,0.0,0.0,-59.87409,-31.39809,2.06265,9.0,0.72,1.08,3.0
1758088953.52705,1758088953.53655,0.0,0.0,0.0,-62.91077,-23.66316,4.92744,9.0,0.72,1.08,3.0
1758088953.52982,1758088953.54655,0.0,0.0,0.0,-65.2026,-15.41257,8.42248,9.43,0.41,0.9,3.0
1758088953.54509,1758088953.55655,0.0,0.0,0.0,-67.43713,-2.57831,13.12073,9.43,0.41,0.9,3.0
1758088953.54712,1758088953.56655,0.0,0.0,0.0,-68.29657,5.32851,15.64175,9.55,0.22,0.79,3.0
1758088953.56511,1758088953.57655,0.0,0.0,0.0,-69.27061,12.37589,17.47521,9.55,0.22,0.79,3.0
1758088953.56975,1758088953.58655,0.0,0.0,0.0,-69.55708,17.53251,18.85031,9.24,0.16,0.82,3.0
1758088953.58517,1758088953.59655,0.0,0.0,0.0,-70.18733,22.68913,18.85031,8.8,0.12,1.04,3.0
1758088953.58722,1758088953.60655,0.0,0.0,0.0,-69.95815,24.57989,18.16276,8.8,0.12,1.04,3.0
1758088953.60312,1758088953.61655,0.0,0.0,0.0,-70.58841,24.17882,17.53251,8.33,0.0,1.06,3.0
1758088953.61918,1758088953.62655,0.0,0.0,0.0,-70.24463,25.43933,15.35527,8.33,0.0,1.06,3.0
1758088953.62034,1758088953.63655,0.0,0.0,0.0,-69.61437,24.92367,13.17803,8.2,-0.25,1.02,3.0
1758088953.63519,1758088953.64655,0.0,0.0,0.0,-68.12468,23.66316,10.48513,8.2,-0.25,1.02,3.0
1758088953.63631,1758088953.65655,0.0,0.0,0.0,-66.17663,22.00158,7.44845,7.74,-0.55,1.05,3.0
1758088953.6522,1758088953.66655,0.0,0.0,0.0,-61.76485,18.56383,2.40642,7.74,-0.55,1.05,3.0
1758088953.66823,1758088953.67655,0.0,0.0,0.0,-58.26981,15.69904,-0.85944,7.55,-0.85,1.0,3.0
1758088953.66936,1758088953.68655,0.0,0.0,0.0,-54.48829,12.54778,-3.66693,7.47,-1.06,0.99,3.0
1758088953.68428,1758088953.69655,0.0,0.0,0.0,-50.76406,9.96947,-5.95876,7.47,-1.06,0.99,3.0
1758088953.70126,1758088953.70655,0.0,0.0,0.0,-45.72203,5.84417,-8.02141,7.64,-1.21,0.92,3.0
1758088953.70224,1758088953.71655,0.0,0.0,0.0,-42.85724,3.49504,-8.0787,7.64,-1.21,0.92,3.0
1758088953.7174,1758088953.72655,0.0,0.0,0.0,-40.33623,0.68755,-7.39116,7.94,-1.27,0.82,3.0
1758088953.72001,1758088953.73655,0.0,0.0,0.0,-38.1017,-1.60428,-6.13065,7.94,-1.27,0.82,3.0
1758088953.73582,1758088953.74655,0.0,0.0,0.0,-34.89313,-4.64096,-3.60963,8.27,-1.17,0.83,3.0
1758088953.73721,1758088953.75655,0.0,0.0,0.0,-32.77319,-5.90147,-1.94806,8.46,-0.98,0.93,3.0
1758088953.75253,1758088953.76655,0.0,0.0,0.0,-30.82513,-6.70361,-0.85944,8.46,-0.98,0.93,3.0
1758088953.76826,1758088953.77655,0.0,0.0,0.0,-29.04896,-7.50575,-0.0573,8.71,-0.75,0.95,3.0
1758088953.76945,1758088953.78655,0.0,0.0,0.0,-26.81443,-8.25059,0.40107,8.71,-0.75,0.95,3.0
1758088953.78424,1758088953.79655,0.0,0.0,0.0,-25.61122,-8.0787,0.22918,9.05,-0.56,0.92,3.0
1758088953.80032,1758088953.80655,0.0,0.0,0.0,-24.86637,-7.50575,-0.0573,9.05,-0.56,0.92,3.0
1758088953.80148,1758088953.81655,0.0,0.0,0.0,-23.66316,-7.21927,-0.85944,9.41,-0.49,0.91,3.0
1758088953.81952,1758088953.82655,0.0,0.0,0.0,-22.00158,-5.21392,-2.46372,9.55,-0.61,0.7,3.0
1758088953.82045,1758088953.83655,0.0,0.0,0.0,-20.45459,-2.86479,-3.89611,9.55,-0.61,0.7,3.0
1758088953.83549,1758088953.84655,0.0,0.0,0.0,-18.73572,2.40642,-5.15662,9.97,-0.77,0.45,3.0
1758088953.8365,1758088953.85655,0.0,0.0,0.0,-15.24068,15.75634,-7.16197,9.97,-0.77,0.45,3.0
1758088953.85257,1758088953.86655,0.0,0.0,0.0,-12.2613,24.4653,-7.84952,10.97,-0.89,0.26,3.0
1758088953.86867,1758088953.87655,0.0,0.0,0.0,-8.99544,30.65324,-8.47978,10.97,-0.89,0.26,3.0
1758088953.86955,1758088953.88655,0.0,0.0,0.0,-5.50039,34.95043,-8.30789,11.38,-0.97,0.34,3.0
1758088953.88465,1758088953.89655,0.0,0.0,0.0,-0.80214,40.04975,-7.21927,11.38,-0.97,0.74,3.0
1758088953.90023,1758088953.90655,0.0,0.0,0.0,1.94806,43.20102,-6.13065,12.36,-1.07,0.74,3.0
1758088953.90315,1758088953.91655,0.0,0.0,0.0,4.18259,36.84119,-7.62034,12.7,-1.24,1.58,3.0
1758088953.91967,1758088953.92655,0.0,0.0,0.0,8.76626,2.97938,-4.87014,12.7,-1.24,1.58,3.0
1758088953.92054,1758088953.93655,0.0,0.0,0.0,11.45916,-25.21014,3.72423,11.67,-1.68,3.08,3.0
1758088953.96706,1758088953.94655,0.0,0.0,0.0,8.0787,-6.7609,5.84417,11.67,-1.68,3.08,3.0
1758088953.9725,1758088953.95655,0.0,0.0,0.0,8.70896,16.272,11.80293,19.35,-0.89,4.09,3.0
1758088953.97284,1758088953.96655,0.0,0.0,0.0,8.136,26.01229,15.41257,19.35,-0.89,4.09,3.0
1758088953.97416,1758088953.97655,0.0,0.0,0.0,8.70896,33.40344,16.95955,17.63,0.39,4.18,3.0
1758088953.97476,1758088953.98655,0.0,0.0,0.0,9.74028,28.64789,14.20935,14.6,0.01,3.67,3.0
1758088953.99041,1758088953.99655,0.0,0.0,0.0,11.63104,20.51189,9.28192,14.6,0.01,3.67,3.0
1758088953.99395,1758088954.00655,0.0,0.0,0.0,14.32395,15.41257,3.72423,13.34,-0.6,3.58,3.0
1758088954.00953,1758088954.01655,0.0,0.0,0.0,17.81899,13.12073,-4.58366,13.34,-0.6,3.58,3.0
1758088954.01539,1758088954.02655,0.0,0.0,0.0,19.76705,11.74564,-8.76626,12.95,-0.67,3.32,3.0
1758088954.0538,1758088954.03655,0.0,0.0,0.0,21.02755,9.28192,-11.28727,12.95,-0.67,3.32,3.0
1758088954.05501,1758088954.04655,0.0,0.0,0.0,22.40265,5.90147,-12.49048,10.76,-0.39,2.93,3.0
1758088954.05643,1758088954.05655,0.0,0.0,0.0,23.20479,2.00535,-11.80293,8.72,-0.06,2.69,3.0
1758088954.05931,1758088954.06655,0.0,0.0,0.0,23.89234,-0.40107,-10.31324,8.72,-0.06,2.69,3.0
1758088954.05992,1758088954.07655,0.0,0.0,0.0,24.35071,-6.24524,-8.36518,6.75,0.04,3.38,3.0
1758088954.07643,1758088954.08655,0.0,0.0,0.0,24.35071,-22.91831,-4.29718,6.75,0.04,3.38,3.0
1758088954.07924,1758088954.09655,0.0,0.0,0.0,23.89234,-30.48136,-1.83346,5.37,-0.15,3.65,3.0
1758088954.09447,1758088954.10655,0.0,0.0,0.0,25.61122,-36.89849,0.57296,5.37,-0.15,3.65,3.0
1758088954.11052,1758088954.11655,0.0,0.0,0.0,25.26744,-47.15443,2.34913,6.1,-0.32,2.82,3.0
1758088954.11332,1758088954.12655,0.0,0.0,0.0,24.86637,-62.39511,3.26586,6.82,-0.32,2.67,3.0
1758088954.12888,1758088954.13655,0.0,0.0,0.0,26.75713,-74.14074,3.26586,6.82,-0.21,2.67,3.0
1758088954.12965,1758088954.14655,0.0,0.0,0.0,27.2155,-73.10942,4.23989,8.58,0.05,2.13,3.0
1758088954.14449,1758088954.15655,0.0,0.0,0.0,28.87707,-60.27517,5.50039,8.58,0.05,2.13,3.0
1758088954.14892,1758088954.16655,0.0,0.0,0.0,31.51268,-39.76327,4.23989,10.38,0.5,1.54,3.0
1758088954.16449,1758088954.17655,0.0,0.0,0.0,33.74722,-33.23156,4.64096,10.38,0.5,1.54,3.0
1758088954.18052,1758088954.18655,0.0,0.0,0.0,36.21093,-28.24682,5.32851,8.4,0.76,1.98,3.0
1758088954.1825,1758088954.19655,0.0,0.0,0.0,37.87251,-21.94428,4.64096,8.4,0.76,1.98,3.0
1758088954.19909,1758088954.20655,0.0,0.0,0.0,39.01843,-8.65166,0.34377,8.13,0.9,1.85,3.0
1758088954.20024,1758088954.21655,0.0,0.0,0.0,38.90384,0.11459,-3.83882,8.85,1.23,1.82,3.0
1758088954.21548,1758088954.22655,0.0,0.0,0.0,38.73195,6.87549,-8.59437,8.85,1.23,1.82,3.0
1758088954.21681,1758088954.23655,0.0,0.0,0.0,38.38818,11.80293,-15.06879,9.22,1.12,1.82,3.0
1758088954.23254,1758088954.24655,0.0,0.0,0.0,38.1017,18.9649,-18.33465,9.22,1.12,1.82,3.0
1758088954.24857,1758088954.25655,0.0,0.0,0.0,38.21629,23.0902,-19.82434,9.32,0.6,1.73,3.0
1758088954.25056,1758088954.26655,0.0,0.0,0.0,38.50277,27.50197,-20.11082,9.32,0.6,1.73,3.0
1758088954.26551,1758088954.27655,0.0,0.0,0.0,39.13302,32.83048,-17.6471,9.31,0.05,1.8,3.0
1758088954.2672,1758088954.28655,0.0,0.0,0.0,40.16434,34.60666,-14.49583,8.89,-0.22,1.67,3.0
1758088954.28355,1758088954.29655,0.0,0.0,0.0,41.48215,35.12231,-10.48513,8.89,-0.22,1.67,3.0
1758088954.29955,1758088954.30655,0.0,0.0,0.0,42.34158,35.12231,-6.18794,8.52,-0.13,1.48,3.0
1758088954.30074,1758088954.31655,0.0,0.0,0.0,43.77398,33.68992,-1.43239,8.52,-0.13,1.48,3.0
1758088954.31547,1758088954.32655,0.0,0.0,0.0,44.28964,31.97105,0.34377,8.31,0.24,1.45,3.0
1758088954.31679,1758088954.33655,0.0,0.0,0.0,44.63341,29.39274,1.43239,8.31,0.24,1.45,3.0
1758088954.33272,1758088954.34655,0.0,0.0,0.0,44.57612,27.44468,1.43239,8.07,0.73,1.36,3.0
1758088954.34856,1758088954.35655,0.0,0.0,0.0,43.54479,23.37668,1.08862,7.94,1.12,1.32,3.0
1758088954.34979,1758088954.36655,0.0,0.0,0.0,42.28429,19.76705,0.85944,7.94,1.12,1.32,3.0
1758088954.36469,1758088954.37655,0.0,0.0,0.0,40.45082,16.84496,0.85944,7.72,1.26,1.34,3.0
1758088954.38092,1758088954.38655,0.0,0.0,0.0,38.15899,14.03747,1.14592,7.72,1.26,1.34,3.0
1758088954.38138,1758088954.39655,0.0,0.0,0.0,34.14828,10.19865,1.60428,7.77,1.25,1.34,3.0
1758088954.39667,1758088954.40655,0.0,0.0,0.0,31.45539,7.33386,1.60428,7.77,1.25,1.34,3.0
1758088954.39864,1758088954.41655,0.0,0.0,0.0,28.76248,4.46907,1.14592,7.93,1.13,1.33,3.0
1758088954.41393,1758088954.42655,0.0,0.0,0.0,26.18417,2.92208,0.45837,7.93,1.13,1.33,3.0
1758088954.43001,1758088954.43655,0.0,0.0,0.0,22.74642,2.06265,-1.3178,8.33,1.07,1.37,3.0
1758088954.43038,1758088954.44655,0.0,0.0,0.0,21.14215,1.60428,-2.86479,8.6,1.07,1.34,3.0
1758088954.44677,1758088954.45655,0.0,0.0,0.0,19.99623,1.83346,-4.52637,8.6,1.07,1.34,3.0
1758088954.44845,1758088954.46655,0.0,0.0,0.0,18.50654,1.71887,-6.24524,8.8,1.1,1.44,3.0
1758088954.46394,1758088954.47655,0.0,0.0,0.0,17.58981,1.66158,-7.04738,8.8,1.1,1.44,3.0
1758088954.47996,1758088954.48655,0.0,0.0,0.0,16.73037,1.3751,-6.99009,8.93,1.05,1.34,3.0
1758088954.48037,1758088954.49655,0.0,0.0,0.0,15.69904,1.83346,-6.35983,8.93,1.05,1.34,3.0
1758088954.49774,1758088954.50655,0.0,0.0,0.0,13.5791,1.66158,-3.89611,9.1,0.95,1.33,3.0
1758088954.49882,1758088954.51655,0.0,0.0,0.0,12.08941,1.48969,-1.94806,9.15,0.93,1.21,3.0
1758088954.51398,1758088954.52655,0.0,0.0,0.0,9.91217,0.57296,0.34377,9.15,0.93,1.21,3.0
1758088954.52977,1758088954.53655,0.0,0.0,0.0,7.73493,-0.40107,2.46372,9.21,0.97,1.13,3.0
1758088954.5303,1758088954.54655,0.0,0.0,0.0,4.29718,-1.66158,4.92744,9.21,0.97,1.13,3.0
1758088954.54687,1758088954.55655,0.0,0.0,0.0,2.11994,-1.94806,5.72958,9.29,1.11,1.11,3.0
1758088954.54935,1758088954.56655,0.0,0.0,0.0,-0.22918,-0.22918,5.72958,9.29,1.11,1.11,3.0
1758088954.56501,1758088954.57655,0.0,0.0,0.0,-2.6929,2.46372,5.50039,9.52,1.28,1.08,3.0
1758088954.5808,1758088954.58655,0.0,0.0,0.0,-6.24524,3.66693,3.55234,9.46,1.42,1.06,3.0
1758088954.58133,1758088954.59655,0.0,0.0,0.0,-8.36518,1.3751,1.66158,9.46,1.42,1.06,3.0
1758088954.59705,1758088954.60655,0.0,0.0,0.0,-10.25595,-1.71887,-0.0573,9.32,1.43,1.02,3.0
1758088954.59876,1758088954.61655,0.0,0.0,0.0,-11.97482,-3.49504,-2.23454,9.32,1.43,1.02,3.0
1758088954.61371,1758088954.62655,0.0,0.0,0.0,-13.86558,-3.66693,-5.27121,9.92,1.41,0.98,3.0
1758088954.61493,1758088954.63655,0.0,0.0,0.0,-14.66772,-4.58366,-7.04738,9.92,1.41,0.98,3.0
1758088954.6303,1758088954.64655,0.0,0.0,0.0,-15.0115,-6.99009,-8.25059,10.16,1.41,1.11,3.0
1758088954.64576,1758088954.65655,0.0,0.0,0.0,-14.83961,-10.54242,-8.76626,10.16,1.41,1.11,3.0
1758088954.64699,1758088954.66655,0.0,0.0,0.0,-14.15206,-13.86558,-8.47978,10.14,1.25,1.2,3.0
1758088954.66289,1758088954.67655,0.0,0.0,0.0,-13.46451,-14.20935,-7.73493,10.55,1.21,1.45,3.0
1758088954.67912,1758088954.68655,0.0,0.0,0.0,-12.43318,-17.99088,-6.58902,10.55,1.21,1.45,3.0
1758088954.68005,1758088954.69655,0.0,0.0,0.0,-10.31324,-26.06958,-6.24524,10.43,1.33,1.93,3.0
1758088954.6949,1758088954.70655,0.0,0.0,0.0,-8.42248,-31.62727,-8.30789,10.43,1.33,1.93,3.0
1758088954.69604,1758088954.71655,0.0,0.0,0.0,-4.58366,-23.89234,-8.65166,11.49,1.33,1.8,3.0
1758088954.7114,1758088954.72655,0.0,0.0,0.0,-2.06265,-8.42248,-12.37589,11.49,1.33,1.8,3.0
1758088954.72709,1758088954.73655,0.0,0.0,0.0,2.63561,6.07335,-15.58445,13.95,0.91,1.76,3.0
1758088954.72835,1758088954.74655,0.0,0.0,0.0,4.23989,11.86023,-17.6471,13.46,0.62,2.17,3.0
1758088954.74287,1758088954.75655,0.0,0.0,0.0,5.90147,14.9542,-17.53251,13.46,0.62,2.17,3.0
1758088954.75882,1758088954.76655,0.0,0.0,0.0,7.04738,15.29797,-15.98552,12.9,0.82,2.24,3.0
1758088954.76003,1758088954.77655,0.0,0.0,0.0,8.47978,18.10547,-11.86023,12.9,0.82,2.24,3.0
1758088954.77517,1758088954.78655,0.0,0.0,0.0,9.28192,21.6578,-7.73493,13.55,1.38,2.79,3.0
1758088954.77721,1758088954.79655,0.0,0.0,0.0,10.25595,24.57989,-2.97938,13.55,1.38,2.79,3.0
1758088954.79284,1758088954.80655,0.0,0.0,0.0,11.63104,26.47065,1.83346,13.74,1.7,3.25,3.0
1758088954.80925,1758088954.81655,0.0,0.0,0.0,14.38124,26.01229,8.70896,13.38,1.64,3.56,3.0
1758088954.81054,1758088954.82655,0.0,0.0,0.0,16.272,25.43933,12.43318,13.38,1.64,3.56,3.0
1758088954.82538,1758088954.83655,0.0,0.0,0.0,17.13144,25.49662,14.78231,13.29,1.38,3.57,3.0
1758088954.82612,1758088954.84655,0.0,0.0,0.0,16.95955,22.57454,16.3293,13.29,1.38,3.57,3.0
1758088954.84151,1758088954.85655,0.0,0.0,0.0,14.61043,12.2613,17.30333,12.35,1.39,3.7,3.0
1758088954.85695,1758088954.86655,0.0,0.0,0.0,11.74564,2.00535,17.01685,12.35,1.39,3.7,3.0
1758088954.85895,1758088954.87655,0.0,0.0,0.0,8.30789,-8.47978,16.38659,10.93,1.6,3.68,3.0
1758088954.8739,1758088954.88655,0.0,0.0,0.0,2.00535,-22.74642,14.9542,10.93,1.6,3.68,3.0
1758088954.87522,1758088954.89655,0.0,0.0,0.0,-2.40642,-32.14294,13.80828,9.49,1.61,3.27,3.0
1758088954.89128,1758088954.90655,0.0,0.0,0.0,-6.7609,-41.42485,12.83425,8.11,1.47,3.09,3.0
1758088954.90964,1758088954.91655,0.0,0.0,0.0,-10.8289,-49.04519,11.57375,8.11,1.47,3.09,3.0
1758088954.91076,1758088954.92655,0.0,0.0,0.0,-17.30333,-56.14987,9.28192,7.76,1.35,2.78,3.0
1758088954.926,1758088954.93655,0.0,0.0,0.0,-21.25674,-59.64491,7.67763,7.76,1.35,2.78,3.0
1758088954.92723,1758088954.94655,0.0,0.0,0.0,-24.86637,-62.39511,5.78687,7.78,1.22,2.64,3.0
1758088954.942,1758088954.95655,0.0,0.0,0.0,-28.07493,-62.96807,4.0107,7.78,1.22,2.64,3.0
1758088954.95879,1758088954.96655,0.0,0.0,0.0,-32.77319,-62.39511,1.3751,8.07,1.11,2.34,3.0
1758088954.96035,1758088954.97655,0.0,0.0,0.0,-35.52338,-59.81679,-0.34377,8.38,0.98,1.91,3.0
1758088954.97499,1758088954.98655,0.0,0.0,0.0,-37.81522,-55.34772,-1.60428,8.38,0.98,1.91,3.0
1758088954.97781,1758088954.99655,0.0,0.0,0.0,-40.27893,-49.84733,-2.34913,8.87,0.74,1.54,3.0
1758088954.99299,1758088955.00655,0.0,0.0,0.0,-42.85724,-39.82057,-2.00535,8.87,0.74,1.54,3.0
1758088955.0093,1758088955.01655,0.0,0.0,0.0,-43.94586,-33.11696,-0.80214,9.05,0.41,1.27,3.0
1758088955.01021,1758088955.02655,0.0,0.0,0.0,-44.86259,-26.06958,1.03132,9.05,0.41,1.27,3.0
1758088955.02506,1758088955.03655,0.0,0.0,0.0,-45.43555,-18.16276,3.89611,9.21,0.08,1.11,3.0
1758088955.03015,1758088955.04655,0.0,0.0,0.0,-45.60744,-6.07335,9.33921,9.58,-0.13,1.06,3.0
1758088955.04528,1758088955.05655,0.0,0.0,0.0,-45.55015,2.23454,12.89155,9.58,-0.13,1.06,3.0
1758088955.05022,1758088955.06655,0.0,0.0,0.0,-45.43555,9.22462,16.10011,9.67,-0.14,1.05,3.0
1758088955.06535,1758088955.07655,0.0,0.0,0.0,-45.55015,15.58445,19.59516,9.67,-0.14,1.05,3.0
1758088955.07023,1758088955.08655,0.0,0.0,0.0,-45.89392,22.91831,21.25674,9.55,-0.05,1.18,3.0
1758088955.08532,1758088955.09655,0.0,0.0,0.0,-46.35228,27.33009,22.11617,9.55,-0.05,1.18,3.0
1758088955.09057,1758088955.10655,0.0,0.0,0.0,-46.69606,29.33544,22.34536,9.37,-0.01,1.29,3.0
1758088955.10514,1758088955.11655,0.0,0.0,0.0,-47.78468,28.41871,22.63183,9.37,-0.01,1.29,3.0
1758088955.10939,1758088955.12655,0.0,0.0,0.0,-48.9306,29.27814,21.94428,8.97,-0.03,1.35,3.0
1758088955.12532,1758088955.13655,0.0,0.0,0.0,-49.84733,30.13758,21.14215,9.0,-0.14,1.15,3.0
1758088955.12707,1758088955.14655,0.0,0.0,0.0,-50.53488,29.22085,19.59516,9.0,-0.14,1.15,3.0
1758088955.14209,1758088955.15655,0.0,0.0,0.0,-50.53488,24.80907,16.38659,8.29,-0.27,1.24,3.0
1758088955.15921,1758088955.16655,0.0,0.0,0.0,-49.67545,21.6578,13.69369,8.29,-0.27,1.24,3.0
1758088955.16011,1758088955.17655,0.0,0.0,0.0,-48.30034,18.90761,10.59972,7.89,-0.42,1.16,3.0
1758088955.17515,1758088955.18655,0.0,0.0,0.0,-46.00851,15.92823,7.21927,7.89,-0.42,1.16,3.0
1758088955.1771,1758088955.19655,0.0,0.0,0.0,-41.42485,9.62569,2.86479,7.68,-0.65,1.19,3.0
1758088955.19239,1758088955.20655,0.0,0.0,0.0,-37.52874,5.95876,0.51566,7.57,-0.92,1.19,3.0
1758088955.20925,1758088955.21655,0.0,0.0,0.0,-33.9764,2.63561,-1.03132,7.57,-0.92,1.19,3.0
1758088955.21034,1758088955.22655,0.0,0.0,0.0,-30.53865,0.0573,-1.66158,7.88,-1.12,1.05,3.0
1758088955.22706,1758088955.23655,0.0,0.0,0.0,-26.12688,-3.20856,-1.14592,7.88,-1.12,1.05,3.0
1758088955.23073,1758088955.24655,0.0,0.0,0.0,-23.94964,-5.09932,0.0,8.3,-1.2,0.9,3.0
1758088955.24612,1758088955.25655,0.0,0.0,0.0,-22.11617,-7.04738,1.20321,8.3,-1.2,0.9,3.0
1758088955.24892,1758088955.26655,0.0,0.0,0.0,-20.45459,-8.59437,3.38045,8.5,-1.08,0.92,3.0
1758088955.26423,1758088955.27655,0.0,0.0,0.0,-18.33465,-10.31324,4.58366,8.58,-0.82,0.84,3.0
1758088955.26533,1758088955.28655,0.0,0.0,0.0,-16.95955,-11.22997,5.50039,8.58,-0.82,0.84,3.0
1758088955.28127,1758088955.29655,0.0,0.0,0.0,-15.98552,-11.80293,5.78687,8.57,-0.47,0.95,3.0
1758088955.29798,1758088955.30655,0.0,0.0,0.0,-14.38124,-12.43318,5.50039,8.57,-0.47,0.95,3.0
1758088955.29922,1758088955.31655,0.0,0.0,0.0,-13.5218,-12.14671,4.69825,8.63,-0.24,0.8,3.0
1758088955.31418,1758088955.32655,0.0,0.0,0.0,-12.60507,-11.63104,3.72423,8.63,-0.24,0.8,3.0
1758088955.31543,1758088955.33655,0.0,0.0,0.0,-11.34457,-9.62569,2.34913,8.85,-0.23,0.48,3.0
1758088955.33138,1758088955.34655,0.0,0.0,0.0,-9.11003,-8.47978,-0.34377,8.85,-0.23,0.11,3.0
1758088955.34753,1758088955.35655,0.0,0.0,0.0,-7.50575,-7.79223,-1.94806,9.04,-0.3,0.11,3.0
1758088955.34921,1758088955.36655,0.0,0.0,0.0,-5.61499,-5.55769,-3.72423,9.34,-0.45,0.19,3.0
1758088955.36449,1758088955.37655,0.0,0.0,0.0,-3.72423,-1.08862,-5.21392,9.34,-0.45,0.19,3.0
1758088955.36546,1758088955.38655,0.0,0.0,0.0,-0.57296,7.33386,-6.8182,9.81,-0.68,0.18,3.0
1758088955.38217,1758088955.39655,0.0,0.0,0.0,1.71887,12.37589,-7.33386,9.81,-0.68,0.18,3.0
1758088955.3994,1758088955.40655,0.0,0.0,0.0,4.0107,15.75634,-7.50575,9.95,-0.94,0.29,3.0
1758088955.40047,1758088955.41655,0.0,0.0,0.0,6.24524,19.07949,-7.50575,9.95,-0.94,0.29,3.0
1758088955.4165,1758088955.42655,0.0,0.0,0.0,9.68299,24.35071,-6.99009,10.29,-1.01,0.22,3.0
1758088955.41745,1758088955.43655,0.0,0.0,0.0,11.86023,27.78845,-6.24524,11.07,-0.92,0.27,3.0
1758088955.43329,1758088955.44655,0.0,0.0,0.0,14.09476,31.39809,-5.27121,11.07,-0.92,0.27,3.0
1758088955.44933,1758088955.45655,0.0,0.0,0.0,15.41257,30.65324,-5.4431,11.54,-0.8,0.42,3.0
1758088955.45051,1758088955.46655,0.0,0.0,0.0,19.59516,-0.45837,-1.71887,11.54,-0.8,0.42,3.0
1758088955.46533,1758088955.47655,0.0,0.0,0.0,19.99623,-20.05352,2.11994,10.1,-0.86,1.18,3.0
1758088955.46652,1758088955.48655,0.0,0.0,0.0,17.81899,-15.58445,4.0107,10.1,-0.86,1.18,3.0
1758088955.48146,1758088955.49655,0.0,0.0,0.0,15.69904,16.04282,10.48513,15.67,-0.69,1.92,3.0
1758088955.49774,1758088955.50655,0.0,0.0,0.0,13.80828,30.02299,13.5791,17.03,0.38,2.85,3.0
1758088955.4993,1758088955.51655,0.0,0.0,0.0,11.63104,43.14373,15.75634,17.03,0.38,2.85,3.0
1758088955.51429,1758088955.52655,0.0,0.0,0.0,9.62569,50.99325,17.18874,15.21,0.49,2.79,3.0
1758088955.51548,1758088955.53655,0.0,0.0,0.0,7.50575,51.50891,16.272,15.21,0.49,2.79,3.0
1758088955.53132,1758088955.54655,0.0,0.0,0.0,7.16197,47.32632,14.15206,13.46,-0.21,3.13,3.0
1758088955.54863,1758088955.55655,0.0,0.0,0.0,8.02141,42.74266,11.63104,13.46,-0.21,3.13,3.0
1758088955.54954,1758088955.56655,0.0,0.0,0.0,10.19865,36.6693,9.85487,13.46,-0.81,4.18,3.0
1758088955.56466,1758088955.57655,0.0,0.0,0.0,13.40721,29.10626,4.92744,13.84,-1.0,3.95,3.0
1758088955.56553,1758088955.58655,0.0,0.0,0.0,15.98552,22.97561,2.06265,13.84,-1.0,3.95,3.0
1758088955.58236,1758088955.59655,0.0,0.0,0.0,19.07949,17.6471,-1.08862,13.01,-0.97,3.26,3.0
1758088955.59963,1758088955.60655,0.0,0.0,0.0,20.68378,11.22997,-4.23989,13.01,-0.97,3.26,3.0
1758088955.60139,1758088955.61655,0.0,0.0,0.0,23.31938,1.08862,-7.39116,11.44,-0.72,2.85,3.0
1758088955.64388,1758088955.62655,0.0,0.0,0.0,24.80907,-4.98473,-8.36518,11.44,-0.72,2.85,3.0
1758088955.64593,1758088955.63655,0.0,0.0,0.0,25.89769,-10.19865,-8.59437,10.07,-0.52,2.52,3.0
1758088955.64654,1758088955.64655,0.0,0.0,0.0,27.10091,-13.5218,-7.44845,10.07,-0.52,2.52,3.0
1758088955.64859,1758088955.65655,0.0,0.0,0.0,28.36141,-18.9649,-4.87014,8.77,-0.4,2.3,3.0
1758088955.65001,1758088955.66655,0.0,0.0,0.0,29.73651,-25.89769,-2.86479,6.89,-0.29,2.81,3.0
1758088955.6664,1758088955.67655,0.0,0.0,0.0,30.19488,-34.26288,0.51566,6.89,-0.29,2.81,3.0
1758088955.66839,1758088955.68655,0.0,0.0,0.0,30.36677,-44.00316,3.38045,5.51,-0.2,3.36,3.0
1758088955.68425,1758088955.69655,0.0,0.0,0.0,30.13758,-53.34238,4.81285,5.51,-0.2,3.36,3.0
1758088955.68542,1758088955.70655,0.0,0.0,0.0,30.19488,-54.77477,5.27121,6.22,-0.03,2.88,3.0
1758088955.70278,1758088955.71655,0.0,0.0,0.0,30.25217,-54.77477,5.32851,6.22,-0.03,2.88,3.0
1758088955.71971,1758088955.72655,0.0,0.0,0.0,30.36677,-51.45161,4.52637,7.67,0.06,2.31,3.0
1758088955.72227,1758088955.73655,0.0,0.0,0.0,30.82513,-47.26902,2.97938,8.56,0.11,1.89,3.0
1758088955.76043,1758088955.74655,0.0,0.0,0.0,31.28349,-40.04975,1.77617,8.56,0.11,1.89,3.0
1758088955.76949,1758088955.75655,0.0,0.0,0.0,32.14294,-30.76784,1.14592,9.18,0.21,1.67,3.0
1758088955.77018,1758088955.76655,0.0,0.0,0.0,33.00237,-18.10547,0.51566,9.18,0.21,1.67,3.0
1758088955.77305,1758088955.77655,0.0,0.0,0.0,33.11696,-11.86023,0.68755,8.9,0.45,1.93,3.0
1758088955.77363,1758088955.78655,0.0,0.0,0.0,33.11696,-6.24524,1.08862,8.9,0.45,1.93,3.0
1758088955.78952,1758088955.79655,0.0,0.0,0.0,32.25753,0.51566,0.22918,8.89,0.76,1.96,3.0
1758088955.79312,1758088955.80655,0.0,0.0,0.0,30.76784,12.43318,-2.7502,9.39,1.15,1.85,3.0
1758088955.80842,1758088955.81655,0.0,0.0,0.0,29.62192,19.48057,-6.07335,9.39,1.15,1.85,3.0
1758088955.80963,1758088955.82655,0.0,0.0,0.0,28.13223,24.98096,-9.91217,9.64,1.29,1.97,3.0
1758088955.82446,1758088955.83655,0.0,0.0,0.0,26.81443,29.62192,-14.09476,9.64,1.29,1.97,3.0
1758088955.84263,1758088955.84655,0.0,0.0,0.0,25.89769,34.77854,-19.36597,9.67,1.14,2.09,3.0
1758088955.84447,1758088955.85655,0.0,0.0,0.0,25.8404,36.84119,-21.48592,9.67,1.14,2.09,3.0
1758088955.84654,1758088955.86655,0.0,0.0,0.0,26.47065,38.27358,-23.0902,9.62,0.73,2.24,3.0
1758088955.86381,1758088955.87655,0.0,0.0,0.0,27.61657,38.1017,-23.31938,9.62,0.73,2.24,3.0
1758088955.87957,1758088955.88655,0.0,0.0,0.0,30.19488,37.64333,-21.31403,9.35,0.27,2.26,3.0
1758088955.88067,1758088955.89655,0.0,0.0,0.0,32.08564,36.26823,-18.44924,9.0,-0.01,2.08,3.0
1758088955.89556,1758088955.90655,0.0,0.0,0.0,34.49206,33.74722,-14.83961,9.0,-0.01,2.08,3.0
1758088955.89753,1758088955.91655,0.0,0.0,0.0,37.64333,28.87707,-9.28192,8.56,-0.03,2.01,3.0
1758088955.91361,1758088955.92655,0.0,0.0,0.0,39.4768,24.98096,-6.13065,8.56,-0.03,2.01,3.0
1758088955.92965,1758088955.93655,0.0,0.0,0.0,41.02378,20.51189,-3.83882,8.15,0.14,1.79,3.0
1758088955.93074,1758088955.94655,0.0,0.0,0.0,42.1124,16.21471,-2.00535,8.15,0.14,1.79,3.0
1758088955.94782,1758088955.95655,0.0,0.0,0.0,42.85724,8.70896,-0.51566,7.86,0.43,1.66,3.0
1758088955.94961,1758088955.96655,0.0,0.0,0.0,42.57077,4.46907,-0.45837,7.65,0.76,1.56,3.0
1758088955.96486,1758088955.97655,0.0,0.0,0.0,42.1124,0.74485,-0.74485,7.65,0.76,1.56,3.0
1758088955.96927,1758088955.98655,0.0,0.0,0.0,40.96649,-2.6929,-1.3178,7.65,1.0,1.49,3.0
1758088955.98464,1758088955.99655,0.0,0.0,0.0,38.61736,-6.7609,-2.86479,7.65,1.0,1.49,3.0
1758088955.99371,1758088956.00655,0.0,0.0,0.0,36.61201,-8.59437,-4.0107,7.65,1.21,1.35,3.0
1758088956.01762,1758088956.01655,0.0,0.0,0.0,34.43476,-9.68299,-5.15662,7.65,1.21,1.35,3.0
1758088956.04935,1758088956.02655,0.0,0.0,0.0,32.14294,-9.85487,-6.13065,7.94,1.34,1.37,3.0
1758088956.05398,1758088956.03655,0.0,0.0,0.0,28.87707,-9.39651,-7.62034,8.37,1.35,1.39,3.0
1758088956.05707,1758088956.04655,0.0,0.0,0.0,26.75713,-8.36518,-8.30789,8.37,1.35,1.39,3.0
1758088956.05746,1758088956.05655,0.0,0.0,0.0,24.57989,-7.21927,-8.59437,8.68,1.3,1.38,3.0
1758088956.06201,1758088956.06655,0.0,0.0,0.0,22.40265,-5.32851,-8.65166,8.68,1.3,1.38,3.0
1758088956.0624,1758088956.07655,0.0,0.0,0.0,19.53786,-1.83346,-8.02141,8.84,1.24,1.4,3.0
1758088956.07868,1758088956.08654,0.0,0.0,0.0,17.36062,0.45837,-7.04738,8.84,1.24,1.4,3.0
1758088956.07985,1758088956.09654,0.0,0.0,0.0,15.24068,2.57831,-5.84417,8.97,1.15,1.39,3.0
1758088956.09466,1758088956.10654,0.0,0.0,0.0,11.80293,4.0107,-3.72423,8.97,1.15,1.39,3.0
1758088956.09591,1758088956.11654,0.0,0.0,0.0,9.39651,4.18259,-2.11994,9.02,1.02,1.3,3.0
1758088956.11261,1758088956.12654,0.0,0.0,0.0,7.10468,3.95341,-0.45837,9.04,0.94,1.3,3.0
1758088956.12901,1758088956.13654,0.0,0.0,0.0,4.58366,3.49504,1.14592,9.04,0.94,1.3,3.0
1758088956.12988,1758088956.14654,0.0,0.0,0.0,1.3178,1.60428,2.97938,9.06,1.01,1.34,3.0
1758088956.14472,1758088956.15654,0.0,0.0,0.0,-0.68755,0.45837,3.89611,9.06,1.01,1.34,3.0
1758088956.14589,1758088956.16654,0.0,0.0,0.0,-2.6929,0.97403,4.52637,9.12,1.2,1.31,3.0
1758088956.1627,1758088956.17654,0.0,0.0,0.0,-4.52637,2.86479,4.46907,9.12,1.2,1.31,3.0
1758088956.17975,1758088956.18654,0.0,0.0,0.0,-6.99009,3.72423,3.26586,9.52,1.39,1.29,3.0
1758088956.18095,1758088956.19654,0.0,0.0,0.0,-8.136,2.06265,2.23454,9.53,1.42,1.35,3.0
1758088956.19649,1758088956.20654,0.0,0.0,0.0,-9.05273,-0.51566,0.97403,9.53,1.42,1.35,3.0
1758088956.20011,1758088956.21654,0.0,0.0,0.0,-9.4538,-3.55234,-0.22918,9.68,1.26,1.34,3.0
1758088956.21681,1758088956.22654,0.0,0.0,0.0,-9.33921,-6.70361,-2.46372,9.68,1.26,1.34,3.0
1758088956.21771,1758088956.23654,0.0,0.0,0.0,-8.93814,-7.39116,-4.29718,9.89,1.07,1.36,3.0
1758088956.23304,1758088956.24654,0.0,0.0,0.0,-8.136,-7.84952,-5.78687,9.89,1.07,1.36,3.0
1758088956.24877,1758088956.25654,0.0,0.0,0.0,-7.67763,-8.93814,-7.10468,9.95,1.0,1.25,3.0
1758088956.24994,1758088956.26654,0.0,0.0,0.0,-6.35983,-12.08941,-8.25059,9.88,0.96,1.24,3.0
1758088956.26481,1758088956.27654,0.0,0.0,0.0,-5.27121,-15.12609,-8.36518,9.88,0.96,1.24,3.0
1758088956.26599,1758088956.28654,0.0,0.0,0.0,-4.46907,-16.95955,-8.59437,10.04,0.77,1.21,3.0
1758088956.28259,1758088956.29654,0.0,0.0,0.0,-3.32316,-16.3293,-8.0787,10.04,0.77,1.21,3.0
1758088956.29878,1758088956.30654,0.0,0.0,0.0,-2.11994,-12.08941,-7.44845,10.87,0.7,1.19,3.0
1758088956.30078,1758088956.31654,0.0,0.0,0.0,-1.20321,-7.79223,-6.87549,10.87,0.7,1.19,3.0
1758088956.35999,1758088956.32654,0.0,0.0,0.0,-0.0573,-3.09397,-6.41713,11.29,0.74,1.51,3.0
1758088956.36442,1758088956.33654,0.0,0.0,0.0,3.55234,-15.75634,-4.35448,11.29,0.74,1.51,3.0
1758088956.36484,1758088956.34654,0.0,0.0,0.0,6.87549,-25.26744,-7.44845,10.17,0.93,2.15,3.0
1758088956.36603,1758088956.35654,0.0,0.0,0.0,9.5684,-17.30333,-12.08941,11.67,1.14,1.96,3.0
1758088956.36928,1758088956.36654,0.0,0.0,0.0,12.37589,-2.7502,-15.29797,11.67,1.14,1.96,3.0
1758088956.37028,1758088956.37654,0.0,0.0,0.0,12.49048,14.9542,-17.81899,12.62,1.04,0.74,3.0
1758088956.3709,1758088956.38654,0.0,0.0,0.0,11.51645,19.59516,-17.99088,12.62,1.04,0.74,3.0
1758088956.38885,1758088956.39654,0.0,0.0,0.0,10.59972,22.63183,-16.84496,11.21,0.74,1.7,3.0
1758088956.3901,1758088956.40654,0.0,0.0,0.0,10.59972,25.61122,-14.66772,11.21,0.74,1.7,3.0
1758088956.40508,1758088956.41654,0.0,0.0,0.0,11.00079,30.02299,-10.48513,11.54,0.77,1.8,3.0
1758088956.40844,1758088956.42654,0.0,0.0,0.0,11.34457,32.20023,-7.79223,12.08,1.23,1.99,3.0
1758088956.42463,1758088956.43654,0.0,0.0,0.0,12.08941,36.7266,-5.50039,12.08,1.23,1.99,3.0
1758088956.42905,1758088956.44654,0.0,0.0,0.0,13.17803,41.88322,-3.55234,12.85,1.73,2.36,3.0
1758088956.44502,1758088956.45654,0.0,0.0,0.0,15.69904,45.20637,-1.94806,12.85,1.73,2.36,3.0
1758088956.44932,1758088956.46654,0.0,0.0,0.0,17.81899,44.11775,-0.85944,12.64,1.8,2.76,3.0
1758088956.46682,1758088956.47654,0.0,0.0,0.0,19.88164,40.16434,0.17189,12.64,1.8,2.76,3.0
1758088956.46926,1758088956.48654,0.0,0.0,0.0,21.88699,35.3515,1.71887,12.55,1.63,3.12,3.0
1758088956.48488,1758088956.49654,0.0,0.0,0.0,23.60586,29.22085,4.23989,13.2,1.63,3.37,3.0
1758088956.48609,1758088956.50654,0.0,0.0,0.0,23.60586,25.55392,6.24524,13.2,1.63,3.37,3.0
1758088956.50203,1758088956.51654,0.0,0.0,0.0,22.23076,21.02755,8.30789,13.26,2.01,3.52,3.0
1758088956.51873,1758088956.52654,0.0,0.0,0.0,18.79302,12.49048,11.51645,13.26,2.01,3.52,3.0
1758088956.51995,1758088956.53654,0.0,0.0,0.0,15.24068,5.78687,13.5218,12.39,2.48,3.68,3.0
1758088956.53492,1758088956.54654,0.0,0.0,0.0,11.22997,-1.77617,15.29797,12.39,2.48,3.68,3.0
1758088956.5362,1758088956.55654,0.0,0.0,0.0,6.70361,-9.39651,16.38659,11.16,2.52,3.57,3.0
1758088956.55225,1758088956.56654,0.0,0.0,0.0,-1.71887,-17.36062,16.21471,11.16,2.52,3.57,3.0
1758088956.56799,1758088956.57654,0.0,0.0,0.0,-9.33921,-22.28806,14.32395,9.74,2.38,3.45,3.0
1758088956.56923,1758088956.58654,0.0,0.0,0.0,-16.21471,-32.48671,12.49048,7.84,2.57,3.74,3.0
1758088956.60531,1758088956.59654,0.0,0.0,0.0,-19.82434,-44.8053,11.86023,7.84,2.57,3.74,3.0
1758088956.60891,1758088956.60654,0.0,0.0,0.0,-24.80907,-56.26446,11.11538,7.16,2.02,2.97,3.0
1758088956.61185,1758088956.61654,0.0,0.0,0.0,-27.61657,-58.90006,10.48513,7.16,2.02,2.97,3.0
1758088956.61555,1758088956.62654,0.0,0.0,0.0,-29.73651,-61.59297,9.74028,7.75,1.55,2.94,3.0
1758088956.61613,1758088956.63654,0.0,0.0,0.0,-31.56997,-65.48907,9.39651,7.75,1.55,2.94,3.0
1758088956.63439,1758088956.64654,0.0,0.0,0.0,-33.34615,-70.58841,9.33921,7.11,1.25,2.53,3.0
1758088956.63675,1758088956.65654,0.0,0.0,0.0,-34.37747,-68.98412,9.4538,7.5,0.99,1.99,3.0
1758088956.65725,1758088956.66654,0.0,0.0,0.0,-35.69527,-63.88479,9.5684,7.5,0.99,1.99,3.0
1758088956.65822,1758088956.67654,0.0,0.0,0.0,-37.01308,-57.81144,9.68299,8.71,0.56,1.72,3.0
1758088956.67309,1758088956.68654,0.0,0.0,0.0,-38.61736,-49.56085,10.37054,8.71,0.56,1.72,3.0
1758088956.69,1758088956.69654,0.0,0.0,0.0,-39.99245,-45.14908,12.08941,9.02,0.18,1.68,3.0
1758088956.69278,1758088956.70654,0.0,0.0,0.0,-41.25296,-37.24226,14.32395,9.02,0.18,1.68,3.0
1758088956.70805,1758088956.71654,0.0,0.0,0.0,-42.91454,-28.13223,16.73037,9.73,0.02,1.45,3.0
1758088956.7092,1758088956.72654,0.0,0.0,0.0,-43.88857,-18.90761,18.85031,9.71,0.0,1.42,3.0
1758088956.72409,1758088956.73654,0.0,0.0,0.0,-44.51882,-12.204,21.08485,9.71,0.0,1.42,3.0
1758088956.7401,1758088956.74654,0.0,0.0,0.0,-45.43555,-5.15662,22.74642,9.99,0.16,1.32,3.0
1758088956.74207,1758088956.75654,0.0,0.0,0.0,-47.49821,2.06265,28.36141,9.99,0.16,1.32,3.0
1758088956.75731,1758088956.76654,0.0,0.0,0.0,-49.21708,8.65166,30.88243,10.21,0.34,1.43,3.0
1758088956.75982,1758088956.77654,0.0,0.0,0.0,-51.45161,12.60507,33.05967,10.21,0.34,1.43,3.0
1758088956.77509,1758088956.78654,0.0,0.0,0.0,-53.68615,15.35527,34.49206,9.43,0.37,1.26,3.0
1758088956.77711,1758088956.79654,0.0,0.0,0.0,-57.18119,17.93358,34.43476,8.76,0.37,1.54,3.0
1758088956.79434,1758088956.80654,0.0,0.0,0.0,-58.84277,17.87628,33.11696,8.76,0.18,1.54,3.0
1758088956.81009,1758088956.81654,0.0,0.0,0.0,-59.98868,16.50119,30.30947,8.14,-0.11,1.52,3.0
1758088956.81128,1758088956.82654,0.0,0.0,0.0,-60.04598,15.0115,26.41335,8.14,-0.11,1.52,3.0
