timeStamp,timeStampAlign,roll,pitch,yaw,gyro_x,gyro_y,gyro_z,acc_x,acc_y,acc_z,flag_num
1758088694.64022,1758088691.82266,0.0,0.0,0.0,-2.86479,-23.54857,24.57989,9.03,-1.9,3.21,2.0
1758088694.64311,1758088691.83266,0.0,0.0,0.0,4.92744,-15.41257,21.6578,9.76,-2.8,2.83,2.0
1758088694.6591,1758088691.84266,0.0,0.0,0.0,13.00614,-8.36518,19.70975,9.76,-2.8,2.83,2.0
1758088694.66109,1758088691.85266,0.0,0.0,0.0,20.97026,-1.48969,18.9649,10.45,-2.98,2.58,2.0
1758088694.68031,1758088691.86266,0.0,0.0,0.0,30.76784,9.85487,19.36597,11.49,-2.68,2.23,2.0
1758088694.6834,1758088691.87266,0.0,0.0,0.0,35.12231,16.73037,20.16812,11.49,-2.68,2.23,2.0
1758088694.6999,1758088691.88266,0.0,0.0,0.0,37.18496,24.35071,20.3973,11.54,-1.89,1.95,2.0
1758088694.70112,1758088691.89266,0.0,0.0,0.0,37.47144,31.56997,20.79837,11.54,-1.89,1.95,2.0
1758088694.71989,1758088691.90266,0.0,0.0,0.0,35.63798,42.74266,18.85031,11.05,-0.93,1.85,2.0
1758088694.72111,1758088691.91266,0.0,0.0,0.0,33.86181,48.24305,16.3293,11.05,-0.93,1.85,2.0
1758088694.73917,1758088691.92266,0.0,0.0,0.0,31.51268,51.27972,13.34992,10.07,-0.18,1.65,2.0
1758088694.74036,1758088691.93266,0.0,0.0,0.0,28.30412,53.97263,9.96947,10.07,-0.18,1.65,2.0
1758088694.75737,1758088691.94266,0.0,0.0,0.0,22.91831,57.92604,3.89611,9.45,0.46,1.62,2.0
1758088694.76154,1758088691.95266,0.0,0.0,0.0,19.59516,59.64491,0.57296,9.27,0.82,1.67,2.0
1758088694.77713,1758088691.96266,0.0,0.0,0.0,16.55848,59.64491,-2.86479,9.27,0.82,1.67,2.0
1758088694.7936,1758088691.97266,0.0,0.0,0.0,12.2613,58.78547,-6.70361,8.82,0.77,1.61,2.0
1758088694.7949,1758088691.98266,0.0,0.0,0.0,9.91217,54.66018,-9.11003,8.82,0.77,1.61,2.0
1758088694.80944,1758088691.99266,0.0,0.0,0.0,7.67763,50.47758,-11.17268,8.41,0.43,1.58,2.0
1758088694.81057,1758088692.00266,0.0,0.0,0.0,5.55769,46.00851,-12.83425,8.41,0.43,1.58,2.0
1758088694.82882,1758088692.01266,0.0,0.0,0.0,2.86479,38.15899,-13.86558,8.35,0.1,1.35,2.0
1758088694.8444,1758088692.02266,0.0,0.0,0.0,0.85944,32.37212,-13.69369,8.43,-0.18,1.38,2.0
1758088694.84564,1758088692.03266,0.0,0.0,0.0,-0.57296,24.57989,-12.77696,8.43,-0.18,1.38,2.0
1758088694.86041,1758088692.04266,0.0,0.0,0.0,-2.92208,19.59516,-11.45916,8.38,-0.25,1.15,2.0
1758088694.86164,1758088692.05266,0.0,0.0,0.0,-6.87549,13.00614,-9.68299,8.38,-0.25,1.15,2.0
1758088694.87724,1758088692.06266,0.0,0.0,0.0,-9.4538,11.57375,-9.62569,8.15,-0.09,1.0,2.0
1758088694.88077,1758088692.07266,0.0,0.0,0.0,-11.86023,12.83425,-9.11003,8.15,-0.09,1.0,2.0
1758088694.89669,1758088692.08266,0.0,0.0,0.0,-13.69369,14.78231,-8.42248,8.02,0.07,0.67,2.0
1758088694.91353,1758088692.09266,0.0,0.0,0.0,-15.98552,12.77696,-6.99009,7.38,0.11,0.76,2.0
1758088694.91486,1758088692.10266,0.0,0.0,0.0,-17.81899,8.02141,-5.95876,7.38,0.11,0.76,2.0
1758088694.92971,1758088692.11266,0.0,0.0,0.0,-19.70975,1.3178,-5.21392,6.83,0.23,0.73,2.0
1758088694.93062,1758088692.12266,0.0,0.0,0.0,-21.88699,-7.67763,-4.52637,6.83,0.23,0.73,2.0
1758088694.94845,1758088692.13266,0.0,0.0,0.0,-25.21014,-24.80907,-4.35448,6.75,0.39,0.66,2.0
1758088694.97001,1758088692.14266,0.0,0.0,0.0,-27.50197,-36.7266,-4.81285,6.75,0.39,0.66,2.0
1758088694.97471,1758088692.15266,0.0,0.0,0.0,-29.67921,-45.83662,-5.21392,7.14,0.49,0.46,2.0
1758088694.9751,1758088692.16266,0.0,0.0,0.0,-31.39809,-52.76942,-7.04738,7.14,0.49,0.46,2.0
1758088694.99077,1758088692.17266,0.0,0.0,0.0,-34.60666,-56.89471,-8.65166,8.12,0.05,-0.05,2.0
1758088694.99489,1758088692.18266,0.0,0.0,0.0,-35.69527,-31.16891,-11.80293,11.28,-0.4,-0.13,2.0
1758088695.0108,1758088692.19266,0.0,0.0,0.0,-34.0337,3.89611,-10.54242,11.28,-0.4,-0.13,2.0
1758088695.01489,1758088692.20266,0.0,0.0,0.0,-36.03905,-11.17268,-18.22006,11.46,-0.94,0.14,2.0
1758088695.0308,1758088692.21266,0.0,0.0,0.0,-35.2942,-27.78845,-23.37668,11.46,-0.94,0.14,2.0
1758088695.03323,1758088692.22266,0.0,0.0,0.0,-34.09099,-24.12152,-29.50733,10.35,-0.48,-0.55,2.0
1758088695.04902,1758088692.23266,0.0,0.0,0.0,-30.25217,-12.89155,-31.79916,10.35,-0.48,-0.55,2.0
1758088695.08246,1758088692.24266,0.0,0.0,0.0,-22.05888,-2.57831,-32.14294,13.74,-0.58,0.04,2.0
1758088695.08319,1758088692.25266,0.0,0.0,0.0,-15.0115,0.74485,-31.28349,13.51,-1.28,1.76,2.0
1758088695.08501,1758088692.26266,0.0,0.0,0.0,-7.33386,-1.3178,-29.9084,13.51,-1.28,1.76,2.0
1758088695.08586,1758088692.27266,0.0,0.0,0.0,-0.0573,-5.72958,-27.84575,12.86,-1.83,2.0,2.0
1758088695.09335,1758088692.28266,0.0,0.0,0.0,8.42248,-12.71966,-21.7151,12.86,-1.83,2.0,2.0
1758088695.10954,1758088692.29266,0.0,0.0,0.0,13.12073,-15.41257,-17.01685,11.79,-1.93,1.24,2.0
1758088695.11071,1758088692.30266,0.0,0.0,0.0,17.6471,-24.00693,-13.75099,11.79,-1.93,1.24,2.0
1758088695.13083,1758088692.31266,0.0,0.0,0.0,21.7724,-36.26823,-13.06344,11.07,-1.76,4.02,2.0
1758088695.13503,1758088692.32266,0.0,0.0,0.0,27.84575,-42.97184,-15.69904,12.18,-2.25,4.16,2.0
1758088695.15048,1758088692.33266,0.0,0.0,0.0,31.62727,-45.09178,-18.16276,12.18,-2.25,4.16,2.0
1758088695.15504,1758088692.34266,0.0,0.0,0.0,34.32018,-48.8733,-20.51189,11.4,-2.03,3.44,2.0
1758088695.1738,1758088692.35266,0.0,0.0,0.0,34.89313,-51.85268,-22.05888,11.4,-2.03,3.44,2.0
1758088695.17663,1758088692.36266,0.0,0.0,0.0,31.16891,-54.94666,-23.66316,9.92,-0.87,3.71,2.0
1758088695.1916,1758088692.37266,0.0,0.0,0.0,25.43933,-54.48829,-24.86637,9.92,-0.87,3.71,2.0
1758088695.19476,1758088692.38266,0.0,0.0,0.0,17.58981,-51.79538,-25.49662,10.01,0.35,4.0,2.0
1758088695.20961,1758088692.39266,0.0,0.0,0.0,3.38045,-49.33167,-25.55392,10.01,0.35,4.0,2.0
1758088695.2108,1758088692.40266,0.0,0.0,0.0,-5.78687,-46.40959,-25.26744,10.31,1.18,3.77,2.0
1758088695.22592,1758088692.41266,0.0,0.0,0.0,-13.75099,-41.02378,-24.23611,10.6,1.31,3.01,2.0
1758088695.24242,1758088692.42266,0.0,0.0,0.0,-19.99623,-35.58068,-22.23076,10.6,1.31,3.01,2.0
1758088695.24444,1758088692.43266,0.0,0.0,0.0,-24.92367,-23.66316,-17.47521,10.54,0.75,2.63,2.0
1758088695.25972,1758088692.44266,0.0,0.0,0.0,-25.55392,-12.54778,-13.46451,10.54,0.75,2.63,2.0
1758088695.26081,1758088692.45266,0.0,0.0,0.0,-24.29341,-0.17189,-8.99544,10.8,-0.13,2.14,2.0
1758088695.27564,1758088692.46266,0.0,0.0,0.0,-21.60051,12.2613,-4.18259,10.8,-0.13,2.14,2.0
1758088695.28002,1758088692.47266,0.0,0.0,0.0,-16.10011,28.30412,2.40642,10.72,-0.99,1.67,2.0
1758088695.29593,1758088692.48266,0.0,0.0,0.0,-11.74564,38.1017,5.21392,10.36,-1.73,1.33,2.0
1758088695.31289,1758088692.49266,0.0,0.0,0.0,-7.39116,46.00851,7.04738,10.36,-1.73,1.33,2.0
1758088695.31386,1758088692.50266,0.0,0.0,0.0,-2.11994,52.25375,8.36518,9.92,-2.19,1.18,2.0
1758088695.3322,1758088692.51266,0.0,0.0,0.0,4.69825,60.67623,9.05273,9.92,-2.19,1.18,2.0
1758088695.33462,1758088692.52266,0.0,0.0,0.0,8.88085,67.26525,9.68299,9.62,-2.36,0.93,2.0
1758088695.34993,1758088692.53266,0.0,0.0,0.0,13.06344,71.90621,10.59972,9.62,-2.36,0.93,2.0
1758088695.35361,1758088692.54266,0.0,0.0,0.0,16.38659,75.05748,10.94349,9.25,-2.26,1.0,2.0
1758088695.36992,1758088692.55266,0.0,0.0,0.0,20.68378,74.65641,11.57375,8.74,-1.85,1.1,2.0
1758088695.3736,1758088692.56266,0.0,0.0,0.0,23.0329,73.96885,12.08941,8.74,-1.85,1.1,2.0
1758088695.38897,1758088692.57266,0.0,0.0,0.0,24.57989,72.19269,12.49048,8.72,-1.34,1.02,2.0
1758088695.39577,1758088692.58266,0.0,0.0,0.0,25.7831,68.52576,13.06344,8.72,-1.34,1.02,2.0
1758088695.41071,1758088692.59266,0.0,0.0,0.0,26.69983,61.1346,13.06344,8.55,-0.95,1.26,2.0
1758088695.41749,1758088692.60266,0.0,0.0,0.0,26.98631,55.06125,12.89155,8.55,-0.95,1.26,2.0
1758088695.43439,1758088692.61266,0.0,0.0,0.0,27.33009,48.64412,12.43318,8.29,-0.71,1.26,2.0
1758088695.43548,1758088692.62266,0.0,0.0,0.0,28.476,37.64333,11.51645,8.29,-0.71,1.26,2.0
1758088695.451,1758088692.63266,0.0,0.0,0.0,29.9084,29.9084,10.94349,7.87,-0.71,1.16,2.0
1758088695.45428,1758088692.64266,0.0,0.0,0.0,31.62727,23.0329,10.31324,7.37,-0.84,0.87,2.0
1758088695.47006,1758088692.65266,0.0,0.0,0.0,33.63263,17.93358,9.5684,7.37,-0.84,0.87,2.0
1758088695.47341,1758088692.66266,0.0,0.0,0.0,35.92446,6.8182,7.84952,6.94,-0.92,0.77,2.0
1758088695.48875,1758088692.67266,0.0,0.0,0.0,37.64333,-4.69825,6.87549,6.94,-0.92,0.77,2.0
1758088695.49032,1758088692.68266,0.0,0.0,0.0,39.3622,-18.62113,6.24524,6.07,-0.95,0.53,2.0
1758088695.50641,1758088692.69266,0.0,0.0,0.0,40.7946,-34.72124,5.61499,6.07,-0.95,0.53,2.0
1758088695.52958,1758088692.70266,0.0,0.0,0.0,41.94051,-57.81144,6.47442,5.98,-1.1,0.05,2.0
1758088695.53078,1758088692.71266,0.0,0.0,0.0,42.62806,-66.635,6.47442,7.15,-1.18,-0.02,2.0
1758088695.53385,1758088692.72266,0.0,0.0,0.0,42.68536,-59.12925,8.93814,7.15,-1.18,-0.02,2.0
1758088695.55051,1758088692.73266,0.0,0.0,0.0,43.88857,-46.52417,12.54778,10.64,-1.04,0.27,2.0
1758088695.55412,1758088692.74266,0.0,0.0,0.0,42.51347,-17.99088,16.38659,10.64,-1.04,0.27,2.0
1758088695.56996,1758088692.75266,0.0,0.0,0.0,38.56006,-5.55769,17.99088,11.91,-0.31,0.3,2.0
1758088695.57346,1758088692.76266,0.0,0.0,0.0,35.12231,-20.22541,14.32395,11.91,-0.31,0.3,2.0
1758088695.58905,1758088692.77266,0.0,0.0,0.0,32.48671,-53.11319,16.84496,8.94,0.65,-0.11,2.0
1758088695.5904,1758088692.78266,0.0,0.0,0.0,31.39809,-78.839,19.13679,10.14,0.6,-1.4,2.0
1758088695.60508,1758088692.79266,0.0,0.0,0.0,27.38738,-64.91612,18.50654,10.14,0.6,-1.4,2.0
1758088695.62118,1758088692.80266,0.0,0.0,0.0,25.26744,-48.64412,15.98552,14.01,0.41,-1.03,2.0
1758088695.62502,1758088692.81266,0.0,0.0,0.0,20.85567,-32.88778,10.19865,14.01,0.41,-1.03,2.0
1758088695.64006,1758088692.82266,0.0,0.0,0.0,16.21471,-27.73116,5.90147,12.57,0.0,0.2,2.0
1758088695.64124,1758088692.83266,0.0,0.0,0.0,11.28727,-22.63183,3.55234,12.57,0.0,0.2,2.0
1758088695.65577,1758088692.84266,0.0,0.0,0.0,6.53172,-16.3293,1.48969,13.21,-0.1,0.62,2.0
1758088695.67443,1758088692.85266,0.0,0.0,0.0,0.45837,-19.76705,-1.3751,13.21,-0.1,0.39,2.0
1758088695.67598,1758088692.86266,0.0,0.0,0.0,-2.63561,-31.62727,-2.29183,12.16,0.71,0.39,2.0
1758088695.69112,1758088692.87266,0.0,0.0,0.0,-3.66693,-47.32632,2.6929,10.41,-0.14,3.11,2.0
1758088695.69363,1758088692.88266,0.0,0.0,0.0,-5.50039,-53.28508,7.84952,10.41,-0.14,3.11,2.0
1758088695.70885,1758088692.89266,0.0,0.0,0.0,-8.136,-51.73809,21.94428,13.13,-0.59,4.61,2.0
1758088695.71007,1758088692.90266,0.0,0.0,0.0,-10.8289,-47.67009,30.36677,13.13,-0.59,4.61,2.0
1758088695.72509,1758088692.91266,0.0,0.0,0.0,-13.06344,-45.55015,36.55471,13.9,-0.04,5.36,2.0
1758088695.74113,1758088692.92266,0.0,0.0,0.0,-14.32395,-45.72203,38.61736,13.9,-0.04,5.36,2.0
1758088695.74234,1758088692.93266,0.0,0.0,0.0,-13.75099,-41.99781,36.03905,11.22,-0.29,4.26,2.0
1758088695.75986,1758088692.94266,0.0,0.0,0.0,-11.45916,-35.58068,31.74186,9.71,-1.32,3.31,2.0
1758088695.76141,1758088692.95266,0.0,0.0,0.0,-8.136,-25.38203,26.52795,9.71,-1.32,3.31,2.0
1758088695.77688,1758088692.96266,0.0,0.0,0.0,-4.18259,-13.17803,20.68378,9.71,-2.3,2.64,2.0
1758088695.77963,1758088692.97266,0.0,0.0,0.0,2.6929,3.09397,13.75099,9.71,-2.3,2.64,2.0
1758088695.79624,1758088692.98266,0.0,0.0,0.0,7.62034,11.86023,11.45916,10.29,-2.62,2.36,2.0
1758088695.81372,1758088692.99266,0.0,0.0,0.0,12.204,20.62648,10.37054,10.29,-2.62,2.36,2.0
1758088695.81501,1758088693.00266,0.0,0.0,0.0,17.93358,30.19488,10.65701,11.26,-2.31,1.92,2.0
1758088695.82997,1758088693.01266,0.0,0.0,0.0,19.82434,43.94586,10.94349,11.39,-1.71,1.98,2.0
1758088695.83352,1758088693.02266,0.0,0.0,0.0,19.53786,51.73809,11.57375,11.39,-1.71,1.98,2.0
1758088695.84967,1758088693.03266,0.0,0.0,0.0,17.13144,57.46767,11.51645,10.78,-0.8,2.16,2.0
1758088695.8541,1758088693.04266,0.0,0.0,0.0,13.40721,63.42643,10.25595,10.78,-0.8,2.16,2.0
1758088695.86892,1758088693.05266,0.0,0.0,0.0,10.54242,64.57235,7.33386,9.79,0.14,1.82,2.0
1758088695.87018,1758088693.06266,0.0,0.0,0.0,6.58902,66.34852,4.0107,9.79,0.14,1.82,2.0
1758088695.88496,1758088693.07266,0.0,0.0,0.0,3.32316,66.92148,0.0,9.07,0.96,1.7,2.0
1758088695.90183,1758088693.08266,0.0,0.0,0.0,-2.63561,68.23928,-6.53172,8.65,0.96,1.83,2.0
1758088695.90611,1758088693.09266,0.0,0.0,0.0,-7.10468,67.26525,-10.94349,8.65,1.35,1.83,2.0
1758088695.92172,1758088693.10266,0.0,0.0,0.0,-10.8862,65.08801,-14.38124,8.02,1.3,1.86,2.0
1758088695.94545,1758088693.11266,0.0,0.0,0.0,-14.78231,61.65026,-17.53251,8.02,1.3,1.86,2.0
1758088695.94609,1758088693.12266,0.0,0.0,0.0,-20.22541,52.71212,-20.79837,7.8,1.02,1.77,2.0
1758088695.94965,1758088693.13266,0.0,0.0,0.0,-24.17882,44.63341,-22.28806,7.8,1.02,1.77,2.0
1758088695.95037,1758088693.14266,0.0,0.0,0.0,-27.67386,36.21093,-23.26209,7.86,0.7,1.49,2.0
1758088695.96997,1758088693.15266,0.0,0.0,0.0,-30.93972,28.24682,-24.00693,7.86,0.7,1.49,2.0
1758088695.97464,1758088693.16266,0.0,0.0,0.0,-35.12231,15.29797,-23.0902,8.36,0.41,1.29,2.0
1758088695.98997,1758088693.17266,0.0,0.0,0.0,-38.50277,12.43318,-24.12152,8.67,0.24,1.09,2.0
1758088695.99464,1758088693.18266,0.0,0.0,0.0,-41.13837,12.54778,-23.0329,8.67,0.24,1.09,2.0
1758088696.01005,1758088693.19266,0.0,0.0,0.0,-43.02913,12.77696,-20.74107,8.77,0.11,1.12,2.0
1758088696.0144,1758088693.20266,0.0,0.0,0.0,-45.09178,9.68299,-18.10547,8.77,0.11,1.12,2.0
1758088696.03002,1758088693.21266,0.0,0.0,0.0,-46.2377,6.13065,-15.41257,8.05,-0.12,1.14,2.0
1758088696.03438,1758088693.22266,0.0,0.0,0.0,-47.67009,0.85944,-12.83425,8.05,-0.12,1.14,2.0
1758088696.0775,1758088693.23266,0.0,0.0,0.0,-49.61814,-9.39651,-10.19865,7.46,-0.23,0.8,2.0
1758088696.08026,1758088693.24266,0.0,0.0,0.0,-50.99325,-19.25138,-8.99544,7.08,-0.09,0.5,2.0
1758088696.08289,1758088693.25266,0.0,0.0,0.0,-52.02457,-28.13223,-8.70896,7.08,-0.09,0.5,2.0
1758088696.08535,1758088693.26266,0.0,0.0,0.0,-52.36834,-35.86716,-8.70896,7.38,0.04,0.17,2.0
1758088696.087,1758088693.27266,0.0,0.0,0.0,-52.19646,-51.73809,-9.74028,7.38,0.04,0.17,2.0
1758088696.10334,1758088693.28266,0.0,0.0,0.0,-53.51426,-50.01921,-9.74028,7.98,-0.13,-0.04,2.0
1758088696.10497,1758088693.29266,0.0,0.0,0.0,-53.68615,-18.85031,-12.83425,7.98,-0.13,-0.04,2.0
1758088696.12019,1758088693.30266,0.0,0.0,0.0,-52.9986,3.26586,-10.25595,12.33,-0.57,0.02,2.0
1758088696.12305,1758088693.31266,0.0,0.0,0.0,-55.11855,-24.17882,-18.10547,8.52,-0.86,0.95,2.0
1758088696.13798,1758088693.32266,0.0,0.0,0.0,-55.34772,-38.61736,-20.85567,8.52,-0.86,0.95,2.0
1758088696.14324,1758088693.33266,0.0,0.0,0.0,-55.57691,-32.83048,-23.83505,10.99,-0.81,-0.84,2.0
1758088696.16192,1758088693.34266,0.0,0.0,0.0,-55.7488,-16.272,-23.31938,10.99,-0.81,-0.84,2.0
1758088696.16306,1758088693.35266,0.0,0.0,0.0,-54.71747,6.7609,-17.36062,12.32,-1.08,-0.77,2.0
1758088696.17806,1758088693.36266,0.0,0.0,0.0,-52.54023,16.84496,-11.86023,12.32,-1.08,-0.77,2.0
1758088696.18079,1758088693.37266,0.0,0.0,0.0,-49.61814,20.45459,-7.04738,10.89,-1.21,0.0,2.0
1758088696.19945,1758088693.38266,0.0,0.0,0.0,-45.89392,20.22541,-3.26586,10.89,-1.21,0.0,2.0
1758088696.20491,1758088693.39266,0.0,0.0,0.0,-37.52874,20.79837,-0.0573,10.68,-1.29,0.74,2.0
1758088696.22721,1758088693.40266,0.0,0.0,0.0,-30.82513,16.73037,-1.08862,12.02,-1.83,1.19,2.0
1758088696.30057,1758088693.41266,0.0,0.0,0.0,-25.21014,8.0787,-4.98473,12.02,-1.83,1.19,2.0
1758088696.302,1758088693.42266,0.0,0.0,0.0,-19.99623,-0.17189,-12.08941,12.32,-1.76,1.79,2.0
1758088696.30333,1758088693.43266,0.0,0.0,0.0,-17.93358,-4.87014,-15.64175,12.32,-1.76,1.79,2.0
1758088696.30495,1758088693.44266,0.0,0.0,0.0,-15.92823,-4.52637,-17.13144,12.79,-1.36,1.45,2.0
1758088696.30599,1758088693.45266,0.0,0.0,0.0,-14.20935,-5.21392,-16.67307,12.79,-1.36,1.45,2.0
1758088696.30653,1758088693.46266,0.0,0.0,0.0,-10.94349,-15.92823,-14.15206,11.69,-1.2,2.09,2.0
1758088696.3073,1758088693.47266,0.0,0.0,0.0,-8.25059,-28.41871,-14.03747,10.49,-0.69,3.86,2.0
1758088696.30921,1758088693.48266,0.0,0.0,0.0,-5.61499,-35.92446,-14.72501,10.49,-0.69,3.86,2.0
1758088696.30995,1758088693.49266,0.0,0.0,0.0,-2.92208,-40.10705,-15.75634,11.57,-0.98,3.48,2.0
1758088696.3143,1758088693.50266,0.0,0.0,0.0,1.48969,-44.28964,-16.50119,11.57,-0.98,3.48,2.0
1758088696.3343,1758088693.51266,0.0,0.0,0.0,3.66693,-47.89928,-16.73037,10.35,-1.04,3.15,2.0
1758088696.33582,1758088693.52266,0.0,0.0,0.0,4.18259,-52.19646,-16.95955,10.35,-1.04,3.15,2.0
1758088696.35511,1758088693.53266,0.0,0.0,0.0,2.6929,-55.00395,-17.30333,8.92,-0.62,3.07,2.0
1758088696.36033,1758088693.54266,0.0,0.0,0.0,-2.29183,-52.82671,-19.07949,9.52,-0.15,2.97,2.0
1758088696.36097,1758088693.55266,0.0,0.0,0.0,-7.50575,-48.58683,-21.14215,9.52,-0.15,2.97,2.0
1758088696.37969,1758088693.56266,0.0,0.0,0.0,-13.06344,-45.03448,-23.72045,10.33,0.31,3.03,2.0
1758088696.38075,1758088693.57266,0.0,0.0,0.0,-18.33465,-41.02378,-26.24147,10.33,0.31,3.03,2.0
1758088696.39643,1758088693.58266,0.0,0.0,0.0,-24.75178,-30.93972,-28.24682,10.7,0.49,2.68,2.0
1758088696.41347,1758088693.59266,0.0,0.0,0.0,-27.38738,-22.23076,-27.73116,10.7,0.49,2.68,2.0
1758088696.41596,1758088693.60266,0.0,0.0,0.0,-28.30412,-12.71966,-25.26744,10.83,0.16,2.17,2.0
1758088696.4344,1758088693.61266,0.0,0.0,0.0,-27.10091,-1.77617,-18.22006,10.83,0.16,2.17,2.0
1758088696.43561,1758088693.62266,0.0,0.0,0.0,-22.63183,16.10011,-12.37589,10.64,-0.46,1.67,2.0
1758088696.45436,1758088693.63266,0.0,0.0,0.0,-19.13679,27.61657,-6.07335,10.28,-1.12,1.29,2.0
1758088696.45558,1758088693.64266,0.0,0.0,0.0,-15.06879,37.29956,-0.0573,10.28,-1.12,1.29,2.0
1758088696.47442,1758088693.65266,0.0,0.0,0.0,-8.65166,46.86795,6.99009,9.79,-1.64,1.18,2.0
1758088696.47589,1758088693.66266,0.0,0.0,0.0,-4.29718,52.76942,10.31324,9.79,-1.64,1.18,2.0
1758088696.49519,1758088693.67266,0.0,0.0,0.0,0.34377,59.35843,13.12073,9.72,-1.98,0.9,2.0
1758088696.49639,1758088693.68266,0.0,0.0,0.0,4.81285,65.89015,14.61043,9.72,-1.98,0.9,2.0
1758088696.51523,1758088693.69266,0.0,0.0,0.0,10.25595,73.05212,15.75634,9.83,-2.04,0.81,2.0
1758088696.51962,1758088693.70266,0.0,0.0,0.0,13.46451,74.02615,16.04282,9.26,-1.81,0.71,2.0
1758088696.52017,1758088693.71266,0.0,0.0,0.0,16.73037,72.19269,15.92823,9.26,-1.81,0.71,2.0
1758088696.54058,1758088693.72266,0.0,0.0,0.0,19.59516,68.69764,15.29797,8.86,-1.51,0.77,2.0
1758088696.54538,1758088693.73266,0.0,0.0,0.0,23.60586,60.27517,14.72501,8.86,-1.51,0.77,2.0
1758088696.56032,1758088693.74266,0.0,0.0,0.0,26.01229,53.34238,14.78231,8.66,-1.28,0.89,2.0
1758088696.56541,1758088693.75266,0.0,0.0,0.0,28.01764,46.69606,15.41257,8.66,-1.28,0.89,2.0
1758088696.58057,1758088693.76266,0.0,0.0,0.0,30.02299,40.27893,16.55848,8.56,-1.26,0.91,2.0
1758088696.60535,1758088693.77266,0.0,0.0,0.0,33.40344,27.67386,18.85031,8.16,-1.27,0.88,2.0
1758088696.60754,1758088693.78266,0.0,0.0,0.0,36.21093,21.7151,20.3973,8.16,-1.27,0.88,2.0
1758088696.61545,1758088693.79266,0.0,0.0,0.0,38.84654,19.25138,21.48592,8.13,-1.18,0.65,2.0
1758088696.61583,1758088693.80266,0.0,0.0,0.0,41.42485,19.19409,21.7151,8.13,-1.18,0.65,2.0
1758088696.6345,1758088693.81266,0.0,0.0,0.0,44.9199,18.27736,20.85567,8.08,-0.97,0.72,2.0
1758088696.6357,1758088693.82266,0.0,0.0,0.0,47.03984,15.12609,19.53786,8.08,-0.97,0.72,2.0
1758088696.65529,1758088693.83266,0.0,0.0,0.0,48.8733,9.74028,17.99088,7.5,-0.8,0.67,2.0
1758088696.65649,1758088693.84266,0.0,0.0,0.0,50.59217,-8.42248,14.66772,7.5,-0.8,0.67,2.0
1758088696.67532,1758088693.85266,0.0,0.0,0.0,49.04519,-21.6578,12.43318,6.59,-0.75,0.12,2.0
1758088696.68079,1758088693.86266,0.0,0.0,0.0,44.28964,-30.53865,7.62034,6.82,-0.47,-0.01,2.0
1758088696.68512,1758088693.87266,0.0,0.0,0.0,41.08107,-18.79302,7.67763,6.82,-0.47,-0.01,2.0
1758088696.69064,1758088693.88266,0.0,0.0,0.0,35.00772,5.95876,8.30789,10.14,0.19,0.83,2.0
1758088696.71029,1758088693.89266,0.0,0.0,0.0,30.65324,22.28806,8.136,10.14,0.19,0.83,2.0
1758088696.71471,1758088693.90266,0.0,0.0,0.0,26.69983,21.60051,8.02141,10.44,0.65,1.33,2.0
1758088696.73056,1758088693.91266,0.0,0.0,0.0,19.59516,-2.86479,4.52637,10.44,0.65,1.33,2.0
1758088696.73789,1758088693.92266,0.0,0.0,0.0,12.37589,-60.61894,10.25595,7.13,1.63,1.05,2.0
1758088696.75349,1758088693.93266,0.0,0.0,0.0,7.73493,-66.29122,15.58445,10.53,1.29,-0.94,2.0
1758088696.75533,1758088693.94266,0.0,0.0,0.0,2.63561,-56.03527,18.27736,10.53,1.29,-0.94,2.0
1758088696.77034,1758088693.95266,0.0,0.0,0.0,0.0,-44.9199,18.9649,12.85,0.8,0.04,2.0
1758088696.77498,1758088693.96266,0.0,0.0,0.0,-3.03668,-37.98711,17.53251,12.85,0.8,0.04,2.0
1758088696.79036,1758088693.97266,0.0,0.0,0.0,-5.95876,-35.40879,15.24068,12.66,0.29,1.87,2.0
1758088696.79503,1758088693.98266,0.0,0.0,0.0,-9.74028,-29.04896,11.57375,12.66,0.29,1.87,2.0
1758088696.81035,1758088693.99266,0.0,0.0,0.0,-14.15206,-26.81443,6.87549,13.9,0.58,1.16,2.0
1758088696.81347,1758088694.00266,0.0,0.0,0.0,-18.90761,-36.38282,1.66158,12.54,0.33,1.02,2.0
1758088696.8292,1758088694.01266,0.0,0.0,0.0,-20.22541,-40.45082,1.3178,12.54,0.33,1.02,2.0
1758088696.83439,1758088694.02266,0.0,0.0,0.0,-21.02755,-37.18496,1.43239,12.64,-0.37,1.83,2.0
1758088696.85038,1758088694.03266,0.0,0.0,0.0,-21.08485,-34.26288,6.58902,12.64,-0.37,1.83,2.0
1758088696.90612,1758088694.04266,0.0,0.0,0.0,-21.60051,-32.71589,11.97482,13.54,-1.31,3.56,2.0
1758088696.91068,1758088694.05266,0.0,0.0,0.0,-22.28806,-32.6013,16.55848,13.54,-1.31,3.56,2.0
1758088696.93063,1758088694.06266,0.0,0.0,0.0,-22.68913,-33.86181,18.27736,13.29,-1.6,4.16,2.0
1758088696.93441,1758088694.07266,0.0,0.0,0.0,-20.68378,-36.21093,16.73037,13.29,-1.6,4.16,2.0
1758088696.9356,1758088694.08266,0.0,0.0,0.0,-17.01685,-34.26288,14.72501,10.4,-1.63,3.4,2.0
1758088696.93708,1758088694.09266,0.0,0.0,0.0,-12.37589,-29.67921,11.86023,9.12,-2.19,3.0,2.0
1758088696.94019,1758088694.10266,0.0,0.0,0.0,-6.41713,-24.63719,9.5684,9.12,-2.19,3.0,2.0
1758088696.94057,1758088694.11266,0.0,0.0,0.0,3.20856,-17.53251,8.42248,8.83,-2.81,2.87,2.0
1758088696.94124,1758088694.12266,0.0,0.0,0.0,9.68299,-12.49048,9.22462,8.83,-2.81,2.87,2.0
1758088696.94315,1758088694.13266,0.0,0.0,0.0,15.98552,-7.67763,11.63104,9.46,-3.02,2.68,2.0
1758088696.96025,1758088694.14266,0.0,0.0,0.0,21.7151,-1.71887,15.0115,9.46,-3.02,2.68,2.0
1758088696.96145,1758088694.15266,0.0,0.0,0.0,27.50197,4.87014,18.50654,10.06,-2.69,2.45,2.0
1758088696.9767,1758088694.16266,0.0,0.0,0.0,30.48136,10.08406,19.13679,10.08,-1.93,2.11,2.0
1758088696.99427,1758088694.17266,0.0,0.0,0.0,33.46074,15.64175,19.70975,10.08,-1.93,2.11,2.0
1758088696.99554,1758088694.18266,0.0,0.0,0.0,34.43476,19.88164,19.88164,10.1,-1.27,2.12,2.0
1758088697.01046,1758088694.19266,0.0,0.0,0.0,33.9764,24.29341,17.53251,10.1,-1.27,2.12,2.0
1758088697.01561,1758088694.20266,0.0,0.0,0.0,32.42941,27.78845,15.69904,9.94,-0.58,1.85,2.0
1758088697.0824,1758088694.21266,0.0,0.0,0.0,29.10626,31.85646,13.00614,9.94,-0.58,1.85,2.0
1758088697.08546,1758088694.22266,0.0,0.0,0.0,25.8404,34.43476,9.22462,9.75,0.21,1.52,2.0
1758088697.08662,1758088694.23266,0.0,0.0,0.0,22.74642,35.06502,3.20856,8.96,0.73,1.17,2.0
1758088697.14477,1758088694.24266,0.0,0.0,0.0,21.42862,37.47144,-0.74485,8.96,0.73,1.17,2.0
1758088697.14517,1758088694.25266,0.0,0.0,0.0,20.11082,41.08107,-3.89611,8.96,0.63,1.1,2.0
1758088697.14708,1758088694.26266,0.0,0.0,0.0,18.27736,43.60209,-5.78687,8.96,0.63,1.1,2.0
1758088697.14936,1758088694.27266,0.0,0.0,0.0,17.30333,42.91454,-5.21392,8.62,0.07,1.13,2.0
1758088697.15067,1758088694.28266,0.0,0.0,0.0,16.272,39.70598,-3.66693,8.62,0.07,1.13,2.0
1758088697.15464,1758088694.29266,0.0,0.0,0.0,15.29797,34.89313,-1.14592,8.34,-0.47,1.03,2.0
1758088697.15505,1758088694.30266,0.0,0.0,0.0,13.17803,29.62192,1.71887,8.34,-0.47,0.83,2.0
1758088697.16025,1758088694.31266,0.0,0.0,0.0,11.57375,26.35606,3.03668,8.57,-0.64,0.83,2.0
1758088697.16097,1758088694.32266,0.0,0.0,0.0,10.08406,21.08485,3.83882,8.47,-0.42,0.54,2.0
1758088697.16288,1758088694.33266,0.0,0.0,0.0,8.59437,14.66772,5.15662,8.47,-0.42,0.54,2.0
1758088697.1648,1758088694.34266,0.0,0.0,0.0,4.18259,9.5684,3.49504,8.15,-0.15,0.41,2.0
1758088697.16554,1758088694.35266,0.0,0.0,0.0,1.3178,9.5684,2.92208,8.15,-0.15,0.41,2.0
1758088697.1808,1758088694.36266,0.0,0.0,0.0,-1.14592,11.00079,2.06265,8.23,0.12,0.25,2.0
1758088697.18529,1758088694.37266,0.0,0.0,0.0,-3.55234,10.37054,1.94806,8.23,0.12,0.25,2.0
1758088697.20054,1758088694.38266,0.0,0.0,0.0,-7.21927,5.50039,1.77617,7.79,0.27,0.27,2.0
1758088697.20501,1758088694.39266,0.0,0.0,0.0,-9.91217,0.34377,1.43239,7.43,0.35,0.12,2.0
1758088697.2209,1758088694.40266,0.0,0.0,0.0,-12.54778,-4.92744,0.34377,7.43,0.35,0.12,2.0
1758088697.22543,1758088694.41266,0.0,0.0,0.0,-15.29797,-12.2613,-0.74485,7.61,0.45,-0.08,2.0
1758088697.24382,1758088694.42266,0.0,0.0,0.0,-18.85031,-24.80907,-3.72423,7.61,0.45,-0.08,2.0
1758088697.24988,1758088694.43266,0.0,0.0,0.0,-20.51189,-32.54401,-6.07335,8.0,0.38,-0.45,2.0
1758088697.2504,1758088694.44266,0.0,0.0,0.0,-21.7724,-41.88322,-8.76626,8.0,0.38,-0.45,2.0
1758088697.27489,1758088694.45266,0.0,0.0,0.0,-23.83505,-48.70141,-11.63104,8.56,0.02,-0.84,2.0
1758088697.2769,1758088694.46266,0.0,0.0,0.0,-24.17882,-15.98552,-14.49583,12.17,-0.14,-0.65,2.0
1758088697.29522,1758088694.47266,0.0,0.0,0.0,-22.74642,12.89155,-13.34992,12.17,-0.14,-0.65,2.0
1758088697.29786,1758088694.48266,0.0,0.0,0.0,-22.51724,5.21392,-16.73037,11.62,0.0,0.21,2.0
1758088697.31537,1758088694.49266,0.0,0.0,0.0,-24.00693,-20.68378,-23.37668,11.62,0.0,0.21,2.0
1758088697.32051,1758088694.50266,0.0,0.0,0.0,-21.37133,-20.34,-27.67386,10.93,0.37,0.32,2.0
1758088697.32158,1758088694.51266,0.0,0.0,0.0,-16.61578,-13.06344,-29.56462,10.93,0.37,0.32,2.0
1758088697.34595,1758088694.52266,0.0,0.0,0.0,-11.80293,-9.28192,-31.16891,13.82,-0.66,0.82,2.0
1758088697.35021,1758088694.53266,0.0,0.0,0.0,-6.35983,-9.74028,-30.88243,12.4,-0.66,2.01,2.0
1758088697.35076,1758088694.54266,0.0,0.0,0.0,-3.32316,-9.28192,-28.476,12.4,-1.56,2.01,2.0
1758088697.36891,1758088694.55266,0.0,0.0,0.0,-0.51566,-7.62034,-24.63719,11.23,-1.61,1.75,2.0
1758088697.36982,1758088694.56266,0.0,0.0,0.0,4.35448,-12.43318,-20.74107,11.23,-1.61,1.75,2.0
1758088697.38593,1758088694.57266,0.0,0.0,0.0,10.59972,-29.62192,-19.36597,11.02,-1.44,4.49,2.0
1758088697.39323,1758088694.58266,0.0,0.0,0.0,14.83961,-30.48136,-20.16812,11.02,-1.44,4.49,2.0
1758088697.41023,1758088694.59266,0.0,0.0,0.0,19.25138,-27.50197,-20.97026,14.12,-2.32,3.94,2.0
1758088697.43726,1758088694.60266,0.0,0.0,0.0,23.31938,-28.70519,-21.60051,14.12,-2.32,3.94,2.0
1758088697.43779,1758088694.61266,0.0,0.0,0.0,26.12688,-35.00772,-21.94428,13.21,-2.2,2.92,2.0
1758088697.44283,1758088694.62266,0.0,0.0,0.0,24.5226,-36.61201,-21.94428,10.51,-1.16,3.15,2.0
1758088697.44418,1758088694.63266,0.0,0.0,0.0,19.70975,-37.75792,-22.51724,10.51,-1.16,3.15,2.0
1758088697.45997,1758088694.64266,0.0,0.0,0.0,12.54778,-36.61201,-22.68913,9.86,-0.11,3.44,2.0
1758088697.4609,1758088694.65266,0.0,0.0,0.0,-1.20321,-35.58068,-22.97561,9.86,-0.11,3.44,2.0
1758088697.47966,1758088694.66266,0.0,0.0,0.0,-11.11538,-34.77854,-22.91831,10.05,0.59,3.49,2.0
1758088697.50018,1758088694.67266,0.0,0.0,0.0,-20.11082,-30.48136,-22.57454,10.05,0.59,3.49,2.0
1758088697.50329,1758088694.68266,0.0,0.0,0.0,-30.36677,-20.74107,-20.45459,10.82,0.66,3.04,2.0
1758088697.50602,1758088694.69266,0.0,0.0,0.0,-34.32018,-14.32395,-18.33465,10.79,0.17,2.7,2.0
1758088697.52399,1758088694.70266,0.0,0.0,0.0,-36.03905,-6.7609,-15.58445,10.79,0.17,2.7,2.0
1758088697.52574,1758088694.71266,0.0,0.0,0.0,-35.52338,2.7502,-12.37589,10.56,-0.53,2.05,2.0
1758088697.54099,1758088694.72266,0.0,0.0,0.0,-31.79916,17.58981,-6.47442,10.56,-0.53,2.05,2.0
1758088697.54939,1758088694.73266,0.0,0.0,0.0,-27.84575,26.12688,-2.63561,10.24,-1.21,1.71,2.0
1758088697.55065,1758088694.74266,0.0,0.0,0.0,-23.54857,33.68992,0.80214,10.24,-1.21,1.71,2.0
1758088697.5699,1758088694.75266,0.0,0.0,0.0,-19.36597,41.25296,3.26586,9.72,-1.88,1.5,2.0
1758088697.57504,1758088694.76266,0.0,0.0,0.0,-13.17803,50.47758,5.09932,9.45,-2.38,1.24,2.0
1758088697.59056,1758088694.77266,0.0,0.0,0.0,-9.28192,55.7488,5.61499,9.45,-2.38,1.24,2.0
1758088697.59534,1758088694.78266,0.0,0.0,0.0,-5.27121,59.41573,6.13065,9.18,-2.49,1.14,2.0
1758088697.60977,1758088694.79266,0.0,0.0,0.0,-1.60428,62.79618,6.87549,9.18,-2.49,1.14,2.0
1758088697.61504,1758088694.80266,0.0,0.0,0.0,2.97938,65.08801,7.67763,8.8,-2.24,1.13,2.0
1758088697.63058,1758088694.81266,0.0,0.0,0.0,5.61499,65.14531,8.30789,8.8,-2.24,1.13,2.0
1758088697.63499,1758088694.82266,0.0,0.0,0.0,7.79223,63.94209,8.47978,8.39,-1.78,1.02,2.0
1758088697.64995,1758088694.83266,0.0,0.0,0.0,9.96947,62.16592,8.93814,8.39,-1.78,1.02,2.0
1758088697.65178,1758088694.84266,0.0,0.0,0.0,12.08941,57.46767,9.11003,8.15,-1.32,0.99,2.0
1758088697.66774,1758088694.85266,0.0,0.0,0.0,12.89155,51.6235,8.76626,7.7,-0.94,0.95,2.0
1758088697.67441,1758088694.86266,0.0,0.0,0.0,13.69369,45.43555,8.25059,7.7,-0.94,0.95,2.0
1758088697.68979,1758088694.87266,0.0,0.0,0.0,14.78231,39.01843,6.47442,7.51,-0.81,1.02,2.0
1758088697.69343,1758088694.88266,0.0,0.0,0.0,15.69904,28.93437,5.27121,7.51,-0.81,1.02,2.0
1758088697.70963,1758088694.89266,0.0,0.0,0.0,17.47521,22.74642,4.18259,7.43,-0.91,1.02,2.0
1758088697.71407,1758088694.90266,0.0,0.0,0.0,19.59516,16.67307,3.89611,7.43,-0.91,1.02,2.0
1758088697.72967,1758088694.91266,0.0,0.0,0.0,24.00693,12.54778,3.72423,7.44,-1.16,1.11,2.0
1758088697.73508,1758088694.92266,0.0,0.0,0.0,27.61657,10.08406,4.18259,7.45,-1.4,1.03,2.0
1758088697.74986,1758088694.93266,0.0,0.0,0.0,31.45539,5.84417,4.64096,7.45,-1.4,1.03,2.0
1758088697.75432,1758088694.94266,0.0,0.0,0.0,35.40879,-0.22918,5.15662,7.11,-1.55,1.0,2.0
1758088697.76993,1758088694.95266,0.0,0.0,0.0,40.7373,-11.22997,6.47442,7.11,-1.55,1.0,2.0
1758088697.77371,1758088694.96266,0.0,0.0,0.0,43.88857,-19.59516,7.73493,7.2,-1.63,0.44,2.0
1758088697.78992,1758088694.97266,0.0,0.0,0.0,46.40959,-31.2262,9.68299,7.2,-1.63,0.44,2.0
1758088697.79489,1758088694.98266,0.0,0.0,0.0,47.15443,-43.20102,11.17268,7.5,-1.52,0.0,2.0
1758088697.80992,1758088694.99266,0.0,0.0,0.0,43.02913,-49.33167,11.91752,9.06,-0.77,-0.14,2.0
1758088697.81432,1758088695.00266,0.0,0.0,0.0,38.61736,-36.6693,12.08941,9.06,-0.77,-0.14,2.0
1758088697.82998,1758088695.01266,0.0,0.0,0.0,35.58068,-14.20935,13.34992,12.47,0.5,-0.03,2.0
1758088697.83511,1758088695.02266,0.0,0.0,0.0,30.19488,11.34457,11.57375,12.47,0.5,-0.03,2.0
1758088697.87467,1758088695.03266,0.0,0.0,0.0,21.88699,23.72045,8.65166,12.61,1.07,0.39,2.0
1758088697.8756,1758088695.04266,0.0,0.0,0.0,17.6471,-0.97403,5.72958,12.61,1.07,0.39,2.0
1758088697.877,1758088695.05266,0.0,0.0,0.0,14.49583,-36.6693,6.7609,9.3,0.71,-0.21,2.0
1758088697.88067,1758088695.06266,0.0,0.0,0.0,9.28192,-45.77933,8.47978,9.3,0.71,-0.21,2.0
1758088697.88526,1758088695.07266,0.0,0.0,0.0,2.6929,-29.27814,9.4538,12.49,-0.18,-1.21,2.0
1758088697.90473,1758088695.08266,0.0,0.0,0.0,0.51566,-17.47521,11.51645,14.86,-1.0,0.68,2.0
1758088697.90934,1758088695.09266,0.0,0.0,0.0,-1.43239,-13.23533,13.06344,14.86,-1.0,0.68,2.0
1758088697.91051,1758088695.10266,0.0,0.0,0.0,-5.21392,-24.23611,12.71966,12.81,-0.2,1.41,2.0
1758088697.92998,1758088695.11266,0.0,0.0,0.0,-7.62034,-36.7266,11.28727,12.81,-0.2,1.41,2.0
1758088697.93517,1758088695.12266,0.0,0.0,0.0,-8.93814,-45.03448,10.08406,10.05,0.19,1.36,2.0
1758088697.95006,1758088695.13266,0.0,0.0,0.0,-10.08406,-48.01387,10.19865,10.05,0.19,1.36,2.0
1758088697.95554,1758088695.14266,0.0,0.0,0.0,-12.49048,-55.86338,15.69904,10.0,-0.42,3.02,2.0
1758088697.97007,1758088695.15266,0.0,0.0,0.0,-14.66772,-61.36378,23.66316,11.41,-0.84,5.84,2.0
1758088697.99392,1758088695.16266,0.0,0.0,0.0,-16.73037,-61.24919,31.79916,11.41,-0.84,5.84,2.0
1758088698.00036,1758088695.17266,0.0,0.0,0.0,-18.22006,-56.952,37.18496,12.61,-0.69,4.96,2.0
1758088698.01349,1758088695.18266,0.0,0.0,0.0,-18.33465,-50.82136,38.84654,12.61,-0.69,4.96,2.0
1758088698.03595,1758088695.19266,0.0,0.0,0.0,-16.38659,-46.46688,37.47144,10.5,-1.14,4.03,2.0
1758088698.04204,1758088695.20266,0.0,0.0,0.0,-13.12073,-39.13302,34.72124,10.5,-1.14,4.03,2.0
1758088698.04245,1758088695.21266,0.0,0.0,0.0,-7.79223,-30.48136,31.11161,10.04,-1.9,3.37,2.0
1758088698.04437,1758088695.22266,0.0,0.0,0.0,2.23454,-17.76169,25.21014,10.71,-2.32,2.89,2.0
1758088698.04502,1758088695.23266,0.0,0.0,0.0,9.11003,-10.08406,21.88699,10.71,-2.32,2.89,2.0
1758088698.08673,1758088695.24266,0.0,0.0,0.0,14.66772,-4.18259,20.34,11.76,-2.25,2.57,2.0
1758088698.09438,1758088695.25266,0.0,0.0,0.0,18.62113,3.83882,19.76705,11.76,-2.25,2.57,2.0
1758088698.09502,1758088695.26266,0.0,0.0,0.0,21.37133,20.05352,17.13144,12.45,-1.9,1.93,2.0
1758088698.10109,1758088695.27266,0.0,0.0,0.0,21.7151,29.50733,14.66772,12.45,-1.9,1.93,2.0
1758088698.10347,1758088695.28266,0.0,0.0,0.0,21.08485,36.61201,11.63104,11.26,-1.41,1.67,2.0
1758088698.10521,1758088695.29266,0.0,0.0,0.0,18.27736,46.06581,6.47442,11.26,-1.41,1.67,2.0
1758088698.12033,1758088695.30266,0.0,0.0,0.0,15.29797,50.76406,2.46372,10.16,-0.76,1.7,2.0
1758088698.12451,1758088695.31266,0.0,0.0,0.0,11.91752,55.06125,-1.08862,9.53,0.02,1.63,2.0
1758088698.14034,1758088695.32266,0.0,0.0,0.0,8.42248,57.46767,-4.69825,9.53,0.02,1.63,2.0
1758088698.15035,1758088695.33266,0.0,0.0,0.0,3.55234,60.73353,-9.33921,9.02,0.68,1.57,2.0
1758088698.15557,1758088695.34266,0.0,0.0,0.0,1.20321,61.1346,-12.71966,9.02,0.68,1.57,2.0
1758088698.18075,1758088695.35266,0.0,0.0,0.0,-0.68755,61.36378,-14.83961,8.5,0.84,1.5,2.0
1758088698.18518,1758088695.36266,0.0,0.0,0.0,-2.46372,58.90006,-17.24603,8.5,0.84,1.5,2.0
1758088698.18664,1758088695.37266,0.0,0.0,0.0,-4.92744,53.28508,-19.48057,8.0,0.54,1.52,2.0
1758088698.19424,1758088695.38266,0.0,0.0,0.0,-6.41713,47.49821,-19.82434,7.68,0.13,1.23,2.0
1758088698.2101,1758088695.39266,0.0,0.0,0.0,-7.33386,41.02378,-19.19409,7.68,0.13,1.23,2.0
1758088698.21532,1758088695.40266,0.0,0.0,0.0,-8.36518,33.63263,-17.87628,7.72,-0.17,1.28,2.0
1758088698.27992,1758088695.41266,0.0,0.0,0.0,-9.62569,23.54857,-15.24068,7.72,-0.17,1.28,2.0
1758088698.28082,1758088695.42266,0.0,0.0,0.0,-10.8862,16.84496,-12.83425,7.82,-0.36,1.14,2.0
1758088698.28229,1758088695.43266,0.0,0.0,0.0,-11.51645,7.84952,-9.33921,7.82,-0.36,1.14,2.0
1758088698.28433,1758088695.44266,0.0,0.0,0.0,-14.03747,3.95341,-8.136,7.51,-0.37,0.79,2.0
1758088698.28497,1758088695.45266,0.0,0.0,0.0,-16.84496,5.21392,-4.98473,7.83,-0.19,0.78,2.0
1758088698.29532,1758088695.46266,0.0,0.0,0.0,-18.33465,6.87549,-3.49504,7.83,-0.19,0.78,2.0
1758088698.2957,1758088695.47266,0.0,0.0,0.0,-20.16812,6.53172,-1.94806,7.64,-0.08,0.87,2.0
1758088698.29631,1758088695.48266,0.0,0.0,0.0,-22.74642,4.18259,-0.40107,7.64,-0.08,0.87,2.0
1758088698.30059,1758088695.49266,0.0,0.0,0.0,-24.63719,-1.71887,0.0573,7.5,0.0,0.94,2.0
1758088698.31983,1758088695.50266,0.0,0.0,0.0,-26.52795,-6.87549,0.0,7.5,0.0,0.94,2.0
1758088698.32076,1758088695.51266,0.0,0.0,0.0,-28.64789,-13.40721,-0.80214,7.76,0.15,0.64,2.0
1758088698.33646,1758088695.52266,0.0,0.0,0.0,-31.16891,-25.21014,-4.18259,7.76,0.15,0.64,2.0
1758088698.35484,1758088695.53266,0.0,0.0,0.0,-32.48671,-32.42941,-6.8182,8.05,0.19,0.25,2.0
1758088698.36057,1758088695.54266,0.0,0.0,0.0,-33.34615,-36.61201,-9.28192,8.77,-0.01,-0.25,2.0
1758088698.38612,1758088695.55266,0.0,0.0,0.0,-33.86181,-40.16434,-13.17803,8.77,-0.01,-0.25,2.0
1758088698.39531,1758088695.56266,0.0,0.0,0.0,-35.69527,-32.42941,-16.90226,9.66,-0.5,-0.64,2.0
1758088698.3959,1758088695.57266,0.0,0.0,0.0,-35.92446,-3.55234,-18.79302,9.66,-0.5,-0.64,2.0
1758088698.4006,1758088695.58266,0.0,0.0,0.0,-35.2942,22.57454,-18.79302,13.54,-0.69,-0.36,2.0
1758088698.40174,1758088695.59266,0.0,0.0,0.0,-35.00772,10.59972,-21.7724,13.54,-0.69,-0.36,2.0
1758088698.42511,1758088695.60266,0.0,0.0,0.0,-36.49741,-11.45916,-26.41335,9.91,-0.41,0.22,2.0
1758088698.43523,1758088695.61266,0.0,0.0,0.0,-36.03905,-10.8862,-29.67921,11.89,0.12,-0.87,2.0
1758088698.43568,1758088695.62266,0.0,0.0,0.0,-33.68992,-3.95341,-30.19488,11.89,0.12,-0.87,2.0
1758088698.44554,1758088695.63266,0.0,0.0,0.0,-29.56462,2.29183,-29.96569,13.47,-0.26,0.48,2.0
1758088698.48044,1758088695.64266,0.0,0.0,0.0,-21.31403,3.60963,-29.67921,13.47,-0.26,0.48,2.0
1758088698.48542,1758088695.65266,0.0,0.0,0.0,-15.46986,-2.29183,-29.56462,13.08,-1.29,1.84,2.0
1758088698.48604,1758088695.66266,0.0,0.0,0.0,-10.71431,-9.62569,-28.41871,13.08,-1.29,1.84,2.0
1758088698.48881,1758088695.67266,0.0,0.0,0.0,-6.70361,-13.5791,-24.35071,11.38,-2.01,1.07,2.0
1758088698.50533,1758088695.68266,0.0,0.0,0.0,0.11459,-20.22541,-21.48592,10.36,-2.08,2.52,2.0
1758088698.51022,1758088695.69266,0.0,0.0,0.0,5.61499,-37.12767,-21.31403,10.36,-2.08,2.52,2.0
1758088698.51516,1758088695.70266,0.0,0.0,0.0,10.54242,-52.36834,-25.43933,10.88,-2.1,6.43,2.0
1758088698.5305,1758088695.71266,0.0,0.0,0.0,19.76705,-57.23849,-33.05967,10.88,-2.1,6.43,2.0
1758088698.53572,1758088695.72266,0.0,0.0,0.0,25.72581,-56.83742,-35.86716,13.25,-3.08,4.63,2.0
1758088698.55031,1758088695.73266,0.0,0.0,0.0,29.39274,-57.29578,-36.26823,13.25,-3.08,4.63,2.0
1758088698.5555,1758088695.74266,0.0,0.0,0.0,29.8511,-57.92604,-34.60666,10.35,-1.89,3.9,2.0
1758088698.57033,1758088695.75266,0.0,0.0,0.0,23.49127,-56.26446,-30.25217,10.35,-1.89,3.94,2.0
1758088698.57549,1758088695.76266,0.0,0.0,0.0,15.46986,-50.59217,-26.52795,9.43,-0.29,3.94,2.0
1758088698.59058,1758088695.77266,0.0,0.0,0.0,5.27121,-44.8053,-22.74642,11.05,1.26,4.11,2.0
1758088698.59567,1758088695.78266,0.0,0.0,0.0,-5.84417,-40.45082,-19.59516,11.05,1.26,4.11,2.0
1758088698.61031,1758088695.79266,0.0,0.0,0.0,-21.42862,-31.74186,-16.38659,11.71,2.16,3.41,2.0
1758088698.62073,1758088695.80266,0.0,0.0,0.0,-29.56462,-24.75178,-14.43854,11.71,2.16,3.41,2.0
1758088698.62171,1758088695.81266,0.0,0.0,0.0,-35.12231,-16.55848,-12.2613,11.7,1.87,2.76,2.0
1758088698.64037,1758088695.82266,0.0,0.0,0.0,-37.92981,-6.24524,-10.08406,11.7,1.87,2.76,2.0
1758088698.64153,1758088695.83266,0.0,0.0,0.0,-38.21629,10.94349,-6.7609,11.5,0.93,2.14,2.0
1758088698.65952,1758088695.84266,0.0,0.0,0.0,-36.61201,22.51724,-4.52637,11.2,-0.05,1.64,2.0
1758088698.66078,1758088695.85266,0.0,0.0,0.0,-34.09099,33.51803,-2.57831,11.2,-0.05,1.64,2.0
1758088698.67739,1758088695.86266,0.0,0.0,0.0,-31.56997,42.74266,-0.74485,10.45,-1.04,1.33,2.0
1758088698.68074,1758088695.87266,0.0,0.0,0.0,-27.04361,53.39967,1.08862,10.45,-1.04,1.33,2.0
1758088698.69735,1758088695.88266,0.0,0.0,0.0,-23.66316,58.09792,1.66158,9.64,-1.79,1.25,2.0
1758088698.70095,1758088695.89266,0.0,0.0,0.0,-19.48057,62.91077,3.26586,9.64,-1.79,1.25,2.0
1758088698.71743,1758088695.90266,0.0,0.0,0.0,-13.40721,67.66632,6.07335,8.85,-2.24,1.09,2.0
1758088698.72085,1758088695.91266,0.0,0.0,0.0,-9.85487,72.99483,8.25059,8.34,-2.29,1.07,2.0
1758088698.73919,1758088695.92266,0.0,0.0,0.0,-6.53172,74.94289,9.68299,8.34,-2.29,1.07,2.0
1758088698.74097,1758088695.93266,0.0,0.0,0.0,-3.38045,75.97421,11.17268,8.19,-1.9,1.01,2.0
1758088698.75741,1758088695.94266,0.0,0.0,0.0,0.0573,74.65641,12.37589,8.19,-1.9,1.01,2.0
1758088698.76345,1758088695.95266,0.0,0.0,0.0,1.43239,72.07809,12.37589,8.14,-1.29,1.05,2.0
1758088698.77936,1758088695.96266,0.0,0.0,0.0,2.11994,68.58305,11.74564,8.14,-1.29,1.05,2.0
1758088698.78056,1758088695.97266,0.0,0.0,0.0,2.11994,63.99939,10.31324,8.0,-0.73,1.12,2.0
1758088698.80065,1758088695.98266,0.0,0.0,0.0,1.60428,55.00395,7.33386,7.58,-0.41,1.11,2.0
1758088698.80586,1758088695.99266,0.0,0.0,0.0,1.3178,47.49821,4.81285,7.58,-0.41,1.11,2.0
1758088698.81077,1758088696.00266,0.0,0.0,0.0,1.48969,39.99245,2.63561,7.08,-0.36,1.12,2.0
1758088698.82771,1758088696.01266,0.0,0.0,0.0,1.94806,31.39809,0.11459,7.08,-0.36,1.12,2.0
1758088698.87512,1758088696.02266,0.0,0.0,0.0,4.1253,18.9649,-3.26586,6.63,-0.48,1.23,2.0
1758088698.88052,1758088696.03266,0.0,0.0,0.0,6.35983,11.97482,-4.64096,6.63,-0.48,1.23,2.0
1758088698.90609,1758088696.04266,0.0,0.0,0.0,8.99544,5.32851,-5.95876,6.56,-0.73,1.17,2.0
1758088698.90994,1758088696.05266,0.0,0.0,0.0,12.204,-1.66158,-6.24524,6.56,-0.73,1.17,2.0
1758088698.91538,1758088696.06266,0.0,0.0,0.0,17.99088,-13.46451,-4.52637,6.52,-1.15,1.08,2.0
1758088698.91935,1758088696.07266,0.0,0.0,0.0,21.94428,-23.0902,-1.3178,6.76,-1.67,0.24,2.0
1758088698.92097,1758088696.08266,0.0,0.0,0.0,25.49662,-36.89849,2.7502,6.76,-1.67,0.24,2.0
1758088698.92165,1758088696.09266,0.0,0.0,0.0,27.1582,-49.79003,8.70896,7.29,-1.84,-0.34,2.0
1758088698.92299,1758088696.10266,0.0,0.0,0.0,26.75713,-52.71212,9.91217,7.29,-1.84,-0.34,2.0
1758088698.92586,1758088696.11266,0.0,0.0,0.0,27.33009,-34.09099,16.3293,10.56,-1.25,-0.68,2.0
1758088698.94172,1758088696.12266,0.0,0.0,0.0,26.81443,-11.91752,20.51189,10.56,-1.25,-0.68,2.0
1758088698.94512,1758088696.13266,0.0,0.0,0.0,21.08485,14.32395,22.63183,13.58,-0.22,0.11,2.0
1758088698.96052,1758088696.14266,0.0,0.0,0.0,16.67307,16.67307,21.6578,11.9,0.57,0.51,2.0
1758088698.96497,1758088696.15266,0.0,0.0,0.0,13.5218,-8.70896,17.13144,11.9,0.57,0.51,2.0
1758088699.00043,1758088696.16266,0.0,0.0,0.0,10.31324,-37.75792,15.46986,9.07,0.66,-0.12,2.0
1758088699.06025,1758088696.17266,0.0,0.0,0.0,5.09932,-55.11855,17.01685,9.07,0.66,-0.12,2.0
1758088699.06591,1758088696.18266,0.0,0.0,0.0,-1.03132,-43.88857,16.90226,13.61,0.26,0.75,2.0
1758088699.06998,1758088696.19266,0.0,0.0,0.0,-7.10468,-36.61201,16.61578,13.61,0.26,0.75,2.0
1758088699.0709,1758088696.20266,0.0,0.0,0.0,-12.83425,-39.99245,17.87628,14.54,0.55,1.75,2.0
1758088699.07931,1758088696.21266,0.0,0.0,0.0,-22.05888,-49.84733,19.19409,12.32,0.51,2.44,2.0
1758088699.08078,1758088696.22266,0.0,0.0,0.0,-28.24682,-54.88936,20.34,12.32,0.51,2.44,2.0
1758088699.08489,1758088696.23266,0.0,0.0,0.0,-33.74722,-57.12389,22.63183,12.32,0.34,3.57,2.0
1758088699.0855,1758088696.24266,0.0,0.0,0.0,-38.50277,-55.51962,25.43933,12.32,0.34,3.57,2.0
1758088699.08626,1758088696.25266,0.0,0.0,0.0,-43.77398,-49.04519,27.78845,12.97,0.32,4.62,2.0
1758088699.08842,1758088696.26266,0.0,0.0,0.0,-45.43555,-46.1804,27.2155,12.97,0.32,4.62,2.0
1758088699.08886,1758088696.27266,0.0,0.0,0.0,-45.49285,-45.72203,25.26744,11.36,-0.33,4.13,2.0
1758088699.09003,1758088696.28266,0.0,0.0,0.0,-43.25832,-42.85724,22.86102,11.36,-0.33,4.13,2.0
1758088699.11056,1758088696.29266,0.0,0.0,0.0,-35.92446,-31.97105,18.33465,10.01,-1.39,3.41,2.0
1758088699.11569,1758088696.30266,0.0,0.0,0.0,-28.76248,-23.31938,15.46986,9.97,-2.32,2.98,2.0
1758088699.13087,1758088696.31266,0.0,0.0,0.0,-20.45459,-15.58445,14.03747,9.97,-2.32,2.98,2.0
1758088699.13546,1758088696.32266,0.0,0.0,0.0,-7.50575,-4.98473,14.09476,10.02,-2.96,2.79,2.0
1758088699.15082,1758088696.33266,0.0,0.0,0.0,0.80214,0.97403,15.75634,10.02,-2.96,2.79,2.0
1758088699.15571,1758088696.34266,0.0,0.0,0.0,8.25059,6.53172,18.16276,10.41,-3.17,2.6,2.0
1758088699.17056,1758088696.35266,0.0,0.0,0.0,14.09476,12.204,20.22541,10.41,-3.17,2.6,2.0
1758088699.17577,1758088696.36266,0.0,0.0,0.0,18.44924,22.05888,21.60051,10.82,-2.68,2.46,2.0
1758088699.19057,1758088696.37266,0.0,0.0,0.0,18.10547,29.10626,21.14215,10.89,-1.67,2.32,2.0
1758088699.19973,1758088696.38266,0.0,0.0,0.0,15.58445,35.86716,20.3973,10.89,-1.67,2.32,2.0
1758088699.20035,1758088696.39266,0.0,0.0,0.0,11.97482,41.13837,18.10547,10.4,-0.42,2.29,2.0
1758088699.2206,1758088696.40266,0.0,0.0,0.0,7.16197,46.06581,12.83425,10.4,-0.42,2.29,2.0
1758088699.22504,1758088696.41266,0.0,0.0,0.0,4.23989,46.81066,8.0787,9.47,0.56,1.71,2.0
1758088699.24076,1758088696.42266,0.0,0.0,0.0,1.03132,48.01387,2.63561,9.47,0.56,1.71,2.0
1758088699.24501,1758088696.43266,0.0,0.0,0.0,-2.00535,48.8733,-2.7502,9.11,1.13,1.79,2.0
1758088699.26062,1758088696.44266,0.0,0.0,0.0,-7.04738,50.64947,-10.08406,8.91,1.06,1.6,2.0
1758088699.26498,1758088696.45266,0.0,0.0,0.0,-8.99544,51.27972,-14.03747,8.91,1.06,1.6,2.0
1758088699.2809,1758088696.46266,0.0,0.0,0.0,-10.8862,49.84733,-16.55848,8.42,0.53,1.32,2.0
1758088699.28429,1758088696.47266,0.0,0.0,0.0,-12.89155,46.69606,-18.16276,8.42,0.53,1.32,2.0
1758088699.29996,1758088696.48266,0.0,0.0,0.0,-14.9542,43.54479,-19.70975,8.26,-0.04,1.41,2.0
1758088699.30167,1758088696.49266,0.0,0.0,0.0,-14.9542,39.07573,-20.16812,8.26,-0.04,1.41,2.0
1758088699.32005,1758088696.50266,0.0,0.0,0.0,-15.0115,32.6013,-18.85031,8.18,-0.41,0.88,2.0
1758088699.32183,1758088696.51266,0.0,0.0,0.0,-14.78231,25.09555,-15.98552,8.18,-0.41,0.88,2.0
1758088699.33692,1758088696.52266,0.0,0.0,0.0,-14.66772,17.13144,-13.5218,8.28,-0.69,1.07,2.0
1758088699.34033,1758088696.53266,0.0,0.0,0.0,-14.43854,12.60507,-10.94349,8.39,-0.69,0.82,2.0
1758088699.35596,1758088696.54266,0.0,0.0,0.0,-14.20935,6.13065,-7.96411,8.39,-0.69,0.82,2.0
1758088699.37513,1758088696.55266,0.0,0.0,0.0,-15.75634,2.46372,-5.15662,7.89,-0.45,0.67,2.0
1758088699.37709,1758088696.56266,0.0,0.0,0.0,-16.90226,4.52637,-3.49504,7.89,-0.45,0.67,2.0
1758088699.39454,1758088696.57266,0.0,0.0,0.0,-17.99088,7.39116,-2.46372,7.9,-0.17,0.59,2.0
1758088699.39552,1758088696.58266,0.0,0.0,0.0,-19.42327,8.02141,-1.48969,7.9,-0.17,0.59,2.0
1758088699.41327,1758088696.59266,0.0,0.0,0.0,-22.00158,5.09932,-0.80214,7.37,-0.04,0.66,2.0
1758088699.41939,1758088696.60266,0.0,0.0,0.0,-24.23611,1.60428,-1.03132,7.05,0.09,0.45,2.0
1758088699.41977,1758088696.61266,0.0,0.0,0.0,-26.75713,-3.89611,-2.29183,7.05,0.09,0.45,2.0
1758088699.44272,1758088696.62266,0.0,0.0,0.0,-29.10626,-13.12073,-3.55234,7.05,0.24,-0.08,2.0
1758088699.4476,1758088696.63266,0.0,0.0,0.0,-32.48671,-29.67921,-6.24524,7.05,0.24,-0.08,2.0
1758088699.44938,1758088696.64266,0.0,0.0,0.0,-34.32018,-38.15899,-8.136,7.55,0.28,-0.36,2.0
1758088699.4659,1758088696.65266,0.0,0.0,0.0,-35.12231,-43.65939,-11.00079,7.55,0.28,-0.36,2.0
1758088699.47489,1758088696.66266,0.0,0.0,0.0,-36.61201,-46.40959,-12.08941,9.04,0.0,-0.78,2.0
1758088699.48996,1758088696.67266,0.0,0.0,0.0,-38.90384,-10.37054,-15.58445,12.81,-0.18,-0.11,2.0
1758088699.49499,1758088696.68266,0.0,0.0,0.0,-38.27358,20.16812,-15.06879,12.81,-0.18,-0.11,2.0
1758088699.50994,1758088696.69266,0.0,0.0,0.0,-38.1017,12.54778,-17.93358,11.84,-0.33,0.33,2.0
1758088699.51515,1758088696.70266,0.0,0.0,0.0,-40.33623,-6.58902,-22.63183,11.84,-0.33,0.33,2.0
1758088699.53005,1758088696.71266,0.0,0.0,0.0,-39.99245,-12.43318,-28.64789,10.32,0.03,-0.72,2.0
1758088699.53368,1758088696.72266,0.0,0.0,0.0,-38.21629,-2.34913,-29.10626,10.32,0.03,-0.72,2.0
1758088699.54996,1758088696.73266,0.0,0.0,0.0,-34.60666,3.95341,-28.41871,13.02,-0.19,0.41,2.0
1758088699.55532,1758088696.74266,0.0,0.0,0.0,-26.06958,4.98473,-27.73116,13.02,-0.19,0.41,2.0
1758088699.56996,1758088696.75266,0.0,0.0,0.0,-19.13679,-0.17189,-27.33009,12.93,-1.46,2.02,2.0
1758088699.60055,1758088696.76266,0.0,0.0,0.0,-13.40721,-10.08406,-26.24147,11.72,-2.53,1.36,2.0
1758088699.60245,1758088696.77266,0.0,0.0,0.0,-9.11003,-18.33465,-23.94964,11.72,-2.53,1.36,2.0
1758088699.60535,1758088696.78266,0.0,0.0,0.0,-2.34913,-29.04896,-19.82434,10.53,-2.26,1.8,2.0
1758088699.60911,1758088696.79266,0.0,0.0,0.0,3.49504,-48.64412,-20.22541,10.53,-2.26,1.8,2.0
1758088699.61507,1758088696.80266,0.0,0.0,0.0,8.59437,-62.79618,-25.21014,10.33,-1.66,6.6,2.0
1758088699.63086,1758088696.81266,0.0,0.0,0.0,15.0115,-62.5097,-30.53865,10.33,-1.66,6.6,2.0
1758088699.63522,1758088696.82266,0.0,0.0,0.0,23.0902,-57.18119,-35.98175,13.82,-2.99,4.7,2.0
1758088699.6508,1758088696.83266,0.0,0.0,0.0,26.24147,-55.29043,-36.84119,11.59,-2.28,3.67,2.0
1758088699.68105,1758088696.84266,0.0,0.0,0.0,26.64254,-52.82671,-35.40879,11.59,-2.28,3.67,2.0
1758088699.6821,1758088696.85266,0.0,0.0,0.0,23.37668,-50.01921,-32.83048,9.78,-0.71,4.17,2.0
1758088699.77572,1758088696.86266,0.0,0.0,0.0,13.69369,-41.48215,-27.50197,9.78,-0.71,4.17,2.0
1758088699.77662,1758088696.87266,0.0,0.0,0.0,4.69825,-34.49206,-23.20479,10.58,0.69,4.16,2.0
1758088699.78353,1758088696.88266,0.0,0.0,0.0,-5.27121,-29.8511,-19.25138,10.58,0.69,4.16,2.0
1758088699.7889,1758088696.89266,0.0,0.0,0.0,-14.61043,-24.17882,-16.61578,11.35,1.61,3.47,2.0
1758088699.79543,1758088696.90266,0.0,0.0,0.0,-24.17882,-10.8862,-12.77696,12.47,1.57,3.01,2.0
1758088699.79691,1758088696.91266,0.0,0.0,0.0,-27.44468,-0.34377,-10.37054,12.47,1.57,3.01,2.0
1758088699.80497,1758088696.92266,0.0,0.0,0.0,-28.93437,8.93814,-8.0787,12.07,0.73,2.49,2.0
1758088699.8359,1758088696.93266,0.0,0.0,0.0,-28.30412,17.87628,-4.87014,12.07,0.73,2.49,2.0
1758088699.84079,1758088696.94266,0.0,0.0,0.0,-27.04361,31.62727,-2.86479,11.33,-0.16,1.98,2.0
1758088699.8439,1758088696.95266,0.0,0.0,0.0,-25.09555,39.53409,-1.03132,11.33,-0.16,1.98,2.0
1758088699.84593,1758088696.96266,0.0,0.0,0.0,-22.63183,46.35228,-0.0573,10.66,-1.0,1.8,2.0
1758088699.84687,1758088696.97266,0.0,0.0,0.0,-19.07949,52.884,0.80214,10.66,-1.0,1.8,2.0
1758088699.84726,1758088696.98266,0.0,0.0,0.0,-15.58445,56.83742,1.03132,9.84,-1.59,1.69,2.0
1758088699.84916,1758088696.99266,0.0,0.0,0.0,-11.74564,59.53032,2.7502,9.27,-2.0,1.59,2.0
1758088699.8498,1758088697.00266,0.0,0.0,0.0,-8.25059,64.62964,4.18259,9.27,-2.0,1.59,2.0
1758088699.85423,1758088697.01266,0.0,0.0,0.0,-2.7502,67.15066,7.79223,8.78,-2.07,1.51,2.0
1758088699.85484,1758088697.02266,0.0,0.0,0.0,-0.0573,67.55173,10.37054,8.78,-2.07,1.51,2.0
1758088699.85609,1758088697.03266,0.0,0.0,0.0,2.63561,67.89551,13.23533,8.28,-1.77,1.43,2.0
1758088699.85668,1758088697.04266,0.0,0.0,0.0,3.72423,73.10942,14.66772,8.28,-1.77,1.43,2.0
1758088699.97996,1758088697.05266,0.0,0.0,0.0,4.64096,59.75951,13.98017,8.25,-1.13,1.34,2.0
1758088699.98174,1758088697.06266,0.0,0.0,0.0,6.70361,46.52417,15.41257,6.52,-0.76,1.17,2.0
1758088699.98583,1758088697.07266,0.0,0.0,0.0,6.99009,47.78468,14.49583,6.52,-0.76,1.17,2.0
1758088700.0192,1758088697.08266,0.0,0.0,0.0,6.7609,49.27437,13.34992,7.94,-0.64,0.76,2.0
1758088700.02027,1758088697.09266,0.0,0.0,0.0,5.50039,41.25296,10.54242,7.94,-0.64,0.76,2.0
1758088700.02158,1758088697.10266,0.0,0.0,0.0,5.09932,33.00237,7.62034,6.39,-0.38,1.12,2.0
1758088700.02215,1758088697.11266,0.0,0.0,0.0,5.21392,25.09555,4.29718,6.39,-0.38,1.12,2.0
1758088700.02535,1758088697.12266,0.0,0.0,0.0,5.78687,16.90226,-1.03132,5.94,-0.45,1.05,2.0
1758088700.029,1758088697.13266,0.0,0.0,0.0,8.30789,3.66693,-4.64096,5.64,-0.62,1.15,2.0
1758088700.02965,1758088697.14266,0.0,0.0,0.0,10.8289,-6.87549,-8.47978,5.64,-0.62,1.15,2.0
1758088700.03101,1758088697.15266,0.0,0.0,0.0,13.98017,-17.53251,-11.22997,5.72,-1.01,1.65,2.0
1758088700.03561,1758088697.16266,0.0,0.0,0.0,20.16812,-29.62192,-12.83425,5.72,-1.01,1.65,2.0
1758088700.08436,1758088697.17266,0.0,0.0,0.0,25.72581,-35.58068,-11.34457,6.67,-1.95,1.15,2.0
1758088700.0852,1758088697.18266,0.0,0.0,0.0,31.28349,-40.62271,-8.25059,6.67,-1.95,1.15,2.0
1758088700.08811,1758088697.19266,0.0,0.0,0.0,36.32552,-47.03984,-3.38045,7.54,-2.66,0.09,2.0
1758088700.08854,1758088697.20266,0.0,0.0,0.0,39.87786,-59.01466,4.58366,7.54,-2.66,-0.78,2.0
1758088700.08966,1758088697.21266,0.0,0.0,0.0,39.19032,-57.75415,9.39651,8.36,-2.01,-0.78,2.0
1758088700.0903,1758088697.22266,0.0,0.0,0.0,38.44547,-37.52874,13.80828,12.05,-0.43,-1.58,2.0
1758088700.09554,1758088697.23266,0.0,0.0,0.0,35.98175,-10.37054,18.62113,12.05,-0.43,-1.58,2.0
1758088700.097,1758088697.24266,0.0,0.0,0.0,30.48136,22.40265,21.37133,14.78,0.74,-0.62,2.0
1758088700.10243,1758088697.25266,0.0,0.0,0.0,26.41335,11.22997,17.76169,14.78,0.74,-0.62,2.0
1758088700.1028,1758088697.26266,0.0,0.0,0.0,23.49127,-20.11082,18.27736,11.16,1.06,-0.48,2.0
1758088700.10477,1758088697.27266,0.0,0.0,0.0,21.48592,-40.85189,17.93358,11.16,1.06,-0.48,2.0
1758088700.10739,1758088697.28266,0.0,0.0,0.0,18.50654,-30.25217,16.67307,12.18,0.37,-1.28,2.0
1758088700.10997,1758088697.29266,0.0,0.0,0.0,15.35527,-18.9649,14.83961,15.36,0.05,1.26,2.0
1758088700.11051,1758088697.30266,0.0,0.0,0.0,11.80293,-14.49583,13.17803,15.36,0.05,1.26,2.0
1758088700.1301,1758088697.31266,0.0,0.0,0.0,6.53172,-20.85567,10.8289,13.3,1.01,1.92,2.0
1758088700.13557,1758088697.32266,0.0,0.0,0.0,-1.71887,-39.76327,11.57375,13.3,1.01,1.92,2.0
1758088700.17567,1758088697.33266,0.0,0.0,0.0,-6.58902,-46.06581,13.5218,11.12,0.76,2.92,2.0
1758088700.18078,1758088697.34266,0.0,0.0,0.0,-11.63104,-49.33167,17.58981,11.12,0.76,2.92,2.0
1758088700.18147,1758088697.35266,0.0,0.0,0.0,-19.07949,-51.79538,28.476,11.86,-0.18,4.96,2.0
1758088700.18993,1758088697.36266,0.0,0.0,0.0,-23.37668,-50.93595,36.03905,12.93,-0.17,6.59,2.0
1758088700.1905,1758088697.37266,0.0,0.0,0.0,-27.38738,-49.33167,37.87251,12.93,-0.17,6.59,2.0
1758088700.21534,1758088697.38266,0.0,0.0,0.0,-29.67921,-51.39432,36.7266,10.15,-0.03,4.66,2.0
1758088700.21619,1758088697.39266,0.0,0.0,0.0,-29.10626,-47.44091,31.56997,10.15,-0.03,4.66,2.0
1758088700.22,1758088697.40266,0.0,0.0,0.0,-25.89769,-39.07573,26.87172,9.4,-0.74,3.54,2.0
1758088700.2254,1758088697.41266,0.0,0.0,0.0,-20.68378,-29.8511,22.28806,9.4,-0.74,3.54,2.0
1758088700.24294,1758088697.42266,0.0,0.0,0.0,-14.03747,-21.02755,18.44924,10.21,-2.0,3.1,2.0
1758088700.245,1758088697.43266,0.0,0.0,0.0,-3.20856,-7.96411,15.35527,11.16,-3.0,3.02,2.0
1758088700.26515,1758088697.44266,0.0,0.0,0.0,4.0107,-0.22918,15.41257,11.16,-3.0,3.02,2.0
1758088700.27012,1758088697.45266,0.0,0.0,0.0,10.65701,6.58902,16.73037,11.77,-3.18,2.8,2.0
1758088700.27068,1758088697.46266,0.0,0.0,0.0,15.92823,12.204,18.73572,11.77,-3.18,2.8,2.0
1758088700.29015,1758088697.47266,0.0,0.0,0.0,21.14215,21.37133,21.31403,11.43,-2.5,2.7,2.0
1758088700.30043,1758088697.48266,0.0,0.0,0.0,22.91831,27.73116,21.7151,11.43,-2.5,2.7,2.0
1758088700.30078,1758088697.49266,0.0,0.0,0.0,21.48592,33.80451,21.25674,10.84,-1.53,2.5,2.0
1758088700.3202,1758088697.50266,0.0,0.0,0.0,17.58981,37.01308,20.16812,10.84,-1.53,2.5,2.0
1758088700.32235,1758088697.51266,0.0,0.0,0.0,10.54242,40.33623,17.36062,10.1,-0.28,2.79,2.0
1758088700.33775,1758088697.52266,0.0,0.0,0.0,6.99009,41.65404,13.98017,9.33,0.72,2.41,2.0
1758088700.34056,1758088697.53266,0.0,0.0,0.0,3.95341,42.28429,9.91217,9.33,0.72,2.41,2.0
1758088700.36035,1758088697.54266,0.0,0.0,0.0,0.74485,43.88857,2.7502,8.93,1.32,1.91,2.0
1758088700.36561,1758088697.55266,0.0,0.0,0.0,-4.35448,46.75336,-2.40642,8.93,1.32,1.91,2.0
1758088700.38305,1758088697.56266,0.0,0.0,0.0,-7.73493,48.35764,-7.10468,9.01,1.23,2.07,2.0
1758088700.38574,1758088697.57266,0.0,0.0,0.0,-10.48513,49.79003,-11.17268,9.01,1.23,2.07,2.0
1758088700.39026,1758088697.58266,0.0,0.0,0.0,-14.49583,48.41494,-16.50119,8.74,0.73,1.79,2.0
1758088700.41023,1758088697.59266,0.0,0.0,0.0,-16.67307,45.77933,-18.79302,8.26,0.24,1.64,2.0
1758088700.41336,1758088697.60266,0.0,0.0,0.0,-18.73572,41.94051,-21.25674,8.26,0.24,1.64,2.0
1758088700.42846,1758088697.61266,0.0,0.0,0.0,-20.22541,37.24226,-22.57454,7.83,-0.07,1.38,2.0
1758088700.45525,1758088697.62266,0.0,0.0,0.0,-21.37133,28.476,-23.26209,7.83,-0.07,1.38,2.0
1758088700.45565,1758088697.63266,0.0,0.0,0.0,-22.05888,23.26209,-22.97561,7.6,-0.34,1.47,2.0
1758088700.45679,1758088697.64266,0.0,0.0,0.0,-22.00158,16.90226,-21.7151,7.6,-0.34,1.47,2.0
1758088700.47404,1758088697.65266,0.0,0.0,0.0,-22.57454,12.83425,-20.16812,7.55,-0.52,1.12,2.0
1758088700.47505,1758088697.66266,0.0,0.0,0.0,-24.17882,9.11003,-18.27736,7.56,-0.43,0.87,2.0
1758088700.49052,1758088697.67266,0.0,0.0,0.0,-25.15285,11.45916,-16.55848,7.56,-0.43,0.87,2.0
1758088700.49543,1758088697.68266,0.0,0.0,0.0,-26.12688,14.38124,-14.38124,7.83,-0.32,0.68,2.0
1758088700.53054,1758088697.69266,0.0,0.0,0.0,-27.50197,14.83961,-11.57375,7.83,-0.32,0.68,2.0
1758088700.5828,1758088697.70266,0.0,0.0,0.0,-30.82513,10.71431,-8.02141,7.35,-0.01,0.73,2.0
1758088700.58475,1758088697.71266,0.0,0.0,0.0,-33.63263,5.61499,-5.55769,7.35,-0.01,0.73,2.0
1758088700.58548,1758088697.72266,0.0,0.0,0.0,-37.12767,-2.86479,-3.83882,6.94,0.45,0.46,2.0
1758088700.58609,1758088697.73266,0.0,0.0,0.0,-40.85189,-14.20935,-2.6929,6.94,0.45,0.46,2.0
1758088700.58731,1758088697.74266,0.0,0.0,0.0,-46.75336,-33.05967,-2.40642,6.66,0.71,0.35,2.0
1758088700.58904,1758088697.75266,0.0,0.0,0.0,-50.363,-41.25296,-3.32316,7.6,0.51,0.08,2.0
1758088700.58945,1758088697.76266,0.0,0.0,0.0,-53.45696,-48.75871,-5.78687,7.6,0.51,0.08,2.0
1758088700.5906,1758088697.77266,0.0,0.0,0.0,-57.0093,-55.40502,-8.88085,8.68,-0.26,-0.38,2.0
1758088700.59457,1758088697.78266,0.0,0.0,0.0,-59.07195,-27.78845,-14.9542,8.68,-0.26,-0.38,2.0
1758088700.61032,1758088697.79266,0.0,0.0,0.0,-57.46767,7.39116,-14.49583,13.04,-0.91,-0.26,2.0
1758088700.62027,1758088697.80266,0.0,0.0,0.0,-55.34772,13.98017,-16.90226,13.04,-0.91,-0.26,2.0
1758088700.64561,1758088697.81266,0.0,0.0,0.0,-58.67088,-12.71966,-25.61122,11.4,-1.19,0.45,2.0
1758088700.6556,1758088697.82266,0.0,0.0,0.0,-56.952,-13.00614,-29.9084,11.55,-0.88,-1.28,2.0
1758088700.65708,1758088697.83266,0.0,0.0,0.0,-54.3164,-2.86479,-31.62727,11.55,-0.88,-1.28,2.0
1758088700.6606,1758088697.84266,0.0,0.0,0.0,-50.82136,7.39116,-30.53865,13.68,-1.18,-0.91,2.0
1758088700.6654,1758088697.85266,0.0,0.0,0.0,-43.14373,16.38659,-26.75713,13.68,-1.18,-0.91,2.0
1758088700.67045,1758088697.86266,0.0,0.0,0.0,-35.92446,16.21471,-24.4653,13.64,-1.73,1.48,2.0
1758088700.69532,1758088697.87266,0.0,0.0,0.0,-28.24682,8.70896,-22.68913,13.64,-1.73,1.48,2.0
1758088700.72089,1758088697.88266,0.0,0.0,0.0,-21.31403,-4.58366,-20.68378,12.89,-2.56,1.66,2.0
1758088700.72324,1758088697.89266,0.0,0.0,0.0,-15.06879,-20.16812,-16.90226,11.66,-2.33,1.26,2.0
1758088700.72694,1758088697.90266,0.0,0.0,0.0,-11.00079,-21.94428,-13.98017,11.66,-2.33,1.26,2.0
1758088700.73088,1758088697.91266,0.0,0.0,0.0,-5.72958,-26.64254,-12.2613,11.37,-1.67,3.08,2.0
1758088700.73494,1758088697.92266,0.0,0.0,0.0,-0.0573,-41.08107,-13.23533,11.37,-1.67,3.08,2.0
1758088700.7504,1758088697.93266,0.0,0.0,0.0,7.16197,-60.79083,-19.76705,10.52,-1.42,5.28,2.0
1758088700.75586,1758088697.94266,0.0,0.0,0.0,11.74564,-64.22858,-24.29341,10.52,-1.42,5.28,2.0
1758088700.76174,1758088697.95266,0.0,0.0,0.0,15.92823,-64.80153,-27.38738,11.33,-1.79,3.65,2.0
1758088700.7802,1758088697.96266,0.0,0.0,0.0,19.36597,-63.99939,-29.22085,11.33,-1.79,3.65,2.0
1758088700.78464,1758088697.97266,0.0,0.0,0.0,18.27736,-61.99404,-28.87707,9.51,-1.1,3.19,2.0
1758088700.80045,1758088697.98266,0.0,0.0,0.0,14.32395,-58.55629,-28.13223,8.91,-0.12,3.3,2.0
1758088700.82747,1758088697.99266,0.0,0.0,0.0,8.0787,-52.54023,-26.87172,8.91,-0.12,3.3,2.0
1758088700.82976,1758088698.00266,0.0,0.0,0.0,-3.60963,-42.28429,-25.09555,10.26,0.81,3.57,2.0
1758088700.83522,1758088698.01266,0.0,0.0,0.0,-11.17268,-35.75257,-23.89234,10.26,0.81,3.57,2.0
1758088700.83566,1758088698.02266,0.0,0.0,0.0,-17.87628,-28.07493,-23.0902,11.44,1.29,3.08,2.0
1758088700.8407,1758088698.03266,0.0,0.0,0.0,-22.68913,-19.42327,-21.7151,11.44,1.29,3.08,2.0
1758088700.85719,1758088698.04266,0.0,0.0,0.0,-26.18417,-3.20856,-18.16276,11.96,1.11,2.45,2.0
1758088700.85998,1758088698.05266,0.0,0.0,0.0,-25.26744,9.05273,-14.9542,11.77,0.32,2.14,2.0
1758088700.87942,1758088698.06266,0.0,0.0,0.0,-22.86102,21.31403,-10.94349,11.77,0.32,2.14,2.0
1758088700.88089,1758088698.07266,0.0,0.0,0.0,-19.07949,32.77319,-7.33386,10.98,-0.65,1.88,2.0
1758088700.89945,1758088698.08266,0.0,0.0,0.0,-12.54778,46.1231,-2.11994,10.98,-0.65,1.88,2.0
1758088700.90064,1758088698.09266,0.0,0.0,0.0,-8.02141,55.29043,1.60428,10.07,-1.5,1.48,2.0
1758088700.91587,1758088698.10266,0.0,0.0,0.0,-4.35448,61.93674,4.69825,10.07,-1.5,1.48,2.0
1758088700.98083,1758088698.11266,0.0,0.0,0.0,-0.45837,65.48907,6.53172,9.5,-1.98,1.34,2.0
1758088700.98813,1758088698.12266,0.0,0.0,0.0,5.15662,68.86953,9.39651,8.82,-2.09,1.16,2.0
1758088700.99075,1758088698.13266,0.0,0.0,0.0,8.99544,73.16672,11.57375,8.82,-2.09,1.16,2.0
1758088700.99554,1758088698.14266,0.0,0.0,0.0,11.63104,72.36457,13.69369,8.51,-1.88,1.17,2.0
1758088701.00049,1758088698.15266,0.0,0.0,0.0,13.00614,71.84892,15.24068,8.51,-1.88,1.17,2.0
1758088701.00253,1758088698.16266,0.0,0.0,0.0,14.43854,69.78626,16.21471,8.27,-1.37,1.23,2.0
1758088701.00291,1758088698.17266,0.0,0.0,0.0,15.24068,65.83286,16.21471,8.27,-1.37,1.23,2.0
1758088701.00487,1758088698.18266,0.0,0.0,0.0,15.98552,60.90542,15.69904,8.04,-0.88,1.05,2.0
1758088701.01071,1758088698.19266,0.0,0.0,0.0,16.38659,51.85268,14.15206,8.04,-0.88,1.05,2.0
1758088701.01517,1758088698.20266,0.0,0.0,0.0,16.67307,44.9199,12.60507,7.89,-0.44,1.24,2.0
1758088701.08107,1758088698.21266,0.0,0.0,0.0,16.84496,37.01308,11.00079,7.55,-0.31,1.24,2.0
1758088701.0854,1758088698.22266,0.0,0.0,0.0,17.18874,28.64789,9.5684,7.55,-0.31,1.24,2.0
1758088701.0879,1758088698.23266,0.0,0.0,0.0,18.22006,16.73037,7.04738,7.12,-0.46,1.29,2.0
1758088701.09441,1758088698.24266,0.0,0.0,0.0,19.59516,11.34457,5.27121,7.12,-0.46,1.29,2.0
1758088701.09506,1758088698.25266,0.0,0.0,0.0,21.31403,7.21927,3.83882,7.1,-0.64,1.29,2.0
1758088701.09802,1758088698.26266,0.0,0.0,0.0,22.91831,3.89611,2.11994,7.1,-0.64,1.29,2.0
1758088701.10038,1758088698.27266,0.0,0.0,0.0,25.49662,-3.09397,0.51566,7.23,-0.73,1.41,2.0
1758088701.10329,1758088698.28266,0.0,0.0,0.0,27.61657,-8.88085,0.40107,7.1,-0.8,0.99,2.0
1758088701.10545,1758088698.29266,0.0,0.0,0.0,29.62192,-15.0115,1.20321,7.1,-0.8,0.99,2.0
1758088701.16279,1758088698.30266,0.0,0.0,0.0,31.45539,-23.94964,3.38045,7.26,-0.93,0.25,2.0
1758088701.1653,1758088698.31266,0.0,0.0,0.0,31.51268,-44.63341,7.44845,7.26,-0.93,0.25,2.0
1758088701.16938,1758088698.32266,0.0,0.0,0.0,30.13758,-55.92068,10.65701,7.44,-0.93,-0.32,2.0
1758088701.17539,1758088698.33266,0.0,0.0,0.0,26.98631,-46.75336,11.17268,7.44,-0.93,-0.32,2.0
1758088701.17974,1758088698.34266,0.0,0.0,0.0,25.72581,-24.23611,15.12609,10.78,-0.55,-0.72,2.0
1758088701.19083,1758088698.35266,0.0,0.0,0.0,21.7724,15.12609,17.01685,13.0,0.03,-0.03,2.0
1758088701.19512,1758088698.36266,0.0,0.0,0.0,19.07949,23.94964,16.50119,13.0,0.03,-0.03,2.0
1758088701.19954,1758088698.37266,0.0,0.0,0.0,15.87093,2.06265,11.22997,9.22,0.22,-0.26,2.0
1758088701.20095,1758088698.38266,0.0,0.0,0.0,11.80293,-40.04975,11.45916,9.22,0.22,-0.26,2.0
1758088701.20331,1758088698.39266,0.0,0.0,0.0,9.33921,-54.14451,11.45916,9.52,0.13,-1.35,2.0
1758088701.24009,1758088698.40266,0.0,0.0,0.0,6.13065,-44.40423,10.94349,9.52,0.13,-1.35,2.0
1758088701.24507,1758088698.41266,0.0,0.0,0.0,3.09397,-32.77319,10.25595,14.51,-0.17,0.4,2.0
1758088701.24648,1758088698.42266,0.0,0.0,0.0,-3.38045,-27.67386,9.91217,14.51,-0.17,0.4,2.0
1758088701.24862,1758088698.43266,0.0,0.0,0.0,-8.99544,-32.6013,10.71431,13.98,0.34,1.57,2.0
1758088701.2647,1758088698.44266,0.0,0.0,0.0,-14.20935,-38.84654,11.63104,12.26,1.03,1.42,2.0
1758088701.26563,1758088698.45266,0.0,0.0,0.0,-19.25138,-45.09178,13.23533,12.26,1.03,1.42,2.0
1758088701.28169,1758088698.46266,0.0,0.0,0.0,-26.64254,-54.77477,20.79837,11.89,0.5,4.07,2.0
1758088701.28449,1758088698.47266,0.0,0.0,0.0,-29.62192,-56.03527,29.8511,11.89,0.5,4.07,2.0
1758088701.35056,1758088698.48266,0.0,0.0,0.0,-31.45539,-51.10783,36.7266,14.0,0.54,5.53,2.0
1758088701.37613,1758088698.49266,0.0,0.0,0.0,-33.05967,-45.20637,38.27358,14.0,0.54,5.53,2.0
1758088701.37922,1758088698.50266,0.0,0.0,0.0,-32.83048,-41.99781,33.68992,11.97,0.17,4.02,2.0
1758088701.38075,1758088698.51266,0.0,0.0,0.0,-29.8511,-40.39353,29.33544,9.24,-1.32,3.83,2.0
1758088701.38121,1758088698.52266,0.0,0.0,0.0,-24.5226,-34.95043,24.57989,9.24,-1.32,3.83,2.0
1758088701.38542,1758088698.53266,0.0,0.0,0.0,-17.36062,-26.47065,20.22541,9.82,-2.55,3.29,2.0
1758088701.38645,1758088698.54266,0.0,0.0,0.0,-4.1253,-16.3293,16.04282,9.82,-2.55,3.29,2.0
1758088701.39106,1758088698.55266,0.0,0.0,0.0,4.81285,-9.96947,14.78231,10.53,-3.04,2.98,2.0
1758088701.39621,1758088698.56266,0.0,0.0,0.0,13.00614,-3.32316,14.83961,10.53,-3.04,2.98,2.0
1758088701.3966,1758088698.57266,0.0,0.0,0.0,19.88164,3.66693,16.10011,11.53,-3.04,2.77,2.0
1758088701.40041,1758088698.58266,0.0,0.0,0.0,27.04361,13.80828,17.18874,11.8,-2.36,2.57,2.0
1758088701.40373,1758088698.59266,0.0,0.0,0.0,29.9084,19.76705,18.27736,11.8,-2.36,2.57,2.0
1758088701.41002,1758088698.60266,0.0,0.0,0.0,31.28349,25.21014,18.62113,11.15,-1.43,2.25,2.0
1758088701.42573,1758088698.61266,0.0,0.0,0.0,30.30947,34.49206,17.81899,11.15,-1.43,2.25,2.0
1758088701.44298,1758088698.62266,0.0,0.0,0.0,27.10091,38.61736,16.84496,10.54,-0.57,2.17,2.0
1758088701.44741,1758088698.63266,0.0,0.0,0.0,22.97561,41.42485,15.12609,10.54,-0.57,2.17,2.0
1758088701.46432,1758088698.64266,0.0,0.0,0.0,19.70975,42.22699,12.54778,9.7,0.4,2.3,2.0
1758088701.46554,1758088698.65266,0.0,0.0,0.0,14.03747,43.31561,7.50575,9.7,0.4,1.74,2.0
1758088701.48073,1758088698.66266,0.0,0.0,0.0,10.48513,43.14373,3.66693,8.99,1.14,1.74,2.0
1758088701.48269,1758088698.67266,0.0,0.0,0.0,7.16197,44.57612,-0.22918,8.88,1.52,1.86,2.0
1758088701.50079,1758088698.68266,0.0,0.0,0.0,4.0107,45.55015,-3.60963,8.88,1.52,1.86,2.0
1758088701.50464,1758088698.69266,0.0,0.0,0.0,0.0,44.51882,-8.136,8.56,1.22,1.61,2.0
1758088701.51985,1758088698.70266,0.0,0.0,0.0,-1.83346,42.51347,-10.71431,8.56,1.22,1.61,2.0
1758088701.52171,1758088698.71266,0.0,0.0,0.0,-2.97938,40.04975,-12.43318,8.24,0.52,1.53,2.0
1758088701.53679,1758088698.72266,0.0,0.0,0.0,-3.72423,36.21093,-13.5218,8.24,0.52,1.53,2.0
1758088701.54065,1758088698.73266,0.0,0.0,0.0,-3.72423,28.24682,-13.5791,8.01,-0.22,1.31,2.0
1758088701.55718,1758088698.74266,0.0,0.0,0.0,-3.32316,22.63183,-12.71966,7.82,-0.76,1.16,2.0
1758088701.57437,1758088698.75266,0.0,0.0,0.0,-2.63561,16.67307,-11.00079,7.82,-0.76,1.16,2.0
1758088701.57559,1758088698.76266,0.0,0.0,0.0,-2.11994,10.65701,-8.36518,7.5,-0.9,0.96,2.0
1758088701.59075,1758088698.77266,0.0,0.0,0.0,-1.71887,2.11994,-3.55234,7.5,-0.9,0.96,2.0
1758088701.59677,1758088698.78266,0.0,0.0,0.0,-2.34913,-3.20856,-0.57296,7.15,-0.63,0.91,2.0
1758088701.61492,1758088698.79266,0.0,0.0,0.0,-3.95341,-6.70361,1.66158,7.15,-0.63,0.91,2.0
1758088701.61772,1758088698.80266,0.0,0.0,0.0,-7.73493,-5.21392,5.50039,7.11,-0.01,0.78,2.0
1758088701.63932,1758088698.81266,0.0,0.0,0.0,-11.51645,-3.32316,7.21927,7.38,0.58,0.9,2.0
1758088701.64071,1758088698.82266,0.0,0.0,0.0,-16.21471,-4.29718,8.65166,7.38,0.58,0.9,2.0
1758088701.64111,1758088698.83266,0.0,0.0,0.0,-21.48592,-6.24524,9.33921,7.42,1.03,1.14,2.0
1758088701.66459,1758088698.84266,0.0,0.0,0.0,-30.13758,-8.99544,8.76626,7.42,1.03,1.14,2.0
1758088701.66562,1758088698.85266,0.0,0.0,0.0,-35.98175,-9.62569,6.87549,7.97,1.28,0.77,2.0
1758088701.68343,1758088698.86266,0.0,0.0,0.0,-41.31026,-10.65701,3.83882,7.97,1.28,0.77,2.0
1758088701.68468,1758088698.87266,0.0,0.0,0.0,-45.77933,-13.06344,-0.80214,8.3,1.01,0.27,2.0
1758088701.69984,1758088698.88266,0.0,0.0,0.0,-49.84733,-23.0902,-9.11003,8.2,0.24,-0.39,2.0
1758088701.7029,1758088698.89266,0.0,0.0,0.0,-50.64947,-29.50733,-14.32395,8.2,0.24,-0.39,2.0
1758088701.72013,1758088698.90266,0.0,0.0,0.0,-50.47758,-31.85646,-18.73572,9.31,-0.6,-1.06,2.0
1758088701.72106,1758088698.91266,0.0,0.0,0.0,-48.24305,-29.39274,-22.11617,9.31,-0.6,-1.06,2.0
1758088701.74391,1758088698.92266,0.0,0.0,0.0,-44.8053,-22.05888,-24.12152,11.33,-1.23,-1.71,2.0
1758088701.74898,1758088698.93266,0.0,0.0,0.0,-41.42485,-4.58366,-24.80907,11.33,-1.23,-1.71,2.0
1758088701.76416,1758088698.94266,0.0,0.0,0.0,-37.64333,19.13679,-22.40265,13.86,-1.34,-1.34,2.0
1758088701.76662,1758088698.95266,0.0,0.0,0.0,-34.0337,19.53786,-22.00158,13.86,-1.34,-1.34,2.0
1758088701.78431,1758088698.96266,0.0,0.0,0.0,-30.82513,-3.55234,-24.00693,12.62,-1.08,0.04,2.0
1758088701.78548,1758088698.97266,0.0,0.0,0.0,-26.47065,-8.36518,-25.61122,13.47,-0.94,0.85,2.0
1758088701.80097,1758088698.98266,0.0,0.0,0.0,-20.05352,-7.33386,-26.01229,13.47,-0.94,0.85,2.0
1758088701.80207,1758088698.99266,0.0,0.0,0.0,-14.9542,-10.37054,-26.47065,14.43,-1.93,1.22,2.0
1758088701.81711,1758088699.00266,0.0,0.0,0.0,-11.00079,-14.43854,-25.09555,14.43,-1.93,1.22,2.0
1758088701.8599,1758088699.01266,0.0,0.0,0.0,-8.88085,-12.43318,-22.28806,12.47,-1.73,1.63,2.0
1758088701.86426,1758088699.02266,0.0,0.0,0.0,-4.69825,-14.78231,-19.36597,12.47,-1.73,1.63,2.0
1758088701.86488,1758088699.03266,0.0,0.0,0.0,2.23454,-26.41335,-19.25138,10.85,-1.22,3.82,2.0
1758088701.86609,1758088699.04265,0.0,0.0,0.0,7.96411,-26.64254,-20.74107,11.79,-1.64,4.68,2.0
1758088701.86669,1758088699.05265,0.0,0.0,0.0,14.43854,-26.52795,-22.68913,11.79,-1.64,4.68,2.0
1758088701.88471,1758088699.06265,0.0,0.0,0.0,20.45459,-29.8511,-24.4653,11.26,-2.32,3.67,2.0
1758088701.88919,1758088699.07265,0.0,0.0,0.0,25.8404,-34.0337,-26.01229,11.26,-2.32,3.67,2.0
1758088701.89052,1758088699.08265,0.0,0.0,0.0,26.06958,-35.69527,-26.52795,9.58,-1.64,3.6,2.0
1758088701.90995,1758088699.09265,0.0,0.0,0.0,23.26209,-34.77854,-27.10091,9.58,-1.64,3.6,2.0
1758088701.91438,1758088699.10265,0.0,0.0,0.0,17.87628,-31.28349,-27.61657,9.97,-0.53,3.79,2.0
1758088701.93101,1758088699.11265,0.0,0.0,0.0,6.47442,-27.2155,-28.24682,10.83,0.54,3.68,2.0
1758088701.93444,1758088699.12265,0.0,0.0,0.0,-1.66158,-25.43933,-28.476,10.83,0.54,3.68,2.0
1758088701.94994,1758088699.13265,0.0,0.0,0.0,-9.05273,-22.51724,-28.24682,11.09,1.19,3.14,2.0
1758088701.95467,1758088699.14265,0.0,0.0,0.0,-15.06879,-18.44924,-27.38738,11.09,1.19,3.14,2.0
1758088701.97029,1758088699.15265,0.0,0.0,0.0,-20.85567,-11.91752,-23.31938,10.82,1.09,2.75,2.0
1758088701.97382,1758088699.16265,0.0,0.0,0.0,-22.34536,-4.92744,-19.36597,10.82,1.09,2.75,2.0
1758088701.98974,1758088699.17265,0.0,0.0,0.0,-22.23076,2.97938,-14.43854,10.5,0.47,2.35,2.0
1758088701.99124,1758088699.18265,0.0,0.0,0.0,-20.85567,11.86023,-9.22462,10.5,0.47,2.35,2.0
1758088702.00784,1758088699.19265,0.0,0.0,0.0,-17.13144,25.26744,-1.43239,10.19,-0.32,1.91,2.0
1758088702.01169,1758088699.20265,0.0,0.0,0.0,-13.98017,33.74722,2.57831,9.94,-1.15,1.71,2.0
1758088702.02605,1758088699.21265,0.0,0.0,0.0,-10.94349,39.4768,5.78687,9.94,-1.15,1.71,2.0
1758088702.04205,1758088699.22265,0.0,0.0,0.0,-5.55769,45.14908,9.22462,9.48,-1.75,1.57,2.0
1758088702.04326,1758088699.23265,0.0,0.0,0.0,-2.23454,49.04519,9.96947,9.48,-1.75,1.57,2.0
1758088702.06082,1758088699.24265,0.0,0.0,0.0,1.20321,52.76942,11.28727,9.41,-2.06,1.35,2.0
1758088702.06235,1758088699.25265,0.0,0.0,0.0,4.46907,58.09792,12.54778,9.41,-2.06,1.35,2.0
1758088702.08038,1758088699.26265,0.0,0.0,0.0,8.93814,62.68159,14.15206,9.33,-2.0,1.15,2.0
1758088702.0823,1758088699.27265,0.0,0.0,0.0,11.51645,64.74423,15.06879,8.76,-1.61,1.04,2.0
1758088702.10038,1758088699.28265,0.0,0.0,0.0,13.86558,65.89015,15.92823,8.76,-1.61,1.04,2.0
1758088702.10201,1758088699.29265,0.0,0.0,0.0,15.58445,66.17663,16.67307,8.35,-1.15,1.03,2.0
1758088702.1172,1758088699.30265,0.0,0.0,0.0,17.36062,62.22322,16.84496,8.35,-1.15,1.03,2.0
1758088702.13506,1758088699.31265,0.0,0.0,0.0,17.81899,59.01466,15.87093,7.87,-0.76,1.04,2.0
1758088702.13636,1758088699.32265,0.0,0.0,0.0,17.53251,55.6915,13.98017,7.87,-0.76,1.04,2.0
1758088702.15472,1758088699.33265,0.0,0.0,0.0,17.01685,51.22243,11.51645,7.8,-0.48,1.11,2.0
1758088702.1559,1758088699.34265,0.0,0.0,0.0,16.3293,43.60209,7.73493,7.63,-0.4,1.04,2.0
1758088702.17445,1758088699.35265,0.0,0.0,0.0,16.21471,37.75792,5.09932,7.63,-0.4,1.04,2.0
1758088702.1829,1758088699.36265,0.0,0.0,0.0,16.21471,31.56997,2.23454,7.44,-0.47,1.07,2.0
1758088702.18567,1758088699.37265,0.0,0.0,0.0,17.18874,24.5226,0.0573,7.44,-0.47,1.07,2.0
1758088702.20205,1758088699.38265,0.0,0.0,0.0,19.36597,15.58445,-2.86479,7.16,-0.58,1.16,2.0
1758088702.20648,1758088699.39265,0.0,0.0,0.0,21.48592,8.99544,-3.89611,7.16,-0.58,1.16,2.0
1758088702.2221,1758088699.40265,0.0,0.0,0.0,23.94964,0.85944,-4.23989,6.77,-0.76,1.19,2.0
1758088702.22815,1758088699.41265,0.0,0.0,0.0,28.87707,-7.21927,-2.46372,6.77,-0.76,1.19,2.0
1758088702.23028,1758088699.42265,0.0,0.0,0.0,32.48671,-20.22541,-0.34377,6.54,-1.14,0.85,2.0
1758088702.2484,1758088699.43265,0.0,0.0,0.0,35.69527,-31.91375,2.63561,6.7,-1.57,0.21,2.0
1758088702.26497,1758088699.44265,0.0,0.0,0.0,37.47144,-47.78468,5.32851,6.7,-1.57,0.21,2.0
1758088702.26615,1758088699.45265,0.0,0.0,0.0,36.55471,-63.42643,9.62569,7.2,-1.39,-0.21,2.0
1758088702.28515,1758088699.46265,0.0,0.0,0.0,36.21093,-48.75871,12.54778,7.2,-1.39,-0.21,2.0
1758088702.28714,1758088699.47265,0.0,0.0,0.0,34.89313,-28.30412,15.35527,11.48,-0.52,-0.48,2.0
1758088702.30519,1758088699.48265,0.0,0.0,0.0,32.83048,-5.15662,18.10547,11.48,-0.52,-0.48,2.0
1758088702.30619,1758088699.49265,0.0,0.0,0.0,26.18417,9.28192,16.95955,13.2,0.28,0.59,2.0
1758088702.34613,1758088699.50265,0.0,0.0,0.0,22.00158,-0.68755,12.2613,11.1,0.95,0.47,2.0
1758088702.34809,1758088699.51265,0.0,0.0,0.0,18.33465,-32.25753,11.74564,11.1,0.95,0.47,2.0
1758088702.34911,1758088699.52265,0.0,0.0,0.0,15.92823,-52.25375,8.93814,10.0,0.72,-0.96,2.0
1758088702.35004,1758088699.53265,0.0,0.0,0.0,11.91752,-47.89928,11.28727,10.0,0.72,-0.96,2.0
1758088702.35062,1758088699.54265,0.0,0.0,0.0,7.73493,-38.38818,10.31324,14.6,0.0,0.57,2.0
1758088702.36949,1758088699.55265,0.0,0.0,0.0,3.32316,-32.20023,11.17268,14.6,0.0,0.57,2.0
1758088702.37041,1758088699.56265,0.0,0.0,0.0,-2.40642,-35.06502,9.91217,14.09,0.36,1.3,2.0
1758088702.38927,1758088699.57265,0.0,0.0,0.0,-9.96947,-46.69606,9.33921,12.0,0.57,2.07,2.0
1758088702.39043,1758088699.58265,0.0,0.0,0.0,-14.03747,-50.87865,9.91217,12.0,0.57,2.07,2.0
1758088702.40849,1758088699.59265,0.0,0.0,0.0,-17.58981,-53.51426,12.49048,12.0,0.0,3.26,2.0
1758088702.41659,1758088699.60265,0.0,0.0,0.0,-20.97026,-55.86338,20.97026,12.0,0.0,3.26,2.0
1758088702.43316,1758088699.61265,0.0,0.0,0.0,-24.12152,-52.42564,26.75713,13.28,-0.28,5.83,2.0
1758088702.43934,1758088699.62265,0.0,0.0,0.0,-25.61122,-48.01387,29.33544,13.28,-0.28,5.83,2.0
1758088702.44139,1758088699.63265,0.0,0.0,0.0,-26.69983,-46.63877,27.50197,11.72,-0.38,4.93,2.0
1758088702.46208,1758088699.64265,0.0,0.0,0.0,-24.4653,-46.86795,23.0902,11.72,-0.38,4.93,2.0
1758088702.46482,1758088699.65265,0.0,0.0,0.0,-20.51189,-40.39353,19.07949,8.87,-1.05,3.76,2.0
1758088702.48044,1758088699.66265,0.0,0.0,0.0,-14.32395,-31.79916,15.35527,9.58,-2.06,3.03,2.0
1758088702.48145,1758088699.67265,0.0,0.0,0.0,-6.99009,-23.0902,12.2613,9.58,-2.06,3.03,2.0
1758088702.49735,1758088699.68265,0.0,0.0,0.0,5.32851,-12.37589,10.8862,10.5,-2.89,3.06,2.0
1758088702.51427,1758088699.69265,0.0,0.0,0.0,13.5218,-6.13065,12.204,10.5,-2.89,3.06,2.0
1758088702.51485,1758088699.70265,0.0,0.0,0.0,20.79837,1.14592,14.49583,11.51,-3.27,2.96,2.0
1758088702.53049,1758088699.71265,0.0,0.0,0.0,26.52795,7.84952,17.13144,11.51,-3.27,2.96,2.0
1758088702.53337,1758088699.72265,0.0,0.0,0.0,31.79916,17.81899,19.99623,11.87,-2.76,2.87,2.0
1758088702.55006,1758088699.73265,0.0,0.0,0.0,33.40344,23.89234,20.85567,11.47,-1.75,2.7,2.0
1758088702.55577,1758088699.74265,0.0,0.0,0.0,33.74722,30.25217,20.79837,11.47,-1.75,2.7,2.0
1758088702.57031,1758088699.75265,0.0,0.0,0.0,33.17426,35.69527,20.22541,11.06,-0.71,2.4,2.0
1758088702.57343,1758088699.76265,0.0,0.0,0.0,29.10626,41.59674,17.36062,11.06,-0.71,2.4,2.0
1758088702.58935,1758088699.77265,0.0,0.0,0.0,25.55392,44.11775,15.29797,10.58,0.16,2.25,2.0
1758088702.59105,1758088699.78265,0.0,0.0,0.0,21.7151,45.72203,11.97482,10.58,0.16,2.25,2.0
1758088702.60709,1758088699.79265,0.0,0.0,0.0,18.44924,47.26902,7.84952,9.87,0.78,1.94,2.0
1758088702.6157,1758088699.80265,0.0,0.0,0.0,13.69369,47.72739,0.97403,9.04,1.06,1.67,2.0
1758088702.63035,1758088699.81265,0.0,0.0,0.0,11.17268,48.01387,-2.63561,9.04,1.06,1.67,2.0
1758088702.63517,1758088699.82265,0.0,0.0,0.0,8.36518,47.26902,-6.47442,8.47,0.95,1.56,2.0
1758088702.65062,1758088699.83265,0.0,0.0,0.0,5.27121,45.89392,-10.48513,8.47,0.95,1.56,2.0
1758088702.65342,1758088699.84265,0.0,0.0,0.0,2.46372,40.96649,-12.37589,8.05,0.56,1.36,2.0
1758088702.66915,1758088699.85265,0.0,0.0,0.0,0.22918,37.98711,-14.15206,8.05,0.56,1.36,2.0
1758088702.67042,1758088699.86265,0.0,0.0,0.0,-0.85944,33.63263,-15.24068,7.79,0.2,1.15,2.0
1758088702.68566,1758088699.87265,0.0,0.0,0.0,-3.26586,22.28806,-15.46986,7.79,0.2,1.15,2.0
1758088702.70218,1758088699.88265,0.0,0.0,0.0,-4.52637,14.9542,-15.06879,7.4,0.0,0.9,2.0
1758088702.71577,1758088699.89265,0.0,0.0,0.0,-5.55769,9.22462,-13.75099,7.58,-0.2,0.8,2.0
1758088702.71618,1758088699.90265,0.0,0.0,0.0,-6.7609,3.49504,-11.97482,7.58,-0.2,0.8,2.0
1758088702.7332,1758088699.91265,0.0,0.0,0.0,-8.70896,-6.18794,-8.47978,7.34,-0.25,0.6,2.0
1758088702.7342,1758088699.92265,0.0,0.0,0.0,-10.31324,-8.42248,-6.35983,7.34,-0.25,0.6,2.0
1758088702.75021,1758088699.93265,0.0,0.0,0.0,-11.97482,-6.13065,-3.49504,7.39,-0.19,0.57,2.0
1758088702.75368,1758088699.94265,0.0,0.0,0.0,-13.17803,-3.66693,-0.17189,7.39,-0.19,0.57,2.0
1758088702.77022,1758088699.95265,0.0,0.0,0.0,-16.10011,-3.49504,4.35448,7.58,-0.09,0.73,2.0
1758088702.77133,1758088699.96265,0.0,0.0,0.0,-19.19409,-4.87014,6.58902,7.42,0.13,0.93,2.0
1758088702.7895,1758088699.97265,0.0,0.0,0.0,-22.74642,-6.53172,7.84952,7.42,0.13,0.93,2.0
1758088702.79313,1758088699.98265,0.0,0.0,0.0,-26.98631,-7.44845,8.42248,7.83,0.55,0.76,2.0
1758088702.8087,1758088699.99265,0.0,0.0,0.0,-33.51803,-10.37054,7.04738,7.83,0.55,0.76,2.0
1758088702.80963,1758088700.00265,0.0,0.0,0.0,-37.52874,-15.0115,4.58366,8.12,0.96,0.57,2.0
1758088702.85084,1758088700.01265,0.0,0.0,0.0,-41.31026,-25.38203,2.23454,8.12,0.96,0.57,2.0
1758088702.854,1758088700.02265,0.0,0.0,0.0,-43.65939,-35.98175,-2.86479,7.93,0.63,-0.13,2.0
1758088702.85816,1758088700.03265,0.0,0.0,0.0,-45.72203,-42.1124,-5.95876,8.88,-0.15,-0.75,2.0
1758088702.86045,1758088700.04265,0.0,0.0,0.0,-46.2377,-42.1124,-9.4538,8.88,-0.15,-0.75,2.0
1758088702.86489,1758088700.05265,0.0,0.0,0.0,-46.1804,-37.81522,-11.45916,10.32,-1.02,-0.95,2.0
1758088702.8808,1758088700.06265,0.0,0.0,0.0,-44.9199,-4.92744,-13.00614,10.32,-1.02,-0.95,2.0
1758088702.88245,1758088700.07265,0.0,0.0,0.0,-43.20102,19.42327,-12.77696,13.45,-1.3,-0.45,2.0
1758088702.89853,1758088700.08265,0.0,0.0,0.0,-40.62271,13.17803,-12.77696,13.45,-1.3,-0.45,2.0
1758088702.90105,1758088700.09265,0.0,0.0,0.0,-40.45082,-2.6929,-15.87093,10.81,-1.08,-0.07,2.0
1758088702.92311,1758088700.10265,0.0,0.0,0.0,-36.49741,-10.8862,-18.27736,10.81,-1.08,-1.44,2.0
1758088702.92564,1758088700.11265,0.0,0.0,0.0,-34.09099,-3.26586,-18.85031,11.86,-0.7,-1.44,2.0
1758088702.94074,1758088700.12265,0.0,0.0,0.0,-31.56997,7.10468,-17.93358,13.6,-0.59,-0.6,2.0
1758088702.94326,1758088700.13265,0.0,0.0,0.0,-27.84575,14.15206,-15.98552,13.6,-0.59,-0.6,2.0
1758088702.95956,1758088700.14265,0.0,0.0,0.0,-19.25138,15.92823,-14.20935,13.43,-0.97,1.39,2.0
1758088702.96287,1758088700.15265,0.0,0.0,0.0,-12.14671,9.11003,-13.80828,13.43,-0.97,1.39,2.0
1758088702.9785,1758088700.16265,0.0,0.0,0.0,-6.70361,-3.38045,-13.80828,12.17,-1.96,1.47,2.0
1758088702.97994,1758088700.17265,0.0,0.0,0.0,-3.26586,-13.23533,-13.12073,12.17,-1.96,1.47,2.0
1758088702.99508,1758088700.18265,0.0,0.0,0.0,-0.40107,-20.34,-10.8862,10.69,-1.98,1.03,2.0
1758088703.01052,1758088700.19265,0.0,0.0,0.0,1.83346,-23.20479,-9.96947,9.8,-1.58,1.61,2.0
1758088703.01371,1758088700.20265,0.0,0.0,0.0,4.29718,-30.13758,-9.91217,9.8,-1.58,1.61,2.0
1758088703.02936,1758088700.21265,0.0,0.0,0.0,7.16197,-44.51882,-11.22997,7.84,-1.1,3.19,2.0
1758088703.03057,1758088700.22265,0.0,0.0,0.0,10.25595,-75.51585,-18.85031,7.84,-1.1,3.19,2.0
1758088703.04894,1758088700.23265,0.0,0.0,0.0,10.65701,-84.1675,-26.98631,8.89,-0.25,5.75,2.0
1758088703.07105,1758088700.24265,0.0,0.0,0.0,11.17268,-81.24542,-34.60666,8.89,-0.25,5.75,2.0
1758088703.07533,1758088700.25265,0.0,0.0,0.0,12.2613,-69.15601,-41.88322,13.09,-0.86,4.84,2.0
1758088703.0769,1758088700.26265,0.0,0.0,0.0,11.28727,-63.59832,-43.02913,12.3,-1.13,3.96,2.0
1758088703.09504,1758088700.27265,0.0,0.0,0.0,8.02141,-58.55629,-42.22699,12.3,-1.13,3.96,2.0
1758088703.09731,1758088700.28265,0.0,0.0,0.0,2.7502,-50.13381,-39.13302,11.21,-0.71,3.13,2.0
1758088703.11529,1758088700.29265,0.0,0.0,0.0,-7.33386,-31.85646,-30.48136,11.21,-0.71,3.13,2.0
1758088703.11791,1758088700.30265,0.0,0.0,0.0,-14.38124,-22.68913,-24.17882,11.4,0.35,2.96,2.0
1758088703.13532,1758088700.31265,0.0,0.0,0.0,-19.99623,-13.5218,-18.79302,11.4,0.35,2.96,2.0
1758088703.13698,1758088700.32265,0.0,0.0,0.0,-23.54857,-1.94806,-14.09476,11.78,1.26,2.78,2.0
1758088703.14109,1758088700.33265,0.0,0.0,0.0,-25.8404,18.27736,-8.02141,12.6,1.15,2.07,2.0
1758088703.15767,1758088700.34265,0.0,0.0,0.0,-25.89769,30.59595,-4.92744,12.6,1.15,2.07,2.0
1758088703.16037,1758088700.35265,0.0,0.0,0.0,-25.21014,41.59674,-2.46372,11.92,0.29,1.71,2.0
1758088703.17569,1758088700.36265,0.0,0.0,0.0,-23.54857,50.363,-1.14592,11.92,0.29,1.71,2.0
1758088703.25335,1758088700.37265,0.0,0.0,0.0,-20.68378,60.79083,0.57296,10.76,-0.87,1.49,2.0
1758088703.25543,1758088700.38265,0.0,0.0,0.0,-18.27736,67.15066,2.06265,10.76,-0.87,1.49,2.0
1758088703.2564,1758088700.39265,0.0,0.0,0.0,-15.69904,70.18733,3.66693,9.88,-1.74,1.57,2.0
1758088703.25809,1758088700.40265,0.0,0.0,0.0,-12.89155,69.15601,5.95876,9.88,-1.74,1.57,2.0
1758088703.25974,1758088700.41265,0.0,0.0,0.0,-7.96411,68.69764,10.71431,8.56,-2.19,1.67,2.0
1758088703.2631,1758088700.42265,0.0,0.0,0.0,-4.52637,68.69764,14.09476,8.22,-2.25,1.78,2.0
1758088703.26413,1758088700.43265,0.0,0.0,0.0,-0.85944,64.74423,17.30333,8.22,-2.25,1.78,2.0
1758088703.26531,1758088700.44265,0.0,0.0,0.0,4.46907,59.47303,20.85567,7.59,-2.11,1.65,2.0
1758088703.27033,1758088700.45265,0.0,0.0,0.0,8.02141,53.74345,22.00158,7.59,-2.11,1.65,2.0
1758088703.27232,1758088700.46265,0.0,0.0,0.0,11.00079,48.24305,22.51724,7.82,-1.84,1.29,2.0
1758088703.28969,1758088700.47265,0.0,0.0,0.0,13.5791,41.88322,22.40265,7.82,-1.84,1.29,2.0
1758088703.29108,1758088700.48265,0.0,0.0,0.0,16.38659,33.40344,20.51189,7.65,-1.47,1.29,2.0
1758088703.30971,1758088700.49265,0.0,0.0,0.0,17.76169,27.61657,18.73572,7.73,-1.13,1.32,2.0
1758088703.31334,1758088700.50265,0.0,0.0,0.0,19.36597,20.74107,16.61578,7.73,-1.13,1.32,2.0
1758088703.32904,1758088700.51265,0.0,0.0,0.0,21.08485,14.09476,14.32395,7.36,-0.95,1.16,2.0
1758088703.3331,1758088700.52265,0.0,0.0,0.0,23.49127,8.76626,10.8862,7.36,-0.95,1.16,2.0
1758088703.34904,1758088700.53265,0.0,0.0,0.0,25.43933,6.70361,8.59437,7.35,-0.84,0.92,2.0
1758088703.35477,1758088700.54265,0.0,0.0,0.0,26.98631,4.0107,6.24524,7.35,-0.84,0.92,2.0
1758088703.37054,1758088700.55265,0.0,0.0,0.0,28.70519,-0.17189,4.23989,6.84,-0.7,0.78,2.0
1758088703.37365,1758088700.56265,0.0,0.0,0.0,31.39809,-8.30789,1.66158,6.4,-0.66,0.49,2.0
1758088703.39002,1758088700.57265,0.0,0.0,0.0,33.17426,-16.67307,0.11459,6.4,-0.66,0.49,2.0
1758088703.39103,1758088700.58265,0.0,0.0,0.0,35.00772,-28.01764,-1.14592,6.07,-0.82,0.21,2.0
1758088703.43806,1758088700.59265,0.0,0.0,0.0,35.92446,-38.50277,-2.23454,6.07,-0.82,0.21,2.0
1758088703.44347,1758088700.60265,0.0,0.0,0.0,35.63798,-49.79003,-4.1253,6.79,-0.95,0.17,2.0
1758088703.44526,1758088700.61265,0.0,0.0,0.0,34.72124,-46.46688,-6.18794,6.79,-0.95,0.17,2.0
1758088703.47472,1758088700.62265,0.0,0.0,0.0,35.06502,-32.20023,-5.21392,9.2,-0.78,0.45,2.0
1758088703.47532,1758088700.63265,0.0,0.0,0.0,36.49741,-13.98017,-3.38045,9.2,-0.78,0.45,2.0
1758088703.47733,1758088700.64265,0.0,0.0,0.0,35.40879,14.9542,-3.38045,11.64,-0.56,0.44,2.0
1758088703.4799,1758088700.65265,0.0,0.0,0.0,35.3515,18.9649,-3.49504,10.75,-0.33,0.49,2.0
1758088703.48031,1758088700.66265,0.0,0.0,0.0,33.68992,-4.23989,-5.72958,10.75,-0.33,0.49,2.0
1758088703.48144,1758088700.67265,0.0,0.0,0.0,27.61657,-45.83662,-2.06265,7.85,0.57,-0.12,2.0
1758088703.5001,1758088700.68265,0.0,0.0,0.0,23.89234,-44.46153,2.63561,7.85,0.57,-0.12,2.0
1758088703.50105,1758088700.69265,0.0,0.0,0.0,18.79302,-34.66395,5.84417,12.95,0.9,-0.92,2.0
1758088703.51709,1758088700.70265,0.0,0.0,0.0,15.46986,-24.29341,7.73493,12.95,0.9,-0.92,2.0
1758088703.52044,1758088700.71265,0.0,0.0,0.0,11.86023,-14.20935,7.96411,13.24,0.72,-0.37,2.0
1758088703.53678,1758088700.72265,0.0,0.0,0.0,9.22462,-8.88085,5.95876,12.6,0.28,0.06,2.0
1758088703.53958,1758088700.73265,0.0,0.0,0.0,5.78687,-3.26586,3.32316,12.6,0.28,0.06,2.0
1758088703.58021,1758088700.74265,0.0,0.0,0.0,2.00535,4.64096,2.46372,13.89,0.05,1.11,2.0
1758088703.58513,1758088700.75265,0.0,0.0,0.0,-4.69825,11.86023,1.71887,13.89,0.05,1.11,2.0
1758088703.60474,1758088700.76265,0.0,0.0,0.0,-9.4538,4.58366,3.89611,14.56,0.44,1.36,2.0
1758088703.60763,1758088700.77265,0.0,0.0,0.0,-13.06344,-2.06265,7.16197,14.56,0.44,1.36,2.0
1758088703.61061,1758088700.78265,0.0,0.0,0.0,-16.21471,-2.06265,11.57375,14.04,0.15,1.77,2.0
1758088703.61579,1758088700.79265,0.0,0.0,0.0,-19.88164,-2.46372,17.76169,13.97,-0.05,2.65,2.0
1758088703.61682,1758088700.80265,0.0,0.0,0.0,-22.34536,-6.13065,21.48592,13.97,-0.05,2.65,2.0
1758088703.63448,1758088700.81265,0.0,0.0,0.0,-24.17882,-8.59437,23.89234,13.11,-0.24,3.58,2.0
1758088703.63767,1758088700.82265,0.0,0.0,0.0,-24.80907,-10.48513,23.72045,13.11,-0.24,3.58,2.0
1758088703.65479,1758088700.83265,0.0,0.0,0.0,-23.54857,-13.69369,19.59516,11.15,-0.74,2.54,2.0
1758088703.65597,1758088700.84265,0.0,0.0,0.0,-21.25674,-13.98017,16.50119,11.15,-0.74,2.54,2.0
1758088703.67098,1758088700.85265,0.0,0.0,0.0,-17.53251,-12.14671,13.23533,9.46,-1.89,2.6,2.0
1758088703.67647,1758088700.86265,0.0,0.0,0.0,-9.39651,-10.71431,10.37054,9.46,-1.89,2.6,2.0
1758088703.69493,1758088700.87265,0.0,0.0,0.0,-2.57831,-11.63104,10.37054,8.97,-2.79,3.05,2.0
1758088703.69612,1758088700.88265,0.0,0.0,0.0,4.64096,-12.49048,11.74564,9.11,-2.99,3.14,2.0
1758088703.71281,1758088700.89265,0.0,0.0,0.0,11.45916,-13.46451,14.49583,9.11,-2.99,3.14,2.0
1758088703.71968,1758088700.90265,0.0,0.0,0.0,19.59516,-14.72501,19.76705,9.43,-2.74,3.14,2.0
1758088703.72004,1758088700.91265,0.0,0.0,0.0,23.37668,-15.29797,24.00693,9.43,-2.74,3.14,2.0
1758088703.73627,1758088700.92265,0.0,0.0,0.0,26.69983,-15.0115,28.13223,9.28,-2.25,3.28,2.0
1758088703.73961,1758088700.93265,0.0,0.0,0.0,28.70519,-13.98017,30.99702,9.28,-2.25,3.28,2.0
1758088703.75497,1758088700.94265,0.0,0.0,0.0,30.82513,-11.34457,32.08564,8.85,-1.6,3.12,2.0
1758088703.77522,1758088700.95265,0.0,0.0,0.0,31.2262,-8.30789,30.59595,8.75,-0.86,2.71,2.0
1758088703.80591,1758088700.96265,0.0,0.0,0.0,30.82513,-3.89611,27.73116,8.75,-0.86,2.71,2.0
1758088703.80731,1758088700.97265,0.0,0.0,0.0,29.56462,0.85944,23.83505,9.15,-0.17,2.46,2.0
1758088703.81336,1758088700.98265,0.0,0.0,0.0,26.81443,6.47442,17.01685,9.15,-0.17,2.46,2.0
1758088703.81384,1758088700.99265,0.0,0.0,0.0,24.5226,9.85487,12.43318,9.35,0.41,2.25,2.0
1758088703.81726,1758088701.00265,0.0,0.0,0.0,21.7724,13.00614,7.96411,9.35,0.41,2.25,2.0
1758088703.83302,1758088701.01265,0.0,0.0,0.0,19.76705,16.73037,3.72423,9.67,0.78,2.07,2.0
1758088703.83505,1758088701.02265,0.0,0.0,0.0,16.3293,22.86102,-0.57296,9.95,0.7,1.83,2.0
1758088703.85009,1758088701.03265,0.0,0.0,0.0,14.15206,27.1582,-2.7502,9.95,0.7,1.83,2.0
1758088703.85293,1758088701.04265,0.0,0.0,0.0,12.37589,31.56997,-3.72423,9.95,0.27,1.58,2.0
1758088703.86914,1758088701.05265,0.0,0.0,0.0,10.54242,35.92446,-4.87014,9.95,0.27,1.58,2.0
1758088703.87006,1758088701.06265,0.0,0.0,0.0,8.136,40.39353,-4.98473,9.74,-0.23,1.46,2.0
1758088703.88512,1758088701.07265,0.0,0.0,0.0,7.04738,41.25296,-5.84417,9.74,-0.23,1.46,2.0
1758088703.90287,1758088701.08265,0.0,0.0,0.0,5.84417,41.76862,-6.18794,9.33,-0.47,1.4,2.0
1758088703.9057,1758088701.09265,0.0,0.0,0.0,4.52637,39.01843,-6.8182,9.33,-0.47,1.4,2.0
1758088703.9103,1758088701.10265,0.0,0.0,0.0,3.38045,37.24226,-7.67763,9.06,-0.42,1.4,2.0
1758088703.92992,1758088701.11265,0.0,0.0,0.0,2.23454,34.0337,-7.84952,8.94,-0.16,1.47,2.0
1758088703.93112,1758088701.12265,0.0,0.0,0.0,0.51566,29.04896,-8.30789,8.94,-0.16,1.47,2.0
1758088703.94635,1758088701.13265,0.0,0.0,0.0,-2.34913,17.47521,-7.62034,8.52,0.15,1.4,2.0
1758088703.95294,1758088701.14265,0.0,0.0,0.0,-6.70361,14.72501,-9.22462,8.52,0.15,1.4,2.0
1758088703.96816,1758088701.15265,0.0,0.0,0.0,-10.25595,15.29797,-9.74028,8.47,0.48,1.45,2.0
1758088703.96932,1758088701.16265,0.0,0.0,0.0,-14.09476,18.56383,-10.59972,8.47,0.48,1.45,2.0
1758088703.98504,1758088701.17265,0.0,0.0,0.0,-18.73572,20.11082,-9.74028,8.48,0.62,1.44,2.0
1758088704.00111,1758088701.18265,0.0,0.0,0.0,-21.7724,17.13144,-8.30789,7.69,0.56,1.69,2.0
1758088704.00342,1758088701.19265,0.0,0.0,0.0,-25.15285,11.34457,-6.24524,7.69,0.56,1.69,2.0
1758088704.01917,1758088701.20265,0.0,0.0,0.0,-28.59059,4.98473,-3.95341,7.28,0.56,1.4,2.0
1758088704.02093,1758088701.21265,0.0,0.0,0.0,-33.63263,-6.41713,-0.40107,7.28,0.56,1.4,2.0
1758088704.03694,1758088701.22265,0.0,0.0,0.0,-36.7266,-17.24603,0.85944,7.13,0.58,1.11,2.0
1758088704.0397,1758088701.23265,0.0,0.0,0.0,-39.4768,-30.53865,2.40642,7.13,0.58,1.11,2.0
1758088704.05534,1758088701.24265,0.0,0.0,0.0,-40.96649,-40.39353,2.7502,7.0,0.24,0.74,2.0
1758088704.07436,1758088701.25265,0.0,0.0,0.0,-42.57077,-53.34238,4.0107,7.9,-0.19,0.47,2.0
1758088704.07555,1758088701.26265,0.0,0.0,0.0,-43.4875,-59.18654,4.69825,7.9,-0.19,0.47,2.0
1758088704.10803,1758088701.27265,0.0,0.0,0.0,-44.748,-43.65939,4.29718,10.11,-0.37,0.91,2.0
1758088704.10965,1758088701.28265,0.0,0.0,0.0,-45.72203,-11.17268,5.50039,10.11,-0.37,0.91,2.0
1758088704.11028,1758088701.29265,0.0,0.0,0.0,-44.63341,-5.78687,4.1253,11.69,-0.68,1.14,2.0
1758088704.11582,1758088701.30265,0.0,0.0,0.0,-46.75336,-24.4653,0.57296,11.69,-0.68,1.14,2.0
1758088704.13145,1758088701.31265,0.0,0.0,0.0,-46.2377,-35.58068,-4.18259,8.18,-0.41,0.89,2.0
1758088704.13477,1758088701.32265,0.0,0.0,0.0,-46.00851,-21.7151,-10.54242,8.18,-0.41,0.89,2.0
1758088704.15019,1758088701.33265,0.0,0.0,0.0,-45.49285,-5.32851,-13.00614,11.76,-0.7,-0.46,2.0
1758088704.15149,1758088701.34265,0.0,0.0,0.0,-44.28964,6.07335,-13.23533,11.85,-1.23,0.22,2.0
1758088704.16951,1758088701.35265,0.0,0.0,0.0,-42.62806,13.12073,-12.49048,11.85,-1.23,0.22,2.0
1758088704.17041,1758088701.36265,0.0,0.0,0.0,-37.58603,22.40265,-9.22462,11.3,-1.65,1.01,2.0
1758088704.18548,1758088701.37265,0.0,0.0,0.0,-33.74722,24.35071,-7.33386,11.3,-1.65,1.01,2.0
1758088704.19069,1758088701.38265,0.0,0.0,0.0,-29.56462,20.85567,-6.7609,11.64,-2.12,1.27,2.0
1758088704.20764,1758088701.39265,0.0,0.0,0.0,-24.4653,14.32395,-7.16197,11.64,-2.12,1.27,2.0
1758088704.22322,1758088701.40265,0.0,0.0,0.0,-16.73037,7.67763,-10.37054,11.93,-2.26,1.64,2.0
