timeStamp,timeStampAlign,roll,pitch,yaw,gyro_x,gyro_y,gyro_z,acc_x,acc_y,acc_z,flag_num
1758091058.50616,1758091040.26627,0.0,0.0,0.0,18.85031,5.78687,29.39274,12.34,2.24,2.52,2.0
1758091058.52221,1758091040.27627,0.0,0.0,0.0,2.34913,25.21014,11.63104,12.36,1.01,1.92,2.0
1758091058.52333,1758091040.28627,0.0,0.0,0.0,-7.79223,36.32552,-0.11459,12.36,1.01,1.92,2.0
1758091058.53819,1758091040.29627,0.0,0.0,0.0,-15.12609,43.20102,-9.5684,12.59,0.44,2.02,2.0
1758091058.53931,1758091040.30627,0.0,0.0,0.0,-20.97026,47.78468,-18.50654,12.59,0.44,2.02,2.0
1758091058.55472,1758091040.31627,0.0,0.0,0.0,-21.7151,57.52497,-21.94428,13.26,0.73,1.47,2.0
1758091058.5702,1758091040.32627,0.0,0.0,0.0,-21.7151,64.80153,-22.11617,13.26,0.73,1.47,2.0
1758091058.57138,1758091040.33627,0.0,0.0,0.0,-21.6578,71.16136,-21.08485,14.05,1.19,0.92,2.0
1758091058.58679,1758091040.34627,0.0,0.0,0.0,-20.85567,75.00018,-17.53251,14.05,1.19,0.92,2.0
1758091058.60221,1758091040.35627,0.0,0.0,0.0,-19.82434,74.31263,-15.41257,13.2,0.8,1.36,2.0
1758091058.60338,1758091040.36627,0.0,0.0,0.0,-18.50654,71.27596,-13.34992,11.75,-0.19,1.32,2.0
1758091058.6182,1758091040.37627,0.0,0.0,0.0,-16.3293,66.06203,-11.63104,11.75,-0.19,1.32,2.0
1758091058.62016,1758091040.38627,0.0,0.0,0.0,-13.23533,58.84277,-11.34457,10.56,-1.04,1.24,2.0
1758091058.66303,1758091040.39627,0.0,0.0,0.0,-11.28727,55.6342,-12.14671,10.56,-1.04,1.24,2.0
1758091058.66668,1758091040.40627,0.0,0.0,0.0,-10.19865,52.08187,-14.49583,10.02,-1.31,1.23,2.0
1758091058.66808,1758091040.41627,0.0,0.0,0.0,-9.4538,49.04519,-17.6471,10.02,-1.31,1.23,2.0
1758091058.67019,1758091040.42627,0.0,0.0,0.0,-8.93814,42.85724,-22.34536,9.27,-1.07,1.23,2.0
1758091058.67075,1758091040.43627,0.0,0.0,0.0,-8.76626,37.98711,-24.92367,8.48,-0.57,1.16,2.0
1758091058.68811,1758091040.44627,0.0,0.0,0.0,-9.11003,32.77319,-27.04361,8.48,-0.57,1.16,2.0
1758091058.69009,1758091040.45627,0.0,0.0,0.0,-9.96947,28.30412,-28.24682,7.81,-0.08,1.04,2.0
1758091058.7062,1758091040.46627,0.0,0.0,0.0,-12.43318,20.62648,-28.41871,7.81,-0.08,1.04,2.0
1758091058.72209,1758091040.47627,0.0,0.0,0.0,-14.38124,14.20935,-27.2155,7.17,0.28,0.79,2.0
1758091058.72329,1758091040.48627,0.0,0.0,0.0,-16.73037,7.44845,-26.52795,7.17,0.28,0.79,2.0
1758091058.7381,1758091040.49627,0.0,0.0,0.0,-19.59516,2.40642,-25.7831,6.82,0.51,0.73,2.0
1758091058.73929,1758091040.50627,0.0,0.0,0.0,-24.23611,0.22918,-25.26744,7.12,0.63,0.49,2.0
1758091058.75417,1758091040.51627,0.0,0.0,0.0,-26.98631,0.74485,-24.12152,7.12,0.63,0.49,2.0
1758091058.77051,1758091040.52627,0.0,0.0,0.0,-29.33544,-1.60428,-22.40265,6.96,0.61,0.62,2.0
1758091058.77167,1758091040.53627,0.0,0.0,0.0,-33.46074,-5.95876,-19.99623,6.96,0.61,0.62,2.0
1758091058.78647,1758091040.54627,0.0,0.0,0.0,-36.15364,-8.65166,-17.47521,6.71,0.57,0.42,2.0
1758091058.80246,1758091040.55627,0.0,0.0,0.0,-39.07573,-12.204,-14.61043,6.71,0.57,0.42,2.0
1758091058.80416,1758091040.56627,0.0,0.0,0.0,-42.28429,-14.43854,-12.77696,7.05,0.56,0.22,2.0
1758091058.81951,1758091040.57627,0.0,0.0,0.0,-47.15443,-16.90226,-10.54242,7.05,0.56,-0.12,2.0
1758091058.82039,1758091040.58627,0.0,0.0,0.0,-50.47758,-16.3293,-10.71431,7.88,0.49,-0.12,2.0
1758091058.8352,1758091040.59627,0.0,0.0,0.0,-53.05589,-15.87093,-11.00079,9.12,0.11,-0.66,2.0
1758091058.85354,1758091040.60627,0.0,0.0,0.0,-55.06125,-13.80828,-12.2613,9.12,0.11,-0.66,2.0
1758091058.85876,1758091040.61627,0.0,0.0,0.0,-56.26446,-7.44845,-13.12073,10.49,-0.37,-1.24,2.0
1758091058.86023,1758091040.62627,0.0,0.0,0.0,-55.92068,-4.69825,-12.49048,10.49,-0.37,-1.24,2.0
1758091058.87649,1758091040.63627,0.0,0.0,0.0,-54.71747,-3.72423,-11.17268,11.19,-0.82,-1.86,2.0
1758091058.89246,1758091040.64627,0.0,0.0,0.0,-52.82671,-3.89611,-9.22462,11.19,-0.82,-1.86,2.0
1758091058.89338,1758091040.65627,0.0,0.0,0.0,-48.64412,-5.84417,-6.07335,11.08,-1.14,-2.43,2.0
1758091058.90825,1758091040.66627,0.0,0.0,0.0,-45.72203,-7.73493,-3.89611,10.84,-1.29,-2.6,2.0
1758091058.91014,1758091040.67627,0.0,0.0,0.0,-42.68536,-7.96411,-1.77617,10.84,-1.29,-2.6,2.0
1758091058.92588,1758091040.68627,0.0,0.0,0.0,-39.99245,-6.99009,0.11459,11.14,-1.31,-2.24,2.0
1758091058.94221,1758091040.69627,0.0,0.0,0.0,-37.24226,-6.35983,1.48969,11.14,-1.31,-2.24,2.0
1758091058.94371,1758091040.70627,0.0,0.0,0.0,-35.75257,-11.22997,0.85944,11.52,-1.21,-0.85,2.0
1758091058.95821,1758091040.71627,0.0,0.0,0.0,-35.3515,-22.11617,-1.3751,11.52,-1.21,-0.85,2.0
1758091058.95936,1758091040.72627,0.0,0.0,0.0,-33.74722,-49.96192,-9.05273,11.53,-0.86,1.73,2.0
1758091058.97441,1758091040.73627,0.0,0.0,0.0,-32.42941,-66.69229,-17.13144,12.7,-0.71,4.61,2.0
1758091058.9902,1758091040.74627,0.0,0.0,0.0,-31.56997,-83.88103,-27.33009,12.7,-0.71,4.61,2.0
1758091058.99221,1758091040.75627,0.0,0.0,0.0,-29.62192,-96.25692,-35.58068,12.51,-1.35,5.02,2.0
1758091059.0072,1758091040.76627,0.0,0.0,0.0,-29.10626,-92.41809,-41.99781,12.51,-1.35,5.02,2.0
1758091059.0084,1758091040.77627,0.0,0.0,0.0,-29.9084,-75.00018,-42.22699,11.27,-0.97,4.43,2.0
1758091059.02447,1758091040.78627,0.0,0.0,0.0,-33.17426,-52.9986,-39.4195,11.27,-0.97,4.43,2.0
1758091059.04049,1758091040.79627,0.0,0.0,0.0,-36.49741,-41.48215,-33.11696,10.73,0.01,3.63,2.0
1758091059.06891,1758091040.80627,0.0,0.0,0.0,-44.8053,-46.63877,-22.86102,8.79,0.98,3.33,2.0
1758091059.09411,1758091040.81627,0.0,0.0,0.0,-50.76406,-48.9879,-15.75634,8.79,0.98,3.33,2.0
1758091059.09535,1758091040.82627,0.0,0.0,0.0,-54.66018,-40.10705,-8.02141,11.86,0.98,1.83,2.0
1758091059.09667,1758091040.83627,0.0,0.0,0.0,-56.49364,-26.06958,-0.85944,11.86,0.98,1.83,2.0
1758091059.09817,1758091040.84627,0.0,0.0,0.0,-56.49364,-8.25059,5.15662,14.56,-0.29,1.55,2.0
1758091059.09862,1758091040.85627,0.0,0.0,0.0,-54.14451,4.81285,6.70361,14.56,-0.29,1.55,2.0
1758091059.0994,1758091040.86627,0.0,0.0,0.0,-50.64947,17.36062,6.99009,14.0,-1.64,1.44,2.0
1758091059.11683,1758091040.87627,0.0,0.0,0.0,-46.52417,27.84575,7.21927,14.0,-1.64,1.44,2.0
1758091059.1322,1758091040.88627,0.0,0.0,0.0,-40.7946,43.20102,6.47442,12.35,-2.32,1.16,2.0
1758091059.13336,1758091040.89627,0.0,0.0,0.0,-37.52874,50.59217,6.41713,11.02,-2.21,1.12,2.0
1758091059.14848,1758091040.90627,0.0,0.0,0.0,-35.00772,55.92068,6.41713,11.02,-2.21,1.12,2.0
1758091059.1494,1758091040.91627,0.0,0.0,0.0,-31.91375,60.16057,7.10468,10.09,-1.76,0.89,2.0
1758091059.16483,1758091040.92627,0.0,0.0,0.0,-31.45539,63.54102,7.21927,10.09,-1.76,0.89,2.0
1758091059.18128,1758091040.93627,0.0,0.0,0.0,-31.51268,64.28587,7.16197,9.6,-1.18,0.78,2.0
1758091059.18224,1758091040.94627,0.0,0.0,0.0,-31.85646,63.88479,6.99009,9.6,-1.18,0.78,2.0
1758091059.1979,1758091040.95627,0.0,0.0,0.0,-33.05967,61.36378,7.04738,8.84,-0.66,0.64,2.0
1758091059.20481,1758091040.96627,0.0,0.0,0.0,-33.9764,58.26981,7.16197,8.16,-0.29,0.84,2.0
1758091059.22048,1758091040.97627,0.0,0.0,0.0,-34.72124,55.40502,7.62034,8.16,-0.29,0.84,2.0
1758091059.22142,1758091040.98627,0.0,0.0,0.0,-35.69527,52.884,7.16197,7.6,-0.11,0.82,2.0
1758091059.2365,1758091040.99627,0.0,0.0,0.0,-35.92446,48.07116,6.47442,7.6,-0.11,0.82,2.0
1758091059.25251,1758091041.00627,0.0,0.0,0.0,-35.40879,44.51882,5.61499,7.12,-0.13,0.68,2.0
1758091059.25341,1758091041.01627,0.0,0.0,0.0,-34.32018,40.96649,4.58366,7.12,-0.13,0.68,2.0
1758091059.26847,1758091041.02627,0.0,0.0,0.0,-32.77319,37.75792,3.26586,6.71,-0.35,0.44,2.0
1758091059.27023,1758091041.03627,0.0,0.0,0.0,-30.48136,32.88778,0.97403,6.51,-0.68,0.4,2.0
1758091059.28521,1758091041.04627,0.0,0.0,0.0,-27.73116,28.41871,-0.74485,6.51,-0.68,0.4,2.0
1758091059.30121,1758091041.05627,0.0,0.0,0.0,-24.17882,22.97561,-2.57831,6.25,-1.13,0.32,2.0
1758091059.3032,1758091041.06627,0.0,0.0,0.0,-20.16812,19.36597,-4.35448,6.25,-1.13,0.32,2.0
1758091059.3181,1758091041.07627,0.0,0.0,0.0,-12.83425,16.67307,-5.90147,6.92,-1.82,0.45,2.0
1758091059.3208,1758091041.08627,0.0,0.0,0.0,-7.33386,13.12073,-6.18794,6.92,-1.82,0.45,2.0
1758091059.33623,1758091041.09627,0.0,0.0,0.0,-1.14592,7.44845,-6.13065,7.32,-2.48,0.6,2.0
1758091059.35224,1758091041.10627,0.0,0.0,0.0,5.15662,0.17189,-4.87014,7.32,-2.48,0.6,2.0
1758091059.35342,1758091041.11627,0.0,0.0,0.0,13.75099,-9.91217,-3.38045,7.76,-2.75,0.42,2.0
1758091059.36843,1758091041.12627,0.0,0.0,0.0,18.33465,-18.22006,-1.60428,8.56,-2.28,-0.02,2.0
1758091059.36942,1758091041.13627,0.0,0.0,0.0,21.37133,-30.93972,0.74485,8.56,-2.28,-0.02,2.0
1758091059.38426,1758091041.14627,0.0,0.0,0.0,18.73572,-44.57612,4.35448,9.44,-1.24,-0.16,2.0
1758091059.40047,1758091041.15627,0.0,0.0,0.0,13.40721,-30.65324,6.35983,9.44,-1.24,-0.16,2.0
1758091059.40143,1758091041.16627,0.0,0.0,0.0,6.35983,-10.08406,8.76626,13.76,0.44,0.21,2.0
1758091059.41653,1758091041.17627,0.0,0.0,0.0,-2.46372,6.53172,9.4538,13.76,0.44,0.21,2.0
1758091059.43221,1758091041.18627,0.0,0.0,0.0,-10.19865,7.10468,10.59972,14.27,1.57,-0.8,2.0
1758091059.43334,1758091041.19627,0.0,0.0,0.0,-15.12609,-13.75099,10.37054,10.88,0.23,-2.08,2.0
1758091059.44857,1758091041.20627,0.0,0.0,0.0,-15.98552,-31.62727,14.61043,10.88,0.23,-2.08,2.0
1758091059.44945,1758091041.21627,0.0,0.0,0.0,-19.42327,-27.2155,17.81899,12.56,-1.28,-2.48,2.0
1758091059.46438,1758091041.22627,0.0,0.0,0.0,-23.83505,-8.36518,19.70975,12.56,-1.28,-2.48,2.0
1758091059.48028,1758091041.23627,0.0,0.0,0.0,-25.43933,-4.18259,21.42862,14.66,-1.97,-1.35,2.0
1758091059.48142,1758091041.24627,0.0,0.0,0.0,-26.18417,-8.88085,22.11617,14.66,-1.97,-1.35,2.0
1758091059.49645,1758091041.25627,0.0,0.0,0.0,-24.86637,-17.13144,21.88699,12.17,-2.39,1.14,2.0
1758091059.51248,1758091041.26627,0.0,0.0,0.0,-17.6471,-37.52874,21.31403,10.11,-2.92,2.04,2.0
1758091059.51342,1758091041.27627,0.0,0.0,0.0,-10.8862,-51.5662,22.11617,10.11,-2.92,2.04,2.0
1758091059.52853,1758091041.28627,0.0,0.0,0.0,-4.69825,-62.22322,25.38203,10.11,-2.29,2.99,2.0
1758091059.52937,1758091041.29627,0.0,0.0,0.0,0.74485,-65.43179,31.28349,10.11,-2.29,2.99,2.0
1758091059.54424,1758091041.30627,0.0,0.0,0.0,6.35983,-59.12925,40.50812,11.61,-1.19,5.15,2.0
1758091059.56016,1758091041.31627,0.0,0.0,0.0,9.62569,-51.22243,44.00316,11.61,-1.19,5.15,2.0
1758091059.56143,1758091041.32627,0.0,0.0,0.0,12.89155,-42.68536,44.46153,9.37,-0.39,4.06,2.0
1758091059.57648,1758091041.33627,0.0,0.0,0.0,18.79302,-29.73651,40.7946,9.37,-0.39,4.06,2.0
1758091059.59247,1758091041.34627,0.0,0.0,0.0,23.49127,-21.08485,37.24226,7.62,-1.02,2.67,2.0
1758091059.59348,1758091041.35627,0.0,0.0,0.0,28.99167,-17.13144,31.91375,8.87,-2.02,2.63,2.0
1758091059.60821,1758091041.36627,0.0,0.0,0.0,33.86181,-16.61578,26.52795,8.87,-2.02,2.63,2.0
1758091059.6094,1758091041.37627,0.0,0.0,0.0,38.1017,-7.62034,16.95955,11.78,-2.3,3.01,2.0
1758091059.62413,1758091041.38627,0.0,0.0,0.0,38.27358,3.60963,10.65701,11.78,-2.3,3.01,2.0
1758091059.64021,1758091041.39627,0.0,0.0,0.0,36.95578,14.78231,5.50039,13.9,-0.91,1.72,2.0
1758091059.6422,1758091041.40627,0.0,0.0,0.0,35.00772,25.38203,1.3751,13.9,-0.91,1.72,2.0
1758091059.65744,1758091041.41627,0.0,0.0,0.0,30.93972,38.1017,-2.7502,13.04,0.49,1.25,2.0
1758091059.65866,1758091041.42627,0.0,0.0,0.0,28.13223,45.60744,-4.81285,11.61,0.99,1.15,2.0
1758091059.6742,1758091041.43627,0.0,0.0,0.0,25.15285,50.87865,-6.13065,11.61,0.99,1.15,2.0
1758091059.69025,1758091041.44627,0.0,0.0,0.0,22.34536,54.3737,-7.62034,10.09,0.94,1.29,2.0
1758091059.69143,1758091041.45627,0.0,0.0,0.0,18.90761,56.26446,-8.70896,10.09,0.94,1.29,2.0
1758091059.70622,1758091041.46627,0.0,0.0,0.0,17.53251,54.77477,-9.4538,9.0,0.63,1.21,2.0
1758091059.7222,1758091041.47627,0.0,0.0,0.0,16.50119,52.9986,-10.02676,9.0,0.63,1.21,2.0
1758091059.72422,1758091041.48627,0.0,0.0,0.0,16.04282,49.79003,-10.65701,8.38,0.33,1.35,2.0
1758091059.7392,1758091041.49627,0.0,0.0,0.0,16.10011,42.51347,-11.57375,7.8,0.11,1.38,2.0
1758091059.74035,1758091041.50627,0.0,0.0,0.0,16.61578,36.7266,-12.43318,7.8,0.11,1.38,2.0
1758091059.75599,1758091041.51627,0.0,0.0,0.0,17.36062,31.51268,-12.77696,7.48,-0.11,1.45,2.0
1758091059.77225,1758091041.52627,0.0,0.0,0.0,18.33465,26.47065,-12.89155,7.48,-0.11,1.45,2.0
1758091059.77341,1758091041.53627,0.0,0.0,0.0,18.79302,17.81899,-12.71966,7.22,-0.3,1.57,2.0
1758091059.78831,1758091041.54627,0.0,0.0,0.0,18.85031,12.204,-11.57375,7.22,-0.3,1.57,2.0
1758091059.78943,1758091041.55627,0.0,0.0,0.0,18.44924,7.04738,-10.02676,7.09,-0.36,1.56,2.0
1758091059.80449,1758091041.56627,0.0,0.0,0.0,16.73037,0.45837,-7.33386,7.09,-0.36,1.56,2.0
1758091059.8205,1758091041.57627,0.0,0.0,0.0,15.12609,-5.50039,-6.13065,7.09,-0.28,1.34,2.0
1758091059.82223,1758091041.58627,0.0,0.0,0.0,13.46451,-10.59972,-5.21392,6.99,-0.14,1.19,2.0
1758091059.83749,1758091041.59627,0.0,0.0,0.0,11.34457,-13.86558,-4.92744,6.99,-0.14,1.19,2.0
1758091059.83922,1758091041.60627,0.0,0.0,0.0,7.62034,-16.10011,-3.49504,7.27,0.19,0.95,2.0
1758091059.856,1758091041.61627,0.0,0.0,0.0,4.1253,-19.36597,-2.86479,7.27,0.19,0.95,2.0
1758091059.87235,1758091041.62627,0.0,0.0,0.0,-0.11459,-22.40265,-2.11994,7.49,0.71,0.84,2.0
1758091059.87505,1758091041.63627,0.0,0.0,0.0,-5.27121,-24.17882,-2.06265,7.49,0.71,0.84,2.0
1758091059.89024,1758091041.64627,0.0,0.0,0.0,-13.69369,-27.33009,-1.94806,8.43,1.03,0.36,2.0
1758091059.89188,1758091041.65627,0.0,0.0,0.0,-19.36597,-29.27814,-2.6929,9.3,0.9,-0.02,2.0
1758091059.90649,1758091041.66627,0.0,0.0,0.0,-24.4653,-31.91375,-4.18259,9.3,0.9,-0.02,2.0
1758091059.92224,1758091041.67627,0.0,0.0,0.0,-28.93437,-34.32018,-7.21927,10.0,0.42,-0.57,2.0
1758091059.92343,1758091041.68627,0.0,0.0,0.0,-33.34615,-35.40879,-12.14671,10.0,0.42,-0.57,2.0
1758091059.93822,1758091041.69627,0.0,0.0,0.0,-34.43476,-31.2262,-14.49583,11.13,-0.08,-1.17,2.0
1758091059.93943,1758091041.70627,0.0,0.0,0.0,-34.77854,-25.15285,-15.87093,11.13,-0.08,-1.17,2.0
1758091059.95423,1758091041.71627,0.0,0.0,0.0,-34.26288,-20.79837,-17.01685,12.08,-0.52,-1.54,2.0
1758091059.97049,1758091041.72627,0.0,0.0,0.0,-32.20023,-17.24603,-16.67307,11.89,-0.7,-2.11,2.0
1758091059.97227,1758091041.73627,0.0,0.0,0.0,-30.48136,-15.92823,-15.35527,11.89,-0.7,-2.11,2.0
1758091059.98718,1758091041.74627,0.0,0.0,0.0,-29.33544,-13.5791,-13.75099,11.75,-0.73,-2.36,2.0
1758091059.99329,1758091041.75627,0.0,0.0,0.0,-26.47065,-13.80828,-11.63104,11.75,-0.73,-2.36,2.0
1758091060.01742,1758091041.76627,0.0,0.0,0.0,-24.00693,-16.50119,-10.37054,11.72,-0.58,-2.12,2.0
1758091060.02019,1758091041.77627,0.0,0.0,0.0,-21.7151,-17.87628,-9.85487,11.72,-0.58,-2.12,2.0
1758091060.0216,1758091041.78627,0.0,0.0,0.0,-18.85031,-19.13679,-11.51645,12.54,-0.57,-0.38,2.0
1758091060.03949,1758091041.79627,0.0,0.0,0.0,-12.49048,-23.72045,-16.84496,12.54,-0.57,1.94,2.0
1758091060.04397,1758091041.80627,0.0,0.0,0.0,-8.76626,-32.83048,-22.23076,13.37,-0.91,1.94,2.0
1758091060.05947,1758091041.81627,0.0,0.0,0.0,-4.98473,-50.64947,-28.87707,12.88,-1.47,4.31,2.0
1758091060.06118,1758091041.82627,0.0,0.0,0.0,-3.49504,-70.6457,-36.7266,12.88,-1.47,4.31,2.0
1758091060.07948,1758091041.83627,0.0,0.0,0.0,-0.80214,-73.3386,-45.14908,11.95,-1.96,3.99,2.0
1758091060.08068,1758091041.84627,0.0,0.0,0.0,0.22918,-63.94209,-45.72203,11.95,-1.96,3.99,2.0
1758091060.09521,1758091041.85627,0.0,0.0,0.0,-0.11459,-53.97263,-43.25832,11.64,-1.44,4.25,2.0
1758091060.11193,1758091041.86627,0.0,0.0,0.0,-2.57831,-44.11775,-39.4768,11.64,-1.44,4.25,2.0
1758091060.11323,1758091041.87627,0.0,0.0,0.0,-9.68299,-31.62727,-31.45539,10.33,-0.46,4.67,2.0
1758091060.12827,1758091041.88627,0.0,0.0,0.0,-15.87093,-26.12688,-25.7831,10.35,0.42,3.46,2.0
1758091060.12942,1758091041.89627,0.0,0.0,0.0,-22.23076,-22.34536,-20.45459,10.35,0.42,3.46,2.0
1758091060.14425,1758091041.90627,0.0,0.0,0.0,-27.50197,-17.87628,-15.12609,11.91,0.84,2.42,2.0
1758091060.16126,1758091041.91627,0.0,0.0,0.0,-31.74186,-10.08406,-8.25059,11.91,0.84,2.42,2.0
1758091060.16246,1758091041.92627,0.0,0.0,0.0,-32.20023,-4.52637,-5.32851,13.12,0.32,1.63,2.0
1758091060.1775,1758091041.93627,0.0,0.0,0.0,-31.51268,5.21392,-3.55234,13.12,0.32,1.63,2.0
1758091060.17923,1758091041.94627,0.0,0.0,0.0,-29.27814,25.8404,-2.00535,13.15,-0.54,1.06,2.0
1758091060.19524,1758091041.95627,0.0,0.0,0.0,-27.10091,33.68992,-0.45837,11.87,-1.4,0.99,2.0
1758091060.21152,1758091041.96627,0.0,0.0,0.0,-25.15285,43.77398,-0.11459,11.87,-1.4,0.99,2.0
1758091060.21247,1758091041.97627,0.0,0.0,0.0,-23.0902,50.53488,0.17189,10.19,-1.81,1.07,2.0
1758091060.22741,1758091041.98627,0.0,0.0,0.0,-20.51189,55.92068,0.57296,10.19,-1.81,1.07,2.0
1758091060.22846,1758091041.99627,0.0,0.0,0.0,-18.73572,58.72818,1.14592,8.61,-1.87,0.72,2.0
1758091060.24442,1758091042.00627,0.0,0.0,0.0,-17.93358,59.87409,1.3178,8.61,-1.87,0.72,2.0
1758091060.26028,1758091042.01627,0.0,0.0,0.0,-16.90226,61.24919,1.60428,7.74,-1.64,0.61,2.0
1758091060.26306,1758091042.02627,0.0,0.0,0.0,-15.69904,60.73353,1.60428,6.98,-1.24,0.65,2.0
1758091060.27851,1758091042.03627,0.0,0.0,0.0,-15.69904,59.01466,1.43239,6.98,-1.24,0.65,2.0
1758091060.27948,1758091042.04627,0.0,0.0,0.0,-15.58445,57.75415,1.3751,6.49,-0.84,0.72,2.0
1758091060.29428,1758091042.05627,0.0,0.0,0.0,-15.64175,54.94666,1.03132,6.49,-0.84,0.72,2.0
1758091060.31026,1758091042.06627,0.0,0.0,0.0,-15.29797,50.99325,0.34377,6.35,-0.47,0.62,2.0
1758091060.31341,1758091042.07627,0.0,0.0,0.0,-15.06879,47.61279,-0.57296,6.35,-0.47,0.62,2.0
1758091060.32824,1758091042.08627,0.0,0.0,0.0,-14.38124,44.63341,-0.97403,6.67,-0.25,0.71,2.0
1758091060.32944,1758091042.09627,0.0,0.0,0.0,-13.17803,41.31026,-1.43239,6.67,-0.25,0.71,2.0
1758091060.34456,1758091042.10627,0.0,0.0,0.0,-11.11538,35.58068,-2.63561,7.08,-0.18,0.68,2.0
1758091060.36124,1758091042.11627,0.0,0.0,0.0,-9.4538,31.62727,-3.38045,7.51,-0.33,0.85,2.0
1758091060.36239,1758091042.12627,0.0,0.0,0.0,-7.62034,28.93437,-3.95341,7.51,-0.33,0.85,2.0
1758091060.37802,1758091042.13627,0.0,0.0,0.0,-4.46907,27.67386,-4.35448,7.99,-0.65,0.77,2.0
1758091060.37925,1758091042.14627,0.0,0.0,0.0,-2.06265,26.52795,-4.35448,7.99,-0.65,0.77,2.0
1758091060.39434,1758091042.15627,0.0,0.0,0.0,-0.34377,25.38203,-4.29718,8.26,-1.02,0.54,2.0
1758091060.41228,1758091042.16627,0.0,0.0,0.0,1.03132,23.26209,-4.18259,8.26,-1.02,0.54,2.0
1758091060.41326,1758091042.17627,0.0,0.0,0.0,2.63561,15.35527,-3.89611,8.28,-1.24,0.35,2.0
1758091060.42851,1758091042.18626,0.0,0.0,0.0,3.49504,8.59437,-3.55234,8.33,-1.2,-0.01,2.0
1758091060.43025,1758091042.19626,0.0,0.0,0.0,3.83882,-0.22918,-2.6929,8.33,-1.2,-0.01,2.0
1758091060.44684,1758091042.20626,0.0,0.0,0.0,4.1253,-14.66772,-1.03132,8.58,-1.02,-0.66,2.0
1758091060.44966,1758091042.21626,0.0,0.0,0.0,3.60963,-34.37747,1.43239,8.58,-1.02,-0.66,2.0
1758091060.46607,1758091042.22626,0.0,0.0,0.0,3.55234,-32.14294,7.44845,10.01,-1.24,-0.76,2.0
1758091060.48222,1758091042.23626,0.0,0.0,0.0,2.11994,-18.27736,12.83425,10.01,-1.24,-0.76,2.0
1758091060.48347,1758091042.24626,0.0,0.0,0.0,0.68755,1.94806,17.36062,13.77,-0.99,0.39,2.0
1758091060.52593,1758091042.25626,0.0,0.0,0.0,4.29718,14.9542,21.7151,13.28,-0.8,0.77,2.0
1758091060.52791,1758091042.26626,0.0,0.0,0.0,1.14592,-4.64096,23.20479,13.28,-0.8,0.77,2.0
1758091060.52855,1758091042.27626,0.0,0.0,0.0,1.71887,-33.80451,23.94964,9.14,-1.13,-1.0,2.0
1758091060.53092,1758091042.28626,0.0,0.0,0.0,4.58366,-52.65482,27.38738,9.14,-1.13,-1.0,2.0
1758091060.53135,1758091042.29626,0.0,0.0,0.0,4.69825,-44.23235,30.65324,11.84,-1.9,-1.47,2.0
1758091060.54734,1758091042.30626,0.0,0.0,0.0,3.55234,-37.81522,30.19488,11.84,-1.9,-1.47,2.0
1758091060.5525,1758091042.31626,0.0,0.0,0.0,1.43239,-38.1017,29.9084,12.74,-1.78,-0.83,2.0
1758091060.56825,1758091042.32626,0.0,0.0,0.0,-1.3751,-41.36755,28.476,12.74,-1.78,-0.83,2.0
1758091060.56946,1758091042.33626,0.0,0.0,0.0,-4.92744,-47.95657,29.04896,11.22,-1.79,1.11,2.0
1758091060.58425,1758091042.34626,0.0,0.0,0.0,-5.90147,-53.62885,29.96569,10.98,-2.08,2.24,2.0
1758091060.58868,1758091042.35626,0.0,0.0,0.0,-4.64096,-64.91612,32.6013,10.98,-2.08,2.24,2.0
1758091060.60602,1758091042.36626,0.0,0.0,0.0,-2.06265,-82.50593,41.42485,11.01,-1.41,3.94,2.0
1758091060.6223,1758091042.37626,0.0,0.0,0.0,-0.51566,-84.51128,49.61814,11.01,-1.41,3.94,2.0
1758091060.62347,1758091042.38626,0.0,0.0,0.0,0.45837,-78.03686,56.66553,13.3,0.53,5.81,2.0
1758091060.63824,1758091042.39626,0.0,0.0,0.0,1.3751,-66.635,61.02001,13.3,0.53,5.81,2.0
1758091060.64026,1758091042.40626,0.0,0.0,0.0,3.03668,-43.37291,59.47303,12.42,1.87,4.2,2.0
1758091060.65852,1758091042.41626,0.0,0.0,0.0,4.64096,-27.96034,55.51962,10.49,0.98,3.16,2.0
1758091060.66034,1758091042.42626,0.0,0.0,0.0,6.53172,-16.84496,47.72739,10.49,0.98,3.16,2.0
1758091060.69737,1758091042.43626,0.0,0.0,0.0,8.0787,-11.28727,36.49741,9.83,-0.48,3.04,2.0
1758091060.7002,1758091042.44626,0.0,0.0,0.0,8.136,-0.85944,17.58981,9.83,-0.48,3.04,2.0
1758091060.7008,1758091042.45626,0.0,0.0,0.0,6.13065,9.91217,6.13065,11.48,-1.49,2.19,2.0
1758091060.70394,1758091042.46626,0.0,0.0,0.0,3.26586,23.60586,-3.26586,11.48,-1.49,2.19,2.0
1758091060.71954,1758091042.47626,0.0,0.0,0.0,0.74485,36.32552,-10.25595,12.62,-1.35,0.88,2.0
1758091060.72074,1758091042.48626,0.0,0.0,0.0,-1.60428,50.93595,-17.58981,11.37,-0.47,0.78,2.0
1758091060.73528,1758091042.49626,0.0,0.0,0.0,-1.94806,60.04598,-20.34,11.37,-0.47,0.78,2.0
1758091060.75232,1758091042.50626,0.0,0.0,0.0,-1.77617,66.80688,-21.7724,10.41,0.37,0.94,2.0
1758091060.75326,1758091042.51626,0.0,0.0,0.0,-1.66158,70.41652,-21.7724,10.41,0.37,0.94,2.0
1758091060.76905,1758091042.52626,0.0,0.0,0.0,-1.3751,72.88023,-20.05352,9.53,0.64,1.15,2.0
1758091060.77587,1758091042.53626,0.0,0.0,0.0,-0.68755,73.2813,-18.22006,9.53,0.64,1.15,2.0
1758091060.79289,1758091042.54626,0.0,0.0,0.0,-0.22918,73.05212,-16.21471,9.13,0.4,1.35,2.0
1758091060.79399,1758091042.55626,0.0,0.0,0.0,0.40107,70.6457,-13.69369,9.13,0.4,1.35,2.0
1758091060.8093,1758091042.56626,0.0,0.0,0.0,1.08862,68.41116,-12.71966,8.66,0.06,1.46,2.0
1758091060.81081,1758091042.57626,0.0,0.0,0.0,1.48969,65.54638,-11.91752,8.24,-0.27,1.63,2.0
1758091060.82607,1758091042.58626,0.0,0.0,0.0,2.46372,60.50434,-11.97482,8.24,-0.27,1.63,2.0
1758091060.84414,1758091042.59626,0.0,0.0,0.0,3.83882,50.76406,-12.204,7.54,-0.6,1.53,2.0
1758091060.84746,1758091042.60626,0.0,0.0,0.0,4.64096,42.51347,-12.204,7.54,-0.6,1.53,2.0
1758091060.86218,1758091042.61626,0.0,0.0,0.0,5.09932,34.32018,-11.80293,7.05,-0.86,1.56,2.0
1758091060.86342,1758091042.62626,0.0,0.0,0.0,5.61499,26.18417,-11.17268,7.05,-0.86,1.56,2.0
1758091060.87876,1758091042.63626,0.0,0.0,0.0,5.72958,14.66772,-8.88085,7.08,-0.9,1.56,2.0
1758091060.87981,1758091042.64626,0.0,0.0,0.0,5.78687,7.39116,-6.58902,7.49,-0.79,1.57,2.0
1758091060.89454,1758091042.65626,0.0,0.0,0.0,5.61499,0.11459,-4.98473,7.49,-0.79,1.57,2.0
1758091060.91038,1758091042.66626,0.0,0.0,0.0,5.61499,-6.18794,-3.32316,7.77,-0.6,1.45,2.0
1758091060.91318,1758091042.67626,0.0,0.0,0.0,4.69825,-11.91752,-2.23454,7.77,-0.6,1.45,2.0
1758091060.92864,1758091042.68626,0.0,0.0,0.0,3.95341,-14.83961,-1.94806,8.26,-0.26,1.23,2.0
1758091060.92948,1758091042.69626,0.0,0.0,0.0,2.92208,-17.36062,-2.00535,8.26,-0.26,1.23,2.0
1758091060.94588,1758091042.70626,0.0,0.0,0.0,1.03132,-19.53786,-2.6929,8.77,0.04,0.88,2.0
1758091060.96145,1758091042.71626,0.0,0.0,0.0,-1.48969,-22.97561,-3.89611,9.01,0.11,0.47,2.0
1758091060.96409,1758091042.72626,0.0,0.0,0.0,-3.20856,-26.47065,-4.81285,9.01,0.11,0.47,2.0
1758091060.98005,1758091042.73626,0.0,0.0,0.0,-4.81285,-32.71589,-5.55769,8.77,-0.06,0.2,2.0
1758091060.98287,1758091042.74626,0.0,0.0,0.0,-7.21927,-39.99245,-7.62034,8.77,-0.06,0.2,2.0
1758091060.9986,1758091042.75626,0.0,0.0,0.0,-9.22462,-45.26366,-9.74028,9.0,-0.36,0.04,2.0
1758091060.9995,1758091042.76626,0.0,0.0,0.0,-11.51645,-42.34158,-10.8289,9.0,-0.36,0.04,2.0
1758091061.01456,1758091042.77626,0.0,0.0,0.0,-13.69369,-37.18496,-10.8289,10.52,-0.77,-0.49,2.0
1758091061.03158,1758091042.78626,0.0,0.0,0.0,-17.13144,-27.10091,-10.25595,10.52,-0.77,-0.49,2.0
1758091061.03327,1758091042.79626,0.0,0.0,0.0,-18.44924,-23.26209,-8.65166,11.42,-0.91,-0.49,2.0
1758091061.04856,1758091042.80626,0.0,0.0,0.0,-19.88164,-22.74642,-7.33386,11.06,-0.61,-1.09,2.0
1758091061.04951,1758091042.81626,0.0,0.0,0.0,-21.31403,-27.04361,-6.53172,11.06,-0.61,-1.09,2.0
1758091061.0643,1758091042.82626,0.0,0.0,0.0,-22.97561,-26.47065,-5.90147,10.44,-0.14,-1.58,2.0
1758091061.08266,1758091042.83626,0.0,0.0,0.0,-24.23611,-18.10547,-5.55769,10.44,-0.14,-1.58,2.0
1758091061.08388,1758091042.84626,0.0,0.0,0.0,-25.72581,-7.79223,-5.78687,11.27,0.25,-1.79,2.0
1758091061.10021,1758091042.85626,0.0,0.0,0.0,-26.81443,-0.68755,-6.70361,11.27,0.25,-1.79,2.0
1758091061.10214,1758091042.86626,0.0,0.0,0.0,-25.72581,-1.08862,-7.21927,11.3,0.39,-0.65,2.0
1758091061.11731,1758091042.87626,0.0,0.0,0.0,-23.60586,-7.10468,-7.73493,10.5,-0.05,0.35,2.0
1758091061.11887,1758091042.88626,0.0,0.0,0.0,-20.16812,-17.18874,-8.136,10.5,-0.05,0.35,2.0
1758091061.13535,1758091042.89626,0.0,0.0,0.0,-16.73037,-30.13758,-9.33921,10.33,-0.64,1.63,2.0
1758091061.15259,1758091042.90626,0.0,0.0,0.0,-12.49048,-51.10783,-13.40721,10.33,-0.64,1.63,2.0
1758091061.15351,1758091042.91626,0.0,0.0,0.0,-9.96947,-64.17127,-17.6471,11.41,-1.0,3.25,2.0
1758091061.16832,1758091042.92626,0.0,0.0,0.0,-7.84952,-72.53646,-22.97561,11.41,-1.0,3.25,2.0
1758091061.17145,1758091042.93626,0.0,0.0,0.0,-5.32851,-72.70835,-29.50733,13.24,-1.58,4.73,2.0
1758091061.18739,1758091042.94626,0.0,0.0,0.0,-0.45837,-60.61894,-30.53865,12.89,-1.57,4.57,2.0
1758091061.18836,1758091042.95626,0.0,0.0,0.0,2.00535,-50.13381,-29.56462,12.89,-1.57,4.57,2.0
1758091061.20516,1758091042.96626,0.0,0.0,0.0,2.7502,-41.65404,-27.38738,10.29,-0.69,4.22,2.0
1758091061.22138,1758091042.97626,0.0,0.0,0.0,0.34377,-34.49206,-22.40265,10.29,-0.69,4.22,2.0
1758091061.22652,1758091042.98626,0.0,0.0,0.0,-3.72423,-32.25753,-17.6471,9.34,0.04,3.2,2.0
1758091061.24212,1758091042.99626,0.0,0.0,0.0,-8.25059,-30.36677,-12.08941,9.34,0.04,3.2,2.0
1758091061.24337,1758091043.00626,0.0,0.0,0.0,-11.57375,-25.61122,-6.47442,10.99,0.12,2.48,2.0
1758091061.25949,1758091043.01626,0.0,0.0,0.0,-13.46451,-14.83961,0.34377,10.99,0.12,1.67,2.0
1758091061.26112,1758091043.02626,0.0,0.0,0.0,-13.06344,-3.32316,2.11994,12.8,-0.36,1.67,2.0
1758091061.27639,1758091043.03626,0.0,0.0,0.0,-11.63104,11.28727,2.29183,13.41,-0.92,1.25,2.0
1758091061.29262,1758091043.04626,0.0,0.0,0.0,-8.93814,19.70975,2.29183,13.41,-0.92,1.25,2.0
1758091061.29517,1758091043.05626,0.0,0.0,0.0,-3.83882,38.21629,0.40107,12.3,-1.68,1.34,2.0
1758091061.31034,1758091043.06626,0.0,0.0,0.0,-0.57296,47.03984,-0.57296,12.3,-1.68,1.34,2.0
1758091061.31315,1758091043.07626,0.0,0.0,0.0,3.26586,52.25375,-0.57296,10.71,-1.85,1.21,2.0
1758091061.33175,1758091043.08626,0.0,0.0,0.0,6.53172,54.77477,-0.17189,10.71,-1.85,1.21,2.0
1758091061.33346,1758091043.09626,0.0,0.0,0.0,10.71431,60.73353,1.14592,9.42,-1.84,1.2,2.0
1758091061.34858,1758091043.10626,0.0,0.0,0.0,13.69369,65.54638,2.40642,9.34,-1.69,1.07,2.0
1758091061.34962,1758091043.11626,0.0,0.0,0.0,15.98552,67.66632,4.18259,9.34,-1.69,1.07,2.0
1758091061.36465,1758091043.12626,0.0,0.0,0.0,17.76169,66.11933,5.90147,8.38,-1.38,1.09,2.0
1758091061.38066,1758091043.13626,0.0,0.0,0.0,18.79302,62.28051,7.79223,8.38,-1.38,1.09,2.0
1758091061.38237,1758091043.14626,0.0,0.0,0.0,19.13679,61.65026,8.93814,7.78,-1.0,0.88,2.0
1758091061.39776,1758091043.15626,0.0,0.0,0.0,19.19409,58.84277,8.99544,7.78,-1.0,0.88,2.0
1758091061.39853,1758091043.16626,0.0,0.0,0.0,19.99623,52.25375,9.11003,7.46,-0.74,0.84,2.0
1758091061.4175,1758091043.17626,0.0,0.0,0.0,20.85567,47.49821,8.59437,7.24,-0.6,0.96,2.0
1758091061.41867,1758091043.18626,0.0,0.0,0.0,22.28806,42.97184,8.25059,7.24,-0.6,0.96,2.0
1758091061.43647,1758091043.19626,0.0,0.0,0.0,23.66316,37.52874,7.39116,7.43,-0.58,0.99,2.0
1758091061.45262,1758091043.20626,0.0,0.0,0.0,25.72581,30.59595,6.70361,7.43,-0.58,0.99,2.0
1758091061.4535,1758091043.21626,0.0,0.0,0.0,27.10091,24.92367,6.07335,7.66,-0.63,1.04,2.0
1758091061.46861,1758091043.22626,0.0,0.0,0.0,28.99167,19.99623,5.72958,7.66,-0.63,1.04,2.0
1758091061.46959,1758091043.23626,0.0,0.0,0.0,30.82513,18.22006,5.61499,7.83,-0.72,0.93,2.0
1758091061.48462,1758091043.24626,0.0,0.0,0.0,33.74722,16.73037,6.24524,8.25,-0.88,0.66,2.0
1758091061.50356,1758091043.25626,0.0,0.0,0.0,35.40879,15.12609,6.41713,8.25,-0.88,0.66,2.0
1758091061.50709,1758091043.26626,0.0,0.0,0.0,37.01308,13.75099,6.70361,8.17,-1.14,0.48,2.0
1758091061.52313,1758091043.27626,0.0,0.0,0.0,38.90384,10.65701,7.10468,8.17,-1.14,0.48,2.0
1758091061.52587,1758091043.28626,0.0,0.0,0.0,42.34158,-0.68755,8.59437,7.98,-1.5,0.26,2.0
1758091061.5432,1758091043.29626,0.0,0.0,0.0,44.9199,-15.24068,9.85487,7.98,-1.5,0.26,2.0
1758091061.5477,1758091043.30626,0.0,0.0,0.0,46.1804,-34.09099,11.86023,7.62,-1.73,-0.44,2.0
1758091061.56351,1758091043.31626,0.0,0.0,0.0,46.52417,-46.52417,13.69369,7.62,-1.73,-0.44,2.0
1758091061.56589,1758091043.32626,0.0,0.0,0.0,46.75336,-28.24682,21.48592,9.58,-1.77,-0.59,2.0
1758091061.58151,1758091043.33626,0.0,0.0,0.0,46.98254,-13.5791,25.89769,12.5,-1.57,0.06,2.0
1758091061.58256,1758091043.34626,0.0,0.0,0.0,46.00851,-4.23989,27.73116,12.5,-1.57,0.06,2.0
1758091061.59765,1758091043.35626,0.0,0.0,0.0,43.88857,-1.83346,30.02299,11.56,-1.56,0.54,2.0
1758091061.59857,1758091043.36626,0.0,0.0,0.0,42.68536,-10.02676,28.87707,11.56,-1.56,0.54,2.0
1758091061.61432,1758091043.37626,0.0,0.0,0.0,42.62806,-17.87628,28.24682,9.93,-1.75,-0.32,2.0
1758091061.63037,1758091043.38626,0.0,0.0,0.0,43.88857,-31.91375,26.06958,9.93,-1.75,-0.32,2.0
1758091061.63316,1758091043.39626,0.0,0.0,0.0,48.30034,-41.71133,25.43933,8.95,-2.16,-1.83,2.0
1758091061.64995,1758091043.40626,0.0,0.0,0.0,51.16513,-39.53409,24.86637,10.71,-2.18,-0.55,2.0
1758091061.65145,1758091043.41626,0.0,0.0,0.0,54.02992,-39.70598,25.8404,10.71,-2.18,-0.55,2.0
1758091061.66711,1758091043.42626,0.0,0.0,0.0,56.32175,-43.4875,28.07493,11.48,-1.83,1.18,2.0
1758091061.6683,1758091043.43626,0.0,0.0,0.0,59.01466,-57.86874,36.61201,11.48,-1.83,1.18,2.0
1758091061.68599,1758091043.44626,0.0,0.0,0.0,60.96271,-71.84892,45.89392,12.15,-1.39,3.99,2.0
1758091061.69301,1758091043.45626,0.0,0.0,0.0,62.28051,-81.87567,56.60823,12.15,-1.39,3.99,2.0
1758091061.71238,1758091043.46626,0.0,0.0,0.0,62.68159,-83.82372,66.74959,14.33,0.32,4.7,2.0
1758091061.71417,1758091043.47626,0.0,0.0,0.0,61.53567,-75.00018,76.94823,14.24,2.71,3.23,2.0
1758091061.73025,1758091043.48626,0.0,0.0,0.0,60.67623,-62.22322,78.20874,14.24,2.71,3.23,2.0
1758091061.73326,1758091043.49626,0.0,0.0,0.0,60.50434,-51.27972,76.20339,10.09,2.18,2.34,2.0
1758091061.74868,1758091043.50626,0.0,0.0,0.0,61.1346,-46.52417,70.6457,10.09,2.18,2.34,2.0
1758091061.74959,1758091043.51626,0.0,0.0,0.0,64.62964,-43.14373,55.34772,7.01,0.6,1.91,2.0
1758091061.766,1758091043.52626,0.0,0.0,0.0,68.52576,-29.8511,39.82057,7.01,0.6,1.91,2.0
1758091061.78231,1758091043.53626,0.0,0.0,0.0,75.91692,-9.05273,25.15285,9.67,-0.86,2.07,2.0
1758091061.786,1758091043.54626,0.0,0.0,0.0,82.90699,4.58366,5.84417,9.67,-0.86,2.07,2.0
1758091061.80223,1758091043.55626,0.0,0.0,0.0,89.6679,15.12609,-2.63561,12.67,-1.62,1.6,2.0
1758091061.83217,1758091043.56626,0.0,0.0,0.0,90.24085,26.01229,-8.88085,13.19,-1.26,0.7,2.0
1758091061.83261,1758091043.57626,0.0,0.0,0.0,88.40739,39.4768,-12.71966,13.19,-1.26,0.7,2.0
1758091061.83388,1758091043.58626,0.0,0.0,0.0,83.76643,51.73809,-12.77696,12.31,-0.32,-0.19,2.0
1758091061.83452,1758091043.59626,0.0,0.0,0.0,80.67246,55.51962,-11.00079,12.31,-0.32,-0.19,2.0
1758091061.85158,1758091043.60626,0.0,0.0,0.0,78.38063,57.75415,-8.59437,10.41,0.32,0.19,2.0
1758091061.85238,1758091043.61626,0.0,0.0,0.0,77.06283,59.12925,-5.61499,10.41,0.32,0.19,2.0
1758091061.86738,1758091043.62626,0.0,0.0,0.0,76.43258,58.26981,-1.77617,9.69,0.66,0.53,2.0
1758091061.86865,1758091043.63626,0.0,0.0,0.0,77.06283,54.02992,0.0,9.05,0.66,1.04,2.0
1758091061.88437,1758091043.64626,0.0,0.0,0.0,78.03686,49.27437,1.66158,9.05,0.66,1.04,2.0
1758091061.90215,1758091043.65626,0.0,0.0,0.0,79.06818,46.40959,2.7502,8.96,0.48,1.23,2.0
1758091061.9045,1758091043.66626,0.0,0.0,0.0,80.44328,43.88857,2.63561,8.96,0.48,1.23,2.0
1758091061.92047,1758091043.67626,0.0,0.0,0.0,80.67246,41.48215,2.11994,9.06,0.32,1.34,2.0
1758091061.92137,1758091043.68626,0.0,0.0,0.0,80.72976,38.38818,0.97403,9.06,0.32,1.34,2.0
1758091061.93665,1758091043.69626,0.0,0.0,0.0,80.44328,34.89313,-0.0573,8.72,0.11,1.24,2.0
1758091061.93872,1758091043.70626,0.0,0.0,0.0,79.18277,29.10626,-1.14592,8.51,-0.03,1.07,2.0
1758091061.95645,1758091043.71626,0.0,0.0,0.0,78.09415,24.80907,-1.08862,8.51,-0.03,1.07,2.0
1758091061.97328,1758091043.72626,0.0,0.0,0.0,76.77635,20.34,-0.80214,8.47,0.07,0.98,2.0
1758091061.97608,1758091043.73626,0.0,0.0,0.0,75.28666,15.41257,0.0573,8.47,0.07,0.98,2.0
1758091061.99222,1758091043.74626,0.0,0.0,0.0,72.36457,8.88085,1.20321,8.64,0.37,0.95,2.0
1758091061.99814,1758091043.75626,0.0,0.0,0.0,69.61437,3.55234,1.08862,8.64,0.37,0.95,2.0
1758091061.99872,1758091043.76626,0.0,0.0,0.0,66.80688,0.45837,0.17189,8.64,0.65,0.82,2.0
1758091062.02319,1758091043.77626,0.0,0.0,0.0,61.87944,-1.60428,-0.68755,8.64,0.65,0.82,2.0
1758091062.02678,1758091043.78626,0.0,0.0,0.0,58.3844,-3.32316,-2.06265,8.88,0.84,0.58,2.0
1758091062.05354,1758091043.79626,0.0,0.0,0.0,54.48829,-5.72958,-2.97938,8.8,0.94,0.36,2.0
1758091062.0564,1758091043.80626,0.0,0.0,0.0,50.53488,-8.59437,-3.66693,8.8,0.94,0.36,2.0
1758091062.05753,1758091043.81626,0.0,0.0,0.0,43.94586,-15.92823,-4.35448,8.59,0.91,0.02,2.0
1758091062.05876,1758091043.82626,0.0,0.0,0.0,39.4768,-22.63183,-4.52637,8.59,0.91,0.02,2.0
1758091062.08027,1758091043.83626,0.0,0.0,0.0,34.95043,-30.25217,-4.35448,8.3,0.83,-0.39,2.0
1758091062.0846,1758091043.84626,0.0,0.0,0.0,30.30947,-37.35685,-4.64096,8.3,0.83,-0.39,2.0
1758091062.10019,1758091043.85626,0.0,0.0,0.0,23.66316,-46.2377,-5.50039,8.56,0.75,-0.5,2.0
1758091062.10137,1758091043.86626,0.0,0.0,0.0,19.19409,-47.03984,-6.13065,9.71,0.72,-0.39,2.0
1758091062.11646,1758091043.87626,0.0,0.0,0.0,10.71431,-36.89849,-7.50575,9.71,0.72,-0.39,2.0
1758091062.1184,1758091043.88626,0.0,0.0,0.0,3.38045,-21.7151,-8.65166,12.18,1.42,0.26,2.0
1758091062.13794,1758091043.89626,0.0,0.0,0.0,-4.92744,-8.99544,-11.34457,12.18,1.42,0.26,2.0
1758091062.16158,1758091043.90626,0.0,0.0,0.0,-9.5684,-14.72501,-11.80293,11.05,1.56,-0.04,2.0
1758091062.16255,1758091043.91626,0.0,0.0,0.0,-15.58445,-22.86102,-14.49583,11.05,1.56,-0.04,2.0
1758091062.16371,1758091043.92626,0.0,0.0,0.0,-20.3973,-23.83505,-16.84496,9.78,1.63,-0.42,2.0
1758091062.17871,1758091043.93626,0.0,0.0,0.0,-26.01229,-18.56383,-17.99088,11.06,1.35,0.09,2.0
1758091062.17964,1758091043.94626,0.0,0.0,0.0,-27.61657,-20.97026,-17.18874,11.06,1.35,0.09,2.0
1758091062.19445,1758091043.95626,0.0,0.0,0.0,-26.47065,-28.41871,-16.50119,10.77,0.86,2.7,2.0
1758091062.21044,1758091043.96626,0.0,0.0,0.0,-19.76705,-43.4875,-19.53786,10.77,0.86,2.7,2.0
1758091062.21162,1758091043.97626,0.0,0.0,0.0,-13.98017,-68.92683,-25.21014,11.41,0.2,4.28,2.0
1758091062.22755,1758091043.98626,0.0,0.0,0.0,-5.72958,-75.17207,-30.65324,11.41,0.2,4.28,2.0
1758091062.22843,1758091043.99626,0.0,0.0,0.0,-0.11459,-74.42722,-36.32552,13.66,-1.29,4.2,2.0
1758091062.24597,1758091044.00626,0.0,0.0,0.0,7.62034,-59.98868,-37.12767,13.66,-1.29,4.2,2.0
1758091062.26269,1758091044.01626,0.0,0.0,0.0,10.59972,-49.61814,-34.09099,12.47,-1.71,4.24,2.0
1758091062.26378,1758091044.02626,0.0,0.0,0.0,10.94349,-42.91454,-30.30947,9.66,-1.34,3.82,2.0
1758091062.2787,1758091044.03626,0.0,0.0,0.0,7.62034,-37.98711,-26.52795,9.66,-1.34,3.82,2.0
1758091062.28045,1758091044.04626,0.0,0.0,0.0,-0.40107,-29.10626,-21.14215,9.07,-0.69,2.68,2.0
1758091062.29564,1758091044.05626,0.0,0.0,0.0,-6.70361,-21.08485,-18.22006,9.07,-0.69,2.68,2.0
1758091062.31219,1758091044.06626,0.0,0.0,0.0,-13.17803,-13.00614,-16.10011,10.8,-0.09,2.21,2.0
1758091062.31338,1758091044.07626,0.0,0.0,0.0,-17.99088,-4.23989,-14.03747,10.8,-0.09,2.21,2.0
1758091062.32874,1758091044.08626,0.0,0.0,0.0,-25.09555,8.59437,-12.14671,12.19,0.59,1.94,2.0
1758091062.33361,1758091044.09626,0.0,0.0,0.0,-29.62192,17.18874,-12.08941,12.46,1.09,1.75,2.0
1758091062.34871,1758091044.10626,0.0,0.0,0.0,-32.6013,26.69983,-12.60507,12.46,1.09,1.75,2.0
1758091062.34965,1758091044.11626,0.0,0.0,0.0,-34.14828,32.77319,-11.63104,11.82,0.81,1.79,2.0
1758091062.36601,1758091044.12626,0.0,0.0,0.0,-36.49741,46.81066,-12.77696,11.82,0.81,1.79,2.0
1758091062.38222,1758091044.13626,0.0,0.0,0.0,-37.98711,55.00395,-13.69369,11.13,-0.12,1.65,2.0
1758091062.3845,1758091044.14626,0.0,0.0,0.0,-38.90384,60.16057,-14.32395,11.13,-0.12,1.65,2.0
1758091062.40022,1758091044.15626,0.0,0.0,0.0,-40.04975,62.96807,-14.78231,9.93,-0.84,1.41,2.0
1758091062.40624,1758091044.16626,0.0,0.0,0.0,-41.25296,65.03072,-14.78231,9.14,-1.18,1.36,2.0
1758091062.42138,1758091044.17626,0.0,0.0,0.0,-41.59674,67.9528,-14.66772,9.14,-1.18,1.36,2.0
1758091062.42261,1758091044.18626,0.0,0.0,0.0,-41.76862,70.18733,-14.03747,9.04,-1.19,1.47,2.0
1758091062.43732,1758091044.19626,0.0,0.0,0.0,-41.13837,71.27596,-12.89155,9.04,-1.19,1.47,2.0
1758091062.43862,1758091044.20626,0.0,0.0,0.0,-40.50812,70.53111,-12.2613,8.73,-0.98,1.64,2.0
1758091062.45521,1758091044.21626,0.0,0.0,0.0,-39.82057,68.92683,-11.63104,8.73,-0.98,1.64,2.0
1758091062.4723,1758091044.22626,0.0,0.0,0.0,-38.90384,66.17663,-11.00079,8.44,-0.59,1.61,2.0
1758091062.47414,1758091044.23626,0.0,0.0,0.0,-37.98711,59.24384,-10.31324,8.23,-0.59,1.57,2.0
1758091062.49023,1758091044.24626,0.0,0.0,0.0,-37.52874,53.17049,-9.74028,8.23,-0.23,1.57,2.0
1758091062.49296,1758091044.25626,0.0,0.0,0.0,-37.18496,46.06581,-9.22462,8.03,-0.06,1.3,2.0
1758091062.50871,1758091044.26626,0.0,0.0,0.0,-37.18496,38.38818,-8.93814,8.03,-0.06,1.3,2.0
1758091062.50963,1758091044.27626,0.0,0.0,0.0,-37.52874,30.65324,-9.22462,7.99,-0.1,1.05,2.0
1758091062.52604,1758091044.28626,0.0,0.0,0.0,-37.58603,26.52795,-9.28192,7.99,-0.1,1.05,2.0
1758091062.52876,1758091044.29626,0.0,0.0,0.0,-37.35685,20.16812,-9.39651,8.12,-0.34,0.99,2.0
1758091062.54536,1758091044.30626,0.0,0.0,0.0,-37.52874,14.32395,-10.48513,8.12,-0.34,0.99,2.0
1758091062.56155,1758091044.31626,0.0,0.0,0.0,-38.27358,7.62034,-12.89155,7.95,-0.55,0.72,2.0
1758091062.56266,1758091044.32626,0.0,0.0,0.0,-38.78925,4.35448,-15.06879,8.11,-0.6,0.64,2.0
1758091062.57768,1758091044.33626,0.0,0.0,0.0,-39.13302,1.08862,-17.30333,8.11,-0.6,0.64,2.0
1758091062.57866,1758091044.34626,0.0,0.0,0.0,-39.13302,-3.32316,-19.36597,8.08,-0.64,0.78,2.0
1758091062.59601,1758091044.35626,0.0,0.0,0.0,-38.50277,-8.65166,-21.31403,8.08,-0.64,0.78,2.0
1758091062.61466,1758091044.36626,0.0,0.0,0.0,-38.21629,-10.94349,-22.05888,8.2,-0.86,0.45,2.0
1758091062.61846,1758091044.37626,0.0,0.0,0.0,-38.15899,-12.60507,-21.88699,8.2,-0.86,0.45,2.0
1758091062.62009,1758091044.38626,0.0,0.0,0.0,-38.38818,-13.80828,-19.70975,8.54,-1.15,0.56,2.0
1758091062.63569,1758091044.39626,0.0,0.0,0.0,-39.07573,-11.74564,-17.99088,9.21,-1.41,0.4,2.0
1758091062.65168,1758091044.40626,0.0,0.0,0.0,-39.76327,-10.65701,-15.58445,9.21,-1.41,0.4,2.0
1758091062.65344,1758091044.41626,0.0,0.0,0.0,-40.7373,-8.88085,-13.5791,9.62,-1.5,0.43,2.0
1758091062.66854,1758091044.42626,0.0,0.0,0.0,-41.25296,-8.59437,-10.37054,9.62,-1.5,0.43,2.0
1758091062.66967,1758091044.43626,0.0,0.0,0.0,-41.02378,-17.58981,-9.33921,9.71,-1.51,0.41,2.0
1758091062.68451,1758091044.44626,0.0,0.0,0.0,-39.82057,-36.61201,-7.44845,9.71,-1.51,0.41,2.0
1758091062.70258,1758091044.45626,0.0,0.0,0.0,-35.2369,-60.90542,-2.23454,7.83,-1.58,-0.23,2.0
1758091062.70422,1758091044.46626,0.0,0.0,0.0,-31.28349,-59.47303,4.69825,10.63,-2.25,-0.34,2.0
1758091062.72029,1758091044.47626,0.0,0.0,0.0,-30.36677,-50.01921,6.13065,10.63,-2.25,-0.34,2.0
1758091062.72141,1758091044.48626,0.0,0.0,0.0,-28.59059,-46.1231,7.16197,11.06,-2.63,-0.25,2.0
1758091062.73804,1758091044.49626,0.0,0.0,0.0,-27.96034,-43.31561,6.58902,11.06,-2.63,-0.25,2.0
1758091062.73917,1758091044.50626,0.0,0.0,0.0,-28.76248,-33.05967,4.46907,11.12,-2.88,0.33,2.0
1758091062.75445,1758091044.51626,0.0,0.0,0.0,-30.13758,-27.44468,3.32316,11.12,-2.88,0.33,2.0
1758091062.7707,1758091044.52626,0.0,0.0,0.0,-31.51268,-27.50197,3.20856,11.68,-2.11,0.23,2.0
1758091062.77167,1758091044.53626,0.0,0.0,0.0,-33.23156,-32.54401,3.83882,11.68,-2.11,0.23,2.0
1758091062.78673,1758091044.54626,0.0,0.0,0.0,-34.14828,-48.9306,8.70896,10.87,-1.68,1.33,2.0
1758091062.80246,1758091044.55626,0.0,0.0,0.0,-33.40344,-63.59832,15.06879,11.16,-2.0,3.35,2.0
1758091062.80367,1758091044.56626,0.0,0.0,0.0,-32.54401,-74.94289,25.09555,11.16,-2.0,3.35,2.0
1758091062.81846,1758091044.57626,0.0,0.0,0.0,-33.00237,-82.39134,42.39888,13.85,-0.98,5.23,2.0
1758091062.81966,1758091044.58626,0.0,0.0,0.0,-33.74722,-82.27674,53.80074,13.85,-0.98,5.23,2.0
1758091062.83446,1758091044.59626,0.0,0.0,0.0,-35.86716,-73.10942,61.1346,15.12,1.7,4.69,2.0
1758091062.85043,1758091044.60626,0.0,0.0,0.0,-37.92981,-60.61894,62.62429,15.12,1.7,4.69,2.0
1758091062.85166,1758091044.61626,0.0,0.0,0.0,-41.48215,-41.76862,55.97798,11.9,2.55,3.01,2.0
1758091062.86639,1758091044.62626,0.0,0.0,0.0,-42.62806,-27.33009,47.26902,8.84,1.26,2.55,2.0
1758091062.8827,1758091044.63626,0.0,0.0,0.0,-42.39888,-14.72501,36.38282,8.84,1.26,2.55,2.0
1758091062.88372,1758091044.64626,0.0,0.0,0.0,-41.13837,-4.81285,24.00693,9.02,-0.14,3.16,2.0
1758091062.89873,1758091044.65626,0.0,0.0,0.0,-39.19032,7.33386,6.13065,9.02,-0.14,3.16,2.0
1758091062.89968,1758091044.66626,0.0,0.0,0.0,-38.56006,15.41257,-3.95341,10.98,-1.12,2.63,2.0
1758091062.91473,1758091044.67626,0.0,0.0,0.0,-38.56006,23.37668,-11.34457,10.98,-1.12,2.63,2.0
1758091062.93049,1758091044.68626,0.0,0.0,0.0,-38.78925,31.85646,-15.92823,12.05,-1.24,1.38,2.0
1758091062.93202,1758091044.69626,0.0,0.0,0.0,-39.70598,41.94051,-18.33465,11.62,-0.61,1.44,2.0
1758091062.94678,1758091044.70626,0.0,0.0,0.0,-40.33623,49.15978,-19.19409,11.62,-0.61,1.44,2.0
1758091062.96328,1758091044.71626,0.0,0.0,0.0,-41.02378,55.57691,-19.19409,10.65,0.23,1.4,2.0
1758091062.96449,1758091044.72626,0.0,0.0,0.0,-41.88322,59.70221,-19.13679,10.65,0.23,1.4,2.0
1758091062.98024,1758091044.73626,0.0,0.0,0.0,-43.60209,61.87944,-18.33465,9.36,0.78,1.28,2.0
1758091062.98225,1758091044.74626,0.0,0.0,0.0,-44.28964,61.36378,-17.30333,9.36,0.78,1.28,2.0
1758091062.9975,1758091044.75626,0.0,0.0,0.0,-44.8053,60.73353,-16.67307,8.73,0.8,1.43,2.0
1758091062.99868,1758091044.76626,0.0,0.0,0.0,-44.9199,56.89471,-15.92823,8.73,0.8,1.43,2.0
1758091063.01873,1758091044.77626,0.0,0.0,0.0,-44.9199,49.15978,-15.64175,8.12,0.57,1.55,2.0
1758091063.01966,1758091044.78626,0.0,0.0,0.0,-44.46153,43.60209,-15.75634,7.81,0.4,1.57,2.0
1758091063.03463,1758091044.79626,0.0,0.0,0.0,-44.23235,36.95578,-15.87093,7.81,0.4,1.57,2.0
1758091063.05046,1758091044.80626,0.0,0.0,0.0,-43.83128,27.44468,-16.84496,7.83,0.23,1.45,2.0
1758091063.0521,1758091044.81626,0.0,0.0,0.0,-43.20102,20.74107,-17.24603,7.83,0.23,1.45,2.0
1758091063.06682,1758091044.82626,0.0,0.0,0.0,-42.85724,13.98017,-17.58981,8.05,0.0,1.24,2.0
1758091063.08247,1758091044.83626,0.0,0.0,0.0,-42.57077,8.30789,-17.76169,8.05,0.0,1.24,2.0
1758091063.08369,1758091044.84626,0.0,0.0,0.0,-42.57077,0.80214,-16.95955,8.37,-0.22,1.22,2.0
1758091063.09849,1758091044.85626,0.0,0.0,0.0,-42.74266,-4.18259,-16.50119,8.7,-0.39,1.11,2.0
1758091063.10357,1758091044.86626,0.0,0.0,0.0,-42.68536,-7.21927,-15.98552,8.7,-0.39,1.11,2.0
1758091063.11875,1758091044.87626,0.0,0.0,0.0,-42.28429,-8.65166,-15.24068,9.17,-0.46,1.02,2.0
1758091063.11961,1758091044.88626,0.0,0.0,0.0,-41.59674,-8.25059,-13.5791,9.17,-0.46,1.02,2.0
1758091063.13529,1758091044.89626,0.0,0.0,0.0,-41.13837,-8.47978,-12.71966,9.28,-0.39,0.83,2.0
1758091063.15256,1758091044.90626,0.0,0.0,0.0,-40.7946,-9.85487,-11.97482,9.28,-0.39,0.83,2.0
1758091063.15429,1758091044.91626,0.0,0.0,0.0,-40.50812,-11.57375,-11.45916,8.96,-0.27,0.6,2.0
1758091063.17029,1758091044.92626,0.0,0.0,0.0,-40.68,-16.50119,-10.8862,8.85,-0.21,0.21,2.0
1758091063.1734,1758091044.93626,0.0,0.0,0.0,-41.02378,-20.45459,-10.65701,8.85,-0.21,0.21,2.0
1758091063.18878,1758091044.94626,0.0,0.0,0.0,-41.36755,-23.83505,-10.59972,9.05,-0.16,-0.23,2.0
1758091063.1897,1758091044.95626,0.0,0.0,0.0,-41.08107,-27.38738,-11.11538,9.05,-0.16,-0.23,2.0
1758091063.20451,1758091044.96626,0.0,0.0,0.0,-39.99245,-28.64789,-11.97482,9.39,-0.15,-0.42,2.0
1758091063.22149,1758091044.97626,0.0,0.0,0.0,-39.70598,-26.75713,-12.204,9.39,-0.15,-0.42,2.0
1758091063.2227,1758091044.98626,0.0,0.0,0.0,-39.53409,-23.0329,-12.08941,10.09,-0.29,-0.54,2.0
1758091063.23758,1758091044.99626,0.0,0.0,0.0,-41.31026,-17.99088,-10.71431,10.09,-0.29,-0.54,2.0
1758091063.2386,1758091045.00626,0.0,0.0,0.0,-41.59674,-19.42327,-9.74028,10.74,-0.41,-0.67,2.0
1758091063.25552,1758091045.01626,0.0,0.0,0.0,-43.14373,-20.62648,-11.17268,10.74,-0.31,-0.85,2.0
1758091063.27227,1758091045.02626,0.0,0.0,0.0,-44.23235,-20.97026,-12.54778,10.74,-0.31,-0.85,2.0
1758091063.27429,1758091045.03626,0.0,0.0,0.0,-46.52417,-14.9542,-13.80828,11.29,0.14,-1.36,2.0
1758091063.28973,1758091045.04626,0.0,0.0,0.0,-47.67009,-8.70896,-13.12073,11.29,0.14,-1.36,2.0
1758091063.29092,1758091045.05626,0.0,0.0,0.0,-48.52953,-2.29183,-11.22997,11.71,0.5,-1.36,2.0
1758091063.30571,1758091045.06626,0.0,0.0,0.0,-48.8733,2.23454,-9.05273,11.71,0.5,-1.36,2.0
1758091063.32227,1758091045.07626,0.0,0.0,0.0,-47.72739,0.51566,-6.58902,11.25,0.44,-0.68,2.0
1758091063.3234,1758091045.08626,0.0,0.0,0.0,-45.89392,-4.87014,-6.13065,11.05,-0.07,0.23,2.0
1758091063.33847,1758091045.09626,0.0,0.0,0.0,-43.54479,-14.72501,-7.62034,11.05,-0.07,0.23,2.0
1758091063.33967,1758091045.10626,0.0,0.0,0.0,-40.45082,-26.64254,-11.17268,11.91,-0.86,1.97,2.0
1758091063.35613,1758091045.11626,0.0,0.0,0.0,-35.06502,-45.49285,-20.05352,11.91,-0.86,1.97,2.0
1758091063.35884,1758091045.12626,0.0,0.0,0.0,-31.45539,-53.51426,-27.33009,13.58,-1.69,3.0,2.0
1758091063.37447,1758091045.13626,0.0,0.0,0.0,-28.07493,-55.11855,-32.77319,13.58,-1.69,3.0,2.0
1758091063.3905,1758091045.14626,0.0,0.0,0.0,-24.12152,-52.13916,-34.77854,13.53,-2.4,2.73,2.0
1758091063.39281,1758091045.15626,0.0,0.0,0.0,-20.85567,-42.05511,-33.74722,11.4,-1.78,3.35,2.0
1758091063.4077,1758091045.16626,0.0,0.0,0.0,-21.48592,-36.89849,-30.30947,11.4,-1.78,3.35,2.0
1758091063.40871,1758091045.17626,0.0,0.0,0.0,-24.4653,-34.49206,-26.69983,9.81,-0.73,3.56,2.0
1758091063.4261,1758091045.18626,0.0,0.0,0.0,-31.2262,-33.63263,-21.94428,9.81,-0.73,3.56,2.0
1758091063.4425,1758091045.19626,0.0,0.0,0.0,-36.49741,-32.08564,-20.34,9.56,-0.04,3.54,2.0
1758091063.4437,1758091045.20626,0.0,0.0,0.0,-41.25296,-25.7831,-19.19409,9.56,-0.04,3.54,2.0
1758091063.4585,1758091045.21626,0.0,0.0,0.0,-45.26366,-17.76169,-17.99088,11.17,0.22,2.46,2.0
1758091063.45971,1758091045.22626,0.0,0.0,0.0,-48.01387,-10.71431,-14.78231,11.17,0.22,2.46,2.0
1758091063.47439,1758091045.23626,0.0,0.0,0.0,-47.49821,-4.23989,-12.49048,11.88,-0.19,2.19,2.0
1758091063.49052,1758091045.24626,0.0,0.0,0.0,-45.14908,5.32851,-10.54242,12.01,-0.93,1.72,2.0
1758091063.49269,1758091045.25626,0.0,0.0,0.0,-41.31026,15.0115,-7.39116,12.01,-0.93,1.72,2.0
1758091063.50759,1758091045.26626,0.0,0.0,0.0,-34.43476,32.42941,-3.09397,11.45,-1.8,1.28,2.0
1758091063.50947,1758091045.27626,0.0,0.0,0.0,-29.96569,40.7373,-0.68755,11.45,-1.8,1.28,2.0
1758091063.52551,1758091045.28626,0.0,0.0,0.0,-25.43933,46.46688,1.77617,10.12,-2.27,1.16,2.0
1758091063.54252,1758091045.29626,0.0,0.0,0.0,-21.88699,51.39432,3.38045,10.12,-2.27,1.16,2.0
1758091063.54509,1758091045.30626,0.0,0.0,0.0,-17.81899,56.49364,5.15662,9.19,-2.32,0.87,2.0
1758091063.5615,1758091045.31626,0.0,0.0,0.0,-15.98552,59.01466,6.07335,8.67,-1.98,0.83,2.0
1758091063.56361,1758091045.32626,0.0,0.0,0.0,-14.38124,59.41573,6.70361,8.67,-1.98,0.83,2.0
1758091063.57851,1758091045.33626,0.0,0.0,0.0,-13.46451,58.84277,6.8182,8.1,-1.46,0.73,2.0
1758091063.58051,1758091045.34626,0.0,0.0,0.0,-12.60507,58.09792,6.70361,8.1,-1.46,0.73,2.0
1758091063.5957,1758091045.35626,0.0,0.0,0.0,-12.37589,56.78012,6.87549,7.62,-1.02,0.78,2.0
1758091063.61252,1758091045.36626,0.0,0.0,0.0,-12.14671,54.60288,6.8182,7.62,-1.02,0.78,2.0
1758091063.61366,1758091045.37626,0.0,0.0,0.0,-11.80293,52.9986,6.99009,7.4,-0.68,0.81,2.0
1758091063.62877,1758091045.38626,0.0,0.0,0.0,-11.22997,48.70141,6.47442,7.53,-0.45,0.84,2.0
1758091063.62965,1758091045.39626,0.0,0.0,0.0,-10.08406,44.63341,6.41713,7.53,-0.45,0.84,2.0
1758091063.64454,1758091045.40626,0.0,0.0,0.0,-8.76626,40.33623,5.95876,7.71,-0.45,0.92,2.0
1758091063.66161,1758091045.41626,0.0,0.0,0.0,-6.13065,34.0337,5.4431,7.71,-0.45,0.92,2.0
1758091063.66343,1758091045.42626,0.0,0.0,0.0,-3.95341,29.10626,4.69825,7.96,-0.66,1.06,2.0
1758091063.67852,1758091045.43626,0.0,0.0,0.0,-1.43239,25.09555,4.18259,7.96,-0.66,1.06,2.0
1758091063.68131,1758091045.44626,0.0,0.0,0.0,0.97403,20.85567,3.66693,8.16,-1.05,1.04,2.0
1758091063.69876,1758091045.45626,0.0,0.0,0.0,4.23989,16.38659,2.86479,8.36,-1.05,0.82,2.0
1758091063.69964,1758091045.46626,0.0,0.0,0.0,6.13065,17.18874,2.29183,8.36,-1.36,0.82,2.0
1758091063.7145,1758091045.47626,0.0,0.0,0.0,7.73493,18.27736,1.66158,8.85,-1.4,0.74,2.0
1758091063.7305,1758091045.48626,0.0,0.0,0.0,9.22462,17.81899,0.97403,8.85,-1.4,0.74,2.0
1758091063.73169,1758091045.49626,0.0,0.0,0.0,11.28727,12.54778,0.22918,8.7,-1.22,0.49,2.0
1758091063.74652,1758091045.50626,0.0,0.0,0.0,12.71966,5.4431,-0.17189,8.7,-1.22,0.49,2.0
1758091063.76249,1758091045.51626,0.0,0.0,0.0,13.5791,-3.55234,-0.85944,8.35,-1.09,-0.11,2.0
1758091063.76385,1758091045.52626,0.0,0.0,0.0,14.83961,-9.91217,-1.60428,8.35,-1.09,-0.11,2.0
1758091063.77838,1758091045.53626,0.0,0.0,0.0,15.58445,-11.97482,0.11459,9.0,-1.14,-0.75,2.0
1758091063.77961,1758091045.54626,0.0,0.0,0.0,15.58445,-13.69369,5.27121,10.67,-1.32,-0.11,2.0
1758091063.79474,1758091045.55626,0.0,0.0,0.0,13.23533,-1.20321,8.0787,10.67,-1.32,-0.11,2.0
1758091063.81074,1758091045.56626,0.0,0.0,0.0,10.48513,9.05273,13.86558,13.2,-1.17,1.2,2.0
1758091063.81246,1758091045.57626,0.0,0.0,0.0,7.50575,-7.67763,16.73037,13.2,-1.17,1.2,2.0
1758091063.82775,1758091045.58626,0.0,0.0,0.0,7.44845,-46.86795,19.76705,9.76,-1.17,0.36,2.0
1758091063.82866,1758091045.59626,0.0,0.0,0.0,11.22997,-77.86497,26.75713,9.76,-1.17,0.36,2.0
1758091063.84447,1758091045.60626,0.0,0.0,0.0,9.96947,-67.66632,29.27814,9.42,-1.57,-1.74,2.0
1758091063.86074,1758091045.61626,0.0,0.0,0.0,8.70896,-52.76942,28.93437,13.02,-1.41,-1.01,2.0
1758091063.86173,1758091045.62626,0.0,0.0,0.0,5.27121,-45.26366,26.18417,13.02,-1.41,-1.01,2.0
1758091063.87678,1758091045.63626,0.0,0.0,0.0,0.85944,-43.83128,23.66316,11.47,-0.86,-0.15,2.0
1758091063.87848,1758091045.64626,0.0,0.0,0.0,-7.33386,-45.49285,20.45459,11.47,-0.86,-0.15,2.0
1758091063.89549,1758091045.65626,0.0,0.0,0.0,-11.17268,-51.45161,19.53786,10.67,-0.56,0.65,2.0
1758091063.91221,1758091045.66626,0.0,0.0,0.0,-13.40721,-59.47303,19.76705,10.67,-0.56,0.65,2.0
1758091063.91342,1758091045.67626,0.0,0.0,0.0,-13.46451,-66.80688,21.37133,10.15,-1.03,0.86,2.0
1758091063.92852,1758091045.68626,0.0,0.0,0.0,-9.91217,-80.95895,25.26744,9.99,-1.48,2.59,2.0
1758091063.92973,1758091045.69626,0.0,0.0,0.0,-6.8182,-88.40739,29.96569,9.99,-1.48,2.59,2.0
1758091063.9448,1758091045.70626,0.0,0.0,0.0,-3.38045,-83.65184,36.7266,11.79,-1.25,4.34,2.0
1758091063.96089,1758091045.71626,0.0,0.0,0.0,-0.51566,-74.02615,43.83128,11.79,-1.25,4.34,2.0
1758091063.96247,1758091045.72626,0.0,0.0,0.0,3.72423,-60.04598,50.64947,12.32,0.18,4.62,2.0
1758091063.97776,1758091045.73626,0.0,0.0,0.0,6.13065,-50.13381,52.65482,12.32,0.18,4.62,2.0
1758091063.97898,1758091045.74626,0.0,0.0,0.0,7.39116,-36.26823,51.79538,10.56,0.68,3.6,2.0
1758091063.9955,1758091045.75626,0.0,0.0,0.0,8.36518,-20.16812,48.70141,10.56,0.68,3.6,2.0
1758091064.01157,1758091045.76626,0.0,0.0,0.0,9.39651,-2.7502,39.07573,10.58,0.13,2.78,2.0
1758091064.01303,1758091045.77626,0.0,0.0,0.0,8.70896,5.21392,29.62192,11.19,-0.72,2.69,2.0
1758091064.02742,1758091045.78626,0.0,0.0,0.0,6.70361,15.06879,19.48057,11.19,-0.72,2.69,2.0
1758091064.02864,1758091045.79626,0.0,0.0,0.0,1.83346,27.44468,4.81285,12.86,-1.22,1.67,2.0
1758091064.04552,1758091045.80626,0.0,0.0,0.0,-1.66158,45.72203,-3.66693,12.86,-1.22,1.67,2.0
1758091064.06152,1758091045.81626,0.0,0.0,0.0,-4.29718,56.14987,-9.91217,12.75,-0.96,1.03,2.0
1758091064.06269,1758091045.82626,0.0,0.0,0.0,-6.24524,63.31184,-14.20935,12.75,-0.96,1.03,2.0
1758091064.07769,1758091045.83626,0.0,0.0,0.0,-7.50575,70.18733,-18.79302,11.45,-0.36,1.14,2.0
1758091064.07899,1758091045.84626,0.0,0.0,0.0,-7.84952,71.16136,-19.99623,10.32,0.07,1.24,2.0
1758091064.09546,1758091045.85626,0.0,0.0,0.0,-7.79223,71.73432,-20.11082,10.32,0.07,1.24,2.0
1758091064.11355,1758091045.86626,0.0,0.0,0.0,-7.04738,70.47381,-18.9649,9.46,0.15,1.12,2.0
1758091064.11477,1758091045.87626,0.0,0.0,0.0,-6.41713,66.29122,-17.58981,9.46,0.15,1.12,2.0
1758091064.12984,1758091045.88626,0.0,0.0,0.0,-5.95876,61.36378,-16.55848,8.53,0.1,1.2,2.0
1758091064.13097,1758091045.89626,0.0,0.0,0.0,-5.72958,56.14987,-15.64175,8.53,0.1,1.2,2.0
1758091064.14568,1758091045.90626,0.0,0.0,0.0,-5.27121,49.84733,-15.64175,7.78,0.08,1.32,2.0
1758091064.16172,1758091045.91626,0.0,0.0,0.0,-4.64096,39.01843,-15.75634,7.42,0.06,1.32,2.0
1758091064.16276,1758091045.92626,0.0,0.0,0.0,-4.64096,31.39809,-15.75634,7.42,0.06,1.32,2.0
1758091064.17785,1758091045.93626,0.0,0.0,0.0,-5.15662,23.83505,-15.58445,7.41,-0.07,1.27,2.0
1758091064.17868,1758091045.94626,0.0,0.0,0.0,-6.41713,17.13144,-14.9542,7.41,-0.07,1.27,2.0
1758091064.1967,1758091045.95626,0.0,0.0,0.0,-8.93814,7.04738,-13.06344,7.51,-0.18,1.14,2.0
1758091064.21254,1758091045.96626,0.0,0.0,0.0,-10.94349,0.57296,-11.57375,7.51,-0.18,1.14,2.0
1758091064.21367,1758091045.97626,0.0,0.0,0.0,-13.06344,-4.69825,-10.8862,7.64,-0.19,1.15,2.0
1758091064.22878,1758091045.98626,0.0,0.0,0.0,-15.12609,-7.04738,-9.96947,7.64,-0.19,1.15,2.0
1758091064.2338,1758091045.99626,0.0,0.0,0.0,-18.16276,-6.07335,-9.33921,8.36,-0.13,1.11,2.0
1758091064.24859,1758091046.00626,0.0,0.0,0.0,-20.05352,-5.61499,-9.5684,9.0,0.0,1.11,2.0
1758091064.25173,1758091046.01626,0.0,0.0,0.0,-22.23076,-5.32851,-9.96947,9.0,0.0,1.11,2.0
1758091064.26656,1758091046.02626,0.0,0.0,0.0,-26.01229,-6.35983,-11.00079,9.24,0.24,0.71,2.0
1758091064.2825,1758091046.03626,0.0,0.0,0.0,-28.76248,-8.30789,-11.97482,9.24,0.24,0.71,2.0
1758091064.28372,1758091046.04626,0.0,0.0,0.0,-31.56997,-11.91752,-12.60507,9.06,0.28,0.22,2.0
1758091064.29854,1758091046.05626,0.0,0.0,0.0,-34.37747,-17.99088,-12.71966,9.06,0.28,0.22,2.0
1758091064.30138,1758091046.06626,0.0,0.0,0.0,-38.21629,-26.41335,-11.74564,8.65,0.14,-0.24,2.0
1758091064.31656,1758091046.07626,0.0,0.0,0.0,-40.10705,-30.88243,-11.45916,8.95,-0.08,-0.41,2.0
1758091064.3188,1758091046.08626,0.0,0.0,0.0,-41.31026,-34.26288,-11.34457,8.95,-0.08,-0.41,2.0
1758091064.33475,1758091046.09626,0.0,0.0,0.0,-41.13837,-32.71589,-11.34457,9.98,-0.64,-0.32,2.0
1758091064.35217,1758091046.10626,0.0,0.0,0.0,-38.15899,-23.20479,-10.02676,9.98,-0.64,-0.32,2.0
1758091064.35333,1758091046.11626,0.0,0.0,0.0,-36.32552,-16.04282,-8.93814,11.04,-1.7,-0.16,2.0
1758091064.36854,1758091046.12626,0.0,0.0,0.0,-35.3515,-12.2613,-7.44845,11.04,-1.7,-0.16,2.0
1758091064.37056,1758091046.13626,0.0,0.0,0.0,-32.88778,-18.73572,-7.21927,10.91,-1.9,-0.73,2.0
1758091064.38551,1758091046.14626,0.0,0.0,0.0,-32.14294,-16.3293,-8.70896,10.63,-1.51,-1.45,2.0
1758091064.40256,1758091046.15626,0.0,0.0,0.0,-33.17426,-9.85487,-10.02676,10.63,-1.51,-1.45,2.0
1758091064.40401,1758091046.16626,0.0,0.0,0.0,-35.12231,-4.52637,-10.19865,11.17,-0.23,-2.18,2.0
1758091064.41846,1758091046.17626,0.0,0.0,0.0,-37.58603,4.1253,-10.02676,11.17,-0.23,-2.18,2.0
1758091064.42324,1758091046.18626,0.0,0.0,0.0,-41.13837,11.74564,-8.76626,11.33,0.8,-1.47,2.0
1758091064.43878,1758091046.19626,0.0,0.0,0.0,-42.62806,10.8862,-8.02141,11.33,0.8,-1.47,2.0
1758091064.44049,1758091046.20626,0.0,0.0,0.0,-42.97184,8.42248,-7.67763,11.05,0.97,-0.63,2.0
1758091064.45561,1758091046.21626,0.0,0.0,0.0,-41.48215,-2.06265,-7.96411,11.05,0.97,-0.63,2.0
1758091064.47333,1758091046.22626,0.0,0.0,0.0,-40.10705,-15.12609,-10.19865,10.78,0.17,0.91,2.0
1758091064.47537,1758091046.23626,0.0,0.0,0.0,-39.4768,-30.65324,-14.09476,10.37,-0.36,2.3,2.0
1758091064.49056,1758091046.24626,0.0,0.0,0.0,-38.21629,-44.57612,-18.90761,10.37,-0.36,2.3,2.0
1758091064.49169,1758091046.25626,0.0,0.0,0.0,-35.06502,-63.02536,-28.70519,11.64,-0.85,3.34,2.0
1758091064.5064,1758091046.26626,0.0,0.0,0.0,-33.00237,-71.39055,-35.86716,11.64,-0.85,3.34,2.0
1758091064.52247,1758091046.27626,0.0,0.0,0.0,-30.25217,-71.90621,-41.65404,13.22,-1.66,4.53,2.0
1758091064.5237,1758091046.28626,0.0,0.0,0.0,-26.69983,-66.80688,-44.11775,13.22,-1.66,4.53,2.0
1758091064.53887,1758091046.29626,0.0,0.0,0.0,-22.23076,-56.26446,-42.1124,12.67,-1.99,4.67,2.0
1758091064.54224,1758091046.30626,0.0,0.0,0.0,-21.7724,-49.90463,-39.13302,10.1,-1.12,4.09,2.0
1758091064.55765,1758091046.31626,0.0,0.0,0.0,-23.66316,-42.97184,-34.43476,10.1,-1.12,4.09,2.0
1758091064.55865,1758091046.32626,0.0,0.0,0.0,-28.01764,-34.95043,-28.99167,9.53,-0.17,2.53,2.0
1758091064.57555,1758091046.33626,0.0,0.0,0.0,-35.40879,-21.42862,-18.90761,9.53,-0.17,2.53,2.0
1758091064.59262,1758091046.34626,0.0,0.0,0.0,-39.64868,-13.06344,-11.28727,11.25,-0.09,2.02,2.0
1758091064.59353,1758091046.35626,0.0,0.0,0.0,-41.59674,-4.35448,-4.81285,11.25,-0.09,2.02,2.0
1758091064.60851,1758091046.36626,0.0,0.0,0.0,-41.59674,6.24524,-0.45837,12.77,-0.44,1.37,2.0
1758091064.61053,1758091046.37626,0.0,0.0,0.0,-37.64333,26.18417,1.48969,13.02,-0.61,0.9,2.0
1758091064.62549,1758091046.38626,0.0,0.0,0.0,-33.00237,37.18496,0.0,13.02,-0.61,0.9,2.0
1758091064.64151,1758091046.39626,0.0,0.0,0.0,-26.06958,45.43555,-0.45837,11.43,-1.11,1.27,2.0
1758091064.64274,1758091046.40626,0.0,0.0,0.0,-15.87093,53.91533,-1.83346,11.43,-1.11,1.27,2.0
1758091064.65751,1758091046.41626,0.0,0.0,0.0,-9.39651,62.56699,-1.60428,10.05,-1.63,1.18,2.0
1758091064.65879,1758091046.42626,0.0,0.0,0.0,-4.81285,64.74423,-0.68755,10.05,-1.63,1.18,2.0
1758091064.67579,1758091046.43626,0.0,0.0,0.0,-2.00535,67.15066,0.68755,9.02,-2.04,0.57,2.0
1758091064.69154,1758091046.44626,0.0,0.0,0.0,1.14592,69.3279,4.0107,9.02,-2.04,0.57,2.0
1758091064.69354,1758091046.45626,0.0,0.0,0.0,2.6929,66.06203,6.58902,8.58,-2.17,0.44,2.0
1758091064.70876,1758091046.46626,0.0,0.0,0.0,3.89611,62.91077,8.59437,7.65,-2.03,0.69,2.0
1758091064.71311,1758091046.47626,0.0,0.0,0.0,5.15662,58.84277,10.19865,7.65,-2.03,0.69,2.0
1758091064.72856,1758091046.48626,0.0,0.0,0.0,7.44845,50.47758,11.57375,7.1,-1.54,0.82,2.0
1758091064.73164,1758091046.49626,0.0,0.0,0.0,8.99544,44.8053,11.11538,7.1,-1.54,0.82,2.0
1758091064.74654,1758091046.50626,0.0,0.0,0.0,10.8289,38.1017,10.59972,6.95,-0.99,1.0,2.0
1758091064.7628,1758091046.51626,0.0,0.0,0.0,13.46451,32.71589,9.62569,6.95,-0.99,1.0,2.0
1758091064.76376,1758091046.52626,0.0,0.0,0.0,18.22006,23.54857,7.73493,7.39,-0.64,1.29,2.0
1758091064.77877,1758091046.53626,0.0,0.0,0.0,22.05888,20.11082,6.99009,7.89,-0.73,1.15,2.0
1758091064.78224,1758091046.54626,0.0,0.0,0.0,26.47065,17.58981,6.7609,7.89,-0.73,1.15,2.0
1758091064.79835,1758091046.55626,0.0,0.0,0.0,30.53865,14.20935,6.99009,8.25,-1.07,0.9,2.0
1758091064.80195,1758091046.56626,0.0,0.0,0.0,35.06502,11.45916,7.67763,8.25,-1.07,0.9,2.0
1758091064.81758,1758091046.57626,0.0,0.0,0.0,36.7266,13.46451,7.50575,8.67,-1.2,0.6,2.0
1758091064.81876,1758091046.58626,0.0,0.0,0.0,37.47144,17.30333,6.99009,8.67,-1.2,0.6,2.0
1758091064.83482,1758091046.59626,0.0,0.0,0.0,37.29956,20.34,5.15662,9.12,-0.98,0.26,2.0
1758091064.85256,1758091046.60626,0.0,0.0,0.0,36.61201,20.34,4.1253,8.67,-0.59,0.08,2.0
1758091064.85373,1758091046.61626,0.0,0.0,0.0,35.2369,16.73037,3.03668,8.67,-0.59,0.08,2.0
1758091064.86856,1758091046.62626,0.0,0.0,0.0,33.51803,9.91217,2.40642,8.08,-0.22,-0.39,2.0
1758091064.87235,1758091046.63626,0.0,0.0,0.0,30.19488,-6.53172,1.71887,8.08,-0.22,-0.39,2.0
1758091064.88781,1758091046.64626,0.0,0.0,0.0,27.84575,-14.61043,0.85944,7.73,0.0,-1.05,2.0
1758091064.88875,1758091046.65626,0.0,0.0,0.0,26.18417,-20.62648,1.66158,7.73,0.0,-1.05,2.0
1758091064.90455,1758091046.66626,0.0,0.0,0.0,24.63719,-18.79302,5.15662,9.35,-0.28,-0.79,2.0
1758091064.92186,1758091046.67626,0.0,0.0,0.0,20.85567,-7.84952,10.94349,11.6,-0.28,0.39,2.0
1758091064.92314,1758091046.68626,0.0,0.0,0.0,17.6471,2.46372,13.86558,11.6,-0.94,0.39,2.0
1758091064.9376,1758091046.69626,0.0,0.0,0.0,14.38124,8.25059,17.24603,12.14,-0.94,1.01,2.0
1758091064.93876,1758091046.70626,0.0,0.0,0.0,-8.0787,-11.34457,14.78231,12.14,-0.94,1.01,2.0
1758091064.95556,1758091046.71626,0.0,0.0,0.0,13.12073,-46.86795,17.47521,8.26,-0.65,-0.37,2.0
1758091064.97175,1758091046.72626,0.0,0.0,0.0,15.64175,-70.76029,23.26209,8.26,-0.65,-0.37,2.0
1758091064.97349,1758091046.73626,0.0,0.0,0.0,14.43854,-65.54638,24.63719,9.02,-0.51,-1.97,2.0
1758091064.98863,1758091046.74626,0.0,0.0,0.0,14.09476,-50.99325,25.61122,9.02,-0.51,-1.97,2.0
1758091064.99056,1758091046.75626,0.0,0.0,0.0,10.65701,-38.90384,23.94964,12.48,-0.3,-0.97,2.0
1758091065.0056,1758091046.76626,0.0,0.0,0.0,7.16197,-37.01308,23.31938,11.9,-0.45,-0.2,2.0
1758091065.02233,1758091046.77626,0.0,0.0,0.0,3.26586,-37.18496,22.57454,11.9,-0.45,-0.2,2.0
1758091065.02352,1758091046.78626,0.0,0.0,0.0,-0.11459,-41.13837,22.40265,11.9,-1.2,0.81,2.0
1758091065.03883,1758091046.79626,0.0,0.0,0.0,-2.97938,-53.17049,23.20479,11.9,-1.2,0.81,2.0
1758091065.03993,1758091046.80626,0.0,0.0,0.0,-4.18259,-59.53032,24.98096,12.15,-2.02,1.81,2.0
1758091065.05476,1758091046.81626,0.0,0.0,0.0,-4.29718,-67.37984,29.50733,12.15,-2.02,1.81,2.0
1758091065.07078,1758091046.82626,0.0,0.0,0.0,-3.60963,-73.3386,40.62271,13.36,-1.6,3.63,2.0
1758091065.07367,1758091046.83626,0.0,0.0,0.0,-4.1253,-69.90086,48.41494,14.04,-0.03,3.75,2.0
1758091065.08881,1758091046.84626,0.0,0.0,0.0,-4.1253,-62.33781,54.14451,14.04,-0.03,3.75,2.0
1758091065.09053,1758091046.85626,0.0,0.0,0.0,-3.49504,-54.77477,56.60823,11.02,1.25,3.56,2.0
1758091065.10555,1758091046.86626,0.0,0.0,0.0,-1.20321,-42.51347,54.48829,11.02,1.25,3.56,2.0
1758091065.12152,1758091046.87626,0.0,0.0,0.0,0.80214,-31.45539,49.79003,8.25,0.8,3.18,2.0
1758091065.12355,1758091046.88626,0.0,0.0,0.0,3.66693,-17.18874,43.25832,8.25,0.8,3.18,2.0
1758091065.13853,1758091046.89626,0.0,0.0,0.0,6.47442,-2.29183,34.72124,8.54,-0.16,2.67,2.0
1758091065.14134,1758091046.90626,0.0,0.0,0.0,9.33921,13.46451,19.48057,9.86,-1.04,2.41,2.0
1758091065.15735,1758091046.91626,0.0,0.0,0.0,9.11003,22.00158,9.33921,9.86,-1.04,2.41,2.0
1758091065.15853,1758091046.92626,0.0,0.0,0.0,7.39116,31.91375,0.51566,11.68,-1.49,1.64,2.0
1758091065.17857,1758091046.93626,0.0,0.0,0.0,5.27121,41.71133,-4.92744,11.68,-1.49,1.64,2.0
1758091065.18327,1758091046.94626,0.0,0.0,0.0,1.3178,54.08722,-9.05273,12.43,-1.18,1.39,2.0
1758091065.1988,1758091046.95626,0.0,0.0,0.0,-1.60428,59.18654,-9.5684,12.43,-1.18,1.39,2.0
1758091065.20373,1758091046.96626,0.0,0.0,0.0,-4.58366,64.91612,-10.08406,11.82,-0.34,1.83,2.0
1758091065.21888,1758091046.97626,0.0,0.0,0.0,-7.10468,65.54638,-10.37054,11.82,-0.34,1.83,2.0
1758091065.22372,1758091046.98626,0.0,0.0,0.0,-11.28727,61.87944,-10.37054,10.3,0.64,1.66,2.0
1758091065.23854,1758091046.99626,0.0,0.0,0.0,-13.75099,58.04062,-10.19865,8.92,1.18,1.22,2.0
1758091065.24134,1758091047.00626,0.0,0.0,0.0,-16.21471,55.06125,-10.37054,8.92,1.18,1.22,2.0
1758091065.25772,1758091047.01626,0.0,0.0,0.0,-19.59516,51.85268,-11.45916,8.55,1.23,0.93,2.0
1758091065.25855,1758091047.02626,0.0,0.0,0.0,-21.88699,46.35228,-13.00614,8.55,1.23,0.93,2.0
1758091065.27661,1758091047.03626,0.0,0.0,0.0,-23.49127,38.61736,-13.40721,8.33,0.99,0.77,2.0
1758091065.27923,1758091047.04626,0.0,0.0,0.0,-25.15285,32.77319,-16.10011,8.33,0.99,0.77,2.0
1758091065.29665,1758091047.05626,0.0,0.0,0.0,-26.81443,28.59059,-18.50654,8.45,0.54,0.55,2.0
1758091065.29919,1758091047.06626,0.0,0.0,0.0,-27.84575,26.87172,-19.76705,8.99,-0.18,0.55,2.0
1758091065.31486,1758091047.07626,0.0,0.0,0.0,-28.87707,25.61122,-20.22541,8.99,-0.18,0.55,2.0
1758091065.32007,1758091047.08626,0.0,0.0,0.0,-29.56462,23.94964,-20.16812,9.04,-0.89,0.51,2.0
1758091065.33858,1758091047.09626,0.0,0.0,0.0,-29.10626,20.74107,-18.90761,9.04,-0.89,0.51,2.0
1758091065.33974,1758091047.10626,0.0,0.0,0.0,-28.13223,17.76169,-16.90226,9.04,-1.36,0.67,2.0
1758091065.35564,1758091047.11626,0.0,0.0,0.0,-26.98631,15.06879,-15.29797,9.04,-1.36,0.67,2.0
1758091065.37247,1758091047.12626,0.0,0.0,0.0,-25.49662,14.20935,-13.46451,8.94,-1.42,0.55,2.0
1758091065.37376,1758091047.13626,0.0,0.0,0.0,-23.26209,12.77696,-10.08406,8.78,-1.11,0.53,2.0
1758091065.38983,1758091047.14626,0.0,0.0,0.0,-21.6578,9.33921,-8.76626,8.78,-1.11,0.53,2.0
1758091065.3935,1758091047.15626,0.0,0.0,0.0,-20.68378,3.38045,-8.02141,7.95,-0.63,0.47,2.0
1758091065.40885,1758091047.16626,0.0,0.0,0.0,-20.22541,-4.58366,-7.79223,7.95,-0.63,0.47,2.0
1758091065.40979,1758091047.17626,0.0,0.0,0.0,-20.85567,-18.27736,-7.84952,7.55,-0.22,0.0,2.0
1758091065.42457,1758091047.18626,0.0,0.0,0.0,-22.00158,-26.75713,-8.76626,7.55,-0.22,0.0,2.0
1758091065.42928,1758091047.19626,0.0,0.0,0.0,-23.54857,-37.47144,-9.28192,7.79,0.12,-0.21,2.0
1758091065.44583,1758091047.20626,0.0,0.0,0.0,-25.61122,-50.93595,-11.45916,7.79,0.12,-0.21,2.0
1758091065.46238,1758091047.21626,0.0,0.0,0.0,-27.84575,-65.71826,-12.49048,7.95,0.14,-0.44,2.0
1758091065.46356,1758091047.22626,0.0,0.0,0.0,-32.08564,-52.02457,-14.72501,10.92,-0.03,-0.09,2.0
1758091065.47856,1758091047.23626,0.0,0.0,0.0,-33.23156,-20.51189,-14.61043,10.92,-0.03,-0.09,2.0
1758091065.48056,1758091047.24626,0.0,0.0,0.0,-35.69527,-20.62648,-13.86558,12.96,-0.65,0.09,2.0
1758091065.49666,1758091047.25626,0.0,0.0,0.0,-37.87251,-29.73651,-15.46986,12.96,-0.65,0.09,2.0
1758091065.49919,1758091047.26626,0.0,0.0,0.0,-37.87251,-33.23156,-17.36062,10.26,-0.76,-0.47,2.0
1758091065.51854,1758091047.27626,0.0,0.0,0.0,-37.29956,-28.476,-17.99088,10.26,-0.76,-0.47,2.0
1758091065.52217,1758091047.28626,0.0,0.0,0.0,-34.95043,-9.91217,-14.61043,11.72,-0.93,-1.73,2.0
1758091065.53762,1758091047.29626,0.0,0.0,0.0,-33.00237,-3.55234,-11.45916,11.71,-0.83,-1.53,2.0
1758091065.53876,1758091047.30626,0.0,0.0,0.0,-30.65324,-1.03132,-8.47978,11.71,-0.83,-1.53,2.0
1758091065.55642,1758091047.31626,0.0,0.0,0.0,-28.30412,-0.22918,-6.13065,11.23,-0.8,-0.82,2.0
1758091065.57285,1758091047.32626,0.0,0.0,0.0,-25.89769,-1.66158,-5.55769,11.23,-0.8,-0.82,2.0
1758091065.57539,1758091047.33626,0.0,0.0,0.0,-24.29341,-6.8182,-5.32851,11.37,-0.66,0.03,2.0
1758091065.59056,1758091047.34626,0.0,0.0,0.0,-23.54857,-13.86558,-7.21927,11.37,-0.66,0.03,2.0
1758091065.59342,1758091047.35626,0.0,0.0,0.0,-23.31938,-26.06958,-10.65701,11.47,-0.35,1.28,2.0
1758091065.60859,1758091047.36626,0.0,0.0,0.0,-22.68913,-46.1231,-18.73572,11.65,-0.17,2.35,2.0
1758091065.60975,1758091047.37626,0.0,0.0,0.0,-21.88699,-54.3164,-25.49662,11.65,-0.17,2.35,2.0
1758091065.62624,1758091047.38626,0.0,0.0,0.0,-20.51189,-56.66553,-31.28349,13.07,-0.67,3.18,2.0
1758091065.64161,1758091047.39626,0.0,0.0,0.0,-18.73572,-53.62885,-35.12231,13.07,-0.67,3.18,2.0
1758091065.64357,1758091047.40626,0.0,0.0,0.0,-16.67307,-44.51882,-34.14828,12.4,-1.16,3.67,2.0
1758091065.65861,1758091047.41626,0.0,0.0,0.0,-17.01685,-39.99245,-31.74186,12.4,-1.16,3.67,2.0
1758091065.65981,1758091047.42626,0.0,0.0,0.0,-18.22006,-36.03905,-29.33544,9.7,-0.93,3.68,2.0
1758091065.67459,1758091047.43626,0.0,0.0,0.0,-22.11617,-28.30412,-27.2155,9.7,-0.93,3.68,2.0
1758091065.69158,1758091047.44626,0.0,0.0,0.0,-25.21014,-20.16812,-25.72581,8.93,-0.52,2.7,2.0
1758091065.69361,1758091047.45626,0.0,0.0,0.0,-28.87707,-12.54778,-23.94964,10.09,-0.13,1.98,2.0
1758091065.7087,1758091047.46626,0.0,0.0,0.0,-31.56997,-6.35983,-20.68378,10.09,-0.13,1.98,2.0
1758091065.70981,1758091047.47626,0.0,0.0,0.0,-32.48671,3.66693,-15.12609,11.54,-0.38,1.79,2.0
1758091065.72656,1758091047.48626,0.0,0.0,0.0,-30.65324,12.43318,-12.14671,11.54,-0.38,1.79,2.0
1758091065.74162,1758091047.49626,0.0,0.0,0.0,-27.73116,22.63183,-10.31324,12.4,-0.88,1.04,2.0
1758091065.74284,1758091047.50626,0.0,0.0,0.0,-23.83505,29.50733,-8.136,12.4,-0.88,1.04,2.0
1758091065.75758,1758091047.51626,0.0,0.0,0.0,-18.33465,42.97184,-5.72958,11.76,-1.48,0.98,2.0
1758091065.76192,1758091047.52626,0.0,0.0,0.0,-14.83961,49.67545,-4.18259,10.67,-1.94,0.96,2.0
1758091065.7813,1758091047.53626,0.0,0.0,0.0,-12.14671,53.80074,-2.92208,10.67,-1.94,0.96,2.0
1758091065.78399,1758091047.54626,0.0,0.0,0.0,-9.74028,56.60823,-1.20321,9.45,-1.95,0.65,2.0
1758091065.79989,1758091047.55626,0.0,0.0,0.0,-7.44845,58.72818,0.45837,9.45,-1.95,0.65,2.0
1758091065.80084,1758091047.56626,0.0,0.0,0.0,-6.18794,58.49899,1.71887,8.87,-1.74,0.58,2.0
1758091065.8159,1758091047.57626,0.0,0.0,0.0,-5.32851,56.37905,2.7502,8.87,-1.74,0.58,2.0
1758091065.83254,1758091047.58626,0.0,0.0,0.0,-4.23989,55.6915,4.0107,8.26,-1.53,0.52,2.0
1758091065.83363,1758091047.59626,0.0,0.0,0.0,-3.20856,51.39432,4.98473,7.73,-1.32,0.68,2.0
1758091065.8487,1758091047.60626,0.0,0.0,0.0,-2.23454,46.86795,5.90147,7.73,-1.32,0.68,2.0
1758091065.84985,1758091047.61626,0.0,0.0,0.0,-0.68755,43.20102,6.41713,7.44,-1.15,0.84,2.0
1758091065.86544,1758091047.62626,0.0,0.0,0.0,2.23454,36.95578,7.21927,7.44,-1.15,0.84,2.0
1758091065.88187,1758091047.63626,0.0,0.0,0.0,4.87014,32.48671,7.62034,7.59,-1.01,0.86,2.0
1758091065.88367,1758091047.64626,0.0,0.0,0.0,8.25059,28.70519,8.136,7.59,-1.01,0.86,2.0
1758091065.89891,1758091047.65626,0.0,0.0,0.0,11.91752,24.80907,8.65166,7.95,-1.07,0.93,2.0
1758091065.90006,1758091047.66626,0.0,0.0,0.0,17.53251,16.04282,9.05273,7.95,-1.07,0.93,2.0
1758091065.91777,1758091047.67626,0.0,0.0,0.0,20.97026,11.80293,9.22462,7.96,-1.21,0.84,2.0
1758091065.92226,1758091047.68626,0.0,0.0,0.0,23.66316,11.51645,8.59437,8.54,-1.22,0.72,2.0
1758091065.93767,1758091047.69626,0.0,0.0,0.0,25.8404,14.20935,7.67763,8.54,-1.22,0.72,2.0
1758091065.93885,1758091047.70626,0.0,0.0,0.0,28.24682,18.50654,5.27121,9.02,-1.06,0.6,2.0
1758091065.95463,1758091047.71626,0.0,0.0,0.0,29.04896,19.42327,3.49504,9.02,-1.06,0.6,2.0
1758091065.97092,1758091047.72626,0.0,0.0,0.0,29.62192,17.81899,1.66158,8.68,-0.83,0.45,2.0
1758091065.97263,1758091047.73626,0.0,0.0,0.0,29.8511,12.89155,0.40107,8.68,-0.83,0.45,2.0
1758091065.98786,1758091047.74626,0.0,0.0,0.0,29.22085,0.17189,-0.68755,8.18,-0.66,-0.09,2.0
1758091065.98884,1758091047.75626,0.0,0.0,0.0,28.36141,-8.70896,-1.48969,8.21,-0.57,-0.72,2.0
1758091066.00468,1758091047.76626,0.0,0.0,0.0,27.96034,-13.75099,-1.08862,8.21,-0.57,-0.72,2.0
1758091066.02325,1758091047.77626,0.0,0.0,0.0,28.07493,-17.81899,1.20321,9.55,-0.67,-0.52,2.0
1758091066.02605,1758091047.78626,0.0,0.0,0.0,26.87172,-15.46986,7.96411,9.55,-0.67,-0.52,2.0
1758091066.04324,1758091047.79626,0.0,0.0,0.0,25.43933,-4.69825,12.60507,11.54,-1.1,0.32,2.0
1758091066.04683,1758091047.80626,0.0,0.0,0.0,23.31938,7.39116,17.01685,11.54,-1.1,0.32,2.0
1758091066.0629,1758091047.81626,0.0,0.0,0.0,14.78231,15.46986,17.93358,12.72,-0.93,1.11,2.0
1758091066.06427,1758091047.82626,0.0,0.0,0.0,20.74107,-21.7151,21.08485,8.6,-0.77,-0.14,2.0
1758091066.07908,1758091047.83626,0.0,0.0,0.0,24.29341,-55.97798,21.7151,8.6,-0.77,-0.14,2.0
1758091066.08394,1758091047.84626,0.0,0.0,0.0,28.24682,-66.17663,27.38738,9.03,-0.89,-1.8,2.0
1758091066.10318,1758091047.85626,0.0,0.0,0.0,26.52795,-44.51882,26.47065,9.03,-0.89,-1.8,2.0
1758091066.10685,1758091047.86626,0.0,0.0,0.0,25.09555,-33.51803,23.94964,12.59,-0.7,-1.03,2.0
1758091066.12171,1758091047.87626,0.0,0.0,0.0,22.86102,-30.65324,21.31403,12.59,-0.7,-1.03,2.0
1758091066.12289,1758091047.88626,0.0,0.0,0.0,19.70975,-28.76248,19.42327,11.3,-0.84,-0.31,2.0
1758091066.13774,1758091047.89626,0.0,0.0,0.0,14.78231,-27.61657,16.55848,11.22,-0.84,0.19,2.0
1758091066.13887,1758091047.90626,0.0,0.0,0.0,13.00614,-31.91375,15.87093,11.22,-1.14,0.19,2.0
1758091066.15574,1758091047.91626,0.0,0.0,0.0,11.80293,-37.64333,15.69904,10.42,-1.52,0.45,2.0
1758091066.17181,1758091047.92626,0.0,0.0,0.0,11.74564,-43.02913,16.90226,10.42,-1.52,0.45,2.0
1758091066.17516,1758091047.93626,0.0,0.0,0.0,13.40721,-57.46767,22.28806,10.41,-1.81,2.24,2.0
1758091066.19339,1758091047.94626,0.0,0.0,0.0,14.03747,-64.80153,28.59059,10.41,-1.81,2.24,2.0
1758091066.19447,1758091047.95626,0.0,0.0,0.0,14.43854,-63.94209,37.81522,11.84,-1.46,3.48,2.0
1758091066.20969,1758091047.96626,0.0,0.0,0.0,14.15206,-57.81144,46.86795,11.84,-1.46,3.48,2.0
1758091066.21088,1758091047.97626,0.0,0.0,0.0,13.23533,-48.64412,56.66553,13.53,0.44,3.98,2.0
1758091066.22651,1758091047.98626,0.0,0.0,0.0,12.77696,-42.51347,59.41573,10.56,1.8,3.3,2.0
1758091066.23002,1758091047.99626,0.0,0.0,0.0,12.43318,-34.26288,58.67088,10.56,1.8,3.3,2.0
1758091066.24649,1758091048.00626,0.0,0.0,0.0,13.17803,-23.20479,52.36834,9.02,1.52,2.64,2.0
1758091066.25005,1758091048.01626,0.0,0.0,0.0,15.69904,-3.83882,44.86259,9.02,1.52,2.64,2.0
1758091066.26645,1758091048.02626,0.0,0.0,0.0,17.58981,5.95876,34.72124,9.71,0.24,2.66,2.0
1758091066.28267,1758091048.03626,0.0,0.0,0.0,18.44924,14.43854,23.0329,9.71,0.24,2.66,2.0
1758091066.28413,1758091048.04626,0.0,0.0,0.0,17.13144,27.2155,6.35983,10.82,-1.13,2.32,2.0
1758091066.2986,1758091048.05626,0.0,0.0,0.0,15.06879,36.03905,-2.23454,11.86,-1.84,1.43,2.0
1758091066.30141,1758091048.06626,0.0,0.0,0.0,12.89155,44.00316,-7.73493,11.86,-1.84,1.43,2.0
1758091066.31753,1758091048.07626,0.0,0.0,0.0,10.37054,50.363,-10.54242,11.89,-1.56,1.52,2.0
1758091066.31869,1758091048.08626,0.0,0.0,0.0,7.21927,56.14987,-11.45916,11.89,-1.56,1.52,2.0
1758091066.33595,1758091048.09626,0.0,0.0,0.0,5.4431,58.90006,-12.204,11.21,-0.52,1.61,2.0
1758091066.35352,1758091048.10626,0.0,0.0,0.0,3.83882,57.92604,-11.74564,11.21,-0.52,1.61,2.0
1758091066.3547,1758091048.11626,0.0,0.0,0.0,2.34913,53.91533,-11.17268,9.99,0.6,1.4,2.0
1758091066.36977,1758091048.12626,0.0,0.0,0.0,0.0,48.24305,-9.96947,9.06,1.23,1.34,2.0
1758091066.3727,1758091048.13626,0.0,0.0,0.0,-1.94806,44.11775,-9.96947,9.06,1.23,1.34,2.0
1758091066.38795,1758091048.14626,0.0,0.0,0.0,-3.66693,38.84654,-10.02676,8.51,1.38,1.03,2.0
1758091066.38915,1758091048.15626,0.0,0.0,0.0,-5.4431,33.05967,-10.8289,8.51,1.38,1.03,2.0
1758091066.40625,1758091048.16626,0.0,0.0,0.0,-8.02141,25.72581,-12.37589,8.3,1.12,0.91,2.0
1758091066.42164,1758091048.17626,0.0,0.0,0.0,-9.91217,23.20479,-13.40721,8.3,1.12,0.91,2.0
1758091066.42442,1758091048.18626,0.0,0.0,0.0,-12.08941,21.31403,-14.43854,8.75,0.49,0.79,2.0
1758091066.44175,1758091048.19626,0.0,0.0,0.0,-14.43854,19.82434,-15.58445,8.75,0.49,0.79,2.0
1758091066.44314,1758091048.20626,0.0,0.0,0.0,-17.30333,17.01685,-16.67307,8.86,-0.18,0.78,2.0
1758091066.45772,1758091048.21626,0.0,0.0,0.0,-18.44924,14.32395,-17.13144,8.72,-0.69,0.7,2.0
1758091066.45892,1758091048.22626,0.0,0.0,0.0,-19.36597,13.75099,-17.76169,8.72,-0.69,0.7,2.0
1758091066.47652,1758091048.23626,0.0,0.0,0.0,-19.48057,12.83425,-17.18874,8.98,-0.97,0.77,2.0
1758091066.48097,1758091048.24626,0.0,0.0,0.0,-18.9649,14.66772,-16.38659,8.98,-0.97,0.77,2.0
1758091066.49897,1758091048.25626,0.0,0.0,0.0,-18.22006,17.58981,-14.61043,9.17,-1.02,0.68,2.0
1758091066.50069,1758091048.26626,0.0,0.0,0.0,-17.18874,17.30333,-12.49048,9.17,-1.02,0.68,2.0
1758091066.51597,1758091048.27626,0.0,0.0,0.0,-15.75634,11.22997,-10.08406,8.7,-0.85,0.75,2.0
1758091066.53274,1758091048.28626,0.0,0.0,0.0,-15.35527,4.64096,-9.28192,8.1,-0.53,0.37,2.0
1758091066.53392,1758091048.29626,0.0,0.0,0.0,-15.06879,-3.55234,-8.47978,8.1,-0.53,0.37,2.0
1758091066.54892,1758091048.30626,0.0,0.0,0.0,-15.35527,-11.91752,-8.47978,8.05,-0.27,-0.13,2.0
1758091066.5507,1758091048.31626,0.0,0.0,0.0,-16.10011,-26.35606,-8.65166,8.05,-0.27,-0.13,2.0
1758091066.56773,1758091048.32626,0.0,0.0,0.0,-17.24603,-36.61201,-8.99544,8.2,-0.09,-0.38,2.0
1758091066.56892,1758091048.33626,0.0,0.0,0.0,-18.33465,-47.49821,-9.85487,8.2,-0.09,-0.38,2.0
1758091066.58626,1758091048.34626,0.0,0.0,0.0,-20.79837,-49.21708,-9.96947,9.08,0.0,-0.16,2.0
1758091066.60177,1758091048.35626,0.0,0.0,0.0,-25.38203,-20.34,-13.98017,12.64,-0.11,0.26,2.0
1758091066.60289,1758091048.36626,0.0,0.0,0.0,-26.24147,-0.97403,-12.37589,12.64,-0.11,0.26,2.0
1758091066.6177,1758091048.37626,0.0,0.0,0.0,-28.76248,-13.06344,-13.46451,11.28,-0.4,0.43,2.0
1758091066.61975,1758091048.38626,0.0,0.0,0.0,-31.74186,-25.55392,-15.58445,11.28,-0.4,0.43,2.0
1758091066.63875,1758091048.39626,0.0,0.0,0.0,-33.68992,-33.68992,-18.90761,9.84,-0.27,-0.47,2.0
1758091066.64391,1758091048.40626,0.0,0.0,0.0,-34.49206,-26.41335,-18.79302,9.84,-0.27,-0.47,2.0
1758091066.659,1758091048.41626,0.0,0.0,0.0,-34.60666,-12.77696,-16.73037,11.41,-0.38,-1.35,2.0
1758091066.66076,1758091048.42626,0.0,0.0,0.0,-32.6013,-2.00535,-10.8862,11.41,-0.38,-1.35,2.0
1758091066.67599,1758091048.43626,0.0,0.0,0.0,-30.48136,5.55769,-7.21927,11.35,-0.57,-1.12,2.0
1758091066.69277,1758091048.44626,0.0,0.0,0.0,-28.01764,8.47978,-4.23989,11.09,-0.53,-0.96,2.0
1758091066.71457,1758091048.45626,0.0,0.0,0.0,-25.55392,9.96947,-2.11994,11.09,-0.53,-0.96,2.0
1758091066.71499,1758091048.46626,0.0,0.0,0.0,-22.34536,7.79223,-2.46372,11.39,-0.48,-0.51,2.0
1758091066.71718,1758091048.47626,0.0,0.0,0.0,-19.99623,0.51566,-4.29718,11.39,-0.48,-0.51,2.0
1758091066.73176,1758091048.48626,0.0,0.0,0.0,-17.81899,-9.85487,-7.62034,11.15,-0.37,0.51,2.0
1758091066.73375,1758091048.49626,0.0,0.0,0.0,-16.38659,-20.34,-12.83425,11.15,-0.37,0.51,2.0
1758091066.74897,1758091048.50626,0.0,0.0,0.0,-14.78231,-36.55471,-21.42862,11.09,-0.35,1.18,2.0
1758091066.75072,1758091048.51626,0.0,0.0,0.0,-13.00614,-44.00316,-26.87172,11.39,-0.71,1.85,2.0
1758091066.76801,1758091048.52626,0.0,0.0,0.0,-10.59972,-48.8733,-31.97105,11.39,-0.71,1.85,2.0
1758091066.76894,1758091048.53626,0.0,0.0,0.0,-7.84952,-50.64947,-34.89313,12.02,-1.37,2.85,2.0
1758091066.78598,1758091048.54626,0.0,0.0,0.0,-3.60963,-54.3737,-34.14828,12.02,-1.37,2.85,2.0
1758091066.80206,1758091048.55626,0.0,0.0,0.0,-1.71887,-52.71212,-31.45539,11.14,-1.66,3.2,2.0
1758091066.80297,1758091048.56626,0.0,0.0,0.0,-0.74485,-48.8733,-28.476,11.14,-1.66,3.2,2.0
1758091066.81786,1758091048.57626,0.0,0.0,0.0,-0.97403,-44.86259,-25.09555,10.13,-0.95,3.72,2.0
1758091066.81897,1758091048.58626,0.0,0.0,0.0,-4.0107,-36.89849,-22.34536,9.19,-0.41,3.55,2.0
1758091066.83474,1758091048.59626,0.0,0.0,0.0,-7.44845,-31.16891,-20.45459,9.19,-0.41,3.55,2.0
1758091066.85203,1758091048.60626,0.0,0.0,0.0,-11.74564,-26.41335,-18.85031,8.74,-0.05,2.56,2.0
1758091066.85388,1758091048.61626,0.0,0.0,0.0,-16.10011,-21.42862,-16.272,8.74,-0.05,2.56,2.0
1758091066.869,1758091048.62626,0.0,0.0,0.0,-21.42862,-12.83425,-14.32395,9.78,-0.07,1.99,2.0
1758091066.87252,1758091048.63626,0.0,0.0,0.0,-22.97561,-4.87014,-12.204,9.78,-0.07,1.99,2.0
1758091066.88782,1758091048.64626,0.0,0.0,0.0,-22.51724,4.64096,-10.31324,11.63,-0.39,1.35,2.0
1758091066.88889,1758091048.65626,0.0,0.0,0.0,-19.13679,20.62648,-8.59437,11.63,-0.39,1.35,2.0
1758091066.90507,1758091048.66626,0.0,0.0,0.0,-15.87093,31.11161,-7.33386,12.3,-0.88,0.76,2.0
1758091066.92278,1758091048.67626,0.0,0.0,0.0,-12.2613,39.64868,-5.95876,11.5,-1.35,0.78,2.0
1758091066.924,1758091048.68626,0.0,0.0,0.0,-8.36518,43.65939,-3.66693,11.5,-1.35,0.78,2.0
1758091066.93905,1758091048.69626,0.0,0.0,0.0,-3.60963,54.431,-0.51566,10.47,-1.8,0.56,2.0
1758091066.9408,1758091048.70626,0.0,0.0,0.0,-1.3751,57.81144,1.48969,10.47,-1.8,0.56,2.0
1758091066.95743,1758091048.71626,0.0,0.0,0.0,0.57296,60.44705,3.26586,9.65,-1.76,0.49,2.0
1758091066.97384,1758091048.72626,0.0,0.0,0.0,2.11994,62.56699,5.15662,9.65,-1.76,0.49,2.0
1758091066.97518,1758091048.73626,0.0,0.0,0.0,3.83882,60.04598,7.44845,9.2,-1.69,0.75,2.0
1758091066.99019,1758091048.74626,0.0,0.0,0.0,4.52637,54.66018,7.96411,8.23,-1.41,0.85,2.0
1758091066.99337,1758091048.75626,0.0,0.0,0.0,5.15662,49.84733,7.84952,8.23,-1.41,0.85,2.0
1758091067.00877,1758091048.76626,0.0,0.0,0.0,5.95876,44.11775,7.33386,7.87,-0.93,1.15,2.0
1758091067.01322,1758091048.77626,0.0,0.0,0.0,7.33386,33.74722,5.90147,7.87,-0.93,1.15,2.0
1758091067.02885,1758091048.78626,0.0,0.0,0.0,9.05273,28.93437,5.15662,7.59,-0.59,1.33,2.0
1758091067.03081,1758091048.79626,0.0,0.0,0.0,11.45916,24.80907,5.15662,7.59,-0.59,1.33,2.0
1758091067.04897,1758091048.80626,0.0,0.0,0.0,13.86558,19.13679,5.55769,7.92,-0.63,1.24,2.0
1758091067.05079,1758091048.81626,0.0,0.0,0.0,17.01685,11.51645,6.70361,8.02,-0.86,0.8,2.0
1758091067.06598,1758091048.82626,0.0,0.0,0.0,18.73572,7.04738,7.67763,8.02,-0.86,0.8,2.0
1758091067.08174,1758091048.83626,0.0,0.0,0.0,19.59516,2.92208,8.42248,8.47,-0.93,0.64,2.0
1758091067.08717,1758091048.84626,0.0,0.0,0.0,19.07949,0.0,8.136,8.47,-0.93,0.64,2.0
1758091067.10179,1758091048.85626,0.0,0.0,0.0,17.81899,2.57831,6.8182,9.09,-0.73,0.28,2.0
1758091067.10302,1758091048.86626,0.0,0.0,0.0,15.87093,6.35983,4.87014,9.09,-0.73,0.28,2.0
1758091067.11801,1758091048.87626,0.0,0.0,0.0,14.38124,10.54242,2.86479,9.61,-0.4,0.06,2.0
1758091067.11983,1758091048.88626,0.0,0.0,0.0,11.45916,14.66772,0.0,9.61,-0.4,0.06,2.0
1758091067.1379,1758091048.89626,0.0,0.0,0.0,10.02676,15.75634,-1.48969,9.36,-0.2,-0.03,2.0
1758091067.14009,1758091048.90626,0.0,0.0,0.0,8.99544,15.58445,-2.6929,9.18,-0.26,-0.47,2.0
1758091067.15783,1758091048.91626,0.0,0.0,0.0,8.30789,16.21471,-3.49504,9.18,-0.26,-0.47,2.0
1758091067.15919,1758091048.92626,0.0,0.0,0.0,7.79223,17.93358,-2.6929,9.61,-0.61,-0.54,2.0
1758091067.17666,1758091048.93626,0.0,0.0,0.0,6.8182,22.68913,-3.49504,9.61,-0.61,-0.54,2.0
1758091067.17919,1758091048.94626,0.0,0.0,0.0,5.78687,25.8404,-2.29183,10.27,-1.15,-0.18,2.0
1758091067.19777,1758091048.95626,0.0,0.0,0.0,3.95341,28.24682,0.45837,10.27,-1.15,-0.18,2.0
1758091067.19904,1758091048.96626,0.0,0.0,0.0,3.03668,14.43854,0.11459,10.89,-1.56,0.57,2.0
1758091067.2155,1758091048.97626,0.0,0.0,0.0,5.15662,-21.60051,5.55769,7.62,-1.71,0.77,2.0
1758091067.23285,1758091048.98626,0.0,0.0,0.0,10.71431,-59.87409,15.64175,7.62,-1.71,0.77,2.0
1758091067.23381,1758091048.99626,0.0,0.0,0.0,12.77696,-59.12925,21.48592,9.76,-1.95,0.07,2.0
1758091067.24907,1758091049.00626,0.0,0.0,0.0,13.34992,-35.63798,24.57989,9.76,-1.95,0.07,2.0
1758091067.25076,1758091049.01626,0.0,0.0,0.0,13.80828,-29.50733,24.5226,12.02,-0.89,0.23,2.0
1758091067.26581,1758091049.02626,0.0,0.0,0.0,11.97482,-23.60586,21.37133,12.02,-0.89,0.23,2.0
1758091067.28203,1758091049.03626,0.0,0.0,0.0,7.21927,-16.50119,15.87093,10.37,-0.31,-0.39,2.0
1758091067.28408,1758091049.04626,0.0,0.0,0.0,4.52637,-7.79223,12.204,10.64,-0.7,-1.13,2.0
1758091067.29877,1758091049.05626,0.0,0.0,0.0,2.40642,-2.40642,8.99544,10.64,-0.7,-1.13,2.0
1758091067.30399,1758091049.06626,0.0,0.0,0.0,1.03132,0.85944,8.0787,11.78,-1.01,-0.98,2.0
1758091067.32258,1758091049.07626,0.0,0.0,0.0,-0.22918,4.58366,7.50575,11.78,-1.01,-0.98,2.0
1758091067.32381,1758091049.08626,0.0,0.0,0.0,-0.22918,2.97938,7.44845,12.15,-1.52,0.65,2.0
1758091067.34391,1758091049.09626,0.0,0.0,0.0,0.40107,-3.32316,8.30789,12.15,-1.52,0.65,2.0
1758091067.34639,1758091049.10626,0.0,0.0,0.0,1.77617,-10.94349,10.37054,10.88,-1.96,1.16,2.0
1758091067.36205,1758091049.11626,0.0,0.0,0.0,6.18794,-30.02299,18.73572,10.35,-1.96,2.2,2.0
1758091067.36856,1758091049.12626,0.0,0.0,0.0,7.62034,-36.7266,26.81443,10.35,-1.78,2.2,2.0
1758091067.36919,1758091049.13626,0.0,0.0,0.0,6.99009,-39.07573,35.3515,12.78,-1.07,3.61,2.0
1758091067.38765,1758091049.14626,0.0,0.0,0.0,4.58366,-40.45082,42.39888,12.78,-1.07,3.61,2.0
1758091067.4031,1758091049.15626,0.0,0.0,0.0,-0.68755,-42.91454,47.15443,11.78,0.63,3.76,2.0
1758091067.40426,1758091049.16626,0.0,0.0,0.0,-4.64096,-40.85189,45.83662,11.78,0.63,3.76,2.0
1758091067.42306,1758091049.17626,0.0,0.0,0.0,-7.73493,-35.75257,42.51347,9.03,1.58,3.08,2.0
1758091067.42403,1758091049.18626,0.0,0.0,0.0,-9.4538,-27.38738,37.58603,9.03,1.58,3.08,2.0
1758091067.44179,1758091049.19626,0.0,0.0,0.0,-9.68299,-12.37589,28.36141,8.4,1.33,2.73,2.0
1758091067.44619,1758091049.20626,0.0,0.0,0.0,-8.59437,-1.20321,20.45459,9.12,0.6,2.73,2.0
1758091067.46182,1758091049.21626,0.0,0.0,0.0,-7.39116,7.33386,12.54778,9.12,0.6,2.73,2.0
1758091067.46382,1758091049.22626,0.0,0.0,0.0,-6.99009,14.78231,1.71887,10.55,-0.32,2.3,2.0
1758091067.4788,1758091049.23626,0.0,0.0,0.0,-7.73493,25.15285,-4.18259,10.55,-0.32,2.3,2.0
1758091067.48086,1758091049.24626,0.0,0.0,0.0,-9.11003,33.00237,-7.96411,11.58,-0.91,1.65,2.0
1758091067.49611,1758091049.25626,0.0,0.0,0.0,-10.8862,40.45082,-9.96947,11.58,-0.91,1.65,2.0
1758091067.51286,1758091049.26626,0.0,0.0,0.0,-14.66772,49.90463,-11.28727,11.72,-0.88,1.69,2.0
1758091067.5149,1758091049.27626,0.0,0.0,0.0,-17.18874,53.05589,-12.37589,10.88,-0.22,1.8,2.0
1758091067.53289,1758091049.28626,0.0,0.0,0.0,-19.25138,52.54023,-13.00614,10.88,-0.22,1.8,2.0
1758091067.53403,1758091049.29626,0.0,0.0,0.0,-21.37133,49.90463,-13.06344,9.63,0.52,1.43,2.0
1758091067.54998,1758091049.30626,0.0,0.0,0.0,-23.94964,46.52417,-13.5791,9.63,0.52,1.43,2.0
1758091067.55339,1758091049.31626,0.0,0.0,0.0,-25.55392,43.83128,-13.86558,9.2,1.04,1.28,2.0
1758091067.56874,1758091049.32626,0.0,0.0,0.0,-27.2155,41.02378,-14.49583,9.2,1.04,1.28,2.0
1758091067.57078,1758091049.33626,0.0,0.0,0.0,-28.70519,37.64333,-15.12609,8.9,1.18,1.08,2.0
1758091067.5874,1758091049.34626,0.0,0.0,0.0,-30.36677,31.74186,-16.90226,8.81,0.93,0.98,2.0
1758091067.6029,1758091049.35626,0.0,0.0,0.0,-31.51268,29.33544,-18.22006,8.81,0.93,0.98,2.0
1758091067.61864,1758091049.36626,0.0,0.0,0.0,-32.54401,27.73116,-19.53786,9.2,0.36,1.02,2.0
1758091067.62337,1758091049.37626,0.0,0.0,0.0,-33.23156,26.35606,-20.85567,9.2,0.36,1.02,2.0
1758091067.62782,1758091049.38626,0.0,0.0,0.0,-34.77854,23.94964,-22.23076,9.2,-0.3,1.12,2.0
1758091067.64367,1758091049.39626,0.0,0.0,0.0,-35.40879,22.11617,-22.86102,9.2,-0.3,1.12,2.0
1758091067.64728,1758091049.40626,0.0,0.0,0.0,-35.92446,20.34,-23.31938,8.98,-0.78,1.18,2.0
1758091067.66289,1758091049.41626,0.0,0.0,0.0,-36.03905,18.10547,-23.31938,8.98,-0.78,1.18,2.0
1758091067.66832,1758091049.42626,0.0,0.0,0.0,-35.86716,15.46986,-22.00158,8.83,-0.96,1.14,2.0
1758091067.68383,1758091049.43626,0.0,0.0,0.0,-35.40879,12.83425,-21.02755,8.77,-0.91,1.04,2.0
1758091067.68802,1758091049.44626,0.0,0.0,0.0,-35.00772,12.49048,-19.53786,8.77,-0.91,1.04,2.0
1758091067.7029,1758091049.45626,0.0,0.0,0.0,-34.0337,15.35527,-16.272,8.89,-0.69,0.79,2.0
1758091067.70813,1758091049.46626,0.0,0.0,0.0,-33.40344,15.35527,-13.5791,8.89,-0.69,0.79,2.0
1758091067.72363,1758091049.47626,0.0,0.0,0.0,-33.00237,13.00614,-11.45916,8.4,-0.48,0.78,2.0
1758091067.72725,1758091049.48626,0.0,0.0,0.0,-33.00237,8.36518,-9.33921,8.4,-0.48,0.78,2.0
1758091067.74287,1758091049.49626,0.0,0.0,0.0,-33.51803,0.22918,-7.39116,7.85,-0.27,0.52,2.0
1758091067.7449,1758091049.50626,0.0,0.0,0.0,-34.26288,-4.64096,-6.70361,7.94,-0.17,0.18,2.0
1758091067.76093,1758091049.51626,0.0,0.0,0.0,-34.72124,-10.94349,-6.13065,7.94,-0.17,0.18,2.0
1758091067.76667,1758091049.52626,0.0,0.0,0.0,-35.06502,-19.25138,-5.78687,7.95,-0.18,-0.11,2.0
1758091067.78296,1758091049.53626,0.0,0.0,0.0,-36.32552,-31.79916,-5.90147,7.95,-0.18,-0.11,2.0
1758091067.78386,1758091049.54626,0.0,0.0,0.0,-37.58603,-37.92981,-5.21392,8.42,-0.17,-0.11,2.0
1758091067.79991,1758091049.55626,0.0,0.0,0.0,-40.04975,-26.87172,-7.96411,8.42,-0.17,-0.11,2.0
1758091067.80839,1758091049.56626,0.0,0.0,0.0,-41.02378,-1.66158,-9.5684,11.6,-0.13,0.44,2.0
1758091067.82312,1758091049.57626,0.0,0.0,0.0,-40.7373,-12.83425,-10.65701,10.65,-0.6,0.99,2.0
1758091067.82755,1758091049.58626,0.0,0.0,0.0,-40.85189,-26.87172,-13.40721,10.65,-0.6,0.99,2.0
1758091067.84366,1758091049.59626,0.0,0.0,0.0,-41.76862,-33.23156,-18.85031,10.02,-0.56,-0.47,2.0
1758091067.8496,1758091049.60626,0.0,0.0,0.0,-41.02378,-27.33009,-20.3973,10.02,-0.56,-0.47,2.0
1758091067.85023,1758091049.61626,0.0,0.0,0.0,-40.45082,-5.78687,-17.99088,12.21,-0.9,-1.73,2.0
1758091067.86974,1758091049.62626,0.0,0.0,0.0,-38.73195,1.71887,-13.75099,12.21,-0.9,-1.73,2.0
1758091067.87281,1758091049.63626,0.0,0.0,0.0,-36.38282,4.18259,-8.93814,11.38,-1.19,-1.05,2.0
1758091067.88817,1758091049.64626,0.0,0.0,0.0,-31.91375,3.26586,-2.29183,11.38,-1.19,-1.05,2.0
1758091067.88908,1758091049.65626,0.0,0.0,0.0,-29.10626,0.45837,0.45837,10.63,-1.07,-1.12,2.0
1758091067.90853,1758091049.66626,0.0,0.0,0.0,-26.12688,-2.63561,1.20321,11.38,-0.93,-0.31,2.0
1758091067.90948,1758091049.67626,0.0,0.0,0.0,-23.37668,-4.69825,-0.17189,11.38,-0.93,-0.31,2.0
1758091067.92803,1758091049.68626,0.0,0.0,0.0,-19.70975,-14.43854,-5.90147,12.43,-0.87,1.42,2.0
1758091067.9301,1758091049.69626,0.0,0.0,0.0,-17.81899,-30.53865,-13.46451,12.43,-0.87,1.42,2.0
1758091067.9469,1758091049.70626,0.0,0.0,0.0,-15.69904,-44.8053,-22.63183,12.68,-0.79,2.93,2.0
1758091067.98885,1758091049.71626,0.0,0.0,0.0,-13.17803,-54.25911,-31.51268,12.68,-0.79,2.93,2.0
1758091067.98981,1758091049.72626,0.0,0.0,0.0,-9.91217,-64.45775,-40.10705,13.5,-0.58,3.56,2.0
1758091067.99044,1758091049.73626,0.0,0.0,0.0,-7.21927,-67.43713,-40.85189,11.9,-0.51,3.78,2.0
1758091067.99437,1758091049.74626,0.0,0.0,0.0,-4.64096,-62.33781,-39.13302,11.9,-0.51,3.78,2.0
1758091067.99472,1758091049.75626,0.0,0.0,0.0,-3.09397,-55.51962,-35.69527,10.36,-0.29,4.28,2.0
1758091068.01201,1758091049.76626,0.0,0.0,0.0,-5.32851,-46.35228,-28.30412,10.36,-0.29,4.28,2.0
1758091068.01851,1758091049.77626,0.0,0.0,0.0,-9.22462,-42.91454,-22.57454,9.0,0.04,3.79,2.0
1758091068.02024,1758091049.78626,0.0,0.0,0.0,-14.78231,-39.76327,-17.47521,9.0,0.04,3.79,2.0
1758091068.03719,1758091049.79626,0.0,0.0,0.0,-20.68378,-34.77854,-12.83425,9.21,0.21,2.83,2.0
1758091068.0532,1758091049.80626,0.0,0.0,0.0,-27.78845,-21.88699,-6.7609,11.32,0.07,2.28,2.0
1758091068.05414,1758091049.81626,0.0,0.0,0.0,-29.96569,-13.17803,-3.60963,11.32,0.07,2.28,2.0
1758091068.07303,1758091049.82626,0.0,0.0,0.0,-29.8511,-3.38045,-2.23454,12.36,-0.51,2.14,2.0
1758091068.07414,1758091049.83626,0.0,0.0,0.0,-26.64254,5.27121,-1.14592,12.36,-0.51,2.14,2.0
1758091068.09174,1758091049.84626,0.0,0.0,0.0,-19.36597,25.49662,-2.06265,12.29,-1.28,1.72,2.0
1758091068.09533,1758091049.85626,0.0,0.0,0.0,-13.17803,36.49741,-2.29183,12.29,-1.28,1.72,2.0
1758091068.11339,1758091049.86626,0.0,0.0,0.0,-6.99009,44.8053,-1.94806,11.09,-1.83,1.73,2.0
1758091068.1171,1758091049.87626,0.0,0.0,0.0,1.43239,51.79538,-0.74485,11.09,-1.83,1.73,2.0
1758091068.13401,1758091049.88626,0.0,0.0,0.0,6.18794,56.83742,1.08862,9.42,-2.12,1.51,2.0
1758091068.13578,1758091049.89626,0.0,0.0,0.0,10.25595,60.79083,3.66693,9.03,-2.27,1.28,2.0
1758091068.15294,1758091049.90626,0.0,0.0,0.0,13.00614,60.16057,6.24524,9.03,-2.27,1.28,2.0
1758091068.15746,1758091049.91626,0.0,0.0,0.0,15.46986,59.24384,9.4538,8.4,-2.1,1.3,2.0
1758091068.173,1758091049.92626,0.0,0.0,0.0,16.73037,59.07195,11.28727,8.4,-2.1,1.3,2.0
1758091068.17422,1758091049.93626,0.0,0.0,0.0,17.53251,56.03527,12.37589,8.25,-1.64,1.12,2.0
1758091068.19055,1758091049.94626,0.0,0.0,0.0,17.99088,52.884,12.89155,8.25,-1.64,1.12,2.0
1758091068.19414,1758091049.95626,0.0,0.0,0.0,18.44924,46.98254,12.60507,7.78,-1.07,1.07,2.0
1758091068.21324,1758091049.96626,0.0,0.0,0.0,18.62113,42.85724,12.204,7.56,-0.57,1.15,2.0
1758091068.21424,1758091049.97626,0.0,0.0,0.0,18.90761,37.24226,11.17268,7.56,-0.57,1.15,2.0
1758091068.22923,1758091049.98626,0.0,0.0,0.0,19.59516,32.6013,10.65701,7.55,-0.23,1.15,2.0
1758091068.23287,1758091049.99626,0.0,0.0,0.0,20.74107,24.23611,9.62569,7.55,-0.23,1.15,2.0
1758091068.248,1758091050.00626,0.0,0.0,0.0,21.7724,17.87628,9.28192,7.68,-0.15,1.25,2.0
1758091068.2492,1758091050.01626,0.0,0.0,0.0,22.91831,12.204,9.05273,7.68,-0.15,1.25,2.0
1758091068.26682,1758091050.02626,0.0,0.0,0.0,23.49127,6.41713,8.70896,7.84,-0.29,1.23,2.0
1758091068.28278,1758091050.03626,0.0,0.0,0.0,22.91831,1.08862,7.62034,8.16,-0.24,1.31,2.0
1758091068.28904,1758091050.04626,0.0,0.0,0.0,22.05888,-1.20321,6.87549,8.16,-0.24,1.31,2.0
1758091068.29024,1758091050.05626,0.0,0.0,0.0,20.62648,-1.14592,5.21392,8.55,-0.02,1.11,2.0
1758091068.30677,1758091050.06626,0.0,0.0,0.0,18.56383,4.92744,2.7502,8.55,-0.02,1.11,2.0
1758091068.32293,1758091050.07626,0.0,0.0,0.0,17.76169,9.11003,1.3751,9.36,0.09,0.76,2.0
1758091068.3274,1758091050.08626,0.0,0.0,0.0,17.47521,13.23533,0.97403,9.36,0.09,0.76,2.0
1758091068.34303,1758091050.09626,0.0,0.0,0.0,17.47521,15.24068,0.85944,9.57,-0.16,0.64,2.0
1758091068.34748,1758091050.10626,0.0,0.0,0.0,17.53251,14.9542,1.60428,9.57,-0.16,0.64,2.0
1758091068.36324,1758091050.11626,0.0,0.0,0.0,18.22006,12.60507,2.92208,9.37,-0.35,0.51,2.0
1758091068.36743,1758091050.12626,0.0,0.0,0.0,19.13679,8.93814,3.89611,9.3,-0.56,0.31,2.0
1758091068.38323,1758091050.13626,0.0,0.0,0.0,20.34,1.77617,5.61499,9.3,-0.56,0.31,2.0
1758091068.3874,1758091050.14626,0.0,0.0,0.0,21.48592,-18.62113,7.73493,8.79,-0.8,0.24,2.0
1758091068.40778,1758091050.15626,0.0,0.0,0.0,21.31403,-30.48136,7.84952,8.79,-0.8,0.24,2.0
1758091068.40943,1758091050.16626,0.0,0.0,0.0,21.25674,-29.04896,10.08406,9.15,-1.18,0.11,2.0
1758091068.40996,1758091050.17626,0.0,0.0,0.0,20.97026,-19.42327,13.5218,9.15,-1.18,0.11,2.0
1758091068.42757,1758091050.18626,0.0,0.0,0.0,21.25674,-1.60428,16.95955,11.72,-1.21,0.98,2.0
1758091068.44296,1758091050.19626,0.0,0.0,0.0,21.6578,3.83882,18.9649,11.75,-0.8,0.64,2.0
1758091068.44747,1758091050.20626,0.0,0.0,0.0,21.88699,3.95341,18.90761,11.75,-0.8,0.64,2.0
1758091068.46331,1758091050.21626,0.0,0.0,0.0,22.91831,-4.0107,18.79302,10.09,-0.78,-0.25,2.0
1758091068.46742,1758091050.22626,0.0,0.0,0.0,24.57989,-22.28806,17.47521,10.09,-0.78,-0.25,2.0
1758091068.48304,1758091050.23626,0.0,0.0,0.0,25.7831,-31.79916,16.38659,9.6,-1.03,-1.48,2.0
1758091068.48902,1758091050.24626,0.0,0.0,0.0,27.61657,-36.61201,18.44924,9.6,-1.03,-1.48,2.0
1758091068.48963,1758091050.25626,0.0,0.0,0.0,27.38738,-30.99702,20.3973,11.61,-1.59,-0.86,2.0
1758091068.50803,1758091050.26626,0.0,0.0,0.0,25.8404,-26.87172,20.85567,12.37,-1.52,0.52,2.0
1758091068.51003,1758091050.27626,0.0,0.0,0.0,24.92367,-30.76784,22.00158,12.37,-1.52,0.52,2.0
1758091068.52831,1758091050.28626,0.0,0.0,0.0,24.80907,-37.87251,23.54857,10.93,-1.7,1.55,2.0
1758091068.52924,1758091050.29626,0.0,0.0,0.0,24.80907,-54.88936,26.12688,10.93,-1.7,1.55,2.0
1758091068.54839,1758091050.30626,0.0,0.0,0.0,26.75713,-65.89015,30.99702,10.25,-1.68,2.13,2.0
1758091068.54963,1758091050.31626,0.0,0.0,0.0,27.38738,-69.84356,37.12767,10.25,-1.68,2.13,2.0
1758091068.5677,1758091050.32626,0.0,0.0,0.0,26.12688,-70.01544,43.54479,12.5,-0.96,3.57,2.0
1758091068.569,1758091050.33626,0.0,0.0,0.0,22.63183,-66.17663,52.65482,13.27,-0.96,4.86,2.0
1758091068.58757,1758091050.34626,0.0,0.0,0.0,21.08485,-60.79083,55.34772,13.27,0.96,4.86,2.0
1758091068.60304,1758091050.35626,0.0,0.0,0.0,21.37133,-55.6915,55.6342,10.37,1.63,4.09,2.0
1758091068.60824,1758091050.36626,0.0,0.0,0.0,22.91831,-51.10783,54.02992,10.37,1.63,4.09,2.0
1758091068.62296,1758091050.37626,0.0,0.0,0.0,26.64254,-37.18496,49.79003,8.9,0.55,2.99,2.0
1758091068.62821,1758091050.38626,0.0,0.0,0.0,30.25217,-22.97561,45.60744,8.9,0.55,2.99,2.0
1758091068.64337,1758091050.39626,0.0,0.0,0.0,34.32018,-10.08406,39.99245,10.33,-0.78,2.63,2.0
1758091068.64748,1758091050.40626,0.0,0.0,0.0,37.12767,0.57296,31.85646,10.33,-0.78,2.63,2.0
1758091068.66304,1758091050.41626,0.0,0.0,0.0,38.73195,13.23533,19.88164,11.16,-1.51,2.46,2.0
1758091068.66822,1758091050.42626,0.0,0.0,0.0,37.87251,21.94428,12.2613,11.71,-1.44,1.82,2.0
1758091068.68294,1758091050.43626,0.0,0.0,0.0,35.92446,30.19488,6.13065,11.71,-1.44,1.82,2.0
1758091068.68736,1758091050.44626,0.0,0.0,0.0,33.34615,37.12767,1.14592,11.54,-0.67,1.76,2.0
1758091068.7033,1758091050.45626,0.0,0.0,0.0,28.93437,43.31561,-1.3751,11.54,-0.67,1.76,2.0
1758091068.70777,1758091050.46626,0.0,0.0,0.0,25.89769,46.98254,-2.46372,10.7,0.3,1.88,2.0
1758091068.72306,1758091050.47626,0.0,0.0,0.0,22.34536,49.96192,-4.64096,10.7,0.3,1.88,2.0
1758091068.72761,1758091050.48626,0.0,0.0,0.0,17.13144,48.01387,-6.53172,9.89,1.23,1.7,2.0
1758091068.74311,1758091050.49626,0.0,0.0,0.0,13.75099,44.57612,-7.50575,8.7,1.75,1.29,2.0
1758091068.74771,1758091050.50626,0.0,0.0,0.0,10.19865,42.1124,-8.36518,8.7,1.75,1.29,2.0
1758091068.76328,1758091050.51626,0.0,0.0,0.0,6.99009,39.3622,-9.11003,8.64,1.69,1.27,2.0
1758091068.76778,1758091050.52626,0.0,0.0,0.0,2.57831,35.40879,-10.8862,8.64,1.69,1.27,2.0
1758091068.78332,1758091050.53626,0.0,0.0,0.0,-0.0573,32.54401,-12.54778,8.81,1.32,1.18,2.0
1758091068.7867,1758091050.54626,0.0,0.0,0.0,-2.23454,29.04896,-14.15206,8.81,1.32,1.18,2.0
1758091068.80194,1758091050.55626,0.0,0.0,0.0,-4.46907,26.87172,-15.92823,9.04,0.63,1.32,2.0
1758091068.80319,1758091050.56626,0.0,0.0,0.0,-7.39116,26.35606,-17.81899,9.48,-0.12,1.37,2.0
1758091068.81798,1758091050.57626,0.0,0.0,0.0,-9.11003,26.18417,-18.56383,9.48,-0.12,1.37,2.0
1758091068.82799,1758091050.58626,0.0,0.0,0.0,-10.65701,26.24147,-18.73572,9.47,-0.68,1.46,2.0
1758091068.83348,1758091050.59626,0.0,0.0,0.0,-11.63104,26.64254,-18.62113,9.47,-0.68,1.46,2.0
1758091068.84348,1758091050.60626,0.0,0.0,0.0,-12.37589,26.47065,-18.10547,9.38,-0.92,1.48,2.0
1758091068.85926,1758091050.61626,0.0,0.0,0.0,-12.204,25.55392,-17.01685,9.38,-0.92,1.48,2.0
1758091068.86027,1758091050.62626,0.0,0.0,0.0,-11.57375,23.54857,-15.75634,9.12,-0.84,1.45,2.0
1758091068.87797,1758091050.63626,0.0,0.0,0.0,-10.65701,21.94428,-13.86558,9.12,-0.84,1.45,2.0
1758091068.89324,1758091050.64626,0.0,0.0,0.0,-9.11003,15.58445,-10.25595,8.79,-0.64,1.33,2.0
1758091068.89615,1758091050.65626,0.0,0.0,0.0,-8.76626,11.34457,-8.59437,8.29,-0.33,1.29,2.0
1758091068.91347,1758091050.66626,0.0,0.0,0.0,-9.28192,9.91217,-7.21927,8.29,-0.33,1.29,2.0
1758091068.91792,1758091050.67626,0.0,0.0,0.0,-11.11538,6.87549,-6.47442,8.54,0.07,1.17,2.0
1758091068.93299,1758091050.68626,0.0,0.0,0.0,-13.06344,4.23989,-6.87549,8.54,0.07,1.17,2.0
1758091068.93505,1758091050.69626,0.0,0.0,0.0,-15.75634,1.08862,-7.79223,8.61,0.38,1.15,2.0
1758091068.95001,1758091050.70626,0.0,0.0,0.0,-18.90761,-2.63561,-8.88085,8.61,0.38,1.15,2.0
1758091068.95371,1758091050.71626,0.0,0.0,0.0,-23.66316,-12.14671,-10.25595,8.57,0.5,0.83,2.0
1758091068.96914,1758091050.72626,0.0,0.0,0.0,-26.64254,-19.70975,-11.22997,8.34,0.4,0.61,2.0
1758091068.97056,1758091050.73626,0.0,0.0,0.0,-28.99167,-27.33009,-12.2613,8.34,0.4,0.61,2.0
1758091068.98777,1758091050.74626,0.0,0.0,0.0,-31.11161,-35.92446,-13.40721,8.46,0.13,0.54,2.0
1758091069.00307,1758091050.75626,0.0,0.0,0.0,-33.9764,-44.86259,-14.43854,8.46,0.13,0.54,2.0
1758091069.00605,1758091050.76626,0.0,0.0,0.0,-36.32552,-43.14373,-13.34992,9.35,-0.2,0.44,2.0
1758091069.02271,1758091050.77626,0.0,0.0,0.0,-39.24761,-31.91375,-13.17803,9.35,-0.2,0.44,2.0
1758091069.02659,1758091050.78626,0.0,0.0,0.0,-39.76327,-16.272,-10.71431,11.23,-0.44,0.48,2.0
1758091069.04313,1758091050.79626,0.0,0.0,0.0,-42.51347,-13.75099,-11.00079,10.45,-0.33,0.41,2.0
1758091069.04604,1758091050.80626,0.0,0.0,0.0,-44.46153,-18.27736,-12.08941,10.45,-0.33,0.41,2.0
1758091069.06258,1758091050.81626,0.0,0.0,0.0,-45.55015,-13.75099,-14.15206,10.37,-0.18,-0.91,2.0
1758091069.06657,1758091050.82626,0.0,0.0,0.0,-46.2377,-6.53172,-14.43854,10.37,-0.18,-0.91,2.0
1758091069.08306,1758091050.83626,0.0,0.0,0.0,-48.07116,5.84417,-11.97482,11.28,-0.09,-1.51,2.0
1758091069.08779,1758091050.84626,0.0,0.0,0.0,-48.9879,15.35527,-9.28192,11.28,-0.09,-1.51,2.0
1758091069.10316,1758091050.85626,0.0,0.0,0.0,-49.04519,20.85567,-6.13065,11.64,-0.11,-0.91,2.0
1758091069.10754,1758091050.86626,0.0,0.0,0.0,-47.78468,18.90761,-2.34913,11.64,-0.11,-0.91,2.0
1758091069.12313,1758091050.87626,0.0,0.0,0.0,-46.35228,10.54242,-1.77617,10.8,-0.33,-0.4,2.0
1758091069.1259,1758091050.88626,0.0,0.0,0.0,-44.46153,4.23989,-3.49504,11.16,-0.37,1.04,2.0
1758091069.14296,1758091050.89626,0.0,0.0,0.0,-41.88322,-6.53172,-7.21927,11.16,-0.37,1.04,2.0
1758091069.14634,1758091050.90626,0.0,0.0,0.0,-37.87251,-29.33544,-17.93358,11.44,-0.64,2.18,2.0
1758091069.16291,1758091050.91626,0.0,0.0,0.0,-34.43476,-41.25296,-27.04361,11.44,-0.64,2.18,2.0
1758091069.16627,1758091050.92626,0.0,0.0,0.0,-30.36677,-49.21708,-35.69527,12.39,-1.23,3.4,2.0
1758091069.18263,1758091050.93626,0.0,0.0,0.0,-25.8404,-55.7488,-43.54479,12.39,-1.23,3.4,2.0
1758091069.18798,1758091050.94626,0.0,0.0,0.0,-18.62113,-65.2599,-49.96192,12.82,-1.88,3.87,2.0
1758091069.2033,1758091050.95626,0.0,0.0,0.0,-14.9542,-72.88023,-50.3057,10.78,-2.02,3.8,2.0
1758091069.20597,1758091050.96626,0.0,0.0,0.0,-12.71966,-78.38063,-48.35764,10.78,-2.02,3.8,2.0
1758091069.22309,1758091050.97626,0.0,0.0,0.0,-12.2613,-79.18277,-44.57612,9.07,-1.42,3.71,2.0
1758091069.2282,1758091050.98626,0.0,0.0,0.0,-14.38124,-74.54182,-36.38282,9.07,-1.42,3.71,2.0
1758091069.24891,1758091050.99626,0.0,0.0,0.0,-17.76169,-65.89015,-30.30947,8.96,-0.7,3.55,2.0
1758091069.25326,1758091051.00626,0.0,0.0,0.0,-21.60051,-57.18119,-24.75178,8.96,-0.7,3.55,2.0
1758091069.25368,1758091051.01626,0.0,0.0,0.0,-25.55392,-50.363,-18.79302,8.99,0.05,2.64,2.0
1758091069.27338,1758091051.02626,0.0,0.0,0.0,-30.76784,-37.29956,-11.80293,9.47,0.32,1.93,2.0
1758091069.27553,1758091051.03626,0.0,0.0,0.0,-32.77319,-28.30412,-8.36518,9.47,0.32,1.93,2.0
1758091069.29015,1758091051.04626,0.0,0.0,0.0,-33.40344,-18.9649,-6.07335,10.49,0.19,1.55,2.0
1758091069.2931,1758091051.05626,0.0,0.0,0.0,-32.48671,-9.28192,-5.72958,10.49,0.19,1.55,2.0
1758091069.30812,1758091051.06626,0.0,0.0,0.0,-28.93437,5.55769,-7.44845,11.22,-0.3,1.39,2.0
1758091069.31369,1758091051.07626,0.0,0.0,0.0,-24.63719,14.38124,-7.44845,11.22,-0.3,1.39,2.0
1758091069.32915,1758091051.08626,0.0,0.0,0.0,-20.68378,26.18417,-8.76626,11.16,-1.26,1.28,2.0
1758091069.33278,1758091051.09626,0.0,0.0,0.0,-13.00614,38.50277,-8.93814,11.16,-1.26,1.28,2.0
1758091069.34814,1758091051.10626,0.0,0.0,0.0,-7.16197,43.54479,-7.62034,10.52,-2.31,1.24,2.0
1758091069.3534,1758091051.11626,0.0,0.0,0.0,-1.48969,45.03448,-5.78687,9.45,-2.98,1.07,2.0
1758091069.36915,1758091051.12626,0.0,0.0,0.0,3.32316,44.57612,-3.20856,9.45,-2.98,1.07,2.0
1758091069.37312,1758091051.13626,0.0,0.0,0.0,9.05273,42.05511,0.85944,8.84,-3.06,0.8,2.0
1758091069.38819,1758091051.14626,0.0,0.0,0.0,11.86023,38.78925,3.32316,8.84,-3.06,0.8,2.0
1758091069.39049,1758091051.15626,0.0,0.0,0.0,14.15206,34.37747,5.32851,8.75,-2.54,0.8,2.0
1758091069.40816,1758091051.16626,0.0,0.0,0.0,16.55848,28.99167,7.10468,8.75,-2.54,0.8,2.0
1758091069.41018,1758091051.17626,0.0,0.0,0.0,19.59516,23.20479,9.39651,8.75,-1.77,0.7,2.0
1758091069.42607,1758091051.18626,0.0,0.0,0.0,21.37133,21.42862,10.54242,9.26,-1.0,0.58,2.0
1758091069.44216,1758091051.19626,0.0,0.0,0.0,22.91831,20.11082,11.22997,9.26,-1.0,0.58,2.0
1758091069.44337,1758091051.20626,0.0,0.0,0.0,24.17882,17.81899,11.80293,9.32,-0.43,0.58,2.0
1758091069.45815,1758091051.21626,0.0,0.0,0.0,26.06958,13.23533,11.91752,9.32,-0.43,0.58,2.0
1758091069.4602,1758091051.22626,0.0,0.0,0.0,27.44468,10.48513,11.91752,9.14,-0.15,0.54,2.0
1758091069.47798,1758091051.23626,0.0,0.0,0.0,28.87707,9.39651,11.86023,9.14,-0.15,0.54,2.0
1758091069.4807,1758091051.24626,0.0,0.0,0.0,30.02299,10.02676,11.80293,9.34,-0.32,0.48,2.0
1758091069.50121,1758091051.25626,0.0,0.0,0.0,30.99702,10.37054,11.34457,9.25,-0.67,0.48,2.0
1758091069.50412,1758091051.26626,0.0,0.0,0.0,31.85646,12.08941,10.94349,9.25,-0.67,0.48,2.0
1758091069.52125,1758091051.27626,0.0,0.0,0.0,32.71589,15.46986,10.31324,9.37,-0.95,0.43,2.0
1758091069.52634,1758091051.28626,0.0,0.0,0.0,33.11696,21.7724,8.70896,9.37,-0.95,0.43,2.0
1758091069.54186,1758091051.29626,0.0,0.0,0.0,33.34615,25.38203,7.04738,9.43,-0.92,0.38,2.0
1758091069.54394,1758091051.30626,0.0,0.0,0.0,33.23156,27.44468,5.4431,9.43,-0.92,0.38,2.0
1758091069.56357,1758091051.31626,0.0,0.0,0.0,33.17426,27.84575,3.72423,9.1,-0.68,0.3,2.0
1758091069.56889,1758091051.32626,0.0,0.0,0.0,33.05967,26.41335,1.43239,9.1,-0.68,0.3,2.0
1758091069.58324,1758091051.33626,0.0,0.0,0.0,32.83048,23.72045,0.22918,8.79,-0.45,0.0,2.0
1758091069.586,1758091051.34626,0.0,0.0,0.0,33.23156,18.27736,-0.22918,8.63,-0.38,-0.14,2.0
1758091069.60122,1758091051.35626,0.0,0.0,0.0,33.40344,9.62569,-0.22918,8.63,-0.38,-0.14,2.0
1758091069.60399,1758091051.36626,0.0,0.0,0.0,33.51803,-9.91217,0.97403,8.36,-0.55,-0.11,2.0
1758091069.62279,1758091051.37626,0.0,0.0,0.0,34.09099,-22.28806,2.92208,8.36,-0.55,-0.11,2.0
1758091069.62401,1758091051.38626,0.0,0.0,0.0,32.54401,-22.91831,4.81285,9.1,-0.97,0.02,2.0
1758091069.64125,1758091051.39626,0.0,0.0,0.0,30.93972,-12.37589,8.0787,9.1,-0.97,0.02,2.0
1758091069.64347,1758091051.40626,0.0,0.0,0.0,24.17882,12.77696,14.09476,11.97,-1.03,1.29,2.0
1758091069.65813,1758091051.41626,0.0,0.0,0.0,22.11617,-1.66158,10.65701,10.59,-0.39,1.59,2.0
1758091069.66019,1758091051.42626,0.0,0.0,0.0,23.54857,-39.70598,13.69369,10.59,-0.39,1.59,2.0
1758091069.67628,1758091051.43626,0.0,0.0,0.0,29.73651,-70.6457,22.00158,7.59,-0.35,-1.05,2.0
1758091069.69326,1758091051.44626,0.0,0.0,0.0,29.62192,-40.39353,25.15285,7.59,-0.35,-1.05,2.0
1758091069.69598,1758091051.45626,0.0,0.0,0.0,25.89769,-16.10011,22.97561,13.91,0.11,-1.09,2.0
1758091069.71224,1758091051.46626,0.0,0.0,0.0,22.86102,-6.47442,19.70975,13.91,0.11,-1.09,2.0
1758091069.71588,1758091051.47626,0.0,0.0,0.0,17.24603,-2.6929,12.89155,11.42,0.36,-1.15,2.0
1758091069.73156,1758091051.48626,0.0,0.0,0.0,14.09476,4.52637,8.36518,10.92,-0.64,-0.46,2.0
1758091069.73801,1758091051.49626,0.0,0.0,0.0,11.91752,7.73493,4.98473,10.92,-0.64,-0.46,2.0
1758091069.75334,1758091051.50626,0.0,0.0,0.0,10.37054,8.70896,2.97938,11.17,-1.22,-1.03,2.0
1758091069.75692,1758091051.51626,0.0,0.0,0.0,9.85487,6.8182,2.97938,11.17,-1.22,-1.03,2.0
1758091069.77309,1758091051.52626,0.0,0.0,0.0,10.31324,6.70361,4.52637,11.38,-1.75,0.46,2.0
1758091069.7742,1758091051.53626,0.0,0.0,0.0,11.80293,1.20321,6.7609,11.38,-1.75,0.46,2.0
1758091069.7924,1758091051.54626,0.0,0.0,0.0,14.20935,-11.51645,8.0787,10.12,-1.68,0.77,2.0
1758091069.79323,1758091051.55626,0.0,0.0,0.0,21.08485,-28.99167,15.69904,9.24,-1.68,1.14,2.0
1758091069.80828,1758091051.56626,0.0,0.0,0.0,23.60586,-33.23156,21.31403,9.24,-1.46,1.14,2.0
1758091069.81024,1758091051.57626,0.0,0.0,0.0,24.23611,-36.84119,28.13223,11.27,-1.03,2.34,2.0
1758091069.82627,1758091051.58626,0.0,0.0,0.0,22.91831,-43.65939,34.43476,11.27,-1.03,2.34,2.0
1758091069.84353,1758091051.59626,0.0,0.0,0.0,18.22006,-52.19646,40.10705,10.97,-0.21,2.76,2.0
1758091069.84713,1758091051.60626,0.0,0.0,0.0,15.0115,-52.9986,41.25296,10.97,-0.21,2.76,2.0
1758091069.86229,1758091051.61626,0.0,0.0,0.0,12.49048,-50.99325,39.76327,9.43,0.48,2.41,2.0
1758091069.86344,1758091051.62626,0.0,0.0,0.0,10.94349,-46.35228,36.61201,9.43,0.48,2.41,2.0
1758091069.87852,1758091051.63626,0.0,0.0,0.0,10.71431,-35.2369,30.82513,8.24,0.79,2.69,2.0
1758091069.88055,1758091051.64626,0.0,0.0,0.0,11.86023,-25.7831,25.7831,8.56,0.55,2.91,2.0
1758091069.89802,1758091051.65626,0.0,0.0,0.0,13.40721,-14.20935,19.99623,8.56,0.55,2.91,2.0
1758091069.89952,1758091051.66626,0.0,0.0,0.0,15.12609,-3.60963,12.89155,9.84,0.0,2.29,2.0
1758091069.91536,1758091051.67626,0.0,0.0,0.0,16.61578,9.28192,9.05273,9.84,0.0,2.29,2.0
1758091069.91958,1758091051.68626,0.0,0.0,0.0,16.38659,16.3293,6.35983,11.4,-0.56,1.99,2.0
1758091069.93554,1758091051.69626,0.0,0.0,0.0,14.66772,23.83505,4.18259,11.4,-0.56,1.99,2.0
1758091069.95354,1758091051.70626,0.0,0.0,0.0,9.96947,34.49206,2.57831,12.24,-0.69,1.55,2.0
1758091069.95559,1758091051.71626,0.0,0.0,0.0,5.90147,41.13837,2.11994,12.03,-0.44,1.63,2.0
1758091069.97113,1758091051.72626,0.0,0.0,0.0,1.60428,46.1804,1.43239,12.03,-0.44,1.63,2.0
1758091069.97323,1758091051.73626,0.0,0.0,0.0,-2.29183,47.03984,0.17189,10.84,0.07,1.71,2.0
1758091069.98854,1758091051.74626,0.0,0.0,0.0,-7.44845,43.37291,-2.11994,10.84,0.07,1.71,2.0
1758091069.98945,1758091051.75626,0.0,0.0,0.0,-9.96947,41.76862,-4.29718,10.03,0.61,1.5,2.0
1758091070.0075,1758091051.76626,0.0,0.0,0.0,-12.08941,39.53409,-6.8182,10.03,0.61,1.5,2.0
1758091070.01035,1758091051.77626,0.0,0.0,0.0,-13.46451,36.38282,-9.22462,9.97,0.95,1.3,2.0
1758091070.02625,1758091051.78626,0.0,0.0,0.0,-15.0115,31.79916,-12.60507,9.82,0.92,1.3,2.0
1758091070.04351,1758091051.79626,0.0,0.0,0.0,-15.64175,29.04896,-14.72501,9.82,0.92,1.3,2.0
1758091070.04445,1758091051.80626,0.0,0.0,0.0,-16.272,26.87172,-16.3293,9.84,0.56,1.27,2.0
1758091070.06153,1758091051.81626,0.0,0.0,0.0,-16.95955,24.23611,-17.81899,9.84,0.56,1.27,2.0
1758091070.06814,1758091051.82626,0.0,0.0,0.0,-18.50654,20.45459,-19.19409,9.74,0.05,1.27,2.0
1758091070.07011,1758091051.83626,0.0,0.0,0.0,-19.70975,19.19409,-19.59516,9.74,0.05,1.27,2.0
1758091070.08852,1758091051.84626,0.0,0.0,0.0,-21.02755,18.90761,-19.53786,9.5,-0.35,1.15,2.0
1758091070.08939,1758091051.85626,0.0,0.0,0.0,-22.34536,18.73572,-19.19409,9.5,-0.35,1.15,2.0
1758091070.1071,1758091051.86626,0.0,0.0,0.0,-23.89234,16.67307,-17.81899,9.12,-0.56,1.09,2.0
1758091070.12253,1758091051.87626,0.0,0.0,0.0,-24.86637,14.83961,-17.13144,8.7,-0.5,1.01,2.0
1758091070.12369,1758091051.88626,0.0,0.0,0.0,-25.72581,13.5791,-15.64175,8.7,-0.5,1.01,2.0
1758091070.13853,1758091051.89626,0.0,0.0,0.0,-26.64254,12.204,-14.09476,8.67,-0.3,0.91,2.0
1758091070.14025,1758091051.90626,0.0,0.0,0.0,-27.1582,13.75099,-13.17803,8.67,-0.3,0.91,2.0
1758091070.15806,1758091051.91626,0.0,0.0,0.0,-27.61657,17.53251,-11.97482,9.0,-0.17,0.81,2.0
1758091070.1636,1758091051.92626,0.0,0.0,0.0,-27.84575,20.45459,-10.37054,9.0,-0.17,0.81,2.0
1758091070.18033,1758091051.93626,0.0,0.0,0.0,-28.64789,17.99088,-8.65166,9.04,-0.19,0.85,2.0
1758091070.18124,1758091051.94626,0.0,0.0,0.0,-29.27814,14.38124,-7.62034,8.47,-0.14,0.65,2.0
1758091070.19624,1758091051.95626,0.0,0.0,0.0,-30.25217,10.08406,-7.21927,8.47,-0.14,0.65,2.0
1758091070.21337,1758091051.96626,0.0,0.0,0.0,-31.11161,4.64096,-6.70361,8.35,-0.07,0.21,2.0
1758091070.21448,1758091051.97626,0.0,0.0,0.0,-32.48671,-3.66693,-6.35983,8.35,-0.07,0.21,2.0
1758091070.23011,1758091051.98626,0.0,0.0,0.0,-33.40344,-9.62569,-6.58902,8.46,-0.09,0.14,2.0
1758091070.23365,1758091051.99626,0.0,0.0,0.0,-34.09099,-16.95955,-6.99009,8.46,-0.09,0.14,2.0
1758091070.25197,1758091052.00626,0.0,0.0,0.0,-34.09099,-25.8404,-7.73493,8.61,-0.21,0.13,2.0
1758091070.25481,1758091052.01626,0.0,0.0,0.0,-34.0337,-34.89313,-9.62569,9.28,-0.29,0.26,2.0
1758091070.27036,1758091052.02626,0.0,0.0,0.0,-33.9764,-32.88778,-9.85487,9.28,-0.29,0.26,2.0
1758091070.27293,1758091052.03626,0.0,0.0,0.0,-35.2369,-18.62113,-10.08406,11.6,-0.5,0.51,2.0
1758091070.28852,1758091052.04626,0.0,0.0,0.0,-34.26288,-19.88164,-8.36518,11.6,-0.5,0.51,2.0
1758091070.29028,1758091052.05626,0.0,0.0,0.0,-38.27358,-31.56997,-12.49048,10.46,-0.62,0.52,2.0
1758091070.30728,1758091052.06626,0.0,0.0,0.0,-40.33623,-29.67921,-15.35527,10.46,-0.62,0.52,2.0
1758091070.32331,1758091052.07626,0.0,0.0,0.0,-42.34158,-21.08485,-17.13144,10.93,-0.64,-0.86,2.0
1758091070.32627,1758091052.08626,0.0,0.0,0.0,-43.88857,-8.42248,-14.78231,10.93,-0.64,-0.86,2.0
1758091070.3423,1758091052.09626,0.0,0.0,0.0,-43.65939,12.60507,-11.57375,11.78,-0.86,-1.26,2.0
1758091070.34303,1758091052.10626,0.0,0.0,0.0,-42.51347,20.11082,-7.50575,11.18,-0.93,-0.84,2.0
1758091070.35829,1758091052.11626,0.0,0.0,0.0,-41.31026,21.7151,-3.26586,11.18,-0.93,-0.84,2.0
1758091070.35976,1758091052.12626,0.0,0.0,0.0,-40.27893,24.57989,1.3751,10.58,-0.64,-0.88,2.0
1758091070.37766,1758091052.13626,0.0,0.0,0.0,-39.4195,25.8404,3.55234,10.58,-0.64,-0.88,2.0
1758091070.39329,1758091052.14626,0.0,0.0,0.0,-38.50277,23.60586,4.58366,11.2,-0.37,-0.32,2.0
1758091070.39683,1758091052.15626,0.0,0.0,0.0,-37.35685,16.84496,3.66693,11.2,-0.37,-0.32,2.0
1758091070.41362,1758091052.16626,0.0,0.0,0.0,-35.3515,-0.40107,0.0,10.8,-0.29,0.58,2.0
1758091070.41661,1758091052.17626,0.0,0.0,0.0,-34.60666,-13.46451,-4.87014,10.27,-0.28,0.87,2.0
1758091070.43322,1758091052.18626,0.0,0.0,0.0,-33.80451,-22.00158,-11.11538,10.27,-0.28,0.87,2.0
1758091070.43389,1758091052.19626,0.0,0.0,0.0,-32.48671,-27.04361,-17.18874,10.97,-0.37,1.19,2.0
1758091070.45019,1758091052.20626,0.0,0.0,0.0,-29.96569,-32.14294,-25.72581,10.97,-0.37,1.19,2.0
1758091070.45297,1758091052.21626,0.0,0.0,0.0,-26.87172,-33.9764,-30.25217,11.83,-0.86,2.25,2.0
1758091070.46861,1758091052.22626,0.0,0.0,0.0,-22.91831,-37.12767,-33.46074,11.83,-0.86,2.25,2.0
1758091070.46951,1758091052.23626,0.0,0.0,0.0,-18.50654,-42.22699,-35.12231,11.96,-1.49,2.74,2.0
1758091070.48763,1758091052.24626,0.0,0.0,0.0,-12.43318,-50.87865,-33.34615,10.46,-1.38,2.5,2.0
1758091070.5034,1758091052.25626,0.0,0.0,0.0,-9.4538,-54.66018,-29.56462,10.46,-1.38,2.5,2.0
1758091070.50407,1758091052.26626,0.0,0.0,0.0,-8.0787,-54.431,-24.5226,9.04,-0.75,2.43,2.0
1758091070.52166,1758091052.27626,0.0,0.0,0.0,-8.88085,-49.90463,-17.24603,9.04,-0.75,2.43,2.0
1758091070.52256,1758091052.28626,0.0,0.0,0.0,-13.12073,-43.54479,-12.83425,8.52,-0.19,2.82,2.0
1758091070.53729,1758091052.29626,0.0,0.0,0.0,-17.53251,-37.92981,-9.68299,8.52,-0.19,2.82,2.0
1758091070.5533,1758091052.30626,0.0,0.0,0.0,-22.23076,-31.85646,-8.25059,8.46,0.35,2.56,2.0
1758091070.55414,1758091052.31626,0.0,0.0,0.0,-28.41871,-21.94428,-9.05273,8.46,0.35,2.56,2.0
1758091070.57037,1758091052.32626,0.0,0.0,0.0,-31.51268,-16.55848,-10.94349,9.08,0.69,1.94,2.0
1758091070.573,1758091052.33626,0.0,0.0,0.0,-32.48671,-11.11538,-12.83425,10.11,0.49,1.64,2.0
1758091070.58838,1758091052.34626,0.0,0.0,0.0,-31.97105,-3.60963,-14.78231,10.11,0.49,1.64,2.0
1758091070.59035,1758091052.35626,0.0,0.0,0.0,-27.96034,10.02676,-15.98552,11.35,-0.26,1.4,2.0
1758091070.60738,1758091052.36626,0.0,0.0,0.0,-23.94964,19.76705,-15.24068,11.35,-0.26,1.4,2.0
1758091070.62335,1758091052.37626,0.0,0.0,0.0,-19.36597,28.07493,-13.40721,11.46,-1.29,1.22,2.0
1758091070.62406,1758091052.38626,0.0,0.0,0.0,-14.03747,35.3515,-10.54242,11.46,-1.29,1.22,2.0
1758091070.64249,1758091052.39626,0.0,0.0,0.0,-6.07335,43.02913,-4.98473,10.92,-2.31,1.24,2.0
1758091070.64417,1758091052.40626,0.0,0.0,0.0,-1.43239,44.28964,-1.08862,10.16,-2.86,1.04,2.0
1758091070.66014,1758091052.41626,0.0,0.0,0.0,2.57831,43.31561,2.6929,10.16,-2.86,1.04,2.0
1758091070.6622,1758091052.42626,0.0,0.0,0.0,5.4431,40.96649,5.84417,9.57,-2.64,0.69,2.0
1758091070.67765,1758091052.43626,0.0,0.0,0.0,8.65166,36.03905,8.76626,9.57,-2.64,0.69,2.0
1758091070.69336,1758091052.44626,0.0,0.0,0.0,10.37054,31.79916,10.08406,9.31,-1.96,0.61,2.0
1758091070.69628,1758091052.45626,0.0,0.0,0.0,12.08941,28.76248,10.8862,9.31,-1.96,0.61,2.0
1758091070.71363,1758091052.46626,0.0,0.0,0.0,13.12073,28.59059,11.28727,9.39,-1.3,0.54,2.0
1758091070.71405,1758091052.47626,0.0,0.0,0.0,15.24068,29.62192,12.37589,9.47,-0.85,0.55,2.0
1758091070.73034,1758091052.48626,0.0,0.0,0.0,16.272,26.64254,12.89155,9.47,-0.85,0.55,2.0
1758091070.73166,1758091052.49626,0.0,0.0,0.0,16.67307,22.57454,13.00614,8.75,-0.57,0.41,2.0
1758091070.74659,1758091052.50626,0.0,0.0,0.0,16.95955,22.00158,12.2613,8.75,-0.57,0.41,2.0
1758091070.7632,1758091052.51626,0.0,0.0,0.0,16.90226,22.86102,11.74564,9.22,-0.38,0.37,2.0
1758091070.76374,1758091052.52626,0.0,0.0,0.0,16.67307,22.63183,10.65701,9.22,-0.38,0.37,2.0
1758091070.78231,1758091052.53626,0.0,0.0,0.0,16.95955,22.63183,9.68299,9.08,-0.33,0.5,2.0
1758091070.78288,1758091052.54626,0.0,0.0,0.0,17.53251,20.68378,8.42248,9.08,-0.33,0.5,2.0
1758091070.79836,1758091052.55626,0.0,0.0,0.0,17.93358,18.50654,7.84952,8.84,-0.43,0.62,2.0
1758091070.79961,1758091052.56626,0.0,0.0,0.0,18.62113,16.61578,7.62034,8.76,-0.6,0.49,2.0
1758091070.81625,1758091052.57626,0.0,0.0,0.0,19.42327,16.84496,7.44845,8.76,-0.6,0.49,2.0
1758091070.83367,1758091052.58626,0.0,0.0,0.0,20.22541,20.79837,6.8182,9.31,-0.7,0.36,2.0
1758091070.83411,1758091052.59626,0.0,0.0,0.0,20.51189,23.72045,5.95876,9.31,-0.7,0.36,2.0
1758091070.85028,1758091052.60626,0.0,0.0,0.0,20.97026,25.55392,4.87014,9.59,-0.58,0.4,2.0
1758091070.85388,1758091052.61626,0.0,0.0,0.0,21.31403,25.26744,3.55234,9.59,-0.58,0.4,2.0
1758091070.87061,1758091052.62626,0.0,0.0,0.0,21.6578,22.23076,1.60428,9.19,-0.4,0.18,2.0
1758091070.87378,1758091052.63626,0.0,0.0,0.0,22.00158,18.44924,0.51566,8.81,-0.36,-0.12,2.0
1758091070.8903,1758091052.64626,0.0,0.0,0.0,22.28806,13.23533,-0.0573,8.81,-0.36,-0.12,2.0
1758091070.8934,1758091052.65626,0.0,0.0,0.0,23.0902,5.90147,0.0573,8.54,-0.48,-0.04,2.0
1758091070.90875,1758091052.66625,0.0,0.0,0.0,23.83505,-11.97482,1.3178,8.54,-0.48,-0.04,2.0
1758091070.91074,1758091052.67625,0.0,0.0,0.0,23.60586,-25.61122,2.23454,8.16,-0.78,-0.02,2.0
1758091070.9263,1758091052.68625,0.0,0.0,0.0,23.54857,-34.95043,4.29718,8.16,-0.78,-0.02,2.0
1758091070.94326,1758091052.69625,0.0,0.0,0.0,21.14215,-33.68992,10.08406,9.42,-1.22,0.28,2.0
1758091070.94372,1758091052.70625,0.0,0.0,0.0,18.27736,-12.204,13.69369,12.41,-1.14,1.2,2.0
1758091070.96367,1758091052.71625,0.0,0.0,0.0,15.98552,4.35448,15.75634,12.41,-1.14,1.2,2.0
1758091070.96821,1758091052.72625,0.0,0.0,0.0,15.69904,3.72423,10.8862,11.04,-0.55,0.98,2.0
1758091070.98734,1758091052.73625,0.0,0.0,0.0,21.60051,-44.17505,12.89155,11.04,-0.55,0.98,2.0
1758091070.98799,1758091052.74625,0.0,0.0,0.0,26.18417,-55.97798,19.82434,7.44,-0.56,-1.17,2.0
1758091071.00376,1758091052.75625,0.0,0.0,0.0,25.38203,-36.6693,20.85567,7.44,-0.56,-1.17,2.0
1758091071.00672,1758091052.76625,0.0,0.0,0.0,25.21014,-15.98552,21.88699,13.19,-1.02,-0.59,2.0
1758091071.02367,1758091052.77625,0.0,0.0,0.0,23.26209,-8.42248,19.25138,11.89,-1.02,-0.12,2.0
1758091071.02408,1758091052.78625,0.0,0.0,0.0,20.51189,-7.04738,16.61578,11.89,-0.97,-0.12,2.0
1758091071.04358,1758091052.79625,0.0,0.0,0.0,17.47521,-7.16197,13.5218,10.85,-1.5,0.71,2.0
1758091071.0464,1758091052.80625,0.0,0.0,0.0,15.58445,-11.51645,11.45916,10.85,-1.5,0.71,2.0
1758091071.04763,1758091052.81625,0.0,0.0,0.0,14.32395,-19.82434,11.28727,10.18,-1.82,0.25,2.0
1758091071.06302,1758091052.82625,0.0,0.0,0.0,13.86558,-19.53786,11.97482,10.18,-1.82,0.25,2.0
1758091071.07872,1758091052.83625,0.0,0.0,0.0,14.83961,-24.17882,14.83961,11.35,-1.41,1.3,2.0
1758091071.0799,1758091052.84625,0.0,0.0,0.0,15.41257,-29.56462,19.42327,11.35,-1.41,1.3,2.0
1758091071.09594,1758091052.85625,0.0,0.0,0.0,14.38124,-35.3515,28.07493,11.81,-0.76,2.28,2.0
1758091071.09795,1758091052.86625,0.0,0.0,0.0,13.06344,-40.16434,34.89313,12.3,-0.05,2.83,2.0
1758091071.11405,1758091052.87625,0.0,0.0,0.0,11.34457,-44.00316,39.64868,12.3,-0.05,2.83,2.0
1758091071.13029,1758091052.88625,0.0,0.0,0.0,10.37054,-45.83662,42.39888,10.55,0.32,2.38,2.0
1758091071.13308,1758091052.89625,0.0,0.0,0.0,10.25595,-44.23235,41.59674,10.55,0.32,2.38,2.0
1758091071.14869,1758091052.90625,0.0,0.0,0.0,10.8862,-40.27893,38.50277,8.71,0.06,2.44,2.0
1758091071.14963,1758091052.91625,0.0,0.0,0.0,13.00614,-34.43476,34.72124,8.71,0.06,2.44,2.0
1758091071.16683,1758091052.92625,0.0,0.0,0.0,17.58981,-22.63183,27.78845,8.07,-0.38,2.67,2.0
1758091071.16806,1758091052.93625,0.0,0.0,0.0,21.02755,-13.34992,22.86102,8.61,-0.73,2.75,2.0
1758091071.18649,1758091052.94625,0.0,0.0,0.0,23.89234,-2.40642,17.81899,8.61,-0.73,2.75,2.0
1758091071.18879,1758091052.95625,0.0,0.0,0.0,25.89769,6.58902,13.06344,10.14,-0.8,2.31,2.0
1758091071.20404,1758091052.96625,0.0,0.0,0.0,26.41335,17.30333,7.10468,10.14,-0.8,2.31,2.0
1758091071.22265,1758091052.97625,0.0,0.0,0.0,25.09555,23.60586,4.46907,11.39,-0.6,1.87,2.0
1758091071.22752,1758091052.98625,0.0,0.0,0.0,22.57454,30.53865,2.63561,11.39,-0.6,1.87,2.0
1758091071.2281,1758091052.99625,0.0,0.0,0.0,19.07949,37.52874,1.77617,12.04,-0.21,1.46,2.0
1758091071.24805,1758091053.00625,0.0,0.0,0.0,12.71966,47.03984,1.08862,11.68,0.2,1.77,2.0
1758091071.24885,1758091053.01625,0.0,0.0,0.0,8.30789,49.33167,0.17189,11.68,0.2,1.77,2.0
1758091071.26569,1758091053.02625,0.0,0.0,0.0,3.83882,48.58683,-1.08862,10.44,0.65,1.8,2.0
1758091071.2817,1758091053.03625,0.0,0.0,0.0,0.17189,44.63341,-2.57831,10.44,0.65,1.8,2.0
1758091071.2827,1758091053.04625,0.0,0.0,0.0,-4.0107,39.64868,-5.09932,9.81,0.99,1.58,2.0
1758091071.29775,1758091053.05625,0.0,0.0,0.0,-6.07335,36.55471,-7.33386,9.81,0.99,1.58,2.0
1758091071.29869,1758091053.06625,0.0,0.0,0.0,-7.73493,33.86181,-9.91217,9.79,1.08,1.42,2.0
1758091071.31596,1758091053.07625,0.0,0.0,0.0,-8.76626,31.16891,-12.71966,9.79,1.08,1.42,2.0
