timeStamp,timeStampAlign,roll,pitch,yaw,gyro_x,gyro_y,gyro_z,acc_x,acc_y,acc_z,flag_num
1758079567.40658,1758079567.15699,0.0,0.0,0.0,8.02141,1.60428,-5.61499,8.98,-0.37,0.46,2.0
1758079567.40849,1758079567.16699,0.0,0.0,0.0,8.136,-2.92208,-5.72958,8.98,-0.37,0.46,2.0
1758079567.40908,1758079567.17699,0.0,0.0,0.0,7.73493,-10.25595,-5.78687,8.89,-0.16,0.02,2.0
1758079567.41117,1758079567.18699,0.0,0.0,0.0,7.04738,-15.35527,-6.58902,8.89,-0.16,0.02,2.0
1758079567.42684,1758079567.19699,0.0,0.0,0.0,7.39116,-14.66772,-6.70361,8.81,-0.08,-0.69,2.0
1758079567.428,1758079567.20699,0.0,0.0,0.0,7.10468,-8.42248,-7.62034,9.73,-0.28,-0.71,2.0
1758079567.44302,1758079567.21699,0.0,0.0,0.0,8.47978,0.0573,-5.72958,9.73,-0.28,-0.71,2.0
1758079567.4446,1758079567.22699,0.0,0.0,0.0,8.47978,11.74564,-6.41713,10.47,-0.39,-0.15,2.0
1758079567.46241,1758079567.23699,0.0,0.0,0.0,8.02141,26.35606,-8.59437,10.47,-0.39,-0.15,2.0
1758079567.48828,1758079567.24699,0.0,0.0,0.0,9.11003,20.62648,-13.23533,10.38,-0.3,0.49,2.0
1758079567.48891,1758079567.25699,0.0,0.0,0.0,9.5684,-20.45459,-13.5791,10.38,-0.3,0.49,2.0
1758079567.49094,1758079567.26699,0.0,0.0,0.0,14.38124,-48.8733,-8.99544,7.15,-0.43,-0.56,2.0
1758079567.51398,1758079567.27699,0.0,0.0,0.0,19.19409,-49.67545,-2.23454,11.39,-1.04,-1.95,2.0
1758079567.51834,1758079567.28699,0.0,0.0,0.0,20.34,-48.07116,0.57296,11.39,-1.04,-1.95,2.0
1758079567.52145,1758079567.29699,0.0,0.0,0.0,22.00158,-48.52953,3.26586,11.36,-1.06,-1.63,2.0
1758079567.52435,1758079567.30699,0.0,0.0,0.0,21.94428,-48.07116,3.38045,11.36,-1.06,-1.63,2.0
1758079567.54032,1758079567.31699,0.0,0.0,0.0,20.16812,-47.61279,0.51566,11.4,-0.57,0.63,2.0
1758079567.55632,1758079567.32699,0.0,0.0,0.0,16.73037,-48.24305,-3.60963,11.4,-0.57,0.63,2.0
1758079567.55888,1758079567.33699,0.0,0.0,0.0,11.86023,-48.01387,-7.50575,11.48,0.42,0.62,2.0
1758079567.59789,1758079567.34699,0.0,0.0,0.0,0.74485,-48.58683,-10.25595,11.48,0.42,0.62,2.0
1758079567.59881,1758079567.35699,0.0,0.0,0.0,-7.62034,-55.6342,-8.02141,12.81,1.46,1.75,2.0
1758079567.59942,1758079567.36699,0.0,0.0,0.0,-14.38124,-63.8275,-2.40642,13.61,2.06,3.23,2.0
1758079567.60229,1758079567.37699,0.0,0.0,0.0,-19.19409,-69.15601,4.92744,13.61,2.06,3.23,2.0
1758079567.61712,1758079567.38699,0.0,0.0,0.0,-23.60586,-61.76485,10.37054,13.81,1.38,2.28,2.0
1758079567.61833,1758079567.39699,0.0,0.0,0.0,-25.49662,-52.13916,9.85487,13.81,1.38,2.28,2.0
1758079567.6333,1758079567.40699,0.0,0.0,0.0,-25.09555,-43.65939,8.25059,11.87,0.53,1.31,2.0
1758079567.63429,1758079567.41699,0.0,0.0,0.0,-22.11617,-35.40879,6.18794,11.87,0.53,1.31,2.0
1758079567.65336,1758079567.42699,0.0,0.0,0.0,-13.46451,-25.55392,2.7502,9.57,-0.01,2.8,2.0
1758079567.65431,1758079567.43699,0.0,0.0,0.0,-6.24524,-19.82434,0.85944,8.97,-0.43,2.75,2.0
1758079567.67297,1758079567.44699,0.0,0.0,0.0,0.97403,-11.28727,-0.0573,8.97,-0.43,2.75,2.0
1758079567.68833,1758079567.45699,0.0,0.0,0.0,7.21927,-1.94806,-0.80214,11.05,-0.84,2.18,2.0
1758079567.68933,1758079567.46699,0.0,0.0,0.0,13.12073,6.99009,-2.57831,11.05,-0.84,2.18,2.0
1758079567.74711,1758079567.47699,0.0,0.0,0.0,14.09476,14.66772,-3.38045,12.15,-0.52,1.9,2.0
1758079567.74822,1758079567.48699,0.0,0.0,0.0,12.83425,26.06958,-3.89611,12.15,-0.52,1.9,2.0
1758079567.74886,1758079567.49699,0.0,0.0,0.0,9.68299,37.58603,-4.23989,12.57,0.19,0.84,2.0
1758079567.75095,1758079567.50699,0.0,0.0,0.0,3.26586,53.97263,-4.69825,11.37,0.98,0.35,2.0
1758079567.7535,1758079567.51699,0.0,0.0,0.0,-1.20321,61.76485,-4.35448,11.37,0.98,0.35,2.0
1758079567.78152,1758079567.52699,0.0,0.0,0.0,-6.47442,67.03606,-4.35448,9.8,1.87,0.3,2.0
1758079567.78392,1758079567.53699,0.0,0.0,0.0,-13.98017,66.635,-5.50039,9.8,1.87,0.3,2.0
1758079567.78432,1758079567.54699,0.0,0.0,0.0,-19.19409,63.02536,-6.70361,8.22,2.48,0.39,2.0
1758079567.78866,1758079567.55699,0.0,0.0,0.0,-24.23611,60.44705,-8.0787,8.22,2.48,0.39,2.0
1758079567.78949,1758079567.56699,0.0,0.0,0.0,-28.99167,57.29578,-9.39651,7.77,2.57,0.7,2.0
1758079567.81214,1758079567.57699,0.0,0.0,0.0,-35.69527,53.39967,-11.86023,7.77,2.57,0.26,2.0
1758079567.81561,1758079567.58699,0.0,0.0,0.0,-39.70598,49.96192,-13.46451,7.96,2.41,0.26,2.0
1758079567.81598,1758079567.59699,0.0,0.0,0.0,-43.37291,47.03984,-14.61043,8.24,1.99,0.01,2.0
1758079567.83295,1758079567.60699,0.0,0.0,0.0,-46.98254,42.34158,-15.92823,8.24,1.99,0.01,2.0
1758079567.83416,1758079567.61699,0.0,0.0,0.0,-51.73809,34.26288,-17.81899,8.39,1.47,0.21,2.0
1758079567.85122,1758079567.62699,0.0,0.0,0.0,-54.88936,30.88243,-18.90761,8.39,1.47,0.21,2.0
1758079567.8672,1758079567.63699,0.0,0.0,0.0,-57.41038,28.30412,-19.59516,8.79,1.1,0.37,2.0
1758079567.86838,1758079567.64699,0.0,0.0,0.0,-59.12925,24.86637,-20.05352,8.79,1.1,0.37,2.0
1758079567.88323,1758079567.65699,0.0,0.0,0.0,-61.36378,18.73572,-19.99623,8.81,0.89,0.64,2.0
1758079567.88438,1758079567.66699,0.0,0.0,0.0,-62.39511,13.46451,-19.53786,8.72,0.77,0.69,2.0
1758079567.90247,1758079567.67699,0.0,0.0,0.0,-62.56699,8.02141,-18.56383,8.72,0.77,0.69,2.0
1758079567.91848,1758079567.68699,0.0,0.0,0.0,-62.91077,1.60428,-17.58981,8.71,0.73,0.55,2.0
1758079567.91969,1758079567.69699,0.0,0.0,0.0,-63.25455,-3.72423,-15.58445,8.71,0.73,0.55,2.0
1758079567.93453,1758079567.70699,0.0,0.0,0.0,-63.54102,-6.13065,-14.32395,9.01,0.62,0.25,2.0
1758079567.93541,1758079567.71699,0.0,0.0,0.0,-63.59832,-6.58902,-13.00614,9.01,0.62,0.25,2.0
1758079567.95054,1758079567.72699,0.0,0.0,0.0,-63.19725,-7.67763,-11.22997,9.1,0.47,0.34,2.0
1758079567.96633,1758079567.73699,0.0,0.0,0.0,-62.62429,-13.40721,-10.08406,8.67,0.31,0.2,2.0
1758079567.96744,1758079567.74699,0.0,0.0,0.0,-61.30648,-20.74107,-8.76626,8.67,0.31,0.2,2.0
1758079567.98246,1758079567.75699,0.0,0.0,0.0,-59.75951,-26.12688,-7.79223,8.33,0.31,-0.21,2.0
1758079567.99852,1758079567.76699,0.0,0.0,0.0,-57.12389,-33.63263,-5.61499,8.33,0.31,-0.21,2.0
1758079567.9994,1758079567.77699,0.0,0.0,0.0,-55.11855,-37.64333,-4.18259,8.55,0.29,-0.91,2.0
1758079568.01828,1758079567.78699,0.0,0.0,0.0,-55.34772,-37.92981,-1.3178,8.55,0.29,-0.91,2.0
1758079568.01945,1758079567.79699,0.0,0.0,0.0,-56.49364,-23.31938,-0.17189,9.7,0.5,-0.5,2.0
1758079568.03506,1758079567.80699,0.0,0.0,0.0,-55.00395,11.63104,-1.71887,12.08,0.5,0.24,2.0
1758079568.03658,1758079567.81699,0.0,0.0,0.0,-55.06125,23.31938,0.97403,12.08,0.69,0.24,2.0
1758079568.05152,1758079567.82699,0.0,0.0,0.0,-55.51962,1.43239,0.34377,9.32,1.06,0.95,2.0
1758079568.06829,1758079567.83699,0.0,0.0,0.0,-57.18119,-12.204,0.0,9.32,1.06,0.95,2.0
1758079568.07062,1758079567.84699,0.0,0.0,0.0,-61.07731,-25.7831,-2.57831,9.67,1.65,0.12,2.0
1758079568.08555,1758079567.85699,0.0,0.0,0.0,-63.48372,-29.39274,-3.89611,9.67,1.65,0.12,2.0
1758079568.08719,1758079567.86699,0.0,0.0,0.0,-65.2026,-30.19488,-4.46907,10.66,1.82,-2.27,2.0
1758079568.10258,1758079567.87699,0.0,0.0,0.0,-66.74959,-30.48136,-4.35448,10.66,1.82,-2.27,2.0
1758079568.1042,1758079567.88699,0.0,0.0,0.0,-66.635,-30.30947,-1.66158,10.88,1.69,-1.02,2.0
1758079568.12215,1758079567.89699,0.0,0.0,0.0,-65.37449,-30.88243,0.80214,10.76,1.15,-0.84,2.0
1758079568.139,1758079567.90699,0.0,0.0,0.0,-63.25455,-32.20023,3.03668,10.76,1.15,-0.84,2.0
1758079568.14254,1758079567.91699,0.0,0.0,0.0,-60.79083,-34.95043,4.69825,10.87,0.64,-0.16,2.0
1758079568.15835,1758079567.92699,0.0,0.0,0.0,-56.14987,-45.37826,3.89611,10.87,0.64,-0.16,2.0
1758079568.15929,1758079567.93699,0.0,0.0,0.0,-52.19646,-55.11855,0.34377,11.91,0.32,1.26,2.0
1758079568.17611,1758079567.94699,0.0,0.0,0.0,-47.32632,-62.39511,-6.24524,11.91,0.32,1.26,2.0
1758079568.17883,1758079567.95699,0.0,0.0,0.0,-38.56006,-61.76485,-17.01685,16.1,-1.18,4.04,2.0
1758079568.20261,1758079567.96699,0.0,0.0,0.0,-31.74186,-52.9986,-19.25138,18.19,-2.81,2.61,2.0
1758079568.20381,1758079567.97699,0.0,0.0,0.0,-25.15285,-46.2377,-15.0115,18.19,-2.81,2.61,2.0
1758079568.20633,1758079567.98699,0.0,0.0,0.0,-20.22541,-48.58683,-8.25059,12.51,-1.02,1.28,2.0
1758079568.22266,1758079567.99699,0.0,0.0,0.0,-17.99088,-54.60288,-0.22918,12.51,-1.02,1.28,2.0
1758079568.2383,1758079568.00699,0.0,0.0,0.0,-21.88699,-53.74345,2.23454,8.58,0.49,1.45,2.0
1758079568.24065,1758079568.01699,0.0,0.0,0.0,-29.9084,-49.21708,3.83882,8.58,0.49,1.45,2.0
1758079568.25834,1758079568.02699,0.0,0.0,0.0,-41.99781,-45.77933,3.83882,8.51,1.47,3.37,2.0
1758079568.26751,1758079568.03699,0.0,0.0,0.0,-62.85347,-40.50812,2.29183,9.04,2.49,3.68,2.0
1758079568.26811,1758079568.04699,0.0,0.0,0.0,-80.38599,-36.03905,0.68755,9.04,2.49,3.68,2.0
1758079568.28517,1758079568.05699,0.0,0.0,0.0,-19.13679,-58.15522,-0.57296,9.8,2.7,2.07,2.0
1758079568.28633,1758079568.06699,0.0,0.0,0.0,-61.99404,-45.72203,-1.71887,9.8,2.7,2.07,2.0
1758079568.30129,1758079568.07699,0.0,0.0,0.0,-100.32492,-14.72501,-3.32316,10.74,1.73,0.89,2.0
1758079568.3184,1758079568.08699,0.0,0.0,0.0,-99.75195,-2.23454,-3.89611,10.74,1.73,0.89,2.0
1758079568.31932,1758079568.09699,0.0,0.0,0.0,-97.28824,10.65701,-4.92744,11.2,0.16,0.04,2.0
1758079568.3346,1758079568.10699,0.0,0.0,0.0,-93.10565,20.79837,-5.72958,11.2,0.16,0.04,2.0
1758079568.33825,1758079568.11699,0.0,0.0,0.0,-84.28209,32.14294,-5.95876,10.38,-1.41,-0.29,2.0
1758079568.35336,1758079568.12699,0.0,0.0,0.0,-77.92226,39.13302,-4.98473,9.71,-2.48,-0.77,2.0
1758079568.35643,1758079568.13699,0.0,0.0,0.0,-71.67702,44.748,-3.32316,9.71,-2.48,-0.77,2.0
1758079568.37235,1758079568.14699,0.0,0.0,0.0,-62.33781,48.9879,-0.34377,9.08,-2.64,-0.45,2.0
1758079568.3887,1758079568.15699,0.0,0.0,0.0,-56.37905,55.29043,1.20321,9.08,-2.64,-0.45,2.0
1758079568.39038,1758079568.16699,0.0,0.0,0.0,-51.27972,58.09792,2.34913,8.79,-2.17,-0.18,2.0
1758079568.40726,1758079568.17699,0.0,0.0,0.0,-47.44091,59.75951,2.11994,8.79,-2.17,-0.18,2.0
1758079568.40817,1758079568.18699,0.0,0.0,0.0,-43.60209,61.42108,0.57296,8.74,-1.47,-0.14,2.0
1758079568.42339,1758079568.19699,0.0,0.0,0.0,-41.99781,61.87944,-1.3751,9.0,-0.72,-0.21,2.0
1758079568.42645,1758079568.20699,0.0,0.0,0.0,-40.50812,60.67623,-3.09397,9.0,-0.72,-0.21,2.0
1758079568.4424,1758079568.21699,0.0,0.0,0.0,-39.64868,57.81144,-5.09932,8.95,-0.16,0.07,2.0
1758079568.45844,1758079568.22699,0.0,0.0,0.0,-38.44547,52.13916,-7.44845,8.95,-0.16,0.07,2.0
1758079568.46076,1758079568.23699,0.0,0.0,0.0,-37.98711,47.72739,-8.70896,8.75,0.06,0.26,2.0
1758079568.47567,1758079568.24699,0.0,0.0,0.0,-37.58603,42.74266,-9.4538,8.75,0.06,0.26,2.0
1758079568.47694,1758079568.25699,0.0,0.0,0.0,-36.89849,37.24226,-9.85487,8.44,-0.01,0.42,2.0
1758079568.49345,1758079568.26699,0.0,0.0,0.0,-34.89313,28.76248,-10.02676,8.23,-0.4,0.54,2.0
1758079568.49463,1758079568.27699,0.0,0.0,0.0,-32.54401,21.6578,-9.74028,8.23,-0.4,0.54,2.0
1758079568.5115,1758079568.28699,0.0,0.0,0.0,-29.73651,16.90226,-9.4538,8.11,-0.8,0.3,2.0
1758079568.5288,1758079568.29699,0.0,0.0,0.0,-26.81443,14.61043,-9.22462,8.11,-0.8,0.3,2.0
1758079568.52964,1758079568.30699,0.0,0.0,0.0,-22.57454,11.11538,-8.70896,8.42,-1.0,0.11,2.0
1758079568.54474,1758079568.31699,0.0,0.0,0.0,-19.76705,8.65166,-8.47978,8.42,-1.0,0.11,2.0
1758079568.54565,1758079568.32699,0.0,0.0,0.0,-17.30333,6.53172,-8.30789,8.4,-0.96,-0.03,2.0
1758079568.56074,1758079568.33699,0.0,0.0,0.0,-15.29797,4.0107,-8.70896,8.4,-0.96,-0.03,2.0
1758079568.57647,1758079568.34699,0.0,0.0,0.0,-12.43318,0.0,-8.93814,8.49,-0.79,-0.23,2.0
1758079568.57759,1758079568.35699,0.0,0.0,0.0,-10.59972,-4.87014,-9.28192,8.52,-0.6,-0.53,2.0
1758079568.59284,1758079568.36699,0.0,0.0,0.0,-9.74028,-11.51645,-10.25595,8.52,-0.6,-0.53,2.0
1758079568.6095,1758079568.37699,0.0,0.0,0.0,-8.0787,-15.12609,-12.08941,8.59,-0.44,-0.93,2.0
1758079568.61045,1758079568.38699,0.0,0.0,0.0,-5.95876,-14.61043,-11.86023,8.59,-0.44,-0.93,2.0
1758079568.62657,1758079568.39699,0.0,0.0,0.0,-4.46907,-9.39651,-12.2613,9.52,-0.56,-1.21,2.0
1758079568.62785,1758079568.40699,0.0,0.0,0.0,-2.40642,-3.66693,-9.74028,9.52,-0.56,-1.21,2.0
1758079568.64285,1758079568.41699,0.0,0.0,0.0,-0.68755,15.98552,-9.5684,10.09,-0.78,-1.04,2.0
1758079568.65876,1758079568.42699,0.0,0.0,0.0,-0.85944,25.7831,-10.54242,10.7,-0.93,-0.67,2.0
1758079568.65978,1758079568.43699,0.0,0.0,0.0,1.43239,6.8182,-15.0115,10.7,-0.93,-0.67,2.0
1758079568.6746,1758079568.44699,0.0,0.0,0.0,3.83882,-33.46074,-12.37589,6.63,-1.08,-0.5,2.0
1758079568.67578,1758079568.45699,0.0,0.0,0.0,9.96947,-63.31184,-2.29183,6.63,-1.08,-0.5,2.0
1758079568.69059,1758079568.46699,0.0,0.0,0.0,10.54242,-59.81679,3.20856,10.25,-1.61,-1.59,2.0
1758079568.70782,1758079568.47699,0.0,0.0,0.0,11.57375,-53.74345,7.67763,10.25,-1.61,-1.59,2.0
1758079568.70907,1758079568.48699,0.0,0.0,0.0,11.51645,-56.32175,10.8289,12.06,-1.47,-1.83,2.0
1758079568.7238,1758079568.49699,0.0,0.0,0.0,3.72423,-71.21866,14.83961,12.03,-1.19,2.41,2.0
1758079568.72503,1758079568.50699,0.0,0.0,0.0,-5.55769,-87.66255,21.60051,12.03,-1.19,2.41,2.0
1758079568.74076,1758079568.51699,0.0,0.0,0.0,-15.46986,-100.26762,29.56462,16.32,1.03,6.45,2.0
1758079568.75764,1758079568.52699,0.0,0.0,0.0,-25.15285,-97.86119,34.66395,16.32,1.03,6.45,2.0
1758079568.75876,1758079568.53699,0.0,0.0,0.0,-41.31026,-76.31798,27.61657,18.29,4.42,3.65,2.0
1758079568.77465,1758079568.54699,0.0,0.0,0.0,-49.04519,-67.60902,19.53786,18.29,4.42,3.65,2.0
1758079568.77595,1758079568.55699,0.0,0.0,0.0,-53.68615,-59.35843,9.68299,11.63,3.42,2.26,2.0
1758079568.79081,1758079568.56699,0.0,0.0,0.0,-55.00395,-50.59217,-3.49504,11.63,3.42,2.26,2.0
1758079568.80669,1758079568.57699,0.0,0.0,0.0,-49.79003,-42.22699,-9.28192,7.94,1.29,1.92,2.0
1758079568.80777,1758079568.58699,0.0,0.0,0.0,-40.7946,-32.42941,-12.08941,8.86,-0.68,2.81,2.0
1758079568.8229,1758079568.59699,0.0,0.0,0.0,-29.33544,-25.38203,-11.34457,8.86,-0.68,2.81,2.0
1758079568.83889,1758079568.60699,0.0,0.0,0.0,-9.96947,-19.48057,-7.84952,10.64,-2.07,3.43,2.0
1758079568.83978,1758079568.61699,0.0,0.0,0.0,3.26586,-15.24068,-2.7502,10.64,-2.07,3.43,2.0
1758079568.85458,1758079568.62699,0.0,0.0,0.0,13.46451,-7.16197,1.66158,12.3,-2.02,1.44,2.0
1758079568.85579,1758079568.63699,0.0,0.0,0.0,19.13679,7.73493,5.21392,12.3,-2.02,1.44,2.0
1758079568.87067,1758079568.64699,0.0,0.0,0.0,20.11082,37.24226,7.62034,13.44,-0.8,-0.09,2.0
1758079568.88785,1758079568.65699,0.0,0.0,0.0,17.53251,55.11855,8.36518,12.51,0.69,-1.01,2.0
1758079568.8888,1758079568.66699,0.0,0.0,0.0,13.75099,70.24463,8.25059,12.51,0.69,-1.01,2.0
1758079568.90385,1758079568.67699,0.0,0.0,0.0,8.99544,80.55787,7.62034,10.72,1.88,-0.22,2.0
1758079568.90479,1758079568.68699,0.0,0.0,0.0,1.60428,86.68852,4.87014,10.72,1.88,-0.22,2.0
1758079568.92089,1758079568.69699,0.0,0.0,0.0,-3.32316,88.06361,2.7502,9.34,2.69,0.02,2.0
1758079568.9369,1758079568.70699,0.0,0.0,0.0,-7.96411,88.17821,0.51566,9.34,2.69,0.02,2.0
1758079568.93807,1758079568.71699,0.0,0.0,0.0,-12.37589,87.66255,-1.71887,8.88,2.76,0.24,2.0
1758079568.9529,1758079568.72699,0.0,0.0,0.0,-18.44924,83.19347,-5.15662,8.28,2.3,0.32,2.0
1758079568.96891,1758079568.73699,0.0,0.0,0.0,-22.23076,78.26604,-7.39116,8.28,2.3,0.32,2.0
1758079568.97009,1758079568.74699,0.0,0.0,0.0,-26.18417,72.47916,-9.74028,8.05,1.71,0.5,2.0
1758079568.98494,1758079568.75699,0.0,0.0,0.0,-32.6013,66.97877,-14.15206,8.05,1.71,0.5,2.0
1758079568.9861,1758079568.76699,0.0,0.0,0.0,-36.89849,58.3844,-16.67307,8.34,1.36,0.41,2.0
1758079569.00066,1758079568.77699,0.0,0.0,0.0,-40.96649,53.11319,-18.79302,8.34,1.36,0.41,2.0
1758079569.01791,1758079568.78699,0.0,0.0,0.0,-44.8053,46.69606,-20.11082,8.51,1.15,0.5,2.0
1758079569.01885,1758079568.79699,0.0,0.0,0.0,-49.84733,35.92446,-21.37133,8.51,1.15,0.5,2.0
1758079569.0337,1758079568.80699,0.0,0.0,0.0,-52.9986,28.24682,-21.31403,8.31,1.07,0.7,2.0
1758079569.03482,1758079568.81699,0.0,0.0,0.0,-56.20716,20.11082,-21.08485,8.02,1.14,0.79,2.0
1758079569.05087,1758079568.82699,0.0,0.0,0.0,-59.24384,12.43318,-20.51189,8.02,1.14,0.79,2.0
1758079569.06695,1758079568.83699,0.0,0.0,0.0,-63.25455,2.06265,-18.62113,7.73,1.26,0.52,2.0
1758079569.06816,1758079568.84699,0.0,0.0,0.0,-65.48907,-2.06265,-17.24603,7.73,1.26,0.52,2.0
1758079569.08291,1758079568.85699,0.0,0.0,0.0,-67.32255,-4.23989,-16.04282,8.06,1.34,0.26,2.0
1758079569.09898,1758079568.86699,0.0,0.0,0.0,-68.12468,-7.16197,-14.49583,8.06,1.34,0.26,2.0
1758079569.09986,1758079568.87699,0.0,0.0,0.0,-67.89551,-15.12609,-11.57375,8.23,1.19,0.14,2.0
1758079569.11466,1758079568.88699,0.0,0.0,0.0,-66.80688,-16.95955,-9.96947,8.53,0.92,0.18,2.0
1758079569.11586,1758079568.89699,0.0,0.0,0.0,-64.74423,-20.68378,-7.62034,8.53,0.92,0.18,2.0
1758079569.13073,1758079568.90699,0.0,0.0,0.0,-62.28051,-25.15285,-5.90147,8.78,0.43,-0.22,2.0
1758079569.14692,1758079568.91699,0.0,0.0,0.0,-58.67088,-32.71589,-3.66693,8.78,0.43,-0.22,2.0
1758079569.14786,1758079568.92699,0.0,0.0,0.0,-58.04062,-23.60586,0.80214,9.39,0.04,-0.23,2.0
1758079569.16268,1758079568.93699,0.0,0.0,0.0,-56.49364,4.46907,-1.60428,9.39,0.04,-0.23,2.0
1758079569.1787,1758079568.94699,0.0,0.0,0.0,-57.0093,25.8404,4.35448,12.76,-0.17,-0.09,2.0
1758079569.17989,1758079568.95699,0.0,0.0,0.0,-59.12925,-1.83346,0.68755,8.71,-0.14,0.17,2.0
1758079569.19479,1758079568.96699,0.0,0.0,0.0,-60.10328,-17.01685,1.77617,8.71,-0.14,0.17,2.0
1758079569.19588,1758079568.97699,0.0,0.0,0.0,-63.02536,-27.96034,1.94806,8.93,0.68,-0.08,2.0
1758079569.21287,1758079568.98699,0.0,0.0,0.0,-67.55173,-31.74186,2.06265,8.93,0.68,-0.08,2.0
1758079569.22871,1758079568.99699,0.0,0.0,0.0,-70.13004,-27.73116,2.34913,10.07,1.19,-3.11,2.0
1758079569.22992,1758079569.00699,0.0,0.0,0.0,-71.79161,-27.67386,2.63561,10.07,1.19,-3.11,2.0
1758079569.24485,1758079569.01699,0.0,0.0,0.0,-72.30728,-35.00772,3.26586,10.28,1.62,-1.28,2.0
1758079569.24591,1758079569.02699,0.0,0.0,0.0,-69.49979,-57.41038,2.86479,10.28,1.62,0.59,2.0
1758079569.26112,1758079569.03699,0.0,0.0,0.0,-65.54638,-67.89551,-0.85944,10.33,2.02,0.59,2.0
1758079569.27781,1758079569.04699,0.0,0.0,0.0,-58.15522,-72.82294,-5.84417,15.18,1.28,3.66,2.0
1758079569.27898,1758079569.05699,0.0,0.0,0.0,-49.27437,-75.63043,-12.60507,15.18,1.28,3.66,2.0
1758079569.29403,1758079569.06699,0.0,0.0,0.0,-34.26288,-64.62964,-16.61578,18.38,-1.88,5.34,2.0
1758079569.29498,1758079569.07699,0.0,0.0,0.0,-25.8404,-56.49364,-13.23533,18.38,-1.88,5.34,2.0
1758079569.3128,1758079569.08699,0.0,0.0,0.0,-20.45459,-57.41038,-8.42248,14.4,-2.63,3.65,2.0
1758079569.32906,1758079569.09699,0.0,0.0,0.0,-18.56383,-62.33781,-3.20856,14.4,-2.63,3.65,2.0
1758079569.32994,1758079569.10699,0.0,0.0,0.0,-24.23611,-66.46311,1.03132,8.47,-1.39,3.4,2.0
1758079569.34486,1758079569.11699,0.0,0.0,0.0,-33.11696,-64.80153,3.55234,8.21,0.32,3.38,2.0
1758079569.34678,1758079569.12699,0.0,0.0,0.0,-45.72203,-59.81679,4.64096,8.21,0.32,3.38,2.0
1758079569.36179,1758079569.13699,0.0,0.0,0.0,-59.75951,-56.03527,5.90147,10.29,2.04,2.82,2.0
1758079569.37783,1758079569.14699,0.0,0.0,0.0,-79.01089,-47.72739,7.50575,10.29,2.04,2.82,2.0
1758079569.37997,1758079569.15699,0.0,0.0,0.0,-87.26147,-40.27893,7.73493,12.15,2.84,1.59,2.0
1758079569.39379,1758079569.16699,0.0,0.0,0.0,-91.21489,-29.8511,6.35983,12.15,2.84,1.59,2.0
1758079569.39496,1758079569.17699,0.0,0.0,0.0,-91.043,-17.81899,2.6929,12.48,2.14,0.57,2.0
1758079569.41087,1758079569.18699,0.0,0.0,0.0,-87.54795,2.92208,0.34377,11.61,0.64,0.08,2.0
1758079569.42677,1758079569.19699,0.0,0.0,0.0,-82.33404,15.92823,-1.71887,11.61,0.64,0.08,2.0
1758079569.42804,1758079569.20699,0.0,0.0,0.0,-75.68773,25.21014,-3.03668,9.86,-1.19,-0.25,2.0
1758079569.44302,1758079569.21699,0.0,0.0,0.0,-63.88479,34.09099,-4.29718,9.86,-1.19,-0.25,2.0
1758079569.45898,1758079569.22699,0.0,0.0,0.0,-55.51962,38.50277,-4.23989,8.57,-2.62,-0.36,2.0
1758079569.46085,1758079569.23699,0.0,0.0,0.0,-47.03984,43.25832,-4.0107,8.57,-2.62,-0.36,2.0
1758079569.47809,1758079569.24699,0.0,0.0,0.0,-39.19032,46.75336,-3.49504,8.13,-2.95,-0.43,2.0
1758079569.47903,1758079569.25699,0.0,0.0,0.0,-28.87707,50.93595,-2.06265,7.72,-2.95,-0.38,2.0
1758079569.49411,1758079569.26699,0.0,0.0,0.0,-22.51724,52.9986,-1.14592,7.72,-2.48,-0.38,2.0
1758079569.49548,1758079569.27699,0.0,0.0,0.0,-16.73037,55.57691,-0.45837,7.81,-1.77,-0.2,2.0
1758079569.51094,1758079569.28699,0.0,0.0,0.0,-11.45916,57.46767,0.34377,7.81,-1.77,-0.2,2.0
1758079569.5281,1758079569.29699,0.0,0.0,0.0,-4.64096,54.71747,1.3751,7.91,-1.05,0.08,2.0
1758079569.52905,1758079569.30699,0.0,0.0,0.0,-0.68755,50.59217,1.83346,7.91,-1.05,0.08,2.0
1758079569.54418,1758079569.31699,0.0,0.0,0.0,2.86479,46.2377,2.46372,7.92,-0.63,0.38,2.0
1758079569.54545,1758079569.32699,0.0,0.0,0.0,5.84417,42.68536,2.92208,7.92,-0.63,0.38,2.0
1758079569.56109,1758079569.33699,0.0,0.0,0.0,9.85487,37.81522,3.89611,8.41,-0.58,0.43,2.0
1758079569.57786,1758079569.34699,0.0,0.0,0.0,12.08941,35.52338,5.27121,8.87,-0.76,0.58,2.0
1758079569.57909,1758079569.35699,0.0,0.0,0.0,14.20935,34.95043,6.53172,8.87,-0.76,0.58,2.0
1758079569.59426,1758079569.36699,0.0,0.0,0.0,16.04282,36.32552,7.50575,9.48,-0.87,0.45,2.0
1758079569.59509,1758079569.37699,0.0,0.0,0.0,17.24603,39.07573,6.87549,9.48,-0.87,0.45,2.0
1758079569.61086,1758079569.38699,0.0,0.0,0.0,17.53251,35.86716,6.70361,9.63,-0.72,0.58,2.0
1758079569.62687,1758079569.39699,0.0,0.0,0.0,16.61578,31.11161,4.98473,9.63,-0.72,0.58,2.0
1758079569.62807,1758079569.40699,0.0,0.0,0.0,15.64175,32.14294,0.0,9.4,-0.36,0.23,2.0
1758079569.64287,1758079569.41699,0.0,0.0,0.0,14.43854,37.98711,-3.03668,10.69,0.12,-0.27,2.0
1758079569.65891,1758079569.42699,0.0,0.0,0.0,13.86558,42.51347,-6.41713,10.69,0.12,-0.27,2.0
1758079569.66085,1758079569.43699,0.0,0.0,0.0,13.75099,44.17505,-8.136,10.52,0.39,-0.13,2.0
1758079569.67694,1758079569.44699,0.0,0.0,0.0,12.54778,47.78468,-11.00079,10.52,0.39,-0.13,2.0
1758079569.67789,1758079569.45699,0.0,0.0,0.0,13.40721,53.28508,-10.59972,10.3,0.45,-0.06,2.0
1758079569.6932,1758079569.46699,0.0,0.0,0.0,12.49048,52.42564,-12.14671,10.3,0.45,-0.06,2.0
1758079569.70917,1758079569.47699,0.0,0.0,0.0,10.8862,46.1804,-14.09476,9.5,0.41,-0.28,2.0
1758079569.71092,1758079569.48699,0.0,0.0,0.0,7.73493,-6.7609,-15.24068,6.37,0.19,-0.74,2.0
1758079569.72593,1758079569.49699,0.0,0.0,0.0,12.71966,-43.77398,-8.76626,6.37,0.19,-0.74,2.0
1758079569.72745,1758079569.50699,0.0,0.0,0.0,13.98017,-58.49899,-3.83882,8.45,-0.48,-2.66,2.0
1758079569.7419,1758079569.51699,0.0,0.0,0.0,14.78231,-66.92148,1.20321,8.45,-0.48,-2.66,2.0
1758079569.75821,1758079569.52699,0.0,0.0,0.0,16.38659,-75.51585,6.8182,10.18,-0.72,-2.38,2.0
1758079569.75945,1758079569.53699,0.0,0.0,0.0,15.24068,-85.77179,9.33921,10.18,-0.72,-2.38,2.0
1758079569.77422,1758079569.54699,0.0,0.0,0.0,11.74564,-99.1217,13.06344,10.96,-0.32,2.5,2.0
1758079569.77677,1758079569.55699,0.0,0.0,0.0,5.84417,-110.75274,16.61578,10.96,-0.32,2.5,2.0
1758079569.79388,1758079569.56699,0.0,0.0,0.0,-3.95341,-119.06063,20.3973,14.99,1.72,6.43,2.0
1758079569.79653,1758079569.57699,0.0,0.0,0.0,-10.65701,-109.49224,18.22006,17.44,2.44,5.2,2.0
1758079569.81229,1758079569.58699,0.0,0.0,0.0,-15.64175,-95.1683,11.97482,17.44,2.44,5.2,2.0
1758079569.82792,1758079569.59699,0.0,0.0,0.0,-17.93358,-83.30807,3.26586,12.35,0.83,3.76,2.0
1758079569.82912,1758079569.60699,0.0,0.0,0.0,-15.35527,-82.56322,-0.74485,12.35,0.83,3.76,2.0
1758079569.84415,1758079569.61699,0.0,0.0,0.0,-8.42248,-81.76109,-3.72423,7.5,-0.35,3.52,2.0
1758079569.84515,1758079569.62699,0.0,0.0,0.0,2.23454,-77.06283,-5.4431,7.5,-0.35,3.52,2.0
1758079569.86199,1758079569.63699,0.0,0.0,0.0,22.74642,-63.8275,-5.50039,8.13,-1.66,2.07,2.0
1758079569.87811,1758079569.64699,0.0,0.0,0.0,36.6693,-52.71212,-4.23989,12.07,-2.15,1.55,2.0
1758079569.88242,1758079569.65699,0.0,0.0,0.0,47.95657,-41.36755,-2.92208,12.07,-2.15,1.55,2.0
1758079569.8983,1758079569.66699,0.0,0.0,0.0,54.71747,-27.50197,-1.43239,14.29,-1.39,1.0,2.0
1758079569.90241,1758079569.67699,0.0,0.0,0.0,59.12925,0.22918,1.03132,14.29,-1.39,1.0,2.0
1758079569.91828,1758079569.68699,0.0,0.0,0.0,58.72818,19.88164,2.7502,13.49,-0.22,0.09,2.0
1758079569.91917,1758079569.69699,0.0,0.0,0.0,56.26446,37.01308,4.58366,13.49,-0.22,0.09,2.0
1758079569.93426,1758079569.70699,0.0,0.0,0.0,52.48294,51.73809,5.72958,11.05,0.74,-0.02,2.0
1758079569.93563,1758079569.71699,0.0,0.0,0.0,44.748,70.24463,4.98473,9.57,1.75,0.16,2.0
1758079569.95329,1758079569.72699,0.0,0.0,0.0,38.61736,78.43793,3.03668,9.57,1.75,0.16,2.0
1758079569.96928,1758079569.73699,0.0,0.0,0.0,32.48671,81.5892,0.34377,8.54,2.67,0.27,2.0
1758079569.97215,1758079569.74699,0.0,0.0,0.0,26.98631,82.27674,-1.77617,8.54,2.67,0.27,2.0
1758079569.98695,1758079569.75699,0.0,0.0,0.0,19.13679,82.27674,-4.87014,8.03,2.92,0.2,2.0
1758079569.98815,1758079569.76699,0.0,0.0,0.0,14.15206,81.5892,-6.41713,8.03,2.92,0.2,2.0
1758079570.00342,1758079569.77699,0.0,0.0,0.0,9.22462,80.38599,-7.50575,7.95,2.46,0.45,2.0
1758079570.01903,1758079569.78699,0.0,0.0,0.0,4.98473,77.86497,-7.62034,7.95,2.46,0.45,2.0
1758079570.02182,1758079569.79699,0.0,0.0,0.0,-1.14592,71.39055,-7.16197,7.86,1.77,0.65,2.0
1758079570.03734,1758079569.80699,0.0,0.0,0.0,-5.21392,67.26525,-7.16197,7.96,1.18,0.97,2.0
1758079570.03825,1758079569.81699,0.0,0.0,0.0,-8.42248,61.07731,-6.24524,7.96,1.18,0.97,2.0
1758079570.05326,1758079569.82699,0.0,0.0,0.0,-12.83425,50.2484,-5.09932,8.17,0.78,0.87,2.0
1758079570.06939,1758079569.83699,0.0,0.0,0.0,-15.46986,41.42485,-4.29718,8.17,0.78,0.87,2.0
1758079570.07028,1758079569.84699,0.0,0.0,0.0,-18.22006,32.6013,-4.35448,8.22,0.8,0.97,2.0
1758079570.08527,1758079569.85699,0.0,0.0,0.0,-20.62648,23.31938,-4.46907,8.22,0.8,0.97,2.0
1758079570.08627,1758079569.86699,0.0,0.0,0.0,-24.12152,13.00614,-4.81285,8.26,1.08,0.75,2.0
1758079570.10214,1758079569.87699,0.0,0.0,0.0,-26.12688,7.79223,-4.52637,8.29,1.39,0.7,2.0
1758079570.11836,1758079569.88699,0.0,0.0,0.0,-28.07493,3.38045,-4.58366,8.29,1.39,0.7,2.0
1758079570.11974,1758079569.89699,0.0,0.0,0.0,-29.96569,-1.94806,-4.52637,8.04,1.6,0.91,2.0
1758079570.1351,1758079569.90699,0.0,0.0,0.0,-31.97105,-17.24603,-4.81285,8.04,1.6,0.91,2.0
1758079570.13656,1758079569.91699,0.0,0.0,0.0,-32.77319,-27.44468,-4.0107,7.38,1.46,0.61,2.0
1758079570.1527,1758079569.92699,0.0,0.0,0.0,-33.34615,-37.64333,-4.18259,7.38,1.46,0.61,2.0
1758079570.16835,1758079569.93699,0.0,0.0,0.0,-34.0337,-48.12846,-4.0107,7.65,1.19,-0.16,2.0
1758079570.16978,1758079569.94699,0.0,0.0,0.0,-36.32552,-59.07195,-2.23454,8.42,0.97,-0.71,2.0
1758079570.18537,1758079569.95699,0.0,0.0,0.0,-40.10705,-48.70141,-1.3178,8.42,0.97,-0.71,2.0
1758079570.18633,1758079569.96699,0.0,0.0,0.0,-41.99781,-21.25674,-2.34913,11.97,1.21,-0.61,2.0
1758079570.20139,1758079569.97699,0.0,0.0,0.0,-42.57077,-3.32316,1.77617,11.97,1.21,-0.61,2.0
1758079570.21744,1758079569.98699,0.0,0.0,0.0,-48.12846,-27.67386,-0.85944,10.01,1.52,-0.23,2.0
1758079570.21833,1758079569.99699,0.0,0.0,0.0,-51.79538,-35.3515,-1.3751,10.01,1.52,-0.23,2.0
1758079570.23341,1758079570.00699,0.0,0.0,0.0,-56.66553,-39.07573,-2.97938,10.1,1.94,-0.53,2.0
1758079570.24942,1758079570.01699,0.0,0.0,0.0,-62.56699,-39.24761,-2.86479,10.1,1.94,-0.53,2.0
1758079570.25115,1758079570.02699,0.0,0.0,0.0,-65.54638,-40.04975,-3.26586,10.51,1.81,-3.18,2.0
1758079570.26635,1758079570.03699,0.0,0.0,0.0,-67.43713,-43.88857,-3.20856,10.32,1.64,-1.33,2.0
1758079570.26731,1758079570.04699,0.0,0.0,0.0,-68.06739,-54.94666,-4.0107,10.32,1.64,-1.33,2.0
1758079570.28219,1758079570.05699,0.0,0.0,0.0,-65.08801,-73.16672,-9.11003,11.65,1.82,0.95,2.0
1758079570.29815,1758079570.06699,0.0,0.0,0.0,-59.53032,-82.33404,-15.75634,11.65,1.82,0.95,2.0
1758079570.2994,1758079570.07699,0.0,0.0,0.0,-50.13381,-80.55787,-23.0902,16.98,-0.12,5.08,2.0
1758079570.31417,1758079570.08699,0.0,0.0,0.0,-37.64333,-71.21866,-26.47065,16.98,-0.12,5.08,2.0
1758079570.31546,1758079570.09699,0.0,0.0,0.0,-19.99623,-61.76485,-25.09555,18.44,-3.58,3.88,2.0
1758079570.33116,1758079570.10699,0.0,0.0,0.0,-12.43318,-62.85347,-20.34,11.04,-3.02,1.99,2.0
1758079570.34817,1758079570.11699,0.0,0.0,0.0,-8.70896,-62.22322,-15.58445,11.04,-3.02,1.99,2.0
1758079570.34941,1758079570.12699,0.0,0.0,0.0,-8.99544,-60.16057,-10.19865,7.47,-1.4,1.49,2.0
1758079570.36422,1758079570.13699,0.0,0.0,0.0,-18.27736,-49.84733,-3.89611,7.47,-1.4,1.49,2.0
1758079570.36651,1758079570.14699,0.0,0.0,0.0,-29.27814,-42.97184,-1.3751,8.89,0.85,3.16,2.0
1758079570.38302,1758079570.15699,0.0,0.0,0.0,-39.53409,-35.3515,1.71887,8.89,0.85,3.16,2.0
1758079570.40019,1758079570.16699,0.0,0.0,0.0,-15.58445,-67.72362,5.27121,11.42,2.57,2.62,2.0
1758079570.4036,1758079570.17699,0.0,0.0,0.0,-17.93358,-40.16434,8.93814,12.52,2.65,0.84,2.0
1758079570.41925,1758079570.18699,0.0,0.0,0.0,-68.75494,-0.68755,9.68299,12.52,2.65,0.84,2.0
1758079570.42042,1758079570.19699,0.0,0.0,0.0,-70.13004,13.17803,8.136,12.46,1.27,-0.22,2.0
1758079570.43631,1758079570.20699,0.0,0.0,0.0,-67.55173,26.87172,3.60963,12.46,1.27,-0.22,2.0
1758079570.43892,1758079570.21699,0.0,0.0,0.0,-64.22858,43.25832,-0.11459,11.44,-0.33,-0.17,2.0
1758079570.45445,1758079570.22699,0.0,0.0,0.0,-59.87409,50.93595,-3.26586,11.44,-0.33,-0.17,2.0
1758079570.45706,1758079570.23699,0.0,0.0,0.0,-55.11855,56.37905,-5.09932,9.83,-1.53,-0.04,2.0
1758079570.47347,1758079570.24699,0.0,0.0,0.0,-47.49821,61.1346,-6.35983,9.83,-1.53,-0.04,2.0
1758079570.49024,1758079570.25699,0.0,0.0,0.0,-42.91454,62.96807,-6.58902,8.86,-1.94,-0.1,2.0
1758079570.49312,1758079570.26699,0.0,0.0,0.0,-38.21629,63.54102,-6.47442,8.37,-1.75,0.0,2.0
1758079570.50842,1758079570.27699,0.0,0.0,0.0,-33.74722,64.62964,-5.50039,8.37,-1.75,0.0,2.0
1758079570.51022,1758079570.28699,0.0,0.0,0.0,-28.24682,65.03072,-4.35448,8.15,-1.32,0.11,2.0
1758079570.5263,1758079570.29699,0.0,0.0,0.0,-24.80907,64.11398,-4.0107,8.15,-1.32,0.11,2.0
1758079570.52768,1758079570.30699,0.0,0.0,0.0,-21.6578,62.05133,-3.38045,7.81,-0.87,0.14,2.0
1758079570.54256,1758079570.31699,0.0,0.0,0.0,-18.73572,60.27517,-2.97938,7.81,-0.87,0.14,2.0
1758079570.55828,1758079570.32699,0.0,0.0,0.0,-14.38124,54.25911,-2.6929,7.89,-0.58,0.45,2.0
1758079570.56024,1758079570.33699,0.0,0.0,0.0,-11.34457,46.69606,-2.23454,7.66,-0.48,0.47,2.0
1758079570.57527,1758079570.34699,0.0,0.0,0.0,-8.30789,38.50277,-1.77617,7.66,-0.48,0.47,2.0
1758079570.57681,1758079570.35699,0.0,0.0,0.0,-5.21392,30.93972,-0.97403,7.77,-0.58,0.48,2.0
1758079570.59125,1758079570.36699,0.0,0.0,0.0,-0.51566,22.86102,0.40107,7.77,-0.58,0.48,2.0
1758079570.60849,1758079570.37699,0.0,0.0,0.0,2.86479,21.02755,1.77617,8.34,-0.83,0.27,2.0
1758079570.61031,1758079570.38699,0.0,0.0,0.0,5.61499,21.25674,3.09397,8.34,-0.83,0.27,2.0
1758079570.62558,1758079570.39699,0.0,0.0,0.0,7.79223,23.20479,3.60963,9.09,-1.02,0.55,2.0
1758079570.62651,1758079570.40699,0.0,0.0,0.0,10.48513,22.91831,3.32316,9.24,-0.87,0.98,2.0
1758079570.6429,1758079570.41699,0.0,0.0,0.0,12.14671,20.05352,3.26586,9.24,-0.87,0.98,2.0
1758079570.65831,1758079570.42699,0.0,0.0,0.0,12.71966,18.44924,2.40642,9.37,-0.58,0.96,2.0
1758079570.66062,1758079570.43699,0.0,0.0,0.0,13.17803,11.28727,1.03132,9.37,-0.58,0.96,2.0
1758079570.67553,1758079570.44699,0.0,0.0,0.0,12.54778,4.1253,-1.3751,9.29,-0.19,0.28,2.0
1758079570.6781,1758079570.45699,0.0,0.0,0.0,11.74564,0.40107,-3.72423,9.29,-0.19,0.28,2.0
1758079570.69361,1758079570.46699,0.0,0.0,0.0,12.37589,2.40642,-3.89611,10.13,0.07,-0.41,2.0
1758079570.71041,1758079570.47699,0.0,0.0,0.0,12.204,18.50654,-4.98473,10.13,0.07,-0.68,2.0
1758079570.71089,1758079570.48699,0.0,0.0,0.0,10.37054,33.00237,-7.73493,11.45,0.11,-0.68,2.0
1758079570.72766,1758079570.49699,0.0,0.0,0.0,9.22462,41.13837,-9.05273,11.56,0.21,-0.62,2.0
1758079570.72935,1758079570.50699,0.0,0.0,0.0,7.79223,25.26744,-14.78231,11.56,0.21,-0.62,2.0
1758079570.74461,1758079570.51699,0.0,0.0,0.0,13.23533,-35.92446,-12.54778,7.39,0.03,-0.21,2.0
1758079570.74719,1758079570.52699,0.0,0.0,0.0,14.61043,-55.57691,-6.24524,7.39,0.03,-0.21,2.0
1758079570.7624,1758079570.53699,0.0,0.0,0.0,14.61043,-58.09792,-0.97403,10.12,-0.69,-2.34,2.0
1758079570.78129,1758079570.54699,0.0,0.0,0.0,16.10011,-53.80074,3.09397,10.12,-0.69,-2.34,2.0
1758079570.78166,1758079570.55699,0.0,0.0,0.0,20.11082,-51.85268,8.65166,11.68,-1.2,-3.12,2.0
1758079570.79846,1758079570.56699,0.0,0.0,0.0,21.94428,-55.51962,9.4538,10.24,-1.51,-0.71,2.0
1758079570.79984,1758079570.57699,0.0,0.0,0.0,21.02755,-62.05133,8.76626,10.24,-1.51,-0.71,2.0
1758079570.81468,1758079570.58699,0.0,0.0,0.0,17.47521,-69.27061,8.02141,10.03,-1.11,2.06,2.0
1758079570.8164,1758079570.59699,0.0,0.0,0.0,9.05273,-82.27674,8.47978,10.03,-1.11,2.06,2.0
1758079570.83269,1758079570.60699,0.0,0.0,0.0,3.55234,-94.42345,11.74564,11.39,0.36,4.57,2.0
1758079570.84867,1758079570.61699,0.0,0.0,0.0,-0.80214,-101.41353,16.84496,11.39,0.36,4.57,2.0
1758079570.84909,1758079570.62699,0.0,0.0,0.0,-3.95341,-100.09573,24.98096,11.98,1.77,5.79,2.0
1758079570.86652,1758079570.63699,0.0,0.0,0.0,-4.92744,-97.7466,28.36141,11.33,2.84,6.31,2.0
1758079570.8677,1758079570.64699,0.0,0.0,0.0,-4.69825,-96.5434,30.88243,11.33,2.84,6.31,2.0
1758079570.8826,1758079570.65699,0.0,0.0,0.0,-2.63561,-88.98035,30.88243,11.05,3.04,5.01,2.0
1758079570.8987,1758079570.66699,0.0,0.0,0.0,2.86479,-72.82294,26.35606,11.05,3.04,5.01,2.0
1758079570.89909,1758079570.67699,0.0,0.0,0.0,4.64096,-64.91612,18.79302,11.75,2.12,2.66,2.0
1758079570.91563,1758079570.68699,0.0,0.0,0.0,4.98473,-51.45161,10.94349,11.75,2.12,2.66,2.0
1758079570.9178,1758079570.69699,0.0,0.0,0.0,4.69825,-31.51268,2.46372,13.15,1.05,0.93,2.0
1758079570.93256,1758079570.70699,0.0,0.0,0.0,3.83882,2.86479,-9.33921,14.01,-0.12,-0.71,2.0
1758079570.94865,1758079570.71699,0.0,0.0,0.0,3.38045,25.21014,-14.72501,14.01,-0.12,-0.71,2.0
1758079570.949,1758079570.72699,0.0,0.0,0.0,2.86479,44.51882,-16.84496,12.82,-0.48,-0.62,2.0
1758079570.96471,1758079570.73699,0.0,0.0,0.0,1.3751,60.33246,-16.90226,12.82,-0.48,-0.62,2.0
1758079570.96564,1758079570.74699,0.0,0.0,0.0,-1.20321,74.7137,-15.0115,11.24,0.11,-0.45,2.0
1758079570.9804,1758079570.75699,0.0,0.0,0.0,-2.92208,78.03686,-12.60507,11.24,0.11,-0.45,2.0
1758079570.9964,1758079570.76699,0.0,0.0,0.0,-4.52637,79.52654,-9.22462,9.75,1.07,-0.28,2.0
1758079570.99776,1758079570.77699,0.0,0.0,0.0,-6.07335,80.55787,-6.35983,9.75,1.07,-0.28,2.0
1758079571.01271,1758079570.78699,0.0,0.0,0.0,-8.36518,80.95895,-2.63561,8.95,1.59,-0.07,2.0
1758079571.02848,1758079570.79699,0.0,0.0,0.0,-9.96947,79.98491,-1.20321,7.95,1.64,0.22,2.0
1758079571.02981,1758079570.80699,0.0,0.0,0.0,-11.80293,79.06818,-0.74485,7.95,1.64,0.22,2.0
1758079571.04629,1758079570.81699,0.0,0.0,0.0,-13.34992,76.83365,-1.08862,7.46,1.4,0.87,2.0
1758079571.0477,1758079570.82699,0.0,0.0,0.0,-16.21471,69.3279,-2.23454,7.46,1.4,0.87,2.0
1758079571.0628,1758079570.83699,0.0,0.0,0.0,-18.44924,63.94209,-3.83882,7.23,1.07,0.81,2.0
1758079571.06372,1758079570.84699,0.0,0.0,0.0,-20.97026,57.58226,-5.55769,7.23,1.07,0.81,2.0
1758079571.07906,1758079570.85699,0.0,0.0,0.0,-26.24147,47.78468,-9.33921,7.5,0.84,0.88,2.0
1758079571.09644,1758079570.86699,0.0,0.0,0.0,-30.36677,39.87786,-12.43318,7.75,0.89,0.73,2.0
1758079571.0984,1758079570.87699,0.0,0.0,0.0,-34.95043,30.13758,-14.83961,7.75,0.89,0.73,2.0
1758079571.11353,1758079570.88699,0.0,0.0,0.0,-39.99245,22.51724,-17.6471,7.85,1.19,0.44,2.0
1758079571.11478,1758079570.89699,0.0,0.0,0.0,-46.98254,13.23533,-19.53786,7.85,1.19,0.44,2.0
1758079571.13088,1758079570.90699,0.0,0.0,0.0,-51.16513,8.47978,-19.99623,8.08,1.57,0.22,2.0
1758079571.14779,1758079570.91699,0.0,0.0,0.0,-54.60288,2.92208,-19.53786,8.08,1.57,0.22,2.0
1758079571.1491,1758079570.92699,0.0,0.0,0.0,-57.12389,-4.69825,-18.16276,7.98,1.77,0.02,2.0
1758079571.16354,1758079570.93699,0.0,0.0,0.0,-58.49899,-17.93358,-14.78231,7.88,1.47,-0.01,2.0
1758079571.16525,1758079570.94699,0.0,0.0,0.0,-58.3844,-24.92367,-12.37589,7.88,1.47,-0.01,2.0
1758079571.18111,1758079570.95699,0.0,0.0,0.0,-57.0093,-33.34615,-9.68299,8.13,0.94,-0.32,2.0
1758079571.19659,1758079570.96699,0.0,0.0,0.0,-55.29043,-41.71133,-7.67763,8.13,0.94,-0.32,2.0
1758079571.19821,1758079570.97699,0.0,0.0,0.0,-52.08187,-52.9986,-5.4431,8.38,0.24,-0.69,2.0
1758079571.21356,1758079570.98699,0.0,0.0,0.0,-50.47758,-49.21708,-3.03668,8.38,0.24,-0.69,2.0
1758079571.21476,1758079570.99699,0.0,0.0,0.0,-48.9879,-21.7724,-4.81285,10.81,-0.02,-0.56,2.0
1758079571.23247,1758079571.00699,0.0,0.0,0.0,-47.03984,6.58902,-3.89611,10.81,-0.02,-0.56,2.0
1758079571.23375,1758079571.01699,0.0,0.0,0.0,-48.07116,-16.3293,-4.18259,12.23,-0.22,-0.76,2.0
1758079571.24915,1758079571.02699,0.0,0.0,0.0,-47.26902,-26.64254,-2.92208,8.47,0.44,0.08,2.0
1758079571.26543,1758079571.03699,0.0,0.0,0.0,-49.15978,-30.76784,-2.46372,8.47,0.44,0.08,2.0
1758079571.26654,1758079571.04699,0.0,0.0,0.0,-49.67545,-30.53865,-1.43239,10.51,1.18,-1.89,2.0
1758079571.28158,1758079571.05699,0.0,0.0,0.0,-50.76406,-24.4653,-1.14592,10.51,1.18,-1.89,2.0
1758079571.2979,1758079571.06699,0.0,0.0,0.0,-51.39432,-18.10547,-0.17189,11.48,1.33,-2.5,2.0
1758079571.29874,1758079571.07699,0.0,0.0,0.0,-51.27972,-16.67307,2.40642,11.48,1.33,-2.5,2.0
1758079571.31359,1758079571.08699,0.0,0.0,0.0,-50.1911,-22.05888,7.33386,10.65,1.08,-1.45,2.0
1758079571.31474,1758079571.09699,0.0,0.0,0.0,-47.67009,-25.7831,9.05273,10.7,0.74,-0.44,2.0
1758079571.33093,1758079571.10699,0.0,0.0,0.0,-43.20102,-31.79916,8.99544,10.7,0.74,-0.44,2.0
1758079571.34671,1758079571.11699,0.0,0.0,0.0,-37.35685,-44.46153,6.24524,12.28,0.57,1.52,2.0
1758079571.34777,1758079571.12699,0.0,0.0,0.0,-26.12688,-79.06818,-2.86479,12.28,0.57,1.52,2.0
1758079571.36336,1758079571.13699,0.0,0.0,0.0,-18.56383,-98.20497,-11.80293,13.27,-0.28,4.68,2.0
1758079571.36459,1758079571.14699,0.0,0.0,0.0,-13.69369,-100.38221,-19.48057,13.27,-0.28,4.68,2.0
1758079571.38115,1758079571.15699,0.0,0.0,0.0,-11.00079,-89.78249,-21.48592,15.03,-0.98,5.27,2.0
1758079571.39662,1758079571.16699,0.0,0.0,0.0,-12.54778,-74.7137,-17.6471,11.65,-0.91,4.92,2.0
1758079571.40209,1758079571.17699,0.0,0.0,0.0,-16.95955,-69.55708,-13.12073,11.65,-0.91,4.92,2.0
1758079571.41684,1758079571.18699,0.0,0.0,0.0,-24.4653,-65.83286,-7.10468,9.09,0.33,2.92,2.0
1758079571.41858,1758079571.19699,0.0,0.0,0.0,-34.32018,-60.73353,-0.0573,9.09,0.33,2.92,2.0
1758079571.4339,1758079571.20699,0.0,0.0,0.0,-49.38896,-47.44091,10.08406,11.0,1.84,0.28,2.0
1758079571.43565,1758079571.21699,0.0,0.0,0.0,-56.55093,-32.08564,15.29797,11.0,1.84,0.28,2.0
1758079571.45252,1758079571.22699,0.0,0.0,0.0,-60.79083,-14.61043,16.21471,14.54,2.4,-0.39,2.0
1758079571.45361,1758079571.23699,0.0,0.0,0.0,-60.44705,2.23454,10.8862,14.54,2.4,-0.39,2.0
1758079571.47018,1758079571.24699,0.0,0.0,0.0,-57.41038,25.55392,5.09932,15.24,1.66,0.37,2.0
1758079571.48594,1758079571.25699,0.0,0.0,0.0,-53.17049,39.76327,0.22918,12.72,0.57,0.08,2.0
1758079571.48693,1758079571.26699,0.0,0.0,0.0,-48.75871,50.64947,-3.38045,12.72,0.57,0.08,2.0
1758079571.50197,1758079571.27699,0.0,0.0,0.0,-41.76862,61.30648,-5.61499,9.67,-0.52,-0.44,2.0
1758079571.51769,1758079571.28699,0.0,0.0,0.0,-37.58603,66.29122,-6.24524,9.67,-0.52,-0.44,2.0
1758079571.5194,1758079571.29699,0.0,0.0,0.0,-33.68992,69.84356,-5.90147,8.5,-1.38,-0.48,2.0
1758079571.53398,1758079571.30699,0.0,0.0,0.0,-30.76784,73.05212,-5.4431,8.5,-1.38,-0.48,2.0
1758079571.5349,1758079571.31699,0.0,0.0,0.0,-28.07493,76.94823,-4.87014,8.16,-1.5,0.0,2.0
1758079571.55027,1758079571.32699,0.0,0.0,0.0,-26.01229,77.80767,-4.23989,7.7,-1.04,0.19,2.0
1758079571.56685,1758079571.33699,0.0,0.0,0.0,-24.29341,75.85962,-3.49504,7.7,-1.04,0.19,2.0
1758079571.56788,1758079571.34699,0.0,0.0,0.0,-22.51724,71.67702,-2.92208,7.19,-0.54,0.24,2.0
1758079571.58264,1758079571.35699,0.0,0.0,0.0,-19.19409,63.88479,-1.94806,7.19,-0.54,0.24,2.0
1758079571.58392,1758079571.36699,0.0,0.0,0.0,-15.92823,57.92604,-1.3178,7.16,-0.28,0.22,2.0
1758079571.60203,1758079571.37699,0.0,0.0,0.0,-12.08941,52.36834,-0.45837,7.16,-0.28,0.22,2.0
1758079571.61805,1758079571.38699,0.0,0.0,0.0,-7.84952,47.89928,0.40107,7.44,-0.43,0.09,2.0
1758079571.61883,1758079571.39699,0.0,0.0,0.0,-0.68755,40.33623,2.34913,7.65,-0.89,0.3,2.0
1758079571.63399,1758079571.40699,0.0,0.0,0.0,4.23989,35.58068,3.66693,7.65,-0.89,0.3,2.0
1758079571.63493,1758079571.41699,0.0,0.0,0.0,9.33921,31.74186,4.87014,7.8,-1.35,0.27,2.0
1758079571.64968,1758079571.42699,0.0,0.0,0.0,14.09476,28.476,5.78687,7.8,-1.35,0.27,2.0
1758079571.66696,1758079571.43699,0.0,0.0,0.0,20.22541,20.51189,7.04738,8.02,-1.46,0.29,2.0
1758079571.66819,1758079571.44699,0.0,0.0,0.0,23.0902,14.83961,7.50575,8.02,-1.46,0.29,2.0
1758079571.68351,1758079571.45699,0.0,0.0,0.0,24.00693,8.70896,7.33386,8.39,-1.12,0.31,2.0
1758079571.68753,1758079571.46699,0.0,0.0,0.0,24.86637,3.89611,5.27121,8.39,-1.12,0.31,2.0
1758079571.70297,1758079571.47699,0.0,0.0,0.0,24.5226,4.35448,2.97938,9.04,-0.53,0.05,2.0
1758079571.70425,1758079571.48699,0.0,0.0,0.0,24.17882,7.96411,1.83346,10.05,-0.03,0.06,2.0
1758079571.72368,1758079571.49699,0.0,0.0,0.0,24.00693,11.97482,2.11994,10.05,-0.03,0.06,2.0
1758079571.72629,1758079571.50699,0.0,0.0,0.0,22.97561,26.01229,2.34913,10.76,0.15,0.13,2.0
1758079571.74336,1758079571.51699,0.0,0.0,0.0,21.37133,37.35685,0.57296,10.76,0.15,0.13,2.0
1758079571.74651,1758079571.52699,0.0,0.0,0.0,18.79302,41.59674,-2.23454,11.19,0.23,0.14,2.0
1758079571.76334,1758079571.53699,0.0,0.0,0.0,16.61578,21.08485,-9.62569,11.19,0.23,0.14,2.0
1758079571.76645,1758079571.54699,0.0,0.0,0.0,21.08485,-33.51803,-6.07335,7.83,0.41,0.38,2.0
1758079571.78209,1758079571.55699,0.0,0.0,0.0,21.94428,-44.28964,-0.97403,9.72,-0.02,-2.25,2.0
1758079571.79815,1758079571.56699,0.0,0.0,0.0,21.08485,-47.26902,4.1253,9.72,-0.02,-2.25,2.0
1758079571.79898,1758079571.57699,0.0,0.0,0.0,20.34,-46.1231,7.67763,11.75,-0.4,-2.68,2.0
1758079571.8138,1758079571.58699,0.0,0.0,0.0,21.02755,-43.14373,12.43318,11.75,-0.4,-2.68,2.0
1758079571.81531,1758079571.59699,0.0,0.0,0.0,19.82434,-48.58683,13.12073,11.38,-0.62,-0.91,2.0
1758079571.82984,1758079571.60699,0.0,0.0,0.0,16.04282,-57.75415,12.71966,11.38,-0.62,-0.91,2.0
1758079571.84659,1758079571.61699,0.0,0.0,0.0,9.4538,-71.27596,14.15206,11.01,-0.3,2.38,2.0
1758079571.84858,1758079571.62699,0.0,0.0,0.0,-2.92208,-89.55331,20.45459,13.71,1.25,4.29,2.0
1758079571.8638,1758079571.63699,0.0,0.0,0.0,-10.59972,-95.56937,24.80907,13.71,1.25,4.29,2.0
1758079571.86662,1758079571.64699,0.0,0.0,0.0,-16.04282,-95.79855,25.89769,15.25,2.99,4.46,2.0
1758079571.88208,1758079571.65699,0.0,0.0,0.0,-20.51189,-90.87111,18.16276,15.25,2.99,4.46,2.0
1758079571.88384,1758079571.66699,0.0,0.0,0.0,-20.22541,-89.95438,12.60507,11.5,1.99,3.18,2.0
1758079571.90117,1758079571.67699,0.0,0.0,0.0,-17.36062,-89.89708,6.87549,11.5,1.99,3.18,2.0
1758079571.91792,1758079571.68699,0.0,0.0,0.0,-11.22997,-87.37608,2.46372,8.12,0.56,3.47,2.0
1758079571.91883,1758079571.69699,0.0,0.0,0.0,3.32316,-76.0315,-2.86479,8.12,0.56,3.47,2.0
1758079571.93815,1758079571.70699,0.0,0.0,0.0,14.72501,-65.37449,-4.98473,8.15,-0.73,1.95,2.0
1758079571.93997,1758079571.71699,0.0,0.0,0.0,26.06958,-54.66018,-5.55769,9.98,-1.55,1.82,2.0
1758079571.95789,1758079571.72699,0.0,0.0,0.0,36.95578,-41.71133,-4.35448,9.98,-1.55,1.82,2.0
1758079571.95906,1758079571.73699,0.0,0.0,0.0,49.33167,-22.63183,-0.34377,12.48,-1.43,0.79,2.0
1758079571.9742,1758079571.74699,0.0,0.0,0.0,52.76942,-9.4538,1.94806,12.48,-1.43,0.79,2.0
1758079571.97582,1758079571.75699,0.0,0.0,0.0,52.54023,6.7609,3.95341,13.53,-0.38,0.75,2.0
1758079571.99096,1758079571.76699,0.0,0.0,0.0,49.67545,25.55392,5.21392,13.53,-0.38,0.75,2.0
1758079572.00787,1758079571.77699,0.0,0.0,0.0,42.28429,52.42564,5.21392,12.96,0.97,-0.26,2.0
1758079572.00907,1758079571.78699,0.0,0.0,0.0,36.26823,67.72362,4.52637,11.25,2.17,-0.33,2.0
1758079572.02414,1758079571.79699,0.0,0.0,0.0,29.96569,80.04221,3.20856,11.25,2.17,-0.33,2.0
1758079572.02676,1758079571.80699,0.0,0.0,0.0,23.31938,86.68852,0.74485,9.86,2.98,-0.28,2.0
1758079572.04346,1758079571.81699,0.0,0.0,0.0,14.78231,88.40739,-2.86479,9.86,2.98,-0.28,2.0
1758079572.04504,1758079571.82699,0.0,0.0,0.0,10.59972,87.43336,-5.15662,8.84,3.0,-0.08,2.0
1758079572.06016,1758079571.83699,0.0,0.0,0.0,7.62034,85.71449,-6.99009,8.84,3.0,-0.08,2.0
1758079572.06427,1758079571.84699,0.0,0.0,0.0,4.92744,83.25077,-9.33921,8.68,2.36,0.12,2.0
1758079572.08219,1758079571.85699,0.0,0.0,0.0,2.29183,77.92226,-9.28192,8.63,1.56,0.45,2.0
1758079572.08394,1758079571.86699,0.0,0.0,0.0,0.45837,73.45319,-9.5684,8.63,1.56,0.45,2.0
1758079572.1012,1758079571.87699,0.0,0.0,0.0,-1.14592,68.06739,-8.93814,8.44,0.84,0.75,2.0
1758079572.10642,1758079571.88699,0.0,0.0,0.0,-3.83882,59.01466,-7.96411,8.44,0.84,0.75,2.0
1758079572.12089,1758079571.89699,0.0,0.0,0.0,-5.4431,51.79538,-7.04738,8.2,0.55,0.61,2.0
1758079572.13884,1758079571.90699,0.0,0.0,0.0,-7.79223,43.77398,-6.99009,8.2,0.55,0.61,2.0
1758079572.13975,1758079571.91699,0.0,0.0,0.0,-10.37054,36.32552,-6.70361,7.71,0.65,0.44,2.0
1758079572.15525,1758079571.92699,0.0,0.0,0.0,-14.61043,27.33009,-7.33386,7.71,0.65,0.36,2.0
1758079572.15612,1758079571.93699,0.0,0.0,0.0,-17.24603,22.05888,-7.21927,7.57,1.01,0.36,2.0
1758079572.17091,1758079571.94699,0.0,0.0,0.0,-19.70975,16.67307,-7.04738,7.37,1.42,0.24,2.0
1758079572.18821,1758079571.95699,0.0,0.0,0.0,-22.05888,12.77696,-6.99009,7.37,1.42,0.24,2.0
1758079572.18939,1758079571.96699,0.0,0.0,0.0,-24.29341,6.53172,-5.90147,7.65,1.63,0.39,2.0
1758079572.2042,1758079571.97699,0.0,0.0,0.0,-24.98096,-0.11459,-4.98473,7.65,1.63,0.39,2.0
1758079572.20689,1758079571.98699,0.0,0.0,0.0,-25.26744,-7.44845,-3.83882,7.6,1.35,0.36,2.0
1758079572.22278,1758079571.99699,0.0,0.0,0.0,-24.80907,-13.69369,-2.6929,7.6,1.35,0.36,2.0
1758079572.22424,1758079572.00699,0.0,0.0,0.0,-23.66316,-22.86102,-1.08862,8.0,0.92,0.25,2.0
1758079572.24228,1758079572.01699,0.0,0.0,0.0,-22.63183,-30.13758,-0.40107,8.31,0.39,-0.06,2.0
1758079572.24717,1758079572.02699,0.0,0.0,0.0,-22.28806,-36.55471,0.51566,8.31,0.39,-0.06,2.0
1758079572.26356,1758079572.03699,0.0,0.0,0.0,-22.11617,-37.12767,2.23454,9.48,0.23,-0.55,2.0
1758079572.26717,1758079572.04699,0.0,0.0,0.0,-22.40265,-3.55234,0.11459,9.48,0.23,-0.55,2.0
1758079572.28359,1758079572.05699,0.0,0.0,0.0,-20.79837,13.12073,4.81285,12.58,0.3,-0.59,2.0
1758079572.28722,1758079572.06699,0.0,0.0,0.0,-23.0329,-8.02141,2.86479,12.58,0.3,-0.59,2.0
1758079572.30226,1758079572.07699,0.0,0.0,0.0,-25.8404,-20.34,3.09397,8.63,0.89,-0.35,2.0
1758079572.31824,1758079572.08699,0.0,0.0,0.0,-27.44468,-26.64254,2.86479,10.32,1.5,-1.12,2.0
1758079572.31947,1758079572.09699,0.0,0.0,0.0,-28.70519,-28.70519,2.11994,10.32,1.5,-1.12,2.0
1758079572.33401,1758079572.10699,0.0,0.0,0.0,-29.73651,-26.81443,1.60428,10.76,1.43,-2.73,2.0
1758079572.33596,1758079572.11699,0.0,0.0,0.0,-31.51268,-21.94428,2.00535,10.76,1.43,-2.73,2.0
1758079572.351,1758079572.12699,0.0,0.0,0.0,-32.42941,-22.11617,4.69825,10.97,1.01,-1.02,2.0
1758079572.36802,1758079572.13699,0.0,0.0,0.0,-32.48671,-24.29341,8.59437,10.97,1.01,-1.02,2.0
1758079572.36922,1758079572.14699,0.0,0.0,0.0,-30.99702,-27.2155,11.63104,10.87,0.6,-0.44,2.0
1758079572.38661,1758079572.15699,0.0,0.0,0.0,-26.06958,-34.77854,11.22997,12.92,0.51,1.94,2.0
1758079572.3879,1758079572.16699,0.0,0.0,0.0,-20.11082,-42.68536,8.136,12.92,0.51,1.94,2.0
1758079572.40308,1758079572.17699,0.0,0.0,0.0,-13.23533,-55.00395,3.55234,14.76,-0.16,3.71,2.0
1758079572.40427,1758079572.18699,0.0,0.0,0.0,-7.44845,-67.78091,-1.77617,14.76,-0.16,3.71,2.0
1758079572.42138,1758079572.19699,0.0,0.0,0.0,-0.74485,-70.58841,-6.18794,13.77,-0.47,3.23,2.0
1758079572.43706,1758079572.20699,0.0,0.0,0.0,2.11994,-63.8275,-6.53172,13.77,-0.47,3.23,2.0
1758079572.43831,1758079572.21699,0.0,0.0,0.0,3.03668,-56.26446,-5.15662,11.43,-0.26,1.97,2.0
1758079572.45336,1758079572.22699,0.0,0.0,0.0,1.3751,-51.85268,-3.72423,11.43,-0.26,1.97,2.0
1758079572.45428,1758079572.23699,0.0,0.0,0.0,-7.10468,-47.15443,-2.11994,8.68,0.11,2.83,2.0
1758079572.47011,1758079572.24699,0.0,0.0,0.0,-16.10011,-42.91454,-1.43239,8.81,1.33,2.52,2.0
1758079572.48614,1758079572.25699,0.0,0.0,0.0,-26.64254,-37.58603,-0.80214,8.81,1.33,2.52,2.0
1758079572.48726,1758079572.26699,0.0,0.0,0.0,-36.55471,-30.25217,1.94806,11.46,2.48,1.6,2.0
1758079572.50236,1758079572.27699,0.0,0.0,0.0,-46.40959,-15.87093,3.66693,11.46,2.48,1.6,2.0
1758079572.51817,1758079572.28699,0.0,0.0,0.0,-49.04519,-3.66693,4.0107,13.43,2.31,0.79,2.0
1758079572.51932,1758079572.29699,0.0,0.0,0.0,-49.15978,10.25595,3.03668,13.43,2.31,0.79,2.0
1758079572.53843,1758079572.30699,0.0,0.0,0.0,-45.26366,29.10626,0.45837,13.47,1.2,0.68,2.0
1758079572.53964,1758079572.31699,0.0,0.0,0.0,-40.45082,39.19032,-1.3751,11.71,-0.04,0.22,2.0
1758079572.55439,1758079572.32699,0.0,0.0,0.0,-35.2942,47.72739,-2.7502,11.71,-0.04,0.22,2.0
1758079572.55531,1758079572.33699,0.0,0.0,0.0,-29.9084,53.97263,-3.83882,9.98,-1.32,-0.13,2.0
1758079572.57038,1758079572.34699,0.0,0.0,0.0,-22.34536,60.10328,-4.18259,9.98,-1.32,-0.13,2.0
1758079572.58642,1758079572.35699,0.0,0.0,0.0,-18.22006,62.16592,-4.29718,8.85,-1.91,-0.1,2.0
1758079572.58732,1758079572.36699,0.0,0.0,0.0,-14.72501,62.96807,-4.23989,8.85,-1.91,-0.1,2.0
1758079572.6024,1758079572.37699,0.0,0.0,0.0,-11.97482,63.48372,-3.89611,8.28,-1.61,-0.07,2.0
1758079572.61846,1758079572.38699,0.0,0.0,0.0,-9.05273,63.48372,-3.83882,8.18,-0.86,0.06,2.0
1758079572.61934,1758079572.39699,0.0,0.0,0.0,-8.0787,62.39511,-4.0107,8.18,-0.86,0.06,2.0
1758079572.63813,1758079572.40699,0.0,0.0,0.0,-7.21927,61.24919,-3.83882,8.08,-0.14,0.36,2.0
1758079572.63928,1758079572.41699,0.0,0.0,0.0,-6.41713,59.64491,-3.32316,8.08,-0.14,0.36,2.0
1758079572.6544,1758079572.42699,0.0,0.0,0.0,-4.69825,54.48829,-2.40642,7.86,0.2,0.36,2.0
1758079572.65696,1758079572.43699,0.0,0.0,0.0,-2.92208,48.24305,-1.77617,7.86,0.2,0.36,2.0
1758079572.67237,1758079572.44699,0.0,0.0,0.0,-0.97403,40.10705,-1.20321,7.33,0.13,0.45,2.0
1758079572.68816,1758079572.45699,0.0,0.0,0.0,1.3178,31.2262,-0.80214,7.33,0.13,0.45,2.0
1758079572.68937,1758079572.46699,0.0,0.0,0.0,4.87014,19.13679,0.11459,7.21,-0.2,0.28,2.0
1758079572.70421,1758079572.47699,0.0,0.0,0.0,8.136,15.87093,1.03132,7.8,-0.67,0.17,2.0
1758079572.70619,1758079572.48699,0.0,0.0,0.0,10.8862,15.87093,1.43239,7.8,-0.67,0.17,2.0
1758079572.72142,1758079572.49699,0.0,0.0,0.0,14.09476,15.58445,1.48969,8.55,-0.84,0.22,2.0
1758079572.73825,1758079572.50699,0.0,0.0,0.0,15.92823,14.83961,1.3751,8.55,-0.84,0.22,2.0
1758079572.73917,1758079572.51699,0.0,0.0,0.0,17.36062,13.69369,1.08862,8.79,-0.66,0.92,2.0
1758079572.75422,1758079572.52699,0.0,0.0,0.0,18.27736,9.4538,0.51566,8.79,-0.66,0.92,2.0
1758079572.75694,1758079572.53699,0.0,0.0,0.0,19.36597,2.92208,0.0,8.85,-0.35,0.84,2.0
1758079572.77251,1758079572.54699,0.0,0.0,0.0,18.90761,-3.55234,-0.11459,8.98,-0.06,0.23,2.0
1758079572.78904,1758079572.55699,0.0,0.0,0.0,18.10547,-9.74028,-1.03132,8.98,-0.06,0.23,2.0
1758079572.79019,1758079572.56699,0.0,0.0,0.0,17.47521,-14.20935,-1.48969,9.21,0.04,-0.38,2.0
1758079572.80616,1758079572.57699,0.0,0.0,0.0,17.53251,-2.6929,-1.03132,9.21,0.04,-0.38,2.0
1758079572.80746,1758079572.58699,0.0,0.0,0.0,17.47521,13.86558,1.08862,11.22,-0.07,-0.71,2.0
1758079572.82219,1758079572.59699,0.0,0.0,0.0,14.15206,30.36677,0.97403,11.22,-0.07,-0.71,2.0
1758079572.83828,1758079572.60699,0.0,0.0,0.0,11.63104,32.54401,-2.57831,11.83,-0.06,-0.12,2.0
1758079572.84027,1758079572.61699,0.0,0.0,0.0,16.10011,-30.13758,-1.3178,7.12,-0.26,0.14,2.0
1758079572.85519,1758079572.62699,0.0,0.0,0.0,18.50654,-57.29578,3.95341,7.12,-0.26,0.14,2.0
1758079572.85892,1758079572.63699,0.0,0.0,0.0,21.25674,-61.07731,9.28192,10.92,-0.97,-2.13,2.0
1758079572.86421,1758079572.64699,0.0,0.0,0.0,23.54857,-54.14451,11.11538,10.92,-0.97,-2.13,2.0
1758079572.88148,1758079572.65699,0.0,0.0,0.0,30.19488,-42.68536,13.40721,12.56,-1.03,-3.74,2.0
1758079572.89892,1758079572.66699,0.0,0.0,0.0,31.45539,-43.20102,12.14671,12.56,-1.03,-3.74,2.0
1758079572.904,1758079572.67699,0.0,0.0,0.0,30.36677,-48.8733,10.59972,10.97,-1.04,-0.37,2.0
1758079572.90625,1758079572.68699,0.0,0.0,0.0,23.83505,-58.72818,9.22462,10.97,-1.04,-0.37,2.0
1758079572.92257,1758079572.69699,0.0,0.0,0.0,17.13144,-72.07809,11.97482,11.52,-0.21,2.91,2.0
1758079572.93857,1758079572.70699,0.0,0.0,0.0,9.68299,-71.79161,15.12609,14.88,2.16,4.37,2.0
1758079572.9406,1758079572.71699,0.0,0.0,0.0,3.03668,-68.06739,16.90226,14.88,2.16,4.37,2.0
1758079572.95806,1758079572.72699,0.0,0.0,0.0,-2.7502,-64.85883,14.78231,12.96,2.84,3.56,2.0
1758079572.95931,1758079572.73699,0.0,0.0,0.0,-3.38045,-64.22858,12.77696,12.96,2.84,3.56,2.0
1758079572.97636,1758079572.74699,0.0,0.0,0.0,-1.3751,-62.28051,10.8862,9.03,1.75,3.79,2.0
1758079572.97809,1758079572.75699,0.0,0.0,0.0,4.35448,-59.70221,10.37054,9.03,1.75,3.79,2.0
1758079572.99358,1758079572.76699,0.0,0.0,0.0,16.50119,-48.9879,7.96411,8.5,0.63,4.31,2.0
1758079572.99616,1758079572.77699,0.0,0.0,0.0,26.01229,-37.64333,6.18794,11.17,-0.28,2.93,2.0
1758079573.01242,1758079572.78699,0.0,0.0,0.0,36.15364,-28.70519,4.29718,11.17,-0.28,2.93,2.0
1758079573.02836,1758079572.79699,0.0,0.0,0.0,44.17505,-21.94428,1.08862,13.24,-0.56,1.69,2.0
1758079573.03037,1758079572.80699,0.0,0.0,0.0,50.87865,-3.09397,-3.26586,13.24,-0.56,1.69,2.0
1758079573.04559,1758079572.81699,0.0,0.0,0.0,51.79538,15.12609,-4.87014,14.51,-0.19,0.19,2.0
1758079573.04646,1758079572.82699,0.0,0.0,0.0,51.16513,33.68992,-5.09932,14.51,-0.19,0.19,2.0
1758079573.06131,1758079572.83699,0.0,0.0,0.0,49.79003,50.2484,-4.64096,13.46,0.55,-0.67,2.0
1758079573.07841,1758079572.84699,0.0,0.0,0.0,46.69606,68.64035,-3.49504,11.2,1.01,-0.29,2.0
1758079573.08032,1758079572.85699,0.0,0.0,0.0,44.40423,75.68773,-2.92208,11.2,1.01,-0.29,2.0
1758079573.09835,1758079572.86699,0.0,0.0,0.0,42.05511,80.72976,-2.7502,9.71,1.41,-0.08,2.0
1758079573.09931,1758079572.87699,0.0,0.0,0.0,39.70598,84.1675,-2.63561,9.71,1.41,-0.08,2.0
1758079573.11433,1758079572.88699,0.0,0.0,0.0,37.24226,85.94368,-2.46372,8.79,1.62,0.33,2.0
1758079573.11585,1758079572.89699,0.0,0.0,0.0,35.58068,85.77179,-2.97938,8.79,1.62,0.33,2.0
1758079573.13036,1758079572.90699,0.0,0.0,0.0,33.68992,85.37071,-3.09397,8.03,1.52,0.61,2.0
1758079573.1464,1758079572.91699,0.0,0.0,0.0,30.76784,81.07353,-3.66693,8.03,1.52,0.61,2.0
1758079573.14757,1758079572.92699,0.0,0.0,0.0,28.13223,76.0315,-4.1253,7.66,1.33,0.84,2.0
1758079573.16238,1758079572.93699,0.0,0.0,0.0,25.09555,70.01544,-4.64096,7.36,1.14,0.95,2.0
1758079573.17843,1758079572.94699,0.0,0.0,0.0,21.7724,62.68159,-5.15662,7.36,1.14,0.95,2.0
1758079573.17956,1758079572.95699,0.0,0.0,0.0,16.3293,50.3057,-5.78687,7.28,1.05,0.87,2.0
1758079573.19466,1758079572.96699,0.0,0.0,0.0,12.43318,40.50812,-6.53172,7.28,1.05,0.87,2.0
1758079573.19554,1758079572.97699,0.0,0.0,0.0,8.136,30.82513,-7.21927,7.08,1.18,0.54,2.0
1758079573.21066,1758079572.98699,0.0,0.0,0.0,3.55234,21.48592,-7.79223,7.08,1.18,0.54,2.0
1758079573.22666,1758079572.99699,0.0,0.0,0.0,-3.95341,12.08941,-8.136,7.06,1.46,0.46,2.0
1758079573.22758,1758079573.00699,0.0,0.0,0.0,-8.99544,8.93814,-8.36518,7.38,1.85,0.25,2.0
1758079573.24252,1758079573.01699,0.0,0.0,0.0,-14.03747,4.23989,-8.30789,7.38,1.85,0.25,2.0
1758079573.25865,1758079573.02699,0.0,0.0,0.0,-18.10547,-3.66693,-7.62034,7.24,2.09,0.22,2.0
1758079573.26068,1758079573.03699,0.0,0.0,0.0,-22.11617,-18.33465,-5.90147,7.24,2.09,0.22,2.0
1758079573.27847,1758079573.04699,0.0,0.0,0.0,-24.12152,-26.12688,-4.0107,7.3,1.92,-0.11,2.0
1758079573.28043,1758079573.05699,0.0,0.0,0.0,-25.21014,-31.74186,-1.66158,7.3,1.92,-0.11,2.0
1758079573.29845,1758079573.06699,0.0,0.0,0.0,-26.47065,-34.77854,0.97403,8.49,1.7,-0.23,2.0
1758079573.29963,1758079573.07699,0.0,0.0,0.0,-28.30412,-25.89769,4.69825,10.49,1.37,0.23,2.0
1758079573.31446,1758079573.08699,0.0,0.0,0.0,-30.53865,-5.95876,1.66158,10.49,1.37,0.23,2.0
1758079573.31887,1758079573.09699,0.0,0.0,0.0,-29.22085,16.84496,2.40642,12.64,0.94,0.45,2.0
1758079573.33447,1758079573.10699,0.0,0.0,0.0,-29.56462,3.83882,1.83346,12.64,0.94,0.45,2.0
1758079573.33564,1758079573.11699,0.0,0.0,0.0,-30.36677,-22.00158,1.08862,8.63,1.03,0.61,2.0
1758079573.35072,1758079573.12699,0.0,0.0,0.0,-32.77319,-27.44468,0.0,8.63,1.03,0.61,2.0
1758079573.36742,1758079573.13699,0.0,0.0,0.0,-34.09099,-31.56997,-1.77617,10.53,1.43,-0.45,2.0
1758079573.36897,1758079573.14699,0.0,0.0,0.0,-35.58068,-28.13223,-2.40642,10.53,1.43,-0.45,2.0
1758079573.38369,1758079573.15699,0.0,0.0,0.0,-35.92446,-24.12152,-1.66158,11.17,1.44,-2.83,2.0
1758079573.38489,1758079573.16699,0.0,0.0,0.0,-36.03905,-26.52795,0.74485,10.76,1.38,-1.55,2.0
1758079573.40171,1758079573.17699,0.0,0.0,0.0,-34.89313,-36.26823,4.18259,10.76,1.38,-1.55,2.0
1758079573.41853,1758079573.18699,0.0,0.0,0.0,-31.39809,-56.83742,5.09932,10.2,1.52,-0.7,2.0
1758079573.42047,1758079573.19699,0.0,0.0,0.0,-27.67386,-67.32255,1.43239,10.2,1.52,-0.7,2.0
1758079573.43548,1758079573.20699,0.0,0.0,0.0,-23.20479,-74.31263,-5.27121,13.95,1.62,2.64,2.0
1758079573.43777,1758079573.21699,0.0,0.0,0.0,-16.95955,-71.56243,-12.2613,13.95,1.62,2.64,2.0
1758079573.45276,1758079573.22699,0.0,0.0,0.0,-5.90147,-59.01466,-16.55848,18.21,-0.41,4.78,2.0
1758079573.46877,1758079573.23699,0.0,0.0,0.0,0.22918,-57.41038,-14.49583,14.93,-0.99,3.85,2.0
1758079573.46994,1758079573.24699,0.0,0.0,0.0,4.0107,-62.68159,-11.91752,14.93,-0.99,3.85,2.0
1758079573.48642,1758079573.25699,0.0,0.0,0.0,4.46907,-67.55173,-9.85487,8.98,-0.47,2.56,2.0
1758079573.4873,1758079573.26699,0.0,0.0,0.0,-2.40642,-66.06203,-8.76626,8.98,-0.47,2.56,2.0
1758079573.5033,1758079573.27699,0.0,0.0,0.0,-11.22997,-61.93674,-7.67763,7.86,0.21,2.44,2.0
1758079573.50641,1758079573.28699,0.0,0.0,0.0,-22.23076,-59.24384,-7.21927,7.86,0.21,2.44,2.0
1758079573.52178,1758079573.29699,0.0,0.0,0.0,-33.9764,-55.11855,-4.29718,8.97,1.21,2.98,2.0
1758079573.53778,1758079573.30699,0.0,0.0,0.0,14.38124,-53.17049,-0.74485,11.57,1.98,2.62,2.0
1758079573.53868,1758079573.31699,0.0,0.0,0.0,-52.02457,-47.15443,2.86479,11.57,1.98,2.62,2.0
1758079573.55373,1758079573.32699,0.0,0.0,0.0,-54.71747,-31.39809,5.72958,13.2,1.67,1.41,2.0
1758079573.55471,1758079573.33699,0.0,0.0,0.0,-51.22243,-7.67763,7.67763,13.2,1.67,1.41,2.0
1758079573.57057,1758079573.34699,0.0,0.0,0.0,-45.55015,8.47978,6.87549,13.02,0.47,0.61,2.0
1758079573.5884,1758079573.35699,0.0,0.0,0.0,-38.50277,22.74642,5.32851,13.02,0.47,0.61,2.0
1758079573.59011,1758079573.36699,0.0,0.0,0.0,-30.65324,34.60666,3.38045,11.17,-0.83,0.1,2.0
1758079573.60653,1758079573.37699,0.0,0.0,0.0,-19.42327,48.07116,1.20321,11.17,-0.83,-0.54,2.0
1758079573.60789,1758079573.38699,0.0,0.0,0.0,-13.23533,55.86338,0.17189,9.32,-1.71,-0.54,2.0
1758079573.62259,1758079573.39699,0.0,0.0,0.0,-7.84952,61.65026,-0.34377,8.69,-1.93,-0.45,2.0
1758079573.63858,1758079573.40699,0.0,0.0,0.0,-3.38045,66.29122,-0.17189,8.69,-1.93,-0.45,2.0
1758079573.63975,1758079573.41699,0.0,0.0,0.0,0.80214,72.36457,-0.17189,8.44,-1.59,-0.33,2.0
1758079573.65459,1758079573.42699,0.0,0.0,0.0,2.7502,75.34396,0.11459,8.44,-1.59,-0.33,2.0
1758079573.65605,1758079573.43699,0.0,0.0,0.0,3.72423,76.54716,0.34377,8.29,-0.93,-0.06,2.0
1758079573.67058,1758079573.44699,0.0,0.0,0.0,4.23989,76.31798,0.45837,8.29,-0.93,-0.06,2.0
1758079573.68784,1758079573.45699,0.0,0.0,0.0,4.29718,75.28666,0.17189,7.94,-0.31,0.18,2.0
1758079573.68893,1758079573.46699,0.0,0.0,0.0,4.81285,72.76565,-0.17189,7.85,0.15,0.59,2.0
1758079573.70386,1758079573.47699,0.0,0.0,0.0,5.27121,68.06739,-0.40107,7.85,0.15,0.59,2.0
1758079573.70501,1758079573.48699,0.0,0.0,0.0,5.90147,60.61894,-0.80214,7.31,0.29,0.63,2.0
1758079573.72239,1758079573.49699,0.0,0.0,0.0,7.79223,47.03984,-1.03132,7.31,0.29,0.63,2.0
1758079573.73859,1758079573.50699,0.0,0.0,0.0,9.62569,38.27358,-0.40107,7.08,0.09,0.6,2.0
1758079573.73984,1758079573.51699,0.0,0.0,0.0,11.74564,28.87707,0.97403,7.08,0.09,0.6,2.0
1758079573.75485,1758079573.52699,0.0,0.0,0.0,15.87093,22.97561,2.63561,7.36,-0.47,0.31,2.0
1758079573.75609,1758079573.53699,0.0,0.0,0.0,18.50654,20.62648,3.20856,8.24,-0.94,0.22,2.0
1758079573.77094,1758079573.54699,0.0,0.0,0.0,20.68378,18.50654,3.49504,8.24,-0.94,0.22,2.0
1758079573.78685,1758079573.55699,0.0,0.0,0.0,22.57454,15.98552,3.49504,8.55,-0.94,0.78,2.0
1758079573.78822,1758079573.56699,0.0,0.0,0.0,24.80907,9.74028,3.20856,8.55,-0.94,0.78,2.0
1758079573.80262,1758079573.57699,0.0,0.0,0.0,25.89769,3.83882,3.26586,8.82,-0.62,0.77,2.0
1758079573.81893,1758079573.58699,0.0,0.0,0.0,26.64254,-3.72423,3.09397,8.82,-0.62,0.77,2.0
1758079573.81981,1758079573.59699,0.0,0.0,0.0,26.47065,-12.71966,2.63561,8.86,-0.27,0.0,2.0
1758079573.83463,1758079573.60699,0.0,0.0,0.0,27.04361,-20.68378,0.68755,9.28,-0.01,-0.85,2.0
1758079573.83612,1758079573.61699,0.0,0.0,0.0,27.73116,-21.25674,0.34377,9.28,-0.01,-0.85,2.0
1758079573.8507,1758079573.62699,0.0,0.0,0.0,27.04361,-10.59972,0.85944,11.0,0.03,-1.38,2.0
1758079573.86663,1758079573.63699,0.0,0.0,0.0,26.87172,4.18259,2.34913,11.0,0.03,-1.38,2.0
1758079573.86815,1758079573.64699,0.0,0.0,0.0,24.86637,22.05888,1.77617,12.17,0.12,-0.85,2.0
1758079573.88289,1758079573.65699,0.0,0.0,0.0,24.23611,13.23533,-2.86479,12.17,0.12,-0.85,2.0
1758079573.89897,1758079573.66699,0.0,0.0,0.0,25.43933,-25.61122,-2.29183,9.45,0.21,-0.45,2.0
1758079573.89985,1758079573.67699,0.0,0.0,0.0,30.65324,-56.49364,0.51566,9.45,0.21,-0.45,2.0
1758079573.91484,1758079573.68699,0.0,0.0,0.0,35.69527,-65.2026,6.24524,9.25,-0.4,-2.42,2.0
1758079573.91777,1758079573.69699,0.0,0.0,0.0,37.18496,-61.76485,7.21927,11.74,-1.1,-2.75,2.0
1758079573.93294,1758079573.70699,0.0,0.0,0.0,39.87786,-62.5097,11.28727,11.74,-1.1,-2.75,2.0
1758079573.94902,1758079573.71699,0.0,0.0,0.0,38.78925,-70.41652,16.90226,11.58,-1.5,0.67,2.0
1758079573.95064,1758079573.72699,0.0,0.0,0.0,31.62727,-90.29816,24.12152,11.58,-1.5,0.67,2.0
1758079573.96567,1758079573.73699,0.0,0.0,0.0,24.35071,-97.8039,31.11161,14.77,0.23,6.16,2.0
1758079573.9669,1758079573.74699,0.0,0.0,0.0,16.3293,-97.6893,34.43476,14.77,0.23,6.16,2.0
1758079573.98193,1758079573.75699,0.0,0.0,0.0,4.98473,-83.65184,29.62192,16.12,3.06,4.28,2.0
1758079573.99772,1758079573.76699,0.0,0.0,0.0,0.0573,-77.92226,25.89769,11.14,2.65,2.85,2.0
1758079573.99891,1758079573.77699,0.0,0.0,0.0,-2.06265,-74.59911,22.40265,11.14,2.65,2.85,2.0
1758079574.0137,1758079573.78699,0.0,0.0,0.0,0.0573,-73.3386,18.90761,6.82,1.48,3.96,2.0
1758079574.01575,1758079573.79699,0.0,0.0,0.0,10.48513,-65.43179,12.54778,6.82,1.48,3.96,2.0
1758079574.03254,1758079573.80699,0.0,0.0,0.0,19.53786,-52.42564,7.39116,7.69,0.33,2.94,2.0
1758079574.04868,1758079573.81699,0.0,0.0,0.0,29.39274,-40.85189,2.40642,7.69,0.33,2.94,2.0
1758079574.04989,1758079573.82699,0.0,0.0,0.0,38.73195,-32.88778,-2.29183,11.34,-0.61,1.93,2.0
1758079574.06492,1758079573.83699,0.0,0.0,0.0,48.12846,-14.43854,-7.84952,14.11,-0.76,0.73,2.0
1758079574.06673,1758079573.84699,0.0,0.0,0.0,50.59217,4.81285,-10.25595,14.11,-0.76,0.73,2.0
1758079574.08197,1758079573.85699,0.0,0.0,0.0,50.1911,25.49662,-11.63104,14.82,-0.3,-1.13,2.0
1758079574.09799,1758079573.86699,0.0,0.0,0.0,48.41494,45.43555,-11.28727,14.82,-0.3,-1.13,2.0
1758079574.09933,1758079573.87699,0.0,0.0,0.0,44.00316,69.95815,-9.91217,12.78,0.52,-0.66,2.0
1758079574.11381,1758079573.88699,0.0,0.0,0.0,40.96649,79.41196,-8.47978,12.78,0.52,-0.66,2.0
1758079574.11528,1758079573.89699,0.0,0.0,0.0,37.87251,84.74047,-7.33386,10.6,1.46,-0.43,2.0
1758079574.13153,1758079573.90699,0.0,0.0,0.0,35.06502,87.26147,-6.18794,10.6,1.46,-0.43,2.0
1758079574.14777,1758079573.91699,0.0,0.0,0.0,31.28349,89.78249,-5.15662,9.6,2.04,0.01,2.0
1758079574.14892,1758079573.92699,0.0,0.0,0.0,28.99167,89.6679,-5.32851,8.93,2.12,0.07,2.0
1758079574.16374,1758079573.93699,0.0,0.0,0.0,27.2155,87.37608,-5.4431,8.93,2.12,0.07,2.0
1758079574.16648,1758079573.94699,0.0,0.0,0.0,23.37668,84.74047,-7.21927,8.16,1.9,0.41,2.0
1758079574.18384,1758079573.95699,0.0,0.0,0.0,21.25674,82.7924,-8.136,8.16,1.9,0.41,2.0
1758079574.18476,1758079573.96699,0.0,0.0,0.0,18.44924,78.839,-9.33921,8.06,1.47,0.66,2.0
1758079574.2021,1758079573.97699,0.0,0.0,0.0,15.58445,73.62508,-10.65701,8.06,1.47,0.66,2.0
1758079574.21804,1758079573.98699,0.0,0.0,0.0,11.22997,64.28587,-11.97482,7.71,1.12,0.94,2.0
1758079574.21898,1758079573.99699,0.0,0.0,0.0,8.02141,56.83742,-12.89155,7.6,0.89,1.04,2.0
1758079574.23417,1758079574.00699,0.0,0.0,0.0,4.52637,47.89928,-13.5791,7.6,0.89,1.04,2.0
1758079574.23604,1758079574.01699,0.0,0.0,0.0,0.85944,37.87251,-13.80828,7.2,0.93,0.89,2.0
1758079574.25206,1758079574.02699,0.0,0.0,0.0,-5.4431,23.49127,-13.69369,7.2,0.93,0.89,2.0
1758079574.26802,1758079574.03699,0.0,0.0,0.0,-9.96947,16.90226,-13.40721,7.1,1.24,0.77,2.0
1758079574.26923,1758079574.04699,0.0,0.0,0.0,-14.66772,11.63104,-12.60507,7.1,1.24,0.77,2.0
1758079574.2838,1758079574.05699,0.0,0.0,0.0,-19.25138,6.8182,-11.91752,7.3,1.7,0.52,2.0
1758079574.28657,1758079574.06699,0.0,0.0,0.0,-25.21014,-1.94806,-10.19865,7.27,2.02,0.42,2.0
1758079574.30299,1758079574.07699,0.0,0.0,0.0,-28.07493,-11.17268,-8.36518,7.27,2.02,0.42,2.0
1758079574.31898,1758079574.08699,0.0,0.0,0.0,-29.73651,-20.97026,-6.07335,6.98,1.89,0.1,2.0
1758079574.32107,1758079574.09699,0.0,0.0,0.0,-30.82513,-29.8511,-4.0107,6.98,1.89,0.1,2.0
1758079574.33583,1758079574.10699,0.0,0.0,0.0,-32.20023,-40.7946,-0.34377,7.67,1.6,-0.23,2.0
1758079574.33899,1758079574.11699,0.0,0.0,0.0,-32.14294,-43.83128,2.40642,7.67,1.6,-0.23,2.0
1758079574.35415,1758079574.12699,0.0,0.0,0.0,-33.68992,-34.66395,3.89611,9.33,1.28,-0.28,2.0
1758079574.35775,1758079574.13699,0.0,0.0,0.0,-32.83048,-11.57375,0.68755,9.33,1.28,-0.28,2.0
1758079574.37315,1758079574.14699,0.0,0.0,0.0,-31.28349,13.12073,4.1253,12.66,0.93,0.19,2.0
1758079574.37563,1758079574.15699,0.0,0.0,0.0,-34.0337,-11.63104,0.85944,9.89,0.79,0.21,2.0
1758079574.39294,1758079574.16699,0.0,0.0,0.0,-34.0337,-24.23611,0.0573,9.89,0.79,0.21,2.0
1758079574.40916,1758079574.17699,0.0,0.0,0.0,-35.06502,-33.00237,-2.23454,10.6,1.29,0.71,2.0
1758079574.41168,1758079574.18699,0.0,0.0,0.0,-36.49741,-33.80451,-2.92208,10.6,1.29,0.71,2.0
1758079574.42797,1758079574.19699,0.0,0.0,0.0,-36.95578,-31.2262,-2.97938,11.02,1.29,-2.36,2.0
1758079574.42888,1758079574.20699,0.0,0.0,0.0,-37.18496,-28.59059,-1.77617,11.02,1.29,-2.36,2.0
1758079574.44789,1758079574.21699,0.0,0.0,0.0,-36.49741,-33.40344,2.40642,10.68,1.09,-1.63,2.0
1758079574.4495,1758079574.22699,0.0,0.0,0.0,-35.40879,-39.3622,5.32851,9.81,1.09,-1.33,2.0
1758079574.46387,1758079574.23699,0.0,0.0,0.0,-32.88778,-47.38361,6.13065,9.81,1.09,-1.33,2.0
1758079574.46748,1758079574.24699,0.0,0.0,0.0,-29.27814,-54.08722,3.95341,12.75,1.42,1.41,2.0
1758079574.48299,1758079574.25699,0.0,0.0,0.0,-21.60051,-64.62964,-4.23989,12.75,1.42,1.41,2.0
1758079574.49895,1758079574.26699,0.0,0.0,0.0,-14.09476,-70.13004,-9.91217,16.54,0.03,4.64,2.0
1758079574.50837,1758079574.27699,0.0,0.0,0.0,-5.4431,-71.27596,-13.5218,16.54,0.03,4.64,2.0
1758079574.50874,1758079574.28699,0.0,0.0,0.0,1.43239,-67.78091,-14.72501,15.97,-1.16,4.38,2.0
1758079574.52898,1758079574.29699,0.0,0.0,0.0,7.10468,-63.59832,-12.71966,10.83,-1.01,2.75,2.0
1758079574.53089,1758079574.30699,0.0,0.0,0.0,6.8182,-60.04598,-10.71431,10.83,-1.01,2.75,2.0
1758079574.54666,1758079574.31699,0.0,0.0,0.0,3.26586,-54.94666,-8.30789,8.44,-0.48,2.85,2.0
1758079574.54869,1758079574.32699,0.0,0.0,0.0,-3.38045,-47.89928,-5.55769,8.44,-0.48,2.85,2.0
1758079574.56389,1758079574.33699,0.0,0.0,0.0,-20.3973,-48.9879,-0.57296,9.39,0.76,2.62,2.0
1758079574.56674,1758079574.34699,0.0,0.0,0.0,-26.64254,-54.71747,2.6929,9.39,0.76,2.62,2.0
1758079574.58296,1758079574.35699,0.0,0.0,0.0,-33.9764,-24.63719,6.07335,11.47,1.99,2.33,2.0
1758079574.59901,1758079574.36699,0.0,0.0,0.0,-40.33623,-6.13065,8.99544,11.47,1.99,2.33,2.0
1758079574.60804,1758079574.37699,0.0,0.0,0.0,-41.99781,8.36518,8.88085,12.89,2.05,0.79,2.0
1758079574.60902,1758079574.38699,0.0,0.0,0.0,-41.25296,23.89234,6.99009,12.8,1.09,0.38,2.0
1758079574.62655,1758079574.39699,0.0,0.0,0.0,-38.84654,36.6693,4.52637,12.8,1.09,0.38,2.0
1758079574.62778,1758079574.40699,0.0,0.0,0.0,-33.23156,51.39432,0.17189,11.17,0.05,0.39,2.0
1758079574.64326,1758079574.41699,0.0,0.0,0.0,-28.87707,57.0093,-1.77617,11.17,0.05,0.39,2.0
1758079574.6615,1758079574.42699,0.0,0.0,0.0,-23.83505,60.73353,-3.09397,9.57,-0.89,0.24,2.0
1758079574.66443,1758079574.43699,0.0,0.0,0.0,-18.90761,64.40046,-3.72423,9.57,-0.89,0.24,2.0
1758079574.68147,1758079574.44699,0.0,0.0,0.0,-13.34992,69.38519,-3.49504,8.86,-1.38,0.23,2.0
1758079574.68418,1758079574.45699,0.0,0.0,0.0,-9.5684,71.50513,-2.11994,8.33,-1.35,0.14,2.0
1758079574.70169,1758079574.46699,0.0,0.0,0.0,-6.58902,72.13539,-0.68755,8.33,-1.35,0.14,2.0
1758079574.70413,1758079574.47699,0.0,0.0,0.0,-4.18259,71.04677,0.97403,7.95,-1.05,0.55,2.0
1758079574.72167,1758079574.48699,0.0,0.0,0.0,-0.0573,67.09336,3.83882,7.95,-1.05,0.55,2.0
1758079574.72414,1758079574.49699,0.0,0.0,0.0,2.6929,62.22322,5.84417,7.85,-0.69,0.69,2.0
1758079574.73907,1758079574.50699,0.0,0.0,0.0,5.32851,56.60823,7.33386,7.85,-0.69,0.69,2.0
1758079574.74075,1758079574.51699,0.0,0.0,0.0,8.70896,50.99325,8.42248,7.85,-0.52,0.76,2.0
1758079574.75505,1758079574.52699,0.0,0.0,0.0,14.09476,42.05511,9.28192,7.92,-0.56,0.82,2.0
1758079574.75622,1758079574.53699,0.0,0.0,0.0,17.47521,35.00772,9.4538,7.92,-0.56,0.82,2.0
1758079574.77211,1758079574.54699,0.0,0.0,0.0,21.02755,28.36141,9.91217,7.73,-0.75,0.7,2.0
1758079574.78801,1758079574.55699,0.0,0.0,0.0,26.06958,24.98096,9.96947,7.73,-0.75,0.7,2.0
1758079574.78969,1758079574.56699,0.0,0.0,0.0,28.93437,24.92367,9.22462,8.33,-0.88,0.42,2.0
1758079574.80397,1758079574.57699,0.0,0.0,0.0,31.56997,21.37133,8.136,8.33,-0.88,0.42,2.0
1758079574.80633,1758079574.58699,0.0,0.0,0.0,33.86181,16.90226,7.50575,8.24,-0.81,0.48,2.0
1758079574.82218,1758079574.59699,0.0,0.0,0.0,35.86716,11.22997,6.24524,8.24,-0.81,0.48,2.0
1758079574.83794,1758079574.60699,0.0,0.0,0.0,35.98175,5.95876,4.81285,8.65,-0.54,0.47,2.0
1758079574.83913,1758079574.61699,0.0,0.0,0.0,35.52338,0.45837,3.72423,8.74,-0.07,0.04,2.0
1758079574.8549,1758079574.62699,0.0,0.0,0.0,35.2942,-1.14592,2.29183,8.74,-0.07,0.04,2.0
1758079574.85615,1758079574.63699,0.0,0.0,0.0,34.89313,4.18259,0.22918,9.77,0.35,-0.1,2.0
1758079574.87091,1758079574.64699,0.0,0.0,0.0,34.66395,10.65701,1.3178,9.77,0.35,-0.1,2.0
1758079574.88799,1758079574.65699,0.0,0.0,0.0,34.77854,22.74642,2.46372,11.02,0.54,0.03,2.0
1758079574.88923,1758079574.66699,0.0,0.0,0.0,33.05967,35.40879,0.11459,11.02,0.54,0.03,2.0
1758079574.90497,1758079574.67699,0.0,0.0,0.0,31.39809,34.32018,-3.83882,11.26,0.64,0.31,2.0
1758079574.90696,1758079574.68699,0.0,0.0,0.0,29.56462,-0.22918,-8.65166,8.21,0.79,0.43,2.0
1758079574.92276,1758079574.69699,0.0,0.0,0.0,32.71589,-36.55471,-6.53172,8.21,0.79,0.43,2.0
1758079574.93904,1758079574.70699,0.0,0.0,0.0,31.62727,-53.17049,-2.63561,8.82,0.16,-1.42,2.0
1758079574.94073,1758079574.71699,0.0,0.0,0.0,29.50733,-59.35843,4.18259,8.82,0.16,-1.42,2.0
1758079574.95501,1758079574.72699,0.0,0.0,0.0,28.13223,-59.07195,7.04738,11.05,-0.18,-2.82,2.0
1758079574.95625,1758079574.73699,0.0,0.0,0.0,27.50197,-57.0093,9.4538,11.05,-0.18,-2.82,2.0
1758079574.97102,1758079574.74699,0.0,0.0,0.0,25.89769,-61.1346,9.33921,10.63,-0.12,-1.32,2.0
1758079574.97563,1758079574.75699,0.0,0.0,0.0,21.94428,-78.15145,8.0787,9.68,0.19,1.47,2.0
1758079574.99406,1758079574.76699,0.0,0.0,0.0,16.84496,-88.06361,7.21927,9.68,0.19,1.47,2.0
1758079574.9959,1758079574.77699,0.0,0.0,0.0,10.65701,-93.56402,8.47978,12.63,1.28,3.66,2.0
1758079575.01235,1758079574.78699,0.0,0.0,0.0,0.11459,-92.64729,12.08941,12.63,1.28,3.66,2.0
1758079575.03005,1758079574.79699,0.0,0.0,0.0,-5.72958,-88.80846,13.46451,15.4,2.44,4.72,2.0
1758079575.03144,1758079574.80699,0.0,0.0,0.0,-9.39651,-83.13618,13.80828,15.4,2.44,4.72,2.0
1758079575.04612,1758079574.81699,0.0,0.0,0.0,-10.71431,-80.61517,13.69369,12.35,1.44,3.97,2.0
1758079575.04727,1758079574.82699,0.0,0.0,0.0,-6.8182,-82.04756,14.49583,12.35,1.44,3.86,2.0
1758079575.063,1758079574.83699,0.0,0.0,0.0,0.0573,-79.69843,15.24068,8.14,0.36,3.86,2.0
1758079575.07912,1758079574.84699,0.0,0.0,0.0,9.05273,-70.18733,15.12609,8.51,-0.68,2.48,2.0
1758079575.0799,1758079574.85699,0.0,0.0,0.0,18.9649,-57.41038,14.43854,8.51,-0.68,2.48,2.0
1758079575.09539,1758079574.86699,0.0,0.0,0.0,33.00237,-42.74266,9.74028,11.24,-1.08,1.79,2.0
1758079575.09631,1758079574.87699,0.0,0.0,0.0,39.19032,-30.36677,5.78687,11.24,-1.08,1.79,2.0
1758079575.11354,1758079574.88699,0.0,0.0,0.0,42.39888,-13.00614,1.08862,13.59,-0.54,1.15,2.0
1758079575.1291,1758079574.89699,0.0,0.0,0.0,43.31561,8.02141,-3.03668,13.59,-0.54,1.15,2.0
1758079575.13213,1758079574.90699,0.0,0.0,0.0,40.7946,39.53409,-7.33386,14.06,0.34,-0.95,2.0
1758079575.14918,1758079574.91699,0.0,0.0,0.0,37.81522,56.78012,-9.28192,12.34,1.12,-0.86,2.0
1758079575.14992,1758079574.92699,0.0,0.0,0.0,34.43476,69.21331,-10.19865,12.34,1.12,-0.86,2.0
1758079575.16696,1758079574.93699,0.0,0.0,0.0,30.30947,78.03686,-11.34457,10.55,1.59,-0.51,2.0
1758079575.16788,1758079574.94699,0.0,0.0,0.0,25.43933,82.21945,-11.63104,10.55,1.59,-0.51,2.0
1758079575.18319,1758079574.95699,0.0,0.0,0.0,22.40265,82.67782,-10.8289,9.23,1.7,-0.03,2.0
1758079575.20265,1758079574.96699,0.0,0.0,0.0,19.53786,82.27674,-10.08406,9.23,1.7,-0.03,2.0
1758079575.20307,1758079574.97699,0.0,0.0,0.0,15.41257,80.27139,-7.96411,8.48,1.6,0.04,2.0
1758079575.21914,1758079574.98699,0.0,0.0,0.0,12.71966,74.08345,-6.8182,8.04,1.42,0.28,2.0
1758079575.21991,1758079574.99699,0.0,0.0,0.0,9.33921,67.9528,-5.90147,8.04,1.42,0.28,2.0
1758079575.23789,1758079575.00699,0.0,0.0,0.0,5.95876,61.1346,-5.50039,7.89,1.21,0.45,2.0
1758079575.23877,1758079575.01699,0.0,0.0,0.0,1.43239,51.22243,-5.61499,7.89,1.21,0.45,2.0
1758079575.25832,1758079575.02699,0.0,0.0,0.0,-1.83346,45.14908,-6.70361,8.03,1.04,0.65,2.0
1758079575.259,1758079575.03699,0.0,0.0,0.0,-4.92744,39.13302,-8.136,8.03,1.04,0.65,2.0
1758079575.26878,1758079575.04699,0.0,0.0,0.0,-7.84952,32.77319,-9.74028,7.93,1.0,0.67,2.0
1758079575.28842,1758079575.05699,0.0,0.0,0.0,-12.204,23.0902,-12.08941,7.62,1.09,0.71,2.0
1758079575.28976,1758079575.06699,0.0,0.0,0.0,-14.78231,16.38659,-12.54778,7.62,1.09,0.71,2.0
1758079575.30771,1758079575.07699,0.0,0.0,0.0,-17.36062,10.59972,-13.00614,7.47,1.21,0.45,2.0
1758079575.30887,1758079575.08699,0.0,0.0,0.0,-19.19409,4.81285,-12.204,7.47,1.21,0.45,2.0
1758079575.3277,1758079575.09699,0.0,0.0,0.0,-20.97026,-5.61499,-9.85487,7.63,1.16,0.07,2.0
1758079575.32886,1758079575.10699,0.0,0.0,0.0,-21.25674,-14.38124,-7.10468,7.63,1.16,0.07,2.0
1758079575.34771,1758079575.11699,0.0,0.0,0.0,-20.68378,-21.37133,-3.89611,7.62,0.87,-0.15,2.0
1758079575.34886,1758079575.12699,0.0,0.0,0.0,-19.76705,-26.69983,-0.51566,7.62,0.87,-0.15,2.0
1758079575.36831,1758079575.13699,0.0,0.0,0.0,-17.36062,-35.75257,3.89611,8.36,0.45,-0.72,2.0
1758079575.37056,1758079575.14699,0.0,0.0,0.0,-16.55848,-35.00772,8.136,9.48,0.1,-0.44,2.0
1758079575.38803,1758079575.15699,0.0,0.0,0.0,-15.58445,-17.01685,7.39116,9.48,0.1,-0.44,2.0
1758079575.38882,1758079575.16699,0.0,0.0,0.0,-14.32395,9.74028,6.87549,12.76,-0.24,-0.06,2.0
1758079575.40739,1758079575.17699,0.0,0.0,0.0,-8.76626,8.42248,7.21927,12.76,-0.24,-0.06,2.0
1758079575.40859,1758079575.18699,0.0,0.0,0.0,-10.37054,-10.54242,4.29718,9.39,-0.05,-0.06,2.0
1758079575.42741,1758079575.19699,0.0,0.0,0.0,-10.8289,-19.25138,2.06265,9.39,-0.05,-0.06,2.0
1758079575.43017,1758079575.20699,0.0,0.0,0.0,-11.28727,-25.7831,-0.11459,9.96,0.9,0.07,2.0
1758079575.46641,1758079575.21699,0.0,0.0,0.0,-11.57375,-26.01229,-0.85944,10.57,1.64,-3.01,2.0
1758079575.46894,1758079575.22699,0.0,0.0,0.0,-12.54778,-22.34536,-2.29183,10.57,1.64,-3.01,2.0
1758079575.46954,1758079575.23699,0.0,0.0,0.0,-13.75099,-19.42327,-2.06265,11.09,1.88,-1.47,2.0
1758079575.4708,1758079575.24699,0.0,0.0,0.0,-15.64175,-24.4653,1.20321,11.09,1.88,-1.47,2.0
1758079575.48652,1758079575.25699,0.0,0.0,0.0,-17.18874,-29.33544,3.26586,10.4,1.58,-1.45,2.0
1758079575.4882,1758079575.26699,0.0,0.0,0.0,-18.27736,-34.49206,3.32316,10.4,1.58,-1.45,2.0
1758079575.5035,1758079575.27699,0.0,0.0,0.0,-18.73572,-40.7373,1.20321,11.64,1.37,0.42,2.0
1758079575.50765,1758079575.28699,0.0,0.0,0.0,-16.50119,-52.65482,-5.27121,14.08,0.78,2.24,2.0
1758079575.52351,1758079575.29699,0.0,0.0,0.0,-13.17803,-60.90542,-10.59972,14.08,0.78,2.24,2.0
1758079575.5295,1758079575.30699,0.0,0.0,0.0,-8.59437,-64.62964,-14.83961,15.57,-0.33,3.35,2.0
1758079575.56645,1758079575.31699,0.0,0.0,0.0,-3.32316,-63.65561,-16.84496,15.57,-0.33,3.35,2.0
1758079575.56814,1758079575.32699,0.0,0.0,0.0,1.83346,-62.39511,-14.32395,13.0,-0.42,2.25,2.0
1758079575.56881,1758079575.33699,0.0,0.0,0.0,2.23454,-62.96807,-11.51645,13.0,-0.42,2.25,2.0
1758079575.57284,1758079575.34699,0.0,0.0,0.0,-0.68755,-60.96271,-9.28192,9.08,0.03,2.02,2.0
1758079575.58836,1758079575.35699,0.0,0.0,0.0,-7.10468,-57.63955,-7.39116,9.08,0.03,2.02,2.0
1758079575.5893,1758079575.36699,0.0,0.0,0.0,-21.08485,-52.36834,-3.89611,8.45,0.74,3.3,2.0
1758079575.60798,1758079575.37699,0.0,0.0,0.0,-32.54401,-45.26366,-1.3178,9.62,1.64,3.02,2.0
1758079575.60891,1758079575.38699,0.0,0.0,0.0,-42.34158,-67.55173,2.63561,9.62,1.64,3.02,2.0
1758079575.62832,1758079575.39699,0.0,0.0,0.0,-52.08187,-29.73651,8.76626,11.6,1.98,2.13,2.0
1758079575.63366,1758079575.40699,0.0,0.0,0.0,-54.431,-16.90226,11.91752,11.6,1.98,2.13,2.0
1758079575.63595,1758079575.41699,0.0,0.0,0.0,-53.45696,-1.20321,13.75099,12.76,1.35,0.03,2.0
1758079575.65536,1758079575.42699,0.0,0.0,0.0,-50.59217,14.09476,14.20935,12.76,1.35,0.03,2.0
1758079575.65794,1758079575.43699,0.0,0.0,0.0,-44.51882,32.6013,13.12073,12.33,0.36,-0.83,2.0
1758079575.69878,1758079575.44699,0.0,0.0,0.0,-39.70598,41.25296,11.34457,10.69,-0.51,-0.74,2.0
1758079575.70276,1758079575.45699,0.0,0.0,0.0,-34.77854,48.58683,10.02676,10.69,-0.51,-0.74,2.0
1758079575.70339,1758079575.46699,0.0,0.0,0.0,-30.48136,55.11855,8.42248,9.63,-1.23,-0.79,2.0
1758079575.70891,1758079575.47699,0.0,0.0,0.0,-25.09555,62.96807,5.95876,9.63,-1.23,-0.79,2.0
1758079575.71085,1758079575.48699,0.0,0.0,0.0,-22.28806,64.91612,4.46907,8.89,-1.51,-0.4,2.0
1758079575.72927,1758079575.49699,0.0,0.0,0.0,-19.76705,65.43179,2.46372,8.89,-1.51,-0.4,2.0
1758079575.73284,1758079575.50699,0.0,0.0,0.0,-17.53251,65.43179,1.20321,7.97,-1.41,0.02,2.0
1758079575.74848,1758079575.51699,0.0,0.0,0.0,-15.29797,59.18654,-1.20321,7.06,-1.06,0.33,2.0
1758079575.75364,1758079575.52699,0.0,0.0,0.0,-14.03747,51.85268,-3.03668,7.06,-1.06,0.33,2.0
1758079575.75401,1758079575.53699,0.0,0.0,0.0,-12.89155,45.03448,-4.58366,6.66,-0.59,0.45,2.0
1758079575.76995,1758079575.54699,0.0,0.0,0.0,-11.63104,39.13302,-5.78687,6.66,-0.59,0.45,2.0
1758079575.78652,1758079575.55699,0.0,0.0,0.0,-8.99544,32.14294,-5.95876,7.17,-0.23,0.34,2.0
1758079575.78816,1758079575.56699,0.0,0.0,0.0,-6.47442,28.07493,-5.15662,7.17,-0.23,0.34,2.0
1758079575.8033,1758079575.57699,0.0,0.0,0.0,-3.60963,23.72045,-3.83882,7.76,-0.15,0.41,2.0
1758079575.80958,1758079575.58699,0.0,0.0,0.0,0.51566,21.48592,-1.48969,7.76,-0.15,0.41,2.0
1758079575.82651,1758079575.59699,0.0,0.0,0.0,2.97938,23.72045,-0.51566,8.69,-0.24,0.56,2.0
1758079575.82756,1758079575.60699,0.0,0.0,0.0,5.27121,24.92367,0.17189,9.54,-0.34,0.47,2.0
1758079575.84264,1758079575.61699,0.0,0.0,0.0,7.79223,24.92367,1.03132,9.54,-0.34,0.47,2.0
1758079575.84677,1758079575.62699,0.0,0.0,0.0,10.71431,22.57454,1.94806,9.66,-0.41,0.14,2.0
1758079575.86265,1758079575.63699,0.0,0.0,0.0,12.08941,19.88164,1.43239,9.66,-0.41,0.14,2.0
1758079575.86684,1758079575.64699,0.0,0.0,0.0,14.09476,19.53786,-0.11459,9.81,-0.45,-0.35,2.0
1758079575.88266,1758079575.65699,0.0,0.0,0.0,15.98552,22.63183,-1.94806,9.81,-0.45,-0.35,2.0
1758079575.88629,1758079575.66699,0.0,0.0,0.0,21.02755,29.96569,-1.3751,10.66,-0.56,-0.77,2.0
1758079575.90149,1758079575.67699,0.0,0.0,0.0,23.37668,43.88857,-2.11994,11.5,-0.88,-0.58,2.0
1758079575.91821,1758079575.68699,0.0,0.0,0.0,25.09555,55.11855,-1.94806,11.5,-0.88,-0.58,2.0
1758079575.92366,1758079575.69699,0.0,0.0,0.0,25.72581,56.66553,-2.97938,11.04,-0.88,-0.46,2.0
1758079575.92402,1758079575.70699,0.0,0.0,0.0,26.18417,18.73572,-8.76626,11.04,-0.88,-0.46,2.0
1758079575.94268,1758079575.71699,0.0,0.0,0.0,30.88243,-22.11617,-5.15662,7.11,-0.7,-0.09,2.0
1758079575.94361,1758079575.72699,0.0,0.0,0.0,30.88243,-47.15443,0.57296,7.11,-0.7,-0.09,2.0
1758079575.9617,1758079575.73699,0.0,0.0,0.0,30.65324,-52.48294,5.50039,9.05,-0.87,-2.15,2.0
1758079575.97772,1758079575.74699,0.0,0.0,0.0,30.88243,-50.99325,8.93814,10.47,-0.58,-3.27,2.0
1758079575.97869,1758079575.75699,0.0,0.0,0.0,31.28349,-49.96192,10.71431,10.47,-0.58,-3.27,2.0
1758079575.99374,1758079575.76699,0.0,0.0,0.0,30.65324,-53.80074,10.65701,9.62,-0.01,-1.11,2.0
1758079575.99464,1758079575.77699,0.0,0.0,0.0,28.476,-59.18654,9.05273,9.62,-0.01,-1.11,2.0
1758079576.01086,1758079575.78699,0.0,0.0,0.0,21.37133,-69.49979,5.50039,9.8,0.58,1.07,2.0
1758079576.02659,1758079575.79699,0.0,0.0,0.0,14.09476,-73.96885,5.61499,9.8,0.58,1.07,2.0
1758079576.02768,1758079575.80699,0.0,0.0,0.0,6.70361,-78.38063,8.136,12.28,1.63,3.15,2.0
1758079576.04253,1758079575.81699,0.0,0.0,0.0,-3.55234,-85.94368,14.83961,12.28,1.63,3.15,2.0
1758079576.04386,1758079575.82699,0.0,0.0,0.0,-8.02141,-84.56858,19.13679,14.0,2.31,4.79,2.0
1758079576.06304,1758079575.83699,0.0,0.0,0.0,-9.39651,-80.0995,22.51724,12.9,1.32,5.07,2.0
1758079576.06592,1758079575.84699,0.0,0.0,0.0,-8.59437,-79.46925,24.5226,12.9,1.32,5.07,2.0
1758079576.08176,1758079575.85699,0.0,0.0,0.0,-2.11994,-79.75573,27.10091,9.92,0.55,4.65,2.0
1758079576.09774,1758079575.86699,0.0,0.0,0.0,5.09932,-70.53111,27.50197,9.92,0.55,4.65,2.0
1758079576.09864,1758079575.87699,0.0,0.0,0.0,14.03747,-57.86874,26.01229,10.75,-0.14,2.95,2.0
1758079576.11352,1758079575.88699,0.0,0.0,0.0,23.0329,-47.32632,21.60051,10.75,-0.14,2.95,2.0
1758079576.11475,1758079575.89699,0.0,0.0,0.0,33.9764,-24.4653,10.94349,11.72,-0.43,0.94,2.0
1758079576.13031,1758079575.90699,0.0,0.0,0.0,39.24761,-4.35448,3.32316,13.5,-0.46,-0.18,2.0
1758079576.14653,1758079575.91699,0.0,0.0,0.0,43.4875,15.46986,-3.66693,13.5,-0.46,-0.18,2.0
1758079576.14804,1758079575.92699,0.0,0.0,0.0,46.40959,33.74722,-8.88085,13.23,-0.42,-0.99,2.0
1758079576.16277,1758079575.93699,0.0,0.0,0.0,49.15978,57.86874,-12.54778,13.23,-0.42,-0.99,2.0
1758079576.16377,1758079575.94699,0.0,0.0,0.0,50.363,71.04677,-12.54778,12.1,-0.18,-0.84,2.0
1758079576.18027,1758079575.95699,0.0,0.0,0.0,50.87865,81.5892,-11.97482,12.1,-0.18,-0.84,2.0
1758079576.19666,1758079575.96699,0.0,0.0,0.0,50.76406,85.71449,-10.65701,10.84,0.29,-0.75,2.0
1758079576.19859,1758079575.97699,0.0,0.0,0.0,48.8733,85.77179,-7.73493,9.24,0.95,0.02,2.0
1758079576.21352,1758079575.98699,0.0,0.0,0.0,46.2377,84.39669,-5.78687,9.24,0.95,0.02,2.0
1758079576.21579,1758079575.99699,0.0,0.0,0.0,42.97184,81.18813,-4.1253,8.36,1.52,0.43,2.0
1758079576.23084,1758079576.00699,0.0,0.0,0.0,35.92446,77.86497,-3.49504,8.36,1.52,0.43,2.0
1758079576.24755,1758079576.01699,0.0,0.0,0.0,30.19488,71.27596,-4.87014,7.7,1.9,0.72,2.0
1758079576.24871,1758079576.02699,0.0,0.0,0.0,24.4653,66.29122,-6.18794,7.7,1.9,0.72,2.0
1758079576.26354,1758079576.03699,0.0,0.0,0.0,17.99088,60.44705,-8.47978,7.41,2.02,0.76,2.0
1758079576.26821,1758079576.04699,0.0,0.0,0.0,7.62034,52.36834,-11.34457,7.41,2.02,0.76,2.0
1758079576.2839,1758079576.05699,0.0,0.0,0.0,0.40107,47.61279,-13.34992,7.52,2.02,0.68,2.0
1758079576.28718,1758079576.06699,0.0,0.0,0.0,-6.58902,41.48215,-14.9542,7.72,2.03,0.59,2.0
1758079576.30258,1758079576.07699,0.0,0.0,0.0,-13.34992,34.49206,-15.69904,7.72,2.03,0.59,2.0
1758079576.30421,1758079576.08699,0.0,0.0,0.0,-23.0329,23.60586,-15.98552,7.64,2.04,0.62,2.0
1758079576.32268,1758079576.09699,0.0,0.0,0.0,-28.93437,19.19409,-15.98552,7.64,2.04,0.62,2.0
1758079576.32406,1758079576.10699,0.0,0.0,0.0,-33.80451,14.66772,-15.24068,7.96,1.97,0.39,2.0
1758079576.34055,1758079576.11699,0.0,0.0,0.0,-37.35685,8.136,-13.98017,7.96,1.97,0.39,2.0
1758079576.35821,1758079576.12699,0.0,0.0,0.0,-40.62271,-4.1253,-10.54242,7.81,1.68,0.04,2.0
1758079576.36741,1758079576.13699,0.0,0.0,0.0,-41.08107,-10.65701,-8.02141,7.88,1.3,0.11,2.0
1758079576.36796,1758079576.14699,0.0,0.0,0.0,-40.50812,-16.272,-5.32851,7.88,1.3,0.11,2.0
1758079576.38361,1758079576.15699,0.0,0.0,0.0,-38.90384,-23.26209,-3.20856,8.3,0.83,-0.28,2.0
1758079576.38801,1758079576.16699,0.0,0.0,0.0,-34.89313,-36.49741,-1.03132,8.3,0.83,-0.28,2.0
1758079576.40359,1758079576.17699,0.0,0.0,0.0,-33.00237,-39.64868,2.63561,8.61,0.41,-0.36,2.0
1758079576.40962,1758079576.18699,0.0,0.0,0.0,-32.71589,-22.63183,2.23454,8.61,0.41,-0.36,2.0
1758079576.42642,1758079576.19699,0.0,0.0,0.0,-30.48136,7.96411,2.86479,12.06,0.22,-0.16,2.0
1758079576.42742,1758079576.20699,0.0,0.0,0.0,-24.17882,-0.40107,1.71887,10.32,0.09,-0.13,2.0
1758079576.44342,1758079576.21699,0.0,0.0,0.0,-23.94964,-20.62648,1.03132,10.32,0.09,-0.13,2.0
1758079576.44646,1758079576.22699,0.0,0.0,0.0,-25.09555,-31.11161,-0.34377,9.17,0.52,0.86,2.0
1758079576.46322,1758079576.23699,0.0,0.0,0.0,-24.63719,-38.61736,-1.48969,9.17,0.52,0.86,2.0
1758079576.47037,1758079576.24699,0.0,0.0,0.0,-23.60586,-37.12767,-2.11994,10.84,1.01,-2.35,2.0
1758079576.48644,1758079576.25699,0.0,0.0,0.0,-22.97561,-33.46074,-3.03668,10.84,1.01,-2.35,2.0
1758079576.48811,1758079576.26699,0.0,0.0,0.0,-22.68913,-32.37212,-3.20856,11.05,1.11,-1.88,2.0
1758079576.50266,1758079576.27699,0.0,0.0,0.0,-22.34536,-41.08107,-0.85944,11.05,1.11,-0.76,2.0
1758079576.50387,1758079576.28699,0.0,0.0,0.0,-22.51724,-47.15443,-0.34377,9.94,1.07,-0.76,2.0
1758079576.52196,1758079576.29699,0.0,0.0,0.0,-21.7151,-51.50891,-0.51566,11.42,1.22,0.76,2.0
1758079576.5379,1758079576.30699,0.0,0.0,0.0,-20.79837,-56.60823,-2.29183,11.42,1.22,0.76,2.0
1758079576.53886,1758079576.31699,0.0,0.0,0.0,-17.58981,-66.97877,-8.136,14.09,1.07,3.0,2.0
1758079576.5579,1758079576.32699,0.0,0.0,0.0,-14.32395,-70.30193,-12.71966,14.09,1.07,3.0,2.0
1758079576.55886,1758079576.33699,0.0,0.0,0.0,-10.37054,-70.41652,-16.04282,15.45,0.22,3.64,2.0
1758079576.57763,1758079576.34699,0.0,0.0,0.0,-7.44845,-69.04142,-16.95955,15.45,0.22,3.64,2.0
1758079576.57922,1758079576.35699,0.0,0.0,0.0,-6.07335,-69.90086,-15.41257,12.51,-0.02,1.97,2.0
1758079576.59792,1758079576.36699,0.0,0.0,0.0,-8.65166,-67.60902,-14.66772,9.05,0.1,1.75,2.0
1758079576.59951,1758079576.37699,0.0,0.0,0.0,-14.43854,-63.02536,-14.09476,9.05,0.1,1.75,2.0
1758079576.61373,1758079576.38699,0.0,0.0,0.0,-21.7724,-57.41038,-13.06344,8.52,0.44,3.09,2.0
1758079576.61683,1758079576.39699,0.0,0.0,0.0,-34.95043,-49.27437,-9.68299,8.52,0.44,3.09,2.0
1758079576.63284,1758079576.40699,0.0,0.0,0.0,-39.64868,-45.37826,-5.55769,9.7,0.98,2.87,2.0
1758079576.63379,1758079576.41699,0.0,0.0,0.0,-49.79003,-47.89928,-0.51566,9.7,0.98,2.87,2.0
1758079576.65263,1758079576.42699,0.0,0.0,0.0,-54.08722,-24.00693,7.04738,12.03,1.21,1.81,2.0
1758079576.66798,1758079576.43699,0.0,0.0,0.0,-52.25375,-3.26586,9.74028,13.55,0.66,-0.07,2.0
1758079576.66892,1758079576.44699,0.0,0.0,0.0,-47.95657,12.54778,11.28727,13.55,0.66,-0.07,2.0
1758079576.684,1758079576.45699,0.0,0.0,0.0,-41.99781,27.61657,10.94349,13.13,-0.27,-0.81,2.0
1758079576.68811,1758079576.46699,0.0,0.0,0.0,-31.74186,45.55015,8.76626,13.13,-0.27,-0.81,2.0
1758079576.70404,1758079576.47699,0.0,0.0,0.0,-24.12152,55.40502,7.50575,11.4,-1.01,-0.87,2.0
1758079576.70809,1758079576.48699,0.0,0.0,0.0,-17.01685,62.33781,6.18794,11.4,-1.01,-0.87,2.0
1758079576.724,1758079576.49699,0.0,0.0,0.0,-11.34457,66.97877,4.81285,9.75,-1.51,-0.81,2.0
1758079576.72809,1758079576.50699,0.0,0.0,0.0,-4.18259,70.6457,3.09397,8.71,-1.66,-0.5,2.0
1758079576.74412,1758079576.51699,0.0,0.0,0.0,-0.74485,69.27061,2.40642,8.71,-1.66,-0.5,2.0
1758079576.7481,1758079576.52699,0.0,0.0,0.0,1.60428,66.46311,1.43239,8.07,-1.43,-0.22,2.0
1758079576.76382,1758079576.53699,0.0,0.0,0.0,3.32316,63.13995,0.97403,8.07,-1.43,-0.22,2.0
1758079576.77009,1758079576.54699,0.0,0.0,0.0,4.64096,57.41038,0.80214,7.93,-0.9,-0.06,2.0
1758079576.78583,1758079576.55699,0.0,0.0,0.0,5.55769,54.08722,1.3178,7.93,-0.9,-0.06,2.0
1758079576.78789,1758079576.56699,0.0,0.0,0.0,6.7609,50.64947,2.00535,8.06,-0.39,0.09,2.0
1758079576.80777,1758079576.57699,0.0,0.0,0.0,7.84952,46.86795,2.92208,8.06,-0.39,0.09,2.0
1758079576.81032,1758079576.58699,0.0,0.0,0.0,9.68299,41.59674,3.95341,8.11,-0.09,0.16,2.0
1758079576.82817,1758079576.59699,0.0,0.0,0.0,11.00079,36.6693,4.35448,8.08,-0.02,0.26,2.0
1758079576.83101,1758079576.60699,0.0,0.0,0.0,11.97482,31.11161,5.21392,8.08,-0.02,0.26,2.0
1758079576.84829,1758079576.61699,0.0,0.0,0.0,12.77696,28.24682,4.81285,8.11,-0.12,0.22,2.0
1758079576.85144,1758079576.62699,0.0,0.0,0.0,13.5791,23.20479,4.98473,8.11,-0.12,0.22,2.0
1758079576.86678,1758079576.63699,0.0,0.0,0.0,13.75099,20.34,4.46907,8.15,-0.19,0.2,2.0
1758079576.86799,1758079576.64699,0.0,0.0,0.0,13.12073,17.53251,3.26586,8.15,-0.19,0.2,2.0
1758079576.88285,1758079576.65699,0.0,0.0,0.0,11.63104,13.12073,1.83346,8.32,-0.06,0.22,2.0
1758079576.88399,1758079576.66699,0.0,0.0,0.0,10.8862,9.68299,0.68755,8.53,0.26,-0.23,2.0
1758079576.90204,1758079576.67699,0.0,0.0,0.0,10.59972,6.53172,0.45837,8.53,0.26,-0.23,2.0
1758079576.91797,1758079576.68699,0.0,0.0,0.0,10.8289,8.136,-0.17189,9.21,0.47,-0.78,2.0
1758079576.92008,1758079576.69699,0.0,0.0,0.0,12.08941,22.91831,2.29183,9.21,0.47,-0.78,2.0
1758079576.93784,1758079576.70699,0.0,0.0,0.0,13.00614,44.17505,2.63561,11.09,0.23,-0.99,2.0
1758079576.95939,1758079576.71699,0.0,0.0,0.0,14.15206,58.49899,2.11994,11.09,0.23,-0.99,2.0
1758079576.95988,1758079576.72699,0.0,0.0,0.0,15.75634,59.81679,-0.80214,10.97,-0.11,-0.54,2.0
1758079576.96283,1758079576.73699,0.0,0.0,0.0,17.18874,12.60507,-5.15662,7.19,-0.24,-0.05,2.0
1758079576.97812,1758079576.74699,0.0,0.0,0.0,22.11617,-18.73572,0.80214,7.19,-0.24,-0.05,2.0
1758079576.98013,1758079576.75699,0.0,0.0,0.0,24.63719,-28.36141,5.95876,9.81,-0.94,-1.87,2.0
1758079576.99816,1758079576.76699,0.0,0.0,0.0,22.91831,-28.01764,6.47442,9.81,-0.94,-1.87,2.0
1758079577.00017,1758079576.77699,0.0,0.0,0.0,23.37668,-30.30947,9.5684,11.03,-0.91,-2.62,2.0
1758079577.01812,1758079576.78699,0.0,0.0,0.0,21.88699,-32.77319,8.0787,11.03,-0.91,-2.62,2.0
1758079577.01901,1758079576.79699,0.0,0.0,0.0,18.9649,-37.01308,4.69825,10.37,-0.17,0.17,2.0
1758079577.03382,1758079576.80699,0.0,0.0,0.0,14.49583,-45.55015,1.08862,10.37,-0.17,0.17,2.0
1758079577.03624,1758079576.81699,0.0,0.0,0.0,4.35448,-60.33246,-2.00535,10.55,0.96,1.27,2.0
1758079577.05094,1758079576.82699,0.0,0.0,0.0,-4.64096,-67.43713,-0.40107,12.62,2.16,2.64,2.0
1758079577.06786,1758079576.83699,0.0,0.0,0.0,-14.49583,-70.58841,3.09397,12.62,2.16,2.64,2.0
1758079577.06906,1758079576.84699,0.0,0.0,0.0,-26.35606,-71.10406,8.36518,15.42,2.94,3.23,2.0
1758079577.08414,1758079576.85699,0.0,0.0,0.0,-30.48136,-65.89015,8.88085,15.42,2.94,3.23,2.0
1758079577.08747,1758079576.86699,0.0,0.0,0.0,-31.85646,-59.53032,6.53172,13.54,1.24,1.71,2.0
1758079577.10305,1758079576.87699,0.0,0.0,0.0,-30.76784,-57.63955,3.95341,13.54,1.24,1.71,2.0
1758079577.10651,1758079576.88699,0.0,0.0,0.0,-23.94964,-55.6342,0.40107,9.75,-0.46,1.16,2.0
1758079577.12292,1758079576.89699,0.0,0.0,0.0,-15.35527,-52.25375,-0.74485,8.4,-1.48,1.56,2.0
1758079577.12729,1758079576.90699,0.0,0.0,0.0,-3.49504,-48.58683,-1.3178,8.4,-1.48,1.56,2.0
1758079577.14288,1758079576.91699,0.0,0.0,0.0,10.25595,-46.63877,-1.08862,8.48,-2.09,2.86,2.0
1758079577.14653,1758079576.92699,0.0,0.0,0.0,30.76784,-38.50277,0.17189,8.48,-2.09,2.86,2.0
1758079577.16217,1758079576.93699,0.0,0.0,0.0,42.62806,-28.01764,2.46372,10.42,-2.14,2.84,2.0
1758079577.1671,1758079576.94699,0.0,0.0,0.0,52.36834,-17.87628,5.21392,10.42,-2.14,2.84,2.0
1758079577.18217,1758079576.95699,0.0,0.0,0.0,58.67088,-9.5684,6.8182,12.03,-1.45,1.86,2.0
1758079577.18736,1758079576.96699,0.0,0.0,0.0,61.65026,8.30789,7.67763,12.29,-0.31,0.97,2.0
1758079577.20187,1758079576.97699,0.0,0.0,0.0,60.50434,23.0329,7.04738,12.29,-0.31,0.97,2.0
1758079577.21789,1758079576.98699,0.0,0.0,0.0,57.92604,37.64333,5.50039,12.11,0.75,-0.5,2.0
1758079577.21912,1758079576.99699,0.0,0.0,0.0,54.3164,52.08187,3.83882,12.11,0.75,-0.5,2.0
1758079577.2342,1758079577.00699,0.0,0.0,0.0,47.72739,72.07809,1.08862,11.51,1.63,-0.88,2.0
1758079577.23793,1758079577.01699,0.0,0.0,0.0,43.20102,82.21945,-0.85944,11.51,1.63,-0.88,2.0
1758079577.2532,1758079577.02699,0.0,0.0,0.0,39.19032,85.77179,-2.97938,10.71,2.09,-0.82,2.0
1758079577.25458,1758079577.03699,0.0,0.0,0.0,33.74722,84.91235,-4.81285,10.71,2.09,-0.82,2.0
1758079577.27273,1758079577.04699,0.0,0.0,0.0,30.99702,81.01624,-5.4431,9.47,2.13,-0.25,2.0
1758079577.27394,1758079577.05699,0.0,0.0,0.0,28.59059,78.03686,-5.50039,9.11,1.82,0.17,2.0
1758079577.29114,1758079577.06699,0.0,0.0,0.0,26.24147,74.42722,-5.72958,9.11,1.82,0.17,2.0
1758079577.30702,1758079577.07699,0.0,0.0,0.0,22.40265,67.9528,-5.4431,8.45,1.36,0.6,2.0
1758079577.30814,1758079577.08699,0.0,0.0,0.0,19.48057,62.28051,-5.61499,8.45,1.36,0.6,2.0
1758079577.32401,1758079577.09699,0.0,0.0,0.0,16.50119,55.57691,-5.95876,7.86,1.02,0.9,2.0
1758079577.32906,1758079577.10699,0.0,0.0,0.0,13.46451,47.09713,-6.8182,7.86,1.02,0.9,2.0
1758079577.34397,1758079577.11699,0.0,0.0,0.0,8.136,35.2942,-8.02141,7.52,1.07,0.66,2.0
1758079577.34756,1758079577.12699,0.0,0.0,0.0,4.23989,27.73116,-9.22462,7.63,1.37,0.78,2.0
1758079577.36291,1758079577.13699,0.0,0.0,0.0,-0.22918,20.16812,-9.74028,7.63,1.37,0.78,2.0
1758079577.36577,1758079577.14699,0.0,0.0,0.0,-5.09932,13.06344,-10.08406,7.7,1.79,0.75,2.0
1758079577.38387,1758079577.15699,0.0,0.0,0.0,-12.71966,6.70361,-9.5684,7.7,1.79,0.75,2.0
1758079577.38714,1758079577.16699,0.0,0.0,0.0,-17.76169,3.89611,-8.88085,8.01,2.1,0.75,2.0
1758079577.40197,1758079577.17699,0.0,0.0,0.0,-22.86102,2.63561,-8.25059,8.01,2.1,0.75,2.0
1758079577.41826,1758079577.18699,0.0,0.0,0.0,-27.1582,1.66158,-7.16197,8.4,2.2,0.81,2.0
1758079577.42105,1758079577.19699,0.0,0.0,0.0,-32.54401,-0.85944,-5.55769,8.7,1.98,0.73,2.0
1758079577.43825,1758079577.20698,0.0,0.0,0.0,-35.2369,-4.58366,-4.58366,8.7,1.98,0.73,2.0
1758079577.43949,1758079577.21698,0.0,0.0,0.0,-37.12767,-9.4538,-3.95341,8.7,1.53,0.39,2.0
1758079577.45595,1758079577.22698,0.0,0.0,0.0,-37.87251,-15.0115,-2.92208,8.7,1.53,0.39,2.0
1758079577.45891,1758079577.23698,0.0,0.0,0.0,-38.78925,-24.23611,-1.14592,8.77,0.91,-0.01,2.0
1758079577.47416,1758079577.24698,0.0,0.0,0.0,-38.78925,-30.53865,-0.11459,8.77,0.91,-0.01,2.0
1758079577.47601,1758079577.25698,0.0,0.0,0.0,-38.84654,-36.7266,0.45837,8.91,0.32,-0.53,2.0
1758079577.49208,1758079577.26698,0.0,0.0,0.0,-40.04975,-31.28349,3.89611,8.91,0.32,-0.53,2.0
1758079577.50806,1758079577.27698,0.0,0.0,0.0,-41.99781,-4.0107,3.60963,10.17,0.19,-0.8,2.0
1758079577.50951,1758079577.28698,0.0,0.0,0.0,-39.99245,4.87014,7.67763,11.55,0.36,-0.95,2.0
1758079577.52534,1758079577.29698,0.0,0.0,0.0,-42.97184,-13.12073,4.0107,11.55,0.36,-0.95,2.0
1758079577.52706,1758079577.30698,0.0,0.0,0.0,-45.20637,-31.79916,2.63561,7.89,1.16,-0.49,2.0
1758079577.54233,1758079577.31698,0.0,0.0,0.0,-47.26902,-42.28429,2.11994,7.89,1.16,-0.49,2.0
1758079577.5582,1758079577.32698,0.0,0.0,0.0,-49.27437,-51.85268,2.40642,8.99,1.84,-0.92,2.0
1758079577.55962,1758079577.33698,0.0,0.0,0.0,-51.10783,-60.27517,2.00535,8.99,1.84,-0.92,2.0
1758079577.57818,1758079577.34698,0.0,0.0,0.0,-51.79538,-73.45319,-1.03132,9.82,2.06,-1.97,2.0
1758079577.57923,1758079577.35698,0.0,0.0,0.0,-48.52953,-80.95895,-3.55234,12.8,1.83,1.68,2.0
1758079577.59435,1758079577.36698,0.0,0.0,0.0,-42.57077,-81.18813,-7.21927,12.8,1.83,1.68,2.0
1758079577.59524,1758079577.37698,0.0,0.0,0.0,-34.66395,-66.69229,-10.31324,18.63,-0.73,4.73,2.0
1758079577.61007,1758079577.38698,0.0,0.0,0.0,-19.48057,-42.05511,-9.05273,18.63,-0.73,4.73,2.0
1758079577.62632,1758079577.39698,0.0,0.0,0.0,-10.48513,-39.64868,-5.90147,17.43,-2.83,2.85,2.0
1758079577.62726,1758079577.40698,0.0,0.0,0.0,-3.49504,-41.59674,-3.55234,17.43,-2.83,2.85,2.0
1758079577.64294,1758079577.41698,0.0,0.0,0.0,-2.06265,-41.08107,-3.72423,10.37,-1.76,2.81,2.0
1758079577.64652,1758079577.42698,0.0,0.0,0.0,-4.98473,-39.64868,-4.92744,8.39,-0.23,2.09,2.0
1758079577.66306,1758079577.43698,0.0,0.0,0.0,-12.08941,-36.21093,-6.35983,8.39,-0.23,2.09,2.0
1758079577.66678,1758079577.44698,0.0,0.0,0.0,-21.88699,-34.60666,-6.13065,9.21,1.26,2.56,2.0
1758079577.68291,1758079577.45698,0.0,0.0,0.0,-39.76327,-29.27814,-5.09932,9.21,1.26,2.56,2.0
1758079577.6884,1758079577.46698,0.0,0.0,0.0,-49.90463,-20.34,-3.38045,11.46,2.32,2.24,2.0
1758079577.70654,1758079577.47698,0.0,0.0,0.0,-57.12389,-12.60507,-1.3178,11.46,2.32,2.24,2.0
1758079577.70845,1758079577.48698,0.0,0.0,0.0,-61.1346,-2.29183,0.34377,12.14,2.16,0.95,2.0
1758079577.72917,1758079577.49698,0.0,0.0,0.0,-61.36378,15.69904,1.71887,12.14,2.16,0.95,2.0
1758079577.73527,1758079577.50698,0.0,0.0,0.0,-58.21251,27.96034,2.00535,11.96,0.85,0.01,2.0
1758079577.74056,1758079577.51698,0.0,0.0,0.0,-53.68615,37.81522,2.29183,10.99,-0.62,-0.14,2.0
1758079577.74786,1758079577.52698,0.0,0.0,0.0,-48.35764,44.8053,2.11994,10.99,-0.62,-0.14,2.0
1758079577.76313,1758079577.53698,0.0,0.0,0.0,-39.07573,51.16513,1.71887,9.57,-1.63,-0.22,2.0
1758079577.76781,1758079577.54698,0.0,0.0,0.0,-33.11696,54.431,0.74485,9.57,-1.63,-0.22,2.0
1758079577.78315,1758079577.55698,0.0,0.0,0.0,-26.87172,56.49364,-0.51566,8.63,-1.91,-0.29,2.0
1758079577.78782,1758079577.56698,0.0,0.0,0.0,-21.14215,57.23849,-1.71887,8.63,-1.91,-0.29,2.0
1758079577.80313,1758079577.57698,0.0,0.0,0.0,-13.5791,57.81144,-3.38045,8.0,-1.63,-0.24,2.0
1758079577.80675,1758079577.58698,0.0,0.0,0.0,-8.99544,57.46767,-4.18259,7.71,-1.1,-0.02,2.0
1758079577.82287,1758079577.59698,0.0,0.0,0.0,-4.64096,56.89471,-4.18259,7.71,-1.1,-0.02,2.0
1758079577.82677,1758079577.60698,0.0,0.0,0.0,-0.40107,55.86338,-3.60963,7.86,-0.74,0.39,2.0
1758079577.84305,1758079577.61698,0.0,0.0,0.0,5.84417,53.39967,-2.29183,7.86,-0.74,0.39,2.0
1758079577.84691,1758079577.62698,0.0,0.0,0.0,10.25595,48.35764,-0.85944,8.02,-0.64,0.68,2.0
1758079577.86303,1758079577.63698,0.0,0.0,0.0,14.38124,41.48215,1.14592,8.02,-0.64,0.68,2.0
1758079577.86823,1758079577.64698,0.0,0.0,0.0,18.50654,35.2942,4.1253,7.94,-0.76,0.8,2.0
1758079577.88685,1758079577.65698,0.0,0.0,0.0,24.5226,26.41335,6.41713,8.36,-1.07,0.64,2.0
1758079577.89017,1758079577.66698,0.0,0.0,0.0,28.59059,22.11617,8.93814,8.36,-1.07,0.64,2.0
1758079577.90847,1758079577.67698,0.0,0.0,0.0,32.37212,23.54857,10.19865,9.15,-1.34,0.47,2.0
1758079577.91347,1758079577.68698,0.0,0.0,0.0,36.32552,25.38203,10.8862,9.15,-1.34,0.47,2.0
1758079577.9282,1758079577.69698,0.0,0.0,0.0,38.50277,23.72045,10.71431,9.53,-1.15,0.56,2.0
1758079577.93024,1758079577.70698,0.0,0.0,0.0,39.99245,22.28806,10.25595,9.53,-1.15,0.56,2.0
1758079577.9476,1758079577.71698,0.0,0.0,0.0,40.7373,21.60051,9.05273,9.74,-0.66,0.72,2.0
1758079577.9491,1758079577.72698,0.0,0.0,0.0,39.53409,13.75099,6.87549,9.74,-0.66,0.11,2.0
1758079577.9684,1758079577.73698,0.0,0.0,0.0,38.21629,9.74028,4.1253,9.68,0.0,0.11,2.0
1758079577.97056,1758079577.74698,0.0,0.0,0.0,36.21093,10.25595,0.85944,10.22,0.63,-0.27,2.0
1758079577.98761,1758079577.75698,0.0,0.0,0.0,34.95043,14.61043,-1.83346,10.22,0.63,-0.27,2.0
1758079577.98884,1758079577.76698,0.0,0.0,0.0,32.83048,25.09555,-2.57831,11.01,0.96,-0.54,2.0
1758079578.00538,1758079577.77698,0.0,0.0,0.0,30.82513,36.7266,-3.72423,11.01,0.96,-0.54,2.0
1758079578.00866,1758079577.78698,0.0,0.0,0.0,27.61657,42.68536,-5.84417,10.92,0.89,-0.15,2.0
1758079578.02505,1758079577.79698,0.0,0.0,0.0,25.09555,40.62271,-7.39116,10.92,0.89,-0.15,2.0
1758079578.02911,1758079577.80698,0.0,0.0,0.0,19.88164,-1.3751,-13.17803,9.09,0.83,0.51,2.0
1758079578.0477,1758079577.81698,0.0,0.0,0.0,22.68913,-38.44547,-9.22462,5.92,0.53,-0.46,2.0
1758079578.0486,1758079577.82698,0.0,0.0,0.0,21.88699,-55.7488,-4.92744,5.92,0.53,-0.46,2.0
1758079578.06665,1758079577.83698,0.0,0.0,0.0,21.02755,-65.89015,0.57296,9.44,-0.07,-2.53,2.0
1758079578.06861,1758079577.84698,0.0,0.0,0.0,21.25674,-69.90086,6.35983,9.44,-0.07,-2.53,2.0
1758079578.08681,1758079577.85698,0.0,0.0,0.0,22.40265,-70.6457,9.39651,9.92,-0.28,-2.85,2.0
1758079578.08863,1758079577.86698,0.0,0.0,0.0,22.51724,-79.01089,10.48513,9.92,-0.28,-2.85,2.0
1758079578.10701,1758079577.87698,0.0,0.0,0.0,18.10547,-92.70457,12.49048,9.61,-0.26,1.06,2.0
1758079578.10787,1758079577.88698,0.0,0.0,0.0,13.5791,-106.68475,15.75634,12.53,0.41,5.01,2.0
1758079578.1233,1758079577.89698,0.0,0.0,0.0,8.65166,-106.57015,18.56383,12.53,0.41,5.01,2.0
1758079578.1269,1758079577.90698,0.0,0.0,0.0,4.23989,-100.32492,19.42327,15.44,1.33,5.59,2.0
1758079578.14233,1758079577.91698,0.0,0.0,0.0,2.11994,-90.87111,17.24603,15.44,1.33,5.59,2.0
1758079578.15866,1758079577.92698,0.0,0.0,0.0,3.72423,-89.49601,16.90226,12.19,1.14,5.72,2.0
1758079578.16352,1758079577.93698,0.0,0.0,0.0,7.62034,-88.80846,16.272,12.19,1.14,5.72,2.0
1758079578.17837,1758079577.94698,0.0,0.0,0.0,13.5791,-84.1675,15.46986,9.34,0.51,3.28,2.0
1758079578.18384,1758079577.95698,0.0,0.0,0.0,25.8404,-69.27061,13.5218,10.89,-0.11,1.18,2.0
1758079578.19863,1758079577.96698,0.0,0.0,0.0,33.86181,-58.72818,10.37054,10.89,-0.11,1.18,2.0
1758079578.20026,1758079577.97698,0.0,0.0,0.0,39.82057,-45.49285,7.10468,13.66,0.0,0.81,2.0
1758079578.21531,1758079577.98698,0.0,0.0,0.0,42.68536,-25.7831,2.46372,13.66,0.0,0.81,2.0
1758079578.21808,1758079577.99698,0.0,0.0,0.0,43.4875,7.33386,-2.97938,15.68,0.26,-0.44,2.0
1758079578.23331,1758079578.00698,0.0,0.0,0.0,41.99781,27.44468,-6.07335,15.68,0.26,-0.44,2.0
1758079578.23536,1758079578.01698,0.0,0.0,0.0,39.76327,45.55015,-8.30789,13.41,0.37,-0.8,2.0
1758079578.25133,1758079578.02698,0.0,0.0,0.0,36.89849,61.76485,-9.96947,13.41,0.37,-0.8,2.0
1758079578.26738,1758079578.03698,0.0,0.0,0.0,31.74186,77.57849,-12.49048,11.22,0.74,-0.86,2.0
1758079578.26853,1758079578.04698,0.0,0.0,0.0,28.70519,82.67782,-12.89155,9.53,1.4,-0.31,2.0
1758079578.28337,1758079578.05698,0.0,0.0,0.0,25.89769,84.74047,-12.43318,9.53,1.4,-0.31,2.0
1758079578.28646,1758079578.06698,0.0,0.0,0.0,23.54857,86.34474,-9.96947,8.53,1.77,0.12,2.0
1758079578.30258,1758079578.07698,0.0,0.0,0.0,19.53786,86.05827,-8.30789,8.53,1.77,0.12,2.0
1758079578.31861,1758079578.08698,0.0,0.0,0.0,16.50119,84.79775,-6.24524,7.71,1.75,0.28,2.0
1758079578.32382,1758079578.09698,0.0,0.0,0.0,13.34992,82.33404,-4.46907,7.71,1.75,0.28,2.0
1758079578.33846,1758079578.10698,0.0,0.0,0.0,8.30789,75.57314,-2.11994,7.25,1.44,0.4,2.0
1758079578.34386,1758079578.11698,0.0,0.0,0.0,4.81285,69.84356,-1.71887,7.08,1.06,0.72,2.0
1758079578.35864,1758079578.12698,0.0,0.0,0.0,1.43239,64.80153,-1.3751,7.08,1.06,0.72,2.0
1758079578.35957,1758079578.13698,0.0,0.0,0.0,-2.11994,59.07195,-2.00535,7.37,0.89,0.57,2.0
1758079578.37474,1758079578.14698,0.0,0.0,0.0,-7.44845,46.75336,-2.97938,7.37,0.89,0.57,2.0
1758079578.37557,1758079578.15698,0.0,0.0,0.0,-10.94349,37.52874,-4.1253,7.28,0.99,0.58,2.0
1758079578.39119,1758079578.16698,0.0,0.0,0.0,-14.78231,28.87707,-5.27121,7.28,0.99,0.58,2.0
1758079578.40768,1758079578.17698,0.0,0.0,0.0,-18.50654,22.63183,-6.18794,7.74,1.31,0.55,2.0
1758079578.40904,1758079578.18698,0.0,0.0,0.0,-24.17882,13.23533,-6.70361,8.11,1.63,0.33,2.0
1758079578.42367,1758079578.19698,0.0,0.0,0.0,-27.44468,7.16197,-6.7609,8.11,1.63,0.33,2.0
1758079578.42506,1758079578.20698,0.0,0.0,0.0,-30.19488,0.40107,-6.24524,8.2,1.63,0.48,2.0
1758079578.44244,1758079578.21698,0.0,0.0,0.0,-31.79916,-7.84952,-5.78687,8.2,1.63,0.48,2.0
1758079578.44618,1758079578.22698,0.0,0.0,0.0,-32.37212,-22.34536,-4.18259,8.15,1.24,0.12,2.0
1758079578.46144,1758079578.23698,0.0,0.0,0.0,-31.2262,-31.91375,-3.09397,8.15,1.24,0.12,2.0
1758079578.47844,1758079578.24698,0.0,0.0,0.0,-29.22085,-40.85189,-2.23454,8.35,0.68,-0.42,2.0
1758079578.48366,1758079578.25698,0.0,0.0,0.0,-26.47065,-49.15978,-1.3178,8.35,0.68,-0.42,2.0
1758079578.49868,1758079578.26698,0.0,0.0,0.0,-23.66316,-54.3164,0.85944,8.8,0.26,-1.19,2.0
1758079578.49958,1758079578.27698,0.0,0.0,0.0,-23.54857,-37.24226,0.97403,11.01,0.12,-0.88,2.0
1758079578.51784,1758079578.28698,0.0,0.0,0.0,-21.37133,-6.53172,0.11459,11.01,0.12,-0.88,2.0
1758079578.51878,1758079578.29698,0.0,0.0,0.0,-18.56383,-13.06344,-1.3178,11.53,-0.08,-0.41,2.0
1758079578.5387,1758079578.30698,0.0,0.0,0.0,-18.85031,-24.12152,-1.66158,11.53,-0.08,-0.41,2.0
1758079578.5436,1758079578.31698,0.0,0.0,0.0,-21.08485,-29.56462,-2.11994,9.2,0.73,0.21,2.0
1758079578.55871,1758079578.32698,0.0,0.0,0.0,-23.20479,-33.46074,-3.03668,9.2,0.73,0.21,2.0
1758079578.55961,1758079578.33698,0.0,0.0,0.0,-25.21014,-30.88243,-1.60428,10.34,1.52,-1.44,2.0
1758079578.57545,1758079578.34698,0.0,0.0,0.0,-26.41335,-27.38738,-0.34377,10.49,1.79,-2.11,2.0
1758079578.57796,1758079578.35698,0.0,0.0,0.0,-26.69983,-26.18417,2.29183,10.49,1.79,-2.11,2.0
1758079578.59365,1758079578.36698,0.0,0.0,0.0,-26.24147,-30.93972,5.61499,10.19,1.6,-0.47,2.0
1758079578.59461,1758079578.37698,0.0,0.0,0.0,-22.74642,-44.23235,7.50575,10.19,1.6,-0.47,2.0
1758079578.61124,1758079578.38698,0.0,0.0,0.0,-18.85031,-52.884,4.69825,12.12,1.2,1.84,2.0
1758079578.62854,1758079578.39698,0.0,0.0,0.0,-13.86558,-57.23849,-0.34377,12.12,1.2,1.84,2.0
1758079578.62965,1758079578.40698,0.0,0.0,0.0,-8.59437,-53.28508,-5.32851,16.95,-0.31,3.99,2.0
1758079578.64684,1758079578.41698,0.0,0.0,0.0,-0.17189,-42.28429,-5.27121,16.67,-1.56,1.89,2.0
1758079578.64835,1758079578.42698,0.0,0.0,0.0,5.09932,-37.92981,-2.23454,16.67,-1.56,1.89,2.0
1758079578.66343,1758079578.43698,0.0,0.0,0.0,8.47978,-38.56006,-0.0573,10.86,-0.84,1.04,2.0
1758079578.66837,1758079578.44698,0.0,0.0,0.0,8.99544,-38.1017,1.20321,10.86,-0.84,1.04,2.0
1758079578.68366,1758079578.45698,0.0,0.0,0.0,3.38045,-31.51268,0.57296,8.45,-0.06,1.73,2.0
1758079578.68551,1758079578.46698,0.0,0.0,0.0,-3.83882,-27.33009,-0.57296,8.45,-0.06,1.73,2.0
1758079578.70178,1758079578.47698,0.0,0.0,0.0,-13.17803,-26.41335,-3.20856,8.43,0.85,3.28,2.0
1758079578.71751,1758079578.48698,0.0,0.0,0.0,-28.36141,-24.35071,-5.61499,8.43,0.85,3.28,2.0
1758079578.71875,1758079578.49698,0.0,0.0,0.0,-33.80451,-16.90226,-5.27121,9.81,2.0,2.92,2.0
1758079578.73354,1758079578.50698,0.0,0.0,0.0,-43.65939,-14.72501,-3.55234,11.54,2.19,1.8,2.0
1758079578.7366,1758079578.51698,0.0,0.0,0.0,-47.32632,-8.0787,-0.68755,11.54,2.19,1.8,2.0
1758079578.75256,1758079578.52698,0.0,0.0,0.0,-46.81066,11.34457,3.09397,12.62,1.21,0.85,2.0
1758079578.76876,1758079578.53698,0.0,0.0,0.0,-42.74266,24.5226,4.92744,12.62,1.21,0.85,2.0
1758079578.76975,1758079578.54698,0.0,0.0,0.0,-37.12767,36.15364,6.13065,12.46,-0.25,0.39,2.0
1758079578.7864,1758079578.55698,0.0,0.0,0.0,-30.59595,45.83662,6.53172,12.46,-0.25,0.39,2.0
1758079578.78806,1758079578.56698,0.0,0.0,0.0,-20.85567,54.94666,6.87549,10.89,-1.57,-0.09,2.0
1758079578.8038,1758079578.57698,0.0,0.0,0.0,-15.06879,59.70221,6.53172,9.55,-2.15,-0.43,2.0
1758079578.80638,1758079578.58698,0.0,0.0,0.0,-9.74028,63.94209,6.07335,9.55,-2.15,-0.43,2.0
1758079578.82256,1758079578.59698,0.0,0.0,0.0,-5.55769,67.60902,4.98473,9.04,-1.96,-0.38,2.0
1758079578.83884,1758079578.60698,0.0,0.0,0.0,-0.45837,69.84356,3.38045,9.04,-1.96,-0.38,2.0
1758079578.84411,1758079578.61698,0.0,0.0,0.0,2.00535,69.84356,2.34913,8.65,-1.28,-0.11,2.0
1758079578.85895,1758079578.62698,0.0,0.0,0.0,3.89611,68.92683,1.48969,8.65,-1.28,-0.11,2.0
1758079578.86022,1758079578.63698,0.0,0.0,0.0,5.32851,68.01009,0.80214,8.44,-0.49,0.06,2.0
1758079578.87539,1758079578.64698,0.0,0.0,0.0,6.8182,64.22858,0.22918,8.23,0.03,0.34,2.0
1758079578.87774,1758079578.65698,0.0,0.0,0.0,7.73493,60.38975,0.0573,8.23,0.03,0.34,2.0
1758079578.89304,1758079578.66698,0.0,0.0,0.0,8.47978,54.66018,0.17189,7.83,0.28,0.52,2.0
1758079578.90888,1758079578.67698,0.0,0.0,0.0,9.39651,47.38361,0.51566,7.83,0.28,0.52,2.0
1758079578.91223,1758079578.68698,0.0,0.0,0.0,11.34457,35.00772,1.14592,7.37,0.2,0.53,2.0
1758079578.92759,1758079578.69698,0.0,0.0,0.0,12.60507,26.47065,1.77617,7.37,0.2,0.53,2.0
1758079578.92912,1758079578.70698,0.0,0.0,0.0,14.49583,20.34,3.09397,7.38,-0.13,0.37,2.0
1758079578.94357,1758079578.71698,0.0,0.0,0.0,16.55848,18.27736,4.35448,7.38,-0.13,0.37,2.0
1758079578.94638,1758079578.72698,0.0,0.0,0.0,17.24603,16.61578,4.29718,8.16,-0.51,0.34,2.0
1758079578.96341,1758079578.73698,0.0,0.0,0.0,18.22006,12.83425,4.46907,8.32,-0.56,0.65,2.0
1758079578.96489,1758079578.74698,0.0,0.0,0.0,18.79302,8.136,3.89611,8.32,-0.56,0.65,2.0
1758079578.98195,1758079578.75698,0.0,0.0,0.0,19.13679,1.03132,3.20856,8.71,-0.38,0.77,2.0
1758079578.99794,1758079578.76698,0.0,0.0,0.0,19.19409,-1.48969,2.57831,8.71,-0.38,0.77,2.0
1758079578.99883,1758079578.77698,0.0,0.0,0.0,19.48057,-4.35448,2.23454,9.34,-0.14,0.23,2.0
1758079579.01791,1758079578.78698,0.0,0.0,0.0,18.85031,-11.97482,1.14592,9.34,-0.14,0.23,2.0
1758079579.01879,1758079578.79698,0.0,0.0,0.0,17.53251,-20.45459,-0.57296,8.87,0.1,-0.3,2.0
1758079579.03397,1758079578.80698,0.0,0.0,0.0,17.58981,-14.32395,-1.03132,10.09,0.18,-0.74,2.0
1758079579.03675,1758079578.81698,0.0,0.0,0.0,16.73037,0.51566,-1.03132,10.09,0.18,-0.74,2.0
1758079579.05293,1758079578.82698,0.0,0.0,0.0,14.49583,16.73037,-2.11994,11.68,0.21,-0.37,2.0
1758079579.05643,1758079578.83698,0.0,0.0,0.0,10.94349,27.1582,-6.35983,11.68,0.21,-0.37,2.0
1758079579.07393,1758079578.84698,0.0,0.0,0.0,9.39651,-6.07335,-10.71431,9.68,0.35,0.46,2.0
1758079579.07677,1758079578.85698,0.0,0.0,0.0,14.15206,-43.25832,-9.68299,9.68,0.35,0.46,2.0
1758079579.09296,1758079578.86698,0.0,0.0,0.0,14.83961,-64.85883,-4.0107,7.07,0.0,-0.7,2.0
1758079579.10876,1758079578.87698,0.0,0.0,0.0,15.0115,-65.2599,2.06265,11.35,-0.43,-2.55,2.0
1758079579.10991,1758079578.88698,0.0,0.0,0.0,17.87628,-57.29578,5.90147,11.35,-0.43,-2.55,2.0
1758079579.12631,1758079578.89698,0.0,0.0,0.0,19.82434,-55.86338,7.10468,11.14,-0.66,-2.26,2.0
1758079579.12753,1758079578.90698,0.0,0.0,0.0,20.34,-60.38975,7.21927,11.14,-0.66,-2.26,2.0
1758079579.14351,1758079578.91698,0.0,0.0,0.0,18.22006,-72.53646,7.44845,10.48,-0.66,1.96,2.0
1758079579.14817,1758079578.92698,0.0,0.0,0.0,14.49583,-79.52654,9.33921,10.48,-0.66,1.96,2.0
1758079579.16383,1758079578.93698,0.0,0.0,0.0,10.8289,-80.95895,11.74564,13.48,0.19,4.31,2.0
1758079579.16804,1758079578.94698,0.0,0.0,0.0,5.4431,-75.85962,13.69369,13.48,0.19,4.31,2.0
1758079579.18398,1758079578.95698,0.0,0.0,0.0,3.66693,-69.55708,13.40721,15.04,1.31,4.47,2.0
1758079579.19006,1758079578.96698,0.0,0.0,0.0,3.49504,-64.62964,12.54778,11.74,0.95,4.08,2.0
1758079579.20838,1758079578.97698,0.0,0.0,0.0,5.72958,-64.80153,12.49048,11.74,0.95,4.08,2.0
1758079579.20973,1758079578.98698,0.0,0.0,0.0,13.98017,-63.77021,13.46451,8.93,0.46,4.05,2.0
1758079579.22669,1758079578.99698,0.0,0.0,0.0,21.25674,-54.71747,13.75099,8.93,0.46,4.05,2.0
1758079579.22854,1758079579.00698,0.0,0.0,0.0,29.62192,-42.1124,13.86558,10.94,0.05,2.41,2.0
1758079579.2437,1758079579.01698,0.0,0.0,0.0,37.81522,-32.6013,12.54778,10.94,0.05,2.41,2.0
1758079579.24809,1758079579.02698,0.0,0.0,0.0,45.49285,-16.95955,8.30789,12.98,0.02,1.24,2.0
1758079579.26373,1758079579.03698,0.0,0.0,0.0,47.38361,-1.60428,4.58366,14.07,0.19,0.41,2.0
1758079579.26807,1758079579.04698,0.0,0.0,0.0,46.75336,17.6471,1.3178,14.07,0.19,0.41,2.0
1758079579.28405,1758079579.05698,0.0,0.0,0.0,44.46153,36.03905,-1.94806,13.41,0.48,-0.41,2.0
1758079579.28887,1758079579.06698,0.0,0.0,0.0,39.70598,59.35843,-5.50039,13.41,0.48,-0.41,2.0
1758079579.30637,1758079579.07698,0.0,0.0,0.0,36.15364,70.41652,-7.39116,11.38,0.9,0.06,2.0
1758079579.3079,1758079579.08698,0.0,0.0,0.0,33.11696,75.97421,-8.30789,11.38,0.9,0.06,2.0
1758079579.32281,1758079579.09698,0.0,0.0,0.0,30.13758,79.01089,-8.70896,9.75,1.35,0.0,2.0
1758079579.33881,1758079579.10698,0.0,0.0,0.0,26.98631,80.72976,-8.02141,8.88,1.64,0.28,2.0
1758079579.34075,1758079579.11698,0.0,0.0,0.0,25.09555,80.67246,-6.8182,8.88,1.64,0.28,2.0
1758079579.35815,1758079579.12698,0.0,0.0,0.0,22.97561,79.12547,-5.72958,8.12,1.67,0.41,2.0
1758079579.36046,1758079579.13698,0.0,0.0,0.0,19.82434,74.42722,-3.55234,8.12,1.67,0.41,2.0
1758079579.37607,1758079579.14698,0.0,0.0,0.0,17.30333,71.44785,-2.63561,7.55,1.44,0.56,2.0
1758079579.37858,1758079579.15698,0.0,0.0,0.0,14.43854,66.5204,-1.43239,7.55,1.44,0.56,2.0
1758079579.3938,1758079579.16698,0.0,0.0,0.0,11.00079,61.24919,-1.14592,7.33,1.19,0.62,2.0
1758079579.39799,1758079579.17698,0.0,0.0,0.0,5.84417,52.42564,-0.51566,7.33,1.19,0.63,2.0
1758079579.41288,1758079579.18698,0.0,0.0,0.0,2.11994,45.37826,-0.68755,7.41,1.02,0.63,2.0
1758079579.4291,1758079579.19698,0.0,0.0,0.0,-1.48969,37.81522,-0.97403,7.51,0.96,0.67,2.0
1758079579.43079,1758079579.20698,0.0,0.0,0.0,-5.4431,29.9084,-1.77617,7.51,0.96,0.67,2.0
1758079579.44802,1758079579.21698,0.0,0.0,0.0,-11.22997,18.9649,-3.55234,7.67,1.04,0.66,2.0
1758079579.44932,1758079579.22698,0.0,0.0,0.0,-15.06879,14.49583,-4.64096,7.67,1.04,0.66,2.0
1758079579.46383,1758079579.23698,0.0,0.0,0.0,-18.56383,11.22997,-5.78687,8.06,1.28,0.47,2.0
1758079579.46746,1758079579.24698,0.0,0.0,0.0,-21.7151,8.02141,-6.24524,8.06,1.28,0.47,2.0
1758079579.48283,1758079579.25698,0.0,0.0,0.0,-25.21014,2.06265,-5.72958,8.22,1.45,0.42,2.0
1758079579.49892,1758079579.26698,0.0,0.0,0.0,-26.69983,-3.55234,-5.09932,8.34,1.47,0.42,2.0
1758079579.50396,1758079579.27698,0.0,0.0,0.0,-27.2155,-11.11538,-4.52637,8.34,1.47,0.42,2.0
1758079579.51882,1758079579.28698,0.0,0.0,0.0,-26.69983,-19.82434,-3.03668,8.18,1.29,-0.12,2.0
1758079579.52079,1758079579.29698,0.0,0.0,0.0,-24.57989,-32.08564,0.11459,8.18,1.29,-0.12,2.0
1758079579.53613,1758079579.30698,0.0,0.0,0.0,-22.11617,-41.02378,2.29183,8.38,0.98,-0.55,2.0
1758079579.53875,1758079579.31698,0.0,0.0,0.0,-21.02755,-47.38361,4.98473,8.38,0.98,-0.55,2.0
1758079579.55385,1758079579.32698,0.0,0.0,0.0,-19.59516,-41.59674,7.04738,9.02,0.77,-0.81,2.0
1758079579.55579,1758079579.33698,0.0,0.0,0.0,-19.19409,0.74485,7.33386,12.41,0.65,-0.42,2.0
1758079579.57212,1758079579.34698,0.0,0.0,0.0,-17.36062,-1.48969,4.98473,12.41,0.65,-0.42,2.0
1758079579.58811,1758079579.35698,0.0,0.0,0.0,-20.16812,-15.87093,2.11994,8.54,1.15,-0.18,2.0
1758079579.58931,1758079579.36698,0.0,0.0,0.0,-26.69983,-29.22085,-0.74485,8.54,1.15,-0.18,2.0
1758079579.60413,1758079579.37698,0.0,0.0,0.0,-31.79916,-30.53865,-3.09397,10.11,1.79,0.46,2.0
1758079579.60662,1758079579.38698,0.0,0.0,0.0,-35.86716,-27.38738,-3.55234,10.11,1.79,0.46,2.0
1758079579.62368,1758079579.39698,0.0,0.0,0.0,-38.90384,-26.87172,-3.49504,11.16,2.25,-2.1,2.0
1758079579.62889,1758079579.40698,0.0,0.0,0.0,-41.42485,-36.84119,-3.38045,10.94,2.58,-0.19,2.0
1758079579.64621,1758079579.41698,0.0,0.0,0.0,-41.42485,-48.70141,-5.95876,10.94,2.58,-0.19,2.0
1758079579.64705,1758079579.42698,0.0,0.0,0.0,-40.33623,-53.51426,-9.62569,13.13,2.58,1.59,2.0
1758079579.66196,1758079579.43698,0.0,0.0,0.0,-35.2369,-54.66018,-14.9542,13.13,2.58,1.59,2.0
1758079579.66711,1758079579.44698,0.0,0.0,0.0,-22.97561,-39.24761,-20.11082,16.98,0.46,3.46,2.0
1758079579.68301,1758079579.45698,0.0,0.0,0.0,-13.5791,-34.26288,-19.99623,16.98,0.46,3.46,2.0
1758079579.69938,1758079579.46698,0.0,0.0,0.0,-5.95876,-38.27358,-17.87628,14.84,-1.59,2.8,2.0
1758079579.70093,1758079579.47698,0.0,0.0,0.0,-0.68755,-45.43555,-15.24068,14.84,-1.59,2.8,2.0
1758079579.71621,1758079579.48698,0.0,0.0,0.0,2.92208,-52.25375,-12.14671,10.33,-1.42,1.79,2.0
1758079579.71882,1758079579.49698,0.0,0.0,0.0,1.77617,-51.22243,-10.65701,9.46,-0.72,0.81,2.0
1758079579.7341,1758079579.50698,0.0,0.0,0.0,-3.55234,-51.16513,-10.02676,9.46,-0.72,0.81,2.0
1758079579.73917,1758079579.51698,0.0,0.0,0.0,-12.49048,-52.65482,-10.65701,9.12,-0.21,3.1,2.0
1758079579.75606,1758079579.52698,0.0,0.0,0.0,-28.476,-51.27972,-10.65701,9.12,-0.21,3.1,2.0
1758079579.7574,1758079579.53698,0.0,0.0,0.0,-39.01843,-46.86795,-9.74028,10.65,0.3,3.78,2.0
1758079579.77314,1758079579.54698,0.0,0.0,0.0,-47.44091,-38.50277,-8.136,10.65,0.3,3.78,2.0
1758079579.78923,1758079579.55698,0.0,0.0,0.0,-61.24919,-60.27517,-3.03668,12.12,0.55,2.12,2.0
1758079579.78963,1758079579.56698,0.0,0.0,0.0,-64.40046,-19.70975,-0.0573,12.18,0.3,0.65,2.0
1758079579.80659,1758079579.57698,0.0,0.0,0.0,-63.54102,-7.10468,2.11994,12.18,0.3,0.65,2.0
1758079579.80812,1758079579.58698,0.0,0.0,0.0,-60.44705,3.89611,4.0107,11.29,-0.01,-0.18,2.0
1758079579.82418,1758079579.59698,0.0,0.0,0.0,-53.11319,21.02755,4.92744,11.29,-0.01,-0.18,2.0
1758079579.8268,1758079579.60698,0.0,0.0,0.0,-47.03984,30.65324,4.98473,10.3,-0.44,-0.3,2.0
1758079579.84283,1758079579.61698,0.0,0.0,0.0,-41.48215,39.07573,4.92744,10.3,-0.44,-0.3,2.0
1758079579.85899,1758079579.62698,0.0,0.0,0.0,-36.21093,45.43555,4.52637,9.64,-1.03,-0.52,2.0
1758079579.85958,1758079579.63698,0.0,0.0,0.0,-29.10626,53.51426,4.1253,9.23,-1.45,-0.56,2.0
1758079579.875,1758079579.64698,0.0,0.0,0.0,-25.55392,57.75415,3.55234,9.23,-1.45,-0.56,2.0
1758079579.87621,1758079579.65698,0.0,0.0,0.0,-22.91831,61.87944,3.09397,8.92,-1.57,-0.51,2.0
1758079579.89206,1758079579.66698,0.0,0.0,0.0,-20.85567,65.14531,2.29183,8.92,-1.57,-0.51,2.0
1758079579.9082,1758079579.67698,0.0,0.0,0.0,-18.56383,66.80688,0.85944,8.52,-1.3,-0.04,2.0
1758079579.90862,1758079579.68698,0.0,0.0,0.0,-17.47521,64.80153,-0.22918,8.52,-1.3,-0.04,2.0
1758079579.92525,1758079579.69698,0.0,0.0,0.0,-15.92823,60.33246,-1.20321,8.04,-0.87,0.27,2.0
1758079579.92661,1758079579.70698,0.0,0.0,0.0,-14.32395,55.34772,-2.46372,8.04,-0.87,0.27,2.0
1758079579.94208,1758079579.71698,0.0,0.0,0.0,-11.00079,48.8733,-3.55234,7.95,-0.58,0.43,2.0
1758079579.96007,1758079579.72698,0.0,0.0,0.0,-8.30789,44.00316,-3.60963,8.08,-0.56,0.33,2.0
1758079579.96363,1758079579.73698,0.0,0.0,0.0,-4.87014,39.13302,-2.86479,8.08,-0.56,0.33,2.0
1758079579.97984,1758079579.74698,0.0,0.0,0.0,0.57296,31.28349,-0.97403,7.98,-0.79,0.41,2.0
1758079579.98154,1758079579.75698,0.0,0.0,0.0,4.64096,26.41335,0.97403,7.98,-0.79,0.41,2.0
1758079579.99902,1758079579.76698,0.0,0.0,0.0,8.25059,24.29341,2.06265,8.23,-1.17,0.33,2.0
1758079579.99965,1758079579.77698,0.0,0.0,0.0,11.57375,22.00158,2.86479,8.23,-1.17,0.33,2.0
1758079580.01604,1758079579.78698,0.0,0.0,0.0,15.06879,14.83961,3.89611,8.62,-1.37,0.43,2.0
1758079580.01788,1758079579.79698,0.0,0.0,0.0,15.75634,9.85487,3.95341,8.85,-1.16,0.58,2.0
1758079580.0333,1758079579.80698,0.0,0.0,0.0,15.92823,7.50575,3.26586,8.85,-1.16,0.58,2.0
1758079580.03611,1758079579.81698,0.0,0.0,0.0,15.64175,8.76626,1.66158,9.82,-0.73,0.31,2.0
1758079580.05234,1758079579.82698,0.0,0.0,0.0,15.87093,13.69369,0.11459,9.82,-0.73,0.31,2.0
1758079580.05352,1758079579.83698,0.0,0.0,0.0,16.04282,17.76169,0.40107,10.7,-0.27,0.41,2.0
1758079580.06861,1758079579.84698,0.0,0.0,0.0,15.98552,26.47065,-0.0573,10.7,-0.27,0.41,2.0
1758079580.08433,1758079579.85698,0.0,0.0,0.0,15.92823,35.52338,-1.48969,11.19,-0.09,0.32,2.0
1758079580.08636,1758079579.86698,0.0,0.0,0.0,15.29797,41.76862,-5.27121,10.39,0.12,0.34,2.0
1758079580.10206,1758079579.87698,0.0,0.0,0.0,15.75634,31.16891,-9.33921,10.39,0.12,0.34,2.0
1758079580.10338,1758079579.88698,0.0,0.0,0.0,13.5791,2.11994,-14.20935,7.13,0.13,-0.23,2.0
1758079580.11862,1758079579.89698,0.0,0.0,0.0,20.45459,-34.0337,-10.25595,7.13,0.13,-0.23,2.0
1758079580.13415,1758079579.90698,0.0,0.0,0.0,23.54857,-53.51426,-5.4431,7.66,-0.3,-2.39,2.0
1758079580.13567,1758079579.91698,0.0,0.0,0.0,27.38738,-53.17049,-1.20321,7.66,-0.3,-2.39,2.0
1758079580.15022,1758079579.92698,0.0,0.0,0.0,29.50733,-55.34772,2.23454,10.14,-0.7,-3.21,2.0
1758079580.1664,1758079579.93698,0.0,0.0,0.0,31.2262,-59.81679,5.15662,10.14,-0.7,-3.21,2.0
1758079580.1673,1758079579.94698,0.0,0.0,0.0,31.74186,-70.93218,5.72958,9.56,-0.84,-0.3,2.0
1758079580.1824,1758079579.95698,0.0,0.0,0.0,30.53865,-79.92762,5.4431,10.4,-0.57,2.3,2.0
1758079580.18333,1758079579.96698,0.0,0.0,0.0,26.98631,-89.43871,5.90147,10.4,-0.57,2.3,2.0
1758079580.19889,1758079579.97698,0.0,0.0,0.0,19.13679,-100.03843,11.63104,14.26,0.22,4.66,2.0
1758079580.21415,1758079579.98698,0.0,0.0,0.0,13.75099,-98.94981,15.75634,14.26,0.22,4.66,2.0
1758079580.21536,1758079579.99698,0.0,0.0,0.0,10.02676,-91.44406,17.01685,17.36,1.14,4.68,2.0
1758079580.2304,1758079580.00698,0.0,0.0,0.0,8.42248,-82.39134,16.3293,17.36,1.14,4.68,2.0
1758079580.24744,1758079580.01698,0.0,0.0,0.0,9.11003,-72.47916,15.0115,13.18,0.7,2.71,2.0
1758079580.24864,1758079580.02698,0.0,0.0,0.0,12.89155,-68.06739,14.09476,8.76,0.17,2.75,2.0
1758079580.26316,1758079580.03698,0.0,0.0,0.0,19.42327,-61.87944,12.77696,8.76,0.17,2.75,2.0
