timeStamp,timeStampAlign,roll,pitch,yaw,gyro_x,gyro_y,gyro_z,acc_x,acc_y,acc_z,flag_num
1758090017.31314,1758090017.31917,0.0,0.0,0.0,-21.60051,-13.75099,-1.3178,10.58,2.13,-0.18,2.0
1758090017.31417,1758090017.32917,0.0,0.0,0.0,-24.12152,-15.41257,-2.86479,10.58,2.13,-0.18,2.0
1758090017.32936,1758090017.33917,0.0,0.0,0.0,-26.81443,-17.24603,-4.23989,10.47,2.22,-0.39,2.0
1758090017.34507,1758090017.34917,0.0,0.0,0.0,-31.2262,-20.45459,-4.64096,10.47,2.22,-0.39,2.0
1758090017.34626,1758090017.35917,0.0,0.0,0.0,-34.14828,-21.94428,-3.83882,10.23,2.11,-0.9,2.0
1758090017.36119,1758090017.36917,0.0,0.0,0.0,-36.84119,-22.00158,-1.83346,10.23,2.11,-0.9,2.0
1758090017.37733,1758090017.37917,0.0,0.0,0.0,-39.13302,-21.7724,0.80214,10.41,1.77,-1.24,2.0
1758090017.37864,1758090017.38917,0.0,0.0,0.0,-41.36755,-24.98096,5.32851,10.53,1.24,-0.12,2.0
1758090017.3931,1758090017.39917,0.0,0.0,0.0,-41.08107,-34.60666,6.58902,10.53,1.24,-0.12,2.0
1758090017.39461,1758090017.40917,0.0,0.0,0.0,-38.90384,-51.50891,5.50039,10.67,0.39,2.15,2.0
1758090017.40932,1758090017.41917,0.0,0.0,0.0,-34.72124,-68.41116,1.43239,10.67,0.39,2.15,2.0
1758090017.42507,1758090017.42917,0.0,0.0,0.0,-25.72581,-81.07353,-6.13065,12.67,-0.59,3.7,2.0
1758090017.42627,1758090017.43917,0.0,0.0,0.0,-17.58981,-76.54716,-10.31324,12.67,-0.59,3.7,2.0
1758090017.44104,1758090017.44917,0.0,0.0,0.0,-9.85487,-67.37984,-11.51645,14.6,-1.22,2.68,2.0
1758090017.45703,1758090017.45917,0.0,0.0,0.0,-4.64096,-56.952,-10.8862,14.6,-1.22,2.68,2.0
1758090017.45819,1758090017.46917,0.0,0.0,0.0,-1.60428,-53.45696,-7.33386,11.7,-0.86,1.46,2.0
1758090017.47336,1758090017.47917,0.0,0.0,0.0,-2.63561,-57.92604,-3.60963,8.39,-0.51,1.52,2.0
1758090017.47427,1758090017.48917,0.0,0.0,0.0,-5.78687,-61.30648,0.40107,8.39,-0.51,1.52,2.0
1758090017.48908,1758090017.49917,0.0,0.0,0.0,-13.17803,-55.51962,5.50039,9.91,0.19,2.19,2.0
1758090017.50534,1758090017.50917,0.0,0.0,0.0,-19.59516,-32.77319,7.84952,9.91,0.19,2.19,2.0
1758090017.50627,1758090017.51917,0.0,0.0,0.0,-25.55392,-18.44924,9.28192,12.95,0.91,1.94,2.0
1758090017.52134,1758090017.52917,0.0,0.0,0.0,-30.82513,-8.76626,9.22462,12.95,0.91,1.94,2.0
1758090017.53707,1758090017.53917,0.0,0.0,0.0,-36.21093,-0.17189,7.33386,11.51,1.01,1.3,2.0
1758090017.5383,1758090017.54917,0.0,0.0,0.0,-38.61736,6.13065,5.15662,10.18,0.54,0.78,2.0
1758090017.55327,1758090017.55917,0.0,0.0,0.0,-40.33623,14.66772,3.55234,10.18,0.54,0.78,2.0
1758090017.55426,1758090017.56917,0.0,0.0,0.0,-40.68,23.37668,2.29183,10.35,-0.2,0.45,2.0
1758090017.56909,1758090017.57917,0.0,0.0,0.0,-40.04975,32.20023,1.60428,10.35,-0.2,0.45,2.0
1758090017.58535,1758090017.58917,0.0,0.0,0.0,-39.07573,35.00772,1.94806,9.74,-0.69,0.82,2.0
1758090017.58628,1758090017.59917,0.0,0.0,0.0,-38.38818,37.12767,2.7502,9.74,-0.69,0.82,2.0
1758090017.6013,1758090017.60917,0.0,0.0,0.0,-37.98711,38.44547,3.83882,9.26,-1.01,0.69,2.0
1758090017.61706,1758090017.61917,0.0,0.0,0.0,-38.84654,36.7266,5.4431,8.97,-1.0,0.6,2.0
1758090017.61826,1758090017.62917,0.0,0.0,0.0,-39.4195,34.37747,7.79223,8.97,-1.0,0.6,2.0
1758090017.6331,1758090017.63917,0.0,0.0,0.0,-41.25296,33.9764,8.47978,9.06,-0.7,0.73,2.0
1758090017.63429,1758090017.64917,0.0,0.0,0.0,-43.37291,32.48671,9.05273,9.06,-0.7,0.73,2.0
1758090017.64945,1758090017.65917,0.0,0.0,0.0,-46.75336,27.96034,8.99544,8.83,-0.26,0.74,2.0
1758090017.66509,1758090017.66917,0.0,0.0,0.0,-48.41494,25.8404,7.84952,8.83,-0.26,0.74,2.0
1758090017.6811,1758090017.67917,0.0,0.0,0.0,-50.1911,24.75178,6.70361,8.84,-0.02,0.81,2.0
1758090017.68231,1758090017.68917,0.0,0.0,0.0,-51.50891,24.12152,4.0107,8.84,-0.02,0.81,2.0
1758090017.68381,1758090017.69917,0.0,0.0,0.0,-52.71212,24.12152,2.06265,9.12,-0.09,0.4,2.0
1758090017.69936,1758090017.70917,0.0,0.0,0.0,-53.45696,23.60586,0.17189,9.19,-0.44,0.15,2.0
1758090017.71537,1758090017.71917,0.0,0.0,0.0,-53.91533,22.97561,-1.3178,9.19,-0.44,0.15,2.0
1758090017.71626,1758090017.72917,0.0,0.0,0.0,-54.60288,21.25674,-3.89611,9.06,-0.69,-0.21,2.0
1758090017.73129,1758090017.73917,0.0,0.0,0.0,-54.66018,20.45459,-5.09932,9.06,-0.69,-0.21,2.0
1758090017.74717,1758090017.74917,0.0,0.0,0.0,-54.60288,20.3973,-6.07335,9.13,-0.82,-0.44,2.0
1758090017.74827,1758090017.75917,0.0,0.0,0.0,-53.80074,20.22541,-6.53172,9.13,-0.82,-0.44,2.0
1758090017.76308,1758090017.76917,0.0,0.0,0.0,-52.25375,19.36597,-6.87549,9.18,-0.88,-0.59,2.0
1758090017.76429,1758090017.77917,0.0,0.0,0.0,-50.87865,18.44924,-7.10468,9.02,-0.91,-0.66,2.0
1758090017.77931,1758090017.78917,0.0,0.0,0.0,-49.67545,17.18874,-7.39116,9.02,-0.91,-0.66,2.0
1758090017.79522,1758090017.79917,0.0,0.0,0.0,-48.35764,15.12609,-8.02141,8.77,-0.92,-0.7,2.0
1758090017.79627,1758090017.80917,0.0,0.0,0.0,-46.06581,8.88085,-9.39651,8.77,-0.92,-0.7,2.0
1758090017.81135,1758090017.81917,0.0,0.0,0.0,-44.40423,5.15662,-10.59972,8.5,-0.93,-0.78,2.0
1758090017.82707,1758090017.82917,0.0,0.0,0.0,-42.39888,2.11994,-11.86023,8.5,-0.93,-0.78,2.0
1758090017.82784,1758090017.83917,0.0,0.0,0.0,-40.10705,-0.45837,-12.83425,8.77,-1.14,-0.89,2.0
1758090017.84338,1758090017.84917,0.0,0.0,0.0,-35.63798,-3.89611,-13.69369,9.21,-1.63,-0.91,2.0
1758090017.84435,1758090017.85917,0.0,0.0,0.0,-31.91375,-4.64096,-14.32395,9.21,-1.63,-0.91,2.0
1758090017.85935,1758090017.86917,0.0,0.0,0.0,-27.78845,-5.09932,-14.38124,9.86,-2.11,-0.94,2.0
1758090017.87503,1758090017.87917,0.0,0.0,0.0,-23.20479,-4.98473,-14.32395,9.86,-2.11,-0.94,2.0
1758090017.87628,1758090017.88917,0.0,0.0,0.0,-15.64175,-0.85944,-14.15206,10.41,-2.39,-1.15,2.0
1758090017.89137,1758090017.89917,0.0,0.0,0.0,-10.48513,4.81285,-14.09476,10.41,-2.39,-1.15,2.0
1758090017.90709,1758090017.90917,0.0,0.0,0.0,-5.21392,10.19865,-13.98017,10.99,-2.42,-1.29,2.0
1758090017.90776,1758090017.91917,0.0,0.0,0.0,1.77617,14.61043,-14.15206,10.99,-2.42,-1.29,2.0
1758090017.92314,1758090017.92917,0.0,0.0,0.0,5.90147,14.61043,-14.32395,10.76,-2.42,-1.17,2.0
1758090017.92432,1758090017.93917,0.0,0.0,0.0,9.68299,9.74028,-14.43854,10.09,-2.47,-1.1,2.0
1758090017.93907,1758090017.94917,0.0,0.0,0.0,12.77696,2.29183,-14.66772,10.09,-2.47,-1.1,2.0
1758090017.95582,1758090017.95917,0.0,0.0,0.0,16.84496,-12.89155,-14.43854,9.6,-2.4,-0.46,2.0
1758090017.95715,1758090017.96917,0.0,0.0,0.0,18.62113,-27.44468,-13.17803,9.6,-2.4,-0.46,2.0
1758090017.97239,1758090017.97917,0.0,0.0,0.0,19.36597,-46.1804,-10.31324,10.31,-1.68,1.76,2.0
1758090017.97328,1758090017.98917,0.0,0.0,0.0,17.53251,-64.80153,-6.13065,10.31,-1.68,1.76,2.0
1758090017.98933,1758090017.99917,0.0,0.0,0.0,11.51645,-69.49979,-0.40107,12.36,0.27,3.11,2.0
1758090018.00539,1758090018.00917,0.0,0.0,0.0,6.70361,-55.29043,2.23454,15.3,2.16,0.95,2.0
1758090018.00632,1758090018.01917,0.0,0.0,0.0,2.46372,-41.59674,3.66693,15.3,2.16,0.95,2.0
1758090018.02116,1758090018.02917,0.0,0.0,0.0,-0.34377,-37.12767,4.69825,12.99,2.48,1.36,2.0
1758090018.03712,1758090018.03917,0.0,0.0,0.0,-1.94806,-37.12767,5.78687,12.99,2.48,1.36,2.0
1758090018.03782,1758090018.04917,0.0,0.0,0.0,-1.83346,-36.89849,5.61499,10.98,1.82,2.98,2.0
1758090018.05313,1758090018.05917,0.0,0.0,0.0,-0.85944,-32.88778,5.50039,10.98,1.82,2.98,2.0
1758090018.05433,1758090018.06917,0.0,0.0,0.0,0.45837,-24.75178,5.4431,11.84,1.33,3.7,2.0
1758090018.0694,1758090018.07917,0.0,0.0,0.0,2.86479,-8.70896,3.95341,12.47,1.19,3.49,2.0
1758090018.08512,1758090018.08917,0.0,0.0,0.0,6.7609,-3.55234,3.72423,12.47,1.19,3.49,2.0
1758090018.08634,1758090018.09917,0.0,0.0,0.0,7.96411,-25.43933,2.34913,9.05,1.01,2.35,2.0
1758090018.10138,1758090018.10917,0.0,0.0,0.0,11.97482,-50.2484,-2.97938,9.05,1.01,2.35,2.0
1758090018.11733,1758090018.11917,0.0,0.0,0.0,17.58981,-32.42941,-1.66158,8.77,0.63,0.86,2.0
1758090018.11783,1758090018.12917,0.0,0.0,0.0,22.86102,-13.00614,0.74485,8.77,0.63,0.86,2.0
1758090018.13344,1758090018.13917,0.0,0.0,0.0,24.98096,-1.48969,-1.83346,13.03,0.53,0.69,2.0
1758090018.13434,1758090018.14917,0.0,0.0,0.0,24.5226,3.66693,-3.09397,13.03,0.53,0.69,2.0
1758090018.1491,1758090018.15917,0.0,0.0,0.0,21.42862,9.33921,-4.46907,10.22,1.14,1.36,2.0
1758090018.16593,1758090018.16917,0.0,0.0,0.0,17.36062,19.19409,-6.18794,9.41,1.78,0.22,2.0
1758090018.16719,1758090018.17917,0.0,0.0,0.0,13.12073,27.84575,-7.84952,9.41,1.78,0.22,2.0
1758090018.18199,1758090018.18917,0.0,0.0,0.0,4.81285,35.92446,-10.71431,8.55,2.28,0.19,2.0
1758090018.18487,1758090018.19917,0.0,0.0,0.0,-0.97403,38.56006,-11.57375,8.55,2.28,0.19,2.0
1758090018.20139,1758090018.20917,0.0,0.0,0.0,-6.35983,41.13837,-12.2613,7.72,2.42,0.28,2.0
1758090018.21728,1758090018.21917,0.0,0.0,0.0,-10.71431,45.37826,-13.00614,7.72,2.42,0.28,2.0
1758090018.21777,1758090018.22917,0.0,0.0,0.0,-14.66772,49.67545,-12.77696,7.95,2.22,0.22,2.0
1758090018.2334,1758090018.23917,0.0,0.0,0.0,-15.35527,49.96192,-12.14671,8.21,1.73,0.62,2.0
1758090018.23431,1758090018.24917,0.0,0.0,0.0,-14.83961,49.50356,-11.51645,8.21,1.73,0.62,2.0
1758090018.24937,1758090018.25917,0.0,0.0,0.0,-13.5218,47.95657,-10.8289,8.62,1.14,0.85,2.0
1758090018.26509,1758090018.26917,0.0,0.0,0.0,-10.8289,46.52417,-9.22462,8.62,1.14,0.85,2.0
1758090018.26631,1758090018.27917,0.0,0.0,0.0,-9.11003,46.46688,-8.36518,8.97,0.68,0.64,2.0
1758090018.28136,1758090018.28917,0.0,0.0,0.0,-7.44845,45.49285,-6.87549,8.97,0.68,0.64,2.0
1758090018.29726,1758090018.29917,0.0,0.0,0.0,-6.24524,43.37291,-4.29718,8.92,0.49,0.54,2.0
1758090018.29768,1758090018.30917,0.0,0.0,0.0,-5.09932,37.92981,-2.92208,8.61,0.56,0.49,2.0
1758090018.3132,1758090018.31917,0.0,0.0,0.0,-4.69825,34.0337,-1.08862,8.61,0.56,0.49,2.0
1758090018.31462,1758090018.32917,0.0,0.0,0.0,-4.69825,30.88243,0.40107,8.74,0.77,0.31,2.0
1758090018.32941,1758090018.33917,0.0,0.0,0.0,-5.55769,26.98631,2.29183,8.74,0.77,0.31,2.0
1758090018.34546,1758090018.34917,0.0,0.0,0.0,-6.41713,23.49127,3.26586,8.86,1.03,0.11,2.0
1758090018.34665,1758090018.35917,0.0,0.0,0.0,-7.44845,19.36597,4.46907,8.86,1.03,0.11,2.0
1758090018.36145,1758090018.36917,0.0,0.0,0.0,-8.70896,15.12609,5.4431,8.77,1.22,0.05,2.0
1758090018.37754,1758090018.37917,0.0,0.0,0.0,-10.94349,8.02141,7.44845,8.73,1.22,-0.11,2.0
1758090018.37801,1758090018.38917,0.0,0.0,0.0,-12.77696,2.7502,8.30789,8.73,1.27,-0.11,2.0
1758090018.39347,1758090018.39917,0.0,0.0,0.0,-15.06879,-1.66158,9.33921,8.73,1.23,-0.33,2.0
1758090018.39437,1758090018.40917,0.0,0.0,0.0,-17.53251,-5.78687,9.85487,8.73,1.23,-0.33,2.0
1758090018.40948,1758090018.41917,0.0,0.0,0.0,-22.00158,-10.08406,9.74028,8.98,1.17,-0.38,2.0
1758090018.42526,1758090018.42917,0.0,0.0,0.0,-24.98096,-11.51645,9.4538,8.98,1.17,-0.38,2.0
1758090018.42636,1758090018.43917,0.0,0.0,0.0,-28.24682,-11.63104,9.11003,9.43,1.19,-0.34,2.0
1758090018.44134,1758090018.44917,0.0,0.0,0.0,-31.39809,-12.60507,9.28192,9.43,1.19,-0.34,2.0
1758090018.45744,1758090018.45917,0.0,0.0,0.0,-36.26823,-15.41257,9.11003,9.82,1.37,-0.27,2.0
1758090018.45789,1758090018.46917,0.0,0.0,0.0,-39.53409,-17.18874,8.93814,10.44,1.49,-0.36,2.0
1758090018.47349,1758090018.47917,0.0,0.0,0.0,-42.85724,-18.79302,8.136,10.44,1.49,-0.36,2.0
1758090018.47464,1758090018.48917,0.0,0.0,0.0,-46.00851,-20.3973,6.24524,11.27,1.55,-0.51,2.0
1758090018.48949,1758090018.49917,0.0,0.0,0.0,-50.363,-22.86102,4.29718,11.27,1.55,-0.51,2.0
1758090018.50544,1758090018.50917,0.0,0.0,0.0,-53.17049,-23.89234,2.29183,11.68,1.61,-0.67,2.0
1758090018.50765,1758090018.51917,0.0,0.0,0.0,-55.6342,-25.49662,0.11459,11.68,1.61,-0.67,2.0
1758090018.52217,1758090018.52917,0.0,0.0,0.0,-58.3844,-29.67921,-2.11994,11.47,1.55,-0.97,2.0
1758090018.5233,1758090018.53917,0.0,0.0,0.0,-59.70221,-33.34615,-2.7502,10.68,1.43,-1.49,2.0
1758090018.53818,1758090018.54917,0.0,0.0,0.0,-60.44705,-37.64333,-2.63561,10.68,1.43,-1.49,2.0
1758090018.55589,1758090018.55917,0.0,0.0,0.0,-61.07731,-39.53409,-1.66158,9.98,1.14,-1.97,2.0
1758090018.55714,1758090018.56917,0.0,0.0,0.0,-61.87944,-34.77854,0.97403,9.98,1.14,-1.97,2.0
1758090018.57244,1758090018.57917,0.0,0.0,0.0,-61.76485,-29.50733,4.18259,10.05,0.66,-1.91,2.0
1758090018.57336,1758090018.58917,0.0,0.0,0.0,-61.99404,-25.7831,7.39116,10.05,0.66,-1.91,2.0
1758090018.58848,1758090018.59917,0.0,0.0,0.0,-60.16057,-27.38738,9.39651,10.16,0.16,0.1,2.0
1758090018.60441,1758090018.60917,0.0,0.0,0.0,-54.3164,-39.53409,7.16197,11.28,-0.89,3.25,2.0
1758090018.60533,1758090018.61917,0.0,0.0,0.0,-47.61279,-52.48294,1.83346,11.28,-0.89,3.25,2.0
1758090018.62021,1758090018.62917,0.0,0.0,0.0,-38.61736,-64.57235,-5.50039,14.07,-1.39,5.09,2.0
1758090018.63623,1758090018.63917,0.0,0.0,0.0,-28.70519,-69.27061,-13.75099,14.07,-1.39,5.09,2.0
1758090018.63665,1758090018.64917,0.0,0.0,0.0,-14.32395,-65.08801,-20.68378,14.94,-0.67,4.16,2.0
1758090018.65226,1758090018.65917,0.0,0.0,0.0,-6.99009,-60.04598,-21.7724,14.94,-0.67,4.16,2.0
1758090018.65337,1758090018.66917,0.0,0.0,0.0,-3.03668,-54.08722,-20.85567,11.87,0.63,2.61,2.0
1758090018.66817,1758090018.67917,0.0,0.0,0.0,-2.06265,-47.15443,-18.22006,11.87,0.63,2.61,2.0
1758090018.68424,1758090018.68917,0.0,0.0,0.0,-3.83882,-32.14294,-10.65701,11.15,0.72,1.77,2.0
1758090018.68536,1758090018.69917,0.0,0.0,0.0,-7.10468,-20.51189,-4.98473,12.22,0.28,1.98,2.0
1758090018.70049,1758090018.70917,0.0,0.0,0.0,-10.8862,-9.74028,0.51566,12.22,0.28,1.98,2.0
1758090018.71626,1758090018.71917,0.0,0.0,0.0,-16.90226,5.15662,6.8182,11.65,-0.04,1.02,2.0
1758090018.71669,1758090018.72917,0.0,0.0,0.0,-20.22541,15.0115,10.08406,11.65,-0.04,1.02,2.0
1758090018.73233,1758090018.73917,0.0,0.0,0.0,-23.0902,25.49662,11.86023,10.82,-0.03,0.37,2.0
1758090018.73333,1758090018.74917,0.0,0.0,0.0,-24.5226,33.11696,13.46451,10.82,-0.03,0.37,2.0
1758090018.74848,1758090018.75917,0.0,0.0,0.0,-25.21014,39.24761,14.32395,10.01,0.2,0.92,2.0
1758090018.76449,1758090018.76917,0.0,0.0,0.0,-23.72045,42.22699,14.49583,8.62,0.13,1.1,2.0
1758090018.76617,1758090018.77917,0.0,0.0,0.0,-21.42862,45.37826,14.20935,8.62,0.13,1.1,2.0
1758090018.78143,1758090018.78917,0.0,0.0,0.0,-18.56383,48.30034,13.40721,7.95,-0.36,0.62,2.0
1758090018.79723,1758090018.79917,0.0,0.0,0.0,-13.5791,51.85268,11.22997,7.95,-0.36,0.62,2.0
1758090018.79769,1758090018.80917,0.0,0.0,0.0,-9.91217,51.6235,9.33921,7.56,-1.16,0.44,2.0
1758090018.81455,1758090018.81917,0.0,0.0,0.0,-6.47442,49.84733,7.21927,7.56,-1.16,0.44,2.0
1758090018.81541,1758090018.82917,0.0,0.0,0.0,-3.09397,47.49821,5.61499,7.54,-1.72,0.41,2.0
1758090018.83023,1758090018.83917,0.0,0.0,0.0,0.80214,46.46688,3.72423,8.46,-1.71,0.19,2.0
1758090018.84622,1758090018.84917,0.0,0.0,0.0,2.7502,44.23235,3.55234,8.46,-1.71,0.19,2.0
1758090018.84679,1758090018.85917,0.0,0.0,0.0,4.29718,44.00316,3.09397,9.05,-1.17,0.35,2.0
1758090018.86224,1758090018.86917,0.0,0.0,0.0,5.72958,43.31561,3.26586,9.05,-1.17,0.35,2.0
1758090018.86367,1758090018.87917,0.0,0.0,0.0,6.70361,40.7373,3.49504,9.08,-0.5,0.35,2.0
1758090018.87854,1758090018.88917,0.0,0.0,0.0,7.16197,39.13302,3.66693,9.08,-0.5,0.35,2.0
1758090018.89549,1758090018.89917,0.0,0.0,0.0,7.44845,36.84119,3.55234,8.94,-0.08,0.33,2.0
1758090018.89749,1758090018.90917,0.0,0.0,0.0,7.79223,34.72124,2.86479,8.94,-0.08,0.33,2.0
1758090018.91212,1758090018.91917,0.0,0.0,0.0,8.25059,30.93972,2.29183,8.96,-0.02,0.2,2.0
1758090018.91331,1758090018.92917,0.0,0.0,0.0,8.88085,29.27814,2.00535,9.27,-0.18,0.12,2.0
1758090018.92845,1758090018.93917,0.0,0.0,0.0,9.4538,26.35606,1.77617,9.27,-0.18,0.12,2.0
1758090018.94576,1758090018.94917,0.0,0.0,0.0,11.22997,20.85567,1.60428,9.24,-0.43,0.0,2.0
1758090018.947,1758090018.95917,0.0,0.0,0.0,12.83425,16.73037,1.3178,9.24,-0.43,0.0,2.0
1758090018.96225,1758090018.96917,0.0,0.0,0.0,15.12609,11.11538,0.74485,9.01,-0.7,-0.11,2.0
1758090018.96374,1758090018.97917,0.0,0.0,0.0,18.33465,5.55769,0.85944,9.01,-0.7,-0.11,2.0
1758090018.97817,1758090018.98917,0.0,0.0,0.0,23.94964,1.43239,0.68755,8.76,-1.1,-0.42,2.0
1758090018.99422,1758090018.99917,0.0,0.0,0.0,28.24682,-0.51566,0.22918,8.75,-1.59,-0.45,2.0
1758090018.99649,1758090019.00917,0.0,0.0,0.0,32.6013,-2.6929,0.11459,8.75,-1.59,-0.45,2.0
1758090019.0115,1758090019.01917,0.0,0.0,0.0,37.18496,-4.29718,-0.40107,8.72,-1.94,-0.18,2.0
1758090019.02722,1758090019.02917,0.0,0.0,0.0,43.83128,-6.99009,-0.40107,8.72,-1.94,-0.18,2.0
1758090019.0284,1758090019.03917,0.0,0.0,0.0,48.75871,-8.25059,0.11459,9.1,-1.9,-0.27,2.0
1758090019.04349,1758090019.04917,0.0,0.0,0.0,53.34238,-8.93814,0.45837,9.1,-1.9,-0.27,2.0
1758090019.04443,1758090019.05917,0.0,0.0,0.0,58.04062,-10.37054,0.97403,9.57,-1.67,-0.7,2.0
1758090019.05924,1758090019.06917,0.0,0.0,0.0,64.91612,-12.60507,0.40107,9.68,-1.55,-1.16,2.0
1758090019.07623,1758090019.07917,0.0,0.0,0.0,69.27061,-14.66772,-0.40107,9.68,-1.55,-1.16,2.0
1758090019.07721,1758090019.08917,0.0,0.0,0.0,73.51049,-17.01685,-1.66158,9.65,-1.38,-1.62,2.0
1758090019.09249,1758090019.09917,0.0,0.0,0.0,77.23472,-21.02755,-4.29718,9.65,-1.38,-1.62,2.0
1758090019.09341,1758090019.10917,0.0,0.0,0.0,82.21945,-33.23156,-5.95876,9.25,-1.03,-0.78,2.0
1758090019.10853,1758090019.11917,0.0,0.0,0.0,84.56858,-49.96192,-6.58902,9.25,-1.03,-0.78,2.0
1758090019.12438,1758090019.12917,0.0,0.0,0.0,85.31342,-73.3386,-5.50039,9.57,-0.09,2.5,2.0
1758090019.12542,1758090019.13917,0.0,0.0,0.0,80.67246,-104.45021,1.66158,9.57,-0.09,2.5,2.0
1758090019.14048,1758090019.14917,0.0,0.0,0.0,73.3959,-106.62745,9.11003,12.89,1.75,6.38,2.0
1758090019.15718,1758090019.15917,0.0,0.0,0.0,64.74423,-94.19427,16.21471,17.53,3.24,4.68,2.0
1758090019.15774,1758090019.16917,0.0,0.0,0.0,56.49364,-75.80232,21.31403,17.53,3.24,4.68,2.0
1758090019.17321,1758090019.17917,0.0,0.0,0.0,47.72739,-58.3844,24.35071,14.03,2.65,2.16,2.0
1758090019.17616,1758090019.18917,0.0,0.0,0.0,44.748,-53.91533,24.29341,14.03,2.65,2.16,2.0
1758090019.19117,1758090019.19917,0.0,0.0,0.0,43.94586,-44.40423,22.11617,10.29,1.58,1.95,2.0
1758090019.19322,1758090019.20917,0.0,0.0,0.0,44.51882,-29.96569,18.33465,10.29,1.58,1.95,2.0
1758090019.20822,1758090019.21917,0.0,0.0,0.0,49.04519,-26.12688,11.22997,11.72,1.33,1.84,2.0
1758090019.22423,1758090019.22917,0.0,0.0,0.0,54.94666,-43.65939,9.33921,9.81,1.3,1.8,2.0
1758090019.22541,1758090019.23917,0.0,0.0,0.0,59.98868,-52.884,2.6929,9.81,1.3,1.8,2.0
1758090019.24102,1758090019.24917,0.0,0.0,0.0,66.00475,-33.63263,-3.60963,11.95,1.27,-0.25,2.0
1758090019.24221,1758090019.25917,0.0,0.0,0.0,75.05748,9.62569,-2.7502,11.95,1.27,-0.25,2.0
1758090019.25891,1758090019.26917,0.0,0.0,0.0,77.4639,22.68913,-3.60963,13.56,1.29,-0.15,2.0
1758090019.27601,1758090019.27917,0.0,0.0,0.0,77.75038,25.89769,-2.97938,13.56,1.29,-0.15,2.0
1758090019.2772,1758090019.28917,0.0,0.0,0.0,75.34396,31.11161,-3.26586,9.0,1.35,1.27,2.0
1758090019.2922,1758090019.29917,0.0,0.0,0.0,69.38519,45.26366,-3.60963,8.96,1.52,0.05,2.0
1758090019.29341,1758090019.30917,0.0,0.0,0.0,64.28587,52.71212,-4.18259,8.96,1.52,0.05,2.0
1758090019.3082,1758090019.31917,0.0,0.0,0.0,58.55629,56.37905,-4.29718,8.18,1.83,-0.26,2.0
1758090019.32422,1758090019.32917,0.0,0.0,0.0,49.67545,60.50434,-4.52637,8.18,1.83,-0.26,2.0
1758090019.32617,1758090019.33917,0.0,0.0,0.0,44.748,62.91077,-4.46907,7.79,2.02,-0.2,2.0
1758090019.34152,1758090019.34917,0.0,0.0,0.0,40.7373,64.28587,-3.72423,7.79,2.02,-0.2,2.0
1758090019.34242,1758090019.35917,0.0,0.0,0.0,37.47144,63.77021,-2.86479,7.61,2.1,-0.12,2.0
1758090019.35922,1758090019.36917,0.0,0.0,0.0,34.49206,61.24919,-1.3178,7.61,2.1,0.31,2.0
1758090019.37535,1758090019.37917,0.0,0.0,0.0,33.9764,59.18654,0.68755,7.66,1.99,0.31,2.0
1758090019.3767,1758090019.38917,0.0,0.0,0.0,33.68992,56.78012,2.57831,8.26,1.63,0.61,2.0
1758090019.3913,1758090019.39917,0.0,0.0,0.0,33.23156,54.88936,3.95341,8.26,1.63,0.61,2.0
1758090019.39316,1758090019.40917,0.0,0.0,0.0,31.97105,51.5662,6.41713,8.87,1.26,0.65,2.0
1758090019.40838,1758090019.41917,0.0,0.0,0.0,31.39809,46.1804,7.67763,8.87,1.26,0.65,2.0
1758090019.42522,1758090019.42917,0.0,0.0,0.0,30.36677,41.65404,8.36518,8.87,0.97,0.35,2.0
1758090019.42734,1758090019.43917,0.0,0.0,0.0,29.39274,38.56006,9.28192,8.87,0.97,0.35,2.0
1758090019.44221,1758090019.44917,0.0,0.0,0.0,28.36141,33.63263,9.96947,9.37,0.87,0.06,2.0
1758090019.44343,1758090019.45917,0.0,0.0,0.0,27.96034,29.39274,10.8862,9.15,0.9,-0.38,2.0
1758090019.45822,1758090019.46917,0.0,0.0,0.0,27.61657,25.21014,11.63104,9.15,0.9,-0.38,2.0
1758090019.47426,1758090019.47917,0.0,0.0,0.0,27.1582,20.51189,13.12073,8.77,0.98,-0.48,2.0
1758090019.4762,1758090019.48917,0.0,0.0,0.0,26.64254,12.37589,14.9542,8.77,0.98,-0.48,2.0
1758090019.49124,1758090019.49917,0.0,0.0,0.0,25.7831,6.99009,16.21471,8.46,1.13,-0.69,2.0
1758090019.49269,1758090019.50917,0.0,0.0,0.0,24.17882,3.03668,16.67307,8.46,1.13,-0.69,2.0
1758090019.50792,1758090019.51917,0.0,0.0,0.0,20.05352,-0.51566,17.18874,8.8,1.4,-0.5,2.0
1758090019.52452,1758090019.52917,0.0,0.0,0.0,16.38659,-7.10468,16.95955,9.13,1.77,-0.48,2.0
1758090019.52542,1758090019.53917,0.0,0.0,0.0,12.08941,-13.5791,16.04282,9.13,1.77,-0.48,2.0
1758090019.54053,1758090019.54917,0.0,0.0,0.0,6.87549,-21.14215,15.12609,9.37,2.19,-0.52,2.0
1758090019.54222,1758090019.55917,0.0,0.0,0.0,-1.94806,-34.37747,13.23533,9.37,2.19,-0.52,2.0
1758090019.55774,1758090019.56917,0.0,0.0,0.0,-8.25059,-41.42485,11.63104,9.8,2.5,-0.97,2.0
1758090019.57592,1758090019.57917,0.0,0.0,0.0,-14.61043,-46.98254,9.74028,9.8,2.5,-0.97,2.0
1758090019.57688,1758090019.58917,0.0,0.0,0.0,-20.68378,-52.25375,8.59437,10.58,2.59,-1.4,2.0
1758090019.59242,1758090019.59917,0.0,0.0,0.0,-30.13758,-53.45696,6.13065,11.58,2.62,-1.67,2.0
1758090019.59346,1758090019.60917,0.0,0.0,0.0,-35.2369,-45.77933,4.69825,11.58,2.62,-1.67,2.0
1758090019.60848,1758090019.61917,0.0,0.0,0.0,-38.90384,-32.25753,3.72423,13.14,2.58,-1.51,2.0
1758090019.62415,1758090019.62917,0.0,0.0,0.0,-41.25296,-22.63183,3.20856,13.14,2.58,-1.51,2.0
1758090019.62538,1758090019.63917,0.0,0.0,0.0,-43.54479,-39.01843,2.23454,11.01,2.0,-0.97,2.0
1758090019.64125,1758090019.64917,0.0,0.0,0.0,-43.31561,-49.50356,0.34377,11.01,2.0,-0.97,2.0
1758090019.64222,1758090019.65917,0.0,0.0,0.0,-42.22699,-52.76942,-0.74485,9.47,1.48,-0.76,2.0
1758090019.65865,1758090019.66917,0.0,0.0,0.0,-39.19032,-52.42564,-1.03132,9.47,1.48,-0.76,2.0
1758090019.67413,1758090019.67917,0.0,0.0,0.0,-29.96569,-64.57235,-2.63561,10.75,0.25,0.0,2.0
1758090019.67785,1758090019.68917,0.0,0.0,0.0,-23.49127,-79.75573,-7.84952,11.42,-1.51,3.99,2.0
1758090019.69328,1758090019.69917,0.0,0.0,0.0,-16.95955,-84.68317,-14.83961,11.42,-1.51,3.99,2.0
1758090019.69447,1758090019.70917,0.0,0.0,0.0,-5.4431,-79.52654,-22.40265,15.57,-1.38,5.18,2.0
1758090019.70953,1758090019.71917,0.0,0.0,0.0,2.40642,-69.27061,-23.0329,15.57,-1.38,5.18,2.0
1758090019.72532,1758090019.72917,0.0,0.0,0.0,8.70896,-63.31184,-20.51189,13.75,-1.18,4.26,2.0
1758090019.72651,1758090019.73917,0.0,0.0,0.0,12.2613,-55.51962,-16.73037,13.75,-1.18,4.26,2.0
1758090019.74126,1758090019.74917,0.0,0.0,0.0,13.34992,-40.45082,-8.59437,10.57,0.02,2.2,2.0
1758090019.74248,1758090019.75917,0.0,0.0,0.0,11.45916,-33.40344,-2.11994,10.27,0.53,0.95,2.0
1758090019.75786,1758090019.76917,0.0,0.0,0.0,8.70896,-27.73116,3.89611,10.27,0.53,0.95,2.0
1758090019.77332,1758090019.77917,0.0,0.0,0.0,5.15662,-16.3293,9.74028,11.51,0.56,0.95,2.0
1758090019.77448,1758090019.78917,0.0,0.0,0.0,-2.06265,3.38045,15.58445,11.51,0.56,0.95,2.0
1758090019.7892,1758090019.79917,0.0,0.0,0.0,-6.7609,9.74028,17.13144,12.83,0.36,0.41,2.0
1758090019.80529,1758090019.80917,0.0,0.0,0.0,-9.96947,15.35527,16.84496,12.83,0.36,0.41,2.0
1758090019.80653,1758090019.81917,0.0,0.0,0.0,-12.204,21.7724,14.9542,11.65,-0.16,0.67,2.0
1758090019.82208,1758090019.82917,0.0,0.0,0.0,-12.43318,29.62192,12.71966,10.4,-0.42,0.41,2.0
1758090019.82331,1758090019.83917,0.0,0.0,0.0,-10.48513,31.79916,11.63104,10.4,-0.42,0.41,2.0
1758090019.83831,1758090019.84917,0.0,0.0,0.0,-7.33386,34.89313,10.02676,8.76,-0.81,0.77,2.0
1758090019.8543,1758090019.85917,0.0,0.0,0.0,-3.09397,35.92446,10.08406,8.76,-0.81,0.77,2.0
1758090019.85549,1758090019.86917,0.0,0.0,0.0,3.55234,34.77854,10.65701,7.47,-1.23,0.74,2.0
1758090019.87032,1758090019.87917,0.0,0.0,0.0,7.67763,33.63263,11.28727,7.47,-1.23,0.74,2.0
1758090019.87259,1758090019.88917,0.0,0.0,0.0,11.45916,31.51268,12.204,7.12,-1.64,0.67,2.0
1758090019.88855,1758090019.89917,0.0,0.0,0.0,14.43854,29.04896,12.54778,7.12,-1.64,0.67,2.0
1758090019.90538,1758090019.90917,0.0,0.0,0.0,17.18874,23.94964,12.14671,7.5,-1.84,0.44,2.0
1758090019.90644,1758090019.91917,0.0,0.0,0.0,17.87628,20.16812,11.74564,8.26,-1.55,0.53,2.0
1758090019.9216,1758090019.92917,0.0,0.0,0.0,18.10547,17.36062,11.11538,8.26,-1.55,0.53,2.0
1758090019.92248,1758090019.93917,0.0,0.0,0.0,17.18874,12.60507,9.68299,8.97,-0.95,0.56,2.0
1758090019.93787,1758090019.94917,0.0,0.0,0.0,16.50119,9.39651,8.42248,8.97,-0.95,0.56,2.0
1758090019.95335,1758090019.95917,0.0,0.0,0.0,16.04282,6.53172,7.50575,9.2,-0.36,0.45,2.0
1758090019.95454,1758090019.96917,0.0,0.0,0.0,16.04282,4.98473,6.8182,9.2,-0.36,0.45,2.0
1758090019.96936,1758090019.97917,0.0,0.0,0.0,16.04282,2.00535,6.07335,9.36,-0.07,0.16,2.0
1758090019.98528,1758090019.98917,0.0,0.0,0.0,16.61578,0.51566,5.61499,9.2,-0.14,-0.14,2.0
1758090019.98649,1758090019.99917,0.0,0.0,0.0,17.18874,-1.08862,5.21392,9.2,-0.14,-0.14,2.0
1758090020.00118,1758090020.00917,0.0,0.0,0.0,17.47521,-2.86479,4.52637,9.12,-0.38,-0.28,2.0
1758090020.00241,1758090020.01917,0.0,0.0,0.0,17.87628,-4.58366,3.20856,9.12,-0.38,-0.28,2.0
1758090020.01787,1758090020.02917,0.0,0.0,0.0,18.44924,-6.18794,2.40642,9.08,-0.55,-0.48,2.0
1758090020.03372,1758090020.03917,0.0,0.0,0.0,19.25138,-7.84952,1.83346,9.08,-0.55,-0.48,2.0
1758090020.0345,1758090020.04917,0.0,0.0,0.0,20.62648,-7.79223,1.77617,9.01,-0.69,-0.53,2.0
1758090020.0496,1758090020.05917,0.0,0.0,0.0,22.51724,-3.20856,1.83346,9.33,-0.88,-0.64,2.0
1758090020.06559,1758090020.06917,0.0,0.0,0.0,24.5226,0.51566,2.29183,9.33,-0.88,-0.64,2.0
1758090020.06652,1758090020.07917,0.0,0.0,0.0,26.52795,3.55234,3.03668,9.37,-1.04,-0.45,2.0
1758090020.08161,1758090020.08917,0.0,0.0,0.0,28.76248,5.90147,3.49504,9.37,-1.04,-0.45,2.0
1758090020.08252,1758090020.09917,0.0,0.0,0.0,32.88778,8.47978,4.29718,9.32,-1.12,-0.45,2.0
1758090020.09798,1758090020.10917,0.0,0.0,0.0,35.52338,10.48513,4.69825,9.32,-1.12,-0.45,2.0
1758090020.11336,1758090020.11917,0.0,0.0,0.0,38.15899,11.00079,4.87014,9.59,-1.09,-0.78,2.0
1758090020.11482,1758090020.12917,0.0,0.0,0.0,40.96649,7.50575,4.18259,9.59,-1.09,-0.78,2.0
1758090020.12933,1758090020.13917,0.0,0.0,0.0,42.1124,5.09932,3.60963,9.62,-0.9,-1.02,2.0
1758090020.14523,1758090020.14917,0.0,0.0,0.0,42.74266,4.92744,2.06265,10.13,-0.64,-1.36,2.0
1758090020.14645,1758090020.15917,0.0,0.0,0.0,43.60209,7.96411,1.43239,10.13,-0.64,-1.36,2.0
1758090020.16166,1758090020.16917,0.0,0.0,0.0,44.748,17.76169,0.68755,11.33,-0.47,-1.28,2.0
1758090020.16252,1758090020.17917,0.0,0.0,0.0,44.748,24.5226,0.40107,11.33,-0.47,-1.28,2.0
1758090020.17791,1758090020.18917,0.0,0.0,0.0,44.17505,30.88243,-0.17189,11.9,-0.5,-0.92,2.0
1758090020.19361,1758090020.19917,0.0,0.0,0.0,43.20102,35.40879,-1.43239,11.9,-0.5,-0.92,2.0
1758090020.19453,1758090020.20917,0.0,0.0,0.0,41.71133,38.21629,-3.55234,11.71,-0.59,-0.46,2.0
1758090020.20964,1758090020.21917,0.0,0.0,0.0,42.34158,36.21093,-3.38045,11.02,-0.82,-0.66,2.0
1758090020.22534,1758090020.22917,0.0,0.0,0.0,41.65404,22.40265,-5.72958,11.02,-0.82,-0.66,2.0
1758090020.22652,1758090020.23917,0.0,0.0,0.0,42.51347,3.49504,-4.35448,9.28,-0.99,-1.02,2.0
1758090020.24133,1758090020.24917,0.0,0.0,0.0,44.00316,-13.69369,-1.3178,9.28,-0.99,-1.02,2.0
1758090020.24253,1758090020.25917,0.0,0.0,0.0,45.89392,-15.35527,1.08862,10.74,-1.42,-1.44,2.0
1758090020.25754,1758090020.26917,0.0,0.0,0.0,46.69606,-16.04282,1.66158,10.74,-1.42,-1.44,2.0
1758090020.27332,1758090020.27917,0.0,0.0,0.0,47.61279,-16.04282,1.66158,11.01,-1.33,-1.52,2.0
1758090020.27482,1758090020.28917,0.0,0.0,0.0,47.26902,-13.46451,1.03132,11.2,-0.82,-0.5,2.0
1758090020.28966,1758090020.29917,0.0,0.0,0.0,46.06581,-13.80828,0.17189,11.2,-0.82,-0.5,2.0
1758090020.30562,1758090020.30917,0.0,0.0,0.0,44.46153,-19.88164,-0.34377,11.12,0.23,-0.3,2.0
1758090020.30654,1758090020.31917,0.0,0.0,0.0,41.25296,-29.56462,2.23454,11.12,0.23,-0.3,2.0
1758090020.32126,1758090020.32917,0.0,0.0,0.0,37.35685,-36.55471,3.72423,11.39,1.04,0.03,2.0
1758090020.3225,1758090020.33917,0.0,0.0,0.0,32.08564,-35.3515,4.69825,11.39,1.04,0.03,2.0
1758090020.33745,1758090020.34917,0.0,0.0,0.0,25.89769,-37.01308,5.21392,11.82,1.22,0.66,2.0
1758090020.35336,1758090020.35917,0.0,0.0,0.0,17.6471,-45.09178,7.39116,11.82,1.22,0.66,2.0
1758090020.35456,1758090020.36917,0.0,0.0,0.0,13.75099,-47.44091,9.91217,10.51,0.29,1.8,2.0
1758090020.36936,1758090020.37917,0.0,0.0,0.0,11.34457,-44.51882,12.37589,10.83,-0.64,1.91,2.0
1758090020.3854,1758090020.38917,0.0,0.0,0.0,11.17268,-39.19032,14.78231,10.83,-0.64,1.91,2.0
1758090020.38655,1758090020.39917,0.0,0.0,0.0,13.86558,-31.62727,17.47521,10.89,-0.37,2.38,2.0
1758090020.40161,1758090020.40917,0.0,0.0,0.0,17.87628,-26.47065,19.07949,10.89,-0.37,2.38,2.0
1758090020.40256,1758090020.41917,0.0,0.0,0.0,23.20479,-18.10547,19.48057,10.82,0.21,2.65,2.0
1758090020.41772,1758090020.42917,0.0,0.0,0.0,30.48136,-7.16197,19.13679,10.82,0.21,2.65,2.0
1758090020.43336,1758090020.43917,0.0,0.0,0.0,42.22699,7.39116,17.30333,11.08,0.25,1.66,2.0
1758090020.43646,1758090020.44917,0.0,0.0,0.0,49.56085,15.58445,15.12609,10.58,-0.56,1.12,2.0
1758090020.45168,1758090020.45917,0.0,0.0,0.0,55.57691,23.20479,12.2613,10.58,-0.56,1.12,2.0
1758090020.45276,1758090020.46917,0.0,0.0,0.0,59.98868,32.42941,8.59437,10.7,-1.37,0.59,2.0
1758090020.46765,1758090020.47917,0.0,0.0,0.0,64.11398,45.72203,3.26586,10.7,-1.37,0.59,2.0
1758090020.48334,1758090020.48917,0.0,0.0,0.0,65.08801,52.65482,0.0,10.75,-1.38,0.38,2.0
1758090020.48452,1758090020.49917,0.0,0.0,0.0,64.91612,57.18119,-2.23454,10.75,-1.38,0.38,2.0
1758090020.49923,1758090020.50917,0.0,0.0,0.0,63.88479,62.28051,-3.89611,10.04,-0.35,0.09,2.0
1758090020.51649,1758090020.51917,0.0,0.0,0.0,61.59297,67.32255,-4.1253,9.19,0.99,0.0,2.0
1758090020.51737,1758090020.52917,0.0,0.0,0.0,59.47303,68.52576,-3.60963,9.19,0.99,0.0,2.0
1758090020.53256,1758090020.53917,0.0,0.0,0.0,57.0093,68.92683,-2.63561,8.11,1.78,0.22,2.0
1758090020.53354,1758090020.54917,0.0,0.0,0.0,53.11319,67.78091,-0.80214,8.11,1.78,0.22,2.0
1758090020.54861,1758090020.55917,0.0,0.0,0.0,49.04519,66.46311,-0.45837,7.63,1.76,0.33,2.0
1758090020.56462,1758090020.56917,0.0,0.0,0.0,44.8053,63.94209,0.22918,7.63,1.76,0.33,2.0
1758090020.56716,1758090020.57917,0.0,0.0,0.0,39.87786,60.96271,0.51566,7.69,1.37,-0.13,2.0
1758090020.58271,1758090020.58917,0.0,0.0,0.0,33.74722,54.66018,1.48969,7.9,1.37,0.06,2.0
1758090020.58356,1758090020.59917,0.0,0.0,0.0,30.88243,51.27972,0.51566,7.9,0.89,0.06,2.0
1758090020.5984,1758090020.60917,0.0,0.0,0.0,29.8511,49.61814,1.48969,8.55,0.38,0.41,2.0
1758090020.61612,1758090020.61917,0.0,0.0,0.0,29.67921,45.89392,1.66158,8.55,0.38,0.41,2.0
1758090020.61731,1758090020.62917,0.0,0.0,0.0,30.88243,37.92981,2.00535,8.71,0.15,0.6,2.0
1758090020.63235,1758090020.63917,0.0,0.0,0.0,31.91375,33.05967,1.48969,8.71,0.15,0.6,2.0
1758090020.63354,1758090020.64917,0.0,0.0,0.0,33.17426,28.87707,0.85944,9.06,0.03,0.46,2.0
1758090020.64849,1758090020.65917,0.0,0.0,0.0,34.37747,24.80907,0.34377,9.06,0.03,0.46,2.0
1758090020.66559,1758090020.66917,0.0,0.0,0.0,34.72124,19.13679,0.34377,9.13,-0.03,0.38,2.0
1758090020.66655,1758090020.67917,0.0,0.0,0.0,33.86181,14.72501,0.40107,8.93,0.01,0.48,2.0
1758090020.6817,1758090020.68917,0.0,0.0,0.0,31.51268,9.33921,0.40107,8.93,0.01,0.48,2.0
1758090020.68255,1758090020.69917,0.0,0.0,0.0,28.36141,4.23989,1.08862,8.5,0.21,0.02,2.0
1758090020.69783,1758090020.70917,0.0,0.0,0.0,21.25674,-2.63561,2.34913,8.5,0.21,0.02,2.0
1758090020.71341,1758090020.71917,0.0,0.0,0.0,15.0115,-7.96411,3.20856,8.29,0.77,-0.47,2.0
1758090020.71461,1758090020.72917,0.0,0.0,0.0,7.84952,-14.83961,3.95341,8.29,0.77,-0.47,2.0
1758090020.72935,1758090020.73917,0.0,0.0,0.0,-3.60963,-29.04896,4.98473,7.81,1.61,-1.08,2.0
1758090020.74561,1758090020.74917,0.0,0.0,0.0,-11.22997,-40.7946,6.07335,7.36,2.41,-1.6,2.0
1758090020.74681,1758090020.75917,0.0,0.0,0.0,-19.07949,-54.77477,6.8182,7.36,2.41,-1.6,2.0
1758090020.76164,1758090020.76917,0.0,0.0,0.0,-26.24147,-66.40582,7.16197,7.12,2.8,-2.2,2.0
1758090020.7628,1758090020.77917,0.0,0.0,0.0,-36.26823,-73.51049,7.50575,7.12,2.8,-2.2,2.0
1758090020.77771,1758090020.78917,0.0,0.0,0.0,-43.83128,-71.79161,8.76626,7.98,2.76,-2.38,2.0
1758090020.79371,1758090020.79917,0.0,0.0,0.0,-52.36834,-67.78091,8.59437,7.98,2.76,-2.38,2.0
1758090020.79456,1758090020.80917,0.0,0.0,0.0,-59.47303,-72.88023,9.11003,8.87,2.86,0.0,2.0
1758090020.80965,1758090020.81917,0.0,0.0,0.0,-67.37984,-96.5434,2.23454,9.3,2.26,5.92,2.0
1758090020.82546,1758090020.82917,0.0,0.0,0.0,-65.48907,-127.02474,-2.40642,9.3,2.26,5.92,2.0
1758090020.82688,1758090020.83917,0.0,0.0,0.0,-67.55173,-162.26166,-20.74107,14.33,0.16,10.57,2.0
1758090020.84138,1758090020.84917,0.0,0.0,0.0,-64.28587,-161.45952,-34.49206,14.33,0.16,10.57,2.0
1758090020.84258,1758090020.85917,0.0,0.0,0.0,-56.26446,-115.79478,-42.85724,21.71,-1.12,4.64,2.0
1758090020.85733,1758090020.86917,0.0,0.0,0.0,-52.36834,-96.19962,-44.40423,21.71,-1.12,4.64,2.0
1758090020.87367,1758090020.87917,0.0,0.0,0.0,-49.38896,-87.94903,-42.74266,14.57,-0.7,0.96,2.0
1758090020.87484,1758090020.88917,0.0,0.0,0.0,-47.49821,-84.05292,-38.38818,14.57,-0.7,0.96,2.0
1758090020.88964,1758090020.89917,0.0,0.0,0.0,-46.40959,-68.52576,-25.72581,9.96,-0.74,0.91,2.0
1758090020.90566,1758090020.90917,0.0,0.0,0.0,-46.35228,-49.61814,-15.98552,12.39,-1.57,1.65,2.0
1758090020.90682,1758090020.91917,0.0,0.0,0.0,-46.1231,-29.96569,-6.8182,12.39,-1.57,1.65,2.0
1758090020.9214,1758090020.92917,0.0,0.0,0.0,-45.20637,-15.24068,3.49504,13.81,-1.73,1.09,2.0
1758090020.92254,1758090020.93917,0.0,0.0,0.0,-43.31561,2.11994,7.79223,13.81,-1.73,1.09,2.0
1758090020.93746,1758090020.94917,0.0,0.0,0.0,-40.39353,13.46451,9.96947,12.64,-1.48,-0.02,2.0
1758090020.95343,1758090020.95917,0.0,0.0,0.0,-36.49741,25.21014,11.34457,12.64,-1.48,-0.02,2.0
1758090020.95456,1758090020.96917,0.0,0.0,0.0,-30.59595,39.64868,11.00079,11.88,-1.52,-0.18,2.0
1758090020.96931,1758090020.97917,0.0,0.0,0.0,-26.01229,46.52417,10.08406,10.7,-1.31,0.48,2.0
1758090020.98542,1758090020.98917,0.0,0.0,0.0,-21.02755,51.85268,8.99544,10.7,-1.31,0.48,2.0
1758090020.98659,1758090020.99917,0.0,0.0,0.0,-16.21471,55.40502,8.36518,9.7,-1.34,0.42,2.0
1758090021.00167,1758090021.00917,0.0,0.0,0.0,-10.37054,54.71747,7.39116,9.7,-1.34,0.42,2.0
1758090021.00289,1758090021.01917,0.0,0.0,0.0,-8.02141,54.14451,7.21927,8.95,-1.44,0.07,2.0
1758090021.01745,1758090021.02917,0.0,0.0,0.0,-6.58902,54.3737,7.39116,8.95,-1.44,0.07,2.0
1758090021.03368,1758090021.03917,0.0,0.0,0.0,-6.18794,54.02992,7.73493,9.19,-1.58,-0.03,2.0
1758090021.03464,1758090021.04917,0.0,0.0,0.0,-6.87549,50.01921,8.76626,8.93,-1.55,0.24,2.0
1758090021.04971,1758090021.05917,0.0,0.0,0.0,-7.96411,45.49285,9.22462,8.93,-1.55,0.24,2.0
1758090021.06563,1758090021.06917,0.0,0.0,0.0,-8.70896,41.42485,9.05273,8.71,-1.2,0.73,2.0
1758090021.06663,1758090021.07917,0.0,0.0,0.0,-9.96947,36.55471,8.59437,8.71,-1.2,0.73,2.0
1758090021.0814,1758090021.08917,0.0,0.0,0.0,-11.28727,29.9084,6.70361,8.68,-0.72,0.74,2.0
1758090021.08258,1758090021.09917,0.0,0.0,0.0,-11.91752,25.49662,4.29718,8.68,-0.72,0.74,2.0
1758090021.09743,1758090021.10917,0.0,0.0,0.0,-12.14671,19.82434,1.83346,8.68,-0.33,0.52,2.0
1758090021.11339,1758090021.11917,0.0,0.0,0.0,-11.86023,14.61043,-2.40642,8.68,-0.33,0.52,2.0
1758090021.11513,1758090021.12917,0.0,0.0,0.0,-10.8862,8.36518,-4.81285,8.66,-0.21,0.19,2.0
1758090021.12942,1758090021.13917,0.0,0.0,0.0,-9.4538,4.52637,-6.58902,8.81,-0.41,-0.13,2.0
1758090021.14542,1758090021.14917,0.0,0.0,0.0,-7.33386,0.68755,-7.39116,8.81,-0.41,-0.13,2.0
1758090021.14665,1758090021.15917,0.0,0.0,0.0,-2.86479,-4.23989,-6.58902,8.86,-0.9,-0.29,2.0
1758090021.16167,1758090021.16917,0.0,0.0,0.0,0.68755,-5.90147,-5.90147,8.86,-0.9,-0.29,2.0
1758090021.16288,1758090021.17917,0.0,0.0,0.0,4.35448,-6.41713,-4.87014,9.21,-1.38,-0.42,2.0
1758090021.17757,1758090021.18917,0.0,0.0,0.0,8.25059,-6.7609,-3.89611,9.21,-1.38,-0.42,2.0
1758090021.1936,1758090021.19917,0.0,0.0,0.0,14.09476,-7.67763,-2.63561,9.46,-1.6,-0.48,2.0
1758090021.19471,1758090021.20917,0.0,0.0,0.0,17.6471,-7.62034,-1.94806,9.58,-1.46,-0.71,2.0
1758090021.20972,1758090021.21917,0.0,0.0,0.0,20.62648,-6.47442,-1.77617,9.58,-1.46,-0.71,2.0
1758090021.22569,1758090021.22917,0.0,0.0,0.0,22.97561,-4.58366,-1.71887,9.88,-1.09,-0.86,2.0
1758090021.22662,1758090021.23917,0.0,0.0,0.0,25.26744,1.03132,-1.71887,9.88,-1.09,-0.86,2.0
1758090021.24221,1758090021.24917,0.0,0.0,0.0,25.89769,5.4431,-1.77617,10.16,-0.76,-0.78,2.0
1758090021.24381,1758090021.25917,0.0,0.0,0.0,26.06958,8.30789,-1.66158,10.16,-0.76,-0.78,2.0
1758090021.25842,1758090021.26917,0.0,0.0,0.0,25.49662,10.19865,-1.66158,9.95,-0.55,-0.7,2.0
1758090021.27442,1758090021.27917,0.0,0.0,0.0,24.29341,11.74564,-1.66158,9.63,-0.42,-0.76,2.0
1758090021.27721,1758090021.28917,0.0,0.0,0.0,23.0902,10.59972,-2.06265,9.63,-0.42,-0.76,2.0
1758090021.29272,1758090021.29917,0.0,0.0,0.0,21.48592,7.44845,-2.6929,9.13,-0.33,-0.76,2.0
1758090021.29364,1758090021.30917,0.0,0.0,0.0,18.85031,-0.34377,-4.29718,9.13,-0.33,-0.76,2.0
1758090021.30847,1758090021.31917,0.0,0.0,0.0,12.83425,-15.75634,-5.90147,8.26,0.0,-1.04,2.0
1758090021.32473,1758090021.32917,0.0,0.0,0.0,8.99544,-21.48592,-6.99009,8.26,0.0,-1.04,2.0
1758090021.32562,1758090021.33917,0.0,0.0,0.0,6.24524,-19.42327,-6.99009,8.73,0.28,-1.43,2.0
1758090021.34049,1758090021.34917,0.0,0.0,0.0,7.33386,-2.11994,-5.4431,8.73,0.28,-1.43,2.0
1758090021.34164,1758090021.35917,0.0,0.0,0.0,8.136,5.15662,-4.23989,10.17,0.1,-0.62,2.0
1758090021.35745,1758090021.36917,0.0,0.0,0.0,8.42248,9.22462,-3.55234,9.83,-0.16,-0.59,2.0
1758090021.3737,1758090021.37917,0.0,0.0,0.0,7.44845,10.8862,-3.89611,9.83,-0.16,-0.59,2.0
1758090021.37495,1758090021.38917,0.0,0.0,0.0,8.02141,11.28727,-4.23989,9.25,-0.37,-1.2,2.0
1758090021.3897,1758090021.39917,0.0,0.0,0.0,10.02676,10.94349,-3.89611,9.25,-0.37,-1.2,2.0
1758090021.4056,1758090021.40917,0.0,0.0,0.0,14.43854,12.37589,-1.43239,9.14,-0.76,-1.43,2.0
1758090021.40668,1758090021.41917,0.0,0.0,0.0,19.59516,8.0787,0.0,9.14,-0.76,-1.43,2.0
1758090021.42162,1758090021.42917,0.0,0.0,0.0,29.33544,-7.33386,4.64096,8.78,-1.37,-1.65,2.0
1758090021.42257,1758090021.43917,0.0,0.0,0.0,36.15364,-14.20935,7.44845,9.02,-1.94,-1.8,2.0
1758090021.43746,1758090021.44917,0.0,0.0,0.0,43.94586,-16.67307,11.11538,9.02,-1.94,-1.8,2.0
1758090021.45444,1758090021.45917,0.0,0.0,0.0,51.16513,-15.12609,12.83425,10.83,-2.4,-1.99,2.0
1758090021.45649,1758090021.46917,0.0,0.0,0.0,59.53032,-12.2613,11.51645,10.83,-2.4,-1.99,2.0
1758090021.47147,1758090021.47917,0.0,0.0,0.0,63.48372,-11.80293,9.33921,11.12,-2.09,-1.44,2.0
1758090021.47267,1758090021.48917,0.0,0.0,0.0,65.54638,-11.97482,6.47442,11.12,-2.09,-1.44,2.0
1758090021.48768,1758090021.49917,0.0,0.0,0.0,66.29122,-11.57375,3.55234,11.01,-1.46,-1.27,2.0
1758090021.50346,1758090021.50917,0.0,0.0,0.0,64.40046,-8.88085,-0.40107,11.25,-0.55,-1.44,2.0
1758090021.50496,1758090021.51917,0.0,0.0,0.0,61.87944,-8.136,-2.57831,11.25,-0.55,-1.44,2.0
1758090021.5197,1758090021.52917,0.0,0.0,0.0,58.55629,-9.5684,-4.52637,10.86,0.37,-1.19,2.0
1758090021.53534,1758090021.53917,0.0,0.0,0.0,52.9986,-15.12609,-6.8182,10.86,0.37,-1.19,2.0
1758090021.53659,1758090021.54917,0.0,0.0,0.0,49.56085,-19.53786,-7.16197,10.25,0.87,-1.01,2.0
1758090021.55177,1758090021.55917,0.0,0.0,0.0,46.1231,-24.23611,-6.70361,10.25,0.87,-1.01,2.0
1758090021.55264,1758090021.56917,0.0,0.0,0.0,42.51347,-29.62192,-5.90147,10.38,1.09,-0.66,2.0
1758090021.5675,1758090021.57917,0.0,0.0,0.0,36.21093,-38.78925,-1.83346,10.38,1.09,-0.66,2.0
1758090021.58349,1758090021.58917,0.0,0.0,0.0,31.2262,-43.20102,3.72423,11.21,1.19,0.86,2.0
1758090021.5847,1758090021.59917,0.0,0.0,0.0,24.92367,-43.54479,10.59972,13.74,1.0,3.07,2.0
1758090021.5997,1758090021.60917,0.0,0.0,0.0,18.62113,-40.85189,17.24603,13.74,1.0,3.07,2.0
1758090021.61541,1758090021.61917,0.0,0.0,0.0,10.31324,-32.14294,23.83505,14.77,0.08,3.1,2.0
1758090021.61668,1758090021.62917,0.0,0.0,0.0,7.33386,-26.41335,25.72581,14.77,0.08,3.1,2.0
1758090021.63146,1758090021.63917,0.0,0.0,0.0,6.99009,-18.85031,25.15285,12.69,-0.74,1.81,2.0
1758090021.63265,1758090021.64917,0.0,0.0,0.0,9.05273,-8.0787,22.57454,12.69,-0.74,1.81,2.0
1758090021.64771,1758090021.65917,0.0,0.0,0.0,16.84496,13.80828,14.9542,11.67,-0.85,0.51,2.0
1758090021.66353,1758090021.66917,0.0,0.0,0.0,24.57989,29.67921,8.59437,11.86,-0.57,0.16,2.0
1758090021.66465,1758090021.67917,0.0,0.0,0.0,33.51803,40.85189,2.29183,11.86,-0.57,0.16,2.0
1758090021.6804,1758090021.68917,0.0,0.0,0.0,42.39888,46.2377,-3.55234,10.9,-0.3,0.75,2.0
1758090021.68227,1758090021.69917,0.0,0.0,0.0,54.25911,47.67009,-9.33921,10.9,-0.3,0.75,2.0
1758090021.69873,1758090021.70917,0.0,0.0,0.0,60.33246,49.15978,-11.28727,10.27,-0.19,1.13,2.0
1758090021.71473,1758090021.71917,0.0,0.0,0.0,63.99939,48.41494,-12.54778,10.27,-0.19,1.13,2.0
1758090021.73173,1758090021.72917,0.0,0.0,0.0,64.22858,51.90998,-13.86558,10.31,0.11,1.11,2.0
1758090021.73266,1758090021.73917,0.0,0.0,0.0,61.59297,56.55093,-14.49583,9.87,0.7,0.72,2.0
1758090021.73329,1758090021.74917,0.0,0.0,0.0,57.86874,59.18654,-14.03747,9.87,0.7,0.72,2.0
1758090021.74948,1758090021.75917,0.0,0.0,0.0,52.76942,62.28051,-13.46451,8.89,1.46,0.51,2.0
1758090021.7657,1758090021.76917,0.0,0.0,0.0,44.51882,62.91077,-11.63104,8.89,1.46,0.51,2.0
1758090021.76666,1758090021.77917,0.0,0.0,0.0,38.73195,61.42108,-9.62569,7.82,2.06,0.3,2.0
1758090021.78225,1758090021.78917,0.0,0.0,0.0,32.83048,60.44705,-7.50575,7.82,2.06,0.3,2.0
1758090021.78342,1758090021.79917,0.0,0.0,0.0,27.38738,57.41038,-5.72958,7.48,2.46,0.45,2.0
1758090021.79949,1758090021.80917,0.0,0.0,0.0,19.82434,52.48294,-4.23989,7.57,2.41,0.53,2.0
1758090021.81537,1758090021.81917,0.0,0.0,0.0,15.24068,49.21708,-3.49504,7.57,2.41,0.53,2.0
1758090021.81659,1758090021.82917,0.0,0.0,0.0,11.28727,45.03448,-3.32316,7.88,1.89,0.81,2.0
1758090021.83147,1758090021.83917,0.0,0.0,0.0,7.21927,42.1124,-4.64096,7.88,1.89,0.81,2.0
1758090021.83265,1758090021.84917,0.0,0.0,0.0,2.29183,37.12767,-5.72958,8.29,1.18,0.92,2.0
1758090021.84771,1758090021.85917,0.0,0.0,0.0,-0.80214,32.14294,-6.58902,8.29,1.18,0.92,2.0
1758090021.86372,1758090021.86917,0.0,0.0,0.0,-3.95341,26.24147,-7.79223,8.4,0.64,0.95,2.0
1758090021.86494,1758090021.87917,0.0,0.0,0.0,-6.53172,19.42327,-9.28192,8.4,0.64,0.95,2.0
1758090021.87945,1758090021.88917,0.0,0.0,0.0,-9.85487,10.48513,-10.94349,8.5,0.4,0.75,2.0
1758090021.89644,1758090021.89917,0.0,0.0,0.0,-11.63104,5.21392,-11.22997,8.65,0.39,0.62,2.0
1758090021.89745,1758090021.90917,0.0,0.0,0.0,-12.77696,-0.0573,-11.00079,8.65,0.39,0.62,2.0
1758090021.91255,1758090021.91917,0.0,0.0,0.0,-13.80828,-4.23989,-9.05273,8.51,0.44,0.46,2.0
1758090021.91372,1758090021.92917,0.0,0.0,0.0,-15.64175,-7.79223,-7.84952,8.51,0.44,0.46,2.0
1758090021.92868,1758090021.93917,0.0,0.0,0.0,-17.01685,-7.73493,-6.24524,8.85,0.46,0.17,2.0
1758090021.94444,1758090021.94917,0.0,0.0,0.0,-18.62113,-7.67763,-5.09932,8.85,0.46,0.17,2.0
1758090021.94646,1758090021.95917,0.0,0.0,0.0,-20.85567,-9.4538,-3.95341,9.19,0.44,-0.23,2.0
1758090021.96249,1758090021.96917,0.0,0.0,0.0,-22.86102,-12.2613,-3.72423,9.16,0.56,-0.45,2.0
1758090021.96349,1758090021.97917,0.0,0.0,0.0,-24.92367,-16.50119,-3.83882,9.16,0.56,-0.45,2.0
1758090021.9787,1758090021.98917,0.0,0.0,0.0,-27.38738,-22.40265,-3.72423,8.84,0.87,-0.88,2.0
1758090021.99446,1758090021.99917,0.0,0.0,0.0,-31.56997,-36.15364,-2.7502,8.84,0.87,-0.88,2.0
1758090021.99761,1758090022.00917,0.0,0.0,0.0,-34.95043,-44.9199,-2.06265,8.42,1.01,-1.29,2.0
1758090022.01274,1758090022.01917,0.0,0.0,0.0,-38.44547,-52.13916,-0.74485,8.42,1.01,-1.29,2.0
1758090022.01365,1758090022.02917,0.0,0.0,0.0,-42.39888,-56.89471,0.45837,8.88,1.1,-1.46,2.0
1758090022.02877,1758090022.03917,0.0,0.0,0.0,-48.41494,-60.67623,2.29183,9.86,1.21,-1.33,2.0
1758090022.04468,1758090022.04917,0.0,0.0,0.0,-52.13916,-62.39511,3.89611,9.86,1.21,-1.33,2.0
1758090022.04676,1758090022.05917,0.0,0.0,0.0,-55.92068,-60.44705,4.64096,10.89,1.48,-1.24,2.0
1758090022.06168,1758090022.06917,0.0,0.0,0.0,-58.55629,-52.65482,5.78687,10.89,1.48,-1.24,2.0
1758090022.06259,1758090022.07917,0.0,0.0,0.0,-62.16592,-30.93972,6.13065,12.29,1.42,-1.54,2.0
1758090022.07952,1758090022.08917,0.0,0.0,0.0,-64.17127,-22.28806,6.35983,12.29,1.42,-1.54,2.0
1758090022.09573,1758090022.09917,0.0,0.0,0.0,-64.74423,-32.88778,5.55769,11.13,1.21,-0.79,2.0
1758090022.09695,1758090022.10917,0.0,0.0,0.0,-65.2026,-46.69606,4.69825,11.13,1.21,-0.79,2.0
1758090022.11174,1758090022.11917,0.0,0.0,0.0,-64.22858,-68.69764,-1.48969,8.97,1.18,-0.01,2.0
1758090022.11265,1758090022.12917,0.0,0.0,0.0,-62.28051,-84.11021,-7.73493,11.08,0.15,1.85,2.0
1758090022.12746,1758090022.13917,0.0,0.0,0.0,-59.24384,-101.92919,-16.21471,11.08,0.15,1.85,2.0
1758090022.14351,1758090022.14917,0.0,0.0,0.0,-50.82136,-107.02851,-29.67921,13.69,-1.3,4.27,2.0
1758090022.14739,1758090022.15917,0.0,0.0,0.0,-42.74266,-97.17365,-35.98175,13.69,-1.3,4.27,2.0
1758090022.16274,1758090022.16917,0.0,0.0,0.0,-34.32018,-88.00632,-37.58603,15.65,-2.05,3.85,2.0
1758090022.17841,1758090022.17917,0.0,0.0,0.0,-27.44468,-84.2248,-35.63798,15.65,-2.05,3.85,2.0
1758090022.17963,1758090022.18917,0.0,0.0,0.0,-21.14215,-69.27061,-28.64789,11.09,-1.1,2.18,2.0
1758090022.19631,1758090022.19917,0.0,0.0,0.0,-20.05352,-56.55093,-21.02755,10.68,-0.3,1.97,2.0
1758090022.19728,1758090022.20917,0.0,0.0,0.0,-21.60051,-48.41494,-13.06344,10.68,-0.3,1.97,2.0
1758090022.21256,1758090022.21917,0.0,0.0,0.0,-24.86637,-42.68536,-4.81285,11.65,-0.38,2.68,2.0
1758090022.21368,1758090022.22917,0.0,0.0,0.0,-30.82513,-35.92446,5.72958,11.65,-0.38,2.68,2.0
1758090022.22851,1758090022.23917,0.0,0.0,0.0,-34.60666,-27.78845,11.34457,13.02,-0.83,0.86,2.0
1758090022.24534,1758090022.24917,0.0,0.0,0.0,-38.15899,-12.71966,15.41257,13.02,-0.83,0.86,2.0
1758090022.24806,1758090022.25917,0.0,0.0,0.0,-41.31026,3.83882,17.24603,14.48,-0.98,-0.74,2.0
1758090022.26473,1758090022.26917,0.0,0.0,0.0,-43.65939,21.60051,18.10547,13.28,-0.75,-0.31,2.0
1758090022.26736,1758090022.27917,0.0,0.0,0.0,-43.37291,31.62727,16.50119,13.28,-0.75,-0.31,2.0
1758090022.28337,1758090022.28917,0.0,0.0,0.0,-41.13837,38.15899,15.64175,11.07,-0.62,0.11,2.0
1758090022.28451,1758090022.29917,0.0,0.0,0.0,-38.27358,42.39888,14.61043,11.07,-0.62,0.11,2.0
1758090022.29964,1758090022.30917,0.0,0.0,0.0,-32.08564,48.64412,14.49583,9.17,-1.03,-0.35,2.0
1758090022.31633,1758090022.31917,0.0,0.0,0.0,-27.38738,52.42564,14.61043,9.17,-1.03,-0.35,2.0
1758090022.31754,1758090022.32917,0.0,0.0,0.0,-22.51724,53.80074,14.61043,8.25,-1.51,-0.19,2.0
1758090022.33278,1758090022.33917,0.0,0.0,0.0,-15.58445,52.71212,13.86558,8.25,-1.51,-0.19,2.0
1758090022.33368,1758090022.34917,0.0,0.0,0.0,-11.57375,50.76406,13.46451,7.46,-1.84,0.1,2.0
1758090022.34879,1758090022.35917,0.0,0.0,0.0,-8.25059,48.24305,12.71966,7.55,-1.83,-0.05,2.0
1758090022.36712,1758090022.36917,0.0,0.0,0.0,-5.78687,45.09178,11.63104,7.55,-1.83,-0.05,2.0
1758090022.36851,1758090022.37917,0.0,0.0,0.0,-3.83882,39.82057,9.28192,7.92,-1.35,-0.12,2.0
1758090022.38635,1758090022.38917,0.0,0.0,0.0,-3.38045,35.86716,7.10468,7.92,-1.35,-0.12,2.0
1758090022.38754,1758090022.39917,0.0,0.0,0.0,-3.49504,31.74186,4.98473,8.23,-0.59,-0.08,2.0
1758090022.40331,1758090022.40917,0.0,0.0,0.0,-3.89611,28.30412,2.63561,8.23,-0.59,-0.08,2.0
1758090022.4077,1758090022.41917,0.0,0.0,0.0,-4.64096,23.0902,-0.22918,8.49,-0.05,0.0,2.0
1758090022.42353,1758090022.42917,0.0,0.0,0.0,-4.98473,20.34,-1.77617,8.86,0.11,-0.14,2.0
1758090022.42455,1758090022.43917,0.0,0.0,0.0,-5.50039,17.81899,-2.7502,8.86,0.11,-0.14,2.0
1758090022.43982,1758090022.44917,0.0,0.0,0.0,-5.95876,16.21471,-3.20856,9.17,-0.02,-0.44,2.0
1758090022.44152,1758090022.45917,0.0,0.0,0.0,-6.35983,14.03747,-3.38045,9.17,-0.02,-0.44,2.0
1758090022.45833,1758090022.46917,0.0,0.0,0.0,-6.13065,11.80293,-3.26586,9.18,-0.29,-0.78,2.0
1758090022.47479,1758090022.47917,0.0,0.0,0.0,-6.13065,9.22462,-3.38045,9.18,-0.29,-0.78,2.0
1758090022.47653,1758090022.48917,0.0,0.0,0.0,-5.84417,7.21927,-3.26586,9.03,-0.5,-1.11,2.0
1758090022.49166,1758090022.49917,0.0,0.0,0.0,-4.92744,4.46907,-3.32316,9.07,-0.52,-1.47,2.0
1758090022.49274,1758090022.50917,0.0,0.0,0.0,-3.66693,2.46372,-3.03668,9.07,-0.52,-1.47,2.0
1758090022.51109,1758090022.51917,0.0,0.0,0.0,-2.00535,1.08862,-2.7502,9.01,-0.44,-1.61,2.0
1758090022.51462,1758090022.52917,0.0,0.0,0.0,1.20321,-0.0573,-2.06265,9.01,-0.44,-1.61,2.0
1758090022.53051,1758090022.53917,0.0,0.0,0.0,3.38045,1.77617,-1.94806,9.13,-0.37,-1.67,2.0
1758090022.53175,1758090022.54917,0.0,0.0,0.0,5.84417,4.87014,-1.83346,9.13,-0.37,-1.67,2.0
1758090022.55073,1758090022.55917,0.0,0.0,0.0,8.36518,8.25059,-1.77617,9.3,-0.53,-1.38,2.0
1758090022.55196,1758090022.56917,0.0,0.0,0.0,12.43318,11.74564,-2.11994,9.3,-0.53,-1.38,2.0
1758090022.56787,1758090022.57917,0.0,0.0,0.0,15.64175,13.40721,-2.23454,9.35,-0.85,-1.04,2.0
1758090022.58562,1758090022.58917,0.0,0.0,0.0,19.07949,14.03747,-1.71887,9.7,-1.15,-0.96,2.0
1758090022.58759,1758090022.59917,0.0,0.0,0.0,22.68913,13.34992,-1.43239,9.7,-1.15,-0.96,2.0
1758090022.60331,1758090022.60917,0.0,0.0,0.0,27.73116,10.8862,-0.51566,10.02,-1.32,-1.22,2.0
1758090022.60771,1758090022.61917,0.0,0.0,0.0,30.82513,8.76626,-0.11459,10.02,-1.32,-1.22,2.0
1758090022.62251,1758090022.62917,0.0,0.0,0.0,33.40344,4.46907,0.51566,10.45,-1.34,-1.46,2.0
1758090022.62375,1758090022.63917,0.0,0.0,0.0,35.06502,-3.55234,0.57296,10.45,-1.34,-1.46,2.0
1758090022.6395,1758090022.64917,0.0,0.0,0.0,36.55471,-10.25595,-0.0573,10.34,-1.21,-1.7,2.0
1758090022.64219,1758090022.65917,0.0,0.0,0.0,38.50277,-6.07335,-0.0573,11.62,-1.11,-1.85,2.0
1758090022.66163,1758090022.66917,0.0,0.0,0.0,40.39353,2.7502,-0.57296,11.62,-1.11,-1.85,2.0
1758090022.66277,1758090022.67917,0.0,0.0,0.0,42.34158,11.17268,-0.68755,12.87,-1.07,-1.29,2.0
1758090022.68181,1758090022.68917,0.0,0.0,0.0,44.57612,17.58981,-2.23454,12.87,-1.07,-1.29,2.0
1758090022.68279,1758090022.69917,0.0,0.0,0.0,45.55015,18.16276,-3.32316,12.49,-1.07,-0.8,2.0
1758090022.69794,1758090022.70917,0.0,0.0,0.0,46.1804,17.53251,-4.64096,12.49,-1.07,-0.8,2.0
1758090022.70246,1758090022.71917,0.0,0.0,0.0,46.1804,16.73037,-6.24524,11.97,-1.0,-0.98,2.0
1758090022.72161,1758090022.72917,0.0,0.0,0.0,43.77398,14.49583,-7.73493,11.52,-0.47,-1.08,2.0
1758090022.72275,1758090022.73917,0.0,0.0,0.0,38.90384,12.77696,-8.59437,11.52,-0.47,-1.08,2.0
1758090022.74175,1758090022.74917,0.0,0.0,0.0,35.75257,-0.34377,-7.21927,10.6,0.33,-0.49,2.0
1758090022.74316,1758090022.75917,0.0,0.0,0.0,31.2262,-24.35071,-5.72958,10.6,0.33,-0.49,2.0
1758090022.75882,1758090022.76917,0.0,0.0,0.0,28.01764,-44.9199,-3.83882,9.01,0.41,-1.37,2.0
1758090022.77454,1758090022.77917,0.0,0.0,0.0,26.69983,-63.48372,1.03132,9.01,0.41,-1.37,2.0
1758090022.77577,1758090022.78917,0.0,0.0,0.0,26.47065,-71.73432,6.70361,8.95,0.56,-1.01,2.0
1758090022.79055,1758090022.79917,0.0,0.0,0.0,23.37668,-65.66096,11.22997,8.95,0.56,0.23,2.0
1758090022.79177,1758090022.80917,0.0,0.0,0.0,20.05352,-63.13995,13.98017,10.82,0.4,0.23,2.0
1758090022.80784,1758090022.81917,0.0,0.0,0.0,15.98552,-64.40046,17.01685,11.01,0.49,3.43,2.0
1758090022.82384,1758090022.82917,0.0,0.0,0.0,12.08941,-63.88479,19.70975,11.01,0.49,3.43,2.0
1758090022.82559,1758090022.83917,0.0,0.0,0.0,7.21927,-60.90542,22.74642,11.21,0.29,3.75,2.0
1758090022.84064,1758090022.84917,0.0,0.0,0.0,5.50039,-57.29578,23.72045,11.21,0.29,3.75,2.0
1758090022.84365,1758090022.85917,0.0,0.0,0.0,5.15662,-50.87865,23.89234,10.66,0.11,2.42,2.0
1758090022.86283,1758090022.86917,0.0,0.0,0.0,6.53172,-43.60209,22.97561,10.66,0.11,2.42,2.0
1758090022.86378,1758090022.87917,0.0,0.0,0.0,12.08941,-29.39274,19.82434,10.73,0.15,1.54,2.0
1758090022.87858,1758090022.88917,0.0,0.0,0.0,17.36062,-16.73037,16.55848,11.56,0.19,1.08,2.0
1758090022.89448,1758090022.89917,0.0,0.0,0.0,23.89234,-2.57831,12.54778,11.56,0.19,1.08,2.0
1758090022.8957,1758090022.90917,0.0,0.0,0.0,30.76784,9.39651,8.47978,11.67,0.04,0.08,2.0
1758090022.91078,1758090022.91917,0.0,0.0,0.0,40.27893,22.86102,2.46372,11.67,0.04,0.08,2.0
1758090022.91204,1758090022.92917,0.0,0.0,0.0,45.55015,31.45539,-0.97403,10.53,-0.13,-0.15,2.0
1758090022.92758,1758090022.93917,0.0,0.0,0.0,49.96192,41.88322,-3.95341,10.53,-0.13,-0.15,2.0
1758090022.9447,1758090022.94917,0.0,0.0,0.0,53.68615,54.94666,-7.16197,10.44,-0.13,-0.3,2.0
1758090022.94561,1758090022.95917,0.0,0.0,0.0,54.3164,61.07731,-8.59437,9.93,0.21,-0.23,2.0
1758090022.96083,1758090022.96917,0.0,0.0,0.0,53.45696,66.00475,-9.62569,9.93,0.21,-0.23,2.0
1758090022.96177,1758090022.97917,0.0,0.0,0.0,52.25375,69.95815,-9.62569,9.41,0.76,-0.29,2.0
1758090022.97755,1758090022.98917,0.0,0.0,0.0,48.58683,74.02615,-8.70896,9.41,0.76,-0.29,2.0
1758090022.99655,1758090022.99917,0.0,0.0,0.0,46.35228,75.17207,-7.39116,8.73,1.16,-0.15,2.0
1758090022.99737,1758090023.00917,0.0,0.0,0.0,44.23235,75.34396,-5.27121,8.73,1.16,-0.15,2.0
1758090023.01261,1758090023.01917,0.0,0.0,0.0,41.99781,75.00018,-3.49504,8.17,1.3,0.18,2.0
1758090023.01378,1758090023.02917,0.0,0.0,0.0,39.24761,70.87489,-0.57296,7.91,1.24,0.32,2.0
1758090023.02938,1758090023.03917,0.0,0.0,0.0,37.92981,67.15066,0.97403,7.91,1.24,0.32,2.0
1758090023.04562,1758090023.04917,0.0,0.0,0.0,36.6693,62.91077,2.34913,8.14,1.07,0.33,2.0
1758090023.04684,1758090023.05917,0.0,0.0,0.0,35.69527,59.35843,3.38045,8.14,1.07,0.33,2.0
1758090023.06181,1758090023.06917,0.0,0.0,0.0,34.66395,52.65482,5.27121,8.71,0.77,0.22,2.0
1758090023.07786,1758090023.07917,0.0,0.0,0.0,33.68992,48.30034,4.64096,8.71,0.77,0.22,2.0
1758090023.07878,1758090023.08917,0.0,0.0,0.0,33.46074,43.4875,5.27121,8.99,0.56,0.4,2.0
1758090023.09393,1758090023.09917,0.0,0.0,0.0,32.71589,38.84654,4.23989,8.99,0.56,0.4,2.0
1758090023.0967,1758090023.10917,0.0,0.0,0.0,31.2262,33.11696,2.29183,9.2,0.48,0.38,2.0
1758090023.11187,1758090023.11917,0.0,0.0,0.0,30.36677,30.82513,0.57296,9.33,0.56,0.25,2.0
1758090023.11308,1758090023.12917,0.0,0.0,0.0,29.27814,28.59059,-0.74485,9.33,0.56,0.25,2.0
1758090023.12784,1758090023.13917,0.0,0.0,0.0,26.87172,24.86637,-2.40642,9.01,0.73,0.09,2.0
1758090023.14392,1758090023.14917,0.0,0.0,0.0,24.75178,18.16276,-2.92208,9.01,0.73,0.09,2.0
1758090023.14482,1758090023.15917,0.0,0.0,0.0,22.28806,11.63104,-2.29183,8.43,0.98,-0.25,2.0
1758090023.15959,1758090023.16917,0.0,0.0,0.0,19.19409,6.07335,-1.60428,8.43,0.98,-0.25,2.0
1758090023.16172,1758090023.17917,0.0,0.0,0.0,13.80828,1.03132,0.51566,8.26,1.16,-0.51,2.0
1758090023.17767,1758090023.18917,0.0,0.0,0.0,9.91217,-1.3751,2.29183,8.64,1.31,-0.66,2.0
1758090023.19367,1758090023.19917,0.0,0.0,0.0,5.50039,-4.64096,3.72423,8.64,1.31,-0.66,2.0
1758090023.19648,1758090023.20917,0.0,0.0,0.0,0.57296,-8.70896,4.69825,8.75,1.56,-0.52,2.0
1758090023.21159,1758090023.21917,0.0,0.0,0.0,-7.33386,-16.50119,5.27121,8.75,1.56,-0.52,2.0
1758090023.21284,1758090023.22917,0.0,0.0,0.0,-12.77696,-21.7151,4.23989,9.05,1.87,-0.59,2.0
1758090023.22785,1758090023.23917,0.0,0.0,0.0,-17.87628,-28.70519,2.97938,9.05,1.87,-0.59,2.0
1758090023.24395,1758090023.24917,0.0,0.0,0.0,-22.91831,-37.52874,1.3751,9.39,2.04,-0.86,2.0
1758090023.24483,1758090023.25917,0.0,0.0,0.0,-29.39274,-50.01921,-0.85944,9.61,1.97,-1.1,2.0
1758090023.26061,1758090023.26917,0.0,0.0,0.0,-33.17426,-55.6342,-2.23454,9.61,1.97,-1.1,2.0
1758090023.26184,1758090023.27917,0.0,0.0,0.0,-37.01308,-59.47303,-3.55234,10.14,1.8,-1.45,2.0
1758090023.27789,1758090023.28917,0.0,0.0,0.0,-40.45082,-61.36378,-4.18259,10.14,1.8,-1.45,2.0
1758090023.29493,1758090023.29917,0.0,0.0,0.0,-45.55015,-57.58226,-4.92744,10.91,1.72,-1.36,2.0
1758090023.29585,1758090023.30917,0.0,0.0,0.0,-48.01387,-48.30034,-5.09932,10.91,1.72,-1.36,2.0
1758090023.3106,1758090023.31917,0.0,0.0,0.0,-49.79003,-31.39809,-6.41713,12.12,1.6,-1.16,2.0
1758090023.31182,1758090023.32917,0.0,0.0,0.0,-51.79538,-23.72045,-6.13065,12.12,1.6,-1.16,2.0
1758090023.32764,1758090023.33917,0.0,0.0,0.0,-53.39967,-40.27893,-8.88085,11.51,1.11,0.0,2.0
1758090023.34385,1758090023.34917,0.0,0.0,0.0,-51.10783,-62.39511,-12.204,9.74,0.59,2.18,2.0
1758090023.34485,1758090023.35917,0.0,0.0,0.0,-48.64412,-85.48531,-18.56383,9.74,0.59,2.18,2.0
1758090023.36094,1758090023.36917,0.0,0.0,0.0,-42.97184,-93.33482,-30.13758,12.9,-0.6,3.29,2.0
1758090023.36187,1758090023.37917,0.0,0.0,0.0,-36.32552,-84.68317,-36.15364,12.9,-0.6,3.29,2.0
1758090023.37778,1758090023.38917,0.0,0.0,0.0,-28.64789,-73.10942,-39.3622,17.14,-1.72,3.32,2.0
1758090023.39631,1758090023.39917,0.0,0.0,0.0,-21.31403,-67.89551,-38.50277,17.14,-1.72,3.32,2.0
1758090023.39726,1758090023.40917,0.0,0.0,0.0,-13.23533,-62.28051,-32.54401,13.13,-1.56,3.02,2.0
1758090023.41255,1758090023.41917,0.0,0.0,0.0,-11.17268,-51.50891,-25.61122,10.49,-0.43,2.26,2.0
1758090023.41383,1758090023.42917,0.0,0.0,0.0,-11.80293,-41.42485,-17.47521,10.49,-0.43,2.26,2.0
1758090023.42891,1758090023.43917,0.0,0.0,0.0,-14.20935,-34.60666,-8.76626,10.44,-0.16,2.16,2.0
1758090023.44486,1758090023.44917,0.0,0.0,0.0,-21.14215,-30.02299,3.03668,10.44,-0.16,2.16,2.0
1758090023.44585,1758090023.45917,0.0,0.0,0.0,-26.41335,-27.67386,9.11003,10.48,-0.11,1.91,2.0
1758090023.46067,1758090023.46917,0.0,0.0,0.0,-31.74186,-22.28806,12.89155,10.48,-0.11,1.91,2.0
1758090023.46188,1758090023.47917,0.0,0.0,0.0,-36.89849,-8.70896,15.06879,11.36,-0.22,0.11,2.0
1758090023.47789,1758090023.48917,0.0,0.0,0.0,-44.46153,13.98017,13.80828,12.47,-0.16,-0.45,2.0
1758090023.49387,1758090023.49917,0.0,0.0,0.0,-48.12846,20.51189,11.57375,12.47,-0.16,-0.45,2.0
1758090023.49485,1758090023.50917,0.0,0.0,0.0,-50.13381,26.64254,8.0787,10.59,-0.27,0.32,2.0
1758090023.51092,1758090023.51917,0.0,0.0,0.0,-50.1911,30.48136,3.66693,10.59,-0.27,0.32,2.0
1758090023.52666,1758090023.52917,0.0,0.0,0.0,-47.26902,37.47144,1.83346,9.53,-0.37,0.2,2.0
1758090023.52787,1758090023.53917,0.0,0.0,0.0,-43.60209,39.64868,0.80214,9.53,-0.37,0.2,2.0
1758090023.54272,1758090023.54917,0.0,0.0,0.0,-38.90384,40.45082,0.57296,8.36,-0.95,0.19,2.0
1758090023.54415,1758090023.55917,0.0,0.0,0.0,-31.28349,41.13837,1.08862,8.36,-0.95,0.19,2.0
1758090023.55854,1758090023.56917,0.0,0.0,0.0,-26.41335,41.36755,1.43239,7.53,-1.6,0.22,2.0
1758090023.57494,1758090023.57917,0.0,0.0,0.0,-21.37133,40.62271,1.77617,7.57,-2.04,0.16,2.0
1758090023.57613,1758090023.58917,0.0,0.0,0.0,-16.95955,38.27358,1.77617,7.57,-2.04,0.16,2.0
1758090023.59078,1758090023.59917,0.0,0.0,0.0,-11.51645,34.89313,1.60428,8.08,-1.92,0.15,2.0
1758090023.59216,1758090023.60917,0.0,0.0,0.0,-8.70896,33.05967,1.60428,8.08,-1.92,0.15,2.0
1758090023.60766,1758090023.61917,0.0,0.0,0.0,-6.58902,31.74186,1.14592,8.95,-1.36,0.28,2.0
1758090023.62372,1758090023.62917,0.0,0.0,0.0,-5.21392,30.13758,1.08862,8.95,-1.36,0.28,2.0
1758090023.6248,1758090023.63917,0.0,0.0,0.0,-3.95341,27.78845,0.85944,9.65,-0.76,0.35,2.0
1758090023.63989,1758090023.64917,0.0,0.0,0.0,-3.26586,27.33009,1.43239,10.1,-0.43,0.2,2.0
1758090023.65566,1758090023.65917,0.0,0.0,0.0,-3.03668,26.41335,2.23454,10.1,-0.43,0.2,2.0
1758090023.65715,1758090023.66917,0.0,0.0,0.0,-2.97938,24.35071,3.26586,10.02,-0.33,-0.1,2.0
1758090023.67192,1758090023.67917,0.0,0.0,0.0,-3.20856,24.12152,4.87014,10.02,-0.33,-0.1,2.0
1758090023.67312,1758090023.68917,0.0,0.0,0.0,-3.49504,25.61122,5.4431,10.04,-0.38,-0.43,2.0
1758090023.68795,1758090023.69917,0.0,0.0,0.0,-3.66693,27.38738,5.61499,10.04,-0.38,-0.43,2.0
1758090023.70374,1758090023.70917,0.0,0.0,0.0,-3.60963,28.59059,5.50039,9.93,-0.44,-0.52,2.0
1758090023.70645,1758090023.71917,0.0,0.0,0.0,-2.46372,26.41335,4.46907,9.38,-0.55,-0.42,2.0
1758090023.72192,1758090023.72917,0.0,0.0,0.0,-1.08862,22.00158,3.32316,9.38,-0.55,-0.42,2.0
1758090023.72397,1758090023.73917,0.0,0.0,0.0,0.34377,17.01685,1.94806,8.78,-0.69,-0.54,2.0
1758090023.73889,1758090023.74917,0.0,0.0,0.0,3.38045,9.5684,-0.22918,8.78,-0.69,-0.54,2.0
1758090023.7549,1758090023.75917,0.0,0.0,0.0,5.78687,5.61499,-1.71887,8.57,-0.93,-0.62,2.0
1758090023.7563,1758090023.76917,0.0,0.0,0.0,8.30789,4.52637,-3.26586,8.57,-0.93,-0.62,2.0
1758090023.77066,1758090023.77917,0.0,0.0,0.0,11.22997,4.52637,-4.69825,8.83,-1.19,-0.64,2.0
1758090023.77236,1758090023.78917,0.0,0.0,0.0,15.69904,4.1253,-6.18794,8.83,-1.19,-0.64,2.0
1758090023.78772,1758090023.79917,0.0,0.0,0.0,18.85031,0.68755,-6.70361,9.06,-1.3,-0.6,2.0
1758090023.80372,1758090023.80917,0.0,0.0,0.0,22.28806,-2.97938,-6.47442,8.96,-1.13,-0.93,2.0
1758090023.80565,1758090023.81917,0.0,0.0,0.0,25.55392,-6.53172,-5.84417,8.96,-1.13,-0.93,2.0
1758090023.82067,1758090023.82917,0.0,0.0,0.0,30.19488,-9.33921,-4.98473,9.25,-0.72,-1.78,2.0
1758090023.82182,1758090023.83917,0.0,0.0,0.0,33.00237,-9.91217,-4.52637,9.25,-0.72,-1.78,2.0
1758090023.83785,1758090023.84917,0.0,0.0,0.0,34.95043,-10.54242,-4.46907,9.22,-0.37,-2.16,2.0
1758090023.85409,1758090023.85917,0.0,0.0,0.0,35.2369,-10.08406,-4.64096,9.22,-0.37,-2.16,2.0
1758090023.8549,1758090023.86917,0.0,0.0,0.0,31.16891,-14.38124,-6.41713,8.86,0.08,-1.42,2.0
1758090023.87045,1758090023.87917,0.0,0.0,0.0,28.476,-23.20479,-6.7609,8.51,0.37,-0.5,2.0
1758090023.87168,1758090023.88917,0.0,0.0,0.0,25.43933,-33.46074,-6.41713,8.51,0.37,-0.5,2.0
1758090023.88783,1758090023.89917,0.0,0.0,0.0,21.25674,-44.11775,-5.72958,9.83,0.74,1.43,2.0
1758090023.90368,1758090023.90917,0.0,0.0,0.0,12.08941,-52.884,-0.97403,9.83,0.74,1.43,2.0
1758090023.90573,1758090023.91917,0.0,0.0,0.0,2.6929,-44.46153,5.50039,15.68,2.08,6.69,2.0
1758090023.92069,1758090023.92917,0.0,0.0,0.0,-5.78687,-41.94051,13.46451,15.68,2.08,6.69,2.0
1758090023.92187,1758090023.93917,0.0,0.0,0.0,-16.67307,-52.76942,24.4653,19.15,3.51,5.98,2.0
1758090023.93779,1758090023.94917,0.0,0.0,0.0,-22.68913,-63.13995,26.35606,11.79,1.14,1.67,2.0
1758090023.9562,1758090023.95917,0.0,0.0,0.0,-27.2155,-63.02536,28.13223,11.79,1.14,1.67,2.0
1758090023.95741,1758090023.96917,0.0,0.0,0.0,-28.87707,-57.63955,27.33009,8.7,-0.95,-0.1,2.0
1758090023.97293,1758090023.97917,0.0,0.0,0.0,-27.1582,-42.05511,21.42862,8.7,-0.95,-0.1,2.0
1758090023.9739,1758090023.98917,0.0,0.0,0.0,-23.37668,-33.46074,15.35527,9.17,-1.76,2.16,2.0
1758090023.98896,1758090023.99917,0.0,0.0,0.0,-18.10547,-27.84575,9.96947,9.17,-1.76,2.16,2.0
1758090024.00572,1758090024.00917,0.0,0.0,0.0,-12.54778,-20.74107,5.09932,10.5,-1.39,2.88,2.0
1758090024.00694,1758090024.01917,0.0,0.0,0.0,-5.95876,-9.91217,-1.71887,11.61,-1.39,1.1,2.0
1758090024.02175,1758090024.02917,0.0,0.0,0.0,-3.26586,-3.20856,-4.52637,11.61,-0.33,1.1,2.0
1758090024.02399,1758090024.03917,0.0,0.0,0.0,-2.86479,8.59437,-7.44845,11.52,0.74,-0.07,2.0
1758090024.03979,1758090024.04917,0.0,0.0,0.0,-4.0107,21.14215,-9.28192,11.52,0.74,-0.07,2.0
1758090024.05592,1758090024.05917,0.0,0.0,0.0,-8.02141,35.2369,-11.86023,11.13,1.21,0.43,2.0
1758090024.05691,1758090024.06917,0.0,0.0,0.0,-11.11538,41.59674,-12.49048,11.13,1.21,0.43,2.0
1758090024.07173,1758090024.07917,0.0,0.0,0.0,-14.20935,47.49821,-12.43318,10.14,1.27,0.49,2.0
1758090024.0737,1758090024.08917,0.0,0.0,0.0,-17.24603,51.27972,-11.45916,10.14,1.27,0.49,2.0
1758090024.0898,1758090024.09917,0.0,0.0,0.0,-20.62648,51.90998,-8.70896,9.6,1.19,0.26,2.0
1758090024.10676,1758090024.10917,0.0,0.0,0.0,-22.11617,50.53488,-6.13065,9.24,1.16,0.34,2.0
1758090024.10806,1758090024.11917,0.0,0.0,0.0,-23.37668,49.27437,-3.55234,9.24,1.16,0.34,2.0
1758090024.1238,1758090024.12917,0.0,0.0,0.0,-24.17882,47.44091,-0.68755,9.58,0.98,0.55,2.0
1758090024.12711,1758090024.13917,0.0,0.0,0.0,-24.98096,43.94586,-0.0573,9.58,0.98,0.55,2.0
1758090024.14374,1758090024.14917,0.0,0.0,0.0,-25.49662,40.27893,0.22918,9.69,0.7,0.75,2.0
1758090024.14748,1758090024.15917,0.0,0.0,0.0,-25.89769,35.3515,0.11459,9.69,0.7,0.75,2.0
1758090024.16295,1758090024.16917,0.0,0.0,0.0,-27.04361,28.87707,-0.85944,9.4,0.44,1.05,2.0
1758090024.16625,1758090024.17917,0.0,0.0,0.0,-28.36141,24.92367,-1.71887,9.13,0.38,0.98,2.0
1758090024.18173,1758090024.18917,0.0,0.0,0.0,-30.13758,21.88699,-2.6929,9.13,0.38,0.98,2.0
1758090024.18372,1758090024.19917,0.0,0.0,0.0,-31.97105,19.53786,-3.49504,8.93,0.62,0.63,2.0
1758090024.1995,1758090024.20917,0.0,0.0,0.0,-35.12231,19.99623,-4.18259,8.93,0.62,0.63,2.0
1758090024.21597,1758090024.21917,0.0,0.0,0.0,-37.12767,21.60051,-3.89611,9.15,0.9,0.34,2.0
1758090024.21691,1758090024.22917,0.0,0.0,0.0,-38.78925,22.51724,-3.32316,9.15,0.9,0.34,2.0
1758090024.23203,1758090024.23917,0.0,0.0,0.0,-40.7373,21.7724,-3.03668,9.22,1.0,0.1,2.0
1758090024.23647,1758090024.24917,0.0,0.0,0.0,-42.97184,19.48057,-2.34913,9.25,0.93,0.14,2.0
1758090024.25203,1758090024.25917,0.0,0.0,0.0,-43.83128,17.01685,-1.77617,9.25,0.93,0.14,2.0
1758090024.25368,1758090024.26917,0.0,0.0,0.0,-44.23235,12.43318,-1.03132,9.27,0.78,0.47,2.0
1758090024.26964,1758090024.27917,0.0,0.0,0.0,-44.40423,8.136,-0.57296,9.27,0.78,0.47,2.0
1758090024.28573,1758090024.28917,0.0,0.0,0.0,-43.65939,4.92744,0.51566,9.31,0.41,0.5,2.0
1758090024.28699,1758090024.29917,0.0,0.0,0.0,-42.85724,4.58366,1.20321,9.31,0.41,0.5,2.0
1758090024.30175,1758090024.30917,0.0,0.0,0.0,-41.71133,5.78687,2.29183,9.58,-0.29,0.27,2.0
1758090024.30373,1758090024.31917,0.0,0.0,0.0,-40.50812,6.58902,3.38045,9.58,-0.29,0.27,2.0
1758090024.31873,1758090024.32917,0.0,0.0,0.0,-38.78925,12.49048,4.87014,9.85,-0.98,0.08,2.0
1758090024.3347,1758090024.33917,0.0,0.0,0.0,-37.24226,13.80828,6.35983,10.48,-1.24,0.36,2.0
1758090024.33619,1758090024.34917,0.0,0.0,0.0,-35.92446,10.94349,6.99009,10.48,-1.24,0.36,2.0
1758090024.35074,1758090024.35917,0.0,0.0,0.0,-34.26288,0.0573,6.70361,10.23,-0.84,1.25,2.0
1758090024.35195,1758090024.36917,0.0,0.0,0.0,-33.46074,-6.70361,4.29718,10.23,-0.84,1.25,2.0
1758090024.36775,1758090024.37917,0.0,0.0,0.0,-32.25753,-11.91752,0.85944,10.73,-0.28,1.25,2.0
1758090024.38393,1758090024.38917,0.0,0.0,0.0,-30.59595,-15.69904,-3.26586,10.73,-0.28,1.25,2.0
1758090024.38495,1758090024.39917,0.0,0.0,0.0,-27.84575,-19.36597,-8.59437,10.69,0.01,1.31,2.0
1758090024.39977,1758090024.40917,0.0,0.0,0.0,-26.24147,-19.42327,-10.65701,9.89,-0.15,1.12,2.0
1758090024.41565,1758090024.41917,0.0,0.0,0.0,-24.57989,-18.90761,-10.94349,9.89,-0.15,1.12,2.0
1758090024.41688,1758090024.42917,0.0,0.0,0.0,-22.74642,-19.36597,-10.08406,9.28,-0.67,1.01,2.0
1758090024.43238,1758090024.43917,0.0,0.0,0.0,-20.45459,-20.11082,-5.61499,9.28,-0.67,1.01,2.0
1758090024.43389,1758090024.44917,0.0,0.0,0.0,-19.59516,-20.3973,-1.77617,9.38,-1.15,1.38,2.0
1758090024.4508,1758090024.45917,0.0,0.0,0.0,-18.9649,-20.45459,2.57831,9.38,-1.15,1.38,2.0
1758090024.45223,1758090024.46917,0.0,0.0,0.0,-19.13679,-19.76705,6.53172,10.0,-1.37,1.75,2.0
1758090024.4681,1758090024.47917,0.0,0.0,0.0,-20.16812,-16.95955,11.45916,10.65,-1.18,1.8,2.0
1758090024.48398,1758090024.48917,0.0,0.0,0.0,-21.7724,-13.5218,13.40721,10.65,-1.18,1.8,2.0
1758090024.48587,1758090024.49917,0.0,0.0,0.0,-23.89234,-9.4538,14.38124,11.03,-0.66,1.52,2.0
1758090024.50082,1758090024.50917,0.0,0.0,0.0,-26.35606,-6.53172,13.80828,11.03,-0.66,1.52,2.0
1758090024.50198,1758090024.51917,0.0,0.0,0.0,-29.8511,-5.90147,12.204,10.49,-0.24,1.16,2.0
1758090024.51773,1758090024.52917,0.0,0.0,0.0,-32.08564,-5.32851,11.11538,10.49,-0.24,1.16,2.0
1758090024.53366,1758090024.53917,0.0,0.0,0.0,-33.9764,-3.26586,10.31324,10.13,-0.15,0.95,2.0
1758090024.53636,1758090024.54917,0.0,0.0,0.0,-36.32552,0.34377,9.68299,10.13,-0.15,0.95,2.0
1758090024.55085,1758090024.55917,0.0,0.0,0.0,-37.64333,5.78687,9.4538,10.32,-0.38,0.69,2.0
1758090024.55199,1758090024.56917,0.0,0.0,0.0,-39.01843,7.96411,9.85487,10.03,-0.77,0.67,2.0
1758090024.56782,1758090024.57917,0.0,0.0,0.0,-40.45082,10.8289,10.19865,10.03,-0.77,0.67,2.0
1758090024.58377,1758090024.58917,0.0,0.0,0.0,-43.14373,14.49583,10.94349,9.92,-1.08,0.49,2.0
1758090024.58656,1758090024.59917,0.0,0.0,0.0,-45.20637,17.30333,11.17268,9.92,-1.08,0.49,2.0
1758090024.60181,1758090024.60917,0.0,0.0,0.0,-47.49821,20.16812,11.57375,9.92,-1.15,0.39,2.0
1758090024.60376,1758090024.61917,0.0,0.0,0.0,-50.13381,22.51724,11.80293,9.92,-1.15,0.39,2.0
1758090024.62122,1758090024.62917,0.0,0.0,0.0,-54.08722,25.89769,11.57375,9.93,-1.01,0.45,2.0
1758090024.6224,1758090024.63917,0.0,0.0,0.0,-56.60823,27.96034,11.17268,9.88,-0.82,0.49,2.0
1758090024.63772,1758090024.64917,0.0,0.0,0.0,-59.01466,30.53865,10.25595,9.88,-0.82,0.49,2.0
1758090024.65468,1758090024.65917,0.0,0.0,0.0,-61.07731,32.25753,9.68299,9.79,-0.7,0.48,2.0
1758090024.65681,1758090024.66917,0.0,0.0,0.0,-64.17127,34.32018,7.79223,9.79,-0.7,0.48,2.0
1758090024.67207,1758090024.67917,0.0,0.0,0.0,-65.71826,35.00772,6.41713,9.63,-0.69,0.51,2.0
1758090024.67389,1758090024.68917,0.0,0.0,0.0,-67.03606,36.03905,4.98473,9.63,-0.69,0.51,2.0
1758090024.68987,1758090024.69917,0.0,0.0,0.0,-68.12468,36.6693,3.38045,9.7,-0.73,0.5,2.0
1758090024.7058,1758090024.70917,0.0,0.0,0.0,-69.3279,36.55471,0.97403,9.77,-0.84,0.58,2.0
1758090024.70742,1758090024.71917,0.0,0.0,0.0,-69.67168,35.86716,-0.74485,9.77,-0.84,0.58,2.0
1758090024.72204,1758090024.72917,0.0,0.0,0.0,-69.38519,34.66395,-2.46372,9.82,-1.1,0.58,2.0
1758090024.72385,1758090024.73917,0.0,0.0,0.0,-68.86953,33.74722,-4.46907,9.82,-1.1,0.58,2.0
1758090024.73903,1758090024.74917,0.0,0.0,0.0,-67.09336,32.71589,-5.50039,9.83,-1.44,0.52,2.0
1758090024.75591,1758090024.75917,0.0,0.0,0.0,-65.71826,32.54401,-6.53172,9.83,-1.44,0.52,2.0
1758090024.75723,1758090024.76917,0.0,0.0,0.0,-63.94209,32.48671,-7.39116,9.83,-1.78,0.54,2.0
1758090024.7721,1758090024.77917,0.0,0.0,0.0,-61.24919,31.85646,-8.36518,9.83,-1.78,0.54,2.0
1758090024.77399,1758090024.78917,0.0,0.0,0.0,-59.41573,30.36677,-8.76626,9.78,-2.07,0.6,2.0
1758090024.78991,1758090024.79917,0.0,0.0,0.0,-57.46767,28.76248,-9.11003,9.74,-2.17,0.56,2.0
1758090024.80575,1758090024.80917,0.0,0.0,0.0,-55.6915,27.44468,-9.68299,9.74,-2.17,0.56,2.0
1758090024.807,1758090024.81917,0.0,0.0,0.0,-53.28508,28.41871,-10.8289,10.12,-2.13,0.39,2.0
1758090024.82183,1758090024.82917,0.0,0.0,0.0,-51.50891,29.50733,-11.86023,10.12,-2.13,0.39,2.0
1758090024.82702,1758090024.83917,0.0,0.0,0.0,-49.96192,29.50733,-12.60507,10.45,-2.13,0.37,2.0
1758090024.8419,1758090024.84917,0.0,0.0,0.0,-48.07116,28.01764,-13.5218,10.45,-2.13,0.37,2.0
1758090024.84704,1758090024.85917,0.0,0.0,0.0,-45.43555,27.10091,-14.78231,10.35,-2.26,0.3,2.0
1758090024.86198,1758090024.86917,0.0,0.0,0.0,-43.77398,26.12688,-15.46986,10.32,-2.41,0.24,2.0
1758090024.8673,1758090024.87917,0.0,0.0,0.0,-41.88322,25.26744,-15.98552,10.32,-2.41,0.24,2.0
1758090024.88598,1758090024.88917,0.0,0.0,0.0,-40.04975,25.8404,-16.38659,10.13,-2.5,0.09,2.0
1758090024.89026,1758090024.89917,0.0,0.0,0.0,-36.95578,25.21014,-16.50119,10.13,-2.5,0.09,2.0
1758090024.90597,1758090024.90917,0.0,0.0,0.0,-35.06502,24.4653,-16.38659,9.67,-2.48,-0.08,2.0
1758090024.90731,1758090024.91917,0.0,0.0,0.0,-33.17426,23.0329,-16.84496,9.67,-2.48,-0.08,2.0
1758090024.92204,1758090024.92917,0.0,0.0,0.0,-31.51268,21.60051,-17.87628,9.0,-2.37,-0.38,2.0
1758090024.92729,1758090024.93917,0.0,0.0,0.0,-28.70519,21.14215,-18.73572,8.56,-2.19,-0.55,2.0
1758090024.94194,1758090024.94917,0.0,0.0,0.0,-26.64254,22.40265,-19.82434,8.56,-2.19,-0.55,2.0
1758090024.94721,1758090024.95917,0.0,0.0,0.0,-24.4653,24.00693,-21.08485,8.43,-1.97,-0.61,2.0
1758090024.9618,1758090024.96917,0.0,0.0,0.0,-20.79837,22.74642,-23.31938,8.43,-1.97,-0.61,2.0
1758090024.96383,1758090024.97917,0.0,0.0,0.0,-17.81899,18.79302,-24.5226,7.78,-1.75,-0.67,2.0
1758090024.97916,1758090024.98917,0.0,0.0,0.0,-15.41257,15.58445,-25.61122,7.78,-1.75,-0.67,2.0
1758090024.99562,1758090024.99917,0.0,0.0,0.0,-13.75099,10.02676,-26.52795,7.91,-1.6,0.25,2.0
1758090024.99699,1758090025.00917,0.0,0.0,0.0,-13.00614,-8.30789,-23.94964,7.91,-1.6,2.9,2.0
1758090025.01209,1758090025.01917,0.0,0.0,0.0,-13.80828,-19.70975,-20.05352,9.52,-1.09,2.9,2.0
1758090025.01729,1758090025.02917,0.0,0.0,0.0,-15.41257,-31.16891,-14.72501,13.09,-0.17,4.24,2.0
1758090025.03914,1758090025.03917,0.0,0.0,0.0,-17.36062,-34.49206,-9.85487,13.09,-0.17,4.24,2.0
1758090025.04176,1758090025.04917,0.0,0.0,0.0,-19.88164,-35.40879,-6.18794,13.39,0.18,2.42,2.0
1758090025.0435,1758090025.05917,0.0,0.0,0.0,-20.34,-35.2369,-5.4431,13.39,0.18,2.42,2.0
1758090025.06178,1758090025.06917,0.0,0.0,0.0,-19.99623,-34.77854,-5.61499,9.82,0.12,1.24,2.0
1758090025.06539,1758090025.07917,0.0,0.0,0.0,-18.33465,-33.86181,-6.47442,9.82,0.12,1.24,2.0
1758090025.08159,1758090025.08917,0.0,0.0,0.0,-14.38124,-30.93972,-8.36518,8.33,0.31,1.19,2.0
1758090025.08997,1758090025.09917,0.0,0.0,0.0,-11.28727,-30.19488,-10.31324,8.82,0.6,2.19,2.0
1758090025.10516,1758090025.10917,0.0,0.0,0.0,-7.96411,-27.96034,-12.49048,8.82,0.6,2.19,2.0
1758090025.10606,1758090025.11917,0.0,0.0,0.0,-4.98473,-24.75178,-14.38124,10.32,0.85,2.44,2.0
1758090025.12166,1758090025.12917,0.0,0.0,0.0,-1.77617,-20.45459,-17.18874,10.32,0.85,2.44,2.0
1758090025.23176,1758090025.13917,0.0,0.0,0.0,-0.34377,-19.36597,-18.73572,10.84,0.79,2.05,2.0
1758090025.23231,1758090025.14917,0.0,0.0,0.0,0.57296,-18.16276,-19.76705,10.84,0.79,2.05,2.0
1758090025.23678,1758090025.15917,0.0,0.0,0.0,1.03132,-14.32395,-20.51189,10.6,0.61,1.78,2.0
1758090025.23736,1758090025.16917,0.0,0.0,0.0,1.08862,-11.34457,-20.62648,10.2,0.53,1.8,2.0
1758090025.26232,1758090025.17917,0.0,0.0,0.0,0.85944,-8.76626,-20.68378,10.2,0.53,1.8,2.0
1758090025.29185,1758090025.18917,0.0,0.0,0.0,0.97403,-6.35983,-20.34,9.51,0.68,1.84,2.0
1758090025.29305,1758090025.19917,0.0,0.0,0.0,1.43239,-3.26586,-19.13679,9.51,0.68,1.84,2.0
1758090025.29351,1758090025.20917,0.0,0.0,0.0,2.00535,-1.66158,-18.16276,9.1,0.86,1.75,2.0
1758090025.29698,1758090025.21917,0.0,0.0,0.0,2.7502,-0.0573,-17.01685,9.1,0.86,1.75,2.0
1758090025.29764,1758090025.22917,0.0,0.0,0.0,3.60963,1.3751,-15.58445,9.0,0.82,1.8,2.0
1758090025.29919,1758090025.23917,0.0,0.0,0.0,5.09932,2.63561,-13.5218,9.02,0.62,1.8,2.0
1758090025.30189,1758090025.24917,0.0,0.0,0.0,5.90147,3.60963,-12.43318,9.02,0.62,1.8,2.0
1758090025.30302,1758090025.25917,0.0,0.0,0.0,6.70361,5.27121,-11.28727,9.16,0.43,1.71,2.0
1758090025.30537,1758090025.26917,0.0,0.0,0.0,7.21927,7.62034,-10.19865,9.16,0.43,1.71,2.0
1758090025.30733,1758090025.27917,0.0,0.0,0.0,7.84952,11.00079,-8.70896,9.34,0.39,1.43,2.0
1758090025.31125,1758090025.28917,0.0,0.0,0.0,7.79223,13.80828,-7.79223,9.34,0.39,1.43,2.0
1758090025.31183,1758090025.29917,0.0,0.0,0.0,7.67763,16.61578,-6.58902,9.52,0.52,1.17,2.0
1758090025.31626,1758090025.30917,0.0,0.0,0.0,7.04738,19.48057,-5.50039,9.52,0.52,1.17,2.0
1758090025.31692,1758090025.31917,0.0,0.0,0.0,5.50039,24.12152,-3.72423,9.74,0.73,0.89,2.0
1758090025.31817,1758090025.32917,0.0,0.0,0.0,4.23989,27.04361,-2.40642,9.95,0.91,0.7,2.0
1758090025.33287,1758090025.33917,0.0,0.0,0.0,2.6929,28.99167,-1.43239,9.95,0.91,0.7,2.0
1758090025.33645,1758090025.34917,0.0,0.0,0.0,-0.0573,30.02299,0.17189,9.82,0.99,0.56,2.0
1758090025.35212,1758090025.35917,0.0,0.0,0.0,-2.29183,30.82513,1.66158,9.82,0.99,0.56,2.0
1758090025.35305,1758090025.36917,0.0,0.0,0.0,-4.69825,29.73651,2.6929,9.69,1.02,0.46,2.0
1758090025.3714,1758090025.37917,0.0,0.0,0.0,-7.50575,28.13223,3.89611,9.69,1.02,0.46,2.0
1758090025.37231,1758090025.38917,0.0,0.0,0.0,-12.08941,23.20479,5.09932,9.52,1.06,0.35,2.0
1758090025.38996,1758090025.39917,0.0,0.0,0.0,-15.29797,17.58981,5.84417,9.24,1.17,0.22,2.0
1758090025.40591,1758090025.40917,0.0,0.0,0.0,-18.79302,11.22997,6.13065,9.24,1.17,0.22,2.0
1758090025.40722,1758090025.41917,0.0,0.0,0.0,-22.34536,3.49504,6.18794,8.97,1.3,-0.11,2.0
1758090025.42668,1758090025.42917,0.0,0.0,0.0,-28.07493,-7.62034,6.70361,8.97,1.3,-0.11,2.0
1758090025.4469,1758090025.43917,0.0,0.0,0.0,-31.91375,-11.80293,6.58902,9.27,1.4,-0.43,2.0
1758090025.45344,1758090025.44917,0.0,0.0,0.0,-35.58068,-13.69369,5.95876,9.27,1.4,-0.43,2.0
1758090025.45762,1758090025.45917,0.0,0.0,0.0,-38.21629,-10.65701,5.4431,10.33,1.2,-0.67,2.0
1758090025.45822,1758090025.46917,0.0,0.0,0.0,-41.59674,-1.3751,3.49504,11.45,1.15,-0.32,2.0
1758090025.47399,1758090025.47917,0.0,0.0,0.0,-43.02913,0.85944,1.83346,11.45,1.15,-0.32,2.0
1758090025.48174,1758090025.48917,0.0,0.0,0.0,-43.65939,-0.0573,0.17189,10.69,0.96,0.08,2.0
1758090025.48213,1758090025.49917,0.0,0.0,0.0,-43.4875,-7.62034,-1.60428,10.69,0.96,0.08,2.0
1758090025.50003,1758090025.50917,0.0,0.0,0.0,-42.57077,-25.89769,-5.55769,9.76,0.63,0.47,2.0
1758090025.54398,1758090025.51917,0.0,0.0,0.0,-41.48215,-39.64868,-9.28192,9.76,0.63,0.47,2.0
1758090025.54598,1758090025.52917,0.0,0.0,0.0,-39.53409,-49.56085,-12.60507,11.04,-0.49,1.36,2.0
1758090025.5472,1758090025.53917,0.0,0.0,0.0,-37.58603,-51.73809,-17.01685,11.04,-0.49,1.36,2.0
1758090025.55098,1758090025.54917,0.0,0.0,0.0,-33.51803,-28.59059,-16.95955,13.53,-1.18,2.99,2.0
1758090025.55705,1758090025.55917,0.0,0.0,0.0,-31.79916,-7.73493,-14.43854,14.87,-0.85,3.49,2.0
1758090025.55755,1758090025.56917,0.0,0.0,0.0,-32.77319,4.81285,-13.12073,14.87,-0.85,3.49,2.0
1758090025.57388,1758090025.57917,0.0,0.0,0.0,-32.37212,-20.85567,-12.83425,10.44,-0.19,4.15,2.0
1758090025.57672,1758090025.58917,0.0,0.0,0.0,-31.97105,-49.90463,-8.47978,10.44,-0.19,4.15,2.0
1758090025.59222,1758090025.59917,0.0,0.0,0.0,-32.77319,-61.93674,-4.35448,6.57,0.15,2.52,2.0
1758090025.59663,1758090025.60917,0.0,0.0,0.0,-34.14828,-53.97263,1.43239,6.57,0.15,2.52,2.0
1758090025.6128,1758090025.61917,0.0,0.0,0.0,-39.4195,-40.27893,5.55769,11.97,-0.11,3.26,2.0
1758090025.6134,1758090025.62917,0.0,0.0,0.0,-43.37291,-39.24761,6.07335,11.52,-0.28,3.58,2.0
1758090025.63109,1758090025.63917,0.0,0.0,0.0,-48.41494,-36.55471,4.46907,11.52,-0.28,3.58,2.0
1758090025.63261,1758090025.64917,0.0,0.0,0.0,-52.82671,-28.70519,2.11994,11.01,-0.11,2.73,2.0
1758090025.67681,1758090025.65917,0.0,0.0,0.0,-58.04062,-10.8289,1.14592,11.01,-0.11,2.73,2.0
1758090025.67876,1758090025.66917,0.0,0.0,0.0,-59.75951,-2.00535,1.71887,10.93,-0.09,1.57,2.0
1758090025.68095,1758090025.67917,0.0,0.0,0.0,-62.33781,-9.11003,1.48969,10.93,-0.09,1.57,2.0
1758090025.6822,1758090025.68917,0.0,0.0,0.0,-65.14531,-18.73572,0.57296,8.85,-0.17,2.72,2.0
1758090025.68362,1758090025.69917,0.0,0.0,0.0,-67.78091,-18.90761,-0.40107,9.59,-0.5,1.88,2.0
1758090025.70017,1758090025.70917,0.0,0.0,0.0,-68.86953,-8.0787,-0.68755,9.59,-0.5,1.88,2.0
1758090025.70748,1758090025.71917,0.0,0.0,0.0,-68.98412,1.60428,-0.45837,10.66,-1.01,1.49,2.0
1758090025.72364,1758090025.72917,0.0,0.0,0.0,-68.23928,7.16197,-0.40107,10.66,-1.01,1.49,2.0
1758090025.7265,1758090025.73917,0.0,0.0,0.0,-66.06203,9.96947,-0.22918,8.91,-1.46,1.54,2.0
1758090025.7419,1758090025.74917,0.0,0.0,0.0,-64.45775,11.80293,0.57296,8.91,-1.46,1.54,2.0
1758090025.74355,1758090025.75917,0.0,0.0,0.0,-62.96807,15.46986,0.85944,8.33,-1.63,1.2,2.0
1758090025.75976,1758090025.76917,0.0,0.0,0.0,-60.44705,23.94964,1.14592,8.33,-1.63,1.2,2.0
1758090025.77698,1758090025.77917,0.0,0.0,0.0,-59.24384,28.07493,0.57296,8.55,-1.37,0.89,2.0
1758090025.77843,1758090025.78917,0.0,0.0,0.0,-58.3844,27.61657,-0.11459,8.02,-0.99,0.77,2.0
1758090025.79369,1758090025.79917,0.0,0.0,0.0,-57.81144,22.51724,-1.14592,8.02,-0.99,0.77,2.0
1758090025.79651,1758090025.80917,0.0,0.0,0.0,-56.26446,13.86558,-3.60963,7.13,-0.83,0.26,2.0
1758090025.81215,1758090025.81917,0.0,0.0,0.0,-54.25911,9.85487,-4.92744,7.13,-0.83,0.26,2.0
1758090025.81474,1758090025.82917,0.0,0.0,0.0,-53.68615,12.14671,-6.35983,7.72,-0.86,-0.11,2.0
1758090025.82996,1758090025.83917,0.0,0.0,0.0,-52.9986,26.12688,-7.73493,7.72,-0.86,-0.11,2.0
1758090025.83277,1758090025.84917,0.0,0.0,0.0,-53.97263,58.90006,-15.58445,10.02,-0.79,-0.21,2.0
1758090025.85753,1758090025.85917,0.0,0.0,0.0,-55.86338,64.80153,-18.73572,9.43,-0.89,0.07,2.0
1758090025.86524,1758090025.86917,0.0,0.0,0.0,-57.58226,64.45775,-22.23076,9.43,-0.89,0.07,2.0
1758090025.86564,1758090025.87917,0.0,0.0,0.0,-56.55093,58.84277,-24.5226,8.12,-0.9,0.23,2.0
1758090025.88177,1758090025.88917,0.0,0.0,0.0,-52.71212,54.431,-25.89769,8.12,-0.9,0.23,2.0
1758090025.8839,1758090025.89917,0.0,0.0,0.0,-48.07116,50.64947,-25.43933,9.19,-1.25,-0.59,2.0
1758090025.9015,1758090025.90917,0.0,0.0,0.0,-42.51347,43.25832,-24.86637,9.19,-1.25,-0.59,2.0
1758090025.90522,1758090025.91917,0.0,0.0,0.0,-35.58068,36.15364,-24.00693,9.26,-1.92,-0.77,2.0
1758090025.91992,1758090025.92917,0.0,0.0,0.0,-23.54857,26.47065,-23.26209,9.45,-2.57,-0.49,2.0
1758090025.93154,1758090025.93917,0.0,0.0,0.0,-14.78231,19.07949,-22.68913,9.45,-2.57,-0.49,2.0
1758090025.9321,1758090025.94917,0.0,0.0,0.0,-5.61499,9.68299,-22.05888,8.92,-2.97,-0.8,2.0
1758090025.95135,1758090025.95917,0.0,0.0,0.0,6.99009,0.0573,-21.14215,8.92,-2.97,-0.8,2.0
1758090025.95599,1758090025.96917,0.0,0.0,0.0,14.49583,-15.75634,-20.62648,8.49,-2.88,-1.34,2.0
1758090025.97094,1758090025.97917,0.0,0.0,0.0,20.79837,-25.55392,-19.53786,8.49,-2.88,-1.34,2.0
1758090025.97221,1758090025.98917,0.0,0.0,0.0,25.55392,-33.68992,-18.62113,8.48,-2.37,-1.33,2.0
1758090025.99774,1758090025.99917,0.0,0.0,0.0,29.73651,-48.12846,-15.98552,8.48,-2.37,-1.33,2.0
1758090026.03281,1758090026.00917,0.0,0.0,0.0,30.82513,-61.70755,-11.51645,9.42,-1.78,0.79,2.0
1758090026.03419,1758090026.01917,0.0,0.0,0.0,29.62192,-72.07809,-4.69825,12.75,-0.55,4.99,2.0
1758090026.03858,1758090026.02917,0.0,0.0,0.0,25.49662,-70.24463,3.03668,12.75,-0.55,4.99,2.0
1758090026.04083,1758090026.03917,0.0,0.0,0.0,15.41257,-50.64947,11.74564,17.23,1.18,4.93,2.0
1758090026.04203,1758090026.04917,0.0,0.0,0.0,8.88085,-45.43555,15.0115,17.23,1.18,4.93,2.0
1758090026.04346,1758090026.05917,0.0,0.0,0.0,2.97938,-45.37826,15.35527,13.72,1.73,3.83,2.0
1758090026.06352,1758090026.06917,0.0,0.0,0.0,-0.74485,-44.9199,15.24068,13.72,1.73,3.83,2.0
1758090026.07229,1758090026.07917,0.0,0.0,0.0,-2.29183,-40.7373,14.66772,10.77,1.74,3.71,2.0
1758090026.07268,1758090026.08917,0.0,0.0,0.0,-0.45837,-36.26823,13.75099,11.66,1.28,4.16,2.0
1758090026.09222,1758090026.09917,0.0,0.0,0.0,3.20856,-31.16891,12.71966,11.66,1.28,4.16,2.0
1758090026.09322,1758090026.10917,0.0,0.0,0.0,7.96411,-24.12152,11.57375,12.7,0.51,3.98,2.0
1758090026.11222,1758090026.11917,0.0,0.0,0.0,13.5791,-2.57831,7.21927,12.7,0.51,3.98,2.0
1758090026.11663,1758090026.12917,0.0,0.0,0.0,15.87093,9.39651,3.89611,12.73,0.0,2.78,2.0
1758090026.13226,1758090026.13917,0.0,0.0,0.0,16.67307,16.90226,0.57296,12.73,0.0,2.78,2.0
1758090026.13476,1758090026.14917,0.0,0.0,0.0,17.93358,17.99088,-3.95341,10.54,-0.13,2.64,2.0
1758090026.15157,1758090026.15917,0.0,0.0,0.0,16.38659,5.72958,-6.47442,8.4,0.09,2.44,2.0
1758090026.15427,1758090026.16917,0.0,0.0,0.0,16.272,-16.95955,-6.87549,8.4,0.09,2.44,2.0
1758090026.1723,1758090026.17917,0.0,0.0,0.0,14.72501,-26.75713,-9.22462,7.59,0.88,1.56,2.0
1758090026.17348,1758090026.18917,0.0,0.0,0.0,17.47521,1.3751,-6.07335,7.59,0.88,1.56,2.0
1758090026.19115,1758090026.19917,0.0,0.0,0.0,19.53786,13.00614,-5.61499,11.46,1.38,1.06,2.0
1758090026.19262,1758090026.20917,0.0,0.0,0.0,21.02755,12.43318,-5.21392,11.46,1.38,1.06,2.0
1758090026.21199,1758090026.21917,0.0,0.0,0.0,21.42862,10.8289,-3.72423,8.23,1.52,2.05,2.0
1758090026.22975,1758090026.22917,0.0,0.0,0.0,20.79837,14.83961,-2.11994,7.97,1.52,1.16,2.0
1758090026.23186,1758090026.23917,0.0,0.0,0.0,19.59516,18.50654,-1.77617,7.97,1.16,1.16,2.0
1758090026.23217,1758090026.24917,0.0,0.0,0.0,17.53251,20.51189,-2.63561,7.99,0.96,1.12,2.0
1758090026.25225,1758090026.25917,0.0,0.0,0.0,15.12609,21.02755,-3.26586,7.99,0.96,1.12,2.0
1758090026.25323,1758090026.26917,0.0,0.0,0.0,12.08941,22.86102,-4.23989,8.09,0.96,1.24,2.0
1758090026.27158,1758090026.27917,0.0,0.0,0.0,10.54242,24.98096,-4.1253,8.09,0.96,1.24,2.0
1758090026.27236,1758090026.28917,0.0,0.0,0.0,9.96947,27.50197,-3.20856,8.49,0.97,0.73,2.0
1758090026.29221,1758090026.29917,0.0,0.0,0.0,9.96947,29.8511,-1.83346,8.49,0.97,0.73,2.0
1758090026.29505,1758090026.30917,0.0,0.0,0.0,10.8289,31.45539,1.3178,8.49,0.91,0.53,2.0
1758090026.31259,1758090026.31917,0.0,0.0,0.0,11.63104,32.37212,3.55234,8.47,0.77,0.54,2.0
1758090026.33303,1758090026.32917,0.0,0.0,0.0,12.14671,35.00772,6.35983,8.47,0.77,0.54,2.0
1758090026.33688,1758090026.33917,0.0,0.0,0.0,12.37589,36.49741,10.8862,8.8,0.6,0.55,2.0
1758090026.33811,1758090026.34917,0.0,0.0,0.0,11.51645,36.32552,13.46451,8.8,0.6,0.55,2.0
1758090026.35372,1758090026.35917,0.0,0.0,0.0,9.74028,36.21093,15.41257,8.86,0.63,0.58,2.0
1758090026.35743,1758090026.36917,0.0,0.0,0.0,6.8182,35.75257,16.61578,8.86,0.63,0.58,2.0
1758090026.37398,1758090026.37917,0.0,0.0,0.0,1.03132,32.71589,16.73037,9.13,0.88,0.42,2.0
1758090026.37662,1758090026.38917,0.0,0.0,0.0,-3.55234,29.27814,16.38659,8.96,1.37,0.04,2.0
1758090026.39221,1758090026.39917,0.0,0.0,0.0,-8.65166,25.09555,16.10011,8.96,1.37,0.04,2.0
1758090026.39321,1758090026.40917,0.0,0.0,0.0,-13.80828,19.19409,16.21471,8.77,1.88,-0.17,2.0
1758090026.41041,1758090026.41917,0.0,0.0,0.0,-21.42862,8.36518,16.272,8.77,1.88,-0.17,2.0
1758090026.42706,1758090026.42917,0.0,0.0,0.0,-26.18417,0.80214,16.55848,8.45,2.24,-0.48,2.0
1758090026.43045,1758090026.43917,0.0,0.0,0.0,-30.65324,-5.50039,16.272,8.45,2.24,-0.48,2.0
1758090026.44602,1758090026.44917,0.0,0.0,0.0,-34.37747,-12.08941,16.3293,8.51,2.22,-0.67,2.0
1758090026.4474,1758090026.45917,0.0,0.0,0.0,-38.38818,-24.5226,15.41257,8.74,1.64,-0.73,2.0
1758090026.46208,1758090026.46917,0.0,0.0,0.0,-40.7946,-33.23156,13.75099,8.74,1.64,-0.73,2.0
1758090026.48588,1758090026.47917,0.0,0.0,0.0,-42.85724,-41.08107,11.51645,9.17,1.08,-0.81,2.0
1758090026.48729,1758090026.48917,0.0,0.0,0.0,-45.03448,-46.75336,8.88085,9.17,1.08,-0.81,2.0
1758090026.4909,1758090026.49917,0.0,0.0,0.0,-48.64412,-55.06125,4.58366,9.37,1.0,-1.13,2.0
1758090026.50686,1758090026.50917,0.0,0.0,0.0,-51.6235,-59.47303,1.3751,9.37,1.0,-1.13,2.0
1758090026.51198,1758090026.51917,0.0,0.0,0.0,-55.06125,-61.70755,-0.85944,9.24,1.37,-1.51,2.0
1758090026.51261,1758090026.52917,0.0,0.0,0.0,-58.3844,-63.54102,-1.60428,9.24,1.37,-1.51,2.0
1758090026.52982,1758090026.53917,0.0,0.0,0.0,-62.05133,-79.29736,-5.32851,10.1,1.38,-0.24,2.0
1758090026.54604,1758090026.54917,0.0,0.0,0.0,-63.13995,-99.75195,-11.74564,11.3,-0.07,3.22,2.0
1758090026.54721,1758090026.55917,0.0,0.0,0.0,-63.13995,-117.39906,-19.42327,11.3,-0.07,3.22,2.0
1758090026.56202,1758090026.56917,0.0,0.0,0.0,-59.18654,-105.71072,-27.84575,16.15,-1.41,4.7,2.0
1758090026.56322,1758090026.57917,0.0,0.0,0.0,-55.23313,-85.77179,-30.82513,16.15,-1.41,4.7,2.0
1758090026.5796,1758090026.58917,0.0,0.0,0.0,-51.50891,-72.13539,-30.53865,18.2,-1.63,4.39,2.0
1758090026.59709,1758090026.59917,0.0,0.0,0.0,-48.8733,-62.22322,-27.67386,18.2,-1.63,4.39,2.0
1758090026.59876,1758090026.60917,0.0,0.0,0.0,-48.30034,-42.85724,-19.13679,13.8,-0.55,4.19,2.0
1758090026.61495,1758090026.61917,0.0,0.0,0.0,-48.01387,-38.1017,-10.71431,11.76,0.14,3.01,2.0
1758090026.61696,1758090026.62917,0.0,0.0,0.0,-51.10783,-53.51426,-5.4431,11.76,0.14,3.01,2.0
1758090026.63201,1758090026.63917,0.0,0.0,0.0,-53.91533,-67.26525,0.80214,9.42,-0.16,3.03,2.0
1758090026.63319,1758090026.64917,0.0,0.0,0.0,-57.58226,-73.91156,7.50575,9.42,-0.16,3.03,2.0
1758090026.65122,1758090026.65917,0.0,0.0,0.0,-59.41573,-67.72362,10.08406,11.67,-0.81,0.97,2.0
1758090026.65219,1758090026.66917,0.0,0.0,0.0,-60.27517,-61.1346,11.45916,11.67,-0.81,0.97,2.0
1758090026.67225,1758090026.67917,0.0,0.0,0.0,-60.33246,-54.48829,11.86023,11.69,-1.82,0.29,2.0
1758090026.6732,1758090026.68917,0.0,0.0,0.0,-57.75415,-40.62271,10.65701,10.81,-1.99,0.5,2.0
1758090026.69127,1758090026.69917,0.0,0.0,0.0,-56.32175,-17.30333,9.96947,10.81,-1.99,0.5,2.0
1758090026.69396,1758090026.70917,0.0,0.0,0.0,-57.23849,8.65166,6.99009,11.81,-1.04,0.22,2.0
1758090026.71167,1758090026.71917,0.0,0.0,0.0,-57.18119,16.67307,8.59437,11.81,-1.04,0.22,2.0
1758090026.71359,1758090026.72917,0.0,0.0,0.0,-57.18119,17.6471,6.47442,8.54,-0.64,1.48,2.0
1758090026.75391,1758090026.73917,0.0,0.0,0.0,-56.26446,20.62648,6.41713,8.54,-0.64,1.48,2.0
1758090026.76179,1758090026.74917,0.0,0.0,0.0,-54.3164,26.06958,6.24524,8.01,-0.7,0.63,2.0
1758090026.76217,1758090026.75917,0.0,0.0,0.0,-49.61814,30.30947,7.33386,8.01,-0.7,0.63,2.0
1758090026.76736,1758090026.76917,0.0,0.0,0.0,-45.20637,33.40344,8.02141,8.14,-1.5,0.07,2.0
1758090026.77223,1758090026.77917,0.0,0.0,0.0,-40.96649,35.2369,8.65166,8.31,-2.02,0.27,2.0
1758090026.7767,1758090026.78917,0.0,0.0,0.0,-37.18496,37.64333,9.11003,8.31,-2.02,0.27,2.0
1758090026.79225,1758090026.79917,0.0,0.0,0.0,-33.23156,40.27893,8.47978,8.53,-2.02,0.13,2.0
1758090026.79347,1758090026.80917,0.0,0.0,0.0,-32.08564,41.48215,7.10468,8.53,-2.02,0.13,2.0
1758090026.80979,1758090026.81917,0.0,0.0,0.0,-31.97105,41.99781,5.4431,8.36,-1.51,-0.01,2.0
1758090026.8259,1758090026.82917,0.0,0.0,0.0,-32.42941,42.1124,3.09397,8.36,-1.51,-0.01,2.0
1758090026.82738,1758090026.83917,0.0,0.0,0.0,-33.63263,40.7946,-0.74485,8.38,-1.04,-0.09,2.0
1758090026.84205,1758090026.84917,0.0,0.0,0.0,-34.26288,38.44547,-3.66693,8.54,-0.72,-0.07,2.0
1758090026.84399,1758090026.85917,0.0,0.0,0.0,-34.09099,36.49741,-6.07335,8.54,-0.72,-0.07,2.0
1758090026.86203,1758090026.86917,0.0,0.0,0.0,-33.05967,33.74722,-8.30789,8.87,-0.67,-0.17,2.0
1758090026.86415,1758090026.87917,0.0,0.0,0.0,-30.53865,31.39809,-10.31324,8.87,-0.67,-0.17,2.0
1758090026.87993,1758090026.88917,0.0,0.0,0.0,-28.13223,29.8511,-11.11538,9.17,-0.87,-0.31,2.0
1758090026.89688,1758090026.89917,0.0,0.0,0.0,-25.55392,27.67386,-11.34457,9.17,-0.87,-0.31,2.0
1758090026.89911,1758090026.90917,0.0,0.0,0.0,-22.57454,24.57989,-11.74564,9.03,-1.22,-0.35,2.0
1758090026.93693,1758090026.91917,0.0,0.0,0.0,-17.99088,20.51189,-11.80293,9.0,-1.54,-0.44,2.0
1758090026.93818,1758090026.92917,0.0,0.0,0.0,-14.49583,18.50654,-11.80293,9.0,-1.54,-0.44,2.0
1758090026.93877,1758090026.93917,0.0,0.0,0.0,-10.31324,16.21471,-11.74564,9.27,-1.77,-0.59,2.0
1758090026.94159,1758090026.94917,0.0,0.0,0.0,-5.21392,13.80828,-10.59972,9.27,-1.77,-0.59,2.0
1758090026.94222,1758090026.95917,0.0,0.0,0.0,4.18259,11.17268,-9.62569,9.76,-2.04,-0.64,2.0
1758090026.96032,1758090026.96917,0.0,0.0,0.0,11.86023,10.59972,-8.42248,9.76,-2.04,-0.64,2.0
1758090026.96927,1758090026.97917,0.0,0.0,0.0,20.34,11.28727,-7.33386,10.42,-2.33,-0.97,2.0
1758090026.98405,1758090026.98917,0.0,0.0,0.0,33.23156,13.5218,-6.24524,10.42,-2.33,-0.97,2.0
1758090026.98525,1758090026.99917,0.0,0.0,0.0,42.1124,15.0115,-5.90147,10.81,-2.45,-1.29,2.0
1758090027.00168,1758090027.00917,0.0,0.0,0.0,50.53488,14.20935,-6.07335,10.56,-2.23,-1.51,2.0
1758090027.00362,1758090027.01917,0.0,0.0,0.0,58.21251,11.63104,-6.41713,10.56,-2.23,-1.51,2.0
1758090027.01986,1758090027.02917,0.0,0.0,0.0,68.06739,6.7609,-7.44845,10.18,-1.89,-1.9,2.0
1758090027.03685,1758090027.03917,0.0,0.0,0.0,73.16672,2.00535,-8.36518,10.18,-1.89,-1.9,2.0
1758090027.03845,1758090027.04917,0.0,0.0,0.0,76.83365,-3.89611,-9.28192,9.99,-1.65,-2.23,2.0
1758090027.05412,1758090027.05917,0.0,0.0,0.0,79.46925,-9.68299,-10.31324,9.99,-1.65,-2.23,2.0
1758090027.05741,1758090027.06917,0.0,0.0,0.0,81.99026,-15.58445,-12.37589,9.84,-1.52,-2.42,2.0
1758090027.07403,1758090027.07917,0.0,0.0,0.0,83.13618,-16.50119,-13.86558,9.85,-1.3,-2.53,2.0
1758090027.07743,1758090027.08917,0.0,0.0,0.0,79.75573,-7.67763,-18.16276,9.85,-1.3,-2.53,2.0
1758090027.09398,1758090027.09917,0.0,0.0,0.0,69.78626,0.68755,-23.83505,10.25,0.47,-0.9,2.0
1758090027.09661,1758090027.10917,0.0,0.0,0.0,62.85347,-5.27121,-21.6578,10.25,0.47,-0.9,2.0
1758090027.11202,1758090027.11917,0.0,0.0,0.0,58.90006,-8.36518,-20.34,10.13,0.21,-0.02,2.0
1758090027.12987,1758090027.12917,0.0,0.0,0.0,53.91533,-10.59972,-17.81899,10.13,0.21,-0.02,2.0
1758090027.13084,1758090027.13917,0.0,0.0,0.0,47.78468,-21.88699,-17.81899,11.28,1.01,2.25,2.0
1758090027.14711,1758090027.14917,0.0,0.0,0.0,42.05511,-96.14232,-7.44845,9.07,2.81,6.49,2.0
1758090027.15154,1758090027.15917,0.0,0.0,0.0,36.7266,-116.71152,0.74485,9.07,2.81,6.49,2.0
1758090027.17193,1758090027.16917,0.0,0.0,0.0,32.6013,-114.87804,11.86023,14.47,2.42,3.54,2.0
1758090027.17488,1758090027.17917,0.0,0.0,0.0,26.35606,-94.53805,24.29341,14.47,2.42,3.54,2.0
1758090027.17674,1758090027.18917,0.0,0.0,0.0,21.25674,-82.62051,25.61122,13.94,0.53,1.5,2.0
1758090027.19217,1758090027.19917,0.0,0.0,0.0,19.42327,-73.73967,27.61657,13.94,0.53,1.5,2.0
1758090027.19326,1758090027.20917,0.0,0.0,0.0,19.07949,-61.07731,25.61122,11.11,-0.57,2.44,2.0
1758090027.20833,1758090027.21917,0.0,0.0,0.0,21.7151,-40.27893,24.86637,11.11,-0.57,2.48,2.0
1758090027.22584,1758090027.22917,0.0,0.0,0.0,24.86637,-24.92367,22.74642,12.76,0.06,2.48,2.0
1758090027.23026,1758090027.23917,0.0,0.0,0.0,28.70519,-14.20935,19.36597,13.38,0.98,1.69,2.0
1758090027.24586,1758090027.24917,0.0,0.0,0.0,33.00237,-10.65701,14.49583,13.38,0.98,1.69,2.0
1758090027.24945,1758090027.25917,0.0,0.0,0.0,37.47144,0.0,3.32316,11.41,1.69,0.15,2.0
1758090027.2651,1758090027.26917,0.0,0.0,0.0,40.45082,20.05352,-2.6929,11.41,1.69,0.15,2.0
1758090027.26728,1758090027.27917,0.0,0.0,0.0,43.25832,38.1017,-7.67763,12.29,1.68,-0.34,2.0
1758090027.28208,1758090027.28917,0.0,0.0,0.0,44.8053,47.03984,-11.17268,12.29,1.68,-0.34,2.0
1758090027.2848,1758090027.29917,0.0,0.0,0.0,44.8053,50.64947,-13.98017,9.85,1.08,0.79,2.0
1758090027.30199,1758090027.30917,0.0,0.0,0.0,43.02913,54.3164,-15.06879,8.4,0.89,0.84,2.0
1758090027.30366,1758090027.31917,0.0,0.0,0.0,40.04975,59.47303,-15.24068,8.4,0.89,0.84,2.0
1758090027.31995,1758090027.32917,0.0,0.0,0.0,35.52338,65.08801,-15.58445,8.41,1.26,0.23,2.0
1758090027.33691,1758090027.33917,0.0,0.0,0.0,27.61657,68.12468,-13.69369,8.41,1.26,0.23,2.0
1758090027.36159,1758090027.34917,0.0,0.0,0.0,22.00158,66.29122,-12.2613,7.64,1.88,0.22,2.0
1758090027.36386,1758090027.35917,0.0,0.0,0.0,16.38659,63.31184,-10.37054,7.64,1.88,0.22,2.0
1758090027.36499,1758090027.36917,0.0,0.0,0.0,8.65166,60.96271,-8.02141,7.35,2.39,0.32,2.0
1758090027.36562,1758090027.37917,0.0,0.0,0.0,4.64096,57.63955,-6.99009,8.05,2.43,0.48,2.0
1758090027.38107,1758090027.38917,0.0,0.0,0.0,1.60428,54.431,-5.72958,8.05,2.43,0.48,2.0
1758090027.38231,1758090027.39917,0.0,0.0,0.0,-0.51566,51.39432,-5.15662,8.55,1.91,0.79,2.0
1758090027.40553,1758090027.40917,0.0,0.0,0.0,-1.94806,46.35228,-4.18259,8.55,1.91,0.79,2.0
1758090027.40647,1758090027.41917,0.0,0.0,0.0,-1.77617,43.14373,-3.55234,8.82,1.2,0.86,2.0
1758090027.42233,1758090027.42917,0.0,0.0,0.0,-1.48969,40.04975,-2.92208,8.82,1.2,0.86,2.0
1758090027.42726,1758090027.43917,0.0,0.0,0.0,-1.03132,37.52874,-2.23454,9.02,0.64,0.68,2.0
1758090027.4421,1758090027.44917,0.0,0.0,0.0,-1.03132,34.66395,-1.14592,9.1,0.38,0.43,2.0
1758090027.44517,1758090027.45917,0.0,0.0,0.0,-1.3178,31.11161,-0.57296,9.1,0.38,0.43,2.0
1758090027.46119,1758090027.46917,0.0,0.0,0.0,-1.60428,26.52795,0.0,8.8,0.46,0.16,2.0
1758090027.46209,1758090027.47917,0.0,0.0,0.0,-2.06265,22.23076,0.80214,8.8,0.46,0.16,2.0
1758090027.48206,1758090027.48917,0.0,0.0,0.0,-2.86479,14.15206,2.57831,8.61,0.7,0.1,2.0
1758090027.48727,1758090027.49917,0.0,0.0,0.0,-3.83882,8.99544,3.32316,8.61,0.7,0.1,2.0
1758090027.50212,1758090027.50917,0.0,0.0,0.0,-5.15662,2.97938,4.29718,8.45,1.03,-0.06,2.0
1758090027.50412,1758090027.51917,0.0,0.0,0.0,-7.04738,-1.48969,4.35448,8.45,1.03,-0.06,2.0
1758090027.51914,1758090027.52917,0.0,0.0,0.0,-10.71431,-6.07335,4.46907,8.54,1.36,-0.13,2.0
1758090027.53515,1758090027.53917,0.0,0.0,0.0,-13.34992,-8.42248,4.35448,8.75,1.57,-0.18,2.0
1758090027.53711,1758090027.54917,0.0,0.0,0.0,-16.10011,-11.28727,4.29718,8.75,1.57,-0.18,2.0
1758090027.55214,1758090027.55917,0.0,0.0,0.0,-19.25138,-15.29797,3.83882,8.63,1.59,-0.11,2.0
1758090027.55414,1758090027.56916,0.0,0.0,0.0,-24.12152,-23.20479,3.09397,8.63,1.59,-0.11,2.0
1758090027.56995,1758090027.57916,0.0,0.0,0.0,-27.44468,-29.73651,2.86479,8.45,1.52,-0.28,2.0
1758090027.57351,1758090027.58916,0.0,0.0,0.0,-30.36677,-36.7266,2.46372,8.45,1.52,-0.28,2.0
1758090027.59257,1758090027.59916,0.0,0.0,0.0,-34.43476,-44.86259,1.66158,8.48,1.41,-0.66,2.0
1758090027.60227,1758090027.60916,0.0,0.0,0.0,-37.24226,-49.33167,0.51566,9.07,1.32,-0.99,2.0
1758090027.60448,1758090027.61916,0.0,0.0,0.0,-40.10705,-52.82671,0.57296,9.07,1.32,-0.99,2.0
1758090027.62182,1758090027.62916,0.0,0.0,0.0,-42.91454,-52.71212,0.0573,10.41,1.53,-1.11,2.0
1758090027.62753,1758090027.63916,0.0,0.0,0.0,-47.49821,-35.69527,0.0,10.41,1.53,-1.11,2.0
1758090027.64207,1758090027.64916,0.0,0.0,0.0,-50.87865,-14.09476,0.22918,13.42,1.94,-0.89,2.0
1758090027.64755,1758090027.65916,0.0,0.0,0.0,-52.25375,-5.15662,2.40642,13.42,1.94,-0.89,2.0
1758090027.66213,1758090027.66916,0.0,0.0,0.0,-56.26446,-9.91217,1.14592,12.96,1.89,-0.66,2.0
1758090027.66424,1758090027.67916,0.0,0.0,0.0,-60.16057,-19.59516,0.45837,11.1,2.26,-1.14,2.0
1758090027.67947,1758090027.68916,0.0,0.0,0.0,-62.56699,-22.40265,0.11459,11.1,2.26,-1.14,2.0
1758090027.69699,1758090027.69916,0.0,0.0,0.0,-65.14531,-20.11082,1.03132,11.06,2.11,-2.13,2.0
1758090027.70195,1758090027.70916,0.0,0.0,0.0,-67.09336,-13.40721,3.38045,11.06,2.11,-2.13,2.0
1758090027.70568,1758090027.71916,0.0,0.0,0.0,-69.27061,-3.03668,8.136,10.91,1.53,-2.29,2.0
1758090027.75195,1758090027.72916,0.0,0.0,0.0,-69.84356,1.66158,10.71431,10.91,1.53,-2.29,2.0
1758090027.75317,1758090027.73916,0.0,0.0,0.0,-69.27061,3.03668,13.00614,10.1,0.92,-1.52,2.0
1758090027.75652,1758090027.74916,0.0,0.0,0.0,-67.55173,1.3751,13.34992,10.1,0.92,-1.52,2.0
1758090027.76152,1758090027.75916,0.0,0.0,0.0,-63.19725,-16.21471,10.48513,9.75,0.19,-0.62,2.0
1758090027.7621,1758090027.76916,0.0,0.0,0.0,-59.75951,-37.47144,4.92744,9.34,-0.66,0.94,2.0
1758090027.76334,1758090027.77916,0.0,0.0,0.0,-55.23313,-59.64491,-2.34913,9.34,-0.66,0.94,2.0
1758090027.77921,1758090027.78916,0.0,0.0,0.0,-45.09178,-76.66176,-13.80828,11.18,-1.37,2.98,2.0
1758090027.79686,1758090027.79916,0.0,0.0,0.0,-36.49741,-82.50593,-20.85567,11.18,-1.37,2.98,2.0
1758090027.80197,1758090027.80916,0.0,0.0,0.0,-27.73116,-88.63658,-28.01764,13.57,-1.99,3.93,2.0
1758090027.80251,1758090027.81916,0.0,0.0,0.0,-20.62648,-91.1003,-33.00237,13.57,-1.99,3.93,2.0
1758090027.86512,1758090027.82916,0.0,0.0,0.0,-15.06879,-90.87111,-34.32018,12.74,-1.33,4.12,2.0
1758090027.86692,1758090027.83916,0.0,0.0,0.0,-15.12609,-84.39669,-31.91375,11.06,0.03,2.66,2.0
1758090027.8715,1758090027.84916,0.0,0.0,0.0,-17.30333,-72.07809,-26.81443,11.06,0.03,2.66,2.0
1758090027.87354,1758090027.85916,0.0,0.0,0.0,-21.60051,-59.41573,-18.50654,11.69,0.52,2.29,2.0
1758090027.87422,1758090027.86916,0.0,0.0,0.0,-29.56462,-41.08107,-3.03668,11.69,0.52,2.29,2.0
1758090027.87701,1758090027.87916,0.0,0.0,0.0,-34.89313,-26.69983,7.79223,12.06,0.44,1.05,2.0
1758090027.8784,1758090027.88916,0.0,0.0,0.0,-39.99245,-13.69369,17.58981,12.06,0.44,1.05,2.0
1758090027.90103,1758090027.89916,0.0,0.0,0.0,-43.77398,-3.55234,25.15285,11.94,-0.05,-0.2,2.0
1758090027.90275,1758090027.90916,0.0,0.0,0.0,-46.1804,11.86023,31.11161,11.62,-0.73,-0.3,2.0
1758090027.90293,1758090027.91916,0.0,0.0,0.0,-46.06581,21.94428,31.91375,11.62,-0.73,-0.3,2.0
1758090027.91274,1758090027.92916,0.0,0.0,0.0,-44.57612,30.30947,31.16891,11.21,-1.26,-0.22,2.0
1758090027.93236,1758090027.93916,0.0,0.0,0.0,-42.1124,36.95578,28.93437,11.21,-1.26,-0.22,2.0
1758090027.93975,1758090027.94916,0.0,0.0,0.0,-36.55471,44.9199,24.80907,9.81,-1.55,-0.08,2.0
1758090027.95708,1758090027.95916,0.0,0.0,0.0,-31.97105,48.41494,21.6578,9.81,-1.55,-0.08,2.0
1758090027.95876,1758090027.96916,0.0,0.0,0.0,-27.04361,49.27437,18.85031,8.23,-1.64,0.05,2.0
1758090027.97684,1758090027.97916,0.0,0.0,0.0,-19.36597,47.78468,14.43854,8.23,-1.64,0.05,2.0
1758090027.98194,1758090027.98916,0.0,0.0,0.0,-14.78231,46.40959,11.57375,6.91,-1.63,0.28,2.0
1758090027.98728,1758090027.99916,0.0,0.0,0.0,-10.25595,43.60209,9.33921,6.78,-1.46,0.4,2.0
1758090028.07267,1758090028.00916,0.0,0.0,0.0,-6.41713,39.99245,7.67763,6.78,-1.46,0.4,2.0
1758090028.08144,1758090028.01916,0.0,0.0,0.0,-1.83346,33.11696,6.24524,7.31,-1.13,0.46,2.0
1758090028.0819,1758090028.02916,0.0,0.0,0.0,0.22918,28.93437,5.78687,7.31,-1.13,0.46,2.0
1758090028.084,1758090028.03916,0.0,0.0,0.0,1.20321,26.24147,5.32851,8.41,-0.84,0.39,2.0
1758090028.08437,1758090028.04916,0.0,0.0,0.0,1.20321,24.63719,5.32851,8.41,-0.84,0.39,2.0
1758090028.08562,1758090028.05916,0.0,0.0,0.0,0.22918,20.97026,5.95876,9.54,-0.6,0.28,2.0
1758090028.08628,1758090028.06916,0.0,0.0,0.0,-0.97403,18.27736,6.8182,9.91,-0.33,0.03,2.0
1758090028.08705,1758090028.07916,0.0,0.0,0.0,-2.92208,16.04282,7.62034,9.91,-0.33,0.03,2.0
1758090028.08967,1758090028.08916,0.0,0.0,0.0,-4.29718,14.83961,8.47978,10.1,-0.08,-0.39,2.0
1758090028.09127,1758090028.09916,0.0,0.0,0.0,-7.33386,14.66772,8.59437,10.1,-0.08,-0.39,2.0
1758090028.09238,1758090028.10916,0.0,0.0,0.0,-9.39651,14.78231,8.02141,10.13,0.1,-0.75,2.0
1758090028.11128,1758090028.11916,0.0,0.0,0.0,-10.65701,15.58445,7.16197,10.13,0.1,-0.75,2.0
1758090028.11222,1758090028.12916,0.0,0.0,0.0,-11.28727,16.55848,6.18794,10.0,0.08,-0.82,2.0
1758090028.1314,1758090028.13916,0.0,0.0,0.0,-10.48513,16.50119,4.29718,9.75,-0.16,-0.86,2.0
1758090028.13256,1758090028.14916,0.0,0.0,0.0,-8.59437,15.12609,3.26586,9.75,-0.16,-0.86,2.0
1758090028.14976,1758090028.15916,0.0,0.0,0.0,-5.72958,13.75099,2.23454,9.51,-0.59,-0.86,2.0
1758090028.16528,1758090028.16916,0.0,0.0,0.0,0.0573,11.74564,1.08862,9.51,-0.59,-0.86,2.0
1758090028.16684,1758090028.17916,0.0,0.0,0.0,4.46907,10.02676,0.74485,9.26,-1.01,-0.9,2.0
1758090028.18199,1758090028.18916,0.0,0.0,0.0,8.99544,9.5684,0.45837,9.26,-1.01,-0.9,2.0
1758090028.18724,1758090028.19916,0.0,0.0,0.0,13.46451,8.25059,0.0573,9.04,-1.28,-0.92,2.0
1758090028.2024,1758090028.20916,0.0,0.0,0.0,19.70975,7.50575,-0.74485,9.04,-1.28,-0.92,2.0
1758090028.20772,1758090028.21916,0.0,0.0,0.0,23.72045,7.16197,-1.03132,8.83,-1.38,-0.92,2.0
1758090028.22219,1758090028.22916,0.0,0.0,0.0,27.50197,6.35983,-1.71887,8.96,-1.32,-0.82,2.0
1758090028.22739,1758090028.23916,0.0,0.0,0.0,31.11161,6.53172,-2.11994,8.96,-1.32,-0.82,2.0
1758090028.24227,1758090028.24916,0.0,0.0,0.0,36.21093,7.73493,-2.92208,9.53,-1.2,-0.56,2.0
1758090028.24344,1758090028.25916,0.0,0.0,0.0,39.3622,9.91217,-2.7502,9.53,-1.2,-0.56,2.0
1758090028.26144,1758090028.26916,0.0,0.0,0.0,41.36755,13.86558,-2.97938,10.3,-1.11,-0.44,2.0
1758090028.26286,1758090028.27916,0.0,0.0,0.0,42.51347,19.25138,-2.7502,10.3,-1.11,-0.44,2.0
1758090028.27928,1758090028.28916,0.0,0.0,0.0,42.34158,27.38738,-3.89611,11.12,-0.99,-0.26,2.0
1758090028.29694,1758090028.29916,0.0,0.0,0.0,41.71133,27.67386,-5.4431,10.96,-0.83,-0.19,2.0
1758090028.29873,1758090028.30916,0.0,0.0,0.0,42.1124,21.94428,-5.09932,10.96,-0.83,-0.19,2.0
1758090028.31706,1758090028.31916,0.0,0.0,0.0,40.39353,4.23989,-6.70361,9.48,-0.79,-0.66,2.0
1758090028.32146,1758090028.32916,0.0,0.0,0.0,39.70598,-19.59516,-5.90147,9.48,-0.79,-0.66,2.0
1758090028.33704,1758090028.33916,0.0,0.0,0.0,38.78925,-26.64254,-3.20856,9.68,-0.87,-1.21,2.0
1758090028.34018,1758090028.34916,0.0,0.0,0.0,38.44547,-23.66316,-0.85944,9.68,-0.87,-1.21,2.0
1758090028.35682,1758090028.35916,0.0,0.0,0.0,37.29956,-18.44924,-0.80214,11.67,-1.07,-1.43,2.0
1758090028.36203,1758090028.36916,0.0,0.0,0.0,34.49206,-10.94349,-2.23454,11.3,-0.71,-0.79,2.0
1758090028.36451,1758090028.37916,0.0,0.0,0.0,30.13758,-5.15662,-5.90147,11.3,-0.71,-0.79,2.0
1758090028.3812,1758090028.38916,0.0,0.0,0.0,26.64254,-3.32316,-8.93814,10.81,0.08,-0.59,2.0
1758090028.38222,1758090028.39916,0.0,0.0,0.0,22.91831,-1.43239,-11.51645,10.81,0.08,-0.59,2.0
1758090028.40681,1758090028.40916,0.0,0.0,0.0,20.74107,-0.80214,-12.08941,10.73,-0.01,-0.95,2.0
1758090028.40981,1758090028.41916,0.0,0.0,0.0,19.13679,-2.6929,-12.60507,10.73,-0.01,-0.95,2.0
1758090028.42713,1758090028.42916,0.0,0.0,0.0,17.87628,-8.88085,-11.91752,10.47,0.22,-0.26,2.0
1758090028.43154,1758090028.43916,0.0,0.0,0.0,16.50119,-22.23076,-6.41713,10.47,0.22,0.6,2.0
1758090028.44735,1758090028.44916,0.0,0.0,0.0,15.64175,-26.87172,-0.68755,10.83,0.4,0.6,2.0
1758090028.45254,1758090028.45916,0.0,0.0,0.0,14.15206,-25.26744,4.98473,12.25,0.39,0.9,2.0
1758090028.45363,1758090028.46916,0.0,0.0,0.0,11.86023,-21.7151,9.62569,12.25,0.39,0.9,2.0
1758090028.47254,1758090028.47916,0.0,0.0,0.0,8.36518,-22.34536,15.29797,11.65,0.17,1.08,2.0
1758090028.47346,1758090028.48916,0.0,0.0,0.0,6.47442,-24.29341,17.93358,11.65,0.17,1.08,2.0
1758090028.48985,1758090028.49916,0.0,0.0,0.0,5.50039,-24.4653,19.88164,10.39,-0.39,1.13,2.0
1758090028.49261,1758090028.50916,0.0,0.0,0.0,4.58366,-21.42862,20.45459,10.39,-0.39,1.13,2.0
1758090028.51006,1758090028.51916,0.0,0.0,0.0,4.87014,-14.61043,19.42327,10.76,-0.55,0.85,2.0
1758090028.51768,1758090028.52916,0.0,0.0,0.0,6.07335,-9.74028,17.87628,11.35,-0.09,1.79,2.0
1758090028.5366,1758090028.53916,0.0,0.0,0.0,8.65166,-4.87014,16.10011,11.35,-0.09,1.79,2.0
1758090028.5376,1758090028.54916,0.0,0.0,0.0,12.83425,0.0573,14.09476,11.62,0.3,2.3,2.0
1758090028.55329,1758090028.55916,0.0,0.0,0.0,21.37133,8.02141,10.08406,11.62,0.3,2.3,2.0
1758090028.55875,1758090028.56916,0.0,0.0,0.0,27.84575,13.5791,7.84952,11.1,0.23,1.84,2.0
1758090028.57673,1758090028.57916,0.0,0.0,0.0,34.14828,18.44924,5.72958,11.1,0.23,1.84,2.0
1758090028.58169,1758090028.58916,0.0,0.0,0.0,42.51347,22.97561,3.89611,10.26,-0.15,1.45,2.0
1758090028.58216,1758090028.59916,0.0,0.0,0.0,46.81066,24.29341,3.55234,9.35,-0.44,1.47,2.0
1758090028.60159,1758090028.60916,0.0,0.0,0.0,49.61814,26.41335,2.86479,9.35,-0.44,1.47,2.0
1758090028.62676,1758090028.61916,0.0,0.0,0.0,51.10783,29.67921,2.34913,9.31,-0.31,1.12,2.0
1758090028.62732,1758090028.62916,0.0,0.0,0.0,50.59217,35.98175,0.97403,9.31,-0.31,1.12,2.0
1758090028.63258,1758090028.63916,0.0,0.0,0.0,48.64412,39.3622,-0.17189,9.57,0.31,0.79,2.0
1758090028.6332,1758090028.64916,0.0,0.0,0.0,45.83662,40.7373,-1.48969,9.57,0.31,0.79,2.0
1758090028.65163,1758090028.65916,0.0,0.0,0.0,42.62806,41.65404,-2.46372,9.23,1.24,0.43,2.0
1758090028.6553,1758090028.66916,0.0,0.0,0.0,37.98711,41.94051,-4.1253,8.75,1.85,0.5,2.0
1758090028.67227,1758090028.67916,0.0,0.0,0.0,35.00772,40.7373,-4.92744,8.75,1.85,0.5,2.0
1758090028.67743,1758090028.68916,0.0,0.0,0.0,32.71589,39.4195,-5.32851,8.1,1.9,0.7,2.0
1758090028.69225,1758090028.69916,0.0,0.0,0.0,30.76784,38.78925,-5.55769,8.1,1.9,0.7,2.0
1758090028.69742,1758090028.70916,0.0,0.0,0.0,28.01764,38.15899,-6.18794,8.17,1.51,0.66,2.0
1758090028.71224,1758090028.71916,0.0,0.0,0.0,26.75713,37.35685,-6.47442,8.17,1.51,0.66,2.0
1758090028.71742,1758090028.72916,0.0,0.0,0.0,25.26744,36.26823,-6.58902,8.45,0.99,0.44,2.0
1758090028.73255,1758090028.73916,0.0,0.0,0.0,24.17882,35.3515,-6.35983,8.45,0.99,0.44,2.0
1758090028.74227,1758090028.74916,0.0,0.0,0.0,23.26209,34.43476,-5.61499,8.89,0.51,0.31,2.0
1758090028.76279,1758090028.75916,0.0,0.0,0.0,23.26209,34.0337,-4.69825,9.29,0.24,0.27,2.0
1758090028.7651,1758090028.76916,0.0,0.0,0.0,23.66316,32.77319,-3.32316,9.29,0.24,0.27,2.0
1758090028.76544,1758090028.77916,0.0,0.0,0.0,24.75178,31.28349,-1.60428,9.35,0.29,0.27,2.0
1758090028.80247,1758090028.78916,0.0,0.0,0.0,25.38203,28.41871,-0.22918,9.35,0.29,0.27,2.0
1758090028.8069,1758090028.79916,0.0,0.0,0.0,25.55392,26.41335,0.74485,9.31,0.57,0.3,2.0
1758090028.80725,1758090028.80916,0.0,0.0,0.0,25.61122,23.89234,1.66158,9.31,0.57,0.3,2.0
1758090028.81234,1758090028.81916,0.0,0.0,0.0,24.5226,21.25674,2.6929,9.13,0.83,0.22,2.0
1758090028.81501,1758090028.82916,0.0,0.0,0.0,23.37668,18.10547,3.20856,8.81,1.04,0.23,2.0
1758090028.85476,1758090028.83916,0.0,0.0,0.0,21.48592,14.38124,3.49504,8.81,1.04,0.23,2.0
1758090028.85751,1758090028.84916,0.0,0.0,0.0,19.19409,10.71431,3.89611,8.46,1.23,0.04,2.0
1758090028.85819,1758090028.85916,0.0,0.0,0.0,14.72501,4.23989,4.23989,8.46,1.23,0.04,2.0
1758090028.86101,1758090028.86916,0.0,0.0,0.0,11.28727,-0.34377,4.58366,8.45,1.43,-0.11,2.0
1758090028.87656,1758090028.87916,0.0,0.0,0.0,7.16197,-3.20856,4.69825,8.45,1.43,-0.11,2.0
1758090028.88144,1758090028.88916,0.0,0.0,0.0,2.92208,-5.95876,4.58366,8.91,1.62,-0.32,2.0
1758090028.89684,1758090028.89916,0.0,0.0,0.0,-4.35448,-10.25595,4.52637,9.31,1.82,-0.23,2.0
1758090028.8987,1758090028.90916,0.0,0.0,0.0,-9.68299,-14.83961,4.23989,9.31,1.82,-0.23,2.0
1758090028.91565,1758090028.91916,0.0,0.0,0.0,-15.24068,-20.34,3.83882,9.37,2.0,-0.4,2.0
1758090028.92161,1758090028.92916,0.0,0.0,0.0,-20.79837,-26.35606,2.7502,9.37,2.0,-0.4,2.0
1758090028.92223,1758090028.93916,0.0,0.0,0.0,-28.24682,-36.32552,0.57296,9.77,2.1,-0.57,2.0
1758090028.94512,1758090028.94916,0.0,0.0,0.0,-32.37212,-43.83128,-0.80214,9.77,2.1,-0.57,2.0
1758090028.9516,1758090028.95916,0.0,0.0,0.0,-35.75257,-52.36834,-2.11994,10.2,2.14,-0.87,2.0
1758090028.95223,1758090028.96916,0.0,0.0,0.0,-38.78925,-58.90006,-3.72423,10.2,2.14,-0.87,2.0
1758090028.9725,1758090028.97916,0.0,0.0,0.0,-41.99781,-63.48372,-4.87014,10.48,2.02,-1.08,2.0
1758090028.97832,1758090028.98916,0.0,0.0,0.0,-43.65939,-63.94209,-5.21392,10.71,1.7,-1.38,2.0
1758090028.99405,1758090028.99916,0.0,0.0,0.0,-45.20637,-62.96807,-5.50039,10.71,1.7,-1.38,2.0
1758090028.99687,1758090029.00916,0.0,0.0,0.0,-47.32632,-61.76485,-5.27121,10.27,1.39,-1.49,2.0
1758090029.01234,1758090029.01916,0.0,0.0,0.0,-48.30034,-62.79618,-5.21392,10.27,1.39,-1.49,2.0
1758090029.0154,1758090029.02916,0.0,0.0,0.0,-49.15978,-62.33781,-4.29718,9.65,1.13,-1.32,2.0
1758090029.03111,1758090029.03916,0.0,0.0,0.0,-49.33167,-61.76485,-4.69825,9.65,1.13,-1.32,2.0
1758090029.03233,1758090029.04916,0.0,0.0,0.0,-46.81066,-50.13381,-7.33386,10.78,0.64,-0.1,2.0
1758090029.05234,1758090029.05916,0.0,0.0,0.0,-42.85724,-55.6915,-9.22462,12.74,-0.6,2.44,2.0
1758090029.06152,1758090029.06916,0.0,0.0,0.0,-43.20102,-79.52654,-18.9649,12.74,-0.6,2.44,2.0
1758090029.07644,1758090029.07916,0.0,0.0,0.0,-37.35685,-94.53805,-23.94964,12.31,-1.2,3.94,2.0
1758090029.07751,1758090029.08916,0.0,0.0,0.0,-33.86181,-95.28289,-35.06502,12.31,-1.2,3.94,2.0
1758090029.09247,1758090029.09916,0.0,0.0,0.0,-30.53865,-83.76643,-37.47144,15.2,-1.12,2.57,2.0
1758090029.09426,1758090029.10916,0.0,0.0,0.0,-29.04896,-72.88023,-36.61201,15.2,-1.12,2.57,2.0
1758090029.12967,1758090029.11916,0.0,0.0,0.0,-28.70519,-64.74423,-33.63263,12.82,-0.22,1.67,2.0
1758090029.13163,1758090029.12916,0.0,0.0,0.0,-29.50733,-49.27437,-24.63719,11.12,0.05,2.2,2.0
1758090029.13224,1758090029.13916,0.0,0.0,0.0,-32.08564,-35.69527,-17.53251,11.12,0.05,2.2,2.0
1758090029.13506,1758090029.14916,0.0,0.0,0.0,-35.63798,-20.74107,-9.05273,11.45,-0.11,1.81,2.0
1758090029.15133,1758090029.15916,0.0,0.0,0.0,-40.45082,-8.76626,-1.3178,11.45,-0.11,1.81,2.0
1758090029.15231,1758090029.16916,0.0,0.0,0.0,-48.41494,-6.35983,8.25059,10.85,-0.56,1.55,2.0
1758090029.16958,1758090029.17916,0.0,0.0,0.0,-53.05589,-11.74564,12.71966,10.85,-0.56,1.55,2.0
1758090029.18567,1758090029.18916,0.0,0.0,0.0,-56.60823,-14.20935,15.58445,9.97,-0.88,0.39,2.0
1758090029.18655,1758090029.19916,0.0,0.0,0.0,-59.75951,4.81285,18.85031,9.97,-0.88,0.39,2.0
1758090029.20131,1758090029.20916,0.0,0.0,0.0,-62.62429,23.54857,18.79302,12.29,-0.89,-0.32,2.0
1758090029.20252,1758090029.21916,0.0,0.0,0.0,-63.65561,30.36677,18.50654,12.01,-0.6,0.61,2.0
1758090029.22151,1758090029.22916,0.0,0.0,0.0,-63.54102,32.14294,17.58981,12.01,-0.6,0.61,2.0
1758090029.22272,1758090029.23916,0.0,0.0,0.0,-60.90542,37.81522,15.75634,9.47,-0.81,0.94,2.0
1758090029.2523,1758090029.24916,0.0,0.0,0.0,-58.21251,40.7946,15.24068,9.47,-0.81,0.94,2.0
1758090029.25265,1758090029.25916,0.0,0.0,0.0,-54.94666,44.28964,14.09476,8.74,-1.36,-0.13,2.0
1758090029.25464,1758090029.26916,0.0,0.0,0.0,-50.59217,44.9199,13.23533,8.74,-1.36,-0.13,2.0
1758090029.27118,1758090029.27916,0.0,0.0,0.0,-44.8053,45.43555,12.204,8.06,-1.87,0.09,2.0
1758090029.27228,1758090029.28916,0.0,0.0,0.0,-41.42485,47.03984,11.45916,8.34,-1.95,0.11,2.0
1758090029.29115,1758090029.29916,0.0,0.0,0.0,-39.13302,47.15443,10.71431,8.34,-1.95,0.11,2.0
1758090029.30736,1758090029.30916,0.0,0.0,0.0,-38.21629,46.81066,9.62569,8.62,-1.5,0.07,2.0
1758090029.31225,1758090029.31916,0.0,0.0,0.0,-38.61736,44.00316,7.33386,8.62,-1.5,0.07,2.0
1758090029.31725,1758090029.32916,0.0,0.0,0.0,-40.50812,42.39888,5.09932,8.8,-0.75,0.05,2.0
1758090029.35771,1758090029.33916,0.0,0.0,0.0,-42.62806,40.7373,3.09397,8.8,-0.75,0.05,2.0
1758090029.36193,1758090029.34916,0.0,0.0,0.0,-45.26366,38.84654,1.3178,9.09,-0.11,0.03,2.0
1758090029.36233,1758090029.35916,0.0,0.0,0.0,-48.8733,36.03905,-0.51566,9.1,0.17,-0.22,2.0
1758090029.36431,1758090029.36916,0.0,0.0,0.0,-50.363,35.00772,-1.03132,9.1,0.17,-0.22,2.0
1758090029.36683,1758090029.37916,0.0,0.0,0.0,-51.90998,33.11696,-1.3178,8.96,0.16,-0.57,2.0
1758090029.38236,1758090029.38916,0.0,0.0,0.0,-54.02992,30.82513,-2.06265,8.96,0.16,-0.57,2.0
1758090029.39152,1758090029.39916,0.0,0.0,0.0,-55.00395,26.06958,-3.03668,8.73,-0.04,-0.61,2.0
1758090029.40657,1758090029.40916,0.0,0.0,0.0,-55.6342,22.05888,-4.29718,8.73,-0.04,-0.61,2.0
1758090029.41185,1758090029.41916,0.0,0.0,0.0,-55.97798,18.27736,-5.95876,8.7,-0.37,-0.62,2.0
1758090029.42634,1758090029.42916,0.0,0.0,0.0,-54.71747,11.80293,-8.42248,8.7,-0.37,-0.62,2.0
1758090029.43001,1758090029.43916,0.0,0.0,0.0,-52.08187,8.93814,-9.33921,8.93,-0.86,-0.83,2.0
1758090029.44537,1758090029.44916,0.0,0.0,0.0,-48.07116,7.10468,-9.74028,9.38,-1.34,-0.93,2.0
1758090029.44681,1758090029.45916,0.0,0.0,0.0,-42.97184,4.58366,-9.28192,9.38,-1.34,-0.93,2.0
1758090029.46161,1758090029.46916,0.0,0.0,0.0,-33.11696,3.49504,-8.25059,9.4,-1.99,-1.49,2.0
1758090029.46258,1758090029.47916,0.0,0.0,0.0,-25.72581,6.47442,-7.73493,9.4,-1.99,-1.49,2.0
1758090029.47859,1758090029.48916,0.0,0.0,0.0,-18.27736,9.4538,-7.79223,9.96,-2.56,-1.7,2.0
1758090029.49513,1758090029.49916,0.0,0.0,0.0,-10.48513,12.83425,-8.30789,9.96,-2.56,-1.7,2.0
1758090029.49722,1758090029.50916,0.0,0.0,0.0,0.57296,14.49583,-9.62569,10.33,-2.55,-1.56,2.0
1758090029.51233,1758090029.51916,0.0,0.0,0.0,8.02141,13.5791,-10.48513,10.44,-2.19,-1.79,2.0
1758090029.51674,1758090029.52916,0.0,0.0,0.0,14.43854,10.19865,-11.57375,10.44,-2.19,-1.79,2.0
1758090029.53257,1758090029.53916,0.0,0.0,0.0,20.3973,5.78687,-12.54778,10.32,-1.95,-2.25,2.0
1758090029.5367,1758090029.54916,0.0,0.0,0.0,28.01764,1.03132,-13.86558,10.32,-1.95,-2.25,2.0
1758090029.55238,1758090029.55916,0.0,0.0,0.0,32.25753,-1.77617,-14.78231,10.3,-1.92,-2.33,2.0
1758090029.55626,1758090029.56916,0.0,0.0,0.0,35.75257,-6.18794,-15.92823,10.3,-1.92,-2.33,2.0
1758090029.57161,1758090029.57916,0.0,0.0,0.0,39.76327,-12.2613,-17.6471,9.78,-1.84,-1.95,2.0
1758090029.57252,1758090029.58916,0.0,0.0,0.0,41.08107,-27.67386,-18.56383,9.21,-1.77,-0.24,2.0
1758090029.59182,1758090029.59916,0.0,0.0,0.0,40.85189,-47.67009,-18.22006,9.21,-1.77,-0.24,2.0
1758090029.59277,1758090029.60916,0.0,0.0,0.0,39.24761,-74.08345,-15.35527,9.58,-0.91,3.19,2.0
1758090029.60992,1758090029.61916,0.0,0.0,0.0,31.85646,-98.83522,-8.02141,9.58,-0.91,3.19,2.0
1758090029.62525,1758090029.62916,0.0,0.0,0.0,24.63719,-91.21489,-1.08862,13.88,0.95,4.69,2.0
1758090029.63216,1758090029.63916,0.0,0.0,0.0,18.50654,-65.83286,6.41713,13.88,0.95,4.69,2.0
1758090029.63357,1758090029.64916,0.0,0.0,0.0,12.89155,-43.37291,11.17268,17.18,2.34,2.29,2.0
1758090029.6516,1758090029.65916,0.0,0.0,0.0,10.08406,-26.75713,14.03747,12.04,2.34,2.36,2.0
1758090029.65254,1758090029.66916,0.0,0.0,0.0,9.39651,-41.13837,13.34992,12.04,1.8,2.36,2.0
1758090029.67225,1758090029.67916,0.0,0.0,0.0,14.32395,-64.91612,14.72501,7.45,0.92,2.83,2.0
1758090029.67321,1758090029.68916,0.0,0.0,0.0,20.97026,-69.84356,14.03747,7.45,0.92,2.83,2.0
1758090029.68917,1758090029.69916,0.0,0.0,0.0,33.00237,-56.03527,10.8289,11.94,-0.16,1.82,2.0
1758090029.70569,1758090029.70916,0.0,0.0,0.0,39.82057,-40.45082,7.39116,11.94,-0.16,1.82,2.0
1758090029.70691,1758090029.71916,0.0,0.0,0.0,44.748,-28.24682,3.95341,14.22,-0.51,1.28,2.0
1758090029.74629,1758090029.72916,0.0,0.0,0.0,47.26902,-19.59516,1.83346,14.22,-0.51,1.28,2.0
1758090029.75299,1758090029.73916,0.0,0.0,0.0,47.49821,-5.84417,-1.14592,11.56,0.19,1.03,2.0
1758090029.75691,1758090029.74916,0.0,0.0,0.0,46.06581,5.15662,-3.32316,10.31,1.32,0.43,2.0
1758090029.7621,1758090029.75916,0.0,0.0,0.0,43.25832,14.78231,-5.4431,10.31,1.32,0.43,2.0
1758090029.76597,1758090029.76916,0.0,0.0,0.0,39.76327,23.0329,-8.76626,9.62,2.16,0.41,2.0
1758090029.76714,1758090029.77916,0.0,0.0,0.0,33.80451,33.23156,-11.28727,9.62,2.16,0.41,2.0
1758090029.78241,1758090029.78916,0.0,0.0,0.0,30.30947,40.39353,-13.69369,9.22,2.43,0.13,2.0
1758090029.79155,1758090029.79916,0.0,0.0,0.0,27.67386,47.15443,-15.29797,9.22,2.43,0.13,2.0
1758090029.8064,1758090029.80916,0.0,0.0,0.0,25.15285,55.23313,-16.50119,9.05,2.24,0.06,2.0
1758090029.81165,1758090029.81916,0.0,0.0,0.0,24.17882,58.09792,-16.50119,8.45,1.7,0.03,2.0
1758090029.87629,1758090029.82916,0.0,0.0,0.0,23.31938,59.75951,-15.24068,8.45,1.7,0.03,2.0
1758090029.88549,1758090029.83916,0.0,0.0,0.0,22.51724,62.5097,-13.5791,8.41,1.25,0.02,2.0
1758090029.886,1758090029.84916,0.0,0.0,0.0,21.31403,64.28587,-10.08406,8.41,1.25,0.02,2.0
1758090029.89208,1758090029.85916,0.0,0.0,0.0,20.05352,63.54102,-7.44845,8.69,0.91,0.27,2.0
1758090029.89271,1758090029.86916,0.0,0.0,0.0,18.79302,60.96271,-4.46907,8.69,0.91,0.27,2.0
1758090029.89722,1758090029.87916,0.0,0.0,0.0,17.6471,59.12925,-1.3751,8.77,0.74,0.42,2.0
1758090029.89772,1758090029.88916,0.0,0.0,0.0,16.21471,55.92068,2.40642,8.99,0.73,0.3,2.0
1758090029.89853,1758090029.89916,0.0,0.0,0.0,15.64175,53.34238,4.29718,8.99,0.73,0.3,2.0
1758090029.90361,1758090029.90916,0.0,0.0,0.0,15.35527,51.45161,6.07335,9.01,0.83,0.18,2.0
1758090029.90524,1758090029.91916,0.0,0.0,0.0,15.46986,48.01387,7.79223,9.01,0.83,0.18,2.0
1758090029.97235,1758090029.92916,0.0,0.0,0.0,15.35527,40.50812,9.96947,8.74,0.9,0.04,2.0
1758090029.98159,1758090029.93916,0.0,0.0,0.0,14.72501,36.15364,10.71431,8.74,0.9,0.04,2.0
1758090029.98212,1758090029.94916,0.0,0.0,0.0,13.75099,30.53865,11.11538,8.67,0.9,-0.06,2.0
1758090029.9874,1758090029.95916,0.0,0.0,0.0,12.54778,24.5226,11.22997,8.67,0.9,-0.06,2.0
1758090029.99204,1758090029.96916,0.0,0.0,0.0,10.31324,15.29797,10.31324,8.49,0.88,-0.22,2.0
1758090029.99557,1758090029.97916,0.0,0.0,0.0,8.25059,10.65701,9.28192,8.51,0.92,-0.39,2.0
1758090029.99696,1758090029.98916,0.0,0.0,0.0,6.24524,5.61499,8.59437,8.51,0.92,-0.39,2.0
1758090030.00178,1758090029.99916,0.0,0.0,0.0,2.6929,-2.46372,7.16197,8.39,1.02,-0.49,2.0
1758090030.00514,1758090030.00916,0.0,0.0,0.0,0.68755,-7.39116,6.58902,8.39,1.02,-0.49,2.0
1758090030.0058,1758090030.01916,0.0,0.0,0.0,-1.3178,-10.71431,6.53172,8.45,1.11,-0.54,2.0
1758090030.02137,1758090030.02916,0.0,0.0,0.0,-3.32316,-12.60507,6.7609,8.45,1.11,-0.54,2.0
1758090030.04359,1758090030.03916,0.0,0.0,0.0,-6.41713,-13.40721,7.04738,8.98,1.13,-0.41,2.0
1758090030.04738,1758090030.04916,0.0,0.0,0.0,-8.47978,-13.40721,7.33386,9.57,1.14,-0.25,2.0
1758090030.05267,1758090030.05916,0.0,0.0,0.0,-11.00079,-13.46451,7.10468,9.57,1.14,-0.25,2.0
1758090030.05456,1758090030.06916,0.0,0.0,0.0,-13.5791,-13.12073,6.58902,9.92,1.3,-0.34,2.0
1758090030.11941,1758090030.07916,0.0,0.0,0.0,-17.6471,-12.71966,5.55769,9.92,1.3,-0.34,2.0
1758090030.12404,1758090030.08916,0.0,0.0,0.0,-20.11082,-13.34992,4.69825,10.05,1.52,-0.63,2.0
1758090030.12596,1758090030.09916,0.0,0.0,0.0,-22.28806,-15.64175,3.66693,10.05,1.52,-0.63,2.0
1758090030.12722,1758090030.10916,0.0,0.0,0.0,-24.29341,-19.82434,3.32316,9.72,1.66,-0.9,2.0
1758090030.1321,1758090030.11916,0.0,0.0,0.0,-27.04361,-23.20479,2.97938,9.78,1.67,-1.26,2.0
1758090030.13703,1758090030.12916,0.0,0.0,0.0,-28.30412,-23.54857,2.7502,9.78,1.67,-1.26,2.0
1758090030.14272,1758090030.13916,0.0,0.0,0.0,-29.39274,-23.72045,3.26586,10.4,1.59,-1.48,2.0
1758090030.14414,1758090030.14916,0.0,0.0,0.0,-30.65324,-21.08485,3.55234,10.4,1.59,-1.48,2.0
1758090030.15224,1758090030.15916,0.0,0.0,0.0,-31.16891,-9.91217,4.69825,11.67,1.52,-1.42,2.0
1758090030.15779,1758090030.16916,0.0,0.0,0.0,-30.99702,1.20321,6.13065,11.67,1.52,-1.42,2.0
1758090030.17741,1758090030.17916,0.0,0.0,0.0,-30.93972,8.36518,7.21927,12.91,1.49,-1.39,2.0
1758090030.18246,1758090030.18916,0.0,0.0,0.0,-30.53865,0.74485,6.7609,12.91,1.49,-1.39,2.0
