timeStamp,timeStampAlign,roll,pitch,yaw,gyro_x,gyro_y,gyro_z,acc_x,acc_y,acc_z,flag_num
1758075507.31349,1758075507.28491,0.0,0.0,0.0,3.60963,7.33386,-1.60428,9.24,-0.89,-0.98,2.0
1758075507.31652,1758075507.29491,0.0,0.0,0.0,5.21392,11.22997,-1.43239,9.84,-0.83,-0.88,2.0
1758075507.31952,1758075507.30491,0.0,0.0,0.0,7.50575,15.29797,-1.3178,9.84,-0.83,-0.88,2.0
1758075507.33794,1758075507.31491,0.0,0.0,0.0,10.54242,17.76169,-0.22918,10.31,-0.78,-0.53,2.0
1758075507.33914,1758075507.32491,0.0,0.0,0.0,16.67307,13.40721,1.20321,10.09,-0.99,-0.58,2.0
1758075507.35599,1758075507.33491,0.0,0.0,0.0,21.94428,6.13065,3.55234,10.09,-0.99,-0.58,2.0
1758075507.37225,1758075507.34491,0.0,0.0,0.0,27.61657,-1.14592,6.41713,9.77,-1.53,-0.76,2.0
1758075507.3751,1758075507.35491,0.0,0.0,0.0,36.15364,-11.57375,11.74564,9.77,-1.53,-0.76,2.0
1758075507.38997,1758075507.36491,0.0,0.0,0.0,42.05511,-19.53786,15.64175,10.18,-2.27,-0.67,2.0
1758075507.39115,1758075507.37491,0.0,0.0,0.0,47.89928,-27.38738,19.59516,10.18,-2.27,-0.67,2.0
1758075507.40635,1758075507.38491,0.0,0.0,0.0,53.17049,-33.46074,22.40265,10.41,-2.81,-0.88,2.0
1758075507.42195,1758075507.39491,0.0,0.0,0.0,59.87409,-42.39888,24.75178,10.41,-2.81,-1.47,2.0
1758075507.42375,1758075507.40491,0.0,0.0,0.0,64.51505,-44.17505,24.23611,10.34,-2.8,-1.47,2.0
1758075507.438,1758075507.41491,0.0,0.0,0.0,67.43713,-38.44547,20.97026,10.91,-2.39,-2.03,2.0
1758075507.43919,1758075507.42491,0.0,0.0,0.0,70.81759,-29.39274,18.22006,10.91,-2.39,-2.03,2.0
1758075507.4553,1758075507.43491,0.0,0.0,0.0,73.79697,-17.6471,12.204,11.29,-2.02,-2.23,2.0
1758075507.47092,1758075507.44491,0.0,0.0,0.0,73.73967,-6.7609,9.28192,11.29,-2.02,-2.23,2.0
1758075507.47215,1758075507.45491,0.0,0.0,0.0,71.10406,4.18259,5.78687,11.71,-1.79,-1.39,2.0
1758075507.48725,1758075507.46491,0.0,0.0,0.0,66.11933,9.85487,4.69825,11.71,-1.79,-1.39,2.0
1758075507.50299,1758075507.47491,0.0,0.0,0.0,56.26446,-25.49662,6.35983,12.11,-1.49,1.23,2.0
1758075507.50422,1758075507.48491,0.0,0.0,0.0,50.2484,-70.24463,11.91752,10.26,0.45,2.61,2.0
1758075507.51902,1758075507.49491,0.0,0.0,0.0,45.77933,-117.85743,27.61657,10.26,0.45,2.61,2.0
1758075507.52025,1758075507.50491,0.0,0.0,0.0,40.50812,-118.77416,40.39353,15.21,3.01,1.17,2.0
1758075507.53501,1758075507.51491,0.0,0.0,0.0,33.23156,-88.00632,43.20102,15.21,3.01,1.17,2.0
1758075507.55129,1758075507.52491,0.0,0.0,0.0,29.56462,-79.41196,38.1017,16.11,3.27,-1.27,2.0
1758075507.55226,1758075507.53491,0.0,0.0,0.0,25.26744,-77.86497,32.20023,16.11,3.27,-1.27,2.0
1758075507.56735,1758075507.54491,0.0,0.0,0.0,19.82434,-71.84892,18.33465,9.99,1.06,0.82,2.0
1758075507.58304,1758075507.55491,0.0,0.0,0.0,18.79302,-65.48907,8.70896,7.22,-0.17,0.99,2.0
1758075507.58585,1758075507.56491,0.0,0.0,0.0,19.88164,-56.952,-1.43239,7.22,-0.17,0.99,2.0
1758075507.60133,1758075507.57491,0.0,0.0,0.0,24.29341,-49.90463,-9.62569,7.73,-0.57,3.59,2.0
1758075507.60256,1758075507.58491,0.0,0.0,0.0,37.29956,-41.13837,-16.67307,7.73,-0.57,3.59,2.0
1758075507.61796,1758075507.59491,0.0,0.0,0.0,49.27437,-27.73116,-17.76169,9.0,-1.18,2.89,2.0
1758075507.61968,1758075507.60491,0.0,0.0,0.0,65.03072,-16.10011,-14.20935,9.0,-1.18,2.89,2.0
1758075507.63549,1758075507.61491,0.0,0.0,0.0,79.52654,-6.70361,-8.36518,10.39,-2.37,1.09,2.0
1758075507.65141,1758075507.62491,0.0,0.0,0.0,91.55866,15.58445,0.0573,11.79,-2.37,-0.39,2.0
1758075507.6526,1758075507.63491,0.0,0.0,0.0,94.30885,32.88778,3.32316,11.79,-1.96,-0.39,2.0
1758075507.66821,1758075507.64491,0.0,0.0,0.0,93.04835,48.75871,5.55769,13.21,0.11,-0.95,2.0
1758075507.66918,1758075507.65491,0.0,0.0,0.0,87.71984,65.83286,7.67763,13.21,0.11,-0.95,2.0
1758075507.6852,1758075507.66491,0.0,0.0,0.0,77.29202,79.64114,8.36518,12.49,1.72,-1.36,2.0
1758075507.70123,1758075507.67491,0.0,0.0,0.0,69.90086,81.5892,7.50575,12.49,1.72,-1.36,2.0
1758075507.70241,1758075507.68491,0.0,0.0,0.0,63.54102,84.85506,6.18794,10.22,2.49,-1.12,2.0
1758075507.71748,1758075507.69491,0.0,0.0,0.0,57.81144,85.94368,5.09932,10.22,2.49,-1.12,2.0
1758075507.73359,1758075507.70491,0.0,0.0,0.0,50.64947,85.48531,2.6929,9.1,2.39,-0.66,2.0
1758075507.73488,1758075507.71491,0.0,0.0,0.0,46.63877,84.51128,1.71887,8.02,1.97,-0.59,2.0
1758075507.74926,1758075507.72491,0.0,0.0,0.0,43.25832,82.62051,1.60428,8.02,1.97,-0.59,2.0
1758075507.75069,1758075507.73491,0.0,0.0,0.0,39.76327,78.38063,1.83346,7.4,1.52,-0.16,2.0
1758075507.76546,1758075507.74491,0.0,0.0,0.0,33.80451,68.75494,1.48969,7.4,1.52,-0.16,2.0
1758075507.78129,1758075507.75491,0.0,0.0,0.0,29.27814,62.22322,1.3178,7.33,1.28,0.07,2.0
1758075507.78285,1758075507.76491,0.0,0.0,0.0,24.35071,56.49364,0.68755,7.33,1.28,0.07,2.0
1758075507.79739,1758075507.77491,0.0,0.0,0.0,16.67307,50.59217,-1.08862,8.07,1.17,0.34,2.0
1758075507.81359,1758075507.78491,0.0,0.0,0.0,11.57375,46.52417,-2.57831,9.03,1.21,0.66,2.0
1758075507.8148,1758075507.79491,0.0,0.0,0.0,6.35983,41.42485,-3.60963,9.03,1.21,0.66,2.0
1758075507.82955,1758075507.80491,0.0,0.0,0.0,1.14592,35.98175,-4.46907,9.27,1.44,0.62,2.0
1758075507.83052,1758075507.81491,0.0,0.0,0.0,-5.50039,27.04361,-4.1253,9.27,1.44,0.62,2.0
1758075507.84566,1758075507.82491,0.0,0.0,0.0,-9.22462,20.62648,-3.20856,9.24,1.66,0.51,2.0
1758075507.86163,1758075507.83491,0.0,0.0,0.0,-12.204,14.09476,-1.77617,9.24,1.66,0.51,2.0
1758075507.86279,1758075507.84491,0.0,0.0,0.0,-14.43854,8.47978,-0.11459,8.98,1.61,0.42,2.0
1758075507.87763,1758075507.85491,0.0,0.0,0.0,-16.67307,2.29183,2.11994,8.96,1.18,0.28,2.0
1758075507.89365,1758075507.86491,0.0,0.0,0.0,-17.99088,0.34377,2.7502,8.96,1.18,0.28,2.0
1758075507.89461,1758075507.87491,0.0,0.0,0.0,-19.19409,0.0573,3.20856,9.22,0.66,-0.16,2.0
1758075507.90957,1758075507.88491,0.0,0.0,0.0,-19.99623,0.51566,3.32316,9.22,0.66,-0.16,2.0
1758075507.91127,1758075507.89491,0.0,0.0,0.0,-21.02755,0.74485,3.55234,9.59,0.33,-0.43,2.0
1758075507.92565,1758075507.90491,0.0,0.0,0.0,-21.7151,0.22918,3.66693,9.59,0.33,-0.43,2.0
1758075507.94138,1758075507.91491,0.0,0.0,0.0,-23.26209,-2.97938,3.03668,10.03,0.25,-0.54,2.0
1758075507.94337,1758075507.92491,0.0,0.0,0.0,-25.72581,-10.08406,2.00535,10.03,0.25,-0.54,2.0
1758075507.95874,1758075507.93491,0.0,0.0,0.0,-31.11161,-19.76705,0.74485,10.09,0.72,-0.97,2.0
1758075507.95962,1758075507.94491,0.0,0.0,0.0,-35.52338,-22.74642,-0.40107,10.63,1.34,-0.75,2.0
1758075507.97542,1758075507.95491,0.0,0.0,0.0,-40.62271,-24.23611,-1.94806,10.63,1.34,-0.75,2.0
1758075507.99137,1758075507.96491,0.0,0.0,0.0,-47.26902,-25.26744,-4.64096,10.74,1.67,-0.77,2.0
1758075507.99418,1758075507.97491,0.0,0.0,0.0,-51.39432,-30.19488,-6.24524,10.74,1.67,-0.77,2.0
1758075508.00945,1758075507.98491,0.0,0.0,0.0,-54.88936,-36.6693,-6.87549,10.05,1.86,-0.85,2.0
1758075508.01103,1758075507.99491,0.0,0.0,0.0,-57.75415,-42.28429,-6.70361,10.05,1.86,-0.85,2.0
1758075508.02546,1758075508.00491,0.0,0.0,0.0,-59.98868,-46.06581,-5.09932,9.6,1.66,-1.37,2.0
1758075508.04345,1758075508.01491,0.0,0.0,0.0,-61.36378,-46.63877,-3.09397,9.82,1.27,-1.67,2.0
1758075508.04466,1758075508.02491,0.0,0.0,0.0,-62.56699,-48.58683,-0.80214,9.82,1.27,-1.67,2.0
1758075508.06247,1758075508.03491,0.0,0.0,0.0,-62.91077,-54.3737,1.3178,9.45,1.13,-0.9,2.0
1758075508.06395,1758075508.04491,0.0,0.0,0.0,-59.70221,-67.55173,2.34913,9.45,1.13,-0.9,2.0
1758075508.08053,1758075508.05491,0.0,0.0,0.0,-55.23313,-60.27517,-0.80214,11.22,0.83,1.16,2.0
1758075508.08174,1758075508.06491,0.0,0.0,0.0,-50.363,-68.06739,-7.33386,11.22,0.83,1.16,2.0
1758075508.09744,1758075508.07491,0.0,0.0,0.0,-46.86795,-86.74582,-16.90226,13.96,-0.36,2.89,2.0
1758075508.10006,1758075508.08491,0.0,0.0,0.0,-41.59674,-105.36694,-37.75792,14.6,-1.06,1.44,2.0
1758075508.1176,1758075508.09491,0.0,0.0,0.0,-35.2369,-97.7466,-44.86259,14.6,-1.06,1.44,2.0
1758075508.13358,1758075508.10491,0.0,0.0,0.0,-29.8511,-92.76187,-45.43555,14.08,-2.17,0.36,2.0
1758075508.13478,1758075508.11491,0.0,0.0,0.0,-26.47065,-92.81918,-41.48215,14.08,-2.17,0.36,2.0
1758075508.15038,1758075508.12491,0.0,0.0,0.0,-23.49127,-89.6106,-32.25753,9.69,-1.94,1.35,2.0
1758075508.15181,1758075508.13491,0.0,0.0,0.0,-23.37668,-81.93298,-23.94964,9.69,-1.94,1.35,2.0
1758075508.16675,1758075508.14491,0.0,0.0,0.0,-24.92367,-73.73967,-15.64175,8.95,-1.21,2.24,2.0
1758075508.18393,1758075508.15491,0.0,0.0,0.0,-27.73116,-63.8275,-4.35448,8.95,-1.21,2.24,2.0
1758075508.18523,1758075508.16491,0.0,0.0,0.0,-34.72124,-46.81066,1.77617,8.44,-0.43,2.39,2.0
1758075508.19988,1758075508.17491,0.0,0.0,0.0,-39.3622,-33.86181,6.24524,8.69,0.1,0.74,2.0
1758075508.20161,1758075508.18491,0.0,0.0,0.0,-42.85724,-18.62113,9.22462,8.69,0.1,0.74,2.0
1758075508.21684,1758075508.19491,0.0,0.0,0.0,-45.89392,3.89611,10.65701,10.45,0.0,-0.47,2.0
1758075508.23348,1758075508.20491,0.0,0.0,0.0,-46.35228,18.9649,10.25595,10.45,0.0,-0.47,2.0
1758075508.23464,1758075508.21491,0.0,0.0,0.0,-45.49285,33.46074,8.99544,12.1,-0.76,-1.08,2.0
1758075508.2517,1758075508.22491,0.0,0.0,0.0,-43.54479,47.72739,7.39116,12.1,-0.76,-1.08,2.0
1758075508.25307,1758075508.23491,0.0,0.0,0.0,-38.73195,65.83286,5.09932,12.31,-1.75,-1.46,2.0
1758075508.26793,1758075508.24491,0.0,0.0,0.0,-34.95043,73.51049,3.66693,11.04,-2.35,-0.97,2.0
1758075508.28394,1758075508.25491,0.0,0.0,0.0,-30.93972,74.31263,2.57831,11.04,-2.35,-0.97,2.0
1758075508.28608,1758075508.26491,0.0,0.0,0.0,-27.38738,70.93218,1.03132,9.02,-2.49,-0.2,2.0
1758075508.30159,1758075508.27491,0.0,0.0,0.0,-22.34536,63.94209,-1.60428,9.02,-2.49,-0.2,2.0
1758075508.30271,1758075508.28491,0.0,0.0,0.0,-19.19409,59.70221,-3.26586,8.57,-2.49,-0.23,2.0
1758075508.3189,1758075508.29491,0.0,0.0,0.0,-16.38659,53.34238,-4.18259,8.57,-2.49,-0.23,2.0
1758075508.32165,1758075508.30491,0.0,0.0,0.0,-13.75099,46.1231,-4.58366,8.43,-2.15,-0.33,2.0
1758075508.33703,1758075508.31491,0.0,0.0,0.0,-10.65701,37.12767,-3.32316,8.56,-1.5,-0.62,2.0
1758075508.35379,1758075508.32491,0.0,0.0,0.0,-9.4538,32.77319,-2.11994,8.56,-1.5,-0.62,2.0
1758075508.35476,1758075508.33491,0.0,0.0,0.0,-8.59437,28.93437,-0.17189,9.02,-0.66,-0.69,2.0
1758075508.36989,1758075508.34491,0.0,0.0,0.0,-7.39116,26.24147,2.29183,9.02,-0.66,-0.69,2.0
1758075508.37173,1758075508.35491,0.0,0.0,0.0,-5.90147,19.82434,6.7609,9.17,-0.05,-0.61,2.0
1758075508.38863,1758075508.36491,0.0,0.0,0.0,-4.98473,15.24068,9.85487,9.17,-0.05,-0.61,2.0
1758075508.40406,1758075508.37491,0.0,0.0,0.0,-4.18259,10.54242,12.2613,9.07,0.24,-0.74,2.0
1758075508.40596,1758075508.38491,0.0,0.0,0.0,-3.26586,7.33386,13.23533,9.07,0.24,-0.74,2.0
1758075508.42236,1758075508.39491,0.0,0.0,0.0,-2.97938,6.8182,12.54778,9.3,0.19,-0.95,2.0
1758075508.42356,1758075508.40491,0.0,0.0,0.0,-2.7502,8.47978,10.94349,9.83,-0.09,-1.0,2.0
1758075508.43903,1758075508.41491,0.0,0.0,0.0,-2.86479,8.65166,8.76626,9.83,-0.09,-1.0,2.0
1758075508.44187,1758075508.42491,0.0,0.0,0.0,-3.55234,7.16197,4.23989,9.58,-0.38,-1.19,2.0
1758075508.45794,1758075508.43491,0.0,0.0,0.0,-4.23989,7.04738,1.03132,9.58,-0.38,-1.19,2.0
1758075508.47392,1758075508.44491,0.0,0.0,0.0,-4.58366,7.79223,-1.66158,9.55,-0.54,-1.42,2.0
1758075508.47928,1758075508.45491,0.0,0.0,0.0,-4.69825,10.08406,-3.89611,9.55,-0.54,-1.42,2.0
1758075508.49392,1758075508.46491,0.0,0.0,0.0,-4.18259,18.27736,-6.99009,9.79,-0.67,-1.38,2.0
1758075508.49503,1758075508.47491,0.0,0.0,0.0,-3.09397,25.72581,-8.36518,10.42,-0.86,-1.04,2.0
1758075508.50986,1758075508.48491,0.0,0.0,0.0,-0.85944,30.82513,-8.47978,10.42,-0.86,-1.04,2.0
1758075508.51106,1758075508.49491,0.0,0.0,0.0,2.23454,31.2262,-7.67763,10.26,-1.13,-0.75,2.0
1758075508.52593,1758075508.50491,0.0,0.0,0.0,8.65166,25.61122,-4.52637,10.26,-1.13,-0.75,2.0
1758075508.54191,1758075508.51491,0.0,0.0,0.0,14.15206,20.22541,-0.97403,9.96,-1.64,-0.73,2.0
1758075508.54348,1758075508.52491,0.0,0.0,0.0,20.3973,14.09476,2.63561,9.96,-1.64,-0.73,2.0
1758075508.55792,1758075508.53491,0.0,0.0,0.0,27.10091,7.04738,6.8182,9.97,-2.17,-0.62,2.0
1758075508.57387,1758075508.54491,0.0,0.0,0.0,36.03905,-5.50039,12.89155,9.64,-2.53,-0.5,2.0
1758075508.57699,1758075508.55491,0.0,0.0,0.0,41.25296,-19.25138,17.18874,9.64,-2.53,-0.5,2.0
1758075508.59443,1758075508.56491,0.0,0.0,0.0,44.748,-32.77319,19.53786,8.64,-2.54,-0.88,2.0
1758075508.59705,1758075508.57491,0.0,0.0,0.0,47.67009,-37.12767,20.3973,8.64,-2.54,-0.88,2.0
1758075508.61439,1758075508.58491,0.0,0.0,0.0,53.91533,-18.44924,21.6578,10.41,-2.32,-1.15,2.0
1758075508.61519,1758075508.59491,0.0,0.0,0.0,55.6915,-0.51566,21.37133,10.41,-2.32,-1.15,2.0
1758075508.63029,1758075508.60491,0.0,0.0,0.0,55.7488,14.9542,18.85031,11.89,-1.81,-0.51,2.0
1758075508.63166,1758075508.61491,0.0,0.0,0.0,55.92068,20.85567,14.09476,11.89,-1.81,-0.51,2.0
1758075508.64595,1758075508.62491,0.0,0.0,0.0,57.12389,-3.09397,11.22997,10.49,-1.27,-0.46,2.0
1758075508.66197,1758075508.63491,0.0,0.0,0.0,56.55093,-22.34536,7.33386,7.46,-1.36,-1.74,2.0
1758075508.66322,1758075508.64491,0.0,0.0,0.0,58.3844,-37.01308,10.37054,7.46,-1.36,-1.74,2.0
1758075508.67801,1758075508.65491,0.0,0.0,0.0,58.3844,-33.40344,11.51645,10.53,-1.92,-1.52,2.0
1758075508.694,1758075508.66491,0.0,0.0,0.0,58.90006,-21.37133,12.14671,10.53,-1.92,-1.52,2.0
1758075508.69688,1758075508.67491,0.0,0.0,0.0,58.04062,-13.80828,10.94349,12.19,-1.88,-1.84,2.0
1758075508.71401,1758075508.68491,0.0,0.0,0.0,56.20716,-9.91217,8.76626,12.19,-1.88,-1.84,2.0
1758075508.71525,1758075508.69491,0.0,0.0,0.0,50.99325,-4.29718,3.83882,10.97,-1.42,-1.15,2.0
1758075508.73325,1758075508.70491,0.0,0.0,0.0,47.15443,-1.03132,-0.11459,10.21,-0.8,-2.21,2.0
1758075508.73425,1758075508.71491,0.0,0.0,0.0,43.77398,2.06265,-3.83882,10.21,-0.8,-2.21,2.0
1758075508.7493,1758075508.72491,0.0,0.0,0.0,40.27893,4.69825,-7.10468,9.73,-0.28,-1.78,2.0
1758075508.75025,1758075508.73491,0.0,0.0,0.0,34.89313,7.10468,-10.37054,9.73,-0.28,-1.78,2.0
1758075508.76714,1758075508.74491,0.0,0.0,0.0,30.65324,4.29718,-11.22997,9.89,-0.02,-0.19,2.0
1758075508.78336,1758075508.75491,0.0,0.0,0.0,26.01229,-3.26586,-10.59972,9.89,-0.02,-0.19,2.0
1758075508.78427,1758075508.76491,0.0,0.0,0.0,21.7151,-17.18874,-7.67763,9.95,0.74,0.0,2.0
1758075508.79934,1758075508.77491,0.0,0.0,0.0,16.73037,-40.10705,-0.17189,10.29,1.14,0.55,2.0
1758075508.80023,1758075508.78491,0.0,0.0,0.0,14.32395,-47.26902,5.50039,10.29,1.14,0.55,2.0
1758075508.81795,1758075508.79491,0.0,0.0,0.0,11.34457,-47.15443,10.8862,12.64,0.88,1.24,2.0
1758075508.83411,1758075508.80491,0.0,0.0,0.0,8.02141,-44.28964,17.13144,12.64,0.88,1.24,2.0
1758075508.83573,1758075508.81491,0.0,0.0,0.0,9.11003,-40.85189,19.25138,12.85,0.31,1.3,2.0
1758075508.85039,1758075508.82491,0.0,0.0,0.0,15.06879,-40.33623,20.68378,12.85,0.31,1.3,2.0
1758075508.85159,1758075508.83491,0.0,0.0,0.0,20.62648,-43.25832,19.48057,10.08,-1.44,1.68,2.0
1758075508.86616,1758075508.84491,0.0,0.0,0.0,25.8404,-39.19032,10.8289,10.08,-1.44,1.68,2.0
1758075508.88342,1758075508.85491,0.0,0.0,0.0,31.28349,-28.41871,4.46907,8.49,-1.83,1.47,2.0
1758075508.88434,1758075508.86491,0.0,0.0,0.0,38.21629,-16.55848,-1.3751,9.3,-1.61,2.09,2.0
1758075508.89941,1758075508.87491,0.0,0.0,0.0,46.00851,-6.7609,-5.32851,9.3,-1.61,2.09,2.0
1758075508.90037,1758075508.88491,0.0,0.0,0.0,58.15522,6.47442,-7.21927,8.7,-1.63,1.77,2.0
1758075508.91645,1758075508.89491,0.0,0.0,0.0,65.03072,17.01685,-5.4431,8.7,-1.63,1.77,2.0
1758075508.93249,1758075508.90491,0.0,0.0,0.0,70.13004,30.36677,-2.86479,9.96,-1.67,0.53,2.0
1758075508.9334,1758075508.91491,0.0,0.0,0.0,72.07809,45.03448,-0.22918,9.96,-1.67,0.53,2.0
1758075508.94843,1758075508.92491,0.0,0.0,0.0,71.39055,65.37449,2.97938,12.25,-1.0,-0.22,2.0
1758075508.96427,1758075508.93491,0.0,0.0,0.0,68.86953,71.79161,5.78687,12.52,0.16,-0.67,2.0
1758075508.96544,1758075508.94491,0.0,0.0,0.0,65.43179,71.90621,7.73493,12.52,0.16,-0.67,2.0
1758075508.98049,1758075508.95491,0.0,0.0,0.0,62.28051,71.73432,8.30789,11.48,0.95,-0.53,2.0
1758075508.98224,1758075508.96491,0.0,0.0,0.0,57.81144,74.08345,6.58902,11.48,0.95,-0.53,2.0
1758075508.99823,1758075508.97491,0.0,0.0,0.0,55.34772,73.05212,4.1253,10.81,1.24,-0.12,2.0
1758075509.01424,1758075508.98491,0.0,0.0,0.0,52.76942,70.13004,1.20321,10.81,1.24,-0.12,2.0
1758075509.01789,1758075508.9949,0.0,0.0,0.0,49.90463,64.51505,-0.85944,9.11,1.35,0.28,2.0
1758075509.03404,1758075509.0049,0.0,0.0,0.0,45.14908,52.54023,-3.60963,7.92,1.39,0.38,2.0
1758075509.03524,1758075509.0149,0.0,0.0,0.0,40.68,43.88857,-5.15662,7.92,1.39,0.38,2.0
1758075509.05031,1758075509.0249,0.0,0.0,0.0,35.86716,36.26823,-5.61499,7.61,1.44,0.31,2.0
1758075509.0515,1758075509.0349,0.0,0.0,0.0,27.44468,26.64254,-6.07335,7.61,1.44,0.31,2.0
1758075509.06627,1758075509.0449,0.0,0.0,0.0,21.94428,21.6578,-6.18794,8.06,1.45,0.28,2.0
1758075509.08327,1758075509.0549,0.0,0.0,0.0,16.3293,17.18874,-6.70361,8.06,1.45,0.28,2.0
1758075509.08449,1758075509.0649,0.0,0.0,0.0,10.8289,14.20935,-8.02141,8.71,1.35,0.25,2.0
1758075509.09929,1758075509.0749,0.0,0.0,0.0,3.49504,12.71966,-9.62569,8.71,1.35,0.19,2.0
1758075509.10051,1758075509.0849,0.0,0.0,0.0,-0.85944,10.94349,-11.11538,9.4,1.18,0.19,2.0
1758075509.11652,1758075509.0949,0.0,0.0,0.0,-4.92744,7.67763,-12.43318,9.55,0.93,0.1,2.0
1758075509.13257,1758075509.1049,0.0,0.0,0.0,-8.88085,3.55234,-14.15206,9.55,0.93,0.1,2.0
1758075509.13356,1758075509.1149,0.0,0.0,0.0,-14.66772,0.40107,-15.92823,9.59,0.71,-0.13,2.0
1758075509.14861,1758075509.1249,0.0,0.0,0.0,-18.10547,-0.22918,-16.3293,9.59,0.71,-0.13,2.0
1758075509.16434,1758075509.1349,0.0,0.0,0.0,-21.94428,1.20321,-16.3293,10.04,0.64,-0.43,2.0
1758075509.16611,1758075509.1449,0.0,0.0,0.0,-25.72581,1.3751,-16.272,10.04,0.64,-0.43,2.0
1758075509.18264,1758075509.1549,0.0,0.0,0.0,-31.91375,-1.66158,-16.10011,9.87,0.93,-0.41,2.0
1758075509.18358,1758075509.1649,0.0,0.0,0.0,-35.40879,-4.23989,-16.55848,9.46,1.35,-0.68,2.0
1758075509.19946,1758075509.1749,0.0,0.0,0.0,-39.19032,-7.33386,-16.95955,9.46,1.35,-0.68,2.0
1758075509.20038,1758075509.1849,0.0,0.0,0.0,-42.51347,-11.86023,-17.81899,9.08,1.68,-0.98,2.0
1758075509.21648,1758075509.1949,0.0,0.0,0.0,-46.69606,-30.30947,-17.30333,9.08,1.68,-0.98,2.0
1758075509.23259,1758075509.2049,0.0,0.0,0.0,-47.38361,-41.76862,-16.55848,7.97,1.47,-1.46,2.0
1758075509.23368,1758075509.2149,0.0,0.0,0.0,-48.01387,-50.47758,-14.20935,7.97,1.47,-1.46,2.0
1758075509.24844,1758075509.2249,0.0,0.0,0.0,-46.1231,-51.22243,-7.16197,8.35,0.62,-1.5,2.0
1758075509.26435,1758075509.2349,0.0,0.0,0.0,-38.78925,-7.50575,-1.48969,12.29,-0.69,-0.5,2.0
1758075509.26503,1758075509.2449,0.0,0.0,0.0,-36.95578,-0.40107,0.0,12.29,-0.69,-0.5,2.0
1758075509.28042,1758075509.2549,0.0,0.0,0.0,-39.53409,-10.19865,-4.81285,10.56,-0.64,-0.98,2.0
1758075509.28167,1758075509.2649,0.0,0.0,0.0,-39.76327,-28.41871,-10.37054,10.56,-0.64,-0.98,2.0
1758075509.29738,1758075509.2749,0.0,0.0,0.0,-40.50812,-29.33544,-15.58445,10.2,0.9,-1.8,2.0
1758075509.31374,1758075509.2849,0.0,0.0,0.0,-40.10705,-20.11082,-14.83961,10.2,0.9,-1.8,2.0
1758075509.31412,1758075509.2949,0.0,0.0,0.0,-40.16434,-7.62034,-13.80828,12.1,1.34,-2.01,2.0
1758075509.32975,1758075509.3049,0.0,0.0,0.0,-39.19032,2.06265,-8.70896,11.48,1.34,-0.39,2.0
1758075509.33065,1758075509.3149,0.0,0.0,0.0,-36.7266,1.20321,-5.4431,11.48,1.41,-0.39,2.0
1758075509.34578,1758075509.3249,0.0,0.0,0.0,-32.71589,-4.18259,-4.29718,11.18,1.09,1.07,2.0
1758075509.36175,1758075509.3349,0.0,0.0,0.0,-27.1582,-11.34457,-6.18794,11.18,1.09,1.07,2.0
1758075509.36268,1758075509.3449,0.0,0.0,0.0,-17.6471,-25.8404,-12.77696,12.9,-0.24,1.44,2.0
1758075509.37776,1758075509.3549,0.0,0.0,0.0,-11.34457,-33.40344,-17.93358,12.9,-0.24,1.44,2.0
1758075509.37908,1758075509.3649,0.0,0.0,0.0,-4.87014,-34.49206,-21.37133,13.72,-1.44,1.09,2.0
1758075509.39421,1758075509.3749,0.0,0.0,0.0,1.83346,-35.58068,-22.86102,13.72,-1.44,1.09,2.0
1758075509.40948,1758075509.3849,0.0,0.0,0.0,8.93814,-44.40423,-22.34536,12.78,-2.05,0.56,2.0
1758075509.41108,1758075509.3949,0.0,0.0,0.0,10.8862,-48.9306,-19.99623,10.08,-1.4,0.55,2.0
1758075509.4256,1758075509.4049,0.0,0.0,0.0,10.8862,-53.68615,-16.21471,10.08,-1.4,0.55,2.0
1758075509.44181,1758075509.4149,0.0,0.0,0.0,8.99544,-60.04598,-11.34457,8.26,0.0,1.0,2.0
1758075509.4428,1758075509.4249,0.0,0.0,0.0,3.72423,-72.47916,-3.66693,8.26,0.0,1.0,2.0
1758075509.45858,1758075509.4349,0.0,0.0,0.0,-2.06265,-77.23472,0.40107,7.36,0.96,2.44,2.0
1758075509.45958,1758075509.4449,0.0,0.0,0.0,-10.31324,-78.55252,3.26586,7.36,0.96,2.44,2.0
1758075509.47707,1758075509.4549,0.0,0.0,0.0,-26.87172,-76.83365,5.27121,8.09,1.71,3.71,2.0
1758075509.4788,1758075509.4649,0.0,0.0,0.0,-40.04975,-70.18733,5.21392,8.51,2.31,2.62,2.0
1758075509.49412,1758075509.4749,0.0,0.0,0.0,-54.02992,-59.24384,3.66693,8.51,2.31,2.62,2.0
1758075509.50984,1758075509.4849,0.0,0.0,0.0,-67.32255,-46.1804,1.3178,9.08,2.2,-0.13,2.0
1758075509.51194,1758075509.4949,0.0,0.0,0.0,-84.1675,-23.0329,-3.38045,9.08,2.2,-0.13,2.0
1758075509.52693,1758075509.5049,0.0,0.0,0.0,-92.13161,-6.07335,-6.70361,10.75,1.35,-1.23,2.0
1758075509.54289,1758075509.5149,0.0,0.0,0.0,-96.60069,12.37589,-8.88085,10.75,1.35,-1.23,2.0
1758075509.54409,1758075509.5249,0.0,0.0,0.0,-98.03308,30.76784,-10.54242,13.13,-0.13,-1.43,2.0
1758075509.55897,1758075509.5349,0.0,0.0,0.0,-95.1683,53.51426,-11.17268,13.52,-1.6,-1.54,2.0
1758075509.56008,1758075509.5449,0.0,0.0,0.0,-90.92841,65.03072,-10.02676,13.52,-1.6,-1.54,2.0
1758075509.57522,1758075509.5549,0.0,0.0,0.0,-86.00097,73.68237,-8.30789,12.11,-2.45,-1.1,2.0
1758075509.59156,1758075509.5649,0.0,0.0,0.0,-81.18813,80.27139,-6.41713,12.11,-2.45,-1.1,2.0
1758075509.59343,1758075509.5749,0.0,0.0,0.0,-75.05748,84.11021,-3.72423,10.87,-2.4,-0.49,2.0
1758075509.6089,1758075509.5849,0.0,0.0,0.0,-71.50513,80.67246,-2.63561,10.87,-2.4,-0.49,2.0
1758075509.60985,1758075509.5949,0.0,0.0,0.0,-68.23928,75.00018,-2.57831,9.4,-1.81,-0.19,2.0
1758075509.62518,1758075509.6049,0.0,0.0,0.0,-65.08801,70.01544,-2.57831,9.4,-1.81,-0.19,2.0
1758075509.64194,1758075509.6149,0.0,0.0,0.0,-60.04598,66.69229,-3.03668,8.93,-1.37,-0.42,2.0
1758075509.64288,1758075509.6249,0.0,0.0,0.0,-57.12389,65.66096,-2.46372,8.73,-1.06,-0.52,2.0
1758075509.65787,1758075509.6349,0.0,0.0,0.0,-53.28508,65.08801,-1.3178,8.73,-1.06,-0.52,2.0
1758075509.65918,1758075509.6449,0.0,0.0,0.0,-46.06581,62.96807,3.03668,8.26,-0.92,-0.73,2.0
1758075509.67504,1758075509.6549,0.0,0.0,0.0,-41.13837,56.26446,6.07335,8.26,-0.92,-0.73,2.0
1758075509.67945,1758075509.6649,0.0,0.0,0.0,-36.55471,50.01921,8.76626,7.96,-1.09,-0.61,2.0
1758075509.69482,1758075509.6749,0.0,0.0,0.0,-32.08564,42.74266,10.31324,7.96,-1.09,-0.61,2.0
1758075509.71077,1758075509.6849,0.0,0.0,0.0,-25.8404,30.19488,10.31324,8.0,-1.43,-0.9,2.0
1758075509.71202,1758075509.6949,0.0,0.0,0.0,-21.94428,22.63183,8.42248,8.26,-1.71,-1.15,2.0
1758075509.72907,1758075509.7049,0.0,0.0,0.0,-17.99088,19.53786,5.90147,8.26,-1.71,-1.15,2.0
1758075509.73,1758075509.7149,0.0,0.0,0.0,-14.20935,18.73572,3.09397,9.11,-1.87,-1.04,2.0
1758075509.74503,1758075509.7249,0.0,0.0,0.0,-9.28192,17.30333,-0.74485,9.11,-1.87,-1.04,2.0
1758075509.76186,1758075509.7349,0.0,0.0,0.0,-6.18794,16.21471,-2.6929,9.15,-1.8,-0.83,2.0
1758075509.76305,1758075509.7449,0.0,0.0,0.0,-3.09397,16.95955,-4.29718,9.15,-1.8,-0.83,2.0
1758075509.77799,1758075509.7549,0.0,0.0,0.0,-0.17189,19.53786,-5.32851,9.54,-1.53,-0.88,2.0
1758075509.78247,1758075509.7649,0.0,0.0,0.0,3.95341,24.29341,-5.55769,10.18,-1.31,-0.62,2.0
1758075509.79783,1758075509.7749,0.0,0.0,0.0,8.136,22.97561,-3.95341,10.18,-1.31,-0.62,2.0
1758075509.79909,1758075509.7849,0.0,0.0,0.0,12.71966,15.92823,-1.60428,9.68,-1.41,-0.64,2.0
1758075509.81608,1758075509.7949,0.0,0.0,0.0,18.10547,6.41713,1.66158,9.68,-1.41,-0.64,2.0
1758075509.83208,1758075509.8049,0.0,0.0,0.0,26.24147,-8.02141,8.42248,9.52,-1.92,-0.85,2.0
1758075509.8366,1758075509.8149,0.0,0.0,0.0,31.85646,-18.9649,13.69369,9.52,-1.92,-0.85,2.0
1758075509.83963,1758075509.8249,0.0,0.0,0.0,36.84119,-29.73651,19.25138,9.7,-2.53,-0.54,2.0
1758075509.85853,1758075509.8349,0.0,0.0,0.0,41.31026,-39.4768,24.63719,9.7,-2.53,-0.54,2.0
1758075509.85971,1758075509.8449,0.0,0.0,0.0,46.1804,-57.46767,30.48136,9.87,-2.82,-0.47,2.0
1758075509.87601,1758075509.8549,0.0,0.0,0.0,48.75871,-63.48372,31.91375,9.74,-2.66,-0.91,2.0
1758075509.89223,1758075509.8649,0.0,0.0,0.0,52.82671,-57.41038,33.17426,9.74,-2.66,-0.91,2.0
1758075509.89472,1758075509.8749,0.0,0.0,0.0,56.89471,-45.77933,31.11161,11.04,-2.19,-1.05,2.0
1758075509.90996,1758075509.8849,0.0,0.0,0.0,59.81679,-38.1017,28.07493,11.04,-2.19,-1.05,2.0
1758075509.91118,1758075509.8949,0.0,0.0,0.0,62.22322,-27.38738,23.89234,10.97,-1.8,-1.55,2.0
1758075509.92597,1758075509.9049,0.0,0.0,0.0,63.42643,-15.64175,18.56383,10.97,-1.8,-1.55,2.0
1758075509.94313,1758075509.9149,0.0,0.0,0.0,63.48372,-6.07335,10.25595,11.25,-1.41,-1.29,2.0
1758075509.94426,1758075509.9249,0.0,0.0,0.0,61.42108,-6.47442,3.89611,10.48,-1.39,0.32,2.0
1758075509.95896,1758075509.9349,0.0,0.0,0.0,60.27517,-35.63798,-1.3751,10.48,-1.39,0.32,2.0
1758075509.9602,1758075509.9449,0.0,0.0,0.0,57.86874,-72.76565,-2.86479,8.4,-0.86,1.9,2.0
1758075509.9761,1758075509.9549,0.0,0.0,0.0,53.68615,-122.21191,14.78231,8.4,-0.86,1.9,2.0
1758075509.97936,1758075509.9649,0.0,0.0,0.0,51.50891,-122.67027,27.67386,14.2,0.04,2.96,2.0
1758075509.99586,1758075509.9749,0.0,0.0,0.0,47.38361,-115.79478,36.89849,14.2,0.04,2.96,2.0
1758075510.00023,1758075509.9849,0.0,0.0,0.0,44.11775,-107.08582,43.88857,18.02,2.42,1.59,2.0
1758075510.01583,1758075509.9949,0.0,0.0,0.0,38.38818,-99.46548,47.26902,13.76,2.39,0.88,2.0
1758075510.03227,1758075510.0049,0.0,0.0,0.0,34.37747,-90.18356,43.88857,13.76,2.39,0.88,2.0
1758075510.03748,1758075510.0149,0.0,0.0,0.0,33.11696,-79.29736,36.95578,8.95,0.64,1.14,2.0
1758075510.05389,1758075510.0249,0.0,0.0,0.0,34.0337,-68.23928,28.99167,8.95,0.64,1.14,2.0
1758075510.05571,1758075510.0349,0.0,0.0,0.0,38.38818,-44.57612,14.61043,7.59,-0.08,1.93,2.0
1758075510.07193,1758075510.0449,0.0,0.0,0.0,43.54479,-29.33544,5.50039,7.59,-0.08,1.93,2.0
1758075510.07307,1758075510.0549,0.0,0.0,0.0,48.70141,-15.87093,-3.09397,7.63,-0.69,1.67,2.0
1758075510.08818,1758075510.0649,0.0,0.0,0.0,58.3844,-5.78687,-9.85487,7.63,-0.69,1.67,2.0
1758075510.08927,1758075510.0749,0.0,0.0,0.0,63.8275,13.75099,-12.60507,8.22,-1.5,0.41,2.0
1758075510.10632,1758075510.0849,0.0,0.0,0.0,67.43713,30.65324,-12.37589,11.29,-1.42,-0.39,2.0
1758075510.12311,1758075510.0949,0.0,0.0,0.0,68.35387,46.86795,-11.28727,11.29,-1.42,-0.39,2.0
1758075510.14155,1758075510.1049,0.0,0.0,0.0,64.22858,70.81759,-8.0787,13.36,0.1,-1.29,2.0
1758075510.14182,1758075510.1149,0.0,0.0,0.0,59.87409,78.55252,-4.58366,13.36,0.1,-1.29,2.0
1758075510.14201,1758075510.1249,0.0,0.0,0.0,54.3737,80.90164,-0.97403,12.76,1.94,-1.47,2.0
1758075510.15738,1758075510.1349,0.0,0.0,0.0,48.9306,81.5319,1.66158,12.76,1.94,-1.47,2.0
1758075510.1734,1758075510.1449,0.0,0.0,0.0,42.22699,82.39134,3.49504,10.98,2.2,-0.88,2.0
1758075510.17437,1758075510.1549,0.0,0.0,0.0,38.90384,81.70379,4.1253,9.32,1.56,-0.49,2.0
1758075510.18918,1758075510.1649,0.0,0.0,0.0,35.63798,79.64114,3.32316,9.32,1.56,-0.49,2.0
1758075510.19224,1758075510.1749,0.0,0.0,0.0,32.37212,76.20339,2.46372,8.11,1.23,-0.11,2.0
1758075510.20772,1758075510.1849,0.0,0.0,0.0,26.47065,69.90086,0.22918,8.11,1.23,-0.11,2.0
1758075510.22349,1758075510.1949,0.0,0.0,0.0,21.7724,63.99939,-1.94806,7.64,1.17,-0.11,2.0
1758075510.22438,1758075510.2049,0.0,0.0,0.0,16.90226,57.41038,-3.66693,7.64,1.17,-0.11,2.0
1758075510.23945,1758075510.2149,0.0,0.0,0.0,11.80293,51.27972,-5.78687,7.78,1.12,0.16,2.0
1758075510.24064,1758075510.2249,0.0,0.0,0.0,4.23989,44.28964,-8.59437,8.73,1.06,0.52,2.0
1758075510.2552,1758075510.2349,0.0,0.0,0.0,-0.80214,39.99245,-9.91217,8.73,1.06,0.52,2.0
1758075510.27153,1758075510.2449,0.0,0.0,0.0,-5.90147,34.72124,-10.8862,9.24,1.09,0.59,2.0
1758075510.27268,1758075510.2549,0.0,0.0,0.0,-10.8862,28.70519,-11.63104,9.24,1.09,0.59,2.0
1758075510.28749,1758075510.2649,0.0,0.0,0.0,-17.30333,20.74107,-11.45916,9.45,1.12,0.51,2.0
1758075510.30324,1758075510.2749,0.0,0.0,0.0,-21.02755,17.58981,-11.17268,9.45,1.12,0.51,2.0
1758075510.3044,1758075510.2849,0.0,0.0,0.0,-23.72045,15.24068,-10.65701,9.88,0.99,0.36,2.0
1758075510.31949,1758075510.2949,0.0,0.0,0.0,-26.81443,13.17803,-10.31324,9.88,0.99,0.36,2.0
1758075510.32045,1758075510.3049,0.0,0.0,0.0,-28.01764,12.204,-10.71431,9.92,0.64,0.13,2.0
1758075510.33553,1758075510.3149,0.0,0.0,0.0,-28.99167,12.77696,-11.34457,9.81,0.21,-0.07,2.0
1758075510.3515,1758075510.3249,0.0,0.0,0.0,-29.96569,13.00614,-12.77696,9.81,0.21,-0.07,2.0
1758075510.35263,1758075510.3349,0.0,0.0,0.0,-30.82513,5.21392,-14.83961,9.32,0.05,-0.27,2.0
1758075510.36729,1758075510.3449,0.0,0.0,0.0,-31.85646,-6.53172,-15.69904,9.32,0.05,-0.27,2.0
1758075510.38355,1758075510.3549,0.0,0.0,0.0,-33.40344,-13.69369,-16.50119,8.56,0.28,-0.67,2.0
1758075510.38475,1758075510.3649,0.0,0.0,0.0,-35.2942,-17.36062,-17.87628,8.56,0.28,-0.67,2.0
1758075510.3998,1758075510.3749,0.0,0.0,0.0,-33.74722,-16.10011,-17.87628,9.19,0.81,-0.72,2.0
1758075510.40053,1758075510.3849,0.0,0.0,0.0,-31.85646,-17.30333,-18.44924,9.65,0.8,-0.16,2.0
1758075510.41662,1758075510.3949,0.0,0.0,0.0,-31.91375,-22.86102,-20.45459,9.65,0.8,-0.16,2.0
1758075510.43338,1758075510.4049,0.0,0.0,0.0,-33.46074,-26.52795,-22.11617,9.81,1.25,-1.29,2.0
1758075510.43436,1758075510.4149,0.0,0.0,0.0,-36.32552,-34.09099,-22.57454,9.81,1.25,-1.29,2.0
1758075510.44934,1758075510.4249,0.0,0.0,0.0,-39.07573,-36.95578,-20.45459,10.1,1.46,-1.27,2.0
1758075510.45052,1758075510.4349,0.0,0.0,0.0,-42.22699,-44.748,-18.27736,10.1,1.46,-1.27,2.0
1758075510.46572,1758075510.4449,0.0,0.0,0.0,-45.14908,-48.64412,-14.43854,9.92,1.47,-1.23,2.0
1758075510.48144,1758075510.4549,0.0,0.0,0.0,-47.49821,-28.30412,-10.71431,11.94,1.5,-1.25,2.0
1758075510.48261,1758075510.4649,0.0,0.0,0.0,-48.8733,-12.49048,-8.65166,11.94,1.5,-1.25,2.0
1758075510.49748,1758075510.4749,0.0,0.0,0.0,-52.54023,-3.03668,-8.59437,12.11,1.55,-1.04,2.0
1758075510.51343,1758075510.4849,0.0,0.0,0.0,-53.97263,-2.29183,-5.90147,12.11,1.55,-1.04,2.0
1758075510.51463,1758075510.4949,0.0,0.0,0.0,-55.40502,-3.20856,-3.60963,10.0,1.79,-1.25,2.0
1758075510.52977,1758075510.5049,0.0,0.0,0.0,-55.6915,-1.83346,-0.45837,10.0,1.79,-1.25,2.0
1758075510.53141,1758075510.5149,0.0,0.0,0.0,-55.34772,-2.86479,1.94806,9.64,1.69,-1.0,2.0
1758075510.54831,1758075510.5249,0.0,0.0,0.0,-53.45696,-12.60507,1.66158,9.64,1.69,-1.0,2.0
1758075510.56377,1758075510.5349,0.0,0.0,0.0,-50.82136,-21.08485,-1.94806,10.0,1.17,0.4,2.0
1758075510.56469,1758075510.5449,0.0,0.0,0.0,-46.86795,-32.42941,-7.73493,12.4,0.0,1.48,2.0
1758075510.58169,1758075510.5549,0.0,0.0,0.0,-42.39888,-43.77398,-15.24068,12.4,0.0,1.48,2.0
1758075510.58236,1758075510.5649,0.0,0.0,0.0,-32.83048,-48.64412,-25.15285,14.39,-1.33,1.3,2.0
1758075510.59854,1758075510.5749,0.0,0.0,0.0,-25.38203,-50.59217,-29.27814,14.39,-1.33,1.3,2.0
1758075510.59973,1758075510.5849,0.0,0.0,0.0,-19.53786,-57.58226,-31.45539,13.99,-2.63,0.54,2.0
1758075510.61731,1758075510.5949,0.0,0.0,0.0,-15.69904,-65.37449,-30.25217,13.99,-2.63,0.54,2.0
1758075510.6335,1758075510.6049,0.0,0.0,0.0,-15.06879,-71.44785,-24.80907,9.79,-1.89,0.43,2.0
1758075510.63509,1758075510.6149,0.0,0.0,0.0,-18.10547,-73.79697,-20.16812,7.45,-0.02,1.32,2.0
1758075510.65177,1758075510.6249,0.0,0.0,0.0,-23.31938,-75.51585,-16.272,7.45,-0.02,1.32,2.0
1758075510.65355,1758075510.6349,0.0,0.0,0.0,-30.59595,-75.57314,-13.5218,7.31,1.09,3.4,2.0
1758075510.66853,1758075510.6449,0.0,0.0,0.0,-43.65939,-69.49979,-10.02676,7.31,1.09,3.4,2.0
1758075510.66981,1758075510.6549,0.0,0.0,0.0,-53.34238,-61.87944,-8.70896,7.8,1.36,2.9,2.0
1758075510.6858,1758075510.6649,0.0,0.0,0.0,-62.16592,-49.84733,-7.67763,7.8,1.36,2.9,2.0
1758075510.70279,1758075510.6749,0.0,0.0,0.0,-69.49979,-35.2942,-6.70361,8.73,1.05,0.89,2.0
1758075510.70401,1758075510.6849,0.0,0.0,0.0,-76.77635,-12.2613,-4.46907,10.48,0.04,-0.51,2.0
1758075510.71878,1758075510.6949,0.0,0.0,0.0,-78.839,3.55234,-3.26586,10.48,0.04,-0.51,2.0
1758075510.7214,1758075510.7049,0.0,0.0,0.0,-78.7244,19.99623,-2.34913,12.74,-1.13,-1.11,2.0
1758075510.73869,1758075510.7149,0.0,0.0,0.0,-75.17207,40.45082,-2.00535,12.74,-1.13,-1.11,2.0
1758075510.73983,1758075510.7249,0.0,0.0,0.0,-71.04677,51.39432,-2.29183,13.2,-1.76,-1.34,2.0
1758075510.75767,1758075510.7349,0.0,0.0,0.0,-66.69229,60.90542,-2.86479,13.2,-1.76,-1.34,2.0
1758075510.77384,1758075510.7449,0.0,0.0,0.0,-61.76485,69.27061,-3.38045,12.64,-1.84,-0.92,2.0
1758075510.77477,1758075510.7549,0.0,0.0,0.0,-54.77477,72.0208,-3.26586,12.64,-1.84,-0.92,2.0
1758075510.79365,1758075510.7649,0.0,0.0,0.0,-50.53488,70.01544,-3.09397,11.37,-1.88,-0.67,2.0
1758075510.7946,1758075510.7749,0.0,0.0,0.0,-46.2377,68.29657,-2.34913,9.98,-1.96,-0.75,2.0
1758075510.80986,1758075510.7849,0.0,0.0,0.0,-41.36755,66.46311,-1.08862,9.98,-1.96,-0.75,2.0
1758075510.81157,1758075510.7949,0.0,0.0,0.0,-33.46074,66.17663,1.03132,8.99,-1.97,-1.16,2.0
1758075510.82851,1758075510.8049,0.0,0.0,0.0,-27.73116,67.32255,2.97938,8.99,-1.97,-1.16,2.0
1758075510.84389,1758075510.8149,0.0,0.0,0.0,-21.48592,67.9528,5.32851,8.67,-1.85,-1.15,2.0
1758075510.84606,1758075510.8249,0.0,0.0,0.0,-14.72501,66.17663,8.65166,8.67,-1.85,-1.15,2.0
1758075510.86255,1758075510.8349,0.0,0.0,0.0,-5.61499,61.1346,12.54778,8.21,-1.67,-1.22,2.0
1758075510.86343,1758075510.8449,0.0,0.0,0.0,-0.17189,57.75415,14.49583,8.38,-1.36,-1.03,2.0
1758075510.87867,1758075510.8549,0.0,0.0,0.0,4.64096,52.884,15.35527,8.38,-1.36,-1.03,2.0
1758075510.88335,1758075510.8649,0.0,0.0,0.0,9.05273,46.1804,15.35527,8.36,-1.04,-1.07,2.0
1758075510.89867,1758075510.8749,0.0,0.0,0.0,14.61043,35.3515,13.12073,8.36,-1.04,-1.07,2.0
1758075510.90188,1758075510.8849,0.0,0.0,0.0,17.58981,32.08564,11.17268,8.57,-0.91,-1.04,2.0
1758075510.91847,1758075510.8949,0.0,0.0,0.0,20.05352,31.56997,8.70896,8.57,-0.91,-1.04,2.0
1758075510.92131,1758075510.9049,0.0,0.0,0.0,22.00158,31.16891,5.61499,9.35,-0.98,-0.88,2.0
1758075510.93792,1758075510.9149,0.0,0.0,0.0,25.21014,28.13223,4.87014,9.52,-1.22,-0.67,2.0
1758075510.95393,1758075510.9249,0.0,0.0,0.0,27.33009,26.52795,4.29718,9.52,-1.22,-0.67,2.0
1758075510.9562,1758075510.9349,0.0,0.0,0.0,29.73651,25.49662,4.58366,9.83,-1.52,-0.79,2.0
1758075510.97082,1758075510.9449,0.0,0.0,0.0,33.74722,20.97026,5.90147,9.83,-1.52,-0.79,2.0
1758075510.97233,1758075510.9549,0.0,0.0,0.0,36.7266,16.272,7.62034,9.78,-1.6,-0.4,2.0
1758075510.98861,1758075510.9649,0.0,0.0,0.0,40.45082,10.37054,10.08406,9.78,-1.6,-0.4,2.0
1758075511.00412,1758075510.9749,0.0,0.0,0.0,44.40423,2.97938,12.89155,9.47,-1.49,-0.24,2.0
1758075511.00592,1758075510.9849,0.0,0.0,0.0,50.13381,-9.68299,17.76169,9.47,-1.49,-0.16,2.0
1758075511.02181,1758075510.9949,0.0,0.0,0.0,53.62885,-22.00158,22.05888,9.28,-1.35,-0.16,2.0
1758075511.02295,1758075511.0049,0.0,0.0,0.0,55.7488,-38.61736,25.09555,8.68,-1.28,-0.22,2.0
1758075511.03784,1758075511.0149,0.0,0.0,0.0,58.09792,-49.50356,26.87172,8.68,-1.28,-0.22,2.0
1758075511.05381,1758075511.0249,0.0,0.0,0.0,60.33246,-38.78925,27.78845,10.4,-1.29,-0.4,2.0
1758075511.05535,1758075511.0349,0.0,0.0,0.0,60.16057,-22.51724,27.96034,10.4,-1.29,-0.4,2.0
1758075511.06992,1758075511.0449,0.0,0.0,0.0,57.41038,-5.50039,25.8404,12.82,-0.99,0.19,2.0
1758075511.07134,1758075511.0549,0.0,0.0,0.0,53.34238,11.97482,21.60051,12.82,-0.99,0.19,2.0
1758075511.08584,1758075511.0649,0.0,0.0,0.0,52.42564,-4.98473,13.69369,12.5,-0.51,0.65,2.0
1758075511.10263,1758075511.0749,0.0,0.0,0.0,50.99325,-29.56462,7.39116,7.83,-0.54,-0.66,2.0
1758075511.10386,1758075511.0849,0.0,0.0,0.0,51.73809,-50.99325,8.136,7.83,-0.54,-0.66,2.0
1758075511.11909,1758075511.0949,0.0,0.0,0.0,52.76942,-51.16513,9.74028,10.3,-1.34,-1.6,2.0
1758075511.12007,1758075511.1049,0.0,0.0,0.0,52.54023,-33.86181,5.50039,10.3,-1.34,-1.6,2.0
1758075511.13791,1758075511.1149,0.0,0.0,0.0,52.36834,-24.63719,2.46372,11.74,-1.09,-2.28,2.0
1758075511.15393,1758075511.1249,0.0,0.0,0.0,49.61814,-19.70975,-2.11994,11.74,-1.09,-2.28,2.0
1758075511.15509,1758075511.1349,0.0,0.0,0.0,42.05511,-17.18874,-7.84952,10.17,-0.46,-0.95,2.0
1758075511.17149,1758075511.1449,0.0,0.0,0.0,34.95043,-18.79302,-9.62569,10.33,0.29,0.85,2.0
1758075511.17346,1758075511.1549,0.0,0.0,0.0,26.98631,-24.5226,-7.96411,10.33,0.29,0.85,2.0
1758075511.18921,1758075511.1649,0.0,0.0,0.0,18.44924,-37.12767,-2.34913,12.0,1.85,2.2,2.0
1758075511.19037,1758075511.1749,0.0,0.0,0.0,7.50575,-58.49899,13.46451,12.0,1.85,2.2,2.0
1758075511.20593,1758075511.1849,0.0,0.0,0.0,2.40642,-64.62964,25.21014,14.12,3.29,3.01,2.0
1758075511.22296,1758075511.1949,0.0,0.0,0.0,-1.03132,-64.40046,33.51803,14.12,3.29,3.01,2.0
1758075511.22437,1758075511.2049,0.0,0.0,0.0,-2.34913,-63.65561,36.21093,14.36,2.99,1.87,2.0
1758075511.23896,1758075511.2149,0.0,0.0,0.0,-0.22918,-62.28051,33.74722,10.39,0.7,2.19,2.0
1758075511.24064,1758075511.2249,0.0,0.0,0.0,4.0107,-58.04062,29.10626,10.39,0.7,2.19,2.0
1758075511.2591,1758075511.2349,0.0,0.0,0.0,10.65701,-53.97263,22.86102,7.89,-1.03,2.92,2.0
1758075511.26026,1758075511.2449,0.0,0.0,0.0,18.85031,-48.30034,15.29797,7.89,-1.03,2.92,2.0
1758075511.27782,1758075511.2549,0.0,0.0,0.0,34.09099,-34.43476,4.64096,6.81,-2.32,2.52,2.0
1758075511.29405,1758075511.2649,0.0,0.0,0.0,44.57612,-22.51724,-1.60428,6.81,-2.32,2.52,2.0
1758075511.2968,1758075511.2749,0.0,0.0,0.0,54.3164,-11.74564,-5.78687,7.32,-3.54,1.47,2.0
1758075511.31406,1758075511.2849,0.0,0.0,0.0,61.30648,-0.85944,-9.33921,7.32,-3.54,1.47,2.0
1758075511.31602,1758075511.2949,0.0,0.0,0.0,67.55173,18.79302,-10.65701,9.11,-3.54,0.66,2.0
1758075511.33133,1758075511.3049,0.0,0.0,0.0,68.75494,33.74722,-8.99544,11.7,-1.74,-0.44,2.0
1758075511.33326,1758075511.3149,0.0,0.0,0.0,68.64035,48.8733,-4.87014,11.7,-1.74,-0.44,2.0
1758075511.348,1758075511.3249,0.0,0.0,0.0,66.5204,63.02536,3.55234,13.18,1.17,-1.3,2.0
1758075511.36405,1758075511.3349,0.0,0.0,0.0,60.50434,76.89094,9.28192,13.18,1.17,-1.3,2.0
1758075511.36522,1758075511.3449,0.0,0.0,0.0,55.6342,80.1568,13.46451,12.28,3.04,-1.11,2.0
1758075511.38031,1758075511.3549,0.0,0.0,0.0,50.93595,81.24542,16.73037,12.28,3.04,-1.11,2.0
1758075511.38279,1758075511.3649,0.0,0.0,0.0,43.54479,80.61517,17.53251,10.1,2.69,-0.56,2.0
1758075511.39917,1758075511.3749,0.0,0.0,0.0,38.27358,77.80767,15.75634,8.27,1.7,-0.24,2.0
1758075511.40006,1758075511.3849,0.0,0.0,0.0,32.6013,72.65105,13.12073,8.27,1.7,-0.24,2.0
1758075511.4179,1758075511.3949,0.0,0.0,0.0,26.64254,66.40582,9.05273,7.32,1.18,-0.04,2.0
1758075511.43411,1758075511.4049,0.0,0.0,0.0,17.76169,55.00395,3.20856,7.32,1.18,-0.04,2.0
1758075511.43638,1758075511.4149,0.0,0.0,0.0,12.37589,46.81066,-0.22918,7.49,0.85,0.09,2.0
1758075511.45138,1758075511.4249,0.0,0.0,0.0,7.16197,37.81522,-3.60963,7.49,0.85,0.09,2.0
1758075511.4534,1758075511.4349,0.0,0.0,0.0,2.57831,29.73651,-6.13065,8.2,0.67,0.35,2.0
1758075511.46838,1758075511.4449,0.0,0.0,0.0,-3.60963,21.31403,-8.59437,9.15,0.73,0.48,2.0
1758075511.48443,1758075511.4549,0.0,0.0,0.0,-7.16197,16.95955,-9.62569,9.15,0.73,0.48,2.0
1758075511.48532,1758075511.4649,0.0,0.0,0.0,-10.48513,13.40721,-10.08406,9.63,0.82,0.53,2.0
1758075511.50018,1758075511.4749,0.0,0.0,0.0,-13.17803,10.08406,-10.37054,9.63,0.82,0.53,2.0
1758075511.50213,1758075511.4849,0.0,0.0,0.0,-16.10011,5.84417,-10.25595,9.67,0.59,0.34,2.0
1758075511.51715,1758075511.4949,0.0,0.0,0.0,-17.18874,4.81285,-8.88085,9.67,0.59,0.34,2.0
1758075511.53315,1758075511.5049,0.0,0.0,0.0,-18.10547,5.27121,-7.73493,9.72,0.14,0.21,2.0
1758075511.53679,1758075511.5149,0.0,0.0,0.0,-18.85031,6.87549,-6.24524,9.72,0.14,0.21,2.0
1758075511.55448,1758075511.5249,0.0,0.0,0.0,-20.3973,7.79223,-4.0107,9.75,-0.14,0.15,2.0
1758075511.55536,1758075511.5349,0.0,0.0,0.0,-21.25674,3.03668,-3.32316,9.3,0.0,-0.05,2.0
1758075511.57209,1758075511.5449,0.0,0.0,0.0,-22.51724,-5.90147,-1.77617,9.3,0.0,-0.05,2.0
1758075511.57381,1758075511.5549,0.0,0.0,0.0,-26.75713,-12.14671,-2.7502,8.76,0.52,-0.56,2.0
1758075511.58923,1758075511.5649,0.0,0.0,0.0,-29.73651,-21.25674,-3.38045,8.76,0.52,-0.56,2.0
1758075511.5904,1758075511.5749,0.0,0.0,0.0,-33.00237,-24.80907,-4.81285,9.15,1.1,-0.68,2.0
1758075511.60752,1758075511.5849,0.0,0.0,0.0,-36.6693,-25.61122,-7.21927,9.15,1.1,-0.68,2.0
1758075511.62352,1758075511.5949,0.0,0.0,0.0,-42.22699,-30.82513,-11.45916,9.88,1.39,-0.69,2.0
1758075511.62398,1758075511.6049,0.0,0.0,0.0,-45.20637,-36.49741,-12.49048,9.85,1.16,-1.05,2.0
1758075511.6394,1758075511.6149,0.0,0.0,0.0,-47.09713,-38.56006,-12.2613,9.85,1.16,-1.05,2.0
1758075511.64044,1758075511.6249,0.0,0.0,0.0,-49.15978,-37.58603,-10.8862,10.87,0.56,-1.43,2.0
1758075511.65653,1758075511.6349,0.0,0.0,0.0,-50.1911,-24.75178,-5.50039,10.87,0.56,-1.43,2.0
1758075511.67335,1758075511.6449,0.0,0.0,0.0,-49.27437,-13.75099,-0.45837,12.14,-0.02,-1.28,2.0
1758075511.67429,1758075511.6549,0.0,0.0,0.0,-48.52953,-8.47978,2.40642,12.14,-0.02,-1.28,2.0
1758075511.68925,1758075511.6649,0.0,0.0,0.0,-47.72739,-8.47978,3.66693,11.67,0.0,-1.24,2.0
1758075511.69045,1758075511.6749,0.0,0.0,0.0,-47.03984,-10.8289,-0.22918,11.28,0.78,-0.55,2.0
1758075511.70659,1758075511.6849,0.0,0.0,0.0,-44.86259,-15.35527,-2.63561,11.28,0.78,-0.55,2.0
1758075511.72465,1758075511.6949,0.0,0.0,0.0,-41.31026,-28.36141,-7.44845,12.14,0.71,1.59,2.0
1758075511.72577,1758075511.7049,0.0,0.0,0.0,-36.84119,-41.71133,-13.75099,12.14,0.71,1.59,2.0
1758075511.74162,1758075511.7149,0.0,0.0,0.0,-27.04361,-50.82136,-24.12152,14.49,-0.66,2.81,2.0
1758075511.74333,1758075511.7249,0.0,0.0,0.0,-19.82434,-48.30034,-28.476,14.49,-0.66,2.81,2.0
1758075511.7586,1758075511.7349,0.0,0.0,0.0,-12.37589,-45.43555,-29.9084,15.5,-2.01,1.86,2.0
1758075511.77435,1758075511.7449,0.0,0.0,0.0,-6.47442,-46.00851,-26.12688,15.5,-2.01,1.86,2.0
1758075511.7761,1758075511.7549,0.0,0.0,0.0,-2.23454,-48.70141,-21.31403,11.52,-1.65,1.44,2.0
1758075511.79362,1758075511.7649,0.0,0.0,0.0,-3.60963,-50.01921,-16.90226,8.4,-0.35,1.63,2.0
1758075511.79401,1758075511.7749,0.0,0.0,0.0,-8.30789,-48.8733,-13.5791,8.4,-0.35,1.63,2.0
1758075511.80963,1758075511.7849,0.0,0.0,0.0,-19.99623,-41.59674,-10.59972,7.55,0.71,2.13,2.0
1758075511.81055,1758075511.7949,0.0,0.0,0.0,-28.76248,-36.03905,-9.96947,7.55,0.71,2.13,2.0
1758075511.82565,1758075511.8049,0.0,0.0,0.0,-37.64333,-31.91375,-11.11538,6.67,1.69,2.03,2.0
1758075511.84272,1758075511.8149,0.0,0.0,0.0,-44.86259,-27.33009,-12.49048,6.67,1.69,2.03,2.0
1758075511.84389,1758075511.8249,0.0,0.0,0.0,-52.08187,-16.21471,-13.12073,6.98,1.84,1.32,2.0
1758075511.85843,1758075511.8349,0.0,0.0,0.0,-53.74345,-3.72423,-13.12073,9.86,0.91,0.86,2.0
1758075511.85992,1758075511.8449,0.0,0.0,0.0,-53.11319,8.136,-13.00614,9.86,0.91,0.86,2.0
1758075511.87503,1758075511.8549,0.0,0.0,0.0,-50.76406,18.62113,-13.17803,11.77,-0.8,0.19,2.0
1758075511.89075,1758075511.8649,0.0,0.0,0.0,-44.748,29.27814,-13.40721,11.77,-0.8,0.19,2.0
1758075511.89195,1758075511.8749,0.0,0.0,0.0,-40.16434,35.63798,-13.12073,12.0,-2.32,-0.37,2.0
1758075511.90675,1758075511.8849,0.0,0.0,0.0,-35.98175,41.42485,-12.08941,12.0,-2.32,-0.37,2.0
1758075511.90845,1758075511.8949,0.0,0.0,0.0,-32.08564,48.12846,-10.02676,11.54,-2.76,-0.23,2.0
1758075511.92408,1758075511.9049,0.0,0.0,0.0,-27.1582,53.68615,-6.47442,10.31,-2.34,0.05,2.0
1758075511.93977,1758075511.9149,0.0,0.0,0.0,-24.80907,55.34772,-4.0107,10.31,-2.34,0.05,2.0
1758075511.94148,1758075511.9249,0.0,0.0,0.0,-23.37668,54.88936,-1.83346,9.22,-1.6,-0.17,2.0
1758075511.95682,1758075511.9349,0.0,0.0,0.0,-22.00158,53.74345,0.0,9.22,-1.6,-0.17,2.0
1758075511.97361,1758075511.9449,0.0,0.0,0.0,-20.45459,54.14451,2.34913,9.0,-0.82,-0.34,2.0
1758075511.9753,1758075511.9549,0.0,0.0,0.0,-19.13679,55.92068,4.52637,9.0,-0.82,-0.34,2.0
1758075511.99335,1758075511.9649,0.0,0.0,0.0,-17.6471,57.41038,6.70361,9.31,-0.29,-0.51,2.0
1758075511.99484,1758075511.9749,0.0,0.0,0.0,-15.46986,57.75415,9.68299,9.31,-0.29,-0.51,2.0
1758075512.00988,1758075511.9849,0.0,0.0,0.0,-14.32395,54.71747,10.71431,9.17,0.01,-0.44,2.0
1758075512.01076,1758075511.9949,0.0,0.0,0.0,-12.77696,50.82136,11.51645,8.79,0.19,-0.36,2.0
1758075512.02563,1758075512.0049,0.0,0.0,0.0,-11.17268,44.8053,11.74564,8.79,0.19,-0.36,2.0
1758075512.04186,1758075512.0149,0.0,0.0,0.0,-8.136,35.92446,10.02676,8.41,0.16,-0.4,2.0
1758075512.04284,1758075512.0249,0.0,0.0,0.0,-5.78687,33.23156,8.36518,8.41,0.16,-0.4,2.0
1758075512.05839,1758075512.0349,0.0,0.0,0.0,-3.03668,32.83048,6.58902,8.96,-0.1,-0.3,2.0
1758075512.05984,1758075512.0449,0.0,0.0,0.0,-0.22918,31.45539,4.98473,8.96,-0.1,-0.3,2.0
1758075512.07481,1758075512.0549,0.0,0.0,0.0,4.58366,26.69983,3.66693,9.13,-0.63,-0.24,2.0
1758075512.0916,1758075512.0649,0.0,0.0,0.0,8.47978,25.61122,3.26586,9.11,-1.31,-0.51,2.0
1758075512.09358,1758075512.0749,0.0,0.0,0.0,11.97482,26.41335,2.92208,9.11,-1.31,-0.51,2.0
1758075512.10859,1758075512.0849,0.0,0.0,0.0,15.98552,25.72581,3.26586,9.44,-1.9,-0.23,2.0
1758075512.11171,1758075512.0949,0.0,0.0,0.0,22.00158,20.05352,5.09932,9.44,-1.9,-0.23,2.0
1758075512.1266,1758075512.1049,0.0,0.0,0.0,26.06958,13.5791,6.58902,9.16,-2.22,-0.3,2.0
1758075512.14294,1758075512.1149,0.0,0.0,0.0,30.36677,4.69825,8.76626,9.16,-2.22,-0.3,2.0
1758075512.14386,1758075512.1249,0.0,0.0,0.0,34.0337,-7.84952,11.45916,8.84,-2.19,-0.49,2.0
1758075512.15897,1758075512.1349,0.0,0.0,0.0,36.49741,-36.95578,14.38124,8.05,-1.72,-1.01,2.0
1758075512.15989,1758075512.1449,0.0,0.0,0.0,37.98711,-40.7946,14.61043,8.05,-1.72,-1.01,2.0
1758075512.1747,1758075512.1549,0.0,0.0,0.0,40.50812,-27.78845,17.58981,11.25,-1.31,-0.72,2.0
1758075512.19276,1758075512.1649,0.0,0.0,0.0,42.91454,-9.33921,21.02755,11.25,-1.31,-0.72,2.0
1758075512.19443,1758075512.1749,0.0,0.0,0.0,44.11775,17.24603,19.42327,12.99,-1.21,0.43,2.0
1758075512.20927,1758075512.1849,0.0,0.0,0.0,46.06581,22.91831,14.32395,12.99,-1.21,0.43,2.0
1758075512.20994,1758075512.1949,0.0,0.0,0.0,48.41494,-8.99544,14.61043,11.07,-1.41,0.94,2.0
1758075512.22556,1758075512.2049,0.0,0.0,0.0,52.02457,-64.57235,16.04282,11.07,-1.41,0.94,2.0
1758075512.24189,1758075512.2149,0.0,0.0,0.0,54.48829,-64.28587,19.59516,8.04,-1.76,-1.82,2.0
1758075512.24317,1758075512.2249,0.0,0.0,0.0,55.97798,-53.39967,17.76169,12.71,-2.18,-0.82,2.0
1758075512.2578,1758075512.2349,0.0,0.0,0.0,57.46767,-43.31561,14.66772,12.71,-2.18,-0.82,2.0
1758075512.25894,1758075512.2449,0.0,0.0,0.0,54.77477,-43.25832,5.32851,11.12,-1.61,-0.93,2.0
1758075512.27512,1758075512.2549,0.0,0.0,0.0,49.84733,-46.1231,0.97403,11.12,-1.61,-0.93,2.0
1758075512.29112,1758075512.2649,0.0,0.0,0.0,43.4875,-54.08722,-1.3178,10.53,-0.58,1.84,2.0
1758075512.29358,1758075512.2749,0.0,0.0,0.0,36.03905,-67.78091,-2.29183,10.53,-0.58,1.84,2.0
1758075512.30899,1758075512.2849,0.0,0.0,0.0,26.81443,-92.3035,4.69825,10.69,1.42,2.29,2.0
1758075512.31003,1758075512.2949,0.0,0.0,0.0,22.91831,-102.27297,15.58445,12.58,3.08,3.27,2.0
1758075512.32489,1758075512.3049,0.0,0.0,0.0,17.36062,-105.65342,22.68913,12.58,3.08,3.27,2.0
1758075512.34088,1758075512.3149,0.0,0.0,0.0,13.69369,-102.21567,27.78845,12.8,3.04,2.03,2.0
1758075512.34231,1758075512.3249,0.0,0.0,0.0,13.00614,-93.7359,29.67921,12.8,3.04,2.03,2.0
1758075512.35704,1758075512.3349,0.0,0.0,0.0,15.69904,-87.94903,28.64789,10.09,1.01,2.81,2.0
1758075512.3592,1758075512.3449,0.0,0.0,0.0,21.37133,-79.64114,25.43933,10.09,1.01,2.81,2.0
1758075512.37591,1758075512.3549,0.0,0.0,0.0,28.76248,-67.09336,20.74107,8.32,-0.68,2.35,2.0
1758075512.39216,1758075512.3649,0.0,0.0,0.0,40.62271,-42.91454,11.34457,8.62,-1.9,1.32,2.0
1758075512.39309,1758075512.3749,0.0,0.0,0.0,47.72739,-26.98631,5.32851,8.62,-1.9,1.32,2.0
1758075512.40794,1758075512.3849,0.0,0.0,0.0,52.54023,-12.08941,-1.60428,9.8,-2.6,0.27,2.0
1758075512.40911,1758075512.3949,0.0,0.0,0.0,55.34772,4.29718,-9.33921,9.8,-2.6,0.27,2.0
1758075512.42595,1758075512.4049,0.0,0.0,0.0,53.62885,34.26288,-11.86023,12.74,-1.82,-0.53,2.0
1758075512.44318,1758075512.4149,0.0,0.0,0.0,50.1911,52.76942,-11.57375,12.74,-1.82,-0.53,2.0
1758075512.44413,1758075512.4249,0.0,0.0,0.0,45.20637,66.34852,-10.25595,14.15,0.52,-1.54,2.0
1758075512.4592,1758075512.4349,0.0,0.0,0.0,37.01308,77.86497,-6.58902,14.15,0.52,-1.54,2.0
1758075512.46015,1758075512.4449,0.0,0.0,0.0,31.91375,82.67782,-4.23989,12.6,2.58,-0.89,2.0
1758075512.47597,1758075512.4549,0.0,0.0,0.0,28.07493,86.05827,-2.11994,10.69,2.7,-0.45,2.0
1758075512.49223,1758075512.4649,0.0,0.0,0.0,24.4653,88.29281,-0.97403,10.69,2.7,-0.45,2.0
1758075512.49341,1758075512.4749,0.0,0.0,0.0,20.34,87.37608,0.80214,8.88,1.84,-0.16,2.0
1758075512.50818,1758075512.4849,0.0,0.0,0.0,17.36062,85.19884,1.14592,8.88,1.84,-0.16,2.0
1758075512.50914,1758075512.4949,0.0,0.0,0.0,13.5791,82.84971,0.51566,7.74,1.07,-0.03,2.0
1758075512.52652,1758075512.5049,0.0,0.0,0.0,9.96947,78.09415,-0.0573,7.74,1.07,-0.03,2.0
1758075512.54197,1758075512.5149,0.0,0.0,0.0,3.60963,69.38519,-1.48969,7.1,0.66,-0.16,2.0
1758075512.5434,1758075512.5249,0.0,0.0,0.0,-0.45837,61.65026,-3.26586,7.19,0.45,0.08,2.0
1758075512.55826,1758075512.5349,0.0,0.0,0.0,-4.0107,53.28508,-4.23989,7.19,0.45,0.08,2.0
1758075512.55942,1758075512.5449,0.0,0.0,0.0,-7.62034,46.81066,-5.27121,7.9,0.47,0.24,2.0
1758075512.57528,1758075512.5549,0.0,0.0,0.0,-12.54778,39.70598,-6.87549,7.9,0.47,0.24,2.0
1758075512.59125,1758075512.5649,0.0,0.0,0.0,-16.3293,33.23156,-8.36518,8.69,0.7,0.63,2.0
1758075512.59221,1758075512.5749,0.0,0.0,0.0,-20.16812,23.0902,-10.19865,8.69,0.7,0.63,2.0
1758075512.60703,1758075512.5849,0.0,0.0,0.0,-24.23611,11.22997,-12.204,8.46,1.07,0.53,2.0
1758075512.62329,1758075512.5949,0.0,0.0,0.0,-31.39809,3.95341,-14.15206,9.07,1.4,0.36,2.0
1758075512.6246,1758075512.6049,0.0,0.0,0.0,-35.75257,-0.17189,-15.24068,9.07,1.4,0.36,2.0
1758075512.63907,1758075512.6149,0.0,0.0,0.0,-40.27893,-4.81285,-16.3293,9.31,1.43,0.2,2.0
1758075512.64067,1758075512.6249,0.0,0.0,0.0,-46.1804,-14.43854,-17.99088,9.31,1.43,0.2,2.0
1758075512.6553,1758075512.6349,0.0,0.0,0.0,-49.84733,-21.42862,-19.42327,9.21,1.24,-0.34,2.0
1758075512.67135,1758075512.6449,0.0,0.0,0.0,-52.36834,-29.62192,-20.74107,9.21,1.24,-0.34,2.0
1758075512.67343,1758075512.6549,0.0,0.0,0.0,-54.431,-40.45082,-22.28806,8.95,1.07,-1.02,2.0
1758075512.68842,1758075512.6649,0.0,0.0,0.0,-54.60288,-62.22322,-22.40265,8.95,1.07,-1.51,2.0
1758075512.68931,1758075512.6749,0.0,0.0,0.0,-52.884,-74.25533,-21.02755,8.0,0.9,-1.51,2.0
1758075512.70536,1758075512.6849,0.0,0.0,0.0,-52.25375,-78.7817,-18.10547,8.83,0.57,-1.91,2.0
1758075512.72113,1758075512.6949,0.0,0.0,0.0,-52.65482,-59.98868,-16.73037,8.83,0.57,-1.91,2.0
1758075512.72272,1758075512.7049,0.0,0.0,0.0,-48.64412,-10.48513,-11.00079,13.99,0.66,-1.44,2.0
1758075512.73741,1758075512.7149,0.0,0.0,0.0,-49.15978,-14.38124,-12.60507,13.99,0.66,-1.44,2.0
1758075512.75341,1758075512.7249,0.0,0.0,0.0,-51.22243,-27.1582,-13.5218,11.22,1.18,-0.98,2.0
1758075512.75476,1758075512.7349,0.0,0.0,0.0,-52.54023,-29.67921,-15.06879,11.22,1.18,-0.98,2.0
1758075512.76949,1758075512.7449,0.0,0.0,0.0,-53.80074,-17.76169,-14.43854,11.68,1.77,-2.38,2.0
1758075512.77231,1758075512.7549,0.0,0.0,0.0,-53.97263,-9.85487,-11.34457,11.97,1.61,-2.5,2.0
1758075512.78844,1758075512.7649,0.0,0.0,0.0,-54.60288,-3.66693,-7.10468,11.97,1.61,-2.5,2.0
1758075512.7894,1758075512.7749,0.0,0.0,0.0,-54.60288,-2.97938,-3.72423,10.77,1.4,-0.19,2.0
1758075512.80824,1758075512.7849,0.0,0.0,0.0,-51.73809,-18.50654,-3.89611,10.77,1.4,-0.19,2.0
1758075512.80947,1758075512.7949,0.0,0.0,0.0,-48.12846,-35.58068,-8.93814,10.82,0.81,1.93,2.0
1758075512.82657,1758075512.8049,0.0,0.0,0.0,-43.83128,-50.3057,-17.53251,10.82,0.81,1.93,2.0
1758075512.8298,1758075512.8149,0.0,0.0,0.0,-34.37747,-56.83742,-27.96034,13.94,-0.92,3.38,2.0
1758075512.84659,1758075512.8249,0.0,0.0,0.0,-27.44468,-67.09336,-31.56997,14.48,-2.79,2.31,2.0
1758075512.86251,1758075512.8349,0.0,0.0,0.0,-22.28806,-80.44328,-32.71589,14.48,-2.79,2.31,2.0
1758075512.86345,1758075512.8449,0.0,0.0,0.0,-20.45459,-89.95438,-30.53865,10.15,-2.62,2.21,2.0
1758075512.87859,1758075512.8549,0.0,0.0,0.0,-26.69983,-91.73055,-23.72045,10.15,-2.62,2.21,2.0
1758075512.8795,1758075512.8649,0.0,0.0,0.0,-36.26823,-87.66255,-18.62113,8.37,-0.61,2.81,2.0
1758075512.89556,1758075512.8749,0.0,0.0,0.0,-48.07116,-78.7244,-13.34992,8.37,-0.61,2.81,2.0
1758075512.91132,1758075512.8849,0.0,0.0,0.0,-60.33246,-67.72362,-8.136,8.03,1.07,2.41,2.0
1758075512.91287,1758075512.8949,0.0,0.0,0.0,-75.63043,-48.64412,-3.09397,8.04,1.07,-0.25,2.0
1758075512.92785,1758075512.9049,0.0,0.0,0.0,-82.62051,-34.0337,-0.17189,8.04,1.64,-0.25,2.0
1758075512.9436,1758075512.9149,0.0,0.0,0.0,-85.48531,-18.22006,3.03668,10.37,1.15,-0.64,2.0
1758075512.94479,1758075512.9249,0.0,0.0,0.0,-85.08423,-0.0573,5.21392,10.37,1.15,-0.64,2.0
1758075512.95964,1758075512.9349,0.0,0.0,0.0,-79.46925,23.31938,5.61499,13.03,-0.33,-0.64,2.0
1758075512.96078,1758075512.9449,0.0,0.0,0.0,-73.91156,34.32018,3.89611,13.03,-0.33,-0.64,2.0
1758075512.97664,1758075512.9549,0.0,0.0,0.0,-68.06739,42.1124,1.3751,12.72,-2.01,-0.94,2.0
1758075512.99342,1758075512.9649,0.0,0.0,0.0,-61.42108,48.8733,-1.03132,12.72,-2.01,-0.94,2.0
1758075512.99488,1758075512.9749,0.0,0.0,0.0,-52.48294,59.64491,-3.49504,11.7,-2.97,-0.37,2.0
1758075513.00959,1758075512.9849,0.0,0.0,0.0,-46.98254,64.74423,-4.1253,10.48,-3.13,-0.05,2.0
1758075513.0106,1758075512.9949,0.0,0.0,0.0,-41.71133,64.45775,-3.60963,10.48,-3.13,-0.05,2.0
1758075513.02538,1758075513.0049,0.0,0.0,0.0,-37.52874,61.93674,-2.6929,8.4,-2.97,-0.49,2.0
1758075513.04141,1758075513.0149,0.0,0.0,0.0,-31.45539,61.30648,-1.20321,8.4,-2.97,-0.49,2.0
1758075513.0429,1758075513.0249,0.0,0.0,0.0,-27.10091,65.2026,1.3178,8.38,-2.28,-0.9,2.0
1758075513.05769,1758075513.0349,0.0,0.0,0.0,-22.63183,68.58305,4.35448,8.38,-2.28,-0.9,2.0
1758075513.07365,1758075513.0449,0.0,0.0,0.0,-16.38659,68.75494,9.11003,8.63,-1.29,-0.91,2.0
1758075513.07458,1758075513.0549,0.0,0.0,0.0,-12.83425,67.55173,11.86023,8.5,-0.53,-0.73,2.0
1758075513.08967,1758075513.0649,0.0,0.0,0.0,-9.96947,65.54638,13.40721,8.5,-0.53,-0.73,2.0
1758075513.09178,1758075513.0749,0.0,0.0,0.0,-7.21927,62.16592,13.80828,8.73,-0.13,-0.62,2.0
1758075513.10816,1758075513.0849,0.0,0.0,0.0,-3.72423,53.80074,11.80293,8.73,-0.13,-0.62,2.0
1758075513.12354,1758075513.0949,0.0,0.0,0.0,-0.57296,47.49821,9.39651,8.77,-0.2,-0.33,2.0
1758075513.12462,1758075513.1049,0.0,0.0,0.0,3.83882,40.33623,7.33386,8.77,-0.2,-0.33,2.0
1758075513.1407,1758075513.1149,0.0,0.0,0.0,8.42248,32.48671,5.32851,8.86,-0.85,-0.35,2.0
1758075513.14169,1758075513.1249,0.0,0.0,0.0,16.3293,26.24147,3.49504,9.23,-1.93,-0.49,2.0
1758075513.15749,1758075513.1349,0.0,0.0,0.0,21.88699,25.21014,2.92208,9.23,-1.93,-0.49,2.0
1758075513.17371,1758075513.1449,0.0,0.0,0.0,27.1582,23.94964,2.23454,9.49,-2.72,-0.53,2.0
1758075513.17467,1758075513.1549,0.0,0.0,0.0,32.48671,21.14215,1.83346,9.49,-2.72,-0.53,2.0
1758075513.19051,1758075513.1649,0.0,0.0,0.0,40.62271,13.17803,1.83346,9.1,-2.92,-0.44,2.0
1758075513.19175,1758075513.1749,0.0,0.0,0.0,46.1804,5.32851,2.63561,9.1,-2.92,-0.44,2.0
1758075513.20754,1758075513.1849,0.0,0.0,0.0,51.22243,-5.15662,3.83882,8.74,-2.66,-0.76,2.0
1758075513.22349,1758075513.1949,0.0,0.0,0.0,55.6915,-16.272,4.92744,8.74,-2.66,-0.76,2.0
1758075513.22476,1758075513.2049,0.0,0.0,0.0,62.28051,-22.28806,5.27121,8.72,-2.08,-1.26,2.0
1758075513.23986,1758075513.2149,0.0,0.0,0.0,66.92148,-15.12609,7.04738,10.75,-1.7,-1.23,2.0
1758075513.24187,1758075513.2249,0.0,0.0,0.0,70.93218,-6.53172,9.11003,10.75,-1.7,-1.23,2.0
1758075513.25763,1758075513.2349,0.0,0.0,0.0,73.68237,14.61043,13.34992,12.7,-1.6,-0.81,2.0
1758075513.26016,1758075513.2449,0.0,0.0,0.0,72.88023,20.45459,11.57375,12.7,-1.6,-0.81,2.0
1758075513.27872,1758075513.2549,0.0,0.0,0.0,75.80232,-19.07949,13.86558,10.35,-1.74,0.39,2.0
1758075513.27961,1758075513.2649,0.0,0.0,0.0,77.4066,-60.16057,15.24068,10.35,-1.74,0.39,2.0
1758075513.29594,1758075513.2749,0.0,0.0,0.0,80.27139,-81.5892,27.50197,7.36,-2.31,-2.44,2.0
1758075513.31383,1758075513.2849,0.0,0.0,0.0,82.50593,-71.27596,31.56997,12.48,-2.97,-0.78,2.0
1758075513.31462,1758075513.2949,0.0,0.0,0.0,82.39134,-69.21331,31.56997,12.48,-2.97,-0.78,2.0
1758075513.32963,1758075513.3049,0.0,0.0,0.0,81.5319,-73.73967,29.96569,10.48,-2.35,-0.61,2.0
1758075513.3308,1758075513.3149,0.0,0.0,0.0,75.68773,-69.38519,24.63719,10.48,-2.35,-0.61,2.0
1758075513.3459,1758075513.3249,0.0,0.0,0.0,69.95815,-63.94209,20.11082,10.59,-1.24,0.68,2.0
1758075513.36286,1758075513.3349,0.0,0.0,0.0,64.85883,-60.50434,16.04282,10.59,-1.24,0.68,2.0
1758075513.36395,1758075513.3449,0.0,0.0,0.0,60.27517,-59.70221,13.86558,10.55,0.45,0.13,2.0
1758075513.3789,1758075513.3549,0.0,0.0,0.0,49.90463,-69.90086,14.49583,11.78,2.53,0.64,2.0
1758075513.37983,1758075513.3649,0.0,0.0,0.0,42.68536,-74.02615,17.01685,11.78,2.53,0.64,2.0
1758075513.39598,1758075513.3749,0.0,0.0,0.0,35.98175,-71.16136,20.68378,14.64,4.14,0.16,2.0
1758075513.41343,1758075513.3849,0.0,0.0,0.0,29.73651,-66.74959,24.29341,14.64,4.14,0.16,2.0
1758075513.41467,1758075513.3949,0.0,0.0,0.0,22.57454,-62.28051,26.47065,14.73,3.03,0.29,2.0
1758075513.42993,1758075513.4049,0.0,0.0,0.0,20.22541,-58.55629,25.43933,14.73,3.03,0.29,2.0
1758075513.43166,1758075513.4149,0.0,0.0,0.0,19.76705,-53.45696,22.28806,11.22,0.14,0.53,2.0
1758075513.44693,1758075513.4249,0.0,0.0,0.0,20.79837,-48.8733,17.24603,11.22,0.14,0.53,2.0
1758075513.46408,1758075513.4349,0.0,0.0,0.0,24.98096,-35.98175,7.04738,8.63,-1.03,1.12,2.0
1758075513.46595,1758075513.4449,0.0,0.0,0.0,30.25217,-22.34536,0.34377,8.27,-0.97,2.05,2.0
1758075513.48252,1758075513.4549,0.0,0.0,0.0,37.35685,-8.59437,-6.24524,8.27,-0.97,2.05,2.0
1758075513.48353,1758075513.4649,0.0,0.0,0.0,51.45161,9.11003,-14.38124,7.94,-0.81,1.96,2.0
1758075513.49874,1758075513.4749,0.0,0.0,0.0,62.28051,19.76705,-15.98552,7.94,-0.81,1.96,2.0
1758075513.50008,1758075513.4849,0.0,0.0,0.0,72.70835,32.25753,-15.12609,8.5,-1.05,0.83,2.0
1758075513.51712,1758075513.4949,0.0,0.0,0.0,81.18813,47.03984,-12.60507,8.5,-1.05,0.83,2.0
1758075513.53385,1758075513.5049,0.0,0.0,0.0,88.35009,67.26525,-8.88085,11.5,-1.1,-0.44,2.0
1758075513.5348,1758075513.5149,0.0,0.0,0.0,90.24085,74.771,-3.60963,13.5,-0.07,-1.01,2.0
1758075513.54995,1758075513.5249,0.0,0.0,0.0,90.06896,76.66176,2.7502,13.5,-0.07,-1.01,2.0
1758075513.55184,1758075513.5349,0.0,0.0,0.0,87.60525,77.4066,8.88085,13.33,1.21,-1.33,2.0
1758075513.5668,1758075513.5449,0.0,0.0,0.0,81.93298,81.76109,15.58445,13.33,1.21,-1.33,2.0
1758075513.58286,1758075513.5549,0.0,0.0,0.0,77.12012,85.08423,16.95955,12.17,1.76,-1.15,2.0
1758075513.58434,1758075513.5649,0.0,0.0,0.0,71.79161,84.74047,16.84496,12.17,1.76,-1.15,2.0
1758075513.59878,1758075513.5749,0.0,0.0,0.0,65.89015,81.70379,15.58445,9.29,1.82,-0.68,2.0
1758075513.60033,1758075513.5849,0.0,0.0,0.0,56.952,73.79697,12.60507,7.32,1.84,-0.3,2.0
1758075513.61785,1758075513.5949,0.0,0.0,0.0,50.363,68.01009,9.62569,7.32,1.84,-0.3,2.0
1758075513.61984,1758075513.6049,0.0,0.0,0.0,43.65939,61.07731,5.61499,6.7,1.84,-0.16,2.0
1758075513.63793,1758075513.6149,0.0,0.0,0.0,37.24226,53.28508,1.66158,6.7,1.84,-0.16,2.0
1758075513.65402,1758075513.6249,0.0,0.0,0.0,28.476,41.36755,-4.81285,7.04,1.63,-0.03,2.0
1758075513.65535,1758075513.6349,0.0,0.0,0.0,23.49127,33.74722,-8.93814,7.04,1.63,-0.03,2.0
1758075513.66997,1758075513.6449,0.0,0.0,0.0,18.9649,24.75178,-12.71966,8.01,1.28,0.43,2.0
1758075513.67112,1758075513.6549,0.0,0.0,0.0,13.23533,14.20935,-16.84496,8.01,1.28,0.43,2.0
1758075513.68598,1758075513.6649,0.0,0.0,0.0,10.02676,-3.95341,-18.62113,8.28,1.07,0.7,2.0
1758075513.70192,1758075513.6749,0.0,0.0,0.0,6.70361,-11.11538,-19.13679,8.78,1.05,0.61,2.0
1758075513.70312,1758075513.6849,0.0,0.0,0.0,3.09397,-13.00614,-20.34,8.78,1.05,0.61,2.0
1758075513.71798,1758075513.6949,0.0,0.0,0.0,-0.45837,-15.24068,-19.99623,9.67,1.0,0.49,2.0
1758075513.73398,1758075513.7049,0.0,0.0,0.0,-1.94806,-16.21471,-19.07949,9.67,1.0,0.49,2.0
1758075513.73571,1758075513.7149,0.0,0.0,0.0,-3.55234,-17.13144,-17.93358,9.89,0.76,-0.03,2.0
1758075513.7503,1758075513.7249,0.0,0.0,0.0,-4.29718,-18.44924,-16.55848,9.89,0.76,-0.03,2.0
1758075513.75144,1758075513.7349,0.0,0.0,0.0,-4.87014,-21.60051,-14.43854,9.77,0.54,-0.35,2.0
1758075513.76628,1758075513.7449,0.0,0.0,0.0,-5.09932,-23.72045,-13.69369,9.53,0.35,-0.81,2.0
1758075513.782,1758075513.7549,0.0,0.0,0.0,-4.92744,-29.22085,-12.77696,9.53,0.35,-0.81,2.0
1758075513.78351,1758075513.7649,0.0,0.0,0.0,-4.69825,-34.60666,-12.37589,8.84,0.26,-1.15,2.0
1758075513.79797,1758075513.7749,0.0,0.0,0.0,-5.84417,-40.10705,-11.22997,8.84,0.26,-1.15,2.0
1758075513.81403,1758075513.7849,0.0,0.0,0.0,-8.70896,-37.18496,-8.93814,9.02,0.39,-1.41,2.0
1758075513.81555,1758075513.7949,0.0,0.0,0.0,-13.40721,-21.94428,-6.58902,9.02,0.39,-1.41,2.0
1758075513.83,1758075513.8049,0.0,0.0,0.0,-19.25138,-5.61499,-5.32851,11.11,1.1,-1.06,2.0
1758075513.83119,1758075513.8149,0.0,0.0,0.0,-29.9084,3.60963,-8.42248,10.92,2.03,-0.9,2.0
1758075513.84601,1758075513.8249,0.0,0.0,0.0,-36.95578,-7.33386,-11.17268,10.92,2.03,-0.9,2.0
1758075513.86204,1758075513.8349,0.0,0.0,0.0,-43.31561,-16.90226,-15.06879,9.47,2.87,-1.16,2.0
1758075513.86323,1758075513.8449,0.0,0.0,0.0,-48.75871,-15.64175,-19.19409,9.47,2.87,-1.16,2.0
1758075513.8783,1758075513.8549,0.0,0.0,0.0,-54.60288,0.11459,-21.31403,12.05,2.89,-1.13,2.0
1758075513.89429,1758075513.8649,0.0,0.0,0.0,-56.78012,10.8862,-21.31403,12.05,2.89,-1.13,2.0
1758075513.89553,1758075513.8749,0.0,0.0,0.0,-57.46767,18.85031,-20.05352,12.74,2.17,-0.56,2.0
1758075513.91011,1758075513.8849,0.0,0.0,0.0,-56.32175,23.89234,-16.61578,12.74,2.17,-0.56,2.0
1758075513.91127,1758075513.8949,0.0,0.0,0.0,-54.3164,20.16812,-13.5218,11.78,1.31,-0.56,2.0
1758075513.9261,1758075513.9049,0.0,0.0,0.0,-51.73809,12.14671,-10.65701,10.16,0.57,-0.24,2.0
1758075513.94436,1758075513.9149,0.0,0.0,0.0,-48.64412,0.74485,-8.65166,10.16,0.57,-0.24,2.0
1758075513.94531,1758075513.9249,0.0,0.0,0.0,-43.4875,-16.95955,-9.33921,10.53,-0.42,0.42,2.0
1758075513.96042,1758075513.9349,0.0,0.0,0.0,-39.76327,-26.41335,-12.2613,10.53,-0.42,0.42,2.0
1758075513.96132,1758075513.9449,0.0,0.0,0.0,-35.69527,-33.40344,-15.98552,12.74,-1.07,0.62,2.0
1758075513.97791,1758075513.9549,0.0,0.0,0.0,-31.91375,-38.27358,-20.22541,12.74,-1.07,0.62,2.0
1758075513.99418,1758075513.9649,0.0,0.0,0.0,-27.67386,-41.59674,-24.63719,13.5,-0.68,0.28,2.0
1758075513.99497,1758075513.9749,0.0,0.0,0.0,-26.75713,-41.31026,-25.72581,12.27,0.27,-0.22,2.0
1758075514.01145,1758075513.9849,0.0,0.0,0.0,-27.50197,-41.88322,-24.75178,12.27,0.27,-0.22,2.0
1758075514.01239,1758075513.9949,0.0,0.0,0.0,-29.67921,-43.88857,-22.23076,9.97,1.11,-0.03,2.0
1758075514.02825,1758075514.0049,0.0,0.0,0.0,-35.06502,-51.16513,-16.21471,9.97,1.11,-0.03,2.0
1758075514.04425,1758075514.0149,0.0,0.0,0.0,-39.82057,-56.60823,-11.28727,7.79,1.64,0.55,2.0
1758075514.04495,1758075514.0249,0.0,0.0,0.0,-45.26366,-60.61894,-5.78687,7.79,1.64,0.55,2.0
1758075514.06054,1758075514.0349,0.0,0.0,0.0,-52.36834,-62.79618,-0.68755,6.98,2.03,1.54,2.0
1758075514.06222,1758075514.0449,0.0,0.0,0.0,-65.2026,-61.42108,5.32851,6.9,2.3,2.24,2.0
1758075514.07724,1758075514.0549,0.0,0.0,0.0,-74.7137,-58.4417,7.39116,6.9,2.3,2.24,2.0
1758075514.09326,1758075514.0649,0.0,0.0,0.0,-83.93832,-53.80074,7.50575,7.14,2.13,1.77,2.0
1758075514.09383,1758075514.0749,0.0,0.0,0.0,-95.79855,-45.83662,4.58366,7.14,2.13,1.77,2.0
1758075514.10956,1758075514.0849,0.0,0.0,0.0,-100.95516,-28.41871,0.85944,8.77,1.3,0.43,2.0
1758075514.11157,1758075514.0949,0.0,0.0,0.0,-103.76266,-13.98017,-3.32316,8.77,1.3,0.43,2.0
1758075514.12623,1758075514.1049,0.0,0.0,0.0,-103.87726,3.60963,-7.50575,11.54,-0.15,-0.8,2.0
1758075514.14254,1758075514.1149,0.0,0.0,0.0,-99.75195,30.59595,-12.89155,11.54,-0.15,-0.8,2.0
1758075514.14348,1758075514.1249,0.0,0.0,0.0,-95.0537,44.748,-15.29797,13.27,-1.69,-1.65,2.0
1758075514.15821,1758075514.1349,0.0,0.0,0.0,-88.69387,54.88936,-15.41257,12.39,-2.24,-1.26,2.0
1758075514.15976,1758075514.1449,0.0,0.0,0.0,-81.5319,63.25455,-13.86558,12.39,-2.24,-1.26,2.0
1758075514.17596,1758075514.1549,0.0,0.0,0.0,-70.41652,72.36457,-8.59437,11.48,-1.81,-0.51,2.0
1758075514.17929,1758075514.1649,0.0,0.0,0.0,-64.17127,72.88023,-5.21392,11.48,-1.81,-0.51,2.0
1758075514.19599,1758075514.1749,0.0,0.0,0.0,-58.84277,70.30193,-3.09397,10.45,-1.24,-0.23,2.0
1758075514.2116,1758075514.1849,0.0,0.0,0.0,-54.3164,68.58305,-1.77617,10.45,-1.24,-0.23,2.0
1758075514.21362,1758075514.1949,0.0,0.0,0.0,-47.61279,69.61437,0.11459,10.12,-1.01,-0.41,2.0
1758075514.22949,1758075514.2049,0.0,0.0,0.0,-42.91454,70.87489,1.03132,9.99,-1.11,-0.78,2.0
1758075514.23035,1758075514.2149,0.0,0.0,0.0,-37.58603,71.16136,1.77617,9.99,-1.11,-0.78,2.0
1758075514.24537,1758075514.2249,0.0,0.0,0.0,-31.74186,70.53111,2.06265,9.25,-1.45,-0.79,2.0
1758075514.26139,1758075514.2349,0.0,0.0,0.0,-21.94428,69.3279,2.29183,9.25,-1.45,-0.79,2.0
1758075514.26257,1758075514.2449,0.0,0.0,0.0,-14.03747,65.77556,2.97938,8.9,-1.99,-0.79,2.0
1758075514.27744,1758075514.2549,0.0,0.0,0.0,-4.69825,61.59297,4.92744,8.9,-1.99,-0.79,2.0
1758075514.2786,1758075514.2649,0.0,0.0,0.0,5.4431,58.26981,7.04738,8.58,-2.65,-0.8,2.0
1758075514.29929,1758075514.2749,0.0,0.0,0.0,21.31403,52.19646,11.63104,8.69,-3.27,-1.24,2.0
1758075514.2997,1758075514.2849,0.0,0.0,0.0,30.99702,46.86795,14.43854,8.69,-3.27,-1.24,2.0
1758075514.31499,1758075514.2949,0.0,0.0,0.0,39.53409,41.31026,17.01685,8.85,-3.65,-1.13,2.0
1758075514.33124,1758075514.3049,0.0,0.0,0.0,49.50356,34.66395,20.16812,8.85,-3.65,-1.13,2.0
1758075514.33269,1758075514.3149,0.0,0.0,0.0,53.74345,29.39274,21.37133,9.37,-3.47,-1.28,2.0
1758075514.34848,1758075514.3249,0.0,0.0,0.0,56.37905,22.91831,22.11617,9.37,-3.47,-1.28,2.0
1758075514.34943,1758075514.3349,0.0,0.0,0.0,57.75415,14.20935,21.60051,9.24,-2.82,-0.95,2.0
1758075514.36476,1758075514.3449,0.0,0.0,0.0,58.78547,0.74485,20.3973,9.24,-2.82,-0.95,2.0
1758075514.38209,1758075514.3549,0.0,0.0,0.0,60.27517,-5.84417,20.22541,9.01,-2.02,-0.89,2.0
1758075514.38404,1758075514.3649,0.0,0.0,0.0,61.70755,-8.02141,20.85567,9.46,-1.41,-0.82,2.0
1758075514.39979,1758075514.3749,0.0,0.0,0.0,63.13995,-5.32851,20.45459,9.46,-1.41,-0.82,2.0
1758075514.40162,1758075514.3849,0.0,0.0,0.0,64.11398,4.0107,23.0902,10.66,-1.29,-0.59,2.0
1758075514.4168,1758075514.3949,0.0,0.0,0.0,61.76485,10.37054,20.45459,10.66,-1.29,-0.59,2.0
1758075514.43331,1758075514.4049,0.0,0.0,0.0,60.10328,10.02676,17.76169,11.14,-1.24,0.19,2.0
1758075514.43482,1758075514.4149,0.0,0.0,0.0,62.28051,-25.15285,16.84496,11.14,-1.24,0.19,2.0
1758075514.44977,1758075514.4249,0.0,0.0,0.0,67.66632,-74.54182,22.28806,6.98,-1.76,-0.39,2.0
1758075514.45102,1758075514.4349,0.0,0.0,0.0,69.95815,-78.66711,26.81443,10.11,-3.02,-1.43,2.0
1758075514.46557,1758075514.4449,0.0,0.0,0.0,69.95815,-72.36457,25.7831,10.11,-3.02,-1.43,2.0
1758075514.48175,1758075514.4549,0.0,0.0,0.0,67.78091,-80.78706,26.52795,11.68,-3.12,2.2,2.0
1758075514.48279,1758075514.4649,0.0,0.0,0.0,59.47303,-104.50751,32.08564,11.68,-3.12,2.2,2.0
1758075514.49768,1758075514.4749,0.0,0.0,0.0,50.3057,-110.92463,37.98711,13.84,-0.32,4.93,2.0
1758075514.49914,1758075514.4849,0.0,0.0,0.0,40.7373,-108.00255,43.4875,13.84,-0.32,4.93,2.0
1758075514.51451,1758075514.4949,0.0,0.0,0.0,26.98631,-101.24165,45.03448,17.94,4.92,0.99,2.0
1758075514.53055,1758075514.5049,0.0,0.0,0.0,19.76705,-94.82452,42.22699,15.04,4.89,-1.17,2.0
1758075514.5318,1758075514.5149,0.0,0.0,0.0,17.18874,-82.56322,35.00772,15.04,4.89,-1.17,2.0
1758075514.54845,1758075514.5249,0.0,0.0,0.0,22.91831,-73.51049,27.96034,9.78,0.21,0.27,2.0
1758075514.54938,1758075514.5349,0.0,0.0,0.0,46.69606,-57.41038,15.58445,9.78,0.21,0.27,2.0
1758075514.56487,1758075514.5449,0.0,0.0,0.0,51.90998,-52.02457,3.83882,7.86,-2.66,2.02,2.0
1758075514.58066,1758075514.5549,0.0,0.0,0.0,55.7488,-47.72739,-6.24524,7.86,-2.66,2.02,2.0
1758075514.58256,1758075514.5649,0.0,0.0,0.0,59.70221,-39.4768,-15.41257,7.21,-1.97,0.32,2.0
1758075514.59838,1758075514.5749,0.0,0.0,0.0,68.52576,-23.31938,-19.36597,9.3,-1.97,2.42,2.0
1758075514.59959,1758075514.5849,0.0,0.0,0.0,74.59911,-14.03747,-17.99088,9.3,-0.68,2.42,2.0
1758075514.61571,1758075514.5949,0.0,0.0,0.0,80.72976,-3.95341,-13.34992,9.94,1.05,0.81,2.0
1758075514.63162,1758075514.6049,0.0,0.0,0.0,85.31342,10.65701,-7.04738,9.94,1.05,0.81,2.0
1758075514.63365,1758075514.6149,0.0,0.0,0.0,87.77714,33.80451,2.40642,11.5,2.82,-0.62,2.0
1758075514.64891,1758075514.6249,0.0,0.0,0.0,86.17285,48.01387,7.16197,11.5,2.82,-0.62,2.0
1758075514.65177,1758075514.6349,0.0,0.0,0.0,81.76109,62.91077,9.4538,11.7,3.67,-0.86,2.0
1758075514.66826,1758075514.6449,0.0,0.0,0.0,76.60446,72.13539,10.54242,11.7,3.67,-0.86,2.0
1758075514.66947,1758075514.6549,0.0,0.0,0.0,68.06739,75.05748,9.5684,10.13,2.93,-0.6,2.0
1758075514.68477,1758075514.6649,0.0,0.0,0.0,62.68159,74.31263,8.25059,8.75,1.93,-0.11,2.0
1758075514.70267,1758075514.6749,0.0,0.0,0.0,57.41038,74.31263,5.72958,8.75,1.93,-0.11,2.0
1758075514.70389,1758075514.6849,0.0,0.0,0.0,52.36834,73.10942,2.6929,8.97,1.61,0.0,2.0
1758075514.71879,1758075514.6949,0.0,0.0,0.0,45.03448,67.09336,-0.74485,8.97,1.61,0.0,2.0
1758075514.71992,1758075514.7049,0.0,0.0,0.0,39.4768,63.94209,-3.26586,8.76,2.0,0.25,2.0
1758075514.73508,1758075514.7149,0.0,0.0,0.0,33.40344,62.28051,-5.27121,8.76,2.0,0.25,2.0
1758075514.75388,1758075514.7249,0.0,0.0,0.0,23.31938,58.21251,-7.50575,8.95,2.6,0.17,2.0
1758075514.75477,1758075514.7349,0.0,0.0,0.0,15.69904,53.80074,-8.99544,8.85,2.88,0.31,2.0
1758075514.76976,1758075514.7449,0.0,0.0,0.0,8.25059,46.98254,-11.17268,8.85,2.88,0.31,2.0
1758075514.77138,1758075514.7549,0.0,0.0,0.0,1.14592,37.01308,-12.08941,8.92,2.77,0.24,2.0
1758075514.78575,1758075514.7649,0.0,0.0,0.0,-11.63104,28.41871,-17.30333,8.92,2.77,0.24,2.0
1758075514.80314,1758075514.7749,0.0,0.0,0.0,-19.07949,22.11617,-19.59516,9.18,2.63,0.42,2.0
1758075514.80424,1758075514.7849,0.0,0.0,0.0,-26.12688,16.3293,-22.28806,9.18,2.63,0.42,2.0
1758075514.81909,1758075514.7949,0.0,0.0,0.0,-31.97105,10.31324,-23.54857,9.3,2.46,0.33,2.0
1758075514.82002,1758075514.8049,0.0,0.0,0.0,-38.50277,0.0,-23.83505,9.33,2.26,0.19,2.0
1758075514.83747,1758075514.8149,0.0,0.0,0.0,-41.31026,-7.33386,-22.74642,9.33,2.26,0.19,2.0
1758075514.85309,1758075514.8249,0.0,0.0,0.0,-42.62806,-11.80293,-20.74107,9.42,1.86,-0.13,2.0
1758075514.85439,1758075514.8349,0.0,0.0,0.0,-42.91454,-12.43318,-18.10547,9.42,1.86,-0.13,2.0
1758075514.86914,1758075514.8449,0.0,0.0,0.0,-41.94051,-10.02676,-13.46451,9.96,1.25,-0.5,2.0
1758075514.8708,1758075514.8549,0.0,0.0,0.0,-41.02378,-10.65701,-10.31324,9.96,1.25,-0.5,2.0
1758075514.88583,1758075514.8649,0.0,0.0,0.0,-40.27893,-14.09476,-7.39116,9.65,0.68,-0.54,2.0
1758075514.90286,1758075514.8749,0.0,0.0,0.0,-40.10705,-15.0115,-4.69825,9.65,0.68,-0.54,2.0
1758075514.90408,1758075514.8849,0.0,0.0,0.0,-41.71133,17.36062,-2.29183,10.03,0.32,-1.01,2.0
1758075514.91917,1758075514.8949,0.0,0.0,0.0,-40.96649,31.85646,1.14592,12.07,0.37,-0.92,2.0
1758075514.92008,1758075514.9049,0.0,0.0,0.0,-45.83662,25.15285,-2.34913,12.07,0.37,-0.92,2.0
1758075514.93596,1758075514.9149,0.0,0.0,0.0,-48.70141,13.40721,-3.09397,8.88,1.37,-0.89,2.0
1758075514.9532,1758075514.9249,0.0,0.0,0.0,-54.3737,-10.08406,-5.78687,8.88,1.37,-0.89,2.0
1758075514.95409,1758075514.9349,0.0,0.0,0.0,-57.75415,-8.02141,-7.04738,8.93,2.29,-1.95,2.0
1758075514.9691,1758075514.9449,0.0,0.0,0.0,-60.50434,0.68755,-6.18794,8.93,2.29,-1.95,2.0
1758075514.9721,1758075514.9549,0.0,0.0,0.0,-63.99939,10.8289,-4.1253,11.31,2.62,-1.29,2.0
1758075514.98725,1758075514.9649,0.0,0.0,0.0,-65.37449,10.65701,-2.63561,10.79,2.6,-0.31,2.0
1758075514.98888,1758075514.9749,0.0,0.0,0.0,-64.80153,3.72423,-1.83346,10.79,2.6,-0.31,2.0
1758075515.00577,1758075514.9849,0.0,0.0,0.0,-63.25455,-9.4538,-2.6929,10.03,2.23,1.01,2.0
1758075515.02243,1758075514.9949,0.0,0.0,0.0,-59.24384,-26.12688,-6.7609,10.03,2.23,1.01,2.0
1758075515.02317,1758075515.0049,0.0,0.0,0.0,-55.06125,-30.65324,-11.74564,12.43,1.09,2.56,2.0
1758075515.03827,1758075515.0149,0.0,0.0,0.0,-48.8733,-27.61657,-16.55848,12.43,1.09,2.56,2.0
1758075515.03946,1758075515.0249,0.0,0.0,0.0,-40.7373,-20.51189,-19.82434,16.4,-0.84,2.14,2.0
1758075515.0553,1758075515.0349,0.0,0.0,0.0,-27.1582,-15.46986,-19.99623,14.38,-1.94,0.13,2.0
1758075515.07135,1758075515.0449,0.0,0.0,0.0,-19.59516,-20.68378,-17.76169,14.38,-1.94,0.13,2.0
1758075515.07333,1758075515.0549,0.0,0.0,0.0,-14.03747,-28.99167,-14.38124,8.68,-1.38,-1.19,2.0
1758075515.0891,1758075515.0649,0.0,0.0,0.0,-10.71431,-35.63798,-10.8289,8.68,-1.38,-1.19,2.0
1758075515.09001,1758075515.0749,0.0,0.0,0.0,-8.99544,-43.83128,-6.8182,6.86,-0.62,-1.02,2.0
1758075515.1054,1758075515.0849,0.0,0.0,0.0,-10.25595,-48.75871,-5.50039,6.86,-0.62,-1.02,2.0
1758075515.12109,1758075515.0949,0.0,0.0,0.0,-13.00614,-54.77477,-5.21392,7.46,0.26,0.46,2.0
1758075515.12228,1758075515.1049,0.0,0.0,0.0,-16.90226,-60.90542,-5.90147,7.46,0.26,0.46,2.0
1758075515.14002,1758075515.1149,0.0,0.0,0.0,-25.43933,-68.75494,-7.50575,8.71,1.24,2.26,2.0
1758075515.15336,1758075515.1249,0.0,0.0,0.0,-32.71589,-72.76565,-8.76626,9.64,1.94,3.04,2.0
1758075515.1543,1758075515.1349,0.0,0.0,0.0,-41.65404,-74.7137,-10.19865,9.64,1.94,3.04,2.0
1758075515.16914,1758075515.1449,0.0,0.0,0.0,-55.86338,-72.19269,-11.00079,9.75,1.92,2.55,2.0
1758075515.1703,1758075515.1549,0.0,0.0,0.0,-65.03072,-66.74959,-10.8289,9.75,1.92,2.55,2.0
1758075515.18538,1758075515.1649,0.0,0.0,0.0,-72.76565,-58.55629,-9.91217,9.64,1.04,0.97,2.0
1758075515.20136,1758075515.1749,0.0,0.0,0.0,-78.839,-47.32632,-8.70896,9.64,1.04,0.97,2.0
1758075515.20255,1758075515.1849,0.0,0.0,0.0,-83.19347,-26.87172,-5.84417,10.14,-0.22,0.13,2.0
1758075515.21741,1758075515.1949,0.0,0.0,0.0,-83.30807,-11.45916,-3.89611,11.14,-1.5,-0.4,2.0
1758075515.2334,1758075515.2049,0.0,0.0,0.0,-81.93298,4.52637,-2.23454,11.14,-1.5,-0.4,2.0
1758075515.23433,1758075515.2149,0.0,0.0,0.0,-79.92762,20.62648,-0.57296,11.81,-2.1,-1.04,2.0
1758075515.24954,1758075515.2249,0.0,0.0,0.0,-75.80232,42.22699,2.00535,11.81,-2.1,-1.04,2.0
1758075515.25117,1758075515.2349,0.0,0.0,0.0,-72.88023,55.97798,3.95341,11.42,-1.77,-1.11,2.0
1758075515.26645,1758075515.2449,0.0,0.0,0.0,-70.58841,67.60902,5.32851,11.42,-1.77,-1.11,2.0
1758075515.28252,1758075515.2549,0.0,0.0,0.0,-68.69764,77.63579,6.07335,10.58,-0.93,-0.83,2.0
1758075515.28341,1758075515.2649,0.0,0.0,0.0,-66.5204,88.35009,5.50039,9.9,-0.16,-0.5,2.0
1758075515.29844,1758075515.2749,0.0,0.0,0.0,-65.43179,91.55866,3.83882,9.9,-0.16,-0.5,2.0
1758075515.29969,1758075515.2849,0.0,0.0,0.0,-64.62964,92.53268,1.60428,9.17,0.19,-0.32,2.0
1758075515.31533,1758075515.2949,0.0,0.0,0.0,-64.17127,90.41274,-1.66158,9.17,0.19,-0.32,2.0
1758075515.33131,1758075515.3049,0.0,0.0,0.0,-62.16592,81.99026,-7.04738,8.54,0.1,0.11,2.0
1758075515.33361,1758075515.3149,0.0,0.0,0.0,-59.53032,75.05748,-10.31324,8.54,0.1,0.11,2.0
1758075515.34911,1758075515.3249,0.0,0.0,0.0,-55.86338,67.66632,-13.23533,8.2,-0.54,0.04,2.0
1758075515.35025,1758075515.3349,0.0,0.0,0.0,-50.82136,58.84277,-16.04282,8.2,-0.54,0.04,2.0
1758075515.36527,1758075515.3449,0.0,0.0,0.0,-39.70598,45.14908,-15.87093,8.27,-1.75,0.19,2.0
1758075515.38135,1758075515.3549,0.0,0.0,0.0,-29.8511,37.29956,-11.86023,8.75,-3.36,-0.19,2.0
1758075515.3825,1758075515.3649,0.0,0.0,0.0,-18.27736,31.39809,-5.15662,8.75,-3.36,-0.19,2.0
1758075515.39736,1758075515.3749,0.0,0.0,0.0,0.51566,22.97561,7.50575,9.11,-4.71,-0.63,2.0
1758075515.4136,1758075515.3849,0.0,0.0,0.0,12.08941,20.34,15.98552,9.11,-4.71,-0.63,2.0
1758075515.41454,1758075515.3949,0.0,0.0,0.0,22.28806,18.73572,23.20479,9.62,-5.0,-0.94,2.0
1758075515.42961,1758075515.4049,0.0,0.0,0.0,31.45539,16.84496,28.476,9.62,-5.0,-0.94,2.0
1758075515.43051,1758075515.4149,0.0,0.0,0.0,42.28429,12.49048,33.00237,9.86,-3.91,-0.82,2.0
1758075515.44612,1758075515.4249,0.0,0.0,0.0,47.67009,5.90147,34.66395,9.6,-2.7,-1.1,2.0
1758075515.46255,1758075515.4349,0.0,0.0,0.0,50.82136,-5.61499,34.32018,9.6,-2.7,-1.1,2.0
1758075515.46353,1758075515.4449,0.0,0.0,0.0,53.68615,-16.10011,32.54401,8.92,-1.84,-1.6,2.0
1758075515.47864,1758075515.4549,0.0,0.0,0.0,55.97798,-17.53251,27.67386,8.92,-1.84,-1.6,2.0
1758075515.47979,1758075515.4649,0.0,0.0,0.0,57.18119,-10.37054,23.0329,10.2,-1.27,-1.45,2.0
1758075515.49536,1758075515.4749,0.0,0.0,0.0,58.15522,-6.47442,22.28806,10.2,-1.27,-1.45,2.0
1758075515.51371,1758075515.4849,0.0,0.0,0.0,56.32175,3.49504,17.01685,10.82,-1.04,-0.98,2.0
1758075515.51461,1758075515.4949,0.0,0.0,0.0,52.19646,13.46451,11.63104,11.45,-0.78,-0.37,2.0
1758075515.52967,1758075515.5049,0.0,0.0,0.0,51.73809,-1.48969,5.27121,11.45,-0.78,-0.37,2.0
1758075515.5306,1758075515.5149,0.0,0.0,0.0,51.73809,-36.15364,2.92208,7.2,-0.93,-1.11,2.0
1758075515.54568,1758075515.5249,0.0,0.0,0.0,50.93595,-63.48372,4.0107,7.2,-0.93,-1.11,2.0
1758075515.56147,1758075515.5349,0.0,0.0,0.0,53.68615,-65.2599,6.47442,9.34,-1.69,-2.2,2.0
1758075515.56263,1758075515.5449,0.0,0.0,0.0,54.431,-58.72818,7.44845,9.34,-1.69,-2.2,2.0
1758075515.57747,1758075515.5549,0.0,0.0,0.0,54.02992,-64.62964,6.35983,10.87,-2.44,-0.91,2.0
1758075515.5937,1758075515.5649,0.0,0.0,0.0,48.70141,-85.54259,7.10468,10.87,-2.44,-0.91,2.0
1758075515.59492,1758075515.5749,0.0,0.0,0.0,41.59674,-103.47618,12.2613,9.49,-2.29,2.41,2.0
1758075515.60974,1758075515.5849,0.0,0.0,0.0,33.34615,-120.43572,21.37133,13.12,0.88,4.11,2.0
1758075515.61143,1758075515.5949,0.0,0.0,0.0,26.52795,-128.97281,34.0337,13.12,0.88,4.11,2.0
1758075515.62649,1758075515.6049,0.0,0.0,0.0,20.11082,-114.53426,47.15443,18.15,6.09,2.02,2.0
1758075515.64371,1758075515.6149,0.0,0.0,0.0,23.83505,-106.11179,51.27972,18.15,6.09,2.02,2.0
1758075515.64478,1758075515.6249,0.0,0.0,0.0,26.98631,-108.05984,50.1911,15.11,3.66,1.7,2.0
1758075515.65984,1758075515.6349,0.0,0.0,0.0,29.33544,-111.44029,44.8053,15.11,3.66,1.7,2.0
1758075515.66148,1758075515.6449,0.0,0.0,0.0,37.18496,-100.95516,33.11696,8.57,-0.05,1.6,2.0
1758075515.67764,1758075515.6549,0.0,0.0,0.0,43.14373,-84.28209,20.68378,7.93,-1.25,1.91,2.0
1758075515.68048,1758075515.6649,0.0,0.0,0.0,51.10783,-72.19269,9.5684,7.93,-1.25,1.91,2.0
1758075515.69944,1758075515.6749,0.0,0.0,0.0,59.18654,-62.28051,-1.71887,6.65,-1.57,2.51,2.0
1758075515.70067,1758075515.6849,0.0,0.0,0.0,72.88023,-42.05511,-13.75099,6.65,-1.57,2.51,2.0
1758075515.71657,1758075515.6949,0.0,0.0,0.0,81.24542,-23.83505,-18.27736,7.76,-2.09,0.85,2.0
1758075515.73359,1758075515.7049,0.0,0.0,0.0,86.45934,-2.86479,-21.31403,7.76,-2.09,0.85,2.0
1758075515.73483,1758075515.7149,0.0,0.0,0.0,89.43871,18.44924,-23.26209,11.17,-1.63,-1.07,2.0
1758075515.74964,1758075515.7249,0.0,0.0,0.0,87.37608,53.45696,-23.49127,14.89,0.79,-2.83,2.0
1758075515.75191,1758075515.7349,0.0,0.0,0.0,83.30807,70.58841,-21.37133,14.89,0.79,-2.83,2.0
1758075515.76691,1758075515.7449,0.0,0.0,0.0,79.18277,80.04221,-17.36062,14.1,2.99,-2.62,2.0
1758075515.78281,1758075515.7549,0.0,0.0,0.0,74.88559,85.82908,-9.74028,14.1,2.99,-2.62,2.0
1758075515.78408,1758075515.7649,0.0,0.0,0.0,69.67168,93.27753,-4.87014,11.24,2.74,-1.22,2.0
1758075515.79885,1758075515.7749,0.0,0.0,0.0,66.40582,98.14767,-0.40107,11.24,2.74,-1.22,2.0
1758075515.80148,1758075515.7849,0.0,0.0,0.0,62.22322,101.18435,3.72423,9.5,1.9,-0.43,2.0
1758075515.81849,1758075515.7949,0.0,0.0,0.0,53.74345,102.78864,8.02141,9.5,1.9,-0.43,2.0
1758075515.81997,1758075515.8049,0.0,0.0,0.0,46.35228,102.55945,8.99544,8.45,1.81,-0.11,2.0
1758075515.836,1758075515.8149,0.0,0.0,0.0,37.75792,101.35624,8.65166,8.27,2.11,0.0,2.0
1758075515.85373,1758075515.8249,0.0,0.0,0.0,29.39274,94.65263,7.16197,8.27,2.11,0.0,2.0
1758075515.85496,1758075515.8349,0.0,0.0,0.0,14.09476,88.57928,-0.11459,8.31,2.27,0.0,2.0
1758075515.86998,1758075515.8449,0.0,0.0,0.0,4.52637,81.01624,-5.4431,8.31,2.27,0.0,2.0
1758075515.87211,1758075515.8549,0.0,0.0,0.0,-4.64096,74.65641,-12.37589,8.43,2.44,0.12,2.0
1758075515.88678,1758075515.8649,0.0,0.0,0.0,-13.00614,66.635,-18.50654,8.43,2.44,0.12,2.0
1758075515.90304,1758075515.8749,0.0,0.0,0.0,-23.49127,46.63877,-26.01229,8.48,2.66,0.11,2.0
1758075515.90396,1758075515.8849,0.0,0.0,0.0,-28.24682,29.9084,-28.476,7.88,2.6,-0.02,2.0
1758075515.91879,1758075515.8949,0.0,0.0,0.0,-32.14294,16.90226,-28.99167,7.88,2.6,-0.02,2.0
1758075515.91992,1758075515.9049,0.0,0.0,0.0,-35.00772,8.42248,-28.70519,8.72,2.24,-0.37,2.0
1758075515.93601,1758075515.9149,0.0,0.0,0.0,-39.24761,7.33386,-24.5226,8.72,2.24,-0.37,2.0
1758075515.95205,1758075515.9249,0.0,0.0,0.0,-41.71133,11.57375,-20.97026,10.18,1.73,-0.33,2.0
1758075515.95324,1758075515.9349,0.0,0.0,0.0,-44.748,18.85031,-19.99623,10.18,1.73,-0.33,2.0
1758075515.96806,1758075515.9449,0.0,0.0,0.0,-45.43555,23.94964,-17.24603,10.59,1.27,-0.83,2.0
1758075515.98412,1758075515.9549,0.0,0.0,0.0,-47.44091,39.07573,-13.06344,10.42,1.3,-0.79,2.0
1758075515.98497,1758075515.9649,0.0,0.0,0.0,-47.49821,9.4538,-10.8862,10.42,1.3,-0.79,2.0
1758075516.0001,1758075515.9749,0.0,0.0,0.0,-50.363,-22.97561,-10.71431,5.52,1.54,-1.58,2.0
1758075516.00101,1758075515.9849,0.0,0.0,0.0,-53.97263,-39.13302,-9.68299,5.52,1.54,-1.58,2.0
1758075516.01613,1758075515.9949,0.0,0.0,0.0,-55.6915,-38.56006,-6.35983,8.2,1.86,-3.04,2.0
1758075516.03402,1758075516.0049,0.0,0.0,0.0,-57.86874,-34.09099,-3.66693,8.2,1.86,-3.04,2.0
1758075516.03701,1758075516.0149,0.0,0.0,0.0,-59.70221,-34.14828,-0.11459,8.88,2.01,-2.01,2.0
1758075516.054,1758075516.0249,0.0,0.0,0.0,-58.67088,-54.3164,3.60963,8.88,2.01,-2.01,2.0
1758075516.05502,1758075516.0349,0.0,0.0,0.0,-55.6342,-83.02158,1.3178,7.99,2.2,1.06,2.0
1758075516.06998,1758075516.0449,0.0,0.0,0.0,-51.27972,-103.07512,-6.70361,11.04,1.74,5.69,2.0
1758075516.07143,1758075516.0549,0.0,0.0,0.0,-43.02913,-102.27297,-18.73572,11.04,1.74,5.69,2.0
1758075516.08598,1758075516.0649,0.0,0.0,0.0,-28.41871,-81.70379,-34.49206,21.58,-2.48,4.25,2.0
1758075516.10197,1758075516.0749,0.0,0.0,0.0,-19.76705,-66.5204,-37.01308,21.58,-2.48,4.25,2.0
1758075516.10337,1758075516.0849,0.0,0.0,0.0,-14.43854,-73.68237,-35.06502,18.51,-4.41,1.41,2.0
1758075516.11872,1758075516.0949,0.0,0.0,0.0,-11.45916,-92.41809,-30.93972,18.51,-4.41,1.41,2.0
1758075516.12014,1758075516.1049,0.0,0.0,0.0,-13.23533,-97.23093,-24.5226,8.35,-2.09,0.93,2.0
1758075516.13768,1758075516.1149,0.0,0.0,0.0,-19.82434,-85.48531,-19.25138,8.88,-0.15,1.67,2.0
1758075516.15396,1758075516.1249,0.0,0.0,0.0,-30.36677,-77.12012,-15.24068,8.88,-0.15,1.67,2.0
1758075516.15905,1758075516.1349,0.0,0.0,0.0,-41.88322,-70.76029,-11.45916,9.02,1.4,2.1,2.0
1758075516.17393,1758075516.1449,0.0,0.0,0.0,-59.64491,-60.50434,-7.73493,9.02,1.4,2.1,2.0
1758075516.17516,1758075516.1549,0.0,0.0,0.0,-68.58305,-52.19646,-5.72958,10.08,2.13,0.61,2.0
1758075516.19001,1758075516.1649,0.0,0.0,0.0,-74.08345,-39.87786,-3.09397,10.08,2.13,0.61,2.0
1758075516.19118,1758075516.1749,0.0,0.0,0.0,-75.91692,-26.01229,1.20321,13.07,1.69,-0.13,2.0
1758075516.206,1758075516.1849,0.0,0.0,0.0,-72.42187,-3.38045,4.69825,14.09,-0.14,-1.04,2.0
1758075516.222,1758075516.1949,0.0,0.0,0.0,-66.97877,12.204,8.30789,14.09,-0.14,-1.04,2.0
1758075516.2232,1758075516.2049,0.0,0.0,0.0,-60.50434,27.73116,12.08941,11.98,-2.09,-1.45,2.0
1758075516.23837,1758075516.2149,0.0,0.0,0.0,-50.82136,48.12846,16.55848,11.98,-2.09,-1.45,2.0
1758075516.25404,1758075516.2249,0.0,0.0,0.0,-44.9199,57.86874,18.50654,8.98,-2.93,-0.92,2.0
1758075516.25477,1758075516.2349,0.0,0.0,0.0,-39.53409,65.08801,18.9649,8.98,-2.93,-0.92,2.0
1758075516.27113,1758075516.2449,0.0,0.0,0.0,-34.77854,70.18733,17.99088,6.98,-2.96,-0.54,2.0
1758075516.27314,1758075516.2549,0.0,0.0,0.0,-28.36141,76.77635,15.12609,6.98,-2.96,-0.62,2.0
1758075516.28837,1758075516.2649,0.0,0.0,0.0,-25.09555,80.04221,12.89155,6.86,-2.63,-0.62,2.0
1758075516.30431,1758075516.2749,0.0,0.0,0.0,-22.40265,81.30271,10.65701,7.57,-1.94,-0.76,2.0
1758075516.30472,1758075516.2849,0.0,0.0,0.0,-20.97026,79.06818,8.30789,7.57,-1.94,-0.76,2.0
1758075516.32013,1758075516.2949,0.0,0.0,0.0,-19.59516,70.30193,4.23989,7.96,-1.12,-0.41,2.0
1758075516.32313,1758075516.3049,0.0,0.0,0.0,-18.62113,63.8275,2.06265,7.96,-1.12,-0.41,2.0
1758075516.33845,1758075516.3149,0.0,0.0,0.0,-16.95955,58.15522,0.57296,8.95,-0.41,-0.02,2.0
1758075516.3541,1758075516.3249,0.0,0.0,0.0,-15.0115,52.82671,0.57296,8.95,-0.41,-0.02,2.0
1758075516.35469,1758075516.3349,0.0,0.0,0.0,-10.25595,44.8053,2.7502,9.86,-0.22,0.3,2.0
1758075516.37015,1758075516.3449,0.0,0.0,0.0,-4.87014,37.29956,5.90147,9.71,-0.77,0.25,2.0
1758075516.37132,1758075516.3549,0.0,0.0,0.0,0.97403,28.99167,9.62569,9.71,-0.77,0.25,2.0
1758075516.38636,1758075516.3649,0.0,0.0,0.0,6.99009,22.63183,13.17803,9.39,-1.81,-0.2,2.0
1758075516.40313,1758075516.3749,0.0,0.0,0.0,15.87093,19.07949,16.272,9.39,-1.81,-0.2,2.0
1758075516.40376,1758075516.3849,0.0,0.0,0.0,21.37133,15.35527,16.90226,9.47,-2.52,-0.37,2.0
1758075516.41916,1758075516.3949,0.0,0.0,0.0,26.12688,10.25595,16.55848,9.47,-2.52,-0.37,2.0
1758075516.42067,1758075516.4049,0.0,0.0,0.0,32.20023,4.0107,15.29797,8.91,-2.55,-0.5,2.0
1758075516.43708,1758075516.4149,0.0,0.0,0.0,35.00772,-8.47978,13.23533,8.47,-2.08,-0.89,2.0
1758075516.43876,1758075516.4249,0.0,0.0,0.0,38.15899,-15.58445,11.57375,8.47,-2.08,-0.89,2.0
1758075516.4559,1758075516.4349,0.0,0.0,0.0,40.10705,-15.69904,8.42248,9.02,-1.51,-0.95,2.0
1758075516.47147,1758075516.4449,0.0,0.0,0.0,44.9199,-8.36518,6.24524,9.02,-1.51,-0.95,2.0
1758075516.47238,1758075516.4549,0.0,0.0,0.0,47.49821,1.3178,6.18794,10.2,-1.23,-0.56,2.0
1758075516.48827,1758075516.4649,0.0,0.0,0.0,48.8733,22.40265,6.70361,10.2,-1.23,-0.56,2.0
1758075516.48925,1758075516.4749,0.0,0.0,0.0,49.15978,34.77854,4.1253,12.1,-1.04,0.12,2.0
1758075516.50558,1758075516.4849,0.0,0.0,0.0,51.73809,-7.62034,0.51566,7.9,-1.04,0.02,2.0
1758075516.52146,1758075516.4949,0.0,0.0,0.0,53.91533,-47.26902,1.43239,7.9,-0.95,0.02,2.0
1758075516.52283,1758075516.5049,0.0,0.0,0.0,55.40502,-64.45775,7.62034,8.88,-1.77,-1.58,2.0
1758075516.53747,1758075516.5149,0.0,0.0,0.0,57.41038,-57.18119,12.2613,8.88,-1.77,-1.58,2.0
1758075516.53921,1758075516.5249,0.0,0.0,0.0,57.63955,-46.63877,14.49583,12.89,-2.17,-0.49,2.0
1758075516.55564,1758075516.5349,0.0,0.0,0.0,57.23849,-44.11775,14.49583,12.89,-2.17,-0.49,2.0
1758075516.57391,1758075516.5449,0.0,0.0,0.0,55.11855,-42.34158,13.00614,11.61,-1.97,-0.38,2.0
1758075516.5783,1758075516.5549,0.0,0.0,0.0,52.36834,-41.71133,9.96947,11.61,-1.97,-0.38,2.0
1758075516.58,1758075516.5649,0.0,0.0,0.0,48.30034,-41.02378,2.6929,10.89,-1.38,-0.96,2.0
1758075516.59654,1758075516.5749,0.0,0.0,0.0,46.75336,-38.73195,-2.23454,10.33,-0.76,-1.53,2.0
1758075516.59907,1758075516.5849,0.0,0.0,0.0,46.1231,-35.2942,-6.7609,10.33,-0.76,-1.53,2.0
1758075516.61999,1758075516.5949,0.0,0.0,0.0,45.83662,-33.86181,-11.97482,10.67,-0.5,-0.15,2.0
1758075516.62109,1758075516.6049,0.0,0.0,0.0,45.20637,-32.48671,-13.12073,10.67,-0.5,-0.15,2.0
1758075516.63758,1758075516.6149,0.0,0.0,0.0,43.20102,-31.51268,-12.60507,12.05,-0.25,1.01,2.0
1758075516.63853,1758075516.6249,0.0,0.0,0.0,40.62271,-39.13302,-9.39651,12.05,-0.25,1.01,2.0
1758075516.65463,1758075516.6349,0.0,0.0,0.0,36.7266,-55.57691,0.34377,13.07,0.33,1.03,2.0
1758075516.67163,1758075516.6449,0.0,0.0,0.0,34.60666,-56.89471,7.10468,13.96,0.49,0.69,2.0
1758075516.67415,1758075516.6549,0.0,0.0,0.0,31.85646,-52.08187,11.80293,13.96,0.49,0.69,2.0
1758075516.68968,1758075516.6649,0.0,0.0,0.0,28.99167,-48.24305,14.72501,13.53,0.33,0.32,2.0
1758075516.69333,1758075516.6749,0.0,0.0,0.0,25.38203,-47.09713,15.87093,13.53,0.33,0.32,2.0
1758075516.70844,1758075516.6849,0.0,0.0,0.0,24.35071,-48.35764,15.24068,10.21,-0.15,0.59,2.0
1758075516.70963,1758075516.6949,0.0,0.0,0.0,24.12152,-43.31561,11.74564,10.21,-0.15,0.59,2.0
1758075516.72473,1758075516.7049,0.0,0.0,0.0,26.64254,-37.64333,7.84952,8.14,-0.59,0.94,2.0
1758075516.74174,1758075516.7149,0.0,0.0,0.0,34.49206,-24.5226,1.66158,7.71,-0.91,1.87,2.0
1758075516.74266,1758075516.7249,0.0,0.0,0.0,41.71133,-15.98552,-1.60428,7.71,-0.91,1.87,2.0
1758075516.75771,1758075516.7349,0.0,0.0,0.0,49.27437,-7.96411,-3.09397,7.72,-1.27,1.58,2.0
1758075516.75895,1758075516.7449,0.0,0.0,0.0,56.14987,0.85944,-3.09397,7.72,-1.27,1.58,2.0
1758075516.77477,1758075516.7549,0.0,0.0,0.0,62.91077,15.75634,-0.80214,8.91,-1.24,1.32,2.0
1758075516.79047,1758075516.7649,0.0,0.0,0.0,63.54102,26.52795,1.14592,8.91,-1.24,1.32,2.0
1758075516.79167,1758075516.7749,0.0,0.0,0.0,60.73353,40.50812,3.55234,11.34,0.1,0.62,2.0
1758075516.80825,1758075516.7849,0.0,0.0,0.0,54.25911,53.17049,4.81285,11.34,0.1,0.62,2.0
1758075516.81011,1758075516.7949,0.0,0.0,0.0,40.50812,59.64491,6.99009,12.95,2.5,-0.36,2.0
1758075516.82574,1758075516.8049,0.0,0.0,0.0,30.13758,58.72818,6.87549,11.56,3.74,-0.32,2.0
1758075516.84164,1758075516.8149,0.0,0.0,0.0,19.70975,59.01466,5.32851,11.56,3.74,-0.32,2.0
1758075516.84377,1758075516.8249,0.0,0.0,0.0,6.41713,58.78547,1.08862,10.25,3.12,-0.04,2.0
1758075516.85878,1758075516.8349,0.0,0.0,0.0,-1.20321,57.63955,-2.06265,10.25,3.12,-0.04,2.0
1758075516.85976,1758075516.8449,0.0,0.0,0.0,-7.96411,54.3737,-5.21392,8.66,2.08,0.36,2.0
1758075516.87479,1758075516.8549,0.0,0.0,0.0,-13.86558,48.35764,-7.84952,8.66,2.08,0.36,2.0
1758075516.87924,1758075516.8649,0.0,0.0,0.0,-22.00158,37.52874,-10.54242,7.49,1.57,0.63,2.0
1758075516.89479,1758075516.8749,0.0,0.0,0.0,-27.1582,30.02299,-11.63104,7.46,1.56,0.56,2.0
1758075516.91167,1758075516.8849,0.0,0.0,0.0,-32.6013,23.31938,-12.54778,7.46,1.56,0.56,2.0
1758075516.91255,1758075516.8949,0.0,0.0,0.0,-38.1017,16.04282,-13.5791,8.02,1.77,0.49,2.0
1758075516.92778,1758075516.9049,0.0,0.0,0.0,-45.77933,-1.60428,-13.75099,8.02,1.77,0.49,2.0
1758075516.92878,1758075516.9149,0.0,0.0,0.0,-53.28508,-6.07335,-18.22006,8.27,1.96,0.32,2.0
1758075516.94489,1758075516.9249,0.0,0.0,0.0,-58.55629,-11.80293,-19.53786,8.27,1.96,0.32,2.0
1758075516.96175,1758075516.9349,0.0,0.0,0.0,-63.8275,-14.72501,-22.23076,8.83,2.1,0.22,2.0
1758075516.96291,1758075516.9449,0.0,0.0,0.0,-69.15601,-18.62113,-23.26209,9.3,1.88,0.11,2.0
1758075516.97783,1758075516.9549,0.0,0.0,0.0,-71.90621,-18.9649,-23.0329,9.3,1.88,0.11,2.0
1758075516.9792,1758075516.9649,0.0,0.0,0.0,-73.62508,-18.10547,-22.05888,10.15,1.37,0.18,2.0
1758075516.9965,1758075516.9749,0.0,0.0,0.0,-74.59911,-16.55848,-20.79837,10.15,1.37,0.18,2.0
1758075517.00172,1758075516.9849,0.0,0.0,0.0,-74.36993,-13.46451,-17.6471,10.54,0.8,-0.18,2.0
1758075517.02428,1758075516.9949,0.0,0.0,0.0,-73.62508,-11.17268,-15.58445,10.54,0.8,-0.18,2.0
1758075517.02957,1758075517.0049,0.0,0.0,0.0,-72.30728,-9.74028,-13.5218,10.33,0.24,-0.57,2.0
1758075517.03061,1758075517.0149,0.0,0.0,0.0,-70.81759,-11.34457,-11.28727,10.33,0.24,-0.57,2.0
1758075517.04774,1758075517.0249,0.0,0.0,0.0,-68.86953,-16.67307,-10.25595,9.53,-0.04,-1.03,2.0
1758075517.04887,1758075517.0349,0.0,0.0,0.0,-66.97877,-18.56383,-9.22462,9.1,-0.14,-1.2,2.0
1758075517.06497,1758075517.0449,0.0,0.0,0.0,-66.80688,-12.08941,-6.24524,9.1,-0.14,-1.2,2.0
1758075517.08193,1758075517.0549,0.0,0.0,0.0,-70.53111,7.96411,-8.30789,10.87,0.32,-0.71,2.0
1758075517.08371,1758075517.0649,0.0,0.0,0.0,-74.25533,18.33465,-11.57375,10.87,0.32,-0.71,2.0
1758075517.09899,1758075517.0749,0.0,0.0,0.0,-79.64114,13.17803,-16.04282,10.53,1.09,-0.38,2.0
1758075517.10187,1758075517.0849,0.0,0.0,0.0,-83.53725,-2.00535,-18.27736,10.53,1.09,-0.38,2.0
1758075517.11686,1758075517.0949,0.0,0.0,0.0,-88.69387,-3.72423,-20.11082,8.4,1.75,-0.9,2.0
1758075517.13307,1758075517.1049,0.0,0.0,0.0,-91.44406,10.59972,-17.76169,11.17,1.74,-1.2,2.0
1758075517.13396,1758075517.1149,0.0,0.0,0.0,-94.25156,24.35071,-14.9542,11.17,1.74,-1.2,2.0
1758075517.14908,1758075517.1249,0.0,0.0,0.0,-96.65798,30.93972,-12.08941,10.84,1.26,-0.44,2.0
1758075517.15073,1758075517.1349,0.0,0.0,0.0,-98.43416,29.10626,-9.22462,10.84,1.26,-0.44,2.0
1758075517.16578,1758075517.1449,0.0,0.0,0.0,-98.20497,23.20479,-7.73493,9.28,1.08,-0.56,2.0
1758075517.18198,1758075517.1549,0.0,0.0,0.0,-97.05905,15.69904,-6.47442,9.28,1.08,-0.56,2.0
1758075517.18328,1758075517.1649,0.0,0.0,0.0,-95.39748,7.44845,-5.84417,8.63,0.96,-1.22,2.0
1758075517.19795,1758075517.1749,0.0,0.0,0.0,-92.3035,-1.43239,-6.24524,9.08,0.85,-1.12,2.0
1758075517.20172,1758075517.1849,0.0,0.0,0.0,-90.18356,-4.52637,-7.16197,9.08,0.85,-1.12,2.0
1758075517.21715,1758075517.1949,0.0,0.0,0.0,-87.43336,-5.72958,-8.65166,10.29,0.82,-1.08,2.0
1758075517.21882,1758075517.2049,0.0,0.0,0.0,-84.56858,-5.09932,-10.37054,10.29,0.82,-1.08,2.0
1758075517.23483,1758075517.2149,0.0,0.0,0.0,-80.78706,-0.17189,-13.34992,11.41,0.86,-0.8,2.0
1758075517.25088,1758075517.2249,0.0,0.0,0.0,-78.7244,5.84417,-14.9542,11.41,0.86,-0.8,2.0
1758075517.25281,1758075517.2349,0.0,0.0,0.0,-76.43258,13.17803,-15.64175,12.17,0.93,-0.78,2.0
1758075517.26812,1758075517.2449,0.0,0.0,0.0,-72.99483,20.05352,-15.24068,12.17,0.93,-0.78,2.0
1758075517.2693,1758075517.2549,0.0,0.0,0.0,-70.58841,27.33009,-14.15206,11.9,1.02,-0.11,2.0
1758075517.28592,1758075517.2649,0.0,0.0,0.0,-67.72362,29.62192,-13.00614,11.4,0.8,0.88,2.0
1758075517.30266,1758075517.2749,0.0,0.0,0.0,-64.62964,30.13758,-12.14671,11.4,0.8,0.88,2.0
1758075517.30417,1758075517.2849,0.0,0.0,0.0,-58.49899,27.61657,-12.2613,11.86,0.05,1.8,2.0
1758075517.31915,1758075517.2949,0.0,0.0,0.0,-53.62885,22.57454,-13.40721,11.86,0.05,1.8,2.0
1758075517.32036,1758075517.3049,0.0,0.0,0.0,-48.35764,16.73037,-14.72501,12.52,-0.66,2.13,2.0
1758075517.33573,1758075517.3149,0.0,0.0,0.0,-43.20102,12.204,-16.21471,12.52,-0.66,2.13,2.0
1758075517.35324,1758075517.3249,0.0,0.0,0.0,-36.7266,6.58902,-15.41257,12.6,-0.62,1.51,2.0
1758075517.35444,1758075517.3349,0.0,0.0,0.0,-34.37747,1.08862,-13.34992,10.62,0.07,0.6,2.0
1758075517.36927,1758075517.3449,0.0,0.0,0.0,-33.23156,-6.24524,-9.85487,10.62,0.07,0.6,2.0
1758075517.37041,1758075517.3549,0.0,0.0,0.0,-33.40344,-15.46986,-6.13065,8.1,0.84,-0.05,2.0
1758075517.38593,1758075517.3649,0.0,0.0,0.0,-35.40879,-29.9084,-0.74485,8.1,0.84,-0.05,2.0
1758075517.40203,1758075517.3749,0.0,0.0,0.0,-37.64333,-38.21629,2.11994,6.94,1.23,-0.34,2.0
1758075517.4037,1758075517.3849,0.0,0.0,0.0,-40.33623,-45.77933,4.18259,6.94,1.23,-0.34,2.0
1758075517.41796,1758075517.3949,0.0,0.0,0.0,-43.65939,-52.08187,5.32851,7.05,1.16,-0.07,2.0
1758075517.41946,1758075517.4049,0.0,0.0,0.0,-48.9306,-58.3844,4.92744,8.0,0.78,0.45,2.0
1758075517.43525,1758075517.4149,0.0,0.0,0.0,-52.42564,-61.07731,3.49504,8.0,0.78,0.45,2.0
1758075517.45132,1758075517.4249,0.0,0.0,0.0,-55.92068,-62.91077,1.3751,9.08,0.16,0.68,2.0
1758075517.45224,1758075517.4349,0.0,0.0,0.0,-59.07195,-63.25455,-2.23454,9.08,0.16,0.68,2.0
1758075517.46813,1758075517.4449,0.0,0.0,0.0,-62.91077,-58.4417,-4.52637,9.92,-0.67,0.35,2.0
1758075517.46906,1758075517.4549,0.0,0.0,0.0,-64.51505,-51.10783,-6.35983,9.92,-0.67,0.35,2.0
1758075517.48504,1758075517.4649,0.0,0.0,0.0,-65.66096,-40.10705,-7.79223,10.64,-1.53,-0.09,2.0
1758075517.50124,1758075517.4749,0.0,0.0,0.0,-66.00475,-20.51189,-7.96411,10.64,-1.53,-0.09,2.0
1758075517.50228,1758075517.4849,0.0,0.0,0.0,-65.2026,-7.79223,-7.04738,11.09,-1.98,-0.38,2.0
1758075517.51821,1758075517.4949,0.0,0.0,0.0,-63.94209,3.66693,-5.55769,10.61,-1.7,-0.6,2.0
1758075517.51939,1758075517.5049,0.0,0.0,0.0,-61.93674,14.49583,-3.32316,10.61,-1.7,-0.6,2.0
1758075517.53547,1758075517.5149,0.0,0.0,0.0,-58.15522,27.04361,0.57296,10.23,-1.08,-0.6,2.0
1758075517.55136,1758075517.5249,0.0,0.0,0.0,-55.11855,32.88778,3.26586,10.23,-1.08,-0.6,2.0
1758075517.55269,1758075517.5349,0.0,0.0,0.0,-51.45161,37.12767,5.72958,10.41,-0.85,-0.15,2.0
1758075517.56734,1758075517.5449,0.0,0.0,0.0,-47.32632,40.68,7.73493,10.41,-0.85,-0.15,2.0
1758075517.58339,1758075517.5549,0.0,0.0,0.0,-40.7946,43.4875,10.48513,11.0,-1.12,0.2,2.0
1758075517.58429,1758075517.5649,0.0,0.0,0.0,-36.84119,39.4195,11.45916,10.52,-1.5,0.15,2.0
1758075517.59939,1758075517.5749,0.0,0.0,0.0,-33.23156,32.88778,11.45916,10.52,-1.5,0.15,2.0
1758075517.6003,1758075517.5849,0.0,0.0,0.0,-29.96569,26.69983,11.34457,9.57,-1.68,-0.06,2.0
1758075517.61547,1758075517.5949,0.0,0.0,0.0,-25.7831,20.68378,11.28727,9.57,-1.68,-0.06,2.0
1758075517.63125,1758075517.6049,0.0,0.0,0.0,-22.28806,19.19409,12.204,9.25,-1.52,-0.26,2.0
1758075517.6324,1758075517.6149,0.0,0.0,0.0,-18.33465,18.27736,13.5791,9.25,-1.52,-0.26,2.0
1758075517.64738,1758075517.6249,0.0,0.0,0.0,-13.5218,17.36062,15.98552,9.17,-1.44,-0.28,2.0
1758075517.66332,1758075517.6349,0.0,0.0,0.0,-5.15662,17.13144,20.05352,9.27,-1.53,-0.49,2.0
1758075517.66442,1758075517.6449,0.0,0.0,0.0,0.85944,17.53251,22.57454,9.27,-1.53,-0.49,2.0
1758075517.67926,1758075517.6549,0.0,0.0,0.0,7.04738,16.90226,24.86637,9.64,-1.61,-0.71,2.0
1758075517.68075,1758075517.6649,0.0,0.0,0.0,15.41257,17.18874,26.52795,9.64,-1.61,-0.71,2.0
1758075517.69578,1758075517.6749,0.0,0.0,0.0,20.45459,17.6471,26.64254,9.94,-1.64,-0.65,2.0
1758075517.71154,1758075517.6849,0.0,0.0,0.0,24.63719,17.01685,26.24147,9.94,-1.64,-0.65,2.0
1758075517.71358,1758075517.6949,0.0,0.0,0.0,28.24682,15.41257,25.55392,9.83,-1.55,-0.61,2.0
1758075517.72861,1758075517.7049,0.0,0.0,0.0,31.51268,13.17803,22.51724,9.83,-1.55,-0.61,2.0
1758075517.72947,1758075517.7149,0.0,0.0,0.0,33.00237,8.93814,19.76705,9.54,-1.36,-0.62,2.0
1758075517.7456,1758075517.7249,0.0,0.0,0.0,34.89313,6.35983,16.84496,9.11,-1.09,-0.67,2.0
1758075517.76317,1758075517.7349,0.0,0.0,0.0,35.92446,5.61499,12.83425,9.11,-1.09,-0.67,2.0
1758075517.76411,1758075517.7449,0.0,0.0,0.0,39.53409,13.69369,9.85487,9.76,-0.95,-0.65,2.0
1758075517.77963,1758075517.7549,0.0,0.0,0.0,41.65404,26.98631,7.62034,9.76,-0.95,-0.65,2.0
1758075517.78206,1758075517.7649,0.0,0.0,0.0,44.11775,43.02913,7.79223,10.99,-1.1,-0.35,2.0
1758075517.79739,1758075517.7749,0.0,0.0,0.0,45.37826,58.26981,4.58366,10.99,-1.1,-0.35,2.0
1758075517.81364,1758075517.7849,0.0,0.0,0.0,51.16513,66.17663,1.66158,11.39,-1.15,-0.09,2.0
1758075517.81454,1758075517.7949,0.0,0.0,0.0,52.25375,38.38818,-2.00535,7.84,-1.24,0.01,2.0
1758075517.82969,1758075517.8049,0.0,0.0,0.0,58.72818,-0.45837,2.11994,7.84,-1.24,0.01,2.0
1758075517.83048,1758075517.8149,0.0,0.0,0.0,63.8275,-22.11617,9.4538,8.1,-1.87,-1.1,2.0
1758075517.84561,1758075517.8249,0.0,0.0,0.0,68.41116,-20.3973,17.53251,8.1,-1.87,-1.1,2.0
1758075517.86147,1758075517.8349,0.0,0.0,0.0,70.41652,-17.47521,21.48592,11.75,-1.99,-0.04,2.0
1758075517.8626,1758075517.8449,0.0,0.0,0.0,71.21866,-17.81899,24.29341,11.75,-1.99,-0.04,2.0
1758075517.87734,1758075517.8549,0.0,0.0,0.0,70.41652,-18.50654,25.89769,11.13,-1.7,0.4,2.0
1758075517.89338,1758075517.8649,0.0,0.0,0.0,65.71826,-20.79837,24.29341,10.52,-1.13,0.19,2.0
1758075517.89486,1758075517.8749,0.0,0.0,0.0,61.87944,-22.68913,20.79837,10.52,-1.13,0.19,2.0
1758075517.91066,1758075517.8849,0.0,0.0,0.0,57.63955,-23.89234,16.3293,9.93,-0.51,-0.52,2.0
1758075517.91273,1758075517.8949,0.0,0.0,0.0,52.13916,-23.54857,9.05273,9.93,-0.51,-0.52,2.0
1758075517.9285,1758075517.9049,0.0,0.0,0.0,49.38896,-21.31403,3.89611,10.3,-0.16,-0.83,2.0
1758075517.92942,1758075517.9149,0.0,0.0,0.0,47.26902,-17.18874,-0.40107,10.3,-0.16,-0.83,2.0
1758075517.94673,1758075517.9249,0.0,0.0,0.0,45.09178,-13.5218,-4.0107,11.1,-0.08,-1.03,2.0
1758075517.96374,1758075517.9349,0.0,0.0,0.0,40.85189,-10.25595,-8.0787,11.1,-0.08,0.07,2.0
1758075517.96619,1758075517.9449,0.0,0.0,0.0,36.84119,-8.0787,-9.74028,11.68,-0.11,0.07,2.0
1758075517.98175,1758075517.9549,0.0,0.0,0.0,31.56997,-7.50575,-10.08406,12.75,0.31,0.05,2.0
1758075517.98299,1758075517.9649,0.0,0.0,0.0,25.38203,-10.37054,-8.93814,12.75,0.31,0.05,2.0
1758075517.99937,1758075517.9749,0.0,0.0,0.0,15.0115,-20.34,-3.20856,13.16,0.81,0.97,2.0
1758075518.00056,1758075517.9849,0.0,0.0,0.0,8.65166,-23.26209,1.83346,13.16,0.81,0.97,2.0
1758075518.01688,1758075517.9949,0.0,0.0,0.0,2.29183,-22.28806,6.18794,13.72,1.05,0.6,2.0
1758075518.03336,1758075518.0049,0.0,0.0,0.0,-3.55234,-21.31403,8.59437,13.72,1.05,0.6,2.0
1758075518.03794,1758075518.0149,0.0,0.0,0.0,-10.37054,-22.23076,8.0787,12.37,0.75,0.0,2.0
1758075518.0538,1758075518.0249,0.0,0.0,0.0,-13.12073,-26.01229,5.32851,9.05,-0.23,0.3,2.0
1758075518.05477,1758075518.0349,0.0,0.0,0.0,-13.75099,-30.19488,2.06265,9.05,-0.23,0.3,2.0
1758075518.07378,1758075518.0449,0.0,0.0,0.0,-12.60507,-32.14294,-1.3751,6.86,-1.06,1.0,2.0
1758075518.07742,1758075518.0549,0.0,0.0,0.0,-6.7609,-33.34615,-5.50039,6.86,-1.06,1.0,2.0
1758075518.09364,1758075518.0649,0.0,0.0,0.0,-0.40107,-34.14828,-6.58902,6.15,-1.53,2.48,2.0
1758075518.09646,1758075518.0749,0.0,0.0,0.0,6.53172,-34.43476,-6.47442,6.15,-1.53,2.48,2.0
1758075518.11184,1758075518.0849,0.0,0.0,0.0,18.62113,-34.26288,-3.09397,6.02,-1.74,3.72,2.0
1758075518.11355,1758075518.0949,0.0,0.0,0.0,26.69983,-31.39809,0.34377,7.02,-1.84,3.03,2.0
1758075518.13062,1758075518.1049,0.0,0.0,0.0,33.23156,-24.92367,3.95341,7.02,-1.84,3.03,2.0
1758075518.13229,1758075518.1149,0.0,0.0,0.0,38.15899,-14.20935,7.39116,9.68,-1.5,1.78,2.0
1758075518.14821,1758075518.1249,0.0,0.0,0.0,41.02378,5.61499,10.59972,9.68,-1.5,1.78,2.0
1758075518.15126,1758075518.1349,0.0,0.0,0.0,40.16434,19.53786,12.08941,12.39,-0.47,0.73,2.0
1758075518.16786,1758075518.1449,0.0,0.0,0.0,37.52874,31.97105,12.83425,12.39,-0.47,0.73,2.0
1758075518.18392,1758075518.1549,0.0,0.0,0.0,33.40344,42.57077,11.80293,13.43,0.49,-0.16,2.0
1758075518.18594,1758075518.1649,0.0,0.0,0.0,26.47065,55.6915,7.84952,12.66,0.49,-0.35,2.0
1758075518.20092,1758075518.1749,0.0,0.0,0.0,22.23076,64.51505,3.89611,12.66,0.7,-0.35,2.0
1758075518.20187,1758075518.1849,0.0,0.0,0.0,18.22006,72.42187,-0.11459,11.37,0.81,0.03,2.0
1758075518.21668,1758075518.1949,0.0,0.0,0.0,14.09476,77.23472,-4.23989,11.37,0.81,0.03,2.0
1758075518.23267,1758075518.2049,0.0,0.0,0.0,7.67763,75.40125,-7.33386,9.35,1.26,0.22,2.0
1758075518.23388,1758075518.2149,0.0,0.0,0.0,3.03668,71.16136,-8.02141,9.35,1.26,0.22,2.0
1758075518.24896,1758075518.2249,0.0,0.0,0.0,-2.11994,65.66096,-8.47978,8.2,1.72,0.37,2.0
1758075518.24988,1758075518.2349,0.0,0.0,0.0,-7.62034,59.35843,-8.59437,8.2,1.72,0.37,2.0
1758075518.26591,1758075518.2449,0.0,0.0,0.0,-16.38659,47.44091,-9.85487,8.17,1.92,0.23,2.0
1758075518.28191,1758075518.2549,0.0,0.0,0.0,-22.11617,38.61736,-10.8862,8.14,1.76,0.4,2.0
1758075518.28321,1758075518.2649,0.0,0.0,0.0,-27.67386,30.02299,-12.77696,8.14,1.76,0.4,2.0
1758075518.29784,1758075518.2749,0.0,0.0,0.0,-33.11696,22.34536,-15.41257,8.3,1.39,0.62,2.0
1758075518.31391,1758075518.2849,0.0,0.0,0.0,-40.7946,11.97482,-19.36597,8.3,1.39,0.62,2.0
1758075518.3157,1758075518.2949,0.0,0.0,0.0,-45.55015,4.64096,-22.28806,8.49,1.16,0.8,2.0
1758075518.3378,1758075518.3049,0.0,0.0,0.0,-49.90463,-3.38045,-24.75178,8.49,1.16,0.8,2.0
1758075518.3432,1758075518.3149,0.0,0.0,0.0,-57.29578,-7.39116,-28.13223,8.68,1.02,0.65,2.0
1758075518.34355,1758075518.3249,0.0,0.0,0.0,-61.1346,-4.1253,-30.25217,9.64,1.0,0.58,2.0
1758075518.36166,1758075518.3349,0.0,0.0,0.0,-64.17127,0.51566,-31.39809,9.64,1.0,0.58,2.0
1758075518.36372,1758075518.3449,0.0,0.0,0.0,-63.77021,1.66158,-31.2262,9.94,1.08,0.73,2.0
1758075518.37914,1758075518.3549,0.0,0.0,0.0,-65.2599,1.66158,-29.8511,9.94,1.08,0.73,2.0
1758075518.38032,1758075518.3649,0.0,0.0,0.0,-67.26525,1.66158,-28.30412,9.66,0.76,0.24,2.0
1758075518.3979,1758075518.3749,0.0,0.0,0.0,-69.21331,-0.22918,-26.75713,9.66,0.76,0.24,2.0
1758075518.42412,1758075518.3849,0.0,0.0,0.0,-71.27596,-5.32851,-25.49662,9.42,0.75,0.63,2.0
1758075518.42525,1758075518.3949,0.0,0.0,0.0,-73.51049,-14.72501,-24.00693,8.85,1.07,-0.43,2.0
1758075518.4257,1758075518.4049,0.0,0.0,0.0,-74.54182,-24.86637,-22.86102,8.85,1.07,-0.43,2.0
1758075518.44188,1758075518.4149,0.0,0.0,0.0,-75.40125,-37.64333,-22.05888,8.19,1.15,-0.99,2.0
1758075518.4431,1758075518.4249,0.0,0.0,0.0,-75.63043,-50.53488,-20.79837,8.19,1.15,-0.99,2.0
1758075518.45791,1758075518.4349,0.0,0.0,0.0,-78.15145,-51.27972,-16.272,8.58,1.07,-1.55,2.0
1758075518.45985,1758075518.4449,0.0,0.0,0.0,-81.01624,-16.21471,-16.10011,8.58,1.07,-1.55,2.0
1758075518.47793,1758075518.4549,0.0,0.0,0.0,-83.76643,6.35983,-13.5791,13.62,1.36,-1.17,2.0
1758075518.49471,1758075518.4649,0.0,0.0,0.0,-89.49601,2.29183,-18.10547,13.62,1.36,-1.17,2.0
1758075518.49833,1758075518.4749,0.0,0.0,0.0,-93.6786,-17.30333,-20.85567,10.64,1.74,-0.63,2.0
1758075518.51401,1758075518.4849,0.0,0.0,0.0,-96.4861,-21.31403,-22.57454,11.05,2.01,-1.41,2.0
1758075518.51466,1758075518.4949,0.0,0.0,0.0,-98.66334,-16.38659,-22.68913,11.05,2.01,-1.41,2.0
1758075518.53088,1758075518.5049,0.0,0.0,0.0,-101.35624,-7.96411,-18.33465,12.52,1.69,-1.76,2.0
1758075518.53196,1758075518.5149,0.0,0.0,0.0,-102.78864,5.50039,-14.38124,12.52,1.69,-1.76,2.0
1758075518.54843,1758075518.5249,0.0,0.0,0.0,-102.78864,10.65701,-9.33921,12.31,1.07,-1.29,2.0
1758075518.56402,1758075518.5349,0.0,0.0,0.0,-101.8719,12.37589,-4.23989,12.31,1.07,-1.29,2.0
1758075518.56473,1758075518.5449,0.0,0.0,0.0,-98.31956,8.76626,2.34913,11.21,0.49,-1.25,2.0
1758075518.58028,1758075518.5549,0.0,0.0,0.0,-93.62132,-1.14592,5.50039,10.34,-0.16,0.16,2.0
1758075518.5812,1758075518.5649,0.0,0.0,0.0,-87.08958,-15.24068,5.78687,10.34,-0.16,0.16,2.0
1758075518.59631,1758075518.5749,0.0,0.0,0.0,-78.43793,-31.45539,3.60963,11.45,-1.33,1.29,2.0
1758075518.6123,1758075518.5849,0.0,0.0,0.0,-63.54102,-63.42643,-6.58902,11.45,-1.33,1.29,2.0
1758075518.61324,1758075518.5949,0.0,0.0,0.0,-54.431,-76.60446,-15.92823,12.95,-2.35,1.45,2.0
1758075518.63005,1758075518.6049,0.0,0.0,0.0,-44.86259,-79.12547,-23.72045,12.95,-2.35,1.45,2.0
1758075518.63124,1758075518.6149,0.0,0.0,0.0,-35.69527,-79.92762,-28.76248,14.46,-2.34,1.48,2.0
1758075518.64689,1758075518.6249,0.0,0.0,0.0,-26.06958,-87.94903,-30.36677,11.44,-1.89,1.86,2.0
1758075518.6641,1758075518.6349,0.0,0.0,0.0,-22.91831,-94.65263,-27.96034,11.44,-1.89,1.86,2.0
1758075518.66463,1758075518.6449,0.0,0.0,0.0,-22.40265,-100.89787,-23.72045,7.72,-0.83,2.48,2.0
1758075518.68118,1758075518.6549,0.0,0.0,0.0,-24.86637,-104.73669,-18.79302,7.72,-0.83,2.48,2.0
1758075518.68281,1758075518.6649,0.0,0.0,0.0,-32.71589,-99.46548,-8.59437,6.78,-0.02,4.0,2.0
1758075518.69788,1758075518.6749,0.0,0.0,0.0,-39.70598,-91.043,-1.83346,6.78,-0.02,4.0,2.0
1758075518.69904,1758075518.6849,0.0,0.0,0.0,-46.52417,-78.89629,4.58366,7.32,0.5,3.0,2.0
1758075518.71465,1758075518.6949,0.0,0.0,0.0,-51.90998,-65.43179,9.4538,7.32,0.5,3.0,2.0
1758075518.73008,1758075518.7049,0.0,0.0,0.0,-55.57691,-41.13837,14.09476,8.18,0.35,0.71,2.0
1758075518.73133,1758075518.7149,0.0,0.0,0.0,-54.431,-23.0329,15.35527,10.44,-0.57,-0.25,2.0
1758075518.74636,1758075518.7249,0.0,0.0,0.0,-50.3057,-5.09932,15.12609,10.44,-0.57,-0.25,2.0
1758075518.74851,1758075518.7349,0.0,0.0,0.0,-39.64868,19.76705,11.34457,12.54,-1.96,-0.43,2.0
1758075518.76372,1758075518.7449,0.0,0.0,0.0,-31.39809,33.40344,7.73493,12.54,-1.96,-0.43,2.0
1758075518.77942,1758075518.7549,0.0,0.0,0.0,-22.86102,44.86259,4.46907,12.34,-2.68,-0.57,2.0
1758075518.78112,1758075518.7649,0.0,0.0,0.0,-14.78231,54.48829,1.66158,12.34,-2.68,-0.57,2.0
1758075518.79696,1758075518.7749,0.0,0.0,0.0,-3.09397,62.85347,-0.57296,10.89,-2.64,0.09,2.0
1758075518.79815,1758075518.7849,0.0,0.0,0.0,3.60963,62.68159,-1.3178,9.1,-2.43,0.14,2.0
1758075518.81379,1758075518.7949,0.0,0.0,0.0,8.99544,61.36378,-2.29183,9.1,-2.43,0.14,2.0
1758075518.82943,1758075518.8049,0.0,0.0,0.0,13.46451,60.33246,-2.92208,8.58,-2.14,-0.4,2.0
1758075518.8328,1758075518.8149,0.0,0.0,0.0,19.19409,60.79083,-2.23454,8.58,-2.14,-0.4,2.0
1758075518.84843,1758075518.8249,0.0,0.0,0.0,22.23076,62.68159,-0.51566,9.3,-1.58,-0.9,2.0
1758075518.84937,1758075518.8349,0.0,0.0,0.0,25.38203,64.51505,2.06265,9.3,-1.58,-0.9,2.0
1758075518.86477,1758075518.8449,0.0,0.0,0.0,28.99167,65.66096,5.95876,9.94,-0.87,-0.72,2.0
1758075518.88042,1758075518.8549,0.0,0.0,0.0,34.89313,65.43179,12.49048,9.96,-0.47,-0.7,2.0
1758075518.88223,1758075518.8649,0.0,0.0,0.0,39.13302,63.48372,16.3293,9.96,-0.47,-0.7,2.0
1758075518.89731,1758075518.8749,0.0,0.0,0.0,43.02913,60.44705,19.13679,9.64,-0.39,-0.67,2.0
1758075518.89849,1758075518.8849,0.0,0.0,0.0,46.40959,56.03527,20.34,9.64,-0.39,-0.67,2.0
1758075518.91457,1758075518.8949,0.0,0.0,0.0,50.82136,47.09713,19.76705,9.28,-0.62,-0.63,2.0
1758075518.93165,1758075518.9049,0.0,0.0,0.0,53.17049,41.31026,17.53251,9.28,-0.62,-0.63,2.0
1758075518.93358,1758075518.9149,0.0,0.0,0.0,55.29043,38.50277,14.72501,9.1,-0.99,-0.61,2.0
1758075518.94852,1758075518.9249,0.0,0.0,0.0,57.29578,37.52874,10.94349,9.1,-0.99,-0.61,2.0
1758075518.94947,1758075518.9349,0.0,0.0,0.0,59.98868,34.43476,9.28192,9.35,-1.25,-0.57,2.0
1758075518.96485,1758075518.9449,0.0,0.0,0.0,61.93674,30.93972,8.136,9.17,-1.41,-0.62,2.0
1758075518.98211,1758075518.9549,0.0,0.0,0.0,64.57235,29.04896,8.02141,9.17,-1.41,-0.62,2.0
1758075518.98406,1758075518.9649,0.0,0.0,0.0,68.92683,23.37668,9.28192,9.45,-1.58,-0.54,2.0
1758075518.99957,1758075518.9749,0.0,0.0,0.0,72.88023,15.87093,10.8289,9.45,-1.58,-0.54,2.0
1758075519.00452,1758075518.9849,0.0,0.0,0.0,77.52119,6.7609,13.06344,9.07,-1.78,-0.55,2.0
1758075519.01959,1758075518.9949,0.0,0.0,0.0,82.84971,-4.0107,16.04282,9.07,-1.78,-0.55,2.0
1758075519.02246,1758075519.0049,0.0,0.0,0.0,91.043,-21.60051,22.00158,8.8,-2.06,-0.66,2.0
1758075519.03898,1758075519.0149,0.0,0.0,0.0,96.77258,-31.85646,27.10091,9.16,-2.42,-0.97,2.0
1758075519.0441,1758075519.0249,0.0,0.0,0.0,102.44486,-38.1017,32.08564,9.16,-2.42,-0.97,2.0
1758075519.05961,1758075519.0349,0.0,0.0,0.0,107.37229,-41.76862,36.55471,10.4,-2.79,-1.28,2.0
1758075519.06055,1758075519.0449,0.0,0.0,0.0,112.47161,-51.27972,40.16434,10.4,-2.79,-1.28,2.0
1758075519.07565,1758075519.0549,0.0,0.0,0.0,114.36237,-55.34772,39.76327,10.26,-2.77,-1.56,2.0
1758075519.09166,1758075519.0649,0.0,0.0,0.0,115.79478,-54.3164,37.52874,10.26,-2.77,-1.56,2.0
1758075519.09335,1758075519.0749,0.0,0.0,0.0,116.48232,-44.23235,35.2942,11.13,-2.46,-1.55,2.0
1758075519.10839,1758075519.0849,0.0,0.0,0.0,116.13856,-31.74186,31.11161,11.88,-1.72,-1.14,2.0
1758075519.10965,1758075519.0949,0.0,0.0,0.0,114.36237,-21.02755,28.93437,11.88,-1.72,-1.14,2.0
1758075519.1247,1758075519.1049,0.0,0.0,0.0,110.46626,-10.19865,25.38203,11.88,-0.65,-0.52,2.0
1758075519.14044,1758075519.1149,0.0,0.0,0.0,106.16908,-5.4431,21.48592,11.88,-0.65,-0.52,2.0
1758075519.14163,1758075519.1249,0.0,0.0,0.0,101.9865,-28.01764,11.86023,9.3,0.05,-1.15,2.0
1758075519.15648,1758075519.1349,0.0,0.0,0.0,97.57471,-58.04062,4.1253,9.3,0.05,-1.15,2.0
1758075519.17273,1758075519.1449,0.0,0.0,0.0,95.97043,-82.62051,4.58366,5.97,-0.12,-0.42,2.0
1758075519.17367,1758075519.1549,0.0,0.0,0.0,89.95438,-96.4861,9.74028,5.97,-0.12,-0.42,2.0
1758075519.18848,1758075519.1649,0.0,0.0,0.0,85.37071,-109.77872,16.272,11.49,0.11,2.45,2.0
1758075519.18966,1758075519.1749,0.0,0.0,0.0,81.5892,-118.2012,25.89769,14.37,2.39,1.58,2.0
1758075519.20478,1758075519.1849,0.0,0.0,0.0,76.26069,-114.30509,35.52338,14.37,2.39,1.58,2.0
1758075519.22078,1758075519.1949,0.0,0.0,0.0,66.74959,-102.44486,44.86259,16.75,4.09,0.66,2.0
1758075519.22179,1758075519.2049,0.0,0.0,0.0,61.99404,-97.51743,47.15443,16.75,4.09,0.66,2.0
1758075519.23766,1758075519.2149,0.0,0.0,0.0,58.72818,-87.37608,45.83662,11.9,2.7,-0.04,2.0
1758075519.23892,1758075519.2249,0.0,0.0,0.0,59.35843,-71.84892,43.25832,11.9,2.7,-0.04,2.0
1758075519.25478,1758075519.2349,0.0,0.0,0.0,65.08801,-33.00237,34.0337,9.13,0.62,0.52,2.0
1758075519.27057,1758075519.2449,0.0,0.0,0.0,72.70835,-11.91752,27.78845,8.34,-0.18,0.76,2.0
1758075519.27181,1758075519.2549,0.0,0.0,0.0,80.78706,3.20856,19.19409,8.34,-0.18,0.76,2.0
1758075519.28655,1758075519.2649,0.0,0.0,0.0,90.24085,16.272,11.74564,7.46,-0.72,0.58,2.0
1758075519.28857,1758075519.2749,0.0,0.0,0.0,102.33027,40.39353,0.45837,7.46,-0.72,0.58,2.0
1758075519.30487,1758075519.2849,0.0,0.0,0.0,107.4296,60.79083,-5.95876,10.76,-0.76,-0.73,2.0
1758075519.32222,1758075519.2949,0.0,0.0,0.0,109.66413,80.95895,-10.37054,10.76,-0.76,-0.73,2.0
1758075519.32368,1758075519.3049,0.0,0.0,0.0,108.51821,92.99106,-13.75099,14.18,0.5,-1.69,2.0
1758075519.33861,1758075519.3149,0.0,0.0,0.0,101.64272,102.55945,-14.03747,13.36,2.07,-1.43,2.0
1758075519.34164,1758075519.3249,0.0,0.0,0.0,95.22559,108.34632,-12.54778,13.36,2.07,-1.43,2.0
1758075519.35688,1758075519.3349,0.0,0.0,0.0,88.06361,113.04458,-10.02676,11.75,2.43,-0.76,2.0
1758075519.37342,1758075519.3449,0.0,0.0,0.0,79.98491,115.22182,-5.78687,11.75,2.43,-0.76,2.0
1758075519.37463,1758075519.3549,0.0,0.0,0.0,66.97877,115.96667,-3.32316,9.69,2.21,-0.17,2.0
1758075519.37954,1758075519.3649,0.0,0.0,0.0,57.92604,114.59156,-1.20321,9.69,2.21,-0.17,2.0
1758075519.39691,1758075519.3749,0.0,0.0,0.0,48.58683,110.40897,-0.40107,8.04,2.26,-0.18,2.0
1758075519.41369,1758075519.3849,0.0,0.0,0.0,35.00772,101.92919,-0.80214,8.04,2.26,-0.18,2.0
1758075519.41467,1758075519.3949,0.0,0.0,0.0,26.81443,94.59533,-2.6929,7.47,2.66,-0.04,2.0
1758075519.42966,1758075519.4049,0.0,0.0,0.0,19.99623,85.02695,-5.55769,7.94,2.67,0.45,2.0
1758075519.44047,1758075519.4149,0.0,0.0,0.0,14.32395,73.16672,-9.22462,7.94,2.67,0.45,2.0
1758075519.44105,1758075519.4249,0.0,0.0,0.0,7.62034,54.08722,-15.12609,8.25,2.33,0.83,2.0
1758075519.45797,1758075519.4349,0.0,0.0,0.0,3.95341,43.60209,-18.44924,8.25,2.33,0.83,2.0
1758075519.45891,1758075519.4449,0.0,0.0,0.0,0.57296,36.61201,-21.48592,8.73,1.87,1.09,2.0
1758075519.47472,1758075519.4549,0.0,0.0,0.0,-2.29183,30.53865,-23.94964,8.73,1.87,1.09,2.0
1758075519.49098,1758075519.4649,0.0,0.0,0.0,-6.70361,20.16812,-25.72581,8.98,1.5,1.09,2.0
1758075519.49219,1758075519.4749,0.0,0.0,0.0,-9.39651,12.83425,-25.09555,8.59,1.06,0.95,2.0
1758075519.50903,1758075519.48489,0.0,0.0,0.0,-12.49048,6.7609,-23.20479,8.59,1.06,0.95,2.0
1758075519.50994,1758075519.49489,0.0,0.0,0.0,-15.46986,4.98473,-19.88164,8.91,0.45,0.56,2.0
1758075519.52512,1758075519.50489,0.0,0.0,0.0,-20.74107,8.76626,-13.80828,8.91,0.45,0.56,2.0
1758075519.54187,1758075519.51489,0.0,0.0,0.0,-24.29341,11.63104,-9.68299,9.62,-0.02,0.26,2.0
1758075519.54304,1758075519.52489,0.0,0.0,0.0,-27.38738,10.65701,-5.78687,9.62,-0.02,0.26,2.0
1758075519.55782,1758075519.53489,0.0,0.0,0.0,-31.56997,8.25059,-4.98473,9.61,-0.14,0.08,2.0
1758075519.55902,1758075519.54489,0.0,0.0,0.0,-36.7266,-2.40642,-5.61499,9.47,0.2,-0.07,2.0
1758075519.57512,1758075519.55489,0.0,0.0,0.0,-39.53409,-8.70896,-7.73493,9.47,0.2,-0.07,2.0
1758075519.59241,1758075519.56489,0.0,0.0,0.0,-42.68536,-15.24068,-10.02676,10.21,0.65,-0.27,2.0
1758075519.59434,1758075519.57489,0.0,0.0,0.0,-47.38361,-25.21014,-13.23533,10.21,0.65,-0.27,2.0
1758075519.60992,1758075519.58489,0.0,0.0,0.0,-49.96192,-34.26288,-13.86558,10.68,0.8,-0.36,2.0
1758075519.61127,1758075519.59489,0.0,0.0,0.0,-52.08187,-41.94051,-13.98017,10.68,0.8,-0.36,2.0
1758075519.62821,1758075519.60489,0.0,0.0,0.0,-55.00395,-47.95657,-12.71966,10.53,0.57,-0.87,2.0
1758075519.62939,1758075519.61489,0.0,0.0,0.0,-58.49899,-52.25375,-8.65166,10.53,0.57,-0.87,2.0
1758075519.64586,1758075519.62489,0.0,0.0,0.0,-61.59297,-50.93595,-5.09932,10.55,0.25,-1.01,2.0
1758075519.66196,1758075519.63489,0.0,0.0,0.0,-63.99939,-41.48215,-1.83346,11.14,0.1,-0.84,2.0
1758075519.66338,1758075519.64489,0.0,0.0,0.0,-65.71826,-24.29341,1.48969,11.14,0.1,-0.84,2.0
1758075519.67794,1758075519.65489,0.0,0.0,0.0,-64.17127,-35.92446,5.90147,11.36,0.21,1.54,2.0
1758075519.6791,1758075519.66489,0.0,0.0,0.0,-63.54102,-68.64035,1.66158,11.36,0.21,1.54,2.0
1758075519.69569,1758075519.67489,0.0,0.0,0.0,-58.09792,-97.86119,-6.8182,9.89,0.13,4.1,2.0
1758075519.71319,1758075519.68489,0.0,0.0,0.0,-50.13381,-118.43038,-20.05352,9.89,0.13,4.1,2.0
1758075519.71409,1758075519.69489,0.0,0.0,0.0,-38.15899,-113.33105,-35.58068,15.46,-0.67,3.9,2.0
1758075519.72913,1758075519.70489,0.0,0.0,0.0,-31.91375,-99.06441,-36.49741,16.22,-0.83,2.87,2.0
1758075519.73015,1758075519.71489,0.0,0.0,0.0,-27.67386,-90.58463,-32.88778,16.22,-0.83,2.87,2.0
1758075519.75315,1758075519.72489,0.0,0.0,0.0,-25.49662,-87.08958,-27.78845,9.96,-0.66,2.86,2.0
1758075519.75407,1758075519.73489,0.0,0.0,0.0,-26.75713,-76.89094,-20.16812,9.96,-0.66,2.86,2.0
1758075519.76927,1758075519.74489,0.0,0.0,0.0,-30.48136,-65.83286,-14.49583,6.74,-0.45,2.31,2.0
1758075519.77096,1758075519.75489,0.0,0.0,0.0,-35.58068,-55.6342,-9.62569,6.74,-0.45,2.31,2.0
1758075519.78765,1758075519.76489,0.0,0.0,0.0,-40.16434,-46.35228,-3.26586,6.1,-0.24,0.84,2.0
1758075519.803,1758075519.77489,0.0,0.0,0.0,-44.46153,-32.14294,-0.74485,8.08,-0.12,0.23,2.0
1758075519.80419,1758075519.78489,0.0,0.0,0.0,-44.57612,-19.36597,-0.17189,8.08,-0.12,0.23,2.0
1758075519.8377,1758075519.79489,0.0,0.0,0.0,-42.85724,-6.70361,-1.14592,11.12,-0.08,0.42,2.0
1758075519.83917,1758075519.80489,0.0,0.0,0.0,-37.75792,11.86023,-4.18259,11.12,-0.08,0.42,2.0
1758075519.84137,1758075519.81489,0.0,0.0,0.0,-33.74722,24.92367,-6.41713,12.15,-0.33,-0.15,2.0
1758075519.84235,1758075519.82489,0.0,0.0,0.0,-29.9084,36.84119,-7.79223,12.15,-0.33,-0.15,2.0
1758075519.85881,1758075519.83489,0.0,0.0,0.0,-26.87172,46.81066,-8.02141,11.25,-0.75,-0.34,2.0
1758075519.85998,1758075519.84489,0.0,0.0,0.0,-23.26209,55.86338,-6.53172,11.25,-0.75,0.09,2.0
1758075519.87729,1758075519.85489,0.0,0.0,0.0,-22.23076,59.87409,-5.4431,9.45,-1.03,0.09,2.0
1758075519.89303,1758075519.86489,0.0,0.0,0.0,-21.60051,61.42108,-4.58366,8.66,-1.35,0.55,2.0
1758075519.89935,1758075519.87489,0.0,0.0,0.0,-21.42862,60.90542,-4.1253,8.66,-1.35,0.55,2.0
1758075519.90157,1758075519.88489,0.0,0.0,0.0,-21.94428,60.44705,-5.78687,8.8,-1.63,0.76,2.0
1758075519.91737,1758075519.89489,0.0,0.0,0.0,-21.48592,64.80153,-7.96411,8.8,-1.63,0.76,2.0
1758075519.93334,1758075519.90489,0.0,0.0,0.0,-21.14215,56.14987,-9.74028,9.33,-1.67,0.61,2.0
1758075519.93536,1758075519.91489,0.0,0.0,0.0,-21.02755,48.75871,-11.00079,9.33,-1.67,0.61,2.0
1758075519.95004,1758075519.92489,0.0,0.0,0.0,-19.19409,41.25296,-11.91752,8.81,-1.48,0.14,2.0
1758075519.9532,1758075519.93489,0.0,0.0,0.0,-17.81899,35.52338,-11.63104,8.74,-0.94,-0.12,2.0
1758075519.96833,1758075519.94489,0.0,0.0,0.0,-16.38659,30.59595,-10.48513,8.74,-0.94,-0.12,2.0
1758075519.96957,1758075519.95489,0.0,0.0,0.0,-14.9542,26.35606,-8.65166,8.47,-0.36,-0.21,2.0
1758075519.98793,1758075519.96489,0.0,0.0,0.0,-13.40721,22.23076,-5.95876,8.47,-0.36,-0.21,2.0
1758075520.00336,1758075519.97489,0.0,0.0,0.0,-12.49048,21.6578,-3.72423,8.89,0.0,-0.25,2.0
1758075520.00431,1758075519.98489,0.0,0.0,0.0,-11.91752,22.11617,-1.43239,8.89,0.0,-0.25,2.0
1758075520.01937,1758075519.99489,0.0,0.0,0.0,-12.37589,22.57454,0.97403,9.73,0.15,-0.13,2.0
1758075520.02355,1758075520.00489,0.0,0.0,0.0,-13.5791,19.88164,1.66158,10.03,0.22,-0.21,2.0
1758075520.03909,1758075520.01489,0.0,0.0,0.0,-15.98552,16.73037,1.03132,10.03,0.22,-0.21,2.0
1758075520.04114,1758075520.02489,0.0,0.0,0.0,-18.90761,13.34992,-0.57296,9.87,0.18,-0.25,2.0
1758075520.05795,1758075520.03489,0.0,0.0,0.0,-23.66316,12.14671,-4.81285,9.87,0.18,-0.25,2.0
1758075520.05975,1758075520.04489,0.0,0.0,0.0,-25.89769,12.54778,-7.62034,9.92,-0.16,-0.18,2.0
1758075520.07547,1758075520.05489,0.0,0.0,0.0,-26.47065,10.71431,-9.4538,9.92,-0.16,-0.18,2.0
1758075520.0925,1758075520.06489,0.0,0.0,0.0,-25.55392,5.90147,-9.96947,9.6,-0.94,-0.12,2.0
1758075520.09337,1758075520.07489,0.0,0.0,0.0,-21.42862,-5.50039,-7.67763,9.26,-1.88,-0.71,2.0
1758075520.10845,1758075520.08489,0.0,0.0,0.0,-17.18874,-13.00614,-4.98473,9.26,-1.88,-0.71,2.0
1758075520.1094,1758075520.09489,0.0,0.0,0.0,-11.51645,-18.90761,-1.14592,9.86,-2.65,-1.07,2.0
1758075520.1275,1758075520.10489,0.0,0.0,0.0,-6.18794,-26.06958,2.6929,9.86,-2.65,-1.07,2.0
1758075520.14646,1758075520.11489,0.0,0.0,0.0,0.80214,-40.96649,5.90147,10.03,-2.83,-1.68,2.0
1758075520.14667,1758075520.12489,0.0,0.0,0.0,5.61499,-38.27358,6.8182,10.03,-2.83,-1.68,2.0
1758075520.15924,1758075520.13489,0.0,0.0,0.0,10.71431,-30.99702,8.02141,11.75,-2.53,-2.02,2.0
1758075520.16292,1758075520.14489,0.0,0.0,0.0,14.32395,-18.85031,6.35983,11.75,-2.53,-2.02,2.0
1758075520.17902,1758075520.15489,0.0,0.0,0.0,17.81899,-2.57831,4.52637,12.82,-2.12,-1.84,2.0
1758075520.18337,1758075520.16489,0.0,0.0,0.0,18.50654,5.32851,2.40642,12.51,-1.72,-1.07,2.0
1758075520.19824,1758075520.17489,0.0,0.0,0.0,17.81899,9.91217,-1.66158,12.51,-1.72,-1.07,2.0
1758075520.20354,1758075520.18489,0.0,0.0,0.0,15.98552,12.83425,-8.02141,11.09,-1.43,-1.07,2.0
