timeStamp,timeStampAlign,roll,pitch,yaw,gyro_x,gyro_y,gyro_z,acc_x,acc_y,acc_z,flag_num
1758078201.82441,1758078188.49091,0.0,0.0,0.0,-47.03984,-52.02457,-0.34377,6.74,1.75,3.38,3.0
1758078201.82807,1758078188.50091,0.0,0.0,0.0,-49.04519,-59.47303,-0.45837,6.64,1.38,3.13,3.0
1758078201.84458,1758078188.51091,0.0,0.0,0.0,-50.53488,-64.74423,-0.22918,6.64,1.38,3.13,3.0
1758078201.84877,1758078188.52091,0.0,0.0,0.0,-51.79538,-68.64035,0.68755,7.13,0.78,2.78,3.0
1758078201.8645,1758078188.53091,0.0,0.0,0.0,-51.90998,-67.72362,1.14592,7.13,0.78,2.78,3.0
1758078201.86869,1758078188.54091,0.0,0.0,0.0,-51.85268,-65.14531,1.48969,7.77,0.33,2.63,3.0
1758078201.88349,1758078188.55091,0.0,0.0,0.0,-51.10783,-61.65026,1.71887,7.77,0.33,2.63,3.0
1758078201.88489,1758078188.56091,0.0,0.0,0.0,-49.84733,-55.86338,2.06265,8.12,0.19,2.57,3.0
1758078201.89976,1758078188.57091,0.0,0.0,0.0,-48.64412,-51.10783,2.23454,8.44,0.23,2.56,3.0
1758078201.90068,1758078188.58091,0.0,0.0,0.0,-47.49821,-47.15443,2.34913,8.44,0.23,2.56,3.0
1758078201.91775,1758078188.59091,0.0,0.0,0.0,-46.00851,-41.48215,2.97938,8.68,0.35,2.27,3.0
1758078201.95368,1758078188.60091,0.0,0.0,0.0,-43.60209,-32.6013,3.55234,8.68,0.35,2.27,3.0
1758078201.9581,1758078188.61091,0.0,0.0,0.0,-41.65404,-27.04361,3.95341,8.75,0.35,1.92,3.0
1758078201.95857,1758078188.62091,0.0,0.0,0.0,-39.53409,-20.97026,4.52637,8.75,0.35,1.92,3.0
1758078201.95967,1758078188.63091,0.0,0.0,0.0,-37.29956,-14.78231,4.64096,8.79,0.11,1.81,3.0
1758078201.97453,1758078188.64091,0.0,0.0,0.0,-34.09099,-5.32851,4.64096,8.99,-0.17,1.79,3.0
1758078201.97733,1758078188.65091,0.0,0.0,0.0,-32.25753,0.11459,4.64096,8.99,-0.17,1.79,3.0
1758078201.99289,1758078188.66091,0.0,0.0,0.0,-30.53865,5.50039,4.64096,9.18,-0.27,1.76,3.0
1758078201.99644,1758078188.67091,0.0,0.0,0.0,-28.76248,10.08406,4.64096,9.18,-0.27,1.76,3.0
1758078202.05738,1758078188.68091,0.0,0.0,0.0,-26.98631,16.38659,4.64096,9.25,-0.2,1.73,3.0
1758078202.05819,1758078188.69091,0.0,0.0,0.0,-25.7831,20.3973,4.58366,9.25,-0.2,1.73,3.0
1758078202.05889,1758078188.70091,0.0,0.0,0.0,-24.57989,24.5226,4.1253,9.29,-0.07,1.78,3.0
1758078202.06015,1758078188.71091,0.0,0.0,0.0,-22.91831,28.76248,3.38045,9.29,-0.07,1.78,3.0
1758078202.06193,1758078188.72091,0.0,0.0,0.0,-22.00158,30.25217,2.6929,9.13,0.01,1.91,3.0
1758078202.0628,1758078188.73091,0.0,0.0,0.0,-20.97026,30.30947,1.94806,8.94,0.12,2.08,3.0
1758078202.06594,1758078188.74091,0.0,0.0,0.0,-19.25138,29.27814,2.00535,8.94,0.12,2.08,3.0
1758078202.08357,1758078188.75091,0.0,0.0,0.0,-17.18874,24.80907,2.7502,8.8,0.13,2.17,3.0
1758078202.08515,1758078188.76091,0.0,0.0,0.0,-15.69904,22.86102,3.60963,8.8,0.13,2.17,3.0
1758078202.09967,1758078188.77091,0.0,0.0,0.0,-14.15206,22.57454,4.64096,9.0,-0.09,2.0,3.0
1758078202.10158,1758078188.78091,0.0,0.0,0.0,-12.83425,23.72045,5.55769,9.0,-0.09,2.0,3.0
1758078202.11785,1758078188.79091,0.0,0.0,0.0,-10.94349,24.5226,6.70361,9.22,-0.44,2.02,3.0
1758078202.13394,1758078188.80091,0.0,0.0,0.0,-9.85487,23.31938,7.44845,8.92,-0.5,2.18,3.0
1758078202.13481,1758078188.81091,0.0,0.0,0.0,-8.93814,21.60051,7.84952,8.92,-0.5,2.18,3.0
1758078202.14991,1758078188.82091,0.0,0.0,0.0,-8.59437,19.59516,8.0787,8.83,-0.29,2.08,3.0
1758078202.16872,1758078188.83091,0.0,0.0,0.0,-8.25059,16.67307,7.73493,8.83,-0.29,2.08,3.0
1758078202.16897,1758078188.84091,0.0,0.0,0.0,-8.42248,14.9542,6.99009,8.92,0.01,1.84,3.0
1758078202.17793,1758078188.85091,0.0,0.0,0.0,-8.65166,14.03747,5.84417,8.92,0.01,1.84,3.0
1758078202.1937,1758078188.86091,0.0,0.0,0.0,-8.93814,13.12073,4.46907,9.06,0.24,1.84,3.0
1758078202.19463,1758078188.87091,0.0,0.0,0.0,-9.22462,10.94349,2.23454,9.08,0.42,1.9,3.0
1758078202.20967,1758078188.88091,0.0,0.0,0.0,-9.5684,9.91217,1.20321,9.08,0.42,1.9,3.0
1758078202.21083,1758078188.89091,0.0,0.0,0.0,-9.74028,8.25059,0.45837,9.17,0.48,1.91,3.0
1758078202.22688,1758078188.90091,0.0,0.0,0.0,-9.85487,7.10468,0.0573,9.17,0.48,1.91,3.0
1758078202.24364,1758078188.91091,0.0,0.0,0.0,-10.08406,5.90147,0.11459,9.31,0.28,1.86,3.0
1758078202.24595,1758078188.92091,0.0,0.0,0.0,-10.37054,4.1253,0.11459,9.31,0.28,1.86,3.0
1758078202.26079,1758078188.93091,0.0,0.0,0.0,-10.54242,2.92208,0.17189,9.24,0.03,1.78,3.0
1758078202.26182,1758078188.94091,0.0,0.0,0.0,-10.71431,1.83346,0.40107,9.24,0.03,1.78,3.0
1758078202.27694,1758078188.95091,0.0,0.0,0.0,-10.65701,3.66693,0.22918,9.4,-0.09,1.64,3.0
1758078202.2929,1758078188.96091,0.0,0.0,0.0,-10.02676,9.74028,0.45837,9.84,-0.11,1.57,3.0
1758078202.29384,1758078188.97091,0.0,0.0,0.0,-9.39651,14.32395,1.03132,9.84,-0.11,1.57,3.0
1758078202.30883,1758078188.98091,0.0,0.0,0.0,-8.65166,16.61578,2.23454,9.58,-0.15,1.69,3.0
1758078202.3249,1758078188.99091,0.0,0.0,0.0,-7.79223,17.36062,3.20856,9.58,-0.15,1.69,3.0
1758078202.32625,1758078189.00091,0.0,0.0,0.0,-6.47442,18.73572,4.69825,9.59,-0.21,1.75,3.0
1758078202.34069,1758078189.01091,0.0,0.0,0.0,-4.92744,20.34,6.58902,9.59,-0.21,1.75,3.0
1758078202.34214,1758078189.02091,0.0,0.0,0.0,-2.00535,23.0902,9.91217,9.82,-0.32,1.58,3.0
1758078202.35799,1758078189.03091,0.0,0.0,0.0,0.11459,24.4653,12.49048,9.86,-0.48,1.61,3.0
1758078202.37398,1758078189.04091,0.0,0.0,0.0,2.06265,25.38203,14.38124,9.86,-0.48,1.61,3.0
1758078202.37491,1758078189.05091,0.0,0.0,0.0,3.95341,24.12152,15.41257,9.79,-0.69,1.67,3.0
1758078202.38999,1758078189.06091,0.0,0.0,0.0,6.47442,13.86558,17.53251,9.79,-0.69,1.67,3.0
1758078202.39084,1758078189.07091,0.0,0.0,0.0,5.78687,9.5684,16.3293,9.52,-0.73,1.52,3.0
1758078202.4069,1758078189.08091,0.0,0.0,0.0,6.07335,14.83961,14.38124,9.52,-0.73,1.52,3.0
1758078202.42457,1758078189.09091,0.0,0.0,0.0,7.21927,29.62192,12.60507,10.96,-0.65,1.16,3.0
1758078202.42645,1758078189.10091,0.0,0.0,0.0,8.47978,51.85268,10.25595,11.47,-0.3,2.23,3.0
1758078202.44174,1758078189.11091,0.0,0.0,0.0,7.79223,38.90384,6.13065,11.47,-0.3,2.23,3.0
1758078202.44372,1758078189.12091,0.0,0.0,0.0,9.22462,9.05273,10.8289,8.46,0.09,4.02,3.0
1758078202.45983,1758078189.13091,0.0,0.0,0.0,8.65166,-4.0107,13.86558,8.46,0.09,4.02,3.0
1758078202.46118,1758078189.14091,0.0,0.0,0.0,7.39116,-3.72423,16.84496,12.67,0.17,3.15,3.0
1758078202.47813,1758078189.15091,0.0,0.0,0.0,6.18794,-3.60963,19.19409,12.67,0.17,3.15,3.0
1758078202.49403,1758078189.16091,0.0,0.0,0.0,3.55234,-0.68755,20.74107,13.46,0.41,2.46,3.0
1758078202.4977,1758078189.17091,0.0,0.0,0.0,-1.08862,14.83961,20.16812,13.46,0.41,4.41,3.0
1758078202.51354,1758078189.18091,0.0,0.0,0.0,-4.58366,23.37668,17.93358,13.62,0.69,4.41,3.0
1758078202.51475,1758078189.19091,0.0,0.0,0.0,-8.25059,29.62192,12.77696,12.83,1.02,4.26,3.0
1758078202.53003,1758078189.20091,0.0,0.0,0.0,-11.11538,32.77319,7.10468,12.83,1.02,4.26,3.0
1758078202.53182,1758078189.21091,0.0,0.0,0.0,-13.69369,37.01308,-2.06265,12.59,1.02,4.23,3.0
1758078202.54689,1758078189.22091,0.0,0.0,0.0,-13.80828,39.19032,-8.02141,12.59,1.02,4.23,3.0
1758078202.56384,1758078189.23091,0.0,0.0,0.0,-11.97482,38.1017,-12.77696,12.93,0.46,3.8,3.0
1758078202.56492,1758078189.24091,0.0,0.0,0.0,-8.93814,33.46074,-16.95955,12.93,0.46,3.8,3.0
1758078202.57975,1758078189.25091,0.0,0.0,0.0,-2.92208,24.23611,-20.05352,12.4,-0.65,4.22,3.0
1758078202.58175,1758078189.26091,0.0,0.0,0.0,1.43239,19.59516,-19.59516,12.14,-1.26,4.34,3.0
1758078202.59808,1758078189.27091,0.0,0.0,0.0,6.07335,17.53251,-17.6471,12.14,-1.26,4.34,3.0
1758078202.6141,1758078189.28091,0.0,0.0,0.0,10.94349,16.10011,-14.43854,11.52,-1.46,4.17,3.0
1758078202.61581,1758078189.29091,0.0,0.0,0.0,17.99088,13.98017,-8.42248,11.52,-1.46,4.17,3.0
1758078202.63107,1758078189.30091,0.0,0.0,0.0,22.40265,11.74564,-4.52637,9.86,-1.42,4.12,3.0
1758078202.6328,1758078189.31091,0.0,0.0,0.0,26.47065,8.65166,-1.3751,9.86,-1.42,4.12,3.0
1758078202.64807,1758078189.32091,0.0,0.0,0.0,31.62727,3.66693,2.23454,7.91,-1.23,3.48,3.0
1758078202.66404,1758078189.33091,0.0,0.0,0.0,34.49206,-6.70361,3.26586,6.24,-1.02,2.96,3.0
1758078202.66531,1758078189.34091,0.0,0.0,0.0,37.01308,-15.98552,3.49504,6.24,-1.02,2.96,3.0
1758078202.68011,1758078189.35091,0.0,0.0,0.0,39.01843,-26.06958,2.92208,5.08,-0.73,2.59,3.0
1758078202.681,1758078189.36091,0.0,0.0,0.0,40.85189,-41.08107,0.85944,5.08,-0.73,2.59,3.0
1758078202.69683,1758078189.37091,0.0,0.0,0.0,41.13837,-50.2484,-0.80214,4.8,-0.05,2.45,3.0
1758078202.71387,1758078189.38091,0.0,0.0,0.0,40.85189,-57.58226,-2.63561,4.8,-0.05,2.45,3.0
1758078202.71501,1758078189.39091,0.0,0.0,0.0,40.16434,-63.02536,-3.66693,5.42,0.88,2.53,3.0
1758078202.72979,1758078189.40091,0.0,0.0,0.0,38.44547,-68.86953,-4.35448,6.42,0.88,2.85,3.0
1758078202.73097,1758078189.41091,0.0,0.0,0.0,36.6693,-70.24463,-4.23989,6.42,1.63,2.85,3.0
1758078202.74693,1758078189.42091,0.0,0.0,0.0,34.89313,-71.16136,-3.32316,7.34,1.87,2.99,3.0
1758078202.76296,1758078189.43091,0.0,0.0,0.0,32.6013,-70.53111,-1.71887,7.34,1.87,2.99,3.0
1758078202.76438,1758078189.44091,0.0,0.0,0.0,29.27814,-66.69229,0.34377,7.94,1.44,2.96,3.0
1758078202.7789,1758078189.45091,0.0,0.0,0.0,27.2155,-62.28051,1.43239,7.94,1.44,2.96,3.0
1758078202.79493,1758078189.46091,0.0,0.0,0.0,25.21014,-57.52497,2.11994,8.3,0.81,2.86,3.0
1758078202.79606,1758078189.47091,0.0,0.0,0.0,23.0902,-51.16513,2.34913,8.3,0.81,2.86,3.0
1758078202.81098,1758078189.48091,0.0,0.0,0.0,20.22541,-40.33623,1.3178,8.64,0.58,2.54,3.0
1758078202.81313,1758078189.49091,0.0,0.0,0.0,18.50654,-31.91375,-0.0573,9.12,0.77,2.3,3.0
1758078202.82791,1758078189.50091,0.0,0.0,0.0,16.95955,-23.49127,-2.00535,9.12,0.77,2.3,3.0
1758078202.8441,1758078189.51091,0.0,0.0,0.0,15.69904,-14.83961,-5.4431,9.39,1.07,2.3,3.0
1758078202.84545,1758078189.52091,0.0,0.0,0.0,14.72501,-3.09397,-7.33386,9.39,1.07,2.3,3.0
1758078202.85985,1758078189.53091,0.0,0.0,0.0,14.32395,4.18259,-9.91217,9.56,1.22,2.45,3.0
1758078202.86111,1758078189.54091,0.0,0.0,0.0,14.61043,10.71431,-11.74564,9.56,1.22,2.45,3.0
1758078202.87697,1758078189.55091,0.0,0.0,0.0,15.98552,19.82434,-13.46451,9.84,1.15,2.53,3.0
1758078202.89294,1758078189.56091,0.0,0.0,0.0,17.01685,26.06958,-14.49583,10.08,0.94,2.55,3.0
1758078202.8941,1758078189.57091,0.0,0.0,0.0,18.44924,29.56462,-14.83961,10.08,0.94,2.55,3.0
1758078202.90902,1758078189.58091,0.0,0.0,0.0,19.82434,30.59595,-15.0115,9.85,0.73,2.6,3.0
1758078202.92518,1758078189.59091,0.0,0.0,0.0,21.94428,30.36677,-14.43854,9.85,0.73,2.6,3.0
1758078202.92611,1758078189.60091,0.0,0.0,0.0,23.0329,30.02299,-13.06344,9.89,0.65,2.69,3.0
1758078202.94173,1758078189.61091,0.0,0.0,0.0,23.89234,27.50197,-12.2613,9.89,0.65,2.69,3.0
1758078202.94328,1758078189.62091,0.0,0.0,0.0,23.89234,23.72045,-11.11538,9.81,0.73,2.56,3.0
1758078202.95814,1758078189.63091,0.0,0.0,0.0,22.91831,19.53786,-9.74028,9.75,0.99,2.51,3.0
1758078202.975,1758078189.64091,0.0,0.0,0.0,21.48592,18.56383,-9.22462,9.75,0.99,2.51,3.0
1758078202.97641,1758078189.65091,0.0,0.0,0.0,19.82434,17.47521,-8.76626,9.58,1.29,2.35,3.0
1758078202.99094,1758078189.66091,0.0,0.0,0.0,18.22006,14.66772,-8.36518,9.58,1.29,2.35,3.0
1758078202.99454,1758078189.67091,0.0,0.0,0.0,15.87093,7.79223,-7.10468,8.88,1.44,2.35,3.0
1758078203.01238,1758078189.68091,0.0,0.0,0.0,14.43854,3.09397,-6.18794,8.88,1.44,2.35,3.0
1758078203.01358,1758078189.69091,0.0,0.0,0.0,13.23533,-1.14592,-5.21392,8.68,1.37,2.16,3.0
1758078203.02931,1758078189.70091,0.0,0.0,0.0,12.49048,-5.21392,-4.23989,8.68,1.37,2.16,3.0
1758078203.04518,1758078189.71091,0.0,0.0,0.0,11.22997,-10.37054,-2.97938,8.6,1.14,1.84,3.0
1758078203.04615,1758078189.72091,0.0,0.0,0.0,10.54242,-12.49048,-2.40642,8.62,1.03,1.87,3.0
1758078203.06101,1758078189.73091,0.0,0.0,0.0,10.08406,-13.40721,-2.06265,8.62,1.03,1.87,3.0
1758078203.06216,1758078189.74091,0.0,0.0,0.0,9.4538,-13.75099,-2.34913,8.75,1.08,1.91,3.0
1758078203.07699,1758078189.75091,0.0,0.0,0.0,9.11003,-11.80293,-2.57831,8.75,1.08,1.91,3.0
1758078203.09302,1758078189.76091,0.0,0.0,0.0,8.70896,-10.19865,-3.03668,9.07,1.24,2.03,3.0
1758078203.09422,1758078189.77091,0.0,0.0,0.0,8.30789,-7.84952,-3.72423,9.07,1.24,2.03,3.0
1758078203.10936,1758078189.78091,0.0,0.0,0.0,7.73493,-3.20856,-4.64096,9.29,1.44,1.83,3.0
1758078203.12525,1758078189.79091,0.0,0.0,0.0,7.16197,0.85944,-5.15662,9.45,1.46,1.73,3.0
1758078203.12621,1758078189.80091,0.0,0.0,0.0,6.58902,3.32316,-5.50039,9.45,1.46,1.73,3.0
1758078203.1413,1758078189.81091,0.0,0.0,0.0,6.24524,6.18794,-5.95876,9.41,1.38,1.72,3.0
1758078203.14331,1758078189.82091,0.0,0.0,0.0,5.55769,10.19865,-5.4431,9.41,1.38,1.72,3.0
1758078203.15832,1758078189.83091,0.0,0.0,0.0,4.69825,11.28727,-5.72958,9.68,1.36,1.78,3.0
1758078203.17431,1758078189.84091,0.0,0.0,0.0,3.95341,11.34457,-5.90147,9.68,1.36,1.78,3.0
1758078203.17526,1758078189.85091,0.0,0.0,0.0,3.66693,9.68299,-4.98473,9.75,1.38,1.65,3.0
1758078203.19187,1758078189.86091,0.0,0.0,0.0,1.3751,14.38124,-5.4431,10.29,1.39,1.43,3.0
1758078203.19309,1758078189.87091,0.0,0.0,0.0,-0.51566,16.61578,-5.50039,10.29,1.39,1.43,3.0
1758078203.20806,1758078189.88091,0.0,0.0,0.0,-2.7502,17.53251,-5.84417,10.49,1.49,1.8,3.0
1758078203.22432,1758078189.89091,0.0,0.0,0.0,-5.4431,18.44924,-6.7609,10.49,1.49,1.8,3.0
1758078203.22605,1758078189.90091,0.0,0.0,0.0,-9.91217,18.62113,-7.84952,10.71,1.75,1.87,3.0
1758078203.2414,1758078189.91091,0.0,0.0,0.0,-13.46451,18.10547,-9.05273,10.71,1.75,1.87,3.0
1758078203.24298,1758078189.92091,0.0,0.0,0.0,-16.04282,11.86023,-9.4538,10.74,2.04,2.03,3.0
1758078203.2583,1758078189.93091,0.0,0.0,0.0,-18.62113,-2.00535,-8.59437,10.74,2.04,2.03,3.0
1758078203.27435,1758078189.94091,0.0,0.0,0.0,-21.42862,-22.63183,-9.33921,9.69,2.2,1.69,3.0
1758078203.2757,1758078189.95091,0.0,0.0,0.0,-23.31938,-29.04896,-8.42248,10.67,1.8,1.7,3.0
1758078203.291,1758078189.96091,0.0,0.0,0.0,-24.63719,-23.37668,-7.10468,10.67,1.8,1.7,3.0
1758078203.29239,1758078189.97091,0.0,0.0,0.0,-27.44468,9.91217,-7.39116,14.57,1.5,3.13,3.0
1758078203.30801,1758078189.98091,0.0,0.0,0.0,-28.476,12.77696,-7.84952,14.57,1.5,3.13,3.0
1758078203.32418,1758078189.99091,0.0,0.0,0.0,-27.2155,4.58366,-7.39116,13.96,1.64,5.6,3.0
1758078203.32694,1758078190.00091,0.0,0.0,0.0,-26.47065,-5.55769,-9.39651,13.96,1.64,5.6,3.0
1758078203.34231,1758078190.01091,0.0,0.0,0.0,-23.94964,-2.97938,-10.8862,13.76,2.16,4.77,3.0
1758078203.34367,1758078190.02091,0.0,0.0,0.0,-21.7151,5.15662,-10.02676,14.6,2.32,2.72,3.0
1758078203.35835,1758078190.03091,0.0,0.0,0.0,-20.3973,9.05273,-8.47978,14.6,2.32,2.72,3.0
1758078203.3751,1758078190.04091,0.0,0.0,0.0,-20.16812,8.70896,-6.35983,12.11,1.7,3.04,3.0
1758078203.37668,1758078190.05091,0.0,0.0,0.0,-21.25674,8.76626,-2.7502,12.11,1.7,3.04,3.0
1758078203.3911,1758078190.06091,0.0,0.0,0.0,-23.0329,7.73493,-0.57296,11.46,1.12,3.58,3.0
1758078203.3947,1758078190.07091,0.0,0.0,0.0,-24.92367,3.60963,1.20321,11.46,1.12,3.58,3.0
1758078203.41091,1758078190.08091,0.0,0.0,0.0,-26.81443,-0.80214,2.46372,10.24,0.93,3.28,3.0
1758078203.41287,1758078190.09091,0.0,0.0,0.0,-29.67921,-8.76626,3.55234,8.73,1.17,3.21,3.0
1758078203.42832,1758078190.10091,0.0,0.0,0.0,-31.56997,-15.75634,4.1253,8.73,1.17,3.21,3.0
1758078203.44438,1758078190.11091,0.0,0.0,0.0,-34.37747,-22.34536,4.1253,7.28,1.59,2.92,3.0
1758078203.44558,1758078190.12091,0.0,0.0,0.0,-37.24226,-29.96569,3.95341,7.28,1.59,2.92,3.0
1758078203.46039,1758078190.13091,0.0,0.0,0.0,-42.05511,-41.71133,3.20856,6.59,1.75,3.23,3.0
1758078203.46305,1758078190.14091,0.0,0.0,0.0,-45.09178,-48.24305,2.63561,6.59,1.75,3.23,3.0
1758078203.47918,1758078190.15091,0.0,0.0,0.0,-47.78468,-53.62885,2.06265,6.83,1.53,3.16,3.0
1758078203.49515,1758078190.16091,0.0,0.0,0.0,-51.10783,-59.24384,1.14592,6.83,1.53,3.16,3.0
1758078203.49673,1758078190.17091,0.0,0.0,0.0,-52.36834,-61.02001,0.57296,7.37,1.06,2.93,3.0
1758078203.51117,1758078190.18091,0.0,0.0,0.0,-52.82671,-60.33246,0.11459,7.97,0.57,2.69,3.0
1758078203.51235,1758078190.19091,0.0,0.0,0.0,-52.71212,-57.29578,-0.0573,7.97,0.57,2.69,3.0
1758078203.5274,1758078190.20091,0.0,0.0,0.0,-51.79538,-49.61814,-0.17189,8.75,0.25,2.61,3.0
1758078203.54317,1758078190.21091,0.0,0.0,0.0,-50.59217,-43.88857,0.22918,8.75,0.25,2.61,3.0
1758078203.54473,1758078190.22091,0.0,0.0,0.0,-49.21708,-36.84119,0.45837,9.23,0.17,2.75,3.0
1758078203.55952,1758078190.23091,0.0,0.0,0.0,-47.32632,-30.19488,1.3178,9.23,0.17,2.75,3.0
1758078203.57549,1758078190.24091,0.0,0.0,0.0,-44.23235,-21.25674,2.11994,9.33,0.15,2.43,3.0
1758078203.57723,1758078190.25091,0.0,0.0,0.0,-41.88322,-15.35527,2.6929,9.15,0.07,2.11,3.0
1758078203.59247,1758078190.26091,0.0,0.0,0.0,-39.64868,-9.28192,2.86479,9.15,0.07,2.11,3.0
1758078203.59339,1758078190.27091,0.0,0.0,0.0,-36.95578,-2.7502,2.92208,9.17,0.0,1.87,3.0
1758078203.60848,1758078190.28091,0.0,0.0,0.0,-33.40344,7.39116,2.57831,9.17,0.0,1.87,3.0
1758078203.62423,1758078190.29091,0.0,0.0,0.0,-31.28349,13.40721,2.40642,9.37,-0.11,1.82,3.0
1758078203.62574,1758078190.30091,0.0,0.0,0.0,-29.22085,18.56383,2.23454,9.37,-0.11,1.82,3.0
1758078203.64023,1758078190.31091,0.0,0.0,0.0,-27.50197,22.68913,2.23454,9.36,0.0,1.89,3.0
1758078203.64137,1758078190.32091,0.0,0.0,0.0,-25.61122,29.27814,2.40642,9.43,0.14,1.82,3.0
1758078203.65858,1758078190.33091,0.0,0.0,0.0,-24.75178,33.00237,2.11994,9.43,0.14,1.82,3.0
1758078203.6744,1758078190.34091,0.0,0.0,0.0,-24.23611,35.92446,1.83346,9.32,0.22,1.9,3.0
1758078203.67541,1758078190.35091,0.0,0.0,0.0,-24.23611,38.15899,0.85944,9.32,0.22,1.9,3.0
1758078203.69048,1758078190.36091,0.0,0.0,0.0,-23.83505,39.19032,0.80214,9.13,0.27,2.15,3.0
1758078203.69332,1758078190.37091,0.0,0.0,0.0,-23.49127,37.12767,1.03132,9.13,0.27,2.15,3.0
1758078203.7095,1758078190.38091,0.0,0.0,0.0,-22.91831,34.72124,1.77617,8.78,0.19,2.22,3.0
1758078203.7268,1758078190.39091,0.0,0.0,0.0,-22.11617,32.37212,2.97938,8.78,0.19,2.22,3.0
1758078203.72804,1758078190.40091,0.0,0.0,0.0,-21.48592,32.20023,3.60963,8.75,-0.07,2.16,3.0
1758078203.74325,1758078190.41091,0.0,0.0,0.0,-21.31403,32.25753,4.18259,8.66,-0.25,2.11,3.0
1758078203.74443,1758078190.42091,0.0,0.0,0.0,-21.02755,31.45539,4.58366,8.66,-0.25,2.11,3.0
1758078203.75928,1758078190.43091,0.0,0.0,0.0,-20.16812,28.01764,4.98473,8.31,-0.26,2.19,3.0
1758078203.77528,1758078190.44091,0.0,0.0,0.0,-19.88164,25.09555,4.87014,8.31,-0.26,2.19,3.0
1758078203.77671,1758078190.45091,0.0,0.0,0.0,-19.48057,22.23076,4.35448,8.14,-0.18,2.11,3.0
1758078203.79125,1758078190.46091,0.0,0.0,0.0,-18.79302,19.59516,3.83882,8.14,-0.18,2.11,3.0
1758078203.79278,1758078190.47091,0.0,0.0,0.0,-18.22006,15.58445,2.40642,8.17,-0.03,2.03,3.0
1758078203.80728,1758078190.48091,0.0,0.0,0.0,-17.6471,13.06344,1.66158,8.23,0.11,2.0,3.0
1758078203.82365,1758078190.49091,0.0,0.0,0.0,-17.01685,10.59972,0.97403,8.23,0.11,2.0,3.0
1758078203.82452,1758078190.50091,0.0,0.0,0.0,-16.04282,8.76626,0.74485,8.43,0.13,1.99,3.0
1758078203.83931,1758078190.51091,0.0,0.0,0.0,-14.72501,5.90147,0.85944,8.43,0.13,1.99,3.0
1758078203.84144,1758078190.52091,0.0,0.0,0.0,-13.80828,4.98473,1.3178,8.63,-0.01,1.97,3.0
1758078203.85831,1758078190.53091,0.0,0.0,0.0,-12.71966,4.1253,1.83346,8.63,-0.01,1.97,3.0
1758078203.87454,1758078190.54091,0.0,0.0,0.0,-11.74564,2.63561,2.29183,8.93,-0.2,2.02,3.0
1758078203.87576,1758078190.55091,0.0,0.0,0.0,-10.48513,1.03132,3.26586,9.2,-0.3,1.87,3.0
1758078203.89061,1758078190.56091,0.0,0.0,0.0,-9.85487,0.34377,3.60963,9.2,-0.3,1.87,3.0
1758078203.89267,1758078190.57091,0.0,0.0,0.0,-9.33921,0.74485,4.0107,9.61,-0.23,1.81,3.0
1758078203.9083,1758078190.58091,0.0,0.0,0.0,-8.36518,9.85487,4.92744,9.61,-0.23,1.81,3.0
1758078203.92434,1758078190.59091,0.0,0.0,0.0,-7.73493,14.38124,5.4431,10.38,-0.14,1.91,3.0
1758078203.92609,1758078190.60091,0.0,0.0,0.0,-7.33386,17.81899,5.90147,10.38,-0.14,1.91,3.0
1758078203.94074,1758078190.61091,0.0,0.0,0.0,-6.7609,20.51189,6.58902,10.35,-0.11,2.15,3.0
1758078203.94157,1758078190.62091,0.0,0.0,0.0,-5.55769,24.57989,8.25059,10.35,-0.11,2.55,3.0
1758078203.95864,1758078190.63091,0.0,0.0,0.0,-4.23989,27.67386,10.02676,10.91,-0.13,2.55,3.0
1758078203.97436,1758078190.64091,0.0,0.0,0.0,-2.40642,31.79916,12.49048,11.72,-0.27,2.36,3.0
1758078203.97558,1758078190.65091,0.0,0.0,0.0,-0.17189,35.06502,14.83961,11.72,-0.27,2.36,3.0
1758078203.99039,1758078190.66091,0.0,0.0,0.0,2.46372,36.32552,17.53251,12.2,-0.51,2.55,3.0
1758078203.99265,1758078190.67091,0.0,0.0,0.0,4.98473,29.50733,18.56383,12.2,-0.51,2.55,3.0
1758078204.00834,1758078190.68091,0.0,0.0,0.0,7.21927,11.63104,17.58981,11.6,-0.87,3.28,3.0
1758078204.02462,1758078190.69091,0.0,0.0,0.0,8.70896,6.87549,15.12609,11.6,-0.87,3.28,3.0
1758078204.02583,1758078190.70091,0.0,0.0,0.0,11.97482,37.01308,14.03747,13.55,-0.93,3.38,3.0
1758078204.04062,1758078190.71091,0.0,0.0,0.0,12.204,52.65482,10.94349,16.17,-0.43,5.96,3.0
1758078204.04152,1758078190.72091,0.0,0.0,0.0,12.37589,49.15978,7.33386,16.17,-0.43,5.96,3.0
1758078204.05837,1758078190.73091,0.0,0.0,0.0,12.60507,15.12609,7.04738,11.54,0.42,7.11,3.0
1758078204.07464,1758078190.74091,0.0,0.0,0.0,11.63104,-5.09932,7.16197,11.54,0.42,7.11,3.0
1758078204.07597,1758078190.75091,0.0,0.0,0.0,12.43318,1.60428,9.68299,14.82,0.62,4.27,3.0
1758078204.09067,1758078190.76091,0.0,0.0,0.0,13.00614,11.45916,8.25059,14.82,0.62,4.27,3.0
1758078204.09404,1758078190.77091,0.0,0.0,0.0,14.43854,13.80828,4.29718,14.44,0.45,2.78,3.0
1758078204.10941,1758078190.78091,0.0,0.0,0.0,16.61578,12.77696,0.80214,10.78,-0.2,4.99,3.0
1758078204.1114,1758078190.79091,0.0,0.0,0.0,18.85031,11.63104,-2.97938,10.78,-0.2,4.99,3.0
1758078204.12864,1758078190.80091,0.0,0.0,0.0,21.7151,9.68299,-6.07335,9.77,-0.57,4.35,3.0
1758078204.14439,1758078190.81091,0.0,0.0,0.0,26.18417,9.62569,-8.42248,9.77,-0.57,4.35,3.0
1758078204.14957,1758078190.82091,0.0,0.0,0.0,29.50733,10.31324,-8.30789,8.91,-0.64,3.35,3.0
1758078204.1647,1758078190.83091,0.0,0.0,0.0,32.48671,7.50575,-7.16197,8.91,-0.64,3.35,3.0
1758078204.17395,1758078190.84091,0.0,0.0,0.0,35.12231,1.20321,-5.61499,6.81,-0.72,2.81,3.0
1758078204.17434,1758078190.85091,0.0,0.0,0.0,38.78925,-13.00614,-2.34913,4.96,-0.72,2.62,3.0
1758078204.19046,1758078190.86091,0.0,0.0,0.0,41.08107,-23.60586,0.0,4.96,-0.73,2.62,3.0
1758078204.19277,1758078190.87091,0.0,0.0,0.0,43.37291,-33.86181,1.77617,4.59,-0.72,2.62,3.0
1758078204.20864,1758078190.88091,0.0,0.0,0.0,45.77933,-43.37291,3.49504,4.59,-0.72,2.62,3.0
1758078204.22474,1758078190.89091,0.0,0.0,0.0,48.35764,-52.71212,4.58366,5.24,-0.48,2.64,3.0
1758078204.23069,1758078190.90091,0.0,0.0,0.0,50.13381,-57.52497,5.27121,5.24,-0.48,2.64,3.0
1758078204.24862,1758078190.91091,0.0,0.0,0.0,50.87865,-60.44705,5.32851,6.11,0.05,2.76,3.0
1758078204.25379,1758078190.92091,0.0,0.0,0.0,51.39432,-61.42108,5.95876,6.11,0.05,2.76,3.0
1758078204.25444,1758078190.93091,0.0,0.0,0.0,51.16513,-60.27517,6.41713,6.84,0.73,2.73,3.0
1758078204.27047,1758078190.94091,0.0,0.0,0.0,50.363,-58.72818,7.04738,7.22,1.3,2.57,3.0
1758078204.27409,1758078190.95091,0.0,0.0,0.0,49.56085,-55.97798,7.67763,7.22,1.3,2.57,3.0
1758078204.28976,1758078190.96091,0.0,0.0,0.0,47.89928,-52.48294,7.79223,7.55,1.51,2.55,3.0
1758078204.29262,1758078190.97091,0.0,0.0,0.0,44.748,-47.15443,7.50575,7.55,1.51,2.55,3.0
1758078204.30887,1758078190.98091,0.0,0.0,0.0,42.1124,-42.39888,6.99009,7.94,1.54,2.5,3.0
1758078204.32471,1758078190.99091,0.0,0.0,0.0,39.53409,-36.49741,5.78687,7.94,1.54,2.5,3.0
1758078204.3257,1758078191.00091,0.0,0.0,0.0,35.12231,-27.38738,3.26586,8.52,1.53,2.47,3.0
1758078204.34082,1758078191.01091,0.0,0.0,0.0,31.97105,-21.60051,1.08862,8.79,1.46,2.53,3.0
1758078204.3417,1758078191.02091,0.0,0.0,0.0,29.04896,-15.64175,-1.3178,8.79,1.46,2.53,3.0
1758078204.35834,1758078191.03091,0.0,0.0,0.0,26.52795,-9.28192,-3.72423,8.97,1.32,2.55,3.0
1758078204.37454,1758078191.04091,0.0,0.0,0.0,23.31938,-0.22918,-7.16197,8.97,1.32,2.55,3.0
1758078204.37616,1758078191.05091,0.0,0.0,0.0,21.7151,4.64096,-8.99544,9.05,1.24,2.65,3.0
1758078204.39083,1758078191.06091,0.0,0.0,0.0,20.74107,9.62569,-10.54242,9.05,1.24,2.65,3.0
1758078204.3925,1758078191.07091,0.0,0.0,0.0,20.16812,13.75099,-11.63104,9.33,1.18,2.79,3.0
1758078204.40882,1758078191.08091,0.0,0.0,0.0,20.22541,17.18874,-12.14671,9.48,1.14,2.76,3.0
1758078204.42479,1758078191.09091,0.0,0.0,0.0,20.68378,18.16276,-12.08941,9.48,1.14,2.76,3.0
1758078204.42598,1758078191.10091,0.0,0.0,0.0,21.37133,19.19409,-11.91752,9.7,1.05,2.67,3.0
1758078204.44053,1758078191.11091,0.0,0.0,0.0,22.23076,19.99623,-11.34457,9.7,1.05,2.67,3.0
1758078204.44377,1758078191.12091,0.0,0.0,0.0,23.26209,17.93358,-10.37054,9.65,0.96,2.52,3.0
1758078204.45959,1758078191.13091,0.0,0.0,0.0,23.83505,14.15206,-9.28192,9.65,0.96,2.52,3.0
1758078204.47583,1758078191.14091,0.0,0.0,0.0,24.00693,11.57375,-8.0787,9.38,0.9,2.59,3.0
1758078204.47675,1758078191.15091,0.0,0.0,0.0,23.72045,10.48513,-7.33386,9.38,0.9,2.59,3.0
1758078204.49268,1758078191.16091,0.0,0.0,0.0,22.28806,7.62034,-6.53172,9.57,0.99,2.52,3.0
1758078204.49383,1758078191.17091,0.0,0.0,0.0,21.02755,4.92744,-5.95876,9.1,1.2,2.29,3.0
1758078204.5088,1758078191.18091,0.0,0.0,0.0,19.53786,2.46372,-5.55769,9.1,1.2,2.29,3.0
1758078204.52491,1758078191.19091,0.0,0.0,0.0,17.58981,-0.57296,-4.58366,8.83,1.36,2.32,3.0
1758078204.52602,1758078191.20091,0.0,0.0,0.0,16.21471,-5.61499,-3.83882,8.83,1.36,2.32,3.0
1758078204.54095,1758078191.21091,0.0,0.0,0.0,14.72501,-8.42248,-3.09397,8.65,1.37,1.99,3.0
1758078204.54332,1758078191.22091,0.0,0.0,0.0,13.40721,-10.54242,-2.29183,8.65,1.37,1.99,3.0
1758078204.55991,1758078191.23091,0.0,0.0,0.0,11.80293,-12.43318,-1.60428,8.8,1.34,1.89,3.0
1758078204.57595,1758078191.24091,0.0,0.0,0.0,10.65701,-13.06344,-1.14592,8.94,1.35,1.78,3.0
1758078204.57678,1758078191.25091,0.0,0.0,0.0,9.68299,-12.49048,-1.43239,8.94,1.35,1.78,3.0
1758078204.59192,1758078191.26091,0.0,0.0,0.0,9.05273,-10.65701,-1.48969,9.23,1.4,1.83,3.0
1758078204.59362,1758078191.27091,0.0,0.0,0.0,8.25059,-8.02141,-1.94806,9.23,1.4,1.83,3.0
1758078204.60891,1758078191.28091,0.0,0.0,0.0,7.79223,-5.50039,-2.06265,9.39,1.37,1.81,3.0
1758078204.62493,1758078191.29091,0.0,0.0,0.0,7.67763,-2.6929,-2.57831,9.39,1.37,1.81,3.0
1758078204.62611,1758078191.30091,0.0,0.0,0.0,7.50575,0.80214,-2.86479,9.58,1.27,1.77,3.0
1758078204.64069,1758078191.31091,0.0,0.0,0.0,7.33386,5.72958,-3.38045,9.65,1.2,1.6,3.0
1758078204.6421,1758078191.32091,0.0,0.0,0.0,7.62034,8.02141,-3.49504,9.65,1.2,1.6,3.0
1758078204.65894,1758078191.33091,0.0,0.0,0.0,7.67763,11.00079,-3.38045,9.83,1.18,1.63,3.0
1758078204.675,1758078191.34091,0.0,0.0,0.0,7.79223,12.2613,-3.03668,9.83,1.18,1.63,3.0
1758078204.67697,1758078191.35091,0.0,0.0,0.0,7.79223,15.12609,-1.43239,10.02,1.13,1.61,3.0
1758078204.69194,1758078191.36091,0.0,0.0,0.0,7.21927,15.58445,-1.77617,10.02,1.13,1.61,3.0
1758078204.6928,1758078191.37091,0.0,0.0,0.0,6.41713,14.9542,-1.71887,10.21,1.15,1.75,3.0
1758078204.70794,1758078191.38091,0.0,0.0,0.0,5.50039,13.80828,-1.08862,10.21,1.15,1.75,3.0
1758078204.72393,1758078191.39091,0.0,0.0,0.0,2.86479,16.84496,-1.83346,10.52,1.32,1.69,3.0
1758078204.72486,1758078191.40091,0.0,0.0,0.0,0.85944,18.33465,-2.40642,11.12,1.64,2.07,3.0
1758078204.73966,1758078191.41091,0.0,0.0,0.0,-1.77617,18.33465,-3.09397,11.12,1.64,2.07,3.0
1758078204.75567,1758078191.42091,0.0,0.0,0.0,-6.35983,17.24603,-4.35448,11.41,2.06,2.34,3.0
1758078204.75687,1758078191.43091,0.0,0.0,0.0,-9.4538,16.55848,-5.32851,11.41,2.06,2.34,3.0
1758078204.77345,1758078191.44091,0.0,0.0,0.0,-12.37589,10.19865,-5.95876,11.57,2.39,2.34,3.0
1758078204.77447,1758078191.45091,0.0,0.0,0.0,-14.72501,-8.88085,-6.7609,11.57,2.39,2.34,3.0
1758078204.78987,1758078191.46091,0.0,0.0,0.0,-17.87628,-35.06502,-8.59437,9.75,2.49,2.06,3.0
1758078204.80802,1758078191.47091,0.0,0.0,0.0,-19.19409,-39.70598,-8.25059,11.45,1.73,1.83,3.0
1758078204.80924,1758078191.48091,0.0,0.0,0.0,-20.97026,-27.78845,-8.0787,11.45,1.73,1.83,3.0
1758078204.82491,1758078191.49091,0.0,0.0,0.0,-23.49127,5.78687,-8.99544,15.71,1.35,3.66,3.0
1758078204.82587,1758078191.50091,0.0,0.0,0.0,-22.11617,7.21927,-6.58902,15.71,1.35,3.66,3.0
1758078204.84152,1758078191.51091,0.0,0.0,0.0,-22.05888,-2.34913,-6.35983,13.22,1.46,6.36,3.0
1758078204.8435,1758078191.52091,0.0,0.0,0.0,-20.97026,-6.70361,-6.35983,13.22,1.46,6.36,3.0
1758078204.85865,1758078191.53091,0.0,0.0,0.0,-19.48057,-6.35983,-5.90147,14.52,2.13,4.01,3.0
1758078204.87679,1758078191.54091,0.0,0.0,0.0,-17.81899,-2.40642,-4.1253,13.3,2.07,2.56,3.0
1758078204.87797,1758078191.55091,0.0,0.0,0.0,-17.93358,-2.40642,-2.7502,13.3,2.07,2.56,3.0
1758078204.89298,1758078191.56091,0.0,0.0,0.0,-18.56383,-2.86479,-1.60428,11.01,1.4,3.7,3.0
1758078204.89392,1758078191.57091,0.0,0.0,0.0,-19.53786,-2.40642,-0.40107,11.01,1.4,3.7,3.0
1758078204.90903,1758078191.58091,0.0,0.0,0.0,-20.97026,-4.1253,1.43239,10.51,1.13,3.77,3.0
1758078204.914,1758078191.59091,0.0,0.0,0.0,-21.42862,-6.18794,2.23454,10.51,1.13,3.77,3.0
1758078204.92994,1758078191.60091,0.0,0.0,0.0,-21.88699,-9.39651,2.86479,9.45,1.18,3.11,3.0
1758078204.93176,1758078191.61091,0.0,0.0,0.0,-22.86102,-16.272,3.32316,9.45,1.18,3.11,3.0
1758078204.94885,1758078191.62091,0.0,0.0,0.0,-24.00693,-21.60051,3.32316,7.91,1.2,2.89,3.0
1758078204.95467,1758078191.63091,0.0,0.0,0.0,-25.8404,-27.96034,3.55234,6.98,1.23,3.14,3.0
1758078204.97363,1758078191.64091,0.0,0.0,0.0,-28.07493,-32.77319,3.49504,6.98,1.23,3.14,3.0
1758078204.97721,1758078191.65091,0.0,0.0,0.0,-32.25753,-37.64333,3.72423,7.22,1.29,3.25,3.0
1758078204.99926,1758078191.66091,0.0,0.0,0.0,-35.3515,-40.33623,3.49504,7.22,1.29,3.25,3.0
1758078205.02096,1758078191.67091,0.0,0.0,0.0,-38.27358,-41.94051,3.32316,7.58,1.23,3.14,3.0
1758078205.02206,1758078191.68091,0.0,0.0,0.0,-40.45082,-42.57077,3.32316,7.58,1.23,3.14,3.0
1758078205.02331,1758078191.69091,0.0,0.0,0.0,-42.68536,-40.62271,3.20856,7.89,1.01,2.75,3.0
1758078205.02396,1758078191.70091,0.0,0.0,0.0,-43.54479,-37.18496,3.55234,8.42,0.62,2.45,3.0
1758078205.03978,1758078191.71091,0.0,0.0,0.0,-43.88857,-31.79916,3.66693,8.42,0.62,2.45,3.0
1758078205.04334,1758078191.72091,0.0,0.0,0.0,-43.65939,-26.35606,4.18259,8.92,0.28,2.5,3.0
1758078205.05898,1758078191.73091,0.0,0.0,0.0,-42.39888,-18.44924,4.92744,8.92,0.28,2.5,3.0
1758078205.07765,1758078191.74091,0.0,0.0,0.0,-41.08107,-12.71966,5.27121,8.98,0.11,2.3,3.0
1758078205.07802,1758078191.75091,0.0,0.0,0.0,-39.76327,-7.84952,5.32851,8.98,0.11,2.3,3.0
1758078205.09423,1758078191.76091,0.0,0.0,0.0,-37.98711,-3.66693,5.27121,8.84,-0.01,2.11,3.0
1758078205.09693,1758078191.77091,0.0,0.0,0.0,-35.12231,2.97938,4.52637,8.77,-0.03,1.93,3.0
1758078205.11208,1758078191.78091,0.0,0.0,0.0,-33.17426,7.44845,3.89611,8.77,-0.03,1.93,3.0
1758078205.11476,1758078191.79091,0.0,0.0,0.0,-31.51268,11.74564,3.20856,8.88,0.0,1.91,3.0
1758078205.13009,1758078191.80091,0.0,0.0,0.0,-29.10626,15.24068,2.63561,8.88,0.0,1.91,3.0
1758078205.1461,1758078191.81091,0.0,0.0,0.0,-27.78845,17.81899,2.34913,8.89,0.08,2.06,3.0
1758078205.14912,1758078191.82091,0.0,0.0,0.0,-27.04361,18.9649,2.34913,8.89,0.08,2.06,3.0
1758078205.15403,1758078191.83091,0.0,0.0,0.0,-26.18417,20.22541,2.29183,8.95,0.15,2.18,3.0
1758078205.17287,1758078191.84091,0.0,0.0,0.0,-25.7831,21.42862,2.23454,8.95,0.15,2.18,3.0
1758078205.17833,1758078191.85091,0.0,0.0,0.0,-25.8404,21.6578,1.66158,8.89,0.19,2.21,3.0
1758078205.19314,1758078191.86091,0.0,0.0,0.0,-26.01229,20.51189,1.77617,8.6,0.21,2.35,3.0
1758078205.19404,1758078191.87091,0.0,0.0,0.0,-25.7831,19.07949,1.94806,8.6,0.21,2.35,3.0
1758078205.20912,1758078191.88091,0.0,0.0,0.0,-25.49662,18.90761,3.09397,8.49,0.05,2.29,3.0
1758078205.22608,1758078191.89091,0.0,0.0,0.0,-25.09555,18.62113,4.18259,8.49,0.05,2.29,3.0
1758078205.22654,1758078191.90091,0.0,0.0,0.0,-24.4653,17.47521,5.21392,8.47,-0.22,2.36,3.0
1758078205.2441,1758078191.91091,0.0,0.0,0.0,-24.17882,15.92823,5.90147,8.47,-0.22,2.36,3.0
1758078205.24934,1758078191.92091,0.0,0.0,0.0,-23.94964,13.69369,6.13065,8.33,-0.38,2.26,3.0
1758078205.26381,1758078191.93091,0.0,0.0,0.0,-23.72045,11.51645,5.72958,8.31,-0.26,2.06,3.0
1758078205.26904,1758078191.94091,0.0,0.0,0.0,-23.26209,9.5684,5.32851,8.31,-0.26,2.06,3.0
1758078205.28411,1758078191.95091,0.0,0.0,0.0,-22.91831,7.62034,4.52637,8.23,-0.04,1.89,3.0
1758078205.28586,1758078191.96091,0.0,0.0,0.0,-21.88699,5.21392,3.09397,8.23,-0.04,1.89,3.0
1758078205.30112,1758078191.97091,0.0,0.0,0.0,-21.02755,4.52637,2.23454,8.34,0.09,1.93,3.0
1758078205.30204,1758078191.98091,0.0,0.0,0.0,-20.22541,4.1253,1.3751,8.34,0.09,1.93,3.0
1758078205.31717,1758078191.99091,0.0,0.0,0.0,-19.25138,4.87014,0.85944,8.6,0.16,1.88,3.0
1758078205.33316,1758078192.00091,0.0,0.0,0.0,-18.16276,5.21392,0.68755,8.85,0.12,1.86,3.0
1758078205.33435,1758078192.01091,0.0,0.0,0.0,-17.13144,5.61499,0.80214,8.85,0.12,1.86,3.0
1758078205.34919,1758078192.02091,0.0,0.0,0.0,-15.98552,6.35983,1.20321,9.13,-0.05,1.94,3.0
1758078205.35423,1758078192.03091,0.0,0.0,0.0,-14.15206,7.10468,1.60428,9.13,-0.05,1.94,3.0
1758078205.36889,1758078192.04091,0.0,0.0,0.0,-12.83425,9.11003,1.83346,9.47,-0.27,1.96,3.0
1758078205.37437,1758078192.05091,0.0,0.0,0.0,-11.74564,10.59972,2.29183,9.47,-0.27,1.96,3.0
1758078205.39217,1758078192.06091,0.0,0.0,0.0,-10.8862,11.63104,2.46372,9.81,-0.36,1.98,3.0
1758078205.39311,1758078192.07091,0.0,0.0,0.0,-10.02676,12.89155,2.29183,9.81,-0.36,1.86,3.0
1758078205.40872,1758078192.08091,0.0,0.0,0.0,-9.11003,12.60507,3.03668,9.99,-0.26,1.86,3.0
1758078205.41093,1758078192.09091,0.0,0.0,0.0,-8.42248,14.38124,3.09397,10.25,-0.17,1.65,3.0
1758078205.42641,1758078192.10091,0.0,0.0,0.0,-7.79223,17.76169,3.32316,10.25,-0.17,1.65,3.0
1758078205.44297,1758078192.11091,0.0,0.0,0.0,-6.41713,24.98096,4.18259,10.86,-0.15,1.72,3.0
1758078205.44413,1758078192.12091,0.0,0.0,0.0,-5.27121,30.25217,5.09932,10.86,-0.15,1.72,3.0
1758078205.45895,1758078192.13091,0.0,0.0,0.0,-3.89611,35.00772,6.58902,11.33,-0.16,2.25,3.0
1758078205.46115,1758078192.14091,0.0,0.0,0.0,-2.11994,39.19032,8.36518,11.33,-0.16,2.25,3.0
1758078205.47805,1758078192.15091,0.0,0.0,0.0,0.22918,44.8053,10.8289,11.83,-0.31,2.34,3.0
1758078205.4942,1758078192.16091,0.0,0.0,0.0,2.00535,45.37826,11.86023,12.06,-0.6,2.67,3.0
1758078205.49515,1758078192.17091,0.0,0.0,0.0,3.89611,37.18496,12.14671,12.06,-0.6,2.67,3.0
1758078205.5107,1758078192.18091,0.0,0.0,0.0,5.61499,17.87628,11.57375,10.93,-0.84,3.25,3.0
1758078205.51193,1758078192.19091,0.0,0.0,0.0,8.59437,20.97026,8.88085,10.93,-0.84,3.25,3.0
1758078205.52693,1758078192.20091,0.0,0.0,0.0,9.68299,43.94586,8.0787,14.8,-0.86,3.12,3.0
1758078205.54296,1758078192.21091,0.0,0.0,0.0,10.65701,56.14987,6.8182,14.8,-0.86,3.12,3.0
1758078205.54414,1758078192.22091,0.0,0.0,0.0,7.96411,50.01921,2.46372,14.84,-0.31,6.41,3.0
1758078205.55895,1758078192.23091,0.0,0.0,0.0,9.11003,12.71966,4.92744,12.33,0.15,6.76,3.0
1758078205.56021,1758078192.24091,0.0,0.0,0.0,9.28192,4.1253,4.29718,12.33,0.15,6.76,3.0
1758078205.57713,1758078192.25091,0.0,0.0,0.0,10.59972,9.22462,7.44845,15.75,0.37,3.58,3.0
1758078205.59861,1758078192.26091,0.0,0.0,0.0,11.80293,18.27736,6.07335,15.75,0.37,3.58,3.0
1758078205.60468,1758078192.27091,0.0,0.0,0.0,12.60507,19.48057,3.55234,13.24,0.11,3.96,3.0
1758078205.60839,1758078192.28091,0.0,0.0,0.0,14.38124,18.33465,-0.0573,13.24,0.11,3.96,3.0
1758078205.62429,1758078192.29091,0.0,0.0,0.0,16.61578,16.90226,-3.26586,10.88,-0.36,5.28,3.0
1758078205.62696,1758078192.30091,0.0,0.0,0.0,20.51189,15.64175,-7.44845,10.06,-0.36,4.34,3.0
1758078205.6429,1758078192.31091,0.0,0.0,0.0,23.83505,15.0115,-8.0787,10.06,-0.49,4.34,3.0
1758078205.64401,1758078192.32091,0.0,0.0,0.0,27.1582,14.49583,-7.67763,8.63,-0.69,3.44,3.0
1758078205.65899,1758078192.33091,0.0,0.0,0.0,30.02299,11.97482,-5.90147,8.63,-0.69,3.44,3.0
1758078205.66017,1758078192.34091,0.0,0.0,0.0,33.34615,1.20321,-2.34913,6.31,-0.94,2.98,3.0
1758078205.67725,1758078192.35091,0.0,0.0,0.0,34.89313,-7.96411,0.34377,6.31,-0.94,2.98,3.0
1758078205.69327,1758078192.36091,0.0,0.0,0.0,36.61201,-17.13144,3.03668,4.73,-0.95,2.74,3.0
1758078205.69419,1758078192.37091,0.0,0.0,0.0,38.38818,-25.55392,5.4431,4.73,-0.95,2.74,3.0
1758078205.70928,1758078192.38091,0.0,0.0,0.0,40.7946,-36.6693,7.67763,4.57,-0.82,2.74,3.0
1758078205.75346,1758078192.39091,0.0,0.0,0.0,42.28429,-42.34158,8.76626,5.02,-0.39,2.93,3.0
1758078205.75475,1758078192.40091,0.0,0.0,0.0,43.02913,-45.60744,9.28192,5.02,-0.39,2.93,3.0
1758078205.75538,1758078192.41091,0.0,0.0,0.0,43.25832,-47.78468,9.5684,5.76,0.3,3.05,3.0
1758078205.75821,1758078192.42091,0.0,0.0,0.0,42.91454,-48.64412,9.74028,5.76,0.3,3.05,3.0
1758078205.75888,1758078192.43091,0.0,0.0,0.0,41.94051,-48.12846,9.85487,6.28,1.08,2.83,3.0
1758078205.76083,1758078192.44091,0.0,0.0,0.0,40.50812,-46.69606,10.31324,6.28,1.08,2.83,3.0
1758078205.77893,1758078192.45091,0.0,0.0,0.0,37.29956,-42.28429,10.48513,6.64,1.66,2.59,3.0
1758078205.78217,1758078192.46091,0.0,0.0,0.0,34.66395,-38.50277,9.74028,7.16,1.84,2.76,3.0
1758078205.79816,1758078192.47091,0.0,0.0,0.0,31.62727,-34.26288,8.59437,7.16,1.84,2.76,3.0
1758078205.81431,1758078192.48091,0.0,0.0,0.0,28.476,-29.04896,6.7609,7.84,1.71,2.88,3.0
1758078205.81524,1758078192.49091,0.0,0.0,0.0,24.12152,-20.79837,3.26586,7.84,1.71,2.88,3.0
1758078205.83084,1758078192.50091,0.0,0.0,0.0,21.7151,-15.29797,0.57296,8.45,1.49,2.94,3.0
1758078205.83525,1758078192.51091,0.0,0.0,0.0,19.76705,-9.28192,-2.11994,8.45,1.49,2.94,3.0
1758078205.85089,1758078192.52091,0.0,0.0,0.0,18.50654,-2.86479,-4.69825,8.83,1.21,2.89,3.0
1758078205.85209,1758078192.53091,0.0,0.0,0.0,17.76169,5.72958,-8.136,9.0,0.9,2.86,3.0
1758078205.86871,1758078192.54091,0.0,0.0,0.0,17.99088,11.63104,-9.91217,9.0,0.9,2.86,3.0
1758078205.88442,1758078192.55091,0.0,0.0,0.0,18.73572,16.90226,-11.45916,9.2,0.65,2.87,3.0
1758078205.88595,1758078192.56091,0.0,0.0,0.0,19.82434,20.62648,-12.08941,9.2,0.65,2.87,3.0
1758078205.90038,1758078192.57091,0.0,0.0,0.0,22.00158,24.80907,-12.2613,9.42,0.54,3.05,3.0
1758078205.90241,1758078192.58091,0.0,0.0,0.0,23.83505,26.24147,-11.97482,9.42,0.54,3.05,3.0
1758078205.91812,1758078192.59091,0.0,0.0,0.0,25.49662,26.87172,-11.57375,9.67,0.5,3.12,3.0
1758078205.93437,1758078192.60091,0.0,0.0,0.0,27.33009,26.75713,-10.8289,9.67,0.5,3.12,3.0
1758078205.93528,1758078192.61091,0.0,0.0,0.0,29.73651,25.21014,-9.33921,9.73,0.49,3.13,3.0
1758078205.95092,1758078192.62091,0.0,0.0,0.0,30.93972,23.26209,-8.25059,9.54,0.57,3.07,3.0
1758078205.95443,1758078192.63091,0.0,0.0,0.0,32.08564,21.02755,-6.7609,9.54,0.57,3.07,3.0
1758078205.9709,1758078192.64091,0.0,0.0,0.0,32.25753,19.53786,-4.69825,9.41,0.71,2.97,3.0
1758078205.97453,1758078192.65091,0.0,0.0,0.0,31.45539,19.48057,-4.18259,9.41,0.71,2.97,3.0
1758078205.99093,1758078192.66091,0.0,0.0,0.0,30.19488,18.16276,-4.0107,9.29,0.92,2.94,3.0
1758078205.9964,1758078192.67091,0.0,0.0,0.0,28.59059,15.06879,-4.35448,9.29,0.92,2.94,3.0
1758078206.01684,1758078192.68091,0.0,0.0,0.0,26.12688,8.88085,-4.35448,8.7,1.19,2.79,3.0
1758078206.02116,1758078192.69091,0.0,0.0,0.0,24.75178,4.64096,-3.72423,8.64,1.35,2.72,3.0
1758078206.02423,1758078192.70091,0.0,0.0,0.0,23.31938,0.51566,-3.03668,8.64,1.35,2.72,3.0
1758078206.04006,1758078192.71091,0.0,0.0,0.0,22.23076,-2.63561,-1.83346,8.76,1.36,2.35,3.0
1758078206.04463,1758078192.72091,0.0,0.0,0.0,20.62648,-6.41713,-0.11459,8.76,1.36,2.35,3.0
1758078206.06281,1758078192.73091,0.0,0.0,0.0,19.82434,-7.62034,0.97403,8.87,1.23,2.27,3.0
1758078206.06643,1758078192.74091,0.0,0.0,0.0,19.13679,-8.99544,1.77617,8.87,1.23,2.27,3.0
1758078206.12918,1758078192.75091,0.0,0.0,0.0,18.56383,-8.76626,2.06265,8.87,1.07,2.34,3.0
1758078206.1367,1758078192.76091,0.0,0.0,0.0,18.27736,-7.84952,2.11994,9.04,1.01,2.48,3.0
1758078206.13707,1758078192.77091,0.0,0.0,0.0,18.33465,-7.10468,2.11994,9.04,1.01,2.48,3.0
1758078206.14069,1758078192.78091,0.0,0.0,0.0,18.16276,-5.72958,1.83346,9.1,1.08,2.47,3.0
1758078206.14388,1758078192.79091,0.0,0.0,0.0,17.93358,-4.58366,1.3178,9.1,1.08,2.47,3.0
1758078206.14689,1758078192.80091,0.0,0.0,0.0,17.76169,-2.92208,0.34377,9.12,1.15,2.38,3.0
1758078206.14793,1758078192.81091,0.0,0.0,0.0,17.47521,-2.57831,-0.0573,9.12,1.15,2.38,3.0
1758078206.14995,1758078192.82091,0.0,0.0,0.0,17.30333,-2.11994,-0.80214,9.05,1.16,2.27,3.0
1758078206.15864,1758078192.83091,0.0,0.0,0.0,16.73037,-0.57296,-1.71887,9.05,1.16,2.27,3.0
1758078206.17441,1758078192.84091,0.0,0.0,0.0,16.10011,0.74485,-1.48969,9.18,1.23,2.14,3.0
1758078206.17776,1758078192.85091,0.0,0.0,0.0,15.29797,3.32316,-1.3178,9.35,1.32,2.04,3.0
1758078206.19346,1758078192.86091,0.0,0.0,0.0,13.69369,7.33386,-1.94806,9.35,1.32,2.04,3.0
1758078206.2032,1758078192.87091,0.0,0.0,0.0,11.57375,8.42248,-2.40642,9.62,1.42,2.24,3.0
1758078206.20377,1758078192.88091,0.0,0.0,0.0,10.31324,6.07335,-2.06265,9.62,1.42,2.24,3.0
1758078206.2227,1758078192.89091,0.0,0.0,0.0,7.67763,7.73493,-3.03668,9.69,1.48,2.05,3.0
1758078206.23267,1758078192.90091,0.0,0.0,0.0,5.27121,8.0787,-3.72423,9.69,1.48,2.05,3.0
1758078206.30269,1758078192.91091,0.0,0.0,0.0,0.97403,8.42248,-5.50039,10.09,1.6,2.4,3.0
1758078206.30567,1758078192.92091,0.0,0.0,0.0,-2.34913,8.76626,-7.16197,10.34,1.89,2.29,3.0
1758078206.30677,1758078192.93091,0.0,0.0,0.0,-5.84417,8.76626,-8.70896,10.34,1.89,2.29,3.0
1758078206.30886,1758078192.94091,0.0,0.0,0.0,-9.5684,8.93814,-10.48513,10.67,2.25,2.55,3.0
1758078206.3098,1758078192.95091,0.0,0.0,0.0,-14.03747,-3.95341,-11.45916,10.67,2.25,2.55,3.0
1758078206.3118,1758078192.96091,0.0,0.0,0.0,-16.3293,-19.59516,-11.45916,9.94,2.48,2.3,3.0
1758078206.31222,1758078192.97091,0.0,0.0,0.0,-18.85031,-29.50733,-11.22997,9.94,2.48,2.3,3.0
1758078206.3129,1758078192.98091,0.0,0.0,0.0,-21.02755,-33.74722,-9.91217,10.52,2.15,2.0,3.0
1758078206.31417,1758078192.99091,0.0,0.0,0.0,-22.57454,-14.61043,-10.8862,13.83,1.87,3.07,3.0
1758078206.33289,1758078193.00091,0.0,0.0,0.0,-26.35606,0.17189,-13.5791,13.83,1.87,3.07,3.0
1758078206.33467,1758078193.01091,0.0,0.0,0.0,-26.47065,4.98473,-13.17803,14.23,1.73,5.73,3.0
1758078206.3496,1758078193.02091,0.0,0.0,0.0,-26.69983,-1.14592,-14.03747,14.23,1.73,5.73,3.0
1758078206.35125,1758078193.03091,0.0,0.0,0.0,-26.24147,-5.15662,-16.3293,13.48,2.18,6.02,3.0
1758078206.3681,1758078193.04091,0.0,0.0,0.0,-25.09555,2.34913,-15.58445,13.48,2.18,6.02,3.0
1758078206.38448,1758078193.05091,0.0,0.0,0.0,-23.72045,8.99544,-12.08941,15.16,2.52,4.1,3.0
1758078206.3855,1758078193.06091,0.0,0.0,0.0,-23.49127,7.84952,-6.07335,15.16,2.52,4.1,3.0
1758078206.40062,1758078193.07091,0.0,0.0,0.0,-24.29341,7.39116,-2.00535,13.03,2.18,3.54,3.0
1758078206.40316,1758078193.08091,0.0,0.0,0.0,-25.89769,6.8182,1.48969,12.06,1.4,4.23,3.0
1758078206.4183,1758078193.09091,0.0,0.0,0.0,-28.24682,4.87014,4.18259,12.06,1.4,4.23,3.0
1758078206.43439,1758078193.10091,0.0,0.0,0.0,-32.25753,0.97403,5.55769,10.98,1.09,3.98,3.0
1758078206.4363,1758078193.11091,0.0,0.0,0.0,-34.43476,-4.46907,5.78687,10.98,1.09,3.98,3.0
1758078206.45155,1758078193.12091,0.0,0.0,0.0,-36.61201,-10.94349,5.32851,9.34,1.49,4.2,3.0
1758078206.4576,1758078193.13091,0.0,0.0,0.0,-38.90384,-19.42327,4.69825,9.34,1.49,4.2,3.0
1758078206.47263,1758078193.14091,0.0,0.0,0.0,-43.14373,-34.0337,3.60963,7.59,1.94,3.67,3.0
1758078206.47356,1758078193.15091,0.0,0.0,0.0,-46.40959,-44.17505,2.34913,6.54,1.99,3.59,3.0
1758078206.48861,1758078193.16091,0.0,0.0,0.0,-49.38896,-54.431,1.43239,6.54,1.99,3.59,3.0
1758078206.50461,1758078193.17091,0.0,0.0,0.0,-52.48294,-63.31184,1.08862,6.41,1.76,3.42,3.0
1758078206.50557,1758078193.18091,0.0,0.0,0.0,-56.49364,-72.07809,1.3178,6.41,1.76,3.42,3.0
1758078206.5208,1758078193.19091,0.0,0.0,0.0,-58.3844,-74.02615,1.94806,7.15,1.3,3.13,3.0
1758078206.52158,1758078193.20091,0.0,0.0,0.0,-59.53032,-74.02615,2.34913,7.15,1.3,3.13,3.0
1758078206.53655,1758078193.21091,0.0,0.0,0.0,-60.27517,-72.0208,2.57831,7.96,0.69,2.94,3.0
1758078206.55259,1758078193.22091,0.0,0.0,0.0,-60.10328,-65.66096,2.92208,8.53,0.18,2.74,3.0
1758078206.55432,1758078193.23091,0.0,0.0,0.0,-59.35843,-60.67623,2.86479,8.53,0.18,2.74,3.0
1758078206.56939,1758078193.24091,0.0,0.0,0.0,-58.09792,-55.40502,3.38045,8.77,-0.06,2.59,3.0
1758078206.57059,1758078193.25091,0.0,0.0,0.0,-55.34772,-48.8733,3.95341,8.77,-0.06,2.59,3.0
1758078206.58868,1758078193.26091,0.0,0.0,0.0,-53.05589,-39.13302,4.46907,8.95,-0.18,2.27,3.0
1758078206.60472,1758078193.27091,0.0,0.0,0.0,-50.3057,-32.54401,4.98473,8.95,-0.18,2.27,3.0
1758078206.6072,1758078193.28091,0.0,0.0,0.0,-47.26902,-25.8404,5.4431,8.83,-0.28,2.02,3.0
1758078206.62235,1758078193.29091,0.0,0.0,0.0,-42.05511,-15.0115,5.90147,8.83,-0.28,2.02,3.0
1758078206.62386,1758078193.30091,0.0,0.0,0.0,-38.50277,-7.10468,6.13065,8.89,-0.44,1.8,3.0
1758078206.63842,1758078193.31091,0.0,0.0,0.0,-35.00772,-0.0573,6.18794,9.02,-0.57,1.75,3.0
1758078206.6547,1758078193.32091,0.0,0.0,0.0,-31.85646,6.07335,6.35983,9.02,-0.57,1.75,3.0
1758078206.65561,1758078193.33091,0.0,0.0,0.0,-27.96034,14.09476,6.53172,9.09,-0.52,1.86,3.0
1758078206.67141,1758078193.34091,0.0,0.0,0.0,-26.06958,18.62113,6.58902,9.09,-0.52,1.86,3.0
1758078206.67416,1758078193.35091,0.0,0.0,0.0,-24.23611,23.49127,6.53172,9.17,-0.31,1.95,3.0
1758078206.69055,1758078193.36091,0.0,0.0,0.0,-23.0329,27.84575,6.47442,9.17,-0.31,1.95,3.0
1758078206.78913,1758078193.37091,0.0,0.0,0.0,-22.23076,32.42941,5.95876,9.19,-0.1,2.05,3.0
1758078206.78977,1758078193.38091,0.0,0.0,0.0,-22.05888,34.77854,5.21392,8.95,0.1,2.23,3.0
1758078206.79731,1758078193.39091,0.0,0.0,0.0,-21.7151,35.63798,5.27121,8.95,0.1,2.23,3.0
1758078206.79797,1758078193.40091,0.0,0.0,0.0,-21.31403,34.0337,5.4431,8.62,0.22,2.34,3.0
1758078206.80112,1758078193.41091,0.0,0.0,0.0,-20.74107,30.13758,6.24524,8.62,0.22,2.34,3.0
1758078206.80386,1758078193.42091,0.0,0.0,0.0,-20.51189,29.04896,6.8182,8.53,0.15,2.11,3.0
1758078206.80513,1758078193.43091,0.0,0.0,0.0,-19.99623,29.33544,6.8182,8.53,0.15,2.11,3.0
1758078206.80647,1758078193.44091,0.0,0.0,0.0,-19.76705,29.22085,6.47442,8.65,-0.06,2.04,3.0
1758078206.80882,1758078193.45091,0.0,0.0,0.0,-19.19409,27.2155,5.55769,8.32,-0.14,2.03,3.0
1758078206.81389,1758078193.46091,0.0,0.0,0.0,-18.85031,25.72581,4.69825,8.32,-0.14,2.03,3.0
1758078206.81483,1758078193.47091,0.0,0.0,0.0,-18.33465,23.26209,3.72423,8.18,-0.07,1.99,3.0
1758078206.81739,1758078193.48091,0.0,0.0,0.0,-17.76169,20.74107,2.00535,8.18,-0.07,1.99,3.0
1758078206.81814,1758078193.49091,0.0,0.0,0.0,-17.13144,19.13679,0.80214,8.28,0.0,1.84,3.0
1758078206.82594,1758078193.50091,0.0,0.0,0.0,-16.50119,16.61578,-0.22918,8.28,0.0,1.84,3.0
1758078206.87429,1758078193.51091,0.0,0.0,0.0,-15.58445,14.43854,-1.03132,8.29,0.0,1.9,3.0
1758078206.87633,1758078193.52091,0.0,0.0,0.0,-14.38124,11.45916,-1.66158,8.29,0.0,1.89,3.0
1758078206.87776,1758078193.53091,0.0,0.0,0.0,-13.40721,9.68299,-1.71887,8.59,-0.09,1.89,3.0
1758078206.87874,1758078193.54091,0.0,0.0,0.0,-12.83425,8.136,-1.3178,8.87,-0.2,1.82,3.0
1758078206.87929,1758078193.55091,0.0,0.0,0.0,-12.14671,6.07335,-0.80214,8.87,-0.2,1.82,3.0
1758078206.88135,1758078193.56091,0.0,0.0,0.0,-11.34457,3.38045,-0.11459,8.97,-0.38,1.83,3.0
1758078206.89752,1758078193.57091,0.0,0.0,0.0,-11.00079,2.00535,0.57296,8.97,-0.38,1.83,3.0
1758078206.91383,1758078193.58091,0.0,0.0,0.0,-10.65701,0.45837,1.3751,9.23,-0.5,1.72,3.0
1758078206.9148,1758078193.59091,0.0,0.0,0.0,-10.48513,0.45837,1.71887,9.23,-0.5,1.72,3.0
1758078206.93002,1758078193.60091,0.0,0.0,0.0,-10.19865,2.92208,2.29183,9.56,-0.5,1.54,3.0
1758078206.93072,1758078193.61091,0.0,0.0,0.0,-9.62569,9.05273,2.57831,10.24,-0.35,1.63,3.0
1758078206.94661,1758078193.62091,0.0,0.0,0.0,-9.4538,13.86558,2.7502,10.24,-0.35,1.63,3.0
1758078206.96329,1758078193.63091,0.0,0.0,0.0,-9.11003,17.24603,2.97938,10.49,-0.27,1.85,3.0
1758078206.96457,1758078193.64091,0.0,0.0,0.0,-8.25059,23.0902,3.83882,10.49,-0.27,1.85,3.0
1758078206.97954,1758078193.65091,0.0,0.0,0.0,-7.10468,26.87172,5.15662,11.14,-0.36,2.23,3.0
1758078206.98072,1758078193.66091,0.0,0.0,0.0,-5.09932,30.25217,7.10468,11.14,-0.36,2.23,3.0
1758078206.99679,1758078193.67091,0.0,0.0,0.0,-1.43239,33.80451,10.25595,11.75,-0.62,2.14,3.0
1758078207.01284,1758078193.68091,0.0,0.0,0.0,0.85944,38.84654,12.37589,12.27,-0.94,2.29,3.0
1758078207.01376,1758078193.69091,0.0,0.0,0.0,3.66693,38.73195,13.98017,12.27,-0.94,2.29,3.0
1758078207.02892,1758078193.70091,0.0,0.0,0.0,5.84417,29.8511,13.75099,11.8,-1.23,2.73,3.0
1758078207.04496,1758078193.71091,0.0,0.0,0.0,8.88085,9.5684,11.11538,11.8,-1.23,2.73,3.0
1758078207.04579,1758078193.72091,0.0,0.0,0.0,13.12073,21.88699,10.65701,12.61,-1.29,3.0,3.0
1758078207.06097,1758078193.73091,0.0,0.0,0.0,16.10011,42.34158,9.11003,12.61,-1.29,3.0,3.0
1758078207.06179,1758078193.74091,0.0,0.0,0.0,19.99623,50.87865,7.16197,15.78,-0.94,4.5,3.0
1758078207.07698,1758078193.75091,0.0,0.0,0.0,20.79837,28.99167,2.97938,12.32,-0.94,6.03,3.0
1758078207.09343,1758078193.76091,0.0,0.0,0.0,23.66316,9.39651,4.35448,12.32,-0.21,6.03,3.0
1758078207.0946,1758078193.77091,0.0,0.0,0.0,26.12688,3.20856,4.35448,14.41,0.09,3.92,3.0
1758078207.11063,1758078193.78091,0.0,0.0,0.0,28.99167,8.30789,6.58902,14.41,0.09,3.92,3.0
1758078207.11397,1758078193.79091,0.0,0.0,0.0,31.39809,18.62113,4.87014,14.92,0.0,2.53,3.0
1758078207.13057,1758078193.80091,0.0,0.0,0.0,31.97105,19.99623,2.11994,14.92,0.0,2.53,3.0
1758078207.13661,1758078193.81091,0.0,0.0,0.0,33.00237,18.79302,-1.20321,11.66,-0.38,4.73,3.0
1758078207.15478,1758078193.82091,0.0,0.0,0.0,33.74722,18.27736,-4.87014,11.66,-0.38,4.73,3.0
1758078207.1731,1758078193.83091,0.0,0.0,0.0,35.2942,16.67307,-8.59437,10.83,-0.31,4.49,3.0
1758078207.17463,1758078193.84091,0.0,0.0,0.0,36.32552,16.10011,-9.62569,9.86,-0.1,3.86,3.0
1758078207.17671,1758078193.85091,0.0,0.0,0.0,37.64333,16.272,-9.22462,9.86,-0.1,3.86,3.0
1758078207.19265,1758078193.86091,0.0,0.0,0.0,38.78925,16.04282,-6.41713,8.24,-0.25,3.46,3.0
1758078207.1939,1758078193.87091,0.0,0.0,0.0,39.87786,9.62569,-3.60963,8.24,-0.25,3.46,3.0
1758078207.2086,1758078193.88091,0.0,0.0,0.0,40.39353,-0.45837,-0.40107,5.94,-0.27,3.52,3.0
1758078207.21323,1758078193.89091,0.0,0.0,0.0,40.45082,-12.49048,2.29183,5.94,-0.27,3.52,3.0
1758078207.22894,1758078193.90091,0.0,0.0,0.0,40.33623,-28.93437,4.81285,4.51,-0.29,3.22,3.0
1758078207.24645,1758078193.91091,0.0,0.0,0.0,39.82057,-38.38818,5.32851,4.51,-0.02,3.07,3.0
1758078207.24775,1758078193.92091,0.0,0.0,0.0,39.13302,-45.43555,5.09932,4.51,-0.02,3.07,3.0
1758078207.26295,1758078193.93091,0.0,0.0,0.0,38.27358,-49.61814,4.1253,5.14,0.5,3.12,3.0
1758078207.26378,1758078193.94091,0.0,0.0,0.0,36.89849,-50.87865,2.6929,5.14,0.5,3.12,3.0
1758078207.27902,1758078193.95091,0.0,0.0,0.0,35.92446,-51.22243,2.06265,6.07,1.01,3.24,3.0
1758078207.2948,1758078193.96091,0.0,0.0,0.0,34.72124,-49.84733,1.77617,6.07,1.01,3.24,3.0
1758078207.29688,1758078193.97091,0.0,0.0,0.0,32.83048,-48.64412,1.83346,6.57,1.35,3.1,3.0
1758078207.31273,1758078193.98091,0.0,0.0,0.0,29.56462,-45.14908,2.63561,6.88,1.46,2.95,3.0
1758078207.31366,1758078193.99091,0.0,0.0,0.0,27.10091,-41.99781,3.20856,6.88,1.46,2.95,3.0
1758078207.32895,1758078194.00091,0.0,0.0,0.0,24.29341,-38.15899,3.03668,7.26,1.31,2.96,3.0
1758078207.34467,1758078194.01091,0.0,0.0,0.0,21.25674,-33.68992,2.23454,7.26,1.31,2.96,3.0
1758078207.34587,1758078194.02091,0.0,0.0,0.0,16.61578,-26.75713,-0.11459,7.75,1.16,2.96,3.0
1758078207.36098,1758078194.03091,0.0,0.0,0.0,13.98017,-22.11617,-2.06265,7.75,1.16,2.96,3.0
1758078207.36267,1758078194.04091,0.0,0.0,0.0,11.86023,-17.30333,-4.35448,8.22,1.05,2.99,3.0
1758078207.378,1758078194.05091,0.0,0.0,0.0,10.02676,-12.2613,-6.7609,8.22,1.05,2.99,3.0
1758078207.39401,1758078194.06091,0.0,0.0,0.0,8.36518,-5.21392,-10.02676,8.74,1.02,2.98,3.0
1758078207.39652,1758078194.07091,0.0,0.0,0.0,8.0787,-0.80214,-11.80293,9.08,0.99,2.95,3.0
1758078207.41275,1758078194.08091,0.0,0.0,0.0,8.30789,2.86479,-13.23533,9.08,0.99,2.95,3.0
1758078207.41371,1758078194.09091,0.0,0.0,0.0,8.99544,6.58902,-13.69369,9.44,0.95,3.05,3.0
1758078207.44884,1758078194.10091,0.0,0.0,0.0,9.4538,9.85487,-13.69369,9.44,0.95,3.05,3.0
1758078207.45703,1758078194.11091,0.0,0.0,0.0,10.25595,12.37589,-12.77696,9.73,0.86,3.15,3.0
1758078207.45765,1758078194.12091,0.0,0.0,0.0,10.65701,14.83961,-11.57375,9.73,0.86,3.15,3.0
1758078207.45889,1758078194.13091,0.0,0.0,0.0,10.94349,16.21471,-9.5684,10.04,0.76,3.26,3.0
1758078207.47377,1758078194.14091,0.0,0.0,0.0,10.71431,16.61578,-8.30789,9.85,0.73,3.29,3.0
1758078207.47525,1758078194.15091,0.0,0.0,0.0,10.31324,17.13144,-7.33386,9.85,0.73,3.29,3.0
1758078207.48996,1758078194.16091,0.0,0.0,0.0,9.68299,16.04282,-6.41713,9.61,0.82,3.42,3.0
1758078207.49137,1758078194.17091,0.0,0.0,0.0,8.30789,12.204,-5.32851,9.61,0.82,3.42,3.0
1758078207.50679,1758078194.18091,0.0,0.0,0.0,7.16197,9.11003,-4.92744,9.15,0.98,3.36,3.0
1758078207.52289,1758078194.19091,0.0,0.0,0.0,5.84417,5.21392,-4.46907,9.15,0.98,3.36,3.0
1758078207.52432,1758078194.20091,0.0,0.0,0.0,4.23989,1.3751,-4.1253,8.83,1.12,3.15,3.0
1758078207.53899,1758078194.21091,0.0,0.0,0.0,1.48969,-4.18259,-3.55234,8.62,1.26,2.86,3.0
1758078207.55483,1758078194.22091,0.0,0.0,0.0,-0.22918,-8.65166,-2.63561,8.62,1.26,2.86,3.0
1758078207.55682,1758078194.23091,0.0,0.0,0.0,-2.57831,-12.77696,-2.34913,8.44,1.36,2.79,3.0
1758078207.57286,1758078194.24091,0.0,0.0,0.0,-5.09932,-15.98552,-2.46372,8.44,1.36,2.79,3.0
1758078207.574,1758078194.25091,0.0,0.0,0.0,-9.28192,-21.08485,-3.55234,8.4,1.49,2.75,3.0
1758078207.58884,1758078194.26091,0.0,0.0,0.0,-11.97482,-23.83505,-4.87014,8.4,1.49,2.75,3.0
1758078207.60501,1758078194.27091,0.0,0.0,0.0,-14.38124,-25.72581,-6.13065,8.4,1.63,2.48,3.0
1758078207.60678,1758078194.28091,0.0,0.0,0.0,-16.10011,-26.64254,-7.33386,8.4,1.63,2.48,3.0
1758078207.62206,1758078194.29091,0.0,0.0,0.0,-18.73572,-26.35606,-7.84952,8.55,1.63,2.27,3.0
1758078207.62379,1758078194.30091,0.0,0.0,0.0,-19.99623,-25.15285,-8.136,8.66,1.44,2.03,3.0
1758078207.63901,1758078194.31091,0.0,0.0,0.0,-20.74107,-23.0902,-8.25059,8.66,1.44,2.03,3.0
1758078207.65487,1758078194.32091,0.0,0.0,0.0,-21.7724,-18.73572,-7.96411,8.83,1.17,1.86,3.0
1758078207.65602,1758078194.33091,0.0,0.0,0.0,-22.51724,-15.29797,-7.67763,8.83,1.17,1.86,3.0
1758078207.671,1758078194.34091,0.0,0.0,0.0,-23.0329,-11.63104,-7.50575,9.02,0.96,1.81,3.0
1758078207.67316,1758078194.35091,0.0,0.0,0.0,-23.89234,-6.70361,-7.67763,9.02,0.96,1.81,3.0
1758078207.68786,1758078194.36091,0.0,0.0,0.0,-24.75178,0.34377,-8.02141,9.22,0.86,1.73,3.0
1758078207.70409,1758078194.37091,0.0,0.0,0.0,-25.43933,5.4431,-8.42248,9.31,0.88,1.73,3.0
1758078207.70567,1758078194.38091,0.0,0.0,0.0,-26.06958,9.85487,-8.99544,9.31,0.88,1.73,3.0
1758078207.7199,1758078194.39091,0.0,0.0,0.0,-26.98631,14.20935,-9.11003,9.4,1.0,1.67,3.0
1758078207.72109,1758078194.40091,0.0,0.0,0.0,-28.76248,20.34,-8.99544,9.4,1.0,1.67,3.0
1758078207.73692,1758078194.41091,0.0,0.0,0.0,-30.76784,25.09555,-8.70896,9.56,1.16,1.58,3.0
1758078207.75294,1758078194.42091,0.0,0.0,0.0,-32.71589,29.10626,-8.30789,9.56,1.16,1.58,3.0
1758078207.75411,1758078194.43091,0.0,0.0,0.0,-34.77854,31.91375,-7.44845,9.6,1.2,1.36,3.0
1758078207.76917,1758078194.44091,0.0,0.0,0.0,-37.75792,35.00772,-6.13065,9.53,1.09,1.27,3.0
1758078207.7852,1758078194.45091,0.0,0.0,0.0,-39.64868,35.69527,-5.32851,9.53,1.09,1.27,3.0
1758078207.7861,1758078194.46091,0.0,0.0,0.0,-41.65404,35.2369,-5.09932,9.5,0.98,1.44,3.0
1758078207.80118,1758078194.47091,0.0,0.0,0.0,-43.83128,32.77319,-5.50039,9.5,0.98,1.44,3.0
1758078207.80399,1758078194.48091,0.0,0.0,0.0,-47.61279,26.12688,-7.21927,9.43,1.09,1.56,3.0
1758078207.81894,1758078194.49091,0.0,0.0,0.0,-50.2484,18.73572,-7.73493,9.43,1.09,1.56,3.0
1758078207.82124,1758078194.50091,0.0,0.0,0.0,-54.77477,13.40721,-11.45916,9.31,1.34,1.43,3.0
1758078207.83693,1758078194.51091,0.0,0.0,0.0,-61.93674,1.43239,-15.69904,9.31,1.34,1.43,3.0
1758078207.85292,1758078194.52091,0.0,0.0,0.0,-66.5204,-8.42248,-19.99623,9.07,1.74,1.05,3.0
1758078207.85415,1758078194.53091,0.0,0.0,0.0,-69.84356,-30.13758,-21.88699,8.28,2.19,0.1,3.0
1758078207.86911,1758078194.54091,0.0,0.0,0.0,-72.07809,-50.3057,-23.20479,8.28,2.19,0.1,3.0
1758078207.88698,1758078194.55091,0.0,0.0,0.0,-74.02615,-63.54102,-23.66316,8.98,1.83,-0.85,3.0
1758078207.88773,1758078194.56091,0.0,0.0,0.0,-76.48987,-58.49899,-21.31403,8.98,1.83,-0.85,3.0
1758078207.90299,1758078194.57091,0.0,0.0,0.0,-79.06818,-30.93972,-21.88699,11.99,1.29,-0.73,3.0
1758078207.90415,1758078194.58091,0.0,0.0,0.0,-83.42266,-10.8289,-19.76705,11.99,1.29,-0.73,3.0
1758078207.91894,1758078194.59091,0.0,0.0,0.0,-87.77714,-29.39274,-18.73572,12.27,0.61,1.15,3.0
1758078207.93496,1758078194.60091,0.0,0.0,0.0,-90.29816,-35.00772,-18.9649,10.44,0.76,2.43,3.0
1758078207.93698,1758078194.61091,0.0,0.0,0.0,-91.38677,-35.2942,-18.90761,10.44,0.76,2.43,3.0
1758078207.95283,1758078194.62091,0.0,0.0,0.0,-91.44406,-34.60666,-20.05352,12.23,0.82,1.45,3.0
1758078207.95477,1758078194.63091,0.0,0.0,0.0,-86.975,-33.80451,-20.45459,12.23,0.82,1.45,3.0
1758078207.97028,1758078194.64091,0.0,0.0,0.0,-83.47996,-37.98711,-21.94428,11.51,0.31,2.13,3.0
1758078207.97148,1758078194.65091,0.0,0.0,0.0,-79.46925,-43.20102,-23.72045,11.51,0.31,2.13,3.0
1758078207.98795,1758078194.66091,0.0,0.0,0.0,-75.00018,-42.91454,-26.52795,11.03,-0.03,2.88,3.0
1758078208.00398,1758078194.67091,0.0,0.0,0.0,-65.89015,-33.63263,-29.67921,12.56,-0.68,3.15,3.0
1758078208.00563,1758078194.68091,0.0,0.0,0.0,-58.90006,-31.56997,-30.53865,12.56,-0.68,3.15,3.0
1758078208.02002,1758078194.69091,0.0,0.0,0.0,-51.27972,-34.72124,-29.96569,11.32,-1.44,4.1,3.0
1758078208.02121,1758078194.70091,0.0,0.0,0.0,-40.62271,-39.07573,-27.50197,11.32,-1.44,4.1,3.0
1758078208.03732,1758078194.71091,0.0,0.0,0.0,-35.40879,-41.94051,-24.80907,10.28,-1.42,4.17,3.0
1758078208.05327,1758078194.72091,0.0,0.0,0.0,-33.23156,-38.78925,-20.68378,10.28,-1.42,4.17,3.0
1758078208.05425,1758078194.73091,0.0,0.0,0.0,-33.34615,-35.2942,-15.35527,9.5,-0.46,3.42,3.0
1758078208.06905,1758078194.74091,0.0,0.0,0.0,-37.81522,-34.0337,-8.47978,9.5,-0.46,3.42,3.0
1758078208.08512,1758078194.75091,0.0,0.0,0.0,-43.14373,-34.89313,-6.41713,8.78,0.43,4.21,3.0
1758078208.08628,1758078194.76091,0.0,0.0,0.0,-49.27437,-35.2942,-5.61499,10.05,0.78,4.99,3.0
1758078208.12529,1758078194.77091,0.0,0.0,0.0,-55.6915,-34.14828,-6.58902,10.05,0.78,4.99,3.0
1758078208.12619,1758078194.78091,0.0,0.0,0.0,-64.74423,-31.39809,-9.74028,11.73,1.12,4.28,3.0
1758078208.12878,1758078194.79091,0.0,0.0,0.0,-69.27061,-29.73651,-12.77696,11.73,1.12,4.28,3.0
1758078208.13003,1758078194.80091,0.0,0.0,0.0,-72.36457,-28.24682,-16.21471,11.38,1.31,3.55,3.0
1758078208.14616,1758078194.81091,0.0,0.0,0.0,-73.91156,-24.00693,-18.56383,11.38,1.31,3.55,3.0
1758078208.14708,1758078194.82091,0.0,0.0,0.0,-73.3386,-17.13144,-18.79302,10.17,1.21,2.7,3.0
1758078208.16293,1758078194.83091,0.0,0.0,0.0,-71.67702,-14.20935,-17.13144,9.03,0.75,2.08,3.0
1758078208.16405,1758078194.84091,0.0,0.0,0.0,-69.38519,-12.204,-14.83961,9.03,0.75,2.08,3.0
1758078208.17904,1758078194.85091,0.0,0.0,0.0,-67.03606,-10.08406,-12.60507,8.91,-0.11,1.91,3.0
1758078208.19507,1758078194.86091,0.0,0.0,0.0,-64.22858,-6.99009,-10.31324,8.91,-0.11,1.91,3.0
1758078208.19665,1758078194.87091,0.0,0.0,0.0,-62.5097,-5.78687,-9.28192,9.17,-0.77,1.72,3.0
