timeStamp,timeStampAlign,roll,pitch,yaw,gyro_x,gyro_y,gyro_z,acc_x,acc_y,acc_z,flag_num
1758077127.64206,1758077127.62501,0.0,0.0,0.0,-43.88857,7.10468,-6.24524,10.95,0.8,-0.36,2.0
1758077127.65804,1758077127.63501,0.0,0.0,0.0,-41.94051,4.46907,-3.49504,10.62,0.78,-0.72,2.0
1758077127.65933,1758077127.64501,0.0,0.0,0.0,-39.99245,-1.71887,-0.74485,10.03,0.6,-0.61,2.0
1758077127.67402,1758077127.65501,0.0,0.0,0.0,-37.92981,-7.67763,1.83346,10.03,0.6,-0.61,2.0
1758077127.69003,1758077127.66501,0.0,0.0,0.0,-32.42941,-17.30333,2.92208,11.84,0.14,1.77,2.0
1758077127.69204,1758077127.67501,0.0,0.0,0.0,-25.21014,-28.93437,-1.48969,11.84,0.14,1.77,2.0
1758077127.70726,1758077127.68501,0.0,0.0,0.0,-16.10011,-44.63341,-9.33921,16.52,-1.8,5.52,2.0
1758077127.70825,1758077127.69501,0.0,0.0,0.0,-8.136,-58.90006,-18.73572,16.52,-1.8,5.52,2.0
1758077127.72301,1758077127.70501,0.0,0.0,0.0,-1.77617,-54.14451,-24.57989,17.25,-3.54,4.27,2.0
1758077127.73906,1758077127.71501,0.0,0.0,0.0,-1.48969,-43.4875,-22.34536,14.05,-2.44,0.94,2.0
1758077127.74072,1758077127.72501,0.0,0.0,0.0,-4.58366,-37.18496,-17.24603,14.05,-2.44,0.94,2.0
1758077127.75508,1758077127.73501,0.0,0.0,0.0,-10.25595,-34.89313,-12.08941,9.38,0.13,1.54,2.0
1758077127.75652,1758077127.74501,0.0,0.0,0.0,-20.16812,-24.5226,-5.61499,9.38,0.13,1.54,2.0
1758077127.77243,1758077127.75501,0.0,0.0,0.0,-27.78845,-16.84496,-2.06265,9.17,1.97,2.13,2.0
1758077127.78838,1758077127.76501,0.0,0.0,0.0,-36.6693,-13.06344,-0.11459,9.17,1.97,2.13,2.0
1758077127.78929,1758077127.77501,0.0,0.0,0.0,-46.00851,-8.59437,0.40107,8.3,2.16,2.47,2.0
1758077127.80428,1758077127.78501,0.0,0.0,0.0,-58.55629,1.43239,-1.08862,8.27,1.14,2.55,2.0
1758077127.82033,1758077127.79501,0.0,0.0,0.0,-64.91612,6.35983,-3.49504,8.27,1.14,2.55,2.0
1758077127.82131,1758077127.80501,0.0,0.0,0.0,-69.04142,12.83425,-6.41713,8.99,-0.5,2.1,2.0
1758077127.83635,1758077127.81501,0.0,0.0,0.0,-70.93218,21.48592,-8.93814,8.99,-0.5,2.1,2.0
1758077127.83729,1758077127.82501,0.0,0.0,0.0,-67.78091,35.69527,-9.68299,10.88,-2.2,1.34,2.0
1758077127.85238,1758077127.83501,0.0,0.0,0.0,-62.56699,46.1231,-9.91217,10.88,-2.2,1.34,2.0
1758077127.86838,1758077127.84501,0.0,0.0,0.0,-56.26446,54.48829,-9.91217,11.97,-2.97,1.5,2.0
1758077127.86931,1758077127.85501,0.0,0.0,0.0,-46.40959,61.59297,-8.0787,11.97,-2.97,1.5,2.0
1758077127.88445,1758077127.86501,0.0,0.0,0.0,-41.02378,62.56699,-5.78687,10.86,-2.63,1.63,2.0
1758077127.90033,1758077127.87501,0.0,0.0,0.0,-36.49741,61.30648,-2.86479,9.12,-1.79,1.87,2.0
1758077127.90133,1758077127.88501,0.0,0.0,0.0,-32.77319,58.26981,0.11459,9.12,-1.79,1.87,2.0
1758077127.91622,1758077127.89501,0.0,0.0,0.0,-28.24682,52.65482,4.18259,8.73,-1.59,2.19,2.0
1758077127.91731,1758077127.90501,0.0,0.0,0.0,-26.12688,46.40959,5.78687,8.73,-1.59,2.19,2.0
1758077127.93206,1758077127.91501,0.0,0.0,0.0,-23.83505,38.21629,7.10468,8.96,-2.05,2.22,2.0
1758077127.94811,1758077127.92501,0.0,0.0,0.0,-21.48592,30.76784,8.36518,8.96,-2.05,2.22,2.0
1758077127.94931,1758077127.93501,0.0,0.0,0.0,-18.27736,23.31938,9.39651,9.05,-2.49,1.67,2.0
1758077127.96439,1758077127.94501,0.0,0.0,0.0,-16.10011,19.99623,9.91217,8.99,-2.35,1.24,2.0
1758077127.98037,1758077127.95501,0.0,0.0,0.0,-14.61043,17.81899,9.91217,8.99,-2.35,1.24,2.0
1758077127.98134,1758077127.96501,0.0,0.0,0.0,-13.23533,17.01685,10.37054,8.86,-1.66,1.08,2.0
1758077127.99639,1758077127.97501,0.0,0.0,0.0,-12.43318,17.76169,11.17268,8.86,-1.66,1.08,2.0
1758077127.99815,1758077127.98501,0.0,0.0,0.0,-11.74564,18.90761,12.37589,9.2,-0.9,1.04,2.0
1758077128.01339,1758077127.99501,0.0,0.0,0.0,-10.65701,20.11082,13.75099,9.2,-0.9,1.04,2.0
1758077128.02934,1758077128.00501,0.0,0.0,0.0,-9.22462,20.79837,15.64175,9.74,-0.71,0.94,2.0
1758077128.03062,1758077128.01501,0.0,0.0,0.0,-5.15662,23.26209,18.27736,10.02,-1.12,0.86,2.0
1758077128.04542,1758077128.02501,0.0,0.0,0.0,-1.71887,28.24682,19.36597,10.02,-1.12,0.86,2.0
1758077128.04637,1758077128.03501,0.0,0.0,0.0,2.11994,33.86181,19.42327,10.23,-1.64,0.79,2.0
1758077128.06217,1758077128.04501,0.0,0.0,0.0,7.73493,37.75792,17.76169,10.23,-1.64,0.79,2.0
1758077128.07816,1758077128.05501,0.0,0.0,0.0,11.91752,38.84654,15.58445,9.45,-1.97,0.69,2.0
1758077128.07937,1758077128.06501,0.0,0.0,0.0,15.69904,39.3622,12.83425,9.45,-1.97,0.69,2.0
1758077128.09414,1758077128.07501,0.0,0.0,0.0,19.82434,38.73195,9.91217,8.95,-2.04,0.4,2.0
1758077128.11043,1758077128.08501,0.0,0.0,0.0,26.01229,30.48136,5.72958,8.95,-2.04,0.4,2.0
1758077128.11168,1758077128.09501,0.0,0.0,0.0,29.96569,18.85031,3.03668,8.21,-1.99,0.45,2.0
1758077128.12648,1758077128.10501,0.0,0.0,0.0,33.11696,4.98473,0.74485,7.44,-1.8,0.58,2.0
1758077128.12764,1758077128.11501,0.0,0.0,0.0,35.69527,-1.43239,-3.20856,7.44,-1.8,0.58,2.0
1758077128.14265,1758077128.12501,0.0,0.0,0.0,44.17505,23.72045,-2.23454,10.11,-1.78,0.57,2.0
1758077128.15812,1758077128.13501,0.0,0.0,0.0,48.9879,41.42485,-1.3751,10.11,-1.78,0.57,2.0
1758077128.15956,1758077128.14501,0.0,0.0,0.0,51.50891,43.20102,0.17189,11.27,-1.85,1.68,2.0
1758077128.17452,1758077128.15501,0.0,0.0,0.0,52.884,30.99702,-0.85944,11.27,-1.85,1.68,2.0
1758077128.17698,1758077128.16501,0.0,0.0,0.0,56.32175,-19.25138,1.43239,7.9,-1.65,2.1,2.0
1758077128.1932,1758077128.17501,0.0,0.0,0.0,56.26446,-45.03448,6.99009,6.63,-1.49,0.5,2.0
1758077128.20945,1758077128.18501,0.0,0.0,0.0,56.37905,-52.13916,12.83425,6.63,-1.49,0.5,2.0
1758077128.21039,1758077128.19501,0.0,0.0,0.0,55.6342,-46.52417,16.21471,10.66,-1.4,1.42,2.0
1758077128.2255,1758077128.20501,0.0,0.0,0.0,52.82671,-42.91454,17.6471,10.66,-1.4,1.42,2.0
1758077128.22638,1758077128.21501,0.0,0.0,0.0,46.81066,-39.53409,13.17803,10.04,-0.72,1.94,2.0
1758077128.2422,1758077128.22501,0.0,0.0,0.0,41.71133,-42.68536,9.05273,10.04,-0.72,1.94,2.0
1758077128.25841,1758077128.23501,0.0,0.0,0.0,37.81522,-43.31561,4.52637,9.24,-0.11,0.86,2.0
1758077128.25939,1758077128.24501,0.0,0.0,0.0,32.48671,-34.37747,1.20321,10.21,-0.54,0.26,2.0
1758077128.27417,1758077128.25501,0.0,0.0,0.0,30.13758,-30.19488,-1.77617,10.21,-0.54,0.26,2.0
1758077128.29047,1758077128.26501,0.0,0.0,0.0,28.64789,-27.10091,-3.66693,9.9,-0.53,0.5,2.0
1758077128.2914,1758077128.27501,0.0,0.0,0.0,27.2155,-21.31403,-4.69825,9.9,-0.53,0.5,2.0
1758077128.30701,1758077128.28501,0.0,0.0,0.0,26.35606,-18.62113,-4.64096,9.74,-0.78,0.18,2.0
1758077128.30825,1758077128.29501,0.0,0.0,0.0,25.21014,-16.95955,-4.23989,9.74,-0.78,0.18,2.0
1758077128.32327,1758077128.30501,0.0,0.0,0.0,24.29341,-15.46986,-2.92208,9.35,-1.16,0.08,2.0
1758077128.33947,1758077128.31501,0.0,0.0,0.0,21.48592,-11.91752,-1.60428,9.83,-1.16,0.48,2.0
1758077128.33984,1758077128.32501,0.0,0.0,0.0,18.90761,-10.71431,-0.57296,9.83,-1.25,0.48,2.0
1758077128.35549,1758077128.33501,0.0,0.0,0.0,15.12609,-12.60507,0.80214,10.73,-0.7,1.84,2.0
1758077128.35645,1758077128.34501,0.0,0.0,0.0,10.31324,-19.48057,3.89611,10.73,-0.7,1.84,2.0
1758077128.37248,1758077128.35501,0.0,0.0,0.0,2.40642,-33.9764,13.80828,12.31,0.64,3.67,2.0
1758077128.3885,1758077128.36501,0.0,0.0,0.0,-2.92208,-36.6693,20.45459,12.31,0.64,3.67,2.0
1758077128.38944,1758077128.37501,0.0,0.0,0.0,-7.73493,-32.20023,24.86637,13.59,1.63,3.66,2.0
1758077128.40452,1758077128.38501,0.0,0.0,0.0,-12.83425,-28.59059,26.75713,13.59,1.63,3.66,2.0
1758077128.42051,1758077128.39501,0.0,0.0,0.0,-19.48057,-26.18417,26.87172,10.75,1.15,2.26,2.0
1758077128.42091,1758077128.40501,0.0,0.0,0.0,-22.63183,-23.0902,26.01229,7.44,0.04,1.48,2.0
1758077128.43636,1758077128.41501,0.0,0.0,0.0,-25.49662,-20.97026,23.72045,7.44,0.04,1.48,2.0
1758077128.43744,1758077128.42501,0.0,0.0,0.0,-27.73116,-19.42327,21.31403,6.4,-0.63,0.99,2.0
1758077128.45255,1758077128.43501,0.0,0.0,0.0,-29.50733,-17.30333,16.55848,6.4,-0.63,0.99,2.0
1758077128.46824,1758077128.44501,0.0,0.0,0.0,-29.62192,-13.86558,13.40721,7.54,-0.75,1.15,2.0
1758077128.46948,1758077128.45501,0.0,0.0,0.0,-27.96034,-11.34457,11.22997,7.54,-0.75,1.15,2.0
1758077128.48442,1758077128.46501,0.0,0.0,0.0,-23.0329,-8.99544,9.28192,9.5,-0.73,1.45,2.0
1758077128.50056,1758077128.47501,0.0,0.0,0.0,-18.79302,-7.16197,8.76626,10.71,-0.9,1.74,2.0
1758077128.50098,1758077128.48501,0.0,0.0,0.0,-14.09476,-5.21392,8.59437,10.71,-0.9,1.74,2.0
1758077128.51733,1758077128.49501,0.0,0.0,0.0,-9.5684,-3.49504,8.88085,11.07,-1.18,1.81,2.0
1758077128.51854,1758077128.50501,0.0,0.0,0.0,-3.49504,-0.22918,9.28192,11.07,-1.18,1.81,2.0
1758077128.53357,1758077128.51501,0.0,0.0,0.0,-0.11459,2.34913,9.5684,11.0,-1.14,1.82,2.0
1758077128.54958,1758077128.52501,0.0,0.0,0.0,2.40642,5.84417,9.62569,11.0,-1.14,1.82,2.0
1758077128.55008,1758077128.53501,0.0,0.0,0.0,4.52637,9.5684,9.4538,10.91,-0.62,1.55,2.0
1758077128.56557,1758077128.54501,0.0,0.0,0.0,6.8182,16.50119,8.36518,10.97,0.02,1.18,2.0
1758077128.56648,1758077128.55501,0.0,0.0,0.0,8.0787,21.25674,6.99009,10.97,0.02,1.18,2.0
1758077128.58125,1758077128.56501,0.0,0.0,0.0,9.4538,25.89769,5.32851,11.07,0.41,1.07,2.0
1758077128.59756,1758077128.57501,0.0,0.0,0.0,10.94349,29.62192,3.60963,11.07,0.41,1.07,2.0
1758077128.59876,1758077128.58501,0.0,0.0,0.0,13.34992,35.52338,0.40107,11.19,0.32,1.02,2.0
1758077128.61358,1758077128.59501,0.0,0.0,0.0,14.78231,37.24226,-1.71887,11.19,0.32,1.02,2.0
1758077128.62966,1758077128.60501,0.0,0.0,0.0,15.46986,37.52874,-4.46907,11.06,0.0,0.94,2.0
1758077128.63008,1758077128.61501,0.0,0.0,0.0,15.41257,35.52338,-7.16197,11.06,0.0,0.94,2.0
1758077128.64734,1758077128.62501,0.0,0.0,0.0,14.15206,28.13223,-11.00079,10.51,-0.05,0.89,2.0
1758077128.64881,1758077128.63501,0.0,0.0,0.0,12.60507,23.66316,-13.00614,10.02,0.28,0.92,2.0
1758077128.66331,1758077128.64501,0.0,0.0,0.0,10.94349,19.36597,-14.66772,10.02,0.28,0.92,2.0
1758077128.67934,1758077128.65501,0.0,0.0,0.0,7.79223,13.40721,-16.21471,9.53,0.72,1.04,2.0
1758077128.67995,1758077128.66501,0.0,0.0,0.0,5.21392,1.83346,-16.84496,9.53,0.72,1.04,2.0
1758077128.69639,1758077128.67501,0.0,0.0,0.0,2.6929,-7.44845,-16.10011,8.91,1.1,1.16,2.0
1758077128.69733,1758077128.68501,0.0,0.0,0.0,-1.48969,-12.14671,-16.95955,8.91,1.1,1.16,2.0
1758077128.71264,1758077128.69501,0.0,0.0,0.0,-7.39116,-11.63104,-17.36062,9.08,1.28,1.12,2.0
1758077128.72865,1758077128.70501,0.0,0.0,0.0,-10.71431,-8.70896,-17.30333,9.74,1.11,0.9,2.0
1758077128.72963,1758077128.71501,0.0,0.0,0.0,-13.69369,-6.58902,-16.55848,9.74,1.11,0.9,2.0
1758077128.74464,1758077128.72501,0.0,0.0,0.0,-16.10011,-5.78687,-15.35527,9.38,0.7,0.74,2.0
1758077128.76065,1758077128.73501,0.0,0.0,0.0,-18.90761,-5.55769,-13.34992,9.38,0.7,0.74,2.0
1758077128.76101,1758077128.74501,0.0,0.0,0.0,-20.74107,-4.52637,-12.14671,9.23,0.37,0.44,2.0
1758077128.77666,1758077128.75501,0.0,0.0,0.0,-22.57454,-2.40642,-11.57375,9.23,0.37,0.44,2.0
1758077128.77759,1758077128.76501,0.0,0.0,0.0,-24.75178,0.0,-11.28727,9.67,0.33,0.3,2.0
1758077128.7927,1758077128.77501,0.0,0.0,0.0,-28.59059,0.45837,-11.28727,9.78,0.55,0.18,2.0
1758077128.80863,1758077128.78501,0.0,0.0,0.0,-31.51268,-2.7502,-11.11538,9.78,0.55,0.18,2.0
1758077128.80958,1758077128.79501,0.0,0.0,0.0,-34.14828,-6.24524,-9.74028,9.3,0.62,-0.05,2.0
1758077128.82438,1758077128.80501,0.0,0.0,0.0,-37.18496,-6.7609,-10.08406,9.3,0.62,-0.05,2.0
1758077128.82563,1758077128.81501,0.0,0.0,0.0,-41.13837,-5.50039,-7.10468,9.69,0.84,-0.5,2.0
1758077128.84115,1758077128.82501,0.0,0.0,0.0,-44.57612,-5.55769,-5.55769,9.69,0.84,-0.5,2.0
1758077128.85643,1758077128.83501,0.0,0.0,0.0,-47.26902,7.10468,-0.80214,10.04,0.86,-0.15,2.0
1758077128.85761,1758077128.84501,0.0,0.0,0.0,-53.39967,25.49662,-4.23989,10.04,0.86,-0.15,2.0
1758077128.87252,1758077128.85501,0.0,0.0,0.0,-67.37984,18.62113,-9.4538,11.58,1.24,-0.19,2.0
1758077128.88864,1758077128.86501,0.0,0.0,0.0,-74.94289,2.46372,-15.0115,8.14,1.73,0.16,2.0
1758077128.88964,1758077128.87501,0.0,0.0,0.0,-79.64114,-5.50039,-17.81899,8.14,1.73,0.16,2.0
1758077128.90468,1758077128.885,0.0,0.0,0.0,-85.08423,-2.40642,-17.6471,9.47,1.8,-1.09,2.0
1758077128.90563,1758077128.895,0.0,0.0,0.0,-88.00632,4.64096,-15.87093,9.47,1.8,-1.09,2.0
1758077128.92098,1758077128.905,0.0,0.0,0.0,-89.55331,6.8182,-13.12073,10.69,1.36,-0.16,2.0
1758077128.93661,1758077128.915,0.0,0.0,0.0,-90.47005,1.83346,-10.8862,10.69,1.36,-0.16,2.0
1758077128.93762,1758077128.925,0.0,0.0,0.0,-89.15224,-9.4538,-7.04738,9.02,0.89,0.13,2.0
1758077128.95273,1758077128.935,0.0,0.0,0.0,-87.54795,-15.87093,-5.15662,8.62,0.5,-0.4,2.0
1758077128.96842,1758077128.945,0.0,0.0,0.0,-86.00097,-21.60051,-4.29718,8.62,0.5,-0.4,2.0
1758077128.96963,1758077128.955,0.0,0.0,0.0,-84.56858,-28.30412,-4.58366,8.86,0.3,-0.15,2.0
1758077128.98467,1758077128.965,0.0,0.0,0.0,-82.84971,-37.29956,-7.62034,8.86,0.3,-0.15,2.0
1758077128.98568,1758077128.975,0.0,0.0,0.0,-82.27674,-40.45082,-10.37054,9.17,0.31,0.18,2.0
1758077129.00846,1758077128.985,0.0,0.0,0.0,-82.16215,-41.25296,-13.12073,9.17,0.31,0.18,2.0
1758077129.00962,1758077128.995,0.0,0.0,0.0,-82.27674,-40.7373,-15.87093,9.56,0.45,-0.05,2.0
1758077129.02567,1758077129.005,0.0,0.0,0.0,-81.93298,-40.27893,-19.59516,9.45,0.59,0.0,2.0
1758077129.02748,1758077129.015,0.0,0.0,0.0,-81.41731,-40.27893,-22.63183,9.45,0.59,0.0,2.0
1758077129.04248,1758077129.025,0.0,0.0,0.0,-80.04221,-37.58603,-25.43933,9.72,0.61,0.38,2.0
1758077129.05848,1758077129.035,0.0,0.0,0.0,-76.94823,-29.39274,-26.52795,9.72,0.61,0.38,2.0
1758077129.05998,1758077129.045,0.0,0.0,0.0,-70.87489,-24.4653,-25.61122,10.12,0.33,0.64,2.0
1758077129.07557,1758077129.055,0.0,0.0,0.0,-64.91612,-20.97026,-23.37668,10.12,0.33,0.64,2.0
1758077129.07646,1758077129.065,0.0,0.0,0.0,-56.78012,-15.41257,-20.97026,10.11,-0.5,1.08,2.0
1758077129.09179,1758077129.075,0.0,0.0,0.0,-40.68,-13.34992,-18.79302,10.11,-0.5,1.08,2.0
1758077129.10771,1758077129.085,0.0,0.0,0.0,-28.93437,-17.81899,-20.05352,12.08,-2.34,2.2,2.0
1758077129.10872,1758077129.095,0.0,0.0,0.0,-17.58981,-18.44924,-22.74642,14.47,-4.1,1.4,2.0
1758077129.12382,1758077129.105,0.0,0.0,0.0,-7.84952,-14.20935,-24.98096,14.47,-4.1,1.4,2.0
1758077129.12505,1758077129.115,0.0,0.0,0.0,1.60428,-7.16197,-23.54857,15.32,-3.92,0.33,2.0
1758077129.14108,1758077129.125,0.0,0.0,0.0,4.92744,-7.84952,-18.33465,15.32,-3.92,0.33,2.0
1758077129.15657,1758077129.135,0.0,0.0,0.0,6.58902,-9.85487,-11.17268,11.89,-1.63,0.43,2.0
1758077129.15766,1758077129.145,0.0,0.0,0.0,7.16197,-10.8289,-2.63561,11.89,-1.63,0.43,2.0
1758077129.17249,1758077129.155,0.0,0.0,0.0,6.41713,-9.11003,9.33921,9.3,0.51,0.87,2.0
1758077129.18875,1758077129.165,0.0,0.0,0.0,4.69825,-6.24524,15.64175,8.45,1.49,1.11,2.0
1758077129.18968,1758077129.175,0.0,0.0,0.0,1.94806,-3.09397,19.82434,8.45,1.49,1.11,2.0
1758077129.20481,1758077129.185,0.0,0.0,0.0,-1.83346,-0.17189,21.7151,8.1,1.69,1.3,2.0
1758077129.20571,1758077129.195,0.0,0.0,0.0,-8.99544,3.26586,20.34,8.1,1.69,1.3,2.0
1758077129.22108,1758077129.205,0.0,0.0,0.0,-14.49583,5.21392,16.90226,8.06,1.28,1.36,2.0
1758077129.23681,1758077129.215,0.0,0.0,0.0,-19.76705,8.36518,11.97482,8.06,1.28,1.36,2.0
1758077129.23771,1758077129.225,0.0,0.0,0.0,-25.38203,11.63104,6.24524,8.49,0.32,1.07,2.0
1758077129.25254,1758077129.235,0.0,0.0,0.0,-33.68992,15.98552,-3.38045,8.98,-0.74,1.04,2.0
1758077129.26882,1758077129.245,0.0,0.0,0.0,-38.27358,18.33465,-8.70896,8.98,-0.74,1.04,2.0
1758077129.26973,1758077129.255,0.0,0.0,0.0,-42.51347,19.76705,-13.5218,10.01,-1.72,1.07,2.0
1758077129.28458,1758077129.265,0.0,0.0,0.0,-46.06581,21.7724,-18.27736,10.01,-1.72,1.07,2.0
1758077129.28574,1758077129.275,0.0,0.0,0.0,-49.67545,28.07493,-19.70975,11.68,-2.36,0.72,2.0
1758077129.30112,1758077129.285,0.0,0.0,0.0,-50.99325,33.34615,-19.82434,11.68,-2.36,0.72,2.0
1758077129.31685,1758077129.295,0.0,0.0,0.0,-51.27972,33.9764,-18.33465,12.62,-2.41,0.51,2.0
1758077129.31777,1758077129.305,0.0,0.0,0.0,-49.79003,28.13223,-12.89155,12.62,-2.41,0.51,2.0
1758077129.33293,1758077129.315,0.0,0.0,0.0,-47.15443,25.72581,-7.79223,11.53,-1.71,0.48,2.0
1758077129.34871,1758077129.325,0.0,0.0,0.0,-43.60209,24.63719,-1.94806,11.34,-1.09,0.28,2.0
1758077129.34976,1758077129.335,0.0,0.0,0.0,-39.4768,23.54857,4.23989,11.34,-1.09,0.28,2.0
1758077129.36483,1758077129.345,0.0,0.0,0.0,-33.05967,20.97026,12.60507,10.86,-1.19,0.17,2.0
1758077129.3658,1758077129.355,0.0,0.0,0.0,-28.93437,18.33465,17.01685,10.86,-1.19,0.17,2.0
1758077129.38114,1758077129.365,0.0,0.0,0.0,-25.26744,15.46986,20.51189,10.02,-1.69,0.11,2.0
1758077129.39687,1758077129.375,0.0,0.0,0.0,-22.28806,14.15206,22.86102,10.02,-1.69,0.11,2.0
1758077129.39781,1758077129.385,0.0,0.0,0.0,-18.79302,9.62569,24.57989,9.68,-1.93,0.22,2.0
1758077129.41288,1758077129.395,0.0,0.0,0.0,-16.38659,6.07335,24.5226,9.18,-1.86,0.3,2.0
1758077129.42887,1758077129.405,0.0,0.0,0.0,-13.69369,1.83346,23.94964,9.18,-1.86,0.3,2.0
1758077129.42978,1758077129.415,0.0,0.0,0.0,-10.25595,-2.00535,23.31938,8.76,-1.77,0.32,2.0
1758077129.44487,1758077129.425,0.0,0.0,0.0,-3.89611,-8.25059,22.40265,8.76,-1.77,0.32,2.0
1758077129.44582,1758077129.435,0.0,0.0,0.0,1.08862,-7.62034,22.28806,8.67,-1.85,0.11,2.0
1758077129.46115,1758077129.445,0.0,0.0,0.0,6.70361,-2.63561,21.6578,8.67,-1.85,0.11,2.0
1758077129.47659,1758077129.455,0.0,0.0,0.0,11.97482,2.40642,20.79837,9.48,-2.08,-0.2,2.0
1758077129.47774,1758077129.465,0.0,0.0,0.0,19.48057,8.0787,18.33465,9.32,-2.25,-0.31,2.0
1758077129.49272,1758077129.475,0.0,0.0,0.0,24.12152,12.83425,16.3293,9.32,-2.25,-0.31,2.0
1758077129.50864,1758077129.485,0.0,0.0,0.0,28.36141,18.10547,14.61043,9.68,-2.29,-0.49,2.0
1758077129.5098,1758077129.495,0.0,0.0,0.0,34.14828,23.26209,12.43318,9.68,-2.29,-0.49,2.0
1758077129.52485,1758077129.505,0.0,0.0,0.0,37.81522,24.86637,11.28727,9.95,-2.25,-0.46,2.0
1758077129.52583,1758077129.515,0.0,0.0,0.0,40.96649,24.86637,10.94349,9.95,-2.25,-0.46,2.0
1758077129.54067,1758077129.525,0.0,0.0,0.0,43.4875,21.7151,9.85487,9.88,-2.16,-0.53,2.0
1758077129.55766,1758077129.535,0.0,0.0,0.0,45.89392,10.37054,7.62034,9.88,-2.16,-0.53,2.0
1758077129.55885,1758077129.545,0.0,0.0,0.0,47.49821,7.67763,3.66693,8.93,-1.99,-0.82,2.0
1758077129.57364,1758077129.555,0.0,0.0,0.0,51.27972,21.48592,0.85944,10.33,-2.05,-1.15,2.0
1758077129.57569,1758077129.565,0.0,0.0,0.0,56.60823,41.25296,1.20321,10.33,-2.05,-1.15,2.0
1758077129.59168,1758077129.575,0.0,0.0,0.0,61.30648,59.87409,-2.34913,11.53,-2.09,-0.35,2.0
1758077129.60768,1758077129.585,0.0,0.0,0.0,64.74423,50.64947,-5.90147,11.53,-2.09,-0.35,2.0
1758077129.60888,1758077129.595,0.0,0.0,0.0,67.37984,22.57454,-11.91752,7.76,-1.99,-0.2,2.0
1758077129.6239,1758077129.605,0.0,0.0,0.0,72.99483,-20.51189,-11.34457,7.76,-1.99,-0.2,2.0
1758077129.62489,1758077129.615,0.0,0.0,0.0,80.72976,-43.25832,-1.94806,5.03,-1.91,-1.25,2.0
1758077129.64097,1758077129.625,0.0,0.0,0.0,83.59455,-38.84654,0.97403,9.93,-2.17,-1.2,2.0
1758077129.65688,1758077129.635,0.0,0.0,0.0,85.6572,-40.50812,4.58366,9.93,-2.17,-1.2,2.0
1758077129.65788,1758077129.645,0.0,0.0,0.0,86.51663,-49.38896,7.79223,9.19,-1.85,0.37,2.0
1758077129.67294,1758077129.655,0.0,0.0,0.0,82.84971,-56.952,11.97482,9.19,-1.85,0.37,2.0
1758077129.68897,1758077129.665,0.0,0.0,0.0,76.0315,-57.29578,13.46451,11.21,-1.05,2.28,2.0
1758077129.68989,1758077129.675,0.0,0.0,0.0,66.46311,-59.53032,15.58445,11.21,-1.05,2.28,2.0
1758077129.70499,1758077129.685,0.0,0.0,0.0,53.74345,-62.16592,20.74107,14.27,0.92,4.04,2.0
1758077129.70589,1758077129.695,0.0,0.0,0.0,35.00772,-63.13995,26.24147,16.39,3.49,3.55,2.0
1758077129.72064,1758077129.705,0.0,0.0,0.0,25.09555,-59.18654,30.02299,16.39,3.49,3.55,2.0
1758077129.737,1758077129.715,0.0,0.0,0.0,18.44924,-49.90463,32.08564,13.05,2.65,0.39,2.0
1758077129.73789,1758077129.725,0.0,0.0,0.0,14.61043,-31.74186,31.62727,13.05,2.65,0.39,2.0
1758077129.75297,1758077129.735,0.0,0.0,0.0,13.98017,-20.97026,29.39274,8.8,0.18,-0.46,2.0
1758077129.76878,1758077129.745,0.0,0.0,0.0,13.5218,-10.08406,25.8404,8.8,0.18,-0.46,2.0
1758077129.76998,1758077129.755,0.0,0.0,0.0,12.89155,-1.77617,21.25674,7.24,-1.37,0.54,2.0
1758077129.78471,1758077129.765,0.0,0.0,0.0,9.28192,2.06265,10.59972,7.5,-1.37,1.05,2.0
1758077129.78633,1758077129.775,0.0,0.0,0.0,5.90147,4.35448,2.6929,7.5,-1.97,1.05,2.0
1758077129.80097,1758077129.785,0.0,0.0,0.0,2.63561,8.70896,-4.46907,10.23,-1.68,0.57,2.0
1758077129.81689,1758077129.795,0.0,0.0,0.0,-0.17189,14.03747,-10.65701,10.23,-1.68,0.57,2.0
1758077129.81799,1758077129.805,0.0,0.0,0.0,-2.57831,21.25674,-16.73037,12.81,-1.23,0.15,2.0
1758077129.83307,1758077129.815,0.0,0.0,0.0,-3.09397,25.89769,-19.13679,12.81,-1.23,0.15,2.0
1758077129.84897,1758077129.825,0.0,0.0,0.0,-2.34913,28.59059,-19.36597,12.79,-1.12,0.51,2.0
1758077129.84997,1758077129.835,0.0,0.0,0.0,-0.74485,31.2262,-18.10547,12.79,-1.12,0.51,2.0
1758077129.865,1758077129.845,0.0,0.0,0.0,2.23454,33.17426,-14.03747,11.2,-1.28,0.7,2.0
1758077129.86626,1758077129.855,0.0,0.0,0.0,3.95341,33.51803,-10.65701,9.62,-1.16,1.0,2.0
1758077129.881,1758077129.865,0.0,0.0,0.0,4.87014,35.63798,-7.33386,9.62,-1.16,1.0,2.0
1758077129.89703,1758077129.875,0.0,0.0,0.0,5.21392,38.1017,-4.23989,8.95,-0.59,1.23,2.0
1758077129.8984,1758077129.885,0.0,0.0,0.0,4.64096,37.12767,-0.45837,8.95,-0.59,1.23,2.0
1758077129.91304,1758077129.895,0.0,0.0,0.0,3.89611,34.77854,1.66158,8.04,0.21,1.63,2.0
1758077129.92902,1758077129.905,0.0,0.0,0.0,3.03668,32.6013,4.0107,8.04,0.21,1.63,2.0
1758077129.93031,1758077129.915,0.0,0.0,0.0,1.14592,30.88243,6.8182,8.02,1.01,1.88,2.0
1758077129.94482,1758077129.925,0.0,0.0,0.0,-0.40107,29.10626,8.47978,8.44,1.67,2.05,2.0
1758077129.94677,1758077129.935,0.0,0.0,0.0,-2.06265,27.78845,9.4538,8.44,1.67,2.05,2.0
1758077129.96192,1758077129.945,0.0,0.0,0.0,-4.23989,27.1582,10.08406,8.98,1.95,2.08,2.0
1758077129.97772,1758077129.955,0.0,0.0,0.0,-8.59437,27.38738,9.28192,8.98,1.95,2.08,2.0
1758077129.97902,1758077129.965,0.0,0.0,0.0,-12.37589,28.07493,7.39116,9.75,1.81,1.99,2.0
1758077129.99379,1758077129.975,0.0,0.0,0.0,-16.90226,29.50733,4.87014,9.75,1.81,1.99,2.0
1758077129.99527,1758077129.985,0.0,0.0,0.0,-21.88699,30.99702,1.48969,10.48,1.4,1.89,2.0
1758077130.01107,1758077129.995,0.0,0.0,0.0,-29.56462,31.79916,-4.46907,10.71,0.91,1.9,2.0
1758077130.02705,1758077130.005,0.0,0.0,0.0,-34.14828,29.62192,-7.79223,10.71,0.91,1.9,2.0
1758077130.02824,1758077130.015,0.0,0.0,0.0,-38.61736,26.81443,-10.94349,10.59,0.73,1.97,2.0
1758077130.04282,1758077130.025,0.0,0.0,0.0,-42.74266,23.20479,-14.20935,10.59,0.73,1.97,2.0
1758077130.05866,1758077130.035,0.0,0.0,0.0,-48.07116,14.43854,-18.33465,10.21,0.93,1.9,2.0
1758077130.0599,1758077130.045,0.0,0.0,0.0,-51.27972,9.28192,-20.51189,10.21,0.93,1.9,2.0
1758077130.07475,1758077130.055,0.0,0.0,0.0,-54.02992,4.46907,-22.23076,9.69,1.4,1.67,2.0
1758077130.07601,1758077130.065,0.0,0.0,0.0,-56.55093,-1.08862,-23.0329,9.69,1.4,1.67,2.0
1758077130.09103,1758077130.075,0.0,0.0,0.0,-59.98868,-7.79223,-23.0902,9.2,1.67,1.38,2.0
1758077130.1071,1758077130.085,0.0,0.0,0.0,-61.59297,-11.57375,-21.7724,9.05,1.57,1.18,2.0
1758077130.10801,1758077130.095,0.0,0.0,0.0,-62.62429,-15.06879,-19.53786,9.05,1.57,1.18,2.0
1758077130.1228,1758077130.105,0.0,0.0,0.0,-63.54102,-17.47521,-15.0115,9.16,1.07,0.74,2.0
1758077130.13905,1758077130.115,0.0,0.0,0.0,-63.65561,-18.16276,-11.51645,9.16,1.07,0.74,2.0
1758077130.14003,1758077130.125,0.0,0.0,0.0,-63.54102,-17.30333,-8.36518,9.5,0.48,0.5,2.0
1758077130.15511,1758077130.135,0.0,0.0,0.0,-63.31184,-14.83961,-5.61499,9.5,0.48,0.5,2.0
1758077130.15608,1758077130.145,0.0,0.0,0.0,-62.91077,-8.30789,-2.92208,9.91,0.0,0.33,2.0
1758077130.17114,1758077130.155,0.0,0.0,0.0,-63.13995,0.68755,-2.34913,10.67,-0.16,0.27,2.0
1758077130.18683,1758077130.165,0.0,0.0,0.0,-63.77021,11.00079,-3.72423,10.67,-0.16,0.27,2.0
1758077130.18806,1758077130.175,0.0,0.0,0.0,-64.11398,17.30333,-5.09932,10.69,-0.06,0.27,2.0
1758077130.20307,1758077130.185,0.0,0.0,0.0,-65.03072,20.85567,-6.7609,10.69,-0.06,0.27,2.0
1758077130.21912,1758077130.195,0.0,0.0,0.0,-66.29122,21.6578,-7.67763,10.12,0.27,0.45,2.0
1758077130.22006,1758077130.205,0.0,0.0,0.0,-68.64035,22.11617,-8.99544,10.12,0.27,0.45,2.0
1758077130.23507,1758077130.215,0.0,0.0,0.0,-71.90621,21.31403,-10.25595,10.04,0.82,0.55,2.0
1758077130.23607,1758077130.225,0.0,0.0,0.0,-78.49522,19.48057,-13.5218,9.74,1.38,0.43,2.0
1758077130.25117,1758077130.235,0.0,0.0,0.0,-84.11021,16.50119,-15.75634,9.74,1.38,0.43,2.0
1758077130.26684,1758077130.245,0.0,0.0,0.0,-90.24085,8.99544,-17.6471,8.92,1.79,0.15,2.0
1758077130.26807,1758077130.255,0.0,0.0,0.0,-96.4861,-5.72958,-18.50654,8.92,1.79,0.15,2.0
1758077130.28289,1758077130.265,0.0,0.0,0.0,-103.07512,-27.73116,-18.44924,7.46,1.73,-0.3,2.0
1758077130.2991,1758077130.275,0.0,0.0,0.0,-107.02851,-38.15899,-16.67307,7.46,1.73,-0.3,2.0
1758077130.3001,1758077130.285,0.0,0.0,0.0,-110.52357,-44.40423,-14.78231,8.05,1.68,-1.14,2.0
1758077130.31524,1758077130.295,0.0,0.0,0.0,-113.38836,-48.70141,-8.93814,8.05,1.68,-1.14,2.0
1758077130.3161,1758077130.305,0.0,0.0,0.0,-117.97201,-9.74028,-10.48513,9.64,1.59,-0.59,2.0
1758077130.33124,1758077130.315,0.0,0.0,0.0,-121.69624,10.37054,-9.05273,12.5,1.41,-0.17,2.0
1758077130.35127,1758077130.325,0.0,0.0,0.0,-125.30587,-17.99088,-10.71431,12.5,1.41,-0.17,2.0
1758077130.35273,1758077130.335,0.0,0.0,0.0,-128.57175,-65.77556,-17.36062,5.14,1.73,0.68,2.0
1758077130.36817,1758077130.345,0.0,0.0,0.0,-128.80092,-70.18733,-21.02755,5.14,1.73,0.68,2.0
1758077130.3696,1758077130.355,0.0,0.0,0.0,-125.76424,-61.93674,-22.40265,9.42,1.84,-1.01,2.0
1758077130.38416,1758077130.365,0.0,0.0,0.0,-118.65957,-55.34772,-23.89234,9.42,1.84,-1.01,2.0
1758077130.38508,1758077130.375,0.0,0.0,0.0,-98.72063,-59.70221,-24.4653,11.99,-0.69,2.92,2.0
1758077130.40121,1758077130.385,0.0,0.0,0.0,-82.90699,-64.40046,-26.06958,12.96,-6.09,3.94,2.0
1758077130.41692,1758077130.395,0.0,0.0,0.0,-66.92148,-62.28051,-29.73651,12.96,-6.09,3.94,2.0
1758077130.41815,1758077130.405,0.0,0.0,0.0,-51.90998,-52.02457,-33.9764,15.18,-6.82,0.12,2.0
1758077130.43326,1758077130.415,0.0,0.0,0.0,-34.49206,-33.11696,-36.15364,15.18,-6.82,0.12,2.0
1758077130.44923,1758077130.425,0.0,0.0,0.0,-26.06958,-24.12152,-33.86181,12.32,-3.94,0.81,2.0
1758077130.45005,1758077130.435,0.0,0.0,0.0,-18.90761,-16.21471,-28.76248,12.32,-3.94,0.81,2.0
1758077130.46525,1758077130.445,0.0,0.0,0.0,-12.08941,-11.17268,-20.51189,8.89,-0.72,1.47,2.0
1758077130.4673,1758077130.455,0.0,0.0,0.0,-5.27121,-10.54242,-7.16197,8.28,1.21,1.18,2.0
1758077130.48191,1758077130.465,0.0,0.0,0.0,-3.26586,-8.65166,0.97403,8.28,1.21,1.18,2.0
1758077130.49799,1758077130.475,0.0,0.0,0.0,-4.23989,-6.87549,7.73493,9.86,1.59,1.47,2.0
1758077130.50032,1758077130.485,0.0,0.0,0.0,-8.30789,-6.24524,11.86023,9.86,1.59,1.47,2.0
1758077130.51529,1758077130.495,0.0,0.0,0.0,-18.9649,-5.4431,12.83425,10.58,1.28,1.51,2.0
1758077130.51615,1758077130.505,0.0,0.0,0.0,-28.07493,-4.0107,10.25595,10.58,1.28,1.51,2.0
1758077130.53309,1758077130.515,0.0,0.0,0.0,-37.75792,-2.57831,6.41713,10.54,0.57,1.13,2.0
1758077130.54906,1758077130.525,0.0,0.0,0.0,-52.13916,-0.22918,-0.34377,10.54,0.57,1.13,2.0
1758077130.55017,1758077130.535,0.0,0.0,0.0,-60.73353,2.7502,-4.52637,10.18,-0.06,0.94,2.0
1758077130.56595,1758077130.545,0.0,0.0,0.0,-67.60902,5.78687,-7.50575,10.19,-0.71,0.97,2.0
1758077130.56778,1758077130.555,0.0,0.0,0.0,-72.65105,9.39651,-9.68299,10.19,-0.71,0.97,2.0
1758077130.58327,1758077130.565,0.0,0.0,0.0,-76.31798,12.89155,-10.19865,10.17,-1.32,0.64,2.0
1758077130.59921,1758077130.575,0.0,0.0,0.0,-76.66176,15.64175,-9.28192,10.17,-1.32,0.64,2.0
1758077130.60016,1758077130.585,0.0,0.0,0.0,-75.85962,19.82434,-7.96411,10.07,-1.94,0.01,2.0
1758077130.61601,1758077130.595,0.0,0.0,0.0,-74.08345,24.63719,-6.8182,10.07,-1.94,0.01,2.0
1758077130.61721,1758077130.605,0.0,0.0,0.0,-70.30193,31.85646,-5.4431,10.52,-2.54,-0.38,2.0
1758077130.63205,1758077130.615,0.0,0.0,0.0,-66.80688,36.32552,-5.32851,11.0,-2.93,-0.52,2.0
1758077130.64825,1758077130.625,0.0,0.0,0.0,-62.28051,42.28429,-5.21392,11.0,-2.93,-0.52,2.0
1758077130.6492,1758077130.635,0.0,0.0,0.0,-57.0093,45.60744,-4.46907,11.34,-2.96,-0.73,2.0
1758077130.66406,1758077130.645,0.0,0.0,0.0,-49.38896,41.99781,-1.94806,11.34,-2.96,-0.73,2.0
1758077130.66517,1758077130.655,0.0,0.0,0.0,-44.28964,38.84654,1.14592,10.29,-2.43,-0.48,2.0
1758077130.68136,1758077130.665,0.0,0.0,0.0,-39.87786,35.63798,4.98473,10.29,-2.43,-0.48,2.0
1758077130.69801,1758077130.675,0.0,0.0,0.0,-36.15364,31.91375,9.11003,9.85,-1.89,-0.28,2.0
1758077130.69922,1758077130.685,0.0,0.0,0.0,-31.39809,27.73116,14.66772,9.54,-1.78,0.15,2.0
1758077130.71401,1758077130.695,0.0,0.0,0.0,-28.70519,24.63719,17.6471,9.54,-1.78,0.15,2.0
1758077130.71546,1758077130.705,0.0,0.0,0.0,-26.47065,21.08485,19.42327,9.35,-1.92,0.45,2.0
1758077130.73109,1758077130.715,0.0,0.0,0.0,-24.35071,17.53251,19.59516,9.35,-1.92,0.45,2.0
1758077130.74708,1758077130.725,0.0,0.0,0.0,-20.62648,11.00079,17.93358,9.24,-2.24,0.64,2.0
1758077130.74863,1758077130.735,0.0,0.0,0.0,-17.76169,7.44845,15.41257,9.24,-2.24,0.64,2.0
1758077130.76308,1758077130.745,0.0,0.0,0.0,-15.0115,4.58366,12.60507,9.07,-2.28,0.57,2.0
1758077130.77934,1758077130.755,0.0,0.0,0.0,-11.17268,1.94806,8.36518,9.07,-2.28,0.57,2.0
1758077130.78049,1758077130.765,0.0,0.0,0.0,-8.76626,0.51566,6.07335,9.04,-2.08,0.3,2.0
1758077130.79534,1758077130.775,0.0,0.0,0.0,-6.47442,0.0573,4.23989,8.97,-1.91,0.03,2.0
1758077130.79622,1758077130.785,0.0,0.0,0.0,-4.29718,0.22918,3.49504,8.97,-1.91,0.03,2.0
1758077130.81127,1758077130.795,0.0,0.0,0.0,-1.3178,4.87014,2.63561,9.36,-1.83,-0.11,2.0
1758077130.82705,1758077130.805,0.0,0.0,0.0,0.51566,9.11003,2.23454,9.36,-1.83,-0.11,2.0
1758077130.82852,1758077130.815,0.0,0.0,0.0,2.7502,13.23533,1.71887,10.02,-1.79,-0.21,2.0
1758077130.84305,1758077130.825,0.0,0.0,0.0,5.4431,16.90226,1.20321,10.02,-1.79,-0.21,2.0
1758077130.85927,1758077130.835,0.0,0.0,0.0,10.48513,21.14215,0.68755,10.37,-1.7,-0.18,2.0
1758077130.86052,1758077130.845,0.0,0.0,0.0,15.0115,22.68913,1.3751,10.3,-1.65,-0.15,2.0
1758077130.87531,1758077130.855,0.0,0.0,0.0,20.3973,22.28806,2.46372,10.3,-1.65,-0.15,2.0
1758077130.87631,1758077130.865,0.0,0.0,0.0,26.18417,20.22541,4.35448,9.75,-1.77,-0.11,2.0
1758077130.89137,1758077130.875,0.0,0.0,0.0,35.52338,14.43854,7.44845,9.75,-1.77,-0.11,2.0
1758077130.90733,1758077130.885,0.0,0.0,0.0,40.85189,7.79223,9.28192,9.23,-1.95,-0.01,2.0
1758077130.90871,1758077130.895,0.0,0.0,0.0,45.14908,-4.23989,10.31324,9.23,-1.95,-0.01,2.0
1758077130.92737,1758077130.905,0.0,0.0,0.0,47.32632,-15.87093,10.19865,8.43,-1.81,-0.11,2.0
1758077130.93001,1758077130.915,0.0,0.0,0.0,47.49821,-21.6578,6.7609,9.35,-1.43,-0.44,2.0
1758077130.94518,1758077130.925,0.0,0.0,0.0,48.58683,-10.19865,5.90147,9.35,-1.43,-0.44,2.0
1758077130.94656,1758077130.935,0.0,0.0,0.0,48.64412,-1.60428,4.98473,11.65,-1.28,0.27,2.0
1758077130.96137,1758077130.945,0.0,0.0,0.0,47.09713,1.66158,4.98473,11.65,-1.28,0.27,2.0
1758077130.97709,1758077130.955,0.0,0.0,0.0,44.00316,3.60963,3.95341,10.54,-1.11,0.39,2.0
1758077130.97861,1758077130.965,0.0,0.0,0.0,40.96649,3.32316,3.03668,10.54,-1.11,0.39,2.0
1758077130.99309,1758077130.975,0.0,0.0,0.0,37.12767,2.7502,1.48969,10.22,-0.83,-0.16,2.0
1758077131.00937,1758077130.985,0.0,0.0,0.0,32.83048,-7.50575,0.80214,10.22,-0.83,-0.16,2.0
1758077131.0106,1758077130.995,0.0,0.0,0.0,30.53865,-30.02299,-2.29183,9.21,-0.65,-0.09,2.0
1758077131.02544,1758077131.005,0.0,0.0,0.0,32.48671,-57.58226,0.74485,6.89,-0.61,-0.15,2.0
1758077131.0263,1758077131.015,0.0,0.0,0.0,34.14828,-65.03072,5.15662,6.89,-0.61,-0.15,2.0
1758077131.0414,1758077131.025,0.0,0.0,0.0,35.12231,-53.91533,10.8289,11.28,-0.99,1.17,2.0
