timeStamp,timeStampAlign,roll,pitch,yaw,gyro_x,gyro_y,gyro_z,acc_x,acc_y,acc_z,flag_num
1758076253.1881,1758076253.061,0.0,0.0,0.0,5.27121,39.82057,3.95341,9.49,-1.64,0.06,4.0
1758076253.18968,1758076253.071,0.0,0.0,0.0,7.16197,36.7266,2.63561,8.35,-1.82,0.46,4.0
1758076253.19633,1758076253.081,0.0,0.0,0.0,9.05273,31.56997,2.00535,8.35,-1.82,0.46,4.0
1758076253.19713,1758076253.091,0.0,0.0,0.0,10.8862,29.27814,2.40642,8.0,-1.38,0.44,4.0
1758076253.19898,1758076253.101,0.0,0.0,0.0,12.37589,41.71133,1.43239,9.09,-1.13,0.28,4.0
1758076253.20034,1758076253.111,0.0,0.0,0.0,13.40721,50.59217,2.92208,9.09,-1.13,0.28,4.0
1758076253.21823,1758076253.121,0.0,0.0,0.0,12.71966,49.96192,3.32316,8.72,-0.96,0.74,4.0
1758076253.23689,1758076253.131,0.0,0.0,0.0,12.71966,35.86716,4.46907,8.72,-0.96,0.74,4.0
1758076253.23788,1758076253.141,0.0,0.0,0.0,13.06344,29.56462,5.09932,6.99,-0.99,0.87,4.0
1758076253.25358,1758076253.151,0.0,0.0,0.0,14.20935,28.07493,5.61499,6.99,-0.99,0.87,4.0
1758076253.26244,1758076253.161,0.0,0.0,0.0,15.46986,26.81443,5.84417,7.49,-1.06,-0.21,4.0
1758076253.26307,1758076253.171,0.0,0.0,0.0,17.24603,21.7151,4.92744,7.49,-1.06,-0.26,4.0
1758076253.28745,1758076253.181,0.0,0.0,0.0,18.56383,16.272,3.55234,7.14,-1.11,-0.26,4.0
1758076253.29821,1758076253.191,0.0,0.0,0.0,19.76705,9.5684,1.3751,6.88,-1.07,-0.62,4.0
1758076253.30705,1758076253.201,0.0,0.0,0.0,21.08485,2.86479,-1.43239,6.88,-1.07,-0.62,4.0
1758076253.30957,1758076253.211,0.0,0.0,0.0,22.91831,-6.35983,-7.04738,7.16,-1.02,-0.74,4.0
1758076253.31339,1758076253.221,0.0,0.0,0.0,23.94964,-12.60507,-11.28727,7.16,-1.02,-0.74,4.0
1758076253.33739,1758076253.231,0.0,0.0,0.0,25.09555,-16.3293,-15.35527,7.8,-0.92,-0.34,4.0
1758076253.34237,1758076253.241,0.0,0.0,0.0,26.24147,-18.33465,-18.33465,7.8,-0.92,-0.34,4.0
1758076253.343,1758076253.251,0.0,0.0,0.0,26.81443,-22.40265,-20.85567,8.81,-0.7,0.18,4.0
1758076253.36005,1758076253.261,0.0,0.0,0.0,25.61122,-27.61657,-21.37133,8.9,-0.18,0.57,4.0
1758076253.3632,1758076253.271,0.0,0.0,0.0,23.37668,-32.08564,-20.62648,8.9,-0.18,0.57,4.0
1758076253.38195,1758076253.281,0.0,0.0,0.0,20.62648,-35.75257,-18.56383,8.89,0.35,0.5,4.0
1758076253.38468,1758076253.291,0.0,0.0,0.0,15.29797,-39.82057,-13.69369,8.89,0.35,0.5,4.0
1758076253.40114,1758076253.301,0.0,0.0,0.0,11.51645,-40.7946,-10.25595,9.03,0.61,0.59,4.0
1758076253.40308,1758076253.311,0.0,0.0,0.0,7.79223,-42.05511,-7.44845,9.03,0.61,0.59,4.0
1758076253.4183,1758076253.321,0.0,0.0,0.0,2.46372,-42.68536,-5.50039,9.02,0.44,0.63,4.0
1758076253.42054,1758076253.331,0.0,0.0,0.0,-0.51566,-42.1124,-5.55769,9.33,0.11,0.64,4.0
1758076253.43834,1758076253.341,0.0,0.0,0.0,-2.86479,-39.82057,-6.70361,9.33,0.11,0.64,4.0
1758076253.46813,1758076253.351,0.0,0.0,0.0,-4.69825,-36.6693,-8.76626,10.1,-0.1,0.43,4.0
1758076253.47005,1758076253.361,0.0,0.0,0.0,-6.13065,-29.73651,-13.00614,10.1,-0.1,0.43,4.0
1758076253.47238,1758076253.371,0.0,0.0,0.0,-7.04738,-24.4653,-15.92823,10.73,-0.21,0.02,4.0
1758076253.47355,1758076253.381,0.0,0.0,0.0,-7.84952,-19.53786,-18.50654,10.73,-0.21,0.02,4.0
1758076253.49243,1758076253.391,0.0,0.0,0.0,-8.30789,-14.83961,-20.3973,10.76,-0.33,-0.17,4.0
1758076253.49686,1758076253.401,0.0,0.0,0.0,-9.22462,-6.99009,-21.08485,10.58,-0.47,-0.24,4.0
1758076253.51137,1758076253.411,0.0,0.0,0.0,-9.91217,-2.29183,-20.3973,10.58,-0.47,-0.24,4.0
1758076253.51263,1758076253.421,0.0,0.0,0.0,-10.31324,-2.29183,-19.70975,10.15,-0.61,-0.18,4.0
1758076253.52735,1758076253.431,0.0,0.0,0.0,-11.74564,-10.25595,-19.36597,10.15,-0.61,-0.18,4.0
1758076253.56157,1758076253.441,0.0,0.0,0.0,-10.94349,-28.24682,-14.09476,8.8,-0.72,-0.33,4.0
1758076253.56331,1758076253.451,0.0,0.0,0.0,-10.48513,-25.8404,-10.59972,8.8,-0.72,-0.33,4.0
1758076253.56391,1758076253.461,0.0,0.0,0.0,-10.37054,-17.24603,-8.88085,10.7,-0.97,-0.6,4.0
1758076253.56863,1758076253.471,0.0,0.0,0.0,-10.71431,-10.37054,-8.65166,10.7,-0.97,-0.6,4.0
1758076253.58367,1758076253.481,0.0,0.0,0.0,-12.2613,-5.15662,-10.37054,10.67,-0.87,-0.37,4.0
1758076253.58542,1758076253.491,0.0,0.0,0.0,-13.34992,-2.06265,-12.14671,9.86,-0.44,-0.3,4.0
1758076253.60064,1758076253.501,0.0,0.0,0.0,-14.61043,1.08862,-13.23533,9.86,-0.44,-0.3,4.0
1758076253.60351,1758076253.511,0.0,0.0,0.0,-15.69904,3.60963,-13.80828,9.44,-0.1,-0.63,4.0
1758076253.61844,1758076253.521,0.0,0.0,0.0,-17.36062,5.84417,-12.89155,9.44,-0.1,-0.63,4.0
1758076253.62041,1758076253.531,0.0,0.0,0.0,-18.73572,5.95876,-11.80293,9.01,-0.02,-0.61,4.0
1758076253.63854,1758076253.541,0.0,0.0,0.0,-20.05352,4.35448,-9.74028,9.01,-0.02,-0.61,4.0
1758076253.85181,1758076253.551,0.0,0.0,0.0,-22.23076,0.57296,-5.21392,8.74,-0.05,-0.11,4.0
1758076253.85771,1758076253.561,0.0,0.0,0.0,-23.83505,-3.32316,-0.97403,9.3,0.09,0.99,4.0
1758076253.85814,1758076253.571,0.0,0.0,0.0,-25.61122,-8.59437,4.29718,9.3,0.09,0.99,4.0
1758076253.85944,1758076253.581,0.0,0.0,0.0,-28.13223,-15.29797,10.59972,10.26,0.39,2.67,4.0
1758076253.8627,1758076253.591,0.0,0.0,0.0,-33.00237,-27.67386,21.7151,10.26,0.39,2.67,4.0
1758076253.86367,1758076253.601,0.0,0.0,0.0,-35.2942,-33.9764,28.13223,10.73,0.86,3.46,4.0
1758076253.86509,1758076253.611,0.0,0.0,0.0,-35.98175,-35.69527,32.71589,10.73,0.86,3.46,4.0
1758076253.8661,1758076253.621,0.0,0.0,0.0,-35.00772,-33.00237,35.00772,10.87,1.05,3.08,4.0
1758076253.86808,1758076253.631,0.0,0.0,0.0,-31.62727,-30.19488,33.74722,11.14,0.93,3.27,4.0
1758076253.86849,1758076253.641,0.0,0.0,0.0,-28.01764,-35.12231,31.62727,11.14,0.93,3.27,4.0
1758076253.87203,1758076253.651,0.0,0.0,0.0,-23.0902,-45.49285,28.99167,11.57,0.95,2.14,4.0
1758076253.8728,1758076253.661,0.0,0.0,0.0,-16.73037,-48.35764,26.64254,11.57,0.95,2.14,4.0
1758076253.87427,1758076253.671,0.0,0.0,0.0,-7.50575,-37.87251,21.6578,13.57,0.64,-0.77,4.0
1758076253.8759,1758076253.681,0.0,0.0,0.0,-2.34913,-26.01229,16.55848,13.57,0.64,-0.77,4.0
1758076253.87815,1758076253.691,0.0,0.0,0.0,1.3178,-13.46451,11.17268,14.19,-0.06,-1.73,4.0
1758076253.87885,1758076253.701,0.0,0.0,0.0,3.60963,-2.97938,6.07335,14.19,-0.06,-1.73,4.0
1758076253.88003,1758076253.711,0.0,0.0,0.0,5.4431,14.66772,-1.20321,13.3,-0.3,-1.42,4.0
1758076253.88145,1758076253.721,0.0,0.0,0.0,6.47442,34.89313,-1.83346,14.15,0.12,-1.12,4.0
1758076253.88508,1758076253.731,0.0,0.0,0.0,7.44845,48.07116,-1.03132,14.15,0.12,-1.12,4.0
1758076253.88572,1758076253.741,0.0,0.0,0.0,7.62034,52.884,1.48969,13.92,0.87,-0.3,4.0
1758076253.88857,1758076253.751,0.0,0.0,0.0,6.58902,54.25911,3.95341,13.92,0.87,-0.3,4.0
1758076253.88999,1758076253.761,0.0,0.0,0.0,4.87014,56.14987,5.61499,13.51,1.38,-0.03,4.0
1758076253.89155,1758076253.771,0.0,0.0,0.0,3.09397,59.47303,6.24524,13.51,1.38,-0.03,4.0
1758076253.89359,1758076253.781,0.0,0.0,0.0,0.34377,62.22322,4.58366,12.53,1.21,-0.12,4.0
1758076253.89423,1758076253.791,0.0,0.0,0.0,-1.08862,61.24919,1.77617,10.73,0.77,0.28,4.0
1758076253.8985,1758076253.801,0.0,0.0,0.0,-2.46372,59.24384,-1.48969,10.73,0.77,0.28,4.0
1758076253.9005,1758076253.811,0.0,0.0,0.0,-3.83882,56.78012,-5.21392,10.07,0.51,0.34,4.0
1758076253.9177,1758076253.821,0.0,0.0,0.0,-5.21392,52.13916,-10.08406,10.07,0.51,0.34,4.0
1758076253.93383,1758076253.831,0.0,0.0,0.0,-5.61499,48.07116,-12.60507,9.72,0.48,0.34,4.0
1758076253.93661,1758076253.841,0.0,0.0,0.0,-5.90147,43.37291,-14.15206,9.72,0.48,0.34,4.0
1758076253.95182,1758076253.851,0.0,0.0,0.0,-5.84417,38.38818,-15.06879,9.13,0.59,0.27,4.0
1758076253.95274,1758076253.861,0.0,0.0,0.0,-5.95876,28.59059,-14.83961,8.28,0.62,0.33,4.0
1758076253.96765,1758076253.871,0.0,0.0,0.0,-6.13065,21.42862,-14.03747,8.28,0.62,0.33,4.0
1758076253.98377,1758076253.881,0.0,0.0,0.0,-6.53172,15.87093,-12.54778,7.55,0.51,0.43,4.0
1758076253.98792,1758076253.891,0.0,0.0,0.0,-7.21927,12.49048,-10.59972,7.55,0.51,0.43,4.0
1758076253.99683,1758076253.901,0.0,0.0,0.0,-8.36518,6.8182,-6.53172,7.19,0.39,0.49,4.0
1758076254.00168,1758076253.911,0.0,0.0,0.0,-9.39651,2.23454,-3.66693,7.19,0.39,0.49,4.0
1758076254.01981,1758076253.921,0.0,0.0,0.0,-10.59972,-2.11994,-0.51566,6.66,0.4,0.31,4.0
1758076254.02314,1758076253.931,0.0,0.0,0.0,-12.14671,-5.55769,4.0107,6.66,0.4,0.31,4.0
1758076254.03864,1758076253.941,0.0,0.0,0.0,-15.41257,-9.39651,6.53172,6.73,0.53,-0.06,4.0
1758076254.04137,1758076253.951,0.0,0.0,0.0,-18.10547,-12.83425,8.59437,6.95,0.76,-0.4,4.0
1758076254.05785,1758076253.961,0.0,0.0,0.0,-21.08485,-17.30333,10.19865,6.95,0.76,-0.4,4.0
1758076254.07377,1758076253.971,0.0,0.0,0.0,-25.61122,-24.80907,12.2613,7.24,1.06,-0.55,4.0
1758076254.07788,1758076253.981,0.0,0.0,0.0,-28.30412,-29.73651,13.40721,7.24,1.06,-0.55,4.0
1758076254.09374,1758076253.991,0.0,0.0,0.0,-30.65324,-32.83048,14.03747,7.9,1.21,-0.51,4.0
1758076254.09558,1758076254.001,0.0,0.0,0.0,-32.6013,-33.51803,13.86558,7.9,1.21,-0.51,4.0
1758076254.11056,1758076254.011,0.0,0.0,0.0,-33.86181,-33.00237,12.54778,8.82,1.09,-0.13,4.0
1758076254.11937,1758076254.021,0.0,0.0,0.0,-33.46074,-32.14294,10.71431,9.08,0.64,0.0,4.0
1758076254.13565,1758076254.031,0.0,0.0,0.0,-32.08564,-30.25217,8.42248,9.08,0.64,0.0,4.0
1758076254.13817,1758076254.041,0.0,0.0,0.0,-29.96569,-28.01764,6.13065,9.24,0.14,-0.02,4.0
1758076254.1779,1758076254.051,0.0,0.0,0.0,-26.52795,-23.94964,3.26586,9.24,0.14,-0.02,4.0
1758076254.1829,1758076254.061,0.0,0.0,0.0,-24.17882,-20.51189,2.23454,9.54,-0.14,-0.2,4.0
1758076254.18346,1758076254.071,0.0,0.0,0.0,-22.00158,-17.01685,2.00535,9.54,-0.14,-0.2,4.0
1758076254.18713,1758076254.081,0.0,0.0,0.0,-19.88164,-14.43854,2.6929,9.97,-0.14,-0.38,4.0
1758076254.18775,1758076254.091,0.0,0.0,0.0,-17.18874,-13.00614,4.58366,10.06,-0.04,-0.34,4.0
1758076254.20346,1758076254.101,0.0,0.0,0.0,-15.12609,-12.77696,6.18794,10.06,-0.04,-0.34,4.0
1758076254.20958,1758076254.111,0.0,0.0,0.0,-13.5791,-12.14671,7.79223,9.81,0.01,-0.26,4.0
1758076254.22462,1758076254.121,0.0,0.0,0.0,-12.37589,-11.51645,8.76626,9.81,0.01,-0.26,4.0
1758076254.22845,1758076254.131,0.0,0.0,0.0,-10.19865,-10.19865,10.08406,9.53,0.11,-0.1,4.0
1758076254.24381,1758076254.141,0.0,0.0,0.0,-8.76626,-8.93814,10.54242,9.53,0.11,-0.1,4.0
1758076254.24748,1758076254.151,0.0,0.0,0.0,-7.33386,-8.136,10.94349,9.54,0.33,-0.12,4.0
1758076254.26735,1758076254.161,0.0,0.0,0.0,-5.27121,-9.96947,11.22997,9.54,0.33,-0.12,4.0
1758076254.29016,1758076254.17099,0.0,0.0,0.0,-4.23989,-11.86023,11.22997,9.3,0.62,-0.3,4.0
1758076254.29178,1758076254.18099,0.0,0.0,0.0,-3.09397,-11.51645,10.54242,9.51,0.8,-0.5,4.0
1758076254.29385,1758076254.19099,0.0,0.0,0.0,-1.77617,-10.8289,10.31324,9.51,0.8,-0.5,4.0
1758076254.29685,1758076254.20099,0.0,0.0,0.0,0.97403,-10.48513,9.96947,9.5,0.73,-0.55,4.0
1758076254.31262,1758076254.21099,0.0,0.0,0.0,3.38045,-9.5684,9.74028,9.5,0.73,-0.55,4.0
1758076254.31386,1758076254.22099,0.0,0.0,0.0,5.84417,-8.25059,9.68299,9.26,0.52,-0.54,4.0
1758076254.33161,1758076254.23099,0.0,0.0,0.0,8.47978,-7.62034,9.05273,9.26,0.52,-0.54,4.0
1758076254.33631,1758076254.24099,0.0,0.0,0.0,12.43318,-7.04738,8.02141,8.94,0.41,-0.62,4.0
1758076254.35167,1758076254.25099,0.0,0.0,0.0,15.24068,-3.26586,6.58902,9.08,0.26,0.03,4.0
1758076254.3537,1758076254.26099,0.0,0.0,0.0,17.6471,3.89611,4.29718,9.08,0.26,0.03,4.0
1758076254.36989,1758076254.27099,0.0,0.0,0.0,18.22006,8.42248,0.0573,10.45,0.02,1.04,4.0
1758076254.37247,1758076254.28099,0.0,0.0,0.0,20.34,-1.08862,-5.27121,10.45,0.02,1.04,4.0
1758076254.38795,1758076254.29099,0.0,0.0,0.0,23.20479,-9.85487,-9.05273,10.24,-0.25,2.39,4.0
1758076254.40379,1758076254.30099,0.0,0.0,0.0,26.69983,-16.61578,-12.83425,10.24,-0.25,2.39,4.0
1758076254.4057,1758076254.31099,0.0,0.0,0.0,29.67921,-21.42862,-15.69904,10.52,-0.68,2.44,4.0
1758076254.42303,1758076254.32099,0.0,0.0,0.0,33.46074,-25.26744,-17.18874,10.86,-1.16,2.7,4.0
1758076254.42504,1758076254.33099,0.0,0.0,0.0,35.52338,-26.06958,-18.16276,10.86,-1.16,2.7,4.0
1758076254.44143,1758076254.34099,0.0,0.0,0.0,37.35685,-30.48136,-19.70975,13.0,-2.03,3.63,4.0
1758076254.44339,1758076254.35099,0.0,0.0,0.0,36.89849,-36.32552,-22.63183,13.0,-2.03,3.63,4.0
1758076254.45956,1758076254.36099,0.0,0.0,0.0,33.80451,-38.56006,-24.12152,15.16,-2.93,1.84,4.0
1758076254.46417,1758076254.37099,0.0,0.0,0.0,29.73651,-32.77319,-22.40265,15.16,-2.93,1.84,4.0
1758076254.48174,1758076254.38099,0.0,0.0,0.0,25.21014,-21.7151,-18.27736,16.61,-2.32,-1.05,4.0
1758076254.48398,1758076254.39099,0.0,0.0,0.0,18.56383,-2.63561,-8.36518,16.61,-2.32,-1.05,4.0
1758076254.49894,1758076254.40099,0.0,0.0,0.0,14.49583,6.53172,-0.51566,15.89,-0.47,-1.44,4.0
1758076254.50306,1758076254.41099,0.0,0.0,0.0,11.28727,11.63104,6.7609,13.36,1.03,-0.93,4.0
1758076254.51872,1758076254.42099,0.0,0.0,0.0,8.65166,13.80828,12.89155,13.36,1.03,-0.93,4.0
1758076254.52149,1758076254.43099,0.0,0.0,0.0,5.78687,15.98552,17.47521,11.92,1.14,-0.35,4.0
1758076254.53871,1758076254.44099,0.0,0.0,0.0,3.89611,25.21014,16.55848,11.92,1.14,-0.35,4.0
1758076254.55624,1758076254.45099,0.0,0.0,0.0,3.32316,37.52874,13.46451,12.68,0.21,0.06,4.0
1758076254.55826,1758076254.46099,0.0,0.0,0.0,1.83346,46.2377,8.42248,12.68,0.21,0.06,4.0
1758076254.63891,1758076254.47099,0.0,0.0,0.0,0.68755,45.43555,1.77617,12.45,-0.83,0.51,4.0
1758076254.64464,1758076254.48099,0.0,0.0,0.0,0.22918,40.62271,-1.66158,10.67,-1.17,0.54,4.0
1758076254.64528,1758076254.49099,0.0,0.0,0.0,0.51566,37.52874,-3.20856,10.67,-1.17,0.54,4.0
1758076254.64774,1758076254.50099,0.0,0.0,0.0,1.60428,38.15899,-2.7502,10.3,-1.12,0.38,4.0
1758076254.64947,1758076254.51099,0.0,0.0,0.0,3.95341,37.81522,0.68755,10.3,-1.12,0.38,4.0
1758076254.65074,1758076254.52099,0.0,0.0,0.0,5.90147,34.89313,3.83882,9.64,-1.0,0.57,4.0
1758076254.65135,1758076254.53099,0.0,0.0,0.0,7.79223,32.14294,7.10468,9.64,-1.0,0.57,4.0
1758076254.6521,1758076254.54099,0.0,0.0,0.0,9.68299,29.67921,10.19865,9.08,-0.95,0.55,4.0
1758076254.65325,1758076254.55099,0.0,0.0,0.0,11.74564,25.8404,13.34992,8.78,-1.01,0.46,4.0
1758076254.65643,1758076254.56099,0.0,0.0,0.0,12.77696,24.17882,14.15206,8.78,-1.01,0.46,4.0
1758076254.67264,1758076254.57099,0.0,0.0,0.0,13.40721,22.05888,14.20935,8.56,-1.08,0.47,4.0
1758076254.67474,1758076254.58099,0.0,0.0,0.0,13.34992,19.53786,12.43318,8.56,-1.08,0.47,4.0
1758076254.69275,1758076254.59099,0.0,0.0,0.0,12.71966,16.04282,10.59972,8.3,-0.89,0.39,4.0
1758076254.69431,1758076254.60099,0.0,0.0,0.0,11.86023,14.83961,8.47978,8.3,-0.89,0.39,4.0
1758076254.71271,1758076254.61099,0.0,0.0,0.0,10.65701,15.64175,5.90147,8.31,-0.5,0.29,4.0
1758076254.71718,1758076254.62099,0.0,0.0,0.0,8.02141,16.272,1.3751,8.31,-0.5,0.29,4.0
1758076254.73359,1758076254.63099,0.0,0.0,0.0,6.13065,14.9542,-1.83346,8.3,-0.13,0.24,4.0
1758076254.73872,1758076254.64099,0.0,0.0,0.0,4.46907,12.77696,-4.92744,7.93,0.07,0.12,4.0
1758076254.75377,1758076254.65099,0.0,0.0,0.0,3.09397,11.28727,-7.79223,7.93,0.07,0.12,4.0
1758076254.76002,1758076254.66099,0.0,0.0,0.0,2.00535,8.99544,-10.71431,7.88,0.0,-0.16,4.0
1758076254.82286,1758076254.67099,0.0,0.0,0.0,1.66158,5.72958,-12.14671,7.88,0.0,-0.16,4.0
1758076254.82768,1758076254.68099,0.0,0.0,0.0,1.66158,2.23454,-12.71966,7.68,-0.33,-0.3,4.0
1758076254.82824,1758076254.69099,0.0,0.0,0.0,2.23454,-1.03132,-12.89155,7.68,-0.33,-0.3,4.0
1758076254.83198,1758076254.70099,0.0,0.0,0.0,3.32316,-7.96411,-13.00614,7.85,-0.77,-0.41,4.0
1758076254.83251,1758076254.71099,0.0,0.0,0.0,4.46907,-12.89155,-12.71966,8.01,-1.18,-0.39,4.0
1758076254.8338,1758076254.72099,0.0,0.0,0.0,5.72958,-18.10547,-12.204,8.01,-1.18,-0.39,4.0
1758076254.8378,1758076254.73099,0.0,0.0,0.0,7.10468,-22.97561,-11.22997,8.36,-1.37,-0.34,4.0
1758076254.83836,1758076254.74099,0.0,0.0,0.0,8.76626,-27.44468,-10.48513,8.36,-1.37,-0.34,4.0
1758076254.85382,1758076254.75099,0.0,0.0,0.0,9.68299,-29.9084,-9.85487,8.69,-1.13,-0.28,4.0
1758076254.85668,1758076254.76099,0.0,0.0,0.0,10.59972,-32.08564,-9.11003,8.69,-1.13,-0.28,4.0
1758076254.87253,1758076254.77099,0.0,0.0,0.0,11.51645,-33.17426,-8.99544,8.77,-0.67,-0.26,4.0
1758076254.87386,1758076254.78099,0.0,0.0,0.0,12.49048,-34.89313,-8.93814,8.96,-0.35,-0.31,4.0
1758076254.89291,1758076254.79099,0.0,0.0,0.0,13.00614,-35.00772,-9.28192,8.96,-0.35,-0.31,4.0
1758076254.89385,1758076254.80099,0.0,0.0,0.0,13.34992,-32.71589,-9.39651,9.43,-0.26,-0.18,4.0
1758076254.91286,1758076254.81099,0.0,0.0,0.0,12.89155,-28.24682,-9.96947,9.43,-0.26,-0.18,4.0
1758076254.91648,1758076254.82099,0.0,0.0,0.0,11.80293,-24.17882,-10.25595,9.93,-0.27,0.12,4.0
1758076254.9327,1758076254.83099,0.0,0.0,0.0,10.37054,-20.62648,-10.59972,9.93,-0.27,0.12,4.0
1758076254.93619,1758076254.84099,0.0,0.0,0.0,8.65166,-17.87628,-10.8862,10.19,-0.1,0.16,4.0
1758076254.95343,1758076254.85099,0.0,0.0,0.0,6.18794,-14.20935,-11.22997,10.19,-0.1,0.16,4.0
1758076254.96105,1758076254.86099,0.0,0.0,0.0,5.15662,-12.2613,-11.51645,10.24,0.01,0.0,4.0
1758076254.96433,1758076254.87099,0.0,0.0,0.0,4.35448,-10.31324,-11.86023,10.23,-0.08,-0.1,4.0
1758076254.97713,1758076254.88099,0.0,0.0,0.0,4.0107,-8.76626,-12.08941,10.23,-0.08,-0.1,4.0
1758076254.99412,1758076254.89099,0.0,0.0,0.0,3.38045,-6.7609,-12.54778,10.26,-0.29,-0.16,4.0
1758076254.9996,1758076254.90099,0.0,0.0,0.0,4.0107,-8.47978,-12.14671,10.26,-0.29,-0.16,4.0
1758076255.00345,1758076254.91099,0.0,0.0,0.0,3.20856,-15.58445,-12.60507,9.87,-0.55,-0.11,4.0
1758076255.01993,1758076254.92099,0.0,0.0,0.0,3.83882,-22.28806,-11.63104,9.87,-0.55,-0.11,4.0
1758076255.09252,1758076254.93099,0.0,0.0,0.0,4.58366,-18.85031,-9.68299,9.41,-0.79,-0.25,4.0
1758076255.09815,1758076254.94099,0.0,0.0,0.0,4.81285,-11.11538,-8.59437,10.49,-0.92,-0.29,4.0
1758076255.10045,1758076254.95099,0.0,0.0,0.0,4.87014,-6.53172,-7.84952,10.49,-0.92,-0.29,4.0
1758076255.10241,1758076254.96099,0.0,0.0,0.0,3.72423,-3.89611,-8.36518,9.66,-0.69,-0.17,4.0
1758076255.10298,1758076254.97099,0.0,0.0,0.0,1.71887,2.63561,-9.74028,9.66,-0.69,-0.17,4.0
1758076255.10665,1758076254.98099,0.0,0.0,0.0,0.22918,6.7609,-10.8862,9.71,-0.32,-0.45,4.0
1758076255.10803,1758076254.99099,0.0,0.0,0.0,-1.43239,9.05273,-11.91752,9.71,-0.32,-0.45,4.0
1758076255.10961,1758076255.00099,0.0,0.0,0.0,-3.60963,8.99544,-13.46451,9.7,0.01,-0.61,4.0
1758076255.11802,1758076255.01099,0.0,0.0,0.0,-7.39116,7.79223,-13.98017,9.65,0.3,-0.66,4.0
1758076255.11921,1758076255.02099,0.0,0.0,0.0,-9.96947,6.41713,-14.20935,9.65,0.3,-0.66,4.0
1758076255.13521,1758076255.03099,0.0,0.0,0.0,-12.71966,5.61499,-14.20935,9.53,0.44,-0.68,4.0
1758076255.13879,1758076255.04099,0.0,0.0,0.0,-16.272,5.50039,-13.5218,9.53,0.44,-0.68,4.0
1758076255.15388,1758076255.05099,0.0,0.0,0.0,-18.33465,4.92744,-12.89155,9.2,0.38,-0.68,4.0
1758076255.1566,1758076255.06099,0.0,0.0,0.0,-20.11082,4.0107,-11.97482,9.2,0.38,-0.68,4.0
1758076255.17211,1758076255.07099,0.0,0.0,0.0,-21.94428,2.7502,-11.28727,8.64,0.16,-0.77,4.0
1758076255.17303,1758076255.08099,0.0,0.0,0.0,-24.29341,-0.11459,-9.96947,8.64,0.16,-0.38,4.0
1758076255.18824,1758076255.09099,0.0,0.0,0.0,-25.89769,-2.11994,-8.02141,8.27,-0.16,-0.38,4.0
1758076255.20392,1758076255.10099,0.0,0.0,0.0,-27.67386,-4.0107,-5.21392,9.15,-0.19,0.78,4.0
1758076255.20866,1758076255.11099,0.0,0.0,0.0,-29.9084,-7.39116,-0.57296,9.15,-0.19,0.78,4.0
1758076255.2239,1758076255.12099,0.0,0.0,0.0,-33.34615,-14.66772,7.50575,10.75,0.16,2.47,4.0
1758076255.22833,1758076255.13099,0.0,0.0,0.0,-35.52338,-20.16812,14.83961,10.75,0.16,2.47,4.0
1758076255.24396,1758076255.14099,0.0,0.0,0.0,-36.03905,-24.12152,21.7724,12.03,0.72,3.3,4.0
1758076255.2486,1758076255.15099,0.0,0.0,0.0,-35.2369,-23.72045,26.98631,12.03,0.72,3.3,4.0
1758076255.26396,1758076255.16099,0.0,0.0,0.0,-30.88243,-27.73116,29.33544,11.79,0.96,2.82,4.0
1758076255.26705,1758076255.17099,0.0,0.0,0.0,-26.64254,-29.56462,27.67386,10.71,0.76,2.16,4.0
1758076255.28325,1758076255.18099,0.0,0.0,0.0,-21.37133,-27.73116,24.12152,10.71,0.76,2.16,4.0
1758076255.28497,1758076255.19099,0.0,0.0,0.0,-16.21471,-20.62648,19.42327,12.01,0.44,1.26,4.0
1758076255.3026,1758076255.20099,0.0,0.0,0.0,-8.65166,-7.62034,12.77696,12.01,0.44,1.26,4.0
1758076255.30375,1758076255.21099,0.0,0.0,0.0,-3.95341,-4.69825,10.48513,13.88,0.39,0.57,4.0
1758076255.31918,1758076255.22099,0.0,0.0,0.0,0.0,-4.92744,8.99544,13.88,0.39,0.57,4.0
1758076255.32331,1758076255.23099,0.0,0.0,0.0,2.86479,-3.03668,7.62034,14.02,0.7,-0.76,4.0
1758076255.33916,1758076255.24099,0.0,0.0,0.0,3.55234,14.03747,6.18794,14.42,0.93,-1.52,4.0
1758076255.34352,1758076255.25099,0.0,0.0,0.0,4.64096,36.32552,6.07335,14.42,0.93,-1.52,4.0
1758076255.36023,1758076255.26099,0.0,0.0,0.0,6.58902,49.79003,7.10468,13.79,0.8,-0.48,4.0
1758076255.36293,1758076255.27099,0.0,0.0,0.0,8.65166,53.17049,7.73493,13.79,0.8,-0.48,4.0
1758076255.37894,1758076255.28099,0.0,0.0,0.0,8.30789,53.74345,7.67763,11.32,0.67,0.57,4.0
1758076255.38281,1758076255.29099,0.0,0.0,0.0,6.87549,55.23313,6.58902,11.32,0.67,0.57,4.0
1758076255.39795,1758076255.30099,0.0,0.0,0.0,4.58366,55.34772,4.18259,11.52,0.69,0.65,4.0
1758076255.41392,1758076255.31099,0.0,0.0,0.0,1.08862,53.28508,0.0573,11.07,0.81,0.77,4.0
1758076255.41677,1758076255.32099,0.0,0.0,0.0,-0.51566,51.45161,-2.23454,11.07,0.81,0.77,4.0
1758076255.43204,1758076255.33099,0.0,0.0,0.0,-2.00535,49.27437,-4.29718,10.27,0.91,0.59,4.0
1758076255.43315,1758076255.34099,0.0,0.0,0.0,-2.92208,46.1231,-6.07335,10.27,0.91,0.59,4.0
1758076255.44803,1758076255.35099,0.0,0.0,0.0,-3.72423,39.70598,-7.79223,9.37,0.91,0.59,4.0
1758076255.4533,1758076255.36099,0.0,0.0,0.0,-3.95341,33.9764,-8.25059,9.37,0.91,0.59,4.0
1758076255.4713,1758076255.37099,0.0,0.0,0.0,-3.72423,28.36141,-7.84952,8.9,0.79,0.67,4.0
1758076255.47387,1758076255.38099,0.0,0.0,0.0,-3.38045,22.91831,-6.87549,8.9,0.79,0.67,4.0
1758076255.49127,1758076255.39099,0.0,0.0,0.0,-3.38045,16.04282,-5.15662,9.04,0.61,0.72,4.0
1758076255.49861,1758076255.40099,0.0,0.0,0.0,-3.38045,12.08941,-3.72423,9.2,0.47,0.56,4.0
1758076255.55269,1758076255.41099,0.0,0.0,0.0,-3.60963,8.70896,-2.46372,9.2,0.47,0.56,4.0
1758076255.55564,1758076255.42099,0.0,0.0,0.0,-3.95341,7.73493,-1.60428,9.14,0.36,0.48,4.0
1758076255.55785,1758076255.43099,0.0,0.0,0.0,-4.18259,8.47978,-1.03132,9.14,0.36,0.48,4.0
1758076255.56302,1758076255.44099,0.0,0.0,0.0,-3.95341,7.67763,-0.45837,8.81,0.35,0.4,4.0
1758076255.56399,1758076255.45099,0.0,0.0,0.0,-3.66693,6.24524,-0.11459,8.81,0.35,0.4,4.0
1758076255.56725,1758076255.46099,0.0,0.0,0.0,-3.38045,4.18259,0.34377,8.25,0.35,0.31,4.0
1758076255.5685,1758076255.47099,0.0,0.0,0.0,-2.97938,2.00535,0.97403,7.9,0.37,-0.03,4.0
1758076255.57395,1758076255.48099,0.0,0.0,0.0,-2.92208,-1.14592,1.60428,7.9,0.37,-0.03,4.0
1758076255.59201,1758076255.49099,0.0,0.0,0.0,-2.97938,-5.15662,2.63561,7.42,0.41,-0.35,4.0
1758076255.59406,1758076255.50099,0.0,0.0,0.0,-4.0107,-10.54242,4.69825,7.42,0.41,-0.35,4.0
1758076255.60927,1758076255.51099,0.0,0.0,0.0,-5.4431,-14.15206,6.41713,7.37,0.49,-0.67,4.0
1758076255.61348,1758076255.52099,0.0,0.0,0.0,-7.79223,-18.33465,8.59437,7.37,0.49,-0.67,4.0
1758076255.63105,1758076255.53099,0.0,0.0,0.0,-10.71431,-22.23076,10.31324,7.5,0.71,-0.61,4.0
1758076255.63225,1758076255.54099,0.0,0.0,0.0,-16.38659,-26.81443,12.54778,7.77,1.02,-0.61,4.0
1758076255.64704,1758076255.55099,0.0,0.0,0.0,-20.11082,-29.39274,13.5218,7.77,1.02,-0.61,4.0
1758076255.66401,1758076255.56099,0.0,0.0,0.0,-23.26209,-31.97105,14.20935,7.89,1.05,-0.36,4.0
1758076255.66518,1758076255.57099,0.0,0.0,0.0,-25.89769,-34.09099,14.15206,7.89,1.05,-0.36,4.0
1758076255.68042,1758076255.58099,0.0,0.0,0.0,-27.67386,-33.05967,13.86558,8.27,0.73,-0.13,4.0
1758076255.68284,1758076255.59099,0.0,0.0,0.0,-27.61657,-30.13758,13.06344,8.27,0.73,-0.13,4.0
1758076255.69907,1758076255.60099,0.0,0.0,0.0,-26.64254,-25.49662,12.14671,9.24,0.38,0.02,4.0
1758076255.72865,1758076255.61099,0.0,0.0,0.0,-24.63719,-20.22541,11.17268,9.24,0.38,0.02,4.0
1758076255.72902,1758076255.62099,0.0,0.0,0.0,-20.16812,-14.03747,10.48513,10.06,0.09,-0.04,4.0
1758076255.73023,1758076255.63099,0.0,0.0,0.0,-16.73037,-12.60507,10.37054,10.23,-0.17,-0.26,4.0
1758076255.74671,1758076255.64099,0.0,0.0,0.0,-13.46451,-13.34992,10.8289,10.23,-0.17,-0.26,4.0
1758076255.74862,1758076255.65099,0.0,0.0,0.0,-9.05273,-14.61043,12.08941,10.17,-0.4,-0.49,4.0
1758076255.76566,1758076255.66099,0.0,0.0,0.0,-7.16197,-16.3293,12.89155,10.17,-0.4,-0.49,4.0
1758076255.76846,1758076255.67099,0.0,0.0,0.0,-5.61499,-16.50119,13.5791,10.29,-0.38,-0.61,4.0
1758076255.78424,1758076255.68099,0.0,0.0,0.0,-4.69825,-15.92823,14.15206,10.29,-0.38,-0.61,4.0
1758076255.7887,1758076255.69099,0.0,0.0,0.0,-3.89611,-13.17803,14.66772,10.4,-0.1,-0.52,4.0
1758076255.80439,1758076255.70099,0.0,0.0,0.0,-3.55234,-11.28727,14.43854,10.22,0.28,-0.37,4.0
1758076255.80878,1758076255.71099,0.0,0.0,0.0,-3.26586,-9.39651,13.86558,10.22,0.28,-0.37,4.0
1758076255.82438,1758076255.72099,0.0,0.0,0.0,-2.92208,-8.02141,13.5218,9.81,0.59,-0.25,4.0
1758076255.82849,1758076255.73099,0.0,0.0,0.0,-2.06265,-5.84417,12.71966,9.81,0.59,-0.25,4.0
1758076255.83323,1758076255.74099,0.0,0.0,0.0,-1.20321,-4.64096,12.08941,9.5,0.74,-0.31,4.0
1758076255.8494,1758076255.75099,0.0,0.0,0.0,-0.45837,-4.0107,11.80293,9.5,0.74,-0.31,4.0
1758076255.86593,1758076255.76099,0.0,0.0,0.0,0.74485,-3.55234,11.28727,9.31,0.62,-0.49,4.0
1758076255.87663,1758076255.77099,0.0,0.0,0.0,3.26586,-2.34913,10.8862,9.34,0.33,-0.75,4.0
1758076255.87725,1758076255.78099,0.0,0.0,0.0,4.87014,0.17189,10.54242,9.34,0.33,-0.75,4.0
1758076255.89651,1758076255.79099,0.0,0.0,0.0,6.47442,4.69825,10.02676,9.63,0.14,-0.89,4.0
1758076255.89767,1758076255.80099,0.0,0.0,0.0,8.25059,7.96411,9.33921,9.63,0.14,-0.89,4.0
1758076255.91311,1758076255.81099,0.0,0.0,0.0,11.28727,5.50039,7.04738,9.53,-0.01,-0.13,4.0
1758076255.91432,1758076255.82099,0.0,0.0,0.0,13.69369,1.60428,4.87014,9.53,-0.01,-0.13,4.0
1758076255.93135,1758076255.83099,0.0,0.0,0.0,16.50119,-1.83346,2.6929,10.24,-0.41,0.66,4.0
1758076255.93583,1758076255.84099,0.0,0.0,0.0,19.70975,-5.90147,-1.3751,10.24,-0.41,0.66,4.0
1758076255.9511,1758076255.85099,0.0,0.0,0.0,25.38203,-11.00079,-5.21392,11.53,-0.93,1.75,4.0
1758076255.95225,1758076255.86099,0.0,0.0,0.0,29.27814,-15.06879,-8.36518,11.43,-1.27,2.63,4.0
1758076255.96743,1758076255.87099,0.0,0.0,0.0,32.08564,-18.27736,-11.17268,11.43,-1.27,2.63,4.0
1758076255.98338,1758076255.88099,0.0,0.0,0.0,34.14828,-19.36597,-13.69369,10.92,-1.35,2.88,4.0
1758076255.98461,1758076255.89099,0.0,0.0,0.0,34.95043,-20.74107,-15.35527,10.92,-1.35,2.88,4.0
1758076256.0002,1758076255.90099,0.0,0.0,0.0,34.66395,-23.66316,-18.33465,11.93,-1.52,3.45,4.0
1758076256.00116,1758076255.91099,0.0,0.0,0.0,33.34615,-27.04361,-20.85567,11.93,-1.52,3.45,4.0
1758076256.01823,1758076255.92099,0.0,0.0,0.0,28.99167,-28.59059,-22.74642,13.62,-1.87,2.48,4.0
1758076256.03404,1758076255.93099,0.0,0.0,0.0,25.15285,-25.26744,-22.11617,14.49,-1.7,0.39,4.0
1758076256.0372,1758076255.94099,0.0,0.0,0.0,21.25674,-19.76705,-19.36597,14.49,-1.7,0.39,4.0
1758076256.05311,1758076255.95099,0.0,0.0,0.0,17.30333,-12.71966,-14.66772,14.09,-0.72,-0.24,4.0
1758076256.05676,1758076255.96099,0.0,0.0,0.0,12.37589,-2.00535,-5.4431,14.09,-0.72,-0.24,4.0
1758076256.07217,1758076255.97099,0.0,0.0,0.0,9.39651,4.0107,0.80214,12.86,0.25,-0.11,4.0
1758076256.0734,1758076255.98099,0.0,0.0,0.0,6.87549,9.39651,5.95876,12.86,0.25,-0.11,4.0
1758076256.08839,1758076255.99099,0.0,0.0,0.0,5.4431,14.09476,8.25059,11.87,0.49,0.19,4.0
1758076256.09603,1758076256.00099,0.0,0.0,0.0,4.69825,16.90226,7.39116,11.2,-0.03,0.13,4.0
1758076256.11224,1758076256.01099,0.0,0.0,0.0,4.69825,18.44924,6.07335,11.2,-0.03,0.13,4.0
1758076256.11395,1758076256.02099,0.0,0.0,0.0,4.87014,31.62727,2.29183,12.16,-0.9,0.77,4.0
1758076256.13304,1758076256.03099,0.0,0.0,0.0,4.69825,43.37291,-2.11994,12.16,-0.9,0.77,4.0
1758076256.13631,1758076256.04099,0.0,0.0,0.0,4.46907,45.03448,-6.07335,11.95,-1.33,0.9,4.0
1758076256.15225,1758076256.05099,0.0,0.0,0.0,3.60963,40.85189,-7.33386,11.95,-1.33,0.9,4.0
1758076256.15344,1758076256.06099,0.0,0.0,0.0,3.38045,35.63798,-7.10468,10.4,-1.01,1.17,4.0
1758076256.1685,1758076256.07099,0.0,0.0,0.0,3.26586,31.85646,-4.18259,10.4,-1.01,1.17,4.0
1758076256.17358,1758076256.08099,0.0,0.0,0.0,3.49504,26.64254,-0.80214,9.67,-0.66,0.46,4.0
1758076256.19302,1758076256.09099,0.0,0.0,0.0,3.95341,22.91831,2.63561,9.34,-0.66,0.86,4.0
1758076256.19824,1758076256.10099,0.0,0.0,0.0,4.52637,18.9649,5.95876,9.34,-0.66,0.86,4.0
1758076256.21366,1758076256.11099,0.0,0.0,0.0,5.95876,14.78231,10.59972,9.38,-0.85,0.69,4.0
1758076256.21718,1758076256.12099,0.0,0.0,0.0,7.10468,12.83425,12.71966,9.38,-0.85,0.69,4.0
1758076256.23302,1758076256.13099,0.0,0.0,0.0,8.30789,11.80293,13.98017,9.52,-1.05,0.38,4.0
1758076256.23692,1758076256.14099,0.0,0.0,0.0,9.11003,11.51645,14.66772,9.52,-1.05,0.38,4.0
1758076256.25251,1758076256.15099,0.0,0.0,0.0,9.4538,12.2613,13.75099,9.5,-1.01,0.13,4.0
1758076256.25345,1758076256.16099,0.0,0.0,0.0,9.11003,11.91752,12.54778,9.18,-0.76,-0.03,4.0
1758076256.26825,1758076256.17099,0.0,0.0,0.0,8.36518,11.86023,10.37054,9.18,-0.76,-0.03,4.0
1758076256.27926,1758076256.18099,0.0,0.0,0.0,7.33386,11.57375,7.67763,8.73,-0.41,0.04,4.0
1758076256.29001,1758076256.19099,0.0,0.0,0.0,4.98473,11.91752,2.92208,8.73,-0.41,0.04,4.0
1758076256.29368,1758076256.20099,0.0,0.0,0.0,2.92208,13.75099,-0.68755,8.5,-0.03,0.15,4.0
1758076256.30994,1758076256.21099,0.0,0.0,0.0,0.57296,14.61043,-4.52637,8.5,-0.03,0.15,4.0
1758076256.31127,1758076256.22099,0.0,0.0,0.0,-1.83346,14.09476,-8.30789,8.23,0.27,0.14,4.0
1758076256.32836,1758076256.23099,0.0,0.0,0.0,-5.21392,11.63104,-13.17803,7.83,0.29,-0.02,4.0
1758076256.34432,1758076256.24099,0.0,0.0,0.0,-6.7609,10.02676,-15.75634,7.83,0.29,-0.02,4.0
1758076256.3463,1758076256.25099,0.0,0.0,0.0,-7.79223,8.30789,-17.53251,7.8,0.04,-0.23,4.0
1758076256.36371,1758076256.26099,0.0,0.0,0.0,-7.67763,5.90147,-18.27736,7.8,0.04,-0.23,4.0
1758076256.3645,1758076256.27099,0.0,0.0,0.0,-6.47442,1.43239,-18.79302,7.76,-0.49,-0.43,4.0
1758076256.38251,1758076256.28099,0.0,0.0,0.0,-4.81285,-1.66158,-18.33465,7.76,-0.49,-0.43,4.0
1758076256.38783,1758076256.29099,0.0,0.0,0.0,-2.57831,-5.95876,-17.76169,7.75,-1.15,-0.5,4.0
1758076256.40338,1758076256.30099,0.0,0.0,0.0,1.3178,-13.17803,-16.73037,7.75,-1.15,-0.5,4.0
1758076256.40531,1758076256.31099,0.0,0.0,0.0,4.1253,-18.16276,-16.21471,7.6,-1.6,-0.37,4.0
1758076256.42345,1758076256.32099,0.0,0.0,0.0,6.7609,-23.49127,-15.75634,7.6,-1.63,-0.3,4.0
1758076256.4261,1758076256.33099,0.0,0.0,0.0,9.39651,-28.13223,-15.64175,7.6,-1.63,-0.3,4.0
1758076256.44334,1758076256.34099,0.0,0.0,0.0,13.00614,-32.54401,-15.92823,7.81,-1.27,-0.41,4.0
1758076256.44565,1758076256.35099,0.0,0.0,0.0,15.41257,-33.11696,-15.92823,7.81,-1.27,-0.41,4.0
1758076256.48725,1758076256.36099,0.0,0.0,0.0,17.47521,-33.11696,-15.87093,8.42,-0.75,-0.5,4.0
1758076256.49314,1758076256.37099,0.0,0.0,0.0,19.36597,-33.80451,-15.69904,8.42,-0.75,-0.5,4.0
1758076256.49614,1758076256.38099,0.0,0.0,0.0,21.02755,-35.40879,-15.64175,8.83,-0.42,-0.3,4.0
1758076256.49738,1758076256.39099,0.0,0.0,0.0,21.08485,-37.81522,-15.46986,9.31,-0.21,-0.3,4.0
1758076256.49808,1758076256.40099,0.0,0.0,0.0,20.3973,-39.70598,-15.06879,9.31,-0.21,-0.3,4.0
1758076256.51589,1758076256.41099,0.0,0.0,0.0,18.73572,-38.15899,-14.32395,10.01,0.06,-0.48,4.0
1758076256.51789,1758076256.42099,0.0,0.0,0.0,15.58445,-34.37747,-12.43318,10.01,0.06,-0.48,4.0
1758076256.53334,1758076256.43099,0.0,0.0,0.0,13.34992,-30.82513,-11.22997,10.27,0.28,-0.49,4.0
1758076256.53535,1758076256.44099,0.0,0.0,0.0,11.11538,-26.12688,-10.54242,10.27,0.28,-0.49,4.0
1758076256.55216,1758076256.45099,0.0,0.0,0.0,8.88085,-20.97026,-10.31324,10.36,0.37,-0.47,4.0
1758076256.55578,1758076256.46099,0.0,0.0,0.0,5.78687,-14.49583,-11.00079,10.26,0.29,-0.47,4.0
1758076256.57248,1758076256.47099,0.0,0.0,0.0,4.18259,-11.28727,-11.86023,10.26,0.29,-0.47,4.0
1758076256.57609,1758076256.48099,0.0,0.0,0.0,2.23454,-8.70896,-13.17803,10.07,0.15,-0.48,4.0
1758076256.59218,1758076256.49099,0.0,0.0,0.0,0.51566,-6.8182,-15.0115,10.07,0.15,-0.48,4.0
1758076256.59607,1758076256.50099,0.0,0.0,0.0,-1.83346,-5.84417,-16.21471,9.91,-0.03,-0.5,4.0
1758076256.61163,1758076256.51099,0.0,0.0,0.0,-3.72423,-5.09932,-16.95955,9.91,-0.03,-0.5,4.0
1758076256.61257,1758076256.52099,0.0,0.0,0.0,-5.4431,-4.52637,-17.53251,9.89,-0.15,-0.61,4.0
1758076256.62739,1758076256.53099,0.0,0.0,0.0,-8.65166,-5.15662,-18.50654,9.89,-0.15,-0.61,4.0
1758076256.64356,1758076256.54099,0.0,0.0,0.0,-9.85487,-7.62034,-18.27736,9.84,-0.17,-0.61,4.0
1758076256.64854,1758076256.55099,0.0,0.0,0.0,-11.74564,-15.29797,-17.93358,9.14,-0.17,-0.89,4.0
1758076256.68634,1758076256.56099,0.0,0.0,0.0,-12.54778,-23.54857,-16.55848,9.14,-0.17,-0.89,4.0
1758076256.68808,1758076256.57099,0.0,0.0,0.0,-13.69369,-21.94428,-12.60507,9.21,-0.41,-1.09,4.0
1758076256.68954,1758076256.58099,0.0,0.0,0.0,-14.32395,-15.29797,-10.48513,9.21,-0.41,-1.09,4.0
1758076256.6958,1758076256.59099,0.0,0.0,0.0,-15.12609,-9.39651,-8.70896,10.13,-0.67,-1.07,4.0
1758076256.69698,1758076256.60099,0.0,0.0,0.0,-16.50119,-5.4431,-7.62034,10.13,-0.67,-1.07,4.0
1758076256.71335,1758076256.61099,0.0,0.0,0.0,-19.42327,-0.85944,-6.87549,9.41,-0.65,-0.95,4.0
1758076256.71759,1758076256.62099,0.0,0.0,0.0,-21.7151,-0.17189,-5.95876,9.2,-0.41,-0.09,4.0
1758076256.73258,1758076256.63099,0.0,0.0,0.0,-24.23611,-0.11459,-4.1253,9.2,-0.41,-0.09,4.0
1758076256.73358,1758076256.64099,0.0,0.0,0.0,-26.81443,-1.3178,-0.22918,10.28,0.13,1.5,4.0
1758076256.75169,1758076256.65099,0.0,0.0,0.0,-30.48136,-8.47978,8.88085,10.28,0.13,1.5,4.0
1758076256.75304,1758076256.66099,0.0,0.0,0.0,-32.48671,-13.75099,16.67307,11.82,0.89,3.23,4.0
1758076256.76772,1758076256.67099,0.0,0.0,0.0,-32.71589,-15.64175,24.29341,11.82,0.89,3.23,4.0
1758076256.78349,1758076256.68099,0.0,0.0,0.0,-33.00237,-20.51189,28.64789,12.1,1.41,3.55,4.0
1758076256.78462,1758076256.69099,0.0,0.0,0.0,-31.2262,-25.21014,30.82513,11.09,1.23,3.28,4.0
1758076256.79941,1758076256.70099,0.0,0.0,0.0,-29.67921,-24.80907,29.33544,11.09,1.23,3.28,4.0
1758076256.80143,1758076256.71099,0.0,0.0,0.0,-27.73116,-22.91831,27.10091,13.13,1.23,3.06,4.0
1758076256.81862,1758076256.72099,0.0,0.0,0.0,-21.94428,-22.34536,25.7831,13.13,1.23,3.06,4.0
1758076256.83657,1758076256.73099,0.0,0.0,0.0,-16.50119,-19.99623,25.72581,14.98,1.58,0.48,4.0
1758076256.83821,1758076256.74099,0.0,0.0,0.0,-10.65701,-16.90226,24.5226,14.98,1.58,0.48,4.0
1758076256.8538,1758076256.75099,0.0,0.0,0.0,-6.70361,-10.02676,22.28806,14.92,1.3,-1.78,4.0
1758076256.90465,1758076256.76099,0.0,0.0,0.0,-3.32316,15.06879,14.78231,14.92,1.3,-1.78,4.0
1758076256.90789,1758076256.77099,0.0,0.0,0.0,-0.57296,35.06502,8.70896,14.41,0.4,-1.58,4.0
1758076256.90899,1758076256.78099,0.0,0.0,0.0,1.71887,49.33167,3.09397,12.86,-0.43,-0.65,4.0
1758076256.90961,1758076256.79099,0.0,0.0,0.0,4.23989,54.77477,-0.68755,12.86,-0.43,-0.65,4.0
1758076256.91167,1758076256.80099,0.0,0.0,0.0,5.84417,57.81144,-3.55234,11.09,-0.28,0.24,4.0
1758076256.91226,1758076256.81099,0.0,0.0,0.0,5.50039,59.24384,-3.83882,11.09,-0.28,0.24,4.0
1758076256.91353,1758076256.82099,0.0,0.0,0.0,4.23989,59.47303,-3.26586,11.52,0.66,-0.1,4.0
1758076256.92878,1758076256.83099,0.0,0.0,0.0,2.46372,58.78547,-1.83346,11.52,0.66,-0.1,4.0
1758076256.94477,1758076256.84099,0.0,0.0,0.0,-0.17189,57.23849,0.22918,11.53,1.44,0.22,4.0
1758076256.9457,1758076256.85099,0.0,0.0,0.0,-1.43239,55.40502,0.97403,10.8,1.42,0.51,4.0
1758076256.96066,1758076256.86099,0.0,0.0,0.0,-2.29183,53.11319,0.97403,10.8,1.42,0.51,4.0
1758076256.9625,1758076256.87099,0.0,0.0,0.0,-2.46372,50.93595,0.11459,9.83,0.86,0.52,4.0
1758076256.97878,1758076256.88099,0.0,0.0,0.0,-1.77617,45.72203,-2.06265,9.83,0.86,0.52,4.0
1758076256.99633,1758076256.89099,0.0,0.0,0.0,-0.85944,40.7946,-3.95341,9.14,0.36,0.58,4.0
1758076256.9973,1758076256.90099,0.0,0.0,0.0,0.0573,35.63798,-5.78687,9.14,0.36,0.58,4.0
1758076257.01283,1758076256.91099,0.0,0.0,0.0,0.68755,30.93972,-7.73493,8.92,0.17,0.63,4.0
1758076257.01364,1758076256.92099,0.0,0.0,0.0,1.66158,23.83505,-8.88085,9.01,0.33,0.71,4.0
1758076257.02868,1758076256.93099,0.0,0.0,0.0,2.11994,18.73572,-8.88085,9.01,0.33,0.71,4.0
1758076257.04549,1758076256.94099,0.0,0.0,0.0,2.46372,14.49583,-8.36518,9.01,0.5,0.53,4.0
1758076257.04848,1758076256.95099,0.0,0.0,0.0,2.97938,9.33921,-6.53172,9.01,0.5,0.53,4.0
1758076257.06368,1758076256.96099,0.0,0.0,0.0,3.32316,8.93814,-4.98473,9.09,0.47,0.34,4.0
1758076257.06808,1758076256.97099,0.0,0.0,0.0,3.83882,9.85487,-3.03668,9.09,0.47,0.34,4.0
1758076257.08368,1758076256.98099,0.0,0.0,0.0,4.64096,9.96947,-0.97403,9.28,0.28,0.28,4.0
1758076257.08559,1758076256.99099,0.0,0.0,0.0,6.18794,7.44845,1.94806,9.28,0.28,0.29,4.0
1758076257.10066,1758076257.00099,0.0,0.0,0.0,7.39116,5.15662,3.95341,8.88,0.12,0.29,4.0
1758076257.10361,1758076257.01099,0.0,0.0,0.0,8.42248,3.49504,5.61499,8.58,0.13,-0.05,4.0
1758076257.11857,1758076257.02099,0.0,0.0,0.0,9.4538,2.63561,7.39116,8.58,0.13,-0.05,4.0
1758076257.13577,1758076257.03099,0.0,0.0,0.0,10.65701,2.29183,9.5684,8.44,0.26,-0.29,4.0
1758076257.1376,1758076257.04099,0.0,0.0,0.0,11.00079,1.71887,10.8862,8.44,0.26,-0.29,4.0
1758076257.15259,1758076257.05099,0.0,0.0,0.0,10.71431,0.57296,11.80293,8.33,0.43,-0.45,4.0
1758076257.15376,1758076257.06099,0.0,0.0,0.0,10.08406,-1.77617,12.49048,8.33,0.43,-0.45,4.0
1758076257.16882,1758076257.07099,0.0,0.0,0.0,8.30789,-8.36518,13.34992,8.13,0.55,-0.55,4.0
1758076257.17296,1758076257.08099,0.0,0.0,0.0,6.53172,-12.2613,14.09476,8.05,0.63,-0.6,4.0
1758076257.18887,1758076257.09099,0.0,0.0,0.0,4.69825,-16.10011,14.61043,8.05,0.63,-0.6,4.0
1758076257.19385,1758076257.10099,0.0,0.0,0.0,3.09397,-20.34,14.66772,8.08,0.62,-0.42,4.0
1758076257.2089,1758076257.11099,0.0,0.0,0.0,1.3751,-26.69983,15.41257,8.08,0.62,-0.42,4.0
1758076257.21295,1758076257.12099,0.0,0.0,0.0,0.40107,-28.476,15.35527,8.12,0.6,-0.03,4.0
1758076257.2285,1758076257.13099,0.0,0.0,0.0,-0.22918,-28.64789,15.06879,8.12,0.6,-0.03,4.0
1758076257.24743,1758076257.14099,0.0,0.0,0.0,-1.77617,-27.10091,13.98017,8.39,0.6,0.15,4.0
1758076257.2484,1758076257.15099,0.0,0.0,0.0,-2.57831,-23.37668,13.12073,8.61,0.67,0.05,4.0
1758076257.26386,1758076257.16099,0.0,0.0,0.0,-2.92208,-21.14215,12.204,8.61,0.67,0.05,4.0
1758076257.26749,1758076257.17099,0.0,0.0,0.0,-2.7502,-18.56383,11.74564,9.08,0.62,0.07,4.0
1758076257.28262,1758076257.18099,0.0,0.0,0.0,-2.63561,-15.75634,11.34457,9.08,0.62,0.07,4.0
1758076257.28544,1758076257.19099,0.0,0.0,0.0,-1.60428,-15.29797,11.63104,9.54,0.51,-0.05,4.0
1758076257.30065,1758076257.20099,0.0,0.0,0.0,-0.0573,-17.58981,12.08941,9.54,0.51,-0.05,4.0
1758076257.30429,1758076257.21099,0.0,0.0,0.0,1.03132,-22.74642,12.204,9.45,0.28,-0.24,4.0
1758076257.31963,1758076257.22099,0.0,0.0,0.0,2.6929,-29.22085,12.71966,9.57,0.28,-0.55,4.0
1758076257.33586,1758076257.23099,0.0,0.0,0.0,4.23989,-28.64789,13.69369,9.57,0.11,-0.55,4.0
1758076257.3376,1758076257.24099,0.0,0.0,0.0,5.72958,-24.86637,15.06879,10.57,0.09,-0.71,4.0
1758076257.35363,1758076257.25099,0.0,0.0,0.0,6.87549,-20.16812,16.55848,10.57,0.09,-0.71,4.0
1758076257.35535,1758076257.26099,0.0,0.0,0.0,8.47978,-14.66772,17.76169,10.75,0.21,-0.61,4.0
1758076257.37065,1758076257.27099,0.0,0.0,0.0,9.22462,-12.77696,17.58981,10.75,0.21,-0.61,4.0
1758076257.37341,1758076257.28099,0.0,0.0,0.0,10.25595,-11.17268,17.01685,10.29,0.42,-0.84,4.0
1758076257.38867,1758076257.29099,0.0,0.0,0.0,11.22997,-9.33921,16.10011,10.29,0.42,-0.84,4.0
1758076257.39385,1758076257.30099,0.0,0.0,0.0,12.54778,-6.53172,14.49583,10.13,0.57,-0.98,4.0
1758076257.41063,1758076257.31099,0.0,0.0,0.0,13.17803,-2.97938,13.12073,10.17,0.62,-0.88,4.0
1758076257.41269,1758076257.32099,0.0,0.0,0.0,13.5791,2.06265,11.80293,10.17,0.62,-0.88,4.0
1758076257.42795,1758076257.33099,0.0,0.0,0.0,13.98017,5.21392,9.33921,9.96,0.56,-0.71,4.0
1758076257.44387,1758076257.34099,0.0,0.0,0.0,14.43854,4.87014,8.136,9.96,0.56,-0.71,4.0
1758076257.4484,1758076257.35099,0.0,0.0,0.0,15.0115,3.89611,7.16197,8.9,0.52,-0.54,4.0
1758076257.46364,1758076257.36099,0.0,0.0,0.0,15.69904,2.40642,6.87549,8.9,0.52,-0.54,4.0
1758076257.46741,1758076257.37099,0.0,0.0,0.0,16.67307,2.29183,7.04738,8.34,0.46,-0.61,4.0
1758076257.48265,1758076257.38099,0.0,0.0,0.0,17.6471,0.45837,6.70361,8.09,0.33,0.0,4.0
1758076257.48419,1758076257.39099,0.0,0.0,0.0,18.50654,-3.95341,5.09932,8.09,0.33,0.0,4.0
1758076257.49937,1758076257.40099,0.0,0.0,0.0,19.76705,-11.17268,2.29183,8.11,0.04,1.32,4.0
1758076257.50307,1758076257.41099,0.0,0.0,0.0,21.7151,-23.89234,-3.66693,8.11,0.04,1.32,4.0
1758076257.53967,1758076257.42099,0.0,0.0,0.0,23.20479,-31.45539,-8.59437,9.26,-0.27,3.1,4.0
1758076257.54242,1758076257.43099,0.0,0.0,0.0,24.5226,-36.55471,-13.80828,9.26,-0.27,3.1,4.0
1758076257.543,1758076257.44099,0.0,0.0,0.0,25.09555,-38.1017,-18.62113,10.7,-0.63,3.93,4.0
1758076257.54426,1758076257.45099,0.0,0.0,0.0,24.80907,-35.63798,-23.20479,11.44,-1.1,3.37,4.0
1758076257.5598,1758076257.46099,0.0,0.0,0.0,23.49127,-33.34615,-24.5226,11.44,-1.1,3.37,4.0
1758076257.56178,1758076257.47099,0.0,0.0,0.0,22.40265,-31.79916,-24.29341,11.93,-1.66,2.65,4.0
1758076257.57875,1758076257.48099,0.0,0.0,0.0,21.37133,-29.96569,-23.54857,11.93,-1.66,2.65,4.0
1758076257.6167,1758076257.49099,0.0,0.0,0.0,19.76705,-30.65324,-22.63183,13.86,-2.42,2.14,4.0
1758076257.61713,1758076257.50099,0.0,0.0,0.0,18.85031,-29.27814,-21.7151,13.86,-2.42,2.14,4.0
1758076257.61838,1758076257.51099,0.0,0.0,0.0,17.81899,-23.83505,-20.16812,15.78,-2.75,0.32,4.0
1758076257.61988,1758076257.52099,0.0,0.0,0.0,16.90226,-15.24068,-17.18874,15.78,-2.75,0.32,4.0
1758076257.62357,1758076257.53099,0.0,0.0,0.0,16.67307,1.94806,-9.74028,16.48,-1.96,-1.26,4.0
1758076257.63869,1758076257.54099,0.0,0.0,0.0,17.30333,12.60507,-3.55234,14.75,-0.53,-0.98,4.0
1758076257.65478,1758076257.55099,0.0,0.0,0.0,18.16276,21.88699,2.34913,14.75,-0.53,-0.98,4.0
1758076257.65533,1758076257.56099,0.0,0.0,0.0,19.76705,28.41871,9.91217,12.63,0.15,-0.29,4.0
1758076257.67181,1758076257.57099,0.0,0.0,0.0,20.79837,40.50812,11.28727,12.63,0.15,-0.29,4.0
1758076257.67358,1758076257.58099,0.0,0.0,0.0,22.11617,49.04519,11.86023,12.01,0.02,0.36,4.0
1758076257.68902,1758076257.59099,0.0,0.0,0.0,21.02755,59.24384,9.91217,12.01,0.02,0.36,4.0
1758076257.69319,1758076257.60099,0.0,0.0,0.0,18.62113,65.2599,6.53172,12.51,-0.64,0.67,4.0
1758076257.70909,1758076257.61099,0.0,0.0,0.0,17.36062,62.96807,3.66693,11.42,-0.81,0.5,4.0
1758076257.71314,1758076257.62099,0.0,0.0,0.0,16.38659,59.81679,1.14592,11.42,-0.81,0.5,4.0
1758076257.72907,1758076257.63099,0.0,0.0,0.0,15.92823,57.63955,-0.80214,10.65,-0.64,0.27,4.0
1758076257.74561,1758076257.64099,0.0,0.0,0.0,15.64175,54.02992,-1.20321,10.65,-0.64,0.27,4.0
1758076257.74616,1758076257.65099,0.0,0.0,0.0,15.75634,51.10783,-0.0573,9.87,-0.42,0.32,4.0
1758076257.76411,1758076257.66099,0.0,0.0,0.0,15.75634,47.78468,1.77617,9.87,-0.42,0.32,4.0
1758076257.76902,1758076257.67099,0.0,0.0,0.0,15.69904,44.11775,4.1253,9.16,-0.37,0.51,4.0
1758076257.77365,1758076257.68099,0.0,0.0,0.0,14.83961,38.1017,7.62034,8.57,-0.45,0.46,4.0
1758076257.79376,1758076257.69099,0.0,0.0,0.0,13.98017,33.51803,9.5684,8.57,-0.45,0.46,4.0
1758076257.79897,1758076257.70099,0.0,0.0,0.0,12.49048,28.24682,10.8289,8.12,-0.52,0.45,4.0
1758076257.81387,1758076257.71099,0.0,0.0,0.0,10.8289,22.51724,11.22997,8.12,-0.52,0.45,4.0
1758076257.8169,1758076257.72099,0.0,0.0,0.0,7.84952,15.29797,10.54242,7.94,-0.47,0.4,4.0
1758076257.83208,1758076257.73099,0.0,0.0,0.0,6.07335,12.77696,9.11003,7.94,-0.47,0.4,4.0
1758076257.83304,1758076257.74099,0.0,0.0,0.0,4.18259,13.46451,7.04738,8.36,-0.25,0.35,4.0
1758076257.84807,1758076257.75099,0.0,0.0,0.0,2.00535,15.24068,4.35448,8.36,-0.25,0.35,4.0
1758076257.86384,1758076257.76099,0.0,0.0,0.0,-1.14592,14.43854,0.0573,8.67,0.02,0.26,4.0
1758076257.865,1758076257.77099,0.0,0.0,0.0,-3.03668,12.14671,-2.92208,8.13,0.24,0.14,4.0
1758076257.88107,1758076257.78099,0.0,0.0,0.0,-4.52637,9.5684,-5.84417,8.13,0.24,0.14,4.0
1758076257.88205,1758076257.79099,0.0,0.0,0.0,-5.72958,5.27121,-9.85487,7.77,0.21,-0.22,4.0
1758076257.8971,1758076257.80099,0.0,0.0,0.0,-5.78687,2.23454,-12.204,7.77,0.21,-0.22,4.0
1758076257.91288,1758076257.81099,0.0,0.0,0.0,-5.21392,-0.80214,-13.80828,7.51,-0.13,-0.43,4.0
1758076257.91405,1758076257.82099,0.0,0.0,0.0,-4.0107,-5.21392,-15.29797,7.51,-0.13,-0.43,4.0
1758076257.92972,1758076257.83099,0.0,0.0,0.0,-1.3178,-12.54778,-16.55848,7.25,-0.71,-0.42,4.0
1758076257.934,1758076257.84099,0.0,0.0,0.0,1.03132,-17.58981,-17.18874,7.22,-1.31,-0.37,4.0
1758076257.94893,1758076257.85099,0.0,0.0,0.0,3.60963,-22.51724,-17.13144,7.22,-1.31,-0.37,4.0
1758076257.95002,1758076257.86099,0.0,0.0,0.0,5.95876,-26.81443,-16.61578,7.49,-1.7,-0.23,4.0
1758076257.9654,1758076257.87099,0.0,0.0,0.0,9.74028,-30.93972,-15.12609,7.49,-1.7,-0.23,4.0
1758076257.98289,1758076257.88099,0.0,0.0,0.0,12.43318,-31.79916,-13.5791,8.08,-1.72,0.07,4.0
1758076257.984,1758076257.89099,0.0,0.0,0.0,15.12609,-31.74186,-11.86023,8.08,-1.72,0.07,4.0
1758076258.00314,1758076257.90099,0.0,0.0,0.0,17.36062,-30.19488,-10.65701,8.78,-1.46,0.31,4.0
1758076258.00405,1758076257.91099,0.0,0.0,0.0,20.3973,-29.50733,-9.05273,9.24,-1.0,0.23,4.0
1758076258.02276,1758076257.92099,0.0,0.0,0.0,21.48592,-29.22085,-8.65166,9.24,-1.0,0.23,4.0
1758076258.0239,1758076257.93099,0.0,0.0,0.0,21.7151,-29.27814,-8.76626,9.51,-0.54,-0.11,4.0
1758076258.03916,1758076257.94099,0.0,0.0,0.0,21.88699,-29.67921,-9.11003,9.51,-0.54,-0.11,4.0
1758076258.04006,1758076257.95099,0.0,0.0,0.0,20.68378,-28.07493,-9.96947,9.98,-0.15,-0.22,4.0
1758076258.05798,1758076257.96099,0.0,0.0,0.0,19.19409,-26.35606,-10.59972,9.98,-0.15,-0.22,4.0
1758076258.07387,1758076257.97099,0.0,0.0,0.0,17.18874,-24.5226,-11.22997,10.54,-0.03,-0.08,4.0
1758076258.07829,1758076257.98099,0.0,0.0,0.0,13.69369,-22.40265,-12.37589,10.54,-0.03,-0.08,4.0
1758076258.09392,1758076257.99099,0.0,0.0,0.0,11.45916,-18.79302,-13.06344,10.71,0.0,0.09,4.0
1758076258.09665,1758076258.00099,0.0,0.0,0.0,9.33921,-15.75634,-13.46451,10.63,-0.04,0.01,4.0
1758076258.11218,1758076258.01099,0.0,0.0,0.0,7.73493,-12.43318,-13.5218,10.63,-0.04,0.01,4.0
1758076258.11313,1758076258.02099,0.0,0.0,0.0,6.13065,-7.33386,-13.69369,10.46,-0.19,-0.05,4.0
1758076258.12816,1758076258.03099,0.0,0.0,0.0,5.32851,-2.92208,-13.5218,10.46,-0.19,-0.05,4.0
1758076258.14394,1758076258.04099,0.0,0.0,0.0,4.69825,0.74485,-13.17803,10.39,-0.38,-0.01,4.0
1758076258.14593,1758076258.05099,0.0,0.0,0.0,4.18259,2.00535,-12.71966,10.39,-0.38,-0.01,4.0
1758076258.16255,1758076258.06099,0.0,0.0,0.0,3.49504,0.80214,-12.14671,9.99,-0.57,0.17,4.0
1758076258.16453,1758076258.07099,0.0,0.0,0.0,3.32316,-0.22918,-11.91752,9.61,-0.76,-0.02,4.0
1758076258.18261,1758076258.08099,0.0,0.0,0.0,4.0107,-2.40642,-11.00079,9.61,-0.76,-0.02,4.0
1758076258.18354,1758076258.09099,0.0,0.0,0.0,3.89611,-8.93814,-11.57375,8.85,-0.93,-0.22,4.0
1758076258.20197,1758076258.10099,0.0,0.0,0.0,5.78687,-23.60586,-9.28192,8.85,-0.93,-0.22,4.0
1758076258.20374,1758076258.11099,0.0,0.0,0.0,7.67763,-23.0329,-7.39116,8.11,-1.14,-0.35,4.0
1758076258.21911,1758076258.12099,0.0,0.0,0.0,9.28192,-16.73037,-6.41713,8.11,-1.14,-0.35,4.0
1758076258.22284,1758076258.13099,0.0,0.0,0.0,10.19865,-11.91752,-6.13065,9.02,-1.28,-0.57,4.0
1758076258.23796,1758076258.14099,0.0,0.0,0.0,9.11003,-9.22462,-6.24524,8.79,-1.02,0.52,4.0
1758076258.25395,1758076258.15099,0.0,0.0,0.0,7.33386,-8.02141,-5.27121,8.79,-1.02,0.52,4.0
1758076258.256,1758076258.16099,0.0,0.0,0.0,4.52637,-6.87549,-2.92208,10.17,-0.22,1.75,4.0
1758076258.27214,1758076258.17099,0.0,0.0,0.0,1.66158,-7.96411,1.3751,10.17,-0.22,1.75,4.0
1758076258.27294,1758076258.18099,0.0,0.0,0.0,-3.83882,-12.2613,10.08406,12.02,0.87,3.15,4.0
1758076258.29276,1758076258.19099,0.0,0.0,0.0,-6.7609,-13.40721,16.3293,12.02,0.87,3.15,4.0
1758076258.29553,1758076258.20099,0.0,0.0,0.0,-8.136,-13.00614,21.37133,12.57,1.94,3.32,4.0
1758076258.31133,1758076258.21099,0.0,0.0,0.0,-9.22462,-13.69369,24.75178,12.57,1.94,3.32,4.0
1758076258.31382,1758076258.22099,0.0,0.0,0.0,-9.62569,-14.32395,24.35071,11.6,2.23,2.94,4.0
1758076258.32902,1758076258.23099,0.0,0.0,0.0,-9.74028,-16.272,22.74642,11.4,1.79,2.65,4.0
1758076258.33102,1758076258.24099,0.0,0.0,0.0,-9.85487,-13.00614,20.68378,11.4,1.79,2.65,4.0
1758076258.34736,1758076258.25099,0.0,0.0,0.0,-9.33921,0.0,17.99088,13.68,1.21,1.79,4.0
1758076258.36323,1758076258.26099,0.0,0.0,0.0,-8.59437,5.27121,17.30333,13.68,1.21,1.79,4.0
1758076258.36526,1758076258.27099,0.0,0.0,0.0,-6.58902,4.92744,16.84496,14.74,0.88,0.15,4.0
1758076258.37993,1758076258.28099,0.0,0.0,0.0,-4.98473,-0.74485,16.10011,14.74,0.88,0.15,4.0
1758076258.38279,1758076258.29099,0.0,0.0,0.0,-3.38045,6.53172,12.2613,13.44,0.87,-0.82,4.0
1758076258.398,1758076258.30099,0.0,0.0,0.0,-0.74485,34.66395,11.45916,15.06,0.73,-0.99,4.0
1758076258.41403,1758076258.31099,0.0,0.0,0.0,3.38045,52.76942,10.54242,15.06,0.73,-0.99,4.0
1758076258.41842,1758076258.32099,0.0,0.0,0.0,6.99009,56.952,9.62569,12.54,0.25,0.52,4.0
1758076258.43881,1758076258.33099,0.0,0.0,0.0,9.85487,51.16513,8.47978,12.54,0.25,0.52,4.0
1758076258.44033,1758076258.34099,0.0,0.0,0.0,9.62569,49.27437,7.21927,10.7,0.11,0.71,4.0
1758076258.448,1758076258.35099,0.0,0.0,0.0,8.25059,48.75871,5.15662,10.7,0.11,0.71,4.0
1758076258.46424,1758076258.36099,0.0,0.0,0.0,6.13065,47.15443,3.38045,11.22,0.35,0.71,4.0
1758076258.46807,1758076258.37099,0.0,0.0,0.0,2.46372,43.88857,0.57296,11.01,0.67,1.07,4.0
1758076258.48301,1758076258.38099,0.0,0.0,0.0,0.34377,40.96649,-0.85944,11.01,0.67,1.07,4.0
1758076258.48538,1758076258.39099,0.0,0.0,0.0,-1.14592,38.15899,-2.40642,10.18,0.94,0.9,4.0
1758076258.50198,1758076258.40099,0.0,0.0,0.0,-2.23454,35.2369,-4.46907,10.18,0.94,0.9,4.0
1758076258.5032,1758076258.41099,0.0,0.0,0.0,-2.57831,29.8511,-5.4431,9.32,0.94,0.9,4.0
1758076258.51813,1758076258.42099,0.0,0.0,0.0,-2.34913,26.64254,-6.07335,9.32,0.94,0.9,4.0
1758076258.53411,1758076258.43099,0.0,0.0,0.0,-2.40642,24.23611,-6.35983,9.07,0.71,1.01,4.0
1758076258.5361,1758076258.44099,0.0,0.0,0.0,-2.46372,20.74107,-6.7609,9.07,0.71,1.01,4.0
1758076258.55134,1758076258.45099,0.0,0.0,0.0,-2.7502,18.27736,-6.58902,9.22,0.39,1.09,4.0
1758076258.55309,1758076258.46099,0.0,0.0,0.0,-2.97938,15.12609,-6.24524,9.12,0.19,1.0,4.0
1758076258.56811,1758076258.47099,0.0,0.0,0.0,-3.26586,12.77696,-5.72958,9.12,0.19,1.0,4.0
1758076258.58433,1758076258.48099,0.0,0.0,0.0,-3.26586,11.74564,-4.0107,9.13,0.13,0.95,4.0
1758076258.5853,1758076258.49099,0.0,0.0,0.0,-2.63561,11.45916,-2.40642,9.13,0.13,0.95,4.0
1758076258.60009,1758076258.50099,0.0,0.0,0.0,-1.71887,11.57375,-0.57296,9.21,0.11,0.92,4.0
1758076258.6021,1758076258.51099,0.0,0.0,0.0,-0.17189,12.43318,1.48969,9.21,0.11,0.92,4.0
1758076258.61703,1758076258.52099,0.0,0.0,0.0,2.34913,13.40721,4.58366,9.3,0.0,0.93,4.0
1758076258.63335,1758076258.53099,0.0,0.0,0.0,4.46907,13.17803,6.7609,9.19,-0.18,0.82,4.0
1758076258.63428,1758076258.54099,0.0,0.0,0.0,6.13065,12.54778,8.25059,9.19,-0.18,0.82,4.0
1758076258.65247,1758076258.55099,0.0,0.0,0.0,8.0787,10.37054,9.74028,9.04,-0.26,0.65,4.0
1758076258.65605,1758076258.56099,0.0,0.0,0.0,10.54242,5.15662,11.28727,9.04,-0.26,0.65,4.0
1758076258.67192,1758076258.57099,0.0,0.0,0.0,11.74564,1.08862,11.97482,8.86,-0.22,0.38,4.0
1758076258.67317,1758076258.58099,0.0,0.0,0.0,12.49048,-2.86479,12.2613,8.86,-0.22,0.38,4.0
1758076258.68838,1758076258.59099,0.0,0.0,0.0,12.83425,-7.39116,12.43318,8.81,0.0,0.12,4.0
1758076258.70443,1758076258.60099,0.0,0.0,0.0,12.43318,-15.06879,12.08941,8.54,0.29,0.01,4.0
1758076258.70535,1758076258.61099,0.0,0.0,0.0,11.63104,-19.99623,11.34457,8.54,0.29,0.01,4.0
1758076258.72018,1758076258.62099,0.0,0.0,0.0,10.31324,-25.72581,10.48513,8.32,0.5,0.05,4.0
1758076258.72367,1758076258.63099,0.0,0.0,0.0,8.93814,-31.85646,9.39651,8.32,0.5,0.05,4.0
1758076258.73983,1758076258.64099,0.0,0.0,0.0,7.84952,-31.91375,8.59437,8.67,0.46,0.09,4.0
1758076258.74386,1758076258.65099,0.0,0.0,0.0,6.7609,-29.56462,7.79223,8.67,0.46,0.09,4.0
1758076258.76028,1758076258.66099,0.0,0.0,0.0,5.21392,-25.7831,7.62034,9.49,0.3,0.18,4.0
1758076258.7631,1758076258.67099,0.0,0.0,0.0,3.32316,-20.05352,7.84952,9.49,0.3,0.18,4.0
1758076258.77842,1758076258.68099,0.0,0.0,0.0,1.83346,-18.44924,8.0787,9.81,0.11,0.17,4.0
1758076258.78282,1758076258.69099,0.0,0.0,0.0,0.40107,-19.19409,8.0787,9.36,0.02,0.0,4.0
1758076258.79814,1758076258.70099,0.0,0.0,0.0,-0.57296,-24.57989,8.0787,9.36,0.02,0.0,4.0
1758076258.8034,1758076258.71099,0.0,0.0,0.0,-2.46372,-35.52338,6.13065,8.59,0.06,-0.02,4.0
1758076258.82218,1758076258.72099,0.0,0.0,0.0,-3.03668,-37.81522,4.58366,8.59,0.06,-0.02,4.0
1758076258.82384,1758076258.73099,0.0,0.0,0.0,-2.92208,-35.06502,3.32316,9.2,0.22,-0.16,4.0
1758076258.83818,1758076258.74099,0.0,0.0,0.0,-2.40642,-29.67921,2.40642,9.2,0.22,-0.16,4.0
1758076258.85568,1758076258.75099,0.0,0.0,0.0,-0.85944,-21.7151,1.83346,9.86,0.25,-0.05,4.0
1758076258.85689,1758076258.76099,0.0,0.0,0.0,0.45837,-18.85031,1.94806,9.52,0.17,0.09,4.0
1758076258.87238,1758076258.77099,0.0,0.0,0.0,1.71887,-16.67307,2.23454,9.52,0.17,0.09,4.0
1758076258.87685,1758076258.78099,0.0,0.0,0.0,2.86479,-14.83961,2.92208,9.25,0.05,-0.05,4.0
1758076258.89586,1758076258.79099,0.0,0.0,0.0,4.64096,-10.8862,4.92744,9.25,0.05,-0.05,4.0
1758076258.89837,1758076258.80099,0.0,0.0,0.0,5.95876,-7.79223,6.8182,9.49,-0.04,-0.3,4.0
1758076258.91344,1758076258.81099,0.0,0.0,0.0,7.50575,-5.27121,8.76626,9.49,-0.04,-0.3,4.0
1758076258.9168,1758076258.82099,0.0,0.0,0.0,9.22462,-3.03668,11.80293,9.7,-0.15,-0.47,4.0
1758076258.9333,1758076258.83099,0.0,0.0,0.0,11.97482,0.17189,13.34992,9.78,-0.18,-0.66,4.0
1758076258.93654,1758076258.84099,0.0,0.0,0.0,13.80828,3.38045,14.38124,9.78,-0.18,-0.66,4.0
1758076258.95225,1758076258.85099,0.0,0.0,0.0,15.69904,7.10468,13.98017,9.7,-0.12,-0.71,4.0
1758076258.95355,1758076258.86099,0.0,0.0,0.0,17.87628,12.08941,12.49048,9.7,-0.12,-0.71,4.0
1758076258.96821,1758076258.87099,0.0,0.0,0.0,19.25138,14.72501,10.65701,9.54,0.07,-0.52,4.0
1758076258.9766,1758076258.88099,0.0,0.0,0.0,20.3973,15.41257,8.65166,9.54,0.07,-0.52,4.0
1758076258.99244,1758076258.89099,0.0,0.0,0.0,21.88699,15.69904,6.99009,9.21,0.24,-0.39,4.0
1758076258.99668,1758076258.90099,0.0,0.0,0.0,23.54857,15.0115,5.50039,9.21,0.24,-0.51,4.0
1758076259.01252,1758076258.91099,0.0,0.0,0.0,24.75178,13.98017,5.15662,8.98,0.34,-0.51,4.0
1758076259.01347,1758076258.92099,0.0,0.0,0.0,26.01229,10.8862,5.55769,8.6,0.33,-0.5,4.0
1758076259.0285,1758076258.93099,0.0,0.0,0.0,27.1582,6.87549,6.18794,8.6,0.33,-0.5,4.0
1758076259.04591,1758076258.94099,0.0,0.0,0.0,29.10626,1.60428,7.62034,8.13,0.27,-0.45,4.0
1758076259.04887,1758076258.95099,0.0,0.0,0.0,30.02299,-1.20321,8.0787,8.13,0.27,-0.45,4.0
1758076259.06688,1758076258.96099,0.0,0.0,0.0,30.53865,-4.46907,8.42248,7.78,0.33,-0.33,4.0
1758076259.0694,1758076258.97099,0.0,0.0,0.0,30.82513,-7.50575,8.65166,7.78,0.33,-0.33,4.0
1758076259.0845,1758076258.98099,0.0,0.0,0.0,30.65324,-11.91752,7.96411,7.38,0.49,-0.25,4.0
1758076259.08894,1758076258.99099,0.0,0.0,0.0,30.65324,-16.50119,6.53172,7.23,0.62,0.37,4.0
1758076259.10537,1758076259.00099,0.0,0.0,0.0,30.76784,-21.25674,4.23989,7.23,0.62,0.37,4.0
1758076259.13205,1758076259.01099,0.0,0.0,0.0,31.11161,-26.24147,1.3178,8.4,0.38,1.92,4.0
1758076259.13275,1758076259.02099,0.0,0.0,0.0,32.14294,-33.63263,-3.89611,8.4,0.38,1.92,4.0
1758076259.13439,1758076259.03099,0.0,0.0,0.0,34.0337,-39.53409,-8.136,10.38,-0.19,3.44,4.0
1758076259.13584,1758076259.04099,0.0,0.0,0.0,35.92446,-44.17505,-13.34992,10.38,-0.19,3.44,4.0
1758076259.1517,1758076259.05099,0.0,0.0,0.0,37.52874,-46.69606,-20.22541,11.92,-0.89,3.86,4.0
1758076259.15246,1758076259.06099,0.0,0.0,0.0,38.1017,-41.25296,-22.74642,12.67,-1.52,2.62,4.0
1758076259.16752,1758076259.07099,0.0,0.0,0.0,38.50277,-35.3515,-23.89234,12.67,-1.52,2.62,4.0
1758076259.18327,1758076259.08099,0.0,0.0,0.0,39.07573,-30.99702,-24.00693,13.3,-2.11,2.13,4.0
1758076259.18483,1758076259.09099,0.0,0.0,0.0,39.13302,-29.50733,-24.23611,13.3,-2.11,2.13,4.0
1758076259.20226,1758076259.10099,0.0,0.0,0.0,38.38818,-27.1582,-24.75178,14.83,-2.51,1.14,4.0
1758076259.20394,1758076259.11099,0.0,0.0,0.0,37.29956,-20.97026,-24.80907,14.83,-2.51,1.14,4.0
1758076259.21832,1758076259.12099,0.0,0.0,0.0,35.58068,-12.89155,-24.35071,16.95,-2.27,-0.93,4.0
1758076259.22066,1758076259.13099,0.0,0.0,0.0,32.77319,-2.86479,-20.3973,16.76,-2.27,-1.26,4.0
1758076259.23726,1758076259.14099,0.0,0.0,0.0,30.82513,6.35983,-15.58445,16.76,-0.98,-1.26,4.0
1758076259.25331,1758076259.15099,0.0,0.0,0.0,28.87707,19.42327,-9.28192,15.35,0.56,-0.51,4.0
1758076259.25446,1758076259.16099,0.0,0.0,0.0,26.24147,33.00237,-4.52637,15.35,0.56,-0.51,4.0
1758076259.26959,1758076259.17099,0.0,0.0,0.0,22.97561,42.22699,2.11994,12.95,1.0,0.29,4.0
1758076259.27083,1758076259.18099,0.0,0.0,0.0,22.00158,41.88322,4.46907,12.95,1.0,0.29,4.0
1758076259.28755,1758076259.19099,0.0,0.0,0.0,21.94428,39.4768,5.50039,10.71,0.26,1.03,4.0
1758076259.30349,1758076259.20099,0.0,0.0,0.0,22.91831,37.52874,5.84417,10.71,0.26,1.03,4.0
1758076259.30647,1758076259.21099,0.0,0.0,0.0,25.43933,33.34615,5.15662,10.15,-0.92,1.23,4.0
1758076259.32164,1758076259.22099,0.0,0.0,0.0,27.33009,30.48136,4.64096,9.97,-1.48,1.13,4.0
1758076259.32334,1758076259.23099,0.0,0.0,0.0,29.22085,27.61657,4.69825,9.97,-1.48,1.13,4.0
1758076259.33838,1758076259.24099,0.0,0.0,0.0,30.88243,24.92367,5.55769,9.73,-1.26,1.08,4.0
1758076259.34033,1758076259.25099,0.0,0.0,0.0,32.77319,22.28806,7.04738,9.73,-1.26,1.08,4.0
1758076259.3573,1758076259.26099,0.0,0.0,0.0,33.23156,20.85567,8.36518,9.49,-0.79,1.08,4.0
1758076259.37363,1758076259.27099,0.0,0.0,0.0,33.46074,19.53786,9.85487,9.49,-0.79,1.08,4.0
1758076259.37777,1758076259.28099,0.0,0.0,0.0,32.6013,16.67307,11.45916,9.22,-0.56,1.07,4.0
1758076259.44553,1758076259.29099,0.0,0.0,0.0,31.91375,14.15206,12.08941,8.89,-0.54,0.95,4.0
1758076259.44758,1758076259.30099,0.0,0.0,0.0,30.82513,12.08941,12.43318,8.89,-0.54,0.95,4.0
1758076259.44797,1758076259.31099,0.0,0.0,0.0,29.56462,10.02676,11.97482,8.74,-0.48,0.75,4.0
1758076259.45347,1758076259.32099,0.0,0.0,0.0,27.04361,6.7609,10.71431,8.74,-0.48,0.75,4.0
1758076259.45391,1758076259.33099,0.0,0.0,0.0,24.92367,7.21927,9.11003,8.73,-0.21,0.64,4.0
1758076259.45609,1758076259.34099,0.0,0.0,0.0,22.11617,8.99544,7.04738,8.73,-0.21,0.64,4.0
1758076259.45649,1758076259.35099,0.0,0.0,0.0,19.07949,11.11538,4.81285,8.98,0.17,0.51,4.0
1758076259.45783,1758076259.36099,0.0,0.0,0.0,13.5791,14.03747,1.20321,8.91,0.54,0.5,4.0
1758076259.47333,1758076259.37099,0.0,0.0,0.0,9.4538,13.86558,-1.20321,8.91,0.54,0.5,4.0
1758076259.4753,1758076259.38099,0.0,0.0,0.0,5.15662,12.83425,-3.83882,8.64,0.8,0.39,4.0
1758076259.49195,1758076259.39099,0.0,0.0,0.0,1.20321,10.65701,-6.18794,8.64,0.8,0.39,4.0
1758076259.49394,1758076259.40099,0.0,0.0,0.0,-3.72423,7.73493,-9.62569,8.47,0.78,0.22,4.0
1758076259.51091,1758076259.41099,0.0,0.0,0.0,-6.18794,6.35983,-11.11538,8.47,0.78,0.22,4.0
1758076259.5138,1758076259.42099,0.0,0.0,0.0,-7.73493,4.29718,-12.43318,8.42,0.43,0.1,4.0
1758076259.52936,1758076259.43099,0.0,0.0,0.0,-7.96411,0.80214,-12.89155,8.42,0.43,0.1,4.0
1758076259.53056,1758076259.44099,0.0,0.0,0.0,-6.70361,-5.84417,-12.83425,7.98,-0.2,0.09,4.0
1758076259.54744,1758076259.45099,0.0,0.0,0.0,-4.58366,-9.62569,-12.43318,7.93,-0.99,0.05,4.0
1758076259.56366,1758076259.46099,0.0,0.0,0.0,-1.48969,-13.34992,-11.74564,7.93,-0.99,0.05,4.0
1758076259.56462,1758076259.47099,0.0,0.0,0.0,4.1253,-17.53251,-10.25595,8.03,-1.66,0.03,4.0
1758076259.57998,1758076259.48099,0.0,0.0,0.0,8.0787,-22.74642,-9.22462,8.03,-1.66,0.03,4.0
1758076259.58065,1758076259.49099,0.0,0.0,0.0,12.08941,-26.01229,-7.79223,8.2,-1.86,-0.06,4.0
1758076259.59805,1758076259.50099,0.0,0.0,0.0,15.46986,-27.96034,-6.53172,8.2,-1.86,-0.06,4.0
1758076259.61371,1758076259.51099,0.0,0.0,0.0,19.07949,-28.87707,-5.72958,8.46,-1.58,-0.06,4.0
1758076259.61465,1758076259.52099,0.0,0.0,0.0,20.85567,-29.04896,-5.21392,8.7,-1.08,0.02,4.0
1758076259.63233,1758076259.53099,0.0,0.0,0.0,22.34536,-27.73116,-4.64096,8.7,-1.08,0.02,4.0
1758076259.63402,1758076259.54099,0.0,0.0,0.0,23.20479,-26.12688,-4.69825,9.02,-0.65,-0.04,4.0
1758076259.65284,1758076259.55099,0.0,0.0,0.0,23.83505,-24.29341,-4.98473,9.02,-0.65,-0.04,4.0
1758076259.65799,1758076259.56099,0.0,0.0,0.0,23.37668,-22.11617,-5.4431,9.35,-0.3,-0.15,4.0
1758076259.67349,1758076259.57099,0.0,0.0,0.0,22.51724,-19.25138,-6.18794,9.35,-0.3,-0.15,4.0
1758076259.67547,1758076259.58099,0.0,0.0,0.0,21.14215,-16.04282,-7.62034,9.92,-0.1,-0.41,4.0
1758076259.69074,1758076259.59099,0.0,0.0,0.0,18.50654,-11.97482,-9.96947,10.22,0.06,-0.51,4.0
1758076259.69167,1758076259.60099,0.0,0.0,0.0,16.61578,-9.91217,-11.45916,10.22,0.06,-0.51,4.0
1758076259.70808,1758076259.61099,0.0,0.0,0.0,14.61043,-6.99009,-12.43318,10.43,0.14,-0.48,4.0
