timeStamp,timeStampAlign,roll,pitch,yaw,gyro_x,gyro_y,gyro_z,acc_x,acc_y,acc_z,flag_num
1758088648.95264,1758088646.23271,0.0,0.0,0.0,-55.97798,-43.65939,-8.36518,9.08,-0.83,3.28,3.0
1758088648.95366,1758088646.24271,0.0,0.0,0.0,-55.40502,-31.11161,-3.55234,8.82,-0.82,2.84,3.0
1758088648.96933,1758088646.25271,0.0,0.0,0.0,-54.60288,-11.34457,3.49504,8.82,-0.82,2.84,3.0
1758088648.98545,1758088646.26271,0.0,0.0,0.0,-54.3737,1.3178,7.73493,8.64,-0.69,2.16,3.0
1758088648.98621,1758088646.27271,0.0,0.0,0.0,-54.08722,12.89155,11.80293,8.32,-0.46,1.8,3.0
1758088649.00155,1758088646.28271,0.0,0.0,0.0,-54.431,24.12152,15.12609,8.32,-0.46,1.8,3.0
1758088649.00272,1758088646.29271,0.0,0.0,0.0,-55.23313,40.62271,20.34,7.9,-0.23,1.58,3.0
1758088649.02073,1758088646.30271,0.0,0.0,0.0,-56.55093,51.10783,22.68913,7.9,-0.23,1.58,3.0
1758088649.03912,1758088646.31271,0.0,0.0,0.0,-57.75415,60.27517,24.4653,7.68,-0.06,1.54,3.0
1758088649.0396,1758088646.32271,0.0,0.0,0.0,-59.35843,68.69764,24.92367,7.68,-0.06,1.54,3.0
1758088649.05578,1758088646.33271,0.0,0.0,0.0,-61.53567,77.12012,24.29341,7.53,-0.05,1.53,3.0
1758088649.05619,1758088646.34271,0.0,0.0,0.0,-62.85347,79.12547,22.86102,7.2,-0.14,1.52,3.0
1758088649.07183,1758088646.35271,0.0,0.0,0.0,-63.88479,78.839,19.53786,7.2,-0.14,1.52,3.0
1758088649.07382,1758088646.36271,0.0,0.0,0.0,-64.45775,78.20874,15.75634,7.1,-0.37,1.56,3.0
1758088649.08847,1758088646.37271,0.0,0.0,0.0,-64.28587,74.02615,8.59437,7.1,-0.37,1.56,3.0
1758088649.10475,1758088646.38271,0.0,0.0,0.0,-62.96807,68.64035,4.29718,7.01,-0.8,1.83,3.0
1758088649.10573,1758088646.39271,0.0,0.0,0.0,-60.90542,62.68159,0.57296,7.01,-0.8,1.83,3.0
1758088649.12074,1758088646.40271,0.0,0.0,0.0,-58.09792,57.0093,-1.94806,7.03,-1.35,1.93,3.0
1758088649.12284,1758088646.41271,0.0,0.0,0.0,-52.54023,48.64412,-4.35448,7.07,-1.83,2.09,3.0
1758088649.13788,1758088646.42271,0.0,0.0,0.0,-47.89928,40.10705,-4.1253,7.07,-1.83,2.09,3.0
1758088649.15381,1758088646.43271,0.0,0.0,0.0,-42.62806,30.93972,-2.86479,6.78,-2.29,2.28,3.0
1758088649.15476,1758088646.44271,0.0,0.0,0.0,-35.98175,19.70975,0.0573,6.78,-2.29,2.28,3.0
1758088649.1698,1758088646.45271,0.0,0.0,0.0,-29.39274,-14.20935,7.67763,6.13,-2.54,2.66,3.0
1758088649.17485,1758088646.46271,0.0,0.0,0.0,-24.92367,-23.60586,11.45916,6.13,-2.54,2.66,3.0
1758088649.19138,1758088646.47271,0.0,0.0,0.0,-18.90761,-27.73116,17.24603,7.28,-2.55,1.86,3.0
1758088649.19458,1758088646.48271,0.0,0.0,0.0,-13.17803,-27.78845,19.88164,7.28,-2.55,1.86,3.0
1758088649.21063,1758088646.49271,0.0,0.0,0.0,-10.25595,-25.89769,19.07949,7.76,-2.03,1.76,3.0
1758088649.21399,1758088646.50271,0.0,0.0,0.0,-7.96411,-21.31403,17.30333,7.92,-1.57,2.22,3.0
1758088649.23037,1758088646.51271,0.0,0.0,0.0,-6.07335,-14.20935,16.50119,7.92,-1.57,2.22,3.0
1758088649.24112,1758088646.52271,0.0,0.0,0.0,-3.89611,-10.48513,19.13679,8.42,-1.37,2.27,3.0
1758088649.24659,1758088646.53271,0.0,0.0,0.0,-2.63561,-12.60507,22.86102,8.42,-1.37,2.27,3.0
1758088649.2629,1758088646.54271,0.0,0.0,0.0,-1.83346,-13.86558,27.38738,9.63,-1.42,2.6,3.0
1758088649.2638,1758088646.55271,0.0,0.0,0.0,-0.85944,-10.54242,33.05967,9.63,-1.42,2.6,3.0
1758088649.28088,1758088646.56271,0.0,0.0,0.0,0.11459,1.60428,42.68536,12.89,-1.65,2.71,3.0
1758088649.28376,1758088646.57271,0.0,0.0,0.0,1.94806,11.11538,48.35764,15.61,-1.91,2.86,3.0
1758088649.29972,1758088646.58271,0.0,0.0,0.0,3.89611,19.25138,52.36834,15.61,-1.91,2.86,3.0
1758088649.30137,1758088646.59271,0.0,0.0,0.0,5.32851,21.31403,52.54023,16.46,-2.07,2.92,3.0
1758088649.31991,1758088646.60271,0.0,0.0,0.0,4.92744,5.84417,42.74266,16.46,-2.07,2.92,3.0
1758088649.3208,1758088646.6127,0.0,0.0,0.0,5.90147,9.05273,32.25753,15.69,-2.8,3.95,3.0
1758088649.33621,1758088646.6227,0.0,0.0,0.0,10.19865,28.93437,25.72581,15.69,-2.8,3.95,3.0
1758088649.35286,1758088646.6327,0.0,0.0,0.0,5.90147,39.07573,12.60507,18.83,-4.28,7.22,3.0
1758088649.35384,1758088646.6427,0.0,0.0,0.0,-3.72423,10.54242,5.15662,14.36,-3.1,8.07,3.0
1758088649.38686,1758088646.6527,0.0,0.0,0.0,-5.15662,-19.25138,6.7609,14.36,-3.1,8.07,3.0
1758088649.38806,1758088646.6627,0.0,0.0,0.0,-7.39116,-25.21014,7.67763,12.68,-2.25,3.54,3.0
1758088649.38998,1758088646.6727,0.0,0.0,0.0,-8.93814,-10.48513,-1.03132,12.68,-2.25,3.54,3.0
1758088649.39213,1758088646.6827,0.0,0.0,0.0,-5.4431,-13.00614,-5.84417,9.53,-2.07,3.77,3.0
1758088649.40895,1758088646.6927,0.0,0.0,0.0,-1.08862,-28.13223,-11.17268,9.53,-2.07,3.77,3.0
1758088649.42496,1758088646.7027,0.0,0.0,0.0,2.34913,-42.22699,-14.78231,4.67,-1.9,5.18,3.0
1758088649.42585,1758088646.7127,0.0,0.0,0.0,4.58366,-51.22243,-18.90761,4.67,-1.9,5.02,3.0
1758088649.44067,1758088646.7227,0.0,0.0,0.0,4.92744,-55.57691,-19.59516,5.49,-1.68,5.02,3.0
1758088649.44184,1758088646.7327,0.0,0.0,0.0,4.23989,-60.10328,-18.10547,6.65,-1.31,4.56,3.0
1758088649.45725,1758088646.7427,0.0,0.0,0.0,2.6929,-63.54102,-15.29797,6.65,-1.31,4.56,3.0
1758088649.47272,1758088646.7527,0.0,0.0,0.0,0.0573,-61.93674,-9.62569,8.26,-1.23,4.93,3.0
1758088649.47428,1758088646.7627,0.0,0.0,0.0,-0.45837,-58.55629,-5.55769,8.26,-1.23,4.93,3.0
1758088649.48874,1758088646.7727,0.0,0.0,0.0,0.0,-56.60823,-3.09397,8.61,-1.34,3.74,3.0
1758088649.50475,1758088646.7827,0.0,0.0,0.0,2.7502,-54.71747,-0.0573,8.61,-1.34,3.74,3.0
1758088649.50672,1758088646.7927,0.0,0.0,0.0,6.41713,-50.59217,2.57831,8.15,-1.4,3.33,3.0
1758088649.52357,1758088646.8027,0.0,0.0,0.0,8.47978,-45.43555,3.89611,8.48,-1.08,2.96,3.0
1758088649.52531,1758088646.8127,0.0,0.0,0.0,10.54242,-38.56006,3.66693,8.48,-1.08,2.96,3.0
1758088649.54105,1758088646.8227,0.0,0.0,0.0,12.08941,-31.28349,1.60428,8.73,-0.66,2.6,3.0
1758088649.54451,1758088646.8327,0.0,0.0,0.0,13.40721,-18.50654,-3.95341,8.73,-0.66,2.6,3.0
1758088649.5529,1758088646.8427,0.0,0.0,0.0,13.40721,-5.61499,-8.36518,8.94,-0.6,1.83,3.0
1758088649.59076,1758088646.8527,0.0,0.0,0.0,12.37589,6.13065,-13.12073,8.94,-0.6,1.83,3.0
1758088649.60151,1758088646.8627,0.0,0.0,0.0,10.59972,16.55848,-21.25674,9.16,-0.78,1.77,3.0
1758088649.6034,1758088646.8727,0.0,0.0,0.0,11.00079,37.35685,-20.79837,9.33,-0.95,1.72,3.0
1758088649.60628,1758088646.8827,0.0,0.0,0.0,12.14671,39.64868,-22.40265,9.33,-0.95,1.72,3.0
1758088649.61085,1758088646.8927,0.0,0.0,0.0,12.43318,64.11398,-21.31403,9.29,-0.72,1.47,3.0
1758088649.61365,1758088646.9027,0.0,0.0,0.0,8.93814,42.85724,-20.22541,9.29,-0.72,1.47,3.0
1758088649.62913,1758088646.9127,0.0,0.0,0.0,9.11003,43.4875,-25.38203,6.73,-0.95,2.59,3.0
1758088649.63114,1758088646.9227,0.0,0.0,0.0,10.65701,57.92604,-27.38738,6.73,-0.95,2.59,3.0
1758088649.64913,1758088646.9327,0.0,0.0,0.0,12.37589,64.22858,-28.30412,9.29,-0.36,1.46,3.0
1758088649.66479,1758088646.9427,0.0,0.0,0.0,13.46451,58.4417,-27.61657,6.56,-0.36,2.06,3.0
1758088649.66601,1758088646.9527,0.0,0.0,0.0,13.12073,53.51426,-25.8404,6.56,-0.24,2.06,3.0
1758088649.68162,1758088646.9627,0.0,0.0,0.0,11.91752,50.01921,-24.92367,6.32,-0.03,2.21,3.0
1758088649.68518,1758088646.9727,0.0,0.0,0.0,11.51645,45.37826,-23.66316,6.32,-0.03,2.21,3.0
1758088649.70091,1758088646.9827,0.0,0.0,0.0,9.91217,35.2369,-21.94428,6.17,0.29,2.01,3.0
1758088649.70252,1758088646.9927,0.0,0.0,0.0,8.47978,27.84575,-21.37133,6.17,0.29,2.01,3.0
1758088649.71707,1758088647.0027,0.0,0.0,0.0,7.73493,20.22541,-21.02755,6.5,0.45,2.45,3.0
1758088649.73396,1758088647.0127,0.0,0.0,0.0,6.87549,12.54778,-21.14215,6.5,0.45,2.45,3.0
1758088649.73506,1758088647.0227,0.0,0.0,0.0,5.72958,2.40642,-21.7151,6.8,0.51,2.26,3.0
1758088649.74996,1758088647.0327,0.0,0.0,0.0,4.98473,-3.26586,-22.00158,6.91,0.53,2.15,3.0
1758088649.75105,1758088647.0427,0.0,0.0,0.0,4.35448,-8.47978,-21.88699,6.91,0.53,2.15,3.0
1758088649.76884,1758088647.0527,0.0,0.0,0.0,3.55234,-13.46451,-20.85567,6.71,0.54,2.03,3.0
1758088649.78496,1758088647.0627,0.0,0.0,0.0,2.00535,-22.91831,-19.70975,6.71,0.54,2.03,3.0
1758088649.78944,1758088647.0727,0.0,0.0,0.0,0.57296,-27.78845,-17.6471,6.51,0.54,1.76,3.0
1758088649.79314,1758088647.0827,0.0,0.0,0.0,-0.74485,-30.48136,-16.04282,6.51,0.54,1.76,3.0
1758088649.80987,1758088647.0927,0.0,0.0,0.0,-3.66693,-27.61657,-14.38124,7.4,0.48,1.69,3.0
1758088649.81428,1758088647.1027,0.0,0.0,0.0,-5.55769,-19.82434,-13.69369,9.46,0.36,1.63,3.0
1758088649.83449,1758088647.1127,0.0,0.0,0.0,-7.50575,-9.33921,-14.03747,9.46,0.36,1.63,3.0
1758088649.88941,1758088647.1227,0.0,0.0,0.0,-8.93814,-0.97403,-15.29797,11.58,0.19,2.16,3.0
1758088649.89002,1758088647.1327,0.0,0.0,0.0,-10.59972,6.13065,-18.9649,11.58,0.19,2.16,3.0
1758088649.8944,1758088647.1427,0.0,0.0,0.0,-10.8862,6.47442,-20.45459,13.58,0.0,2.49,3.0
1758088649.89614,1758088647.1527,0.0,0.0,0.0,-13.00614,17.01685,-24.80907,13.58,0.0,2.49,3.0
1758088649.89787,1758088647.1627,0.0,0.0,0.0,-12.83425,25.89769,-27.04361,16.58,-0.21,2.54,3.0
1758088649.90039,1758088647.1727,0.0,0.0,0.0,-12.54778,46.75336,-32.14294,18.44,-0.37,2.41,3.0
1758088649.9008,1758088647.1827,0.0,0.0,0.0,-11.22997,47.78468,-30.53865,18.44,-0.37,2.41,3.0
1758088649.90462,1758088647.1927,0.0,0.0,0.0,-11.97482,25.15285,-30.30947,16.51,0.15,4.32,3.0
1758088649.92072,1758088647.2027,0.0,0.0,0.0,-13.34992,-16.61578,-28.13223,16.51,0.15,4.32,3.0
1758088649.92344,1758088647.2127,0.0,0.0,0.0,-13.40721,-71.16136,-24.63719,14.4,0.96,7.57,3.0
1758088649.93993,1758088647.2227,0.0,0.0,0.0,-8.93814,-35.06502,-27.38738,14.4,0.96,7.57,3.0
1758088649.94115,1758088647.2327,0.0,0.0,0.0,-0.22918,17.81899,-21.94428,20.59,-0.31,5.72,3.0
1758088649.95993,1758088647.2427,0.0,0.0,0.0,4.98473,48.70141,-17.53251,20.59,-0.31,5.72,3.0
1758088649.96194,1758088647.2527,0.0,0.0,0.0,5.95876,12.37589,-10.94349,14.59,-1.0,4.67,3.0
1758088649.9802,1758088647.2627,0.0,0.0,0.0,3.26586,-5.50039,-5.84417,7.04,0.18,4.78,3.0
1758088649.98114,1758088647.2727,0.0,0.0,0.0,-1.66158,-6.99009,-0.22918,7.04,0.18,4.78,3.0
1758088649.99872,1758088647.2827,0.0,0.0,0.0,-12.14671,-13.46451,6.07335,7.03,1.14,4.79,3.0
1758088650.01522,1758088647.2927,0.0,0.0,0.0,-18.56383,-26.35606,8.76626,7.03,1.14,4.79,3.0
1758088650.01615,1758088647.3027,0.0,0.0,0.0,-22.57454,-34.77854,10.71431,5.2,1.54,6.17,3.0
1758088650.03218,1758088647.3127,0.0,0.0,0.0,-23.72045,-40.62271,12.08941,5.2,1.54,6.17,3.0
1758088650.03318,1758088647.3227,0.0,0.0,0.0,-22.74642,-53.62885,12.08941,6.04,0.82,5.29,3.0
1758088650.04799,1758088647.3327,0.0,0.0,0.0,-21.48592,-60.73353,11.28727,6.24,-0.28,4.24,3.0
1758088650.06425,1758088647.3427,0.0,0.0,0.0,-20.74107,-62.79618,9.62569,6.24,-0.28,4.24,3.0
1758088650.06519,1758088647.3527,0.0,0.0,0.0,-21.37133,-60.61894,7.39116,7.38,-0.79,3.04,3.0
1758088650.08027,1758088647.3627,0.0,0.0,0.0,-24.12152,-52.65482,2.57831,7.38,-0.79,3.04,3.0
1758088650.08122,1758088647.3727,0.0,0.0,0.0,-26.47065,-47.26902,-1.66158,7.9,-0.49,2.66,3.0
1758088650.0974,1758088647.3827,0.0,0.0,0.0,-28.93437,-43.54479,-5.95876,7.9,-0.49,2.66,3.0
1758088650.11312,1758088647.3927,0.0,0.0,0.0,-30.99702,-39.3622,-8.99544,7.72,-0.15,2.83,3.0
1758088650.11421,1758088647.4027,0.0,0.0,0.0,-34.0337,-29.62192,-10.31324,8.19,-0.22,2.64,3.0
1758088650.12897,1758088647.4127,0.0,0.0,0.0,-34.95043,-20.97026,-8.93814,8.19,-0.22,2.64,3.0
1758088650.13097,1758088647.4227,0.0,0.0,0.0,-35.3515,-10.94349,-6.41713,8.6,-0.5,2.29,3.0
1758088650.19527,1758088647.4327,0.0,0.0,0.0,-35.00772,-1.77617,-3.09397,8.6,-0.5,2.29,3.0
1758088650.21398,1758088647.4427,0.0,0.0,0.0,-34.66395,9.33921,3.03668,8.5,-0.58,2.16,3.0
1758088650.22181,1758088647.4527,0.0,0.0,0.0,-34.89313,15.35527,7.39116,8.5,-0.58,2.16,3.0
1758088650.22464,1758088647.4627,0.0,0.0,0.0,-35.12231,21.31403,11.17268,8.51,-0.35,2.18,3.0
1758088650.22508,1758088647.4727,0.0,0.0,0.0,-36.03905,25.72581,15.87093,8.51,-0.35,2.18,3.0
1758088650.22626,1758088647.4827,0.0,0.0,0.0,-37.64333,30.65324,17.18874,8.55,0.0,2.17,3.0
1758088650.23114,1758088647.4927,0.0,0.0,0.0,-39.3622,33.63263,17.87628,8.45,0.13,2.23,3.0
1758088650.23337,1758088647.5027,0.0,0.0,0.0,-41.31026,35.75257,18.33465,8.45,0.13,2.23,3.0
1758088650.23432,1758088647.5127,0.0,0.0,0.0,-44.51882,39.3622,17.36062,8.22,0.02,2.2,3.0
1758088650.23509,1758088647.5227,0.0,0.0,0.0,-46.06581,41.02378,16.272,8.22,0.02,2.2,3.0
1758088650.25119,1758088647.5327,0.0,0.0,0.0,-47.26902,40.45082,15.12609,7.92,-0.13,2.29,3.0
1758088650.25386,1758088647.5427,0.0,0.0,0.0,-48.24305,39.3622,13.75099,7.92,-0.13,2.29,3.0
1758088650.26929,1758088647.5527,0.0,0.0,0.0,-48.52953,37.29956,11.45916,7.67,-0.42,2.22,3.0
1758088650.28534,1758088647.5627,0.0,0.0,0.0,-48.30034,35.75257,9.74028,7.72,-0.79,2.06,3.0
1758088650.28739,1758088647.5727,0.0,0.0,0.0,-47.32632,32.25753,8.47978,7.72,-0.79,2.06,3.0
1758088650.30246,1758088647.5827,0.0,0.0,0.0,-45.72203,28.59059,6.58902,7.65,-1.26,1.96,3.0
1758088650.30355,1758088647.5927,0.0,0.0,0.0,-42.05511,21.88699,3.89611,7.65,-1.26,1.96,3.0
1758088650.31912,1758088647.6027,0.0,0.0,0.0,-39.87786,16.95955,1.77617,7.64,-1.64,1.99,3.0
1758088650.3351,1758088647.6127,0.0,0.0,0.0,-36.89849,11.91752,0.22918,7.64,-1.64,1.99,3.0
1758088650.33636,1758088647.6227,0.0,0.0,0.0,-34.0337,7.67763,-0.68755,7.71,-1.79,2.02,3.0
1758088650.35115,1758088647.6327,0.0,0.0,0.0,-29.96569,2.7502,0.0573,8.08,-1.97,2.3,3.0
1758088650.35318,1758088647.6427,0.0,0.0,0.0,-27.1582,-1.03132,1.71887,8.08,-1.97,2.3,3.0
1758088650.36812,1758088647.6527,0.0,0.0,0.0,-24.63719,-5.32851,4.0107,8.05,-2.03,2.2,3.0
1758088650.3842,1758088647.6627,0.0,0.0,0.0,-22.40265,-9.4538,5.95876,8.05,-2.03,2.2,3.0
1758088650.38536,1758088647.6727,0.0,0.0,0.0,-19.36597,-15.46986,8.0787,8.1,-1.92,2.03,3.0
1758088650.4004,1758088647.6827,0.0,0.0,0.0,-17.76169,-20.51189,8.30789,8.1,-1.92,2.03,3.0
1758088650.4013,1758088647.6927,0.0,0.0,0.0,-16.272,-26.41335,7.44845,7.92,-1.68,1.87,3.0
1758088650.41716,1758088647.7027,0.0,0.0,0.0,-14.83961,-26.01229,5.21392,7.92,-1.68,1.87,3.0
1758088650.43343,1758088647.7127,0.0,0.0,0.0,-13.86558,-18.50654,4.35448,8.43,-1.41,1.83,3.0
1758088650.4348,1758088647.7227,0.0,0.0,0.0,-12.2613,-9.4538,4.87014,9.46,-1.41,1.9,3.0
1758088650.44942,1758088647.7327,0.0,0.0,0.0,-10.54242,-5.95876,6.70361,9.46,-1.41,1.9,3.0
1758088650.46543,1758088647.7427,0.0,0.0,0.0,-8.70896,-8.36518,11.22997,9.27,-1.73,2.06,3.0
1758088650.46804,1758088647.7527,0.0,0.0,0.0,-6.87549,-9.33921,15.69904,9.27,-1.73,2.06,3.0
1758088650.48344,1758088647.7627,0.0,0.0,0.0,-4.92744,-7.73493,21.42862,10.59,-2.07,2.04,3.0
1758088650.48598,1758088647.7727,0.0,0.0,0.0,-3.03668,-4.18259,27.78845,10.59,-2.07,2.04,3.0
1758088650.52514,1758088647.7827,0.0,0.0,0.0,0.51566,4.29718,37.18496,12.87,-2.47,2.19,3.0
1758088650.52822,1758088647.7927,0.0,0.0,0.0,3.49504,12.71966,42.28429,15.04,-2.8,2.62,3.0
1758088650.52868,1758088647.8027,0.0,0.0,0.0,6.13065,17.87628,45.72203,15.04,-2.8,2.62,3.0
1758088650.5306,1758088647.8127,0.0,0.0,0.0,7.04738,18.33465,44.86259,15.79,-2.74,2.77,3.0
1758088650.5312,1758088647.8227,0.0,0.0,0.0,6.7609,16.55848,36.95578,15.79,-2.74,2.77,3.0
1758088650.54985,1758088647.8327,0.0,0.0,0.0,8.65166,26.87172,30.93972,16.12,-2.82,3.79,3.0
1758088650.56525,1758088647.8427,0.0,0.0,0.0,11.86023,47.15443,26.87172,16.12,-2.82,3.79,3.0
1758088650.57037,1758088647.8527,0.0,0.0,0.0,8.42248,42.28429,24.4653,17.9,-3.28,6.76,3.0
1758088650.58542,1758088647.8627,0.0,0.0,0.0,-1.77617,5.4431,19.76705,13.44,-1.72,6.94,3.0
1758088650.58724,1758088647.8727,0.0,0.0,0.0,-7.79223,-17.87628,21.94428,13.44,-1.72,6.94,3.0
1758088650.60219,1758088647.8827,0.0,0.0,0.0,-11.34457,-12.43318,21.7724,13.23,-1.78,2.44,3.0
1758088650.60501,1758088647.8927,0.0,0.0,0.0,-15.06879,2.23454,10.71431,13.23,-1.78,2.44,3.0
1758088650.62028,1758088647.9027,0.0,0.0,0.0,-12.37589,2.86479,3.83882,9.71,-1.81,2.99,3.0
1758088650.62226,1758088647.9127,0.0,0.0,0.0,-8.59437,-6.41713,-1.94806,9.71,-1.81,2.99,3.0
1758088650.63951,1758088647.9227,0.0,0.0,0.0,-4.29718,-14.49583,-6.7609,6.14,-1.83,4.16,3.0
1758088650.65559,1758088647.9327,0.0,0.0,0.0,-0.40107,-23.54857,-12.37589,6.14,-1.83,4.16,3.0
1758088650.6576,1758088647.9427,0.0,0.0,0.0,0.80214,-30.99702,-14.38124,5.98,-1.45,3.88,3.0
1758088650.67351,1758088647.9527,0.0,0.0,0.0,0.51566,-38.1017,-14.83961,5.93,-0.77,4.03,3.0
1758088650.67449,1758088647.9627,0.0,0.0,0.0,-0.45837,-44.40423,-12.71966,5.93,-0.77,4.03,3.0
1758088650.68928,1758088647.9727,0.0,0.0,0.0,-3.49504,-50.64947,-8.88085,6.89,-0.48,4.73,3.0
1758088650.70568,1758088647.9827,0.0,0.0,0.0,-4.58366,-53.34238,-5.50039,6.89,-0.48,4.73,3.0
1758088650.71052,1758088647.9927,0.0,0.0,0.0,-4.1253,-53.51426,-2.46372,7.59,-0.66,3.86,3.0
1758088650.7253,1758088648.0027,0.0,0.0,0.0,-1.3751,-53.80074,0.57296,7.59,-0.66,3.86,3.0
1758088650.72647,1758088648.0127,0.0,0.0,0.0,4.58366,-51.39432,3.72423,7.97,-1.13,3.49,3.0
1758088650.74151,1758088648.0227,0.0,0.0,0.0,9.22462,-47.78468,4.58366,8.34,-1.46,3.01,3.0
1758088650.74249,1758088648.0327,0.0,0.0,0.0,14.15206,-42.91454,4.46907,8.34,-1.46,3.01,3.0
1758088650.75724,1758088648.0427,0.0,0.0,0.0,18.90761,-36.89849,3.32316,8.79,-1.41,2.73,3.0
1758088650.77453,1758088648.0527,0.0,0.0,0.0,24.98096,-25.8404,-0.22918,8.79,-1.41,2.73,3.0
1758088650.77552,1758088648.0627,0.0,0.0,0.0,28.01764,-16.55848,-3.38045,9.24,-1.37,2.35,3.0
1758088650.79058,1758088648.0727,0.0,0.0,0.0,29.9084,-5.84417,-6.7609,9.24,-1.37,2.35,3.0
1758088650.79341,1758088648.0827,0.0,0.0,0.0,30.88243,5.55769,-11.22997,9.65,-1.37,2.05,3.0
1758088650.80933,1758088648.0927,0.0,0.0,0.0,31.91375,21.25674,-13.5791,9.78,-1.29,1.91,3.0
1758088650.82559,1758088648.1027,0.0,0.0,0.0,32.37212,31.56997,-15.69904,9.78,-1.29,1.91,3.0
1758088650.82648,1758088648.1127,0.0,0.0,0.0,32.77319,40.7946,-16.95955,10.02,-1.18,1.93,3.0
1758088650.84137,1758088648.1227,0.0,0.0,0.0,33.23156,52.08187,-18.10547,10.02,-1.18,1.93,3.0
1758088650.84248,1758088648.1327,0.0,0.0,0.0,33.46074,57.46767,-18.10547,9.69,-1.04,2.05,3.0
1758088650.85732,1758088648.1427,0.0,0.0,0.0,33.40344,60.38975,-17.81899,9.69,-1.04,2.05,3.0
1758088650.87338,1758088648.1527,0.0,0.0,0.0,33.74722,63.02536,-17.18874,8.98,-0.77,2.3,3.0
1758088650.8746,1758088648.1627,0.0,0.0,0.0,33.9764,65.2026,-17.01685,8.98,-0.77,2.35,3.0
1758088650.88938,1758088648.1727,0.0,0.0,0.0,33.80451,63.48372,-17.13144,8.3,-0.45,2.35,3.0
1758088650.90569,1758088648.1827,0.0,0.0,0.0,33.17426,60.38975,-17.47521,7.41,-0.2,2.44,3.0
1758088650.90689,1758088648.1927,0.0,0.0,0.0,31.79916,57.41038,-18.10547,7.41,-0.2,2.44,3.0
1758088650.92216,1758088648.2027,0.0,0.0,0.0,29.04896,52.76942,-19.19409,7.12,0.0,2.32,3.0
1758088650.92346,1758088648.2127,0.0,0.0,0.0,27.04361,49.21708,-19.76705,7.12,0.0,2.32,3.0
1758088650.93917,1758088648.2227,0.0,0.0,0.0,24.80907,43.65939,-20.85567,6.98,0.2,2.31,3.0
1758088650.95542,1758088648.2327,0.0,0.0,0.0,22.28806,36.49741,-22.00158,6.98,0.2,2.31,3.0
1758088650.96054,1758088648.2427,0.0,0.0,0.0,18.10547,25.21014,-23.83505,6.85,0.43,2.42,3.0
1758088650.97539,1758088648.2527,0.0,0.0,0.0,15.75634,18.73572,-25.26744,6.99,0.65,2.36,3.0
1758088650.97661,1758088648.2627,0.0,0.0,0.0,13.69369,13.40721,-26.52795,6.99,0.65,2.36,3.0
1758088650.99394,1758088648.2727,0.0,0.0,0.0,11.91752,8.25059,-27.67386,7.07,0.64,2.43,3.0
1758088650.9958,1758088648.2827,0.0,0.0,0.0,9.96947,-1.83346,-27.61657,7.07,0.64,2.43,3.0
1758088651.01303,1758088648.2927,0.0,0.0,0.0,9.05273,-8.88085,-26.24147,6.75,0.46,2.33,3.0
1758088651.0158,1758088648.3027,0.0,0.0,0.0,8.59437,-14.38124,-24.23611,6.75,0.46,2.33,3.0
1758088651.03304,1758088648.3127,0.0,0.0,0.0,7.73493,-20.85567,-20.3973,6.95,0.19,2.26,3.0
1758088651.03505,1758088648.3227,0.0,0.0,0.0,7.39116,-24.35071,-17.36062,7.54,0.05,2.18,3.0
1758088651.05048,1758088648.3327,0.0,0.0,0.0,7.04738,-26.12688,-14.72501,7.54,0.05,2.18,3.0
1758088651.05483,1758088648.3427,0.0,0.0,0.0,6.53172,-24.00693,-12.204,8.62,0.11,2.18,3.0
1758088651.07071,1758088648.3527,0.0,0.0,0.0,5.84417,-14.66772,-10.02676,8.62,0.11,2.18,3.0
1758088651.07487,1758088648.3627,0.0,0.0,0.0,5.15662,-10.19865,-11.91752,10.11,0.14,2.37,3.0
1758088651.09078,1758088648.3727,0.0,0.0,0.0,4.29718,-8.88085,-15.12609,10.11,0.14,2.37,3.0
1758088651.09404,1758088648.3827,0.0,0.0,0.0,4.64096,-10.94349,-18.9649,11.09,0.19,2.51,3.0
1758088651.11026,1758088648.3927,0.0,0.0,0.0,1.43239,-4.46907,-25.72581,13.07,0.13,2.46,3.0
1758088651.11334,1758088648.4027,0.0,0.0,0.0,0.45837,0.74485,-28.99167,13.07,0.13,2.46,3.0
1758088651.1293,1758088648.4127,0.0,0.0,0.0,-1.08862,10.25595,-32.88778,14.96,0.12,2.57,3.0
1758088651.14574,1758088648.4227,0.0,0.0,0.0,-2.97938,19.25138,-36.38282,14.96,0.12,2.57,3.0
1758088651.15575,1758088648.4327,0.0,0.0,0.0,-3.66693,19.13679,-35.52338,15.72,0.39,3.05,3.0
1758088651.15616,1758088648.4427,0.0,0.0,0.0,-5.27121,-13.5218,-33.68992,15.72,0.39,3.05,3.0
1758088651.1944,1758088648.4527,0.0,0.0,0.0,-7.33386,-45.37826,-30.93972,12.93,0.99,5.63,3.0
1758088651.19614,1758088648.4627,0.0,0.0,0.0,-6.24524,-68.06739,-28.76248,12.93,0.99,5.63,3.0
1758088651.20002,1758088648.4727,0.0,0.0,0.0,-2.23454,-19.82434,-26.52795,15.44,0.95,5.91,3.0
1758088651.20479,1758088648.4827,0.0,0.0,0.0,0.80214,10.31324,-21.6578,18.83,-0.19,5.02,3.0
1758088651.20517,1758088648.4927,0.0,0.0,0.0,1.3751,16.90226,-18.85031,18.83,-0.19,5.02,3.0
1758088651.22081,1758088648.5027,0.0,0.0,0.0,-2.34913,8.47978,-10.31324,12.34,0.65,4.85,3.0
1758088651.22184,1758088648.5127,0.0,0.0,0.0,-6.41713,0.51566,-4.1253,12.34,0.65,4.85,3.0
1758088651.23993,1758088648.5227,0.0,0.0,0.0,-11.28727,-0.0573,2.00535,10.38,1.54,4.0,3.0
1758088651.25557,1758088648.5327,0.0,0.0,0.0,-16.73037,-1.3751,7.50575,10.38,1.54,4.0,3.0
1758088651.25759,1758088648.5427,0.0,0.0,0.0,-23.20479,-5.72958,12.54778,8.55,1.87,4.64,3.0
1758088651.27283,1758088648.5527,0.0,0.0,0.0,-25.26744,-9.5684,14.38124,6.94,1.61,5.01,3.0
1758088651.28099,1758088648.5627,0.0,0.0,0.0,-26.01229,-17.93358,14.72501,6.94,1.61,5.01,3.0
1758088651.28159,1758088648.5727,0.0,0.0,0.0,-25.26744,-30.53865,14.49583,5.49,0.58,4.87,3.0
1758088651.29963,1758088648.5827,0.0,0.0,0.0,-23.31938,-47.61279,12.89155,5.49,0.58,4.87,3.0
1758088651.31584,1758088648.5927,0.0,0.0,0.0,-22.34536,-55.97798,11.34457,5.63,-0.39,4.28,3.0
1758088651.31926,1758088648.6027,0.0,0.0,0.0,-21.7151,-61.07731,9.33921,5.63,-0.39,4.28,3.0
1758088651.33579,1758088648.6127,0.0,0.0,0.0,-21.94428,-62.56699,6.87549,6.76,-0.77,3.7,3.0
1758088651.3395,1758088648.6227,0.0,0.0,0.0,-23.60586,-59.07195,2.06265,7.89,-0.51,3.18,3.0
1758088651.35455,1758088648.6327,0.0,0.0,0.0,-23.72045,-56.26446,0.22918,7.89,-0.51,3.18,3.0
1758088651.35575,1758088648.6427,0.0,0.0,0.0,-26.47065,-58.09792,-3.03668,7.65,-0.15,3.03,3.0
1758088651.37161,1758088648.6527,0.0,0.0,0.0,-28.36141,-55.6915,-4.69825,7.65,-0.15,3.03,3.0
1758088651.37435,1758088648.6627,0.0,0.0,0.0,-30.48136,-47.38361,-4.35448,8.1,-0.14,2.81,3.0
1758088651.3906,1758088648.6727,0.0,0.0,0.0,-30.82513,-40.16434,-2.63561,8.1,-0.14,2.81,3.0
1758088651.39403,1758088648.6827,0.0,0.0,0.0,-30.13758,-32.14294,0.11459,8.34,-0.51,2.44,3.0
1758088651.41094,1758088648.6927,0.0,0.0,0.0,-28.476,-23.0902,3.60963,8.34,-0.51,2.44,3.0
1758088651.41336,1758088648.7027,0.0,0.0,0.0,-25.43933,-9.85487,8.99544,8.6,-0.86,2.25,3.0
1758088651.43069,1758088648.7127,0.0,0.0,0.0,-23.26209,-1.71887,12.14671,9.01,-1.07,2.13,3.0
1758088651.4351,1758088648.7227,0.0,0.0,0.0,-21.14215,5.84417,14.43854,9.01,-1.07,2.13,3.0
1758088651.45399,1758088648.7327,0.0,0.0,0.0,-18.27736,18.73572,17.30333,9.55,-1.02,2.02,3.0
1758088651.47576,1758088648.7427,0.0,0.0,0.0,-16.90226,25.21014,17.93358,9.55,-1.02,2.02,3.0
1758088651.47905,1758088648.7527,0.0,0.0,0.0,-16.50119,31.2262,17.99088,9.69,-0.73,2.03,3.0
1758088651.48185,1758088648.7627,0.0,0.0,0.0,-16.84496,35.98175,17.30333,9.69,-0.73,2.03,3.0
1758088651.48221,1758088648.7727,0.0,0.0,0.0,-17.47521,43.94586,16.21471,9.55,-0.54,2.12,3.0
1758088651.49769,1758088648.7827,0.0,0.0,0.0,-18.33465,49.15978,15.87093,9.48,-0.5,2.2,3.0
1758088651.5149,1758088648.7927,0.0,0.0,0.0,-18.90761,53.05589,15.35527,9.48,-0.5,2.2,3.0
1758088651.51609,1758088648.8027,0.0,0.0,0.0,-19.53786,53.68615,15.0115,8.9,-0.52,2.26,3.0
1758088651.53091,1758088648.8127,0.0,0.0,0.0,-20.85567,54.14451,13.5791,8.9,-0.52,2.26,3.0
1758088651.53269,1758088648.8227,0.0,0.0,0.0,-21.88699,53.68615,12.2613,8.54,-0.56,2.27,3.0
1758088651.54866,1758088648.8327,0.0,0.0,0.0,-22.57454,53.34238,11.00079,8.54,-0.56,2.27,3.0
1758088651.56467,1758088648.8427,0.0,0.0,0.0,-22.40265,51.90998,10.37054,8.29,-0.68,2.14,3.0
1758088651.5659,1758088648.8527,0.0,0.0,0.0,-21.94428,48.9306,8.99544,8.06,-0.81,2.2,3.0
1758088651.58066,1758088648.8627,0.0,0.0,0.0,-21.37133,44.8053,8.36518,8.06,-0.81,2.2,3.0
1758088651.58188,1758088648.8727,0.0,0.0,0.0,-20.79837,39.4195,7.79223,7.58,-0.84,2.18,3.0
1758088651.5993,1758088648.8827,0.0,0.0,0.0,-19.70975,33.86181,7.96411,7.58,-0.84,2.18,3.0
1758088651.61471,1758088648.8927,0.0,0.0,0.0,-17.99088,24.92367,9.39651,7.41,-1.12,2.18,3.0
1758088651.6159,1758088648.9027,0.0,0.0,0.0,-16.95955,18.62113,11.00079,7.41,-1.12,2.18,3.0
1758088651.63074,1758088648.9127,0.0,0.0,0.0,-15.87093,12.14671,13.12073,7.22,-1.37,2.22,3.0
1758088651.63379,1758088648.9227,0.0,0.0,0.0,-14.66772,2.34913,15.69904,7.22,-1.37,2.22,3.0
1758088651.65,1758088648.9327,0.0,0.0,0.0,-13.17803,-20.05352,17.87628,6.64,-1.47,2.18,3.0
1758088651.666,1758088648.9427,0.0,0.0,0.0,-12.2613,-29.62192,17.93358,6.64,-1.4,1.81,3.0
1758088651.67122,1758088648.9527,0.0,0.0,0.0,-11.45916,-35.92446,17.36062,6.64,-1.4,1.81,3.0
1758088651.68596,1758088648.9627,0.0,0.0,0.0,-11.00079,-41.08107,13.75099,7.39,-1.16,1.68,3.0
1758088651.68774,1758088648.9727,0.0,0.0,0.0,-10.8862,-38.90384,10.48513,7.39,-1.16,1.68,3.0
1758088651.70302,1758088648.9827,0.0,0.0,0.0,-10.25595,-29.8511,7.62034,8.33,-0.96,1.9,3.0
1758088651.70511,1758088648.9927,0.0,0.0,0.0,-9.05273,-18.16276,6.24524,8.33,-0.96,1.9,3.0
1758088651.7201,1758088649.0027,0.0,0.0,0.0,-6.7609,-10.02676,9.28192,9.48,-1.18,2.1,3.0
1758088651.73586,1758088649.0127,0.0,0.0,0.0,-4.81285,-10.48513,13.5218,9.59,-1.67,2.14,3.0
1758088651.73778,1758088649.0227,0.0,0.0,0.0,-3.20856,-9.39651,18.44924,9.59,-1.67,2.14,3.0
1758088651.75308,1758088649.0327,0.0,0.0,0.0,-0.97403,-6.07335,24.80907,11.45,-1.99,2.12,3.0
1758088651.75396,1758088649.0427,0.0,0.0,0.0,2.57831,1.48969,34.26288,11.45,-1.99,2.12,3.0
1758088651.76982,1758088649.0527,0.0,0.0,0.0,5.90147,7.21927,39.4195,13.39,-2.29,2.31,3.0
1758088651.77509,1758088649.0627,0.0,0.0,0.0,8.93814,12.54778,42.91454,13.39,-2.29,2.31,3.0
1758088651.7948,1758088649.0727,0.0,0.0,0.0,11.51645,12.08941,44.00316,14.68,-2.48,2.6,3.0
1758088651.79992,1758088649.0827,0.0,0.0,0.0,12.43318,6.35983,38.84654,14.71,-2.34,2.7,3.0
1758088651.81511,1758088649.0927,0.0,0.0,0.0,13.00614,9.4538,32.25753,14.71,-2.34,2.7,3.0
1758088651.81601,1758088649.1027,0.0,0.0,0.0,14.72501,24.23611,26.98631,16.3,-2.69,4.13,3.0
1758088651.83113,1758088649.1127,0.0,0.0,0.0,14.72501,42.22699,19.25138,16.3,-2.69,4.13,3.0
1758088651.83445,1758088649.1227,0.0,0.0,0.0,11.00079,45.09178,20.45459,16.93,-2.57,6.74,3.0
1758088651.84994,1758088649.1327,0.0,0.0,0.0,0.0,22.97561,14.20935,16.93,-2.57,6.74,3.0
1758088651.86604,1758088649.1427,0.0,0.0,0.0,-4.29718,-0.40107,15.06879,13.61,-1.23,6.58,3.0
1758088651.86783,1758088649.1527,0.0,0.0,0.0,-10.25595,-2.11994,12.83425,13.61,-1.23,6.58,3.0
1758088651.88283,1758088649.1627,0.0,0.0,0.0,-13.06344,5.90147,6.24524,14.11,-1.41,3.12,3.0
1758088651.88409,1758088649.1727,0.0,0.0,0.0,-11.97482,5.4431,-0.17189,10.47,-2.03,3.95,3.0
1758088651.89993,1758088649.1827,0.0,0.0,0.0,-8.99544,-3.32316,-5.50039,10.47,-2.03,3.95,3.0
1758088651.91609,1758088649.1927,0.0,0.0,0.0,-4.46907,-18.50654,-12.77696,6.89,-2.42,4.42,3.0
1758088651.91949,1758088649.2027,0.0,0.0,0.0,-2.00535,-26.98631,-15.98552,6.89,-2.42,4.42,3.0
1758088651.93507,1758088649.2127,0.0,0.0,0.0,-0.22918,-36.32552,-18.10547,5.95,-2.01,4.35,3.0
1758088651.93646,1758088649.2227,0.0,0.0,0.0,0.51566,-46.1804,-18.16276,5.95,-2.01,4.35,3.0
1758088651.97597,1758088649.2327,0.0,0.0,0.0,0.57296,-55.86338,-15.46986,5.76,-1.29,5.13,3.0
1758088651.98014,1758088649.2427,0.0,0.0,0.0,0.74485,-61.07731,-11.80293,6.77,-0.88,5.16,3.0
1758088651.98117,1758088649.2527,0.0,0.0,0.0,0.85944,-67.09336,-8.02141,6.77,-0.88,5.16,3.0
1758088652.01434,1758088649.2627,0.0,0.0,0.0,1.71887,-71.27596,-4.29718,7.17,-1.0,4.38,3.0
1758088652.0147,1758088649.2727,0.0,0.0,0.0,4.18259,-70.13004,-0.40107,7.17,-1.0,4.38,3.0
1758088652.01583,1758088649.2827,0.0,0.0,0.0,7.67763,-67.15066,2.46372,7.8,-1.45,3.58,3.0
1758088652.01802,1758088649.2927,0.0,0.0,0.0,11.34457,-62.22322,4.52637,7.8,-1.45,3.58,3.0
1758088652.02081,1758088649.3027,0.0,0.0,0.0,15.35527,-55.7488,6.18794,8.11,-1.72,3.08,3.0
1758088652.03677,1758088649.3127,0.0,0.0,0.0,20.79837,-44.86259,6.70361,8.4,-1.61,2.85,3.0
1758088652.03973,1758088649.3227,0.0,0.0,0.0,23.49127,-35.92446,4.92744,8.4,-1.61,2.85,3.0
1758088652.05516,1758088649.3327,0.0,0.0,0.0,25.26744,-24.86637,2.40642,9.03,-1.17,2.37,3.0
1758088652.05613,1758088649.3427,0.0,0.0,0.0,26.69983,-5.72958,-3.26586,9.03,-1.17,2.37,3.0
1758088652.07219,1758088649.3527,0.0,0.0,0.0,26.81443,6.99009,-7.73493,9.59,-0.85,1.88,3.0
1758088652.07394,1758088649.3627,0.0,0.0,0.0,26.52795,19.48057,-12.2613,9.59,-0.85,1.88,3.0
1758088652.08921,1758088649.3727,0.0,0.0,0.0,26.69983,30.99702,-16.21471,9.78,-0.93,1.64,3.0
1758088652.105,1758088649.3827,0.0,0.0,0.0,27.61657,47.49821,-20.68378,9.78,-0.93,1.64,3.0
1758088652.10616,1758088649.3927,0.0,0.0,0.0,27.61657,55.34772,-22.91831,9.99,-1.2,1.59,3.0
1758088652.12198,1758088649.4027,0.0,0.0,0.0,28.01764,62.22322,-24.12152,9.74,-1.3,1.79,3.0
1758088652.12318,1758088649.4127,0.0,0.0,0.0,27.84575,66.74959,-24.75178,9.74,-1.3,1.79,3.0
1758088652.14018,1758088649.4227,0.0,0.0,0.0,27.61657,67.72362,-25.09555,9.03,-1.03,2.02,3.0
1758088652.18201,1758088649.4327,0.0,0.0,0.0,27.44468,68.12468,-24.29341,9.03,-1.03,2.02,3.0
1758088652.18342,1758088649.4427,0.0,0.0,0.0,29.04896,68.23928,-24.12152,8.5,-0.71,2.17,3.0
1758088652.18454,1758088649.4527,0.0,0.0,0.0,30.53865,65.83286,-23.54857,8.5,-0.71,2.17,3.0
1758088652.18583,1758088649.4627,0.0,0.0,0.0,31.28349,58.3844,-22.11617,7.72,-0.55,2.27,3.0
1758088652.18736,1758088649.4727,0.0,0.0,0.0,30.76784,52.76942,-21.08485,7.12,-0.36,2.39,3.0
1758088652.20301,1758088649.4827,0.0,0.0,0.0,29.27814,48.12846,-20.62648,7.12,-0.36,2.39,3.0
1758088652.20497,1758088649.4927,0.0,0.0,0.0,27.38738,42.68536,-20.45459,6.84,0.0,2.28,3.0
1758088652.21994,1758088649.5027,0.0,0.0,0.0,23.72045,34.09099,-20.51189,6.84,0.0,2.28,3.0
1758088652.23621,1758088649.5127,0.0,0.0,0.0,20.74107,27.61657,-21.08485,6.63,0.33,2.23,3.0
1758088652.23878,1758088649.5227,0.0,0.0,0.0,17.87628,20.16812,-21.31403,6.63,0.33,2.23,3.0
1758088652.25401,1758088649.5327,0.0,0.0,0.0,13.5791,11.45916,-22.40265,6.5,0.64,2.34,3.0
1758088652.25519,1758088649.5427,0.0,0.0,0.0,11.17268,-2.97938,-22.63183,6.45,0.87,2.23,3.0
1758088652.27001,1758088649.5527,0.0,0.0,0.0,8.76626,-11.63104,-22.57454,6.45,0.87,2.23,3.0
1758088652.28604,1758088649.5627,0.0,0.0,0.0,6.87549,-19.36597,-21.7151,6.76,0.84,2.23,3.0
1758088652.28727,1758088649.5727,0.0,0.0,0.0,4.46907,-29.39274,-19.07949,6.76,0.84,2.23,3.0
1758088652.30202,1758088649.5827,0.0,0.0,0.0,3.03668,-36.21093,-16.67307,7.01,0.54,2.29,3.0
1758088652.30321,1758088649.5927,0.0,0.0,0.0,1.94806,-42.22699,-13.98017,7.01,0.54,2.29,3.0
1758088652.31911,1758088649.6027,0.0,0.0,0.0,1.14592,-46.1804,-11.11538,7.27,0.28,2.29,3.0
1758088652.33524,1758088649.6127,0.0,0.0,0.0,0.45837,-44.57612,-6.70361,7.83,0.28,2.12,3.0
1758088652.33648,1758088649.6227,0.0,0.0,0.0,0.22918,-38.90384,-4.18259,7.83,0.15,2.12,3.0
1758088652.35103,1758088649.6327,0.0,0.0,0.0,0.34377,-31.28349,-1.71887,8.48,0.01,2.03,3.0
1758088652.35464,1758088649.6427,0.0,0.0,0.0,0.40107,-21.88699,0.0573,8.48,0.01,2.03,3.0
1758088652.37008,1758088649.6527,0.0,0.0,0.0,-0.68755,-8.76626,-0.85944,9.45,-0.05,2.22,3.0
1758088652.38609,1758088649.6627,0.0,0.0,0.0,-1.77617,-5.55769,-3.66693,9.45,-0.05,2.22,3.0
1758088652.3878,1758088649.6727,0.0,0.0,0.0,-2.97938,-4.0107,-7.73493,10.17,0.04,2.22,3.0
1758088652.40473,1758088649.6827,0.0,0.0,0.0,-3.03668,-4.58366,-11.86023,10.17,0.04,2.22,3.0
1758088652.40564,1758088649.6927,0.0,0.0,0.0,-6.8182,5.32851,-19.53786,11.93,0.06,1.95,3.0
1758088652.44983,1758088649.7027,0.0,0.0,0.0,-7.50575,9.96947,-22.63183,13.71,0.13,2.05,3.0
1758088652.45346,1758088649.7127,0.0,0.0,0.0,-9.28192,16.73037,-27.10091,13.71,0.13,2.05,3.0
1758088652.45401,1758088649.7227,0.0,0.0,0.0,-10.71431,24.35071,-30.65324,15.0,0.17,2.21,3.0
1758088652.45554,1758088649.7327,0.0,0.0,0.0,-12.71966,29.39274,-30.25217,15.0,0.17,2.21,3.0
1758088652.45595,1758088649.7427,0.0,0.0,0.0,-12.43318,27.78845,-26.64254,15.75,-0.01,2.63,3.0
1758088652.47317,1758088649.7527,0.0,0.0,0.0,-10.54242,17.18874,-22.23076,15.75,-0.01,2.63,3.0
1758088652.47409,1758088649.7627,0.0,0.0,0.0,-10.8862,-22.23076,-18.9649,14.72,0.17,4.92,3.0
1758088652.48926,1758088649.7727,0.0,0.0,0.0,-6.18794,-24.5226,-18.16276,15.19,0.24,6.38,3.0
1758088652.50541,1758088649.7827,0.0,0.0,0.0,-0.0573,6.13065,-24.92367,15.19,0.24,6.38,3.0
1758088652.51064,1758088649.7927,0.0,0.0,0.0,7.73493,28.70519,-28.41871,18.1,-1.26,5.83,3.0
1758088652.52514,1758088649.8027,0.0,0.0,0.0,13.00614,22.05888,-29.33544,18.1,-1.26,5.83,3.0
1758088652.5274,1758088649.8127,0.0,0.0,0.0,13.23533,16.55848,-24.80907,12.46,-0.61,4.6,3.0
1758088652.54213,1758088649.8227,0.0,0.0,0.0,10.8862,16.272,-17.99088,12.46,-0.61,4.6,3.0
1758088652.54331,1758088649.8327,0.0,0.0,0.0,6.70361,17.18874,-10.25595,11.37,0.85,4.61,3.0
1758088652.56017,1758088649.8427,0.0,0.0,0.0,-1.08862,11.51645,1.43239,9.2,1.77,4.96,3.0
1758088652.56214,1758088649.8527,0.0,0.0,0.0,-5.95876,7.62034,7.62034,9.2,1.77,4.96,3.0
1758088652.57843,1758088649.8627,0.0,0.0,0.0,-9.68299,5.15662,11.57375,7.87,1.86,5.27,3.0
1758088652.59419,1758088649.8727,0.0,0.0,0.0,-11.57375,-2.40642,13.40721,7.87,1.86,5.27,3.0
1758088652.59578,1758088649.8827,0.0,0.0,0.0,-10.94349,-21.48592,13.46451,6.2,1.0,5.48,3.0
1758088652.61015,1758088649.8927,0.0,0.0,0.0,-9.62569,-33.00237,12.77696,6.2,1.0,5.48,3.0
1758088652.63411,1758088649.9027,0.0,0.0,0.0,-8.42248,-42.22699,11.74564,6.03,-0.06,5.04,3.0
1758088652.63697,1758088649.9127,0.0,0.0,0.0,-7.44845,-49.33167,10.48513,6.03,-0.06,5.04,3.0
1758088652.64027,1758088649.9227,0.0,0.0,0.0,-6.99009,-54.14451,7.16197,6.71,-0.62,4.42,3.0
1758088652.65644,1758088649.9327,0.0,0.0,0.0,-7.67763,-53.80074,4.23989,7.53,-0.47,3.68,3.0
1758088652.6582,1758088649.9427,0.0,0.0,0.0,-9.05273,-52.76942,1.08862,7.53,-0.47,3.68,3.0
1758088652.67344,1758088649.9527,0.0,0.0,0.0,-13.34992,-50.64947,-3.49504,7.74,-0.14,3.34,3.0
1758088652.67441,1758088649.9627,0.0,0.0,0.0,-16.272,-47.78468,-5.15662,7.74,-0.14,3.34,3.0
1758088652.71499,1758088649.9727,0.0,0.0,0.0,-19.36597,-44.57612,-5.27121,7.87,-0.12,3.24,3.0
1758088652.71781,1758088649.9827,0.0,0.0,0.0,-21.7724,-37.75792,-3.89611,7.87,-0.12,3.24,3.0
1758088652.71946,1758088649.9927,0.0,0.0,0.0,-24.75178,-26.12688,0.40107,8.46,-0.2,2.93,3.0
1758088652.72064,1758088650.0027,0.0,0.0,0.0,-25.8404,-18.33465,4.18259,8.33,-0.21,2.65,3.0
1758088652.73549,1758088650.0127,0.0,0.0,0.0,-26.41335,-10.02676,8.02141,8.33,-0.21,2.65,3.0
1758088652.73758,1758088650.0227,0.0,0.0,0.0,-26.64254,-2.63561,12.08941,8.34,-0.22,2.56,3.0
1758088652.75351,1758088650.0327,0.0,0.0,0.0,-26.75713,7.73493,16.95955,8.34,-0.22,2.56,3.0
1758088652.75446,1758088650.0427,0.0,0.0,0.0,-26.87172,13.86558,19.59516,8.55,-0.18,2.42,3.0
1758088652.76927,1758088650.0527,0.0,0.0,0.0,-27.04361,18.9649,21.02755,8.55,-0.18,2.42,3.0
1758088652.78653,1758088650.0627,0.0,0.0,0.0,-27.44468,23.89234,21.88699,8.79,-0.11,2.41,3.0
1758088652.78774,1758088650.0727,0.0,0.0,0.0,-28.99167,30.48136,23.0902,8.9,-0.06,2.34,3.0
1758088652.80228,1758088650.0827,0.0,0.0,0.0,-30.36677,34.89313,23.0329,8.9,-0.06,2.34,3.0
1758088652.80507,1758088650.0927,0.0,0.0,0.0,-32.14294,39.3622,22.68913,8.74,-0.06,2.39,3.0
1758088652.82055,1758088650.1027,0.0,0.0,0.0,-33.00237,42.51347,22.63183,8.74,-0.06,2.39,3.0
1758088652.83705,1758088650.1127,0.0,0.0,0.0,-34.95043,46.52417,20.85567,8.29,-0.25,2.28,3.0
1758088652.8399,1758088650.1227,0.0,0.0,0.0,-35.63798,48.35764,19.19409,8.29,-0.25,2.28,3.0
1758088652.85549,1758088650.1327,0.0,0.0,0.0,-35.92446,49.15978,17.13144,7.95,-0.48,2.27,3.0
1758088652.85599,1758088650.1427,0.0,0.0,0.0,-35.12231,48.9879,14.49583,7.95,-0.48,2.27,3.0
1758088652.87336,1758088650.1527,0.0,0.0,0.0,-33.40344,48.52953,12.43318,7.85,-0.79,2.17,3.0
1758088652.87457,1758088650.1627,0.0,0.0,0.0,-31.97105,47.03984,10.19865,7.74,-1.04,2.19,3.0
1758088652.88962,1758088650.1727,0.0,0.0,0.0,-30.36677,42.68536,8.65166,7.74,-1.04,2.19,3.0
1758088652.89541,1758088650.1827,0.0,0.0,0.0,-27.61657,32.83048,7.73493,7.41,-1.18,2.16,3.0
1758088652.92543,1758088650.1927,0.0,0.0,0.0,-25.55392,27.2155,8.36518,7.41,-1.18,2.16,3.0
1758088652.93073,1758088650.2027,0.0,0.0,0.0,-23.83505,22.05888,9.68299,7.59,-1.4,2.23,3.0
1758088652.93292,1758088650.2127,0.0,0.0,0.0,-23.37668,10.25595,10.65701,7.59,-1.4,2.23,3.0
1758088652.93574,1758088650.2227,0.0,0.0,0.0,-21.02755,-21.14215,16.21471,6.8,-1.45,2.6,3.0
1758088652.9506,1758088650.2327,0.0,0.0,0.0,-18.62113,-33.05967,18.85031,6.89,-1.47,1.91,3.0
1758088652.96874,1758088650.2427,0.0,0.0,0.0,-17.99088,-36.6693,19.76705,6.89,-1.47,1.91,3.0
1758088652.97149,1758088650.2527,0.0,0.0,0.0,-17.18874,-39.19032,18.62113,7.67,-1.24,1.66,3.0
1758088652.97531,1758088650.2627,0.0,0.0,0.0,-16.50119,-44.51882,13.75099,7.67,-1.24,1.66,3.0
1758088652.99468,1758088650.2727,0.0,0.0,0.0,-15.98552,-45.37826,8.65166,7.54,-0.98,1.94,3.0
1758088652.99557,1758088650.2827,0.0,0.0,0.0,-15.41257,-42.34158,3.03668,7.54,-0.98,1.94,3.0
1758088653.01036,1758088650.2927,0.0,0.0,0.0,-15.0115,-36.21093,-1.83346,8.22,-1.01,1.76,3.0
1758088653.02749,1758088650.3027,0.0,0.0,0.0,-14.15206,-21.6578,-6.47442,8.94,-1.18,1.77,3.0
1758088653.02789,1758088650.3127,0.0,0.0,0.0,-12.77696,-10.25595,-6.87549,8.94,-1.18,1.77,3.0
1758088653.04435,1758088650.3227,0.0,0.0,0.0,-11.17268,-2.06265,-4.1253,9.16,-1.64,1.97,3.0
1758088653.04557,1758088650.3327,0.0,0.0,0.0,-9.4538,-4.58366,-0.40107,9.16,-1.64,1.97,3.0
1758088653.06037,1758088650.3427,0.0,0.0,0.0,-7.50575,-13.98017,6.07335,8.56,-2.01,2.14,3.0
1758088653.07742,1758088650.3527,0.0,0.0,0.0,-5.90147,-14.43854,11.17268,8.56,-2.01,2.14,3.0
1758088653.07789,1758088650.3627,0.0,0.0,0.0,-4.81285,-10.8862,17.36062,10.61,-2.09,2.23,3.0
1758088653.09569,1758088650.3727,0.0,0.0,0.0,-1.60428,-6.35983,27.1582,10.61,-2.09,2.23,3.0
1758088653.09609,1758088650.3827,0.0,0.0,0.0,1.20321,-3.20856,33.51803,11.99,-2.3,2.33,3.0
1758088653.11334,1758088650.3927,0.0,0.0,0.0,3.95341,3.89611,38.90384,13.67,-2.58,2.36,3.0
1758088653.11416,1758088650.4027,0.0,0.0,0.0,7.16197,14.43854,42.91454,13.67,-2.58,2.36,3.0
1758088653.12941,1758088650.4127,0.0,0.0,0.0,9.91217,26.64254,45.03448,15.56,-2.71,2.59,3.0
1758088653.14746,1758088650.4227,0.0,0.0,0.0,10.19865,28.36141,41.99781,15.56,-2.71,2.59,3.0
1758088653.15099,1758088650.4327,0.0,0.0,0.0,10.02676,23.66316,35.52338,15.32,-2.49,2.9,3.0
1758088653.16732,1758088650.4427,0.0,0.0,0.0,9.33921,24.92367,26.64254,15.32,-2.49,2.9,3.0
1758088653.1678,1758088650.4527,0.0,0.0,0.0,10.59972,47.09713,16.84496,16.14,-3.03,4.49,3.0
1758088653.18366,1758088650.4627,0.0,0.0,0.0,6.41713,56.14987,10.65701,17.97,-2.98,6.73,3.0
1758088653.18542,1758088650.4727,0.0,0.0,0.0,0.74485,44.86259,7.84952,17.97,-2.98,6.73,3.0
1758088653.20048,1758088650.4827,0.0,0.0,0.0,-6.58902,20.22541,2.92208,13.7,-1.4,6.0,3.0
1758088653.20164,1758088650.4927,0.0,0.0,0.0,-14.15206,2.97938,0.17189,13.7,-1.4,6.0,3.0
1758088653.21897,1758088650.5027,0.0,0.0,0.0,-16.90226,9.68299,-4.81285,12.81,-1.38,2.5,3.0
1758088653.23466,1758088650.5127,0.0,0.0,0.0,-17.81899,14.20935,-12.54778,12.81,-1.38,2.5,3.0
1758088653.23564,1758088650.5227,0.0,0.0,0.0,-14.09476,8.88085,-15.35527,9.36,-1.96,3.6,3.0
1758088653.25045,1758088650.5327,0.0,0.0,0.0,-7.21927,-12.204,-19.76705,5.65,-2.44,4.53,3.0
1758088653.2516,1758088650.5427,0.0,0.0,0.0,-3.49504,-24.12152,-20.62648,5.65,-2.44,4.53,3.0
1758088653.26971,1758088650.5527,0.0,0.0,0.0,-0.45837,-35.12231,-20.22541,5.22,-2.18,4.3,3.0
1758088653.27096,1758088650.5627,0.0,0.0,0.0,2.63561,-46.75336,-17.93358,5.22,-2.18,4.3,3.0
1758088653.28603,1758088650.5727,0.0,0.0,0.0,3.32316,-59.18654,-14.9542,5.48,-1.57,4.85,3.0
1758088653.30468,1758088650.5827,0.0,0.0,0.0,3.38045,-64.51505,-10.19865,5.48,-1.57,4.85,3.0
1758088653.35939,1758088650.5927,0.0,0.0,0.0,3.72423,-69.61437,-5.72958,6.94,-1.17,4.98,3.0
1758088653.36112,1758088650.6027,0.0,0.0,0.0,5.09932,-74.31263,0.22918,6.94,-1.17,4.98,3.0
1758088653.36615,1758088650.6127,0.0,0.0,0.0,6.99009,-75.85962,2.97938,7.49,-1.13,3.96,3.0
1758088653.36666,1758088650.6227,0.0,0.0,0.0,13.34992,-77.17742,6.53172,7.79,-1.29,3.37,3.0
1758088653.36871,1758088650.6327,0.0,0.0,0.0,17.18874,-70.53111,8.93814,7.79,-1.29,3.37,3.0
1758088653.36933,1758088650.6427,0.0,0.0,0.0,20.62648,-55.29043,10.25595,8.93,-1.93,3.05,3.0
1758088653.3701,1758088650.6527,0.0,0.0,0.0,22.34536,-48.75871,9.68299,8.93,-1.93,3.05,3.0
1758088653.37359,1758088650.6627,0.0,0.0,0.0,24.5226,-44.23235,7.79223,8.54,-1.47,2.99,3.0
1758088653.39054,1758088650.6727,0.0,0.0,0.0,26.41335,-35.69527,4.98473,8.54,-1.47,2.99,3.0
1758088653.39315,1758088650.6827,0.0,0.0,0.0,27.33009,-15.87093,-0.80214,9.25,-0.9,2.38,3.0
1758088653.40932,1758088650.6927,0.0,0.0,0.0,27.67386,-2.63561,-5.09932,9.97,-0.71,2.1,3.0
1758088653.41132,1758088650.7027,0.0,0.0,0.0,27.50197,8.59437,-9.39651,9.97,-0.71,2.1,3.0
1758088653.43065,1758088650.7127,0.0,0.0,0.0,27.38738,19.53786,-13.23533,9.85,-0.82,2.06,3.0
1758088653.43113,1758088650.7227,0.0,0.0,0.0,28.30412,35.2942,-17.81899,9.85,-0.82,2.06,3.0
1758088653.44774,1758088650.7327,0.0,0.0,0.0,28.99167,43.37291,-19.53786,9.97,-1.1,2.11,3.0
1758088653.4625,1758088650.7427,0.0,0.0,0.0,29.39274,49.61814,-20.79837,9.97,-1.1,2.11,3.0
1758088653.46458,1758088650.7527,0.0,0.0,0.0,30.19488,54.48829,-21.42862,9.48,-1.23,2.29,3.0
1758088653.47986,1758088650.7627,0.0,0.0,0.0,30.82513,59.41573,-21.37133,8.87,-1.04,2.33,3.0
1758088653.48083,1758088650.7727,0.0,0.0,0.0,30.99702,61.1346,-20.97026,8.87,-1.04,2.33,3.0
1758088653.49983,1758088650.7827,0.0,0.0,0.0,31.62727,63.02536,-20.3973,8.36,-0.67,2.38,3.0
1758088653.55287,1758088650.7927,0.0,0.0,0.0,32.37212,62.33781,-19.76705,8.36,-0.67,2.38,3.0
1758088653.55517,1758088650.8027,0.0,0.0,0.0,32.14294,59.41573,-19.36597,7.68,-0.33,2.32,3.0
1758088653.55559,1758088650.8127,0.0,0.0,0.0,31.16891,56.49364,-19.19409,7.68,-0.33,2.32,3.0
1758088653.55761,1758088650.8227,0.0,0.0,0.0,29.96569,52.9986,-18.62113,7.28,-0.05,2.21,3.0
1758088653.55988,1758088650.8327,0.0,0.0,0.0,27.1582,43.25832,-18.73572,7.28,-0.05,2.16,3.0
1758088653.56099,1758088650.8427,0.0,0.0,0.0,24.5226,35.06502,-19.19409,6.9,0.17,2.16,3.0
1758088653.56354,1758088650.8527,0.0,0.0,0.0,21.60051,27.50197,-20.16812,6.89,0.51,2.18,3.0
1758088653.5802,1758088650.8627,0.0,0.0,0.0,18.73572,21.14215,-21.88699,6.89,0.51,2.18,3.0
1758088653.58219,1758088650.8727,0.0,0.0,0.0,15.0115,11.63104,-24.80907,7.13,0.78,2.15,3.0
1758088653.60018,1758088650.8827,0.0,0.0,0.0,13.17803,4.29718,-26.41335,7.13,0.78,2.15,3.0
1758088653.60119,1758088650.8927,0.0,0.0,0.0,11.63104,-2.86479,-27.04361,6.92,0.78,2.24,3.0
1758088653.6172,1758088650.9027,0.0,0.0,0.0,10.31324,-9.28192,-26.75713,6.92,0.78,2.24,3.0
1758088653.63261,1758088650.9127,0.0,0.0,0.0,8.76626,-18.10547,-24.75178,6.9,0.58,2.22,3.0
1758088653.63381,1758088650.9227,0.0,0.0,0.0,7.96411,-23.26209,-22.23076,6.99,0.34,2.2,3.0
1758088653.64887,1758088650.9327,0.0,0.0,0.0,7.21927,-27.04361,-19.19409,6.99,0.34,2.2,3.0
1758088653.66492,1758088650.9427,0.0,0.0,0.0,6.8182,-31.16891,-15.69904,7.25,0.14,2.14,3.0
1758088653.66582,1758088650.9527,0.0,0.0,0.0,5.55769,-33.17426,-11.57375,7.25,0.14,2.14,3.0
1758088653.6809,1758088650.9627,0.0,0.0,0.0,4.58366,-29.39274,-9.39651,7.87,0.03,1.97,3.0
1758088653.68339,1758088650.9727,0.0,0.0,0.0,3.72423,-23.0329,-7.73493,7.87,0.03,1.97,3.0
1758088653.70106,1758088650.9827,0.0,0.0,0.0,2.23454,-16.55848,-6.70361,8.75,0.02,1.76,3.0
1758088653.70366,1758088650.9927,0.0,0.0,0.0,1.20321,-5.27121,-5.95876,9.75,0.02,1.95,3.0
1758088653.72067,1758088651.0027,0.0,0.0,0.0,-0.0573,3.03668,-6.70361,9.75,0.02,1.95,3.0
1758088653.72359,1758088651.0127,0.0,0.0,0.0,-1.20321,9.91217,-7.62034,11.21,0.12,2.13,3.0
1758088653.7407,1758088651.0227,0.0,0.0,0.0,-2.7502,14.43854,-10.31324,11.21,0.12,2.13,3.0
1758088653.74505,1758088651.0327,0.0,0.0,0.0,-3.83882,16.90226,-12.89155,12.39,0.2,2.28,3.0
1758088653.76067,1758088651.0427,0.0,0.0,0.0,-4.0107,16.73037,-15.35527,12.39,0.2,2.28,3.0
1758088653.76506,1758088651.0527,0.0,0.0,0.0,-5.09932,21.31403,-17.24603,13.88,0.06,2.61,3.0
1758088653.78072,1758088651.0627,0.0,0.0,0.0,-6.18794,31.28349,-21.7151,15.1,0.06,2.93,3.0
