timeStamp,timeStampAlign,roll,pitch,yaw,gyro_x,gyro_y,gyro_z,acc_x,acc_y,acc_z,flag_num
1758088048.74703,1758087978.32925,0.0,0.0,0.0,-74.31263,-35.12231,0.57296,8.79,-1.07,2.12,3.0
1758088048.74846,1758087978.33925,0.0,0.0,0.0,-73.2813,-32.48671,1.20321,8.88,-1.58,2.5,3.0
1758088048.76297,1758087978.34925,0.0,0.0,0.0,-73.16672,-28.99167,2.11994,9.14,-1.65,1.98,3.0
1758088048.77937,1758087978.35925,0.0,0.0,0.0,-73.51049,-24.23611,2.46372,9.14,-1.65,1.98,3.0
1758088048.78098,1758087978.36925,0.0,0.0,0.0,-74.31263,-16.84496,2.63561,9.95,-1.65,1.81,3.0
1758088048.79607,1758087978.37925,0.0,0.0,0.0,-76.66176,-4.35448,3.72423,9.95,-1.65,1.81,3.0
1758088048.79715,1758087978.38925,0.0,0.0,0.0,-78.7817,3.20856,4.92744,9.91,-1.24,1.75,3.0
1758088048.81305,1758087978.39925,0.0,0.0,0.0,-80.95895,10.08406,5.90147,9.91,-1.24,1.75,3.0
1758088048.82926,1758087978.40925,0.0,0.0,0.0,-83.25077,15.98552,6.47442,9.53,-0.66,1.98,3.0
1758088048.83021,1758087978.41925,0.0,0.0,0.0,-86.05827,22.11617,6.8182,9.18,-0.18,1.65,3.0
1758088048.84532,1758087978.42925,0.0,0.0,0.0,-87.14688,26.41335,6.87549,9.18,-0.18,1.65,3.0
1758088048.86134,1758087978.43925,0.0,0.0,0.0,-87.89172,30.82513,6.53172,9.26,0.05,1.34,3.0
1758088048.86253,1758087978.44925,0.0,0.0,0.0,-88.52198,35.12231,5.78687,9.26,0.05,1.34,3.0
1758088048.87736,1758087978.45925,0.0,0.0,0.0,-89.49601,41.65404,4.0107,9.12,-0.01,1.24,3.0
1758088048.87827,1758087978.46925,0.0,0.0,0.0,-90.18356,44.28964,1.83346,9.12,-0.01,1.24,3.0
1758088048.8933,1758087978.47925,0.0,0.0,0.0,-91.50137,45.72203,-0.17189,8.64,-0.24,1.15,3.0
1758088048.91007,1758087978.48925,0.0,0.0,0.0,-93.16295,47.61279,-3.83882,8.64,-0.24,1.15,3.0
1758088048.9117,1758087978.49925,0.0,0.0,0.0,-94.30885,47.49821,-5.95876,8.39,-0.49,0.99,3.0
1758088048.92638,1758087978.50925,0.0,0.0,0.0,-95.1683,45.60744,-8.0787,7.91,-0.7,0.99,3.0
1758088048.92729,1758087978.51925,0.0,0.0,0.0,-94.93911,44.40423,-8.93814,7.91,-0.7,0.99,3.0
1758088048.94341,1758087978.52925,0.0,0.0,0.0,-92.93376,45.55015,-8.70896,8.06,-1.07,0.94,3.0
1758088048.96037,1758087978.53925,0.0,0.0,0.0,-90.69922,45.43555,-7.79223,8.06,-1.07,0.94,3.0
1758088048.9613,1758087978.54925,0.0,0.0,0.0,-87.43336,42.34158,-6.35983,7.92,-1.6,0.94,3.0
1758088048.97638,1758087978.55925,0.0,0.0,0.0,-83.30807,40.33623,-4.58366,7.92,-1.6,0.94,3.0
1758088048.9786,1758087978.56925,0.0,0.0,0.0,-76.48987,36.95578,-2.7502,7.71,-2.19,0.9,3.0
1758088048.99316,1758087978.57925,0.0,0.0,0.0,-71.44785,34.0337,-2.11994,7.64,-2.63,0.8,3.0
1758088049.01012,1758087978.58925,0.0,0.0,0.0,-66.06203,31.56997,-2.40642,7.64,-2.63,0.8,3.0
1758088049.01129,1758087978.59925,0.0,0.0,0.0,-60.79083,30.19488,-2.97938,7.86,-2.79,0.72,3.0
1758088049.02607,1758087978.60925,0.0,0.0,0.0,-53.51426,26.64254,-5.09932,7.86,-2.79,0.72,3.0
1758088049.02729,1758087978.61925,0.0,0.0,0.0,-48.8733,24.17882,-7.21927,8.0,-2.7,0.76,3.0
1758088049.04544,1758087978.62925,0.0,0.0,0.0,-44.17505,21.7724,-8.65166,8.0,-2.7,0.76,3.0
1758088049.04841,1758087978.63925,0.0,0.0,0.0,-39.19032,19.07949,-9.68299,8.33,-2.51,0.84,3.0
1758088049.06428,1758087978.64925,0.0,0.0,0.0,-31.97105,13.40721,-9.91217,8.59,-2.4,0.63,3.0
1758088049.08151,1758087978.65925,0.0,0.0,0.0,-27.10091,13.23533,-9.22462,8.59,-2.4,0.63,3.0
1758088049.08238,1758087978.66925,0.0,0.0,0.0,-22.91831,15.24068,-8.0787,9.14,-2.53,0.61,3.0
1758088049.09715,1758087978.67924,0.0,0.0,0.0,-19.42327,15.92823,-7.33386,9.14,-2.53,0.61,3.0
1758088049.10153,1758087978.68924,0.0,0.0,0.0,-15.12609,16.55848,-7.50575,9.08,-2.81,1.04,3.0
1758088049.11745,1758087978.69924,0.0,0.0,0.0,-12.49048,16.84496,-7.79223,9.08,-2.81,1.04,3.0
1758088049.11862,1758087978.70924,0.0,0.0,0.0,-9.91217,15.92823,-8.0787,9.38,-3.08,1.39,3.0
1758088049.13322,1758087978.71924,0.0,0.0,0.0,-4.46907,15.98552,-9.74028,9.38,-3.08,1.39,3.0
1758088049.151,1758087978.72924,0.0,0.0,0.0,0.0,16.21471,-10.54242,10.39,-3.46,1.44,3.0
1758088049.15298,1758087978.73924,0.0,0.0,0.0,6.41713,15.87093,-10.65701,11.8,-3.95,1.53,3.0
1758088049.17139,1758087978.74924,0.0,0.0,0.0,13.75099,13.17803,-9.5684,11.8,-3.95,1.53,3.0
1758088049.17572,1758087978.75924,0.0,0.0,0.0,25.38203,0.74485,-8.0787,12.26,-4.33,1.66,3.0
1758088049.1912,1758087978.76924,0.0,0.0,0.0,31.62727,-19.59516,-7.33386,12.26,-4.33,1.66,3.0
1758088049.19272,1758087978.77924,0.0,0.0,0.0,39.07573,-52.42564,-5.09932,10.79,-4.42,3.9,3.0
1758088049.20753,1758087978.78924,0.0,0.0,0.0,47.38361,-84.39669,2.23454,10.79,-4.42,3.9,3.0
1758088049.20952,1758087978.79924,0.0,0.0,0.0,58.26981,-95.22559,13.5218,11.58,-4.08,5.25,3.0
1758088049.22422,1758087978.80924,0.0,0.0,0.0,60.79083,-75.91692,14.72501,16.88,-3.44,3.05,3.0
1758088049.24049,1758087978.81924,0.0,0.0,0.0,63.13995,-63.13995,15.29797,16.88,-3.44,3.05,3.0
1758088049.24222,1758087978.82924,0.0,0.0,0.0,63.99939,-60.61894,14.03747,13.75,-2.21,3.72,3.0
1758088049.25746,1758087978.83924,0.0,0.0,0.0,64.40046,-64.11398,10.48513,13.75,-2.21,3.72,3.0
1758088049.25962,1758087978.84924,0.0,0.0,0.0,64.57235,-65.08801,7.79223,10.52,-1.01,4.25,3.0
1758088049.27425,1758087978.85924,0.0,0.0,0.0,64.74423,-64.28587,5.09932,10.52,-1.01,4.25,3.0
1758088049.29022,1758087978.86924,0.0,0.0,0.0,64.17127,-61.65026,2.97938,9.11,0.04,2.7,3.0
1758088049.29149,1758087978.87924,0.0,0.0,0.0,62.33781,-53.45696,0.34377,8.28,1.14,2.62,3.0
1758088049.30645,1758087978.88924,0.0,0.0,0.0,60.10328,-47.32632,-2.29183,8.28,1.14,2.62,3.0
1758088049.30771,1758087978.89924,0.0,0.0,0.0,59.70221,-46.35228,-4.64096,7.82,1.95,2.18,3.0
1758088049.32356,1758087978.90924,0.0,0.0,0.0,53.17049,-90.12627,-6.70361,7.82,1.95,2.18,3.0
1758088049.33955,1758087978.91924,0.0,0.0,0.0,50.87865,-81.64648,-9.22462,5.96,2.31,1.74,3.0
1758088049.34081,1758087978.92924,0.0,0.0,0.0,54.3737,-66.11933,-0.80214,5.96,2.31,1.74,3.0
1758088049.35525,1758087978.93924,0.0,0.0,0.0,54.71747,-49.90463,0.17189,13.17,1.58,0.9,3.0
1758088049.37149,1758087978.94924,0.0,0.0,0.0,55.40502,-45.55015,4.1253,13.17,1.58,2.61,3.0
1758088049.37246,1758087978.95924,0.0,0.0,0.0,53.74345,-40.7946,4.23989,11.42,1.75,2.61,3.0
1758088049.41017,1758087978.96924,0.0,0.0,0.0,49.56085,-29.56462,1.3751,10.77,1.64,2.4,3.0
1758088049.41177,1758087978.97924,0.0,0.0,0.0,44.63341,-17.58981,-2.63561,10.77,1.64,2.4,3.0
1758088049.41212,1758087978.98924,0.0,0.0,0.0,36.89849,-5.09932,-10.08406,10.06,1.95,1.48,3.0
1758088049.41323,1758087978.99924,0.0,0.0,0.0,32.77319,1.3751,-14.15206,10.06,1.95,1.48,3.0
1758088049.4283,1758087979.00924,0.0,0.0,0.0,29.50733,8.02141,-17.24603,9.57,2.31,1.92,3.0
1758088049.42949,1758087979.01924,0.0,0.0,0.0,27.50197,13.23533,-18.44924,9.57,2.31,1.92,3.0
1758088049.44456,1758087979.02924,0.0,0.0,0.0,26.87172,16.04282,-16.73037,9.75,1.76,1.65,3.0
1758088049.4605,1758087979.03924,0.0,0.0,0.0,27.61657,16.272,-13.5218,9.63,0.78,1.37,3.0
1758088049.46149,1758087979.04924,0.0,0.0,0.0,28.70519,15.35527,-9.39651,9.63,0.78,1.37,3.0
1758088049.47629,1758087979.05924,0.0,0.0,0.0,30.36677,15.12609,-5.90147,9.53,0.04,1.57,3.0
1758088049.47748,1758087979.06924,0.0,0.0,0.0,32.48671,16.95955,-1.03132,9.53,0.04,1.57,3.0
1758088049.49331,1758087979.07924,0.0,0.0,0.0,33.34615,17.81899,0.51566,9.4,-0.4,1.32,3.0
1758088049.51029,1758087979.08924,0.0,0.0,0.0,33.68992,19.82434,1.3751,9.4,-0.4,1.32,3.0
1758088049.51155,1758087979.09924,0.0,0.0,0.0,33.86181,20.79837,1.20321,9.16,-0.48,1.6,3.0
1758088049.52651,1758087979.10924,0.0,0.0,0.0,34.0337,20.11082,1.03132,8.78,-0.23,1.26,3.0
1758088049.52749,1758087979.11924,0.0,0.0,0.0,34.26288,19.36597,0.80214,8.78,-0.23,1.26,3.0
1758088049.54348,1758087979.12924,0.0,0.0,0.0,34.49206,18.44924,0.17189,8.57,0.13,0.99,3.0
1758088049.55935,1758087979.13924,0.0,0.0,0.0,35.86716,15.58445,0.51566,8.57,0.13,0.99,3.0
1758088049.56066,1758087979.14924,0.0,0.0,0.0,36.21093,13.86558,0.17189,8.21,0.44,0.48,3.0
1758088049.57535,1758087979.15924,0.0,0.0,0.0,36.21093,12.89155,-0.34377,8.21,0.44,0.48,3.0
1758088049.59131,1758087979.16924,0.0,0.0,0.0,35.75257,10.02676,-1.3751,8.1,0.86,0.52,3.0
1758088049.59252,1758087979.17924,0.0,0.0,0.0,34.0337,6.07335,-4.81285,7.72,0.86,0.36,3.0
1758088049.60754,1758087979.18924,0.0,0.0,0.0,33.11696,3.83882,-6.7609,7.72,1.22,0.36,3.0
1758088049.60853,1758087979.19924,0.0,0.0,0.0,32.48671,1.66158,-8.136,7.83,1.26,0.35,3.0
1758088049.6235,1758087979.20924,0.0,0.0,0.0,32.14294,-0.74485,-8.88085,7.83,1.26,0.35,3.0
1758088049.63959,1758087979.21924,0.0,0.0,0.0,32.48671,-3.83882,-7.84952,7.86,0.91,0.17,3.0
1758088049.64052,1758087979.22924,0.0,0.0,0.0,33.11696,-5.32851,-6.47442,7.86,0.91,0.17,3.0
1758088049.6556,1758087979.23924,0.0,0.0,0.0,33.74722,-6.47442,-4.52637,8.05,0.51,0.26,3.0
1758088049.67137,1758087979.24924,0.0,0.0,0.0,34.09099,-6.41713,-2.40642,8.05,0.51,0.26,3.0
1758088049.67284,1758087979.25924,0.0,0.0,0.0,33.63263,-5.61499,0.51566,8.42,0.34,0.32,3.0
1758088049.68752,1758087979.26924,0.0,0.0,0.0,32.54401,-5.84417,2.00535,8.68,0.55,0.56,3.0
1758088049.68941,1758087979.27924,0.0,0.0,0.0,30.76784,-5.15662,2.92208,8.68,0.55,0.56,3.0
1758088049.70635,1758087979.28924,0.0,0.0,0.0,28.476,-3.66693,3.60963,9.13,0.81,0.59,3.0
1758088049.70756,1758087979.29924,0.0,0.0,0.0,24.57989,0.22918,4.18259,9.13,0.81,0.59,3.0
1758088049.7234,1758087979.30924,0.0,0.0,0.0,21.88699,3.09397,4.92744,9.48,0.96,0.51,3.0
1758088049.73972,1758087979.31924,0.0,0.0,0.0,18.85031,4.23989,5.61499,9.48,0.96,0.51,3.0
1758088049.7414,1758087979.32924,0.0,0.0,0.0,14.43854,8.42248,6.8182,9.49,1.03,0.36,3.0
1758088049.75664,1758087979.33924,0.0,0.0,0.0,11.34457,12.14671,7.50575,9.76,0.99,-0.12,3.0
1758088049.75762,1758087979.34924,0.0,0.0,0.0,8.65166,15.0115,8.30789,9.76,0.99,-0.12,3.0
1758088049.77343,1758087979.35924,0.0,0.0,0.0,5.95876,16.67307,8.76626,9.69,1.0,-0.28,3.0
1758088049.78948,1758087979.36924,0.0,0.0,0.0,2.23454,18.85031,10.54242,9.69,1.0,-0.28,3.0
1758088049.79066,1758087979.37924,0.0,0.0,0.0,-0.85944,21.02755,11.63104,10.12,1.12,-0.14,3.0
1758088049.80546,1758087979.38924,0.0,0.0,0.0,-4.46907,22.97561,11.51645,10.12,1.12,-0.14,3.0
1758088049.8215,1758087979.39924,0.0,0.0,0.0,-8.93814,24.23611,10.94349,10.67,1.37,0.11,3.0
1758088049.82305,1758087979.40924,0.0,0.0,0.0,-16.67307,25.61122,9.22462,11.21,1.71,0.4,3.0
1758088049.83745,1758087979.41924,0.0,0.0,0.0,-22.63183,24.5226,7.10468,11.21,1.71,0.4,3.0
1758088049.83866,1758087979.42924,0.0,0.0,0.0,-28.24682,21.02755,4.87014,11.24,2.06,0.74,3.0
1758088049.8537,1758087979.43924,0.0,0.0,0.0,-33.86181,14.03747,1.20321,11.24,2.06,0.74,3.0
1758088049.87075,1758087979.44924,0.0,0.0,0.0,-36.26823,-11.80293,0.0573,10.8,2.42,1.79,3.0
1758088049.87183,1758087979.45924,0.0,0.0,0.0,-34.43476,-33.80451,-1.83346,10.8,2.42,1.79,3.0
1758088049.88671,1758087979.46924,0.0,0.0,0.0,-30.93972,-42.57077,-0.80214,11.66,2.09,3.38,3.0
1758088049.88767,1758087979.47924,0.0,0.0,0.0,-27.04361,-42.34158,-1.3751,11.66,2.09,3.38,3.0
1758088049.90354,1758087979.48924,0.0,0.0,0.0,-22.91831,-7.16197,-1.3178,16.71,0.81,2.15,3.0
1758088049.91944,1758087979.49924,0.0,0.0,0.0,-21.7151,4.35448,-1.43239,18.69,-0.57,2.59,3.0
1758088049.92067,1758087979.50924,0.0,0.0,0.0,-21.31403,-1.60428,-0.17189,18.69,-0.57,2.59,3.0
1758088049.93648,1758087979.51924,0.0,0.0,0.0,-19.13679,-12.77696,3.72423,14.53,-1.14,2.81,3.0
1758088049.93767,1758087979.52924,0.0,0.0,0.0,-18.85031,-12.37589,7.33386,14.53,-1.14,2.81,3.0
1758088049.95354,1758087979.53924,0.0,0.0,0.0,-19.59516,-11.51645,11.17268,13.79,-0.59,2.05,3.0
1758088049.9705,1758087979.54924,0.0,0.0,0.0,-21.25674,-12.89155,13.80828,13.79,-0.59,2.05,3.0
1758088049.97168,1758087979.55924,0.0,0.0,0.0,-24.80907,-15.24068,15.46986,11.17,-0.01,2.21,3.0
1758088049.98651,1758087979.56924,0.0,0.0,0.0,-27.2155,-18.22006,15.64175,9.3,0.32,2.71,3.0
1758088049.98795,1758087979.57924,0.0,0.0,0.0,-29.50733,-21.60051,15.24068,9.3,0.32,2.71,3.0
1758088050.00351,1758087979.58924,0.0,0.0,0.0,-31.16891,-24.63719,14.32395,8.04,0.42,2.42,3.0
1758088050.01977,1758087979.59924,0.0,0.0,0.0,-33.80451,-29.67921,13.06344,8.04,0.42,2.42,3.0
1758088050.02075,1758087979.60924,0.0,0.0,0.0,-35.40879,-32.20023,11.57375,7.73,0.41,1.85,3.0
1758088050.03579,1758087979.61924,0.0,0.0,0.0,-36.89849,-33.80451,9.96947,7.73,0.41,1.85,3.0
1758088050.05181,1758087979.62924,0.0,0.0,0.0,-37.81522,-33.63263,8.136,8.25,0.16,1.37,3.0
1758088050.05298,1758087979.63924,0.0,0.0,0.0,-39.01843,-30.48136,4.92744,9.14,-0.3,1.29,3.0
1758088050.06754,1758087979.64924,0.0,0.0,0.0,-39.01843,-27.10091,3.49504,9.14,-0.3,1.29,3.0
1758088050.07142,1758087979.65924,0.0,0.0,0.0,-38.27358,-22.68913,2.86479,9.77,-0.86,1.43,3.0
1758088050.08677,1758087979.66924,0.0,0.0,0.0,-37.01308,-16.50119,3.09397,9.77,-0.86,1.43,3.0
1758088050.08774,1758087979.67924,0.0,0.0,0.0,-34.37747,-6.53172,4.87014,9.92,-1.41,1.19,3.0
1758088050.10381,1758087979.68924,0.0,0.0,0.0,-32.71589,-1.3751,6.8182,9.92,-1.41,1.19,3.0
1758088050.11982,1758087979.69924,0.0,0.0,0.0,-31.28349,3.26586,8.88085,9.43,-1.7,0.98,3.0
1758088050.12077,1758087979.70924,0.0,0.0,0.0,-29.67921,7.67763,11.91752,9.43,-1.7,0.98,3.0
1758088050.13585,1758087979.71924,0.0,0.0,0.0,-29.50733,14.03747,13.34992,9.27,-1.73,0.98,3.0
1758088050.15182,1758087979.72924,0.0,0.0,0.0,-29.50733,17.81899,14.20935,9.34,-1.46,1.01,3.0
1758088050.15302,1758087979.73924,0.0,0.0,0.0,-29.96569,21.02755,14.43854,9.34,-1.46,1.01,3.0
1758088050.16776,1758087979.74924,0.0,0.0,0.0,-31.39809,21.7724,12.71966,9.38,-0.98,1.22,3.0
1758088050.16875,1758087979.75924,0.0,0.0,0.0,-31.97105,22.05888,11.22997,9.38,-0.98,1.22,3.0
1758088050.18356,1758087979.76924,0.0,0.0,0.0,-32.42941,22.74642,9.5684,9.46,-0.62,0.92,3.0
1758088050.2003,1758087979.77924,0.0,0.0,0.0,-32.20023,25.21014,8.136,9.46,-0.62,0.92,3.0
1758088050.2016,1758087979.78924,0.0,0.0,0.0,-33.80451,31.91375,3.38045,9.76,-0.48,0.9,3.0
1758088050.21656,1758087979.79924,0.0,0.0,0.0,-33.86181,29.10626,0.51566,8.98,-0.3,1.02,3.0
1758088050.21774,1758087979.80924,0.0,0.0,0.0,-33.74722,25.21014,-1.60428,8.98,-0.3,1.02,3.0
1758088050.23457,1758087979.81924,0.0,0.0,0.0,-32.42941,20.68378,-1.20321,8.44,-0.39,0.58,3.0
1758088050.25079,1758087979.82924,0.0,0.0,0.0,-30.65324,18.85031,0.45837,8.44,-0.39,0.58,3.0
1758088050.25202,1758087979.83924,0.0,0.0,0.0,-29.67921,18.50654,2.06265,8.55,-0.85,0.55,3.0
1758088050.26661,1758087979.84924,0.0,0.0,0.0,-29.50733,17.87628,3.20856,8.55,-0.85,0.55,3.0
1758088050.26826,1758087979.85924,0.0,0.0,0.0,-29.33544,15.35527,3.60963,7.88,-1.31,0.95,3.0
1758088050.28491,1758087979.86924,0.0,0.0,0.0,-28.70519,10.31324,3.89611,7.36,-1.5,1.04,3.0
1758088050.30082,1758087979.87924,0.0,0.0,0.0,-27.38738,7.67763,4.35448,7.36,-1.5,1.04,3.0
1758088050.30175,1758087979.88924,0.0,0.0,0.0,-25.26744,5.72958,5.55769,7.59,-1.59,0.83,3.0
1758088050.3167,1758087979.89924,0.0,0.0,0.0,-22.86102,4.35448,7.21927,7.59,-1.59,0.83,3.0
1758088050.31972,1758087979.90924,0.0,0.0,0.0,-18.9649,4.92744,8.47978,8.01,-1.71,0.64,3.0
1758088050.33586,1758087979.91924,0.0,0.0,0.0,-16.84496,5.27121,8.65166,8.01,-1.71,0.64,3.0
1758088050.35193,1758087979.92924,0.0,0.0,0.0,-15.06879,5.84417,8.59437,8.14,-1.65,0.38,3.0
1758088050.35283,1758087979.93924,0.0,0.0,0.0,-13.34992,7.21927,6.70361,8.14,-1.65,0.38,3.0
1758088050.3687,1758087979.94924,0.0,0.0,0.0,-12.60507,8.42248,4.87014,8.29,-1.43,0.33,3.0
1758088050.3728,1758087979.95924,0.0,0.0,0.0,-12.14671,10.31324,2.86479,8.69,-1.2,0.19,3.0
1758088050.38872,1758087979.96924,0.0,0.0,0.0,-11.86023,13.06344,0.97403,8.69,-1.2,0.19,3.0
1758088050.39203,1758087979.97924,0.0,0.0,0.0,-11.17268,17.81899,-0.74485,9.32,-1.08,0.32,3.0
1758088050.40768,1758087979.98924,0.0,0.0,0.0,-10.31324,20.16812,-1.3751,9.32,-1.08,0.32,3.0
1758088050.40892,1758087979.99924,0.0,0.0,0.0,-8.99544,23.94964,-1.3178,9.68,-1.11,0.35,3.0
1758088050.42369,1758087980.00924,0.0,0.0,0.0,-7.50575,26.18417,-0.51566,9.68,-1.11,0.35,3.0
1758088050.43998,1758087980.01924,0.0,0.0,0.0,-4.98473,24.29341,0.51566,9.68,-1.29,0.4,3.0
1758088050.44088,1758087980.02924,0.0,0.0,0.0,-3.26586,22.40265,1.08862,9.24,-1.45,0.28,3.0
1758088050.456,1758087980.03924,0.0,0.0,0.0,-1.14592,21.31403,1.3178,9.24,-1.45,0.28,3.0
1758088050.47196,1758087980.04924,0.0,0.0,0.0,0.85944,20.45459,1.48969,9.38,-1.53,0.18,3.0
1758088050.47315,1758087980.05924,0.0,0.0,0.0,3.89611,20.62648,0.97403,9.38,-1.53,0.18,3.0
1758088050.48795,1758087980.06924,0.0,0.0,0.0,5.61499,22.57454,0.22918,9.63,-1.47,0.06,3.0
1758088050.48913,1758087980.07924,0.0,0.0,0.0,7.16197,23.26209,-0.97403,9.63,-1.47,0.06,3.0
1758088050.50369,1758087980.08924,0.0,0.0,0.0,8.59437,23.26209,-2.29183,9.75,-1.32,-0.04,3.0
1758088050.52078,1758087980.09924,0.0,0.0,0.0,11.00079,21.48592,-4.35448,10.01,-1.36,0.07,3.0
1758088050.52274,1758087980.10924,0.0,0.0,0.0,13.17803,21.88699,-5.21392,10.01,-1.36,0.07,3.0
1758088050.53772,1758087980.11924,0.0,0.0,0.0,16.3293,21.02755,-5.21392,10.54,-1.71,0.42,3.0
1758088050.53899,1758087980.12924,0.0,0.0,0.0,22.28806,19.76705,-4.0107,10.54,-1.71,0.42,3.0
1758088050.55451,1758087980.13924,0.0,0.0,0.0,26.47065,16.38659,-2.23454,10.93,-2.24,0.86,3.0
1758088050.57179,1758087980.14924,0.0,0.0,0.0,30.59595,7.39116,-1.08862,10.93,-2.24,0.86,3.0
1758088050.57299,1758087980.15924,0.0,0.0,0.0,34.66395,-17.87628,-0.17189,10.6,-2.76,2.45,3.0
1758088050.58979,1758087980.16924,0.0,0.0,0.0,39.76327,-62.33781,6.87549,10.6,-2.76,2.45,3.0
1758088050.59095,1758087980.17924,0.0,0.0,0.0,40.68,-55.23313,7.39116,10.6,-2.61,3.82,3.0
1758088050.60568,1758087980.18924,0.0,0.0,0.0,44.11775,-23.89234,11.17268,18.36,-2.34,2.56,3.0
1758088050.62203,1758087980.19924,0.0,0.0,0.0,45.26366,-3.03668,9.74028,18.36,-2.34,2.56,3.0
1758088050.62327,1758087980.20924,0.0,0.0,0.0,42.91454,-1.03132,1.60428,16.46,-1.61,3.86,3.0
1758088050.63771,1758087980.21924,0.0,0.0,0.0,40.85189,-5.61499,-4.52637,16.46,-1.61,3.86,3.0
1758088050.63988,1758087980.22924,0.0,0.0,0.0,40.33623,-7.21927,-9.62569,13.89,-1.0,3.31,3.0
1758088050.65505,1758087980.23924,0.0,0.0,0.0,40.7373,-17.58981,-14.03747,13.89,-1.0,3.31,3.0
1758088050.67104,1758087980.24924,0.0,0.0,0.0,42.57077,-36.84119,-13.86558,11.95,-0.23,2.12,3.0
1758088050.67225,1758087980.25924,0.0,0.0,0.0,45.72203,-45.03448,-10.25595,11.13,-0.34,2.53,3.0
1758088050.68706,1758087980.26924,0.0,0.0,0.0,48.9306,-47.49821,-5.55769,11.13,-0.34,2.53,3.0
1758088050.6888,1758087980.27924,0.0,0.0,0.0,51.50891,-48.30034,-2.29183,10.47,-0.78,2.45,3.0
1758088050.70597,1758087980.28924,0.0,0.0,0.0,54.60288,-47.78468,1.60428,10.47,-0.78,2.45,3.0
1758088050.72173,1758087980.29924,0.0,0.0,0.0,55.29043,-48.41494,2.11994,8.66,-1.13,2.51,3.0
1758088050.72298,1758087980.30924,0.0,0.0,0.0,54.48829,-48.07116,0.80214,8.66,-1.13,2.51,3.0
1758088050.73802,1758087980.31924,0.0,0.0,0.0,51.6235,-46.00851,-2.97938,7.26,-1.16,1.94,3.0
1758088050.73979,1758087980.32924,0.0,0.0,0.0,48.70141,-41.13837,-5.84417,7.27,-0.55,1.37,3.0
1758088050.75504,1758087980.33924,0.0,0.0,0.0,45.89392,-37.75792,-8.02141,7.27,-0.55,1.37,3.0
1758088050.77118,1758087980.34924,0.0,0.0,0.0,43.54479,-34.77854,-9.39651,8.05,0.4,1.58,3.0
1758088050.772,1758087980.35924,0.0,0.0,0.0,40.45082,-31.39809,-9.68299,8.05,0.4,1.58,3.0
1758088050.78718,1758087980.36924,0.0,0.0,0.0,38.56006,-28.87707,-9.28192,9.14,1.18,1.82,3.0
1758088050.78914,1758087980.37924,0.0,0.0,0.0,36.7266,-24.86637,-8.93814,9.14,1.18,1.82,3.0
1758088050.80597,1758087980.38924,0.0,0.0,0.0,34.95043,-19.70975,-8.25059,10.0,1.49,1.71,3.0
1758088050.82182,1758087980.39924,0.0,0.0,0.0,32.83048,-11.00079,-7.84952,9.94,1.49,1.71,3.0
1758088050.82252,1758087980.40924,0.0,0.0,0.0,31.56997,-6.13065,-8.59437,9.94,1.25,1.71,3.0
1758088050.8378,1758087980.41924,0.0,0.0,0.0,30.65324,-1.48969,-9.22462,9.45,0.71,1.64,3.0
1758088050.84059,1758087980.42924,0.0,0.0,0.0,29.50733,2.92208,-10.37054,9.45,0.71,1.64,3.0
1758088050.85609,1758087980.43924,0.0,0.0,0.0,28.24682,7.73493,-11.34457,9.43,0.5,1.49,3.0
1758088050.87196,1758087980.44924,0.0,0.0,0.0,27.04361,10.25595,-11.80293,9.43,0.5,1.49,3.0
1758088050.87261,1758087980.45924,0.0,0.0,0.0,26.01229,12.54778,-11.86023,9.41,0.53,1.13,3.0
1758088050.88814,1758087980.46924,0.0,0.0,0.0,24.57989,15.0115,-11.80293,9.41,0.53,1.13,3.0
1758088050.88984,1758087980.47924,0.0,0.0,0.0,22.23076,17.36062,-10.65701,9.32,0.31,1.01,3.0
1758088050.90482,1758087980.48924,0.0,0.0,0.0,20.45459,17.47521,-9.39651,9.02,0.27,0.93,3.0
1758088050.92186,1758087980.49924,0.0,0.0,0.0,18.73572,17.6471,-8.30789,9.02,0.27,0.93,3.0
1758088050.92258,1758087980.50924,0.0,0.0,0.0,17.24603,17.30333,-6.13065,8.82,0.32,1.0,3.0
1758088050.93911,1758087980.51924,0.0,0.0,0.0,15.29797,15.75634,-4.64096,8.82,0.32,1.0,3.0
1758088050.94035,1758087980.52924,0.0,0.0,0.0,14.32395,13.5791,-3.95341,8.59,0.32,1.01,3.0
1758088050.95513,1758087980.53924,0.0,0.0,0.0,13.34992,11.86023,-3.55234,8.59,0.32,1.01,3.0
1758088050.97114,1758087980.54924,0.0,0.0,0.0,12.54778,7.73493,-3.09397,8.44,0.27,1.01,3.0
1758088050.97278,1758087980.55924,0.0,0.0,0.0,11.86023,4.92744,-3.66693,8.38,0.3,1.01,3.0
1758088050.98819,1758087980.56924,0.0,0.0,0.0,10.59972,3.95341,-4.98473,8.38,0.3,1.01,3.0
1758088050.98935,1758087980.57924,0.0,0.0,0.0,9.28192,2.34913,-6.7609,8.52,0.49,0.96,3.0
1758088051.00393,1758087980.58924,0.0,0.0,0.0,7.10468,-1.3751,-9.68299,8.52,0.49,0.96,3.0
1758088051.01999,1758087980.59924,0.0,0.0,0.0,6.47442,-4.98473,-11.00079,8.36,0.76,0.73,3.0
1758088051.02191,1758087980.60924,0.0,0.0,0.0,5.72958,-6.35983,-12.43318,8.36,0.76,0.73,3.0
1758088051.03719,1758087980.61924,0.0,0.0,0.0,5.84417,-8.02141,-13.06344,8.46,0.73,0.35,3.0
1758088051.03837,1758087980.62924,0.0,0.0,0.0,7.33386,-10.94349,-12.204,8.51,0.39,0.08,3.0
1758088051.05309,1758087980.63924,0.0,0.0,0.0,8.76626,-12.54778,-10.94349,8.51,0.39,0.08,3.0
1758088051.06997,1758087980.64924,0.0,0.0,0.0,10.25595,-13.06344,-8.93814,8.79,0.0,0.09,3.0
1758088051.07201,1758087980.65924,0.0,0.0,0.0,11.97482,-12.54778,-6.70361,8.79,0.0,0.09,3.0
1758088051.08691,1758087980.66924,0.0,0.0,0.0,13.75099,-9.74028,-3.72423,9.23,-0.27,0.2,3.0
1758088051.08823,1758087980.67924,0.0,0.0,0.0,14.61043,-6.18794,-2.40642,9.23,-0.27,0.2,3.0
1758088051.10323,1758087980.68924,0.0,0.0,0.0,14.9542,-2.23454,-1.3178,9.66,-0.26,0.5,3.0
1758088051.12022,1758087980.69924,0.0,0.0,0.0,14.66772,1.66158,-0.45837,9.66,-0.26,0.5,3.0
1758088051.12139,1758087980.70924,0.0,0.0,0.0,13.17803,6.24524,0.0573,9.66,0.0,0.77,3.0
1758088051.13626,1758087980.71924,0.0,0.0,0.0,11.45916,10.02676,0.51566,9.57,0.43,0.68,3.0
1758088051.15204,1758087980.72924,0.0,0.0,0.0,9.28192,12.2613,1.08862,9.57,0.43,0.68,3.0
1758088051.15257,1758087980.73924,0.0,0.0,0.0,5.50039,13.00614,1.71887,9.37,0.7,0.37,3.0
1758088051.16899,1758087980.74924,0.0,0.0,0.0,3.26586,11.97482,2.46372,9.37,0.7,0.37,3.0
1758088051.17001,1758087980.75924,0.0,0.0,0.0,1.03132,11.91752,2.97938,9.23,0.66,0.11,3.0
1758088051.1853,1758087980.76924,0.0,0.0,0.0,-0.97403,13.69369,3.49504,9.23,0.66,0.11,3.0
1758088051.18645,1758087980.77924,0.0,0.0,0.0,-3.09397,16.04282,4.81285,9.64,0.41,-0.16,3.0
1758088051.2016,1758087980.78924,0.0,0.0,0.0,-4.29718,16.95955,6.24524,9.8,0.22,-0.34,3.0
1758088051.21706,1758087980.79924,0.0,0.0,0.0,-5.95876,20.34,7.10468,9.8,0.22,-0.34,3.0
1758088051.21819,1758087980.80924,0.0,0.0,0.0,-7.96411,23.94964,7.96411,10.21,0.24,-0.26,3.0
1758088051.23323,1758087980.81924,0.0,0.0,0.0,-11.80293,26.41335,7.73493,10.21,0.24,-0.26,3.0
1758088051.24932,1758087980.82924,0.0,0.0,0.0,-15.12609,27.04361,6.7609,10.19,0.56,0.04,3.0
1758088051.25097,1758087980.83924,0.0,0.0,0.0,-18.27736,28.70519,4.81285,10.19,0.56,0.04,3.0
1758088051.26603,1758087980.84924,0.0,0.0,0.0,-21.7724,29.50733,2.34913,10.47,0.9,0.43,3.0
1758088051.26722,1758087980.85924,0.0,0.0,0.0,-25.15285,24.17882,-1.3178,10.05,0.97,0.43,3.0
1758088051.28262,1758087980.86924,0.0,0.0,0.0,-26.01229,11.34457,-1.43239,10.05,0.97,0.43,3.0
1758088051.29853,1758087980.87924,0.0,0.0,0.0,-24.98096,-2.34913,-0.85944,8.98,0.59,0.19,3.0
1758088051.3003,1758087980.88924,0.0,0.0,0.0,-24.98096,-9.33921,0.34377,8.98,0.59,0.19,3.0
1758088051.31514,1758087980.89924,0.0,0.0,0.0,-22.97561,-37.01308,1.43239,8.93,0.0,0.35,3.0
1758088051.31649,1758087980.90924,0.0,0.0,0.0,-20.3973,-31.62727,1.66158,8.93,0.0,0.35,3.0
1758088051.33204,1758087980.91924,0.0,0.0,0.0,-18.50654,-1.43239,-1.14592,12.59,-0.08,1.45,3.0
1758088051.34702,1758087980.92924,0.0,0.0,0.0,-17.58981,20.51189,-8.136,12.59,-0.08,1.45,3.0
1758088051.34851,1758087980.93924,0.0,0.0,0.0,-13.46451,17.36062,-9.39651,14.8,-0.54,2.46,3.0
1758088051.36331,1758087980.94924,0.0,0.0,0.0,-10.48513,13.17803,-10.19865,12.27,-0.46,1.91,3.0
1758088051.3793,1758087980.95924,0.0,0.0,0.0,-7.04738,20.05352,-9.33921,12.27,-0.46,1.91,3.0
1758088051.3802,1758087980.96924,0.0,0.0,0.0,-3.83882,30.36677,-4.35448,14.4,-0.35,0.65,3.0
1758088051.39532,1758087980.97924,0.0,0.0,0.0,-3.09397,28.99167,0.45837,14.4,-0.35,0.65,3.0
1758088051.39625,1758087980.98924,0.0,0.0,0.0,-3.32316,27.78845,6.07335,13.43,0.09,2.23,3.0
1758088051.41159,1758087980.99924,0.0,0.0,0.0,-4.52637,28.30412,11.97482,13.43,0.09,2.23,3.0
1758088051.42726,1758087981.00924,0.0,0.0,0.0,-7.33386,25.43933,18.79302,14.72,0.78,2.76,3.0
1758088051.42825,1758087981.01924,0.0,0.0,0.0,-9.33921,21.14215,20.22541,14.31,0.95,2.61,3.0
1758088051.44338,1758087981.02924,0.0,0.0,0.0,-11.45916,15.12609,19.48057,14.31,0.95,2.61,3.0
1758088051.46037,1758087981.03924,0.0,0.0,0.0,-13.46451,8.70896,16.38659,12.87,0.71,2.4,3.0
1758088051.46157,1758087981.04924,0.0,0.0,0.0,-16.50119,0.11459,9.96947,12.87,0.71,2.4,3.0
1758088051.47637,1758087981.05924,0.0,0.0,0.0,-17.99088,-5.84417,5.95876,11.83,0.5,2.21,3.0
1758088051.4776,1758087981.06924,0.0,0.0,0.0,-19.36597,-12.54778,2.86479,11.83,0.5,2.21,3.0
1758088051.49264,1758087981.07924,0.0,0.0,0.0,-20.34,-19.48057,0.51566,10.11,0.33,2.47,3.0
1758088051.50918,1758087981.08924,0.0,0.0,0.0,-21.88699,-30.65324,-2.00535,8.33,0.13,2.86,3.0
1758088051.51006,1758087981.09924,0.0,0.0,0.0,-22.97561,-38.84654,-2.6929,8.33,0.13,2.86,3.0
1758088051.52508,1758087981.10924,0.0,0.0,0.0,-23.83505,-46.52417,-2.34913,7.39,-0.03,2.94,3.0
1758088051.52657,1758087981.11924,0.0,0.0,0.0,-24.57989,-53.11319,-1.48969,7.39,-0.03,2.94,3.0
1758088051.54267,1758087981.12924,0.0,0.0,0.0,-25.09555,-58.78547,0.22918,7.58,-0.24,2.46,3.0
1758088051.5581,1758087981.13924,0.0,0.0,0.0,-25.15285,-60.33246,1.3751,7.58,-0.24,2.46,3.0
1758088051.55928,1758087981.14924,0.0,0.0,0.0,-24.86637,-59.01466,1.66158,8.23,-0.66,1.64,3.0
1758088051.57416,1758087981.15924,0.0,0.0,0.0,-24.29341,-53.74345,1.3751,8.23,-0.66,1.64,3.0
1758088051.59014,1758087981.16924,0.0,0.0,0.0,-24.35071,-48.70141,0.85944,8.91,-1.06,1.46,3.0
1758088051.59133,1758087981.17924,0.0,0.0,0.0,-24.98096,-41.76862,0.45837,9.61,-1.17,1.64,3.0
1758088051.60613,1758087981.18924,0.0,0.0,0.0,-25.61122,-33.68992,0.40107,9.61,-1.17,1.64,3.0
1758088051.60732,1758087981.19924,0.0,0.0,0.0,-27.2155,-20.11082,1.43239,10.06,-1.09,1.37,3.0
1758088051.62236,1758087981.20924,0.0,0.0,0.0,-28.76248,-9.85487,2.34913,10.06,-1.09,1.37,3.0
1758088051.63816,1758087981.21924,0.0,0.0,0.0,-30.65324,0.68755,3.32316,10.04,-0.92,0.98,3.0
1758088051.63964,1758087981.22924,0.0,0.0,0.0,-32.77319,10.94349,4.52637,10.04,-0.92,0.98,3.0
1758088051.65516,1758087981.23924,0.0,0.0,0.0,-36.7266,24.5226,6.13065,9.85,-0.63,0.83,3.0
1758088051.65634,1758087981.24924,0.0,0.0,0.0,-39.13302,30.59595,7.21927,9.64,-0.36,1.07,3.0
1758088051.6727,1758087981.25924,0.0,0.0,0.0,-41.36755,34.66395,8.0787,9.64,-0.36,1.07,3.0
1758088051.68833,1758087981.26924,0.0,0.0,0.0,-42.91454,38.56006,8.93814,9.51,-0.13,0.79,3.0
1758088051.6894,1758087981.27924,0.0,0.0,0.0,-45.14908,43.94586,9.28192,9.51,-0.13,0.79,3.0
1758088051.70617,1758087981.28924,0.0,0.0,0.0,-47.03984,47.44091,8.59437,9.53,-0.01,0.72,3.0
1758088051.70734,1758087981.29924,0.0,0.0,0.0,-49.04519,51.16513,7.67763,9.53,-0.01,0.72,3.0
1758088051.72555,1758087981.30924,0.0,0.0,0.0,-51.50891,54.02992,5.21392,9.35,0.07,0.81,3.0
1758088051.7264,1758087981.31924,0.0,0.0,0.0,-54.71747,52.42564,0.51566,8.68,0.14,0.95,3.0
1758088051.74222,1758087981.32924,0.0,0.0,0.0,-55.97798,48.30034,-1.08862,8.68,0.14,0.95,3.0
1758088051.75828,1758087981.33924,0.0,0.0,0.0,-56.78012,44.11775,-2.06265,8.35,-0.18,0.84,3.0
1758088051.76022,1758087981.34924,0.0,0.0,0.0,-57.12389,41.65404,-2.34913,8.35,-0.18,0.84,3.0
1758088051.77545,1758087981.35924,0.0,0.0,0.0,-56.83742,36.95578,-2.34913,8.3,-0.67,0.83,3.0
1758088051.77643,1758087981.36924,0.0,0.0,0.0,-55.7488,33.9764,-1.3751,8.3,-0.67,0.83,3.0
1758088051.79253,1758087981.37924,0.0,0.0,0.0,-53.80074,30.65324,-0.45837,7.83,-1.18,1.0,3.0
1758088051.80843,1758087981.38924,0.0,0.0,0.0,-49.33167,23.72045,1.60428,7.83,-1.18,1.0,3.0
1758088051.80945,1758087981.39924,0.0,0.0,0.0,-45.09178,17.6471,2.46372,7.55,-1.67,0.94,3.0
1758088051.82449,1758087981.40924,0.0,0.0,0.0,-40.96649,12.89155,3.89611,7.45,-2.12,0.81,3.0
1758088051.8406,1758087981.41924,0.0,0.0,0.0,-36.32552,7.67763,4.29718,7.45,-2.12,0.81,3.0
1758088051.84146,1758087981.42924,0.0,0.0,0.0,-29.67921,0.80214,3.89611,7.47,-2.34,0.5,3.0
1758088051.85629,1758087981.43924,0.0,0.0,0.0,-26.01229,-1.3751,3.26586,7.47,-2.34,0.5,3.0
1758088051.85747,1758087981.44924,0.0,0.0,0.0,-22.63183,-3.89611,2.00535,7.81,-2.13,0.63,3.0
1758088051.87249,1758087981.45924,0.0,0.0,0.0,-19.53786,-5.61499,0.45837,7.81,-2.13,0.63,3.0
1758088051.88827,1758087981.46924,0.0,0.0,0.0,-16.04282,-5.4431,-1.14592,8.23,-1.71,0.66,3.0
1758088051.88947,1758087981.47924,0.0,0.0,0.0,-14.03747,-4.69825,-2.29183,8.9,-1.43,0.96,3.0
1758088051.90629,1758087981.48924,0.0,0.0,0.0,-12.54778,-2.29183,-2.46372,8.9,-1.43,0.96,3.0
1758088051.90751,1758087981.49924,0.0,0.0,0.0,-11.34457,1.14592,-2.92208,9.54,-1.37,0.97,3.0
1758088051.92229,1758087981.50924,0.0,0.0,0.0,-10.02676,8.136,-3.03668,9.54,-1.37,0.97,3.0
1758088051.93859,1758087981.51924,0.0,0.0,0.0,-9.28192,11.74564,-3.09397,9.69,-1.41,0.74,3.0
1758088051.94074,1758087981.52924,0.0,0.0,0.0,-8.76626,16.10011,-3.49504,9.69,-1.41,0.74,3.0
1758088051.95563,1758087981.53924,0.0,0.0,0.0,-7.79223,19.53786,-4.29718,9.53,-1.5,0.41,3.0
1758088051.95764,1758087981.54924,0.0,0.0,0.0,-4.98473,24.12152,-4.98473,9.56,-1.68,0.18,3.0
1758088051.97349,1758087981.55924,0.0,0.0,0.0,-2.6929,26.24147,-5.15662,9.56,-1.68,0.18,3.0
1758088051.99107,1758087981.56924,0.0,0.0,0.0,0.11459,25.89769,-5.61499,9.58,-1.82,0.24,3.0
1758088051.99231,1758087981.57924,0.0,0.0,0.0,4.35448,23.66316,-6.53172,9.58,-1.82,0.24,3.0
1758088052.00765,1758087981.58924,0.0,0.0,0.0,7.79223,21.31403,-6.99009,9.83,-1.92,0.33,3.0
1758088052.00885,1758087981.59924,0.0,0.0,0.0,11.97482,17.87628,-6.99009,9.83,-1.92,0.33,3.0
1758088052.0236,1758087981.60924,0.0,0.0,0.0,16.61578,14.09476,-6.58902,10.12,-2.13,0.64,3.0
1758088052.03959,1758087981.61924,0.0,0.0,0.0,24.23611,3.20856,-5.78687,10.23,-2.13,1.32,3.0
1758088052.04079,1758087981.62924,0.0,0.0,0.0,29.50733,-11.45916,-3.49504,10.23,-2.48,1.32,3.0
1758088052.0554,1758087981.63924,0.0,0.0,0.0,34.60666,-26.64254,0.11459,10.03,-2.83,2.52,3.0
1758088052.05678,1758087981.64924,0.0,0.0,0.0,38.90384,-42.51347,5.72958,10.03,-2.83,2.52,3.0
1758088052.07234,1758087981.65924,0.0,0.0,0.0,41.08107,-61.76485,12.37589,11.33,-3.13,2.84,3.0
1758088052.08844,1758087981.66924,0.0,0.0,0.0,41.59674,-60.96271,16.50119,11.33,-3.13,2.84,3.0
1758088052.08952,1758087981.67924,0.0,0.0,0.0,41.08107,-40.7946,15.98552,14.65,-3.23,2.12,3.0
1758088052.10444,1758087981.68924,0.0,0.0,0.0,39.53409,-20.05352,14.66772,14.65,-3.23,2.12,3.0
1758088052.10633,1758087981.69924,0.0,0.0,0.0,36.61201,-8.65166,7.96411,16.75,-2.73,3.44,3.0
1758088052.12258,1758087981.70924,0.0,0.0,0.0,34.26288,-8.70896,2.57831,14.42,-1.74,3.64,3.0
1758088052.13834,1758087981.71924,0.0,0.0,0.0,32.77319,-6.99009,-1.71887,14.42,-1.74,3.64,3.0
1758088052.13957,1758087981.72924,0.0,0.0,0.0,31.51268,-5.15662,-4.46907,13.73,-0.4,2.43,3.0
1758088052.15465,1758087981.73924,0.0,0.0,0.0,32.88778,-15.12609,-5.95876,13.73,-0.4,2.43,3.0
1758088052.17061,1758087981.74924,0.0,0.0,0.0,34.49206,-34.72124,-5.72958,10.94,0.25,2.48,3.0
1758088052.17161,1758087981.75924,0.0,0.0,0.0,38.1017,-45.49285,-3.60963,10.94,0.25,2.48,3.0
1758088052.1866,1758087981.76924,0.0,0.0,0.0,45.89392,-54.66018,2.23454,10.06,-0.25,1.94,3.0
1758088052.18758,1758087981.77924,0.0,0.0,0.0,50.93595,-54.94666,5.50039,10.29,-1.06,1.93,3.0
1758088052.20236,1758087981.78924,0.0,0.0,0.0,54.66018,-54.25911,6.58902,10.29,-1.06,1.93,3.0
1758088052.2194,1758087981.79924,0.0,0.0,0.0,58.04062,-57.46767,7.10468,8.36,-1.31,2.15,3.0
1758088052.22045,1758087981.80924,0.0,0.0,0.0,60.27517,-60.27517,4.23989,8.36,-1.31,2.15,3.0
1758088052.23539,1758087981.81924,0.0,0.0,0.0,60.16057,-57.46767,1.08862,7.47,-1.0,1.48,3.0
1758088052.2366,1758087981.82924,0.0,0.0,0.0,58.49899,-53.05589,-2.29183,7.47,-1.0,1.48,3.0
1758088052.25264,1758087981.83924,0.0,0.0,0.0,55.34772,-49.04519,-5.72958,7.83,0.13,1.24,3.0
1758088052.26841,1758087981.84924,0.0,0.0,0.0,49.79003,-43.77398,-8.47978,8.53,1.59,1.52,3.0
1758088052.26962,1758087981.85924,0.0,0.0,0.0,46.1231,-39.07573,-9.4538,8.53,1.59,1.52,3.0
1758088052.28475,1758087981.86924,0.0,0.0,0.0,42.85724,-34.77854,-9.11003,9.97,2.27,1.45,3.0
1758088052.30127,1758087981.87924,0.0,0.0,0.0,39.99245,-29.56462,-8.42248,9.97,2.27,1.45,3.0
1758088052.30268,1758087981.88924,0.0,0.0,0.0,36.38282,-20.74107,-6.53172,10.67,2.03,1.48,3.0
1758088052.31754,1758087981.89924,0.0,0.0,0.0,34.43476,-14.38124,-5.72958,10.67,2.03,1.48,3.0
1758088052.3189,1758087981.90924,0.0,0.0,0.0,33.00237,-7.96411,-5.15662,10.38,1.06,1.29,3.0
1758088052.33345,1758087981.91924,0.0,0.0,0.0,32.08564,-1.14592,-4.64096,10.38,1.06,1.29,3.0
1758088052.35041,1758087981.92924,0.0,0.0,0.0,31.51268,7.96411,-4.52637,10.09,0.32,1.21,3.0
1758088052.35194,1758087981.93924,0.0,0.0,0.0,31.56997,13.00614,-4.46907,9.89,0.15,1.24,3.0
1758088052.36649,1758087981.94924,0.0,0.0,0.0,31.74186,17.36062,-4.98473,9.89,0.15,1.24,3.0
1758088052.36791,1758087981.95924,0.0,0.0,0.0,31.97105,20.68378,-5.78687,9.68,0.25,1.03,3.0
1758088052.38277,1758087981.96924,0.0,0.0,0.0,32.25753,23.0902,-6.18794,9.68,0.25,1.03,3.0
1758088052.39873,1758087981.97924,0.0,0.0,0.0,32.88778,23.94964,-6.58902,9.25,0.36,0.9,3.0
1758088052.40044,1758087981.98924,0.0,0.0,0.0,34.09099,24.86637,-7.39116,9.25,0.36,0.9,3.0
1758088052.41551,1758087981.99924,0.0,0.0,0.0,36.03905,23.83505,-7.67763,8.81,0.41,0.82,3.0
1758088052.41668,1758087982.00924,0.0,0.0,0.0,37.18496,22.28806,-7.44845,8.37,0.26,0.85,3.0
1758088052.43249,1758087982.01924,0.0,0.0,0.0,37.81522,21.60051,-7.10468,8.37,0.26,0.85,3.0
1758088052.44852,1758087982.02924,0.0,0.0,0.0,38.56006,20.68378,-6.35983,8.33,0.06,0.89,3.0
1758088052.44967,1758087982.03924,0.0,0.0,0.0,38.78925,18.16276,-5.21392,8.33,0.06,0.89,3.0
1758088052.46496,1758087982.04924,0.0,0.0,0.0,38.73195,16.38659,-4.35448,8.16,0.04,0.9,3.0
1758088052.48063,1758087982.05924,0.0,0.0,0.0,37.92981,14.72501,-3.49504,8.16,0.04,0.9,3.0
1758088052.48167,1758087982.06924,0.0,0.0,0.0,36.49741,12.71966,-3.20856,8.23,0.19,1.04,3.0
1758088052.49675,1758087982.07924,0.0,0.0,0.0,33.23156,10.37054,-4.23989,8.3,0.55,0.81,3.0
1758088052.49766,1758087982.08924,0.0,0.0,0.0,30.76784,8.36518,-5.15662,8.3,0.55,0.81,3.0
1758088052.51269,1758087982.09924,0.0,0.0,0.0,28.41871,6.99009,-6.18794,8.32,0.91,0.45,3.0
1758088052.5288,1758087982.10924,0.0,0.0,0.0,26.41335,4.69825,-6.58902,8.32,0.91,0.45,3.0
1758088052.52971,1758087982.11924,0.0,0.0,0.0,24.12152,1.03132,-6.8182,8.12,1.04,0.12,3.0
1758088052.54476,1758087982.12924,0.0,0.0,0.0,23.0902,-0.74485,-6.53172,8.12,1.04,0.12,3.0
1758088052.54655,1758087982.13924,0.0,0.0,0.0,22.57454,-2.06265,-5.90147,8.2,0.99,-0.04,3.0
1758088052.56273,1758087982.14924,0.0,0.0,0.0,22.23076,-2.6929,-5.09932,8.2,0.99,-0.04,3.0
1758088052.57877,1758087982.15924,0.0,0.0,0.0,21.7151,-2.00535,-4.81285,8.58,0.83,0.05,3.0
1758088052.58065,1758087982.16924,0.0,0.0,0.0,21.31403,-0.45837,-4.64096,9.2,0.65,0.32,3.0
1758088052.5958,1758087982.17924,0.0,0.0,0.0,20.97026,1.83346,-4.87014,9.2,0.65,0.32,3.0
1758088052.59671,1758087982.18924,0.0,0.0,0.0,20.3973,5.84417,-4.87014,9.75,0.52,0.61,3.0
1758088052.61254,1758087982.19924,0.0,0.0,0.0,19.59516,8.93814,-4.52637,9.75,0.52,0.61,3.0
1758088052.6288,1758087982.20924,0.0,0.0,0.0,18.62113,11.45916,-3.95341,9.89,0.44,0.6,3.0
1758088052.6297,1758087982.21924,0.0,0.0,0.0,17.58981,12.71966,-3.38045,9.89,0.44,0.6,3.0
1758088052.64482,1758087982.22924,0.0,0.0,0.0,15.35527,14.09476,-2.29183,9.68,0.4,0.42,3.0
1758088052.66083,1758087982.23924,0.0,0.0,0.0,13.46451,15.24068,-1.71887,9.67,0.46,0.26,3.0
1758088052.66178,1758087982.24924,0.0,0.0,0.0,11.51645,16.73037,-1.14592,9.67,0.46,0.26,3.0
1758088052.67654,1758087982.25924,0.0,0.0,0.0,9.85487,17.99088,-0.40107,9.8,0.47,0.04,3.0
1758088052.67775,1758087982.26924,0.0,0.0,0.0,7.39116,19.19409,0.97403,9.8,0.47,0.04,3.0
1758088052.69382,1758087982.27924,0.0,0.0,0.0,5.78687,21.88699,1.66158,9.88,0.42,-0.03,3.0
1758088052.70988,1758087982.28924,0.0,0.0,0.0,4.46907,24.35071,3.20856,9.88,0.42,-0.03,3.0
1758088052.71183,1758087982.29924,0.0,0.0,0.0,2.86479,25.55392,4.46907,9.86,0.44,-0.13,3.0
1758088052.72662,1758087982.30924,0.0,0.0,0.0,-0.34377,25.26744,6.8182,9.73,0.64,0.27,3.0
1758088052.72781,1758087982.31924,0.0,0.0,0.0,-3.55234,25.15285,6.87549,9.73,0.64,0.27,3.0
1758088052.74361,1758087982.32924,0.0,0.0,0.0,-6.99009,24.63719,6.87549,9.94,1.04,0.66,3.0
1758088052.75987,1758087982.33924,0.0,0.0,0.0,-11.28727,24.17882,5.4431,9.94,1.04,0.66,3.0
1758088052.76168,1758087982.34924,0.0,0.0,0.0,-17.24603,23.37668,2.92208,10.22,1.5,0.86,3.0
1758088052.77688,1758087982.35924,0.0,0.0,0.0,-20.16812,15.87093,1.14592,10.22,1.5,0.86,3.0
1758088052.77784,1758087982.36924,0.0,0.0,0.0,-21.94428,-1.77617,1.20321,9.51,1.67,0.81,3.0
1758088052.79273,1758087982.37924,0.0,0.0,0.0,-23.26209,-22.63183,-0.80214,9.51,1.67,0.81,3.0
1758088052.80867,1758087982.38924,0.0,0.0,0.0,-21.7724,-32.88778,2.11994,9.07,1.58,1.17,3.0
1758088052.80986,1758087982.39924,0.0,0.0,0.0,-24.23611,-52.65482,-3.09397,10.83,1.48,2.11,3.0
1758088052.8247,1758087982.40924,0.0,0.0,0.0,-24.80907,-31.79916,-5.4431,10.83,1.48,2.11,3.0
1758088052.84085,1758087982.41924,0.0,0.0,0.0,-28.36141,3.55234,-11.86023,17.73,1.39,2.65,3.0
1758088052.84182,1758087982.42924,0.0,0.0,0.0,-28.64789,10.48513,-12.60507,17.73,1.39,2.65,3.0
1758088052.85693,1758087982.43924,0.0,0.0,0.0,-27.04361,8.99544,-11.00079,15.84,0.75,3.13,3.0
1758088052.85784,1758087982.44924,0.0,0.0,0.0,-25.09555,12.43318,-7.21927,15.84,0.75,3.13,3.0
1758088052.87291,1758087982.45924,0.0,0.0,0.0,-22.97561,19.48057,1.43239,15.7,0.29,1.81,3.0
1758088052.88899,1758087982.46924,0.0,0.0,0.0,-22.11617,20.68378,8.02141,14.58,-0.23,1.79,3.0
1758088052.88987,1758087982.47924,0.0,0.0,0.0,-21.08485,21.08485,13.34992,14.58,-0.23,1.79,3.0
1758088052.90493,1758087982.48924,0.0,0.0,0.0,-20.34,20.85567,16.272,13.18,-0.35,2.2,3.0
1758088052.92099,1758087982.49924,0.0,0.0,0.0,-19.88164,19.88164,17.18874,13.18,-0.35,2.2,3.0
1758088052.92186,1758087982.50924,0.0,0.0,0.0,-20.16812,18.33465,15.0115,12.2,-0.04,2.29,3.0
1758088052.93694,1758087982.51924,0.0,0.0,0.0,-21.02755,14.09476,11.22997,12.2,-0.04,2.29,3.0
1758088052.93791,1758087982.52924,0.0,0.0,0.0,-22.11617,7.10468,6.87549,10.41,0.42,2.64,3.0
1758088052.95293,1758087982.53924,0.0,0.0,0.0,-24.92367,-3.66693,0.51566,8.51,0.76,2.62,3.0
1758088052.9687,1758087982.54924,0.0,0.0,0.0,-27.1582,-10.59972,-2.6929,8.51,0.76,2.62,3.0
1758088052.96993,1758087982.55924,0.0,0.0,0.0,-29.27814,-17.13144,-4.58366,7.31,1.01,2.72,3.0
1758088052.98473,1758087982.56924,0.0,0.0,0.0,-32.20023,-23.26209,-5.09932,7.31,1.01,2.72,3.0
1758088053.00071,1758087982.57924,0.0,0.0,0.0,-33.51803,-30.88243,-3.55234,7.01,0.89,2.19,3.0
1758088053.00204,1758087982.58924,0.0,0.0,0.0,-33.80451,-33.05967,-1.14592,7.01,0.89,2.19,3.0
1758088053.01673,1758087982.59924,0.0,0.0,0.0,-33.63263,-33.80451,1.08862,7.88,0.09,1.96,3.0
1758088053.01839,1758087982.60924,0.0,0.0,0.0,-32.37212,-32.77319,3.49504,7.88,0.09,1.96,3.0
1758088053.03275,1758087982.61924,0.0,0.0,0.0,-31.39809,-31.2262,4.52637,8.82,-0.98,1.89,3.0
1758088053.04903,1758087982.62924,0.0,0.0,0.0,-30.30947,-27.78845,5.32851,10.03,-1.94,2.23,3.0
1758088053.05005,1758087982.63924,0.0,0.0,0.0,-28.99167,-22.91831,5.95876,10.03,-1.94,2.23,3.0
1758088053.06504,1758087982.64924,0.0,0.0,0.0,-27.1582,-14.83961,6.47442,10.76,-2.37,1.99,3.0
1758088053.08081,1758087982.65924,0.0,0.0,0.0,-26.41335,-9.11003,6.7609,10.76,-2.37,1.99,3.0
1758088053.08203,1758087982.66924,0.0,0.0,0.0,-26.01229,-2.46372,7.33386,10.46,-1.95,1.73,3.0
1758088053.09701,1758087982.67924,0.0,0.0,0.0,-26.06958,4.29718,8.02141,10.46,-1.95,1.73,3.0
1758088053.0987,1758087982.68924,0.0,0.0,0.0,-26.98631,13.34992,9.11003,9.94,-0.98,1.49,3.0
1758088053.1138,1758087982.69924,0.0,0.0,0.0,-27.73116,17.58981,9.96947,9.46,-0.23,1.44,3.0
1758088053.13084,1758087982.70924,0.0,0.0,0.0,-28.476,21.08485,10.94349,9.46,-0.23,1.44,3.0
1758088053.13207,1758087982.71924,0.0,0.0,0.0,-29.33544,24.23611,11.51645,9.37,0.0,1.36,3.0
1758088053.1468,1758087982.72924,0.0,0.0,0.0,-30.88243,27.44468,12.37589,9.37,0.0,1.36,3.0
1758088053.14829,1758087982.73924,0.0,0.0,0.0,-32.14294,29.8511,12.43318,9.3,-0.07,1.44,3.0
1758088053.16307,1758087982.74924,0.0,0.0,0.0,-33.9764,31.45539,11.57375,9.3,-0.07,1.44,3.0
1758088053.17908,1758087982.75924,0.0,0.0,0.0,-36.03905,32.20023,10.08406,9.12,-0.22,1.55,3.0
1758088053.18018,1758087982.76924,0.0,0.0,0.0,-39.3622,33.23156,8.47978,8.76,-0.29,1.52,3.0
1758088053.19564,1758087982.77924,0.0,0.0,0.0,-41.88322,32.08564,6.47442,8.76,-0.29,1.52,3.0
1758088053.19679,1758087982.78924,0.0,0.0,0.0,-44.23235,30.36677,4.64096,8.15,-0.28,1.44,3.0
1758088053.21309,1758087982.79924,0.0,0.0,0.0,-47.61279,25.43933,1.3751,8.15,-0.28,1.44,3.0
1758088053.22911,1758087982.80924,0.0,0.0,0.0,-48.58683,21.42862,0.11459,7.52,-0.3,1.42,3.0
1758088053.23004,1758087982.81924,0.0,0.0,0.0,-48.58683,17.36062,-0.11459,7.52,-0.3,1.42,3.0
1758088053.245,1758087982.82924,0.0,0.0,0.0,-47.32632,12.37589,0.51566,7.28,-0.52,1.34,3.0
1758088053.26107,1758087982.83924,0.0,0.0,0.0,-43.83128,6.53172,2.40642,7.28,-0.52,1.17,3.0
1758088053.26235,1758087982.84924,0.0,0.0,0.0,-40.7946,3.49504,3.72423,7.26,-1.04,1.17,3.0
1758088053.2771,1758087982.85924,0.0,0.0,0.0,-37.52874,1.14592,4.98473,7.47,-1.63,1.18,3.0
1758088053.27833,1758087982.86924,0.0,0.0,0.0,-34.26288,-2.11994,5.50039,7.47,-1.63,1.18,3.0
1758088053.29285,1758087982.87924,0.0,0.0,0.0,-29.33544,-4.52637,5.50039,7.51,-2.01,0.95,3.0
1758088053.30875,1758087982.88924,0.0,0.0,0.0,-26.24147,-5.61499,4.58366,7.51,-2.01,0.95,3.0
1758088053.31159,1758087982.89924,0.0,0.0,0.0,-23.49127,-5.32851,3.95341,7.94,-2.06,0.94,3.0
1758088053.32676,1758087982.90924,0.0,0.0,0.0,-20.68378,-4.81285,3.20856,7.94,-2.06,0.94,3.0
1758088053.328,1758087982.91924,0.0,0.0,0.0,-16.55848,-1.43239,3.09397,8.56,-1.91,0.9,3.0
1758088053.34276,1758087982.92924,0.0,0.0,0.0,-13.86558,2.06265,3.20856,9.47,-1.56,1.0,3.0
1758088053.35877,1758087982.93924,0.0,0.0,0.0,-11.91752,6.58902,3.72423,9.47,-1.56,1.0,3.0
1758088053.36082,1758087982.94924,0.0,0.0,0.0,-10.65701,10.02676,3.72423,9.72,-1.23,0.96,3.0
1758088053.37577,1758087982.95924,0.0,0.0,0.0,-9.74028,15.41257,3.32316,9.72,-1.23,0.96,3.0
1758088053.37702,1758087982.96924,0.0,0.0,0.0,-9.91217,18.22006,2.40642,9.62,-1.03,0.87,3.0
1758088053.3929,1758087982.97924,0.0,0.0,0.0,-10.19865,20.34,1.60428,9.62,-1.03,0.87,3.0
1758088053.40921,1758087982.98924,0.0,0.0,0.0,-10.8862,21.31403,0.34377,9.45,-0.89,0.85,3.0
1758088053.41041,1758087982.99924,0.0,0.0,0.0,-10.94349,21.31403,-0.40107,9.46,-0.88,0.77,3.0
1758088053.42494,1758087983.00924,0.0,0.0,0.0,-10.8289,21.60051,-1.66158,9.46,-0.88,0.77,3.0
1758088053.4412,1758087983.01924,0.0,0.0,0.0,-9.96947,20.74107,-1.83346,9.74,-1.02,0.77,3.0
1758088053.44243,1758087983.02924,0.0,0.0,0.0,-8.36518,21.08485,-3.20856,9.74,-1.02,0.77,3.0
1758088053.45723,1758087983.03924,0.0,0.0,0.0,-6.70361,22.28806,-3.95341,9.86,-1.32,0.52,3.0
1758088053.45814,1758087983.04924,0.0,0.0,0.0,-4.52637,22.91831,-4.69825,9.86,-1.32,0.52,3.0
1758088053.47321,1758087983.05924,0.0,0.0,0.0,-1.71887,21.37133,-4.92744,9.77,-1.61,0.32,3.0
1758088053.48919,1758087983.06924,0.0,0.0,0.0,3.72423,18.62113,-3.89611,9.8,-1.91,0.52,3.0
1758088053.49016,1758087983.07924,0.0,0.0,0.0,8.70896,16.38659,-2.00535,9.8,-1.91,0.52,3.0
1758088053.50523,1758087983.08924,0.0,0.0,0.0,13.5218,13.75099,0.0,10.2,-2.34,0.59,3.0
1758088053.52097,1758087983.09924,0.0,0.0,0.0,18.50654,10.48513,2.11994,10.2,-2.34,0.59,3.0
1758088053.5222,1758087983.10924,0.0,0.0,0.0,24.5226,-1.14592,3.72423,10.58,-2.78,0.98,3.0
1758088053.537,1758087983.11924,0.0,0.0,0.0,27.2155,-27.84575,3.66693,10.58,-2.78,0.98,3.0
1758088053.53814,1758087983.12924,0.0,0.0,0.0,30.30947,-52.19646,6.41713,8.73,-2.92,2.35,3.0
1758088053.55304,1758087983.13924,0.0,0.0,0.0,32.83048,-40.27893,7.44845,8.73,-2.92,2.35,3.0
1758088053.56927,1758087983.14924,0.0,0.0,0.0,34.60666,-6.24524,8.47978,14.33,-2.81,2.69,3.0
1758088053.57022,1758087983.15924,0.0,0.0,0.0,37.24226,-9.74028,14.09476,15.33,-2.37,4.81,3.0
1758088053.58532,1758087983.16924,0.0,0.0,0.0,35.2942,-12.71966,9.22462,15.33,-2.37,4.81,3.0
1758088053.60108,1758087983.17924,0.0,0.0,0.0,34.0337,-27.96034,6.7609,14.17,-1.99,3.57,3.0
1758088053.60224,1758087983.18924,0.0,0.0,0.0,33.17426,-35.2369,5.72958,14.17,-1.99,3.57,3.0
1758088053.61741,1758087983.19924,0.0,0.0,0.0,34.32018,-32.54401,5.50039,15.22,-2.13,1.72,3.0
1758088053.61823,1758087983.20924,0.0,0.0,0.0,35.3515,-28.76248,3.26586,15.22,-2.13,1.72,3.0
1758088053.63334,1758087983.21924,0.0,0.0,0.0,37.81522,-30.93972,1.08862,13.19,-1.74,2.76,3.0
1758088053.64909,1758087983.22924,0.0,0.0,0.0,39.4195,-32.6013,0.0573,11.01,-1.11,3.33,3.0
1758088053.65024,1758087983.23924,0.0,0.0,0.0,40.7373,-33.63263,-0.97403,11.01,-1.11,3.33,3.0
1758088053.6653,1758087983.24924,0.0,0.0,0.0,41.48215,-34.49206,-2.63561,10.07,-0.54,2.97,3.0
1758088053.68136,1758087983.25924,0.0,0.0,0.0,42.91454,-37.92981,-5.09932,10.07,-0.54,2.97,3.0
1758088053.68257,1758087983.26924,0.0,0.0,0.0,44.23235,-39.4195,-5.72958,8.52,-0.32,2.36,3.0
1758088053.69715,1758087983.27924,0.0,0.0,0.0,45.55015,-40.68,-6.07335,8.52,-0.32,2.36,3.0
1758088053.69824,1758087983.28924,0.0,0.0,0.0,46.81066,-42.1124,-5.72958,7.65,-0.54,1.52,3.0
1758088053.71305,1758087983.29924,0.0,0.0,0.0,49.21708,-42.34158,-4.52637,7.61,-0.75,1.22,3.0
1758088053.73008,1758087983.30924,0.0,0.0,0.0,50.01921,-39.99245,-3.38045,7.61,-0.75,1.22,3.0
1758088053.73174,1758087983.31924,0.0,0.0,0.0,50.1911,-37.64333,-2.23454,8.54,-0.63,1.73,3.0
1758088053.7461,1758087983.32924,0.0,0.0,0.0,49.67545,-34.89313,-1.3751,8.54,-0.63,1.73,3.0
1758088053.74727,1758087983.33924,0.0,0.0,0.0,47.38361,-30.65324,-0.57296,9.62,-0.23,2.07,3.0
1758088053.7631,1758087983.34924,0.0,0.0,0.0,45.09178,-25.89769,-1.08862,9.62,-0.23,2.07,3.0
1758088053.77942,1758087983.35924,0.0,0.0,0.0,42.39888,-19.59516,-2.00535,10.5,0.28,1.84,3.0
1758088053.78029,1758087983.36924,0.0,0.0,0.0,40.04975,-13.69369,-3.03668,10.5,0.28,1.84,3.0
1758088053.79509,1758087983.37924,0.0,0.0,0.0,37.29956,-5.61499,-5.15662,10.37,0.74,1.55,3.0
1758088053.81134,1758087983.38924,0.0,0.0,0.0,36.26823,-0.22918,-6.24524,9.9,0.76,1.29,3.0
1758088053.81257,1758087983.39924,0.0,0.0,0.0,36.03905,4.29718,-7.44845,9.9,0.76,1.29,3.0
1758088053.82739,1758087983.40924,0.0,0.0,0.0,36.49741,8.88085,-8.65166,9.49,0.44,1.04,3.0
1758088053.82861,1758087983.41924,0.0,0.0,0.0,37.29956,10.71431,-8.59437,9.49,0.44,1.04,3.0
1758088053.84418,1758087983.42924,0.0,0.0,0.0,38.15899,12.14671,-8.42248,9.4,0.09,1.28,3.0
1758088053.86038,1758087983.43924,0.0,0.0,0.0,38.90384,12.83425,-7.67763,9.4,0.09,1.28,3.0
1758088053.86132,1758087983.44924,0.0,0.0,0.0,40.50812,12.83425,-6.99009,9.37,-0.16,1.47,3.0
1758088053.87613,1758087983.45924,0.0,0.0,0.0,42.05511,13.17803,-7.39116,9.07,-0.27,1.58,3.0
1758088053.87744,1758087983.46924,0.0,0.0,0.0,43.83128,11.91752,-7.79223,9.07,-0.27,1.58,3.0
1758088053.89438,1758087983.47924,0.0,0.0,0.0,45.43555,10.48513,-8.42248,8.46,-0.19,1.39,3.0
1758088053.91042,1758087983.48924,0.0,0.0,0.0,47.44091,8.65166,-8.30789,8.46,-0.19,1.39,3.0
1758088053.91159,1758087983.49924,0.0,0.0,0.0,48.52953,7.04738,-8.30789,8.22,-0.03,1.45,3.0
1758088053.92614,1758087983.50924,0.0,0.0,0.0,48.64412,5.72958,-8.136,8.22,-0.03,1.45,3.0
1758088053.92734,1758087983.51924,0.0,0.0,0.0,47.89928,4.29718,-8.47978,7.93,0.19,1.27,3.0
1758088053.94442,1758087983.52924,0.0,0.0,0.0,45.72203,1.14592,-9.11003,7.73,0.47,1.0,3.0
1758088053.96094,1758087983.53924,0.0,0.0,0.0,43.77398,-1.08862,-9.5684,7.73,0.47,1.0,3.0
1758088053.96212,1758087983.54924,0.0,0.0,0.0,41.99781,-3.83882,-9.4538,7.71,0.67,0.77,3.0
1758088053.97713,1758087983.55924,0.0,0.0,0.0,39.87786,-5.78687,-9.39651,7.71,0.67,0.77,3.0
1758088053.99541,1758087983.56924,0.0,0.0,0.0,37.01308,-9.39651,-8.02141,7.76,0.74,0.59,3.0
1758088053.99561,1758087983.57924,0.0,0.0,0.0,35.12231,-11.91752,-6.53172,7.76,0.74,0.59,3.0
1758088054.01016,1758087983.58924,0.0,0.0,0.0,33.68992,-13.46451,-5.50039,7.92,0.69,0.62,3.0
1758088054.01171,1758087983.59924,0.0,0.0,0.0,31.56997,-13.40721,-3.83882,7.92,0.69,0.62,3.0
1758088054.02617,1758087983.60924,0.0,0.0,0.0,30.19488,-11.22997,-3.66693,8.52,0.61,0.52,3.0
1758088054.02732,1758087983.61924,0.0,0.0,0.0,29.10626,-7.79223,-3.49504,9.35,0.54,0.63,3.0
1758088054.04441,1758087983.62924,0.0,0.0,0.0,27.84575,-3.66693,-3.83882,9.35,0.54,0.63,3.0
1758088054.06197,1758087983.63924,0.0,0.0,0.0,26.64254,3.60963,-4.46907,9.81,0.42,0.65,3.0
1758088054.0646,1758087983.64924,0.0,0.0,0.0,25.89769,8.65166,-4.35448,9.81,0.42,0.65,3.0
1758088054.082,1758087983.65924,0.0,0.0,0.0,25.15285,13.69369,-4.23989,9.91,0.32,0.74,3.0
1758088054.08456,1758087983.66924,0.0,0.0,0.0,24.29341,17.24603,-3.72423,9.91,0.32,0.74,3.0
1758088054.10078,1758087983.67924,0.0,0.0,0.0,22.63183,20.97026,-2.7502,9.72,0.28,0.68,3.0
1758088054.10139,1758087983.68924,0.0,0.0,0.0,21.7724,22.23076,-1.83346,9.54,0.33,0.52,3.0
1758088054.11621,1758087983.69924,0.0,0.0,0.0,20.79837,22.68913,-0.97403,9.54,0.33,0.52,3.0
1758088054.11741,1758087983.70924,0.0,0.0,0.0,19.88164,20.68378,0.17189,9.38,0.41,0.27,3.0
1758088054.13457,1758087983.71924,0.0,0.0,0.0,18.56383,18.50654,2.06265,9.38,0.41,0.27,3.0
1758088054.15106,1758087983.72924,0.0,0.0,0.0,17.47521,19.53786,3.38045,9.47,0.4,0.02,3.0
1758088054.15247,1758087983.73924,0.0,0.0,0.0,16.21471,21.14215,4.46907,9.47,0.4,0.02,3.0
1758088054.16751,1758087983.74924,0.0,0.0,0.0,14.20935,23.0902,5.21392,9.64,0.45,0.17,3.0
1758088054.16844,1758087983.75924,0.0,0.0,0.0,9.85487,24.00693,5.21392,9.9,0.67,0.66,3.0
1758088054.18348,1758087983.76924,0.0,0.0,0.0,6.24524,24.35071,3.83882,9.9,0.67,0.66,3.0
1758088054.19923,1758087983.77924,0.0,0.0,0.0,2.46372,24.00693,1.83346,10.21,1.07,0.67,3.0
1758088054.20127,1758087983.78924,0.0,0.0,0.0,-1.43239,24.12152,-2.23454,10.21,1.07,0.67,3.0
1758088054.21652,1758087983.79924,0.0,0.0,0.0,-5.95876,18.50654,-4.81285,10.39,1.48,0.59,3.0
1758088054.21746,1758087983.80924,0.0,0.0,0.0,-8.47978,8.76626,-5.78687,10.39,1.48,0.59,3.0
1758088054.23421,1758087983.81924,0.0,0.0,0.0,-9.91217,0.45837,-5.90147,9.85,1.68,0.14,3.0
1758088054.25063,1758087983.82924,0.0,0.0,0.0,-10.19865,-16.95955,-4.69825,9.85,1.68,0.14,3.0
1758088054.25147,1758087983.83924,0.0,0.0,0.0,-11.22997,-21.31403,-2.34913,9.48,1.59,0.42,3.0
1758088054.26627,1758087983.84924,0.0,0.0,0.0,-8.136,-33.80451,3.49504,10.23,1.51,2.77,3.0
1758088054.26748,1758087983.85924,0.0,0.0,0.0,-14.32395,-34.09099,-4.98473,10.23,1.51,2.77,3.0
1758088054.28355,1758087983.86924,0.0,0.0,0.0,-15.98552,-8.99544,-9.62569,15.47,1.18,3.66,3.0
1758088054.29958,1758087983.87924,0.0,0.0,0.0,-14.83961,-2.34913,-10.31324,15.47,1.18,3.66,3.0
1758088054.30081,1758087983.88924,0.0,0.0,0.0,-13.5791,-1.83346,-9.39651,16.53,0.62,2.94,3.0
1758088054.31531,1758087983.89924,0.0,0.0,0.0,-11.00079,6.41713,-5.50039,16.53,0.62,2.94,3.0
1758088054.33173,1758087983.90924,0.0,0.0,0.0,-9.05273,17.01685,5.50039,16.63,-0.08,1.36,3.0
1758088054.33254,1758087983.91924,0.0,0.0,0.0,-9.62569,16.3293,13.00614,14.34,-0.62,2.4,3.0
1758088054.34734,1758087983.92924,0.0,0.0,0.0,-10.54242,19.76705,18.62113,14.34,-0.62,2.4,3.0
1758088054.34853,1758087983.93924,0.0,0.0,0.0,-11.00079,21.94428,22.68913,13.29,-0.37,2.65,3.0
1758088054.36337,1758087983.94924,0.0,0.0,0.0,-11.91752,18.62113,23.66316,13.29,-0.37,2.65,3.0
1758088054.37963,1758087983.95924,0.0,0.0,0.0,-12.2613,16.67307,21.14215,11.84,0.17,2.52,3.0
1758088054.38133,1758087983.96924,0.0,0.0,0.0,-12.77696,12.83425,16.95955,11.84,0.17,2.52,3.0
1758088054.39662,1758087983.97924,0.0,0.0,0.0,-13.69369,6.58902,12.08941,10.57,0.62,2.64,3.0
1758088054.39759,1758087983.98924,0.0,0.0,0.0,-14.9542,-4.35448,4.87014,8.74,0.61,2.59,3.0
1758088054.41358,1758087983.99924,0.0,0.0,0.0,-15.69904,-12.08941,1.08862,8.74,0.61,2.59,3.0
1758088054.4304,1758087984.00924,0.0,0.0,0.0,-16.21471,-19.48057,-0.85944,7.61,0.45,2.83,3.0
1758088054.43158,1758087984.01924,0.0,0.0,0.0,-16.21471,-27.73116,-0.34377,7.61,0.45,2.83,3.0
1758088054.44637,1758087984.02924,0.0,0.0,0.0,-15.64175,-31.28349,1.3178,7.55,0.09,2.77,3.0
1758088054.44749,1758087984.03924,0.0,0.0,0.0,-15.0115,-33.80451,3.66693,7.55,0.09,2.77,3.0
1758088054.46334,1758087984.04924,0.0,0.0,0.0,-14.32395,-35.52338,5.61499,8.0,-0.59,2.39,3.0
1758088054.47969,1758087984.05924,0.0,0.0,0.0,-12.89155,-34.66395,7.79223,8.0,-0.59,1.97,3.0
1758088054.48135,1758087984.06924,0.0,0.0,0.0,-12.71966,-33.46074,8.136,8.63,-1.26,1.97,3.0
1758088054.49638,1758087984.07924,0.0,0.0,0.0,-12.54778,-30.48136,8.59437,9.31,-1.49,1.92,3.0
1758088054.49755,1758087984.08924,0.0,0.0,0.0,-12.77696,-26.75713,8.65166,9.31,-1.49,1.92,3.0
1758088054.51352,1758087984.09924,0.0,0.0,0.0,-13.80828,-20.79837,9.68299,9.84,-1.31,1.7,3.0
1758088054.53037,1758087984.10924,0.0,0.0,0.0,-14.72501,-14.61043,10.31324,9.84,-1.31,1.7,3.0
1758088054.53185,1758087984.11924,0.0,0.0,0.0,-15.87093,-8.42248,11.63104,10.01,-0.9,1.34,3.0
1758088054.54672,1758087984.12924,0.0,0.0,0.0,-17.36062,-2.40642,12.71966,10.01,-0.9,1.34,3.0
1758088054.54757,1758087984.13924,0.0,0.0,0.0,-20.11082,7.04738,14.15206,9.62,-0.45,1.03,3.0
1758088054.5635,1758087984.14924,0.0,0.0,0.0,-22.57454,13.34992,14.9542,9.44,-0.16,1.04,3.0
1758088054.58044,1758087984.15924,0.0,0.0,0.0,-25.26744,18.16276,15.29797,9.44,-0.16,1.04,3.0
1758088054.58161,1758087984.16924,0.0,0.0,0.0,-27.78845,20.85567,15.46986,9.09,-0.04,1.13,3.0
1758088054.59673,1758087984.17924,0.0,0.0,0.0,-31.62727,23.31938,15.24068,9.09,-0.04,1.13,3.0
1758088054.59763,1758087984.18924,0.0,0.0,0.0,-33.86181,23.60586,14.66772,8.75,-0.07,1.18,3.0
1758088054.61344,1758087984.19924,0.0,0.0,0.0,-36.32552,23.37668,13.75099,8.75,-0.07,1.18,3.0
1758088054.63045,1758087984.20924,0.0,0.0,0.0,-39.99245,22.91831,11.11538,8.49,-0.17,1.36,3.0
1758088054.63167,1758087984.21924,0.0,0.0,0.0,-42.34158,19.76705,9.33921,8.03,-0.21,1.42,3.0
1758088054.6473,1758087984.22924,0.0,0.0,0.0,-44.8053,15.98552,7.21927,8.03,-0.21,1.42,3.0
1758088054.64845,1758087984.23924,0.0,0.0,0.0,-46.69606,12.60507,4.81285,7.62,-0.23,1.37,3.0
1758088054.66347,1758087984.24924,0.0,0.0,0.0,-48.30034,7.96411,1.77617,7.62,-0.23,1.37,3.0
1758088054.67977,1758087984.25924,0.0,0.0,0.0,-48.52953,3.89611,0.11459,7.52,-0.36,1.36,3.0
1758088054.68222,1758087984.26924,0.0,0.0,0.0,-47.95657,0.68755,-1.20321,7.52,-0.36,1.36,3.0
1758088054.69765,1758087984.27924,0.0,0.0,0.0,-46.75336,-0.17189,-1.83346,7.59,-0.67,1.25,3.0
1758088054.69865,1758087984.28924,0.0,0.0,0.0,-42.91454,-3.20856,-1.14592,7.83,-0.67,1.3,3.0
1758088054.71373,1758087984.29924,0.0,0.0,0.0,-39.4195,-5.72958,-0.11459,7.83,-1.23,1.3,3.0
1758088054.72972,1758087984.30924,0.0,0.0,0.0,-36.15364,-5.32851,1.77617,8.17,-1.82,1.18,3.0
1758088054.73064,1758087984.31924,0.0,0.0,0.0,-32.48671,-5.4431,3.20856,8.17,-1.82,1.18,3.0
1758088054.74575,1758087984.32924,0.0,0.0,0.0,-28.24682,-4.46907,5.32851,8.42,-2.17,0.98,3.0
1758088054.74746,1758087984.33924,0.0,0.0,0.0,-26.06958,-3.03668,5.72958,8.42,-2.17,0.98,3.0
1758088054.76407,1758087984.34924,0.0,0.0,0.0,-24.92367,-1.43239,5.95876,8.82,-2.14,1.05,3.0
1758088054.77965,1758087984.35924,0.0,0.0,0.0,-24.23611,-0.17189,5.32851,8.82,-2.14,1.05,3.0
1758088054.78068,1758087984.36924,0.0,0.0,0.0,-24.4653,3.38045,4.1253,9.03,-1.68,0.77,3.0
1758088054.79587,1758087984.37924,0.0,0.0,0.0,-24.80907,8.02141,2.86479,9.64,-1.17,0.7,3.0
1758088054.81179,1758087984.38924,0.0,0.0,0.0,-25.26744,12.49048,1.94806,9.64,-1.17,0.7,3.0
1758088054.81269,1758087984.39924,0.0,0.0,0.0,-25.89769,16.67307,0.40107,9.8,-0.9,0.54,3.0
1758088054.8278,1758087984.40924,0.0,0.0,0.0,-26.24147,24.92367,-0.17189,9.8,-0.9,0.54,3.0
1758088054.82897,1758087984.41924,0.0,0.0,0.0,-26.41335,29.56462,-0.74485,9.89,-0.94,0.5,3.0
1758088054.84374,1758087984.42924,0.0,0.0,0.0,-26.24147,32.20023,-1.66158,9.89,-0.94,0.5,3.0
1758088054.85961,1758087984.43924,0.0,0.0,0.0,-25.72581,33.46074,-3.03668,9.49,-1.15,0.39,3.0
1758088054.8615,1758087984.44924,0.0,0.0,0.0,-24.80907,33.05967,-4.23989,9.37,-1.43,0.45,3.0
1758088054.8768,1758087984.45924,0.0,0.0,0.0,-23.49127,31.79916,-5.61499,9.37,-1.43,0.45,3.0
1758088054.87765,1758087984.46924,0.0,0.0,0.0,-21.48592,28.70519,-6.58902,9.27,-1.67,0.62,3.0
1758088054.89379,1758087984.47924,0.0,0.0,0.0,-17.76169,22.97561,-7.79223,9.27,-1.67,0.62,3.0
1758088054.90983,1758087984.48924,0.0,0.0,0.0,-14.61043,17.24603,-7.79223,9.07,-1.81,0.77,3.0
1758088054.91101,1758087984.49924,0.0,0.0,0.0,-11.00079,13.34992,-8.0787,9.07,-1.81,0.77,3.0
1758088054.9257,1758087984.50924,0.0,0.0,0.0,-7.50575,11.80293,-7.84952,9.08,-1.89,0.45,3.0
1758088054.94168,1758087984.51924,0.0,0.0,0.0,-1.94806,9.91217,-7.33386,9.19,-2.06,0.22,3.0
1758088054.94278,1758087984.52924,0.0,0.0,0.0,2.6929,9.11003,-6.87549,9.19,-2.06,0.22,3.0
1758088054.95766,1758087984.53924,0.0,0.0,0.0,7.73493,8.30789,-6.13065,9.59,-2.48,0.4,3.0
1758088054.95876,1758087984.54924,0.0,0.0,0.0,13.17803,7.67763,-4.92744,9.59,-2.48,0.4,3.0
1758088054.97361,1758087984.55924,0.0,0.0,0.0,20.68378,6.7609,-2.97938,10.18,-2.85,0.27,3.0
1758088054.98985,1758087984.56924,0.0,0.0,0.0,25.15285,5.90147,-1.66158,10.18,-2.85,0.27,3.0
1758088054.99104,1758087984.57924,0.0,0.0,0.0,28.93437,2.63561,-0.80214,10.56,-3.05,0.45,3.0
1758088055.00591,1758087984.58924,0.0,0.0,0.0,32.14294,-5.15662,-0.11459,10.56,-3.05,0.45,3.0
1758088055.02161,1758087984.59924,0.0,0.0,0.0,34.43476,-14.15206,0.0,10.4,-3.07,0.42,3.0
1758088055.02322,1758087984.60924,0.0,0.0,0.0,34.89313,-17.58981,-2.06265,11.18,-2.96,1.63,3.0
1758088055.03782,1758087984.61924,0.0,0.0,0.0,35.75257,-4.81285,-0.34377,11.18,-2.96,1.63,3.0
1758088055.03907,1758087984.62924,0.0,0.0,0.0,34.89313,9.05273,-5.32851,14.86,-2.68,3.22,3.0
