timeStamp,timeStampAlign,roll,pitch,yaw,gyro_x,gyro_y,gyro_z,acc_x,acc_y,acc_z,flag_num
1758078533.90107,1758078533.87434,0.0,0.0,0.0,34.49206,7.62034,12.43318,8.89,-0.99,1.08,3.0
1758078533.90415,1758078533.88434,0.0,0.0,0.0,32.25753,3.72423,8.42248,8.89,-0.99,1.08,3.0
1758078533.9191,1758078533.89434,0.0,0.0,0.0,29.22085,1.71887,5.78687,9.53,-0.19,1.53,3.0
1758078533.92116,1758078533.90434,0.0,0.0,0.0,25.38203,3.55234,4.64096,9.53,-0.19,1.53,3.0
1758078533.93635,1758078533.91434,0.0,0.0,0.0,18.90761,8.99544,5.15662,10.79,0.6,1.86,3.0
1758078533.93893,1758078533.92434,0.0,0.0,0.0,15.12609,11.74564,5.55769,10.79,0.6,1.86,3.0
1758078533.95551,1758078533.93434,0.0,0.0,0.0,13.23533,13.06344,6.13065,10.71,0.77,1.34,3.0
1758078533.97118,1758078533.94434,0.0,0.0,0.0,12.77696,13.34992,6.07335,10.71,0.77,1.34,3.0
1758078533.97236,1758078533.95434,0.0,0.0,0.0,14.09476,13.69369,4.81285,10.17,0.16,0.89,3.0
1758078533.98717,1758078533.96434,0.0,0.0,0.0,15.06879,14.03747,3.89611,10.23,-0.75,1.2,3.0
1758078533.98836,1758078533.97434,0.0,0.0,0.0,16.272,14.83961,2.97938,10.23,-0.75,1.2,3.0
1758078534.00375,1758078533.98434,0.0,0.0,0.0,16.95955,15.69904,3.09397,10.69,-1.38,1.52,3.0
1758078534.01921,1758078533.99434,0.0,0.0,0.0,17.24603,17.13144,3.83882,10.69,-1.38,1.52,3.0
1758078534.02119,1758078534.00434,0.0,0.0,0.0,17.01685,18.22006,4.98473,11.08,-1.28,1.63,3.0
1758078534.03645,1758078534.01434,0.0,0.0,0.0,16.272,18.73572,5.84417,11.08,-1.28,1.63,3.0
1758078534.03766,1758078534.02434,0.0,0.0,0.0,14.49583,18.73572,6.35983,11.16,-0.72,1.7,3.0
1758078534.05519,1758078534.03434,0.0,0.0,0.0,12.77696,18.27736,6.07335,11.27,-0.14,1.95,3.0
1758078534.07117,1758078534.04434,0.0,0.0,0.0,10.54242,17.6471,5.21392,11.27,-0.14,1.95,3.0
1758078534.07238,1758078534.05434,0.0,0.0,0.0,8.02141,17.18874,3.55234,11.6,0.19,2.17,3.0
1758078534.08719,1758078534.06434,0.0,0.0,0.0,3.83882,14.03747,0.0,11.6,0.19,2.17,3.0
1758078534.08841,1758078534.07434,0.0,0.0,0.0,1.08862,10.8289,-1.83346,12.02,0.14,2.24,3.0
1758078534.10391,1758078534.08434,0.0,0.0,0.0,-1.08862,8.88085,-3.95341,12.02,0.14,2.24,3.0
1758078534.11946,1758078534.09434,0.0,0.0,0.0,-2.92208,6.8182,-5.72958,12.88,-0.17,2.37,3.0
1758078534.12129,1758078534.10434,0.0,0.0,0.0,-4.58366,2.97938,-7.62034,13.23,-0.44,2.56,3.0
1758078534.13672,1758078534.11434,0.0,0.0,0.0,-4.98473,0.51566,-8.136,13.23,-0.44,2.56,3.0
1758078534.13744,1758078534.12434,0.0,0.0,0.0,-5.15662,-1.20321,-8.47978,13.27,-0.54,2.62,3.0
1758078534.15382,1758078534.13434,0.0,0.0,0.0,-5.15662,-3.38045,-8.70896,13.27,-0.54,2.62,3.0
1758078534.17035,1758078534.14434,0.0,0.0,0.0,-4.81285,-7.73493,-8.99544,12.62,-0.63,2.67,3.0
1758078534.17172,1758078534.15434,0.0,0.0,0.0,-4.18259,-10.59972,-9.39651,12.62,-0.63,2.67,3.0
1758078534.18629,1758078534.16434,0.0,0.0,0.0,-3.49504,-13.86558,-9.5684,11.6,-0.69,2.89,3.0
1758078534.18778,1758078534.17434,0.0,0.0,0.0,-2.46372,-17.99088,-9.91217,11.6,-0.69,2.89,3.0
1758078534.20701,1758078534.18434,0.0,0.0,0.0,-0.11459,-24.17882,-10.25595,10.49,-0.67,3.09,3.0
1758078534.21253,1758078534.19434,0.0,0.0,0.0,2.11994,-27.33009,-10.25595,9.77,-0.65,3.15,3.0
1758078534.23474,1758078534.20434,0.0,0.0,0.0,4.52637,-29.96569,-10.31324,9.77,-0.65,3.15,3.0
1758078534.23671,1758078534.21434,0.0,0.0,0.0,8.136,-33.68992,-9.4538,9.23,-0.68,3.08,3.0
1758078534.25126,1758078534.22434,0.0,0.0,0.0,10.37054,-35.75257,-8.36518,9.23,-0.68,3.08,3.0
1758078534.25258,1758078534.23434,0.0,0.0,0.0,12.08941,-37.52874,-6.99009,8.8,-0.5,3.2,3.0
1758078534.27036,1758078534.24434,0.0,0.0,0.0,13.40721,-38.15899,-5.4431,8.8,-0.5,3.2,3.0
1758078534.27213,1758078534.25434,0.0,0.0,0.0,15.12609,-36.89849,-3.09397,8.69,-0.17,3.21,3.0
1758078534.28762,1758078534.26434,0.0,0.0,0.0,15.87093,-34.49206,-1.60428,8.73,0.01,3.05,3.0
1758078534.28852,1758078534.27434,0.0,0.0,0.0,16.3293,-31.28349,-0.45837,8.73,0.01,3.05,3.0
1758078534.30444,1758078534.28434,0.0,0.0,0.0,16.50119,-28.24682,0.51566,8.85,-0.05,2.99,3.0
1758078534.32136,1758078534.29434,0.0,0.0,0.0,16.272,-22.74642,2.06265,8.85,-0.05,2.99,3.0
1758078534.32254,1758078534.30434,0.0,0.0,0.0,15.64175,-17.53251,2.92208,9.17,-0.1,2.64,3.0
1758078534.3375,1758078534.31434,0.0,0.0,0.0,14.72501,-10.8862,3.09397,9.17,-0.1,2.64,3.0
1758078534.33857,1758078534.32434,0.0,0.0,0.0,13.40721,-5.90147,3.03668,9.63,0.0,2.37,3.0
1758078534.35417,1758078534.33434,0.0,0.0,0.0,12.14671,2.40642,2.23454,9.6,0.25,2.18,3.0
1758078534.37037,1758078534.34434,0.0,0.0,0.0,11.51645,8.30789,0.80214,9.6,0.25,2.18,3.0
1758078534.37185,1758078534.35434,0.0,0.0,0.0,11.34457,13.5218,-0.97403,9.33,0.37,2.03,3.0
1758078534.38639,1758078534.36434,0.0,0.0,0.0,11.28727,18.9649,-2.63561,9.33,0.37,2.03,3.0
1758078534.3887,1758078534.37434,0.0,0.0,0.0,11.28727,24.98096,-4.92744,9.18,0.34,2.05,3.0
1758078534.40456,1758078534.38434,0.0,0.0,0.0,11.17268,26.47065,-6.58902,9.18,0.34,2.05,3.0
1758078534.4206,1758078534.39434,0.0,0.0,0.0,11.17268,27.2155,-8.30789,8.88,0.2,1.97,3.0
1758078534.42167,1758078534.40434,0.0,0.0,0.0,11.11538,28.01764,-10.59972,8.88,0.2,1.97,3.0
1758078534.4367,1758078534.41434,0.0,0.0,0.0,11.17268,28.87707,-11.63104,8.92,0.16,1.85,3.0
1758078534.43791,1758078534.42434,0.0,0.0,0.0,11.51645,28.30412,-12.2613,8.71,0.2,1.78,3.0
1758078534.45465,1758078534.43433,0.0,0.0,0.0,12.08941,27.1582,-12.2613,8.71,0.2,1.78,3.0
1758078534.47145,1758078534.44433,0.0,0.0,0.0,13.06344,25.55392,-12.08941,8.47,0.15,1.81,3.0
1758078534.47242,1758078534.45433,0.0,0.0,0.0,13.80828,24.4653,-11.45916,8.47,0.15,1.81,3.0
1758078534.48764,1758078534.46433,0.0,0.0,0.0,14.61043,23.60586,-10.94349,8.36,0.12,1.77,3.0
1758078534.48941,1758078534.47433,0.0,0.0,0.0,15.46986,23.26209,-9.91217,8.36,0.12,1.77,3.0
1758078534.50437,1758078534.48433,0.0,0.0,0.0,16.21471,24.29341,-8.70896,8.41,0.21,1.75,3.0
1758078534.52171,1758078534.49433,0.0,0.0,0.0,16.10011,25.72581,-8.36518,8.48,0.31,1.75,3.0
1758078534.52267,1758078534.50433,0.0,0.0,0.0,15.58445,25.7831,-9.28192,8.48,0.31,1.75,3.0
1758078534.53772,1758078534.51433,0.0,0.0,0.0,15.0115,24.29341,-10.8289,8.22,0.5,1.67,3.0
1758078534.53944,1758078534.52433,0.0,0.0,0.0,13.75099,21.88699,-13.23533,8.22,0.5,1.67,3.0
1758078534.55441,1758078534.53433,0.0,0.0,0.0,12.83425,20.79837,-14.20935,8.36,0.67,1.57,3.0
1758078534.57046,1758078534.54433,0.0,0.0,0.0,11.63104,19.76705,-14.78231,8.36,0.67,1.57,3.0
1758078534.57171,1758078534.55433,0.0,0.0,0.0,10.8289,17.81899,-14.38124,8.5,0.67,1.55,3.0
1758078534.58647,1758078534.56433,0.0,0.0,0.0,10.37054,15.64175,-12.60507,8.45,0.49,1.66,3.0
1758078534.58766,1758078534.57433,0.0,0.0,0.0,10.37054,14.61043,-10.65701,8.45,0.49,1.66,3.0
1758078534.60457,1758078534.58433,0.0,0.0,0.0,10.65701,13.5791,-8.88085,8.5,0.34,1.64,3.0
1758078534.62065,1758078534.59433,0.0,0.0,0.0,10.8862,13.06344,-7.44845,8.5,0.34,1.64,3.0
1758078534.622,1758078534.60433,0.0,0.0,0.0,10.8289,12.49048,-6.35983,8.62,0.35,1.61,3.0
1758078534.63672,1758078534.61433,0.0,0.0,0.0,10.48513,11.28727,-6.35983,8.62,0.35,1.61,3.0
1758078534.6388,1758078534.62433,0.0,0.0,0.0,9.39651,9.62569,-6.35983,8.64,0.58,1.62,3.0
1758078534.65577,1758078534.63433,0.0,0.0,0.0,6.7609,8.47978,-7.04738,8.64,0.58,1.62,3.0
1758078534.67177,1758078534.64433,0.0,0.0,0.0,4.1253,6.13065,-7.84952,8.73,0.87,1.5,3.0
1758078534.67295,1758078534.65433,0.0,0.0,0.0,1.14592,1.83346,-8.25059,8.45,1.03,1.32,3.0
1758078534.68751,1758078534.66433,0.0,0.0,0.0,-1.71887,-2.92208,-8.0787,8.45,1.03,1.32,3.0
1758078534.68869,1758078534.67433,0.0,0.0,0.0,-5.84417,-6.13065,-7.33386,8.59,0.97,1.07,3.0
1758078534.70352,1758078534.68433,0.0,0.0,0.0,-7.62034,-6.41713,-5.84417,8.59,0.97,1.07,3.0
1758078534.72077,1758078534.69433,0.0,0.0,0.0,-9.05273,-4.23989,-3.95341,9.15,0.77,1.02,3.0
1758078534.72195,1758078534.70433,0.0,0.0,0.0,-10.08406,1.71887,-2.34913,9.15,0.77,1.02,3.0
1758078534.73676,1758078534.71433,0.0,0.0,0.0,-11.63104,5.72958,-0.97403,10.06,0.6,1.58,3.0
1758078534.73769,1758078534.72433,0.0,0.0,0.0,-12.71966,3.20856,-1.66158,9.75,0.64,1.9,3.0
1758078534.75428,1758078534.73433,0.0,0.0,0.0,-13.12073,-2.63561,-2.23454,9.75,0.64,1.9,3.0
1758078534.77074,1758078534.74433,0.0,0.0,0.0,-15.64175,-0.97403,-5.21392,10.17,0.86,1.69,3.0
1758078534.77245,1758078534.75433,0.0,0.0,0.0,-18.90761,-1.3178,-9.22462,10.17,0.86,1.69,3.0
1758078534.78753,1758078534.76433,0.0,0.0,0.0,-21.42862,-1.83346,-12.37589,10.65,1.23,1.64,3.0
1758078534.79191,1758078534.77433,0.0,0.0,0.0,-24.80907,-3.95341,-14.43854,10.65,1.23,1.64,3.0
1758078534.80779,1758078534.78433,0.0,0.0,0.0,-27.73116,-9.91217,-15.46986,10.55,1.46,1.79,3.0
1758078534.81113,1758078534.79433,0.0,0.0,0.0,-30.53865,-32.25753,-17.47521,9.74,1.58,2.39,3.0
1758078534.82655,1758078534.80433,0.0,0.0,0.0,-30.19488,-47.26902,-19.19409,9.74,1.58,2.39,3.0
1758078534.82806,1758078534.81433,0.0,0.0,0.0,-28.24682,-61.36378,-18.9649,10.8,0.95,2.87,3.0
1758078534.84385,1758078534.82433,0.0,0.0,0.0,-23.0329,-61.70755,-18.27736,10.8,0.95,2.87,3.0
1758078534.85954,1758078534.83433,0.0,0.0,0.0,-17.81899,-33.23156,-17.13144,14.61,0.03,3.01,3.0
1758078534.86076,1758078534.84433,0.0,0.0,0.0,-16.67307,-7.33386,-17.36062,14.61,0.03,3.01,3.0
1758078534.87555,1758078534.85433,0.0,0.0,0.0,-16.95955,1.43239,-15.64175,16.18,-0.07,2.84,3.0
1758078534.89172,1758078534.86433,0.0,0.0,0.0,-20.34,-1.66158,-10.8289,16.18,-0.07,2.84,3.0
1758078534.8927,1758078534.87433,0.0,0.0,0.0,-24.35071,0.45837,-6.58902,13.51,0.77,3.53,3.0
1758078534.90782,1758078534.88433,0.0,0.0,0.0,-29.04896,3.38045,-2.06265,14.12,1.63,2.39,3.0
1758078534.90875,1758078534.89433,0.0,0.0,0.0,-32.48671,7.04738,1.48969,14.12,1.63,2.39,3.0
1758078534.92359,1758078534.90433,0.0,0.0,0.0,-33.9764,9.33921,4.0107,13.86,1.67,3.11,3.0
1758078534.9396,1758078534.91433,0.0,0.0,0.0,-33.17426,10.59972,3.66693,13.86,1.67,3.11,3.0
1758078534.94104,1758078534.92433,0.0,0.0,0.0,-31.62727,11.63104,2.6929,13.12,1.15,3.27,3.0
1758078534.95563,1758078534.93433,0.0,0.0,0.0,-30.36677,11.86023,1.08862,13.12,1.15,3.27,3.0
1758078534.97207,1758078534.94433,0.0,0.0,0.0,-29.10626,9.39651,-1.08862,11.72,0.57,2.56,3.0
1758078534.9728,1758078534.95433,0.0,0.0,0.0,-29.56462,6.70361,-2.34913,10.0,0.18,2.39,3.0
1758078534.98794,1758078534.96433,0.0,0.0,0.0,-30.93972,3.03668,-3.49504,10.0,0.18,2.39,3.0
1758078534.98909,1758078534.97433,0.0,0.0,0.0,-33.05967,-2.57831,-3.95341,8.64,0.27,2.67,3.0
1758078535.00367,1758078534.98433,0.0,0.0,0.0,-37.29956,-11.34457,-4.46907,8.64,0.27,2.67,3.0
1758078535.01999,1758078534.99433,0.0,0.0,0.0,-40.04975,-18.10547,-4.58366,7.92,0.62,2.83,3.0
1758078535.02085,1758078535.00433,0.0,0.0,0.0,-42.22699,-24.63719,-4.92744,7.92,0.62,2.83,3.0
1758078535.03604,1758078535.01433,0.0,0.0,0.0,-43.60209,-30.36677,-4.69825,7.57,0.6,2.82,3.0
1758078535.05196,1758078535.02433,0.0,0.0,0.0,-43.94586,-40.27893,-5.09932,7.49,0.05,2.76,3.0
1758078535.05325,1758078535.03433,0.0,0.0,0.0,-43.4875,-43.4875,-4.92744,7.49,0.05,2.76,3.0
1758078535.0678,1758078535.04433,0.0,0.0,0.0,-42.51347,-44.9199,-5.09932,8.13,-0.51,2.74,3.0
1758078535.06908,1758078535.05433,0.0,0.0,0.0,-40.45082,-46.1231,-5.55769,8.13,-0.51,2.74,3.0
1758078535.08395,1758078535.06433,0.0,0.0,0.0,-39.19032,-46.06581,-5.78687,8.35,-0.54,2.39,3.0
1758078535.09969,1758078535.07433,0.0,0.0,0.0,-37.98711,-44.51882,-6.7609,8.35,-0.54,2.39,3.0
1758078535.10087,1758078535.08433,0.0,0.0,0.0,-37.18496,-42.57077,-7.39116,8.56,-0.18,2.25,3.0
1758078535.1156,1758078535.09433,0.0,0.0,0.0,-35.86716,-37.52874,-8.59437,8.56,-0.18,2.02,3.0
1758078535.13169,1758078535.10433,0.0,0.0,0.0,-35.00772,-34.0337,-9.05273,8.86,0.13,2.02,3.0
1758078535.13291,1758078535.11433,0.0,0.0,0.0,-34.0337,-30.02299,-9.11003,9.07,0.05,1.74,3.0
1758078535.14772,1758078535.12433,0.0,0.0,0.0,-33.23156,-25.43933,-8.93814,9.07,0.05,1.74,3.0
1758078535.14891,1758078535.13433,0.0,0.0,0.0,-32.08564,-17.81899,-7.96411,9.22,-0.18,1.52,3.0
1758078535.16368,1758078535.14433,0.0,0.0,0.0,-31.28349,-13.06344,-6.53172,9.22,-0.18,1.52,3.0
1758078535.18004,1758078535.15433,0.0,0.0,0.0,-30.53865,-8.25059,-4.98473,9.1,-0.34,1.46,3.0
1758078535.18092,1758078535.16433,0.0,0.0,0.0,-29.9084,-3.83882,-3.55234,9.1,-0.34,1.46,3.0
1758078535.19605,1758078535.17433,0.0,0.0,0.0,-29.04896,0.51566,-1.14592,9.0,-0.36,1.52,3.0
1758078535.21177,1758078535.18433,0.0,0.0,0.0,-28.41871,3.09397,0.17189,8.84,-0.34,1.62,3.0
1758078535.21321,1758078535.19433,0.0,0.0,0.0,-27.73116,6.53172,0.97403,8.84,-0.34,1.62,3.0
1758078535.22773,1758078535.20433,0.0,0.0,0.0,-26.75713,10.25595,1.83346,8.91,-0.34,1.46,3.0
1758078535.22928,1758078535.21433,0.0,0.0,0.0,-25.49662,15.06879,2.97938,8.91,-0.34,1.46,3.0
1758078535.24407,1758078535.22433,0.0,0.0,0.0,-24.4653,17.6471,3.60963,8.98,-0.32,1.52,3.0
1758078535.25975,1758078535.23433,0.0,0.0,0.0,-23.37668,18.62113,3.66693,8.98,-0.32,1.52,3.0
1758078535.26115,1758078535.24433,0.0,0.0,0.0,-20.97026,20.62648,4.87014,9.02,-0.29,1.68,3.0
1758078535.27572,1758078535.25433,0.0,0.0,0.0,-19.19409,21.7151,6.24524,9.17,-0.39,1.49,3.0
1758078535.29201,1758078535.26433,0.0,0.0,0.0,-17.87628,21.14215,8.136,9.17,-0.39,1.49,3.0
1758078535.29292,1758078535.27433,0.0,0.0,0.0,-17.13144,22.00158,9.96947,9.23,-0.46,1.42,3.0
1758078535.30807,1758078535.28433,0.0,0.0,0.0,-17.24603,25.26744,11.57375,9.23,-0.46,1.42,3.0
1758078535.30894,1758078535.29433,0.0,0.0,0.0,-17.53251,27.1582,11.63104,9.29,-0.32,1.4,3.0
1758078535.32377,1758078535.30433,0.0,0.0,0.0,-18.16276,26.98631,10.94349,9.29,-0.32,1.4,3.0
1758078535.33975,1758078535.31433,0.0,0.0,0.0,-18.79302,26.41335,9.5684,8.76,-0.04,1.4,3.0
1758078535.34098,1758078535.32433,0.0,0.0,0.0,-19.88164,27.78845,7.16197,8.69,-0.04,1.21,3.0
1758078535.35578,1758078535.33433,0.0,0.0,0.0,-20.51189,28.07493,5.27121,8.69,0.09,1.21,3.0
1758078535.372,1758078535.34433,0.0,0.0,0.0,-20.51189,28.93437,3.72423,8.64,-0.06,1.06,3.0
1758078535.37325,1758078535.35433,0.0,0.0,0.0,-20.22541,30.25217,2.63561,8.64,-0.06,1.06,3.0
1758078535.38786,1758078535.36433,0.0,0.0,0.0,-18.9649,29.8511,2.34913,8.87,-0.51,1.1,3.0
1758078535.38932,1758078535.37433,0.0,0.0,0.0,-17.87628,26.52795,2.7502,8.87,-0.51,1.1,3.0
1758078535.40406,1758078535.38433,0.0,0.0,0.0,-16.67307,23.83505,3.38045,8.79,-0.86,0.98,3.0
1758078535.42007,1758078535.39433,0.0,0.0,0.0,-15.46986,22.05888,4.29718,8.79,-0.86,0.98,3.0
1758078535.42101,1758078535.40433,0.0,0.0,0.0,-13.5218,20.05352,5.78687,9.16,-0.93,0.82,3.0
1758078535.43608,1758078535.41433,0.0,0.0,0.0,-11.97482,18.50654,6.58902,9.33,-0.81,0.78,3.0
1758078535.45212,1758078535.42433,0.0,0.0,0.0,-10.59972,16.95955,7.21927,9.33,-0.81,0.78,3.0
1758078535.453,1758078535.43433,0.0,0.0,0.0,-9.4538,15.46986,7.21927,9.43,-0.64,0.88,3.0
1758078535.46884,1758078535.44433,0.0,0.0,0.0,-8.02141,10.65701,6.53172,9.43,-0.64,0.88,3.0
1758078535.47028,1758078535.45433,0.0,0.0,0.0,-6.99009,8.76626,5.90147,9.29,-0.54,0.8,3.0
1758078535.48511,1758078535.46433,0.0,0.0,0.0,-5.90147,7.73493,5.21392,9.29,-0.54,0.8,3.0
1758078535.5008,1758078535.47433,0.0,0.0,0.0,-4.64096,5.90147,4.35448,9.52,-0.56,0.74,3.0
1758078535.50224,1758078535.48433,0.0,0.0,0.0,-3.55234,3.49504,4.81285,9.71,-0.71,1.01,3.0
1758078535.51707,1758078535.49433,0.0,0.0,0.0,-2.57831,1.14592,6.47442,9.71,-0.71,1.01,3.0
1758078535.51838,1758078535.50433,0.0,0.0,0.0,-1.3178,-1.08862,8.93814,10.14,-0.99,1.09,3.0
1758078535.53589,1758078535.51433,0.0,0.0,0.0,0.97403,-4.1253,12.71966,10.14,-0.99,1.09,3.0
1758078535.55209,1758078535.52433,0.0,0.0,0.0,3.09397,-6.18794,14.78231,10.33,-1.35,0.86,3.0
1758078535.55309,1758078535.53433,0.0,0.0,0.0,5.95876,-10.37054,15.92823,10.33,-1.35,0.86,3.0
1758078535.5679,1758078535.54433,0.0,0.0,0.0,9.33921,-19.53786,16.04282,10.08,-1.67,0.93,3.0
1758078535.57063,1758078535.55433,0.0,0.0,0.0,12.71966,-31.74186,11.91752,10.34,-1.75,1.74,3.0
1758078535.5859,1758078535.56433,0.0,0.0,0.0,15.06879,-16.90226,8.59437,10.34,-1.75,1.74,3.0
1758078535.60211,1758078535.57433,0.0,0.0,0.0,16.272,-2.29183,7.62034,14.15,-1.11,3.6,3.0
1758078535.60333,1758078535.58433,0.0,0.0,0.0,15.69904,12.89155,5.09932,14.15,-1.11,3.6,3.0
1758078535.61813,1758078535.59433,0.0,0.0,0.0,16.67307,4.1253,3.60963,13.16,-0.29,4.57,3.0
1758078535.61935,1758078535.60433,0.0,0.0,0.0,17.24603,-19.42327,5.27121,13.16,-0.29,4.57,3.0
1758078535.63399,1758078535.61433,0.0,0.0,0.0,18.73572,-31.2262,7.04738,10.75,0.11,2.85,3.0
1758078535.65013,1758078535.62433,0.0,0.0,0.0,18.33465,-28.64789,8.25059,10.75,0.11,2.85,3.0
1758078535.65232,1758078535.63433,0.0,0.0,0.0,16.73037,-8.76626,4.29718,14.27,-0.42,1.82,3.0
1758078535.66684,1758078535.64433,0.0,0.0,0.0,16.67307,-8.02141,0.68755,14.45,-0.99,3.48,3.0
1758078535.67063,1758078535.65433,0.0,0.0,0.0,16.50119,-8.02141,-2.06265,14.45,-0.99,3.48,3.0
1758078535.68586,1758078535.66433,0.0,0.0,0.0,14.38124,-2.63561,-5.4431,14.19,-0.92,4.08,3.0
1758078535.70229,1758078535.67433,0.0,0.0,0.0,12.71966,2.57831,-6.35983,14.19,-0.92,4.08,3.0
1758078535.7055,1758078535.68433,0.0,0.0,0.0,11.63104,1.71887,-6.58902,12.57,-0.2,3.5,3.0
1758078535.72215,1758078535.69433,0.0,0.0,0.0,11.22997,-0.45837,-6.70361,12.57,-0.2,3.5,3.0
1758078535.72313,1758078535.70433,0.0,0.0,0.0,12.37589,-5.09932,-6.18794,10.5,0.19,3.33,3.0
1758078535.73794,1758078535.71433,0.0,0.0,0.0,14.38124,-8.36518,-5.4431,9.44,-0.06,2.98,3.0
1758078535.74028,1758078535.72433,0.0,0.0,0.0,17.47521,-11.51645,-4.52637,9.44,-0.06,2.98,3.0
1758078535.75493,1758078535.73433,0.0,0.0,0.0,21.42862,-14.72501,-3.20856,8.95,-0.66,2.98,3.0
1758078535.77105,1758078535.74433,0.0,0.0,0.0,27.73116,-20.68378,-1.03132,8.95,-0.66,2.98,3.0
1758078535.77244,1758078535.75433,0.0,0.0,0.0,31.62727,-23.66316,0.34377,8.41,-0.91,2.84,3.0
1758078535.78694,1758078535.76433,0.0,0.0,0.0,34.66395,-25.38203,1.94806,8.41,-0.91,2.84,3.0
1758078535.78903,1758078535.77433,0.0,0.0,0.0,36.95578,-26.64254,3.26586,8.1,-0.57,2.79,3.0
1758078535.806,1758078535.78433,0.0,0.0,0.0,38.27358,-28.30412,4.35448,7.85,0.11,2.67,3.0
1758078535.82229,1758078535.79433,0.0,0.0,0.0,38.21629,-28.41871,4.52637,7.85,0.11,2.67,3.0
1758078535.82315,1758078535.80433,0.0,0.0,0.0,37.35685,-27.61657,4.29718,8.03,0.8,2.48,3.0
1758078535.83819,1758078535.81433,0.0,0.0,0.0,35.98175,-25.89769,3.72423,8.03,0.8,2.48,3.0
1758078535.83917,1758078535.82433,0.0,0.0,0.0,33.74722,-22.86102,2.11994,8.42,1.18,2.19,3.0
1758078535.85427,1758078535.83433,0.0,0.0,0.0,32.25753,-19.42327,1.03132,8.42,1.18,2.19,3.0
1758078535.87097,1758078535.84433,0.0,0.0,0.0,30.88243,-14.9542,-0.0573,8.84,1.15,1.88,3.0
1758078535.87226,1758078535.85433,0.0,0.0,0.0,29.9084,-10.02676,-1.71887,8.84,1.15,1.88,3.0
1758078535.88721,1758078535.86433,0.0,0.0,0.0,28.87707,-2.97938,-2.46372,9.1,0.88,1.77,3.0
1758078535.88814,1758078535.87433,0.0,0.0,0.0,28.30412,2.63561,-3.32316,9.26,0.62,1.74,3.0
1758078535.90395,1758078535.88433,0.0,0.0,0.0,27.96034,7.96411,-3.60963,9.26,0.62,1.74,3.0
1758078535.92025,1758078535.89433,0.0,0.0,0.0,27.38738,13.80828,-4.18259,9.37,0.5,1.75,3.0
1758078535.92201,1758078535.90433,0.0,0.0,0.0,27.1582,15.92823,-4.69825,9.37,0.5,1.75,3.0
1758078535.93708,1758078535.91433,0.0,0.0,0.0,26.81443,17.24603,-5.78687,9.16,0.52,1.77,3.0
1758078535.93823,1758078535.92433,0.0,0.0,0.0,26.35606,18.22006,-6.58902,9.16,0.52,1.77,3.0
1758078535.95424,1758078535.93433,0.0,0.0,0.0,25.7831,18.33465,-7.50575,8.9,0.65,1.68,3.0
1758078535.97007,1758078535.94433,0.0,0.0,0.0,25.43933,17.30333,-7.73493,8.62,0.8,1.65,3.0
1758078535.97125,1758078535.95433,0.0,0.0,0.0,25.15285,15.92823,-7.50575,8.62,0.8,1.65,3.0
1758078535.98607,1758078535.96433,0.0,0.0,0.0,24.80907,14.83961,-7.16197,8.46,0.72,1.65,3.0
1758078536.00215,1758078535.97433,0.0,0.0,0.0,24.80907,12.60507,-5.61499,8.46,0.72,1.65,3.0
1758078536.00327,1758078535.98433,0.0,0.0,0.0,24.86637,12.08941,-4.69825,8.35,0.54,1.65,3.0
1758078536.01832,1758078535.99433,0.0,0.0,0.0,24.23611,13.40721,-4.52637,8.35,0.54,1.65,3.0
1758078536.02083,1758078536.00433,0.0,0.0,0.0,23.72045,13.46451,-4.87014,8.5,0.53,1.84,3.0
1758078536.03632,1758078536.01433,0.0,0.0,0.0,22.91831,11.63104,-6.47442,8.28,0.75,1.85,3.0
1758078536.05234,1758078536.02433,0.0,0.0,0.0,22.57454,10.54242,-7.67763,8.28,0.75,1.85,3.0
1758078536.05323,1758078536.03433,0.0,0.0,0.0,22.34536,10.31324,-8.47978,8.44,0.97,1.91,3.0
1758078536.06904,1758078536.04433,0.0,0.0,0.0,22.28806,9.33921,-8.99544,8.44,0.97,1.91,3.0
1758078536.07185,1758078536.05433,0.0,0.0,0.0,22.05888,7.21927,-8.88085,8.38,0.96,1.74,3.0
1758078536.08727,1758078536.06433,0.0,0.0,0.0,21.7724,6.58902,-8.25059,8.38,0.96,1.74,3.0
1758078536.08828,1758078536.07433,0.0,0.0,0.0,21.42862,6.99009,-7.33386,8.58,0.84,1.64,3.0
1758078536.10402,1758078536.08433,0.0,0.0,0.0,20.3973,7.10468,-5.72958,8.58,0.84,1.64,3.0
1758078536.12109,1758078536.09433,0.0,0.0,0.0,18.90761,8.59437,-4.81285,8.81,0.87,1.59,3.0
1758078536.12254,1758078536.10433,0.0,0.0,0.0,17.13144,10.25595,-3.95341,9.08,1.05,1.62,3.0
1758078536.1371,1758078536.11433,0.0,0.0,0.0,15.29797,12.14671,-3.55234,9.08,1.05,1.62,3.0
1758078536.1383,1758078536.12433,0.0,0.0,0.0,11.97482,14.43854,-3.32316,9.19,1.21,1.58,3.0
1758078536.15436,1758078536.13433,0.0,0.0,0.0,9.96947,16.95955,-3.66693,9.19,1.21,1.58,3.0
1758078536.17033,1758078536.14433,0.0,0.0,0.0,7.79223,18.79302,-4.52637,9.29,1.22,1.5,3.0
1758078536.17133,1758078536.15433,0.0,0.0,0.0,6.13065,19.19409,-5.15662,9.29,1.22,1.5,3.0
1758078536.1861,1758078536.16433,0.0,0.0,0.0,3.83882,19.82434,-5.50039,9.22,1.09,1.39,3.0
1758078536.19212,1758078536.17433,0.0,0.0,0.0,2.46372,19.70975,-5.50039,9.24,0.93,1.26,3.0
1758078536.20713,1758078536.18433,0.0,0.0,0.0,1.3178,18.10547,-4.81285,9.24,0.93,1.26,3.0
1758078536.20831,1758078536.19433,0.0,0.0,0.0,0.40107,14.78231,-3.95341,9.05,0.82,1.28,3.0
1758078536.22592,1758078536.20433,0.0,0.0,0.0,-1.08862,9.28192,-2.40642,9.05,0.82,1.28,3.0
1758078536.24218,1758078536.21433,0.0,0.0,0.0,-2.63561,9.39651,-1.20321,9.25,0.84,1.17,3.0
1758078536.24336,1758078536.22433,0.0,0.0,0.0,-4.29718,10.19865,-0.40107,9.25,0.84,1.17,3.0
1758078536.25844,1758078536.23433,0.0,0.0,0.0,-5.78687,7.73493,0.74485,9.68,0.99,1.31,3.0
1758078536.25932,1758078536.24433,0.0,0.0,0.0,-10.71431,8.0787,-2.06265,9.61,1.3,1.69,3.0
1758078536.27445,1758078536.25433,0.0,0.0,0.0,-13.5218,7.16197,-4.29718,9.61,1.3,1.69,3.0
1758078536.29023,1758078536.26433,0.0,0.0,0.0,-16.84496,7.21927,-7.96411,9.69,1.6,1.44,3.0
1758078536.29141,1758078536.27433,0.0,0.0,0.0,-20.45459,7.96411,-12.60507,9.69,1.6,1.44,3.0
1758078536.30621,1758078536.28433,0.0,0.0,0.0,-25.49662,0.97403,-14.20935,9.5,1.74,1.32,3.0
1758078536.32233,1758078536.29433,0.0,0.0,0.0,-28.36141,-8.59437,-15.69904,9.5,1.74,1.32,3.0
1758078536.32339,1758078536.30433,0.0,0.0,0.0,-30.19488,-18.90761,-15.58445,8.8,1.58,1.05,3.0
1758078536.33819,1758078536.31433,0.0,0.0,0.0,-32.77319,-30.36677,-10.8289,8.8,1.58,1.05,3.0
1758078536.33939,1758078536.32433,0.0,0.0,0.0,-34.32018,-34.95043,-10.19865,9.24,1.18,1.05,3.0
1758078536.35453,1758078536.33433,0.0,0.0,0.0,-31.56997,-34.14828,-5.21392,10.78,0.82,2.27,3.0
1758078536.37042,1758078536.34433,0.0,0.0,0.0,-31.56997,-16.3293,-9.22462,10.78,0.82,2.27,3.0
1758078536.3714,1758078536.35433,0.0,0.0,0.0,-29.33544,-0.34377,-14.61043,13.6,0.56,2.9,3.0
1758078536.38623,1758078536.36433,0.0,0.0,0.0,-29.10626,-3.83882,-19.82434,13.6,0.56,2.9,3.0
1758078536.40223,1758078536.37433,0.0,0.0,0.0,-27.44468,-6.53172,-21.08485,11.8,0.65,3.68,3.0
1758078536.40391,1758078536.38433,0.0,0.0,0.0,-26.35606,-1.3751,-21.42862,11.8,0.65,3.68,3.0
1758078536.41846,1758078536.39433,0.0,0.0,0.0,-24.63719,12.71966,-16.10011,12.58,0.65,1.22,3.0
1758078536.4194,1758078536.40433,0.0,0.0,0.0,-23.26209,17.13144,-9.85487,12.98,0.65,2.25,3.0
1758078536.4352,1758078536.41433,0.0,0.0,0.0,-20.79837,20.85567,-2.46372,12.98,0.65,2.25,3.0
1758078536.45121,1758078536.42433,0.0,0.0,0.0,-18.50654,25.7831,3.49504,13.78,0.48,3.16,3.0
1758078536.45266,1758078536.43433,0.0,0.0,0.0,-14.78231,28.70519,8.42248,13.78,0.48,3.16,3.0
1758078536.46758,1758078536.44433,0.0,0.0,0.0,-12.37589,28.07493,9.05273,14.17,0.59,3.58,3.0
1758078536.4688,1758078536.45433,0.0,0.0,0.0,-10.71431,25.55392,7.33386,14.17,0.59,3.58,3.0
1758078536.48551,1758078536.46433,0.0,0.0,0.0,-9.96947,22.74642,3.72423,13.61,1.01,3.32,3.0
1758078536.50128,1758078536.47433,0.0,0.0,0.0,-11.17268,18.9649,-2.46372,12.5,1.51,3.24,3.0
1758078536.50252,1758078536.48433,0.0,0.0,0.0,-13.17803,15.29797,-6.41713,12.5,1.51,3.24,3.0
1758078536.5195,1758078536.49433,0.0,0.0,0.0,-16.10011,9.85487,-9.11003,11.02,1.66,3.49,3.0
1758078536.52124,1758078536.50433,0.0,0.0,0.0,-20.3973,3.38045,-11.17268,11.02,1.66,3.49,3.0
1758078536.53653,1758078536.51433,0.0,0.0,0.0,-23.26209,-6.18794,-11.80293,9.9,1.51,3.44,3.0
1758078536.55232,1758078536.52433,0.0,0.0,0.0,-25.49662,-11.45916,-10.8862,9.9,1.51,3.44,3.0
1758078536.55462,1758078536.53433,0.0,0.0,0.0,-27.2155,-20.16812,-9.74028,9.16,1.24,3.47,3.0
1758078536.5693,1758078536.54433,0.0,0.0,0.0,-28.64789,-32.6013,-7.10468,9.16,1.24,3.47,3.0
1758078536.57048,1758078536.55433,0.0,0.0,0.0,-28.41871,-39.87786,-5.32851,8.38,0.85,3.53,3.0
1758078536.58529,1758078536.56433,0.0,0.0,0.0,-27.73116,-46.69606,-3.66693,8.09,0.36,3.33,3.0
1758078536.6016,1758078536.57433,0.0,0.0,0.0,-26.52795,-52.65482,-2.6929,8.09,0.36,3.33,3.0
1758078536.60252,1758078536.58433,0.0,0.0,0.0,-24.00693,-58.3844,-1.94806,8.02,-0.17,3.07,3.0
1758078536.61964,1758078536.59433,0.0,0.0,0.0,-22.28806,-60.44705,-1.94806,8.02,-0.17,3.07,3.0
1758078536.62053,1758078536.60433,0.0,0.0,0.0,-21.48592,-62.05133,-2.46372,8.27,-0.45,2.98,3.0
1758078536.63573,1758078536.61433,0.0,0.0,0.0,-21.31403,-63.13995,-3.26586,8.27,-0.45,2.98,3.0
1758078536.65131,1758078536.62433,0.0,0.0,0.0,-21.88699,-62.33781,-4.52637,8.21,-0.08,2.71,3.0
1758078536.65284,1758078536.63433,0.0,0.0,0.0,-22.86102,-59.18654,-5.4431,8.34,0.53,2.35,3.0
1758078536.66733,1758078536.64433,0.0,0.0,0.0,-24.00693,-54.3164,-6.58902,8.34,0.53,2.35,3.0
1758078536.66902,1758078536.65433,0.0,0.0,0.0,-25.15285,-49.56085,-7.10468,8.6,0.81,2.17,3.0
1758078536.68537,1758078536.66433,0.0,0.0,0.0,-26.01229,-42.05511,-6.70361,8.6,0.81,2.17,3.0
1758078536.70148,1758078536.67433,0.0,0.0,0.0,-26.01229,-36.15364,-5.50039,8.98,0.56,1.96,3.0
1758078536.70252,1758078536.68433,0.0,0.0,0.0,-25.8404,-28.99167,-3.89611,8.98,0.56,1.96,3.0
1758078536.71759,1758078536.69433,0.0,0.0,0.0,-25.49662,-21.25674,-1.03132,9.46,0.2,1.56,3.0
1758078536.71856,1758078536.70433,0.0,0.0,0.0,-24.86637,-10.19865,0.57296,9.47,0.14,1.46,3.0
1758078536.73636,1758078536.71433,0.0,0.0,0.0,-24.5226,-3.09397,1.83346,9.47,0.14,1.46,3.0
1758078536.75259,1758078536.72433,0.0,0.0,0.0,-24.4653,3.83882,2.92208,9.39,0.27,1.46,3.0
1758078536.75354,1758078536.73433,0.0,0.0,0.0,-24.17882,13.06344,4.1253,9.39,0.27,1.46,3.0
1758078536.76865,1758078536.74433,0.0,0.0,0.0,-23.89234,18.73572,4.64096,9.36,0.3,1.46,3.0
1758078536.77121,1758078536.75433,0.0,0.0,0.0,-23.66316,23.26209,5.4431,9.36,0.3,1.46,3.0
1758078536.78664,1758078536.76433,0.0,0.0,0.0,-23.54857,27.38738,6.18794,9.32,0.22,1.48,3.0
1758078536.80267,1758078536.77433,0.0,0.0,0.0,-23.0902,32.25753,7.39116,9.32,0.22,1.46,3.0
1758078536.80472,1758078536.78433,0.0,0.0,0.0,-22.97561,33.68992,7.10468,9.17,0.08,1.46,3.0
1758078536.81939,1758078536.79433,0.0,0.0,0.0,-22.05888,34.77854,7.67763,8.83,-0.05,1.35,3.0
1758078536.82066,1758078536.80433,0.0,0.0,0.0,-21.42862,33.86181,7.84952,8.83,-0.05,1.35,3.0
1758078536.84127,1758078536.81433,0.0,0.0,0.0,-20.11082,30.02299,9.33921,8.59,-0.16,1.37,3.0
1758078536.84218,1758078536.82433,0.0,0.0,0.0,-19.19409,30.53865,10.71431,8.59,-0.16,1.37,3.0
1758078536.85776,1758078536.83433,0.0,0.0,0.0,-18.73572,32.42941,11.80293,9.05,-0.2,1.35,3.0
1758078536.86061,1758078536.84433,0.0,0.0,0.0,-18.16276,33.23156,12.43318,9.05,-0.2,1.35,3.0
1758078536.87542,1758078536.85433,0.0,0.0,0.0,-17.13144,33.86181,12.49048,9.02,-0.09,1.39,3.0
1758078536.89141,1758078536.86433,0.0,0.0,0.0,-16.67307,34.26288,11.97482,8.81,-0.03,1.45,3.0
1758078536.8926,1758078536.87433,0.0,0.0,0.0,-16.21471,34.49206,11.22997,8.81,-0.03,1.45,3.0
1758078536.9074,1758078536.88433,0.0,0.0,0.0,-15.87093,34.72124,10.19865,8.62,-0.08,1.3,3.0
1758078536.90865,1758078536.89433,0.0,0.0,0.0,-15.46986,33.9764,8.30789,8.62,-0.08,1.3,3.0
1758078536.92469,1758078536.90433,0.0,0.0,0.0,-15.12609,32.54401,7.16197,8.51,-0.21,1.24,3.0
1758078536.94147,1758078536.91433,0.0,0.0,0.0,-14.61043,30.59595,6.53172,8.51,-0.21,1.24,3.0
1758078536.9426,1758078536.92433,0.0,0.0,0.0,-13.69369,28.07493,6.18794,8.59,-0.41,1.3,3.0
1758078536.95748,1758078536.93433,0.0,0.0,0.0,-12.89155,23.94964,6.41713,8.81,-0.56,1.3,3.0
1758078536.95942,1758078536.94433,0.0,0.0,0.0,-12.08941,20.97026,7.04738,8.81,-0.56,1.3,3.0
1758078536.97546,1758078536.95433,0.0,0.0,0.0,-11.22997,17.6471,7.84952,8.91,-0.56,1.33,3.0
1758078536.99143,1758078536.96433,0.0,0.0,0.0,-9.96947,12.2613,9.05273,8.91,-0.56,1.33,3.0
1758078536.99262,1758078536.97433,0.0,0.0,0.0,-9.28192,8.65166,9.4538,8.93,-0.47,1.31,3.0
1758078537.00773,1758078536.98433,0.0,0.0,0.0,-8.70896,3.72423,9.62569,8.93,-0.47,1.31,3.0
1758078537.01104,1758078536.99433,0.0,0.0,0.0,-8.47978,-1.48969,9.05273,8.77,-0.28,1.17,3.0
1758078537.02655,1758078537.00433,0.0,0.0,0.0,-8.59437,-2.34913,6.47442,9.17,-0.28,0.88,3.0
1758078537.04255,1758078537.01433,0.0,0.0,0.0,-8.36518,1.3751,4.92744,9.17,-0.05,0.88,3.0
1758078537.04478,1758078537.02433,0.0,0.0,0.0,-7.33386,2.6929,4.23989,9.78,-0.22,1.08,3.0
1758078537.05982,1758078537.03433,0.0,0.0,0.0,-5.95876,1.60428,4.35448,9.78,-0.22,1.08,3.0
1758078537.06146,1758078537.04433,0.0,0.0,0.0,-3.09397,-2.57831,5.50039,9.64,-0.75,1.27,3.0
1758078537.07688,1758078537.05433,0.0,0.0,0.0,-0.80214,-4.92744,7.10468,9.64,-0.75,1.27,3.0
1758078537.0925,1758078537.06433,0.0,0.0,0.0,1.66158,-6.35983,9.4538,9.85,-1.21,0.91,3.0
1758078537.09452,1758078537.07433,0.0,0.0,0.0,4.46907,-7.67763,12.204,9.85,-1.21,0.91,3.0
1758078537.10949,1758078537.08433,0.0,0.0,0.0,9.11003,-11.45916,15.75634,10.0,-1.4,0.67,3.0
1758078537.11064,1758078537.09433,0.0,0.0,0.0,11.63104,-15.75634,16.90226,9.72,-1.37,0.62,3.0
1758078537.12661,1758078537.10433,0.0,0.0,0.0,14.72501,-20.05352,17.53251,9.72,-1.37,0.62,3.0
1758078537.14258,1758078537.11433,0.0,0.0,0.0,15.46986,-28.30412,16.55848,9.49,-1.18,1.17,3.0
1758078537.14636,1758078537.12433,0.0,0.0,0.0,15.29797,-26.98631,13.86558,9.49,-1.18,1.17,3.0
1758078537.16179,1758078537.13433,0.0,0.0,0.0,14.09476,-15.0115,13.5218,11.32,-0.47,2.42,3.0
1758078537.16386,1758078537.14433,0.0,0.0,0.0,11.17268,-0.0573,12.08941,11.32,-0.47,2.42,3.0
1758078537.17972,1758078537.15433,0.0,0.0,0.0,7.62034,-0.57296,9.11003,12.63,0.36,3.54,3.0
1758078537.18106,1758078537.16433,0.0,0.0,0.0,6.7609,-14.61043,8.93814,10.16,0.82,2.81,3.0
1758078537.19554,1758078537.17433,0.0,0.0,0.0,6.41713,-26.87172,10.25595,10.16,0.82,2.81,3.0
1758078537.21188,1758078537.18433,0.0,0.0,0.0,6.47442,-28.87707,11.97482,11.44,0.04,1.89,3.0
1758078537.213,1758078537.19433,0.0,0.0,0.0,5.90147,-9.11003,10.19865,11.44,0.04,1.89,3.0
1758078537.22981,1758078537.20433,0.0,0.0,0.0,7.73493,0.0,9.74028,14.04,-0.95,2.46,3.0
1758078537.23154,1758078537.21433,0.0,0.0,0.0,9.96947,1.71887,7.21927,14.04,-0.95,2.46,3.0
1758078537.24686,1758078537.22433,0.0,0.0,0.0,11.63104,4.52637,3.20856,13.47,-1.6,4.32,3.0
1758078537.26261,1758078537.23433,0.0,0.0,0.0,12.204,11.28727,-3.89611,14.35,-1.15,3.94,3.0
1758078537.26463,1758078537.24433,0.0,0.0,0.0,11.97482,14.15206,-8.02141,14.35,-1.15,3.94,3.0
1758078537.27856,1758078537.25433,0.0,0.0,0.0,11.63104,16.3293,-10.48513,13.66,-0.23,3.67,3.0
1758078537.28137,1758078537.26433,0.0,0.0,0.0,11.91752,15.69904,-10.8289,13.66,-0.23,3.67,3.0
1758078537.29684,1758078537.27433,0.0,0.0,0.0,12.83425,10.8862,-9.85487,12.52,0.07,3.84,3.0
1758078537.31283,1758078537.28433,0.0,0.0,0.0,14.15206,5.84417,-8.136,12.52,0.07,3.84,3.0
1758078537.31375,1758078537.29433,0.0,0.0,0.0,16.272,1.3751,-6.07335,11.44,-0.17,3.58,3.0
1758078537.33013,1758078537.30433,0.0,0.0,0.0,18.90761,-2.57831,-3.95341,11.44,-0.17,3.58,3.0
1758078537.33128,1758078537.31433,0.0,0.0,0.0,24.00693,-8.65166,-0.22918,10.56,-0.5,3.59,3.0
1758078537.34684,1758078537.32433,0.0,0.0,0.0,27.38738,-13.00614,1.77617,9.52,-0.79,3.49,3.0
1758078537.36287,1758078537.33433,0.0,0.0,0.0,30.76784,-17.24603,4.18259,9.52,-0.79,3.49,3.0
1758078537.36464,1758078537.34433,0.0,0.0,0.0,34.09099,-19.82434,6.35983,8.76,-0.87,3.16,3.0
1758078537.38037,1758078537.35433,0.0,0.0,0.0,35.69527,-24.17882,7.39116,8.76,-0.87,3.16,3.0
1758078537.38238,1758078537.36433,0.0,0.0,0.0,35.75257,-26.87172,7.84952,8.12,-0.42,3.02,3.0
1758078537.39789,1758078537.37433,0.0,0.0,0.0,35.40879,-27.78845,8.25059,8.12,-0.42,3.02,3.0
1758078537.40037,1758078537.38433,0.0,0.0,0.0,33.34615,-30.36677,7.21927,7.93,0.39,2.98,3.0
1758078537.4166,1758078537.39433,0.0,0.0,0.0,31.51268,-32.20023,6.07335,7.57,1.07,2.86,3.0
1758078537.43292,1758078537.40433,0.0,0.0,0.0,29.73651,-32.6013,4.92744,7.57,1.07,2.86,3.0
1758078537.43464,1758078537.41433,0.0,0.0,0.0,27.96034,-31.51268,3.32316,7.96,1.22,2.6,3.0
1758078537.45071,1758078537.42433,0.0,0.0,0.0,26.18417,-27.78845,1.48969,7.96,1.22,2.6,3.0
1758078537.45161,1758078537.43433,0.0,0.0,0.0,25.61122,-24.80907,0.40107,8.41,0.84,2.41,3.0
1758078537.46674,1758078537.44433,0.0,0.0,0.0,25.43933,-20.51189,-0.51566,8.41,0.84,2.41,3.0
1758078537.48267,1758078537.45433,0.0,0.0,0.0,25.43933,-14.09476,-1.3751,8.91,0.38,2.15,3.0
1758078537.48539,1758078537.46433,0.0,0.0,0.0,25.89769,-4.0107,-2.34913,9.22,0.22,1.92,3.0
1758078537.50094,1758078537.47433,0.0,0.0,0.0,26.81443,1.83346,-2.86479,9.22,0.22,1.92,3.0
1758078537.50183,1758078537.48433,0.0,0.0,0.0,27.2155,7.67763,-3.09397,9.19,0.31,1.76,3.0
1758078537.51668,1758078537.49433,0.0,0.0,0.0,27.73116,13.5791,-3.32316,9.19,0.31,1.76,3.0
1758078537.53291,1758078537.50433,0.0,0.0,0.0,28.41871,20.68378,-3.60963,9.13,0.44,1.71,3.0
1758078537.53541,1758078537.51433,0.0,0.0,0.0,28.70519,23.37668,-3.89611,9.13,0.44,1.71,3.0
1758078537.5507,1758078537.52433,0.0,0.0,0.0,28.64789,24.5226,-4.29718,8.83,0.47,1.73,3.0
1758078537.55215,1758078537.53433,0.0,0.0,0.0,28.59059,25.21014,-4.92744,8.83,0.47,1.73,3.0
1758078537.56666,1758078537.54433,0.0,0.0,0.0,28.64789,24.57989,-5.55769,8.66,0.45,1.82,3.0
1758078537.58297,1758078537.55433,0.0,0.0,0.0,28.59059,23.0329,-5.61499,8.53,0.49,1.73,3.0
1758078537.58379,1758078537.56433,0.0,0.0,0.0,28.30412,20.79837,-5.4431,8.53,0.49,1.73,3.0
1758078537.60072,1758078537.57433,0.0,0.0,0.0,27.78845,16.55848,-4.52637,8.36,0.5,1.73,3.0
1758078537.60232,1758078537.58433,0.0,0.0,0.0,27.50197,14.15206,-3.66693,8.36,0.5,1.73,3.0
1758078537.61673,1758078537.59433,0.0,0.0,0.0,27.38738,11.57375,-2.29183,8.46,0.41,1.76,3.0
1758078537.63281,1758078537.60433,0.0,0.0,0.0,27.38738,8.99544,-0.80214,8.46,0.41,1.76,3.0
1758078537.63492,1758078537.61433,0.0,0.0,0.0,26.69983,8.136,-0.68755,8.57,0.33,1.92,3.0
1758078537.65078,1758078537.62433,0.0,0.0,0.0,25.89769,6.8182,-1.43239,8.58,0.48,2.03,3.0
1758078537.65165,1758078537.63433,0.0,0.0,0.0,25.38203,4.46907,-2.97938,8.58,0.48,2.03,3.0
1758078537.66667,1758078537.64433,0.0,0.0,0.0,25.09555,1.71887,-4.92744,8.37,0.75,2.0,3.0
1758078537.68292,1758078537.65433,0.0,0.0,0.0,24.57989,-1.77617,-7.73493,8.37,0.75,2.0,3.0
1758078537.68334,1758078537.66433,0.0,0.0,0.0,24.5226,-4.0107,-8.88085,8.5,0.87,1.8,3.0
1758078537.69899,1758078537.67433,0.0,0.0,0.0,24.57989,-6.07335,-9.4538,8.5,0.87,1.8,3.0
1758078537.70027,1758078537.68433,0.0,0.0,0.0,24.57989,-8.02141,-9.28192,8.53,0.83,1.72,3.0
1758078537.71475,1758078537.69433,0.0,0.0,0.0,24.35071,-9.62569,-7.62034,8.65,0.76,1.62,3.0
1758078537.73096,1758078537.70433,0.0,0.0,0.0,23.94964,-9.5684,-6.35983,8.65,0.76,1.62,3.0
1758078537.73191,1758078537.71433,0.0,0.0,0.0,23.49127,-8.76626,-4.69825,9.01,0.7,1.64,3.0
1758078537.74692,1758078537.72433,0.0,0.0,0.0,22.74642,-7.73493,-2.97938,9.01,0.7,1.64,3.0
1758078537.76291,1758078537.73433,0.0,0.0,0.0,21.31403,-4.58366,-1.43239,9.3,0.71,1.6,3.0
1758078537.76336,1758078537.74433,0.0,0.0,0.0,20.34,-1.94806,-1.08862,9.3,0.71,1.6,3.0
1758078537.77999,1758078537.75433,0.0,0.0,0.0,19.07949,1.03132,-1.14592,9.48,0.81,1.52,3.0
1758078537.78118,1758078537.76433,0.0,0.0,0.0,16.90226,4.0107,-2.00535,9.48,0.81,1.52,3.0
1758078537.79601,1758078537.77433,0.0,0.0,0.0,15.35527,7.67763,-2.97938,9.5,0.94,1.44,3.0
1758078537.81203,1758078537.78433,0.0,0.0,0.0,14.15206,9.11003,-3.49504,9.35,1.0,1.36,3.0
1758078537.81241,1758078537.79433,0.0,0.0,0.0,12.89155,10.31324,-3.60963,9.35,1.0,1.36,3.0
1758078537.828,1758078537.80433,0.0,0.0,0.0,11.28727,12.2613,-2.63561,9.37,0.95,1.28,3.0
1758078537.82893,1758078537.81433,0.0,0.0,0.0,10.19865,11.28727,-2.06265,9.37,0.95,1.28,3.0
1758078537.84697,1758078537.82433,0.0,0.0,0.0,8.88085,8.59437,-1.94806,9.21,0.85,1.31,3.0
1758078537.84906,1758078537.83433,0.0,0.0,0.0,7.39116,9.05273,-1.48969,9.21,0.85,1.31,3.0
1758078537.86593,1758078537.84433,0.0,0.0,0.0,5.09932,11.22997,-1.60428,9.47,0.82,1.24,3.0
1758078537.88177,1758078537.85433,0.0,0.0,0.0,3.49504,10.59972,-0.57296,9.49,1.01,1.23,3.0
1758078537.88235,1758078537.86433,0.0,0.0,0.0,-0.57296,13.40721,-3.20856,9.49,1.01,1.23,3.0
1758078537.89892,1758078537.87433,0.0,0.0,0.0,-3.32316,13.46451,-4.18259,9.54,1.37,1.56,3.0
1758078537.89994,1758078537.88433,0.0,0.0,0.0,-8.59437,13.5791,-7.50575,9.54,1.37,1.56,3.0
1758078537.91474,1758078537.89433,0.0,0.0,0.0,-12.2613,14.61043,-9.91217,9.57,1.73,1.35,3.0
1758078537.93153,1758078537.90433,0.0,0.0,0.0,-15.98552,11.80293,-12.08941,9.57,1.73,1.35,3.0
1758078537.93274,1758078537.91433,0.0,0.0,0.0,-18.90761,4.58366,-14.09476,9.25,1.88,1.32,3.0
1758078537.948,1758078537.92433,0.0,0.0,0.0,-21.6578,-6.99009,-14.49583,9.1,1.69,0.93,3.0
1758078537.94894,1758078537.93433,0.0,0.0,0.0,-22.86102,-14.49583,-12.54778,9.1,1.69,0.93,3.0
1758078537.96506,1758078537.94433,0.0,0.0,0.0,-23.72045,-18.56383,-9.62569,9.63,1.18,0.74,3.0
1758078537.98105,1758078537.95433,0.0,0.0,0.0,-23.94964,-18.50654,-3.72423,9.63,1.18,0.74,3.0
1758078537.98225,1758078537.96433,0.0,0.0,0.0,-24.63719,5.27121,-1.20321,11.57,0.85,1.32,3.0
1758078537.99692,1758078537.97433,0.0,0.0,0.0,-24.23611,23.60586,-1.14592,11.57,0.85,1.32,3.0
1758078538.0128,1758078537.98433,0.0,0.0,0.0,-22.86102,20.16812,-3.03668,12.78,1.01,2.35,3.0
1758078538.01609,1758078537.99433,0.0,0.0,0.0,-22.97561,-9.39651,-10.02676,12.78,1.01,2.35,3.0
1758078538.03208,1758078538.00433,0.0,0.0,0.0,-23.89234,-16.272,-16.38659,10.2,1.21,3.9,3.0
1758078538.03247,1758078538.01433,0.0,0.0,0.0,-24.17882,-5.84417,-19.70975,13.06,1.06,1.52,3.0
1758078538.04904,1758078538.02433,0.0,0.0,0.0,-23.26209,3.72423,-19.99623,13.06,1.06,1.52,3.0
1758078538.05108,1758078538.03433,0.0,0.0,0.0,-21.60051,5.95876,-14.38124,12.47,0.93,2.19,3.0
1758078538.06609,1758078538.04433,0.0,0.0,0.0,-20.34,7.62034,-8.42248,12.47,0.93,2.19,3.0
1758078538.08211,1758078538.05433,0.0,0.0,0.0,-18.9649,11.34457,-1.94806,12.43,0.45,2.79,3.0
1758078538.08262,1758078538.06433,0.0,0.0,0.0,-17.99088,15.75634,3.55234,12.43,0.45,2.79,3.0
1758078538.09879,1758078538.07433,0.0,0.0,0.0,-16.84496,23.31938,8.25059,13.56,0.42,2.93,3.0
1758078538.10004,1758078538.08433,0.0,0.0,0.0,-16.55848,22.74642,8.65166,13.88,0.88,3.74,3.0
1758078538.11483,1758078538.09433,0.0,0.0,0.0,-17.18874,18.90761,7.10468,13.88,0.88,3.74,3.0
1758078538.13098,1758078538.10433,0.0,0.0,0.0,-18.27736,15.24068,4.18259,13.19,1.58,3.61,3.0
1758078538.13201,1758078538.11433,0.0,0.0,0.0,-21.31403,11.28727,-1.08862,13.19,1.58,3.61,3.0
1758078538.14682,1758078538.12433,0.0,0.0,0.0,-23.89234,9.33921,-4.1253,12.65,1.87,3.39,3.0
1758078538.14913,1758078538.13433,0.0,0.0,0.0,-26.47065,7.10468,-6.87549,12.65,1.87,3.39,3.0
1758078538.16605,1758078538.14433,0.0,0.0,0.0,-28.87707,3.09397,-8.88085,11.5,1.59,3.19,3.0
1758078538.16706,1758078538.15433,0.0,0.0,0.0,-31.51268,-4.1253,-10.54242,10.06,1.11,2.98,3.0
1758078538.18243,1758078538.16433,0.0,0.0,0.0,-32.48671,-7.39116,-11.34457,10.06,1.11,2.98,3.0
1758078538.19813,1758078538.17433,0.0,0.0,0.0,-33.00237,-11.51645,-11.28727,9.09,0.69,2.92,3.0
1758078538.19907,1758078538.18433,0.0,0.0,0.0,-32.71589,-17.24603,-10.37054,9.09,0.69,2.92,3.0
1758078538.21414,1758078538.19433,0.0,0.0,0.0,-31.91375,-24.98096,-9.05273,8.19,0.38,2.83,3.0
1758078538.23015,1758078538.20433,0.0,0.0,0.0,-30.48136,-29.10626,-7.39116,8.19,0.38,2.83,3.0
1758078538.23107,1758078538.21433,0.0,0.0,0.0,-28.64789,-32.83048,-5.61499,7.96,-0.01,2.67,3.0
1758078538.24621,1758078538.22433,0.0,0.0,0.0,-25.38203,-39.01843,-3.38045,7.96,-0.01,2.67,3.0
1758078538.24707,1758078538.23433,0.0,0.0,0.0,-22.91831,-43.02913,-2.23454,7.58,-0.57,2.63,3.0
1758078538.26252,1758078538.24433,0.0,0.0,0.0,-20.51189,-46.06581,-1.08862,7.45,-1.04,2.69,3.0
1758078538.26693,1758078538.25433,0.0,0.0,0.0,-18.44924,-47.38361,0.0573,7.45,-1.04,2.69,3.0
1758078538.28691,1758078538.26433,0.0,0.0,0.0,-16.10011,-47.61279,1.43239,7.84,-0.93,2.63,3.0
1758078538.28887,1758078538.27433,0.0,0.0,0.0,-15.12609,-46.98254,2.06265,7.84,-0.93,2.63,3.0
1758078538.30568,1758078538.28433,0.0,0.0,0.0,-14.49583,-45.49285,2.23454,8.22,-0.23,2.62,3.0
1758078538.32114,1758078538.29433,0.0,0.0,0.0,-14.38124,-43.14373,1.66158,8.22,-0.23,2.62,3.0
1758078538.32233,1758078538.30433,0.0,0.0,0.0,-14.66772,-38.56006,0.74485,8.73,0.35,2.53,3.0
1758078538.33715,1758078538.31433,0.0,0.0,0.0,-14.61043,-34.60666,0.11459,9.24,0.47,2.42,3.0
1758078538.33834,1758078538.32433,0.0,0.0,0.0,-14.61043,-29.8511,-0.17189,9.24,0.47,2.42,3.0
1758078538.35464,1758078538.33433,0.0,0.0,0.0,-14.20935,-24.57989,-0.40107,9.62,0.27,2.1,3.0
1758078538.37095,1758078538.34433,0.0,0.0,0.0,-13.69369,-16.21471,-0.0573,9.62,0.27,2.1,3.0
1758078538.37229,1758078538.35433,0.0,0.0,0.0,-13.40721,-10.65701,0.45837,9.6,0.09,2.05,3.0
1758078538.38694,1758078538.36433,0.0,0.0,0.0,-12.77696,-5.21392,1.03132,9.6,0.09,2.05,3.0
1758078538.39,1758078538.37433,0.0,0.0,0.0,-11.97482,-0.0573,1.94806,9.35,0.02,2.04,3.0
1758078538.40526,1758078538.38433,0.0,0.0,0.0,-10.8862,6.70361,2.57831,9.21,-0.06,1.95,3.0
1758078538.42123,1758078538.39433,0.0,0.0,0.0,-9.85487,9.68299,3.38045,9.21,-0.06,1.95,3.0
1758078538.42211,1758078538.40433,0.0,0.0,0.0,-9.11003,12.14671,4.23989,9.16,-0.15,1.87,3.0
1758078538.43707,1758078538.41433,0.0,0.0,0.0,-8.36518,15.75634,5.4431,9.16,-0.15,1.87,3.0
1758078538.44057,1758078538.42433,0.0,0.0,0.0,-7.79223,17.30333,6.47442,9.19,-0.09,1.8,3.0
1758078538.45617,1758078538.43433,0.0,0.0,0.0,-7.67763,18.22006,7.33386,9.19,-0.09,1.8,3.0
1758078538.45736,1758078538.44433,0.0,0.0,0.0,-7.73493,19.59516,8.0787,9.04,0.04,1.82,3.0
1758078538.47471,1758078538.45433,0.0,0.0,0.0,-8.25059,20.3973,9.22462,9.04,0.04,1.87,3.0
1758078538.49015,1758078538.46433,0.0,0.0,0.0,-8.59437,19.25138,9.39651,8.98,0.2,1.87,3.0
1758078538.4912,1758078538.47433,0.0,0.0,0.0,-8.36518,18.85031,9.91217,8.8,0.21,1.78,3.0
1758078538.50621,1758078538.48433,0.0,0.0,0.0,-7.96411,19.19409,10.48513,8.8,0.21,1.78,3.0
1758078538.50822,1758078538.49433,0.0,0.0,0.0,-6.35983,19.13679,11.86023,8.8,-0.08,1.45,3.0
1758078538.52702,1758078538.50433,0.0,0.0,0.0,-5.55769,17.99088,13.06344,8.8,-0.08,1.45,3.0
1758078538.53136,1758078538.51433,0.0,0.0,0.0,-5.15662,17.36062,13.98017,8.65,-0.36,1.53,3.0
1758078538.54725,1758078538.52433,0.0,0.0,0.0,-5.15662,16.55848,14.38124,8.65,-0.36,1.53,3.0
1758078538.5489,1758078538.53433,0.0,0.0,0.0,-5.90147,13.5218,13.5218,8.71,-0.32,1.61,3.0
1758078538.56427,1758078538.54433,0.0,0.0,0.0,-6.58902,10.48513,12.37589,8.51,0.01,1.65,3.0
1758078538.58027,1758078538.55433,0.0,0.0,0.0,-7.50575,8.02141,10.48513,8.51,0.01,1.65,3.0
1758078538.58136,1758078538.56433,0.0,0.0,0.0,-8.59437,6.41713,8.88085,8.68,0.32,1.67,3.0
1758078538.59619,1758078538.57433,0.0,0.0,0.0,-10.19865,4.35448,6.47442,8.68,0.32,1.67,3.0
1758078538.59743,1758078538.58433,0.0,0.0,0.0,-10.8862,3.38045,5.50039,8.96,0.3,1.67,3.0
1758078538.61346,1758078538.59433,0.0,0.0,0.0,-11.22997,3.83882,4.98473,8.96,0.3,1.67,3.0
1758078538.63,1758078538.60433,0.0,0.0,0.0,-11.11538,4.92744,5.27121,9.35,-0.04,1.52,3.0
1758078538.63198,1758078538.61433,0.0,0.0,0.0,-10.48513,5.15662,6.07335,9.46,-0.4,1.45,3.0
1758078538.647,1758078538.62433,0.0,0.0,0.0,-9.39651,5.78687,6.99009,9.46,-0.4,1.45,3.0
1758078538.64981,1758078538.63433,0.0,0.0,0.0,-8.42248,6.18794,8.0787,9.58,-0.54,1.4,3.0
1758078538.66527,1758078538.64433,0.0,0.0,0.0,-9.22462,3.03668,9.28192,9.58,-0.54,1.4,3.0
1758078538.66705,1758078538.65433,0.0,0.0,0.0,-6.07335,3.20856,9.5684,9.36,-0.52,1.27,3.0
1758078538.68682,1758078538.66433,0.0,0.0,0.0,-5.78687,3.66693,9.4538,9.36,-0.52,1.27,3.0
1758078538.68915,1758078538.67433,0.0,0.0,0.0,-5.50039,3.32316,8.88085,9.49,-0.41,1.26,3.0
1758078538.70563,1758078538.68433,0.0,0.0,0.0,-5.61499,2.29183,7.62034,9.46,-0.3,1.24,3.0
1758078538.70708,1758078538.69433,0.0,0.0,0.0,-4.69825,4.81285,7.84952,9.46,-0.3,1.24,3.0
1758078538.72613,1758078538.70433,0.0,0.0,0.0,-4.0107,7.96411,7.67763,9.96,-0.41,1.27,3.0
1758078538.72725,1758078538.71433,0.0,0.0,0.0,-2.7502,9.22462,7.79223,9.96,-0.41,1.27,3.0
1758078538.74637,1758078538.72433,0.0,0.0,0.0,0.0,9.4538,8.70896,9.74,-0.63,1.25,3.0
1758078538.74726,1758078538.73433,0.0,0.0,0.0,2.40642,10.8289,10.19865,9.74,-0.63,1.25,3.0
1758078538.76413,1758078538.74433,0.0,0.0,0.0,4.98473,11.80293,12.37589,9.9,-0.91,1.22,3.0
1758078538.78004,1758078538.75433,0.0,0.0,0.0,7.84952,13.12073,15.06879,9.9,-0.91,1.22,3.0
1758078538.78155,1758078538.76433,0.0,0.0,0.0,11.97482,15.06879,18.79302,9.9,-1.14,1.16,3.0
1758078538.79639,1758078538.77433,0.0,0.0,0.0,15.29797,16.50119,19.88164,10.08,-1.12,1.24,3.0
1758078538.79772,1758078538.78433,0.0,0.0,0.0,17.13144,16.21471,20.16812,10.08,-1.12,1.24,3.0
1758078538.81338,1758078538.79433,0.0,0.0,0.0,18.56383,15.24068,18.79302,10.33,-0.77,1.14,3.0
1758078538.83026,1758078538.80433,0.0,0.0,0.0,18.33465,12.2613,14.43854,10.33,-0.77,1.14,3.0
1758078538.83123,1758078538.81433,0.0,0.0,0.0,18.44924,14.83961,9.4538,10.72,-0.27,1.34,3.0
1758078538.84633,1758078538.82433,0.0,0.0,0.0,17.58981,26.06958,3.83882,10.72,-0.27,1.34,3.0
1758078538.84727,1758078538.83433,0.0,0.0,0.0,16.272,40.62271,-0.17189,12.32,-0.08,1.99,3.0
1758078538.86434,1758078538.84433,0.0,0.0,0.0,17.58981,37.98711,-0.17189,12.31,-0.24,4.24,3.0
1758078538.88113,1758078538.85433,0.0,0.0,0.0,14.43854,12.49048,-0.85944,12.31,-0.24,4.24,3.0
1758078538.88233,1758078538.86433,0.0,0.0,0.0,11.51645,-7.16197,1.3178,10.97,-0.05,3.94,3.0
1758078538.89912,1758078538.87433,0.0,0.0,0.0,11.28727,-14.83961,10.25595,10.97,-0.05,3.94,3.0
1758078538.90032,1758078538.88433,0.0,0.0,0.0,9.39651,-5.72958,9.68299,14.21,-0.03,2.8,3.0
1758078538.9162,1758078538.89433,0.0,0.0,0.0,9.96947,2.97938,9.28192,14.21,-0.03,2.8,3.0
1758078538.91827,1758078538.90433,0.0,0.0,0.0,12.2613,3.83882,5.61499,14.37,-0.63,2.73,3.0
1758078538.9364,1758078538.91433,0.0,0.0,0.0,16.38659,2.63561,-1.60428,13.31,-1.21,3.85,3.0
1758078538.93763,1758078538.92433,0.0,0.0,0.0,17.99088,5.21392,-6.18794,13.31,-1.21,3.85,3.0
1758078538.95513,1758078538.93433,0.0,0.0,0.0,18.9649,6.99009,-8.76626,12.89,-1.01,3.74,3.0
1758078538.95713,1758078538.94433,0.0,0.0,0.0,19.59516,6.87549,-9.4538,12.89,-1.01,3.74,3.0
1758078538.97319,1758078538.95433,0.0,0.0,0.0,20.51189,2.11994,-7.44845,11.33,-0.52,3.66,3.0
1758078538.98914,1758078538.96433,0.0,0.0,0.0,21.02755,-3.20856,-5.50039,11.33,-0.52,3.66,3.0
1758078538.99036,1758078538.97433,0.0,0.0,0.0,21.48592,-10.08406,-3.38045,9.91,-0.27,3.46,3.0
1758078539.00544,1758078538.98433,0.0,0.0,0.0,22.05888,-16.84496,-1.83346,9.91,-0.27,3.46,3.0
1758078539.02149,1758078538.99433,0.0,0.0,0.0,23.60586,-23.89234,0.11459,8.9,-0.33,3.1,3.0
1758078539.02236,1758078539.00433,0.0,0.0,0.0,24.5226,-29.27814,1.3751,8.5,-0.45,3.16,3.0
1758078539.03743,1758078539.01433,0.0,0.0,0.0,25.38203,-34.49206,2.11994,8.5,-0.45,3.16,3.0
1758078539.03917,1758078539.02433,0.0,0.0,0.0,26.12688,-40.62271,2.29183,8.06,-0.3,3.18,3.0
1758078539.05446,1758078539.03433,0.0,0.0,0.0,26.12688,-43.88857,2.06265,8.06,-0.3,3.18,3.0
1758078539.07032,1758078539.04433,0.0,0.0,0.0,25.89769,-46.63877,1.94806,7.83,0.14,3.34,3.0
1758078539.07165,1758078539.05433,0.0,0.0,0.0,25.21014,-48.58683,1.3178,7.83,0.14,3.34,3.0
1758078539.08616,1758078539.06433,0.0,0.0,0.0,24.17882,-49.84733,0.0,7.81,0.47,3.38,3.0
1758078539.08735,1758078539.07433,0.0,0.0,0.0,23.60586,-50.53488,-0.57296,7.95,0.42,3.24,3.0
1758078539.10516,1758078539.08433,0.0,0.0,0.0,22.97561,-49.56085,-1.3178,7.95,0.42,3.24,3.0
1758078539.10715,1758078539.09433,0.0,0.0,0.0,22.86102,-47.49821,-1.48969,8.24,0.07,2.74,3.0
1758078539.12341,1758078539.10433,0.0,0.0,0.0,23.49127,-42.05511,-0.85944,8.24,0.07,2.74,3.0
1758078539.14016,1758078539.11433,0.0,0.0,0.0,24.57989,-36.38282,0.0,8.82,-0.16,2.52,3.0
1758078539.14138,1758078539.12433,0.0,0.0,0.0,25.8404,-29.50733,0.57296,8.82,-0.16,2.52,3.0
1758078539.15618,1758078539.13433,0.0,0.0,0.0,27.1582,-22.11617,0.85944,9.17,-0.3,2.04,3.0
1758078539.15738,1758078539.14433,0.0,0.0,0.0,29.10626,-12.49048,1.14592,8.95,-0.13,1.92,3.0
1758078539.17346,1758078539.15433,0.0,0.0,0.0,30.30947,-5.72958,1.08862,8.95,-0.13,1.92,3.0
1758078539.19052,1758078539.16433,0.0,0.0,0.0,30.93972,1.3178,0.85944,8.9,0.12,1.89,3.0
1758078539.19137,1758078539.17433,0.0,0.0,0.0,31.11161,8.02141,0.51566,8.9,0.12,1.89,3.0
1758078539.20654,1758078539.18433,0.0,0.0,0.0,30.65324,16.67307,-0.57296,8.82,0.43,1.8,3.0
1758078539.20739,1758078539.19433,0.0,0.0,0.0,30.48136,21.08485,-1.3751,8.82,0.43,1.8,3.0
1758078539.22352,1758078539.20433,0.0,0.0,0.0,29.56462,24.5226,-2.57831,8.74,0.66,1.87,3.0
1758078539.23948,1758078539.21433,0.0,0.0,0.0,28.476,26.87172,-4.58366,8.74,0.66,1.87,3.0
1758078539.24118,1758078539.22433,0.0,0.0,0.0,26.75713,28.64789,-5.72958,8.84,0.79,2.02,3.0
1758078539.25652,1758078539.23433,0.0,0.0,0.0,25.49662,30.53865,-6.24524,9.11,0.77,1.89,3.0
1758078539.25745,1758078539.24433,0.0,0.0,0.0,24.29341,31.39809,-6.8182,9.11,0.77,1.89,3.0
1758078539.27344,1758078539.25433,0.0,0.0,0.0,22.91831,29.04896,-6.99009,9.0,0.68,1.8,3.0
1758078539.29105,1758078539.26433,0.0,0.0,0.0,22.40265,26.24147,-6.47442,9.0,0.68,1.8,3.0
1758078539.29228,1758078539.27433,0.0,0.0,0.0,22.57454,22.97561,-5.32851,8.78,0.47,1.72,3.0
1758078539.3081,1758078539.28433,0.0,0.0,0.0,22.63183,21.6578,-4.18259,8.78,0.47,1.72,3.0
1758078539.31242,1758078539.29433,0.0,0.0,0.0,22.86102,22.40265,-3.66693,9.04,0.28,1.79,3.0
1758078539.32731,1758078539.30433,0.0,0.0,0.0,22.97561,21.7151,-4.1253,9.02,0.31,1.91,3.0
1758078539.32848,1758078539.31433,0.0,0.0,0.0,23.20479,19.42327,-5.09932,9.02,0.31,1.91,3.0
1758078539.3444,1758078539.32433,0.0,0.0,0.0,23.66316,16.10011,-5.95876,8.68,0.45,1.78,3.0
1758078539.36134,1758078539.33433,0.0,0.0,0.0,24.75178,11.28727,-6.70361,8.68,0.45,1.78,3.0
1758078539.36913,1758078539.34433,0.0,0.0,0.0,25.43933,8.70896,-6.99009,8.74,0.5,1.68,3.0
1758078539.37222,1758078539.35433,0.0,0.0,0.0,26.41335,5.95876,-6.7609,8.74,0.5,1.68,3.0
1758078539.39089,1758078539.36433,0.0,0.0,0.0,26.87172,4.0107,-6.58902,8.85,0.41,1.78,3.0
1758078539.39205,1758078539.37433,0.0,0.0,0.0,27.44468,2.11994,-5.90147,9.16,0.37,1.66,3.0
1758078539.40902,1758078539.38433,0.0,0.0,0.0,27.44468,1.60428,-5.27121,9.16,0.37,1.66,3.0
1758078539.41246,1758078539.39433,0.0,0.0,0.0,27.10091,1.66158,-4.35448,9.35,0.5,1.46,3.0
1758078539.43088,1758078539.40433,0.0,0.0,0.0,26.47065,2.06265,-3.83882,9.35,0.5,1.46,3.0
1758078539.43236,1758078539.41433,0.0,0.0,0.0,24.98096,3.20856,-3.09397,9.32,0.69,1.44,3.0
1758078539.44733,1758078539.42433,0.0,0.0,0.0,23.89234,4.46907,-2.92208,9.32,0.69,1.44,3.0
1758078539.44877,1758078539.43433,0.0,0.0,0.0,22.57454,5.95876,-2.97938,9.32,0.88,1.5,3.0
1758078539.46331,1758078539.44433,0.0,0.0,0.0,20.22541,8.47978,-3.38045,9.32,0.88,1.5,3.0
1758078539.48133,1758078539.45433,0.0,0.0,0.0,18.90761,9.33921,-3.49504,9.36,1.02,1.49,3.0
1758078539.48234,1758078539.46433,0.0,0.0,0.0,17.13144,10.94349,-3.66693,9.39,1.1,1.4,3.0
1758078539.49967,1758078539.47433,0.0,0.0,0.0,15.35527,12.43318,-3.89611,9.39,1.1,1.4,3.0
1758078539.50082,1758078539.48433,0.0,0.0,0.0,12.89155,12.77696,-3.60963,9.39,1.13,1.27,3.0
1758078539.51638,1758078539.49433,0.0,0.0,0.0,10.94349,11.97482,-3.38045,9.39,1.13,1.27,3.0
1758078539.51834,1758078539.50433,0.0,0.0,0.0,8.47978,10.08406,-3.83882,9.24,1.09,1.21,3.0
1758078539.53465,1758078539.51433,0.0,0.0,0.0,5.90147,8.99544,-3.72423,9.24,1.09,1.21,3.0
1758078539.55139,1758078539.52433,0.0,0.0,0.0,2.06265,9.28192,-3.83882,9.34,1.14,1.15,3.0
1758078539.55422,1758078539.53433,0.0,0.0,0.0,-0.40107,7.33386,-3.09397,9.5,1.29,1.15,3.0
1758078539.57092,1758078539.54433,0.0,0.0,0.0,-5.09932,8.59437,-5.32851,9.5,1.29,1.15,3.0
1758078539.57214,1758078539.55433,0.0,0.0,0.0,-8.25059,8.0787,-6.18794,9.49,1.56,1.49,3.0
1758078539.58967,1758078539.56433,0.0,0.0,0.0,-13.75099,7.79223,-9.11003,9.49,1.56,1.49,3.0
1758078539.59132,1758078539.57433,0.0,0.0,0.0,-17.58981,6.70361,-10.65701,9.52,1.78,1.39,3.0
1758078539.60632,1758078539.58433,0.0,0.0,0.0,-21.42862,2.11994,-13.06344,9.52,1.78,1.39,3.0
1758078539.60843,1758078539.59433,0.0,0.0,0.0,-24.23611,-3.95341,-14.15206,9.17,1.91,1.37,3.0
1758078539.62544,1758078539.60433,0.0,0.0,0.0,-26.87172,-14.61043,-13.5218,9.19,1.74,0.98,3.0
1758078539.64138,1758078539.61433,0.0,0.0,0.0,-28.01764,-23.0329,-11.45916,9.19,1.74,0.98,3.0
1758078539.64266,1758078539.62433,0.0,0.0,0.0,-29.27814,-27.61657,-8.25059,9.52,1.32,0.88,3.0
1758078539.65766,1758078539.63433,0.0,0.0,0.0,-29.8511,-24.63719,-1.48969,9.52,1.32,0.88,3.0
1758078539.66052,1758078539.64433,0.0,0.0,0.0,-31.79916,2.29183,-0.80214,11.92,1.12,1.9,3.0
1758078539.67541,1758078539.65433,0.0,0.0,0.0,-30.76784,8.136,0.45837,11.92,1.12,1.9,3.0
1758078539.69166,1758078539.66433,0.0,0.0,0.0,-32.42941,-13.23533,-7.33386,11.83,1.11,4.0,3.0
1758078539.69266,1758078539.67433,0.0,0.0,0.0,-30.48136,-21.7151,-20.3973,11.83,1.11,4.0,3.0
1758078539.70769,1758078539.68433,0.0,0.0,0.0,-27.84575,-7.67763,-27.44468,12.4,0.86,4.12,3.0
1758078539.71099,1758078539.69433,0.0,0.0,0.0,-25.8404,3.89611,-29.96569,14.1,0.8,1.6,3.0
1758078539.72652,1758078539.70433,0.0,0.0,0.0,-24.29341,7.73493,-27.50197,14.1,0.8,1.6,3.0
1758078539.72876,1758078539.71433,0.0,0.0,0.0,-22.97561,14.03747,-17.24603,12.06,0.72,2.49,3.0
1758078539.74578,1758078539.72433,0.0,0.0,0.0,-23.0329,18.44924,-8.136,12.06,0.72,2.49,3.0
1758078539.7617,1758078539.73433,0.0,0.0,0.0,-23.60586,20.05352,0.11459,12.16,0.69,2.67,3.0
1758078539.76262,1758078539.74433,0.0,0.0,0.0,-24.23611,20.74107,5.78687,12.16,0.69,2.67,3.0
1758078539.77846,1758078539.75433,0.0,0.0,0.0,-24.75178,17.93358,7.04738,12.17,0.95,3.43,3.0
1758078539.78207,1758078539.76433,0.0,0.0,0.0,-24.86637,13.86558,3.95341,12.2,1.29,3.71,3.0
1758078539.79763,1758078539.77433,0.0,0.0,0.0,-25.49662,10.31324,-0.22918,12.2,1.29,3.71,3.0
1758078539.79863,1758078539.78433,0.0,0.0,0.0,-26.87172,7.16197,-4.23989,12.07,1.46,3.31,3.0
1758078539.81459,1758078539.79433,0.0,0.0,0.0,-29.9084,3.66693,-8.47978,12.07,1.46,3.31,3.0
1758078539.83048,1758078539.80433,0.0,0.0,0.0,-32.20023,0.40107,-9.74028,11.31,1.43,3.11,3.0
1758078539.83244,1758078539.81433,0.0,0.0,0.0,-34.37747,-4.0107,-9.91217,11.31,1.43,3.11,3.0
1758078539.84947,1758078539.82433,0.0,0.0,0.0,-36.7266,-9.05273,-9.62569,10.02,1.18,2.9,3.0
1758078539.85224,1758078539.83433,0.0,0.0,0.0,-39.19032,-16.04282,-8.65166,8.94,0.81,2.89,3.0
1758078539.86749,1758078539.84433,0.0,0.0,0.0,-40.50812,-21.08485,-7.73493,8.94,0.81,2.89,3.0
1758078539.87187,1758078539.85433,0.0,0.0,0.0,-41.71133,-25.43933,-7.10468,8.36,0.51,2.93,3.0
1758078539.8878,1758078539.86433,0.0,0.0,0.0,-42.05511,-30.13758,-5.27121,8.36,0.51,2.93,3.0
1758078539.89211,1758078539.87433,0.0,0.0,0.0,-41.99781,-33.34615,-4.29718,8.42,0.19,2.9,3.0
1758078539.90832,1758078539.88433,0.0,0.0,0.0,-41.88322,-35.86716,-3.66693,8.42,0.19,2.9,3.0
1758078539.91196,1758078539.89433,0.0,0.0,0.0,-41.65404,-36.61201,-3.38045,8.49,-0.11,2.76,3.0
1758078539.93016,1758078539.90433,0.0,0.0,0.0,-40.27893,-42.39888,-2.86479,8.49,-0.11,2.76,3.0
1758078539.93296,1758078539.91433,0.0,0.0,0.0,-39.3622,-43.31561,-2.86479,8.09,-0.38,2.65,3.0
1758078539.9508,1758078539.92433,0.0,0.0,0.0,-38.1017,-43.83128,-2.7502,8.15,-0.55,2.67,3.0
1758078539.95419,1758078539.93433,0.0,0.0,0.0,-37.01308,-44.00316,-2.63561,8.15,-0.55,2.67,3.0
1758078539.96973,1758078539.94433,0.0,0.0,0.0,-35.52338,-42.68536,-2.40642,8.3,-0.58,2.51,3.0
1758078539.97627,1758078539.95433,0.0,0.0,0.0,-34.26288,-39.76327,-2.34913,8.3,-0.58,2.51,3.0
1758078539.99182,1758078539.96433,0.0,0.0,0.0,-33.11696,-35.69527,-2.57831,8.92,-0.54,2.46,3.0
1758078539.99464,1758078539.97433,0.0,0.0,0.0,-31.91375,-30.65324,-2.97938,8.92,-0.54,2.46,3.0
1758078540.00974,1758078539.98433,0.0,0.0,0.0,-29.73651,-22.91831,-3.32316,9.47,-0.49,2.4,3.0
1758078540.01074,1758078539.99433,0.0,0.0,0.0,-27.84575,-17.81899,-3.26586,9.73,-0.44,2.33,3.0
1758078540.02586,1758078540.00433,0.0,0.0,0.0,-26.12688,-11.91752,-2.86479,9.73,-0.44,2.33,3.0
1758078540.04152,1758078540.01433,0.0,0.0,0.0,-24.23611,-5.32851,-2.34913,10.0,-0.39,2.07,3.0
1758078540.04677,1758078540.02433,0.0,0.0,0.0,-21.48592,3.49504,-1.3178,10.0,-0.39,2.07,3.0
1758078540.06185,1758078540.03433,0.0,0.0,0.0,-19.99623,9.4538,-0.51566,9.99,-0.36,1.92,3.0
1758078540.06366,1758078540.04433,0.0,0.0,0.0,-18.73572,14.9542,0.0573,9.99,-0.36,1.92,3.0
1758078540.07882,1758078540.05433,0.0,0.0,0.0,-17.58981,19.42327,1.20321,9.85,-0.3,1.87,3.0
1758078540.08137,1758078540.06433,0.0,0.0,0.0,-16.21471,24.80907,2.06265,9.53,-0.23,1.88,3.0
1758078540.09686,1758078540.07433,0.0,0.0,0.0,-15.58445,28.07493,2.7502,9.53,-0.23,1.88,3.0
1758078540.09777,1758078540.08433,0.0,0.0,0.0,-14.83961,30.93972,3.55234,9.42,-0.2,1.84,3.0
1758078540.11463,1758078540.09433,0.0,0.0,0.0,-14.32395,34.26288,4.29718,9.42,-0.2,1.84,3.0
1758078540.13062,1758078540.10433,0.0,0.0,0.0,-14.20935,34.89313,4.69825,9.26,-0.13,1.92,3.0
1758078540.13202,1758078540.11433,0.0,0.0,0.0,-14.32395,33.11696,4.87014,9.26,-0.13,1.92,3.0
1758078540.14657,1758078540.12433,0.0,0.0,0.0,-14.49583,30.13758,4.81285,8.81,-0.03,1.97,3.0
1758078540.14808,1758078540.13433,0.0,0.0,0.0,-15.64175,25.89769,4.23989,8.68,-0.03,1.86,3.0
1758078540.16597,1758078540.14433,0.0,0.0,0.0,-16.84496,23.66316,3.55234,8.68,0.1,1.86,3.0
1758078540.18197,1758078540.15433,0.0,0.0,0.0,-17.18874,22.05888,3.09397,8.77,0.18,2.01,3.0
1758078540.18279,1758078540.16433,0.0,0.0,0.0,-17.30333,19.59516,2.97938,8.77,0.18,2.01,3.0
1758078540.19938,1758078540.17433,0.0,0.0,0.0,-16.67307,13.23533,3.95341,8.49,0.04,2.06,3.0
1758078540.20132,1758078540.18433,0.0,0.0,0.0,-16.272,9.33921,5.09932,8.49,0.04,2.06,3.0
1758078540.21668,1758078540.19433,0.0,0.0,0.0,-15.69904,6.53172,6.58902,8.47,-0.18,1.92,3.0
1758078540.21968,1758078540.20433,0.0,0.0,0.0,-15.46986,4.18259,7.50575,8.47,-0.18,1.92,3.0
1758078540.23592,1758078540.21433,0.0,0.0,0.0,-15.64175,-0.34377,7.73493,8.6,-0.3,1.79,3.0
1758078540.25195,1758078540.22433,0.0,0.0,0.0,-16.04282,-3.60963,6.87549,8.34,-0.16,1.78,3.0
1758078540.25307,1758078540.23433,0.0,0.0,0.0,-16.84496,-6.13065,5.61499,8.34,-0.16,1.78,3.0
1758078540.26841,1758078540.24433,0.0,0.0,0.0,-17.58981,-7.44845,4.18259,8.49,0.02,1.81,3.0
1758078540.27131,1758078540.25433,0.0,0.0,0.0,-18.73572,-8.02141,2.29183,8.49,0.02,1.81,3.0
1758078540.2868,1758078540.26433,0.0,0.0,0.0,-19.36597,-8.42248,1.48969,8.89,0.05,1.79,3.0
1758078540.28783,1758078540.27433,0.0,0.0,0.0,-19.53786,-8.76626,1.43239,8.89,0.05,1.79,3.0
1758078540.30391,1758078540.28433,0.0,0.0,0.0,-19.36597,-8.99544,2.23454,9.14,-0.12,1.79,3.0
1758078540.32045,1758078540.29433,0.0,0.0,0.0,-18.79302,-8.42248,2.86479,9.34,-0.43,1.65,3.0
1758078540.32164,1758078540.30433,0.0,0.0,0.0,-17.87628,-8.36518,3.89611,9.34,-0.43,1.65,3.0
1758078540.33694,1758078540.31433,0.0,0.0,0.0,-16.67307,-7.84952,4.92744,9.42,-0.67,1.51,3.0
1758078540.33867,1758078540.32433,0.0,0.0,0.0,-15.24068,-6.47442,5.61499,9.42,-0.67,1.51,3.0
1758078540.35658,1758078540.33433,0.0,0.0,0.0,-14.32395,-5.21392,5.50039,9.53,-0.66,1.39,3.0
1758078540.37166,1758078540.34433,0.0,0.0,0.0,-13.5791,-3.20856,4.92744,9.53,-0.66,1.39,3.0
1758078540.37287,1758078540.35433,0.0,0.0,0.0,-12.54778,-1.20321,3.72423,9.64,-0.48,1.25,3.0
1758078540.38795,1758078540.36433,0.0,0.0,0.0,-11.17268,1.20321,1.71887,9.8,-0.33,1.24,3.0
1758078540.38888,1758078540.37433,0.0,0.0,0.0,-9.28192,5.61499,0.68755,9.8,-0.33,1.24,3.0
1758078540.40477,1758078540.38433,0.0,0.0,0.0,-6.7609,9.74028,0.80214,10.09,-0.47,1.28,3.0
1758078540.42097,1758078540.39433,0.0,0.0,0.0,-4.18259,9.91217,1.43239,10.09,-0.47,1.28,3.0
1758078540.42189,1758078540.40433,0.0,0.0,0.0,0.22918,8.136,2.97938,9.54,-0.8,1.35,3.0
1758078540.43671,1758078540.41433,0.0,0.0,0.0,3.26586,8.65166,4.92744,9.54,-0.8,1.35,3.0
1758078540.43866,1758078540.42433,0.0,0.0,0.0,6.70361,9.91217,7.50575,9.9,-1.16,1.47,3.0
1758078540.45597,1758078540.43433,0.0,0.0,0.0,9.96947,10.8289,10.54242,9.9,-1.16,1.47,3.0
1758078540.47196,1758078540.44433,0.0,0.0,0.0,14.20935,10.48513,14.49583,10.0,-1.32,1.34,3.0
1758078540.47289,1758078540.45433,0.0,0.0,0.0,17.36062,10.31324,15.87093,9.83,-1.15,1.34,3.0
1758078540.48768,1758078540.46433,0.0,0.0,0.0,18.62113,8.99544,16.10011,9.83,-1.15,1.34,3.0
1758078540.48918,1758078540.47433,0.0,0.0,0.0,19.59516,5.84417,16.21471,9.79,-0.78,1.2,3.0
1758078540.5037,1758078540.48433,0.0,0.0,0.0,18.79302,3.03668,13.12073,9.79,-0.78,1.2,3.0
1758078540.52077,1758078540.49433,0.0,0.0,0.0,18.50654,7.62034,10.02676,10.47,-0.23,2.03,3.0
1758078540.52168,1758078540.50433,0.0,0.0,0.0,18.50654,17.30333,9.28192,10.47,-0.23,2.03,3.0
1758078540.53705,1758078540.51433,0.0,0.0,0.0,17.36062,29.62192,7.21927,12.48,0.0,2.61,3.0
1758078540.53952,1758078540.52433,0.0,0.0,0.0,15.24068,21.42862,6.8182,11.38,0.08,3.97,3.0
1758078540.55604,1758078540.53433,0.0,0.0,0.0,14.72501,-3.89611,10.02676,11.38,0.08,3.97,3.0
1758078540.57204,1758078540.54433,0.0,0.0,0.0,12.43318,-16.50119,10.94349,10.3,0.27,2.98,3.0
1758078540.57296,1758078540.55433,0.0,0.0,0.0,10.19865,-11.28727,15.75634,10.3,0.27,2.98,3.0
1758078540.59032,1758078540.56433,0.0,0.0,0.0,6.87549,-6.41713,12.54778,13.46,0.1,2.03,3.0
1758078540.59151,1758078540.57433,0.0,0.0,0.0,6.7609,-0.40107,12.77696,13.46,0.1,2.03,3.0
1758078540.60674,1758078540.58433,0.0,0.0,0.0,5.50039,3.89611,8.36518,14.17,-0.18,2.94,3.0
1758078540.6112,1758078540.59433,0.0,0.0,0.0,3.66693,9.96947,2.00535,14.6,-0.38,4.0,3.0
1758078540.6268,1758078540.60433,0.0,0.0,0.0,2.23454,13.98017,-2.00535,14.6,-0.38,4.0,3.0
1758078540.63145,1758078540.61433,0.0,0.0,0.0,0.57296,14.15206,-4.58366,13.67,-0.28,3.69,3.0
1758078540.64675,1758078540.62433,0.0,0.0,0.0,-0.68755,11.63104,-6.13065,13.67,-0.28,3.69,3.0
1758078540.64822,1758078540.63433,0.0,0.0,0.0,-2.06265,6.24524,-6.70361,11.91,-0.05,3.42,3.0
1758078540.66405,1758078540.64433,0.0,0.0,0.0,-2.40642,3.03668,-6.47442,11.91,-0.05,3.42,3.0
1758078540.68104,1758078540.65433,0.0,0.0,0.0,-1.83346,-0.57296,-5.90147,10.99,0.05,3.24,3.0
1758078540.68197,1758078540.66433,0.0,0.0,0.0,-0.68755,-5.21392,-4.92744,10.99,0.05,3.24,3.0
1758078540.70248,1758078540.67433,0.0,0.0,0.0,1.60428,-12.54778,-3.26586,10.13,-0.16,3.28,3.0
