timeStamp,timeStampAlign,roll,pitch,yaw,gyro_x,gyro_y,gyro_z,acc_x,acc_y,acc_z,flag_num
1758076089.03037,1758076088.98115,0.0,0.0,0.0,29.33544,19.36597,21.42862,9.59,-1.85,1.62,2.0
1758076089.03869,1758076088.99115,0.0,0.0,0.0,31.11161,22.97561,21.48592,9.59,-1.85,1.62,2.0
1758076089.03946,1758076089.00115,0.0,0.0,0.0,31.39809,26.81443,18.85031,9.86,-1.86,1.42,2.0
1758076089.05524,1758076089.01115,0.0,0.0,0.0,31.45539,30.02299,14.9542,9.86,-1.86,1.42,2.0
1758076089.07264,1758076089.02115,0.0,0.0,0.0,30.88243,30.99702,10.54242,9.4,-1.7,1.93,2.0
1758076089.07515,1758076089.03115,0.0,0.0,0.0,28.41871,22.11617,3.26586,9.4,-1.7,1.93,2.0
1758076089.09374,1758076089.04115,0.0,0.0,0.0,25.38203,9.68299,0.11459,8.71,-1.32,2.66,2.0
1758076089.09539,1758076089.05115,0.0,0.0,0.0,22.40265,-1.77617,-0.68755,8.98,-0.88,4.41,2.0
1758076089.11065,1758076089.06115,0.0,0.0,0.0,19.53786,-9.33921,1.83346,8.98,-0.88,4.41,2.0
1758076089.11742,1758076089.07115,0.0,0.0,0.0,14.61043,-1.43239,5.72958,11.25,-0.46,4.82,2.0
1758076089.13273,1758076089.08115,0.0,0.0,0.0,11.91752,10.65701,6.35983,11.25,-0.46,4.82,2.0
1758076089.13529,1758076089.09115,0.0,0.0,0.0,10.65701,15.12609,5.55769,11.93,-0.29,3.8,2.0
1758076089.15073,1758076089.10115,0.0,0.0,0.0,10.54242,13.80828,4.1253,11.93,-0.29,3.8,2.0
1758076089.15236,1758076089.11115,0.0,0.0,0.0,11.11538,12.2613,1.71887,10.19,-0.53,3.08,2.0
1758076089.16769,1758076089.12115,0.0,0.0,0.0,11.80293,13.5218,0.51566,11.15,-1.07,3.25,2.0
1758076089.16934,1758076089.13115,0.0,0.0,0.0,12.60507,16.3293,-0.34377,11.15,-1.07,3.25,2.0
1758076089.18636,1758076089.14115,0.0,0.0,0.0,13.46451,20.16812,-0.80214,12.5,-2.05,3.53,2.0
1758076089.19,1758076089.15115,0.0,0.0,0.0,14.83961,27.04361,-1.3751,12.5,-2.05,3.53,2.0
1758076089.20946,1758076089.16115,0.0,0.0,0.0,15.69904,31.62727,-1.60428,13.01,-2.69,3.67,2.0
1758076089.21133,1758076089.17115,0.0,0.0,0.0,16.272,35.52338,-1.71887,13.01,-2.69,3.67,2.0
1758076089.22977,1758076089.18115,0.0,0.0,0.0,16.21471,38.15899,-1.60428,12.57,-2.32,3.45,2.0
1758076089.23231,1758076089.19115,0.0,0.0,0.0,15.35527,41.59674,-0.97403,12.0,-1.25,3.62,2.0
1758076089.24759,1758076089.20115,0.0,0.0,0.0,14.32395,43.20102,-0.17189,12.0,-1.25,3.62,2.0
1758076089.24985,1758076089.21115,0.0,0.0,0.0,12.71966,44.46153,0.17189,11.45,-0.25,3.96,2.0
1758076089.26967,1758076089.22115,0.0,0.0,0.0,10.31324,43.60209,0.22918,11.45,-0.25,3.96,2.0
1758076089.27244,1758076089.23115,0.0,0.0,0.0,8.88085,42.57077,-0.0573,10.64,0.13,4.15,2.0
1758076089.28809,1758076089.24115,0.0,0.0,0.0,7.39116,40.16434,-0.85944,10.64,0.13,4.15,2.0
1758076089.2901,1758076089.25115,0.0,0.0,0.0,6.47442,36.84119,-1.94806,10.03,-0.06,4.31,2.0
1758076089.3057,1758076089.26115,0.0,0.0,0.0,5.78687,31.28349,-4.58366,9.64,-0.06,4.22,2.0
1758076089.32262,1758076089.27115,0.0,0.0,0.0,6.13065,27.38738,-6.13065,9.64,-0.47,4.22,2.0
1758076089.32438,1758076089.28115,0.0,0.0,0.0,7.16197,24.23611,-7.67763,9.4,-0.84,4.3,2.0
1758076089.33936,1758076089.29115,0.0,0.0,0.0,9.22462,20.79837,-8.59437,9.4,-0.84,4.3,2.0
1758076089.34137,1758076089.30115,0.0,0.0,0.0,13.17803,14.20935,-9.05273,8.78,-0.88,4.53,2.0
1758076089.35748,1758076089.31115,0.0,0.0,0.0,15.98552,8.25059,-9.05273,8.78,-0.88,4.53,2.0
1758076089.37376,1758076089.32115,0.0,0.0,0.0,18.85031,1.83346,-8.65166,7.63,-0.56,4.76,2.0
1758076089.37462,1758076089.33115,0.0,0.0,0.0,21.6578,-6.07335,-8.02141,7.63,-0.56,4.76,2.0
1758076089.38968,1758076089.34115,0.0,0.0,0.0,25.26744,-18.22006,-6.7609,6.79,-0.08,5.01,2.0
1758076089.39173,1758076089.35115,0.0,0.0,0.0,27.1582,-24.63719,-5.95876,6.7,0.53,5.1,2.0
1758076089.40744,1758076089.36115,0.0,0.0,0.0,28.476,-29.62192,-5.4431,6.7,0.53,5.1,2.0
1758076089.40948,1758076089.37115,0.0,0.0,0.0,29.62192,-33.63263,-5.15662,6.98,1.03,5.12,2.0
1758076089.42547,1758076089.38115,0.0,0.0,0.0,30.59595,-37.24226,-4.35448,6.98,1.03,5.12,2.0
1758076089.44238,1758076089.39115,0.0,0.0,0.0,30.65324,-36.84119,-4.1253,7.33,1.25,5.0,2.0
1758076089.44803,1758076089.40115,0.0,0.0,0.0,30.59595,-35.52338,-3.95341,7.33,1.25,5.0,2.0
1758076089.44984,1758076089.41115,0.0,0.0,0.0,29.8511,-33.9764,-4.29718,7.68,1.26,4.78,2.0
1758076089.46564,1758076089.42115,0.0,0.0,0.0,29.50733,-31.56997,-4.52637,7.93,1.3,4.5,2.0
1758076089.46984,1758076089.43115,0.0,0.0,0.0,28.87707,-27.78845,-4.69825,7.93,1.3,4.5,2.0
1758076089.48545,1758076089.44115,0.0,0.0,0.0,28.476,-23.72045,-5.09932,8.29,1.32,4.19,2.0
1758076089.50347,1758076089.45115,0.0,0.0,0.0,27.84575,-17.6471,-5.84417,8.29,1.32,4.19,2.0
1758076089.50466,1758076089.46115,0.0,0.0,0.0,27.2155,-13.17803,-6.53172,8.23,1.27,3.85,2.0
1758076089.51969,1758076089.47115,0.0,0.0,0.0,26.41335,-8.02141,-7.50575,8.23,1.27,3.85,2.0
1758076089.5214,1758076089.48115,0.0,0.0,0.0,25.38203,-3.38045,-8.42248,8.14,1.3,3.71,2.0
1758076089.53802,1758076089.49115,0.0,0.0,0.0,23.37668,1.43239,-9.39651,7.99,1.51,3.61,2.0
1758076089.54,1758076089.50115,0.0,0.0,0.0,21.7724,3.20856,-9.5684,7.99,1.51,3.61,2.0
1758076089.55563,1758076089.51115,0.0,0.0,0.0,19.76705,3.89611,-9.39651,7.92,1.68,3.49,2.0
1758076089.57268,1758076089.52115,0.0,0.0,0.0,18.16276,3.83882,-9.11003,7.92,1.68,3.49,2.0
1758076089.57524,1758076089.53115,0.0,0.0,0.0,15.29797,2.86479,-8.0787,7.84,1.63,3.37,2.0
1758076089.5907,1758076089.54115,0.0,0.0,0.0,13.86558,2.11994,-7.21927,7.84,1.63,3.37,2.0
1758076089.59239,1758076089.55115,0.0,0.0,0.0,12.71966,0.85944,-6.18794,7.83,1.4,3.21,2.0
1758076089.60939,1758076089.56115,0.0,0.0,0.0,11.91752,-1.3751,-5.15662,7.83,1.4,3.21,2.0
1758076089.61095,1758076089.57115,0.0,0.0,0.0,11.28727,-6.07335,-3.20856,7.77,1.07,3.27,2.0
1758076089.62643,1758076089.58115,0.0,0.0,0.0,11.11538,-9.28192,-1.60428,8.01,0.81,3.48,2.0
1758076089.64271,1758076089.59115,0.0,0.0,0.0,11.17268,-11.80293,0.17189,8.01,0.81,3.48,2.0
1758076089.64435,1758076089.60115,0.0,0.0,0.0,11.22997,-13.98017,3.09397,8.6,0.74,3.51,2.0
1758076089.65971,1758076089.61115,0.0,0.0,0.0,11.28727,-15.64175,4.92744,8.6,0.74,3.51,2.0
1758076089.66062,1758076089.62115,0.0,0.0,0.0,10.94349,-15.92823,6.18794,9.07,0.75,3.31,2.0
1758076089.67531,1758076089.63115,0.0,0.0,0.0,10.54242,-16.38659,6.99009,9.07,0.75,3.31,2.0
1758076089.6924,1758076089.64115,0.0,0.0,0.0,9.96947,-17.01685,6.87549,9.03,0.78,3.21,2.0
1758076089.69362,1758076089.65115,0.0,0.0,0.0,9.62569,-18.16276,6.87549,8.72,0.84,3.11,2.0
1758076089.70949,1758076089.66115,0.0,0.0,0.0,8.93814,-18.62113,6.07335,8.72,0.84,3.11,2.0
1758076089.71123,1758076089.67115,0.0,0.0,0.0,8.136,-17.30333,4.92744,8.76,0.97,3.04,2.0
1758076089.72776,1758076089.68115,0.0,0.0,0.0,6.47442,-13.69369,3.26586,8.76,0.97,3.04,2.0
1758076089.74426,1758076089.69115,0.0,0.0,0.0,5.50039,-12.60507,2.40642,8.83,1.15,2.88,2.0
1758076089.74739,1758076089.70115,0.0,0.0,0.0,4.35448,-13.17803,2.23454,8.83,1.15,2.88,2.0
1758076089.76269,1758076089.71115,0.0,0.0,0.0,3.20856,-13.98017,2.6929,8.66,1.22,2.8,2.0
1758076089.76604,1758076089.72115,0.0,0.0,0.0,1.3751,-10.8289,4.92744,9.06,1.23,2.64,2.0
1758076089.78148,1758076089.73115,0.0,0.0,0.0,0.0573,-4.35448,6.13065,9.06,1.23,2.64,2.0
1758076089.78465,1758076089.74115,0.0,0.0,0.0,-1.60428,4.0107,6.87549,9.65,1.35,2.62,2.0
1758076089.79943,1758076089.75115,0.0,0.0,0.0,-3.83882,12.2613,6.35983,9.65,1.35,2.62,2.0
1758076089.80056,1758076089.76115,0.0,0.0,0.0,-7.04738,11.86023,5.27121,9.15,1.55,2.74,2.0
1758076089.81573,1758076089.77115,0.0,0.0,0.0,-10.54242,8.93814,3.49504,9.15,1.55,2.74,2.0
1758076089.83265,1758076089.78115,0.0,0.0,0.0,-14.43854,5.27121,1.3751,8.24,1.78,2.7,2.0
1758076089.83361,1758076089.79115,0.0,0.0,0.0,-18.9649,2.7502,-0.22918,8.24,1.78,2.7,2.0
1758076089.84928,1758076089.80115,0.0,0.0,0.0,-26.87172,-0.85944,-3.83882,8.6,2.04,2.48,2.0
1758076089.85168,1758076089.81115,0.0,0.0,0.0,-32.14294,-3.66693,-6.47442,8.56,2.36,2.31,2.0
1758076089.86673,1758076089.82115,0.0,0.0,0.0,-37.35685,-7.73493,-8.76626,8.56,2.36,2.31,2.0
1758076089.88374,1758076089.83115,0.0,0.0,0.0,-44.9199,-20.85567,-10.65701,8.49,2.59,2.2,2.0
1758076089.88467,1758076089.84115,0.0,0.0,0.0,-49.15978,-34.72124,-9.85487,8.49,2.59,2.2,2.0
1758076089.89976,1758076089.85115,0.0,0.0,0.0,-52.19646,-45.55015,-8.25059,7.86,2.32,1.75,2.0
1758076089.90176,1758076089.86115,0.0,0.0,0.0,-54.3737,-54.77477,-5.50039,7.86,2.32,1.75,2.0
1758076089.91757,1758076089.87115,0.0,0.0,0.0,-58.78547,-58.55629,-1.03132,8.56,1.88,1.36,2.0
1758076089.93371,1758076089.88115,0.0,0.0,0.0,-60.10328,-33.51803,0.68755,11.31,1.68,1.94,2.0
1758076089.93894,1758076089.89115,0.0,0.0,0.0,-62.96807,-4.35448,3.89611,11.31,1.68,1.94,2.0
1758076089.94016,1758076089.90115,0.0,0.0,0.0,-63.77021,-16.67307,0.80214,11.13,1.66,3.68,2.0
1758076089.95944,1758076089.91115,0.0,0.0,0.0,-65.37449,-57.52497,-7.44845,11.13,1.66,3.68,2.0
1758076089.96059,1758076089.92115,0.0,0.0,0.0,-66.5204,-68.92683,-17.01685,8.83,1.44,3.93,2.0
1758076089.97867,1758076089.93115,0.0,0.0,0.0,-65.2026,-57.0093,-24.86637,8.83,1.44,3.93,2.0
1758076089.97983,1758076089.94115,0.0,0.0,0.0,-62.16592,-40.7946,-29.9084,13.01,0.26,2.42,2.0
1758076090.00006,1758076089.95115,0.0,0.0,0.0,-56.37905,-28.87707,-31.91375,11.8,-0.92,3.06,2.0
1758076090.0199,1758076089.96115,0.0,0.0,0.0,-51.5662,-23.0329,-30.25217,11.8,-0.92,3.06,2.0
1758076090.0241,1758076089.97115,0.0,0.0,0.0,-46.00851,-19.36597,-26.41335,10.14,-1.68,2.98,2.0
1758076090.02682,1758076089.98115,0.0,0.0,0.0,-39.3622,-19.36597,-21.02755,10.14,-1.68,2.98,2.0
1758076090.04147,1758076089.99115,0.0,0.0,0.0,-28.36141,-21.25674,-12.37589,8.71,-2.32,2.81,2.0
1758076090.04765,1758076090.00115,0.0,0.0,0.0,-21.48592,-23.72045,-7.04738,8.71,-2.32,2.81,2.0
1758076090.05317,1758076090.01115,0.0,0.0,0.0,-17.36062,-27.84575,-4.58366,8.52,-2.2,2.77,2.0
1758076090.06943,1758076090.02115,0.0,0.0,0.0,-14.15206,-30.19488,-3.95341,8.52,-2.2,2.77,2.0
1758076090.07297,1758076090.03115,0.0,0.0,0.0,-12.89155,-31.79916,-4.18259,9.15,-1.04,2.7,2.0
1758076090.08928,1758076090.04115,0.0,0.0,0.0,-12.54778,-33.34615,-4.35448,9.65,-0.29,3.2,2.0
1758076090.09326,1758076090.05115,0.0,0.0,0.0,-12.83425,-35.92446,-4.58366,9.65,-0.29,3.2,2.0
1758076090.10948,1758076090.06115,0.0,0.0,0.0,-13.98017,-39.53409,-3.83882,9.73,0.31,3.24,2.0
1758076090.11149,1758076090.07115,0.0,0.0,0.0,-15.29797,-40.45082,-2.7502,9.73,0.31,3.24,2.0
1758076090.12878,1758076090.08115,0.0,0.0,0.0,-17.01685,-40.85189,-1.20321,9.69,0.67,2.86,2.0
1758076090.12971,1758076090.09115,0.0,0.0,0.0,-18.62113,-40.62271,0.57296,9.69,0.67,2.86,2.0
1758076090.14678,1758076090.10115,0.0,0.0,0.0,-20.68378,-39.19032,3.38045,9.61,0.67,2.59,2.0
1758076090.15194,1758076090.11115,0.0,0.0,0.0,-21.42862,-36.61201,4.69825,9.81,0.26,2.3,2.0
1758076090.16676,1758076090.12115,0.0,0.0,0.0,-21.7151,-33.23156,5.55769,9.81,0.26,2.3,2.0
1758076090.18387,1758076090.13115,0.0,0.0,0.0,-21.48592,-28.70519,5.55769,10.16,-0.32,1.94,2.0
1758076090.18418,1758076090.14115,0.0,0.0,0.0,-20.74107,-20.22541,4.35448,10.16,-0.32,1.94,2.0
1758076090.19938,1758076090.15115,0.0,0.0,0.0,-19.76705,-15.35527,3.03668,10.32,-0.84,1.67,2.0
1758076090.20064,1758076090.16115,0.0,0.0,0.0,-18.79302,-11.11538,1.20321,10.32,-0.84,1.67,2.0
1758076090.21722,1758076090.17115,0.0,0.0,0.0,-17.81899,-5.95876,0.34377,10.34,-1.16,1.62,2.0
1758076090.2325,1758076090.18115,0.0,0.0,0.0,-16.61578,1.14592,0.80214,10.35,-1.07,1.54,2.0
1758076090.23323,1758076090.19115,0.0,0.0,0.0,-16.55848,5.95876,2.40642,10.35,-1.07,1.54,2.0
1758076090.2487,1758076090.20115,0.0,0.0,0.0,-16.90226,9.96947,4.35448,10.39,-0.92,1.53,2.0
1758076090.24968,1758076090.21115,0.0,0.0,0.0,-17.53251,14.15206,8.136,10.39,-0.92,1.53,2.0
1758076090.26974,1758076090.22115,0.0,0.0,0.0,-18.73572,18.90761,10.19865,10.68,-0.88,1.36,2.0
1758076090.27502,1758076090.23115,0.0,0.0,0.0,-19.59516,18.16276,12.204,10.68,-0.88,1.36,2.0
1758076090.28975,1758076090.24115,0.0,0.0,0.0,-19.88164,15.41257,13.40721,10.37,-0.95,1.19,2.0
1758076090.2907,1758076090.25115,0.0,0.0,0.0,-19.99623,11.74564,14.20935,10.37,-0.95,1.19,2.0
1758076090.30868,1758076090.26115,0.0,0.0,0.0,-19.70975,10.19865,14.49583,10.28,-1.09,1.09,2.0
1758076090.30986,1758076090.27115,0.0,0.0,0.0,-19.42327,8.76626,14.72501,10.3,-1.09,1.05,2.0
1758076090.32978,1758076090.28115,0.0,0.0,0.0,-18.9649,9.11003,15.24068,10.3,-1.09,1.05,2.0
1758076090.33155,1758076090.29115,0.0,0.0,0.0,-18.90761,7.44845,14.72501,10.1,-0.88,1.09,2.0
1758076090.34684,1758076090.30115,0.0,0.0,0.0,-19.19409,5.90147,13.86558,10.1,-0.88,1.09,2.0
1758076090.36352,1758076090.31115,0.0,0.0,0.0,-19.07949,7.44845,13.86558,9.69,-0.75,1.04,2.0
1758076090.36427,1758076090.32115,0.0,0.0,0.0,-18.73572,12.43318,13.17803,9.69,-0.75,1.04,2.0
1758076090.37952,1758076090.33115,0.0,0.0,0.0,-17.93358,15.29797,11.51645,10.05,-0.89,1.01,2.0
1758076090.381,1758076090.34115,0.0,0.0,0.0,-16.90226,13.86558,11.00079,9.69,-1.03,1.22,2.0
1758076090.39716,1758076090.35115,0.0,0.0,0.0,-15.46986,12.204,11.22997,9.69,-1.03,1.22,2.0
1758076090.41363,1758076090.36115,0.0,0.0,0.0,-13.46451,12.204,12.14671,10.0,-1.35,1.22,2.0
1758076090.41426,1758076090.37115,0.0,0.0,0.0,-9.85487,9.91217,15.58445,10.0,-1.35,1.22,2.0
1758076090.42991,1758076090.38115,0.0,0.0,0.0,-6.41713,9.22462,19.19409,9.95,-1.79,1.29,2.0
1758076090.43151,1758076090.39115,0.0,0.0,0.0,-2.46372,9.39651,23.54857,9.95,-1.79,1.29,2.0
1758076090.44648,1758076090.40115,0.0,0.0,0.0,1.43239,10.02676,28.476,9.93,-2.12,1.17,2.0
1758076090.45092,1758076090.41115,0.0,0.0,0.0,7.04738,11.57375,35.2942,9.79,-2.26,1.14,2.0
1758076090.47321,1758076090.42115,0.0,0.0,0.0,10.65701,14.66772,38.61736,9.79,-2.26,1.14,2.0
1758076090.47489,1758076090.43115,0.0,0.0,0.0,13.86558,19.36597,41.71133,9.99,-2.18,1.25,2.0
1758076090.49159,1758076090.44115,0.0,0.0,0.0,16.90226,26.18417,42.1124,9.99,-2.18,1.25,2.0
1758076090.4933,1758076090.45115,0.0,0.0,0.0,18.33465,35.06502,40.68,10.17,-1.89,1.19,2.0
1758076090.50854,1758076090.46115,0.0,0.0,0.0,18.10547,39.4195,37.58603,10.17,-1.89,1.19,2.0
1758076090.5097,1758076090.47115,0.0,0.0,0.0,18.22006,40.7373,33.74722,9.75,-1.52,1.52,2.0
1758076090.52655,1758076090.48115,0.0,0.0,0.0,16.90226,36.03905,25.72581,9.75,-1.52,1.52,2.0
1758076090.5303,1758076090.49115,0.0,0.0,0.0,15.58445,8.65166,22.05888,8.97,-1.25,1.65,2.0
1758076090.54855,1758076090.50115,0.0,0.0,0.0,14.78231,4.92744,17.01685,8.04,-0.97,1.69,2.0
1758076090.54974,1758076090.51115,0.0,0.0,0.0,17.18874,19.70975,18.85031,8.04,-0.97,1.69,2.0
1758076090.56588,1758076090.52115,0.0,0.0,0.0,20.3973,35.52338,17.47521,11.65,-1.59,1.62,2.0
1758076090.58383,1758076090.53115,0.0,0.0,0.0,23.60586,40.7373,19.25138,11.65,-1.59,1.62,2.0
1758076090.58425,1758076090.54115,0.0,0.0,0.0,25.26744,39.3622,19.59516,10.34,-2.11,1.99,2.0
1758076090.59972,1758076090.55115,0.0,0.0,0.0,26.18417,32.77319,19.59516,10.34,-2.11,1.99,2.0
1758076090.60073,1758076090.56115,0.0,0.0,0.0,26.75713,25.43933,17.24603,8.8,-2.35,1.8,2.0
1758076090.61583,1758076090.57115,0.0,0.0,0.0,26.81443,22.11617,15.12609,8.66,-2.08,1.12,2.0
1758076090.63462,1758076090.58115,0.0,0.0,0.0,26.87172,20.05352,12.43318,8.66,-2.08,1.12,2.0
1758076090.63498,1758076090.59115,0.0,0.0,0.0,26.81443,20.51189,10.02676,9.18,-1.8,1.63,2.0
1758076090.64033,1758076090.60115,0.0,0.0,0.0,26.06958,22.57454,6.70361,9.18,-1.8,1.63,2.0
1758076090.6558,1758076090.61115,0.0,0.0,0.0,25.43933,21.60051,5.21392,9.74,-1.53,2.02,2.0
1758076090.67386,1758076090.62115,0.0,0.0,0.0,24.12152,21.02755,3.72423,9.74,-1.53,2.02,2.0
1758076090.67428,1758076090.63115,0.0,0.0,0.0,23.0329,21.7151,2.00535,9.81,-1.28,1.94,2.0
1758076090.6896,1758076090.64115,0.0,0.0,0.0,21.7724,23.66316,1.03132,9.87,-1.26,1.85,2.0
1758076090.69073,1758076090.65115,0.0,0.0,0.0,21.37133,22.40265,0.68755,9.87,-1.26,1.85,2.0
1758076090.70547,1758076090.66115,0.0,0.0,0.0,21.31403,20.05352,0.57296,9.48,-1.5,2.05,2.0
1758076090.72364,1758076090.67115,0.0,0.0,0.0,21.94428,15.29797,2.06265,9.48,-1.5,2.05,2.0
1758076090.72499,1758076090.68115,0.0,0.0,0.0,22.68913,14.49583,3.26586,9.57,-1.68,2.19,2.0
1758076090.72987,1758076090.69115,0.0,0.0,0.0,23.0329,14.03747,3.55234,9.57,-1.68,2.19,2.0
1758076090.74474,1758076090.70115,0.0,0.0,0.0,23.60586,11.11538,3.89611,9.71,-1.72,2.23,2.0
1758076090.76148,1758076090.71115,0.0,0.0,0.0,24.23611,10.02676,3.20856,9.84,-1.72,2.39,2.0
1758076090.76412,1758076090.72115,0.0,0.0,0.0,24.57989,11.51645,2.34913,9.84,-1.72,2.39,2.0
1758076090.77989,1758076090.73115,0.0,0.0,0.0,24.63719,13.17803,0.80214,10.42,-1.69,2.61,2.0
1758076090.78188,1758076090.74115,0.0,0.0,0.0,24.35071,14.09476,-0.68755,10.42,-1.69,2.61,2.0
1758076090.79767,1758076090.75115,0.0,0.0,0.0,23.66316,15.58445,-3.26586,10.62,-1.62,2.86,2.0
1758076090.80028,1758076090.76115,0.0,0.0,0.0,22.63183,17.6471,-5.15662,10.62,-1.62,2.86,2.0
1758076090.81872,1758076090.77115,0.0,0.0,0.0,21.31403,20.16812,-7.39116,10.89,-1.6,2.95,2.0
1758076090.82022,1758076090.78115,0.0,0.0,0.0,20.16812,22.68913,-9.05273,10.89,-1.6,2.95,2.0
1758076090.83732,1758076090.79115,0.0,0.0,0.0,18.9649,24.63719,-11.57375,11.09,-1.68,3.05,2.0
1758076090.85399,1758076090.80115,0.0,0.0,0.0,18.27736,26.01229,-13.12073,11.32,-1.9,3.35,2.0
1758076090.85436,1758076090.81115,0.0,0.0,0.0,17.58981,28.30412,-14.49583,11.32,-1.9,3.35,2.0
1758076090.86982,1758076090.82115,0.0,0.0,0.0,17.01685,30.88243,-15.46986,11.82,-2.03,3.4,2.0
1758076090.87478,1758076090.83115,0.0,0.0,0.0,16.10011,34.14828,-16.04282,11.82,-2.03,3.4,2.0
1758076090.88982,1758076090.84115,0.0,0.0,0.0,15.64175,36.38282,-15.69904,12.02,-1.95,3.5,2.0
1758076090.89396,1758076090.85115,0.0,0.0,0.0,15.24068,38.21629,-14.83961,12.02,-1.95,3.5,2.0
1758076090.90982,1758076090.86115,0.0,0.0,0.0,14.49583,39.87786,-13.23533,11.98,-1.75,3.6,2.0
1758076090.9124,1758076090.87115,0.0,0.0,0.0,14.32395,40.04975,-11.91752,11.64,-1.45,3.82,2.0
1758076090.92988,1758076090.88115,0.0,0.0,0.0,14.43854,39.64868,-10.02676,11.64,-1.45,3.82,2.0
1758076090.93163,1758076090.89115,0.0,0.0,0.0,14.32395,38.78925,-8.59437,11.37,-1.17,4.13,2.0
1758076090.9477,1758076090.90115,0.0,0.0,0.0,14.15206,35.52338,-6.35983,11.37,-1.17,4.13,2.0
1758076090.95121,1758076090.91115,0.0,0.0,0.0,14.09476,32.6013,-5.50039,10.8,-0.86,4.23,2.0
1758076090.96962,1758076090.92115,0.0,0.0,0.0,14.09476,27.84575,-4.52637,10.8,-0.86,4.23,2.0
1758076090.97154,1758076090.93115,0.0,0.0,0.0,14.20935,21.88699,-4.1253,9.94,-0.64,4.52,2.0
1758076090.98914,1758076090.94115,0.0,0.0,0.0,15.06879,13.23533,-3.60963,9.09,-0.47,4.68,2.0
1758076091.01994,1758076090.95115,0.0,0.0,0.0,15.75634,8.30789,-3.38045,9.09,-0.47,4.68,2.0
1758076091.02165,1758076090.96115,0.0,0.0,0.0,16.3293,2.46372,-3.49504,8.2,-0.28,4.49,2.0
1758076091.02488,1758076090.97115,0.0,0.0,0.0,16.55848,-4.18259,-3.66693,8.2,-0.28,4.49,2.0
1758076091.02668,1758076090.98115,0.0,0.0,0.0,16.61578,-14.20935,-4.87014,7.12,-0.24,4.41,2.0
1758076091.02986,1758076090.99115,0.0,0.0,0.0,16.38659,-19.82434,-5.55769,7.12,-0.24,4.41,2.0
1758076091.04991,1758076091.00115,0.0,0.0,0.0,16.21471,-24.57989,-6.41713,6.7,-0.12,4.35,2.0
1758076091.05407,1758076091.01115,0.0,0.0,0.0,15.64175,-29.8511,-7.39116,6.7,-0.12,4.35,2.0
1758076091.0699,1758076091.02115,0.0,0.0,0.0,14.38124,-38.1017,-8.25059,6.56,0.18,4.48,2.0
1758076091.07256,1758076091.03115,0.0,0.0,0.0,13.17803,-43.25832,-8.59437,6.56,0.62,4.52,2.0
1758076091.08791,1758076091.04115,0.0,0.0,0.0,11.45916,-47.95657,-8.99544,6.56,0.62,4.52,2.0
1758076091.09766,1758076091.05115,0.0,0.0,0.0,8.42248,-53.62885,-8.99544,6.42,1.04,4.42,2.0
1758076091.09987,1758076091.06115,0.0,0.0,0.0,6.18794,-61.36378,-8.65166,6.42,1.04,4.42,2.0
1758076091.11994,1758076091.07115,0.0,0.0,0.0,3.95341,-63.59832,-8.02141,6.37,1.31,4.39,2.0
1758076091.12164,1758076091.08115,0.0,0.0,0.0,2.00535,-63.94209,-7.33386,6.37,1.31,4.39,2.0
1758076091.1378,1758076091.09115,0.0,0.0,0.0,0.0573,-61.42108,-6.07335,7.11,1.28,4.56,2.0
1758076091.13863,1758076091.10115,0.0,0.0,0.0,-0.57296,-56.83742,-5.72958,8.13,1.11,4.58,2.0
1758076091.15502,1758076091.11115,0.0,0.0,0.0,-0.34377,-51.50891,-5.4431,8.13,1.11,4.58,2.0
1758076091.15944,1758076091.12115,0.0,0.0,0.0,0.22918,-45.03448,-6.07335,8.98,0.83,4.3,2.0
1758076091.1775,1758076091.13115,0.0,0.0,0.0,1.66158,-33.86181,-8.0787,8.98,0.83,4.3,2.0
1758076091.1787,1758076091.14115,0.0,0.0,0.0,2.11994,-25.49662,-10.31324,9.62,0.56,4.02,2.0
1758076091.19499,1758076091.15115,0.0,0.0,0.0,2.29183,-16.90226,-12.49048,9.62,0.56,4.02,2.0
1758076091.19782,1758076091.16115,0.0,0.0,0.0,2.11994,-9.62569,-14.9542,9.85,0.45,3.72,2.0
1758076091.2142,1758076091.17115,0.0,0.0,0.0,1.60428,-0.51566,-17.53251,9.57,0.52,3.51,2.0
1758076091.2297,1758076091.18115,0.0,0.0,0.0,0.80214,4.69825,-18.27736,9.57,0.52,3.51,2.0
1758076091.23515,1758076091.19115,0.0,0.0,0.0,0.0573,9.33921,-18.44924,9.32,0.61,3.35,2.0
1758076091.23784,1758076091.20115,0.0,0.0,0.0,-0.85944,13.12073,-17.87628,9.32,0.61,3.35,2.0
1758076091.25421,1758076091.21115,0.0,0.0,0.0,-2.29183,16.95955,-16.73037,9.14,0.66,3.3,2.0
1758076091.26989,1758076091.22115,0.0,0.0,0.0,-2.7502,17.47521,-15.87093,9.14,0.66,3.3,2.0
1758076091.27514,1758076091.23115,0.0,0.0,0.0,-2.6929,18.33465,-14.78231,8.97,0.67,3.23,2.0
1758076091.28965,1758076091.24115,0.0,0.0,0.0,-2.34913,19.36597,-13.5791,8.97,0.67,3.23,2.0
1758076091.29484,1758076091.25115,0.0,0.0,0.0,-0.85944,18.62113,-11.51645,9.1,0.58,3.23,2.0
1758076091.30963,1758076091.26115,0.0,0.0,0.0,0.68755,18.22006,-9.85487,8.97,0.38,3.33,2.0
1758076091.3127,1758076091.27115,0.0,0.0,0.0,2.34913,18.16276,-8.02141,8.97,0.38,3.33,2.0
1758076091.32939,1758076091.28115,0.0,0.0,0.0,5.15662,17.24603,-5.27121,8.96,0.17,3.23,2.0
1758076091.3328,1758076091.29115,0.0,0.0,0.0,6.53172,17.01685,-3.72423,8.96,0.17,3.23,2.0
1758076091.3495,1758076091.30115,0.0,0.0,0.0,7.96411,15.87093,-1.94806,8.83,0.01,3.15,2.0
1758076091.42612,1758076091.31115,0.0,0.0,0.0,9.05273,14.83961,-0.45837,8.83,0.01,3.15,2.0
1758076091.42748,1758076091.32115,0.0,0.0,0.0,9.28192,14.49583,-0.17189,8.74,0.0,3.09,2.0
1758076091.45341,1758076091.33115,0.0,0.0,0.0,8.99544,13.34992,-0.80214,8.67,0.23,3.0,2.0
1758076091.45454,1758076091.34115,0.0,0.0,0.0,8.30789,10.08406,-1.48969,8.67,0.23,3.0,2.0
1758076091.45922,1758076091.35115,0.0,0.0,0.0,7.33386,6.58902,-2.00535,8.27,0.52,2.81,2.0
1758076091.45957,1758076091.36115,0.0,0.0,0.0,5.84417,0.68755,-1.83346,8.27,0.52,2.81,2.0
1758076091.46081,1758076091.37115,0.0,0.0,0.0,4.98473,-4.0107,-1.03132,8.17,0.68,2.8,2.0
1758076091.46628,1758076091.38115,0.0,0.0,0.0,3.66693,-7.21927,0.40107,8.17,0.68,2.8,2.0
1758076091.46862,1758076091.39115,0.0,0.0,0.0,2.63561,-6.47442,2.29183,8.41,0.75,2.75,2.0
1758076091.46966,1758076091.40115,0.0,0.0,0.0,1.20321,0.34377,5.84417,9.13,0.8,2.83,2.0
1758076091.4748,1758076091.41115,0.0,0.0,0.0,-0.11459,5.21392,7.04738,9.13,0.8,2.83,2.0
1758076091.47715,1758076091.42115,0.0,0.0,0.0,-2.06265,7.21927,6.70361,9.02,0.97,3.06,2.0
1758076091.47912,1758076091.43115,0.0,0.0,0.0,-4.18259,3.03668,5.27121,9.02,0.97,3.06,2.0
1758076091.48027,1758076091.44115,0.0,0.0,0.0,-8.136,-8.47978,3.26586,7.99,1.25,2.68,2.0
1758076091.4975,1758076091.45115,0.0,0.0,0.0,-11.86023,-13.5791,0.68755,7.99,1.25,2.68,2.0
1758076091.49944,1758076091.46115,0.0,0.0,0.0,-15.92823,-17.81899,-1.43239,8.17,1.56,2.59,2.0
1758076091.51573,1758076091.47115,0.0,0.0,0.0,-22.40265,-21.88699,-5.32851,8.17,1.56,2.59,2.0
1758076091.51927,1758076091.48115,0.0,0.0,0.0,-27.04361,-26.41335,-8.30789,8.3,1.77,2.32,2.0
1758076091.53499,1758076091.49115,0.0,0.0,0.0,-31.16891,-30.59595,-10.25595,8.38,1.93,2.23,2.0
1758076091.55279,1758076091.50115,0.0,0.0,0.0,-35.00772,-37.92981,-11.86023,8.38,1.93,2.23,2.0
1758076091.55779,1758076091.51115,0.0,0.0,0.0,-39.07573,-53.80074,-11.80293,7.94,1.8,1.84,2.0
1758076091.55825,1758076091.52115,0.0,0.0,0.0,-40.68,-60.73353,-10.8289,7.94,1.8,1.84,2.0
1758076091.57501,1758076091.53115,0.0,0.0,0.0,-41.36755,-64.91612,-8.76626,8.44,1.48,1.65,2.0
1758076091.59177,1758076091.54115,0.0,0.0,0.0,-42.91454,-64.91612,-6.58902,8.44,1.48,1.65,2.0
1758076091.59502,1758076091.55115,0.0,0.0,0.0,-43.88857,-45.83662,-1.83346,9.33,1.13,1.45,2.0
1758076091.61148,1758076091.56115,0.0,0.0,0.0,-42.1124,-29.27814,3.38045,11.5,1.16,2.5,2.0
1758076091.61503,1758076091.57115,0.0,0.0,0.0,-46.40959,-39.01843,-0.68755,11.5,1.16,2.5,2.0
1758076091.63092,1758076091.58115,0.0,0.0,0.0,-45.77933,-60.90542,-3.83882,8.88,1.29,4.08,2.0
1758076091.63187,1758076091.59115,0.0,0.0,0.0,-47.72739,-81.36001,-16.95955,8.88,1.29,4.08,2.0
1758076091.64692,1758076091.60115,0.0,0.0,0.0,-44.40423,-62.56699,-22.11617,11.3,0.61,3.64,2.0
1758076091.64787,1758076091.61115,0.0,0.0,0.0,-37.35685,-36.61201,-22.68913,11.3,0.61,3.64,2.0
1758076091.66563,1758076091.62115,0.0,0.0,0.0,-27.2155,-18.10547,-17.47521,13.09,-1.39,3.08,2.0
1758076091.6807,1758076091.63115,0.0,0.0,0.0,-18.62113,-10.94349,-12.54778,10.01,-2.23,2.39,2.0
1758076091.68188,1758076091.64115,0.0,0.0,0.0,-14.32395,-5.4431,-8.30789,10.01,-2.23,2.39,2.0
1758076091.69676,1758076091.65115,0.0,0.0,0.0,-11.45916,-1.48969,-4.87014,9.81,-1.93,1.9,2.0
1758076091.70023,1758076091.66115,0.0,0.0,0.0,-8.99544,-0.85944,0.45837,9.81,-1.93,1.9,2.0
1758076091.71895,1758076091.67115,0.0,0.0,0.0,-7.10468,-3.32316,2.34913,9.57,-1.25,2.88,2.0
1758076091.72032,1758076091.68115,0.0,0.0,0.0,-6.70361,-4.81285,2.7502,9.57,-1.25,2.88,2.0
1758076091.73496,1758076091.69115,0.0,0.0,0.0,-6.8182,-7.16197,2.06265,10.08,-0.25,3.21,2.0
1758076091.75398,1758076091.70115,0.0,0.0,0.0,-8.42248,-13.00614,-0.45837,10.08,-0.25,3.21,2.0
1758076091.757,1758076091.71115,0.0,0.0,0.0,-10.37054,-15.98552,-2.92208,10.11,0.72,2.92,2.0
1758076091.77407,1758076091.72115,0.0,0.0,0.0,-13.00614,-17.6471,-4.81285,10.18,1.32,2.74,2.0
1758076091.77527,1758076091.73115,0.0,0.0,0.0,-15.98552,-18.79302,-5.84417,10.18,1.32,2.74,2.0
1758076091.79113,1758076091.74115,0.0,0.0,0.0,-20.79837,-19.13679,-6.13065,9.91,1.34,2.56,2.0
1758076091.79194,1758076091.75115,0.0,0.0,0.0,-24.17882,-19.36597,-5.50039,9.91,1.34,2.56,2.0
1758076091.80871,1758076091.76115,0.0,0.0,0.0,-27.2155,-19.88164,-4.69825,9.67,0.89,2.49,2.0
1758076091.80968,1758076091.77115,0.0,0.0,0.0,-29.67921,-20.3973,-3.89611,9.67,0.89,2.49,2.0
1758076091.82495,1758076091.78115,0.0,0.0,0.0,-32.37212,-20.51189,-2.7502,9.63,0.19,2.38,2.0
1758076091.84433,1758076091.79115,0.0,0.0,0.0,-33.34615,-19.88164,-2.11994,9.8,-0.49,2.21,2.0
1758076091.84532,1758076091.80115,0.0,0.0,0.0,-33.34615,-18.90761,-1.66158,9.8,-0.49,2.21,2.0
1758076091.86107,1758076091.81115,0.0,0.0,0.0,-32.71589,-17.36062,-1.77617,10.01,-1.14,1.93,2.0
1758076091.86232,1758076091.82115,0.0,0.0,0.0,-30.53865,-13.12073,-1.71887,10.01,-1.14,1.93,2.0
1758076091.87901,1758076091.83115,0.0,0.0,0.0,-28.59059,-10.31324,-1.14592,10.07,-1.55,1.53,2.0
1758076091.88017,1758076091.84115,0.0,0.0,0.0,-26.35606,-7.96411,-0.34377,10.07,-1.55,1.53,2.0
1758076091.89464,1758076091.85115,0.0,0.0,0.0,-23.94964,-5.72958,1.14592,9.95,-1.7,1.46,2.0
1758076091.91411,1758076091.86115,0.0,0.0,0.0,-20.51189,-1.66158,4.29718,10.07,-1.66,1.43,2.0
1758076091.9161,1758076091.87115,0.0,0.0,0.0,-18.50654,0.17189,6.41713,10.07,-1.66,1.43,2.0
1758076091.93195,1758076091.88115,0.0,0.0,0.0,-16.55848,2.29183,8.93814,10.21,-1.53,1.53,2.0
1758076091.9337,1758076091.89115,0.0,0.0,0.0,-13.23533,4.1253,12.43318,10.21,-1.53,1.53,2.0
1758076091.94975,1758076091.90115,0.0,0.0,0.0,-11.17268,0.17189,14.43854,10.18,-1.43,1.67,2.0
1758076091.95259,1758076091.91115,0.0,0.0,0.0,-9.74028,-1.43239,16.04282,10.18,-1.43,1.67,2.0
1758076091.96885,1758076091.92115,0.0,0.0,0.0,-8.76626,-0.0573,16.84496,10.24,-1.32,1.59,2.0
1758076091.96969,1758076091.93115,0.0,0.0,0.0,-7.96411,2.92208,16.55848,10.24,-1.32,1.59,2.0
1758076091.98472,1758076091.94115,0.0,0.0,0.0,-7.50575,5.09932,15.87093,10.31,-1.03,1.48,2.0
1758076091.98915,1758076091.95115,0.0,0.0,0.0,-7.44845,8.136,14.49583,9.93,-0.77,1.31,2.0
1758076092.00496,1758076091.96115,0.0,0.0,0.0,-7.50575,11.51645,12.83425,9.93,-0.77,1.31,2.0
1758076092.00941,1758076091.97115,0.0,0.0,0.0,-7.73493,14.9542,10.02676,9.65,-0.63,1.28,2.0
1758076092.02484,1758076091.98115,0.0,0.0,0.0,-8.0787,17.87628,7.50575,9.65,-0.63,1.28,2.0
1758076092.02909,1758076091.99115,0.0,0.0,0.0,-8.02141,18.73572,5.09932,9.51,-0.66,1.38,2.0
1758076092.04994,1758076092.00115,0.0,0.0,0.0,-8.30789,18.16276,2.57831,9.51,-0.66,1.38,2.0
1758076092.05174,1758076092.01115,0.0,0.0,0.0,-7.10468,7.39116,1.66158,9.16,-0.8,1.65,2.0
1758076092.06672,1758076092.02115,0.0,0.0,0.0,-5.32851,0.85944,3.49504,9.09,-1.23,1.64,2.0
1758076092.06954,1758076092.03115,0.0,0.0,0.0,-3.03668,-2.23454,7.16197,9.09,-1.23,1.64,2.0
1758076092.08878,1758076092.04115,0.0,0.0,0.0,-0.0573,-4.18259,12.08941,9.89,-1.73,1.52,2.0
1758076092.08999,1758076092.05115,0.0,0.0,0.0,5.21392,-6.18794,19.53786,9.89,-1.73,1.52,2.0
1758076092.10508,1758076092.06115,0.0,0.0,0.0,9.05273,-8.136,24.35071,9.78,-2.06,1.32,2.0
1758076092.12076,1758076092.07115,0.0,0.0,0.0,12.71966,-9.39651,28.41871,9.78,-2.06,1.32,2.0
1758076092.12356,1758076092.08115,0.0,0.0,0.0,16.272,-9.22462,33.17426,9.75,-2.21,1.31,2.0
1758076092.13872,1758076092.09115,0.0,0.0,0.0,20.22541,-2.63561,34.72124,10.29,-2.08,1.3,2.0
1758076092.13996,1758076092.10115,0.0,0.0,0.0,21.7724,3.09397,34.37747,10.29,-2.08,1.3,2.0
1758076092.15502,1758076092.11115,0.0,0.0,0.0,22.57454,8.30789,32.54401,10.28,-1.77,1.45,2.0
1758076092.17075,1758076092.12115,0.0,0.0,0.0,22.05888,15.41257,27.61657,10.28,-1.77,1.45,2.0
1758076092.17195,1758076092.13115,0.0,0.0,0.0,21.02755,19.13679,23.89234,10.02,-1.2,1.64,2.0
1758076092.18667,1758076092.14115,0.0,0.0,0.0,19.42327,20.34,18.9649,10.02,-1.2,1.64,2.0
1758076092.18957,1758076092.15115,0.0,0.0,0.0,19.59516,8.65166,17.53251,9.3,-0.78,1.6,2.0
1758076092.20601,1758076092.16115,0.0,0.0,0.0,14.38124,-2.57831,8.25059,9.3,-0.78,1.55,2.0
1758076092.22177,1758076092.17115,0.0,0.0,0.0,16.10011,8.93814,11.22997,8.65,-0.53,1.55,2.0
1758076092.22375,1758076092.18115,0.0,0.0,0.0,17.99088,17.81899,11.74564,11.51,-1.04,1.42,2.0
1758076092.23903,1758076092.19115,0.0,0.0,0.0,19.99623,22.23076,14.32395,11.51,-1.04,1.42,2.0
1758076092.24024,1758076092.20115,0.0,0.0,0.0,23.60586,28.64789,18.85031,10.64,-1.74,1.69,2.0
1758076092.25503,1758076092.21115,0.0,0.0,0.0,24.63719,26.24147,19.53786,10.64,-1.74,1.69,2.0
1758076092.27316,1758076092.22115,0.0,0.0,0.0,25.49662,20.05352,19.76705,9.12,-2.13,1.54,2.0
1758076092.27439,1758076092.23115,0.0,0.0,0.0,25.72581,14.15206,18.56383,9.12,-2.13,1.54,2.0
1758076092.28984,1758076092.24115,0.0,0.0,0.0,26.12688,12.14671,15.29797,8.39,-2.05,0.92,2.0
1758076092.2913,1758076092.25115,0.0,0.0,0.0,25.61122,13.46451,12.2613,9.16,-1.76,1.24,2.0
1758076092.30563,1758076092.26115,0.0,0.0,0.0,24.98096,14.20935,9.05273,9.16,-1.76,1.24,2.0
1758076092.30938,1758076092.27115,0.0,0.0,0.0,24.12152,14.43854,6.24524,9.58,-1.39,1.5,2.0
1758076092.32608,1758076092.28115,0.0,0.0,0.0,22.34536,14.83961,2.40642,9.58,-1.39,1.5,2.0
1758076092.34189,1758076092.29115,0.0,0.0,0.0,21.6578,15.92823,0.97403,9.99,-1.08,1.61,2.0
1758076092.34387,1758076092.30115,0.0,0.0,0.0,20.3973,18.79302,-0.22918,9.99,-1.08,1.61,2.0
1758076092.35904,1758076092.31115,0.0,0.0,0.0,20.22541,20.79837,0.17189,10.32,-1.07,1.57,2.0
1758076092.36002,1758076092.32115,0.0,0.0,0.0,20.45459,21.88699,0.85944,10.31,-1.41,1.68,2.0
1758076092.37478,1758076092.33115,0.0,0.0,0.0,20.85567,23.66316,1.66158,10.31,-1.41,1.68,2.0
1758076092.39196,1758076092.34115,0.0,0.0,0.0,21.37133,26.47065,2.97938,10.46,-1.72,1.63,2.0
1758076092.39313,1758076092.35115,0.0,0.0,0.0,21.7151,30.02299,3.66693,10.46,-1.72,1.63,2.0
1758076092.40885,1758076092.36115,0.0,0.0,0.0,21.48592,29.96569,3.32316,10.22,-1.78,1.67,2.0
1758076092.40987,1758076092.37115,0.0,0.0,0.0,21.31403,25.43933,3.03668,10.22,-1.78,1.67,2.0
1758076092.42502,1758076092.38115,0.0,0.0,0.0,20.85567,18.9649,2.86479,9.5,-1.58,1.74,2.0
1758076092.44414,1758076092.39115,0.0,0.0,0.0,19.82434,15.29797,4.18259,9.86,-1.39,1.9,2.0
1758076092.44865,1758076092.40115,0.0,0.0,0.0,18.50654,18.9649,3.26586,9.86,-1.39,1.9,2.0
1758076092.44917,1758076092.41115,0.0,0.0,0.0,16.61578,19.48057,1.94806,10.17,-1.12,1.95,2.0
1758076092.46508,1758076092.42115,0.0,0.0,0.0,14.83961,18.27736,0.0,10.17,-1.12,1.95,2.0
1758076092.48198,1758076092.43115,0.0,0.0,0.0,12.14671,17.53251,-2.06265,9.79,-1.09,2.31,2.0
1758076092.48496,1758076092.44115,0.0,0.0,0.0,10.8289,17.18874,-3.20856,9.79,-1.09,2.31,2.0
1758076092.50007,1758076092.45115,0.0,0.0,0.0,9.62569,17.13144,-3.89611,10.05,-1.14,2.72,2.0
1758076092.50101,1758076092.46115,0.0,0.0,0.0,8.88085,18.16276,-4.52637,10.05,-1.14,2.72,2.0
1758076092.51613,1758076092.47115,0.0,0.0,0.0,8.25059,20.68378,-5.27121,10.36,-1.26,2.85,2.0
1758076092.5178,1758076092.48115,0.0,0.0,0.0,8.30789,22.11617,-5.90147,10.58,-1.47,3.14,2.0
1758076092.53505,1758076092.49115,0.0,0.0,0.0,8.88085,23.60586,-6.47442,10.58,-1.47,3.14,2.0
1758076092.55106,1758076092.50115,0.0,0.0,0.0,9.62569,24.35071,-7.73493,10.96,-1.65,3.52,2.0
1758076092.5544,1758076092.51115,0.0,0.0,0.0,10.65701,24.80907,-8.65166,10.96,-1.65,3.52,2.0
1758076092.56992,1758076092.52115,0.0,0.0,0.0,11.51645,25.43933,-9.33921,11.6,-1.74,4.09,2.0
1758076092.57183,1758076092.53115,0.0,0.0,0.0,12.08941,26.35606,-10.02676,11.6,-1.74,4.09,2.0
1758076092.58995,1758076092.54115,0.0,0.0,0.0,13.34992,28.01764,-11.51645,12.35,-1.72,4.46,2.0
1758076092.59184,1758076092.55115,0.0,0.0,0.0,14.32395,29.8511,-12.37589,12.76,-1.78,4.51,2.0
1758076092.60943,1758076092.56115,0.0,0.0,0.0,15.69904,29.8511,-12.54778,12.76,-1.78,4.51,2.0
1758076092.61061,1758076092.57115,0.0,0.0,0.0,17.30333,29.96569,-12.89155,12.54,-1.76,4.58,2.0
1758076092.62741,1758076092.58115,0.0,0.0,0.0,20.05352,29.56462,-12.54778,12.54,-1.76,4.58,2.0
1758076092.62863,1758076092.59115,0.0,0.0,0.0,22.00158,29.04896,-11.91752,12.24,-1.57,4.54,2.0
1758076092.64468,1758076092.60115,0.0,0.0,0.0,23.54857,28.07493,-11.34457,12.24,-1.57,4.54,2.0
1758076092.66197,1758076092.61115,0.0,0.0,0.0,24.75178,26.35606,-10.54242,11.74,-1.2,4.45,2.0
1758076092.66386,1758076092.62115,0.0,0.0,0.0,26.06958,24.29341,-9.33921,10.88,-0.76,4.12,2.0
1758076092.6789,1758076092.63115,0.0,0.0,0.0,27.10091,22.51724,-8.42248,10.88,-0.76,4.12,2.0
1758076092.68008,1758076092.64115,0.0,0.0,0.0,28.07493,19.99623,-6.8182,9.55,-0.37,3.81,2.0
1758076092.69491,1758076092.65115,0.0,0.0,0.0,28.87707,16.95955,-5.32851,9.55,-0.37,3.81,2.0
1758076092.71089,1758076092.66115,0.0,0.0,0.0,29.22085,11.45916,-2.6929,8.08,0.02,3.66,2.0
1758076092.71286,1758076092.67115,0.0,0.0,0.0,29.10626,6.87549,-0.85944,8.08,0.02,3.66,2.0
1758076092.72931,1758076092.68115,0.0,0.0,0.0,28.24682,1.71887,0.11459,6.82,0.46,3.59,2.0
1758076092.73079,1758076092.69115,0.0,0.0,0.0,26.52795,-3.72423,0.17189,6.82,0.46,3.59,2.0
1758076092.74932,1758076092.70115,0.0,0.0,0.0,23.37668,-10.8289,0.40107,6.03,0.84,3.64,2.0
1758076092.75233,1758076092.71115,0.0,0.0,0.0,20.74107,-16.38659,-0.0573,6.24,1.24,3.74,2.0
1758076092.76921,1758076092.72115,0.0,0.0,0.0,17.53251,-21.25674,-0.74485,6.24,1.24,3.74,2.0
1758076092.77126,1758076092.73115,0.0,0.0,0.0,12.204,-28.93437,-2.29183,6.63,1.54,3.78,2.0
1758076092.78716,1758076092.74115,0.0,0.0,0.0,8.65166,-34.32018,-3.26586,6.63,1.54,3.78,2.0
1758076092.78967,1758076092.75115,0.0,0.0,0.0,5.61499,-38.56006,-4.23989,6.96,1.58,3.85,2.0
1758076092.80495,1758076092.76115,0.0,0.0,0.0,2.97938,-42.97184,-5.4431,6.96,1.58,3.85,2.0
1758076092.82351,1758076092.77115,0.0,0.0,0.0,0.11459,-47.61279,-7.21927,7.21,1.24,3.86,2.0
1758076092.82448,1758076092.78115,0.0,0.0,0.0,-1.03132,-47.67009,-7.67763,7.81,0.99,3.73,2.0
1758076092.84005,1758076092.79115,0.0,0.0,0.0,-1.60428,-45.72203,-7.79223,7.81,0.99,3.73,2.0
1758076092.84195,1758076092.80115,0.0,0.0,0.0,-1.60428,-43.14373,-7.62034,8.57,0.81,3.71,2.0
1758076092.85713,1758076092.81115,0.0,0.0,0.0,-0.45837,-37.52874,-6.87549,8.57,0.81,3.71,2.0
1758076092.85881,1758076092.82115,0.0,0.0,0.0,0.40107,-33.34615,-5.95876,8.98,0.63,3.57,2.0
1758076092.87387,1758076092.83115,0.0,0.0,0.0,1.43239,-29.22085,-5.50039,8.98,0.63,3.57,2.0
1758076092.88986,1758076092.84115,0.0,0.0,0.0,2.46372,-25.21014,-4.98473,9.12,0.52,3.39,2.0
1758076092.89344,1758076092.85115,0.0,0.0,0.0,3.49504,-19.42327,-5.15662,9.22,0.55,3.28,2.0
1758076092.90913,1758076092.86115,0.0,0.0,0.0,3.72423,-15.92823,-5.27121,9.22,0.55,3.28,2.0
1758076092.91253,1758076092.87115,0.0,0.0,0.0,3.60963,-13.06344,-5.55769,9.24,0.67,3.15,2.0
1758076092.92902,1758076092.88115,0.0,0.0,0.0,3.26586,-9.74028,-5.84417,9.24,0.67,3.15,2.0
1758076092.93106,1758076092.89115,0.0,0.0,0.0,2.11994,-4.46907,-6.24524,9.31,0.78,3.04,2.0
1758076092.94914,1758076092.90115,0.0,0.0,0.0,1.3751,-1.48969,-6.47442,9.31,0.78,3.04,2.0
1758076092.95085,1758076092.91115,0.0,0.0,0.0,0.51566,0.57296,-6.70361,9.22,0.81,2.88,2.0
1758076092.96888,1758076092.92115,0.0,0.0,0.0,-0.17189,2.00535,-6.99009,9.22,0.81,2.88,2.0
1758076092.97123,1758076092.93115,0.0,0.0,0.0,-0.51566,2.00535,-6.8182,8.96,0.7,2.81,2.0
1758076092.98913,1758076092.94115,0.0,0.0,0.0,-0.34377,0.85944,-6.53172,8.72,0.46,2.76,2.0
1758076092.9909,1758076092.95115,0.0,0.0,0.0,0.0,-0.34377,-5.84417,8.72,0.46,2.76,2.0
1758076093.00728,1758076092.96115,0.0,0.0,0.0,1.48969,-2.63561,-4.23989,8.62,0.17,2.77,2.0
1758076093.00991,1758076092.97115,0.0,0.0,0.0,2.7502,-4.46907,-2.92208,8.62,0.17,2.77,2.0
1758076093.02896,1758076092.98115,0.0,0.0,0.0,4.35448,-6.24524,-1.08862,8.54,-0.1,2.73,2.0
1758076093.03008,1758076092.99115,0.0,0.0,0.0,5.95876,-7.79223,0.40107,8.54,-0.1,2.73,2.0
1758076093.04494,1758076093.00115,0.0,0.0,0.0,8.02141,-8.93814,1.3178,8.55,-0.27,2.73,2.0
1758076093.06118,1758076093.01115,0.0,0.0,0.0,9.11003,-10.31324,1.03132,8.48,-0.21,2.59,2.0
1758076093.06444,1758076093.02115,0.0,0.0,0.0,10.25595,-11.22997,0.40107,8.48,-0.21,2.59,2.0
1758076093.08017,1758076093.03115,0.0,0.0,0.0,11.28727,-12.49048,0.0573,8.48,-0.03,2.42,2.0
1758076093.08454,1758076093.04115,0.0,0.0,0.0,12.77696,-15.06879,0.0573,8.48,-0.03,2.42,2.0
1758076093.10017,1758076093.05115,0.0,0.0,0.0,13.46451,-16.04282,0.57296,8.61,0.15,2.3,2.0
1758076093.10194,1758076093.06115,0.0,0.0,0.0,14.03747,-15.92823,1.94806,8.61,0.15,2.3,2.0
1758076093.11914,1758076093.07115,0.0,0.0,0.0,14.32395,-16.10011,3.60963,8.99,0.34,2.21,2.0
1758076093.12034,1758076093.08115,0.0,0.0,0.0,14.09476,-12.49048,6.13065,9.52,0.56,2.26,2.0
1758076093.13494,1758076093.09115,0.0,0.0,0.0,13.06344,-3.26586,7.04738,9.52,0.56,2.26,2.0
1758076093.1519,1758076093.10115,0.0,0.0,0.0,11.51645,7.73493,6.7609,10.38,0.94,2.19,2.0
1758076093.15788,1758076093.11115,0.0,0.0,0.0,9.5684,13.12073,4.69825,10.38,0.94,2.19,2.0
1758076093.1585,1758076093.12115,0.0,0.0,0.0,5.78687,12.49048,2.97938,9.41,1.33,2.19,2.0
1758076093.17391,1758076093.13115,0.0,0.0,0.0,3.09397,10.71431,2.7502,9.41,1.33,2.19,2.0
1758076093.18991,1758076093.14115,0.0,0.0,0.0,-1.94806,12.49048,-0.17189,9.3,1.62,2.07,2.0
1758076093.19193,1758076093.15115,0.0,0.0,0.0,-9.22462,10.25595,-2.97938,9.3,1.62,2.07,2.0
1758076093.20884,1758076093.16115,0.0,0.0,0.0,-14.43854,7.67763,-5.72958,9.23,1.97,2.11,2.0
1758076093.2099,1758076093.17115,0.0,0.0,0.0,-19.99623,5.4431,-8.70896,8.9,2.32,1.93,2.0
1758076093.22718,1758076093.18115,0.0,0.0,0.0,-24.92367,1.3178,-11.45916,8.9,2.32,1.93,2.0
1758076093.22968,1758076093.19115,0.0,0.0,0.0,-32.08564,-14.43854,-13.98017,8.59,2.49,1.89,2.0
1758076093.24489,1758076093.20115,0.0,0.0,0.0,-35.40879,-29.27814,-13.40721,8.59,2.49,1.89,2.0
1758076093.25092,1758076093.21115,0.0,0.0,0.0,-37.81522,-39.4768,-12.2613,7.95,2.12,1.53,2.0
1758076093.26967,1758076093.22115,0.0,0.0,0.0,-39.4768,-47.61279,-10.25595,7.95,2.12,1.53,2.0
1758076093.2741,1758076093.23115,0.0,0.0,0.0,-42.51347,-42.1124,-6.18794,8.77,1.64,1.04,2.0
1758076093.28905,1758076093.24115,0.0,0.0,0.0,-44.46153,-9.28192,-5.78687,12.05,1.57,1.56,2.0
1758076093.29359,1758076093.25115,0.0,0.0,0.0,-46.00851,19.88164,-2.46372,12.05,1.57,1.56,2.0
1758076093.30918,1758076093.26115,0.0,0.0,0.0,-47.78468,0.97403,-5.15662,9.65,1.68,3.01,2.0
1758076093.31086,1758076093.27115,0.0,0.0,0.0,-47.72739,-40.68,-8.25059,9.65,1.68,3.01,2.0
1758076093.32673,1758076093.28115,0.0,0.0,0.0,-45.14908,-60.04598,-12.49048,7.35,1.54,3.56,2.0
1758076093.32949,1758076093.29115,0.0,0.0,0.0,-36.15364,-48.70141,-12.49048,7.35,1.54,3.56,2.0
1758076093.34526,1758076093.30115,0.0,0.0,0.0,-28.93437,-36.03905,-13.46451,11.92,-1.12,4.25,2.0
1758076093.36125,1758076093.31115,0.0,0.0,0.0,-24.29341,-19.42327,-16.272,12.88,-1.4,2.18,2.0
1758076093.3621,1758076093.32115,0.0,0.0,0.0,-22.40265,-6.58902,-15.69904,12.88,-1.4,2.18,2.0
1758076093.37695,1758076093.33115,0.0,0.0,0.0,-20.3973,2.63561,-13.46451,11.39,-1.28,1.94,2.0
1758076093.37857,1758076093.34115,0.0,0.0,0.0,-15.92823,8.0787,-8.76626,11.39,-1.28,1.94,2.0
1758076093.39386,1758076093.35115,0.0,0.0,0.0,-13.00614,11.63104,-5.78687,9.31,-0.99,2.39,2.0
1758076093.40994,1758076093.36115,0.0,0.0,0.0,-11.00079,8.93814,-3.60963,9.31,-0.99,2.39,2.0
1758076093.4135,1758076093.37115,0.0,0.0,0.0,-9.74028,2.57831,-2.7502,8.46,-0.6,2.55,2.0
1758076093.42891,1758076093.38115,0.0,0.0,0.0,-9.05273,-4.0107,-3.83882,8.46,-0.6,2.55,2.0
1758076093.43016,1758076093.39115,0.0,0.0,0.0,-9.85487,-5.27121,-5.72958,9.07,-0.03,2.59,2.0
1758076093.4449,1758076093.40115,0.0,0.0,0.0,-10.94349,-7.96411,-7.62034,9.92,0.41,2.87,2.0
1758076093.46227,1758076093.41115,0.0,0.0,0.0,-12.43318,-11.28727,-9.5684,9.92,0.41,2.87,2.0
1758076093.46477,1758076093.42115,0.0,0.0,0.0,-15.12609,-15.41257,-11.00079,9.74,0.63,2.99,2.0
1758076093.48021,1758076093.43115,0.0,0.0,0.0,-17.47521,-15.98552,-11.17268,9.74,0.63,2.99,2.0
1758076093.48191,1758076093.44115,0.0,0.0,0.0,-19.70975,-16.55848,-10.54242,9.54,0.61,2.86,2.0
1758076093.49721,1758076093.45115,0.0,0.0,0.0,-21.94428,-17.36062,-9.4538,9.54,0.61,2.86,2.0
1758076093.49927,1758076093.46115,0.0,0.0,0.0,-24.63719,-20.11082,-7.84952,9.29,0.43,2.95,2.0
1758076093.5149,1758076093.47115,0.0,0.0,0.0,-25.72581,-23.37668,-7.10468,9.2,0.1,3.02,2.0
1758076093.53207,1758076093.48115,0.0,0.0,0.0,-26.52795,-25.55392,-6.70361,9.2,0.1,3.02,2.0
1758076093.53313,1758076093.49115,0.0,0.0,0.0,-27.10091,-26.47065,-6.07335,9.59,-0.17,2.81,2.0
1758076093.54821,1758076093.50115,0.0,0.0,0.0,-27.61657,-27.1582,-4.35448,9.59,-0.17,2.81,2.0
1758076093.55266,1758076093.51115,0.0,0.0,0.0,-27.61657,-25.7831,-2.92208,9.8,-0.16,2.41,2.0
1758076093.5692,1758076093.52115,0.0,0.0,0.0,-27.50197,-22.51724,-1.71887,9.8,-0.16,2.41,2.0
1758076093.57096,1758076093.53115,0.0,0.0,0.0,-27.1582,-18.90761,0.0573,10.28,-0.13,1.99,2.0
1758076093.58929,1758076093.54115,0.0,0.0,0.0,-26.47065,-12.71966,0.80214,10.38,-0.12,1.63,2.0
1758076093.59021,1758076093.55115,0.0,0.0,0.0,-25.72581,-8.70896,1.60428,10.38,-0.12,1.63,2.0
1758076093.60526,1758076093.56115,0.0,0.0,0.0,-24.5226,-4.64096,2.23454,10.25,-0.24,1.44,2.0
1758076093.62386,1758076093.57115,0.0,0.0,0.0,-22.57454,1.08862,2.6929,10.25,-0.24,1.44,2.0
1758076093.62511,1758076093.58115,0.0,0.0,0.0,-20.97026,5.84417,2.57831,10.19,-0.58,1.35,2.0
1758076093.6403,1758076093.59115,0.0,0.0,0.0,-19.42327,9.22462,2.23454,10.19,-0.58,1.35,2.0
1758076093.64196,1758076093.60115,0.0,0.0,0.0,-17.76169,11.34457,1.60428,10.12,-0.89,1.5,2.0
1758076093.65729,1758076093.61115,0.0,0.0,0.0,-15.58445,13.00614,0.80214,10.12,-0.89,1.73,2.0
1758076093.65818,1758076093.62115,0.0,0.0,0.0,-14.83961,13.40721,0.57296,9.89,-0.98,1.73,2.0
1758076093.67399,1758076093.63115,0.0,0.0,0.0,-14.72501,14.15206,0.80214,9.75,-0.84,1.87,2.0
1758076093.68988,1758076093.64115,0.0,0.0,0.0,-15.06879,14.43854,1.43239,9.75,-0.84,1.87,2.0
1758076093.692,1758076093.65115,0.0,0.0,0.0,-16.61578,13.98017,3.26586,9.57,-0.58,2.07,2.0
1758076093.70865,1758076093.66115,0.0,0.0,0.0,-18.33465,13.23533,4.29718,9.57,-0.58,2.07,2.0
1758076093.70984,1758076093.67115,0.0,0.0,0.0,-20.16812,12.43318,5.32851,9.43,-0.42,2.18,2.0
1758076093.72497,1758076093.68115,0.0,0.0,0.0,-22.00158,11.51645,5.95876,9.43,-0.42,2.18,2.0
1758076093.74103,1758076093.69115,0.0,0.0,0.0,-24.29341,10.31324,6.13065,9.4,-0.44,2.08,2.0
1758076093.74418,1758076093.70115,0.0,0.0,0.0,-25.43933,9.74028,5.84417,9.45,-0.59,1.95,2.0
1758076093.75993,1758076093.71115,0.0,0.0,0.0,-25.8404,7.33386,5.72958,9.45,-0.59,1.95,2.0
1758076093.76102,1758076093.72115,0.0,0.0,0.0,-25.72581,2.97938,5.21392,9.3,-0.88,1.99,2.0
1758076093.77628,1758076093.73115,0.0,0.0,0.0,-24.17882,-2.40642,4.69825,9.3,-0.88,1.99,2.0
1758076093.77843,1758076093.74115,0.0,0.0,0.0,-22.40265,-3.60963,4.81285,9.62,-1.33,1.9,2.0
1758076093.79481,1758076093.75115,0.0,0.0,0.0,-20.22541,-3.83882,5.4431,9.62,-1.33,1.9,2.0
1758076093.81096,1758076093.76115,0.0,0.0,0.0,-16.61578,-2.63561,6.87549,10.17,-1.65,1.93,2.0
1758076093.81378,1758076093.77115,0.0,0.0,0.0,-14.15206,-1.3751,7.84952,10.26,-1.63,1.99,2.0
1758076093.82898,1758076093.78115,0.0,0.0,0.0,-11.91752,-0.17189,8.93814,10.26,-1.63,1.99,2.0
1758076093.83018,1758076093.79115,0.0,0.0,0.0,-9.96947,0.45837,9.74028,10.04,-1.38,2.01,2.0
1758076093.84506,1758076093.80115,0.0,0.0,0.0,-7.67763,0.51566,10.19865,10.04,-1.38,2.01,2.0
1758076093.8613,1758076093.81115,0.0,0.0,0.0,-6.35983,0.74485,10.25595,9.85,-1.16,2.01,2.0
1758076093.86416,1758076093.82115,0.0,0.0,0.0,-5.15662,2.23454,10.08406,9.85,-1.16,2.01,2.0
1758076093.87931,1758076093.83115,0.0,0.0,0.0,-4.35448,3.95341,9.5684,9.92,-1.05,1.93,2.0
1758076093.88023,1758076093.84115,0.0,0.0,0.0,-3.32316,4.87014,8.88085,9.75,-0.99,2.03,2.0
1758076093.89531,1758076093.85115,0.0,0.0,0.0,-2.34913,1.83346,8.70896,9.75,-0.99,2.03,2.0
1758076093.91105,1758076093.86115,0.0,0.0,0.0,-1.20321,-1.83346,8.99544,9.25,-1.04,2.08,2.0
1758076093.91217,1758076093.87115,0.0,0.0,0.0,0.34377,-4.52637,10.31324,9.25,-1.04,2.08,2.0
1758076093.92735,1758076093.88115,0.0,0.0,0.0,3.55234,-8.76626,14.03747,9.36,-1.27,2.05,2.0
1758076093.93004,1758076093.89115,0.0,0.0,0.0,6.47442,-11.34457,17.47521,9.36,-1.27,2.05,2.0
1758076093.94789,1758076093.90115,0.0,0.0,0.0,9.4538,-13.75099,21.37133,9.44,-1.58,2.0,2.0
1758076093.9496,1758076093.91115,0.0,0.0,0.0,12.49048,-15.69904,24.98096,9.44,-1.58,2.0,2.0
1758076093.96525,1758076093.92115,0.0,0.0,0.0,17.18874,-15.69904,30.02299,9.71,-1.74,1.93,2.0
1758076093.98232,1758076093.93115,0.0,0.0,0.0,19.70975,-11.51645,32.42941,10.29,-1.7,1.86,2.0
1758076093.98528,1758076093.94115,0.0,0.0,0.0,21.60051,-4.98473,33.51803,10.29,-1.7,1.86,2.0
1758076094.00029,1758076093.95115,0.0,0.0,0.0,22.40265,2.57831,32.08564,10.49,-1.5,1.77,2.0
1758076094.00205,1758076093.96115,0.0,0.0,0.0,22.86102,11.80293,29.27814,10.49,-1.5,1.77,2.0
1758076094.01737,1758076093.97115,0.0,0.0,0.0,22.63183,16.84496,26.24147,9.91,-1.15,1.97,2.0
1758076094.01899,1758076093.98115,0.0,0.0,0.0,22.51724,13.80828,23.54857,9.91,-1.15,1.97,2.0
1758076094.03398,1758076093.99115,0.0,0.0,0.0,23.31938,-13.23533,20.45459,8.75,-1.04,2.03,2.0
1758076094.04999,1758076094.00115,0.0,0.0,0.0,21.25674,-33.86181,15.92823,7.49,-0.87,2.16,2.0
1758076094.05115,1758076094.01115,0.0,0.0,0.0,21.6578,-9.68299,18.16276,7.49,-0.87,2.16,2.0
1758076094.06709,1758076094.02115,0.0,0.0,0.0,22.57454,11.63104,17.36062,12.75,-1.29,1.49,2.0
1758076094.0715,1758076094.03115,0.0,0.0,0.0,25.8404,21.42862,20.62648,12.75,-1.29,1.49,2.0
1758076094.08727,1758076094.04115,0.0,0.0,0.0,28.24682,21.02755,24.35071,10.53,-1.76,2.27,2.0
1758076094.08899,1758076094.05115,0.0,0.0,0.0,28.99167,16.50119,25.72581,10.53,-1.76,2.27,2.0
1758076094.10528,1758076094.06115,0.0,0.0,0.0,29.39274,12.204,26.52795,9.33,-2.08,2.16,2.0
1758076094.12132,1758076094.07115,0.0,0.0,0.0,28.87707,10.8862,24.75178,9.25,-1.98,1.54,2.0
1758076094.12222,1758076094.08115,0.0,0.0,0.0,27.84575,9.39651,22.28806,9.25,-1.98,1.54,2.0
1758076094.13727,1758076094.09115,0.0,0.0,0.0,26.69983,7.96411,19.42327,9.08,-1.65,1.92,2.0
1758076094.13825,1758076094.10115,0.0,0.0,0.0,25.21014,5.72958,16.3293,9.08,-1.65,1.92,2.0
1758076094.15396,1758076094.11115,0.0,0.0,0.0,23.54857,5.09932,13.17803,9.37,-1.3,1.97,2.0
1758076094.17004,1758076094.12115,0.0,0.0,0.0,22.57454,9.28192,11.80293,9.37,-1.3,1.97,2.0
1758076094.17201,1758076094.13115,0.0,0.0,0.0,21.31403,13.75099,10.94349,10.26,-1.17,2.01,2.0
1758076094.18862,1758076094.14115,0.0,0.0,0.0,20.3973,17.53251,9.91217,10.26,-1.17,2.01,2.0
1758076094.18983,1758076094.15115,0.0,0.0,0.0,19.36597,18.85031,9.4538,10.07,-1.15,2.11,2.0
1758076094.20628,1758076094.16115,0.0,0.0,0.0,18.9649,19.13679,10.02676,9.75,-1.44,2.04,2.0
1758076094.20964,1758076094.17115,0.0,0.0,0.0,18.50654,19.70975,10.48513,9.75,-1.44,2.04,2.0
1758076094.22604,1758076094.18115,0.0,0.0,0.0,18.10547,20.85567,11.63104,9.89,-1.74,2.07,2.0
1758076094.24206,1758076094.19115,0.0,0.0,0.0,18.10547,21.02755,12.08941,9.89,-1.74,2.07,2.0
1758076094.24481,1758076094.20115,0.0,0.0,0.0,17.87628,19.82434,12.43318,9.77,-1.88,2.1,2.0
1758076094.26003,1758076094.21115,0.0,0.0,0.0,17.99088,17.87628,12.49048,9.77,-1.88,2.1,2.0
1758076094.26122,1758076094.22115,0.0,0.0,0.0,17.47521,14.43854,11.57375,9.52,-1.81,2.01,2.0
1758076094.27604,1758076094.23115,0.0,0.0,0.0,17.01685,12.89155,10.8289,9.44,-1.65,1.86,2.0
1758076094.29316,1758076094.24115,0.0,0.0,0.0,16.38659,11.11538,9.62569,9.44,-1.65,1.86,2.0
1758076094.29409,1758076094.25115,0.0,0.0,0.0,15.24068,9.05273,8.30789,9.3,-1.45,1.82,2.0
1758076094.3094,1758076094.26115,0.0,0.0,0.0,13.23533,7.39116,6.18794,9.3,-1.45,1.82,2.0
1758076094.31028,1758076094.27115,0.0,0.0,0.0,11.91752,7.16197,4.81285,9.3,-1.28,1.82,2.0
1758076094.32608,1758076094.28115,0.0,0.0,0.0,10.19865,7.79223,3.09397,9.3,-1.28,1.82,2.0
1758076094.34205,1758076094.29115,0.0,0.0,0.0,8.99544,8.42248,2.11994,9.42,-1.21,1.73,2.0
1758076094.34416,1758076094.30115,0.0,0.0,0.0,7.16197,7.62034,0.45837,9.36,-1.28,1.86,2.0
1758076094.35946,1758076094.31115,0.0,0.0,0.0,6.47442,7.50575,-0.45837,9.36,-1.28,1.86,2.0
1758076094.36058,1758076094.32115,0.0,0.0,0.0,5.78687,7.96411,-1.08862,9.51,-1.49,1.79,2.0
1758076094.37631,1758076094.33115,0.0,0.0,0.0,5.72958,7.73493,-1.71887,9.51,-1.49,1.79,2.0
1758076094.39281,1758076094.34115,0.0,0.0,0.0,6.53172,8.136,-2.40642,9.54,-1.76,1.9,2.0
1758076094.39408,1758076094.35115,0.0,0.0,0.0,7.50575,8.25059,-2.57831,9.54,-1.76,1.9,2.0
1758076094.4093,1758076094.36115,0.0,0.0,0.0,8.47978,8.70896,-2.97938,9.55,-1.95,1.86,2.0
1758076094.41031,1758076094.37115,0.0,0.0,0.0,9.91217,10.31324,-3.66693,9.55,-1.95,1.86,2.0
1758076094.4253,1758076094.38115,0.0,0.0,0.0,10.71431,12.204,-4.18259,9.7,-1.93,1.94,2.0
1758076094.44123,1758076094.39115,0.0,0.0,0.0,11.00079,11.63104,-4.58366,9.62,-1.69,2.3,2.0
1758076094.44225,1758076094.40115,0.0,0.0,0.0,10.8289,9.11003,-4.52637,9.62,-1.69,2.3,2.0
1758076094.46039,1758076094.41115,0.0,0.0,0.0,10.31324,6.8182,-3.49504,9.52,-1.37,2.57,2.0
1758076094.46129,1758076094.42115,0.0,0.0,0.0,9.68299,8.136,-3.03668,9.52,-1.37,2.57,2.0
1758076094.47615,1758076094.43115,0.0,0.0,0.0,8.65166,10.19865,-2.92208,9.85,-1.14,2.5,2.0
1758076094.49298,1758076094.44115,0.0,0.0,0.0,7.62034,10.59972,-3.26586,9.85,-1.14,2.5,2.0
1758076094.49489,1758076094.45115,0.0,0.0,0.0,5.61499,10.25595,-4.18259,9.58,-1.04,2.66,2.0
1758076094.50999,1758076094.46115,0.0,0.0,0.0,4.81285,10.65701,-5.09932,9.61,-1.04,2.72,2.0
1758076094.51124,1758076094.47115,0.0,0.0,0.0,4.23989,11.34457,-6.13065,9.61,-1.04,2.72,2.0
1758076094.52891,1758076094.48115,0.0,0.0,0.0,3.89611,11.57375,-7.16197,9.75,-1.15,2.84,2.0
1758076094.52985,1758076094.49115,0.0,0.0,0.0,3.89611,12.37589,-8.88085,9.75,-1.15,2.84,2.0
1758076094.54531,1758076094.50115,0.0,0.0,0.0,4.35448,13.00614,-9.5684,9.82,-1.32,3.05,2.0
1758076094.54945,1758076094.51115,0.0,0.0,0.0,4.87014,13.34992,-10.08406,9.82,-1.32,3.05,2.0
1758076094.56583,1758076094.52115,0.0,0.0,0.0,5.4431,13.23533,-10.48513,9.81,-1.47,3.21,2.0
1758076094.56982,1758076094.53115,0.0,0.0,0.0,6.7609,13.46451,-10.65701,9.86,-1.55,3.32,2.0
1758076094.58691,1758076094.54115,0.0,0.0,0.0,7.62034,13.5791,-10.8862,9.86,-1.55,3.32,2.0
1758076094.58888,1758076094.55115,0.0,0.0,0.0,8.36518,13.46451,-11.00079,9.93,-1.52,3.45,2.0
1758076094.60442,1758076094.56115,0.0,0.0,0.0,9.33921,13.17803,-11.28727,9.93,-1.52,3.45,2.0
1758076094.62116,1758076094.57115,0.0,0.0,0.0,10.59972,12.83425,-11.80293,10.01,-1.46,3.56,2.0
1758076094.62217,1758076094.58115,0.0,0.0,0.0,11.28727,12.49048,-12.37589,10.01,-1.46,3.56,2.0
1758076094.63937,1758076094.59115,0.0,0.0,0.0,11.91752,12.37589,-13.12073,10.13,-1.45,3.66,2.0
1758076094.64032,1758076094.60115,0.0,0.0,0.0,12.54778,11.80293,-14.43854,10.13,-1.45,3.66,2.0
1758076094.65705,1758076094.61115,0.0,0.0,0.0,12.71966,11.57375,-15.64175,10.33,-1.53,3.66,2.0
1758076094.65825,1758076094.62115,0.0,0.0,0.0,12.89155,11.63104,-16.73037,10.49,-1.55,3.65,2.0
1758076094.67413,1758076094.63115,0.0,0.0,0.0,13.00614,11.97482,-17.81899,10.49,-1.55,3.65,2.0
1758076094.69118,1758076094.64115,0.0,0.0,0.0,13.06344,12.60507,-19.13679,10.58,-1.41,3.59,2.0
1758076094.69528,1758076094.65115,0.0,0.0,0.0,12.89155,11.63104,-19.53786,10.58,-1.41,3.59,2.0
1758076094.71117,1758076094.66115,0.0,0.0,0.0,13.06344,10.02676,-19.53786,10.44,-1.18,3.53,2.0
1758076094.7153,1758076094.67115,0.0,0.0,0.0,13.12073,8.88085,-19.07949,10.44,-1.18,3.53,2.0
1758076094.73115,1758076094.68115,0.0,0.0,0.0,13.06344,5.55769,-17.30333,10.4,-0.99,3.49,2.0
1758076094.73528,1758076094.69115,0.0,0.0,0.0,13.40721,3.49504,-15.69904,10.36,-0.88,3.59,2.0
1758076094.75101,1758076094.70115,0.0,0.0,0.0,13.75099,1.94806,-13.69369,10.36,-0.88,3.59,2.0
1758076094.75533,1758076094.71115,0.0,0.0,0.0,14.15206,1.08862,-11.91752,10.72,-0.91,3.8,2.0
1758076094.77093,1758076094.72115,0.0,0.0,0.0,14.78231,0.45837,-9.39651,10.72,-0.91,3.8,2.0
1758076094.77214,1758076094.73115,0.0,0.0,0.0,15.58445,0.22918,-7.96411,11.1,-1.01,3.99,2.0
1758076094.7873,1758076094.74115,0.0,0.0,0.0,16.272,0.57296,-6.53172,11.1,-1.01,3.99,2.0
1758076094.78912,1758076094.75115,0.0,0.0,0.0,16.67307,1.14592,-5.61499,11.34,-0.96,4.12,2.0
1758076094.80593,1758076094.76115,0.0,0.0,0.0,17.47521,2.57831,-4.87014,11.34,-0.75,4.05,2.0
1758076094.81035,1758076094.77115,0.0,0.0,0.0,17.58981,3.55234,-4.81285,11.34,-0.75,4.05,2.0
1758076094.82697,1758076094.78115,0.0,0.0,0.0,17.87628,3.72423,-4.92744,10.86,-0.45,3.88,2.0
1758076094.82894,1758076094.79115,0.0,0.0,0.0,18.16276,3.09397,-5.4431,10.86,-0.45,3.88,2.0
1758076094.84539,1758076094.80115,0.0,0.0,0.0,18.56383,2.06265,-5.32851,10.06,-0.2,3.72,2.0
1758076094.86406,1758076094.81115,0.0,0.0,0.0,19.36597,1.3178,-5.15662,10.06,-0.2,3.72,2.0
1758076094.86492,1758076094.82115,0.0,0.0,0.0,20.11082,0.74485,-4.64096,9.41,-0.12,3.66,2.0
1758076094.88047,1758076094.83115,0.0,0.0,0.0,21.42862,1.48969,-3.55234,9.41,-0.12,3.66,2.0
1758076094.88134,1758076094.84115,0.0,0.0,0.0,22.34536,0.85944,-2.6929,8.98,-0.1,3.62,2.0
1758076094.89778,1758076094.85115,0.0,0.0,0.0,22.74642,-0.51566,-2.23454,8.36,0.01,3.53,2.0
1758076094.89974,1758076094.86115,0.0,0.0,0.0,22.91831,-1.20321,-1.71887,8.36,0.01,3.53,2.0
1758076094.91501,1758076094.87115,0.0,0.0,0.0,22.05888,-2.57831,-1.83346,8.09,0.38,3.36,2.0
1758076094.93224,1758076094.88115,0.0,0.0,0.0,20.62648,-3.66693,-2.6929,8.09,0.38,3.36,2.0
1758076094.93738,1758076094.89115,0.0,0.0,0.0,18.62113,-5.32851,-3.72423,7.76,0.9,3.32,2.0
1758076094.95321,1758076094.90115,0.0,0.0,0.0,16.3293,-6.58902,-4.58366,7.76,0.9,3.32,2.0
1758076094.95575,1758076094.91115,0.0,0.0,0.0,12.77696,-10.25595,-6.35983,7.58,1.35,3.21,2.0
1758076094.97198,1758076094.92115,0.0,0.0,0.0,10.08406,-13.5218,-7.16197,7.38,1.5,3.21,2.0
1758076094.97387,1758076094.93115,0.0,0.0,0.0,7.62034,-16.67307,-8.02141,7.38,1.5,3.21,2.0
1758076094.98948,1758076094.94115,0.0,0.0,0.0,5.50039,-19.19409,-8.70896,7.58,1.29,3.25,2.0
1758076094.99035,1758076094.95115,0.0,0.0,0.0,2.46372,-21.02755,-9.5684,7.58,1.29,3.25,2.0
1758076095.00939,1758076094.96115,0.0,0.0,0.0,0.97403,-20.45459,-9.85487,7.94,1.08,3.27,2.0
1758076095.01058,1758076094.97115,0.0,0.0,0.0,0.34377,-20.45459,-9.68299,7.94,1.08,3.27,2.0
1758076095.02596,1758076094.98115,0.0,0.0,0.0,-0.0573,-20.45459,-8.76626,8.21,0.89,3.17,2.0
1758076095.04218,1758076094.99115,0.0,0.0,0.0,0.22918,-19.59516,-7.73493,8.36,0.7,3.16,2.0
1758076095.04494,1758076095.00115,0.0,0.0,0.0,0.68755,-18.56383,-6.35983,8.36,0.7,3.16,2.0
1758076095.06134,1758076095.01115,0.0,0.0,0.0,1.14592,-17.36062,-4.81285,8.61,0.56,3.18,2.0
1758076095.06347,1758076095.02115,0.0,0.0,0.0,2.11994,-15.24068,-2.63561,8.61,0.56,3.18,2.0
1758076095.07814,1758076095.03115,0.0,0.0,0.0,2.57831,-14.15206,-1.3178,8.87,0.53,3.19,2.0
1758076095.07938,1758076095.04115,0.0,0.0,0.0,2.7502,-14.09476,-0.22918,8.87,0.53,3.19,2.0
1758076095.09439,1758076095.05115,0.0,0.0,0.0,2.86479,-13.98017,0.34377,8.99,0.56,3.16,2.0
1758076095.11019,1758076095.06115,0.0,0.0,0.0,2.57831,-12.54778,0.57296,8.99,0.56,3.08,2.0
1758076095.11342,1758076095.07115,0.0,0.0,0.0,1.71887,-11.22997,0.0,9.17,0.63,3.08,2.0
1758076095.12924,1758076095.08115,0.0,0.0,0.0,0.51566,-9.28192,-1.03132,9.17,0.76,3.04,2.0
1758076095.13063,1758076095.09115,0.0,0.0,0.0,-0.51566,-8.136,-2.29183,9.17,0.76,3.04,2.0
1758076095.14705,1758076095.10115,0.0,0.0,0.0,-2.40642,-8.0787,-4.1253,8.97,0.82,2.94,2.0
1758076095.16253,1758076095.11115,0.0,0.0,0.0,-3.66693,-8.93814,-4.98473,8.97,0.82,2.94,2.0
1758076095.16421,1758076095.12115,0.0,0.0,0.0,-4.64096,-9.74028,-5.50039,8.91,0.78,2.93,2.0
1758076095.17918,1758076095.13115,0.0,0.0,0.0,-5.4431,-10.31324,-5.32851,8.91,0.78,2.93,2.0
1758076095.18149,1758076095.14115,0.0,0.0,0.0,-5.84417,-11.74564,-4.52637,9.11,0.63,2.9,2.0
1758076095.19702,1758076095.15115,0.0,0.0,0.0,-5.78687,-12.54778,-3.60963,9.23,0.44,2.85,2.0
1758076095.1983,1758076095.16115,0.0,0.0,0.0,-5.50039,-13.12073,-2.97938,9.23,0.44,2.85,2.0
1758076095.21462,1758076095.17115,0.0,0.0,0.0,-4.58366,-14.03747,-1.94806,9.32,0.24,2.85,2.0
1758076095.23344,1758076095.18115,0.0,0.0,0.0,-3.20856,-14.72501,-1.20321,9.32,0.24,2.85,2.0
1758076095.2354,1758076095.19115,0.0,0.0,0.0,-2.34913,-14.38124,-1.3751,9.38,0.11,2.85,2.0
1758076095.2502,1758076095.20115,0.0,0.0,0.0,-1.66158,-14.09476,-2.6929,9.38,0.11,2.85,2.0
1758076095.25132,1758076095.21115,0.0,0.0,0.0,-0.40107,-13.80828,-4.64096,9.15,0.16,2.6,2.0
1758076095.26622,1758076095.22115,0.0,0.0,0.0,0.40107,-12.43318,-5.84417,8.92,0.27,2.41,2.0
1758076095.28222,1758076095.23115,0.0,0.0,0.0,1.83346,-12.2613,-5.95876,8.92,0.27,2.41,2.0
1758076095.2842,1758076095.24115,0.0,0.0,0.0,3.26586,-12.49048,-5.4431,8.84,0.28,2.51,2.0
1758076095.29948,1758076095.25115,0.0,0.0,0.0,4.81285,-13.00614,-3.49504,8.84,0.28,2.51,2.0
1758076095.30199,1758076095.26115,0.0,0.0,0.0,5.84417,-12.43318,-1.71887,9.0,0.27,2.39,2.0
1758076095.31709,1758076095.27115,0.0,0.0,0.0,6.41713,-10.8289,-0.11459,9.0,0.27,2.39,2.0
1758076095.31841,1758076095.28115,0.0,0.0,0.0,6.7609,-8.93814,1.66158,9.31,0.37,2.24,2.0
1758076095.33425,1758076095.29115,0.0,0.0,0.0,6.8182,-5.27121,3.09397,9.52,0.61,2.16,2.0
1758076095.35133,1758076095.30115,0.0,0.0,0.0,6.24524,-1.14592,3.55234,9.52,0.61,2.16,2.0
1758076095.35386,1758076095.31115,0.0,0.0,0.0,5.84417,2.86479,3.72423,9.67,0.85,2.08,2.0
1758076095.3695,1758076095.32115,0.0,0.0,0.0,4.98473,6.70361,3.95341,9.67,0.85,2.08,2.0
1758076095.37122,1758076095.33115,0.0,0.0,0.0,3.55234,14.61043,4.23989,9.67,0.99,2.13,2.0
1758076095.38622,1758076095.34115,0.0,0.0,0.0,2.11994,19.82434,3.55234,9.67,0.99,2.13,2.0
1758076095.40223,1758076095.35115,0.0,0.0,0.0,0.85944,21.08485,2.92208,9.66,1.12,2.24,2.0
1758076095.40424,1758076095.36115,0.0,0.0,0.0,-0.34377,19.13679,2.86479,9.66,1.12,2.24,2.0
1758076095.41923,1758076095.37115,0.0,0.0,0.0,-2.92208,16.90226,2.97938,9.21,1.24,2.3,2.0
1758076095.42123,1758076095.38115,0.0,0.0,0.0,-4.52637,13.5218,3.49504,9.6,1.38,2.31,2.0
1758076095.43649,1758076095.39115,0.0,0.0,0.0,-8.47978,14.78231,1.77617,9.6,1.38,2.31,2.0
1758076095.43822,1758076095.40115,0.0,0.0,0.0,-11.97482,13.17803,-1.03132,9.44,1.72,2.35,2.0
1758076095.45449,1758076095.41115,0.0,0.0,0.0,-18.56383,10.37054,-4.18259,9.44,1.72,2.35,2.0
1758076095.47131,1758076095.42115,0.0,0.0,0.0,-23.0329,7.73493,-7.50575,8.99,1.97,2.22,2.0
1758076095.47498,1758076095.43115,0.0,0.0,0.0,-27.1582,2.97938,-10.8862,8.99,1.97,2.22,2.0
1758076095.49055,1758076095.44115,0.0,0.0,0.0,-32.6013,-13.46451,-14.09476,8.56,2.18,2.09,2.0
1758076095.49254,1758076095.45115,0.0,0.0,0.0,-35.12231,-26.35606,-13.98017,7.87,1.94,1.65,2.0
1758076095.50751,1758076095.46115,0.0,0.0,0.0,-37.29956,-35.2942,-13.12073,7.87,1.94,1.65,2.0
1758076095.50919,1758076095.47115,0.0,0.0,0.0,-39.13302,-41.99781,-10.8862,8.4,1.52,1.12,2.0
1758076095.52522,1758076095.48115,0.0,0.0,0.0,-42.74266,-37.75792,-6.07335,8.4,1.52,1.12,2.0
1758076095.54119,1758076095.49115,0.0,0.0,0.0,-45.09178,-11.86023,-2.6929,10.1,1.28,1.33,2.0
1758076095.54477,1758076095.50115,0.0,0.0,0.0,-48.35764,14.43854,1.48969,10.1,1.28,1.33,2.0
1758076095.56033,1758076095.51115,0.0,0.0,0.0,-51.73809,2.97938,0.0573,10.82,1.31,1.87,2.0
1758076095.56144,1758076095.52115,0.0,0.0,0.0,-54.02992,-25.09555,-0.57296,7.15,1.63,3.22,2.0
1758076095.57627,1758076095.53115,0.0,0.0,0.0,-56.26446,-46.86795,-5.15662,7.15,1.63,3.22,2.0
1758076095.57899,1758076095.54115,0.0,0.0,0.0,-57.52497,-57.92604,-10.8289,9.7,0.96,3.17,2.0
1758076095.59525,1758076095.55115,0.0,0.0,0.0,-56.14987,-50.64947,-16.38659,9.7,0.96,3.17,2.0
1758076095.61227,1758076095.56115,0.0,0.0,0.0,-48.52953,-26.64254,-20.45459,14.23,-0.53,3.61,2.0
1758076095.61402,1758076095.57115,0.0,0.0,0.0,-41.48215,-14.66772,-20.3973,14.23,-0.53,3.61,2.0
1758076095.62924,1758076095.58115,0.0,0.0,0.0,-33.80451,-6.8182,-18.16276,12.66,-2.06,3.26,2.0
1758076095.63155,1758076095.59115,0.0,0.0,0.0,-27.10091,-1.71887,-15.41257,12.66,-2.06,3.26,2.0
1758076095.64643,1758076095.60115,0.0,0.0,0.0,-19.48057,-2.46372,-10.25595,9.86,-2.31,2.09,2.0
1758076095.66381,1758076095.61115,0.0,0.0,0.0,-15.69904,-5.15662,-6.35983,8.08,-1.7,1.89,2.0
1758076095.66495,1758076095.62115,0.0,0.0,0.0,-12.83425,-7.79223,-2.57831,8.08,-1.7,1.89,2.0
1758076095.68034,1758076095.63115,0.0,0.0,0.0,-10.48513,-11.11538,1.83346,8.38,-0.84,2.54,2.0
1758076095.68145,1758076095.64115,0.0,0.0,0.0,-10.02676,-13.17803,3.38045,8.38,-0.84,2.54,2.0
1758076095.69663,1758076095.65115,0.0,0.0,0.0,-10.71431,-16.21471,4.0107,9.34,-0.02,2.93,2.0
1758076095.69823,1758076095.66115,0.0,0.0,0.0,-11.91752,-18.44924,4.18259,9.34,-0.02,2.93,2.0
1758076095.71422,1758076095.67115,0.0,0.0,0.0,-15.41257,-20.68378,3.03668,9.98,0.75,2.85,2.0
1758076095.73057,1758076095.68115,0.0,0.0,0.0,-18.22006,-22.63183,2.11994,9.98,1.18,2.88,2.0
1758076095.73146,1758076095.69115,0.0,0.0,0.0,-21.48592,-24.00693,1.03132,9.98,1.18,2.88,2.0
1758076095.74757,1758076095.70115,0.0,0.0,0.0,-25.21014,-25.26744,-0.17189,9.66,1.02,2.9,2.0
1758076095.7484,1758076095.71115,0.0,0.0,0.0,-30.59595,-25.43933,-2.23454,9.66,1.02,2.9,2.0
1758076095.76453,1758076095.72115,0.0,0.0,0.0,-33.51803,-24.75178,-3.03668,9.63,0.41,2.88,2.0
1758076095.78391,1758076095.73115,0.0,0.0,0.0,-36.38282,-23.54857,-4.18259,9.63,0.41,2.88,2.0
1758076095.78512,1758076095.74115,0.0,0.0,0.0,-38.44547,-22.57454,-4.98473,9.69,-0.17,2.69,2.0
1758076095.80055,1758076095.75115,0.0,0.0,0.0,-40.04975,-19.36597,-5.50039,9.74,-0.62,2.3,2.0
1758076095.80229,1758076095.76115,0.0,0.0,0.0,-40.10705,-17.24603,-5.32851,9.74,-0.62,2.3,2.0
1758076095.81803,1758076095.77115,0.0,0.0,0.0,-39.4768,-14.72501,-4.58366,9.62,-0.96,1.97,2.0
1758076095.82005,1758076095.78115,0.0,0.0,0.0,-38.50277,-11.45916,-3.89611,9.62,-0.96,1.97,2.0
1758076095.83686,1758076095.79115,0.0,0.0,0.0,-35.86716,-5.84417,-2.00535,9.68,-1.29,1.86,2.0
1758076095.85253,1758076095.80115,0.0,0.0,0.0,-33.46074,-1.94806,-0.22918,9.68,-1.29,1.86,2.0
1758076095.85344,1758076095.81115,0.0,0.0,0.0,-31.11161,1.77617,1.43239,9.92,-1.61,1.96,2.0
1758076095.86996,1758076095.82115,0.0,0.0,0.0,-26.81443,5.09932,4.1253,9.92,-1.61,1.96,2.0
1758076095.87501,1758076095.83115,0.0,0.0,0.0,-23.66316,10.65701,5.95876,10.26,-1.86,1.91,2.0
1758076095.89186,1758076095.84115,0.0,0.0,0.0,-20.45459,11.51645,7.33386,10.29,-1.96,1.72,2.0
1758076095.89712,1758076095.85115,0.0,0.0,0.0,-17.76169,10.08406,8.0787,10.29,-1.96,1.72,2.0
1758076095.91389,1758076095.86115,0.0,0.0,0.0,-14.78231,7.62034,8.42248,9.93,-1.82,1.7,2.0
1758076095.91528,1758076095.87115,0.0,0.0,0.0,-13.5791,6.58902,8.30789,9.93,-1.82,1.7,2.0
1758076095.93132,1758076095.88115,0.0,0.0,0.0,-12.54778,5.61499,8.36518,10.09,-1.46,1.86,2.0
1758076095.93387,1758076095.89115,0.0,0.0,0.0,-12.14671,4.29718,8.42248,10.09,-1.46,1.86,2.0
1758076095.94924,1758076095.90115,0.0,0.0,0.0,-11.86023,1.66158,9.39651,9.97,-1.09,1.92,2.0
1758076095.95126,1758076095.91115,0.0,0.0,0.0,-11.34457,-1.3751,10.59972,9.8,-0.93,1.95,2.0
1758076095.96858,1758076095.92115,0.0,0.0,0.0,-10.8862,-4.23989,11.63104,9.8,-0.93,1.95,2.0
1758076095.96982,1758076095.93115,0.0,0.0,0.0,-10.19865,-4.69825,13.06344,9.77,-1.02,1.78,2.0
1758076095.9863,1758076095.94115,0.0,0.0,0.0,-8.47978,-2.92208,14.72501,9.77,-1.02,1.78,2.0
1758076096.00229,1758076095.95115,0.0,0.0,0.0,-7.04738,-1.77617,15.35527,9.83,-1.24,1.75,2.0
1758076096.00421,1758076095.96115,0.0,0.0,0.0,-4.98473,-0.57296,15.87093,9.83,-1.24,1.75,2.0
1758076096.01955,1758076095.97115,0.0,0.0,0.0,-3.60963,2.40642,14.78231,9.67,-1.5,1.73,2.0
1758076096.02122,1758076095.98115,0.0,0.0,0.0,-1.3751,3.66693,12.49048,9.45,-1.53,1.82,2.0
1758076096.03707,1758076095.99115,0.0,0.0,0.0,-0.11459,4.81285,10.71431,9.45,-1.53,1.82,2.0
1758076096.03856,1758076096.00115,0.0,0.0,0.0,0.34377,5.72958,8.42248,9.54,-1.37,1.81,2.0
1758076096.05428,1758076096.01115,0.0,0.0,0.0,0.80214,5.4431,6.53172,9.54,-1.37,1.81,2.0
1758076096.07061,1758076096.02115,0.0,0.0,0.0,1.43239,5.84417,5.21392,9.67,-1.14,1.84,2.0
1758076096.07467,1758076096.03115,0.0,0.0,0.0,1.83346,5.78687,5.15662,9.67,-1.14,1.84,2.0
1758076096.09018,1758076096.04115,0.0,0.0,0.0,2.40642,5.90147,5.72958,9.81,-1.0,1.8,2.0
1758076096.09221,1758076096.05115,0.0,0.0,0.0,2.97938,5.78687,6.99009,9.81,-1.0,1.8,2.0
1758076096.10856,1758076096.06115,0.0,0.0,0.0,2.92208,5.55769,7.21927,9.77,-0.92,1.77,2.0
1758076096.10946,1758076096.07115,0.0,0.0,0.0,3.49504,5.4431,8.02141,9.75,-0.88,1.95,2.0
1758076096.12458,1758076096.08115,0.0,0.0,0.0,4.1253,3.32316,9.22462,9.75,-0.88,1.95,2.0
1758076096.14057,1758076096.09115,0.0,0.0,0.0,5.50039,-3.20856,11.11538,9.45,-0.99,2.02,2.0
1758076096.14422,1758076096.10115,0.0,0.0,0.0,6.53172,-7.50575,12.83425,9.45,-0.99,2.02,2.0
1758076096.15932,1758076096.11115,0.0,0.0,0.0,8.0787,-10.8289,14.9542,9.37,-1.16,1.92,2.0
1758076096.16148,1758076096.12115,0.0,0.0,0.0,9.85487,-13.69369,17.47521,9.37,-1.16,1.92,2.0
1758076096.1766,1758076096.13115,0.0,0.0,0.0,12.14671,-16.10011,21.42862,9.46,-1.23,1.81,2.0
1758076096.1931,1758076096.14115,0.0,0.0,0.0,13.5791,-15.64175,23.60586,9.76,-1.24,1.74,2.0
1758076096.19432,1758076096.15115,0.0,0.0,0.0,14.72501,-13.86558,25.38203,9.76,-1.24,1.74,2.0
1758076096.20914,1758076096.16115,0.0,0.0,0.0,15.64175,-11.22997,26.81443,9.97,-1.18,1.75,2.0
1758076096.21132,1758076096.17115,0.0,0.0,0.0,16.04282,-6.35983,27.67386,9.97,-1.18,1.75,2.0
1758076096.22631,1758076096.18115,0.0,0.0,0.0,15.75634,-1.43239,26.87172,10.02,-1.04,1.66,2.0
1758076096.22989,1758076096.19115,0.0,0.0,0.0,15.24068,3.72423,24.75178,10.02,-1.04,1.66,2.0
1758076096.24892,1758076096.20115,0.0,0.0,0.0,14.66772,11.00079,21.31403,9.98,-0.99,1.57,2.0
1758076096.24983,1758076096.21115,0.0,0.0,0.0,13.46451,19.42327,16.10011,9.88,-0.9,1.57,2.0
1758076096.26529,1758076096.22115,0.0,0.0,0.0,12.60507,22.68913,11.97482,9.88,-0.9,1.57,2.0
1758076096.28262,1758076096.23115,0.0,0.0,0.0,12.43318,19.36597,7.62034,9.26,-0.94,1.71,2.0
1758076096.28934,1758076096.24115,0.0,0.0,0.0,11.51645,7.73493,0.68755,9.26,-0.94,1.71,2.0
1758076096.28979,1758076096.25115,0.0,0.0,0.0,14.15206,15.98552,2.86479,9.49,-1.04,1.27,2.0
1758076096.3063,1758076096.26115,0.0,0.0,0.0,18.10547,15.41257,4.81285,9.49,-1.04,1.27,2.0
1758076096.30906,1758076096.27115,0.0,0.0,0.0,22.68913,15.92823,9.11003,10.81,-1.85,1.72,2.0
1758076096.32689,1758076096.28115,0.0,0.0,0.0,28.59059,23.66316,14.72501,10.81,-1.85,1.72,2.0
1758076096.33155,1758076096.29115,0.0,0.0,0.0,30.93972,25.55392,17.30333,11.12,-2.54,1.44,2.0
1758076096.34928,1758076096.30115,0.0,0.0,0.0,31.85646,22.51724,17.87628,9.52,-2.68,1.34,2.0
1758076096.35132,1758076096.31115,0.0,0.0,0.0,31.79916,17.01685,17.13144,9.52,-2.68,1.34,2.0
1758076096.36871,1758076096.32115,0.0,0.0,0.0,29.96569,10.25595,13.17803,8.59,-2.2,1.04,2.0
1758076096.36986,1758076096.33115,0.0,0.0,0.0,28.36141,8.76626,10.31324,8.59,-2.2,1.04,2.0
1758076096.3856,1758076096.34115,0.0,0.0,0.0,26.18417,11.11538,6.41713,9.31,-1.46,1.33,2.0
1758076096.38961,1758076096.35115,0.0,0.0,0.0,23.66316,14.49583,2.92208,9.31,-1.46,1.33,2.0
1758076096.40869,1758076096.36115,0.0,0.0,0.0,20.05352,18.44924,-1.48969,10.24,-0.8,1.86,2.0
1758076096.40988,1758076096.37115,0.0,0.0,0.0,17.47521,19.53786,-3.03668,10.27,-0.55,1.98,2.0
1758076096.42533,1758076096.38115,0.0,0.0,0.0,15.24068,19.88164,-3.49504,10.27,-0.55,1.98,2.0
1758076096.43126,1758076096.39115,0.0,0.0,0.0,13.75099,19.88164,-2.57831,9.94,-0.88,1.91,2.0
1758076096.44938,1758076096.40115,0.0,0.0,0.0,12.08941,24.98096,-1.3178,9.94,-0.88,1.91,2.0
1758076096.45129,1758076096.41115,0.0,0.0,0.0,11.91752,23.0902,-0.51566,9.85,-1.44,2.02,2.0
1758076096.46738,1758076096.42115,0.0,0.0,0.0,11.97482,21.7724,0.17189,9.85,-1.44,2.02,2.0
1758076096.46904,1758076096.43115,0.0,0.0,0.0,13.34992,22.51724,1.20321,9.41,-2.03,1.78,2.0
1758076096.48563,1758076096.44115,0.0,0.0,0.0,15.12609,24.23611,1.3178,9.7,-2.3,2.12,2.0
1758076096.50313,1758076096.45115,0.0,0.0,0.0,16.10011,22.23076,0.40107,9.7,-2.3,2.12,2.0
1758076096.50943,1758076096.46115,0.0,0.0,0.0,17.24603,14.38124,0.11459,8.96,-2.14,2.32,2.0
1758076096.50994,1758076096.47115,0.0,0.0,0.0,19.36597,7.44845,1.83346,8.96,-2.14,2.32,2.0
1758076096.52874,1758076096.48115,0.0,0.0,0.0,19.88164,8.93814,2.57831,9.5,-1.79,2.24,2.0
1758076096.52991,1758076096.49115,0.0,0.0,0.0,19.76705,11.17268,2.63561,9.5,-1.79,2.24,2.0
1758076096.54649,1758076096.50115,0.0,0.0,0.0,19.48057,12.08941,2.46372,9.8,-1.47,2.01,2.0
1758076096.5491,1758076096.51115,0.0,0.0,0.0,18.33465,12.89155,1.20321,9.8,-1.47,2.14,2.0
1758076096.56537,1758076096.52115,0.0,0.0,0.0,17.76169,13.75099,0.11459,9.49,-1.28,2.14,2.0
1758076096.58401,1758076096.53115,0.0,0.0,0.0,16.73037,13.75099,-1.3178,9.57,-1.12,2.21,2.0
1758076096.5849,1758076096.54115,0.0,0.0,0.0,15.69904,13.69369,-2.92208,9.57,-1.12,2.21,2.0
1758076096.60067,1758076096.55115,0.0,0.0,0.0,14.61043,14.09476,-5.09932,9.71,-1.07,2.36,2.0
1758076096.60263,1758076096.56115,0.0,0.0,0.0,13.98017,13.86558,-6.07335,9.71,-1.07,2.36,2.0
1758076096.61763,1758076096.57115,0.0,0.0,0.0,13.34992,13.75099,-7.33386,9.91,-1.22,2.53,2.0
1758076096.62046,1758076096.58115,0.0,0.0,0.0,12.89155,13.75099,-8.36518,9.91,-1.22,2.53,2.0
1758076096.63946,1758076096.59115,0.0,0.0,0.0,12.60507,13.23533,-9.85487,10.23,-1.42,2.55,2.0
1758076096.64064,1758076096.60115,0.0,0.0,0.0,12.37589,11.97482,-10.65701,10.52,-1.57,2.75,2.0
1758076096.66113,1758076096.61115,0.0,0.0,0.0,12.08941,11.22997,-11.34457,10.52,-1.57,2.75,2.0
1758076096.68955,1758076096.62115,0.0,0.0,0.0,11.74564,12.2613,-11.91752,11.12,-1.57,2.86,2.0
1758076096.68995,1758076096.63115,0.0,0.0,0.0,11.28727,15.98552,-12.54778,11.12,-1.57,2.86,2.0
1758076096.69773,1758076096.64115,0.0,0.0,0.0,11.00079,18.27736,-12.54778,11.73,-1.51,3.04,2.0
1758076096.70478,1758076096.65115,0.0,0.0,0.0,10.48513,20.85567,-12.54778,11.73,-1.51,3.04,2.0
1758076096.70837,1758076096.66115,0.0,0.0,0.0,9.28192,23.72045,-12.83425,12.11,-1.36,3.21,2.0
1758076096.70947,1758076096.67115,0.0,0.0,0.0,8.47978,26.69983,-12.89155,12.38,-1.12,3.44,2.0
1758076096.72961,1758076096.68115,0.0,0.0,0.0,8.02141,27.67386,-12.54778,12.38,-1.12,3.44,2.0
1758076096.73488,1758076096.69115,0.0,0.0,0.0,8.02141,28.99167,-11.86023,12.59,-0.92,3.78,2.0
1758076096.74964,1758076096.70115,0.0,0.0,0.0,8.136,29.96569,-10.54242,12.59,-0.92,3.78,2.0
1758076096.75488,1758076096.71115,0.0,0.0,0.0,8.36518,27.96034,-10.02676,12.56,-0.94,4.16,2.0
1758076096.76943,1758076096.72115,0.0,0.0,0.0,8.65166,25.7831,-9.74028,12.56,-0.94,4.16,2.0
1758076096.77521,1758076096.73115,0.0,0.0,0.0,8.99544,24.57989,-9.39651,12.12,-1.0,4.36,2.0
1758076096.78956,1758076096.74115,0.0,0.0,0.0,10.19865,22.97561,-9.11003,11.75,-1.0,4.42,2.0
1758076096.79552,1758076096.75115,0.0,0.0,0.0,11.63104,20.74107,-8.36518,11.75,-1.0,4.42,2.0
1758076096.81062,1758076096.76115,0.0,0.0,0.0,13.69369,17.18874,-7.39116,11.0,-0.99,4.51,2.0
1758076096.81386,1758076096.77115,0.0,0.0,0.0,15.92823,13.80828,-6.41713,11.0,-0.99,4.51,2.0
1758076096.82931,1758076096.78115,0.0,0.0,0.0,19.88164,8.59437,-4.46907,10.15,-0.93,4.25,2.0
1758076096.83163,1758076096.79115,0.0,0.0,0.0,22.51724,5.50039,-3.20856,10.15,-0.93,4.25,2.0
1758076096.84667,1758076096.80115,0.0,0.0,0.0,24.98096,1.77617,-2.00535,9.16,-0.81,4.0,2.0
1758076096.86381,1758076096.81115,0.0,0.0,0.0,27.04361,-2.06265,-1.14592,9.16,-0.81,4.0,2.0
1758076096.86431,1758076096.82115,0.0,0.0,0.0,29.56462,-10.19865,-0.22918,8.02,-0.73,3.86,2.0
1758076096.87955,1758076096.83115,0.0,0.0,0.0,30.82513,-16.10011,0.51566,7.13,-0.56,3.81,2.0
1758076096.88135,1758076096.84115,0.0,0.0,0.0,31.74186,-20.85567,1.03132,7.13,-0.56,3.81,2.0
1758076096.89715,1758076096.85115,0.0,0.0,0.0,32.14294,-24.35071,1.3751,7.05,-0.11,3.66,2.0
1758076096.89834,1758076096.86115,0.0,0.0,0.0,31.28349,-30.93972,1.3751,7.05,-0.11,3.66,2.0
1758076096.91428,1758076096.87115,0.0,0.0,0.0,29.8511,-35.52338,1.14592,6.75,0.62,3.52,2.0
1758076096.93061,1758076096.88115,0.0,0.0,0.0,26.98631,-39.70598,0.17189,6.75,0.62,3.52,2.0
1758076096.93232,1758076096.89114,0.0,0.0,0.0,21.94428,-46.63877,-0.68755,6.57,1.47,3.27,2.0
1758076096.94763,1758076096.90114,0.0,0.0,0.0,17.6471,-49.90463,-0.80214,6.53,2.01,3.17,2.0
1758076096.94854,1758076096.91114,0.0,0.0,0.0,13.69369,-50.64947,-1.14592,6.53,2.01,3.17,2.0
1758076096.96451,1758076096.92114,0.0,0.0,0.0,9.62569,-48.58683,-1.66158,7.24,1.82,3.09,2.0
1758076096.9804,1758076096.93114,0.0,0.0,0.0,4.0107,-42.91454,-2.7502,7.24,1.82,3.09,2.0
1758076096.9816,1758076096.94114,0.0,0.0,0.0,1.3751,-37.87251,-3.49504,8.01,1.32,3.04,2.0
1758076096.99745,1758076096.95114,0.0,0.0,0.0,-0.68755,-32.20023,-4.0107,8.01,1.32,3.04,2.0
1758076096.99915,1758076096.96114,0.0,0.0,0.0,-2.00535,-26.01229,-4.69825,8.71,0.97,2.88,2.0
1758076097.01537,1758076096.97114,0.0,0.0,0.0,-2.6929,-17.87628,-5.72958,9.2,0.81,2.82,2.0
1758076097.03318,1758076096.98114,0.0,0.0,0.0,-2.40642,-12.37589,-6.13065,9.2,0.81,2.82,2.0
1758076097.03432,1758076096.99114,0.0,0.0,0.0,-2.11994,-6.58902,-6.58902,9.53,0.67,2.72,2.0
1758076097.04955,1758076097.00114,0.0,0.0,0.0,-1.66158,-0.45837,-7.10468,9.53,0.67,2.72,2.0
1758076097.05053,1758076097.01114,0.0,0.0,0.0,-1.3178,7.73493,-8.30789,9.64,0.52,2.69,2.0
1758076097.06569,1758076097.02114,0.0,0.0,0.0,-0.85944,11.51645,-9.33921,9.64,0.52,2.69,2.0
1758076097.06968,1758076097.03114,0.0,0.0,0.0,-0.80214,14.03747,-10.48513,9.37,0.44,2.73,2.0
1758076097.08638,1758076097.04114,0.0,0.0,0.0,-0.74485,15.12609,-11.22997,9.37,0.44,2.73,2.0
