timeStamp,timeStampAlign,roll,pitch,yaw,gyro_x,gyro_y,gyro_z,acc_x,acc_y,acc_z,flag_num
1758075473.17043,1758075473.14494,0.0,0.0,0.0,66.29122,28.476,9.85487,10.74,-0.46,1.76,4.0
1758075473.17326,1758075473.15494,0.0,0.0,0.0,64.80153,40.33623,8.36518,10.74,-0.46,1.76,4.0
1758075473.18942,1758075473.16494,0.0,0.0,0.0,63.02536,50.3057,6.07335,12.27,0.48,1.47,4.0
1758075473.20549,1758075473.17494,0.0,0.0,0.0,62.96807,49.15978,3.95341,12.27,0.48,1.47,4.0
1758075473.20666,1758075473.18494,0.0,0.0,0.0,59.75951,15.41257,0.97403,10.81,1.34,0.71,4.0
1758075473.22156,1758075473.19494,0.0,0.0,0.0,56.83742,-1.60428,-1.3751,8.42,1.87,0.52,4.0
1758075473.2227,1758075473.20494,0.0,0.0,0.0,55.00395,13.12073,-0.85944,8.42,1.87,0.52,4.0
1758075473.2377,1758075473.21494,0.0,0.0,0.0,53.80074,37.81522,-0.74485,12.28,1.53,0.79,4.0
1758075473.25426,1758075473.22494,0.0,0.0,0.0,49.79003,52.65482,-0.85944,12.28,1.53,0.79,4.0
1758075473.25547,1758075473.23494,0.0,0.0,0.0,45.60744,50.363,-1.48969,9.26,1.35,1.46,4.0
1758075473.27048,1758075473.24494,0.0,0.0,0.0,41.08107,46.69606,-1.60428,9.26,1.35,1.46,4.0
1758075473.27181,1758075473.25494,0.0,0.0,0.0,35.06502,42.68536,-2.23454,7.85,1.21,0.6,4.0
1758075473.28877,1758075473.26494,0.0,0.0,0.0,31.51268,40.7946,-2.29183,8.26,1.27,0.31,4.0
1758075473.30458,1758075473.27494,0.0,0.0,0.0,28.36141,39.87786,-2.06265,8.26,1.27,0.31,4.0
1758075473.30575,1758075473.28494,0.0,0.0,0.0,25.72581,39.13302,-1.94806,9.13,1.26,0.69,4.0
1758075473.32055,1758075473.29494,0.0,0.0,0.0,21.94428,36.6693,-1.43239,9.13,1.26,0.69,4.0
1758075473.32279,1758075473.30494,0.0,0.0,0.0,19.70975,34.26288,-1.14592,9.39,1.21,0.55,4.0
1758075473.33853,1758075473.31494,0.0,0.0,0.0,17.53251,31.51268,-1.08862,9.39,1.21,0.55,4.0
1758075473.3548,1758075473.32494,0.0,0.0,0.0,15.87093,28.30412,-1.08862,9.29,1.24,0.62,4.0
1758075473.35654,1758075473.33494,0.0,0.0,0.0,13.5791,23.26209,-1.3178,9.06,1.3,0.84,4.0
1758075473.37183,1758075473.34494,0.0,0.0,0.0,12.37589,20.62648,-1.3178,9.06,1.3,0.84,4.0
1758075473.37469,1758075473.35494,0.0,0.0,0.0,11.17268,18.85031,-1.3178,9.08,1.24,0.78,4.0
1758075473.38975,1758075473.36494,0.0,0.0,0.0,9.85487,17.76169,-1.08862,9.08,1.24,0.78,4.0
1758075473.39316,1758075473.37494,0.0,0.0,0.0,7.50575,14.09476,-0.51566,9.14,1.04,0.38,4.0
1758075473.40881,1758075473.38494,0.0,0.0,0.0,5.90147,11.11538,0.0573,9.14,1.04,0.38,4.0
1758075473.42471,1758075473.39494,0.0,0.0,0.0,4.52637,9.11003,1.08862,9.07,0.91,-0.03,4.0
1758075473.42578,1758075473.40494,0.0,0.0,0.0,3.03668,8.76626,2.34913,9.07,0.91,-0.03,4.0
1758075473.44062,1758075473.41494,0.0,0.0,0.0,1.71887,8.42248,4.18259,9.3,0.93,-0.32,4.0
1758075473.4418,1758075473.42494,0.0,0.0,0.0,0.74485,6.70361,5.21392,9.11,1.01,-0.29,4.0
1758075473.4579,1758075473.43494,0.0,0.0,0.0,-0.40107,3.38045,5.72958,9.11,1.01,-0.29,4.0
1758075473.4739,1758075473.44494,0.0,0.0,0.0,-2.63561,-2.11994,6.13065,8.75,1.02,-0.24,4.0
1758075473.47514,1758075473.45494,0.0,0.0,0.0,-4.64096,-6.35983,6.24524,8.75,1.02,-0.24,4.0
1758075473.48968,1758075473.46494,0.0,0.0,0.0,-6.8182,-11.34457,6.47442,8.52,1.07,0.05,4.0
1758075473.50592,1758075473.47494,0.0,0.0,0.0,-8.93814,-20.11082,7.21927,8.52,1.07,0.05,4.0
1758075473.50765,1758075473.48494,0.0,0.0,0.0,-11.17268,-44.40423,6.53172,8.11,1.33,1.71,4.0
1758075473.52291,1758075473.49494,0.0,0.0,0.0,-12.08941,-61.65026,3.72423,9.12,1.52,4.5,4.0
1758075473.52404,1758075473.50494,0.0,0.0,0.0,-11.63104,-70.76029,-0.40107,9.12,1.52,4.5,4.0
1758075473.53868,1758075473.51494,0.0,0.0,0.0,-10.54242,-72.36457,-5.90147,13.96,0.33,4.57,4.0
1758075473.55471,1758075473.52494,0.0,0.0,0.0,-7.62034,-71.50513,-11.63104,13.96,0.33,4.57,4.0
1758075473.55585,1758075473.53494,0.0,0.0,0.0,-6.07335,-74.08345,-12.60507,14.07,-0.61,3.39,4.0
1758075473.5707,1758075473.54494,0.0,0.0,0.0,-6.18794,-79.12547,-11.74564,14.07,-0.61,3.39,4.0
1758075473.5738,1758075473.55494,0.0,0.0,0.0,-7.33386,-80.95895,-8.47978,10.63,0.03,3.41,4.0
1758075473.5898,1758075473.56494,0.0,0.0,0.0,-12.60507,-75.68773,-4.64096,9.64,0.74,3.16,4.0
1758075473.60591,1758075473.57494,0.0,0.0,0.0,-18.16276,-67.55173,-3.49504,9.64,0.74,3.16,4.0
1758075473.60711,1758075473.58494,0.0,0.0,0.0,-24.92367,-55.97798,-3.66693,9.73,0.93,1.81,4.0
1758075473.62191,1758075473.59494,0.0,0.0,0.0,-33.00237,-36.84119,-6.41713,9.73,0.93,1.81,4.0
1758075473.6233,1758075473.60494,0.0,0.0,0.0,-39.70598,-4.1253,-6.18794,11.0,0.23,1.27,4.0
1758075473.6379,1758075473.61494,0.0,0.0,0.0,-44.00316,-11.97482,-8.136,11.0,0.23,1.27,4.0
1758075473.65379,1758075473.62494,0.0,0.0,0.0,-48.12846,-17.24603,-11.34457,8.76,-0.77,1.5,4.0
1758075473.65526,1758075473.63494,0.0,0.0,0.0,-49.61814,-15.75634,-13.12073,8.76,-0.77,1.5,4.0
1758075473.66981,1758075473.64494,0.0,0.0,0.0,-46.1231,6.35983,-11.80293,10.92,-1.32,0.67,4.0
1758075473.68583,1758075473.65494,0.0,0.0,0.0,-41.48215,25.09555,-9.33921,13.33,-1.64,0.98,4.0
1758075473.687,1758075473.66494,0.0,0.0,0.0,-36.61201,38.1017,-6.58902,13.33,-1.64,0.98,4.0
1758075473.70306,1758075473.67494,0.0,0.0,0.0,-29.56462,46.06581,-2.97938,10.95,-1.72,1.02,4.0
1758075473.70404,1758075473.68494,0.0,0.0,0.0,-24.92367,48.9306,-0.45837,10.95,-1.72,1.02,4.0
1758075473.71922,1758075473.69494,0.0,0.0,0.0,-20.16812,51.16513,2.11994,9.26,-1.75,0.8,4.0
1758075473.73482,1758075473.70494,0.0,0.0,0.0,-15.92823,52.02457,4.46907,9.26,-1.75,0.8,4.0
1758075473.73604,1758075473.71494,0.0,0.0,0.0,-10.54242,48.9879,7.62034,8.84,-1.81,0.87,4.0
1758075473.75094,1758075473.72494,0.0,0.0,0.0,-7.73493,45.37826,8.47978,8.76,-1.81,0.69,4.0
1758075473.75208,1758075473.73494,0.0,0.0,0.0,-5.15662,41.13837,9.28192,8.76,-1.81,0.69,4.0
1758075473.7679,1758075473.74494,0.0,0.0,0.0,-3.55234,41.31026,10.65701,9.17,-1.49,0.5,4.0
1758075473.78387,1758075473.75494,0.0,0.0,0.0,-2.97938,63.94209,6.13065,9.17,-1.49,0.5,4.0
1758075473.78511,1758075473.76494,0.0,0.0,0.0,-4.1253,75.57314,4.58366,10.46,-0.93,0.45,4.0
1758075473.80019,1758075473.77494,0.0,0.0,0.0,-7.84952,76.94823,0.45837,10.46,-0.93,0.45,4.0
1758075473.81619,1758075473.78494,0.0,0.0,0.0,-10.31324,69.95815,-2.63561,8.65,-0.16,1.09,4.0
1758075473.81792,1758075473.79494,0.0,0.0,0.0,-11.28727,60.61894,-5.84417,8.11,-0.02,0.58,4.0
1758075473.83316,1758075473.80494,0.0,0.0,0.0,-10.19865,55.97798,-6.58902,8.11,-0.02,0.58,4.0
1758075473.83413,1758075473.81494,0.0,0.0,0.0,-8.25059,50.59217,-6.8182,8.34,-0.51,0.79,4.0
1758075473.8492,1758075473.82494,0.0,0.0,0.0,-5.50039,43.54479,-6.70361,8.34,-0.51,0.79,4.0
1758075473.86524,1758075473.83494,0.0,0.0,0.0,-0.34377,31.79916,-6.18794,8.0,-1.22,0.91,4.0
1758075473.86616,1758075473.84494,0.0,0.0,0.0,3.72423,24.23611,-6.24524,8.0,-1.22,0.91,4.0
1758075473.88097,1758075473.85494,0.0,0.0,0.0,7.62034,17.6471,-6.58902,7.79,-1.7,0.74,4.0
1758075473.88211,1758075473.86494,0.0,0.0,0.0,12.54778,12.43318,-7.62034,7.79,-1.7,0.74,4.0
1758075473.89798,1758075473.87494,0.0,0.0,0.0,15.75634,8.59437,-8.36518,8.01,-1.77,0.9,4.0
1758075473.91392,1758075473.88494,0.0,0.0,0.0,18.50654,2.7502,-8.59437,7.92,-1.55,1.02,4.0
1758075473.9152,1758075473.89494,0.0,0.0,0.0,20.62648,-4.87014,-8.76626,7.92,-1.55,1.02,4.0
1758075473.9309,1758075473.90494,0.0,0.0,0.0,22.57454,-15.87093,-8.65166,7.76,-1.14,0.84,4.0
1758075473.93202,1758075473.91494,0.0,0.0,0.0,23.60586,-20.85567,-8.136,7.76,-1.14,0.84,4.0
1758075473.94811,1758075473.92494,0.0,0.0,0.0,24.57989,-25.26744,-7.21927,8.17,-0.83,0.79,4.0
1758075473.96421,1758075473.93494,0.0,0.0,0.0,25.61122,-29.62192,-6.35983,8.17,-0.83,0.79,4.0
1758075473.96523,1758075473.94494,0.0,0.0,0.0,27.78845,-35.40879,-4.87014,8.57,-0.75,1.18,4.0
1758075473.98005,1758075473.95494,0.0,0.0,0.0,29.39274,-38.50277,-4.29718,9.07,-0.9,1.26,4.0
1758075473.99635,1758075473.96494,0.0,0.0,0.0,30.88243,-41.88322,-4.0107,9.07,-0.9,1.26,4.0
1758075473.99673,1758075473.97494,0.0,0.0,0.0,32.25753,-44.17505,-3.89611,9.31,-1.09,1.34,4.0
1758075474.01333,1758075473.98494,0.0,0.0,0.0,33.46074,-47.89928,-3.89611,9.31,-1.09,1.34,4.0
1758075474.01456,1758075473.99494,0.0,0.0,0.0,33.68992,-51.39432,-3.66693,9.05,-1.17,1.47,4.0
1758075474.02937,1758075474.00494,0.0,0.0,0.0,33.23156,-53.28508,-3.49504,9.05,-1.17,1.47,4.0
1758075474.0461,1758075474.01494,0.0,0.0,0.0,32.48671,-54.08722,-3.20856,8.56,-1.08,1.2,4.0
1758075474.0485,1758075474.02494,0.0,0.0,0.0,30.76784,-53.05589,-2.7502,8.04,-0.85,0.38,4.0
1758075474.06429,1758075474.03494,0.0,0.0,0.0,29.50733,-52.48294,-2.06265,8.04,-0.85,0.38,4.0
1758075474.06528,1758075474.04494,0.0,0.0,0.0,27.38738,-50.64947,-1.77617,7.4,-0.48,-0.18,4.0
1758075474.08038,1758075474.05494,0.0,0.0,0.0,25.21014,-47.03984,-2.23454,7.4,-0.48,-0.18,4.0
1758075474.08128,1758075474.06494,0.0,0.0,0.0,20.45459,-39.76327,-2.92208,7.15,-0.07,-0.61,4.0
1758075474.09669,1758075474.07494,0.0,0.0,0.0,17.13144,-35.92446,-4.1253,7.15,-0.07,-0.61,4.0
1758075474.11233,1758075474.08494,0.0,0.0,0.0,13.5218,-32.77319,-5.15662,6.84,0.37,-0.6,4.0
1758075474.11331,1758075474.09494,0.0,0.0,0.0,7.10468,-25.49662,-7.39116,6.84,0.37,-0.6,4.0
1758075474.12816,1758075474.10494,0.0,0.0,0.0,3.03668,-21.88699,-8.25059,7.07,0.77,-0.43,4.0
1758075474.14414,1758075474.11494,0.0,0.0,0.0,-0.80214,-19.70975,-9.05273,6.99,1.04,-0.11,4.0
1758075474.14535,1758075474.12494,0.0,0.0,0.0,-3.38045,-19.19409,-9.62569,6.99,1.04,-0.11,4.0
1758075474.16019,1758075474.13494,0.0,0.0,0.0,-5.84417,-25.49662,-10.54242,6.1,0.76,0.19,4.0
1758075474.16137,1758075474.14494,0.0,0.0,0.0,-4.98473,-36.95578,-10.48513,6.1,0.76,0.19,4.0
1758075474.17673,1758075474.15494,0.0,0.0,0.0,-3.66693,-53.05589,-9.4538,4.28,-0.07,1.38,4.0
1758075474.19357,1758075474.16494,0.0,0.0,0.0,-2.00535,-67.72362,-7.16197,4.28,-0.07,1.38,4.0
1758075474.19441,1758075474.17494,0.0,0.0,0.0,-1.60428,-73.51049,-3.55234,5.33,-0.3,3.56,4.0
1758075474.20954,1758075474.18494,0.0,0.0,0.0,-3.20856,-61.07731,-1.83346,11.31,0.98,2.74,4.0
1758075474.21038,1758075474.19494,0.0,0.0,0.0,-5.21392,-42.28429,0.68755,11.31,0.98,2.74,4.0
1758075474.22576,1758075474.20494,0.0,0.0,0.0,-7.84952,-24.4653,3.72423,15.92,2.36,1.93,4.0
1758075474.24145,1758075474.21494,0.0,0.0,0.0,-11.97482,-12.54778,8.93814,15.92,2.36,1.93,4.0
1758075474.24244,1758075474.22494,0.0,0.0,0.0,-16.272,-6.07335,11.17268,15.32,2.84,1.71,4.0
1758075474.25721,1758075474.23494,0.0,0.0,0.0,-21.48592,1.3751,13.34992,15.32,2.84,1.71,4.0
1758075474.27324,1758075474.24494,0.0,0.0,0.0,-26.81443,1.3751,17.87628,17.8,2.6,4.24,4.0
1758075474.27478,1758075474.25494,0.0,0.0,0.0,-29.22085,-11.57375,31.62727,21.53,2.83,1.36,4.0
1758075474.28956,1758075474.26494,0.0,0.0,0.0,-25.61122,-13.86558,37.58603,21.53,2.83,1.36,4.0
1758075474.29073,1758075474.27494,0.0,0.0,0.0,-19.76705,-0.34377,36.84119,21.71,0.83,0.01,4.0
1758075474.30681,1758075474.28494,0.0,0.0,0.0,-10.94349,24.4653,26.52795,21.71,0.83,0.01,4.0
1758075474.3225,1758075474.29494,0.0,0.0,0.0,-7.04738,53.51426,16.95955,17.86,-1.73,1.1,4.0
1758075474.3238,1758075474.30494,0.0,0.0,0.0,-3.89611,61.70755,7.62034,17.86,-1.73,1.1,4.0
1758075474.33828,1758075474.31494,0.0,0.0,0.0,-2.34913,65.08801,-0.51566,12.7,-2.3,1.84,4.0
1758075474.3543,1758075474.32494,0.0,0.0,0.0,0.57296,57.92604,-8.59437,12.7,-2.3,1.84,4.0
1758075474.35552,1758075474.33494,0.0,0.0,0.0,2.7502,52.82671,-10.8289,10.88,-2.02,0.95,4.0
1758075474.3703,1758075474.34494,0.0,0.0,0.0,5.09932,49.15978,-10.31324,11.93,-0.53,0.92,4.0
1758075474.37152,1758075474.35494,0.0,0.0,0.0,6.47442,49.56085,-7.84952,11.93,-0.53,0.92,4.0
1758075474.38686,1758075474.36494,0.0,0.0,0.0,7.21927,55.57691,-2.86479,12.6,1.35,0.45,4.0
1758075474.40333,1758075474.37494,0.0,0.0,0.0,6.24524,61.53567,0.68755,12.6,1.35,0.45,4.0
1758075474.40454,1758075474.38494,0.0,0.0,0.0,5.21392,66.5204,3.32316,11.22,2.28,0.26,4.0
1758075474.41937,1758075474.39494,0.0,0.0,0.0,3.20856,66.34852,4.52637,11.22,2.28,0.26,4.0
1758075474.42085,1758075474.40494,0.0,0.0,0.0,-1.71887,52.08187,3.20856,8.57,2.35,0.35,4.0
1758075474.43667,1758075474.41494,0.0,0.0,0.0,-5.78687,38.90384,1.3178,5.87,1.98,-0.02,4.0
1758075474.45264,1758075474.42494,0.0,0.0,0.0,-8.88085,32.08564,-0.11459,5.87,1.98,-0.02,4.0
1758075474.45359,1758075474.43494,0.0,0.0,0.0,-11.86023,30.93972,-1.77617,6.17,1.44,-0.59,4.0
1758075474.4687,1758075474.44494,0.0,0.0,0.0,-16.67307,27.78845,-5.90147,6.17,1.44,-0.59,4.0
1758075474.48471,1758075474.45494,0.0,0.0,0.0,-20.51189,25.49662,-7.84952,6.06,0.96,-0.01,4.0
1758075474.4856,1758075474.46494,0.0,0.0,0.0,-24.29341,22.57454,-8.99544,6.06,0.96,-0.01,4.0
1758075474.50073,1758075474.47494,0.0,0.0,0.0,-28.01764,18.22006,-9.91217,6.2,0.69,-0.55,4.0
1758075474.50165,1758075474.48494,0.0,0.0,0.0,-33.46074,9.33921,-9.4538,6.41,0.82,-0.7,4.0
1758075474.51804,1758075474.49494,0.0,0.0,0.0,-37.01308,1.71887,-8.59437,6.41,0.82,-0.7,4.0
1758075474.53346,1758075474.50494,0.0,0.0,0.0,-40.33623,-5.90147,-7.16197,6.7,1.08,-1.0,4.0
1758075474.53463,1758075474.51494,0.0,0.0,0.0,-45.14908,-17.6471,-3.89611,6.7,1.08,-1.0,4.0
1758075474.54971,1758075474.52494,0.0,0.0,0.0,-47.72739,-24.5226,-1.3751,7.17,1.13,-1.07,4.0
1758075474.55062,1758075474.53494,0.0,0.0,0.0,-49.90463,-30.19488,0.85944,7.17,1.13,-1.07,4.0
1758075474.5667,1758075474.54494,0.0,0.0,0.0,-53.05589,-32.42941,4.81285,7.82,1.08,-0.95,4.0
1758075474.58371,1758075474.55494,0.0,0.0,0.0,-55.6342,-14.20935,5.15662,7.82,1.08,-0.5,4.0
1758075474.58464,1758075474.56494,0.0,0.0,0.0,-57.46767,-0.40107,6.47442,9.78,1.22,-0.5,4.0
1758075474.59972,1758075474.57494,0.0,0.0,0.0,-57.12389,7.39116,8.42248,9.99,0.82,0.21,4.0
1758075474.60085,1758075474.58494,0.0,0.0,0.0,-55.7488,-14.20935,8.0787,9.99,0.82,0.21,4.0
1758075474.61655,1758075474.59494,0.0,0.0,0.0,-52.25375,-41.31026,5.09932,6.58,0.42,0.22,4.0
1758075474.63375,1758075474.60494,0.0,0.0,0.0,-47.95657,-42.97184,2.6929,6.58,0.42,0.22,4.0
1758075474.63479,1758075474.61494,0.0,0.0,0.0,-41.25296,-36.38282,2.7502,8.79,-0.34,-0.25,4.0
1758075474.64985,1758075474.62494,0.0,0.0,0.0,-31.56997,-28.93437,4.18259,8.79,-0.34,-0.25,4.0
1758075474.6519,1758075474.63494,0.0,0.0,0.0,-22.05888,-29.33544,3.66693,9.46,-1.68,1.37,4.0
1758075474.66781,1758075474.64494,0.0,0.0,0.0,-18.50654,-28.93437,2.46372,9.16,-0.78,0.01,4.0
1758075474.68383,1758075474.65494,0.0,0.0,0.0,-16.21471,-24.29341,1.43239,9.16,-0.78,0.01,4.0
1758075474.68478,1758075474.66494,0.0,0.0,0.0,-14.43854,-19.53786,1.60428,9.4,0.51,-0.11,4.0
1758075474.69986,1758075474.67494,0.0,0.0,0.0,-12.83425,-20.16812,2.63561,9.4,0.51,-0.11,4.0
1758075474.70104,1758075474.68494,0.0,0.0,0.0,-12.14671,-22.57454,3.32316,8.22,1.13,-0.14,4.0
1758075474.71683,1758075474.69494,0.0,0.0,0.0,-11.74564,-25.09555,4.23989,8.22,1.13,-0.14,4.0
1758075474.73383,1758075474.70494,0.0,0.0,0.0,-10.8289,-30.88243,5.50039,7.72,1.13,-0.12,4.0
1758075474.73476,1758075474.71494,0.0,0.0,0.0,-9.74028,-37.87251,6.47442,7.33,0.99,-0.18,4.0
1758075474.74986,1758075474.72494,0.0,0.0,0.0,-8.42248,-40.68,7.10468,7.33,0.99,-0.18,4.0
1758075474.75095,1758075474.73494,0.0,0.0,0.0,-6.58902,-42.91454,7.62034,7.29,0.65,-0.35,4.0
1758075474.7666,1758075474.74494,0.0,0.0,0.0,-3.09397,-45.72203,8.0787,7.29,0.65,-0.35,4.0
1758075474.78383,1758075474.75494,0.0,0.0,0.0,0.11459,-48.8733,7.73493,6.88,0.02,0.47,4.0
1758075474.78507,1758075474.76494,0.0,0.0,0.0,4.35448,-54.60288,5.21392,6.88,0.02,0.47,4.0
1758075474.79987,1758075474.77494,0.0,0.0,0.0,9.33921,-63.8275,1.43239,7.37,-1.04,2.6,4.0
1758075474.80082,1758075474.78494,0.0,0.0,0.0,17.53251,-69.04142,-5.72958,11.25,-2.36,3.58,4.0
1758075474.81764,1758075474.79494,0.0,0.0,0.0,22.97561,-65.83286,-10.37054,11.25,-2.36,3.58,4.0
1758075474.83396,1758075474.80494,0.0,0.0,0.0,27.84575,-58.55629,-13.23533,15.3,-3.63,2.93,4.0
1758075474.83483,1758075474.81494,0.0,0.0,0.0,33.23156,-54.94666,-15.06879,15.3,-3.63,2.93,4.0
1758075474.84996,1758075474.82494,0.0,0.0,0.0,39.87786,-67.78091,-21.31403,17.43,-5.2,4.98,4.0
1758075474.85124,1758075474.83494,0.0,0.0,0.0,41.76862,-66.635,-28.01764,17.43,-5.2,4.98,4.0
1758075474.8678,1758075474.84494,0.0,0.0,0.0,40.7946,-40.50812,-31.28349,22.13,-7.69,-1.01,4.0
1758075474.88396,1758075474.85494,0.0,0.0,0.0,37.75792,-16.272,-27.38738,22.13,-7.69,-1.01,4.0
1758075474.88514,1758075474.86494,0.0,0.0,0.0,30.99702,15.87093,-15.35527,19.81,-3.56,-0.98,4.0
1758075474.89968,1758075474.87494,0.0,0.0,0.0,26.41335,30.19488,-5.09932,13.92,1.86,1.02,4.0
1758075474.9009,1758075474.88494,0.0,0.0,0.0,21.88699,43.31561,5.84417,13.92,1.86,1.02,4.0
1758075474.91777,1758075474.89494,0.0,0.0,0.0,16.38659,58.21251,18.9649,12.14,3.69,0.74,4.0
1758075474.93399,1758075474.90494,0.0,0.0,0.0,6.35983,73.96885,22.51724,12.14,3.69,0.74,4.0
1758075474.93488,1758075474.91494,0.0,0.0,0.0,-0.45837,74.88559,22.11617,12.0,2.51,0.18,4.0
1758075474.94999,1758075474.92494,0.0,0.0,0.0,-6.35983,69.3279,19.42327,12.0,2.51,0.18,4.0
1758075474.95137,1758075474.93494,0.0,0.0,0.0,-12.37589,62.28051,10.48513,12.01,0.46,-0.27,4.0
1758075474.96862,1758075474.94494,0.0,0.0,0.0,-14.66772,57.23849,3.60963,12.34,-1.18,-0.8,4.0
1758075474.98511,1758075474.95494,0.0,0.0,0.0,-15.35527,49.56085,-2.6929,12.34,-1.18,-0.8,4.0
1758075474.9871,1758075474.96494,0.0,0.0,0.0,-15.46986,45.83662,-8.136,11.13,-1.82,-0.69,4.0
1758075475.00179,1758075474.97494,0.0,0.0,0.0,-15.41257,64.62964,-12.60507,11.13,-1.82,-0.69,4.0
1758075475.00307,1758075474.98494,0.0,0.0,0.0,-15.69904,84.74047,-14.61043,11.89,-1.34,-0.85,4.0
1758075475.01783,1758075474.99494,0.0,0.0,0.0,-16.55848,88.17821,-16.10011,11.89,-1.34,-0.85,4.0
1758075475.03382,1758075475.00494,0.0,0.0,0.0,-17.36062,75.80232,-16.84496,9.1,-0.51,0.33,4.0
1758075475.03502,1758075475.01494,0.0,0.0,0.0,-15.06879,61.42108,-15.35527,7.67,-0.06,-0.24,4.0
1758075475.04992,1758075475.02494,0.0,0.0,0.0,-12.204,56.14987,-12.89155,7.67,-0.06,-0.24,4.0
1758075475.0514,1758075475.03494,0.0,0.0,0.0,-7.79223,52.48294,-9.05273,8.67,-0.37,0.11,4.0
1758075475.06788,1758075475.04494,0.0,0.0,0.0,-2.6929,46.69606,-4.87014,8.67,-0.37,0.11,4.0
1758075475.08393,1758075475.05494,0.0,0.0,0.0,4.23989,38.78925,0.40107,8.46,-1.02,0.15,4.0
1758075475.08586,1758075475.06494,0.0,0.0,0.0,8.36518,34.60666,2.6929,8.46,-1.02,0.15,4.0
1758075475.10014,1758075475.07494,0.0,0.0,0.0,11.00079,31.97105,4.0107,8.3,-1.51,-0.16,4.0
1758075475.10188,1758075475.08494,0.0,0.0,0.0,13.17803,28.24682,4.52637,8.3,-1.51,-0.16,4.0
1758075475.11785,1758075475.09494,0.0,0.0,0.0,14.83961,19.82434,3.89611,7.78,-1.72,-0.24,4.0
1758075475.13387,1758075475.10494,0.0,0.0,0.0,15.35527,13.40721,2.97938,7.15,-1.59,-0.65,4.0
1758075475.13524,1758075475.11494,0.0,0.0,0.0,15.69904,6.7609,1.48969,7.15,-1.59,-0.65,4.0
1758075475.14996,1758075475.12494,0.0,0.0,0.0,16.50119,-0.97403,-0.97403,6.76,-1.23,-0.55,4.0
1758075475.1514,1758075475.13494,0.0,0.0,0.0,17.36062,-13.5218,-3.03668,6.76,-1.23,-0.55,4.0
1758075475.1672,1758075475.14494,0.0,0.0,0.0,18.50654,-21.88699,-5.4431,6.78,-0.87,-0.49,4.0
1758075475.18424,1758075475.15494,0.0,0.0,0.0,20.05352,-28.59059,-7.84952,6.78,-0.87,-0.49,4.0
1758075475.18514,1758075475.16494,0.0,0.0,0.0,22.63183,-36.32552,-11.74564,7.43,-0.68,-0.42,4.0
1758075475.20023,1758075475.17494,0.0,0.0,0.0,25.26744,-40.10705,-13.5218,8.17,-0.77,-0.06,4.0
1758075475.20118,1758075475.18494,0.0,0.0,0.0,28.07493,-39.87786,-15.06879,8.17,-0.77,-0.06,4.0
1758075475.21788,1758075475.19494,0.0,0.0,0.0,31.62727,-37.12767,-15.24068,9.0,-1.24,0.38,4.0
1758075475.23394,1758075475.20494,0.0,0.0,0.0,36.89849,-33.17426,-14.32395,9.0,-1.24,0.38,4.0
1758075475.23518,1758075475.21494,0.0,0.0,0.0,40.04975,-33.23156,-13.5791,8.86,-1.8,0.79,4.0
1758075475.25,1758075475.22494,0.0,0.0,0.0,42.34158,-35.58068,-12.204,8.86,-1.8,0.79,4.0
1758075475.25119,1758075475.23494,0.0,0.0,0.0,43.94586,-38.78925,-10.59972,8.06,-1.99,0.77,4.0
1758075475.26724,1758075475.24494,0.0,0.0,0.0,45.60744,-44.51882,-7.84952,7.69,-2.02,0.7,4.0
1758075475.28329,1758075475.25494,0.0,0.0,0.0,46.69606,-47.09713,-6.41713,7.69,-2.02,0.7,4.0
1758075475.28421,1758075475.26494,0.0,0.0,0.0,46.86795,-48.01387,-5.32851,7.89,-1.78,0.34,4.0
1758075475.29905,1758075475.27494,0.0,0.0,0.0,46.06581,-46.63877,-4.81285,7.89,-1.78,0.34,4.0
1758075475.31521,1758075475.28494,0.0,0.0,0.0,44.40423,-40.7373,-4.35448,8.25,-1.28,0.01,4.0
1758075475.31652,1758075475.29494,0.0,0.0,0.0,42.28429,-36.03905,-4.46907,8.25,-1.28,0.01,4.0
1758075475.33105,1758075475.30494,0.0,0.0,0.0,39.70598,-32.42941,-4.81285,8.12,-0.52,-0.33,4.0
1758075475.3323,1758075475.31494,0.0,0.0,0.0,36.95578,-44.46153,-3.32316,8.12,-0.52,-0.33,4.0
1758075475.34738,1758075475.32494,0.0,0.0,0.0,32.83048,-71.67702,-2.57831,5.83,0.03,-0.46,4.0
1758075475.36335,1758075475.33494,0.0,0.0,0.0,30.13758,-66.97877,0.57296,6.75,0.3,-0.63,4.0
1758075475.36456,1758075475.34494,0.0,0.0,0.0,25.55392,-53.34238,1.94806,6.75,0.3,-0.63,4.0
1758075475.37938,1758075475.35494,0.0,0.0,0.0,17.01685,-43.94586,1.03132,7.83,0.61,-0.24,4.0
1758075475.39539,1758075475.36494,0.0,0.0,0.0,10.8862,-42.28429,0.68755,7.83,0.61,-0.24,4.0
1758075475.39635,1758075475.37494,0.0,0.0,0.0,4.23989,-41.08107,-0.0573,5.86,0.68,-0.44,4.0
1758075475.41142,1758075475.38494,0.0,0.0,0.0,-2.40642,-39.76327,-1.14592,5.86,0.68,-0.44,4.0
1758075475.41232,1758075475.39494,0.0,0.0,0.0,-12.08941,-35.92446,-2.6929,5.48,0.68,0.84,4.0
1758075475.4274,1758075475.40494,0.0,0.0,0.0,-17.47521,-31.51268,-0.97403,7.87,1.5,2.47,4.0
1758075475.44341,1758075475.41494,0.0,0.0,0.0,-22.40265,-23.83505,1.60428,7.87,1.5,2.47,4.0
1758075475.44462,1758075475.42494,0.0,0.0,0.0,-26.69983,-14.32395,4.18259,12.13,2.89,2.15,4.0
1758075475.45944,1758075475.43494,0.0,0.0,0.0,-31.91375,-9.11003,6.41713,12.13,2.89,2.15,4.0
1758075475.47543,1758075475.44494,0.0,0.0,0.0,-33.68992,-8.59437,7.33386,14.59,3.71,1.17,4.0
1758075475.47656,1758075475.45494,0.0,0.0,0.0,-34.49206,-4.69825,8.25059,14.59,3.71,1.17,4.0
1758075475.4914,1758075475.46494,0.0,0.0,0.0,-35.2369,1.14592,11.17268,17.6,3.34,2.58,4.0
1758075475.49241,1758075475.47494,0.0,0.0,0.0,-34.32018,-5.32851,25.49662,21.87,3.17,1.83,4.0
1758075475.50746,1758075475.48494,0.0,0.0,0.0,-29.8511,-7.50575,37.58603,21.87,3.17,1.83,4.0
1758075475.52342,1758075475.49494,0.0,0.0,0.0,-22.28806,11.34457,45.89392,23.13,1.28,-1.39,4.0
1758075475.52442,1758075475.50494,0.0,0.0,0.0,-14.61043,39.3622,46.35228,23.13,1.28,-1.39,4.0
1758075475.53949,1758075475.51494,0.0,0.0,0.0,-8.99544,66.11933,35.00772,19.9,-1.6,0.25,4.0
1758075475.5555,1758075475.52494,0.0,0.0,0.0,-9.74028,69.21331,23.54857,19.9,-1.6,0.25,4.0
1758075475.55639,1758075475.53494,0.0,0.0,0.0,-11.28727,64.40046,12.08941,14.18,-1.44,1.43,4.0
1758075475.57163,1758075475.54494,0.0,0.0,0.0,-12.77696,56.37905,-2.7502,14.18,-1.44,1.43,4.0
1758075475.57245,1758075475.55494,0.0,0.0,0.0,-12.08941,44.748,-9.74028,11.44,-0.41,1.24,4.0
1758075475.58721,1758075475.56494,0.0,0.0,0.0,-10.71431,44.40423,-13.86558,11.64,0.41,1.49,4.0
1758075475.60324,1758075475.57494,0.0,0.0,0.0,-9.11003,48.41494,-15.29797,11.64,0.41,1.49,4.0
1758075475.60474,1758075475.58494,0.0,0.0,0.0,-7.10468,52.71212,-14.66772,11.99,1.32,1.47,4.0
1758075475.61925,1758075475.59494,0.0,0.0,0.0,-6.58902,49.56085,-13.75099,11.99,1.32,1.47,4.0
1758075475.63532,1758075475.60494,0.0,0.0,0.0,-6.24524,44.9199,-12.83425,10.29,1.89,0.95,4.0
1758075475.6365,1758075475.61494,0.0,0.0,0.0,-7.39116,41.88322,-11.00079,10.29,1.89,0.95,4.0
1758075475.6516,1758075475.62494,0.0,0.0,0.0,-7.44845,32.54401,-9.5684,9.11,1.53,0.39,4.0
1758075475.65252,1758075475.63494,0.0,0.0,0.0,-9.05273,26.75713,-9.62569,8.13,1.29,0.58,4.0
1758075475.66738,1758075475.64494,0.0,0.0,0.0,-10.02676,22.34536,-10.25595,8.13,1.29,0.58,4.0
1758075475.68362,1758075475.65494,0.0,0.0,0.0,-10.8289,20.16812,-11.28727,8.11,1.13,0.29,4.0
1758075475.68451,1758075475.66494,0.0,0.0,0.0,-11.86023,20.16812,-13.00614,8.11,1.13,0.29,4.0
1758075475.69961,1758075475.67494,0.0,0.0,0.0,-12.2613,21.14215,-13.5791,8.48,0.83,0.15,4.0
1758075475.71543,1758075475.68494,0.0,0.0,0.0,-12.60507,22.23076,-13.75099,8.48,0.83,0.15,4.0
1758075475.71685,1758075475.69494,0.0,0.0,0.0,-13.06344,22.63183,-13.23533,8.56,0.49,-0.11,4.0
1758075475.73145,1758075475.70494,0.0,0.0,0.0,-12.89155,20.34,-12.14671,8.31,0.37,-0.24,4.0
1758075475.73257,1758075475.71494,0.0,0.0,0.0,-12.71966,16.84496,-10.8862,8.31,0.37,-0.24,4.0
1758075475.74739,1758075475.72494,0.0,0.0,0.0,-12.37589,12.89155,-9.85487,8.16,0.46,-0.26,4.0
1758075475.76342,1758075475.73494,0.0,0.0,0.0,-12.08941,8.88085,-8.36518,8.16,0.46,-0.26,4.0
1758075475.76456,1758075475.74494,0.0,0.0,0.0,-11.86023,3.09397,-7.62034,8.33,0.57,-0.22,4.0
1758075475.77945,1758075475.75494,0.0,0.0,0.0,-12.14671,0.11459,-6.24524,8.33,0.57,-0.22,4.0
1758075475.7955,1758075475.76494,0.0,0.0,0.0,-12.83425,-3.09397,-5.09932,8.45,0.6,-0.36,4.0
1758075475.7966,1758075475.77494,0.0,0.0,0.0,-14.20935,-9.33921,-2.40642,8.45,0.6,-0.36,4.0
1758075475.8114,1758075475.78494,0.0,0.0,0.0,-14.83961,-14.03747,-0.45837,8.21,0.58,-0.38,4.0
1758075475.81305,1758075475.79494,0.0,0.0,0.0,-15.58445,-16.61578,1.43239,8.27,0.43,-0.4,4.0
1758075475.82739,1758075475.80494,0.0,0.0,0.0,-15.35527,-16.55848,4.0107,8.27,0.43,-0.4,4.0
1758075475.84367,1758075475.81494,0.0,0.0,0.0,-15.0115,-13.34992,7.96411,8.8,0.26,-0.15,4.0
1758075475.84462,1758075475.82494,0.0,0.0,0.0,-14.09476,-13.12073,11.57375,8.8,0.26,-0.15,4.0
1758075475.85967,1758075475.83494,0.0,0.0,0.0,-14.38124,-22.11617,13.06344,8.79,0.19,0.04,4.0
1758075475.87569,1758075475.84494,0.0,0.0,0.0,-15.69904,-24.57989,11.80293,8.79,0.19,0.04,4.0
1758075475.87689,1758075475.85494,0.0,0.0,0.0,-16.84496,-19.88164,9.91217,8.98,0.33,-0.22,4.0
1758075475.89168,1758075475.86494,0.0,0.0,0.0,-16.38659,-17.24603,8.42248,9.86,0.64,0.06,4.0
1758075475.89297,1758075475.87494,0.0,0.0,0.0,-15.29797,-16.04282,7.04738,9.86,0.64,0.06,4.0
1758075475.90776,1758075475.88494,0.0,0.0,0.0,-13.23533,-12.08941,6.47442,9.52,0.61,-0.03,4.0
1758075475.9235,1758075475.89494,0.0,0.0,0.0,-10.31324,-3.66693,5.61499,9.52,0.61,-0.03,4.0
1758075475.92508,1758075475.90494,0.0,0.0,0.0,-8.76626,0.22918,5.50039,9.65,0.48,0.05,4.0
1758075475.9398,1758075475.91494,0.0,0.0,0.0,-7.16197,3.55234,6.35983,9.65,0.48,0.05,4.0
1758075475.95583,1758075475.92494,0.0,0.0,0.0,-5.95876,6.87549,6.24524,9.53,0.53,0.18,4.0
1758075475.95704,1758075475.93494,0.0,0.0,0.0,-3.89611,3.26586,7.50575,8.96,0.67,0.33,4.0
1758075475.9718,1758075475.94494,0.0,0.0,0.0,-2.63561,0.51566,8.36518,8.96,0.67,0.33,4.0
1758075475.97275,1758075475.95494,0.0,0.0,0.0,-1.83346,-0.74485,9.39651,8.9,0.84,0.13,4.0
1758075475.98783,1758075475.96494,0.0,0.0,0.0,-1.14592,-2.57831,10.59972,8.9,0.84,0.13,4.0
1758075476.00381,1758075475.97494,0.0,0.0,0.0,-0.97403,-4.29718,11.11538,8.66,1.05,-0.02,4.0
1758075476.00479,1758075475.98494,0.0,0.0,0.0,-1.20321,-4.23989,11.00079,8.66,1.05,-0.02,4.0
1758075476.01989,1758075475.99494,0.0,0.0,0.0,-1.66158,-3.60963,10.8862,8.53,1.31,-0.3,4.0
1758075476.03565,1758075476.00494,0.0,0.0,0.0,-2.40642,-3.95341,10.48513,8.53,1.31,-0.3,4.0
1758075476.03711,1758075476.01494,0.0,0.0,0.0,-2.97938,-4.29718,9.96947,8.18,1.52,-0.44,4.0
1758075476.05158,1758075476.02494,0.0,0.0,0.0,-3.49504,-4.18259,9.68299,7.93,1.52,-0.62,4.0
1758075476.05281,1758075476.03494,0.0,0.0,0.0,-4.0107,-4.64096,9.74028,7.93,1.52,-0.62,4.0
1758075476.06783,1758075476.04494,0.0,0.0,0.0,-4.46907,-5.90147,10.02676,7.71,1.29,-0.66,4.0
1758075476.08385,1758075476.05494,0.0,0.0,0.0,-4.81285,-7.21927,10.08406,7.71,1.29,-0.66,4.0
1758075476.08483,1758075476.06494,0.0,0.0,0.0,-4.64096,-9.05273,10.37054,7.44,0.97,-0.77,4.0
1758075476.09993,1758075476.07494,0.0,0.0,0.0,-4.18259,-10.71431,10.31324,7.44,0.97,-0.77,4.0
1758075476.11593,1758075476.08494,0.0,0.0,0.0,-2.7502,-15.0115,10.08406,6.99,0.8,-0.88,4.0
1758075476.11684,1758075476.09494,0.0,0.0,0.0,-1.71887,-17.58981,9.85487,6.43,0.87,-0.95,4.0
1758075476.1318,1758075476.10494,0.0,0.0,0.0,-0.51566,-20.45459,8.99544,6.43,0.87,-0.95,4.0
1758075476.13288,1758075476.11494,0.0,0.0,0.0,1.43239,-25.8404,7.39116,6.07,0.6,0.42,4.0
1758075476.14774,1758075476.12494,0.0,0.0,0.0,6.35983,-38.1017,2.57831,6.07,0.6,0.42,4.0
1758075476.16385,1758075476.13494,0.0,0.0,0.0,10.8289,-43.02913,-2.11994,7.44,-0.43,2.55,4.0
1758075476.16494,1758075476.14494,0.0,0.0,0.0,15.98552,-43.60209,-7.10468,7.44,-0.43,2.55,4.0
1758075476.17992,1758075476.15494,0.0,0.0,0.0,21.08485,-43.54479,-14.49583,12.33,-2.47,3.35,4.0
1758075476.19596,1758075476.16494,0.0,0.0,0.0,26.41335,-43.14373,-17.01685,14.77,-4.01,3.13,4.0
1758075476.1969,1758075476.17494,0.0,0.0,0.0,28.93437,-39.3622,-17.36062,14.77,-4.01,3.13,4.0
1758075476.21201,1758075476.18494,0.0,0.0,0.0,31.2262,-33.11696,-16.21471,16.02,-4.03,3.33,4.0
1758075476.21293,1758075476.19494,0.0,0.0,0.0,33.63263,-30.02299,-15.0115,16.02,-4.03,3.33,4.0
1758075476.22802,1758075476.20494,0.0,0.0,0.0,33.05967,-28.41871,-17.87628,19.16,-4.42,2.86,4.0
1758075476.24394,1758075476.21494,0.0,0.0,0.0,31.28349,-20.79837,-20.85567,19.16,-4.42,2.86,4.0
1758075476.24491,1758075476.22494,0.0,0.0,0.0,29.22085,-10.8289,-21.25674,20.58,-2.92,-0.12,4.0
1758075476.26008,1758075476.23494,0.0,0.0,0.0,25.8404,9.68299,-15.58445,20.58,-2.92,0.99,4.0
1758075476.27609,1758075476.24494,0.0,0.0,0.0,23.0902,28.64789,-10.54242,16.59,0.82,0.99,4.0
1758075476.27693,1758075476.25494,0.0,0.0,0.0,20.11082,41.99781,-4.58366,13.91,1.69,1.02,4.0
1758075476.29206,1758075476.26494,0.0,0.0,0.0,16.67307,48.9879,1.43239,13.91,1.69,1.02,4.0
1758075476.29321,1758075476.27494,0.0,0.0,0.0,11.34457,52.884,8.30789,11.83,1.06,1.23,4.0
1758075476.30812,1758075476.28494,0.0,0.0,0.0,8.02141,53.34238,10.94349,11.83,1.06,1.23,4.0
1758075476.32409,1758075476.29494,0.0,0.0,0.0,4.46907,53.28508,11.51645,11.39,0.14,0.11,4.0
1758075476.32502,1758075476.30494,0.0,0.0,0.0,1.48969,50.2484,11.11538,11.39,0.14,0.11,4.0
1758075476.34007,1758075476.31494,0.0,0.0,0.0,-1.3751,46.98254,8.59437,10.9,-0.82,0.36,4.0
1758075476.35611,1758075476.32494,0.0,0.0,0.0,-2.97938,49.79003,6.07335,10.37,-1.27,0.0,4.0
1758075476.35702,1758075476.33494,0.0,0.0,0.0,-4.87014,50.93595,2.92208,10.37,-1.27,0.0,4.0
1758075476.37211,1758075476.34494,0.0,0.0,0.0,-5.84417,48.75871,0.51566,9.04,-0.99,0.13,4.0
1758075476.37341,1758075476.35494,0.0,0.0,0.0,-6.24524,40.85189,-1.94806,9.04,-0.99,0.13,4.0
1758075476.38796,1758075476.36494,0.0,0.0,0.0,-5.90147,36.32552,-2.40642,8.08,-0.6,-0.12,4.0
1758075476.40401,1758075476.37494,0.0,0.0,0.0,-5.21392,33.63263,-1.83346,8.08,-0.6,-0.12,4.0
1758075476.40533,1758075476.38494,0.0,0.0,0.0,-3.32316,30.82513,0.22918,8.14,-0.56,-0.13,4.0
1758075476.42018,1758075476.39494,0.0,0.0,0.0,-1.71887,25.43933,1.94806,8.14,-0.81,-0.15,4.0
1758075476.43617,1758075476.40494,0.0,0.0,0.0,0.17189,22.51724,4.0107,8.14,-0.81,-0.15,4.0
1758075476.43656,1758075476.41494,0.0,0.0,0.0,2.40642,22.05888,5.4431,8.56,-1.05,-0.23,4.0
1758075476.45218,1758075476.42494,0.0,0.0,0.0,5.32851,23.31938,6.53172,8.56,-1.05,-0.23,4.0
1758075476.45336,1758075476.43494,0.0,0.0,0.0,7.04738,22.28806,6.58902,8.77,-1.17,0.0,4.0
1758075476.46818,1758075476.44494,0.0,0.0,0.0,8.65166,20.05352,6.41713,8.77,-1.17,0.0,4.0
1758075476.48527,1758075476.45494,0.0,0.0,0.0,9.85487,16.73037,5.72958,8.55,-1.13,-0.03,4.0
1758075476.48577,1758075476.46494,0.0,0.0,0.0,11.86023,11.22997,4.1253,8.5,-1.13,0.11,4.0
1758075476.50121,1758075476.47494,0.0,0.0,0.0,13.34992,7.39116,2.11994,8.5,-0.92,0.11,4.0
1758075476.50215,1758075476.48494,0.0,0.0,0.0,14.78231,1.94806,-0.22918,8.39,-0.62,0.14,4.0
1758075476.51727,1758075476.49494,0.0,0.0,0.0,16.38659,-4.87014,-2.97938,8.39,-0.62,0.14,4.0
1758075476.53323,1758075476.50494,0.0,0.0,0.0,18.9649,-16.84496,-7.16197,8.08,-0.49,0.18,4.0
1758075476.53455,1758075476.51494,0.0,0.0,0.0,20.68378,-24.75178,-9.5684,8.08,-0.49,0.18,4.0
1758075476.54893,1758075476.52494,0.0,0.0,0.0,22.28806,-31.28349,-11.28727,8.03,-0.69,0.16,4.0
1758075476.56498,1758075476.53494,0.0,0.0,0.0,24.35071,-35.75257,-12.37589,8.03,-0.69,0.16,4.0
1758075476.56556,1758075476.54494,0.0,0.0,0.0,28.476,-36.61201,-11.63104,8.54,-1.25,0.26,4.0
1758075476.581,1758075476.55494,0.0,0.0,0.0,31.16891,-31.39809,-11.34457,9.42,-1.63,0.63,4.0
1758075476.58253,1758075476.56494,0.0,0.0,0.0,33.51803,-28.24682,-10.8289,9.42,-1.63,0.63,4.0
1758075476.597,1758075476.57494,0.0,0.0,0.0,35.3515,-24.86637,-10.65701,9.38,-1.45,0.94,4.0
1758075476.6133,1758075476.58494,0.0,0.0,0.0,37.18496,-22.86102,-11.00079,9.38,-1.45,0.94,4.0
1758075476.6142,1758075476.59494,0.0,0.0,0.0,37.92981,-23.20479,-10.94349,8.98,-1.09,0.89,4.0
1758075476.62929,1758075476.60494,0.0,0.0,0.0,37.92981,-24.98096,-10.71431,8.98,-1.09,0.89,4.0
1758075476.63023,1758075476.61494,0.0,0.0,0.0,37.81522,-28.13223,-10.02676,8.43,-1.03,0.9,4.0
1758075476.6456,1758075476.62494,0.0,0.0,0.0,37.47144,-28.36141,-9.39651,8.36,-1.07,0.24,4.0
1758075476.66134,1758075476.63494,0.0,0.0,0.0,36.49741,-29.73651,-9.33921,8.36,-1.07,0.24,4.0
1758075476.66228,1758075476.64494,0.0,0.0,0.0,35.69527,-40.45082,-8.30789,7.62,-1.06,-0.22,4.0
1758075476.67734,1758075476.65494,0.0,0.0,0.0,34.89313,-55.97798,-5.72958,7.62,-1.06,-0.22,4.0
1758075476.69335,1758075476.66494,0.0,0.0,0.0,33.11696,-51.90998,-4.46907,7.5,-0.89,-1.13,4.0
1758075476.69455,1758075476.67494,0.0,0.0,0.0,31.56997,-40.04975,-3.55234,7.5,-0.89,-1.13,4.0
1758075476.70939,1758075476.68494,0.0,0.0,0.0,29.22085,-31.62727,-3.66693,9.48,-0.55,-0.99,4.0
1758075476.71059,1758075476.69494,0.0,0.0,0.0,23.89234,-26.18417,-4.23989,8.38,0.14,-0.5,4.0
1758075476.7258,1758075476.70494,0.0,0.0,0.0,19.19409,-23.66316,-4.81285,8.38,0.14,-0.5,4.0
1758075476.74141,1758075476.71494,0.0,0.0,0.0,14.15206,-21.6578,-5.72958,7.95,0.69,-0.64,4.0
1758075476.74233,1758075476.72494,0.0,0.0,0.0,8.88085,-19.48057,-7.04738,7.95,0.69,-0.64,4.0
1758075476.75736,1758075476.73494,0.0,0.0,0.0,1.94806,-16.38659,-8.36518,7.59,0.73,-0.67,4.0
1758075476.77321,1758075476.74494,0.0,0.0,0.0,-2.06265,-14.9542,-8.76626,7.59,0.73,-0.67,4.0
1758075476.77432,1758075476.75494,0.0,0.0,0.0,-5.21392,-15.35527,-10.02676,6.97,0.28,-0.64,4.0
1758075476.78918,1758075476.76494,0.0,0.0,0.0,-7.62034,-17.18874,-9.39651,6.97,0.28,-0.64,4.0
1758075476.79096,1758075476.77494,0.0,0.0,0.0,-11.17268,-16.95955,-8.59437,6.15,-0.32,-0.76,4.0
1758075476.80684,1758075476.78494,0.0,0.0,0.0,-13.5218,-18.50654,-7.62034,6.05,-0.44,0.29,4.0
1758075476.82251,1758075476.79494,0.0,0.0,0.0,-16.73037,-22.23076,-6.53172,6.05,-0.44,0.29,4.0
1758075476.82338,1758075476.80494,0.0,0.0,0.0,-20.74107,-28.41871,-1.60428,6.61,0.2,2.31,4.0
1758075476.83853,1758075476.81494,0.0,0.0,0.0,-23.60586,-26.81443,1.3751,6.61,0.2,2.31,4.0
1758075476.85421,1758075476.82494,0.0,0.0,0.0,-26.81443,-22.23076,4.64096,10.42,1.9,2.61,4.0
1758075476.85575,1758075476.83494,0.0,0.0,0.0,-29.8511,-18.90761,7.67763,10.42,1.9,2.61,4.0
1758075476.87024,1758075476.84494,0.0,0.0,0.0,-32.54401,-15.64175,11.00079,14.01,3.64,2.14,4.0
1758075476.87173,1758075476.85494,0.0,0.0,0.0,-32.88778,-8.25059,13.40721,16.17,3.96,1.37,4.0
1758075476.88676,1758075476.86494,0.0,0.0,0.0,-33.11696,-1.60428,14.83961,16.17,3.96,1.37,4.0
1758075476.90254,1758075476.87494,0.0,0.0,0.0,-33.46074,-0.11459,16.38659,17.16,3.24,2.5,4.0
1758075476.90369,1758075476.88494,0.0,0.0,0.0,-31.28349,-7.50575,22.63183,17.16,3.24,2.5,4.0
1758075476.91849,1758075476.89494,0.0,0.0,0.0,-27.2155,-7.73493,26.75713,18.96,2.73,0.83,4.0
1758075476.93455,1758075476.90494,0.0,0.0,0.0,-22.68913,0.51566,26.41335,18.96,2.73,0.83,4.0
1758075476.93545,1758075476.91494,0.0,0.0,0.0,-19.48057,14.15206,21.25674,18.95,0.44,-0.55,4.0
1758075476.95047,1758075476.92494,0.0,0.0,0.0,-18.56383,29.96569,8.88085,15.36,-1.34,0.22,4.0
1758075476.95147,1758075476.93494,0.0,0.0,0.0,-19.48057,32.6013,0.0,15.36,-1.34,0.22,4.0
1758075476.96652,1758075476.94494,0.0,0.0,0.0,-19.53786,31.51268,-7.39116,11.74,-1.24,0.69,4.0
1758075476.9823,1758075476.95494,0.0,0.0,0.0,-17.76169,30.02299,-12.204,11.74,-1.24,0.69,4.0
1758075476.9838,1758075476.96494,0.0,0.0,0.0,-11.45916,25.15285,-14.32395,11.29,-0.89,0.77,4.0
1758075476.99831,1758075476.97494,0.0,0.0,0.0,-6.41713,20.68378,-13.5218,11.29,-0.89,0.77,4.0
1758075477.01428,1758075476.98494,0.0,0.0,0.0,-1.14592,15.87093,-11.97482,12.32,-0.64,1.02,4.0
1758075477.01553,1758075476.99494,0.0,0.0,0.0,3.60963,15.06879,-7.21927,12.32,-0.64,1.02,4.0
1758075477.03065,1758075477.00494,0.0,0.0,0.0,8.59437,17.36062,-2.86479,13.35,-0.11,0.3,4.0
1758075477.03193,1758075477.01494,0.0,0.0,0.0,10.8289,16.55848,0.85944,12.33,0.55,0.07,4.0
1758075477.0466,1758075477.02494,0.0,0.0,0.0,12.49048,16.95955,3.55234,12.33,0.55,0.07,4.0
1758075477.06334,1758075477.03494,0.0,0.0,0.0,13.5218,20.22541,4.92744,11.38,0.96,0.27,4.0
1758075477.06479,1758075477.04494,0.0,0.0,0.0,13.75099,22.28806,4.29718,11.38,0.96,0.27,4.0
1758075477.07969,1758075477.05494,0.0,0.0,0.0,13.5218,24.63719,2.86479,10.59,1.04,0.16,4.0
1758075477.08084,1758075477.06494,0.0,0.0,0.0,12.83425,27.10091,0.80214,10.59,1.04,0.16,4.0
1758075477.0964,1758075477.07494,0.0,0.0,0.0,11.34457,30.19488,-2.40642,10.02,1.12,0.2,4.0
1758075477.1127,1758075477.08494,0.0,0.0,0.0,10.19865,30.76784,-4.35448,9.37,1.13,0.25,4.0
1758075477.11357,1758075477.09494,0.0,0.0,0.0,8.88085,29.8511,-6.13065,9.37,1.13,0.25,4.0
1758075477.12865,1758075477.10494,0.0,0.0,0.0,7.44845,28.476,-7.50575,8.71,1.07,0.22,4.0
1758075477.14465,1758075477.11494,0.0,0.0,0.0,4.87014,26.12688,-8.99544,8.71,1.07,0.22,4.0
1758075477.14565,1758075477.12494,0.0,0.0,0.0,3.49504,24.80907,-9.39651,8.46,1.03,0.13,4.0
1758075477.16048,1758075477.13494,0.0,0.0,0.0,2.06265,23.0329,-9.5684,8.46,1.03,0.13,4.0
1758075477.16164,1758075477.14494,0.0,0.0,0.0,0.68755,21.42862,-9.11003,8.43,1.0,0.02,4.0
1758075477.17666,1758075477.15494,0.0,0.0,0.0,-1.48969,18.90761,-8.02141,8.38,1.06,-0.07,4.0
1758075477.19248,1758075477.16494,0.0,0.0,0.0,-3.03668,16.84496,-7.04738,8.38,1.06,-0.07,4.0
1758075477.19397,1758075477.17494,0.0,0.0,0.0,-4.35448,14.78231,-5.61499,8.15,1.13,-0.26,4.0
1758075477.20849,1758075477.18494,0.0,0.0,0.0,-6.13065,12.49048,-4.35448,8.15,1.13,-0.26,4.0
1758075477.22451,1758075477.19494,0.0,0.0,0.0,-8.0787,11.00079,-1.83346,8.02,1.14,-0.31,4.0
1758075477.2258,1758075477.20494,0.0,0.0,0.0,-8.76626,10.94349,0.22918,8.02,1.14,-0.31,4.0
1758075477.24079,1758075477.21494,0.0,0.0,0.0,-8.76626,11.57375,2.86479,8.08,0.96,-0.32,4.0
1758075477.24179,1758075477.22494,0.0,0.0,0.0,-7.50575,12.14671,7.21927,8.08,0.96,-0.32,4.0
1758075477.25682,1758075477.23494,0.0,0.0,0.0,-7.73493,9.62569,9.28192,8.17,0.39,-0.15,4.0
1758075477.2728,1758075477.24494,0.0,0.0,0.0,-8.0787,7.04738,10.71431,8.44,0.32,-0.64,4.0
1758075477.27379,1758075477.25494,0.0,0.0,0.0,-9.28192,3.83882,11.28727,8.44,0.32,-0.64,4.0
1758075477.2888,1758075477.26494,0.0,0.0,0.0,-10.94349,0.0573,11.97482,8.86,0.6,-0.52,4.0
1758075477.30485,1758075477.27494,0.0,0.0,0.0,-11.74564,-3.83882,12.60507,8.86,0.6,-0.52,4.0
1758075477.30581,1758075477.28494,0.0,0.0,0.0,-12.37589,-11.97482,12.37589,8.79,0.8,-0.37,4.0
1758075477.32093,1758075477.29494,0.0,0.0,0.0,-13.69369,-20.51189,10.59972,8.79,0.8,-0.37,4.0
1758075477.32292,1758075477.30494,0.0,0.0,0.0,-14.43854,-24.17882,8.93814,8.37,0.84,-0.4,4.0
1758075477.33913,1758075477.31494,0.0,0.0,0.0,-15.24068,-22.74642,7.21927,9.18,0.82,-0.28,4.0
1758075477.34149,1758075477.32494,0.0,0.0,0.0,-15.92823,-23.0329,6.07335,9.18,0.82,-0.28,4.0
1758075477.35887,1758075477.33494,0.0,0.0,0.0,-16.61578,-22.05888,4.81285,8.93,0.89,-0.11,4.0
1758075477.37461,1758075477.34494,0.0,0.0,0.0,-17.36062,-16.84496,3.89611,8.93,0.89,-0.11,4.0
1758075477.37586,1758075477.35494,0.0,0.0,0.0,-17.81899,-13.86558,3.66693,8.98,1.0,-0.06,4.0
1758075477.39064,1758075477.36494,0.0,0.0,0.0,-18.44924,-11.97482,3.49504,8.98,1.0,-0.06,4.0
1758075477.39236,1758075477.37494,0.0,0.0,0.0,-18.62113,-10.25595,3.83882,8.53,1.13,-0.09,4.0
1758075477.40689,1758075477.38494,0.0,0.0,0.0,-18.79302,-9.68299,5.09932,8.22,1.17,-0.17,4.0
1758075477.42393,1758075477.39494,0.0,0.0,0.0,-18.73572,-10.65701,6.47442,8.22,1.17,-0.17,4.0
1758075477.42486,1758075477.40494,0.0,0.0,0.0,-18.79302,-12.204,7.96411,8.0,1.09,-0.46,4.0
1758075477.43991,1758075477.41494,0.0,0.0,0.0,-18.79302,-13.23533,10.54242,8.0,1.09,-0.46,4.0
1758075477.44087,1758075477.42494,0.0,0.0,0.0,-18.90761,-14.20935,12.08941,8.11,0.94,-0.61,4.0
1758075477.45692,1758075477.43494,0.0,0.0,0.0,-18.85031,-14.49583,13.12073,8.11,0.94,-0.61,4.0
1758075477.47265,1758075477.44494,0.0,0.0,0.0,-18.56383,-14.38124,14.38124,8.14,0.84,-0.67,4.0
1758075477.47384,1758075477.45494,0.0,0.0,0.0,-18.16276,-14.32395,15.69904,8.14,0.84,-0.67,4.0
1758075477.48891,1758075477.46494,0.0,0.0,0.0,-17.47521,-15.35527,16.21471,8.01,0.89,-0.8,4.0
1758075477.5047,1758075477.47494,0.0,0.0,0.0,-16.3293,-16.90226,16.38659,7.76,0.82,-0.83,4.0
1758075477.50591,1758075477.48494,0.0,0.0,0.0,-15.06879,-18.16276,16.21471,7.76,0.82,-0.83,4.0
1758075477.52096,1758075477.49494,0.0,0.0,0.0,-12.83425,-19.53786,15.75634,7.57,0.78,-0.95,4.0
1758075477.52188,1758075477.50494,0.0,0.0,0.0,-11.45916,-20.79837,15.24068,7.57,0.78,-0.95,4.0
1758075477.53697,1758075477.51494,0.0,0.0,0.0,-9.96947,-22.68913,14.78231,7.21,0.78,-0.91,4.0
1758075477.55302,1758075477.52494,0.0,0.0,0.0,-8.88085,-24.35071,14.66772,7.21,0.78,-0.91,4.0
1758075477.55395,1758075477.53493,0.0,0.0,0.0,-7.96411,-25.55392,15.24068,6.85,0.88,-0.98,4.0
1758075477.56899,1758075477.54493,0.0,0.0,0.0,-7.73493,-26.87172,15.69904,6.68,0.88,-0.25,4.0
1758075477.57076,1758075477.55493,0.0,0.0,0.0,-6.8182,-29.67921,16.3293,6.68,0.88,-0.25,4.0
1758075477.5871,1758075477.56493,0.0,0.0,0.0,-5.95876,-33.74722,15.46986,7.49,0.16,1.82,4.0
1758075477.6031,1758075477.57493,0.0,0.0,0.0,-3.60963,-37.58603,11.91752,7.49,0.16,1.82,4.0
1758075477.60421,1758075477.58493,0.0,0.0,0.0,-2.40642,-37.58603,7.67763,11.12,-1.13,3.41,4.0
1758075477.61884,1758075477.59493,0.0,0.0,0.0,-1.77617,-35.86716,2.63561,11.12,-1.13,3.41,4.0
1758075477.63506,1758075477.60493,0.0,0.0,0.0,-1.71887,-33.80451,-1.71887,14.32,-2.43,3.24,4.0
1758075477.63597,1758075477.61493,0.0,0.0,0.0,-1.71887,-27.67386,-7.62034,15.15,-3.41,3.42,4.0
1758075477.65079,1758075477.62493,0.0,0.0,0.0,-0.17189,-25.89769,-12.43318,15.15,-3.41,3.42,4.0
1758075477.65197,1758075477.63493,0.0,0.0,0.0,0.74485,-31.91375,-21.31403,18.76,-5.56,3.01,4.0
1758075477.66685,1758075477.64493,0.0,0.0,0.0,0.45837,-34.37747,-37.75792,18.76,-5.56,3.01,4.0
1758075477.68307,1758075477.65493,0.0,0.0,0.0,-0.11459,-29.56462,-42.91454,20.75,-5.6,-1.18,4.0
1758075477.68426,1758075477.66493,0.0,0.0,0.0,-0.57296,-16.84496,-40.85189,20.75,-5.6,-1.18,4.0
1758075477.69884,1758075477.67493,0.0,0.0,0.0,0.97403,5.4431,-33.34615,16.9,-0.65,-0.21,4.0
1758075477.71518,1758075477.68493,0.0,0.0,0.0,2.29183,40.96649,-17.99088,16.9,-0.65,-0.21,4.0
1758075477.7164,1758075477.69493,0.0,0.0,0.0,0.68755,57.92604,-7.04738,15.56,1.92,-0.24,4.0
1758075477.73085,1758075477.70493,0.0,0.0,0.0,-1.48969,65.2026,2.29183,12.57,1.87,-0.11,4.0
1758075477.73231,1758075477.71493,0.0,0.0,0.0,-4.69825,65.37449,8.76626,12.57,1.87,-0.11,4.0
1758075477.74683,1758075477.72493,0.0,0.0,0.0,-8.99544,65.71826,14.72501,10.74,0.6,-0.37,4.0
1758075477.76313,1758075477.73493,0.0,0.0,0.0,-10.8289,66.06203,16.61578,10.74,0.6,-0.37,4.0
1758075477.76407,1758075477.74493,0.0,0.0,0.0,-12.49048,71.10406,13.86558,11.4,-0.74,0.03,4.0
1758075477.77889,1758075477.75493,0.0,0.0,0.0,-13.69369,71.84892,11.00079,11.4,-0.74,0.03,4.0
1758075477.79502,1758075477.76493,0.0,0.0,0.0,-13.86558,73.68237,3.09397,11.29,-1.7,0.07,4.0
1758075477.79636,1758075477.77493,0.0,0.0,0.0,-12.49048,70.24463,-2.46372,10.06,-1.72,0.09,4.0
1758075477.81119,1758075477.78493,0.0,0.0,0.0,-8.88085,61.42108,-5.90147,10.06,-1.72,0.09,4.0
1758075477.81236,1758075477.79493,0.0,0.0,0.0,-4.58366,56.78012,-7.79223,8.81,-1.71,-0.11,4.0
1758075477.82719,1758075477.80493,0.0,0.0,0.0,2.00535,54.25911,-7.73493,8.81,-1.71,-0.11,4.0
1758075477.84316,1758075477.81493,0.0,0.0,0.0,5.84417,51.39432,-6.70361,8.82,-1.96,0.03,4.0
1758075477.84438,1758075477.82493,0.0,0.0,0.0,9.62569,47.95657,-5.09932,8.82,-1.96,0.03,4.0
1758075477.85919,1758075477.83493,0.0,0.0,0.0,13.00614,43.83128,-3.32316,8.18,-1.85,-0.03,4.0
1758075477.87522,1758075477.84493,0.0,0.0,0.0,17.24603,36.6693,-0.40107,7.81,-1.36,-0.25,4.0
1758075477.87612,1758075477.85493,0.0,0.0,0.0,19.19409,33.11696,1.83346,7.81,-1.36,-0.25,4.0
1758075477.89119,1758075477.86493,0.0,0.0,0.0,20.51189,29.9084,3.20856,7.8,-0.78,-0.44,4.0
1758075477.89217,1758075477.87493,0.0,0.0,0.0,21.88699,25.61122,4.81285,7.8,-0.78,-0.44,4.0
1758075477.90724,1758075477.88493,0.0,0.0,0.0,22.91831,21.25674,5.4431,7.88,-0.34,-0.03,4.0
1758075477.92324,1758075477.89493,0.0,0.0,0.0,24.00693,15.0115,5.15662,7.88,-0.34,-0.03,4.0
1758075477.92453,1758075477.90493,0.0,0.0,0.0,25.61122,8.65166,4.52637,7.7,-0.23,0.01,4.0
1758075477.93934,1758075477.91493,0.0,0.0,0.0,28.93437,-0.80214,2.29183,7.7,-0.23,0.05,4.0
1758075477.95529,1758075477.92493,0.0,0.0,0.0,31.45539,-7.62034,0.17189,7.75,-0.5,0.05,4.0
1758075477.95649,1758075477.93493,0.0,0.0,0.0,34.49206,-14.15206,-1.94806,7.85,-1.06,-0.03,4.0
1758075477.97104,1758075477.94493,0.0,0.0,0.0,37.47144,-20.74107,-4.0107,7.85,-1.06,-0.03,4.0
1758075477.97226,1758075477.95493,0.0,0.0,0.0,41.88322,-31.2262,-6.58902,8.14,-1.63,0.09,4.0
1758075477.98736,1758075477.96493,0.0,0.0,0.0,44.748,-37.58603,-7.50575,8.14,-1.63,0.09,4.0
1758075478.00334,1758075477.97493,0.0,0.0,0.0,47.49821,-42.39888,-7.62034,8.39,-1.95,0.25,4.0
1758075478.00421,1758075477.98493,0.0,0.0,0.0,50.01921,-45.43555,-7.04738,8.39,-1.95,0.25,4.0
1758075478.01931,1758075477.99493,0.0,0.0,0.0,52.884,-47.03984,-5.32851,8.79,-1.89,0.32,4.0
1758075478.03532,1758075478.00493,0.0,0.0,0.0,53.91533,-46.52417,-4.87014,8.74,-1.61,0.21,4.0
1758075478.03626,1758075478.01493,0.0,0.0,0.0,54.66018,-48.9306,-3.09397,8.74,-1.61,0.21,4.0
1758075478.05137,1758075478.02493,0.0,0.0,0.0,54.14451,-48.30034,-2.00535,8.23,-1.08,0.0,4.0
1758075478.0523,1758075478.03493,0.0,0.0,0.0,51.50891,-43.4875,-0.11459,8.23,-1.08,0.0,4.0
1758075478.06719,1758075478.04493,0.0,0.0,0.0,48.52953,-38.27358,0.97403,8.34,-0.5,-0.16,4.0
1758075478.08313,1758075478.05493,0.0,0.0,0.0,44.11775,-31.51268,1.94806,8.34,-0.5,-0.16,4.0
1758075478.08482,1758075478.06493,0.0,0.0,0.0,36.32552,-22.40265,2.46372,8.58,0.24,-0.21,4.0
1758075478.09939,1758075478.07493,0.0,0.0,0.0,30.76784,-9.96947,2.46372,8.45,0.84,-0.31,4.0
1758075478.11516,1758075478.08493,0.0,0.0,0.0,26.69983,-17.87628,0.97403,8.45,0.84,-0.31,4.0
1758075478.11737,1758075478.09493,0.0,0.0,0.0,21.14215,-42.68536,2.00535,5.35,1.08,-0.51,4.0
1758075478.13238,1758075478.10493,0.0,0.0,0.0,16.3293,-65.37449,3.83882,5.35,1.08,-0.51,4.0
1758075478.13333,1758075478.11493,0.0,0.0,0.0,15.35527,-43.02913,7.39116,7.1,0.5,-0.54,4.0
1758075478.14917,1758075478.12493,0.0,0.0,0.0,14.72501,-23.20479,5.95876,7.1,0.5,-0.54,4.0
1758075478.16545,1758075478.13493,0.0,0.0,0.0,14.38124,-22.57454,4.98473,8.96,-0.61,-0.45,4.0
1758075478.16635,1758075478.14493,0.0,0.0,0.0,11.63104,-29.22085,2.29183,5.74,-0.61,0.25,4.0
1758075478.18113,1758075478.15493,0.0,0.0,0.0,9.05273,-30.30947,-0.17189,5.74,-0.79,0.25,4.0
1758075478.1824,1758075478.16493,0.0,0.0,0.0,6.35983,-30.13758,-3.03668,5.61,-0.65,0.26,4.0
1758075478.19742,1758075478.17493,0.0,0.0,0.0,3.20856,-28.07493,-6.18794,5.61,-0.65,0.26,4.0
1758075478.21346,1758075478.18493,0.0,0.0,0.0,-0.97403,-28.476,-8.30789,6.35,-0.02,2.75,4.0
1758075478.2146,1758075478.19493,0.0,0.0,0.0,-4.18259,-30.48136,-7.04738,6.35,-0.02,2.75,4.0
1758075478.22922,1758075478.20493,0.0,0.0,0.0,-6.87549,-28.36141,-4.87014,8.86,1.43,2.65,4.0
1758075478.24555,1758075478.21493,0.0,0.0,0.0,-9.4538,-23.20479,-2.92208,8.86,1.43,2.65,4.0
1758075478.24668,1758075478.22493,0.0,0.0,0.0,-11.57375,-16.272,-0.57296,12.98,2.93,1.82,4.0
1758075478.26157,1758075478.23493,0.0,0.0,0.0,-11.57375,-11.91752,1.3178,15.1,3.23,1.35,4.0
1758075478.26268,1758075478.24493,0.0,0.0,0.0,-11.11538,-5.90147,2.97938,15.1,3.23,1.35,4.0
1758075478.27803,1758075478.25493,0.0,0.0,0.0,-10.8289,1.48969,3.83882,16.28,1.82,1.36,4.0
1758075478.29449,1758075478.26493,0.0,0.0,0.0,-11.51645,14.15206,4.35448,16.28,1.82,1.36,4.0
1758075478.29552,1758075478.27493,0.0,0.0,0.0,-11.28727,15.29797,5.78687,18.28,0.05,2.86,4.0
1758075478.31029,1758075478.28493,0.0,0.0,0.0,-9.5684,11.57375,9.4538,18.28,0.05,2.86,4.0
1758075478.31178,1758075478.29493,0.0,0.0,0.0,-3.55234,14.49583,14.49583,20.22,-0.17,0.95,4.0
1758075478.32856,1758075478.30493,0.0,0.0,0.0,1.20321,25.7831,13.98017,19.78,-0.02,-0.13,4.0
1758075478.3446,1758075478.31493,0.0,0.0,0.0,5.50039,37.35685,10.02676,19.78,-0.02,-0.13,4.0
1758075478.34555,1758075478.32493,0.0,0.0,0.0,8.36518,44.17505,4.46907,15.74,-0.48,0.6,4.0
1758075478.36038,1758075478.33493,0.0,0.0,0.0,11.11538,41.94051,-3.60963,15.74,-0.48,0.6,4.0
1758075478.36156,1758075478.34493,0.0,0.0,0.0,13.46451,35.52338,-7.33386,12.34,-0.86,0.91,4.0
1758075478.37766,1758075478.35493,0.0,0.0,0.0,17.01685,30.30947,-8.70896,12.34,-0.86,0.91,4.0
1758075478.39363,1758075478.36493,0.0,0.0,0.0,19.88164,25.15285,-9.28192,11.44,-1.0,0.73,4.0
1758075478.39456,1758075478.37493,0.0,0.0,0.0,24.5226,29.22085,-7.50575,12.2,-0.44,0.74,4.0
1758075478.40962,1758075478.38493,0.0,0.0,0.0,26.18417,31.2262,-6.07335,12.2,-0.44,0.74,4.0
1758075478.42542,1758075478.39493,0.0,0.0,0.0,27.38738,32.37212,-5.15662,11.6,0.68,0.5,4.0
1758075478.42658,1758075478.40493,0.0,0.0,0.0,27.33009,34.72124,-3.95341,11.6,0.68,0.5,4.0
1758075478.44142,1758075478.41493,0.0,0.0,0.0,25.8404,32.71589,-3.26586,10.89,1.43,0.64,4.0
1758075478.44262,1758075478.42493,0.0,0.0,0.0,24.29341,30.36677,-3.32316,10.89,1.43,0.64,4.0
1758075478.45773,1758075478.43493,0.0,0.0,0.0,22.68913,29.56462,-3.72423,9.84,1.81,0.6,4.0
1758075478.47346,1758075478.44493,0.0,0.0,0.0,20.85567,28.59059,-4.64096,9.84,1.81,0.6,4.0
1758075478.47467,1758075478.45493,0.0,0.0,0.0,18.10547,25.7831,-6.53172,8.99,1.72,0.14,4.0
1758075478.48978,1758075478.46493,0.0,0.0,0.0,16.04282,23.49127,-8.42248,8.07,1.4,0.0,4.0
1758075478.50568,1758075478.47493,0.0,0.0,0.0,14.03747,20.85567,-10.25595,8.07,1.4,0.0,4.0
1758075478.50665,1758075478.48493,0.0,0.0,0.0,11.28727,19.53786,-12.89155,7.88,0.98,-0.27,4.0
1758075478.52168,1758075478.49493,0.0,0.0,0.0,9.5684,18.90761,-13.80828,7.88,0.98,-0.27,4.0
1758075478.52264,1758075478.50493,0.0,0.0,0.0,8.02141,18.44924,-14.32395,8.19,0.66,-0.23,4.0
1758075478.53744,1758075478.51493,0.0,0.0,0.0,6.7609,17.36062,-14.03747,8.19,0.66,-0.23,4.0
1758075478.55359,1758075478.52493,0.0,0.0,0.0,5.21392,13.5791,-11.97482,8.38,0.59,-0.04,4.0
1758075478.55467,1758075478.53493,0.0,0.0,0.0,4.52637,9.62569,-9.91217,8.25,0.68,0.05,4.0
1758075478.56957,1758075478.54493,0.0,0.0,0.0,4.18259,5.27121,-7.39116,8.25,0.68,0.05,4.0
1758075478.58542,1758075478.55493,0.0,0.0,0.0,4.87014,2.23454,-3.89611,8.27,0.6,0.06,4.0
1758075478.58771,1758075478.56493,0.0,0.0,0.0,6.07335,-2.97938,0.80214,8.27,0.6,0.06,4.0
1758075478.60278,1758075478.57493,0.0,0.0,0.0,5.78687,-6.99009,2.92208,8.39,0.4,-0.06,4.0
1758075478.604,1758075478.58493,0.0,0.0,0.0,5.09932,-9.91217,4.58366,8.39,0.4,-0.06,4.0
1758075478.61874,1758075478.59493,0.0,0.0,0.0,3.95341,-8.99544,5.61499,8.75,0.66,-0.27,4.0
1758075478.63476,1758075478.60493,0.0,0.0,0.0,2.97938,-7.04738,7.67763,9.21,0.81,-0.11,4.0
1758075478.63652,1758075478.61493,0.0,0.0,0.0,2.92208,-3.72423,8.25059,9.21,0.81,-0.11,4.0
1758075478.6518,1758075478.62493,0.0,0.0,0.0,2.92208,-3.49504,8.76626,9.2,0.74,0.11,4.0
1758075478.65355,1758075478.63493,0.0,0.0,0.0,2.97938,-12.37589,9.05273,9.2,0.74,0.11,4.0
1758075478.66851,1758075478.64493,0.0,0.0,0.0,2.34913,-23.54857,6.13065,8.0,0.6,0.0,4.0
1758075478.68875,1758075478.65493,0.0,0.0,0.0,2.7502,-24.29341,5.21392,8.0,0.6,0.0,4.0
1758075478.69393,1758075478.66493,0.0,0.0,0.0,3.20856,-21.60051,4.58366,9.05,0.5,-0.01,4.0
1758075478.69429,1758075478.67493,0.0,0.0,0.0,3.49504,-20.11082,4.64096,9.05,0.5,-0.01,4.0
1758075478.71083,1758075478.68493,0.0,0.0,0.0,3.66693,-20.22541,5.95876,9.18,0.38,0.18,4.0
1758075478.71176,1758075478.69493,0.0,0.0,0.0,4.0107,-19.42327,7.33386,9.05,0.38,0.12,4.0
1758075478.72833,1758075478.70493,0.0,0.0,0.0,4.46907,-18.73572,9.11003,9.05,0.38,0.12,4.0
1758075478.74487,1758075478.71493,0.0,0.0,0.0,4.52637,-16.67307,11.74564,9.06,0.56,-0.07,4.0
1758075478.74579,1758075478.72493,0.0,0.0,0.0,4.58366,-16.67307,12.71966,9.06,0.56,-0.07,4.0
1758075478.76086,1758075478.73493,0.0,0.0,0.0,4.58366,-17.93358,13.80828,8.85,0.74,-0.08,4.0
1758075478.76181,1758075478.74493,0.0,0.0,0.0,4.46907,-16.84496,14.15206,8.85,0.74,-0.08,4.0
1758075478.77787,1758075478.75493,0.0,0.0,0.0,4.18259,-15.29797,14.32395,8.97,0.93,-0.31,4.0
1758075478.79387,1758075478.76493,0.0,0.0,0.0,4.35448,-16.10011,13.80828,8.72,0.9,-0.42,4.0
1758075478.79512,1758075478.77493,0.0,0.0,0.0,4.64096,-16.84496,13.34992,8.72,0.9,-0.42,4.0
1758075478.81001,1758075478.78493,0.0,0.0,0.0,5.21392,-16.73037,12.204,8.46,0.79,-0.67,4.0
1758075478.81162,1758075478.79493,0.0,0.0,0.0,6.87549,-17.36062,11.57375,8.46,0.79,-0.67,4.0
1758075478.82798,1758075478.80493,0.0,0.0,0.0,8.47978,-16.04282,11.11538,8.29,0.53,-0.92,4.0
1758075478.84394,1758075478.81493,0.0,0.0,0.0,9.96947,-13.80828,10.71431,8.29,0.53,-0.92,4.0
1758075478.84488,1758075478.82493,0.0,0.0,0.0,11.63104,-12.37589,10.59972,8.39,0.28,-1.08,4.0
1758075478.85995,1758075478.83493,0.0,0.0,0.0,13.86558,-9.39651,10.8862,8.46,0.14,-1.15,4.0
1758075478.87601,1758075478.84493,0.0,0.0,0.0,15.41257,-8.0787,11.74564,8.46,0.14,-1.15,4.0
1758075478.87689,1758075478.85493,0.0,0.0,0.0,17.24603,-5.55769,12.60507,8.87,0.0,-1.05,4.0
1758075478.89184,1758075478.86493,0.0,0.0,0.0,18.90761,-3.49504,14.03747,8.87,0.0,-1.05,4.0
1758075478.89292,1758075478.87493,0.0,0.0,0.0,21.37133,-1.71887,16.38659,9.02,0.04,-1.18,4.0
1758075478.90795,1758075478.88493,0.0,0.0,0.0,23.0329,-1.3751,17.99088,9.02,0.04,-1.18,4.0
1758075478.92378,1758075478.89493,0.0,0.0,0.0,24.57989,-1.66158,19.25138,8.76,0.21,-1.31,4.0
1758075478.92493,1758075478.90493,0.0,0.0,0.0,26.64254,-2.06265,20.22541,8.76,0.21,-1.31,4.0
1758075478.94007,1758075478.91493,0.0,0.0,0.0,27.61657,-2.97938,20.22541,8.29,0.42,-1.42,4.0
1758075478.95608,1758075478.92493,0.0,0.0,0.0,28.07493,-3.60963,20.16812,7.78,0.48,-1.34,4.0
1758075478.95646,1758075478.93493,0.0,0.0,0.0,28.87707,-5.95876,20.11082,7.78,0.48,-1.34,4.0
1758075478.9718,1758075478.94493,0.0,0.0,0.0,30.19488,-14.20935,19.76705,7.18,0.43,-0.07,4.0
1758075478.97297,1758075478.95493,0.0,0.0,0.0,31.56997,-23.72045,18.10547,7.18,0.43,-0.07,4.0
1758075478.98808,1758075478.96493,0.0,0.0,0.0,33.17426,-31.97105,15.06879,7.62,0.03,1.26,4.0
1758075479.00382,1758075478.97493,0.0,0.0,0.0,35.2369,-36.38282,11.11538,7.62,0.03,1.26,4.0
1758075479.00524,1758075478.98493,0.0,0.0,0.0,38.1017,-41.99781,4.81285,10.08,-0.97,2.2,4.0
1758075479.02005,1758075478.99493,0.0,0.0,0.0,39.4195,-46.35228,1.3178,11.74,-1.86,2.96,4.0
1758075479.03608,1758075479.00493,0.0,0.0,0.0,40.27893,-48.30034,-1.3751,11.74,-1.86,2.96,4.0
1758075479.03648,1758075479.01493,0.0,0.0,0.0,40.7373,-46.98254,-3.49504,13.76,-2.59,3.47,4.0
1758075479.05207,1758075479.02493,0.0,0.0,0.0,41.65404,-41.94051,-6.13065,13.76,-2.59,3.47,4.0
1758075479.05342,1758075479.03493,0.0,0.0,0.0,42.91454,-37.64333,-8.93814,16.17,-3.28,2.87,4.0
1758075479.06782,1758075479.04493,0.0,0.0,0.0,43.77398,-33.34615,-13.00614,16.17,-3.28,2.87,4.0
1758075479.08379,1758075479.05493,0.0,0.0,0.0,44.748,-28.76248,-17.24603,18.52,-3.67,0.99,4.0
1758075479.08506,1758075479.06493,0.0,0.0,0.0,45.60744,-16.61578,-20.34,17.83,-2.5,-0.64,4.0
1758075479.10013,1758075479.07493,0.0,0.0,0.0,45.60744,-0.40107,-18.73572,17.83,-2.5,-0.64,4.0
1758075479.1013,1758075479.08493,0.0,0.0,0.0,44.86259,17.13144,-15.69904,15.89,-0.1,-0.86,4.0
1758075479.11647,1758075479.09493,0.0,0.0,0.0,43.4875,32.14294,-11.80293,15.89,-0.1,-0.86,4.0
1758075479.13296,1758075479.10493,0.0,0.0,0.0,40.10705,47.38361,-5.95876,13.71,1.08,-0.5,4.0
1758075479.13472,1758075479.11493,0.0,0.0,0.0,37.35685,52.19646,-2.06265,13.71,1.08,-0.5,4.0
1758075479.14896,1758075479.12493,0.0,0.0,0.0,35.00772,54.71747,1.3178,11.61,1.26,-0.19,4.0
1758075479.15284,1758075479.13493,0.0,0.0,0.0,31.28349,56.952,4.1253,11.61,1.26,-0.19,4.0
1758075479.16818,1758075479.14493,0.0,0.0,0.0,29.50733,55.34772,4.81285,10.48,0.78,-0.06,4.0
1758075479.18411,1758075479.15493,0.0,0.0,0.0,27.73116,55.40502,3.38045,9.89,-0.17,0.13,4.0
1758075479.18595,1758075479.16493,0.0,0.0,0.0,26.75713,51.22243,1.03132,9.89,-0.17,0.13,4.0
1758075479.20182,1758075479.17493,0.0,0.0,0.0,27.73116,44.57612,-1.03132,9.42,-0.94,0.41,4.0
1758075479.20329,1758075479.18493,0.0,0.0,0.0,29.22085,42.97184,-2.6929,9.42,-0.94,0.41,4.0
1758075479.24022,1758075479.19493,0.0,0.0,0.0,31.28349,39.64868,-4.1253,9.67,-1.62,0.58,4.0
1758075479.24193,1758075479.20493,0.0,0.0,0.0,33.9764,34.43476,-4.35448,9.67,-1.62,0.58,4.0
1758075479.24244,1758075479.21493,0.0,0.0,0.0,38.44547,27.50197,-2.63561,9.04,-1.96,0.57,4.0
1758075479.24373,1758075479.22493,0.0,0.0,0.0,41.71133,24.00693,-0.40107,8.9,-1.97,0.23,4.0
1758075479.25928,1758075479.23493,0.0,0.0,0.0,44.86259,19.70975,2.63561,8.9,-1.97,0.23,4.0
1758075479.26193,1758075479.24493,0.0,0.0,0.0,47.95657,16.61578,5.78687,8.62,-1.72,0.06,4.0
1758075479.27802,1758075479.25493,0.0,0.0,0.0,51.85268,16.38659,9.39651,8.62,-1.72,0.06,4.0
1758075479.29405,1758075479.26493,0.0,0.0,0.0,53.28508,17.24603,10.8862,8.73,-1.27,-0.03,4.0
1758075479.29573,1758075479.27493,0.0,0.0,0.0,53.74345,19.13679,11.80293,8.73,-1.27,-0.03,4.0
1758075479.30998,1758075479.28493,0.0,0.0,0.0,53.62885,18.90761,11.97482,8.66,-0.89,-0.05,4.0
1758075479.31231,1758075479.29493,0.0,0.0,0.0,52.71212,15.24068,11.17268,8.21,-0.67,-0.01,4.0
1758075479.3283,1758075479.30493,0.0,0.0,0.0,51.90998,11.97482,9.91217,8.21,-0.67,-0.01,4.0
1758075479.34433,1758075479.31493,0.0,0.0,0.0,50.93595,9.33921,8.136,8.36,-0.7,0.02,4.0
1758075479.34525,1758075479.32493,0.0,0.0,0.0,50.13381,6.70361,5.4431,8.36,-0.7,0.02,4.0
1758075479.36032,1758075479.33493,0.0,0.0,0.0,49.67545,0.17189,3.72423,8.65,-0.79,0.22,4.0
1758075479.36125,1758075479.34493,0.0,0.0,0.0,49.96192,-3.95341,2.06265,8.65,-0.79,0.22,4.0
1758075479.37745,1758075479.35493,0.0,0.0,0.0,50.82136,-7.33386,0.97403,8.85,-1.02,0.43,4.0
1758075479.39308,1758075479.36493,0.0,0.0,0.0,52.884,-13.34992,0.0573,8.85,-1.02,0.43,4.0
1758075479.39456,1758075479.37493,0.0,0.0,0.0,54.71747,-16.61578,-0.17189,8.9,-1.33,0.26,4.0
1758075479.40934,1758075479.38493,0.0,0.0,0.0,56.60823,-18.62113,0.11459,8.89,-1.5,0.06,4.0
1758075479.41055,1758075479.39493,0.0,0.0,0.0,58.26981,-20.51189,0.22918,8.89,-1.5,0.06,4.0
1758075479.42637,1758075479.40493,0.0,0.0,0.0,60.10328,-24.12152,0.74485,8.45,-1.42,-0.19,4.0
1758075479.44213,1758075479.41493,0.0,0.0,0.0,60.67623,-25.61122,1.08862,8.45,-1.42,-0.19,4.0
1758075479.44331,1758075479.42493,0.0,0.0,0.0,60.90542,-26.52795,1.43239,7.76,-1.14,-0.39,4.0
1758075479.45941,1758075479.43493,0.0,0.0,0.0,60.44705,-27.1582,1.66158,7.76,-1.14,-0.39,4.0
1758075479.46034,1758075479.44493,0.0,0.0,0.0,59.24384,-26.69983,1.71887,7.35,-0.8,-0.61,4.0
1758075479.47636,1758075479.45493,0.0,0.0,0.0,58.21251,-25.72581,1.66158,7.24,-0.46,-0.56,4.0
1758075479.49225,1758075479.46493,0.0,0.0,0.0,56.83742,-22.86102,0.97403,7.24,-0.46,-0.56,4.0
1758075479.4934,1758075479.47493,0.0,0.0,0.0,54.77477,-19.25138,-0.0573,7.35,-0.2,-0.68,4.0
1758075479.50815,1758075479.48493,0.0,0.0,0.0,51.50891,-12.54778,-1.77617,7.35,-0.2,-0.68,4.0
1758075479.52456,1758075479.49493,0.0,0.0,0.0,48.58683,-7.96411,-3.03668,7.3,0.0,-0.8,4.0
1758075479.52542,1758075479.50493,0.0,0.0,0.0,45.89392,-4.0107,-3.66693,7.3,0.0,-0.8,4.0
1758075479.54023,1758075479.51493,0.0,0.0,0.0,43.25832,-2.00535,-3.95341,7.09,0.02,-0.77,4.0
1758075479.54138,1758075479.52493,0.0,0.0,0.0,40.50812,-1.43239,-4.1253,6.54,-0.24,-0.64,4.0
1758075479.55623,1758075479.53493,0.0,0.0,0.0,40.10705,-5.72958,-3.95341,6.54,-0.24,-0.64,4.0
