timeStamp,timeStampAlign,roll,pitch,yaw,gyro_x,gyro_y,gyro_z,acc_x,acc_y,acc_z,flag_num
1758076869.18161,1758076869.16602,0.0,0.0,0.0,-11.97482,-17.30333,-0.57296,11.12,0.47,1.98,3.0
1758076869.19785,1758076869.17602,0.0,0.0,0.0,-14.78231,-25.38203,-2.86479,10.33,1.26,2.89,3.0
1758076869.19853,1758076869.18602,0.0,0.0,0.0,-17.58981,-33.86181,-5.78687,10.33,1.26,2.89,3.0
1758076869.21328,1758076869.19602,0.0,0.0,0.0,-21.37133,-45.20637,-9.91217,8.64,1.39,4.6,3.0
1758076869.22964,1758076869.20602,0.0,0.0,0.0,-25.61122,-54.25911,-12.77696,7.6,0.86,5.31,3.0
1758076869.23056,1758076869.21602,0.0,0.0,0.0,-30.76784,-59.47303,-15.12609,7.6,0.86,5.31,3.0
1758076869.24562,1758076869.22602,0.0,0.0,0.0,-39.4195,-55.06125,-16.55848,8.38,0.17,4.23,3.0
1758076869.24764,1758076869.23602,0.0,0.0,0.0,-44.57612,-47.03984,-16.38659,8.38,0.17,4.23,3.0
1758076869.26234,1758076869.24602,0.0,0.0,0.0,-49.04519,-40.04975,-15.35527,10.16,-0.35,2.55,3.0
1758076869.27863,1758076869.25602,0.0,0.0,0.0,-50.93595,-31.51268,-13.12073,10.16,-0.35,2.55,3.0
1758076869.27996,1758076869.26602,0.0,0.0,0.0,-50.47758,-21.37133,-8.76626,11.22,-0.82,1.93,3.0
1758076869.29432,1758076869.27602,0.0,0.0,0.0,-47.67009,-16.67307,-5.21392,11.29,-1.15,1.84,3.0
1758076869.29559,1758076869.28602,0.0,0.0,0.0,-42.97184,-12.37589,-1.43239,11.29,-1.15,1.84,3.0
1758076869.31164,1758076869.29602,0.0,0.0,0.0,-36.89849,-6.41713,2.11994,10.85,-1.67,1.5,3.0
1758076869.32763,1758076869.30602,0.0,0.0,0.0,-27.50197,4.1253,6.99009,10.85,-1.67,1.5,3.0
1758076869.32896,1758076869.31602,0.0,0.0,0.0,-22.23076,10.59972,9.4538,10.56,-2.02,1.24,3.0
1758076869.34367,1758076869.32602,0.0,0.0,0.0,-18.56383,15.46986,11.86023,10.56,-2.02,1.24,3.0
1758076869.35961,1758076869.33602,0.0,0.0,0.0,-16.21471,20.79837,13.40721,10.09,-1.86,1.4,3.0
1758076869.36055,1758076869.34602,0.0,0.0,0.0,-14.38124,26.98631,13.17803,9.72,-1.21,1.37,3.0
1758076869.37557,1758076869.35602,0.0,0.0,0.0,-14.72501,30.76784,11.00079,9.72,-1.21,1.37,3.0
1758076869.37769,1758076869.36602,0.0,0.0,0.0,-16.21471,34.26288,8.59437,9.52,-0.28,1.23,3.0
1758076869.39234,1758076869.37602,0.0,0.0,0.0,-18.50654,37.87251,6.07335,9.52,-0.28,1.23,3.0
1758076869.40837,1758076869.38602,0.0,0.0,0.0,-22.57454,37.18496,3.20856,9.43,0.47,1.34,3.0
1758076869.40957,1758076869.39602,0.0,0.0,0.0,-24.86637,35.2942,1.43239,9.43,0.47,1.34,3.0
1758076869.42438,1758076869.40602,0.0,0.0,0.0,-27.1582,34.49206,0.0573,9.25,0.61,0.9,3.0
1758076869.42548,1758076869.41602,0.0,0.0,0.0,-28.76248,34.77854,-1.71887,9.25,0.61,0.9,3.0
1758076869.4414,1758076869.42602,0.0,0.0,0.0,-30.48136,34.60666,-2.23454,9.65,0.12,0.94,3.0
1758076869.45762,1758076869.43602,0.0,0.0,0.0,-30.25217,34.0337,-2.00535,9.7,-0.66,1.31,3.0
1758076869.45931,1758076869.44602,0.0,0.0,0.0,-29.62192,33.68992,-1.03132,9.7,-0.66,1.31,3.0
1758076869.47431,1758076869.45602,0.0,0.0,0.0,-27.1582,33.51803,0.74485,9.8,-1.41,1.54,3.0
1758076869.47592,1758076869.46602,0.0,0.0,0.0,-24.86637,33.34615,2.11994,9.8,-1.41,1.54,3.0
1758076869.49158,1758076869.47602,0.0,0.0,0.0,-22.23076,32.54401,3.60963,9.69,-1.83,1.31,3.0
1758076869.50761,1758076869.48602,0.0,0.0,0.0,-19.36597,31.62727,4.87014,9.69,-1.83,1.31,3.0
1758076869.50936,1758076869.49602,0.0,0.0,0.0,-15.24068,28.64789,6.99009,9.49,-1.89,1.34,3.0
1758076869.52438,1758076869.50602,0.0,0.0,0.0,-12.71966,24.80907,8.42248,9.22,-1.63,1.36,3.0
1758076869.52561,1758076869.51602,0.0,0.0,0.0,-10.65701,20.05352,9.62569,9.22,-1.63,1.36,3.0
1758076869.5414,1758076869.52602,0.0,0.0,0.0,-9.28192,15.41257,11.00079,9.08,-1.32,1.47,3.0
1758076869.55767,1758076869.53602,0.0,0.0,0.0,-7.96411,9.68299,12.49048,9.08,-1.32,1.47,3.0
1758076869.55855,1758076869.54602,0.0,0.0,0.0,-7.10468,6.8182,13.23533,9.27,-1.06,1.4,3.0
1758076869.57369,1758076869.55602,0.0,0.0,0.0,-6.7609,3.95341,13.69369,9.27,-1.06,1.4,3.0
1758076869.58936,1758076869.56602,0.0,0.0,0.0,-6.13065,1.83346,13.46451,9.32,-0.91,1.19,3.0
1758076869.59161,1758076869.57602,0.0,0.0,0.0,-5.21392,-0.17189,12.60507,9.31,-0.89,1.05,3.0
1758076869.60665,1758076869.58602,0.0,0.0,0.0,-4.1253,-0.17189,11.57375,9.31,-0.89,1.05,3.0
1758076869.60797,1758076869.59602,0.0,0.0,0.0,-3.38045,0.74485,10.02676,9.23,-0.98,0.76,3.0
1758076869.62261,1758076869.60602,0.0,0.0,0.0,-2.6929,2.29183,8.42248,9.23,-0.98,0.76,3.0
1758076869.63866,1758076869.61602,0.0,0.0,0.0,-1.3178,5.09932,5.55769,9.02,-1.01,0.82,3.0
1758076869.63998,1758076869.62602,0.0,0.0,0.0,-0.0573,6.41713,4.1253,9.02,-1.01,0.82,3.0
1758076869.65461,1758076869.63602,0.0,0.0,0.0,1.14592,8.02141,2.63561,8.98,-0.99,0.85,3.0
1758076869.65644,1758076869.64602,0.0,0.0,0.0,3.38045,10.71431,0.80214,8.98,-0.99,0.85,3.0
1758076869.67373,1758076869.65602,0.0,0.0,0.0,5.09932,15.35527,0.22918,9.49,-1.0,0.9,3.0
1758076869.68962,1758076869.66602,0.0,0.0,0.0,7.21927,20.62648,-0.22918,10.25,-1.04,0.93,3.0
1758076869.69095,1758076869.67602,0.0,0.0,0.0,9.28192,26.41335,-1.3178,10.25,-1.04,0.93,3.0
1758076869.70544,1758076869.68602,0.0,0.0,0.0,13.06344,36.55471,-1.43239,10.58,-1.18,1.17,3.0
1758076869.7068,1758076869.69602,0.0,0.0,0.0,16.38659,32.54401,-1.20321,10.58,-1.18,1.17,3.0
1758076869.72168,1758076869.70602,0.0,0.0,0.0,17.53251,24.23611,-2.29183,9.72,-1.3,1.47,3.0
1758076869.73772,1758076869.71602,0.0,0.0,0.0,19.88164,13.17803,-1.14592,9.72,-1.3,1.47,3.0
1758076869.73859,1758076869.72602,0.0,0.0,0.0,21.94428,0.45837,0.74485,9.26,-1.47,1.05,3.0
1758076869.7536,1758076869.73602,0.0,0.0,0.0,22.97561,-1.94806,1.48969,10.13,-1.43,0.97,3.0
1758076869.76944,1758076869.74602,0.0,0.0,0.0,23.94964,-1.08862,1.48969,10.13,-1.43,0.97,3.0
1758076869.77172,1758076869.75602,0.0,0.0,0.0,24.17882,-0.51566,1.08862,10.1,-0.88,0.95,3.0
1758076869.78661,1758076869.76602,0.0,0.0,0.0,22.63183,-5.15662,2.34913,10.1,-0.88,0.95,3.0
1758076869.78806,1758076869.77602,0.0,0.0,0.0,19.53786,-5.15662,4.0107,9.91,-0.37,2.21,3.0
1758076869.80279,1758076869.78602,0.0,0.0,0.0,15.24068,0.68755,4.69825,9.91,-0.37,2.21,3.0
1758076869.81868,1758076869.79602,0.0,0.0,0.0,10.54242,5.84417,3.89611,10.9,0.06,2.24,3.0
1758076869.82002,1758076869.80602,0.0,0.0,0.0,4.98473,7.84952,2.23454,10.13,0.29,1.52,3.0
1758076869.83442,1758076869.81602,0.0,0.0,0.0,2.6929,8.42248,1.43239,10.13,0.29,1.52,3.0
1758076869.8364,1758076869.82602,0.0,0.0,0.0,1.3751,10.94349,-0.0573,10.28,-0.18,1.77,3.0
1758076869.85269,1758076869.83602,0.0,0.0,0.0,1.03132,15.75634,-1.94806,10.28,-0.18,1.77,3.0
1758076869.875,1758076869.84602,0.0,0.0,0.0,1.66158,23.0902,-2.23454,11.05,-0.96,2.24,3.0
1758076869.87756,1758076869.85602,0.0,0.0,0.0,2.86479,26.01229,-1.83346,11.05,-0.96,2.24,3.0
1758076869.87819,1758076869.86602,0.0,0.0,0.0,4.1253,27.33009,-0.68755,11.47,-1.35,2.91,3.0
1758076869.89436,1758076869.87602,0.0,0.0,0.0,5.4431,28.99167,2.06265,11.47,-1.35,2.91,3.0
1758076869.89556,1758076869.88602,0.0,0.0,0.0,5.4431,30.76784,4.1253,12.2,-0.96,2.87,3.0
1758076869.91344,1758076869.89602,0.0,0.0,0.0,4.87014,32.88778,5.72958,13.06,-0.17,3.06,3.0
1758076869.92954,1758076869.90602,0.0,0.0,0.0,3.60963,35.2369,6.58902,13.06,-0.17,3.06,3.0
1758076869.93091,1758076869.91602,0.0,0.0,0.0,0.40107,36.32552,6.07335,13.47,0.27,3.42,3.0
1758076869.94545,1758076869.92602,0.0,0.0,0.0,-2.34913,35.58068,4.64096,13.47,0.27,3.42,3.0
1758076869.94662,1758076869.93602,0.0,0.0,0.0,-4.98473,33.9764,2.7502,13.2,0.1,3.76,3.0
1758076869.96147,1758076869.94602,0.0,0.0,0.0,-7.44845,31.51268,0.68755,13.2,0.1,3.76,3.0
1758076869.97742,1758076869.95602,0.0,0.0,0.0,-9.74028,27.96034,-2.29183,12.59,-0.54,3.73,3.0
1758076869.97865,1758076869.96602,0.0,0.0,0.0,-10.59972,25.21014,-3.60963,12.11,-1.08,3.76,3.0
1758076869.99332,1758076869.97602,0.0,0.0,0.0,-11.00079,21.6578,-4.58366,12.11,-1.08,3.76,3.0
1758076870.00968,1758076869.98602,0.0,0.0,0.0,-10.8862,17.36062,-4.87014,11.33,-1.17,3.82,3.0
1758076870.01092,1758076869.99602,0.0,0.0,0.0,-9.4538,9.91217,-4.64096,11.33,-1.17,3.82,3.0
1758076870.02557,1758076870.00602,0.0,0.0,0.0,-7.50575,4.98473,-4.46907,10.21,-1.14,3.63,3.0
1758076870.0282,1758076870.01602,0.0,0.0,0.0,-5.15662,-0.22918,-4.35448,10.21,-1.14,3.63,3.0
1758076870.04367,1758076870.02602,0.0,0.0,0.0,-2.11994,-5.72958,-4.23989,8.77,-1.16,3.58,3.0
1758076870.05948,1758076870.03602,0.0,0.0,0.0,3.09397,-12.43318,-4.23989,7.86,-1.18,3.58,3.0
1758076870.06067,1758076870.04602,0.0,0.0,0.0,6.35983,-16.3293,-4.29718,7.86,-1.18,3.58,3.0
1758076870.07554,1758076870.05602,0.0,0.0,0.0,9.05273,-19.07949,-4.46907,7.62,-1.18,3.57,3.0
1758076870.07774,1758076870.06602,0.0,0.0,0.0,11.86023,-21.88699,-4.64096,7.62,-1.18,3.57,3.0
1758076870.09272,1758076870.07602,0.0,0.0,0.0,12.49048,-22.86102,-4.81285,7.82,-1.08,3.67,3.0
1758076870.12804,1758076870.08602,0.0,0.0,0.0,12.2613,-22.91831,-4.69825,7.82,-1.08,3.67,3.0
1758076870.12915,1758076870.09602,0.0,0.0,0.0,11.57375,-21.7151,-4.29718,8.43,-0.78,3.69,3.0
1758076870.13169,1758076870.10602,0.0,0.0,0.0,9.5684,-17.53251,-3.60963,8.43,-0.78,3.63,3.0
1758076870.13288,1758076870.11602,0.0,0.0,0.0,8.30789,-13.75099,-2.97938,9.19,-0.41,3.63,3.0
1758076870.14772,1758076870.12602,0.0,0.0,0.0,7.39116,-9.39651,-2.86479,9.41,-0.14,3.5,3.0
1758076870.14945,1758076870.13602,0.0,0.0,0.0,6.99009,-5.84417,-2.34913,9.41,-0.14,3.5,3.0
1758076870.16471,1758076870.14602,0.0,0.0,0.0,7.33386,1.14592,-2.34913,9.21,0.01,3.57,3.0
1758076870.16566,1758076870.15602,0.0,0.0,0.0,8.02141,6.87549,-2.97938,9.21,0.01,3.57,3.0
1758076870.1816,1758076870.16602,0.0,0.0,0.0,9.5684,12.49048,-3.95341,9.14,0.01,3.54,3.0
1758076870.19872,1758076870.17602,0.0,0.0,0.0,11.28727,17.24603,-5.27121,9.14,0.01,3.54,3.0
1758076870.19963,1758076870.18602,0.0,0.0,0.0,14.43854,23.60586,-7.50575,8.89,-0.12,3.32,3.0
1758076870.21572,1758076870.19602,0.0,0.0,0.0,16.73037,26.81443,-9.33921,8.83,-0.31,3.22,3.0
1758076870.21852,1758076870.20602,0.0,0.0,0.0,19.13679,30.36677,-10.71431,8.83,-0.31,3.22,3.0
1758076870.23339,1758076870.21602,0.0,0.0,0.0,21.08485,34.49206,-12.2613,9.06,-0.49,3.1,3.0
1758076870.24945,1758076870.22602,0.0,0.0,0.0,23.0902,38.84654,-13.34992,9.06,-0.49,3.1,3.0
1758076870.2526,1758076870.23602,0.0,0.0,0.0,24.12152,39.24761,-13.06344,8.98,-0.51,3.16,3.0
1758076870.26772,1758076870.24602,0.0,0.0,0.0,24.35071,40.45082,-12.14671,8.98,-0.51,3.16,3.0
1758076870.26891,1758076870.25602,0.0,0.0,0.0,22.63183,42.22699,-9.62569,9.13,-0.28,3.37,3.0
1758076870.28377,1758076870.26602,0.0,0.0,0.0,20.62648,41.13837,-6.58902,8.94,0.0,3.01,3.0
1758076870.28815,1758076870.27602,0.0,0.0,0.0,18.10547,39.76327,-3.60963,8.94,0.0,3.01,3.0
1758076870.30378,1758076870.28602,0.0,0.0,0.0,16.272,36.61201,-1.03132,8.72,0.21,3.24,3.0
1758076870.32293,1758076870.29602,0.0,0.0,0.0,18.90761,29.67921,-0.57296,8.72,0.21,3.24,3.0
1758076870.32424,1758076870.30602,0.0,0.0,0.0,21.7151,27.96034,0.0,8.76,0.31,3.59,3.0
1758076870.34051,1758076870.31602,0.0,0.0,0.0,23.49127,24.23611,-0.68755,8.76,0.31,3.59,3.0
1758076870.3431,1758076870.32602,0.0,0.0,0.0,24.00693,20.85567,-2.7502,8.37,0.06,3.34,3.0
1758076870.35845,1758076870.33602,0.0,0.0,0.0,24.57989,15.41257,-4.69825,8.12,0.06,3.98,3.0
1758076870.35998,1758076870.34602,0.0,0.0,0.0,24.57989,8.02141,-5.50039,8.12,-0.26,3.98,3.0
1758076870.37445,1758076870.35602,0.0,0.0,0.0,24.63719,-0.97403,-5.90147,7.49,-0.49,3.83,3.0
1758076870.37563,1758076870.36602,0.0,0.0,0.0,24.63719,-10.25595,-5.78687,7.49,-0.49,3.83,3.0
1758076870.39345,1758076870.37602,0.0,0.0,0.0,24.57989,-23.37668,-4.46907,7.64,-0.51,3.67,3.0
1758076870.40946,1758076870.38602,0.0,0.0,0.0,24.80907,-30.30947,-3.26586,7.64,-0.51,3.67,3.0
1758076870.41064,1758076870.39602,0.0,0.0,0.0,25.15285,-36.15364,-1.60428,8.12,-0.19,3.51,3.0
1758076870.42556,1758076870.40602,0.0,0.0,0.0,25.49662,-40.62271,0.0573,8.12,-0.19,3.51,3.0
1758076870.42853,1758076870.41602,0.0,0.0,0.0,26.47065,-45.55015,3.38045,8.48,0.27,3.23,3.0
1758076870.44378,1758076870.42602,0.0,0.0,0.0,27.2155,-47.26902,4.69825,8.66,0.53,2.92,3.0
1758076870.45971,1758076870.43602,0.0,0.0,0.0,27.50197,-47.03984,5.61499,8.66,0.53,2.92,3.0
1758076870.46094,1758076870.44602,0.0,0.0,0.0,27.50197,-47.49821,5.21392,8.7,0.52,2.86,3.0
1758076870.47574,1758076870.45602,0.0,0.0,0.0,28.24682,-48.58683,4.18259,8.7,0.52,2.86,3.0
1758076870.47665,1758076870.46602,0.0,0.0,0.0,28.24682,-48.12846,2.40642,8.6,0.31,2.74,3.0
1758076870.4917,1758076870.47602,0.0,0.0,0.0,27.84575,-46.2377,0.51566,8.6,0.31,2.74,3.0
1758076870.50773,1758076870.48602,0.0,0.0,0.0,27.61657,-42.22699,-2.40642,9.01,0.0,2.58,3.0
1758076870.50865,1758076870.49602,0.0,0.0,0.0,27.67386,-39.24761,-3.95341,9.21,-0.08,2.3,3.0
1758076870.52371,1758076870.50602,0.0,0.0,0.0,27.44468,-35.00772,-4.98473,9.21,-0.08,2.3,3.0
1758076870.53945,1758076870.51602,0.0,0.0,0.0,27.2155,-30.02299,-5.50039,9.51,0.1,1.92,3.0
1758076870.541,1758076870.52602,0.0,0.0,0.0,26.01229,-20.45459,-5.72958,9.51,0.1,1.92,3.0
1758076870.55552,1758076870.53602,0.0,0.0,0.0,24.86637,-14.20935,-5.4431,9.6,0.55,1.59,3.0
1758076870.5575,1758076870.54602,0.0,0.0,0.0,22.68913,-8.76626,-4.98473,9.6,0.55,1.59,3.0
1758076870.57267,1758076870.55602,0.0,0.0,0.0,20.34,-4.92744,-4.23989,9.28,1.0,1.63,3.0
1758076870.5887,1758076870.56602,0.0,0.0,0.0,16.50119,0.74485,-3.32316,9.23,1.18,1.77,3.0
1758076870.58963,1758076870.57602,0.0,0.0,0.0,13.69369,4.1253,-2.7502,9.23,1.18,1.77,3.0
1758076870.60468,1758076870.58602,0.0,0.0,0.0,11.17268,6.24524,-2.11994,9.34,1.07,1.83,3.0
1758076870.60564,1758076870.59602,0.0,0.0,0.0,9.33921,7.73493,-1.60428,9.34,1.07,1.83,3.0
1758076870.62145,1758076870.60602,0.0,0.0,0.0,6.87549,10.37054,-1.71887,9.55,0.85,2.07,3.0
1758076870.63764,1758076870.61602,0.0,0.0,0.0,5.4431,9.28192,-1.94806,9.55,0.85,2.07,3.0
1758076870.63867,1758076870.62602,0.0,0.0,0.0,3.95341,6.7609,-2.92208,9.57,0.65,2.16,3.0
1758076870.6537,1758076870.63602,0.0,0.0,0.0,2.92208,3.09397,-3.89611,9.57,0.65,2.16,3.0
1758076870.66969,1758076870.64602,0.0,0.0,0.0,2.29183,-2.29183,-5.72958,9.52,0.7,1.94,3.0
1758076870.67065,1758076870.65602,0.0,0.0,0.0,2.46372,-3.95341,-6.99009,9.8,0.87,1.74,3.0
1758076870.68571,1758076870.66602,0.0,0.0,0.0,2.86479,-5.90147,-7.96411,9.8,0.87,1.74,3.0
1758076870.68665,1758076870.67602,0.0,0.0,0.0,3.49504,-8.136,-9.4538,9.66,0.95,1.72,3.0
1758076870.7017,1758076870.68602,0.0,0.0,0.0,3.72423,-11.28727,-9.39651,9.66,0.95,1.72,3.0
1758076870.71779,1758076870.69602,0.0,0.0,0.0,3.89611,-14.38124,-8.99544,9.13,0.9,1.63,3.0
1758076870.71891,1758076870.70602,0.0,0.0,0.0,4.29718,-15.64175,-8.136,9.13,0.9,1.63,3.0
1758076870.7336,1758076870.71602,0.0,0.0,0.0,4.35448,-14.03747,-6.24524,8.89,0.58,1.48,3.0
1758076870.74948,1758076870.72602,0.0,0.0,0.0,4.35448,-13.34992,-4.87014,9.19,0.41,1.66,3.0
1758076870.75109,1758076870.73602,0.0,0.0,0.0,4.23989,-13.06344,-3.26586,9.19,0.41,1.66,3.0
1758076870.76548,1758076870.74602,0.0,0.0,0.0,3.89611,-12.71966,-1.83346,9.47,0.3,1.96,3.0
1758076870.76822,1758076870.75602,0.0,0.0,0.0,2.63561,-12.60507,-0.0573,9.47,0.3,1.96,3.0
1758076870.78379,1758076870.76602,0.0,0.0,0.0,0.68755,-8.136,0.34377,9.94,0.5,1.66,3.0
1758076870.79976,1758076870.77602,0.0,0.0,0.0,-0.51566,-3.09397,1.3751,9.94,0.5,1.66,3.0
1758076870.80176,1758076870.78602,0.0,0.0,0.0,-2.92208,0.74485,0.57296,10.17,0.82,1.42,3.0
1758076870.81672,1758076870.79602,0.0,0.0,0.0,-6.41713,5.50039,-0.57296,9.84,1.09,1.54,3.0
1758076870.81883,1758076870.80602,0.0,0.0,0.0,-8.42248,7.79223,-1.66158,9.84,1.09,1.54,3.0
1758076870.8335,1758076870.81602,0.0,0.0,0.0,-9.4538,4.29718,-3.09397,9.3,1.16,1.51,3.0
1758076870.84945,1758076870.82602,0.0,0.0,0.0,-10.94349,-1.14592,-4.69825,9.3,1.16,1.51,3.0
1758076870.8526,1758076870.83602,0.0,0.0,0.0,-13.17803,-4.1253,-7.44845,9.22,1.08,1.7,3.0
1758076870.868,1758076870.84602,0.0,0.0,0.0,-14.15206,0.45837,-8.88085,9.22,1.08,1.7,3.0
1758076870.86947,1758076870.85602,0.0,0.0,0.0,-14.9542,4.69825,-9.91217,10.18,0.83,1.48,3.0
1758076870.88478,1758076870.86602,0.0,0.0,0.0,-15.24068,8.76626,-9.62569,10.18,0.83,1.48,3.0
1758076870.8868,1758076870.87602,0.0,0.0,0.0,-15.29797,12.89155,-7.84952,9.95,0.49,1.74,3.0
1758076870.90345,1758076870.88602,0.0,0.0,0.0,-15.29797,15.41257,-5.50039,9.67,0.33,1.18,3.0
1758076870.91973,1758076870.89602,0.0,0.0,0.0,-15.0115,18.22006,-3.03668,9.67,0.33,1.18,3.0
1758076870.921,1758076870.90602,0.0,0.0,0.0,-14.49583,14.15206,0.68755,9.6,0.34,1.06,3.0
1758076870.93573,1758076870.91602,0.0,0.0,0.0,-15.0115,2.6929,1.14592,9.6,0.34,1.06,3.0
1758076870.93828,1758076870.92602,0.0,0.0,0.0,-14.32395,-4.81285,0.34377,8.93,0.5,1.85,3.0
1758076870.95385,1758076870.93602,0.0,0.0,0.0,-13.40721,-0.80214,-2.57831,8.93,0.5,1.85,3.0
1758076870.96947,1758076870.94602,0.0,0.0,0.0,-10.8289,13.23533,-4.81285,11.1,0.61,2.13,3.0
1758076870.97102,1758076870.95602,0.0,0.0,0.0,-10.59972,15.98552,-5.27121,10.92,0.53,2.15,3.0
1758076870.98542,1758076870.96602,0.0,0.0,0.0,-11.22997,16.50119,-5.84417,10.92,0.53,2.15,3.0
1758076870.98824,1758076870.97602,0.0,0.0,0.0,-12.37589,17.76169,-6.47442,10.26,0.62,1.97,3.0
1758076871.00384,1758076870.98602,0.0,0.0,0.0,-14.78231,18.73572,-6.47442,10.26,0.62,1.97,3.0
1758076871.00733,1758076870.99602,0.0,0.0,0.0,-16.04282,18.22006,-6.18794,10.29,0.87,2.0,3.0
1758076871.0227,1758076871.00602,0.0,0.0,0.0,-17.36062,17.53251,-6.13065,10.29,0.87,2.0,3.0
1758076871.03844,1758076871.01602,0.0,0.0,0.0,-18.33465,18.22006,-6.07335,10.39,1.23,2.33,3.0
1758076871.03967,1758076871.02602,0.0,0.0,0.0,-18.79302,20.45459,-5.95876,10.7,1.35,2.45,3.0
1758076871.05468,1758076871.03602,0.0,0.0,0.0,-18.44924,21.60051,-6.13065,10.7,1.35,2.45,3.0
1758076871.05588,1758076871.04602,0.0,0.0,0.0,-17.76169,22.86102,-6.24524,10.55,1.0,2.75,3.0
1758076871.07145,1758076871.05602,0.0,0.0,0.0,-16.84496,24.12152,-6.7609,10.55,1.0,2.75,3.0
1758076871.09093,1758076871.06602,0.0,0.0,0.0,-14.78231,23.0902,-7.04738,10.36,0.48,2.96,3.0
1758076871.09528,1758076871.07602,0.0,0.0,0.0,-13.17803,21.88699,-6.8182,10.36,0.48,2.96,3.0
1758076871.09564,1758076871.08602,0.0,0.0,0.0,-11.74564,22.28806,-6.58902,10.43,0.06,2.88,3.0
1758076871.11169,1758076871.09602,0.0,0.0,0.0,-9.74028,23.26209,-5.90147,10.43,0.06,2.88,3.0
1758076871.12749,1758076871.10602,0.0,0.0,0.0,-8.99544,23.89234,-5.15662,11.16,0.07,3.18,3.0
1758076871.13357,1758076871.11602,0.0,0.0,0.0,-8.47978,22.63183,-4.29718,11.53,0.62,3.66,3.0
1758076871.15258,1758076871.12602,0.0,0.0,0.0,-8.25059,21.7724,-3.38045,11.53,0.62,3.66,3.0
1758076871.15363,1758076871.13602,0.0,0.0,0.0,-8.65166,22.57454,-2.00535,12.09,1.07,3.9,3.0
1758076871.16856,1758076871.14602,0.0,0.0,0.0,-9.05273,21.7724,-1.3751,12.09,1.07,3.9,3.0
1758076871.17126,1758076871.15602,0.0,0.0,0.0,-9.74028,19.70975,-0.80214,12.15,1.07,4.15,3.0
1758076871.18675,1758076871.16602,0.0,0.0,0.0,-10.54242,16.95955,-0.40107,12.15,1.07,4.15,3.0
1758076871.18795,1758076871.17602,0.0,0.0,0.0,-12.54778,12.37589,-0.0573,11.91,0.85,4.25,3.0
1758076871.20406,1758076871.18602,0.0,0.0,0.0,-14.15206,10.02676,0.0,11.58,0.76,4.05,3.0
1758076871.20606,1758076871.19602,0.0,0.0,0.0,-16.04282,8.02141,-0.34377,11.58,0.76,4.05,3.0
1758076871.22177,1758076871.20602,0.0,0.0,0.0,-17.99088,5.21392,-1.08862,10.98,0.81,3.99,3.0
1758076871.23778,1758076871.21602,0.0,0.0,0.0,-20.51189,-2.06265,-2.40642,10.98,0.81,3.99,3.0
1758076871.23946,1758076871.22602,0.0,0.0,0.0,-22.23076,-7.62034,-3.26586,9.83,0.97,3.96,3.0
1758076871.25528,1758076871.23602,0.0,0.0,0.0,-23.94964,-13.40721,-4.0107,9.83,0.97,3.96,3.0
1758076871.25702,1758076871.24602,0.0,0.0,0.0,-25.61122,-19.19409,-4.58366,8.78,1.1,3.95,3.0
1758076871.27276,1758076871.25602,0.0,0.0,0.0,-28.36141,-28.99167,-5.32851,7.71,0.98,3.91,3.0
1758076871.28877,1758076871.26602,0.0,0.0,0.0,-29.9084,-35.98175,-5.55769,7.71,0.98,3.91,3.0
1758076871.28965,1758076871.27602,0.0,0.0,0.0,-31.45539,-42.97184,-5.15662,7.28,0.69,3.97,3.0
1758076871.30657,1758076871.28602,0.0,0.0,0.0,-32.71589,-48.9879,-3.09397,7.28,0.69,3.97,3.0
1758076871.30928,1758076871.29602,0.0,0.0,0.0,-34.14828,-54.3164,-1.3751,8.09,0.26,3.93,3.0
1758076871.32457,1758076871.30602,0.0,0.0,0.0,-35.00772,-55.6342,0.17189,8.09,0.26,3.93,3.0
1758076871.3268,1758076871.31602,0.0,0.0,0.0,-35.3515,-55.29043,1.60428,9.3,-0.23,3.82,3.0
1758076871.3436,1758076871.32602,0.0,0.0,0.0,-35.52338,-52.25375,2.92208,9.3,-0.23,3.82,3.0
1758076871.35957,1758076871.33602,0.0,0.0,0.0,-34.95043,-49.84733,3.20856,9.97,-0.43,3.49,3.0
1758076871.36067,1758076871.34602,0.0,0.0,0.0,-34.32018,-46.75336,2.63561,9.92,-0.3,3.23,3.0
1758076871.37572,1758076871.35602,0.0,0.0,0.0,-33.86181,-42.91454,1.83346,9.92,-0.3,3.23,3.0
1758076871.37786,1758076871.36602,0.0,0.0,0.0,-33.05967,-37.58603,0.0573,9.7,0.0,3.22,3.0
1758076871.39276,1758076871.37602,0.0,0.0,0.0,-32.83048,-33.74722,-0.97403,9.7,0.0,3.22,3.0
1758076871.4085,1758076871.38602,0.0,0.0,0.0,-32.88778,-29.39274,-1.71887,9.64,0.16,3.28,3.0
1758076871.40968,1758076871.39602,0.0,0.0,0.0,-33.23156,-24.98096,-1.71887,9.64,0.16,3.28,3.0
1758076871.42453,1758076871.40602,0.0,0.0,0.0,-34.60666,-17.36062,-0.68755,9.87,0.12,3.06,3.0
1758076871.42837,1758076871.41602,0.0,0.0,0.0,-35.3515,-12.2613,0.11459,9.94,0.0,2.81,3.0
1758076871.44375,1758076871.42602,0.0,0.0,0.0,-36.61201,-7.84952,1.08862,9.94,0.0,2.81,3.0
1758076871.45979,1758076871.43602,0.0,0.0,0.0,-37.52874,-4.23989,1.60428,9.58,-0.19,2.66,3.0
1758076871.4639,1758076871.44602,0.0,0.0,0.0,-39.07573,-0.0573,2.23454,9.58,-0.19,2.66,3.0
1758076871.47977,1758076871.45602,0.0,0.0,0.0,-39.70598,2.00535,2.46372,9.23,-0.3,2.45,3.0
1758076871.48074,1758076871.46602,0.0,0.0,0.0,-40.16434,4.58366,2.57831,9.23,-0.3,2.45,3.0
1758076871.49587,1758076871.47602,0.0,0.0,0.0,-40.50812,6.53172,2.86479,8.89,-0.24,2.15,3.0
1758076871.49831,1758076871.48602,0.0,0.0,0.0,-41.31026,8.70896,3.26586,8.62,-0.08,2.22,3.0
1758076871.51378,1758076871.49602,0.0,0.0,0.0,-41.88322,9.05273,3.55234,8.62,-0.08,2.22,3.0
1758076871.52978,1758076871.50602,0.0,0.0,0.0,-42.62806,8.93814,3.72423,8.37,0.1,2.26,3.0
1758076871.53075,1758076871.51602,0.0,0.0,0.0,-43.94586,8.47978,3.95341,8.37,0.1,2.26,3.0
1758076871.54578,1758076871.52602,0.0,0.0,0.0,-45.09178,7.21927,3.83882,8.37,0.05,2.35,3.0
1758076871.547,1758076871.53602,0.0,0.0,0.0,-45.49285,6.53172,3.72423,8.37,0.05,2.35,3.0
1758076871.56162,1758076871.54602,0.0,0.0,0.0,-45.55015,5.72958,3.32316,8.38,-0.18,2.28,3.0
1758076871.57781,1758076871.55602,0.0,0.0,0.0,-45.37826,4.87014,3.09397,8.38,-0.18,2.28,3.0
1758076871.57877,1758076871.56602,0.0,0.0,0.0,-44.46153,4.52637,3.03668,8.47,-0.49,2.25,3.0
1758076871.59375,1758076871.57602,0.0,0.0,0.0,-42.97184,3.83882,2.97938,8.43,-0.82,2.28,3.0
1758076871.60956,1758076871.58602,0.0,0.0,0.0,-40.85189,2.97938,3.26586,8.43,-0.82,2.28,3.0
1758076871.61077,1758076871.59602,0.0,0.0,0.0,-35.98175,1.66158,3.89611,8.27,-1.3,2.36,3.0
1758076871.62559,1758076871.60602,0.0,0.0,0.0,-32.48671,0.45837,4.0107,8.27,-1.3,2.36,3.0
1758076871.62829,1758076871.61602,0.0,0.0,0.0,-28.93437,-0.45837,3.89611,8.59,-1.5,2.24,3.0
1758076871.64389,1758076871.62602,0.0,0.0,0.0,-25.7831,-1.14592,3.55234,8.59,-1.5,2.24,3.0
1758076871.65984,1758076871.63602,0.0,0.0,0.0,-22.57454,-0.51566,3.03668,9.21,-1.36,2.34,3.0
1758076871.66077,1758076871.64602,0.0,0.0,0.0,-21.48592,0.45837,2.92208,9.57,-0.98,2.3,3.0
1758076871.67583,1758076871.65602,0.0,0.0,0.0,-21.37133,1.14592,2.7502,9.57,-0.98,2.3,3.0
1758076871.67759,1758076871.66602,0.0,0.0,0.0,-21.88699,1.71887,2.7502,9.32,-0.45,1.96,3.0
1758076871.69272,1758076871.67602,0.0,0.0,0.0,-23.31938,1.83346,2.23454,9.32,-0.45,1.96,3.0
1758076871.70871,1758076871.68602,0.0,0.0,0.0,-24.4653,1.77617,1.66158,8.98,-0.17,1.69,3.0
1758076871.70974,1758076871.69602,0.0,0.0,0.0,-25.26744,2.11994,0.57296,8.98,-0.17,1.69,3.0
1758076871.72455,1758076871.70602,0.0,0.0,0.0,-25.8404,2.40642,-1.08862,9.01,-0.22,1.64,3.0
1758076871.72769,1758076871.71602,0.0,0.0,0.0,-26.35606,2.46372,-2.00535,9.3,-0.52,1.74,3.0
1758076871.74384,1758076871.72602,0.0,0.0,0.0,-25.89769,2.29183,-2.34913,9.3,-0.52,1.74,3.0
1758076871.75961,1758076871.73602,0.0,0.0,0.0,-25.38203,1.48969,-2.00535,9.5,-0.95,1.89,3.0
1758076871.76171,1758076871.74602,0.0,0.0,0.0,-23.26209,-0.68755,0.0573,9.5,-0.95,1.89,3.0
1758076871.77768,1758076871.75602,0.0,0.0,0.0,-21.42862,-1.83346,2.23454,9.35,-1.42,1.74,3.0
1758076871.77887,1758076871.76602,0.0,0.0,0.0,-18.90761,-2.86479,4.58366,9.35,-1.42,1.74,3.0
1758076871.79385,1758076871.77602,0.0,0.0,0.0,-16.10011,-3.03668,7.21927,9.1,-1.7,1.6,3.0
1758076871.80978,1758076871.78602,0.0,0.0,0.0,-11.97482,-2.29183,9.85487,9.1,-1.7,1.36,3.0
1758076871.81164,1758076871.79602,0.0,0.0,0.0,-9.22462,-1.94806,10.8862,9.05,-1.62,1.36,3.0
1758076871.82659,1758076871.80602,0.0,0.0,0.0,-6.7609,-2.00535,11.00079,9.06,-1.34,1.3,3.0
1758076871.82786,1758076871.81602,0.0,0.0,0.0,-4.58366,-1.3751,10.54242,9.06,-1.34,1.3,3.0
1758076871.84257,1758076871.82602,0.0,0.0,0.0,-2.34913,0.57296,8.42248,9.23,-1.05,1.21,3.0
1758076871.85883,1758076871.83602,0.0,0.0,0.0,-1.14592,2.46372,6.70361,9.23,-1.05,1.21,3.0
1758076871.8919,1758076871.84602,0.0,0.0,0.0,2.63561,7.21927,0.45837,9.57,-0.92,1.48,3.0
1758076871.90781,1758076871.85602,0.0,0.0,0.0,3.66693,8.65166,-0.22918,9.57,-0.92,1.48,3.0
1758076871.90911,1758076871.86602,0.0,0.0,0.0,4.92744,12.2613,0.11459,9.77,-1.09,1.47,3.0
1758076871.9237,1758076871.87602,0.0,0.0,0.0,7.33386,21.02755,-0.40107,9.77,-1.09,1.47,3.0
1758076871.92564,1758076871.88602,0.0,0.0,0.0,9.05273,26.69983,-0.51566,9.91,-1.2,1.46,3.0
1758076871.9416,1758076871.89602,0.0,0.0,0.0,10.8862,30.02299,-0.68755,9.91,-1.2,1.46,3.0
1758076871.95883,1758076871.90602,0.0,0.0,0.0,13.98017,20.05352,-1.3751,9.36,-1.29,1.69,3.0
1758076871.95979,1758076871.91602,0.0,0.0,0.0,15.41257,6.18794,-1.3178,8.28,-1.29,1.27,3.0
1758076871.9754,1758076871.92602,0.0,0.0,0.0,15.98552,-8.42248,-1.43239,8.28,-1.29,1.27,3.0
1758076871.97812,1758076871.93602,0.0,0.0,0.0,16.95955,-22.51724,-0.22918,8.53,-1.34,1.26,3.0
1758076871.99397,1758076871.94602,0.0,0.0,0.0,15.64175,-28.76248,4.92744,8.53,-1.34,1.26,3.0
1758076872.00986,1758076871.95602,0.0,0.0,0.0,14.49583,-21.6578,7.50575,10.93,-1.28,2.15,3.0
1758076872.0118,1758076871.96602,0.0,0.0,0.0,12.89155,-11.17268,8.47978,10.93,-1.28,2.15,3.0
1758076872.02764,1758076871.97602,0.0,0.0,0.0,11.17268,-1.66158,8.59437,11.91,-0.58,2.12,3.0
1758076872.0302,1758076871.98602,0.0,0.0,0.0,8.70896,4.35448,7.62034,10.77,-0.1,2.34,3.0
1758076872.0477,1758076871.99602,0.0,0.0,0.0,6.70361,4.81285,5.84417,10.77,-0.1,2.34,3.0
1758076872.04856,1758076872.00602,0.0,0.0,0.0,4.81285,6.13065,3.72423,10.01,-0.1,2.05,3.0
1758076872.06391,1758076872.01602,0.0,0.0,0.0,3.20856,9.33921,1.83346,10.01,-0.1,2.05,3.0
1758076872.08309,1758076872.02602,0.0,0.0,0.0,1.66158,16.61578,-0.97403,10.87,-0.47,2.26,3.0
1758076872.08428,1758076872.03602,0.0,0.0,0.0,1.20321,21.7724,-1.60428,10.87,-0.47,2.26,3.0
1758076872.10117,1758076872.04602,0.0,0.0,0.0,0.34377,25.89769,-1.03132,11.89,-1.08,2.89,3.0
1758076872.10401,1758076872.05602,0.0,0.0,0.0,0.45837,26.24147,0.51566,11.89,-1.08,2.89,3.0
1758076872.12155,1758076872.06602,0.0,0.0,0.0,0.68755,26.75713,3.38045,11.85,-1.51,3.0,3.0
1758076872.12354,1758076872.07601,0.0,0.0,0.0,0.68755,29.10626,5.15662,12.38,-1.55,3.67,3.0
1758076872.13868,1758076872.08601,0.0,0.0,0.0,1.03132,31.28349,6.18794,12.38,-1.55,3.67,3.0
1758076872.14143,1758076872.09601,0.0,0.0,0.0,1.43239,33.34615,6.53172,12.51,-1.14,4.04,3.0
1758076872.1567,1758076872.10601,0.0,0.0,0.0,1.77617,35.69527,5.78687,12.51,-1.14,4.04,3.0
1758076872.15865,1758076872.11601,0.0,0.0,0.0,1.94806,35.2369,4.46907,12.67,-0.69,4.8,3.0
1758076872.17391,1758076872.12601,0.0,0.0,0.0,2.34913,33.05967,2.63561,12.67,-0.69,4.8,3.0
1758076872.18964,1758076872.13601,0.0,0.0,0.0,3.26586,29.22085,-0.74485,12.51,-0.59,4.71,3.0
1758076872.19172,1758076872.14601,0.0,0.0,0.0,3.83882,26.47065,-3.20856,12.39,-0.72,4.39,3.0
1758076872.20699,1758076872.15601,0.0,0.0,0.0,4.35448,22.57454,-4.18259,12.39,-0.72,4.39,3.0
1758076872.20783,1758076872.16601,0.0,0.0,0.0,4.87014,19.42327,-4.23989,12.22,-0.86,4.03,3.0
1758076872.22268,1758076872.17601,0.0,0.0,0.0,6.87549,15.41257,-3.60963,12.22,-0.86,4.03,3.0
1758076872.23893,1758076872.18601,0.0,0.0,0.0,9.05273,12.43318,-3.72423,11.36,-1.01,3.61,3.0
1758076872.23988,1758076872.19601,0.0,0.0,0.0,11.74564,8.02141,-4.0107,11.36,-1.01,3.61,3.0
1758076872.25786,1758076872.20601,0.0,0.0,0.0,14.72501,3.38045,-4.23989,9.59,-1.18,3.38,3.0
1758076872.25936,1758076872.21601,0.0,0.0,0.0,18.73572,-3.20856,-4.23989,8.17,-1.18,3.61,3.0
1758076872.27566,1758076872.22601,0.0,0.0,0.0,20.68378,-7.39116,-3.49504,8.17,-1.18,3.61,3.0
1758076872.27739,1758076872.23601,0.0,0.0,0.0,21.88699,-11.45916,-2.40642,7.09,-1.0,3.82,3.0
1758076872.29291,1758076872.24601,0.0,0.0,0.0,21.7724,-15.58445,-1.20321,7.09,-1.0,3.82,3.0
1758076872.30867,1758076872.25601,0.0,0.0,0.0,19.88164,-21.7724,0.45837,6.52,-0.54,3.62,3.0
1758076872.31176,1758076872.26601,0.0,0.0,0.0,17.36062,-24.80907,1.48969,6.52,-0.54,3.62,3.0
1758076872.32772,1758076872.27601,0.0,0.0,0.0,14.66772,-26.52795,2.11994,6.99,-0.01,3.48,3.0
1758076872.3294,1758076872.28601,0.0,0.0,0.0,11.91752,-27.1582,2.46372,6.99,-0.01,3.48,3.0
1758076872.34545,1758076872.29601,0.0,0.0,0.0,8.99544,-24.5226,2.34913,8.02,0.22,3.52,3.0
1758076872.34854,1758076872.30601,0.0,0.0,0.0,8.30789,-21.14215,1.3178,9.14,0.24,3.55,3.0
1758076872.36384,1758076872.31601,0.0,0.0,0.0,8.65166,-16.38659,-0.22918,9.14,0.24,3.55,3.0
1758076872.37992,1758076872.32601,0.0,0.0,0.0,11.51645,-10.94349,-3.20856,9.46,0.09,3.52,3.0
1758076872.38125,1758076872.33601,0.0,0.0,0.0,14.20935,-8.42248,-5.21392,9.46,0.09,3.52,3.0
1758076872.39597,1758076872.34601,0.0,0.0,0.0,17.87628,-4.69825,-7.39116,9.27,-0.1,3.6,3.0
1758076872.39728,1758076872.35601,0.0,0.0,0.0,21.31403,-2.34913,-8.99544,9.27,-0.1,3.6,3.0
1758076872.41194,1758076872.36601,0.0,0.0,0.0,26.06958,2.29183,-10.37054,9.49,-0.19,3.44,3.0
1758076872.42768,1758076872.37601,0.0,0.0,0.0,27.96034,5.4431,-10.94349,9.63,-0.16,3.38,3.0
1758076872.42888,1758076872.38601,0.0,0.0,0.0,28.36141,9.05273,-10.8289,9.63,-0.16,3.38,3.0
1758076872.44396,1758076872.39601,0.0,0.0,0.0,29.96569,9.62569,-10.54242,9.13,0.04,2.99,3.0
1758076872.44566,1758076872.40601,0.0,0.0,0.0,32.37212,10.71431,-8.70896,9.13,0.04,2.99,3.0
1758076872.46294,1758076872.41601,0.0,0.0,0.0,33.51803,10.19865,-7.73493,8.78,0.37,3.19,3.0
1758076872.47982,1758076872.42601,0.0,0.0,0.0,33.63263,10.94349,-6.7609,8.78,0.37,3.19,3.0
1758076872.48062,1758076872.43601,0.0,0.0,0.0,33.40344,12.08941,-5.84417,8.54,0.55,2.96,3.0
1758076872.49582,1758076872.44601,0.0,0.0,0.0,32.20023,12.83425,-4.69825,8.23,0.56,3.0,3.0
1758076872.49846,1758076872.45601,0.0,0.0,0.0,30.88243,11.22997,-4.18259,8.23,0.56,3.0,3.0
1758076872.51396,1758076872.46601,0.0,0.0,0.0,29.56462,7.73493,-3.26586,7.71,0.44,3.06,3.0
1758076872.52999,1758076872.47601,0.0,0.0,0.0,28.01764,4.64096,-2.92208,7.71,0.44,3.06,3.0
1758076872.53162,1758076872.48601,0.0,0.0,0.0,26.12688,0.74485,-2.29183,7.85,0.4,3.06,3.0
1758076872.54773,1758076872.49601,0.0,0.0,0.0,24.75178,-1.66158,-2.00535,7.85,0.4,3.06,3.0
1758076872.54945,1758076872.50601,0.0,0.0,0.0,23.31938,-4.29718,-2.23454,8.12,0.51,2.93,3.0
1758076872.5678,1758076872.51601,0.0,0.0,0.0,21.14215,-6.99009,-2.7502,8.12,0.51,2.93,3.0
1758076872.57134,1758076872.52601,0.0,0.0,0.0,19.70975,-10.59972,-3.38045,8.15,0.7,2.92,3.0
1758076872.587,1758076872.53601,0.0,0.0,0.0,17.81899,-12.77696,-4.46907,8.09,0.83,2.68,3.0
1758076872.58817,1758076872.54601,0.0,0.0,0.0,15.92823,-14.61043,-5.27121,8.09,0.83,2.68,3.0
1758076872.60292,1758076872.55601,0.0,0.0,0.0,12.60507,-16.50119,-7.04738,8.09,0.88,2.57,3.0
1758076872.61897,1758076872.56601,0.0,0.0,0.0,10.25595,-18.27736,-7.79223,8.09,0.88,2.57,3.0
1758076872.62178,1758076872.57601,0.0,0.0,0.0,8.02141,-20.34,-8.47978,8.1,0.85,2.48,3.0
1758076872.63901,1758076872.58601,0.0,0.0,0.0,5.84417,-21.94428,-9.11003,8.1,0.85,2.48,3.0
1758076872.63993,1758076872.59601,0.0,0.0,0.0,3.38045,-23.49127,-10.25595,8.3,0.78,2.56,3.0
1758076872.65497,1758076872.60601,0.0,0.0,0.0,2.7502,-23.54857,-10.8862,8.56,0.69,2.49,3.0
1758076872.65632,1758076872.61601,0.0,0.0,0.0,2.86479,-23.0329,-10.94349,8.56,0.69,2.49,3.0
1758076872.67299,1758076872.62601,0.0,0.0,0.0,3.83882,-21.7151,-10.8289,8.82,0.5,2.49,3.0
1758076872.68898,1758076872.63601,0.0,0.0,0.0,6.18794,-17.24603,-9.4538,8.82,0.5,2.49,3.0
1758076872.69026,1758076872.64601,0.0,0.0,0.0,8.02141,-14.03747,-8.136,9.15,0.24,2.37,3.0
1758076872.70471,1758076872.65601,0.0,0.0,0.0,9.62569,-10.54242,-6.7609,9.15,0.24,2.37,3.0
1758076872.7063,1758076872.66601,0.0,0.0,0.0,10.94349,-6.99009,-5.09932,9.5,0.03,2.22,3.0
1758076872.72401,1758076872.67601,0.0,0.0,0.0,12.08941,-2.34913,-2.46372,9.82,-0.03,2.25,3.0
1758076872.72569,1758076872.68601,0.0,0.0,0.0,12.49048,0.0,-1.3178,9.82,-0.03,2.25,3.0
1758076872.74276,1758076872.69601,0.0,0.0,0.0,12.54778,2.34913,-0.22918,9.94,0.11,2.24,3.0
1758076872.75888,1758076872.70601,0.0,0.0,0.0,12.37589,4.64096,0.11459,9.94,0.11,2.24,3.0
1758076872.75993,1758076872.71601,0.0,0.0,0.0,11.22997,6.53172,0.34377,9.8,0.51,2.27,3.0
1758076872.77472,1758076872.72601,0.0,0.0,0.0,10.31324,7.50575,0.34377,9.8,0.51,2.27,3.0
1758076872.77783,1758076872.73601,0.0,0.0,0.0,8.76626,8.93814,-0.34377,9.53,0.87,2.2,3.0
1758076872.79403,1758076872.74601,0.0,0.0,0.0,6.41713,9.28192,-1.14592,9.53,0.87,2.2,3.0
1758076872.79572,1758076872.75601,0.0,0.0,0.0,4.69825,7.16197,-2.00535,9.43,0.97,2.35,3.0
1758076872.81204,1758076872.76601,0.0,0.0,0.0,2.92208,4.87014,-3.49504,9.34,0.87,2.42,3.0
1758076872.82785,1758076872.77601,0.0,0.0,0.0,1.20321,3.72423,-4.35448,9.34,0.87,2.42,3.0
1758076872.82893,1758076872.78601,0.0,0.0,0.0,-0.85944,4.1253,-5.84417,9.71,0.75,2.39,3.0
1758076872.84374,1758076872.79601,0.0,0.0,0.0,-1.94806,4.52637,-6.58902,9.71,0.75,2.39,3.0
1758076872.8459,1758076872.80601,0.0,0.0,0.0,-2.6929,4.18259,-7.21927,9.78,0.71,2.31,3.0
1758076872.86172,1758076872.81601,0.0,0.0,0.0,-3.32316,2.00535,-7.44845,9.78,0.71,2.31,3.0
1758076872.87898,1758076872.82601,0.0,0.0,0.0,-4.0107,-2.29183,-7.16197,9.35,0.67,2.09,3.0
1758076872.87992,1758076872.83601,0.0,0.0,0.0,-4.0107,-4.58366,-6.7609,9.22,0.59,1.79,3.0
1758076872.895,1758076872.84601,0.0,0.0,0.0,-3.95341,-6.18794,-6.35983,9.22,0.59,1.79,3.0
1758076872.89634,1758076872.85601,0.0,0.0,0.0,-3.89611,-7.96411,-5.55769,9.34,0.67,1.67,3.0
1758076872.91303,1758076872.86601,0.0,0.0,0.0,-4.0107,-11.57375,-4.23989,9.34,0.67,1.67,3.0
1758076872.92876,1758076872.87601,0.0,0.0,0.0,-3.89611,-13.80828,-3.26586,9.33,0.72,1.7,3.0
1758076872.92996,1758076872.88601,0.0,0.0,0.0,-4.18259,-15.98552,-2.11994,9.33,0.72,1.7,3.0
1758076872.94499,1758076872.89601,0.0,0.0,0.0,-4.69825,-15.29797,-1.48969,9.36,0.73,1.75,3.0
1758076872.94594,1758076872.90601,0.0,0.0,0.0,-5.95876,-5.61499,-0.97403,10.15,0.72,2.0,3.0
1758076872.96299,1758076872.91601,0.0,0.0,0.0,-6.41713,6.87549,-0.51566,10.15,0.72,2.0,3.0
1758076872.97879,1758076872.92601,0.0,0.0,0.0,-7.33386,17.13144,-1.83346,10.58,0.66,2.29,3.0
1758076872.97994,1758076872.93601,0.0,0.0,0.0,-5.72958,17.53251,-1.3751,10.58,0.66,2.29,3.0
1758076872.99501,1758076872.94601,0.0,0.0,0.0,-6.13065,-0.11459,-3.83882,8.61,0.58,2.57,3.0
1758076872.9962,1758076872.95601,0.0,0.0,0.0,-6.13065,-5.61499,-4.18259,8.61,0.58,2.57,3.0
1758076873.01204,1758076872.96601,0.0,0.0,0.0,-6.7609,-11.80293,-4.81285,8.94,0.58,2.04,3.0
1758076873.02803,1758076872.97601,0.0,0.0,0.0,-7.84952,-18.90761,-5.78687,8.94,0.58,2.04,3.0
1758076873.02941,1758076872.98601,0.0,0.0,0.0,-7.79223,-18.73572,-7.62034,9.27,0.56,1.8,3.0
1758076873.04375,1758076872.99601,0.0,0.0,0.0,-6.8182,-11.80293,-8.99544,10.6,0.56,2.69,3.0
1758076873.06006,1758076873.00601,0.0,0.0,0.0,-4.92744,-1.20321,-9.22462,10.6,0.56,2.69,3.0
1758076873.06183,1758076873.01601,0.0,0.0,0.0,-2.57831,6.53172,-7.04738,10.67,0.36,2.18,3.0
1758076873.07706,1758076873.02601,0.0,0.0,0.0,-1.48969,7.67763,-5.21392,10.67,0.36,2.18,3.0
1758076873.07797,1758076873.03601,0.0,0.0,0.0,-1.3178,10.59972,-3.32316,9.85,0.22,1.62,3.0
1758076873.09275,1758076873.04601,0.0,0.0,0.0,-1.60428,15.35527,-1.83346,9.85,0.22,1.62,3.0
1758076873.10905,1758076873.05601,0.0,0.0,0.0,-2.23454,22.23076,0.34377,10.7,0.53,1.57,3.0
1758076873.10947,1758076873.06601,0.0,0.0,0.0,-2.86479,25.8404,1.20321,11.1,0.96,2.11,3.0
1758076873.12479,1758076873.07601,0.0,0.0,0.0,-3.55234,27.61657,1.77617,11.1,0.96,2.11,3.0
1758076873.12601,1758076873.08601,0.0,0.0,0.0,-3.95341,27.33009,2.06265,10.96,1.22,2.62,3.0
1758076873.14183,1758076873.09601,0.0,0.0,0.0,-4.23989,25.61122,1.43239,10.96,1.22,2.62,3.0
1758076873.1578,1758076873.10601,0.0,0.0,0.0,-4.29718,25.8404,0.68755,11.07,1.11,2.89,3.0
1758076873.15903,1758076873.11601,0.0,0.0,0.0,-4.35448,25.61122,-0.17189,11.07,1.11,2.89,3.0
1758076873.1738,1758076873.12601,0.0,0.0,0.0,-4.23989,24.23611,-1.03132,11.55,0.66,3.26,3.0
1758076873.18993,1758076873.13601,0.0,0.0,0.0,-4.0107,20.51189,-1.60428,12.02,0.28,3.56,3.0
1758076873.1906,1758076873.14601,0.0,0.0,0.0,-3.89611,18.50654,-1.60428,12.02,0.28,3.56,3.0
1758076873.20789,1758076873.15601,0.0,0.0,0.0,-3.55234,16.67307,-1.08862,12.68,0.18,3.75,3.0
1758076873.20983,1758076873.16601,0.0,0.0,0.0,-3.20856,12.83425,-0.57296,12.68,0.18,3.75,3.0
1758076873.2249,1758076873.17601,0.0,0.0,0.0,-3.32316,9.5684,-0.11459,12.86,0.51,4.0,3.0
1758076873.22874,1758076873.18601,0.0,0.0,0.0,-4.23989,6.35983,0.34377,12.86,0.51,4.0,3.0
1758076873.24393,1758076873.19601,0.0,0.0,0.0,-5.78687,3.38045,0.80214,12.49,1.13,4.03,3.0
1758076873.25987,1758076873.20601,0.0,0.0,0.0,-8.36518,0.17189,1.20321,12.49,1.13,4.14,3.0
1758076873.2606,1758076873.21601,0.0,0.0,0.0,-10.08406,-1.83346,1.3178,11.68,1.3,4.14,3.0
1758076873.27601,1758076873.22601,0.0,0.0,0.0,-11.97482,-4.29718,1.20321,10.53,1.0,4.24,3.0
1758076873.27695,1758076873.23601,0.0,0.0,0.0,-13.75099,-7.79223,1.03132,10.53,1.0,4.24,3.0
1758076873.2931,1758076873.24601,0.0,0.0,0.0,-16.21471,-14.72501,0.80214,9.14,0.59,4.25,3.0
1758076873.30909,1758076873.25601,0.0,0.0,0.0,-17.47521,-19.48057,0.85944,9.14,0.59,4.25,3.0
1758076873.30957,1758076873.26601,0.0,0.0,0.0,-18.16276,-24.98096,1.3751,8.06,0.32,4.22,3.0
1758076873.32513,1758076873.27601,0.0,0.0,0.0,-18.56383,-30.59595,2.63561,8.06,0.32,4.22,3.0
1758076873.32604,1758076873.28601,0.0,0.0,0.0,-18.56383,-36.7266,5.4431,7.77,0.19,4.18,3.0
1758076873.34383,1758076873.29601,0.0,0.0,0.0,-18.44924,-38.90384,7.79223,8.54,0.07,3.74,3.0
1758076873.35982,1758076873.30601,0.0,0.0,0.0,-17.76169,-39.19032,9.68299,8.54,0.07,3.74,3.0
1758076873.36058,1758076873.31601,0.0,0.0,0.0,-17.24603,-37.98711,11.28727,9.23,0.11,3.41,3.0
1758076873.37609,1758076873.32601,0.0,0.0,0.0,-16.61578,-36.38282,12.54778,9.23,0.11,3.41,3.0
1758076873.37776,1758076873.33601,0.0,0.0,0.0,-16.21471,-35.40879,12.2613,9.37,0.28,3.34,3.0
1758076873.39325,1758076873.34601,0.0,0.0,0.0,-15.98552,-34.32018,11.28727,9.37,0.28,3.34,3.0
1758076873.40882,1758076873.35601,0.0,0.0,0.0,-15.87093,-32.54401,8.42248,9.26,0.45,3.3,3.0
1758076873.40953,1758076873.36601,0.0,0.0,0.0,-16.21471,-28.01764,5.90147,9.34,0.45,3.16,3.0
1758076873.42766,1758076873.37601,0.0,0.0,0.0,-16.55848,-24.63719,3.55234,9.34,0.45,3.16,3.0
1758076873.42942,1758076873.38601,0.0,0.0,0.0,-17.18874,-21.42862,1.48969,9.44,0.22,3.09,3.0
1758076873.44493,1758076873.39601,0.0,0.0,0.0,-18.22006,-15.24068,-0.22918,9.44,0.22,3.09,3.0
1758076873.44792,1758076873.40601,0.0,0.0,0.0,-18.73572,-10.02676,-0.57296,9.54,-0.19,2.9,3.0
1758076873.46318,1758076873.41601,0.0,0.0,0.0,-18.9649,-4.46907,-0.57296,9.54,-0.19,2.9,3.0
1758076873.47886,1758076873.42601,0.0,0.0,0.0,-18.79302,-0.17189,-0.34377,9.45,-0.49,2.74,3.0
1758076873.47942,1758076873.43601,0.0,0.0,0.0,-17.81899,4.98473,1.14592,9.09,-0.49,2.66,3.0
1758076873.49794,1758076873.44601,0.0,0.0,0.0,-16.61578,7.67763,2.23454,9.09,-0.6,2.66,3.0
1758076873.49946,1758076873.45601,0.0,0.0,0.0,-15.46986,9.62569,3.26586,8.86,-0.51,2.5,3.0
1758076873.51399,1758076873.46601,0.0,0.0,0.0,-14.09476,11.57375,4.52637,8.86,-0.51,2.5,3.0
1758076873.51592,1758076873.47601,0.0,0.0,0.0,-12.43318,13.98017,6.47442,8.72,-0.23,2.55,3.0
1758076873.53117,1758076873.48601,0.0,0.0,0.0,-11.22997,14.32395,8.02141,8.72,-0.23,2.55,3.0
1758076873.54707,1758076873.49601,0.0,0.0,0.0,-10.71431,14.20935,9.62569,8.54,-0.06,2.69,3.0
1758076873.54846,1758076873.50601,0.0,0.0,0.0,-11.28727,13.80828,10.8289,8.54,-0.06,2.69,3.0
1758076873.56284,1758076873.51601,0.0,0.0,0.0,-13.17803,12.77696,11.86023,8.32,-0.11,2.75,3.0
1758076873.58013,1758076873.52601,0.0,0.0,0.0,-14.49583,12.37589,12.2613,8.36,-0.19,2.77,3.0
1758076873.58056,1758076873.53601,0.0,0.0,0.0,-15.98552,11.63104,12.60507,8.36,-0.19,2.77,3.0
1758076873.59615,1758076873.54601,0.0,0.0,0.0,-16.90226,10.31324,12.204,8.34,-0.25,2.55,3.0
1758076873.59831,1758076873.55601,0.0,0.0,0.0,-18.27736,8.70896,11.80293,8.34,-0.25,2.55,3.0
1758076873.61282,1758076873.56601,0.0,0.0,0.0,-19.36597,8.25059,10.8289,8.43,-0.27,2.53,3.0
1758076873.62922,1758076873.57601,0.0,0.0,0.0,-20.45459,7.73493,10.02676,8.43,-0.27,2.53,3.0
1758076873.62969,1758076873.58601,0.0,0.0,0.0,-21.7151,7.33386,8.136,8.43,-0.16,2.35,3.0
1758076873.64595,1758076873.59601,0.0,0.0,0.0,-22.34536,7.04738,7.21927,8.54,-0.04,2.53,3.0
1758076873.64947,1758076873.60601,0.0,0.0,0.0,-22.51724,6.24524,6.58902,8.54,-0.04,2.53,3.0
1758076873.66527,1758076873.61601,0.0,0.0,0.0,-22.28806,5.61499,6.24524,8.8,-0.07,2.52,3.0
1758076873.6661,1758076873.62601,0.0,0.0,0.0,-21.08485,5.55769,6.24524,8.8,-0.07,2.52,3.0
1758076873.6811,1758076873.63601,0.0,0.0,0.0,-20.11082,5.09932,6.70361,9.07,-0.29,2.54,3.0
1758076873.69795,1758076873.64601,0.0,0.0,0.0,-18.85031,5.32851,7.04738,9.07,-0.29,2.54,3.0
1758076873.6993,1758076873.65601,0.0,0.0,0.0,-17.58981,5.90147,7.33386,9.18,-0.58,2.44,3.0
1758076873.71395,1758076873.66601,0.0,0.0,0.0,-15.46986,6.70361,7.44845,9.13,-0.8,2.23,3.0
1758076873.72992,1758076873.67601,0.0,0.0,0.0,-14.15206,6.53172,7.44845,9.13,-0.8,2.23,3.0
1758076873.73049,1758076873.68601,0.0,0.0,0.0,-13.17803,5.84417,7.16197,8.98,-0.88,2.07,3.0
1758076873.74592,1758076873.69601,0.0,0.0,0.0,-12.14671,5.61499,6.58902,8.98,-0.88,2.07,3.0
1758076873.74751,1758076873.70601,0.0,0.0,0.0,-10.94349,4.87014,5.78687,9.01,-0.9,2.01,3.0
1758076873.76191,1758076873.71601,0.0,0.0,0.0,-10.37054,3.95341,5.50039,9.01,-0.9,2.01,3.0
1758076873.77791,1758076873.72601,0.0,0.0,0.0,-9.96947,2.92208,5.21392,9.01,-0.89,2.13,3.0
1758076873.7794,1758076873.73601,0.0,0.0,0.0,-9.4538,1.94806,5.4431,9.01,-0.89,2.13,3.0
1758076873.79393,1758076873.74601,0.0,0.0,0.0,-9.22462,0.74485,6.13065,9.05,-0.84,2.29,3.0
1758076873.79597,1758076873.75601,0.0,0.0,0.0,-8.65166,-0.17189,6.53172,8.94,-0.8,2.12,3.0
1758076873.81123,1758076873.76601,0.0,0.0,0.0,-8.0787,-0.85944,6.99009,8.94,-0.8,2.12,3.0
1758076873.82692,1758076873.77601,0.0,0.0,0.0,-6.99009,-1.48969,7.50575,8.95,-0.84,2.13,3.0
1758076873.82896,1758076873.78601,0.0,0.0,0.0,-5.55769,-2.6929,8.25059,8.95,-0.84,2.13,3.0
1758076873.84426,1758076873.79601,0.0,0.0,0.0,-3.89611,-3.38045,8.93814,9.05,-0.94,2.11,3.0
1758076873.84829,1758076873.80601,0.0,0.0,0.0,-1.94806,-3.09397,9.68299,9.05,-0.94,2.11,3.0
1758076873.86429,1758076873.81601,0.0,0.0,0.0,1.08862,-1.03132,10.08406,9.25,-1.08,1.92,3.0
1758076873.86592,1758076873.82601,0.0,0.0,0.0,3.32316,0.85944,10.08406,9.37,-1.26,1.9,3.0
1758076873.8812,1758076873.83601,0.0,0.0,0.0,5.4431,2.46372,9.62569,9.37,-1.26,1.9,3.0
1758076873.89795,1758076873.84601,0.0,0.0,0.0,7.79223,4.18259,9.05273,9.26,-1.38,1.86,3.0
1758076873.89941,1758076873.85601,0.0,0.0,0.0,11.17268,4.92744,7.84952,9.26,-1.38,1.86,3.0
1758076873.91398,1758076873.86601,0.0,0.0,0.0,13.23533,4.87014,7.16197,9.03,-1.4,1.92,3.0
1758076873.9159,1758076873.87601,0.0,0.0,0.0,15.41257,5.15662,6.47442,9.03,-1.4,1.92,3.0
1758076873.93126,1758076873.88601,0.0,0.0,0.0,17.36062,5.4431,5.95876,9.14,-1.24,2.02,3.0
1758076873.94709,1758076873.89601,0.0,0.0,0.0,19.88164,6.24524,5.50039,9.32,-1.04,2.01,3.0
1758076873.94806,1758076873.90601,0.0,0.0,0.0,21.08485,6.13065,5.4431,9.32,-1.04,2.01,3.0
1758076873.96331,1758076873.91601,0.0,0.0,0.0,22.57454,5.55769,5.50039,9.38,-0.91,1.98,3.0
1758076873.96409,1758076873.92601,0.0,0.0,0.0,23.31938,3.83882,5.50039,9.38,-0.91,1.98,3.0
1758076873.98147,1758076873.93601,0.0,0.0,0.0,24.4653,3.72423,5.27121,9.58,-0.96,1.85,3.0
1758076873.99835,1758076873.94601,0.0,0.0,0.0,25.21014,6.7609,4.46907,9.58,-0.96,1.85,3.0
1758076874.00421,1758076873.95601,0.0,0.0,0.0,26.01229,14.09476,4.98473,10.21,-1.1,1.74,3.0
1758076874.00854,1758076873.96601,0.0,0.0,0.0,26.64254,23.0329,3.55234,10.21,-1.1,1.74,3.0
1758076874.02427,1758076873.97601,0.0,0.0,0.0,28.24682,30.02299,2.92208,10.59,-1.17,1.99,3.0
1758076874.02599,1758076873.98601,0.0,0.0,0.0,29.67921,23.37668,3.66693,9.51,-1.04,2.77,3.0
1758076874.04107,1758076873.99601,0.0,0.0,0.0,28.476,10.19865,3.66693,9.51,-1.04,2.77,3.0
1758076874.058,1758076874.00601,0.0,0.0,0.0,26.75713,-17.30333,7.67763,8.56,-0.9,2.77,3.0
1758076874.05914,1758076874.01601,0.0,0.0,0.0,25.89769,-22.86102,11.63104,8.56,-0.9,2.77,3.0
1758076874.07397,1758076874.02601,0.0,0.0,0.0,23.72045,-19.99623,13.46451,10.63,-0.76,2.88,3.0
1758076874.07594,1758076874.03601,0.0,0.0,0.0,22.28806,-15.29797,14.43854,10.63,-0.76,2.88,3.0
1758076874.09278,1758076874.04601,0.0,0.0,0.0,19.48057,-4.46907,15.12609,11.27,-0.38,2.31,3.0
1758076874.1457,1758076874.05601,0.0,0.0,0.0,16.95955,2.40642,14.72501,11.49,-0.06,3.19,3.0
1758076874.15306,1758076874.06601,0.0,0.0,0.0,13.75099,7.04738,13.12073,11.49,-0.06,3.19,3.0
1758076874.15364,1758076874.07601,0.0,0.0,0.0,10.08406,10.02676,10.37054,10.99,-0.08,2.83,3.0
1758076874.15681,1758076874.08601,0.0,0.0,0.0,4.46907,13.17803,6.07335,10.99,-0.08,2.83,3.0
1758076874.15718,1758076874.09601,0.0,0.0,0.0,0.85944,15.98552,3.66693,10.99,-0.28,2.87,3.0
1758076874.15919,1758076874.10601,0.0,0.0,0.0,-1.94806,18.27736,2.00535,10.99,-0.28,2.87,3.0
1758076874.15983,1758076874.11601,0.0,0.0,0.0,-3.66693,20.97026,1.20321,11.57,-0.66,3.36,3.0
1758076874.17781,1758076874.12601,0.0,0.0,0.0,-4.18259,23.49127,0.97403,11.83,-1.07,3.91,3.0
1758076874.17923,1758076874.13601,0.0,0.0,0.0,-3.09397,22.68913,2.11994,11.83,-1.07,3.91,3.0
1758076874.19397,1758076874.14601,0.0,0.0,0.0,-1.3178,20.79837,3.55234,11.62,-1.29,4.24,3.0
1758076874.19787,1758076874.15601,0.0,0.0,0.0,0.85944,19.48057,4.98473,11.62,-1.29,4.24,3.0
1758076874.21303,1758076874.16601,0.0,0.0,0.0,4.52637,17.24603,6.07335,11.58,-1.14,4.14,3.0
1758076874.21418,1758076874.17601,0.0,0.0,0.0,6.58902,15.35527,5.84417,11.58,-1.14,4.14,3.0
1758076874.23121,1758076874.18601,0.0,0.0,0.0,8.136,13.06344,5.09932,11.28,-0.71,4.25,3.0
1758076874.24703,1758076874.19601,0.0,0.0,0.0,9.05273,10.08406,3.20856,11.28,-0.71,4.25,3.0
1758076874.24844,1758076874.20601,0.0,0.0,0.0,8.76626,5.4431,1.3178,10.8,-0.28,4.19,3.0
1758076874.26311,1758076874.21601,0.0,0.0,0.0,8.0787,3.26586,-0.85944,10.32,-0.12,3.72,3.0
1758076874.26416,1758076874.22601,0.0,0.0,0.0,7.04738,1.03132,-3.20856,10.32,-0.12,3.72,3.0
1758076874.27952,1758076874.23601,0.0,0.0,0.0,5.55769,-2.29183,-6.07335,9.57,-0.42,3.58,3.0
1758076874.29529,1758076874.24601,0.0,0.0,0.0,4.92744,-3.83882,-7.44845,9.57,-0.42,3.58,3.0
1758076874.29616,1758076874.25601,0.0,0.0,0.0,4.87014,-5.4431,-7.96411,8.66,-0.86,3.62,3.0
1758076874.31396,1758076874.26601,0.0,0.0,0.0,5.15662,-7.16197,-7.62034,8.66,-0.86,3.62,3.0
1758076874.31591,1758076874.27601,0.0,0.0,0.0,5.90147,-11.00079,-5.78687,7.92,-1.0,3.95,3.0
1758076874.33128,1758076874.28601,0.0,0.0,0.0,6.70361,-14.66772,-4.1253,7.48,-0.86,4.08,3.0
1758076874.3472,1758076874.29601,0.0,0.0,0.0,7.21927,-18.44924,-2.63561,7.48,-0.86,4.08,3.0
1758076874.35246,1758076874.30601,0.0,0.0,0.0,7.62034,-21.42862,-1.43239,7.78,-0.66,4.02,3.0
1758076874.36784,1758076874.31601,0.0,0.0,0.0,7.39116,-22.97561,-1.08862,7.78,-0.66,4.02,3.0
1758076874.40957,1758076874.32601,0.0,0.0,0.0,6.99009,-23.20479,-1.66158,8.64,-0.5,3.77,3.0
1758076874.41012,1758076874.33601,0.0,0.0,0.0,6.58902,-23.0329,-2.7502,8.64,-0.5,3.77,3.0
1758076874.41217,1758076874.34601,0.0,0.0,0.0,6.53172,-21.6578,-3.83882,9.22,-0.55,3.68,3.0
1758076874.4128,1758076874.35601,0.0,0.0,0.0,7.21927,-17.13144,-5.55769,9.58,-0.73,3.71,3.0
1758076874.41404,1758076874.36601,0.0,0.0,0.0,8.59437,-13.5791,-6.7609,9.58,-0.73,3.71,3.0
1758076874.41579,1758076874.37601,0.0,0.0,0.0,10.54242,-9.4538,-7.84952,9.37,-0.84,3.77,3.0
1758076874.43305,1758076874.38601,0.0,0.0,0.0,12.60507,-6.07335,-7.96411,9.37,-0.84,3.77,3.0
1758076874.43536,1758076874.39601,0.0,0.0,0.0,16.3293,-2.97938,-8.02141,9.07,-0.9,3.83,3.0
1758076874.45101,1758076874.40601,0.0,0.0,0.0,18.9649,-0.68755,-7.39116,9.07,-0.9,3.83,3.0
1758076874.46806,1758076874.41601,0.0,0.0,0.0,21.6578,1.94806,-6.58902,9.33,-0.9,3.75,3.0
1758076874.46924,1758076874.42601,0.0,0.0,0.0,23.94964,6.13065,-4.92744,9.33,-0.9,3.75,3.0
1758076874.48638,1758076874.43601,0.0,0.0,0.0,25.09555,8.59437,-4.0107,9.66,-0.84,3.42,3.0
1758076874.48751,1758076874.44601,0.0,0.0,0.0,26.12688,11.11538,-2.7502,9.8,-0.73,3.28,3.0
1758076874.50228,1758076874.45601,0.0,0.0,0.0,26.87172,12.49048,-1.71887,9.8,-0.73,3.28,3.0
1758076874.50398,1758076874.46601,0.0,0.0,0.0,25.7831,14.9542,0.11459,9.59,-0.54,3.45,3.0
1758076874.52131,1758076874.47601,0.0,0.0,0.0,23.60586,16.84496,1.48969,9.59,-0.54,3.45,3.0
1758076874.53794,1758076874.48601,0.0,0.0,0.0,18.73572,18.79302,1.83346,9.3,-0.39,3.1,3.0
1758076874.53927,1758076874.49601,0.0,0.0,0.0,20.22541,14.32395,1.43239,9.3,-0.39,3.1,3.0
1758076874.55407,1758076874.50601,0.0,0.0,0.0,24.00693,11.22997,2.11994,8.75,-0.16,3.0,3.0
1758076874.55597,1758076874.51601,0.0,0.0,0.0,25.55392,11.00079,1.60428,8.98,-0.05,3.59,3.0
1758076874.5713,1758076874.52601,0.0,0.0,0.0,26.47065,10.8862,0.57296,8.98,-0.05,3.59,3.0
1758076874.5873,1758076874.53601,0.0,0.0,0.0,26.98631,10.8289,-0.57296,8.91,-0.19,3.29,3.0
1758076874.58866,1758076874.54601,0.0,0.0,0.0,27.2155,7.50575,-1.20321,8.91,-0.19,3.29,3.0
1758076874.60321,1758076874.55601,0.0,0.0,0.0,28.24682,2.86479,-1.43239,8.41,-0.29,3.21,3.0
1758076874.60423,1758076874.56601,0.0,0.0,0.0,28.30412,1.43239,-1.77617,8.41,-0.29,3.21,3.0
1758076874.62053,1758076874.57601,0.0,0.0,0.0,28.07493,0.74485,-1.77617,8.63,-0.32,3.11,3.0
1758076874.63604,1758076874.58601,0.0,0.0,0.0,26.98631,-1.71887,-2.11994,8.69,-0.26,2.96,3.0
1758076874.63722,1758076874.59601,0.0,0.0,0.0,26.41335,-4.58366,-2.29183,8.69,-0.26,2.96,3.0
1758076874.65209,1758076874.60601,0.0,0.0,0.0,26.06958,-7.10468,-1.94806,8.55,-0.11,3.05,3.0
1758076874.66828,1758076874.61601,0.0,0.0,0.0,25.89769,-10.02676,-1.71887,8.55,-0.11,3.05,3.0
1758076874.6695,1758076874.62601,0.0,0.0,0.0,25.89769,-14.15206,-1.60428,8.51,0.09,2.88,3.0
1758076874.68408,1758076874.63601,0.0,0.0,0.0,25.72581,-16.21471,-1.3751,8.51,0.09,2.88,3.0
1758076874.68597,1758076874.64601,0.0,0.0,0.0,25.15285,-17.58981,-1.60428,8.57,0.32,3.03,3.0
1758076874.70132,1758076874.65601,0.0,0.0,0.0,23.60586,-19.48057,-1.71887,8.57,0.32,3.03,3.0
1758076874.71728,1758076874.66601,0.0,0.0,0.0,22.63183,-20.79837,-1.43239,8.51,0.56,2.96,3.0
1758076874.71852,1758076874.67601,0.0,0.0,0.0,21.37133,-21.14215,-1.77617,8.49,0.75,2.83,3.0
1758076874.73332,1758076874.68601,0.0,0.0,0.0,19.82434,-20.97026,-2.29183,8.49,0.75,2.83,3.0
1758076874.73451,1758076874.69601,0.0,0.0,0.0,16.84496,-19.76705,-3.95341,8.73,0.81,2.79,3.0
1758076874.7503,1758076874.70601,0.0,0.0,0.0,14.72501,-17.99088,-5.32851,8.73,0.81,2.79,3.0
1758076874.76792,1758076874.71601,0.0,0.0,0.0,12.77696,-15.92823,-6.87549,9.1,0.76,2.87,3.0
1758076874.76925,1758076874.72601,0.0,0.0,0.0,11.11538,-13.98017,-8.42248,9.1,0.76,2.87,3.0
1758076874.78432,1758076874.73601,0.0,0.0,0.0,9.22462,-10.59972,-9.62569,9.38,0.63,2.91,3.0
1758076874.78605,1758076874.74601,0.0,0.0,0.0,8.59437,-8.99544,-10.19865,9.29,0.43,2.76,3.0
1758076874.80136,1758076874.75601,0.0,0.0,0.0,8.65166,-7.73493,-10.02676,9.29,0.43,2.76,3.0
1758076874.81782,1758076874.76601,0.0,0.0,0.0,8.93814,-6.35983,-9.62569,9.11,0.22,2.59,3.0
1758076874.819,1758076874.77601,0.0,0.0,0.0,10.08406,-2.97938,-8.70896,9.11,0.22,2.59,3.0
1758076874.83402,1758076874.78601,0.0,0.0,0.0,10.8862,-0.57296,-8.0787,9.18,0.08,2.6,3.0
1758076874.83711,1758076874.79601,0.0,0.0,0.0,11.63104,1.48969,-7.44845,9.18,0.08,2.6,3.0
1758076874.85229,1758076874.80601,0.0,0.0,0.0,12.08941,4.0107,-7.16197,9.23,0.11,2.69,3.0
1758076874.86836,1758076874.81601,0.0,0.0,0.0,12.2613,6.99009,-7.21927,9.15,0.24,2.55,3.0
1758076874.87005,1758076874.82601,0.0,0.0,0.0,12.49048,8.70896,-7.39116,9.15,0.24,2.55,3.0
1758076874.88538,1758076874.83601,0.0,0.0,0.0,12.08941,10.8862,-7.84952,8.97,0.39,2.28,3.0
1758076874.88626,1758076874.84601,0.0,0.0,0.0,11.22997,11.63104,-8.42248,8.97,0.39,2.28,3.0
1758076874.9013,1758076874.85601,0.0,0.0,0.0,10.8289,10.65701,-8.25059,8.61,0.52,2.11,3.0
1758076874.91808,1758076874.86601,0.0,0.0,0.0,9.96947,10.02676,-8.02141,8.61,0.52,2.11,3.0
1758076874.9193,1758076874.87601,0.0,0.0,0.0,8.99544,10.02676,-7.39116,8.5,0.55,2.12,3.0
1758076874.93409,1758076874.88601,0.0,0.0,0.0,7.04738,8.76626,-7.10468,8.5,0.55,2.18,3.0
1758076874.93525,1758076874.89601,0.0,0.0,0.0,5.32851,7.50575,-7.33386,8.59,0.53,2.18,3.0
1758076874.95025,1758076874.90601,0.0,0.0,0.0,3.72423,5.95876,-7.39116,8.76,0.52,2.42,3.0
1758076874.96644,1758076874.91601,0.0,0.0,0.0,2.23454,5.21392,-7.44845,8.76,0.52,2.42,3.0
1758076874.96728,1758076874.92601,0.0,0.0,0.0,0.40107,4.0107,-7.67763,9.13,0.45,2.33,3.0
1758076874.98209,1758076874.93601,0.0,0.0,0.0,-0.57296,3.49504,-7.84952,9.13,0.45,2.33,3.0
1758076874.99807,1758076874.94601,0.0,0.0,0.0,-1.3751,2.11994,-8.30789,9.24,0.35,2.29,3.0
1758076874.99928,1758076874.95601,0.0,0.0,0.0,-1.60428,0.22918,-8.25059,9.24,0.35,2.29,3.0
1758076875.01409,1758076874.96601,0.0,0.0,0.0,-1.48969,-2.40642,-7.73493,9.21,0.32,2.2,3.0
1758076875.01575,1758076874.97601,0.0,0.0,0.0,-1.20321,-4.35448,-7.10468,9.29,0.36,2.14,3.0
1758076875.0304,1758076874.98601,0.0,0.0,0.0,-0.74485,-6.13065,-6.07335,9.29,0.36,2.14,3.0
1758076875.04792,1758076874.99601,0.0,0.0,0.0,-0.97403,-6.7609,-5.21392,9.49,0.41,2.04,3.0
1758076875.04909,1758076875.00601,0.0,0.0,0.0,-1.14592,-6.7609,-3.66693,9.49,0.41,2.04,3.0
1758076875.06516,1758076875.01601,0.0,0.0,0.0,-1.71887,-6.47442,-3.09397,9.89,0.46,2.02,3.0
1758076875.07199,1758076875.02601,0.0,0.0,0.0,-2.34913,-6.99009,-2.40642,9.89,0.46,2.02,3.0
1758076875.08734,1758076875.03601,0.0,0.0,0.0,-3.95341,-4.23989,-1.3751,10.05,0.6,2.2,3.0
1758076875.0885,1758076875.04601,0.0,0.0,0.0,-4.58366,0.97403,-1.03132,10.62,0.59,2.42,3.0
1758076875.10333,1758076875.05601,0.0,0.0,0.0,-5.4431,5.78687,-1.48969,10.62,0.59,2.42,3.0
1758076875.10425,1758076875.06601,0.0,0.0,0.0,-5.84417,12.2613,-1.83346,10.74,0.5,2.72,3.0
1758076875.12235,1758076875.07601,0.0,0.0,0.0,-4.18259,7.62034,0.0,10.74,0.5,2.72,3.0
1758076875.13807,1758076875.08601,0.0,0.0,0.0,-7.04738,-19.76705,-4.23989,9.16,0.8,3.36,3.0
1758076875.13928,1758076875.09601,0.0,0.0,0.0,-8.30789,-31.85646,-9.91217,9.16,0.8,3.36,3.0
1758076875.15407,1758076875.10601,0.0,0.0,0.0,-7.50575,-18.10547,-14.09476,11.02,0.85,3.75,3.0
1758076875.15528,1758076875.11601,0.0,0.0,0.0,-6.35983,0.22918,-15.87093,13.4,0.44,2.16,3.0
1758076875.17033,1758076875.12601,0.0,0.0,0.0,-6.07335,0.85944,-15.35527,13.4,0.44,2.16,3.0
1758076875.18605,1758076875.13601,0.0,0.0,0.0,-5.61499,3.66693,-13.5218,11.7,-0.08,2.97,3.0
1758076875.18727,1758076875.14601,0.0,0.0,0.0,-5.50039,10.8862,-10.71431,11.7,-0.08,2.97,3.0
1758076875.20258,1758076875.15601,0.0,0.0,0.0,-5.4431,16.95955,-5.15662,12.44,0.16,2.62,3.0
1758076875.21809,1758076875.16601,0.0,0.0,0.0,-5.09932,19.48057,-2.06265,12.44,0.16,2.62,3.0
1758076875.21931,1758076875.17601,0.0,0.0,0.0,-4.58366,21.94428,0.0,12.37,0.69,3.5,3.0
1758076875.23409,1758076875.18601,0.0,0.0,0.0,-3.72423,25.21014,1.3751,12.37,0.69,3.5,3.0
1758076875.23529,1758076875.19601,0.0,0.0,0.0,-2.7502,26.47065,1.83346,12.8,1.06,4.04,3.0
1758076875.25008,1758076875.20601,0.0,0.0,0.0,-3.03668,23.89234,1.3751,11.98,1.26,4.19,3.0
1758076875.26611,1758076875.21601,0.0,0.0,0.0,-4.29718,21.02755,0.51566,11.98,1.26,4.19,3.0
1758076875.26809,1758076875.22601,0.0,0.0,0.0,-6.18794,17.99088,-0.57296,11.23,1.28,4.0,3.0
1758076875.28324,1758076875.23601,0.0,0.0,0.0,-10.25595,11.91752,-0.97403,11.23,1.28,4.0,3.0
1758076875.28454,1758076875.24601,0.0,0.0,0.0,-13.23533,7.39116,-1.20321,10.41,1.04,4.23,3.0
1758076875.30137,1758076875.25601,0.0,0.0,0.0,-16.21471,3.32316,-1.08862,10.41,1.04,4.23,3.0
1758076875.31738,1758076875.26601,0.0,0.0,0.0,-19.59516,-2.97938,-0.51566,9.7,0.73,4.36,3.0
1758076875.31829,1758076875.27601,0.0,0.0,0.0,-21.42862,-9.22462,-0.11459,8.65,0.62,4.36,3.0
1758076875.33338,1758076875.28601,0.0,0.0,0.0,-22.34536,-15.98552,0.22918,8.65,0.62,4.36,3.0
1758076875.33431,1758076875.29601,0.0,0.0,0.0,-22.74642,-23.20479,1.14592,7.82,0.62,4.19,3.0
1758076875.35136,1758076875.30601,0.0,0.0,0.0,-22.28806,-33.17426,3.09397,7.82,0.62,4.19,3.0
1758076875.36736,1758076875.31601,0.0,0.0,0.0,-21.42862,-38.84654,4.64096,7.93,0.55,3.94,3.0
1758076875.36831,1758076875.32601,0.0,0.0,0.0,-20.16812,-42.85724,6.13065,7.93,0.55,3.94,3.0
1758076875.38428,1758076875.33601,0.0,0.0,0.0,-18.79302,-44.86259,7.10468,8.63,0.31,3.78,3.0
1758076875.38593,1758076875.34601,0.0,0.0,0.0,-17.13144,-44.51882,7.73493,9.34,0.24,3.69,3.0
1758076875.40337,1758076875.35601,0.0,0.0,0.0,-16.50119,-43.65939,7.33386,9.34,0.24,3.69,3.0
1758076875.406,1758076875.36601,0.0,0.0,0.0,-16.272,-42.05511,6.47442,9.67,0.27,3.89,3.0
1758076875.423,1758076875.37601,0.0,0.0,0.0,-16.10011,-39.87786,5.21392,9.67,0.27,3.89,3.0
1758076875.42654,1758076875.38601,0.0,0.0,0.0,-17.47521,-36.61201,2.97938,9.78,0.22,3.88,3.0
1758076875.44523,1758076875.39601,0.0,0.0,0.0,-18.73572,-33.86181,1.60428,9.78,0.22,3.88,3.0
1758076875.44645,1758076875.40601,0.0,0.0,0.0,-20.34,-30.82513,0.51566,9.62,0.22,3.72,3.0
1758076875.46118,1758076875.41601,0.0,0.0,0.0,-21.48592,-26.98631,0.22918,9.62,0.22,3.72,3.0
1758076875.47813,1758076875.42601,0.0,0.0,0.0,-22.51724,-20.62648,0.80214,9.35,0.22,3.23,3.0
1758076875.47936,1758076875.43601,0.0,0.0,0.0,-22.57454,-16.61578,1.43239,9.06,0.09,2.87,3.0
1758076875.49412,1758076875.44601,0.0,0.0,0.0,-21.7151,-12.204,2.11994,9.06,0.09,2.87,3.0
1758076875.49528,1758076875.45601,0.0,0.0,0.0,-19.88164,-5.72958,2.97938,9.07,-0.08,2.9,3.0
1758076875.51018,1758076875.46601,0.0,0.0,0.0,-18.27736,-2.6929,3.32316,9.07,-0.08,2.9,3.0
1758076875.52609,1758076875.47601,0.0,0.0,0.0,-17.18874,0.17189,3.60963,9.03,-0.12,2.98,3.0
1758076875.52734,1758076875.48601,0.0,0.0,0.0,-16.50119,2.97938,3.83882,9.03,-0.12,2.98,3.0
1758076875.5421,1758076875.49601,0.0,0.0,0.0,-16.95955,6.99009,3.89611,9.07,-0.05,2.85,3.0
1758076875.54413,1758076875.50601,0.0,0.0,0.0,-18.73572,9.4538,4.1253,9.05,0.05,2.55,3.0
1758076875.56322,1758076875.51601,0.0,0.0,0.0,-20.3973,11.51645,3.95341,9.05,0.05,2.55,3.0
1758076875.56488,1758076875.52601,0.0,0.0,0.0,-22.40265,13.12073,3.83882,8.87,0.12,2.55,3.0
1758076875.58274,1758076875.53601,0.0,0.0,0.0,-24.98096,15.75634,3.60963,8.87,0.12,2.55,3.0
1758076875.59816,1758076875.54601,0.0,0.0,0.0,-26.35606,17.36062,3.95341,8.63,0.07,2.3,3.0
1758076875.59936,1758076875.55601,0.0,0.0,0.0,-27.1582,17.81899,3.95341,8.63,0.07,2.3,3.0
1758076875.61777,1758076875.56601,0.0,0.0,0.0,-27.38738,18.33465,3.89611,8.28,-0.03,2.52,3.0
1758076875.61893,1758076875.57601,0.0,0.0,0.0,-25.49662,18.90761,3.20856,8.02,-0.15,2.25,3.0
1758076875.63418,1758076875.58601,0.0,0.0,0.0,-24.5226,18.79302,3.26586,8.02,-0.15,2.25,3.0
1758076875.63535,1758076875.59601,0.0,0.0,0.0,-22.74642,17.76169,3.03668,8.11,-0.25,2.67,3.0
1758076875.65114,1758076875.60601,0.0,0.0,0.0,-21.48592,16.04282,2.63561,8.11,-0.25,2.67,3.0
1758076875.66717,1758076875.61601,0.0,0.0,0.0,-19.53786,12.83425,1.94806,8.18,-0.32,2.67,3.0
1758076875.66863,1758076875.62601,0.0,0.0,0.0,-18.62113,11.86023,1.71887,8.18,-0.32,2.67,3.0
1758076875.68347,1758076875.63601,0.0,0.0,0.0,-17.36062,11.28727,1.66158,8.37,-0.43,2.3,3.0
1758076875.68471,1758076875.64601,0.0,0.0,0.0,-16.38659,10.71431,2.11994,8.37,-0.43,2.3,3.0
1758076875.70144,1758076875.65601,0.0,0.0,0.0,-16.04282,10.65701,2.34913,8.6,-0.59,2.06,3.0
1758076875.71739,1758076875.66601,0.0,0.0,0.0,-15.92823,10.19865,2.97938,8.68,-0.7,1.96,3.0
1758076875.71834,1758076875.67601,0.0,0.0,0.0,-15.69904,9.96947,3.60963,8.68,-0.7,1.96,3.0
1758076875.73342,1758076875.68601,0.0,0.0,0.0,-15.87093,9.11003,4.0107,8.58,-0.67,1.94,3.0
1758076875.73433,1758076875.69601,0.0,0.0,0.0,-15.98552,8.76626,4.29718,8.58,-0.67,1.94,3.0
1758076875.75014,1758076875.70601,0.0,0.0,0.0,-15.87093,7.96411,4.46907,8.63,-0.5,2.11,3.0
1758076875.76647,1758076875.71601,0.0,0.0,0.0,-15.87093,7.21927,4.35448,8.63,-0.5,2.11,3.0
1758076875.76815,1758076875.72601,0.0,0.0,0.0,-15.46986,6.58902,3.55234,8.93,-0.35,2.39,3.0
1758076875.78345,1758076875.73601,0.0,0.0,0.0,-14.83961,6.87549,2.92208,9.41,-0.4,2.45,3.0
1758076875.78475,1758076875.74601,0.0,0.0,0.0,-13.98017,6.99009,2.29183,9.41,-0.4,2.45,3.0
1758076875.80366,1758076875.75601,0.0,0.0,0.0,-12.77696,6.70361,2.00535,9.65,-0.56,2.43,3.0
1758076875.8044,1758076875.76601,0.0,0.0,0.0,-10.8862,4.52637,1.71887,9.65,-0.56,2.43,3.0
1758076875.82042,1758076875.77601,0.0,0.0,0.0,-9.85487,2.57831,1.66158,9.51,-0.71,2.28,3.0
1758076875.83649,1758076875.78601,0.0,0.0,0.0,-8.99544,0.40107,1.43239,9.51,-0.71,2.28,3.0
1758076875.83897,1758076875.79601,0.0,0.0,0.0,-8.47978,-1.20321,1.43239,9.31,-0.75,2.11,3.0
1758076875.85413,1758076875.80601,0.0,0.0,0.0,-7.79223,-4.1253,1.83346,9.04,-0.7,2.08,3.0
1758076875.85536,1758076875.81601,0.0,0.0,0.0,-6.99009,-2.97938,2.6929,9.04,-0.7,2.08,3.0
1758076875.87043,1758076875.82601,0.0,0.0,0.0,-6.18794,-0.51566,3.55234,9.12,-0.72,1.91,3.0
1758076875.88826,1758076875.83601,0.0,0.0,0.0,-5.21392,2.40642,4.0107,9.12,-0.72,1.91,3.0
1758076875.88915,1758076875.84601,0.0,0.0,0.0,-3.09397,4.0107,4.87014,8.85,-0.8,1.96,3.0
1758076875.90828,1758076875.85601,0.0,0.0,0.0,-1.03132,3.38045,5.21392,8.85,-0.8,1.96,3.0
1758076875.90917,1758076875.86601,0.0,0.0,0.0,1.3178,2.57831,5.27121,8.74,-0.97,2.2,3.0
1758076875.92621,1758076875.87601,0.0,0.0,0.0,5.15662,0.22918,4.81285,8.74,-0.97,2.2,3.0
1758076875.92772,1758076875.88601,0.0,0.0,0.0,7.96411,-2.40642,4.23989,9.02,-1.16,1.94,3.0
1758076875.94326,1758076875.89601,0.0,0.0,0.0,10.25595,-5.78687,3.03668,9.15,-1.19,1.77,3.0
1758076875.94443,1758076875.90601,0.0,0.0,0.0,11.86023,-7.67763,2.23454,9.15,-1.19,1.77,3.0
1758076875.96127,1758076875.91601,0.0,0.0,0.0,14.15206,-4.92744,0.57296,9.66,-0.97,1.53,3.0
1758076875.97801,1758076875.92601,0.0,0.0,0.0,14.32395,-0.57296,-0.22918,9.66,-0.97,1.53,3.0
1758076875.97974,1758076875.93601,0.0,0.0,0.0,14.43854,2.57831,-0.85944,10.18,-0.64,1.78,3.0
1758076875.99414,1758076875.94601,0.0,0.0,0.0,14.20935,5.61499,-1.14592,10.18,-0.64,1.78,3.0
1758076875.99566,1758076875.95601,0.0,0.0,0.0,13.69369,8.02141,-1.3178,10.03,-0.48,2.12,3.0
1758076876.01015,1758076875.96601,0.0,0.0,0.0,13.34992,8.76626,-1.03132,9.81,-0.65,2.32,3.0
1758076876.0274,1758076875.97601,0.0,0.0,0.0,12.49048,9.39651,-1.3178,9.81,-0.65,2.32,3.0
1758076876.02834,1758076875.98601,0.0,0.0,0.0,10.8862,13.00614,0.34377,10.41,-0.58,3.07,3.0
1758076876.04333,1758076875.99601,0.0,0.0,0.0,7.04738,10.8862,2.06265,10.41,-0.58,3.07,3.0
1758076876.05099,1758076876.00601,0.0,0.0,0.0,5.21392,2.92208,4.29718,10.48,-0.11,3.7,3.0
1758076876.06843,1758076876.01601,0.0,0.0,0.0,2.86479,-2.34913,6.07335,10.48,-0.11,3.7,3.0
1758076876.06939,1758076876.02601,0.0,0.0,0.0,1.48969,-5.84417,8.93814,10.78,-0.01,3.04,3.0
1758076876.08415,1758076876.03601,0.0,0.0,0.0,-0.74485,-3.26586,10.37054,11.63,-0.28,3.04,3.0
1758076876.08539,1758076876.04601,0.0,0.0,0.0,-1.3178,-2.29183,10.31324,11.63,-0.28,3.04,3.0
1758076876.10045,1758076876.05601,0.0,0.0,0.0,-1.48969,-3.38045,10.19865,10.91,-0.31,2.99,3.0
1758076876.11647,1758076876.06601,0.0,0.0,0.0,-2.6929,-2.11994,9.91217,10.91,-0.31,2.99,3.0
1758076876.1174,1758076876.07601,0.0,0.0,0.0,-4.81285,3.66693,8.36518,11.11,-0.37,4.17,3.0
1758076876.13326,1758076876.08601,0.0,0.0,0.0,-7.10468,5.78687,6.13065,11.11,-0.37,4.17,3.0
1758076876.13441,1758076876.09601,0.0,0.0,0.0,-9.4538,6.13065,3.66693,11.07,-0.47,4.24,3.0
1758076876.15016,1758076876.10601,0.0,0.0,0.0,-12.14671,7.10468,0.68755,11.07,-0.47,4.24,3.0
1758076876.16747,1758076876.11601,0.0,0.0,0.0,-13.17803,8.99544,-1.03132,12.0,-0.53,4.58,3.0
1758076876.1686,1758076876.12601,0.0,0.0,0.0,-13.00614,10.71431,-2.40642,13.4,-0.69,4.85,3.0
1758076876.18344,1758076876.13601,0.0,0.0,0.0,-11.22997,11.80293,-3.26586,13.4,-0.69,4.85,3.0
1758076876.18462,1758076876.14601,0.0,0.0,0.0,-6.35983,10.65701,-3.66693,13.44,-0.74,5.09,3.0
1758076876.20343,1758076876.15601,0.0,0.0,0.0,-2.29183,8.42248,-3.60963,13.44,-0.74,5.09,3.0
1758076876.20493,1758076876.16601,0.0,0.0,0.0,1.77617,6.53172,-3.49504,12.25,-0.55,4.75,3.0
1758076876.22053,1758076876.17601,0.0,0.0,0.0,5.78687,4.0107,-2.57831,12.25,-0.55,4.75,3.0
1758076876.23633,1758076876.18601,0.0,0.0,0.0,10.54242,1.3178,-1.3751,10.85,-0.41,4.18,3.0
1758076876.23858,1758076876.19601,0.0,0.0,0.0,12.89155,-0.45837,-1.20321,9.36,-0.48,3.69,3.0
1758076876.25327,1758076876.20601,0.0,0.0,0.0,14.49583,-1.66158,-1.3178,9.36,-0.48,3.69,3.0
1758076876.2549,1758076876.21601,0.0,0.0,0.0,15.64175,-3.03668,-1.43239,8.04,-0.63,3.21,3.0
1758076876.27258,1758076876.22601,0.0,0.0,0.0,16.04282,-5.95876,-1.71887,8.04,-0.63,3.21,3.0
1758076876.28852,1758076876.23601,0.0,0.0,0.0,15.87093,-9.05273,-1.60428,7.09,-0.69,3.05,3.0
1758076876.28946,1758076876.24601,0.0,0.0,0.0,15.64175,-13.06344,-0.85944,7.09,-0.69,3.05,3.0
1758076876.30711,1758076876.25601,0.0,0.0,0.0,14.9542,-16.84496,-0.0573,6.79,-0.57,3.24,3.0
1758076876.31173,1758076876.26601,0.0,0.0,0.0,13.75099,-20.97026,1.3751,7.45,-0.36,3.33,3.0
1758076876.32737,1758076876.27601,0.0,0.0,0.0,13.5218,-21.7724,2.29183,7.45,-0.36,3.33,3.0
1758076876.32905,1758076876.28601,0.0,0.0,0.0,13.86558,-21.08485,3.03668,8.52,-0.22,3.25,3.0
1758076876.34613,1758076876.29601,0.0,0.0,0.0,15.98552,-17.99088,3.95341,8.52,-0.22,3.25,3.0
1758076876.34775,1758076876.30601,0.0,0.0,0.0,18.50654,-13.80828,3.95341,9.34,-0.18,3.22,3.0
1758076876.36305,1758076876.31601,0.0,0.0,0.0,21.31403,-8.88085,3.72423,9.34,-0.18,3.22,3.0
1758076876.36507,1758076876.32601,0.0,0.0,0.0,24.35071,-3.60963,3.83882,9.6,-0.12,3.08,3.0
1758076876.3815,1758076876.33601,0.0,0.0,0.0,28.76248,2.29183,3.83882,9.6,-0.12,3.21,3.0
1758076876.39826,1758076876.34601,0.0,0.0,0.0,31.45539,5.32851,3.72423,9.32,-0.09,3.21,3.0
1758076876.40265,1758076876.35601,0.0,0.0,0.0,33.68992,8.88085,3.55234,9.45,-0.11,3.13,3.0
1758076876.41824,1758076876.36601,0.0,0.0,0.0,35.2369,12.204,3.09397,9.45,-0.11,3.13,3.0
1758076876.41944,1758076876.37601,0.0,0.0,0.0,37.12767,16.50119,2.06265,9.8,-0.19,3.02,3.0
1758076876.43429,1758076876.38601,0.0,0.0,0.0,37.81522,18.33465,1.60428,9.8,-0.19,3.02,3.0
1758076876.43545,1758076876.39601,0.0,0.0,0.0,38.78925,18.56383,0.68755,9.84,-0.31,2.93,3.0
1758076876.45229,1758076876.40601,0.0,0.0,0.0,39.70598,18.50654,0.0,9.84,-0.31,2.93,3.0
1758076876.46829,1758076876.41601,0.0,0.0,0.0,41.36755,19.36597,-0.97403,9.61,-0.24,2.95,3.0
1758076876.46941,1758076876.42601,0.0,0.0,0.0,42.39888,19.07949,-1.3178,9.49,-0.04,2.95,3.0
1758076876.48419,1758076876.43601,0.0,0.0,0.0,43.83128,18.79302,-1.3751,9.49,-0.04,2.95,3.0
1758076876.48567,1758076876.44601,0.0,0.0,0.0,44.86259,16.50119,-0.57296,9.0,0.16,3.13,3.0
1758076876.50128,1758076876.45601,0.0,0.0,0.0,46.35228,10.37054,0.97403,9.0,0.16,3.13,3.0
1758076876.51747,1758076876.46601,0.0,0.0,0.0,47.03984,7.33386,2.40642,8.56,0.33,3.01,3.0
1758076876.51842,1758076876.47601,0.0,0.0,0.0,47.38361,4.98473,3.66693,8.56,0.33,3.01,3.0
1758076876.53348,1758076876.48601,0.0,0.0,0.0,46.69606,2.63561,5.55769,8.7,0.46,2.95,3.0
1758076876.53522,1758076876.49601,0.0,0.0,0.0,45.89392,-1.66158,6.53172,8.57,0.5,3.09,3.0
1758076876.55225,1758076876.50601,0.0,0.0,0.0,44.748,-4.52637,7.33386,8.57,0.5,3.09,3.0
1758076876.56848,1758076876.51601,0.0,0.0,0.0,43.20102,-7.67763,7.79223,8.47,0.56,3.25,3.0
1758076876.56943,1758076876.52601,0.0,0.0,0.0,40.33623,-11.51645,8.02141,8.47,0.56,3.25,3.0
1758076876.58803,1758076876.53601,0.0,0.0,0.0,38.1017,-13.5218,7.84952,8.39,0.66,3.08,3.0
1758076876.59029,1758076876.54601,0.0,0.0,0.0,35.52338,-15.69904,7.62034,8.39,0.66,3.08,3.0
1758076876.63399,1758076876.55601,0.0,0.0,0.0,32.71589,-17.6471,7.16197,8.35,0.85,2.91,3.0
1758076876.63922,1758076876.56601,0.0,0.0,0.0,28.70519,-20.11082,6.18794,8.38,0.85,2.67,3.0
1758076876.64245,1758076876.57601,0.0,0.0,0.0,25.8404,-20.74107,5.21392,8.38,1.11,2.67,3.0
1758076876.6453,1758076876.58601,0.0,0.0,0.0,22.97561,-21.48592,3.83882,8.43,1.27,2.58,3.0
1758076876.64915,1758076876.59601,0.0,0.0,0.0,20.45459,-22.68913,2.11994,8.43,1.27,2.58,3.0
1758076876.65006,1758076876.60601,0.0,0.0,0.0,17.76169,-23.20479,-0.51566,8.29,1.24,2.42,3.0
1758076876.66654,1758076876.61601,0.0,0.0,0.0,16.55848,-22.68913,-2.34913,8.29,1.24,2.42,3.0
1758076876.66779,1758076876.62601,0.0,0.0,0.0,15.92823,-22.28806,-3.66693,8.41,0.99,2.7,3.0
1758076876.68232,1758076876.63601,0.0,0.0,0.0,15.75634,-21.25674,-4.69825,8.41,0.99,2.7,3.0
1758076876.69856,1758076876.64601,0.0,0.0,0.0,16.21471,-18.27736,-5.15662,8.6,0.61,2.58,3.0
1758076876.6998,1758076876.65601,0.0,0.0,0.0,16.84496,-16.10011,-4.69825,8.95,0.25,2.56,3.0
1758076876.7143,1758076876.66601,0.0,0.0,0.0,17.36062,-13.40721,-4.0107,8.95,0.25,2.56,3.0
1758076876.71631,1758076876.67601,0.0,0.0,0.0,17.93358,-10.59972,-2.86479,9.07,0.07,2.26,3.0
1758076876.73155,1758076876.68601,0.0,0.0,0.0,18.62113,-5.78687,-1.83346,9.07,0.07,2.26,3.0
1758076876.74742,1758076876.69601,0.0,0.0,0.0,18.90761,-2.46372,-1.03132,9.13,0.15,2.16,3.0
1758076876.74849,1758076876.70601,0.0,0.0,0.0,18.73572,0.0573,-0.40107,9.13,0.15,2.16,3.0
1758076876.76357,1758076876.71601,0.0,0.0,0.0,17.93358,4.0107,0.22918,9.02,0.37,1.95,3.0
1758076876.76525,1758076876.72601,0.0,0.0,0.0,17.13144,6.24524,0.17189,9.1,0.62,1.98,3.0
1758076876.78157,1758076876.73601,0.0,0.0,0.0,15.98552,7.79223,0.17189,9.1,0.62,1.98,3.0
1758076876.79757,1758076876.74601,0.0,0.0,0.0,14.61043,9.33921,0.0573,9.21,0.76,2.04,3.0
1758076876.79924,1758076876.75601,0.0,0.0,0.0,12.204,10.19865,-0.0573,9.21,0.76,2.04,3.0
1758076876.8145,1758076876.76601,0.0,0.0,0.0,10.65701,9.96947,0.11459,9.32,0.78,2.24,3.0
1758076876.81549,1758076876.77601,0.0,0.0,0.0,8.76626,11.57375,-0.11459,9.32,0.78,2.24,3.0
1758076876.83051,1758076876.78601,0.0,0.0,0.0,6.8182,13.12073,-0.11459,9.5,0.73,2.33,3.0
1758076876.84753,1758076876.79601,0.0,0.0,0.0,3.95341,13.98017,-0.85944,9.28,0.73,2.38,3.0
1758076876.84875,1758076876.80601,0.0,0.0,0.0,2.06265,12.2613,-1.71887,9.28,0.73,2.38,3.0
1758076876.8633,1758076876.81601,0.0,0.0,0.0,0.22918,10.31324,-2.34913,8.93,0.77,2.22,3.0
1758076876.88156,1758076876.82601,0.0,0.0,0.0,-1.48969,9.22462,-3.49504,8.93,0.77,2.22,3.0
1758076876.88227,1758076876.83601,0.0,0.0,0.0,-3.83882,7.04738,-4.58366,9.06,0.77,1.98,3.0
1758076876.89855,1758076876.84601,0.0,0.0,0.0,-4.87014,4.98473,-5.21392,9.06,0.77,1.98,3.0
1758076876.89951,1758076876.85601,0.0,0.0,0.0,-5.50039,1.60428,-5.27121,9.15,0.68,1.63,3.0
1758076876.91659,1758076876.86601,0.0,0.0,0.0,-6.07335,-1.43239,-5.15662,9.15,0.68,1.63,3.0
1758076876.91756,1758076876.87601,0.0,0.0,0.0,-5.15662,-5.72958,-4.46907,9.31,0.44,1.67,3.0
1758076876.93258,1758076876.88601,0.0,0.0,0.0,-3.38045,-8.30789,-3.83882,9.45,0.2,1.73,3.0
1758076876.94832,1758076876.89601,0.0,0.0,0.0,-1.94806,-10.37054,-3.38045,9.45,0.2,1.73,3.0
1758076876.94967,1758076876.90601,0.0,0.0,0.0,0.57296,-11.28727,-2.46372,9.83,0.2,1.89,3.0
1758076876.9646,1758076876.91601,0.0,0.0,0.0,2.11994,-9.85487,-2.23454,9.83,0.2,1.89,3.0
1758076876.9663,1758076876.92601,0.0,0.0,0.0,3.38045,-7.84952,-2.06265,10.29,0.26,2.26,3.0
1758076876.98228,1758076876.93601,0.0,0.0,0.0,3.32316,-2.06265,-2.06265,10.29,0.26,2.26,3.0
1758076876.99832,1758076876.94601,0.0,0.0,0.0,0.97403,7.84952,-1.77617,11.04,0.83,2.64,3.0
1758076876.99951,1758076876.95601,0.0,0.0,0.0,2.92208,-3.55234,-2.34913,10.0,1.09,3.37,3.0
1758076877.01427,1758076876.96601,0.0,0.0,0.0,-0.57296,-9.28192,-8.88085,10.0,1.09,3.37,3.0
1758076877.01852,1758076876.97601,0.0,0.0,0.0,-1.48969,-4.92744,-11.45916,11.82,0.73,3.76,3.0
1758076877.03357,1758076876.98601,0.0,0.0,0.0,-3.95341,2.7502,-15.35527,11.82,0.73,3.76,3.0
1758076877.03558,1758076876.99601,0.0,0.0,0.0,-5.21392,5.09932,-15.75634,12.3,0.42,2.14,3.0
1758076877.05255,1758076877.00601,0.0,0.0,0.0,-6.70361,5.09932,-15.64175,12.3,0.42,2.14,3.0
1758076877.06859,1758076877.01601,0.0,0.0,0.0,-7.79223,5.61499,-13.75099,11.7,0.39,3.14,3.0
1758076877.06949,1758076877.02601,0.0,0.0,0.0,-8.65166,9.39651,-9.68299,12.23,0.95,2.96,3.0
1758076877.08531,1758076877.03601,0.0,0.0,0.0,-8.42248,12.89155,-6.41713,12.23,0.95,2.96,3.0
1758076877.08651,1758076877.04601,0.0,0.0,0.0,-7.73493,14.49583,-3.55234,12.69,1.41,3.42,3.0
1758076877.1014,1758076877.05601,0.0,0.0,0.0,-6.99009,16.21471,-1.94806,12.69,1.41,3.42,3.0
1758076877.11838,1758076877.06601,0.0,0.0,0.0,-6.70361,18.16276,-1.3751,12.92,1.29,3.66,3.0
1758076877.11963,1758076877.07601,0.0,0.0,0.0,-7.33386,15.98552,-1.83346,12.92,1.29,3.66,3.0
1758076877.13458,1758076877.08601,0.0,0.0,0.0,-8.47978,11.86023,-2.7502,12.25,0.88,3.87,3.0
1758076877.13798,1758076877.09601,0.0,0.0,0.0,-10.08406,7.16197,-3.89611,12.25,0.88,3.87,3.0
1758076877.15333,1758076877.10601,0.0,0.0,0.0,-13.46451,-1.48969,-4.81285,11.19,0.6,3.7,3.0
1758076877.15555,1758076877.11601,0.0,0.0,0.0,-15.75634,-7.33386,-5.4431,9.97,0.77,3.47,3.0
1758076877.17174,1758076877.12601,0.0,0.0,0.0,-18.16276,-12.2613,-5.95876,9.97,0.77,3.47,3.0
1758076877.18838,1758076877.13601,0.0,0.0,0.0,-21.08485,-19.19409,-6.7609,8.96,1.12,3.58,3.0
1758076877.18935,1758076877.14601,0.0,0.0,0.0,-22.34536,-24.63719,-7.21927,8.96,1.12,3.58,3.0
1758076877.20455,1758076877.15601,0.0,0.0,0.0,-22.91831,-30.65324,-7.84952,7.86,1.29,3.74,3.0
1758076877.2114,1758076877.16601,0.0,0.0,0.0,-22.91831,-37.47144,-8.30789,7.86,1.29,3.74,3.0
1758076877.22666,1758076877.17601,0.0,0.0,0.0,-21.88699,-47.72739,-8.47978,7.1,1.21,3.85,3.0
1758076877.22755,1758076877.18601,0.0,0.0,0.0,-21.25674,-52.71212,-8.25059,7.28,0.92,3.61,3.0
1758076877.24341,1758076877.19601,0.0,0.0,0.0,-20.51189,-55.86338,-7.33386,7.28,0.92,3.61,3.0
1758076877.24433,1758076877.20601,0.0,0.0,0.0,-20.11082,-56.37905,-6.35983,8.27,0.52,3.33,3.0
1758076877.26254,1758076877.21601,0.0,0.0,0.0,-20.85567,-54.25911,-5.21392,8.27,0.52,3.33,3.0
1758076877.27855,1758076877.22601,0.0,0.0,0.0,-22.28806,-52.25375,-4.64096,9.11,0.22,3.24,3.0
1758076877.27953,1758076877.23601,0.0,0.0,0.0,-24.17882,-49.96192,-4.29718,9.11,0.22,3.24,3.0
1758076877.29902,1758076877.24601,0.0,0.0,0.0,-26.18417,-47.32632,-4.35448,9.48,0.16,3.06,3.0
1758076877.30161,1758076877.25601,0.0,0.0,0.0,-29.22085,-41.31026,-5.09932,9.82,0.3,3.02,3.0
1758076877.31628,1758076877.26601,0.0,0.0,0.0,-30.93972,-36.32552,-5.72958,9.82,0.3,3.02,3.0
1758076877.31755,1758076877.27601,0.0,0.0,0.0,-32.20023,-31.28349,-6.70361,9.92,0.49,2.98,3.0
1758076877.33237,1758076877.28601,0.0,0.0,0.0,-32.88778,-25.7831,-7.21927,9.92,0.49,2.98,3.0
1758076877.34834,1758076877.29601,0.0,0.0,0.0,-32.83048,-18.16276,-7.10468,9.84,0.62,2.85,3.0
1758076877.35223,1758076877.30601,0.0,0.0,0.0,-32.14294,-12.54778,-6.8182,9.84,0.62,2.85,3.0
1758076877.36813,1758076877.31601,0.0,0.0,0.0,-31.11161,-7.44845,-6.35983,9.84,0.58,2.61,3.0
1758076877.36934,1758076877.32601,0.0,0.0,0.0,-29.50733,-3.03668,-5.09932,9.84,0.58,2.61,3.0
1758076877.40672,1758076877.33601,0.0,0.0,0.0,-28.59059,3.72423,-4.18259,9.82,0.33,2.47,3.0
1758076877.40924,1758076877.34601,0.0,0.0,0.0,-28.36141,7.67763,-2.97938,9.83,0.05,2.33,3.0
1758076877.41262,1758076877.35601,0.0,0.0,0.0,-28.76248,10.8289,-2.00535,9.83,0.05,2.33,3.0
1758076877.41356,1758076877.36601,0.0,0.0,0.0,-30.48136,15.0115,-0.85944,9.68,-0.14,2.38,3.0
1758076877.42865,1758076877.37601,0.0,0.0,0.0,-32.37212,17.47521,-0.45837,9.68,-0.14,2.38,3.0
1758076877.43229,1758076877.38601,0.0,0.0,0.0,-34.09099,19.59516,0.11459,9.61,-0.2,2.42,3.0
1758076877.44738,1758076877.39601,0.0,0.0,0.0,-36.55471,20.68378,0.40107,9.61,-0.2,2.42,3.0
1758076877.44935,1758076877.40601,0.0,0.0,0.0,-39.87786,20.97026,1.83346,9.44,-0.06,2.53,3.0
1758076877.46462,1758076877.41601,0.0,0.0,0.0,-40.96649,21.25674,2.00535,9.2,0.2,2.56,3.0
1758076877.46635,1758076877.42601,0.0,0.0,0.0,-41.02378,21.02755,1.83346,9.2,0.2,2.56,3.0
1758076877.48163,1758076877.43601,0.0,0.0,0.0,-40.7946,19.99623,1.71887,8.81,0.41,2.18,3.0
1758076877.49837,1758076877.44601,0.0,0.0,0.0,-40.39353,18.10547,2.00535,8.81,0.41,2.18,3.0
1758076877.49983,1758076877.45601,0.0,0.0,0.0,-40.10705,17.47521,1.94806,8.84,0.5,2.55,3.0
1758076877.51562,1758076877.46601,0.0,0.0,0.0,-39.4195,15.87093,2.57831,8.84,0.5,2.55,3.0
1758076877.51681,1758076877.47601,0.0,0.0,0.0,-39.24761,13.23533,3.20856,8.65,0.36,2.23,3.0
1758076877.53162,1758076877.48601,0.0,0.0,0.0,-38.44547,10.71431,4.35448,8.62,0.0,2.11,3.0
1758076877.54763,1758076877.49601,0.0,0.0,0.0,-37.75792,8.93814,4.98473,8.62,0.0,2.11,3.0
1758076877.54898,1758076877.50601,0.0,0.0,0.0,-37.18496,7.73493,5.27121,8.73,-0.48,1.85,3.0
1758076877.56363,1758076877.51601,0.0,0.0,0.0,-36.61201,6.13065,5.27121,8.73,-0.48,1.85,3.0
1758076877.56554,1758076877.52601,0.0,0.0,0.0,-35.63798,4.64096,4.81285,8.92,-0.78,1.95,3.0
1758076877.58164,1758076877.53601,0.0,0.0,0.0,-34.95043,3.26586,4.69825,8.92,-0.78,1.95,3.0
1758076877.59841,1758076877.54601,0.0,0.0,0.0,-34.14828,2.06265,4.64096,9.01,-0.74,2.0,3.0
1758076877.59989,1758076877.55601,0.0,0.0,0.0,-33.17426,0.80214,4.58366,9.01,-0.74,2.0,3.0
1758076877.61444,1758076877.56601,0.0,0.0,0.0,-32.6013,0.0573,4.64096,8.99,-0.43,2.05,3.0
1758076877.61608,1758076877.57601,0.0,0.0,0.0,-32.14294,-0.22918,4.81285,8.89,-0.08,2.11,3.0
1758076877.63067,1758076877.58601,0.0,0.0,0.0,-31.62727,-1.48969,4.98473,8.89,-0.08,2.11,3.0
1758076877.64642,1758076877.59601,0.0,0.0,0.0,-30.76784,-2.29183,5.78687,8.79,0.03,1.99,3.0
1758076877.64787,1758076877.60601,0.0,0.0,0.0,-30.02299,-0.97403,5.78687,8.79,0.03,1.99,3.0
1758076877.66268,1758076877.61601,0.0,0.0,0.0,-29.33544,-0.17189,5.50039,8.96,-0.11,1.79,3.0
1758076877.6787,1758076877.62601,0.0,0.0,0.0,-28.64789,-0.17189,5.15662,8.96,-0.11,1.79,3.0
1758076877.67964,1758076877.63601,0.0,0.0,0.0,-27.50197,-1.03132,4.0107,8.79,-0.39,1.62,3.0
1758076877.69449,1758076877.64601,0.0,0.0,0.0,-26.52795,-1.60428,3.26586,8.74,-0.64,1.61,3.0
1758076877.69649,1758076877.65601,0.0,0.0,0.0,-25.26744,-2.00535,2.6929,8.74,-0.64,1.61,3.0
1758076877.71273,1758076877.66601,0.0,0.0,0.0,-24.12152,-2.11994,2.40642,8.7,-0.73,1.49,3.0
1758076877.72864,1758076877.67601,0.0,0.0,0.0,-22.23076,-1.43239,2.29183,8.7,-0.73,1.49,3.0
1758076877.73075,1758076877.68601,0.0,0.0,0.0,-20.79837,-0.45837,2.7502,8.75,-0.65,1.63,3.0
1758076877.7457,1758076877.69601,0.0,0.0,0.0,-19.25138,2.11994,3.49504,8.75,-0.65,1.63,3.0
1758076877.74841,1758076877.70601,0.0,0.0,0.0,-17.53251,6.41713,4.35448,9.06,-0.6,1.64,3.0
1758076877.76374,1758076877.71601,0.0,0.0,0.0,-14.72501,12.83425,5.72958,9.31,-0.7,1.51,3.0
1758076877.76542,1758076877.72601,0.0,0.0,0.0,-12.89155,15.58445,6.53172,9.31,-0.7,1.51,3.0
1758076877.7837,1758076877.73601,0.0,0.0,0.0,-10.65701,15.64175,7.10468,9.12,-0.8,1.43,3.0
1758076877.78544,1758076877.74601,0.0,0.0,0.0,-7.79223,14.43854,7.44845,9.12,-0.8,1.43,3.0
1758076877.80171,1758076877.75601,0.0,0.0,0.0,-5.72958,10.37054,7.10468,9.06,-0.85,1.27,3.0
1758076877.81842,1758076877.76601,0.0,0.0,0.0,-3.55234,4.18259,6.58902,9.06,-0.85,1.27,3.0
1758076877.81964,1758076877.77601,0.0,0.0,0.0,-1.20321,-4.1253,7.10468,8.75,-0.92,1.0,3.0
