timeStamp,timeStampAlign,roll,pitch,yaw,gyro_x,gyro_y,gyro_z,acc_x,acc_y,acc_z,flag_num
1758076580.36315,1758076580.3867,0.0,0.0,0.0,14.03747,-43.4875,7.33386,8.74,0.66,3.4,4.0
1758076580.38033,1758076580.3967,0.0,0.0,0.0,9.96947,-41.76862,2.6929,9.48,0.97,3.26,4.0
1758076580.38476,1758076580.4067,0.0,0.0,0.0,4.23989,-35.00772,-3.26586,9.48,0.97,3.26,4.0
1758076580.40065,1758076580.4167,0.0,0.0,0.0,1.3178,-28.99167,-6.24524,9.87,0.68,2.9,4.0
1758076580.40266,1758076580.4267,0.0,0.0,0.0,-0.74485,-21.7151,-7.73493,9.87,0.68,2.9,4.0
1758076580.42079,1758076580.4367,0.0,0.0,0.0,-1.66158,-14.03747,-7.73493,10.25,-0.25,2.7,4.0
1758076580.42172,1758076580.4467,0.0,0.0,0.0,-1.08862,-6.8182,-5.61499,10.34,-1.21,2.73,4.0
1758076580.4373,1758076580.4567,0.0,0.0,0.0,0.34377,-3.72423,-3.20856,10.34,-1.21,2.73,4.0
1758076580.4403,1758076580.4667,0.0,0.0,0.0,2.06265,-0.51566,-0.51566,10.42,-1.77,2.75,4.0
1758076580.45568,1758076580.4767,0.0,0.0,0.0,3.95341,1.77617,1.94806,10.42,-1.77,2.75,4.0
1758076580.45739,1758076580.4867,0.0,0.0,0.0,6.70361,3.72423,5.27121,10.12,-1.66,2.53,4.0
1758076580.4757,1758076580.4967,0.0,0.0,0.0,8.0787,3.49504,6.53172,10.12,-1.66,2.53,4.0
1758076580.47731,1758076580.5067,0.0,0.0,0.0,8.99544,3.38045,6.99009,9.75,-1.27,2.5,4.0
1758076580.49342,1758076580.5167,0.0,0.0,0.0,10.02676,3.60963,7.04738,9.75,-1.27,2.5,4.0
1758076580.5107,1758076580.5267,0.0,0.0,0.0,10.94349,4.18259,6.87549,9.79,-0.91,2.49,4.0
1758076580.51515,1758076580.5367,0.0,0.0,0.0,12.14671,3.60963,6.70361,9.65,-0.69,2.5,4.0
1758076580.53073,1758076580.5467,0.0,0.0,0.0,13.23533,2.34913,6.18794,9.65,-0.69,2.5,4.0
1758076580.53514,1758076580.5567,0.0,0.0,0.0,15.29797,2.29183,6.41713,9.5,-0.65,2.41,4.0
1758076580.55078,1758076580.5667,0.0,0.0,0.0,17.36062,1.60428,6.87549,9.5,-0.65,2.41,4.0
1758076580.55595,1758076580.5767,0.0,0.0,0.0,19.53786,3.95341,7.10468,9.37,-0.76,2.28,4.0
1758076580.57046,1758076580.5867,0.0,0.0,0.0,21.7151,9.91217,7.67763,9.37,-0.76,2.28,4.0
1758076580.57673,1758076580.5967,0.0,0.0,0.0,24.4653,17.47521,8.02141,9.64,-1.0,2.21,4.0
1758076580.57972,1758076580.6067,0.0,0.0,0.0,26.52795,21.7724,8.88085,9.27,-1.21,2.44,4.0
1758076580.5958,1758076580.6167,0.0,0.0,0.0,29.10626,25.43933,10.37054,9.27,-1.21,2.44,4.0
1758076580.59774,1758076580.6267,0.0,0.0,0.0,31.85646,27.96034,12.2613,9.13,-1.46,2.44,4.0
1758076580.61671,1758076580.6367,0.0,0.0,0.0,36.26823,28.99167,15.69904,9.13,-1.46,2.44,4.0
1758076580.61965,1758076580.6467,0.0,0.0,0.0,39.4768,30.19488,18.16276,9.12,-1.7,2.41,4.0
1758076580.63551,1758076580.6567,0.0,0.0,0.0,42.1124,30.93972,20.45459,9.12,-1.7,2.41,4.0
1758076580.63679,1758076580.6667,0.0,0.0,0.0,44.57612,31.62727,22.05888,9.28,-1.82,2.24,4.0
1758076580.65331,1758076580.6767,0.0,0.0,0.0,47.95657,27.50197,23.26209,8.92,-1.74,2.24,4.0
1758076580.66973,1758076580.6867,0.0,0.0,0.0,48.9879,21.02755,21.94428,8.92,-1.74,2.24,4.0
1758076580.67067,1758076580.6967,0.0,0.0,0.0,49.50356,17.18874,21.60051,8.53,-1.48,2.06,4.0
1758076580.68575,1758076580.7067,0.0,0.0,0.0,48.9879,13.69369,18.22006,8.53,-1.48,2.06,4.0
1758076580.68698,1758076580.7167,0.0,0.0,0.0,51.10783,37.29956,19.19409,9.58,-1.34,1.71,4.0
1758076580.70359,1758076580.7267,0.0,0.0,0.0,52.76942,51.85268,18.79302,9.58,-1.34,1.71,4.0
1758076580.72043,1758076580.7367,0.0,0.0,0.0,53.39967,54.3737,17.76169,9.92,-1.4,2.76,4.0
1758076580.72259,1758076580.7467,0.0,0.0,0.0,52.76942,50.1911,15.06879,9.92,-1.4,2.76,4.0
1758076580.74027,1758076580.7567,0.0,0.0,0.0,52.19646,32.14294,14.43854,8.44,-1.36,3.56,4.0
1758076580.74194,1758076580.7667,0.0,0.0,0.0,53.91533,8.36518,18.44924,6.55,-1.32,1.83,4.0
1758076580.75761,1758076580.7767,0.0,0.0,0.0,56.37905,-5.61499,25.21014,6.55,-1.32,1.83,4.0
1758076580.76195,1758076580.7867,0.0,0.0,0.0,60.67623,-14.03747,31.51268,8.46,-1.81,1.46,4.0
1758076580.77762,1758076580.7967,0.0,0.0,0.0,62.5097,-15.64175,32.6013,8.46,-1.81,1.46,4.0
1758076580.78544,1758076580.8067,0.0,0.0,0.0,62.91077,-19.53786,30.82513,8.76,-2.12,2.11,4.0
1758076580.80088,1758076580.8167,0.0,0.0,0.0,62.5097,-22.91831,28.13223,8.76,-2.12,2.11,4.0
1758076580.80583,1758076580.8267,0.0,0.0,0.0,60.67623,-27.50197,23.89234,8.29,-1.58,2.45,4.0
1758076580.8209,1758076580.8367,0.0,0.0,0.0,59.18654,-32.54401,21.31403,8.22,-0.85,2.83,4.0
1758076580.82179,1758076580.8467,0.0,0.0,0.0,57.23849,-36.95578,18.73572,8.22,-0.85,2.83,4.0
1758076580.83767,1758076580.8567,0.0,0.0,0.0,55.51962,-40.96649,16.84496,8.4,-0.3,2.9,4.0
1758076580.84048,1758076580.8667,0.0,0.0,0.0,53.45696,-46.46688,13.40721,8.4,-0.3,2.9,4.0
1758076580.85585,1758076580.8767,0.0,0.0,0.0,52.36834,-48.12846,10.8862,8.8,0.03,3.23,4.0
1758076580.86029,1758076580.8867,0.0,0.0,0.0,50.82136,-48.75871,8.36518,8.8,0.03,3.23,4.0
1758076580.87559,1758076580.8967,0.0,0.0,0.0,49.15978,-47.78468,5.32851,9.12,0.17,3.22,4.0
1758076580.88033,1758076580.9067,0.0,0.0,0.0,45.20637,-43.20102,-1.20321,9.15,0.17,3.06,4.0
1758076580.89564,1758076580.9167,0.0,0.0,0.0,41.36755,-39.4195,-5.61499,9.15,0.17,3.06,4.0
1758076580.89999,1758076580.9267,0.0,0.0,0.0,35.92446,-35.2942,-10.25595,9.07,0.09,2.96,4.0
1758076580.91598,1758076580.9367,0.0,0.0,0.0,26.06958,-28.476,-16.67307,9.07,0.09,2.96,4.0
1758076580.92011,1758076580.9467,0.0,0.0,0.0,17.87628,-23.20479,-21.02755,9.32,0.58,2.99,4.0
1758076580.93579,1758076580.9567,0.0,0.0,0.0,8.93814,-21.14215,-24.12152,9.32,0.58,2.99,4.0
1758076580.94005,1758076580.9667,0.0,0.0,0.0,0.68755,-19.25138,-24.12152,10.52,2.0,4.45,4.0
1758076580.97742,1758076580.9767,0.0,0.0,0.0,-9.39651,-10.19865,-18.16276,10.52,2.0,4.45,4.0
1758076580.981,1758076580.9867,0.0,0.0,0.0,-15.69904,-6.99009,-12.71966,12.82,3.15,4.92,4.0
1758076580.98329,1758076580.9967,0.0,0.0,0.0,-22.51724,-11.00079,-7.21927,13.05,3.5,5.03,4.0
1758076580.98604,1758076581.0067,0.0,0.0,0.0,-29.73651,-19.07949,-4.1253,13.05,3.5,5.03,4.0
1758076580.98785,1758076581.0167,0.0,0.0,0.0,-39.99245,-15.58445,-2.6929,12.52,3.13,4.13,4.0
1758076581.00535,1758076581.0267,0.0,0.0,0.0,-45.72203,-9.68299,-5.50039,12.52,3.13,4.13,4.0
1758076581.021,1758076581.0367,0.0,0.0,0.0,-50.47758,-6.8182,-9.91217,11.99,2.19,2.89,4.0
1758076581.02521,1758076581.0467,0.0,0.0,0.0,-54.71747,-7.84952,-15.92823,11.99,2.19,2.89,4.0
1758076581.04078,1758076581.0567,0.0,0.0,0.0,-59.24384,-13.5791,-24.29341,10.63,0.99,2.44,4.0
1758076581.04204,1758076581.0667,0.0,0.0,0.0,-60.96271,-14.03747,-29.33544,10.58,0.26,1.94,4.0
1758076581.05707,1758076581.0767,0.0,0.0,0.0,-59.35843,3.32316,-31.45539,10.58,0.26,1.94,4.0
1758076581.0604,1758076581.0867,0.0,0.0,0.0,-60.44705,38.50277,-36.7266,13.43,0.41,0.94,4.0
1758076581.0758,1758076581.0967,0.0,0.0,0.0,-64.40046,63.31184,-48.30034,13.43,0.41,0.94,4.0
1758076581.08093,1758076581.1067,0.0,0.0,0.0,-65.83286,57.29578,-52.19646,10.59,0.82,2.91,4.0
1758076581.09959,1758076581.1167,0.0,0.0,0.0,-65.2599,46.98254,-53.28508,10.59,0.82,2.91,4.0
1758076581.10089,1758076581.1267,0.0,0.0,0.0,-62.96807,40.85189,-48.24305,9.03,1.46,3.0,4.0
1758076581.1161,1758076581.1367,0.0,0.0,0.0,-58.4417,36.95578,-41.08107,10.33,1.23,2.15,4.0
1758076581.12019,1758076581.1467,0.0,0.0,0.0,-54.94666,32.14294,-32.88778,10.33,1.23,2.15,4.0
1758076581.13612,1758076581.1567,0.0,0.0,0.0,-52.08187,25.72581,-24.80907,10.14,0.68,2.73,4.0
1758076581.14033,1758076581.1667,0.0,0.0,0.0,-48.9879,15.35527,-16.55848,10.14,0.68,2.73,4.0
1758076581.1561,1758076581.1767,0.0,0.0,0.0,-47.89928,12.14671,-14.9542,10.08,0.24,2.48,4.0
1758076581.16048,1758076581.1867,0.0,0.0,0.0,-47.15443,9.28192,-16.10011,10.08,0.24,2.48,4.0
1758076581.17582,1758076581.1967,0.0,0.0,0.0,-46.98254,6.18794,-19.36597,9.81,0.26,2.06,4.0
1758076581.1797,1758076581.2067,0.0,0.0,0.0,-46.69606,1.77617,-25.43933,9.11,0.26,2.02,4.0
1758076581.19512,1758076581.2167,0.0,0.0,0.0,-45.89392,-3.09397,-29.56462,9.11,0.61,2.02,4.0
1758076581.21083,1758076581.2267,0.0,0.0,0.0,-44.51882,-10.31324,-33.17426,8.59,0.97,2.19,4.0
1758076581.21559,1758076581.2367,0.0,0.0,0.0,-43.14373,-18.33465,-36.03905,8.59,0.97,2.19,4.0
1758076581.23115,1758076581.2467,0.0,0.0,0.0,-40.39353,-25.09555,-39.4768,9.0,1.3,2.52,4.0
1758076581.23404,1758076581.2567,0.0,0.0,0.0,-39.24761,-26.06958,-41.42485,9.0,1.3,2.52,4.0
1758076581.25075,1758076581.2667,0.0,0.0,0.0,-37.98711,-23.72045,-42.68536,10.01,1.48,2.65,4.0
1758076581.25601,1758076581.2767,0.0,0.0,0.0,-36.95578,-19.70975,-42.91454,10.01,1.48,2.65,4.0
1758076581.2712,1758076581.2867,0.0,0.0,0.0,-35.06502,-13.75099,-40.50812,10.38,1.69,2.83,4.0
1758076581.27484,1758076581.2967,0.0,0.0,0.0,-33.63263,-8.88085,-37.58603,9.89,1.79,2.57,4.0
1758076581.2903,1758076581.3067,0.0,0.0,0.0,-31.39809,-4.92744,-33.40344,9.89,1.79,2.57,4.0
1758076581.29114,1758076581.3167,0.0,0.0,0.0,-28.87707,-2.34913,-28.70519,9.37,1.5,2.34,4.0
1758076581.30913,1758076581.3267,0.0,0.0,0.0,-24.86637,0.68755,-21.25674,9.37,1.5,2.34,4.0
1758076581.3112,1758076581.3367,0.0,0.0,0.0,-22.28806,2.29183,-16.73037,9.27,0.87,2.39,4.0
1758076581.32926,1758076581.3467,0.0,0.0,0.0,-19.48057,3.55234,-12.54778,9.27,0.87,2.39,4.0
1758076581.33523,1758076581.3567,0.0,0.0,0.0,-15.41257,6.35983,-7.73493,9.72,0.34,2.53,4.0
1758076581.34995,1758076581.3667,0.0,0.0,0.0,-13.12073,9.5684,-5.95876,10.34,0.28,2.56,4.0
1758076581.35367,1758076581.3767,0.0,0.0,0.0,-11.28727,11.80293,-4.64096,10.34,0.28,2.56,4.0
1758076581.37083,1758076581.3867,0.0,0.0,0.0,-9.91217,13.12073,-3.83882,10.24,0.73,2.48,4.0
1758076581.37201,1758076581.3967,0.0,0.0,0.0,-8.0787,12.49048,-3.89611,10.24,0.73,2.48,4.0
1758076581.38931,1758076581.4067,0.0,0.0,0.0,-7.50575,13.98017,-4.1253,9.97,1.2,2.56,4.0
1758076581.39096,1758076581.4167,0.0,0.0,0.0,-7.16197,14.49583,-4.58366,9.97,1.2,2.56,4.0
1758076581.40641,1758076581.4267,0.0,0.0,0.0,-7.16197,13.75099,-4.98473,9.69,1.56,2.52,4.0
1758076581.40909,1758076581.4367,0.0,0.0,0.0,-7.44845,12.37589,-5.61499,9.2,1.78,2.77,4.0
1758076581.42527,1758076581.4467,0.0,0.0,0.0,-7.21927,12.60507,-5.72958,9.2,1.78,2.77,4.0
1758076581.441,1758076581.4567,0.0,0.0,0.0,-6.99009,13.98017,-5.4431,9.29,1.73,2.9,4.0
1758076581.44299,1758076581.4667,0.0,0.0,0.0,-6.24524,15.58445,-4.87014,9.29,1.73,2.9,4.0
1758076581.46071,1758076581.4767,0.0,0.0,0.0,-4.98473,15.92823,-3.26586,9.23,1.47,2.89,4.0
1758076581.4651,1758076581.4867,0.0,0.0,0.0,-3.66693,13.40721,-1.60428,9.23,1.47,2.89,4.0
1758076581.48032,1758076581.4967,0.0,0.0,0.0,-2.57831,9.05273,-0.11459,8.89,1.21,2.78,4.0
1758076581.48285,1758076581.5067,0.0,0.0,0.0,-1.71887,5.84417,0.85944,8.89,1.21,2.78,4.0
1758076581.50008,1758076581.5167,0.0,0.0,0.0,-2.06265,8.47978,2.86479,9.08,1.1,2.67,4.0
1758076581.50137,1758076581.5267,0.0,0.0,0.0,-2.57831,11.51645,4.69825,9.67,1.12,2.59,4.0
1758076581.51635,1758076581.5367,0.0,0.0,0.0,-3.03668,13.69369,6.99009,9.67,1.12,2.59,4.0
1758076581.51809,1758076581.5467,0.0,0.0,0.0,-3.72423,14.49583,10.31324,9.58,1.23,2.87,4.0
1758076581.53428,1758076581.5567,0.0,0.0,0.0,-5.15662,15.06879,12.204,9.58,1.23,2.87,4.0
1758076581.55117,1758076581.5667,0.0,0.0,0.0,-5.72958,15.87093,13.69369,9.55,1.32,3.02,4.0
1758076581.55565,1758076581.5767,0.0,0.0,0.0,-5.78687,15.75634,14.72501,9.55,1.32,3.02,4.0
1758076581.57016,1758076581.5867,0.0,0.0,0.0,-5.61499,15.69904,15.29797,9.4,1.41,3.16,4.0
1758076581.57131,1758076581.5967,0.0,0.0,0.0,-5.09932,16.38659,15.24068,9.49,1.5,3.28,4.0
1758076581.59118,1758076581.6067,0.0,0.0,0.0,-4.35448,17.6471,15.06879,9.49,1.5,3.28,4.0
1758076581.59322,1758076581.6167,0.0,0.0,0.0,-3.55234,18.27736,14.78231,9.56,1.59,3.1,4.0
1758076581.60849,1758076581.6267,0.0,0.0,0.0,-2.92208,18.22006,14.43854,9.56,1.59,3.1,4.0
1758076581.61012,1758076581.6367,0.0,0.0,0.0,-2.97938,18.85031,14.61043,9.33,1.64,2.8,4.0
1758076581.62544,1758076581.6467,0.0,0.0,0.0,-3.32316,19.76705,15.29797,9.33,1.64,2.8,4.0
1758076581.64144,1758076581.6567,0.0,0.0,0.0,-4.35448,20.62648,16.55848,9.18,1.65,2.57,4.0
1758076581.64475,1758076581.6667,0.0,0.0,0.0,-6.8182,21.6578,19.42327,9.02,1.67,2.57,4.0
1758076581.66041,1758076581.6767,0.0,0.0,0.0,-8.76626,21.6578,21.6578,9.02,1.67,2.57,4.0
1758076581.66136,1758076581.6867,0.0,0.0,0.0,-10.65701,20.85567,23.83505,8.79,1.69,2.42,4.0
1758076581.67798,1758076581.6967,0.0,0.0,0.0,-12.54778,18.85031,25.61122,8.79,1.69,2.42,4.0
1758076581.68265,1758076581.7067,0.0,0.0,0.0,-15.29797,16.272,25.7831,8.57,1.9,2.18,4.0
1758076581.69963,1758076581.7167,0.0,0.0,0.0,-16.84496,15.24068,25.09555,8.57,1.9,2.18,4.0
1758076581.70079,1758076581.7267,0.0,0.0,0.0,-18.44924,11.28727,23.0329,8.78,2.08,2.18,4.0
1758076581.71649,1758076581.7367,0.0,0.0,0.0,-19.53786,7.04738,20.22541,8.78,2.08,2.18,4.0
1758076581.71741,1758076581.7467,0.0,0.0,0.0,-20.51189,0.34377,13.98017,8.86,2.29,2.26,4.0
1758076581.73552,1758076581.7567,0.0,0.0,0.0,-20.34,-4.69825,8.47978,9.3,2.47,2.76,4.0
1758076581.75152,1758076581.7667,0.0,0.0,0.0,-20.11082,-7.21927,2.97938,9.3,2.47,2.76,4.0
1758076581.75403,1758076581.7767,0.0,0.0,0.0,-19.25138,-4.18259,-4.1253,10.14,2.49,3.36,4.0
1758076581.77005,1758076581.7867,0.0,0.0,0.0,-17.01685,-3.09397,-6.87549,10.14,2.49,3.36,4.0
1758076581.77363,1758076581.7967,0.0,0.0,0.0,-13.69369,-7.39116,-8.70896,10.24,1.79,4.41,4.0
1758076581.79008,1758076581.8067,0.0,0.0,0.0,-9.11003,-17.01685,-9.91217,10.24,1.79,4.41,4.0
1758076581.79175,1758076581.8167,0.0,0.0,0.0,-2.63561,-29.33544,-11.00079,9.86,0.51,5.33,4.0
1758076581.81008,1758076581.8267,0.0,0.0,0.0,0.45837,-33.34615,-10.8289,10.64,-1.15,4.73,4.0
1758076581.81373,1758076581.8367,0.0,0.0,0.0,2.46372,-34.37747,-9.22462,10.64,-1.15,4.73,4.0
1758076581.82931,1758076581.8467,0.0,0.0,0.0,4.23989,-32.20023,-5.50039,10.26,-2.34,3.24,4.0
1758076581.83048,1758076581.8567,0.0,0.0,0.0,7.16197,-29.39274,1.77617,10.26,-2.34,3.24,4.0
1758076581.84612,1758076581.8667,0.0,0.0,0.0,9.11003,-27.73116,7.84952,8.84,-2.39,2.69,4.0
1758076581.85633,1758076581.8767,0.0,0.0,0.0,10.71431,-27.50197,13.86558,8.84,-2.39,2.69,4.0
1758076581.87739,1758076581.8867,0.0,0.0,0.0,11.86023,-28.07493,19.59516,7.72,-1.79,2.45,4.0
1758076581.88234,1758076581.8967,0.0,0.0,0.0,11.86023,-27.73116,26.06958,8.05,-0.81,2.73,4.0
1758076581.8857,1758076581.9067,0.0,0.0,0.0,10.8862,-26.12688,28.476,8.05,-0.81,2.73,4.0
1758076581.90235,1758076581.9167,0.0,0.0,0.0,9.22462,-24.4653,29.39274,9.23,0.21,3.27,4.0
1758076581.90592,1758076581.9267,0.0,0.0,0.0,6.8182,-22.40265,28.93437,9.23,0.21,3.27,4.0
1758076581.92166,1758076581.9367,0.0,0.0,0.0,2.29183,-18.44924,25.43933,10.37,1.04,3.87,4.0
1758076581.92737,1758076581.9467,0.0,0.0,0.0,-1.03132,-17.6471,22.05888,10.37,1.04,3.87,4.0
1758076581.92793,1758076581.9567,0.0,0.0,0.0,-4.46907,-17.30333,18.10547,10.68,1.16,4.16,4.0
1758076582.04557,1758076581.9667,0.0,0.0,0.0,-9.4538,-16.84496,12.204,10.68,1.16,4.16,4.0
1758076582.05496,1758076581.9767,0.0,0.0,0.0,-12.60507,-15.87093,8.47978,10.69,0.55,4.32,4.0
1758076582.05539,1758076581.9867,0.0,0.0,0.0,-15.35527,-14.38124,5.55769,10.48,-0.09,4.21,4.0
1758076582.06167,1758076581.9967,0.0,0.0,0.0,-17.81899,-11.45916,3.20856,10.48,-0.09,4.21,4.0
1758076582.06206,1758076582.0067,0.0,0.0,0.0,-20.62648,-7.84952,1.60428,10.18,-0.48,3.93,4.0
1758076582.06568,1758076582.0167,0.0,0.0,0.0,-22.00158,-5.09932,1.20321,10.18,-0.48,3.93,4.0
1758076582.06611,1758076582.0267,0.0,0.0,0.0,-22.97561,-2.34913,1.20321,9.75,-0.75,3.81,4.0
1758076582.06756,1758076582.0367,0.0,0.0,0.0,-23.89234,-0.68755,1.66158,9.75,-0.75,3.81,4.0
1758076582.06923,1758076582.0467,0.0,0.0,0.0,-25.38203,2.7502,2.29183,9.46,-1.03,3.63,4.0
1758076582.06962,1758076582.0567,0.0,0.0,0.0,-26.75713,3.55234,2.86479,9.42,-1.16,3.54,4.0
1758076582.0707,1758076582.0667,0.0,0.0,0.0,-27.78845,1.03132,3.09397,9.42,-1.16,3.54,4.0
1758076582.07418,1758076582.0767,0.0,0.0,0.0,-28.59059,-2.23454,3.55234,9.07,-1.24,3.18,4.0
1758076582.07587,1758076582.0867,0.0,0.0,0.0,-29.04896,-4.64096,3.72423,9.07,-1.24,3.18,4.0
1758076582.07657,1758076582.0967,0.0,0.0,0.0,-28.70519,-9.11003,4.81285,9.23,-1.26,2.86,4.0
1758076582.07765,1758076582.1067,0.0,0.0,0.0,-28.64789,-13.69369,4.81285,9.23,-1.26,2.86,4.0
1758076582.09549,1758076582.1167,0.0,0.0,0.0,-28.76248,-15.24068,4.81285,9.02,-1.19,2.72,4.0
1758076582.11393,1758076582.1267,0.0,0.0,0.0,-29.50733,-9.91217,3.60963,9.63,-1.14,2.7,4.0
1758076582.11602,1758076582.1367,0.0,0.0,0.0,-30.02299,-5.21392,2.00535,9.63,-1.14,2.7,4.0
1758076582.1349,1758076582.1467,0.0,0.0,0.0,-30.25217,-1.14592,0.40107,9.46,-1.02,2.59,4.0
1758076582.13614,1758076582.1567,0.0,0.0,0.0,-30.53865,1.71887,-1.3178,9.46,-1.02,2.59,4.0
1758076582.1547,1758076582.1667,0.0,0.0,0.0,-30.88243,5.09932,-4.35448,9.22,-0.99,2.83,4.0
1758076582.15627,1758076582.1767,0.0,0.0,0.0,-30.93972,6.8182,-6.35983,9.22,-0.99,2.83,4.0
1758076582.17502,1758076582.1867,0.0,0.0,0.0,-30.93972,7.96411,-7.84952,9.23,-0.98,2.63,4.0
1758076582.17586,1758076582.1967,0.0,0.0,0.0,-31.11161,7.79223,-10.31324,9.23,-0.98,2.63,4.0
1758076582.19185,1758076582.2067,0.0,0.0,0.0,-31.11161,7.84952,-11.80293,9.24,-1.03,2.65,4.0
1758076582.19435,1758076582.2167,0.0,0.0,0.0,-30.88243,8.59437,-13.17803,9.39,-1.11,2.48,4.0
1758076582.20956,1758076582.2267,0.0,0.0,0.0,-30.36677,10.59972,-14.09476,9.39,-1.11,2.48,4.0
1758076582.21398,1758076582.2367,0.0,0.0,0.0,-29.27814,13.86558,-15.12609,9.55,-1.18,2.46,4.0
1758076582.22988,1758076582.2467,0.0,0.0,0.0,-28.01764,14.09476,-15.58445,9.55,-1.18,2.46,4.0
1758076582.23077,1758076582.2567,0.0,0.0,0.0,-26.98631,13.12073,-15.98552,9.25,-1.29,2.48,4.0
1758076582.24562,1758076582.2667,0.0,0.0,0.0,-25.38203,11.51645,-15.98552,9.25,-1.29,2.48,4.0
1758076582.25116,1758076582.2767,0.0,0.0,0.0,-23.37668,8.36518,-16.3293,9.02,-1.34,2.49,4.0
1758076582.26768,1758076582.2867,0.0,0.0,0.0,-22.11617,5.90147,-16.38659,8.9,-1.32,2.43,4.0
1758076582.27121,1758076582.2967,0.0,0.0,0.0,-21.25674,3.72423,-16.61578,8.9,-1.32,2.43,4.0
1758076582.28779,1758076582.3067,0.0,0.0,0.0,-20.16812,1.71887,-16.90226,8.88,-1.27,2.39,4.0
1758076582.28895,1758076582.3167,0.0,0.0,0.0,-18.73572,0.34377,-17.30333,8.88,-1.27,2.39,4.0
1758076582.30386,1758076582.3267,0.0,0.0,0.0,-17.99088,0.0573,-17.81899,8.95,-1.1,2.26,4.0
1758076582.32062,1758076582.3367,0.0,0.0,0.0,-17.24603,-0.97403,-18.33465,8.95,-1.1,2.26,4.0
1758076582.32181,1758076582.3467,0.0,0.0,0.0,-16.50119,-2.40642,-18.90761,8.65,-0.89,2.1,4.0
1758076582.33981,1758076582.3567,0.0,0.0,0.0,-16.10011,-4.52637,-19.70975,8.29,-0.71,2.08,4.0
1758076582.34101,1758076582.3667,0.0,0.0,0.0,-16.21471,-5.95876,-20.22541,8.29,-0.71,2.08,4.0
1758076582.36033,1758076582.3767,0.0,0.0,0.0,-16.73037,-8.02141,-20.51189,8.18,-0.58,2.24,4.0
1758076582.36142,1758076582.3867,0.0,0.0,0.0,-18.33465,-9.68299,-20.68378,8.18,-0.58,2.24,4.0
1758076582.37781,1758076582.3967,0.0,0.0,0.0,-19.82434,-14.15206,-20.45459,8.75,-0.66,3.05,4.0
1758076582.38049,1758076582.4067,0.0,0.0,0.0,-21.60051,-16.95955,-19.88164,8.75,-0.66,3.05,4.0
1758076582.39594,1758076582.4167,0.0,0.0,0.0,-23.0902,-17.93358,-18.85031,10.02,-0.82,3.75,4.0
1758076582.41482,1758076582.4267,0.0,0.0,0.0,-24.86637,-18.33465,-17.47521,10.02,-0.82,3.75,4.0
1758076582.41561,1758076582.4367,0.0,0.0,0.0,-25.55392,-22.68913,-16.50119,11.28,-0.92,3.98,4.0
1758076582.43492,1758076582.4467,0.0,0.0,0.0,-26.24147,-37.29956,-16.95955,9.93,-0.83,3.73,4.0
1758076582.43561,1758076582.4567,0.0,0.0,0.0,-26.12688,-53.17049,-17.58981,9.93,-0.83,3.73,4.0
1758076582.45365,1758076582.4667,0.0,0.0,0.0,-24.80907,-61.02001,-19.59516,8.82,-0.74,2.73,4.0
1758076582.4548,1758076582.4767,0.0,0.0,0.0,-23.49127,-50.93595,-21.02755,8.82,-0.74,2.73,4.0
1758076582.46077,1758076582.4867,0.0,0.0,0.0,-22.97561,-39.3622,-22.97561,10.12,-0.42,2.19,4.0
1758076582.51589,1758076582.4967,0.0,0.0,0.0,-21.42862,-34.26288,-24.12152,10.12,-0.42,2.19,4.0
1758076582.5202,1758076582.5067,0.0,0.0,0.0,-16.90226,-31.2262,-22.05888,8.67,-0.12,3.1,4.0
1758076582.52063,1758076582.5167,0.0,0.0,0.0,-13.23533,-25.72581,-18.85031,8.22,0.27,2.36,4.0
1758076582.52294,1758076582.5267,0.0,0.0,0.0,-9.74028,-16.61578,-15.24068,8.22,0.27,2.36,4.0
1758076582.5245,1758076582.5367,0.0,0.0,0.0,-6.8182,-4.18259,-11.80293,9.1,0.62,1.73,4.0
1758076582.5309,1758076582.5467,0.0,0.0,0.0,-5.4431,14.32395,-7.79223,9.1,0.62,1.73,4.0
1758076582.53504,1758076582.5567,0.0,0.0,0.0,-6.24524,25.49662,-6.58902,9.92,0.91,1.98,4.0
1758076582.55071,1758076582.5667,0.0,0.0,0.0,-7.67763,29.27814,-6.07335,9.92,0.91,1.98,4.0
1758076582.55558,1758076582.5767,0.0,0.0,0.0,-8.136,32.71589,-7.04738,10.17,1.54,2.04,4.0
1758076582.57103,1758076582.5867,0.0,0.0,0.0,-9.28192,29.9084,-7.39116,10.3,1.52,1.86,4.0
1758076582.57148,1758076582.5967,0.0,0.0,0.0,-10.02676,13.34992,-7.73493,10.3,1.52,1.86,4.0
1758076582.58963,1758076582.6067,0.0,0.0,0.0,-11.28727,-1.08862,-8.76626,9.28,1.3,1.52,4.0
1758076582.59396,1758076582.6167,0.0,0.0,0.0,-15.75634,14.43854,-12.43318,9.28,1.3,1.52,4.0
1758076582.60907,1758076582.6267,0.0,0.0,0.0,-15.69904,33.9764,-11.45916,12.43,1.07,1.3,4.0
1758076582.61109,1758076582.6367,0.0,0.0,0.0,-15.69904,35.75257,-12.37589,12.43,1.07,1.3,4.0
1758076582.62581,1758076582.6467,0.0,0.0,0.0,-16.3293,30.02299,-13.98017,9.81,0.78,2.44,4.0
1758076582.63135,1758076582.6567,0.0,0.0,0.0,-17.76169,27.50197,-15.69904,9.81,0.78,2.7,4.0
1758076582.64603,1758076582.6667,0.0,0.0,0.0,-18.79302,26.81443,-16.95955,9.54,0.73,2.7,4.0
1758076582.65107,1758076582.6767,0.0,0.0,0.0,-20.11082,23.83505,-18.33465,9.3,1.0,2.0,4.0
1758076582.67066,1758076582.6867,0.0,0.0,0.0,-21.42862,19.82434,-18.44924,9.3,1.0,2.0,4.0
1758076582.67511,1758076582.6967,0.0,0.0,0.0,-24.17882,13.86558,-17.36062,9.02,1.3,2.11,4.0
1758076582.69002,1758076582.7067,0.0,0.0,0.0,-25.72581,11.45916,-15.75634,9.02,1.3,2.11,4.0
1758076582.69131,1758076582.7167,0.0,0.0,0.0,-27.38738,10.8289,-13.69369,8.9,1.3,1.64,4.0
1758076582.70906,1758076582.7267,0.0,0.0,0.0,-29.27814,10.59972,-11.28727,8.9,1.3,1.64,4.0
1758076582.71037,1758076582.7367,0.0,0.0,0.0,-32.48671,9.22462,-8.25059,8.77,1.24,1.61,4.0
1758076582.72512,1758076582.7467,0.0,0.0,0.0,-34.32018,7.44845,-6.8182,8.53,1.12,1.54,4.0
1758076582.72868,1758076582.7567,0.0,0.0,0.0,-35.69527,4.64096,-5.4431,8.53,1.12,1.54,4.0
1758076582.74594,1758076582.7667,0.0,0.0,0.0,-36.89849,1.14592,-4.0107,8.3,1.1,1.52,4.0
1758076582.75134,1758076582.7767,0.0,0.0,0.0,-38.1017,-5.09932,-2.6929,8.3,1.1,1.52,4.0
1758076582.7682,1758076582.7867,0.0,0.0,0.0,-38.44547,-10.31324,-1.60428,8.34,1.07,1.55,4.0
1758076582.76993,1758076582.7967,0.0,0.0,0.0,-38.61736,-12.60507,-1.43239,8.34,1.07,1.55,4.0
1758076582.78494,1758076582.8067,0.0,0.0,0.0,-38.73195,-13.34992,-0.74485,8.96,1.01,1.67,4.0
1758076582.78608,1758076582.8167,0.0,0.0,0.0,-38.38818,-11.51645,-0.97403,9.46,0.93,1.78,4.0
1758076582.80403,1758076582.8267,0.0,0.0,0.0,-37.87251,-10.8289,-1.43239,9.46,0.93,1.78,4.0
1758076582.82026,1758076582.8367,0.0,0.0,0.0,-36.84119,-11.97482,-1.08862,9.01,0.84,1.82,4.0
1758076582.82111,1758076582.8467,0.0,0.0,0.0,-34.89313,-13.98017,-1.3178,9.01,0.84,1.82,4.0
1758076582.83621,1758076582.8567,0.0,0.0,0.0,-33.63263,-13.12073,-1.43239,8.76,0.6,1.76,4.0
1758076582.84063,1758076582.8667,0.0,0.0,0.0,-32.54401,-11.28727,-0.97403,8.76,0.6,1.76,4.0
1758076582.85627,1758076582.8767,0.0,0.0,0.0,-32.08564,-10.59972,-0.80214,9.1,0.37,1.77,4.0
1758076582.85798,1758076582.8867,0.0,0.0,0.0,-31.16891,-11.86023,1.14592,9.02,0.37,1.52,4.0
1758076582.87527,1758076582.8967,0.0,0.0,0.0,-30.48136,-14.66772,3.38045,9.02,0.24,1.52,4.0
1758076582.87618,1758076582.9067,0.0,0.0,0.0,-29.67921,-17.24603,5.4431,9.1,0.15,1.34,4.0
1758076582.89402,1758076582.9167,0.0,0.0,0.0,-28.476,-19.07949,8.30789,9.1,0.15,1.34,4.0
1758076582.90917,1758076582.9267,0.0,0.0,0.0,-26.35606,-18.44924,11.34457,9.54,0.07,1.1,4.0
1758076582.91131,1758076582.9367,0.0,0.0,0.0,-24.5226,-18.79302,12.2613,9.54,0.07,1.1,4.0
1758076582.93,1758076582.9467,0.0,0.0,0.0,-22.68913,-21.42862,12.2613,9.59,0.08,1.12,4.0
1758076582.93118,1758076582.9567,0.0,0.0,0.0,-20.62648,-23.26209,11.51645,9.59,0.08,1.12,4.0
1758076582.94999,1758076582.9667,0.0,0.0,0.0,-17.13144,-21.31403,9.39651,9.65,0.2,1.17,4.0
1758076582.95519,1758076582.9767,0.0,0.0,0.0,-14.61043,-18.56383,8.47978,9.81,0.4,0.94,4.0
1758076582.97005,1758076582.9867,0.0,0.0,0.0,-11.97482,-16.90226,8.25059,9.81,0.4,0.94,4.0
1758076582.97366,1758076582.9967,0.0,0.0,0.0,-8.99544,-15.35527,8.59437,9.39,0.54,0.74,4.0
1758076582.98903,1758076583.0067,0.0,0.0,0.0,-4.35448,-13.5791,10.37054,9.39,0.54,0.74,4.0
1758076582.99534,1758076583.0167,0.0,0.0,0.0,-1.14592,-12.77696,11.91752,9.15,0.43,0.46,4.0
1758076583.01035,1758076583.0267,0.0,0.0,0.0,2.11994,-12.43318,13.75099,9.15,0.43,0.46,4.0
1758076583.01127,1758076583.0367,0.0,0.0,0.0,7.50575,-11.86023,16.272,9.05,0.19,0.33,4.0
1758076583.02933,1758076583.0467,0.0,0.0,0.0,11.11538,-11.57375,17.58981,9.12,0.0,0.58,4.0
1758076583.03027,1758076583.0567,0.0,0.0,0.0,14.32395,-12.204,18.33465,9.12,0.0,0.58,4.0
1758076583.04537,1758076583.0667,0.0,0.0,0.0,17.53251,-13.40721,18.73572,9.37,-0.11,1.18,4.0
1758076583.04669,1758076583.0767,0.0,0.0,0.0,21.48592,-17.13144,17.47521,9.37,-0.11,1.18,4.0
1758076583.0624,1758076583.0867,0.0,0.0,0.0,23.94964,-21.31403,15.58445,10.38,-0.4,2.43,4.0
1758076583.0804,1758076583.0967,0.0,0.0,0.0,27.10091,-26.69983,13.23533,10.38,-0.4,2.43,4.0
1758076583.08129,1758076583.1067,0.0,0.0,0.0,30.76784,-34.32018,9.96947,11.83,-0.83,4.31,4.0
1758076583.09642,1758076583.1167,0.0,0.0,0.0,37.01308,-43.37291,4.98473,12.53,-1.42,5.84,4.0
1758076583.10056,1758076583.1267,0.0,0.0,0.0,40.50812,-46.1804,2.23454,12.53,-1.42,5.84,4.0
1758076583.1164,1758076583.1367,0.0,0.0,0.0,43.37291,-51.50891,1.20321,11.36,-1.76,5.35,4.0
1758076583.11814,1758076583.1467,0.0,0.0,0.0,45.43555,-59.41573,1.20321,11.36,-1.76,5.35,4.0
1758076583.13396,1758076583.1567,0.0,0.0,0.0,48.70141,-70.24463,2.00535,10.21,-1.89,4.85,4.0
1758076583.1501,1758076583.1667,0.0,0.0,0.0,50.82136,-72.13539,2.46372,10.21,-1.89,4.85,4.0
1758076583.15131,1758076583.1767,0.0,0.0,0.0,52.54023,-69.15601,3.20856,12.39,-2.0,3.81,4.0
1758076583.16632,1758076583.1867,0.0,0.0,0.0,53.39967,-62.05133,4.69825,12.39,-2.0,3.81,4.0
1758076583.16758,1758076583.1967,0.0,0.0,0.0,53.39967,-48.12846,9.4538,14.13,-1.76,2.32,4.0
1758076583.18218,1758076583.2067,0.0,0.0,0.0,52.25375,-41.48215,12.49048,12.72,-1.24,1.07,4.0
1758076583.19814,1758076583.2167,0.0,0.0,0.0,51.16513,-31.16891,14.32395,12.72,-1.24,1.07,4.0
1758076583.20093,1758076583.2267,0.0,0.0,0.0,47.32632,-22.34536,16.73037,11.08,-0.88,1.62,4.0
1758076583.21652,1758076583.2367,0.0,0.0,0.0,43.77398,-14.38124,17.24603,11.08,-0.88,1.62,4.0
1758076583.21742,1758076583.2467,0.0,0.0,0.0,39.87786,-8.136,17.30333,9.95,-0.62,1.26,4.0
1758076583.23339,1758076583.2567,0.0,0.0,0.0,35.98175,-2.6929,16.55848,9.95,-0.62,1.26,4.0
1758076583.24998,1758076583.2667,0.0,0.0,0.0,29.8511,2.40642,14.32395,10.51,-0.19,1.73,4.0
1758076583.25121,1758076583.2767,0.0,0.0,0.0,25.49662,6.47442,12.204,10.91,0.25,1.8,4.0
1758076583.26849,1758076583.2867,0.0,0.0,0.0,21.08485,10.71431,9.96947,10.91,0.25,1.8,4.0
1758076583.26944,1758076583.2967,0.0,0.0,0.0,16.73037,14.43854,7.50575,10.69,0.58,1.74,4.0
1758076583.28534,1758076583.3067,0.0,0.0,0.0,10.37054,18.9649,3.38045,10.69,0.58,1.74,4.0
1758076583.28703,1758076583.3167,0.0,0.0,0.0,6.41713,20.79837,0.85944,9.98,0.59,1.61,4.0
1758076583.30646,1758076583.3267,0.0,0.0,0.0,3.09397,22.34536,-1.3178,9.98,0.59,1.61,4.0
1758076583.30742,1758076583.3367,0.0,0.0,0.0,0.22918,24.5226,-3.03668,9.59,0.37,1.34,4.0
1758076583.32224,1758076583.3467,0.0,0.0,0.0,-2.06265,27.78845,-4.64096,9.59,0.0,1.19,4.0
1758076583.34008,1758076583.3567,0.0,0.0,0.0,-1.94806,29.8511,-4.23989,9.59,0.0,1.19,4.0
1758076583.34128,1758076583.3667,0.0,0.0,0.0,-0.85944,29.9084,-3.32316,9.49,-0.58,1.14,4.0
1758076583.35628,1758076583.3767,0.0,0.0,0.0,1.03132,30.76784,-1.83346,9.49,-0.58,1.14,4.0
1758076583.35742,1758076583.3867,0.0,0.0,0.0,4.81285,31.74186,0.11459,9.57,-1.28,1.06,4.0
1758076583.37255,1758076583.3967,0.0,0.0,0.0,7.33386,31.85646,0.97403,9.57,-1.28,1.06,4.0
1758076583.38959,1758076583.4067,0.0,0.0,0.0,9.62569,31.51268,1.48969,9.35,-1.76,1.07,4.0
1758076583.39085,1758076583.4167,0.0,0.0,0.0,11.57375,29.73651,1.71887,9.35,-1.76,1.07,4.0
1758076583.40557,1758076583.4267,0.0,0.0,0.0,14.20935,25.21014,1.43239,8.78,-1.86,1.03,4.0
1758076583.41053,1758076583.4367,0.0,0.0,0.0,15.98552,21.42862,1.3751,8.35,-1.65,0.8,4.0
1758076583.42634,1758076583.4467,0.0,0.0,0.0,17.47521,18.27736,1.03132,8.35,-1.65,0.8,4.0
1758076583.42753,1758076583.4567,0.0,0.0,0.0,19.82434,14.83961,0.80214,8.37,-1.38,0.53,4.0
1758076583.44339,1758076583.4667,0.0,0.0,0.0,21.37133,14.03747,0.40107,8.37,-1.38,0.53,4.0
1758076583.45936,1758076583.4767,0.0,0.0,0.0,22.63183,14.9542,-0.22918,8.68,-1.21,0.42,4.0
1758076583.46053,1758076583.4867,0.0,0.0,0.0,23.83505,15.0115,-1.08862,8.68,-1.21,0.42,4.0
1758076583.47561,1758076583.4967,0.0,0.0,0.0,25.49662,11.34457,-2.29183,8.91,-1.14,0.66,4.0
1758076583.47778,1758076583.5067,0.0,0.0,0.0,26.75713,8.70896,-2.6929,8.93,-1.1,0.82,4.0
1758076583.4947,1758076583.5167,0.0,0.0,0.0,27.50197,5.78687,-2.86479,8.93,-1.1,0.82,4.0
1758076583.51063,1758076583.5267,0.0,0.0,0.0,28.01764,1.66158,-3.03668,8.99,-1.02,0.73,4.0
1758076583.5119,1758076583.5367,0.0,0.0,0.0,28.30412,-3.49504,-3.03668,8.99,-1.02,0.73,4.0
1758076583.52648,1758076583.5467,0.0,0.0,0.0,27.96034,-6.7609,-2.97938,9.06,-0.89,0.83,4.0
1758076583.5335,1758076583.5567,0.0,0.0,0.0,27.38738,-10.02676,-2.97938,9.06,-0.89,0.83,4.0
1758076583.54873,1758076583.5667,0.0,0.0,0.0,26.64254,-14.09476,-2.92208,8.95,-0.72,0.95,4.0
1758076583.55123,1758076583.5767,0.0,0.0,0.0,25.72581,-20.51189,-2.63561,8.89,-0.58,1.19,4.0
1758076583.56691,1758076583.5867,0.0,0.0,0.0,25.61122,-25.38203,-2.00535,8.89,-0.58,1.19,4.0
1758076583.56766,1758076583.5967,0.0,0.0,0.0,26.01229,-30.19488,-0.45837,8.88,-0.52,1.14,4.0
1758076583.58247,1758076583.6067,0.0,0.0,0.0,26.18417,-34.77854,1.3751,8.88,-0.52,1.14,4.0
1758076583.59948,1758076583.6167,0.0,0.0,0.0,26.81443,-39.76327,4.46907,9.03,-0.62,1.01,4.0
1758076583.60063,1758076583.6267,0.0,0.0,0.0,27.44468,-41.08107,6.18794,9.03,-0.62,1.01,4.0
1758076583.61576,1758076583.6367,0.0,0.0,0.0,28.59059,-41.13837,7.50575,9.25,-0.86,0.83,4.0
1758076583.6202,1758076583.6467,0.0,0.0,0.0,28.99167,-41.94051,8.0787,9.25,-0.86,0.83,4.0
1758076583.63571,1758076583.6567,0.0,0.0,0.0,28.13223,-42.39888,6.8182,9.3,-1.09,0.55,4.0
1758076583.63665,1758076583.6667,0.0,0.0,0.0,27.38738,-38.73195,4.0107,9.67,-1.08,0.45,4.0
1758076583.65348,1758076583.6767,0.0,0.0,0.0,27.1582,-29.56462,0.85944,9.67,-1.08,0.45,4.0
1758076583.66978,1758076583.6867,0.0,0.0,0.0,27.73116,-3.49504,-2.46372,11.05,-1.05,0.49,4.0
1758076583.67072,1758076583.6967,0.0,0.0,0.0,27.44468,11.51645,-4.98473,11.05,-1.05,0.49,4.0
1758076583.68578,1758076583.7067,0.0,0.0,0.0,26.75713,15.41257,-9.96947,11.24,-0.99,1.7,4.0
1758076583.68694,1758076583.7167,0.0,0.0,0.0,27.84575,0.0,-12.2613,11.24,-0.99,1.7,4.0
1758076583.70252,1758076583.7267,0.0,0.0,0.0,29.33544,-30.65324,-8.65166,8.21,-1.06,1.21,4.0
1758076583.72054,1758076583.7367,0.0,0.0,0.0,32.08564,-35.2942,-1.66158,9.12,-1.55,-0.21,4.0
1758076583.72173,1758076583.7467,0.0,0.0,0.0,33.74722,-32.14294,4.69825,9.12,-1.55,-0.21,4.0
1758076583.73767,1758076583.7567,0.0,0.0,0.0,34.60666,-29.67921,7.84952,10.43,-2.11,0.47,4.0
1758076583.74057,1758076583.7667,0.0,0.0,0.0,34.72124,-27.84575,7.50575,10.43,-2.11,0.47,4.0
1758076583.75582,1758076583.7767,0.0,0.0,0.0,33.68992,-22.11617,5.32851,9.62,-1.88,0.31,4.0
1758076583.75759,1758076583.7867,0.0,0.0,0.0,32.37212,-15.64175,2.46372,9.62,-1.88,0.31,4.0
1758076583.77573,1758076583.7967,0.0,0.0,0.0,30.25217,-14.09476,-0.40107,9.9,-1.37,1.22,4.0
1758076583.78031,1758076583.8067,0.0,0.0,0.0,26.35606,-15.46986,-5.4431,9.28,-0.67,0.63,4.0
1758076583.79588,1758076583.8167,0.0,0.0,0.0,23.60586,-12.60507,-7.33386,9.28,-0.67,0.63,4.0
1758076583.80002,1758076583.8267,0.0,0.0,0.0,20.51189,-11.34457,-9.62569,9.82,-0.07,0.56,4.0
1758076583.81558,1758076583.8367,0.0,0.0,0.0,17.58981,-12.77696,-11.57375,9.82,-0.07,0.56,4.0
1758076583.82111,1758076583.8467,0.0,0.0,0.0,13.17803,-14.32395,-12.54778,9.29,0.2,0.07,4.0
1758076583.84109,1758076583.8567,0.0,0.0,0.0,10.48513,-13.5791,-12.89155,9.29,0.2,0.07,4.0
1758076583.84226,1758076583.8667,0.0,0.0,0.0,8.02141,-12.204,-13.80828,9.14,0.07,-0.23,4.0
1758076583.85789,1758076583.8767,0.0,0.0,0.0,5.15662,-8.59437,-14.32395,9.14,0.07,-0.23,4.0
1758076583.86121,1758076583.8867,0.0,0.0,0.0,3.26586,-6.87549,-14.66772,8.79,-0.23,-0.63,4.0
1758076583.87743,1758076583.8967,0.0,0.0,0.0,1.08862,-6.99009,-15.46986,8.14,-0.48,-0.42,4.0
1758076583.87977,1758076583.9067,0.0,0.0,0.0,-1.20321,-7.73493,-15.69904,8.14,-0.48,-0.42,4.0
1758076583.89596,1758076583.9167,0.0,0.0,0.0,-6.24524,-10.48513,-15.0115,8.23,-0.36,0.15,4.0
1758076583.89763,1758076583.9267,0.0,0.0,0.0,-10.48513,-14.9542,-11.51645,8.23,-0.36,0.15,4.0
1758076583.91497,1758076583.9367,0.0,0.0,0.0,-14.9542,-18.85031,-5.50039,9.95,0.51,1.94,4.0
1758076583.93099,1758076583.9467,0.0,0.0,0.0,-20.3973,-18.9649,1.08862,9.95,0.51,1.94,4.0
1758076583.93457,1758076583.9567,0.0,0.0,0.0,-29.39274,-19.59516,11.63104,13.13,1.73,3.71,4.0
1758076583.94997,1758076583.9667,0.0,0.0,0.0,-35.00772,-20.16812,16.84496,14.27,3.08,4.25,4.0
1758076583.95095,1758076583.9767,0.0,0.0,0.0,-39.87786,-21.42862,18.9649,14.27,3.08,4.25,4.0
1758076583.96572,1758076583.9867,0.0,0.0,0.0,-42.91454,-19.48057,18.90761,12.27,3.54,2.76,4.0
1758076583.96692,1758076583.9967,0.0,0.0,0.0,-45.09178,-8.02141,14.15206,12.27,3.54,2.76,4.0
1758076583.98573,1758076584.0067,0.0,0.0,0.0,-45.14908,-0.97403,8.99544,11.63,3.02,2.7,4.0
1758076583.98808,1758076584.0167,0.0,0.0,0.0,-44.11775,0.74485,4.46907,11.63,3.02,2.7,4.0
1758076584.00402,1758076584.0267,0.0,0.0,0.0,-42.05511,0.85944,2.29183,12.11,2.5,2.62,4.0
1758076584.02001,1758076584.0367,0.0,0.0,0.0,-38.15899,7.96411,1.43239,14.24,1.28,1.5,4.0
1758076584.02124,1758076584.0467,0.0,0.0,0.0,-36.21093,15.98552,-1.20321,14.24,1.28,1.5,4.0
1758076584.0361,1758076584.0567,0.0,0.0,0.0,-34.77854,23.94964,-5.4431,14.55,-0.21,0.84,4.0
1758076584.03776,1758076584.0667,0.0,0.0,0.0,-32.88778,30.88243,-12.2613,14.55,-0.21,0.84,4.0
1758076584.05376,1758076584.0767,0.0,0.0,0.0,-31.16891,40.04975,-15.35527,13.08,-0.92,0.81,4.0
1758076584.06998,1758076584.0867,0.0,0.0,0.0,-28.59059,42.1124,-16.84496,13.08,-0.92,0.81,4.0
1758076584.07099,1758076584.0967,0.0,0.0,0.0,-25.61122,42.39888,-17.6471,11.5,-1.06,1.58,4.0
1758076584.08702,1758076584.1067,0.0,0.0,0.0,-20.22541,43.25832,-15.92823,11.5,-1.06,1.58,4.0
1758076584.08802,1758076584.1167,0.0,0.0,0.0,-16.38659,43.60209,-13.06344,10.65,-0.63,1.66,4.0
1758076584.10309,1758076584.1267,0.0,0.0,0.0,-12.43318,43.25832,-9.68299,10.09,-0.14,1.75,4.0
1758076584.11912,1758076584.1367,0.0,0.0,0.0,-8.136,41.94051,-5.50039,10.09,-0.14,1.75,4.0
1758076584.12005,1758076584.1467,0.0,0.0,0.0,-2.23454,40.62271,-0.68755,9.59,0.07,1.68,4.0
1758076584.13516,1758076584.1567,0.0,0.0,0.0,1.03132,39.64868,1.60428,9.59,0.07,1.68,4.0
1758076584.15129,1758076584.1667,0.0,0.0,0.0,3.60963,37.75792,2.92208,9.19,0.01,1.27,4.0
1758076584.15207,1758076584.1767,0.0,0.0,0.0,5.50039,34.77854,3.72423,9.19,0.01,1.27,4.0
1758076584.16693,1758076584.1867,0.0,0.0,0.0,7.04738,29.22085,3.49504,8.71,-0.01,0.9,4.0
1758076584.17076,1758076584.1967,0.0,0.0,0.0,7.21927,25.8404,2.92208,8.6,0.1,0.82,4.0
1758076584.18599,1758076584.2067,0.0,0.0,0.0,6.7609,23.83505,1.71887,8.6,0.1,0.82,4.0
1758076584.18738,1758076584.2167,0.0,0.0,0.0,6.07335,22.34536,0.51566,8.81,0.44,0.83,4.0
1758076584.20296,1758076584.2267,0.0,0.0,0.0,4.46907,17.93358,-1.3178,8.81,0.44,0.83,4.0
1758076584.22027,1758076584.2367,0.0,0.0,0.0,3.26586,12.14671,-1.77617,8.55,0.81,0.81,4.0
1758076584.22297,1758076584.2467,0.0,0.0,0.0,2.23454,6.8182,-1.48969,8.55,0.81,0.81,4.0
1758076584.23798,1758076584.2567,0.0,0.0,0.0,1.03132,2.7502,-0.45837,8.45,1.0,0.65,4.0
1758076584.23992,1758076584.2667,0.0,0.0,0.0,-1.43239,-0.0573,-0.40107,8.68,1.07,0.55,4.0
1758076584.25493,1758076584.2767,0.0,0.0,0.0,-4.23989,2.29183,-0.22918,8.68,1.07,0.55,4.0
1758076584.27119,1758076584.2867,0.0,0.0,0.0,-7.39116,4.35448,-0.80214,9.01,1.16,0.54,4.0
1758076584.27296,1758076584.2967,0.0,0.0,0.0,-13.00614,4.18259,-2.11994,9.01,1.16,0.54,4.0
1758076584.28824,1758076584.3067,0.0,0.0,0.0,-17.01685,4.35448,-3.49504,8.75,1.27,0.62,4.0
1758076584.29316,1758076584.3167,0.0,0.0,0.0,-21.42862,4.81285,-5.15662,8.75,1.27,0.62,4.0
1758076584.30817,1758076584.3267,0.0,0.0,0.0,-26.12688,4.29718,-7.21927,8.82,1.41,0.32,4.0
1758076584.3107,1758076584.3367,0.0,0.0,0.0,-33.11696,1.66158,-9.4538,8.82,1.41,-0.09,4.0
1758076584.32596,1758076584.3467,0.0,0.0,0.0,-36.61201,-3.72423,-10.65701,8.64,1.56,-0.09,4.0
1758076584.32795,1758076584.3567,0.0,0.0,0.0,-39.01843,-11.63104,-10.31324,8.08,1.52,-0.16,4.0
1758076584.34564,1758076584.3667,0.0,0.0,0.0,-40.62271,-17.53251,-9.39651,8.08,1.52,-0.16,4.0
1758076584.35114,1758076584.3767,0.0,0.0,0.0,-41.13837,-24.92367,-7.10468,8.19,1.08,-0.21,4.0
1758076584.36925,1758076584.3867,0.0,0.0,0.0,-41.08107,-29.9084,-5.90147,8.19,1.08,-0.21,4.0
1758076584.37541,1758076584.3967,0.0,0.0,0.0,-41.08107,-35.12231,-4.69825,8.43,0.79,-0.01,4.0
1758076584.39004,1758076584.4067,0.0,0.0,0.0,-40.96649,-32.08564,-3.55234,8.43,0.79,-0.01,4.0
1758076584.39172,1758076584.4167,0.0,0.0,0.0,-41.48215,4.92744,-3.20856,10.07,0.67,0.46,4.0
1758076584.41005,1758076584.4267,0.0,0.0,0.0,-41.42485,19.36597,-0.40107,11.39,0.77,0.78,4.0
1758076584.41124,1758076584.4367,0.0,0.0,0.0,-43.60209,-14.78231,-4.92744,11.39,0.77,0.78,4.0
1758076584.43035,1758076584.4467,0.0,0.0,0.0,-42.91454,-32.54401,-9.11003,6.79,1.08,1.83,4.0
1758076584.4313,1758076584.4567,0.0,0.0,0.0,-42.74266,-35.86716,-15.46986,6.79,1.08,1.83,4.0
1758076584.44609,1758076584.4667,0.0,0.0,0.0,-42.91454,-33.00237,-17.36062,9.71,1.16,-0.36,4.0
1758076584.45123,1758076584.4767,0.0,0.0,0.0,-43.14373,-26.06958,-17.53251,9.71,1.16,-0.36,4.0
1758076584.4661,1758076584.4867,0.0,0.0,0.0,-42.68536,-17.87628,-14.09476,10.02,1.07,-0.1,4.0
1758076584.47391,1758076584.4967,0.0,0.0,0.0,-41.65404,-8.93814,-10.48513,9.78,0.37,0.96,4.0
1758076584.48912,1758076584.5067,0.0,0.0,0.0,-39.70598,-6.07335,-6.58902,9.78,0.37,0.96,4.0
1758076584.49069,1758076584.5167,0.0,0.0,0.0,-37.35685,-3.55234,-2.7502,9.52,-0.27,1.16,4.0
1758076584.50537,1758076584.5267,0.0,0.0,0.0,-33.80451,-0.11459,2.63561,9.52,-0.27,1.16,4.0
1758076584.52197,1758076584.5367,0.0,0.0,0.0,-31.16891,-0.0573,6.18794,10.07,-0.56,0.79,4.0
1758076584.52466,1758076584.5467,0.0,0.0,0.0,-28.13223,-0.17189,8.93814,10.07,-0.56,0.79,4.0
1758076584.54009,1758076584.5567,0.0,0.0,0.0,-24.57989,0.74485,11.34457,10.69,-0.56,0.4,4.0
1758076584.54139,1758076584.5667,0.0,0.0,0.0,-19.25138,4.69825,13.98017,11.24,-0.41,0.03,4.0
1758076584.55647,1758076584.5767,0.0,0.0,0.0,-15.69904,7.84952,14.9542,11.24,-0.41,0.03,4.0
1758076584.55815,1758076584.5867,0.0,0.0,0.0,-12.54778,11.34457,15.92823,10.86,-0.15,0.02,4.0
1758076584.57582,1758076584.5967,0.0,0.0,0.0,-9.74028,14.78231,16.10011,10.86,-0.15,0.02,4.0
1758076584.59117,1758076584.6067,0.0,0.0,0.0,-6.7609,19.36597,15.92823,10.29,0.09,0.1,4.0
1758076584.59398,1758076584.6167,0.0,0.0,0.0,-5.27121,21.48592,15.12609,10.29,0.09,0.1,4.0
1758076584.6092,1758076584.6267,0.0,0.0,0.0,-4.1253,23.0902,14.61043,9.83,0.23,-0.05,4.0
1758076584.6104,1758076584.6367,0.0,0.0,0.0,-2.97938,24.75178,13.98017,9.83,0.23,-0.05,4.0
1758076584.62546,1758076584.6467,0.0,0.0,0.0,-1.43239,26.06958,13.34992,9.64,0.27,-0.09,4.0
1758076584.64197,1758076584.6567,0.0,0.0,0.0,-0.17189,26.18417,13.12073,9.62,0.29,-0.28,4.0
1758076584.64559,1758076584.6667,0.0,0.0,0.0,1.14592,26.12688,13.12073,9.62,0.29,-0.28,4.0
1758076584.66123,1758076584.6767,0.0,0.0,0.0,2.97938,26.24147,13.23533,9.61,0.35,-0.44,4.0
1758076584.66243,1758076584.6867,0.0,0.0,0.0,5.50039,26.01229,13.5218,9.61,0.35,-0.44,4.0
1758076584.67856,1758076584.6967,0.0,0.0,0.0,7.04738,24.57989,14.09476,9.34,0.41,-0.66,4.0
1758076584.67982,1758076584.7067,0.0,0.0,0.0,8.59437,22.51724,15.0115,9.34,0.41,-0.66,4.0
1758076584.69551,1758076584.7167,0.0,0.0,0.0,11.45916,17.18874,16.272,8.6,0.44,-0.61,4.0
1758076584.71151,1758076584.7267,0.0,0.0,0.0,13.75099,10.54242,16.10011,8.1,0.34,0.23,4.0
1758076584.71246,1758076584.7367,0.0,0.0,0.0,15.75634,2.46372,14.43854,8.1,0.34,0.23,4.0
1758076584.72808,1758076584.7467,0.0,0.0,0.0,17.76169,-5.72958,11.45916,8.73,-0.12,2.25,4.0
1758076584.73092,1758076584.7567,0.0,0.0,0.0,20.79837,-19.19409,4.87014,8.73,-0.12,2.25,4.0
1758076584.74732,1758076584.7667,0.0,0.0,0.0,23.94964,-30.19488,-0.68755,10.4,-1.13,5.06,4.0
1758076584.75137,1758076584.7767,0.0,0.0,0.0,27.67386,-41.88322,-5.21392,10.4,-1.13,5.06,4.0
1758076584.76653,1758076584.7867,0.0,0.0,0.0,30.76784,-56.49364,-8.36518,11.67,-2.26,7.46,4.0
1758076584.76745,1758076584.7967,0.0,0.0,0.0,35.40879,-80.32869,-11.17268,11.6,-2.56,6.88,4.0
1758076584.78562,1758076584.8067,0.0,0.0,0.0,38.1017,-89.89708,-13.80828,11.6,-2.56,6.88,4.0
1758076584.80157,1758076584.8167,0.0,0.0,0.0,40.27893,-90.92841,-16.84496,14.47,-2.45,5.71,4.0
1758076584.80523,1758076584.8267,0.0,0.0,0.0,41.48215,-85.54259,-19.19409,14.47,-2.45,5.71,4.0
1758076584.82032,1758076584.8367,0.0,0.0,0.0,40.85189,-68.92683,-18.16276,17.35,-1.73,2.83,4.0
1758076584.82156,1758076584.8467,0.0,0.0,0.0,39.3622,-57.52497,-13.5218,17.35,-1.73,2.83,4.0
1758076584.83862,1758076584.8567,0.0,0.0,0.0,37.92981,-48.12846,-8.47978,15.17,-0.5,0.67,4.0
1758076584.84142,1758076584.8667,0.0,0.0,0.0,35.86716,-35.98175,-2.92208,15.17,-0.5,0.67,4.0
1758076584.8574,1758076584.8767,0.0,0.0,0.0,32.42941,-21.94428,5.21392,11.96,0.09,0.64,4.0
1758076584.86021,1758076584.8867,0.0,0.0,0.0,30.19488,-12.83425,9.39651,10.28,-0.17,0.49,4.0
1758076584.87559,1758076584.8967,0.0,0.0,0.0,27.84575,-1.48969,11.80293,10.28,-0.17,0.49,4.0
1758076584.89163,1758076584.9067,0.0,0.0,0.0,25.7831,11.28727,12.14671,11.02,-0.47,0.83,4.0
1758076584.89365,1758076584.9167,0.0,0.0,0.0,24.86637,27.61657,10.71431,11.02,-0.47,0.83,4.0
1758076584.90941,1758076584.9267,0.0,0.0,0.0,23.72045,37.87251,8.25059,10.6,-0.67,0.66,4.0
1758076584.91056,1758076584.9367,0.0,0.0,0.0,22.63183,47.72739,4.46907,10.6,-0.67,0.66,4.0
1758076584.92565,1758076584.9467,0.0,0.0,0.0,21.60051,58.26981,-0.57296,9.7,-0.63,0.69,4.0
1758076584.92977,1758076584.9567,0.0,0.0,0.0,20.79837,61.87944,-4.0107,8.74,-0.29,0.6,4.0
1758076584.94569,1758076584.9667,0.0,0.0,0.0,20.34,63.31184,-6.70361,8.74,-0.29,0.6,4.0
1758076584.96172,1758076584.9767,0.0,0.0,0.0,19.99623,65.03072,-8.59437,8.99,-0.04,0.58,4.0
1758076584.96354,1758076584.9867,0.0,0.0,0.0,20.45459,63.48372,-9.39651,8.99,-0.04,0.58,4.0
1758076584.97925,1758076584.9967,0.0,0.0,0.0,21.88699,62.62429,-8.65166,9.3,-0.13,0.51,4.0
1758076584.98122,1758076585.0067,0.0,0.0,0.0,23.20479,63.19725,-7.33386,9.3,-0.13,0.51,4.0
1758076584.99647,1758076585.0167,0.0,0.0,0.0,24.75178,63.54102,-5.50039,9.57,-0.54,0.66,4.0
1758076584.99846,1758076585.0267,0.0,0.0,0.0,26.06958,61.1346,-2.46372,8.95,-0.84,1.13,4.0
1758076585.01367,1758076585.0367,0.0,0.0,0.0,26.18417,58.84277,-1.03132,8.95,-0.84,1.13,4.0
1758076585.02955,1758076585.0467,0.0,0.0,0.0,25.61122,55.86338,-0.11459,8.35,-0.79,1.18,4.0
1758076585.03068,1758076585.0567,0.0,0.0,0.0,25.21014,50.93595,0.40107,8.35,-0.79,1.18,4.0
1758076585.04577,1758076585.0667,0.0,0.0,0.0,24.4653,42.28429,0.57296,7.78,-0.49,0.84,4.0
1758076585.06149,1758076585.0767,0.0,0.0,0.0,24.4653,36.55471,0.51566,7.78,-0.49,0.84,4.0
1758076585.06354,1758076585.0867,0.0,0.0,0.0,24.75178,30.36677,0.51566,7.66,-0.22,0.38,4.0
1758076585.07849,1758076585.0967,0.0,0.0,0.0,25.09555,26.41335,-1.03132,7.66,-0.22,0.38,4.0
1758076585.07997,1758076585.1067,0.0,0.0,0.0,25.43933,22.40265,-3.20856,7.83,-0.12,-0.07,4.0
1758076585.09475,1758076585.1167,0.0,0.0,0.0,25.61122,19.42327,-5.84417,7.89,-0.16,0.0,4.0
1758076585.11082,1758076585.1267,0.0,0.0,0.0,25.38203,15.75634,-9.33921,7.89,-0.16,0.0,4.0
1758076585.11123,1758076585.1367,0.0,0.0,0.0,24.86637,9.39651,-13.80828,7.77,-0.23,0.44,4.0
1758076585.12681,1758076585.1467,0.0,0.0,0.0,23.72045,2.6929,-15.75634,7.77,-0.23,0.44,4.0
1758076585.12884,1758076585.1567,0.0,0.0,0.0,22.57454,-4.87014,-16.10011,7.51,-0.39,0.59,4.0
1758076585.14548,1758076585.1667,0.0,0.0,0.0,21.02755,-12.204,-15.35527,7.51,-0.39,0.59,4.0
1758076585.16154,1758076585.1767,0.0,0.0,0.0,19.36597,-19.59516,-12.60507,7.5,-0.55,0.5,4.0
1758076585.16229,1758076585.1867,0.0,0.0,0.0,18.90761,-25.43933,-10.65701,7.97,-0.7,0.51,4.0
1758076585.17796,1758076585.1967,0.0,0.0,0.0,19.53786,-30.88243,-8.36518,7.97,-0.7,0.51,4.0
1758076585.18033,1758076585.2067,0.0,0.0,0.0,20.62648,-36.26823,-6.18794,8.49,-0.67,0.74,4.0
1758076585.19585,1758076585.2167,0.0,0.0,0.0,23.89234,-44.57612,-3.32316,8.49,-0.67,0.74,4.0
1758076585.21165,1758076585.2267,0.0,0.0,0.0,26.47065,-48.07116,-1.66158,8.85,-0.66,0.28,4.0
1758076585.21216,1758076585.2367,0.0,0.0,0.0,29.04896,-49.33167,-0.11459,8.85,-0.66,0.28,4.0
1758076585.22786,1758076585.2467,0.0,0.0,0.0,32.08564,-47.78468,1.43239,9.55,-0.83,0.17,4.0
1758076585.22985,1758076585.2567,0.0,0.0,0.0,36.21093,-41.08107,2.86479,10.23,-1.05,0.02,4.0
1758076585.24487,1758076585.2667,0.0,0.0,0.0,39.4195,-36.03905,2.23454,10.23,-1.05,0.02,4.0
1758076585.26086,1758076585.2767,0.0,0.0,0.0,41.76862,-33.00237,1.43239,10.13,-1.21,-0.17,4.0
1758076585.26124,1758076585.2867,0.0,0.0,0.0,42.91454,-31.79916,-0.22918,10.13,-1.21,-0.17,4.0
1758076585.27687,1758076585.2967,0.0,0.0,0.0,42.85724,-30.02299,-5.09932,9.77,-1.2,-0.17,4.0
1758076585.27779,1758076585.3067,0.0,0.0,0.0,42.39888,-29.62192,-8.136,9.77,-1.2,-0.17,4.0
1758076585.29368,1758076585.3167,0.0,0.0,0.0,41.08107,-24.29341,-12.08941,9.82,-0.97,-0.83,4.0
1758076585.30965,1758076585.3267,0.0,0.0,0.0,38.84654,-11.80293,-15.06879,9.82,-0.97,-0.83,4.0
1758076585.31092,1758076585.3367,0.0,0.0,0.0,36.38282,14.78231,-15.24068,11.18,-0.78,-0.83,4.0
1758076585.32574,1758076585.3467,0.0,0.0,0.0,32.6013,29.10626,-17.01685,11.62,-0.4,0.25,4.0
1758076585.32688,1758076585.3567,0.0,0.0,0.0,27.44468,20.62648,-20.16812,11.62,-0.4,0.25,4.0
1758076585.34333,1758076585.3667,0.0,0.0,0.0,28.70519,-24.80907,-22.05888,7.23,-0.27,0.36,4.0
1758076585.35992,1758076585.3767,0.0,0.0,0.0,29.10626,-51.85268,-11.97482,7.23,-0.27,0.36,4.0
1758076585.36116,1758076585.3867,0.0,0.0,0.0,29.10626,-49.96192,-3.55234,7.41,-0.5,-1.12,4.0
1758076585.37576,1758076585.3967,0.0,0.0,0.0,29.39274,-43.25832,1.20321,7.41,-0.5,-1.12,4.0
1758076585.37716,1758076585.4067,0.0,0.0,0.0,28.76248,-46.35228,1.94806,9.04,-0.96,-0.92,4.0
1758076585.39227,1758076585.4167,0.0,0.0,0.0,26.47065,-49.27437,0.45837,6.95,-0.63,-0.33,4.0
1758076585.40949,1758076585.4267,0.0,0.0,0.0,21.7151,-50.99325,-0.17189,6.95,-0.63,-0.33,4.0
1758076585.41069,1758076585.4367,0.0,0.0,0.0,15.41257,-58.26981,-0.17189,7.71,-0.02,3.25,4.0
1758076585.42568,1758076585.4467,0.0,0.0,0.0,4.18259,-73.45319,4.58366,7.71,-0.02,3.25,4.0
1758076585.42698,1758076585.4567,0.0,0.0,0.0,-3.95341,-82.39134,12.2613,11.44,1.85,7.08,4.0
1758076585.44353,1758076585.4667,0.0,0.0,0.0,-11.00079,-90.06896,21.25674,11.44,1.85,7.08,4.0
1758076585.45973,1758076585.4767,0.0,0.0,0.0,-16.272,-94.30885,29.96569,18.34,5.04,10.36,4.0
1758076585.46092,1758076585.4867,0.0,0.0,0.0,-20.22541,-84.05292,37.47144,17.63,6.48,5.56,4.0
1758076585.47581,1758076585.4967,0.0,0.0,0.0,-20.22541,-68.58305,40.16434,17.63,6.48,5.56,4.0
1758076585.47771,1758076585.5067,0.0,0.0,0.0,-18.44924,-53.80074,40.45082,15.38,5.76,3.53,4.0
1758076585.49273,1758076585.5167,0.0,0.0,0.0,-17.18874,-39.87786,36.55471,15.38,5.76,3.53,4.0
1758076585.50973,1758076585.5267,0.0,0.0,0.0,-16.21471,-16.50119,31.45539,15.28,5.06,0.55,4.0
1758076585.51095,1758076585.5367,0.0,0.0,0.0,-17.24603,1.3751,23.20479,15.28,5.06,0.55,4.0
1758076585.52572,1758076585.5467,0.0,0.0,0.0,-19.99623,19.88164,12.49048,17.07,3.03,-0.39,4.0
1758076585.53097,1758076585.5567,0.0,0.0,0.0,-26.18417,47.03984,-7.62034,17.07,3.03,-0.39,4.0
1758076585.54575,1758076585.5667,0.0,0.0,0.0,-29.50733,60.27517,-18.62113,15.89,0.61,-1.52,4.0
1758076585.55019,1758076585.5767,0.0,0.0,0.0,-30.88243,69.04142,-26.35606,12.62,-0.48,-0.79,4.0
1758076585.56591,1758076585.5867,0.0,0.0,0.0,-30.53865,76.1461,-30.02299,12.62,-0.48,-0.79,4.0
1758076585.57126,1758076585.5967,0.0,0.0,0.0,-28.24682,85.42801,-29.62192,10.01,-0.33,-0.43,4.0
1758076585.58596,1758076585.6067,0.0,0.0,0.0,-26.69983,90.58463,-25.61122,10.01,-0.33,-0.43,4.0
1758076585.58701,1758076585.6167,0.0,0.0,0.0,-24.75178,91.78784,-20.51189,8.67,0.34,0.0,4.0
1758076585.60209,1758076585.6267,0.0,0.0,0.0,-23.20479,88.35009,-14.49583,8.67,0.34,0.0,4.0
1758076585.618,1758076585.6367,0.0,0.0,0.0,-22.63183,80.27139,-5.95876,7.79,0.9,1.14,4.0
1758076585.62096,1758076585.6467,0.0,0.0,0.0,-22.91831,75.05748,-1.66158,7.38,1.46,1.29,4.0
1758076585.63616,1758076585.6567,0.0,0.0,0.0,-23.49127,70.30193,1.20321,7.38,1.46,1.29,4.0
1758076585.63732,1758076585.6667,0.0,0.0,0.0,-24.35071,65.43179,2.6929,7.23,1.79,1.28,4.0
1758076585.6524,1758076585.6767,0.0,0.0,0.0,-25.89769,58.67088,2.92208,7.23,1.79,1.28,4.0
1758076585.66913,1758076585.6867,0.0,0.0,0.0,-27.10091,55.34772,1.94806,7.44,1.81,1.52,4.0
1758076585.67,1758076585.6967,0.0,0.0,0.0,-28.13223,52.48294,0.40107,7.44,1.81,1.52,4.0
1758076585.6851,1758076585.7067,0.0,0.0,0.0,-29.04896,49.90463,-1.71887,7.95,1.49,1.52,4.0
1758076585.68692,1758076585.7167,0.0,0.0,0.0,-29.62192,44.8053,-3.83882,8.29,0.98,1.59,4.0
1758076585.70484,1758076585.7267,0.0,0.0,0.0,-29.22085,39.53409,-5.21392,8.29,0.98,1.59,4.0
1758076585.70724,1758076585.7367,0.0,0.0,0.0,-28.24682,33.86181,-6.18794,8.46,0.39,1.52,4.0
1758076585.72596,1758076585.7467,0.0,0.0,0.0,-25.8404,26.69983,-7.39116,8.46,0.39,1.52,4.0
1758076585.73105,1758076585.7567,0.0,0.0,0.0,-24.00693,22.51724,-7.79223,8.91,-0.09,1.25,4.0
1758076585.74595,1758076585.7667,0.0,0.0,0.0,-22.11617,19.76705,-8.136,8.91,-0.09,1.25,4.0
1758076585.75383,1758076585.7767,0.0,0.0,0.0,-20.22541,18.33465,-8.136,9.28,-0.36,0.78,4.0
1758076585.76918,1758076585.7867,0.0,0.0,0.0,-17.18874,16.61578,-7.10468,9.28,-0.36,0.78,4.0
1758076585.77015,1758076585.7967,0.0,0.0,0.0,-14.61043,16.21471,-5.90147,9.67,-0.47,0.54,4.0
1758076585.78523,1758076585.8067,0.0,0.0,0.0,-12.08941,17.24603,-3.72423,10.03,-0.42,0.17,4.0
1758076585.78614,1758076585.8167,0.0,0.0,0.0,-9.39651,18.44924,-1.08862,10.03,-0.42,0.17,4.0
1758076585.80203,1758076585.8267,0.0,0.0,0.0,-6.24524,17.13144,3.89611,10.02,-0.24,0.02,4.0
1758076585.81829,1758076585.8367,0.0,0.0,0.0,-4.81285,15.35527,7.84952,10.02,-0.24,0.02,4.0
1758076585.81996,1758076585.8467,0.0,0.0,0.0,-4.23989,15.0115,11.86023,9.92,0.09,0.1,4.0
1758076585.83524,1758076585.8567,0.0,0.0,0.0,-4.64096,14.09476,15.46986,9.92,0.09,0.1,4.0
1758076585.83621,1758076585.8667,0.0,0.0,0.0,-7.33386,12.54778,18.50654,10.24,0.66,0.57,4.0
1758076585.85399,1758076585.8767,0.0,0.0,0.0,-10.54242,8.02141,17.47521,10.27,1.36,0.89,4.0
1758076585.87,1758076585.8867,0.0,0.0,0.0,-14.72501,0.68755,15.06879,10.27,1.36,0.89,4.0
1758076585.87163,1758076585.8967,0.0,0.0,0.0,-19.36597,-5.72958,11.74564,10.05,1.96,0.56,4.0
1758076585.8864,1758076585.9067,0.0,0.0,0.0,-27.2155,-11.45916,6.70361,10.05,1.96,0.56,4.0
1758076585.89149,1758076585.9167,0.0,0.0,0.0,-33.11696,-14.09476,3.26586,10.45,2.38,0.14,4.0
1758076585.90636,1758076585.9267,0.0,0.0,0.0,-37.92981,-18.27736,0.97403,10.45,2.38,0.14,4.0
1758076585.91156,1758076585.9367,0.0,0.0,0.0,-42.1124,-23.89234,-0.17189,10.29,2.4,-0.35,4.0
1758076585.92604,1758076585.9467,0.0,0.0,0.0,-46.35228,-29.67921,1.03132,9.97,1.82,-0.75,4.0
1758076585.92993,1758076585.9567,0.0,0.0,0.0,-49.04519,-31.16891,2.11994,9.97,1.82,-0.75,4.0
1758076585.94534,1758076585.9667,0.0,0.0,0.0,-50.47758,-33.80451,4.18259,9.71,1.18,-0.88,4.0
1758076585.94625,1758076585.9767,0.0,0.0,0.0,-52.02457,-35.3515,7.67763,9.71,1.18,-0.88,4.0
1758076585.96209,1758076585.9867,0.0,0.0,0.0,-52.884,-32.48671,9.74028,9.52,0.78,-0.93,4.0
1758076585.98013,1758076585.9967,0.0,0.0,0.0,-54.60288,-20.85567,10.59972,9.52,0.78,-0.93,4.0
1758076585.98106,1758076586.0067,0.0,0.0,0.0,-53.45696,-8.36518,11.91752,10.41,0.54,0.11,4.0
1758076585.99607,1758076586.0167,0.0,0.0,0.0,-46.63877,-37.64333,13.46451,8.5,0.54,2.72,4.0
1758076585.99805,1758076586.0267,0.0,0.0,0.0,-46.63877,-79.06818,2.34913,8.5,0.83,2.72,4.0
1758076586.01333,1758076586.0367,0.0,0.0,0.0,-38.50277,-118.2012,-7.21927,10.11,-0.4,6.14,4.0
1758076586.02925,1758076586.0467,0.0,0.0,0.0,-31.91375,-131.49382,-24.35071,10.11,-0.4,6.14,4.0
1758076586.03058,1758076586.0567,0.0,0.0,0.0,-19.25138,-104.04914,-35.3515,16.74,-2.77,4.81,4.0
1758076586.04513,1758076586.0667,0.0,0.0,0.0,-11.22997,-87.14688,-33.74722,16.74,-2.77,4.81,4.0
1758076586.04627,1758076586.0767,0.0,0.0,0.0,-4.35448,-82.50593,-28.476,13.47,-3.41,3.03,4.0
1758076586.06248,1758076586.0867,0.0,0.0,0.0,2.00535,-82.04756,-22.51724,13.47,-3.41,3.03,4.0
1758076586.07813,1758076586.0967,0.0,0.0,0.0,8.25059,-74.02615,-11.00079,8.63,-2.08,3.61,4.0
1758076586.08006,1758076586.1067,0.0,0.0,0.0,9.11003,-62.96807,-2.92208,9.02,-0.88,2.4,4.0
1758076586.09536,1758076586.1167,0.0,0.0,0.0,8.0787,-52.08187,4.98473,9.02,-0.88,2.4,4.0
1758076586.09657,1758076586.1267,0.0,0.0,0.0,5.84417,-41.94051,11.17268,10.76,0.2,2.77,4.0
1758076586.1147,1758076586.1367,0.0,0.0,0.0,0.80214,-26.52795,15.92823,10.76,0.2,2.77,4.0
1758076586.13015,1758076586.1467,0.0,0.0,0.0,-2.86479,-15.0115,17.24603,12.28,1.24,1.8,4.0
1758076586.13161,1758076586.1567,0.0,0.0,0.0,-6.7609,-3.66693,16.272,12.28,1.24,1.8,4.0
1758076586.14724,1758076586.1667,0.0,0.0,0.0,-11.91752,13.86558,12.204,12.57,1.57,0.38,4.0
1758076586.15172,1758076586.1767,0.0,0.0,0.0,-14.49583,25.55392,8.30789,12.04,0.95,0.26,4.0
1758076586.1674,1758076586.1867,0.0,0.0,0.0,-15.92823,36.61201,4.52637,12.04,0.95,0.26,4.0
1758076586.17133,1758076586.1967,0.0,0.0,0.0,-16.3293,46.52417,1.71887,10.95,0.01,0.54,4.0
1758076586.18705,1758076586.2067,0.0,0.0,0.0,-15.41257,60.27517,-1.08862,10.95,0.01,0.54,4.0
1758076586.1914,1758076586.2167,0.0,0.0,0.0,-14.9542,66.80688,-2.00535,10.03,-0.75,0.89,4.0
1758076586.20623,1758076586.2267,0.0,0.0,0.0,-13.86558,71.90621,-2.6929,10.03,-0.75,0.89,4.0
1758076586.20743,1758076586.2367,0.0,0.0,0.0,-12.08941,74.771,-2.86479,9.1,-1.22,1.11,4.0
1758076586.22223,1758076586.2467,0.0,0.0,0.0,-9.5684,76.77635,-3.38045,8.49,-1.41,1.21,4.0
1758076586.23824,1758076586.2567,0.0,0.0,0.0,-7.33386,78.09415,-3.03668,8.49,-1.41,1.21,4.0
1758076586.24018,1758076586.2667,0.0,0.0,0.0,-5.27121,77.92226,-3.26586,8.43,-1.41,1.32,4.0
1758076586.2555,1758076586.2767,0.0,0.0,0.0,-2.86479,77.06283,-3.49504,8.43,-1.41,1.32,4.0
1758076586.25642,1758076586.2867,0.0,0.0,0.0,1.48969,75.28666,-2.6929,8.39,-1.32,1.18,4.0
1758076586.27368,1758076586.2967,0.0,0.0,0.0,4.64096,75.91692,-2.23454,8.39,-1.32,1.18,4.0
1758076586.29003,1758076586.3067,0.0,0.0,0.0,8.136,74.7137,-1.83346,8.83,-1.25,1.16,4.0
1758076586.29128,1758076586.3167,0.0,0.0,0.0,11.91752,70.53111,-0.97403,8.83,-1.25,1.16,4.0
1758076586.3095,1758076586.3267,0.0,0.0,0.0,17.36062,60.67623,1.03132,8.45,-1.09,1.46,4.0
1758076586.31148,1758076586.3367,0.0,0.0,0.0,21.08485,54.71747,2.63561,8.43,-1.04,1.44,4.0
1758076586.32731,1758076586.3467,0.0,0.0,0.0,24.80907,49.38896,4.29718,8.43,-1.04,1.44,4.0
1758076586.33151,1758076586.3567,0.0,0.0,0.0,28.99167,44.28964,5.90147,8.75,-1.07,1.37,4.0
1758076586.34631,1758076586.3667,0.0,0.0,0.0,35.06502,36.95578,6.35983,8.75,-1.07,1.37,4.0
1758076586.34751,1758076586.3767,0.0,0.0,0.0,39.01843,32.08564,6.41713,8.94,-1.08,1.16,4.0
1758076586.36336,1758076586.3867,0.0,0.0,0.0,42.74266,28.01764,6.18794,8.94,-1.08,1.16,4.0
1758076586.37926,1758076586.3967,0.0,0.0,0.0,48.07116,23.54857,5.95876,9.25,-0.98,0.89,4.0
1758076586.38061,1758076586.4067,0.0,0.0,0.0,51.16513,22.91831,5.61499,9.44,-0.79,0.35,4.0
1758076586.39578,1758076586.4167,0.0,0.0,0.0,52.884,22.97561,4.69825,9.44,-0.79,0.35,4.0
1758076586.3977,1758076586.4267,0.0,0.0,0.0,53.74345,21.60051,3.89611,9.37,-0.56,0.34,4.0
1758076586.41327,1758076586.4367,0.0,0.0,0.0,53.05589,15.06879,2.11994,9.37,-0.56,0.34,4.0
1758076586.4296,1758076586.4467,0.0,0.0,0.0,50.99325,9.68299,1.08862,9.12,-0.22,0.48,4.0
1758076586.43055,1758076586.4567,0.0,0.0,0.0,48.12846,4.81285,-0.17189,9.12,-0.22,0.48,4.0
1758076586.44533,1758076586.4667,0.0,0.0,0.0,44.51882,-0.85944,-1.43239,9.27,0.15,0.46,4.0
1758076586.44766,1758076586.4767,0.0,0.0,0.0,38.15899,-9.62569,-3.49504,9.23,0.47,0.36,4.0
1758076586.46371,1758076586.4867,0.0,0.0,0.0,33.9764,-15.41257,-4.92744,9.23,0.47,0.36,4.0
1758076586.48066,1758076586.4967,0.0,0.0,0.0,29.62192,-19.70975,-6.8182,9.23,0.61,0.13,4.0
1758076586.48157,1758076586.5067,0.0,0.0,0.0,25.43933,-23.26209,-8.93814,9.23,0.61,0.13,4.0
1758076586.49635,1758076586.5167,0.0,0.0,0.0,20.97026,-26.64254,-11.80293,9.06,0.64,-0.13,4.0
1758076586.49834,1758076586.5267,0.0,0.0,0.0,18.90761,-28.59059,-13.75099,9.06,0.64,-0.13,4.0
1758076586.51438,1758076586.5367,0.0,0.0,0.0,17.81899,-31.51268,-15.41257,8.78,0.48,0.08,4.0
1758076586.53039,1758076586.5467,0.0,0.0,0.0,17.81899,-38.90384,-16.61578,8.78,0.48,0.08,4.0
1758076586.5316,1758076586.5567,0.0,0.0,0.0,19.48057,-56.49364,-13.12073,8.79,0.1,2.11,4.0
1758076586.54675,1758076586.5667,0.0,0.0,0.0,21.37133,-78.09415,-5.50039,9.84,0.41,5.26,4.0
1758076586.54788,1758076586.5767,0.0,0.0,0.0,23.54857,-99.69466,5.21392,9.84,0.41,5.26,4.0
1758076586.56242,1758076586.5867,0.0,0.0,0.0,24.29341,-115.96667,23.66316,12.11,1.24,5.91,4.0
1758076586.57866,1758076586.5967,0.0,0.0,0.0,22.51724,-112.81539,31.79916,12.11,1.24,5.91,4.0
1758076586.58116,1758076586.6067,0.0,0.0,0.0,18.85031,-104.39291,34.09099,13.72,1.19,4.3,4.0
1758076586.59672,1758076586.6167,0.0,0.0,0.0,15.06879,-99.69466,32.08564,13.72,1.19,4.3,4.0
1758076586.59764,1758076586.6267,0.0,0.0,0.0,11.17268,-88.86576,24.75178,11.82,0.54,2.78,4.0
1758076586.61323,1758076586.6367,0.0,0.0,0.0,10.54242,-78.26604,18.33465,11.5,0.01,1.97,4.0
1758076586.62948,1758076586.6467,0.0,0.0,0.0,12.08941,-70.41652,13.5791,11.5,0.01,1.97,4.0
1758076586.63112,1758076586.6567,0.0,0.0,0.0,14.38124,-59.47303,11.22997,11.65,0.24,2.64,4.0
1758076586.64544,1758076586.6667,0.0,0.0,0.0,16.55848,-26.35606,10.31324,11.65,0.24,2.64,4.0
1758076586.64709,1758076586.6767,0.0,0.0,0.0,17.13144,-0.0573,11.45916,14.0,1.05,3.4,4.0
1758076586.66335,1758076586.6867,0.0,0.0,0.0,19.70975,6.7609,12.08941,14.0,1.05,3.4,4.0
1758076586.67982,1758076586.6967,0.0,0.0,0.0,21.88699,-9.11003,10.31324,11.79,1.82,3.07,4.0
1758076586.68094,1758076586.7067,0.0,0.0,0.0,27.96034,-59.35843,11.91752,7.7,1.44,1.63,4.0
1758076586.6958,1758076586.7167,0.0,0.0,0.0,28.64789,-38.73195,11.17268,7.7,1.44,1.63,4.0
1758076586.69669,1758076586.7267,0.0,0.0,0.0,33.34615,-2.97938,13.46451,15.26,0.63,0.65,4.0
1758076586.71341,1758076586.7367,0.0,0.0,0.0,36.89849,16.50119,11.80293,15.26,0.63,0.65,4.0
1758076586.72978,1758076586.7467,0.0,0.0,0.0,40.39353,17.99088,12.54778,10.77,0.68,1.07,4.0
1758076586.73068,1758076586.7567,0.0,0.0,0.0,40.62271,23.37668,11.63104,10.77,0.68,1.07,4.0
1758076586.74581,1758076586.7667,0.0,0.0,0.0,39.4768,32.6013,9.62569,9.71,0.54,2.18,4.0
1758076586.74754,1758076586.7767,0.0,0.0,0.0,36.38282,40.7373,4.92744,9.71,0.54,2.18,4.0
1758076586.76488,1758076586.7867,0.0,0.0,0.0,33.9764,49.90463,2.23454,8.64,0.78,0.41,4.0
1758076586.78086,1758076586.7967,0.0,0.0,0.0,31.39809,55.57691,0.85944,7.59,1.09,0.86,4.0
1758076586.78178,1758076586.8067,0.0,0.0,0.0,29.39274,59.53032,1.94806,7.59,1.09,0.86,4.0
1758076586.79764,1758076586.8167,0.0,0.0,0.0,27.67386,58.3844,4.98473,6.86,0.99,0.77,4.0
1758076586.79859,1758076586.8267,0.0,0.0,0.0,27.04361,57.41038,8.136,6.86,0.99,0.77,4.0
1758076586.81361,1758076586.8367,0.0,0.0,0.0,26.47065,57.58226,11.91752,6.9,0.72,1.03,4.0
1758076586.83042,1758076586.8467,0.0,0.0,0.0,26.01229,56.55093,15.46986,6.9,0.72,1.03,4.0
1758076586.83402,1758076586.8567,0.0,0.0,0.0,25.55392,56.66553,21.02755,7.32,0.55,0.75,4.0
1758076586.85043,1758076586.8667,0.0,0.0,0.0,24.80907,56.78012,22.97561,8.05,0.53,1.19,4.0
1758076586.85401,1758076586.8767,0.0,0.0,0.0,23.54857,56.66553,22.23076,8.05,0.53,1.19,4.0
1758076586.86969,1758076586.8867,0.0,0.0,0.0,22.05888,54.25911,18.79302,8.28,0.73,1.04,4.0
1758076586.87083,1758076586.8967,0.0,0.0,0.0,20.97026,48.8733,12.2613,8.28,0.73,1.04,4.0
1758076586.88597,1758076586.9067,0.0,0.0,0.0,20.62648,43.83128,8.65166,8.71,0.84,0.9,4.0
1758076586.8869,1758076586.9167,0.0,0.0,0.0,20.11082,39.13302,6.07335,8.71,0.84,0.9,4.0
1758076586.90533,1758076586.9267,0.0,0.0,0.0,19.70975,34.66395,4.52637,9.38,0.72,0.51,4.0
1758076586.92067,1758076586.9367,0.0,0.0,0.0,17.99088,28.70519,3.95341,9.77,0.68,0.11,4.0
1758076586.9219,1758076586.9467,0.0,0.0,0.0,16.10011,26.12688,4.46907,9.77,0.68,0.11,4.0
1758076586.9377,1758076586.9567,0.0,0.0,0.0,13.80828,25.21014,5.72958,10.11,0.73,-0.26,4.0
1758076586.93977,1758076586.9667,0.0,0.0,0.0,11.51645,25.89769,7.62034,10.11,0.73,-0.26,4.0
1758076586.95495,1758076586.9767,0.0,0.0,0.0,8.70896,28.07493,11.00079,10.5,0.82,-0.02,4.0
1758076586.97091,1758076586.9867,0.0,0.0,0.0,7.96411,26.75713,13.23533,10.5,0.82,-0.02,4.0
1758076586.97462,1758076586.9967,0.0,0.0,0.0,7.73493,22.97561,15.69904,10.51,1.01,0.47,4.0
1758076586.99094,1758076587.0067,0.0,0.0,0.0,8.36518,17.53251,19.13679,10.51,1.01,0.47,4.0
1758076586.99327,1758076587.0167,0.0,0.0,0.0,9.11003,12.43318,21.31403,10.7,1.07,0.69,4.0
1758076587.00962,1758076587.0267,0.0,0.0,0.0,9.62569,7.62034,22.51724,10.65,0.9,0.35,4.0
1758076587.01465,1758076587.0367,0.0,0.0,0.0,9.74028,1.94806,23.49127,10.65,0.9,0.35,4.0
1758076587.02969,1758076587.0467,0.0,0.0,0.0,9.68299,-1.20321,22.91831,10.81,0.65,0.02,4.0
1758076587.03088,1758076587.0567,0.0,0.0,0.0,9.68299,-1.94806,22.57454,10.81,0.65,0.02,4.0
1758076587.04593,1758076587.0667,0.0,0.0,0.0,9.28192,-3.32316,22.11617,11.14,0.37,0.0,4.0
1758076587.05111,1758076587.0767,0.0,0.0,0.0,8.02141,-4.46907,21.42862,11.14,0.37,0.0,4.0
1758076587.10009,1758076587.0867,0.0,0.0,0.0,4.58366,-5.15662,19.82434,10.89,0.43,0.05,4.0
1758076587.10126,1758076587.0967,0.0,0.0,0.0,1.20321,-7.39116,18.50654,10.8,1.09,1.19,4.0
1758076587.10171,1758076587.1067,0.0,0.0,0.0,-2.86479,-18.27736,16.04282,10.8,1.09,1.19,4.0
1758076587.10531,1758076587.1167,0.0,0.0,0.0,-7.04738,-39.4768,12.83425,9.75,1.73,3.15,4.0
1758076587.1059,1758076587.1267,0.0,0.0,0.0,-13.06344,-75.34396,4.98473,9.75,1.73,3.15,4.0
1758076587.11118,1758076587.1367,0.0,0.0,0.0,-16.04282,-91.73055,-3.26586,10.16,1.56,4.79,4.0
1758076587.15533,1758076587.1467,0.0,0.0,0.0,-16.272,-100.43951,-11.11538,10.16,1.56,4.79,4.0
1758076587.15889,1758076587.1567,0.0,0.0,0.0,-15.12609,-100.89787,-17.36062,12.11,0.83,4.7,4.0
1758076587.15945,1758076587.1667,0.0,0.0,0.0,-13.5791,-96.19962,-21.7724,12.14,-0.07,3.93,4.0
1758076587.16262,1758076587.1767,0.0,0.0,0.0,-14.09476,-92.3035,-21.88699,12.14,-0.07,3.93,4.0
1758076587.163,1758076587.1867,0.0,0.0,0.0,-15.69904,-86.34474,-20.79837,10.48,-0.67,3.15,4.0
1758076587.17984,1758076587.1967,0.0,0.0,0.0,-19.53786,-76.89094,-16.55848,10.48,-0.67,3.15,4.0
1758076587.1809,1758076587.2067,0.0,0.0,0.0,-20.34,-64.74423,-10.71431,10.21,-1.15,3.05,4.0
1758076587.19603,1758076587.2167,0.0,0.0,0.0,-23.89234,-79.12547,-10.59972,10.21,-1.15,3.05,4.0
1758076587.19699,1758076587.2267,0.0,0.0,0.0,-25.38203,-94.93911,-10.08406,8.05,-1.3,3.25,4.0
1758076587.21375,1758076587.2367,0.0,0.0,0.0,-26.35606,-104.79399,-10.65701,8.05,-1.3,3.25,4.0
1758076587.23091,1758076587.2467,0.0,0.0,0.0,-25.15285,-85.54259,-7.67763,9.83,-1.03,1.89,4.0
1758076587.23536,1758076587.2567,0.0,0.0,0.0,-28.24682,-42.91454,-7.62034,15.0,-0.46,0.26,4.0
1758076587.25096,1758076587.2667,0.0,0.0,0.0,-33.23156,-11.34457,-11.91752,15.0,-0.46,0.26,4.0
1758076587.25534,1758076587.2767,0.0,0.0,0.0,-34.77854,-3.49504,-12.49048,11.73,-0.41,1.66,4.0
1758076587.27074,1758076587.2867,0.0,0.0,0.0,-32.71589,-1.3751,-12.60507,11.73,-0.41,1.66,4.0
1758076587.27536,1758076587.2967,0.0,0.0,0.0,-29.8511,5.95876,-11.00079,8.74,-0.39,1.74,4.0
1758076587.29036,1758076587.3067,0.0,0.0,0.0,-26.01229,14.61043,-7.73493,8.74,-0.39,1.74,4.0
1758076587.29108,1758076587.3167,0.0,0.0,0.0,-19.53786,29.50733,-2.86479,8.92,-0.99,0.44,4.0
