timeStamp,timeStampAlign,roll,pitch,yaw,gyro_x,gyro_y,gyro_z,acc_x,acc_y,acc_z,flag_num
1758077239.2314,1758077239.0249,0.0,0.0,0.0,63.54102,2.6929,-5.15662,9.58,0.98,0.35,4.0
1758077239.23341,1758077239.0349,0.0,0.0,0.0,61.36378,3.20856,-4.58366,9.58,0.98,0.35,4.0
1758077239.25039,1758077239.0449,0.0,0.0,0.0,59.18654,4.46907,-4.1253,9.64,0.95,0.34,4.0
1758077239.2548,1758077239.0549,0.0,0.0,0.0,55.57691,13.80828,-2.97938,10.25,0.96,0.28,4.0
1758077239.2704,1758077239.0649,0.0,0.0,0.0,53.62885,23.31938,-2.23454,10.25,0.96,0.28,4.0
1758077239.27162,1758077239.0749,0.0,0.0,0.0,51.73809,27.78845,-1.66158,10.43,1.02,0.3,4.0
1758077239.28639,1758077239.0849,0.0,0.0,0.0,49.67545,25.8404,-0.68755,10.43,1.02,0.3,4.0
1758077239.30526,1758077239.0949,0.0,0.0,0.0,48.35764,19.07949,0.0,9.11,1.1,0.3,4.0
1758077239.30649,1758077239.1049,0.0,0.0,0.0,47.15443,15.41257,0.57296,9.11,1.1,0.3,4.0
1758077239.32173,1758077239.1149,0.0,0.0,0.0,45.60744,14.20935,1.3751,9.06,1.17,0.04,4.0
1758077239.32504,1758077239.1249,0.0,0.0,0.0,43.4875,14.66772,2.34913,9.06,1.17,0.04,4.0
1758077239.34054,1758077239.1349,0.0,0.0,0.0,41.88322,14.61043,3.03668,9.46,1.3,0.16,4.0
1758077239.34168,1758077239.1449,0.0,0.0,0.0,40.39353,14.15206,3.83882,9.47,1.34,0.16,4.0
1758077239.35643,1758077239.1549,0.0,0.0,0.0,38.84654,14.09476,4.81285,9.47,1.34,0.16,4.0
1758077239.37349,1758077239.1649,0.0,0.0,0.0,36.49741,12.60507,5.72958,9.46,1.36,0.16,4.0
1758077239.37546,1758077239.1749,0.0,0.0,0.0,34.66395,11.45916,5.95876,9.46,1.36,0.16,4.0
1758077239.3905,1758077239.1849,0.0,0.0,0.0,32.88778,9.91217,5.90147,9.44,1.41,0.33,4.0
1758077239.39172,1758077239.1949,0.0,0.0,0.0,31.11161,8.02141,5.78687,9.44,1.41,0.33,4.0
1758077239.40652,1758077239.2049,0.0,0.0,0.0,28.59059,4.98473,5.32851,9.57,1.42,0.59,4.0
1758077239.42351,1758077239.2149,0.0,0.0,0.0,26.87172,3.89611,4.98473,9.71,1.31,0.72,4.0
1758077239.42872,1758077239.2249,0.0,0.0,0.0,25.49662,3.60963,4.92744,9.71,1.31,0.72,4.0
1758077239.44349,1758077239.2349,0.0,0.0,0.0,23.83505,3.20856,5.09932,9.82,1.08,0.56,4.0
1758077239.44555,1758077239.2449,0.0,0.0,0.0,21.42862,1.77617,5.72958,9.82,1.08,0.56,4.0
1758077239.46065,1758077239.2549,0.0,0.0,0.0,20.22541,1.48969,6.13065,9.77,0.91,0.45,4.0
1758077239.46518,1758077239.2649,0.0,0.0,0.0,19.59516,2.00535,6.35983,9.77,0.91,0.45,4.0
1758077239.4807,1758077239.2749,0.0,0.0,0.0,19.59516,2.6929,6.8182,9.99,0.79,0.43,4.0
1758077239.48502,1758077239.2849,0.0,0.0,0.0,19.88164,1.83346,7.79223,9.74,0.74,0.13,4.0
1758077239.50052,1758077239.2949,0.0,0.0,0.0,19.76705,-2.00535,8.0787,9.74,0.74,0.13,4.0
1758077239.50176,1758077239.3049,0.0,0.0,0.0,19.13679,-5.78687,8.02141,9.34,0.84,-0.07,4.0
1758077239.51669,1758077239.3149,0.0,0.0,0.0,18.10547,-4.58366,8.136,9.34,0.84,-0.07,4.0
1758077239.53587,1758077239.3249,0.0,0.0,0.0,17.6471,-1.14592,8.59437,10.24,1.06,-0.51,4.0
1758077239.53874,1758077239.3349,0.0,0.0,0.0,17.24603,2.40642,9.28192,10.24,1.06,-0.51,4.0
1758077239.55361,1758077239.3449,0.0,0.0,0.0,16.90226,6.53172,9.91217,10.73,1.17,-0.62,4.0
1758077239.55556,1758077239.3549,0.0,0.0,0.0,16.38659,11.34457,10.65701,10.73,1.17,-0.72,4.0
1758077239.57055,1758077239.3649,0.0,0.0,0.0,15.69904,12.83425,11.00079,10.53,1.12,-0.72,4.0
1758077239.57353,1758077239.3749,0.0,0.0,0.0,14.66772,12.37589,11.11538,9.8,1.14,-0.65,4.0
1758077239.58934,1758077239.3849,0.0,0.0,0.0,13.5218,10.48513,11.22997,9.8,1.14,-0.65,4.0
1758077239.59055,1758077239.3949,0.0,0.0,0.0,11.28727,7.10468,11.22997,9.29,1.29,-0.59,4.0
1758077239.60654,1758077239.4049,0.0,0.0,0.0,9.62569,5.09932,11.22997,9.29,1.29,-0.59,4.0
1758077239.62458,1758077239.4149,0.0,0.0,0.0,8.70896,4.23989,11.17268,9.48,1.4,-0.3,4.0
1758077239.62606,1758077239.4249,0.0,0.0,0.0,7.84952,3.32316,10.59972,9.48,1.4,-0.3,4.0
1758077239.64054,1758077239.4349,0.0,0.0,0.0,9.74028,4.1253,9.96947,10.18,1.14,0.37,4.0
1758077239.64257,1758077239.4449,0.0,0.0,0.0,13.06344,0.97403,8.59437,11.26,0.41,1.7,4.0
1758077239.65754,1758077239.4549,0.0,0.0,0.0,17.18874,-6.7609,5.55769,11.26,0.41,1.7,4.0
1758077239.66115,1758077239.4649,0.0,0.0,0.0,21.60051,-12.77696,1.83346,11.77,-0.77,2.73,4.0
1758077239.68057,1758077239.4749,0.0,0.0,0.0,28.07493,-14.20935,-0.11459,11.77,-0.77,2.73,4.0
1758077239.68186,1758077239.4849,0.0,0.0,0.0,30.19488,-21.08485,0.17189,12.0,-1.79,1.73,4.0
1758077239.69782,1758077239.4949,0.0,0.0,0.0,29.96569,-27.04361,0.17189,12.0,-1.79,1.73,4.0
1758077239.71383,1758077239.5049,0.0,0.0,0.0,29.22085,-24.86637,3.26586,10.62,-1.39,0.32,4.0
1758077239.71642,1758077239.5149,0.0,0.0,0.0,29.56462,-17.53251,6.58902,11.14,-0.14,-0.06,4.0
1758077239.73323,1758077239.5249,0.0,0.0,0.0,30.13758,-12.71966,10.37054,11.14,-0.14,-0.06,4.0
1758077239.73602,1758077239.5349,0.0,0.0,0.0,30.02299,-5.4431,13.12073,11.39,0.89,0.76,4.0
1758077239.7516,1758077239.5449,0.0,0.0,0.0,30.76784,4.18259,16.10011,11.39,0.89,0.76,4.0
1758077239.7561,1758077239.5549,0.0,0.0,0.0,29.67921,3.89611,16.10011,11.53,1.07,2.56,4.0
1758077239.77242,1758077239.5649,0.0,0.0,0.0,28.64789,1.14592,14.66772,11.53,1.07,2.56,4.0
1758077239.77601,1758077239.5749,0.0,0.0,0.0,28.01764,-0.85944,11.57375,10.58,0.29,3.35,4.0
1758077239.79159,1758077239.5849,0.0,0.0,0.0,28.476,-19.70975,8.99544,8.45,0.29,3.12,4.0
1758077239.79286,1758077239.5949,0.0,0.0,0.0,30.48136,-33.11696,10.59972,8.45,-1.05,3.12,4.0
1758077239.81173,1758077239.6049,0.0,0.0,0.0,31.28349,-32.20023,11.63104,8.61,-1.78,2.73,4.0
1758077239.81288,1758077239.6149,0.0,0.0,0.0,30.65324,-26.52795,11.74564,8.61,-1.78,2.73,4.0
1758077239.82846,1758077239.6249,0.0,0.0,0.0,27.61657,-23.0902,9.5684,9.97,-1.61,2.66,4.0
1758077239.84464,1758077239.6349,0.0,0.0,0.0,24.75178,-19.76705,7.04738,9.97,-1.61,2.66,4.0
1758077239.84589,1758077239.6449,0.0,0.0,0.0,21.7724,-10.19865,4.81285,10.2,-0.84,2.16,4.0
1758077239.86077,1758077239.6549,0.0,0.0,0.0,20.62648,2.7502,4.23989,10.2,-0.84,2.16,4.0
1758077239.86198,1758077239.6649,0.0,0.0,0.0,18.79302,12.08941,4.92744,11.09,-0.37,1.69,4.0
1758077239.87671,1758077239.6749,0.0,0.0,0.0,17.47521,9.4538,5.50039,9.8,-0.33,1.94,4.0
1758077239.8927,1758077239.6849,0.0,0.0,0.0,15.69904,1.94806,5.50039,9.8,-0.33,1.94,4.0
1758077239.89474,1758077239.6949,0.0,0.0,0.0,14.03747,1.43239,6.87549,9.48,-0.38,1.5,4.0
1758077239.90965,1758077239.7049,0.0,0.0,0.0,13.06344,13.80828,8.42248,9.48,-0.38,1.5,4.0
1758077239.91102,1758077239.7149,0.0,0.0,0.0,12.60507,22.28806,9.22462,10.91,-0.81,1.35,4.0
1758077239.931,1758077239.7249,0.0,0.0,0.0,12.14671,25.55392,9.62569,10.91,-0.81,1.35,4.0
1758077239.9355,1758077239.7349,0.0,0.0,0.0,10.8862,23.0329,9.05273,9.93,-1.08,1.39,4.0
1758077239.95107,1758077239.7449,0.0,0.0,0.0,10.19865,20.05352,8.70896,9.28,-0.98,1.17,4.0
1758077239.95309,1758077239.7549,0.0,0.0,0.0,9.33921,16.84496,8.0787,9.28,-0.98,1.17,4.0
1758077239.96967,1758077239.7649,0.0,0.0,0.0,8.65166,14.09476,7.67763,9.4,-0.84,1.27,4.0
1758077239.98559,1758077239.7749,0.0,0.0,0.0,7.39116,13.23533,7.39116,9.4,-0.84,1.27,4.0
1758077239.98862,1758077239.7849,0.0,0.0,0.0,6.70361,13.69369,7.44845,9.68,-0.73,1.26,4.0
1758077240.00538,1758077239.7949,0.0,0.0,0.0,5.84417,14.20935,7.67763,9.68,-0.73,1.26,4.0
1758077240.00656,1758077239.8049,0.0,0.0,0.0,4.87014,13.86558,7.79223,9.54,-0.72,1.26,4.0
1758077240.02528,1758077239.8149,0.0,0.0,0.0,3.60963,14.03747,7.84952,9.23,-0.74,1.18,4.0
1758077240.02614,1758077239.8249,0.0,0.0,0.0,2.7502,13.75099,7.84952,9.23,-0.74,1.18,4.0
1758077240.04185,1758077239.8349,0.0,0.0,0.0,1.94806,13.75099,8.0787,9.05,-0.8,1.09,4.0
1758077240.04299,1758077239.8449,0.0,0.0,0.0,0.97403,13.75099,7.96411,9.05,-0.8,1.09,4.0
1758077240.06039,1758077239.8549,0.0,0.0,0.0,-0.17189,11.97482,7.96411,8.93,-0.86,1.08,4.0
1758077240.06137,1758077239.8649,0.0,0.0,0.0,-0.97403,10.94349,7.33386,8.93,-0.86,1.08,4.0
1758077240.07701,1758077239.8749,0.0,0.0,0.0,-1.60428,9.39651,7.10468,8.89,-0.92,0.89,4.0
1758077240.09567,1758077239.8849,0.0,0.0,0.0,-1.60428,7.96411,6.53172,8.89,-0.92,0.89,4.0
1758077240.0966,1758077239.8949,0.0,0.0,0.0,-1.3751,5.15662,5.78687,8.84,-0.97,0.76,4.0
1758077240.11203,1758077239.9049,0.0,0.0,0.0,-0.57296,4.35448,5.15662,8.75,-1.1,0.72,4.0
1758077240.1154,1758077239.9149,0.0,0.0,0.0,0.34377,3.03668,4.64096,8.75,-1.1,0.72,4.0
1758077240.13108,1758077239.9249,0.0,0.0,0.0,1.3178,5.4431,3.66693,8.69,-1.18,0.58,4.0
1758077240.13288,1758077239.9349,0.0,0.0,0.0,2.23454,9.4538,3.32316,8.69,-1.18,0.58,4.0
1758077240.14942,1758077239.9449,0.0,0.0,0.0,2.86479,10.25595,2.00535,8.47,-1.17,0.41,4.0
1758077240.1658,1758077239.9549,0.0,0.0,0.0,3.72423,7.33386,1.60428,8.47,-1.17,0.41,4.0
1758077240.16684,1758077239.9649,0.0,0.0,0.0,4.92744,-1.71887,0.74485,7.35,-0.99,0.39,4.0
1758077240.18198,1758077239.9749,0.0,0.0,0.0,5.15662,-6.87549,0.0,6.63,-0.94,0.24,4.0
1758077240.18626,1758077239.9849,0.0,0.0,0.0,5.61499,-12.37589,-0.40107,6.63,-0.94,0.24,4.0
1758077240.2027,1758077239.9949,0.0,0.0,0.0,6.18794,-17.6471,-1.08862,6.39,-0.97,0.46,4.0
1758077240.20389,1758077240.0049,0.0,0.0,0.0,7.21927,-24.57989,-2.06265,6.39,-0.97,0.46,4.0
1758077240.21891,1758077240.0149,0.0,0.0,0.0,8.02141,-28.24682,-2.86479,6.44,-1.03,0.58,4.0
1758077240.22083,1758077240.0249,0.0,0.0,0.0,9.22462,-30.76784,-3.26586,6.44,-1.03,0.58,4.0
1758077240.23796,1758077240.0349,0.0,0.0,0.0,10.48513,-32.25753,-3.95341,6.85,-1.08,0.61,4.0
1758077240.25551,1758077240.0449,0.0,0.0,0.0,12.60507,-33.46074,-4.52637,7.36,-1.14,0.48,4.0
1758077240.25711,1758077240.0549,0.0,0.0,0.0,13.86558,-33.40344,-4.92744,7.36,-1.14,0.48,4.0
1758077240.2722,1758077240.0649,0.0,0.0,0.0,15.24068,-32.48671,-5.32851,7.93,-1.25,0.17,4.0
1758077240.27395,1758077240.0749,0.0,0.0,0.0,16.21471,-31.39809,-5.90147,7.93,-1.25,0.17,4.0
1758077240.28991,1758077240.0849,0.0,0.0,0.0,17.18874,-29.10626,-7.10468,8.57,-1.29,0.0,4.0
1758077240.29112,1758077240.0949,0.0,0.0,0.0,17.53251,-27.44468,-8.02141,8.57,-1.29,0.0,4.0
1758077240.30895,1758077240.1049,0.0,0.0,0.0,17.24603,-26.06958,-8.93814,9.18,-1.22,-0.12,4.0
1758077240.32487,1758077240.1149,0.0,0.0,0.0,16.90226,-25.09555,-10.31324,9.18,-1.22,-0.12,4.0
1758077240.32606,1758077240.1249,0.0,0.0,0.0,15.58445,-24.00693,-11.28727,9.53,-1.09,-0.03,4.0
1758077240.34089,1758077240.1349,0.0,0.0,0.0,14.49583,-23.31938,-11.86023,9.69,-1.0,-0.06,4.0
1758077240.34297,1758077240.1449,0.0,0.0,0.0,13.34992,-22.63183,-12.37589,9.69,-1.0,-0.06,4.0
1758077240.35804,1758077240.1549,0.0,0.0,0.0,11.34457,-22.11617,-12.89155,9.57,-0.84,-0.14,4.0
1758077240.37506,1758077240.1649,0.0,0.0,0.0,9.68299,-21.60051,-12.89155,9.57,-0.84,-0.14,4.0
1758077240.37612,1758077240.1749,0.0,0.0,0.0,8.02141,-20.74107,-13.00614,9.23,-0.65,-0.22,4.0
1758077240.39105,1758077240.1849,0.0,0.0,0.0,6.18794,-19.88164,-12.71966,9.23,-0.65,-0.22,4.0
1758077240.39394,1758077240.1949,0.0,0.0,0.0,2.97938,-19.13679,-12.54778,8.91,-0.49,-0.2,4.0
1758077240.4093,1758077240.2049,0.0,0.0,0.0,0.57296,-16.67307,-12.49048,8.85,-0.5,-0.31,4.0
1758077240.42517,1758077240.2149,0.0,0.0,0.0,-1.48969,-13.34992,-12.37589,8.85,-0.5,-0.31,4.0
1758077240.44989,1758077240.2249,0.0,0.0,0.0,-3.66693,-10.8289,-12.37589,9.0,-0.66,-0.26,4.0
1758077240.4509,1758077240.2349,0.0,0.0,0.0,-7.62034,-9.5684,-12.60507,9.0,-0.66,-0.26,4.0
1758077240.45251,1758077240.2449,0.0,0.0,0.0,-10.31324,-10.65701,-13.06344,8.59,-0.82,-0.26,4.0
1758077240.45472,1758077240.2549,0.0,0.0,0.0,-12.77696,-12.37589,-13.23533,8.59,-0.82,-0.26,4.0
1758077240.47131,1758077240.2649,0.0,0.0,0.0,-14.9542,-14.32395,-13.46451,8.19,-0.9,-0.33,4.0
1758077240.47218,1758077240.2749,0.0,0.0,0.0,-16.95955,-17.01685,-13.34992,7.86,-0.96,-0.04,4.0
1758077240.49336,1758077240.2849,0.0,0.0,0.0,-17.87628,-19.53786,-13.00614,7.86,-0.96,-0.04,4.0
1758077240.5211,1758077240.2949,0.0,0.0,0.0,-18.79302,-22.97561,-12.204,8.03,-0.72,1.58,4.0
1758077240.52659,1758077240.3049,0.0,0.0,0.0,-19.88164,-25.21014,-10.48513,8.03,-0.72,1.58,4.0
1758077240.53092,1758077240.3149,0.0,0.0,0.0,-22.51724,-29.56462,-4.98473,10.29,-0.03,4.06,4.0
1758077240.53347,1758077240.3249,0.0,0.0,0.0,-26.06958,-31.28349,0.0,10.29,-0.03,4.06,4.0
1758077240.53679,1758077240.3349,0.0,0.0,0.0,-31.39809,-36.7266,5.09932,13.34,0.47,5.45,4.0
1758077240.55388,1758077240.3449,0.0,0.0,0.0,-42.34158,-50.3057,8.02141,13.34,0.47,5.45,4.0
1758077240.55553,1758077240.3549,0.0,0.0,0.0,-47.09713,-57.75415,7.39116,12.93,0.78,3.66,4.0
1758077240.57127,1758077240.3649,0.0,0.0,0.0,-49.33167,-46.35228,4.87014,14.42,0.97,1.22,4.0
1758077240.57225,1758077240.3749,0.0,0.0,0.0,-49.27437,-26.35606,0.17189,14.42,0.97,1.22,4.0
1758077240.58864,1758077240.3849,0.0,0.0,0.0,-44.00316,3.72423,-8.25059,16.26,0.53,-0.34,4.0
1758077240.60595,1758077240.3949,0.0,0.0,0.0,-38.50277,24.12152,-12.43318,16.26,0.53,-0.34,4.0
1758077240.60711,1758077240.4049,0.0,0.0,0.0,-32.25753,46.00851,-12.60507,17.15,0.24,0.23,4.0
1758077240.62595,1758077240.4149,0.0,0.0,0.0,-26.75713,62.79618,-10.65701,17.15,0.24,0.23,4.0
1758077240.62633,1758077240.4249,0.0,0.0,0.0,-17.24603,39.24761,-2.92208,18.77,0.59,-0.06,4.0
1758077240.64479,1758077240.4349,0.0,0.0,0.0,-9.11003,12.43318,3.03668,12.17,0.0,0.14,4.0
1758077240.64647,1758077240.4449,0.0,0.0,0.0,-5.72958,8.88085,3.03668,12.17,0.0,0.14,4.0
1758077240.66478,1758077240.4549,0.0,0.0,0.0,-6.58902,44.8053,-2.00535,13.57,-0.36,-0.2,4.0
1758077240.66644,1758077240.4649,0.0,0.0,0.0,0.80214,75.85962,-4.52637,13.57,-0.36,-0.2,4.0
1758077240.68309,1758077240.4749,0.0,0.0,0.0,5.55769,69.04142,-4.98473,12.0,-0.94,0.29,4.0
1758077240.68921,1758077240.4849,0.0,0.0,0.0,7.50575,62.33781,-7.10468,12.0,-0.94,0.29,4.0
1758077240.69489,1758077240.4949,0.0,0.0,0.0,7.84952,59.53032,-8.88085,10.08,-0.84,0.38,4.0
1758077240.71138,1758077240.5049,0.0,0.0,0.0,6.7609,54.3164,-8.70896,11.07,-0.19,0.8,4.0
1758077240.71427,1758077240.5149,0.0,0.0,0.0,5.61499,49.90463,-7.39116,11.07,-0.19,0.8,4.0
1758077240.73012,1758077240.5249,0.0,0.0,0.0,4.87014,45.14908,-5.50039,10.14,0.11,0.92,4.0
1758077240.73124,1758077240.5349,0.0,0.0,0.0,4.23989,42.05511,-3.55234,10.14,0.11,0.92,4.0
1758077240.74871,1758077240.5449,0.0,0.0,0.0,4.52637,37.92981,-2.23454,8.95,0.1,0.04,4.0
1758077240.78307,1758077240.5549,0.0,0.0,0.0,5.4431,34.66395,-1.3751,8.95,0.1,0.04,4.0
1758077240.78349,1758077240.5649,0.0,0.0,0.0,6.35983,30.36677,-0.34377,8.0,-0.01,-0.18,4.0
1758077240.78543,1758077240.5749,0.0,0.0,0.0,7.10468,23.37668,0.80214,8.0,-0.01,-0.18,4.0
1758077240.78606,1758077240.5849,0.0,0.0,0.0,6.53172,17.18874,1.48969,7.52,0.08,-0.32,4.0
1758077240.80592,1758077240.5949,0.0,0.0,0.0,5.78687,9.39651,2.06265,6.89,0.4,-0.5,4.0
1758077240.80648,1758077240.6049,0.0,0.0,0.0,4.23989,0.74485,2.63561,6.89,0.4,-0.5,4.0
1758077240.82518,1758077240.6149,0.0,0.0,0.0,1.48969,-11.80293,3.55234,6.29,0.83,-0.66,4.0
1758077240.82564,1758077240.6249,0.0,0.0,0.0,-0.11459,-20.97026,4.58366,6.29,0.83,-0.66,4.0
1758077240.84139,1758077240.6349,0.0,0.0,0.0,-1.94806,-29.62192,5.78687,5.96,1.04,-0.51,4.0
1758077240.84233,1758077240.6449,0.0,0.0,0.0,-3.38045,-37.12767,7.16197,5.96,1.04,-0.51,4.0
1758077240.85797,1758077240.6549,0.0,0.0,0.0,-5.4431,-42.97184,9.22462,6.14,1.01,-0.14,4.0
1758077240.86138,1758077240.6649,0.0,0.0,0.0,-6.53172,-42.39888,10.25595,7.25,0.72,0.19,4.0
1758077240.88119,1758077240.6749,0.0,0.0,0.0,-7.50575,-40.16434,10.48513,7.25,0.72,0.19,4.0
1758077240.88206,1758077240.6849,0.0,0.0,0.0,-7.50575,-37.92981,11.57375,8.1,0.4,0.45,4.0
1758077240.89805,1758077240.6949,0.0,0.0,0.0,-5.84417,-35.2369,12.14671,8.1,0.4,0.45,4.0
1758077240.9014,1758077240.7049,0.0,0.0,0.0,-3.95341,-35.52338,12.60507,8.18,0.03,0.39,4.0
1758077240.91619,1758077240.7149,0.0,0.0,0.0,-2.34913,-37.24226,12.60507,8.18,0.03,0.39,4.0
1758077240.93306,1758077240.7249,0.0,0.0,0.0,-0.34377,-38.15899,12.71966,7.8,-0.18,0.09,4.0
1758077240.93574,1758077240.7349,0.0,0.0,0.0,3.03668,-38.61736,12.89155,7.96,-0.25,-0.05,4.0
1758077240.95125,1758077240.7449,0.0,0.0,0.0,5.32851,-37.58603,13.06344,7.96,-0.25,-0.05,4.0
1758077240.95317,1758077240.7549,0.0,0.0,0.0,7.73493,-35.58068,13.34992,8.27,-0.1,0.01,4.0
1758077240.96929,1758077240.7649,0.0,0.0,0.0,11.34457,-32.42941,13.98017,8.27,-0.1,0.01,4.0
1758077240.97046,1758077240.7749,0.0,0.0,0.0,13.69369,-26.81443,14.20935,8.57,0.2,-0.07,4.0
1758077240.98657,1758077240.7849,0.0,0.0,0.0,16.04282,-23.26209,14.66772,8.57,0.2,-0.07,4.0
1758077240.9894,1758077240.7949,0.0,0.0,0.0,18.16276,-19.53786,14.66772,8.58,0.45,-0.22,4.0
1758077241.00561,1758077240.8049,0.0,0.0,0.0,21.02755,-15.06879,14.66772,8.58,0.45,-0.22,4.0
1758077241.02124,1758077240.8149,0.0,0.0,0.0,22.86102,-12.89155,14.49583,8.53,0.62,-0.17,4.0
1758077241.02564,1758077240.8249,0.0,0.0,0.0,24.63719,-11.63104,14.20935,8.41,0.73,-0.11,4.0
1758077241.04163,1758077240.8349,0.0,0.0,0.0,26.24147,-11.11538,13.80828,8.41,0.73,-0.11,4.0
1758077241.04564,1758077240.8449,0.0,0.0,0.0,28.30412,-12.37589,12.77696,8.12,0.79,-0.27,4.0
1758077241.06116,1758077240.8549,0.0,0.0,0.0,29.39274,-13.46451,11.57375,8.12,0.79,-0.27,4.0
1758077241.06671,1758077240.8649,0.0,0.0,0.0,30.65324,-15.29797,10.08406,7.9,0.76,-0.21,4.0
1758077241.08142,1758077240.8749,0.0,0.0,0.0,31.85646,-18.27736,7.73493,7.9,0.76,-0.21,4.0
1758077241.08648,1758077240.8849,0.0,0.0,0.0,34.72124,-23.60586,2.00535,8.67,0.48,1.08,4.0
1758077241.09137,1758077240.8949,0.0,0.0,0.0,38.15899,-26.06958,-2.11994,10.97,-0.22,2.66,4.0
1758077241.11053,1758077240.9049,0.0,0.0,0.0,43.02913,-26.18417,-6.53172,10.97,-0.22,2.66,4.0
1758077241.11147,1758077240.9149,0.0,0.0,0.0,48.58683,-24.00693,-9.4538,13.63,-1.59,3.16,4.0
1758077241.12651,1758077240.9249,0.0,0.0,0.0,53.97263,-20.22541,-9.05273,13.63,-1.59,3.16,4.0
1758077241.14379,1758077240.9349,0.0,0.0,0.0,55.11855,-25.55392,-5.4431,13.58,-3.05,2.11,4.0
1758077241.14666,1758077240.9449,0.0,0.0,0.0,50.59217,-41.25296,-1.71887,13.58,-3.05,2.11,4.0
1758077241.16157,1758077240.9549,0.0,0.0,0.0,47.49821,-54.88936,9.5684,10.59,-2.26,1.57,4.0
1758077241.16571,1758077240.9649,0.0,0.0,0.0,45.03448,-53.17049,15.98552,16.16,-1.78,2.77,4.0
1758077241.18134,1758077240.9749,0.0,0.0,0.0,40.33623,-51.50891,15.58445,16.16,-1.78,2.77,4.0
1758077241.18436,1758077240.9849,0.0,0.0,0.0,33.9764,-38.90384,14.03747,20.23,-3.01,-2.39,4.0
1758077241.20034,1758077240.9949,0.0,0.0,0.0,25.8404,-13.40721,11.86023,20.23,-3.01,-2.39,4.0
1758077241.20135,1758077241.0049,0.0,0.0,0.0,24.17882,4.52637,14.15206,16.11,-2.81,-2.21,4.0
1758077241.22159,1758077241.0149,0.0,0.0,0.0,23.66316,17.30333,16.50119,16.11,-2.81,-2.21,4.0
1758077241.22654,1758077241.0249,0.0,0.0,0.0,23.66316,27.96034,17.93358,12.8,-1.59,-1.19,4.0
1758077241.24338,1758077241.0349,0.0,0.0,0.0,22.40265,38.84654,17.18874,12.8,-1.59,-0.23,4.0
1758077241.24468,1758077241.0449,0.0,0.0,0.0,20.79837,43.65939,14.61043,13.36,-0.42,-0.23,4.0
1758077241.26119,1758077241.0549,0.0,0.0,0.0,18.62113,46.69606,10.94349,14.32,-0.39,-0.4,4.0
1758077241.26215,1758077241.0649,0.0,0.0,0.0,15.75634,46.63877,7.16197,14.32,-0.39,-0.4,4.0
1758077241.27761,1758077241.0749,0.0,0.0,0.0,11.17268,42.85724,2.7502,13.03,-1.08,-0.31,4.0
1758077241.2937,1758077241.0849,0.0,0.0,0.0,7.50575,36.26823,1.20321,13.03,-1.08,-0.31,4.0
1758077241.29613,1758077241.0949,0.0,0.0,0.0,4.35448,29.10626,1.08862,10.9,-1.35,-0.52,4.0
1758077241.31172,1758077241.1049,0.0,0.0,0.0,2.23454,26.06958,1.20321,10.9,-1.35,-0.52,4.0
1758077241.31534,1758077241.1149,0.0,0.0,0.0,1.3751,34.0337,2.29183,10.6,-1.17,-0.58,4.0
1758077241.33039,1758077241.1249,0.0,0.0,0.0,0.80214,37.87251,2.86479,11.14,-0.97,-0.14,4.0
1758077241.3335,1758077241.1349,0.0,0.0,0.0,-0.74485,37.92981,3.03668,11.14,-0.97,-0.14,4.0
1758077241.34871,1758077241.1449,0.0,0.0,0.0,-2.40642,45.72203,-0.17189,10.23,-0.8,-0.23,4.0
1758077241.3496,1758077241.1549,0.0,0.0,0.0,-5.21392,58.15522,-4.18259,10.23,-0.8,-0.23,4.0
1758077241.36582,1758077241.1649,0.0,0.0,0.0,-6.24524,56.60823,-6.58902,9.86,-0.82,-0.17,4.0
1758077241.38168,1758077241.1749,0.0,0.0,0.0,-6.58902,43.02913,-8.02141,9.86,-0.82,-0.17,4.0
1758077241.38657,1758077241.1849,0.0,0.0,0.0,-6.87549,30.53865,-9.68299,6.99,-1.13,0.18,4.0
1758077241.40167,1758077241.1949,0.0,0.0,0.0,-6.87549,16.61578,-9.96947,6.58,-1.41,-0.28,4.0
1758077241.40339,1758077241.2049,0.0,0.0,0.0,-6.70361,9.91217,-10.08406,6.58,-1.41,-0.28,4.0
1758077241.41842,1758077241.2149,0.0,0.0,0.0,-5.90147,3.03668,-9.62569,6.71,-1.51,-0.01,4.0
1758077241.42122,1758077241.2249,0.0,0.0,0.0,-4.18259,-8.02141,-8.42248,6.71,-1.51,-0.01,4.0
1758077241.43858,1758077241.2349,0.0,0.0,0.0,-2.6929,-13.12073,-7.62034,6.93,-1.37,-0.03,4.0
1758077241.44021,1758077241.2449,0.0,0.0,0.0,-1.08862,-15.06879,-6.99009,6.93,-1.37,-0.03,4.0
1758077241.45673,1758077241.2549,0.0,0.0,0.0,0.68755,-17.01685,-6.53172,7.72,-1.18,-0.37,4.0
1758077241.46083,1758077241.2649,0.0,0.0,0.0,2.29183,-18.73572,-6.53172,8.06,-1.18,-0.33,4.0
1758077241.47675,1758077241.2749,0.0,0.0,0.0,2.29183,-19.59516,-7.62034,8.06,-1.01,-0.33,4.0
1758077241.49373,1758077241.2849,0.0,0.0,0.0,1.60428,-21.02755,-8.99544,8.11,-0.8,-0.3,4.0
1758077241.49632,1758077241.2949,0.0,0.0,0.0,1.08862,-23.0329,-10.02676,8.11,-0.8,-0.3,4.0
1758077241.5115,1758077241.3049,0.0,0.0,0.0,0.85944,-24.98096,-10.54242,8.31,-0.96,-0.38,4.0
1758077241.51519,1758077241.3149,0.0,0.0,0.0,1.03132,-24.63719,-10.94349,8.31,-0.96,-0.38,4.0
1758077241.53045,1758077241.3249,0.0,0.0,0.0,1.08862,-23.72045,-11.45916,8.69,-1.07,-0.5,4.0
1758077241.53165,1758077241.3349,0.0,0.0,0.0,0.80214,-22.63183,-12.2613,8.69,-1.07,-0.5,4.0
1758077241.54671,1758077241.3449,0.0,0.0,0.0,0.11459,-20.62648,-13.46451,8.92,-1.0,-0.54,4.0
1758077241.56348,1758077241.3549,0.0,0.0,0.0,-0.22918,-18.50654,-14.20935,9.16,-0.87,-0.56,4.0
1758077241.56869,1758077241.3649,0.0,0.0,0.0,-0.85944,-15.0115,-14.72501,9.16,-0.87,-0.56,4.0
1758077241.58351,1758077241.3749,0.0,0.0,0.0,-1.77617,-10.71431,-15.41257,9.51,-0.86,-0.59,4.0
1758077241.58471,1758077241.3849,0.0,0.0,0.0,-3.32316,-5.78687,-15.69904,9.51,-0.86,-0.59,4.0
1758077241.6006,1758077241.3949,0.0,0.0,0.0,-4.58366,-4.0107,-15.64175,9.43,-0.92,-0.61,4.0
1758077241.60154,1758077241.4049,0.0,0.0,0.0,-6.07335,-3.89611,-15.46986,9.43,-0.92,-0.61,4.0
1758077241.61678,1758077241.4149,0.0,0.0,0.0,-8.76626,-4.23989,-15.24068,9.15,-0.96,-0.64,4.0
1758077241.63534,1758077241.4249,0.0,0.0,0.0,-10.71431,-4.0107,-14.9542,9.11,-1.06,-0.55,4.0
1758077241.63663,1758077241.4349,0.0,0.0,0.0,-12.49048,-4.23989,-14.66772,9.11,-1.06,-0.55,4.0
1758077241.65151,1758077241.4449,0.0,0.0,0.0,-14.20935,-4.58366,-14.03747,9.05,-1.16,-0.45,4.0
1758077241.65589,1758077241.4549,0.0,0.0,0.0,-16.55848,-5.78687,-13.00614,9.05,-1.16,-0.45,4.0
1758077241.67184,1758077241.4649,0.0,0.0,0.0,-17.87628,-6.41713,-12.14671,8.82,-1.23,-0.34,4.0
1758077241.67513,1758077241.4749,0.0,0.0,0.0,-19.07949,-6.7609,-11.34457,8.82,-1.23,-0.34,4.0
1758077241.69087,1758077241.4849,0.0,0.0,0.0,-20.05352,-6.99009,-10.59972,8.56,-1.16,-0.39,4.0
1758077241.69171,1758077241.4949,0.0,0.0,0.0,-21.60051,-7.84952,-9.39651,8.07,-1.02,-0.49,4.0
1758077241.70654,1758077241.5049,0.0,0.0,0.0,-22.68913,-8.70896,-8.70896,8.07,-1.02,-0.49,4.0
1758077241.72594,1758077241.5149,0.0,0.0,0.0,-23.66316,-9.11003,-8.30789,7.63,-0.9,-0.65,4.0
1758077241.72873,1758077241.5249,0.0,0.0,0.0,-24.57989,-9.96947,-8.0787,7.63,-0.9,-0.65,4.0
1758077241.74594,1758077241.5349,0.0,0.0,0.0,-25.89769,-10.54242,-8.36518,7.36,-0.83,-0.98,4.0
1758077241.74712,1758077241.5449,0.0,0.0,0.0,-26.64254,-10.48513,-8.76626,7.36,-0.83,-0.98,4.0
1758077241.7628,1758077241.5549,0.0,0.0,0.0,-27.38738,-10.25595,-9.62569,7.21,-0.76,-1.29,4.0
1758077241.764,1758077241.5649,0.0,0.0,0.0,-27.84575,-9.85487,-10.48513,7.21,-0.76,-1.29,4.0
1758077241.77885,1758077241.5749,0.0,0.0,0.0,-28.59059,-10.8862,-11.28727,7.23,-0.73,-1.1,4.0
1758077241.78056,1758077241.5849,0.0,0.0,0.0,-29.04896,-15.0115,-10.54242,7.92,-0.55,0.56,4.0
1758077241.79673,1758077241.5949,0.0,0.0,0.0,-29.50733,-21.02755,-8.30789,7.92,-0.55,0.56,4.0
1758077241.81364,1758077241.6049,0.0,0.0,0.0,-30.19488,-26.12688,-3.72423,10.13,-0.14,3.13,4.0
1758077241.81616,1758077241.6149,0.0,0.0,0.0,-31.62727,-32.54401,-0.57296,10.13,-0.14,3.13,4.0
1758077241.83158,1758077241.6249,0.0,0.0,0.0,-34.26288,-36.95578,1.94806,12.85,0.0,4.34,4.0
1758077241.8336,1758077241.6349,0.0,0.0,0.0,-37.35685,-38.1017,4.0107,12.85,0.0,4.34,4.0
1758077241.8494,1758077241.6449,0.0,0.0,0.0,-40.39353,-29.10626,4.52637,14.15,0.22,3.26,4.0
1758077241.85139,1758077241.6549,0.0,0.0,0.0,-40.45082,-18.56383,3.38045,15.67,0.71,1.07,4.0
1758077241.86688,1758077241.6649,0.0,0.0,0.0,-39.13302,-6.24524,1.48969,15.67,0.71,1.07,4.0
1758077241.88284,1758077241.6749,0.0,0.0,0.0,-35.98175,7.04738,-0.68755,16.76,0.78,-0.33,4.0
1758077241.88563,1758077241.6849,0.0,0.0,0.0,-28.64789,25.89769,-4.18259,16.76,0.78,-0.33,4.0
1758077241.90065,1758077241.6949,0.0,0.0,0.0,-22.68913,34.43476,-6.35983,16.62,0.29,-0.74,4.0
1758077241.9018,1758077241.7049,0.0,0.0,0.0,-16.67307,34.32018,-6.99009,16.62,0.29,-0.74,4.0
1758077241.91787,1758077241.7149,0.0,0.0,0.0,-10.19865,25.55392,-5.90147,14.78,-0.3,-0.36,4.0
1758077241.93614,1758077241.7249,0.0,0.0,0.0,-5.15662,18.56383,-5.72958,13.6,-0.36,-0.45,4.0
1758077241.93722,1758077241.7349,0.0,0.0,0.0,-3.55234,28.70519,-6.87549,13.6,-0.36,-0.45,4.0
1758077241.95289,1758077241.7449,0.0,0.0,0.0,-0.51566,43.4875,-6.58902,14.63,-0.47,-0.64,4.0
1758077241.98567,1758077241.7549,0.0,0.0,0.0,3.72423,54.48829,-5.72958,14.63,-0.47,-0.64,4.0
1758077241.98631,1758077241.7649,0.0,0.0,0.0,8.65166,59.47303,-4.92744,12.73,-0.99,-0.52,4.0
1758077241.99184,1758077241.7749,0.0,0.0,0.0,10.08406,56.66553,-4.81285,12.73,-0.99,-0.52,4.0
1758077241.9939,1758077241.7849,0.0,0.0,0.0,10.19865,51.6235,-4.23989,10.82,-0.77,-0.1,4.0
1758077241.99576,1758077241.7949,0.0,0.0,0.0,9.5684,48.07116,-2.11994,10.82,-0.77,-0.1,4.0
1758077242.01094,1758077241.8049,0.0,0.0,0.0,7.84952,44.28964,0.0573,10.62,-0.35,0.12,4.0
1758077242.0159,1758077241.8149,0.0,0.0,0.0,7.62034,40.96649,1.71887,10.2,-0.02,0.18,4.0
1758077242.03091,1758077241.8249,0.0,0.0,0.0,8.02141,36.89849,2.63561,10.2,-0.02,0.18,4.0
1758077242.03192,1758077241.8349,0.0,0.0,0.0,10.08406,30.36677,2.46372,9.12,0.13,-0.03,4.0
1758077242.04689,1758077241.8449,0.0,0.0,0.0,12.08941,26.81443,1.94806,9.12,0.13,-0.03,4.0
1758077242.06345,1758077241.8549,0.0,0.0,0.0,13.98017,24.80907,1.66158,8.58,0.25,0.12,4.0
1758077242.06631,1758077241.8649,0.0,0.0,0.0,15.92823,23.20479,1.48969,8.58,0.25,0.12,4.0
1758077242.08276,1758077241.8749,0.0,0.0,0.0,17.24603,17.93358,1.20321,8.26,0.29,0.23,4.0
1758077242.0901,1758077241.8849,0.0,0.0,0.0,17.01685,12.2613,1.03132,7.23,0.38,0.39,4.0
1758077242.13507,1758077241.8949,0.0,0.0,0.0,16.21471,6.13065,0.85944,7.23,0.38,0.39,4.0
1758077242.16091,1758077241.9049,0.0,0.0,0.0,14.43854,1.20321,1.3751,6.5,0.6,0.11,4.0
1758077242.16135,1758077241.9149,0.0,0.0,0.0,10.8862,-4.87014,2.86479,6.5,0.6,0.11,4.0
1758077242.16654,1758077241.9249,0.0,0.0,0.0,7.96411,-8.93814,3.83882,6.33,0.89,-0.02,4.0
1758077242.16962,1758077241.9349,0.0,0.0,0.0,4.58366,-13.12073,4.64096,6.33,0.89,-0.02,4.0
1758077242.17069,1758077241.9449,0.0,0.0,0.0,1.14592,-17.18874,5.50039,6.29,1.12,-0.09,4.0
1758077242.17132,1758077241.9549,0.0,0.0,0.0,-3.60963,-22.51724,6.7609,6.45,1.23,-0.19,4.0
1758077242.1761,1758077241.9649,0.0,0.0,0.0,-6.24524,-24.63719,7.73493,6.45,1.23,-0.19,4.0
1758077242.17716,1758077241.9749,0.0,0.0,0.0,-8.65166,-26.24147,8.70896,6.89,1.05,0.03,4.0
1758077242.19531,1758077241.9849,0.0,0.0,0.0,-10.25595,-26.52795,9.74028,6.89,1.05,0.03,4.0
1758077242.19654,1758077241.9949,0.0,0.0,0.0,-11.63104,-26.98631,11.57375,7.34,0.66,0.22,4.0
1758077242.21261,1758077242.0049,0.0,0.0,0.0,-11.74564,-26.01229,12.71966,7.34,0.66,0.22,4.0
1758077242.21571,1758077242.0149,0.0,0.0,0.0,-11.28727,-23.20479,13.5791,7.77,0.21,0.06,4.0
1758077242.2308,1758077242.0249,0.0,0.0,0.0,-9.68299,-19.36597,13.98017,7.77,0.21,0.06,4.0
1758077242.23624,1758077242.0349,0.0,0.0,0.0,-8.30789,-14.20935,13.86558,8.31,-0.04,-0.28,4.0
1758077242.25077,1758077242.0449,0.0,0.0,0.0,-6.53172,-11.63104,13.86558,8.41,0.0,-0.54,4.0
1758077242.2528,1758077242.0549,0.0,0.0,0.0,-4.92744,-9.62569,13.06344,8.41,0.0,-0.54,4.0
1758077242.26962,1758077242.0649,0.0,0.0,0.0,-3.09397,-7.67763,11.74564,8.48,0.15,-0.72,4.0
1758077242.27132,1758077242.0749,0.0,0.0,0.0,-2.11994,-7.10468,10.8289,8.48,0.15,-0.72,4.0
1758077242.28939,1758077242.0849,0.0,0.0,0.0,-1.14592,-5.78687,10.19865,8.66,0.33,-0.98,4.0
1758077242.29036,1758077242.0949,0.0,0.0,0.0,0.34377,-3.89611,9.68299,8.66,0.33,-0.98,4.0
1758077242.30591,1758077242.1049,0.0,0.0,0.0,3.26586,-2.7502,9.28192,9.08,0.28,-0.92,4.0
1758077242.32522,1758077242.1149,0.0,0.0,0.0,5.50039,-4.69825,8.65166,8.8,0.13,-0.56,4.0
1758077242.35557,1758077242.1249,0.0,0.0,0.0,7.50575,-7.16197,8.36518,8.8,0.13,-0.56,4.0
1758077242.35833,1758077242.1349,0.0,0.0,0.0,9.62569,-9.62569,7.96411,8.41,0.11,-0.39,4.0
1758077242.3611,1758077242.1449,0.0,0.0,0.0,12.2613,-11.22997,7.96411,8.41,0.11,-0.39,4.0
1758077242.36592,1758077242.1549,0.0,0.0,0.0,13.5791,-7.50575,8.30789,8.47,0.17,-0.49,4.0
1758077242.36941,1758077242.1649,0.0,0.0,0.0,15.41257,-3.32316,8.59437,8.47,0.17,-0.49,4.0
1758077242.37004,1758077242.1749,0.0,0.0,0.0,17.30333,-2.92208,8.88085,8.71,0.24,-0.11,4.0
1758077242.39064,1758077242.1849,0.0,0.0,0.0,20.51189,-11.28727,6.35983,8.58,0.13,1.5,4.0
1758077242.41598,1758077242.1949,0.0,0.0,0.0,23.83505,-23.0329,2.29183,8.58,0.13,1.5,4.0
1758077242.41652,1758077242.2049,0.0,0.0,0.0,28.13223,-32.77319,-2.63561,10.32,-0.44,3.25,4.0
1758077242.42339,1758077242.2149,0.0,0.0,0.0,32.6013,-37.35685,-8.0787,10.32,-0.44,3.25,4.0
1758077242.42633,1758077242.2249,0.0,0.0,0.0,39.19032,-39.01843,-8.136,13.05,-1.73,2.78,4.0
1758077242.44411,1758077242.2349,0.0,0.0,0.0,41.76862,-40.50812,-5.61499,13.05,-1.73,2.78,4.0
1758077242.4466,1758077242.2449,0.0,0.0,0.0,41.99781,-41.02378,-1.3751,12.96,-2.58,2.2,4.0
1758077242.46188,1758077242.2549,0.0,0.0,0.0,38.21629,-34.89313,6.58902,12.96,-2.58,2.2,4.0
1758077242.46463,1758077242.2649,0.0,0.0,0.0,34.14828,-24.86637,11.91752,14.03,-2.03,0.68,4.0
1758077242.48071,1758077242.2749,0.0,0.0,0.0,30.82513,-13.69369,15.58445,16.96,-1.23,0.92,4.0
1758077242.52859,1758077242.2849,0.0,0.0,0.0,27.96034,-7.44845,16.21471,16.96,-1.23,0.92,4.0
1758077242.52917,1758077242.2949,0.0,0.0,0.0,22.91831,-9.96947,10.94349,18.08,-1.54,0.49,4.0
1758077242.53125,1758077242.3049,0.0,0.0,0.0,19.48057,-5.4431,6.18794,18.08,-1.54,0.49,4.0
1758077242.53263,1758077242.3149,0.0,0.0,0.0,17.76169,6.87549,3.83882,16.58,-2.21,-1.18,4.0
1758077242.53547,1758077242.3249,0.0,0.0,0.0,17.30333,20.51189,4.52637,16.58,-2.21,-1.18,4.0
1758077242.53612,1758077242.3349,0.0,0.0,0.0,17.58981,34.43476,7.67763,14.25,-2.15,-0.88,4.0
1758077242.55225,1758077242.3449,0.0,0.0,0.0,17.24603,37.92981,9.62569,12.42,-1.03,-0.21,4.0
1758077242.55312,1758077242.3549,0.0,0.0,0.0,16.38659,36.89849,11.00079,12.42,-1.03,-0.21,4.0
1758077242.56986,1758077242.3649,0.0,0.0,0.0,14.66772,34.66395,11.45916,11.85,-0.17,0.0,4.0
1758077242.57071,1758077242.3749,0.0,0.0,0.0,10.59972,31.39809,9.96947,11.85,-0.17,0.0,4.0
1758077242.58593,1758077242.3849,0.0,0.0,0.0,7.21927,32.08564,7.96411,11.61,-0.42,0.18,4.0
1758077242.62569,1758077242.3949,0.0,0.0,0.0,5.09932,34.77854,6.07335,11.61,-0.42,0.18,4.0
1758077242.63579,1758077242.4049,0.0,0.0,0.0,3.09397,35.00772,3.83882,11.21,-1.06,0.11,4.0
1758077242.63617,1758077242.4149,0.0,0.0,0.0,0.74485,27.84575,1.20321,9.65,-1.26,0.12,4.0
1758077242.64092,1758077242.4249,0.0,0.0,0.0,-0.34377,21.02755,0.40107,9.65,-1.26,0.12,4.0
1758077242.6412,1758077242.4349,0.0,0.0,0.0,-0.97403,14.72501,0.40107,8.69,-1.14,0.26,4.0
1758077242.64679,1758077242.4449,0.0,0.0,0.0,-0.85944,10.65701,1.60428,8.69,-1.14,0.26,4.0
1758077242.66301,1758077242.4549,0.0,0.0,0.0,-0.22918,12.83425,3.72423,8.66,-1.07,0.24,4.0
1758077242.67063,1758077242.4649,0.0,0.0,0.0,-0.80214,25.15285,2.00535,8.66,-1.07,0.24,4.0
1758077242.67116,1758077242.4749,0.0,0.0,0.0,-2.23454,36.7266,1.77617,9.79,-1.14,-0.19,4.0
1758077242.68874,1758077242.4849,0.0,0.0,0.0,-3.03668,40.16434,-0.22918,9.79,-1.14,-0.19,4.0
1758077242.68998,1758077242.4949,0.0,0.0,0.0,-2.6929,27.84575,-0.34377,8.63,-1.13,0.13,4.0
1758077242.70601,1758077242.5049,0.0,0.0,0.0,-2.86479,14.9542,-1.03132,6.05,-1.17,-0.44,4.0
1758077242.72441,1758077242.5149,0.0,0.0,0.0,-2.92208,7.33386,-1.83346,6.05,-1.17,-0.44,4.0
1758077242.7272,1758077242.5249,0.0,0.0,0.0,-2.11994,-0.40107,-3.09397,6.3,-1.16,-0.47,4.0
1758077242.73021,1758077242.5349,0.0,0.0,0.0,-1.03132,-7.44845,-3.95341,6.3,-1.16,-0.47,4.0
1758077242.74654,1758077242.5449,0.0,0.0,0.0,0.40107,-15.06879,-4.52637,6.28,-1.08,-0.08,4.0
1758077242.76313,1758077242.5549,0.0,0.0,0.0,1.83346,-22.28806,-4.98473,6.28,-1.08,-0.08,4.0
1758077242.7651,1758077242.5649,0.0,0.0,0.0,4.0107,-31.39809,-5.50039,6.38,-0.94,-0.44,4.0
1758077242.78163,1758077242.5749,0.0,0.0,0.0,5.09932,-34.95043,-6.47442,6.72,-0.96,-0.53,4.0
1758077242.78313,1758077242.5849,0.0,0.0,0.0,5.61499,-38.73195,-7.84952,6.72,-0.96,-0.53,4.0
1758077242.80069,1758077242.5949,0.0,0.0,0.0,6.18794,-40.50812,-8.70896,7.17,-1.03,-0.55,4.0
1758077242.80275,1758077242.6049,0.0,0.0,0.0,6.8182,-34.32018,-9.5684,7.17,-1.03,-0.55,4.0
1758077242.81912,1758077242.6149,0.0,0.0,0.0,7.04738,-28.76248,-9.62569,8.61,-1.28,-0.79,4.0
1758077242.82244,1758077242.6249,0.0,0.0,0.0,7.10468,-25.15285,-10.02676,8.61,-1.28,-0.79,4.0
1758077242.84146,1758077242.6349,0.0,0.0,0.0,6.35983,-24.17882,-11.51645,9.07,-1.38,-0.67,4.0
1758077242.84968,1758077242.6449,0.0,0.0,0.0,4.81285,-24.29341,-12.71966,9.01,-1.02,-0.85,4.0
1758077242.85008,1758077242.6549,0.0,0.0,0.0,4.0107,-23.66316,-14.03747,9.01,-1.02,-0.85,4.0
1758077242.86716,1758077242.6649,0.0,0.0,0.0,2.92208,-23.20479,-15.0115,9.27,-0.69,-0.84,4.0
1758077242.88331,1758077242.6749,0.0,0.0,0.0,0.68755,-22.05888,-15.75634,9.27,-0.69,-0.84,4.0
1758077242.8851,1758077242.6849,0.0,0.0,0.0,-0.68755,-21.25674,-15.87093,9.33,-0.66,-0.74,4.0
1758077242.90046,1758077242.6949,0.0,0.0,0.0,-2.11994,-18.16276,-15.58445,9.33,-0.66,-0.74,4.0
1758077242.90133,1758077242.7049,0.0,0.0,0.0,-3.49504,-14.72501,-15.06879,9.56,-0.83,-0.78,4.0
1758077242.92112,1758077242.7149,0.0,0.0,0.0,-5.27121,-11.45916,-14.38124,9.56,-0.83,-0.7,4.0
1758077242.92659,1758077242.7249,0.0,0.0,0.0,-6.35983,-10.37054,-14.03747,9.32,-1.02,-0.7,4.0
1758077242.94113,1758077242.7349,0.0,0.0,0.0,-7.21927,-8.93814,-13.75099,8.82,-1.05,-0.7,4.0
1758077242.94631,1758077242.7449,0.0,0.0,0.0,-8.30789,-7.67763,-13.69369,8.82,-1.05,-0.7,4.0
1758077242.96111,1758077242.7549,0.0,0.0,0.0,-10.19865,-6.13065,-13.23533,8.46,-0.93,-0.64,4.0
1758077242.96625,1758077242.7649,0.0,0.0,0.0,-11.51645,-6.47442,-12.89155,8.46,-0.93,-0.64,4.0
1758077242.98118,1758077242.7749,0.0,0.0,0.0,-13.12073,-8.0787,-12.54778,8.05,-0.79,-0.62,4.0
1758077242.99055,1758077242.7849,0.0,0.0,0.0,-14.9542,-9.91217,-12.2613,8.05,-0.79,-0.62,4.0
1758077242.99195,1758077242.7949,0.0,0.0,0.0,-18.16276,-12.77696,-12.14671,7.75,-0.72,-0.75,4.0
1758077243.01143,1758077242.8049,0.0,0.0,0.0,-20.22541,-15.12609,-12.2613,7.57,-0.81,-0.84,4.0
1758077243.01557,1758077242.8149,0.0,0.0,0.0,-22.23076,-17.30333,-12.14671,7.57,-0.81,-0.84,4.0
1758077243.03143,1758077242.8249,0.0,0.0,0.0,-24.12152,-19.82434,-11.57375,7.8,-0.78,-0.07,4.0
1758077243.03429,1758077242.8349,0.0,0.0,0.0,-27.1582,-23.37668,-9.4538,7.8,-0.78,-0.07,4.0
1758077243.07319,1758077242.8449,0.0,0.0,0.0,-29.10626,-29.04896,-5.84417,9.49,-0.33,2.09,4.0
1758077243.07682,1758077242.8549,0.0,0.0,0.0,-32.6013,-34.0337,-1.66158,9.49,-0.33,2.09,4.0
1758077243.07834,1758077242.8649,0.0,0.0,0.0,-39.53409,-36.15364,6.35983,12.18,0.15,4.67,4.0
1758077243.08065,1758077242.8749,0.0,0.0,0.0,-46.00851,-42.22699,8.42248,13.47,0.57,3.49,4.0
1758077243.08133,1758077242.8849,0.0,0.0,0.0,-50.53488,-43.77398,8.93814,13.47,0.57,3.49,4.0
1758077243.0993,1758077242.8949,0.0,0.0,0.0,-53.34238,-38.1017,7.44845,13.57,1.14,1.58,4.0
1758077243.10174,1758077242.9049,0.0,0.0,0.0,-53.51426,-13.12073,3.32316,13.57,1.14,1.58,4.0
1758077243.14099,1758077242.9149,0.0,0.0,0.0,-49.33167,-1.14592,-0.57296,16.96,1.48,0.63,4.0
1758077243.14187,1758077242.9249,0.0,0.0,0.0,-43.65939,-10.71431,-2.23454,16.96,1.48,0.63,4.0
1758077243.14656,1758077242.9349,0.0,0.0,0.0,-33.00237,-23.94964,-1.77617,15.59,0.9,-0.72,4.0
1758077243.1486,1758077242.9449,0.0,0.0,0.0,-16.73037,-9.96947,-0.40107,15.14,0.9,-2.51,4.0
1758077243.16501,1758077242.9549,0.0,0.0,0.0,-9.22462,21.37133,-2.7502,15.14,-0.93,-2.51,4.0
1758077243.16656,1758077242.9649,0.0,0.0,0.0,-3.60963,54.48829,-6.58902,15.54,-1.07,-2.05,4.0
1758077243.18124,1758077242.9749,0.0,0.0,0.0,0.45837,75.17207,-10.8289,15.54,-1.07,-2.05,4.0
1758077243.185,1758077242.9849,0.0,0.0,0.0,6.99009,76.48987,-13.34992,12.3,-0.37,-0.75,4.0
1758077243.20026,1758077242.9949,0.0,0.0,0.0,8.136,68.64035,-14.20935,12.3,-0.37,-0.75,4.0
1758077243.20144,1758077243.0049,0.0,0.0,0.0,7.04738,62.85347,-14.49583,11.65,0.01,-0.5,4.0
1758077243.21886,1758077243.0149,0.0,0.0,0.0,4.58366,60.33246,-12.89155,11.65,0.01,-0.5,4.0
1758077243.22431,1758077243.0249,0.0,0.0,0.0,2.11994,55.29043,-6.7609,13.06,0.24,-0.31,4.0
1758077243.24054,1758077243.0349,0.0,0.0,0.0,1.08862,44.748,-3.03668,11.54,-0.18,0.06,4.0
1758077243.24145,1758077243.0449,0.0,0.0,0.0,0.11459,34.49206,-0.34377,11.54,-0.18,0.06,4.0
1758077243.26056,1758077243.0549,0.0,0.0,0.0,-0.0573,34.95043,3.09397,10.44,-0.6,-0.86,4.0
1758077243.42115,1758077243.0649,0.0,0.0,0.0,5.15662,55.57691,5.84417,10.44,-0.6,-0.86,4.0
1758077243.42162,1758077243.0749,0.0,0.0,0.0,9.96947,58.49899,7.10468,12.28,-0.98,-0.69,4.0
1758077243.42986,1758077243.0849,0.0,0.0,0.0,13.46451,51.6235,6.24524,12.28,-0.98,-0.69,4.0
1758077243.43046,1758077243.0949,0.0,0.0,0.0,16.95955,36.89849,3.38045,10.36,-0.48,0.35,4.0
1758077243.43329,1758077243.1049,0.0,0.0,0.0,17.6471,32.14294,1.08862,9.55,0.34,-0.14,4.0
1758077243.43398,1758077243.1149,0.0,0.0,0.0,17.36062,30.88243,-0.40107,9.55,0.34,-0.14,4.0
1758077243.43663,1758077243.1249,0.0,0.0,0.0,16.73037,28.07493,-1.03132,8.92,0.75,0.16,4.0
1758077243.43819,1758077243.1349,0.0,0.0,0.0,14.78231,18.22006,-0.74485,8.92,0.75,0.16,4.0
1758077243.43894,1758077243.1449,0.0,0.0,0.0,13.00614,12.77696,0.17189,7.45,0.91,0.16,4.0
1758077243.44087,1758077243.1549,0.0,0.0,0.0,10.71431,9.68299,1.08862,7.45,0.91,0.16,4.0
1758077243.44405,1758077243.1649,0.0,0.0,0.0,7.96411,6.8182,1.94806,7.11,1.03,-0.02,4.0
1758077243.4468,1758077243.1749,0.0,0.0,0.0,2.92208,0.40107,3.38045,7.0,1.09,-0.16,4.0
1758077243.44869,1758077243.1849,0.0,0.0,0.0,-0.17189,-3.72423,4.64096,7.0,1.09,-0.16,4.0
1758077243.45137,1758077243.1949,0.0,0.0,0.0,-3.32316,-7.50575,5.72958,7.32,1.05,-0.33,4.0
1758077243.45239,1758077243.2049,0.0,0.0,0.0,-6.07335,-10.8289,6.87549,7.32,1.05,-0.33,4.0
1758077243.45604,1758077243.2149,0.0,0.0,0.0,-9.39651,-15.29797,8.59437,7.7,0.92,-0.21,4.0
1758077243.45665,1758077243.2249,0.0,0.0,0.0,-10.94349,-18.10547,9.4538,7.7,0.92,-0.21,4.0
1758077243.4579,1758077243.2349,0.0,0.0,0.0,-11.86023,-20.34,9.91217,7.83,0.64,-0.13,4.0
1758077243.4609,1758077243.2449,0.0,0.0,0.0,-12.14671,-21.25674,10.31324,7.83,0.64,-0.13,4.0
1758077243.46616,1758077243.2549,0.0,0.0,0.0,-11.45916,-21.42862,10.71431,7.99,0.3,-0.06,4.0
1758077243.47005,1758077243.2649,0.0,0.0,0.0,-10.37054,-20.3973,10.94349,8.32,0.08,-0.01,4.0
1758077243.47069,1758077243.2749,0.0,0.0,0.0,-9.05273,-18.50654,11.22997,8.32,0.08,-0.01,4.0
1758077243.49116,1758077243.2849,0.0,0.0,0.0,-7.21927,-15.24068,11.00079,8.88,0.15,-0.1,4.0
1758077243.538,1758077243.2949,0.0,0.0,0.0,-6.18794,-9.74028,10.65701,8.88,0.15,-0.1,4.0
1758077243.53851,1758077243.3049,0.0,0.0,0.0,-4.98473,-5.95876,10.65701,9.43,0.3,-0.24,4.0
1758077243.54134,1758077243.3149,0.0,0.0,0.0,-4.64096,-3.38045,10.31324,9.43,0.3,-0.24,4.0
1758077243.54602,1758077243.3249,0.0,0.0,0.0,-4.69825,-1.43239,10.31324,9.67,0.51,-0.39,4.0
1758077243.5477,1758077243.3349,0.0,0.0,0.0,-4.58366,-2.92208,10.02676,9.51,0.6,-0.42,4.0
1758077243.55129,1758077243.3449,0.0,0.0,0.0,-4.98473,-4.23989,9.96947,9.51,0.6,-0.42,4.0
1758077243.55168,1758077243.3549,0.0,0.0,0.0,-5.32851,-5.55769,9.74028,9.28,0.49,-0.45,4.0
1758077243.5685,1758077243.3649,0.0,0.0,0.0,-5.21392,-4.92744,9.68299,9.28,0.49,-0.45,4.0
1758077243.58471,1758077243.3749,0.0,0.0,0.0,-4.58366,-3.95341,9.22462,9.31,0.39,-0.4,4.0
1758077243.58641,1758077243.3849,0.0,0.0,0.0,-3.60963,-3.26586,8.99544,9.31,0.39,-0.4,4.0
1758077243.60257,1758077243.3949,0.0,0.0,0.0,-2.29183,-1.94806,8.93814,9.12,0.25,-0.46,4.0
1758077243.60676,1758077243.4049,0.0,0.0,0.0,-0.22918,-0.85944,8.88085,8.81,0.13,-0.58,4.0
1758077243.62267,1758077243.4149,0.0,0.0,0.0,1.3751,0.40107,8.76626,8.81,0.13,-0.58,4.0
1758077243.62365,1758077243.4249,0.0,0.0,0.0,3.49504,3.38045,8.99544,8.73,0.06,-0.77,4.0
1758077243.64016,1758077243.4349,0.0,0.0,0.0,5.21392,6.58902,9.33921,8.73,0.06,-0.77,4.0
1758077243.6412,1758077243.4449,0.0,0.0,0.0,7.62034,7.10468,9.68299,8.44,0.04,-0.7,4.0
1758077243.65676,1758077243.4549,0.0,0.0,0.0,8.76626,4.23989,9.68299,8.44,0.04,-0.7,4.0
1758077243.67612,1758077243.4649,0.0,0.0,0.0,9.62569,0.57296,9.74028,7.55,0.14,-0.54,4.0
1758077243.67979,1758077243.4749,0.0,0.0,0.0,10.08406,-2.97938,10.37054,7.55,0.14,-0.54,4.0
1758077243.68132,1758077243.4849,0.0,0.0,0.0,10.71431,-7.67763,11.00079,7.1,0.31,-0.44,4.0
1758077243.70525,1758077243.4949,0.0,0.0,0.0,11.17268,-11.34457,11.86023,7.03,0.32,0.3,4.0
1758077243.70677,1758077243.5049,0.0,0.0,0.0,11.80293,-17.93358,11.74564,7.03,0.32,0.3,4.0
1758077243.72612,1758077243.5149,0.0,0.0,0.0,13.12073,-31.51268,8.88085,7.44,-0.02,1.94,4.0
1758077243.73126,1758077243.5249,0.0,0.0,0.0,14.78231,-36.84119,6.13065,7.44,-0.02,1.94,4.0
1758077243.73517,1758077243.5349,0.0,0.0,0.0,17.24603,-36.03905,3.66693,10.04,-0.67,2.83,4.0
1758077243.75081,1758077243.5449,0.0,0.0,0.0,20.34,-28.476,3.20856,10.04,-0.67,2.83,4.0
1758077243.75365,1758077243.5549,0.0,0.0,0.0,24.23611,-19.07949,3.66693,13.23,-1.8,2.39,4.0
1758077243.7713,1758077243.5649,0.0,0.0,0.0,26.69983,-23.49127,6.13065,12.79,-2.69,2.25,4.0
1758077243.82484,1758077243.5749,0.0,0.0,0.0,26.98631,-43.77398,9.74028,12.79,-2.69,2.25,4.0
1758077243.82548,1758077243.5849,0.0,0.0,0.0,24.92367,-50.76406,11.34457,12.64,-2.42,1.99,4.0
1758077243.8294,1758077243.5949,0.0,0.0,0.0,25.09555,-35.2942,13.34992,12.64,-2.42,1.99,4.0
1758077243.82986,1758077243.6049,0.0,0.0,0.0,25.8404,-25.43933,13.00614,18.91,-2.76,1.04,4.0
1758077243.83176,1758077243.6149,0.0,0.0,0.0,25.21014,-21.02755,11.11538,18.91,-2.76,1.04,4.0
1758077243.83592,1758077243.6249,0.0,0.0,0.0,22.28806,-19.53786,8.25059,18.5,-3.45,-0.38,4.0
1758077243.83631,1758077243.6349,0.0,0.0,0.0,18.56383,-5.90147,7.16197,14.73,-2.34,-0.92,4.0
1758077243.85187,1758077243.6449,0.0,0.0,0.0,18.22006,7.67763,9.74028,14.73,-2.34,-0.92,4.0
1758077243.85277,1758077243.6549,0.0,0.0,0.0,18.73572,19.59516,12.43318,13.45,-1.25,-0.28,4.0
1758077243.86782,1758077243.6649,0.0,0.0,0.0,19.25138,27.38738,14.32395,13.45,-1.25,-0.28,4.0
1758077243.88361,1758077243.6749,0.0,0.0,0.0,18.44924,30.02299,14.78231,12.4,-0.28,0.36,4.0
1758077243.8848,1758077243.6849,0.0,0.0,0.0,17.01685,28.30412,14.03747,12.4,-0.28,0.36,4.0
1758077243.89988,1758077243.6949,0.0,0.0,0.0,14.9542,25.61122,12.08941,11.63,-0.16,0.35,4.0
1758077243.90105,1758077243.7049,0.0,0.0,0.0,11.00079,24.29341,7.33386,11.63,-0.16,0.35,4.0
1758077243.9209,1758077243.7149,0.0,0.0,0.0,9.11003,27.61657,3.72423,11.11,-0.83,0.09,4.0
1758077243.92182,1758077243.7249,0.0,0.0,0.0,8.02141,33.00237,0.80214,11.22,-1.51,0.1,4.0
1758077243.93685,1758077243.7349,0.0,0.0,0.0,7.50575,35.58068,-1.48969,11.22,-1.51,0.1,4.0
1758077243.94292,1758077243.7449,0.0,0.0,0.0,6.87549,30.59595,-3.32316,10.31,-1.57,0.16,4.0
1758077243.95894,1758077243.7549,0.0,0.0,0.0,7.10468,24.86637,-3.20856,10.31,-1.57,0.16,4.0
1758077243.96061,1758077243.7649,0.0,0.0,0.0,7.84952,20.34,-2.11994,9.19,-1.31,0.08,4.0
1758077243.97829,1758077243.7749,0.0,0.0,0.0,9.22462,17.01685,-0.34377,9.19,-1.31,0.08,4.0
1758077243.98102,1758077243.7849,0.0,0.0,0.0,11.57375,12.71966,2.29183,8.83,-1.35,0.11,4.0
1758077244.00083,1758077243.7949,0.0,0.0,0.0,12.83425,8.136,3.32316,8.16,-1.57,0.15,4.0
1758077244.00183,1758077243.8049,0.0,0.0,0.0,13.34992,8.30789,4.64096,8.16,-1.57,0.15,4.0
1758077244.01672,1758077243.8149,0.0,0.0,0.0,13.5218,15.64175,3.89611,8.62,-1.51,-0.23,4.0
1758077244.02102,1758077243.8249,0.0,0.0,0.0,13.17803,33.17426,-0.68755,8.62,-1.51,-0.23,4.0
1758077244.03676,1758077243.8349,0.0,0.0,0.0,13.34992,35.92446,-2.57831,8.87,-1.53,-0.19,4.0
1758077244.05545,1758077243.8449,0.0,0.0,0.0,13.5791,30.65324,-4.46907,8.87,-1.53,-0.19,4.0
1758077244.05683,1758077243.8549,0.0,0.0,0.0,13.46451,21.25674,-5.95876,7.11,-1.32,0.08,4.0
1758077244.07175,1758077243.8649,0.0,0.0,0.0,13.06344,6.8182,-8.25059,6.73,-1.09,-0.48,4.0
1758077244.07635,1758077243.8749,0.0,0.0,0.0,12.71966,0.0,-9.74028,6.73,-1.09,-0.48,4.0
1758077244.09488,1758077243.8849,0.0,0.0,0.0,12.83425,-6.13065,-10.19865,7.17,-0.91,-0.48,4.0
1758077244.09687,1758077243.8949,0.0,0.0,0.0,13.06344,-12.2613,-9.91217,7.17,-0.91,-0.48,4.0
1758077244.11208,1758077243.9049,0.0,0.0,0.0,13.34992,-19.76705,-9.33921,7.58,-0.9,-0.16,4.0
1758077244.11304,1758077243.9149,0.0,0.0,0.0,13.17803,-23.31938,-9.05273,7.58,-0.9,-0.16,4.0
1758077244.13105,1758077243.9249,0.0,0.0,0.0,13.12073,-26.41335,-8.93814,7.94,-1.0,-0.06,4.0
1758077244.13274,1758077243.9349,0.0,0.0,0.0,13.69369,-29.27814,-8.47978,7.94,-1.0,-0.06,4.0
1758077244.14965,1758077243.9449,0.0,0.0,0.0,14.15206,-29.50733,-8.42248,8.12,-1.01,-0.1,4.0
1758077244.16664,1758077243.9549,0.0,0.0,0.0,15.12609,-28.70519,-8.25059,8.48,-1.13,-0.3,4.0
1758077244.17186,1758077243.9649,0.0,0.0,0.0,16.04282,-26.52795,-8.65166,8.48,-1.13,-0.3,4.0
1758077244.17306,1758077243.9749,0.0,0.0,0.0,17.18874,-22.91831,-9.33921,8.72,-1.28,-0.26,4.0
1758077244.19107,1758077243.9849,0.0,0.0,0.0,17.36062,-20.74107,-10.19865,8.72,-1.28,-0.26,4.0
1758077244.19283,1758077243.9949,0.0,0.0,0.0,16.84496,-18.56383,-10.94349,8.67,-1.24,-0.5,4.0
1758077244.20878,1758077244.0049,0.0,0.0,0.0,15.92823,-16.67307,-11.57375,8.67,-1.24,-0.5,4.0
1758077244.24941,1758077244.0149,0.0,0.0,0.0,13.23533,-14.72501,-12.37589,8.6,-1.0,-0.85,4.0
1758077244.25107,1758077244.0249,0.0,0.0,0.0,10.8862,-13.00614,-12.71966,8.78,-0.75,-1.02,4.0
1758077244.25494,1758077244.0349,0.0,0.0,0.0,8.30789,-10.8862,-12.71966,8.78,-0.75,-1.02,4.0
1758077244.2807,1758077244.0449,0.0,0.0,0.0,5.55769,-9.11003,-12.71966,9.03,-0.62,-0.88,4.0
1758077244.28129,1758077244.0549,0.0,0.0,0.0,1.83346,-6.8182,-12.60507,9.03,-0.62,-0.88,4.0
1758077244.29082,1758077244.0649,0.0,0.0,0.0,-0.40107,-6.18794,-12.60507,8.94,-0.65,-0.56,4.0
1758077244.2912,1758077244.0749,0.0,0.0,0.0,-2.29183,-5.84417,-13.06344,8.94,-0.65,-0.56,4.0
1758077244.293,1758077244.0849,0.0,0.0,0.0,-3.72423,-5.90147,-13.23533,8.52,-0.8,-0.45,4.0
1758077244.29563,1758077244.0949,0.0,0.0,0.0,-5.78687,-7.21927,-13.86558,7.94,-0.91,-0.48,4.0
1758077244.31346,1758077244.1049,0.0,0.0,0.0,-6.87549,-8.47978,-14.32395,7.94,-0.91,-0.48,4.0
1758077244.32031,1758077244.1149,0.0,0.0,0.0,-8.0787,-10.54242,-14.66772,7.38,-0.85,-0.64,4.0
1758077244.32288,1758077244.1249,0.0,0.0,0.0,-9.96947,-13.06344,-15.35527,7.38,-0.85,-0.64,4.0
1758077244.34121,1758077244.1349,0.0,0.0,0.0,-11.28727,-16.90226,-15.69904,6.78,-0.73,-0.84,4.0
1758077244.34323,1758077244.1449,0.0,0.0,0.0,-12.89155,-19.19409,-15.98552,6.78,-0.73,-0.84,4.0
1758077244.35789,1758077244.1549,0.0,0.0,0.0,-14.43854,-20.85567,-16.04282,6.42,-0.62,-0.89,4.0
1758077244.36125,1758077244.1649,0.0,0.0,0.0,-16.55848,-22.86102,-16.272,6.42,-0.62,-0.89,4.0
1758077244.37691,1758077244.1749,0.0,0.0,0.0,-17.81899,-25.61122,-16.272,6.19,-0.59,-0.42,4.0
1758077244.39401,1758077244.1849,0.0,0.0,0.0,-18.62113,-31.79916,-15.75634,6.36,-0.59,1.28,4.0
1758077244.39643,1758077244.1949,0.0,0.0,0.0,-19.42327,-38.90384,-13.75099,6.36,-0.59,1.28,4.0
1758077244.41218,1758077244.2049,0.0,0.0,0.0,-21.6578,-42.91454,-8.30789,9.25,-0.25,3.96,4.0
1758077244.41544,1758077244.2149,0.0,0.0,0.0,-25.15285,-38.27358,-3.66693,9.25,-0.25,3.96,4.0
1758077244.43094,1758077244.2249,0.0,0.0,0.0,-31.62727,-29.50733,1.03132,14.94,0.3,4.64,4.0
1758077244.43334,1758077244.23489,0.0,0.0,0.0,-37.92981,-20.11082,4.58366,14.94,0.3,4.64,4.0
1758077244.44912,1758077244.24489,0.0,0.0,0.0,-46.35228,-9.96947,6.99009,16.52,1.05,2.54,4.0
1758077244.465,1758077244.25489,0.0,0.0,0.0,-46.75336,-11.57375,6.18794,15.16,1.91,0.4,4.0
1758077244.46576,1758077244.26489,0.0,0.0,0.0,-43.20102,-21.94428,6.70361,15.16,1.91,0.4,4.0
1758077244.48129,1758077244.27489,0.0,0.0,0.0,-36.89849,-22.23076,6.24524,15.64,1.83,0.28,4.0
1758077244.48943,1758077244.28489,0.0,0.0,0.0,-25.15285,-0.17189,4.81285,15.64,1.83,0.28,4.0
1758077244.49188,1758077244.29489,0.0,0.0,0.0,-17.47521,18.56383,2.06265,18.6,0.37,-1.43,4.0
1758077244.5309,1758077244.30489,0.0,0.0,0.0,-10.19865,34.32018,-0.40107,18.6,0.37,-1.43,4.0
1758077244.55604,1758077244.31489,0.0,0.0,0.0,-4.1253,46.86795,-5.95876,16.68,-0.87,-1.2,4.0
1758077244.55652,1758077244.32489,0.0,0.0,0.0,2.00535,63.59832,-9.39651,14.11,-1.15,-1.16,4.0
1758077244.56514,1758077244.33489,0.0,0.0,0.0,4.46907,73.3959,-12.08941,14.11,-1.15,-1.16,4.0
1758077244.56627,1758077244.34489,0.0,0.0,0.0,5.27121,79.01089,-13.12073,13.07,-0.59,-0.64,4.0
1758077244.56996,1758077244.35489,0.0,0.0,0.0,2.92208,72.99483,-12.2613,13.07,-0.59,-0.64,4.0
1758077244.57054,1758077244.36489,0.0,0.0,0.0,-0.34377,63.42643,-10.31324,11.79,0.1,0.05,4.0
1758077244.5713,1758077244.37489,0.0,0.0,0.0,-3.89611,50.64947,-7.39116,11.79,0.1,0.05,4.0
1758077244.59136,1758077244.38489,0.0,0.0,0.0,-7.73493,35.98175,-4.0107,10.7,0.49,0.12,4.0
1758077244.61608,1758077244.39489,0.0,0.0,0.0,-11.57375,39.24761,0.22918,10.7,0.49,-0.27,4.0
1758077244.62107,1758077244.40489,0.0,0.0,0.0,-8.99544,59.64491,4.46907,10.88,0.15,-0.27,4.0
1758077244.63073,1758077244.41489,0.0,0.0,0.0,-5.55769,72.07809,6.70361,12.12,-0.46,0.39,4.0
1758077244.63129,1758077244.42489,0.0,0.0,0.0,-3.60963,67.55173,5.61499,12.12,-0.46,0.39,4.0
1758077244.63595,1758077244.43489,0.0,0.0,0.0,-1.3178,48.9879,2.23454,8.7,-0.39,0.98,4.0
1758077244.65293,1758077244.44489,0.0,0.0,0.0,-0.11459,37.12767,0.40107,8.7,-0.39,0.98,4.0
1758077244.66089,1758077244.45489,0.0,0.0,0.0,0.40107,31.56997,-0.97403,7.77,0.04,-0.01,4.0
1758077244.6624,1758077244.46489,0.0,0.0,0.0,-0.0573,29.39274,-1.66158,7.77,0.04,-0.01,4.0
1758077244.68136,1758077244.47489,0.0,0.0,0.0,-2.23454,20.85567,-1.3178,7.67,0.56,-0.08,4.0
1758077244.68646,1758077244.48489,0.0,0.0,0.0,-4.18259,10.65701,-0.45837,6.57,0.99,-0.26,4.0
1758077244.7013,1758077244.49489,0.0,0.0,0.0,-6.18794,1.71887,0.85944,6.57,0.99,-0.26,4.0
1758077244.70657,1758077244.50489,0.0,0.0,0.0,-8.25059,-4.98473,2.86479,6.68,1.18,-0.8,4.0
1758077244.76598,1758077244.51489,0.0,0.0,0.0,-11.45916,-13.80828,5.50039,6.68,1.18,-0.8,4.0
1758077244.77108,1758077244.52489,0.0,0.0,0.0,-13.00614,-19.07949,6.87549,7.0,1.12,-0.5,4.0
1758077244.77258,1758077244.53489,0.0,0.0,0.0,-14.20935,-23.83505,7.62034,7.0,1.12,-0.5,4.0
1758077244.77539,1758077244.54489,0.0,0.0,0.0,-14.72501,-28.30412,7.79223,7.43,0.8,-0.03,4.0
1758077244.77599,1758077244.55489,0.0,0.0,0.0,-14.15206,-32.48671,7.33386,7.9,0.31,0.13,4.0
1758077244.77727,1758077244.56489,0.0,0.0,0.0,-13.17803,-33.68992,6.87549,7.9,0.31,0.13,4.0
1758077244.77829,1758077244.57489,0.0,0.0,0.0,-11.22997,-34.60666,6.58902,8.28,-0.16,0.1,4.0
1758077244.78154,1758077244.58489,0.0,0.0,0.0,-7.50575,-34.09099,6.13065,8.28,-0.16,0.1,4.0
1758077244.79797,1758077244.59489,0.0,0.0,0.0,-4.92744,-32.71589,5.90147,8.54,-0.42,0.11,4.0
1758077244.80071,1758077244.60489,0.0,0.0,0.0,-2.34913,-30.76784,5.61499,8.54,-0.42,0.11,4.0
1758077244.81604,1758077244.61489,0.0,0.0,0.0,0.0,-28.01764,5.78687,8.81,-0.41,-0.06,4.0
1758077244.83328,1758077244.62489,0.0,0.0,0.0,2.63561,-24.57989,6.58902,8.77,-0.41,-0.43,4.0
1758077244.83598,1758077244.63489,0.0,0.0,0.0,4.1253,-21.25674,7.50575,8.77,-0.12,-0.43,4.0
1758077244.85138,1758077244.64489,0.0,0.0,0.0,4.92744,-17.76169,8.30789,8.79,0.15,-0.88,4.0
1758077244.85533,1758077244.65489,0.0,0.0,0.0,5.95876,-15.0115,9.62569,8.79,0.15,-0.88,4.0
1758077244.87012,1758077244.66489,0.0,0.0,0.0,8.36518,-13.12073,11.74564,8.77,0.12,-1.04,4.0
1758077244.87156,1758077244.67489,0.0,0.0,0.0,10.71431,-11.51645,13.06344,8.77,0.12,-1.04,4.0
1758077244.88633,1758077244.68489,0.0,0.0,0.0,13.12073,-9.85487,13.86558,8.83,-0.11,-0.93,4.0
1758077244.89048,1758077244.69489,0.0,0.0,0.0,15.92823,-8.99544,14.43854,8.83,-0.11,-0.93,4.0
1758077244.90611,1758077244.70489,0.0,0.0,0.0,21.02755,-6.47442,14.72501,8.6,-0.3,-0.52,4.0
1758077244.91054,1758077244.71489,0.0,0.0,0.0,24.86637,-4.18259,14.83961,8.46,-0.37,-0.24,4.0
1758077244.92614,1758077244.72489,0.0,0.0,0.0,28.59059,-2.92208,15.0115,8.46,-0.37,-0.24,4.0
1758077244.93056,1758077244.73489,0.0,0.0,0.0,31.91375,-3.60963,14.66772,7.73,-0.34,-0.35,4.0
1758077244.9462,1758077244.74489,0.0,0.0,0.0,36.26823,-7.04738,13.98017,7.73,-0.34,-0.35,4.0
1758077244.98164,1758077244.75489,0.0,0.0,0.0,38.78925,-10.48513,13.12073,6.83,-0.16,-0.24,4.0
1758077245.01136,1758077244.76489,0.0,0.0,0.0,41.36755,-16.10011,12.08941,6.83,-0.16,-0.24,4.0
1758077245.01363,1758077244.77489,0.0,0.0,0.0,45.20637,-26.24147,8.93814,6.66,-0.07,1.04,4.0
1758077245.02117,1758077244.78489,0.0,0.0,0.0,48.64412,-30.53865,6.47442,8.3,-0.49,2.72,4.0
1758077245.02162,1758077244.79489,0.0,0.0,0.0,52.25375,-31.62727,4.58366,8.3,-0.49,2.72,4.0
1758077245.02366,1758077244.80489,0.0,0.0,0.0,55.86338,-32.77319,3.49504,11.0,-1.56,3.22,4.0
1758077245.02416,1758077244.81489,0.0,0.0,0.0,59.35843,-36.15364,3.95341,11.0,-1.56,3.22,4.0
1758077245.0249,1758077244.82489,0.0,0.0,0.0,58.90006,-46.00851,5.15662,12.03,-2.72,2.18,4.0
1758077245.0402,1758077244.83489,0.0,0.0,0.0,57.75415,-60.73353,9.33921,12.03,-2.72,2.18,4.0
1758077245.04142,1758077244.84489,0.0,0.0,0.0,54.25911,-60.67623,12.2613,11.48,-2.64,0.95,4.0
1758077245.06039,1758077244.85489,0.0,0.0,0.0,52.08187,-47.15443,16.10011,16.3,-1.76,2.1,4.0
1758077245.06142,1758077244.86489,0.0,0.0,0.0,50.99325,-40.45082,15.98552,16.3,-1.76,2.1,4.0
1758077245.08181,1758077244.87489,0.0,0.0,0.0,47.89928,-40.85189,11.86023,18.99,-2.58,-1.44,4.0
1758077245.08463,1758077244.88489,0.0,0.0,0.0,42.51347,-39.24761,5.95876,18.99,-2.58,-1.44,4.0
1758077245.10057,1758077244.89489,0.0,0.0,0.0,37.98711,-10.54242,2.6929,16.05,-2.35,-2.46,4.0
1758077245.10141,1758077244.90489,0.0,0.0,0.0,38.50277,12.2613,5.09932,16.05,-2.35,-2.46,4.0
1758077245.11639,1758077244.91489,0.0,0.0,0.0,39.76327,30.30947,7.62034,14.49,-1.32,-2.04,4.0
1758077245.13356,1758077244.92489,0.0,0.0,0.0,40.33623,39.19032,9.5684,14.49,-1.32,-2.04,4.0
1758077245.13525,1758077244.93489,0.0,0.0,0.0,39.13302,37.81522,9.4538,12.56,0.31,-0.51,4.0
1758077245.15054,1758077244.94489,0.0,0.0,0.0,37.29956,35.98175,7.62034,12.25,0.8,-0.56,4.0
1758077245.15147,1758077244.95489,0.0,0.0,0.0,34.43476,35.63798,4.18259,12.25,0.8,-0.56,4.0
1758077245.16628,1758077244.96489,0.0,0.0,0.0,29.56462,35.2942,-1.71887,12.29,-0.12,-0.78,4.0
1758077245.17064,1758077244.97489,0.0,0.0,0.0,26.47065,31.39809,-4.92744,12.29,-0.12,-0.78,4.0
1758077245.18621,1758077244.98489,0.0,0.0,0.0,24.5226,33.51803,-7.10468,11.13,-1.14,-0.58,4.0
1758077245.19063,1758077244.99489,0.0,0.0,0.0,23.31938,35.98175,-8.0787,11.13,-1.14,-0.58,4.0
1758077245.2063,1758077245.00489,0.0,0.0,0.0,22.28806,31.62727,-8.36518,10.62,-1.43,-0.63,4.0
1758077245.21091,1758077245.01489,0.0,0.0,0.0,22.11617,25.43933,-7.96411,9.21,-1.07,-0.3,4.0
1758077245.22653,1758077245.02489,0.0,0.0,0.0,22.11617,18.85031,-6.70361,9.21,-1.07,-0.3,4.0
1758077245.2299,1758077245.03489,0.0,0.0,0.0,22.00158,19.36597,-4.92744,8.91,-0.8,-0.34,4.0
1758077245.24589,1758077245.04489,0.0,0.0,0.0,21.48592,36.7266,-4.52637,8.91,-0.8,-0.34,4.0
1758077245.26477,1758077245.05489,0.0,0.0,0.0,20.16812,50.76406,-6.24524,10.24,-0.73,-0.5,4.0
1758077245.29008,1758077245.06489,0.0,0.0,0.0,20.16812,52.02457,-7.04738,10.24,-0.73,-0.5,4.0
1758077245.29067,1758077245.07489,0.0,0.0,0.0,19.42327,41.02378,-8.02141,8.46,-0.84,0.13,4.0
1758077245.29309,1758077245.08489,0.0,0.0,0.0,18.50654,21.14215,-8.25059,6.34,-0.93,-0.49,4.0
1758077245.29607,1758077245.09489,0.0,0.0,0.0,18.27736,14.32395,-8.36518,6.34,-0.93,-0.49,4.0
1758077245.31157,1758077245.10489,0.0,0.0,0.0,18.50654,9.28192,-8.25059,6.69,-1.04,-0.59,4.0
1758077245.31253,1758077245.11489,0.0,0.0,0.0,19.36597,2.63561,-7.67763,6.69,-1.04,-0.59,4.0
1758077245.33054,1758077245.12489,0.0,0.0,0.0,21.94428,-10.02676,-6.8182,6.48,-1.11,-0.62,4.0
1758077245.33366,1758077245.13489,0.0,0.0,0.0,23.89234,-19.99623,-6.13065,6.48,-1.11,-0.62,4.0
1758077245.34994,1758077245.14489,0.0,0.0,0.0,25.61122,-29.96569,-5.50039,6.24,-1.19,-1.18,4.0
1758077245.35383,1758077245.15489,0.0,0.0,0.0,26.98631,-35.3515,-5.72958,6.24,-1.19,-1.18,4.0
1758077245.36859,1758077245.16489,0.0,0.0,0.0,28.93437,-33.17426,-5.84417,6.6,-1.37,-1.19,4.0
1758077245.36956,1758077245.17489,0.0,0.0,0.0,29.50733,-29.67921,-5.32851,8.09,-1.51,-0.56,4.0
1758077245.38563,1758077245.18489,0.0,0.0,0.0,28.01764,-24.57989,-6.41713,8.09,-1.51,-0.56,4.0
1758077245.40166,1758077245.19489,0.0,0.0,0.0,23.94964,-26.18417,-8.25059,8.55,-1.12,-0.28,4.0
1758077245.40578,1758077245.20489,0.0,0.0,0.0,21.31403,-28.64789,-8.36518,8.55,-1.12,-0.28,4.0
1758077245.42165,1758077245.21489,0.0,0.0,0.0,18.9649,-29.33544,-8.0787,8.6,-0.78,-0.83,4.0
1758077245.4419,1758077245.22489,0.0,0.0,0.0,16.55848,-28.93437,-7.84952,8.6,-0.78,-0.83,4.0
1758077245.44329,1758077245.23489,0.0,0.0,0.0,12.71966,-28.99167,-8.0787,8.79,-0.5,-0.95,4.0
1758077245.44645,1758077245.24489,0.0,0.0,0.0,10.25595,-28.99167,-8.0787,8.65,-0.31,-1.0,4.0
1758077245.46168,1758077245.25489,0.0,0.0,0.0,7.44845,-27.96034,-8.47978,8.65,-0.31,-1.0,4.0
1758077245.4634,1758077245.26489,0.0,0.0,0.0,4.92744,-26.98631,-8.59437,8.71,-0.41,-1.26,4.0
1758077245.48036,1758077245.27489,0.0,0.0,0.0,1.20321,-25.89769,-8.88085,8.71,-0.41,-1.26,4.0
1758077245.48126,1758077245.28489,0.0,0.0,0.0,-1.14592,-25.61122,-8.99544,8.6,-0.75,-1.46,4.0
1758077245.52049,1758077245.29489,0.0,0.0,0.0,-3.55234,-25.61122,-9.05273,8.6,-0.75,-1.46,4.0
