timeStamp,timeStampAlign,roll,pitch,yaw,gyro_x,gyro_y,gyro_z,acc_x,acc_y,acc_z,flag_num
1758075063.72735,1758075063.62,0.0,0.0,0.0,44.17505,-54.3737,-9.5684,6.48,0.84,3.66,3.0
1758075063.7294,1758075063.63,0.0,0.0,0.0,40.85189,-53.68615,-10.59972,6.48,0.84,3.66,3.0
1758075063.74548,1758075063.64,0.0,0.0,0.0,38.27358,-51.22243,-10.71431,7.2,0.68,3.55,3.0
1758075063.76219,1758075063.65,0.0,0.0,0.0,35.86716,-48.12846,-10.02676,7.2,0.68,3.55,3.0
1758075063.76423,1758075063.66,0.0,0.0,0.0,33.80451,-43.60209,-8.59437,7.7,0.24,3.41,3.0
1758075063.78068,1758075063.67,0.0,0.0,0.0,33.51803,-38.73195,-7.50575,8.07,-0.19,3.09,3.0
1758075063.78163,1758075063.68,0.0,0.0,0.0,33.68992,-32.37212,-6.7609,8.07,-0.19,3.09,3.0
1758075063.79672,1758075063.69,0.0,0.0,0.0,34.60666,-20.74107,-6.18794,8.27,-0.51,2.82,3.0
1758075063.81281,1758075063.7,0.0,0.0,0.0,35.2369,-12.89155,-6.53172,8.27,-0.51,2.82,3.0
1758075063.81611,1758075063.71,0.0,0.0,0.0,35.92446,-5.55769,-7.44845,8.17,-0.64,2.58,3.0
1758075063.8317,1758075063.72,0.0,0.0,0.0,36.49741,1.14592,-8.76626,8.17,-0.64,2.58,3.0
1758075063.83276,1758075063.73,0.0,0.0,0.0,37.18496,10.65701,-11.17268,8.08,-0.5,2.41,3.0
1758075063.84773,1758075063.74,0.0,0.0,0.0,37.52874,17.01685,-12.89155,8.21,-0.26,2.31,3.0
1758075063.84942,1758075063.75,0.0,0.0,0.0,37.52874,22.40265,-14.20935,8.21,-0.26,2.31,3.0
1758075063.86549,1758075063.76,0.0,0.0,0.0,37.35685,26.47065,-15.35527,8.18,-0.08,2.44,3.0
1758075063.88178,1758075063.77,0.0,0.0,0.0,36.89849,28.87707,-15.92823,8.18,-0.08,2.44,3.0
1758075063.88308,1758075063.78,0.0,0.0,0.0,36.61201,29.22085,-15.75634,7.97,-0.03,2.64,3.0
1758075063.90076,1758075063.79,0.0,0.0,0.0,35.98175,29.9084,-15.06879,7.97,-0.03,2.64,3.0
1758075063.90517,1758075063.8,0.0,0.0,0.0,35.58068,29.9084,-14.78231,8.14,-0.07,2.81,3.0
1758075063.92075,1758075063.81,0.0,0.0,0.0,34.72124,26.41335,-14.09476,8.07,-0.06,2.97,3.0
1758075063.92514,1758075063.82,0.0,0.0,0.0,33.9764,21.37133,-13.69369,8.07,-0.06,2.97,3.0
1758075063.94076,1758075063.83,0.0,0.0,0.0,33.34615,17.13144,-13.5791,8.03,0.05,2.91,3.0
1758075063.94594,1758075063.84,0.0,0.0,0.0,32.20023,13.80828,-13.80828,8.03,0.05,2.91,3.0
1758075063.96083,1758075063.85,0.0,0.0,0.0,30.59595,9.22462,-14.43854,8.33,0.27,2.81,3.0
1758075063.9617,1758075063.86,0.0,0.0,0.0,29.39274,5.4431,-14.72501,8.33,0.27,2.81,3.0
1758075063.97653,1758075063.87,0.0,0.0,0.0,28.36141,0.57296,-14.49583,8.29,0.49,2.87,3.0
1758075063.99282,1758075063.88,0.0,0.0,0.0,26.81443,-4.18259,-12.89155,8.29,0.49,2.87,3.0
1758075063.99374,1758075063.89,0.0,0.0,0.0,25.7831,-11.22997,-11.00079,8.42,0.59,2.9,3.0
1758075064.00878,1758075063.9,0.0,0.0,0.0,24.57989,-15.75634,-8.36518,8.68,0.6,2.87,3.0
1758075064.00974,1758075063.91,0.0,0.0,0.0,23.54857,-19.42327,-5.50039,8.68,0.6,2.87,3.0
1758075064.02681,1758075063.92,0.0,0.0,0.0,22.05888,-22.91831,-1.3751,9.01,0.54,2.93,3.0
1758075064.04257,1758075063.93,0.0,0.0,0.0,21.08485,-23.0902,0.85944,9.01,0.54,2.93,3.0
1758075064.04617,1758075063.94,0.0,0.0,0.0,20.34,-22.00158,2.34913,9.3,0.52,2.84,3.0
1758075064.06192,1758075063.95,0.0,0.0,0.0,19.59516,-19.99623,2.97938,9.3,0.52,2.84,3.0
1758075064.06275,1758075063.96,0.0,0.0,0.0,18.16276,-15.92823,2.57831,9.42,0.6,2.87,3.0
1758075064.07862,1758075063.97,0.0,0.0,0.0,17.36062,-12.60507,1.66158,9.56,0.74,2.83,3.0
1758075064.08245,1758075063.98,0.0,0.0,0.0,16.04282,-9.4538,0.74485,9.56,0.74,2.83,3.0
1758075064.09762,1758075063.99,0.0,0.0,0.0,14.61043,-6.35983,-0.51566,9.67,0.85,2.87,3.0
1758075064.11468,1758075064.0,0.0,0.0,0.0,11.45916,-1.20321,-2.92208,9.67,0.85,2.87,3.0
1758075064.11641,1758075064.01,0.0,0.0,0.0,8.59437,-0.34377,-6.58902,9.62,0.99,2.97,3.0
1758075064.13187,1758075064.02,0.0,0.0,0.0,5.50039,-1.20321,-9.74028,9.62,0.99,2.97,3.0
1758075064.13305,1758075064.03,0.0,0.0,0.0,3.26586,-5.78687,-12.2613,9.12,1.18,2.51,3.0
1758075064.15121,1758075064.04,0.0,0.0,0.0,-2.29183,-4.52637,-17.58981,9.26,1.3,2.5,3.0
1758075064.15245,1758075064.05,0.0,0.0,0.0,-5.21392,-5.15662,-19.82434,9.26,1.3,2.5,3.0
1758075064.16788,1758075064.06,0.0,0.0,0.0,-8.0787,-5.32851,-22.05888,9.26,1.3,2.39,3.0
1758075064.18375,1758075064.07,0.0,0.0,0.0,-10.71431,-6.07335,-24.29341,9.26,1.3,2.39,3.0
1758075064.18568,1758075064.08,0.0,0.0,0.0,-14.61043,-6.18794,-26.98631,8.93,1.29,2.24,3.0
1758075064.20092,1758075064.09,0.0,0.0,0.0,-16.90226,-6.7609,-28.13223,8.93,1.29,2.24,3.0
1758075064.20185,1758075064.1,0.0,0.0,0.0,-19.53786,-8.02141,-29.10626,8.8,1.43,2.31,3.0
1758075064.21671,1758075064.11,0.0,0.0,0.0,-22.57454,-13.06344,-28.07493,8.8,1.43,2.31,3.0
1758075064.22253,1758075064.12,0.0,0.0,0.0,-24.86637,-15.35527,-26.87172,8.47,1.58,2.2,3.0
1758075064.24005,1758075064.13,0.0,0.0,0.0,-26.47065,-17.24603,-23.89234,8.24,1.61,2.03,3.0
1758075064.24122,1758075064.14,0.0,0.0,0.0,-29.04896,-22.57454,-21.42862,8.24,1.61,2.03,3.0
1758075064.25684,1758075064.15,0.0,0.0,0.0,-30.88243,-39.07573,-16.90226,7.95,1.65,2.07,3.0
1758075064.27375,1758075064.16,0.0,0.0,0.0,-32.77319,-35.98175,-13.23533,7.95,1.65,2.07,3.0
1758075064.27544,1758075064.17,0.0,0.0,0.0,-35.3515,-14.9542,-14.49583,9.98,1.98,2.41,3.0
1758075064.31864,1758075064.18,0.0,0.0,0.0,-39.4768,-0.45837,-15.46986,9.98,1.98,2.41,3.0
1758075064.31937,1758075064.19,0.0,0.0,0.0,-42.91454,4.64096,-19.19409,11.54,2.16,2.84,3.0
1758075064.32525,1758075064.2,0.0,0.0,0.0,-44.86259,-3.72423,-22.28806,9.24,2.06,3.08,3.0
1758075064.326,1758075064.21,0.0,0.0,0.0,-45.55015,-5.50039,-23.60586,9.24,2.06,3.08,3.0
1758075064.32709,1758075064.22,0.0,0.0,0.0,-44.8053,-4.64096,-22.63183,10.57,1.53,2.69,3.0
1758075064.34292,1758075064.23,0.0,0.0,0.0,-40.62271,-14.15206,-17.81899,10.57,1.53,2.69,3.0
1758075064.34586,1758075064.24,0.0,0.0,0.0,-39.24761,-15.41257,-17.47521,10.72,0.8,3.74,3.0
1758075064.36197,1758075064.25,0.0,0.0,0.0,-37.52874,-0.57296,-16.38659,10.72,0.8,3.74,3.0
1758075064.36324,1758075064.26,0.0,0.0,0.0,-33.51803,17.87628,-13.86558,13.63,0.15,3.42,3.0
1758075064.38108,1758075064.27,0.0,0.0,0.0,-25.55392,33.46074,-8.88085,13.81,-0.71,3.52,3.0
1758075064.3824,1758075064.28,0.0,0.0,0.0,-19.88164,36.15364,-5.55769,13.81,-0.71,3.52,3.0
1758075064.3968,1758075064.29,0.0,0.0,0.0,-13.23533,37.87251,-2.6929,14.8,-1.53,4.35,3.0
1758075064.40019,1758075064.3,0.0,0.0,0.0,-1.14592,43.25832,0.74485,14.8,-1.53,4.35,3.0
1758075064.41926,1758075064.31,0.0,0.0,0.0,6.58902,48.75871,1.83346,17.28,-2.0,5.09,3.0
1758075064.42251,1758075064.32,0.0,0.0,0.0,13.46451,49.27437,1.77617,17.28,-2.0,5.09,3.0
1758075064.4418,1758075064.33,0.0,0.0,0.0,19.13679,49.61814,1.03132,17.52,-1.0,5.02,3.0
1758075064.44729,1758075064.34,0.0,0.0,0.0,22.63183,48.75871,0.22918,17.52,-1.0,5.02,3.0
1758075064.46196,1758075064.35,0.0,0.0,0.0,22.11617,45.26366,-0.40107,15.95,1.07,5.08,3.0
1758075064.46568,1758075064.36,0.0,0.0,0.0,19.53786,40.10705,-0.51566,13.21,2.63,4.54,3.0
1758075064.48111,1758075064.37,0.0,0.0,0.0,15.87093,35.06502,-0.68755,13.21,2.63,4.54,3.0
1758075064.48283,1758075064.38,0.0,0.0,0.0,7.96411,26.75713,-0.17189,10.94,3.19,4.22,3.0
1758075064.52176,1758075064.39,0.0,0.0,0.0,1.71887,19.76705,0.34377,10.94,3.19,4.22,3.0
1758075064.52462,1758075064.4,0.0,0.0,0.0,-4.98473,12.37589,1.03132,8.62,3.02,3.95,3.0
1758075064.52518,1758075064.41,0.0,0.0,0.0,-12.08941,3.49504,2.00535,8.62,3.02,3.95,3.0
1758075064.52644,1758075064.42,0.0,0.0,0.0,-23.26209,-12.83425,3.83882,6.61,2.72,4.04,3.0
1758075064.54201,1758075064.43,0.0,0.0,0.0,-30.48136,-25.55392,5.27121,5.27,2.44,4.23,3.0
1758075064.54482,1758075064.44,0.0,0.0,0.0,-36.89849,-38.44547,6.8182,5.27,2.44,4.23,3.0
1758075064.56176,1758075064.45,0.0,0.0,0.0,-42.57077,-50.1911,8.70896,5.04,2.21,4.09,3.0
1758075064.56275,1758075064.46,0.0,0.0,0.0,-49.15978,-65.48907,11.11538,5.04,2.21,4.09,3.0
1758075064.58116,1758075064.47,0.0,0.0,0.0,-52.54023,-72.70835,12.37589,5.53,2.03,3.79,3.0
1758075064.58289,1758075064.48,0.0,0.0,0.0,-55.11855,-77.52119,12.83425,5.53,2.03,3.79,3.0
1758075064.60014,1758075064.49,0.0,0.0,0.0,-57.29578,-79.52654,11.51645,6.46,1.81,3.4,3.0
1758075064.60197,1758075064.5,0.0,0.0,0.0,-59.35843,-77.80767,9.11003,7.25,1.44,2.76,3.0
1758075064.61696,1758075064.51,0.0,0.0,0.0,-60.61894,-74.7137,6.35983,7.25,1.44,2.76,3.0
1758075064.61924,1758075064.52,0.0,0.0,0.0,-61.93674,-69.67168,3.32316,7.83,0.99,2.38,3.0
1758075064.63703,1758075064.53,0.0,0.0,0.0,-63.31184,-60.10328,-0.34377,7.83,0.99,2.38,3.0
1758075064.63902,1758075064.54,0.0,0.0,0.0,-63.54102,-51.27972,-1.83346,8.32,0.48,1.95,3.0
1758075064.65456,1758075064.55,0.0,0.0,0.0,-63.54102,-41.42485,-2.06265,8.32,0.48,1.95,3.0
1758075064.67028,1758075064.56,0.0,0.0,0.0,-62.96807,-31.62727,-1.08862,8.61,-0.12,1.57,3.0
1758075064.67203,1758075064.57,0.0,0.0,0.0,-60.67623,-17.01685,2.6929,8.61,-0.12,1.45,3.0
1758075064.68726,1758075064.58,0.0,0.0,0.0,-58.72818,-7.04738,6.41713,8.76,-0.68,1.45,3.0
1758075064.68817,1758075064.59,0.0,0.0,0.0,-56.20716,2.97938,10.59972,9.01,-0.92,1.42,3.0
1758075064.70532,1758075064.6,0.0,0.0,0.0,-53.97263,12.77696,14.72501,9.01,-0.92,1.42,3.0
1758075064.72202,1758075064.61,0.0,0.0,0.0,-50.64947,24.17882,20.22541,9.05,-0.75,1.57,3.0
1758075064.72322,1758075064.62,0.0,0.0,0.0,-48.9879,29.50733,23.0329,9.05,-0.75,1.57,3.0
1758075064.7411,1758075064.63,0.0,0.0,0.0,-46.98254,34.66395,25.61122,8.89,-0.4,1.79,3.0
1758075064.74223,1758075064.64,0.0,0.0,0.0,-45.77933,41.25296,27.04361,8.89,-0.4,1.79,3.0
1758075064.75726,1758075064.65,0.0,0.0,0.0,-44.748,44.9199,28.41871,9.0,-0.19,1.83,3.0
1758075064.75847,1758075064.66,0.0,0.0,0.0,-44.57612,43.20102,28.41871,8.19,-0.16,2.06,3.0
1758075064.77429,1758075064.67,0.0,0.0,0.0,-44.63341,40.50812,27.96034,8.19,-0.16,2.06,3.0
1758075064.79083,1758075064.68,0.0,0.0,0.0,-44.9199,40.16434,27.1582,8.24,-0.23,2.05,3.0
1758075064.79211,1758075064.69,0.0,0.0,0.0,-46.00851,39.76327,25.26744,8.24,-0.23,2.05,3.0
1758075064.8073,1758075064.7,0.0,0.0,0.0,-46.52417,38.44547,23.83505,8.37,-0.28,2.04,3.0
1758075064.80851,1758075064.71,0.0,0.0,0.0,-47.03984,36.6693,22.11617,8.37,-0.28,2.04,3.0
1758075064.82432,1758075064.72,0.0,0.0,0.0,-47.38361,36.15364,19.53786,8.19,-0.32,2.14,3.0
1758075064.84111,1758075064.73,0.0,0.0,0.0,-47.26902,35.58068,17.87628,8.26,-0.46,2.01,3.0
1758075064.84236,1758075064.74,0.0,0.0,0.0,-46.52417,35.2942,16.04282,8.26,-0.46,2.01,3.0
1758075064.85726,1758075064.75,0.0,0.0,0.0,-45.49285,34.77854,13.98017,8.26,-0.81,2.11,3.0
1758075064.85863,1758075064.76,0.0,0.0,0.0,-42.57077,33.11696,11.22997,8.26,-0.81,2.11,3.0
1758075064.87535,1758075064.77,0.0,0.0,0.0,-39.64868,31.91375,9.74028,8.32,-1.27,2.22,3.0
1758075064.89243,1758075064.78,0.0,0.0,0.0,-37.58603,25.15285,7.10468,8.32,-1.27,2.22,3.0
1758075064.89335,1758075064.79,0.0,0.0,0.0,-35.06502,-2.23454,8.59437,7.44,-1.66,2.69,3.0
1758075064.90997,1758075064.8,0.0,0.0,0.0,-27.73116,-20.85567,8.59437,7.49,-1.85,2.26,3.0
1758075064.91207,1758075064.81,0.0,0.0,0.0,-23.49127,-24.5226,8.93814,7.49,-1.85,2.26,3.0
1758075064.92714,1758075064.82,0.0,0.0,0.0,-20.74107,-25.38203,8.0787,8.61,-1.79,1.23,3.0
1758075064.92835,1758075064.83,0.0,0.0,0.0,-18.9649,-25.7831,5.78687,8.61,-1.79,1.23,3.0
1758075064.94533,1758075064.84,0.0,0.0,0.0,-16.95955,-23.49127,0.40107,8.79,-1.36,2.06,3.0
1758075064.96143,1758075064.85,0.0,0.0,0.0,-15.06879,-15.06879,-3.20856,8.79,-1.36,2.06,3.0
1758075064.96274,1758075064.86,0.0,0.0,0.0,-13.17803,-2.57831,-6.41713,9.57,-1.21,1.94,3.0
1758075064.97728,1758075064.87,0.0,0.0,0.0,-10.65701,10.37054,-7.44845,9.57,-1.21,1.94,3.0
1758075064.98241,1758075064.88,0.0,0.0,0.0,-6.70361,17.24603,-6.8182,10.13,-1.38,2.39,3.0
1758075065.00018,1758075064.89,0.0,0.0,0.0,-4.1253,16.55848,-5.32851,9.63,-1.63,2.43,3.0
1758075065.00138,1758075064.9,0.0,0.0,0.0,-0.74485,15.29797,-3.03668,9.63,-1.63,2.43,3.0
1758075065.01637,1758075064.91,0.0,0.0,0.0,2.97938,13.12073,1.20321,10.19,-1.95,2.49,3.0
1758075065.03218,1758075064.92,0.0,0.0,0.0,8.65166,9.96947,4.64096,10.19,-1.95,2.49,3.0
1758075065.03668,1758075064.93,0.0,0.0,0.0,12.83425,8.88085,7.96411,10.68,-2.25,2.31,3.0
1758075065.05236,1758075064.94,0.0,0.0,0.0,17.13144,6.99009,11.17268,10.68,-2.25,2.31,3.0
1758075065.05532,1758075064.95,0.0,0.0,0.0,22.68913,-4.98473,14.72501,10.75,-2.49,2.43,3.0
1758075065.07125,1758075064.96,0.0,0.0,0.0,24.86637,-12.54778,14.72501,10.32,-2.37,2.29,3.0
1758075065.07262,1758075064.97,0.0,0.0,0.0,28.70519,-3.20856,14.38124,10.32,-2.37,2.29,3.0
1758075065.08732,1758075064.98,0.0,0.0,0.0,31.74186,14.43854,12.89155,13.3,-2.52,3.38,3.0
1758075065.09002,1758075064.99,0.0,0.0,0.0,33.34615,28.59059,4.87014,13.3,-2.52,3.38,3.0
1758075065.10655,1758075065.0,0.0,0.0,0.0,32.54401,11.86023,8.65166,13.08,-2.6,6.22,3.0
1758075065.12225,1758075065.01,0.0,0.0,0.0,33.05967,-8.0787,12.08941,13.08,-2.6,6.22,3.0
1758075065.12338,1758075065.02,0.0,0.0,0.0,28.64789,-25.7831,15.69904,13.47,-2.27,7.16,3.0
1758075065.13949,1758075065.03,0.0,0.0,0.0,21.48592,-25.09555,19.59516,15.91,-1.24,5.16,3.0
1758075065.14047,1758075065.04,0.0,0.0,0.0,15.87093,-10.08406,14.78231,15.91,-1.24,5.16,3.0
1758075065.15628,1758075065.05,0.0,0.0,0.0,11.80293,-2.86479,9.85487,15.04,-0.65,5.11,3.0
1758075065.17249,1758075065.06,0.0,0.0,0.0,9.4538,2.06265,2.86479,15.04,-0.65,5.11,3.0
1758075065.17458,1758075065.07,0.0,0.0,0.0,9.05273,6.87549,-9.28192,13.08,-1.42,4.9,3.0
1758075065.18957,1758075065.08,0.0,0.0,0.0,10.8289,11.11538,-17.53251,13.08,-1.42,4.9,3.0
1758075065.19159,1758075065.09,0.0,0.0,0.0,13.5218,14.72501,-24.92367,11.65,-2.26,4.28,3.0
1758075065.20629,1758075065.1,0.0,0.0,0.0,17.30333,14.20935,-30.30947,11.65,-2.26,4.28,3.0
1758075065.2223,1758075065.11,0.0,0.0,0.0,22.34536,5.50039,-34.09099,9.08,-2.3,4.3,3.0
1758075065.22353,1758075065.12,0.0,0.0,0.0,25.26744,-1.60428,-33.68992,7.01,-2.06,4.62,3.0
1758075065.23834,1758075065.13,0.0,0.0,0.0,27.78845,-6.53172,-31.74186,7.01,-2.06,4.62,3.0
1758075065.24108,1758075065.14,0.0,0.0,0.0,30.99702,-14.61043,-27.33009,6.51,-1.84,4.25,3.0
1758075065.25739,1758075065.15,0.0,0.0,0.0,32.48671,-19.99623,-23.60586,6.51,-1.84,4.25,3.0
1758075065.25995,1758075065.16,0.0,0.0,0.0,33.86181,-24.4653,-19.70975,6.24,-1.51,3.88,3.0
1758075065.27665,1758075065.17,0.0,0.0,0.0,34.95043,-28.07493,-15.92823,6.24,-1.51,3.88,3.0
1758075065.29265,1758075065.18,0.0,0.0,0.0,35.98175,-32.77319,-11.97482,6.39,-1.08,3.77,3.0
1758075065.29361,1758075065.19,0.0,0.0,0.0,36.49741,-35.12231,-10.65701,6.57,-0.6,3.68,3.0
1758075065.30872,1758075065.2,0.0,0.0,0.0,36.61201,-36.26823,-10.54242,6.57,-0.6,3.68,3.0
1758075065.3096,1758075065.21,0.0,0.0,0.0,36.95578,-35.98175,-10.94349,7.12,-0.13,3.62,3.0
1758075065.32463,1758075065.22,0.0,0.0,0.0,37.12767,-32.88778,-13.34992,7.12,-0.13,3.62,3.0
1758075065.34065,1758075065.23,0.0,0.0,0.0,37.24226,-27.96034,-15.29797,7.83,0.21,3.5,3.0
1758075065.3416,1758075065.24,0.0,0.0,0.0,37.35685,-22.34536,-17.13144,7.83,0.21,3.5,3.0
1758075065.35661,1758075065.25,0.0,0.0,0.0,37.47144,-17.30333,-18.56383,8.32,0.33,3.4,3.0
1758075065.3727,1758075065.26,0.0,0.0,0.0,37.18496,-9.68299,-19.48057,8.28,0.36,3.17,3.0
1758075065.37598,1758075065.27,0.0,0.0,0.0,36.61201,-4.46907,-19.13679,8.28,0.36,3.17,3.0
1758075065.39172,1758075065.28,0.0,0.0,0.0,35.92446,0.57296,-18.50654,8.28,0.36,2.85,3.0
1758075065.39303,1758075065.29,0.0,0.0,0.0,35.00772,5.72958,-17.24603,8.28,0.36,2.85,3.0
1758075065.40775,1758075065.3,0.0,0.0,0.0,33.17426,14.61043,-15.24068,8.34,0.33,2.67,3.0
1758075065.41053,1758075065.31,0.0,0.0,0.0,31.97105,20.97026,-13.80828,8.34,0.33,2.67,3.0
1758075065.42645,1758075065.32,0.0,0.0,0.0,30.65324,26.75713,-12.60507,8.45,0.31,2.74,3.0
1758075065.44247,1758075065.33,0.0,0.0,0.0,29.67921,31.91375,-11.51645,8.45,0.31,2.74,3.0
1758075065.44529,1758075065.34,0.0,0.0,0.0,28.07493,38.56006,-11.45916,8.3,0.36,2.88,3.0
1758075065.46074,1758075065.35,0.0,0.0,0.0,27.33009,40.85189,-11.57375,8.19,0.42,3.03,3.0
1758075065.46166,1758075065.36,0.0,0.0,0.0,26.98631,41.13837,-11.97482,8.19,0.42,3.03,3.0
1758075065.47674,1758075065.37,0.0,0.0,0.0,26.87172,40.68,-12.77696,8.06,0.43,3.16,3.0
1758075065.49254,1758075065.38,0.0,0.0,0.0,27.1582,38.15899,-13.17803,8.06,0.43,3.16,3.0
1758075065.4964,1758075065.39,0.0,0.0,0.0,27.67386,34.14828,-13.12073,7.99,0.43,3.3,3.0
1758075065.51178,1758075065.4,0.0,0.0,0.0,28.07493,29.33544,-13.06344,7.99,0.43,3.3,3.0
1758075065.51355,1758075065.41,0.0,0.0,0.0,28.76248,23.94964,-12.204,8.05,0.5,3.3,3.0
1758075065.52931,1758075065.42,0.0,0.0,0.0,28.99167,18.90761,-11.45916,8.14,0.57,3.31,3.0
1758075065.53051,1758075065.43,0.0,0.0,0.0,29.10626,13.17803,-11.00079,8.14,0.57,3.31,3.0
1758075065.54699,1758075065.44,0.0,0.0,0.0,28.76248,9.28192,-10.31324,8.07,0.78,3.29,3.0
1758075065.56275,1758075065.45,0.0,0.0,0.0,27.61657,3.72423,-10.54242,8.07,0.78,3.29,3.0
1758075065.56614,1758075065.46,0.0,0.0,0.0,26.69983,-1.20321,-10.94349,8.07,1.01,3.22,3.0
1758075065.58183,1758075065.47,0.0,0.0,0.0,25.61122,-6.18794,-11.28727,8.07,1.01,3.22,3.0
1758075065.58375,1758075065.48,0.0,0.0,0.0,24.63719,-10.48513,-11.22997,8.11,1.17,3.13,3.0
1758075065.59857,1758075065.49,0.0,0.0,0.0,23.0902,-16.61578,-10.02676,8.36,1.16,3.13,3.0
1758075065.60214,1758075065.5,0.0,0.0,0.0,22.05888,-19.53786,-8.36518,8.36,1.16,3.13,3.0
1758075065.64153,1758075065.51,0.0,0.0,0.0,21.48592,-21.42862,-6.24524,8.69,1.08,3.09,3.0
1758075065.64593,1758075065.52,0.0,0.0,0.0,21.02755,-22.51724,-3.89611,8.69,1.08,3.09,3.0
1758075065.6465,1758075065.53,0.0,0.0,0.0,20.79837,-21.60051,-0.17189,9.01,0.99,3.04,3.0
1758075065.64775,1758075065.54,0.0,0.0,0.0,21.08485,-19.59516,1.66158,9.01,0.99,3.04,3.0
1758075065.65001,1758075065.55,0.0,0.0,0.0,21.25674,-16.61578,3.03668,9.27,0.9,3.04,3.0
1758075065.66664,1758075065.56,0.0,0.0,0.0,21.31403,-11.17268,3.38045,9.27,0.9,3.04,3.0
1758075065.68261,1758075065.57,0.0,0.0,0.0,21.25674,-7.44845,2.63561,9.4,0.88,2.94,3.0
1758075065.68569,1758075065.58,0.0,0.0,0.0,21.02755,-4.29718,1.60428,9.39,0.96,2.86,3.0
1758075065.70093,1758075065.59,0.0,0.0,0.0,20.3973,-1.83346,0.0573,9.39,0.96,2.86,3.0
1758075065.7027,1758075065.6,0.0,0.0,0.0,18.62113,1.14592,-2.11994,9.3,1.12,2.7,3.0
1758075065.72067,1758075065.61,0.0,0.0,0.0,17.53251,3.72423,-3.38045,9.3,1.12,2.7,3.0
1758075065.7268,1758075065.62,0.0,0.0,0.0,16.21471,4.52637,-4.1253,9.26,1.22,2.59,3.0
1758075065.74191,1758075065.63,0.0,0.0,0.0,14.72501,5.95876,-4.46907,9.26,1.22,2.59,3.0
1758075065.74286,1758075065.64,0.0,0.0,0.0,12.43318,9.33921,-4.46907,9.19,1.25,2.57,3.0
1758075065.75868,1758075065.65,0.0,0.0,0.0,9.96947,13.69369,-6.07335,9.34,1.3,2.84,3.0
1758075065.76286,1758075065.66,0.0,0.0,0.0,8.25059,12.37589,-6.8182,9.34,1.3,2.84,3.0
1758075065.77791,1758075065.67,0.0,0.0,0.0,5.55769,12.37589,-8.70896,8.73,1.41,2.47,3.0
1758075065.77929,1758075065.68,0.0,0.0,0.0,1.77617,8.0787,-10.65701,8.73,1.41,2.47,3.0
1758075065.79506,1758075065.69,0.0,0.0,0.0,-0.74485,5.15662,-11.86023,8.42,1.51,2.78,3.0
1758075065.81101,1758075065.7,0.0,0.0,0.0,-3.09397,0.74485,-12.77696,8.42,1.51,2.78,3.0
1758075065.81217,1758075065.71,0.0,0.0,0.0,-5.72958,-3.72423,-13.5791,8.3,1.54,2.91,3.0
1758075065.82701,1758075065.72,0.0,0.0,0.0,-9.5684,-10.02676,-14.32395,8.7,1.77,3.03,3.0
1758075065.82898,1758075065.73,0.0,0.0,0.0,-12.08941,-12.54778,-14.78231,8.7,1.77,3.03,3.0
1758075065.84484,1758075065.74,0.0,0.0,0.0,-14.83961,-15.06879,-14.9542,9.03,2.09,2.93,3.0
1758075065.86113,1758075065.75,0.0,0.0,0.0,-19.36597,-17.36062,-14.43854,9.03,2.09,2.93,3.0
1758075065.86235,1758075065.76,0.0,0.0,0.0,-22.63183,-14.03747,-13.40721,9.0,2.3,2.81,3.0
1758075065.87713,1758075065.77,0.0,0.0,0.0,-24.92367,-15.87093,-11.91752,9.0,2.3,2.81,3.0
1758075065.88232,1758075065.78,0.0,0.0,0.0,-25.72581,-27.10091,-10.02676,8.26,2.34,2.53,3.0
1758075065.89887,1758075065.79,0.0,0.0,0.0,-29.22085,-54.3737,-9.5684,8.26,2.34,2.53,3.0
1758075065.90058,1758075065.8,0.0,0.0,0.0,-31.28349,-49.21708,-7.67763,7.32,2.3,2.52,3.0
1758075065.91666,1758075065.81,0.0,0.0,0.0,-35.75257,-18.22006,-11.80293,12.01,2.71,1.72,3.0
1758075065.95774,1758075065.82,0.0,0.0,0.0,-40.7373,4.29718,-14.32395,12.01,2.71,1.72,3.0
1758075065.95893,1758075065.83,0.0,0.0,0.0,-44.9199,15.24068,-19.82434,11.32,2.7,2.68,3.0
1758075065.9599,1758075065.84,0.0,0.0,0.0,-46.40959,12.08941,-24.23611,11.32,2.7,2.68,3.0
1758075065.96082,1758075065.85,0.0,0.0,0.0,-46.52417,10.94349,-25.89769,9.16,2.61,2.61,3.0
1758075065.96145,1758075065.86,0.0,0.0,0.0,-45.37826,9.11003,-25.15285,9.16,2.61,2.61,3.0
1758075065.97715,1758075065.87,0.0,0.0,0.0,-42.62806,-0.11459,-22.68913,9.78,2.17,2.2,3.0
1758075065.98209,1758075065.88,0.0,0.0,0.0,-40.85189,0.0573,-21.25674,10.67,1.47,2.81,3.0
1758075066.00017,1758075065.89,0.0,0.0,0.0,-38.27358,4.98473,-18.85031,10.67,1.47,2.81,3.0
1758075066.00187,1758075065.9,0.0,0.0,0.0,-34.95043,9.85487,-15.75634,11.94,0.89,2.32,3.0
1758075066.01782,1758075065.91,0.0,0.0,0.0,-29.73651,15.0115,-10.59972,11.94,0.89,2.32,3.0
1758075066.01885,1758075065.92,0.0,0.0,0.0,-26.64254,19.53786,-7.04738,12.6,0.37,2.46,3.0
1758075066.03609,1758075065.93,0.0,0.0,0.0,-23.83505,24.57989,-3.26586,12.6,0.37,2.46,3.0
1758075066.05216,1758075065.94,0.0,0.0,0.0,-21.08485,29.56462,-0.34377,14.04,0.25,2.89,3.0
1758075066.05386,1758075065.95,0.0,0.0,0.0,-17.6471,38.73195,1.83346,15.22,0.61,3.49,3.0
1758075066.07606,1758075065.96,0.0,0.0,0.0,-16.10011,44.23235,2.46372,15.22,0.61,3.49,3.0
1758075066.07732,1758075065.97,0.0,0.0,0.0,-15.41257,47.95657,2.00535,15.03,1.56,3.8,3.0
1758075066.09319,1758075065.98,0.0,0.0,0.0,-15.87093,52.36834,0.40107,15.03,1.56,3.8,3.0
1758075066.09773,1758075065.99,0.0,0.0,0.0,-16.73037,55.00395,-0.80214,14.07,2.64,4.19,3.0
1758075066.10116,1758075066.0,0.0,0.0,0.0,-17.99088,55.6915,-2.46372,14.07,2.64,4.19,3.0
1758075066.11702,1758075066.01,0.0,0.0,0.0,-19.88164,55.29043,-4.23989,12.97,3.23,4.5,3.0
1758075066.13608,1758075066.02,0.0,0.0,0.0,-22.91831,53.51426,-6.87549,12.97,3.23,4.88,3.0
1758075066.13732,1758075066.03,0.0,0.0,0.0,-24.75178,50.64947,-8.42248,11.98,3.04,4.88,3.0
1758075066.14192,1758075066.04,0.0,0.0,0.0,-26.52795,46.81066,-9.28192,10.75,2.23,5.11,3.0
1758075066.16354,1758075066.05,0.0,0.0,0.0,-28.59059,42.1124,-9.68299,10.75,2.23,5.11,3.0
1758075066.16524,1758075066.06,0.0,0.0,0.0,-31.28349,34.26288,-9.33921,9.43,1.48,5.08,3.0
1758075066.18124,1758075066.07,0.0,0.0,0.0,-33.40344,28.30412,-8.42248,9.43,1.48,5.08,3.0
1758075066.18214,1758075066.08,0.0,0.0,0.0,-35.40879,21.7151,-7.33386,8.04,0.98,4.98,3.0
1758075066.19724,1758075066.09,0.0,0.0,0.0,-37.24226,14.83961,-5.84417,8.04,0.98,4.98,3.0
1758075066.21728,1758075066.1,0.0,0.0,0.0,-39.99245,2.7502,-3.38045,6.66,0.75,5.19,3.0
1758075066.22215,1758075066.11,0.0,0.0,0.0,-40.96649,-5.32851,-1.48969,5.64,0.67,5.2,3.0
1758075066.22277,1758075066.12,0.0,0.0,0.0,-41.76862,-13.17803,0.40107,5.64,0.67,5.2,3.0
1758075066.24235,1758075066.13,0.0,0.0,0.0,-41.71133,-20.74107,2.46372,5.42,0.49,5.13,3.0
1758075066.24321,1758075066.14,0.0,0.0,0.0,-40.62271,-32.83048,5.4431,5.42,0.49,5.13,3.0
1758075066.26129,1758075066.15,0.0,0.0,0.0,-39.19032,-41.02378,6.99009,5.6,0.21,4.79,3.0
1758075066.2622,1758075066.16,0.0,0.0,0.0,-37.58603,-49.15978,8.25059,5.6,0.21,4.79,3.0
1758075066.27731,1758075066.17,0.0,0.0,0.0,-34.14828,-56.89471,8.88085,5.95,-0.1,4.42,3.0
1758075066.29329,1758075066.18,0.0,0.0,0.0,-31.91375,-65.83286,8.65166,6.59,-0.39,4.11,3.0
1758075066.29497,1758075066.19,0.0,0.0,0.0,-30.02299,-67.9528,7.44845,6.59,-0.39,4.11,3.0
1758075066.31089,1758075066.2,0.0,0.0,0.0,-28.64789,-67.26525,5.27121,7.77,-0.44,4.02,3.0
1758075066.31283,1758075066.21,0.0,0.0,0.0,-27.67386,-65.2026,1.60428,7.77,-0.44,4.02,3.0
1758075066.32912,1758075066.22,0.0,0.0,0.0,-28.13223,-64.74423,-1.20321,8.19,-0.08,4.02,3.0
1758075066.33032,1758075066.23,0.0,0.0,0.0,-29.04896,-63.13995,-3.55234,8.19,-0.08,4.02,3.0
1758075066.34534,1758075066.24,0.0,0.0,0.0,-30.48136,-59.70221,-4.98473,8.25,0.42,3.75,3.0
1758075066.36137,1758075066.25,0.0,0.0,0.0,-33.00237,-52.13916,-5.72958,8.34,0.42,3.45,3.0
1758075066.36234,1758075066.26,0.0,0.0,0.0,-34.77854,-46.81066,-5.27121,8.34,0.73,3.45,3.0
1758075066.37711,1758075066.27,0.0,0.0,0.0,-36.32552,-41.13837,-4.18259,8.19,0.71,3.31,3.0
1758075066.39339,1758075066.28,0.0,0.0,0.0,-37.35685,-35.2369,-2.7502,8.19,0.71,3.31,3.0
1758075066.39432,1758075066.29,0.0,0.0,0.0,-37.87251,-26.47065,-0.40107,8.34,0.3,3.3,3.0
1758075066.4094,1758075066.3,0.0,0.0,0.0,-37.58603,-21.25674,0.85944,8.34,0.3,3.3,3.0
1758075066.4106,1758075066.31,0.0,0.0,0.0,-36.95578,-15.46986,1.83346,8.51,-0.18,3.1,3.0
1758075066.42614,1758075066.32,0.0,0.0,0.0,-36.21093,-9.4538,2.34913,8.51,-0.18,3.1,3.0
1758075066.44216,1758075066.33,0.0,0.0,0.0,-34.89313,-1.08862,1.94806,8.74,-0.44,3.03,3.0
1758075066.44376,1758075066.34,0.0,0.0,0.0,-33.51803,3.20856,1.3751,8.69,-0.45,3.01,3.0
1758075066.45894,1758075066.35,0.0,0.0,0.0,-32.20023,7.16197,0.74485,8.69,-0.45,3.01,3.0
1758075066.46254,1758075066.36,0.0,0.0,0.0,-30.99702,11.17268,-0.45837,8.64,-0.3,2.98,3.0
1758075066.4782,1758075066.37,0.0,0.0,0.0,-29.33544,16.3293,-1.08862,8.64,-0.3,2.98,3.0
1758075066.48013,1758075066.38,0.0,0.0,0.0,-28.59059,18.9649,-1.66158,8.57,-0.12,2.98,3.0
1758075066.49644,1758075066.39,0.0,0.0,0.0,-28.07493,21.60051,-2.00535,8.57,-0.12,2.98,3.0
1758075066.51247,1758075066.4,0.0,0.0,0.0,-27.73116,24.5226,-2.34913,8.63,-0.03,3.18,3.0
1758075066.51523,1758075066.41,0.0,0.0,0.0,-27.78845,24.63719,-2.00535,8.77,-0.11,3.34,3.0
1758075066.53015,1758075066.42,0.0,0.0,0.0,-27.73116,23.37668,-1.3751,8.77,-0.11,3.34,3.0
1758075066.53139,1758075066.43,0.0,0.0,0.0,-28.07493,21.94428,-0.85944,8.73,-0.26,3.43,3.0
1758075066.54625,1758075066.44,0.0,0.0,0.0,-28.59059,20.68378,-0.51566,8.73,-0.26,3.43,3.0
1758075066.56221,1758075066.45,0.0,0.0,0.0,-28.64789,19.53786,0.0573,8.81,-0.35,3.51,3.0
1758075066.56387,1758075066.46,0.0,0.0,0.0,-28.36141,18.50654,0.40107,8.81,-0.35,3.51,3.0
1758075066.57953,1758075066.47,0.0,0.0,0.0,-27.78845,17.24603,0.85944,8.6,-0.41,3.56,3.0
1758075066.58202,1758075066.48,0.0,0.0,0.0,-26.41335,14.03747,1.3751,8.4,-0.45,3.36,3.0
1758075066.59735,1758075066.49,0.0,0.0,0.0,-25.72581,10.08406,1.14592,8.4,-0.45,3.36,3.0
1758075066.60198,1758075066.5,0.0,0.0,0.0,-24.4653,6.35983,0.45837,8.17,-0.4,3.18,3.0
1758075066.61757,1758075066.51,0.0,0.0,0.0,-23.49127,2.06265,-0.74485,8.17,-0.4,3.18,3.0
1758075066.62244,1758075066.52,0.0,0.0,0.0,-22.11617,-2.63561,-3.38045,8.14,-0.28,3.05,3.0
1758075066.64055,1758075066.53,0.0,0.0,0.0,-22.86102,-0.40107,-7.73493,8.14,-0.28,3.05,3.0
1758075066.64154,1758075066.54,0.0,0.0,0.0,-22.91831,-8.0787,-11.28727,8.26,-0.18,3.08,3.0
1758075066.65645,1758075066.55,0.0,0.0,0.0,-22.68913,-17.81899,-13.23533,8.26,-0.18,3.08,3.0
1758075066.67231,1758075066.56,0.0,0.0,0.0,-22.00158,-22.57454,-14.15206,7.75,-0.13,2.97,3.0
1758075066.67756,1758075066.57,0.0,0.0,0.0,-21.7724,-21.31403,-14.66772,8.68,-0.45,2.63,3.0
1758075066.73269,1758075066.58,0.0,0.0,0.0,-21.88699,-18.79302,-15.0115,8.68,-0.45,2.63,3.0
1758075066.73796,1758075066.59,0.0,0.0,0.0,-21.94428,-15.87093,-15.24068,8.68,-0.5,2.49,3.0
1758075066.7435,1758075066.6,0.0,0.0,0.0,-21.88699,-11.28727,-15.24068,8.68,-0.5,2.49,3.0
1758075066.74685,1758075066.61,0.0,0.0,0.0,-21.6578,-8.30789,-15.24068,8.68,-0.5,2.48,3.0
1758075066.74807,1758075066.62,0.0,0.0,0.0,-21.14215,-4.52637,-15.41257,8.68,-0.5,2.48,3.0
1758075066.74955,1758075066.63,0.0,0.0,0.0,-20.34,1.3751,-15.58445,8.87,-0.55,2.39,3.0
1758075066.75091,1758075066.64,0.0,0.0,0.0,-19.82434,4.35448,-15.87093,9.02,-0.59,2.46,3.0
1758075066.75293,1758075066.65,0.0,0.0,0.0,-19.19409,7.67763,-16.272,9.02,-0.59,2.46,3.0
1758075066.77139,1758075066.66,0.0,0.0,0.0,-17.99088,11.00079,-15.87093,9.12,-0.57,2.74,3.0
1758075066.77419,1758075066.67,0.0,0.0,0.0,-16.73037,3.95341,-15.75634,9.12,-0.57,2.74,3.0
1758075066.78975,1758075066.68,0.0,0.0,0.0,-15.58445,-4.23989,-15.29797,8.27,-0.56,2.76,3.0
1758075066.79134,1758075066.69,0.0,0.0,0.0,-13.86558,-13.06344,-14.66772,8.27,-0.56,2.76,3.0
1758075066.8064,1758075066.7,0.0,0.0,0.0,-12.08941,-21.42862,-14.32395,8.31,-0.65,2.42,3.0
1758075066.82238,1758075066.71,0.0,0.0,0.0,-8.65166,-32.83048,-13.5218,8.69,-0.67,2.14,3.0
1758075066.82468,1758075066.72,0.0,0.0,0.0,-6.18794,-39.07573,-13.12073,8.69,-0.67,2.14,3.0
1758075066.84051,1758075066.73,0.0,0.0,0.0,-3.32316,-44.40423,-12.60507,9.13,-0.68,1.99,3.0
1758075066.8414,1758075066.74,0.0,0.0,0.0,-0.68755,-48.12846,-11.63104,9.13,-0.68,1.99,3.0
1758075066.85747,1758075066.75,0.0,0.0,0.0,2.86479,-51.27972,-9.68299,9.4,-0.64,1.82,3.0
1758075066.8627,1758075066.76,0.0,0.0,0.0,5.61499,-56.952,-6.7609,9.4,-0.64,1.82,3.0
1758075066.89997,1758075066.77,0.0,0.0,0.0,5.72958,-53.34238,-7.39116,9.27,-0.59,1.33,3.0
1758075066.90399,1758075066.78,0.0,0.0,0.0,7.39116,-47.32632,-7.04738,9.27,-0.59,1.33,3.0
1758075066.90436,1758075066.79,0.0,0.0,0.0,11.74564,-21.7724,-8.59437,9.96,-0.68,1.2,3.0
1758075066.90577,1758075066.8,0.0,0.0,0.0,13.80828,-2.06265,-10.37054,11.35,-0.63,1.46,3.0
1758075066.92046,1758075066.81,0.0,0.0,0.0,16.61578,-0.0573,-14.83961,11.35,-0.63,1.46,3.0
1758075066.92196,1758075066.82,0.0,0.0,0.0,21.7724,-44.28964,-16.84496,7.49,-0.51,0.96,3.0
1758075066.9367,1758075066.83,0.0,0.0,0.0,25.38203,-67.78091,-12.89155,7.49,-0.51,0.96,3.0
1758075066.95271,1758075066.84,0.0,0.0,0.0,28.99167,-61.99404,-8.88085,9.01,-0.64,0.02,3.0
1758075066.95473,1758075066.85,0.0,0.0,0.0,30.13758,-48.01387,-8.30789,9.01,-0.64,0.02,3.0
1758075066.9696,1758075066.86,0.0,0.0,0.0,26.98631,-31.79916,-8.59437,12.09,-0.22,1.64,3.0
1758075066.97235,1758075066.87,0.0,0.0,0.0,21.31403,-29.27814,-7.73493,12.65,0.64,3.66,3.0
1758075066.98776,1758075066.88,0.0,0.0,0.0,13.23533,-33.00237,-6.07335,12.65,0.64,3.66,3.0
1758075066.98944,1758075066.89,0.0,0.0,0.0,4.92744,-39.01843,-1.83346,14.51,1.31,5.29,3.0
1758075067.00756,1758075066.9,0.0,0.0,0.0,-7.73493,-39.3622,6.53172,14.51,1.31,5.29,3.0
1758075067.02371,1758075066.91,0.0,0.0,0.0,-16.84496,-33.9764,10.25595,16.56,2.66,4.88,3.0
1758075067.02563,1758075066.92,0.0,0.0,0.0,-26.81443,-24.92367,10.65701,16.56,2.66,4.88,3.0
1758075067.04084,1758075066.93,0.0,0.0,0.0,-37.52874,-18.16276,6.47442,14.65,3.82,3.59,3.0
1758075067.04522,1758075066.94,0.0,0.0,0.0,-51.27972,-17.01685,-5.50039,9.94,2.65,3.25,3.0
1758075067.06068,1758075066.95,0.0,0.0,0.0,-58.09792,-17.53251,-13.17803,9.94,2.65,3.25,3.0
1758075067.06172,1758075066.96,0.0,0.0,0.0,-62.96807,-16.272,-20.11082,8.04,0.58,2.59,3.0
1758075067.07687,1758075066.97,0.0,0.0,0.0,-64.57235,-15.87093,-24.80907,8.04,0.58,2.59,3.0
1758075067.09364,1758075066.98,0.0,0.0,0.0,-63.88479,-18.44924,-28.13223,7.73,-0.49,2.29,3.0
1758075067.09472,1758075066.99,0.0,0.0,0.0,-62.05133,-18.85031,-27.78845,7.73,-0.49,2.29,3.0
1758075067.10985,1758075067.0,0.0,0.0,0.0,-60.16057,-18.85031,-26.06958,8.34,-0.47,2.65,3.0
1758075067.11157,1758075067.01,0.0,0.0,0.0,-58.09792,-18.50654,-22.91831,8.34,-0.47,2.65,3.0
1758075067.12922,1758075067.02,0.0,0.0,0.0,-57.41038,-16.95955,-21.25674,8.95,0.0,3.0,3.0
1758075067.13202,1758075067.03,0.0,0.0,0.0,-56.952,-14.15206,-20.51189,9.3,0.47,3.23,3.0
1758075067.14686,1758075067.04,0.0,0.0,0.0,-56.952,-11.57375,-20.68378,9.3,0.47,3.23,3.0
1758075067.15167,1758075067.05,0.0,0.0,0.0,-56.66553,-8.99544,-21.48592,9.15,0.77,3.36,3.0
1758075067.16764,1758075067.06,0.0,0.0,0.0,-56.60823,-7.96411,-21.37133,9.15,0.77,3.36,3.0
1758075067.1836,1758075067.07,0.0,0.0,0.0,-56.83742,-6.8182,-20.85567,8.7,0.81,3.09,3.0
1758075067.18555,1758075067.08,0.0,0.0,0.0,-57.12389,-5.61499,-19.53786,8.7,0.81,3.09,3.0
1758075067.20084,1758075067.09,0.0,0.0,0.0,-57.75415,-2.97938,-17.18874,8.66,0.72,2.91,3.0
1758075067.20179,1758075067.1,0.0,0.0,0.0,-58.09792,-0.85944,-15.35527,8.97,0.8,2.92,3.0
1758075067.21694,1758075067.11,0.0,0.0,0.0,-58.90006,1.3751,-14.09476,8.97,0.8,2.92,3.0
1758075067.23392,1758075067.12,0.0,0.0,0.0,-59.70221,4.0107,-12.77696,9.45,0.98,2.91,3.0
1758075067.23502,1758075067.13,0.0,0.0,0.0,-61.02001,8.65166,-13.17803,9.45,0.98,2.91,3.0
1758075067.25199,1758075067.14,0.0,0.0,0.0,-61.87944,11.45916,-14.38124,10.02,1.14,3.02,3.0
1758075067.25285,1758075067.15,0.0,0.0,0.0,-62.56699,12.89155,-16.55848,10.02,1.14,3.02,3.0
1758075067.26876,1758075067.16,0.0,0.0,0.0,-62.91077,12.60507,-19.42327,10.29,1.15,2.93,3.0
1758075067.27237,1758075067.17,0.0,0.0,0.0,-62.62429,10.8289,-24.00693,10.18,0.83,2.73,3.0
1758075067.28774,1758075067.18,0.0,0.0,0.0,-62.33781,10.19865,-26.52795,10.18,0.83,2.73,3.0
1758075067.28974,1758075067.19,0.0,0.0,0.0,-61.87944,9.85487,-28.24682,9.99,0.45,2.62,3.0
1758075067.30505,1758075067.2,0.0,0.0,0.0,-61.59297,7.79223,-29.73651,9.99,0.45,2.62,3.0
1758075067.32105,1758075067.21,0.0,0.0,0.0,-61.65026,3.09397,-30.13758,9.47,0.35,2.54,3.0
1758075067.3219,1758075067.22,0.0,0.0,0.0,-61.99404,0.45837,-30.02299,9.47,0.35,2.54,3.0
1758075067.3371,1758075067.23,0.0,0.0,0.0,-62.33781,-0.34377,-29.9084,9.3,0.56,2.37,3.0
1758075067.34196,1758075067.24,0.0,0.0,0.0,-62.39511,0.40107,-30.13758,9.3,0.56,2.37,3.0
1758075067.35773,1758075067.25,0.0,0.0,0.0,-62.28051,-0.57296,-30.48136,9.39,0.83,2.32,3.0
1758075067.35928,1758075067.26,0.0,0.0,0.0,-61.76485,-2.46372,-30.65324,9.02,0.9,2.16,3.0
1758075067.37701,1758075067.27,0.0,0.0,0.0,-61.07731,-4.18259,-30.48136,9.02,0.9,2.16,3.0
1758075067.37987,1758075067.28,0.0,0.0,0.0,-59.53032,-6.07335,-29.96569,8.97,0.78,2.04,3.0
1758075067.39685,1758075067.29,0.0,0.0,0.0,-58.26981,-6.53172,-29.22085,8.97,0.78,2.04,3.0
1758075067.39775,1758075067.3,0.0,0.0,0.0,-56.952,-6.47442,-28.24682,9.07,0.62,1.9,3.0
1758075067.41674,1758075067.31,0.0,0.0,0.0,-55.57691,-6.35983,-26.87172,9.07,0.62,1.9,3.0
1758075067.41913,1758075067.32,0.0,0.0,0.0,-53.74345,-6.53172,-24.75178,9.38,0.53,1.97,3.0
1758075067.43792,1758075067.33,0.0,0.0,0.0,-52.65482,-7.21927,-23.20479,9.81,0.6,2.01,3.0
1758075067.44139,1758075067.34,0.0,0.0,0.0,-51.6235,-7.50575,-21.48592,9.81,0.6,2.01,3.0
1758075067.45712,1758075067.35,0.0,0.0,0.0,-51.10783,-6.41713,-20.45459,10.09,0.73,1.8,3.0
1758075067.4588,1758075067.36,0.0,0.0,0.0,-50.13381,-4.52637,-19.36597,10.09,0.73,1.8,3.0
1758075067.47688,1758075067.37,0.0,0.0,0.0,-49.56085,-3.95341,-19.13679,9.94,0.84,1.58,3.0
1758075067.47783,1758075067.38,0.0,0.0,0.0,-48.75871,-4.29718,-19.07949,9.94,0.84,1.58,3.0
1758075067.4934,1758075067.39,0.0,0.0,0.0,-47.72739,-4.87014,-18.79302,9.51,0.82,1.35,3.0
1758075067.51195,1758075067.4,0.0,0.0,0.0,-45.89392,-5.72958,-18.33465,9.41,0.7,1.39,3.0
1758075067.51266,1758075067.41,0.0,0.0,0.0,-44.86259,-5.50039,-17.58981,9.41,0.7,1.39,3.0
1758075067.52812,1758075067.42,0.0,0.0,0.0,-43.77398,-6.35983,-17.47521,9.56,0.58,1.67,3.0
1758075067.52907,1758075067.43,0.0,0.0,0.0,-42.62806,-12.14671,-16.90226,9.56,0.58,1.67,3.0
1758075067.54521,1758075067.44,0.0,0.0,0.0,-41.25296,-21.02755,-15.69904,9.22,0.59,1.56,3.0
1758075067.56106,1758075067.45,0.0,0.0,0.0,-41.99781,-20.62648,-16.84496,9.22,0.59,1.56,3.0
1758075067.56211,1758075067.46,0.0,0.0,0.0,-41.94051,-18.50654,-17.18874,9.65,0.71,1.61,3.0
1758075067.57714,1758075067.47,0.0,0.0,0.0,-42.34158,-13.34992,-18.56383,9.65,0.71,1.61,3.0
1758075067.57931,1758075067.48,0.0,0.0,0.0,-42.62806,-9.85487,-19.99623,9.97,0.84,1.47,3.0
1758075067.59516,1758075067.49,0.0,0.0,0.0,-42.74266,-7.73493,-20.97026,9.66,0.93,1.48,3.0
1758075067.66575,1758075067.5,0.0,0.0,0.0,-43.4875,-6.24524,-23.0902,9.66,0.93,1.48,3.0
1758075067.66714,1758075067.51,0.0,0.0,0.0,-44.748,-4.23989,-24.86637,9.31,1.05,1.46,3.0
1758075067.66754,1758075067.52,0.0,0.0,0.0,-45.37826,-3.95341,-25.43933,9.31,1.05,1.46,3.0
1758075067.66935,1758075067.53,0.0,0.0,0.0,-46.63877,-4.29718,-25.15285,9.17,1.26,1.27,3.0
1758075067.67161,1758075067.54,0.0,0.0,0.0,-47.78468,-4.0107,-23.89234,9.17,1.26,1.27,3.0
1758075067.67281,1758075067.55,0.0,0.0,0.0,-48.9306,-7.79223,-19.13679,9.11,1.3,1.09,3.0
1758075067.67421,1758075067.56,0.0,0.0,0.0,-49.61814,-20.62648,-15.87093,8.47,1.42,0.93,3.0
1758075067.67497,1758075067.57,0.0,0.0,0.0,-52.25375,-36.95578,-12.08941,8.47,1.42,0.93,3.0
1758075067.69224,1758075067.58,0.0,0.0,0.0,-55.29043,-24.75178,-9.5684,10.1,1.74,0.95,3.0
1758075067.69342,1758075067.59,0.0,0.0,0.0,-60.96271,3.55234,-9.28192,10.1,1.74,0.95,3.0
1758075067.70905,1758075067.6,0.0,0.0,0.0,-64.80153,10.65701,-9.74028,12.2,1.97,1.44,3.0
1758075067.7108,1758075067.61,0.0,0.0,0.0,-66.92148,6.41713,-9.91217,12.2,1.97,1.44,3.0
1758075067.72599,1758075067.62,0.0,0.0,0.0,-69.61437,-1.83346,-13.17803,9.33,1.77,1.49,3.0
1758075067.72983,1758075067.63,0.0,0.0,0.0,-70.18733,-9.85487,-13.23533,8.8,1.42,0.86,3.0
1758075067.74571,1758075067.64,0.0,0.0,0.0,-70.87489,-6.07335,-12.14671,8.8,1.42,0.86,3.0
1758075067.76385,1758075067.65,0.0,0.0,0.0,-71.56243,1.48969,-9.33921,9.84,0.92,0.93,3.0
1758075067.76723,1758075067.66,0.0,0.0,0.0,-71.79161,10.59972,-3.89611,9.84,0.92,0.93,3.0
1758075067.78196,1758075067.67,0.0,0.0,0.0,-71.27596,12.54778,-0.17189,10.45,0.63,1.99,3.0
1758075067.78433,1758075067.68,0.0,0.0,0.0,-70.24463,11.51645,2.63561,10.45,0.63,1.99,3.0
1758075067.79899,1758075067.69,0.0,0.0,0.0,-68.69764,8.99544,4.81285,11.05,0.78,2.26,3.0
1758075067.80133,1758075067.7,0.0,0.0,0.0,-63.31184,-2.6929,7.73493,11.44,0.78,2.43,3.0
1758075067.81613,1758075067.71,0.0,0.0,0.0,-58.72818,-26.64254,5.84417,11.44,1.0,2.43,3.0
1758075067.8323,1758075067.72,0.0,0.0,0.0,-57.63955,-37.01308,-2.00535,12.03,1.15,3.6,3.0
1758075067.83322,1758075067.73,0.0,0.0,0.0,-54.88936,-17.13144,-7.04738,12.03,1.15,3.6,3.0
1758075067.84826,1758075067.74,0.0,0.0,0.0,-47.89928,19.19409,-9.74028,15.81,1.04,1.89,3.0
1758075067.84928,1758075067.75,0.0,0.0,0.0,-44.46153,30.25217,-10.59972,15.81,1.04,1.89,3.0
1758075067.86433,1758075067.76,0.0,0.0,0.0,-41.42485,33.86181,-10.25595,13.27,0.56,2.01,3.0
1758075067.88201,1758075067.77,0.0,0.0,0.0,-38.84654,34.60666,-8.76626,13.27,0.56,2.01,3.0
1758075067.88331,1758075067.78,0.0,0.0,0.0,-35.40879,36.49741,-5.90147,13.34,0.35,2.33,3.0
1758075067.89857,1758075067.79,0.0,0.0,0.0,-33.51803,37.64333,-4.81285,14.6,0.35,2.86,3.0
1758075067.89929,1758075067.8,0.0,0.0,0.0,-30.99702,40.27893,-3.83882,14.6,0.35,2.86,3.0
1758075067.91438,1758075067.81,0.0,0.0,0.0,-28.64789,40.04975,-3.20856,14.9,0.7,3.27,3.0
1758075067.93011,1758075067.82,0.0,0.0,0.0,-25.8404,35.00772,-3.32316,14.9,0.7,3.27,3.0
1758075067.93137,1758075067.83,0.0,0.0,0.0,-24.57989,32.25753,-3.38045,13.82,1.25,3.32,3.0
1758075067.94615,1758075067.84,0.0,0.0,0.0,-24.23611,30.30947,-3.32316,13.82,1.25,3.32,3.0
1758075067.96211,1758075067.85,0.0,0.0,0.0,-25.61122,27.1582,-2.57831,12.79,1.79,3.26,3.0
1758075067.96329,1758075067.86,0.0,0.0,0.0,-27.44468,24.00693,-1.83346,11.31,2.06,3.46,3.0
1758075067.97921,1758075067.87,0.0,0.0,0.0,-30.13758,19.13679,-1.03132,11.31,2.06,3.46,3.0
1758075067.98083,1758075067.88,0.0,0.0,0.0,-33.34615,12.43318,0.0573,9.53,2.04,3.46,3.0
1758075067.99692,1758075067.89,0.0,0.0,0.0,-39.3622,2.92208,0.80214,9.53,2.04,3.46,3.0
1758075068.00046,1758075067.9,0.0,0.0,0.0,-43.37291,-3.38045,1.3751,8.14,1.8,3.54,3.0
1758075068.01616,1758075067.91,0.0,0.0,0.0,-47.09713,-8.93814,1.77617,8.14,1.8,3.54,3.0
1758075068.03236,1758075067.92,0.0,0.0,0.0,-50.59217,-14.78231,2.23454,7.13,1.57,3.59,3.0
1758075068.03453,1758075067.93,0.0,0.0,0.0,-54.60288,-21.48592,3.38045,6.76,1.34,3.62,3.0
1758075068.04995,1758075067.94,0.0,0.0,0.0,-56.83742,-24.80907,4.46907,6.76,1.34,3.62,3.0
1758075068.05203,1758075067.95,0.0,0.0,0.0,-58.49899,-28.24682,5.50039,6.78,1.07,3.44,3.0
1758075068.0674,1758075067.96,0.0,0.0,0.0,-59.75951,-31.16891,6.41713,6.78,1.07,3.44,3.0
1758075068.07076,1758075067.97,0.0,0.0,0.0,-60.67623,-34.14828,7.16197,6.89,0.75,3.26,3.0
1758075068.08651,1758075067.98,0.0,0.0,0.0,-60.61894,-35.69527,7.21927,6.89,0.75,3.26,3.0
1758075068.10219,1758075067.99,0.0,0.0,0.0,-60.33246,-36.55471,7.33386,7.15,0.34,3.06,3.0
1758075068.10335,1758075068.0,0.0,0.0,0.0,-59.53032,-35.06502,6.99009,7.15,0.34,3.06,3.0
1758075068.11843,1758075068.01,0.0,0.0,0.0,-58.21251,-30.88243,6.07335,7.74,-0.08,2.75,3.0
1758075068.11981,1758075068.02,0.0,0.0,0.0,-57.41038,-28.87707,5.32851,8.0,-0.35,2.5,3.0
1758075068.13544,1758075068.03,0.0,0.0,0.0,-56.20716,-26.01229,4.92744,8.0,-0.35,2.5,3.0
1758075068.15132,1758075068.04,0.0,0.0,0.0,-54.94666,-21.42862,4.69825,8.19,-0.35,2.34,3.0
1758075068.15271,1758075068.05,0.0,0.0,0.0,-54.25911,-14.78231,5.15662,8.19,-0.35,2.34,3.0
1758075068.1673,1758075068.06,0.0,0.0,0.0,-53.62885,-10.8862,5.78687,8.13,-0.25,2.3,3.0
1758075068.16873,1758075068.07,0.0,0.0,0.0,-52.9986,-6.87549,6.8182,8.13,-0.25,2.3,3.0
1758075068.18455,1758075068.08,0.0,0.0,0.0,-52.25375,-1.3178,8.59437,8.05,-0.17,2.34,3.0
1758075068.20105,1758075068.09,0.0,0.0,0.0,-51.6235,1.60428,9.85487,8.14,-0.16,2.32,3.0
1758075068.20226,1758075068.1,0.0,0.0,0.0,-51.10783,5.32851,10.65701,8.14,-0.16,2.32,3.0
1758075068.2176,1758075068.11,0.0,0.0,0.0,-50.59217,9.68299,11.34457,8.51,-0.18,2.33,3.0
1758075068.21847,1758075068.12,0.0,0.0,0.0,-49.90463,16.61578,11.74564,8.51,-0.18,2.33,3.0
1758075068.23458,1758075068.13,0.0,0.0,0.0,-49.50356,21.08485,11.45916,8.79,-0.22,2.36,3.0
1758075068.25154,1758075068.14,0.0,0.0,0.0,-49.21708,24.12152,10.71431,8.79,-0.22,2.36,3.0
1758075068.25248,1758075068.15,0.0,0.0,0.0,-48.41494,26.64254,10.02676,8.8,-0.27,2.42,3.0
1758075068.26762,1758075068.16,0.0,0.0,0.0,-47.44091,30.59595,8.99544,9.01,-0.37,2.43,3.0
1758075068.26844,1758075068.17,0.0,0.0,0.0,-46.63877,33.00237,8.65166,9.01,-0.37,2.43,3.0
1758075068.28638,1758075068.18,0.0,0.0,0.0,-46.06581,34.89313,7.79223,9.09,-0.46,2.57,3.0
1758075068.30256,1758075068.19,0.0,0.0,0.0,-45.26366,35.86716,7.62034,9.09,-0.46,2.57,3.0
1758075068.3038,1758075068.2,0.0,0.0,0.0,-43.83128,33.68992,7.84952,8.93,-0.57,2.8,3.0
1758075068.31859,1758075068.21,0.0,0.0,0.0,-42.74266,30.36677,9.05273,8.93,-0.57,2.8,3.0
1758075068.31954,1758075068.22,0.0,0.0,0.0,-41.42485,28.93437,10.59972,8.76,-0.74,2.74,3.0
1758075068.33673,1758075068.23,0.0,0.0,0.0,-40.50812,28.13223,13.00614,8.76,-0.74,2.74,3.0
1758075068.35238,1758075068.24,0.0,0.0,0.0,-39.01843,27.10091,14.78231,9.07,-0.92,2.66,3.0
1758075068.35358,1758075068.25,0.0,0.0,0.0,-38.15899,26.01229,16.3293,8.98,-1.0,2.61,3.0
1758075068.36841,1758075068.26,0.0,0.0,0.0,-37.01308,24.00693,17.47521,8.98,-1.0,2.61,3.0
1758075068.36959,1758075068.27,0.0,0.0,0.0,-35.52338,21.7151,18.50654,8.85,-0.96,2.55,3.0
1758075068.38468,1758075068.28,0.0,0.0,0.0,-34.60666,19.07949,18.27736,8.85,-0.96,2.55,3.0
1758075068.40072,1758075068.29,0.0,0.0,0.0,-33.9764,16.04282,17.18874,8.71,-0.91,2.49,3.0
1758075068.4016,1758075068.3,0.0,0.0,0.0,-33.23156,13.23533,15.46986,8.71,-0.91,2.49,3.0
1758075068.41666,1758075068.31,0.0,0.0,0.0,-32.20023,9.96947,12.43318,8.77,-0.85,2.49,3.0
1758075068.43269,1758075068.32,0.0,0.0,0.0,-31.51268,8.36518,10.37054,8.94,-0.85,2.43,3.0
1758075068.43553,1758075068.33,0.0,0.0,0.0,-30.88243,7.44845,8.42248,8.94,-0.85,2.43,3.0
1758075068.45044,1758075068.34,0.0,0.0,0.0,-30.02299,6.70361,6.7609,9.1,-0.91,2.44,3.0
1758075068.45198,1758075068.35,0.0,0.0,0.0,-11.57375,-42.91454,4.64096,9.1,-0.91,2.44,3.0
1758075068.46642,1758075068.36,0.0,0.0,0.0,-27.1582,-4.58366,3.89611,9.04,-1.06,2.34,3.0
1758075068.48273,1758075068.37,0.0,0.0,0.0,-26.06958,3.49504,3.20856,9.04,-1.06,2.34,3.0
1758075068.48406,1758075068.38,0.0,0.0,0.0,-24.63719,1.14592,2.46372,8.73,-1.21,2.24,3.0
1758075068.49959,1758075068.39,0.0,0.0,0.0,-22.51724,-6.07335,1.3751,8.33,-1.34,2.21,3.0
1758075068.50231,1758075068.4,0.0,0.0,0.0,-20.11082,-5.78687,0.80214,8.33,-1.34,2.21,3.0
1758075068.51769,1758075068.41,0.0,0.0,0.0,-17.24603,-0.45837,0.34377,9.16,-1.48,2.16,3.0
1758075068.52138,1758075068.42,0.0,0.0,0.0,-14.32395,8.93814,0.40107,9.16,-1.48,2.16,3.0
1758075068.53745,1758075068.43,0.0,0.0,0.0,-9.5684,13.69369,1.66158,9.51,-1.55,2.29,3.0
1758075068.53849,1758075068.44,0.0,0.0,0.0,-6.53172,9.68299,2.6929,9.51,-1.55,2.29,3.0
1758075068.55505,1758075068.45,0.0,0.0,0.0,-3.38045,4.87014,4.0107,8.6,-1.5,2.14,3.0
1758075068.57152,1758075068.46,0.0,0.0,0.0,0.85944,-0.34377,5.78687,8.6,-1.5,2.14,3.0
1758075068.5727,1758075068.47,0.0,0.0,0.0,4.1253,-6.8182,7.50575,8.66,-1.43,1.98,3.0
1758075068.58779,1758075068.48,0.0,0.0,0.0,7.62034,-10.31324,9.4538,9.2,-1.45,1.91,3.0
1758075068.58955,1758075068.49,0.0,0.0,0.0,10.8862,-13.06344,11.74564,9.2,-1.45,1.91,3.0
1758075068.60655,1758075068.5,0.0,0.0,0.0,16.10011,-14.78231,15.06879,9.92,-1.67,2.03,3.0
1758075068.62257,1758075068.51,0.0,0.0,0.0,20.05352,-13.86558,17.36062,9.92,-1.67,2.03,3.0
1758075068.62455,1758075068.52,0.0,0.0,0.0,23.66316,-17.18874,19.76705,10.58,-1.99,2.03,3.0
1758075068.64069,1758075068.53,0.0,0.0,0.0,26.41335,-25.72581,20.34,10.58,-1.99,2.03,3.0
1758075068.64162,1758075068.54,0.0,0.0,0.0,31.79916,-12.83425,18.62113,10.25,-2.23,2.06,3.0
1758075068.65687,1758075068.55,0.0,0.0,0.0,35.75257,11.91752,16.90226,13.93,-2.64,2.63,3.0
1758075068.67291,1758075068.56,0.0,0.0,0.0,38.38818,34.14828,11.74564,13.93,-2.64,2.63,3.0
1758075068.67709,1758075068.57,0.0,0.0,0.0,43.60209,22.63183,5.90147,12.54,-3.09,5.49,3.0
1758075068.69374,1758075068.58,0.0,0.0,0.0,42.1124,-37.01308,12.54778,12.54,-3.09,5.49,3.0
1758075068.69535,1758075068.59,0.0,0.0,0.0,41.42485,-45.77933,22.68913,11.95,-3.56,6.19,3.0
1758075068.71144,1758075068.6,0.0,0.0,0.0,37.47144,-34.95043,25.15285,11.95,-3.56,6.19,3.0
1758075068.7126,1758075068.61,0.0,0.0,0.0,31.97105,-20.16812,27.78845,17.32,-2.36,5.85,3.0
1758075068.72785,1758075068.62,0.0,0.0,0.0,23.72045,2.06265,23.0329,16.21,-0.9,4.76,3.0
1758075068.72881,1758075068.63,0.0,0.0,0.0,19.70975,3.26586,17.47521,16.21,-0.9,4.76,3.0
1758075068.74654,1758075068.64,0.0,0.0,0.0,16.84496,5.50039,9.4538,14.12,-0.71,4.88,3.0
1758075068.76189,1758075068.65,0.0,0.0,0.0,15.12609,9.85487,-6.70361,14.12,-0.71,4.88,3.0
1758075068.76296,1758075068.66,0.0,0.0,0.0,17.13144,17.93358,-16.61578,13.03,-1.48,4.33,3.0
1758075068.77764,1758075068.67,0.0,0.0,0.0,21.08485,19.36597,-23.83505,13.03,-1.48,4.33,3.0
1758075068.77888,1758075068.68,0.0,0.0,0.0,25.61122,15.24068,-29.27814,11.1,-2.22,4.63,3.0
1758075068.79597,1758075068.69,0.0,0.0,0.0,33.05967,4.64096,-31.39809,11.1,-2.22,4.63,3.0
1758075068.81371,1758075068.7,0.0,0.0,0.0,36.95578,-2.57831,-29.39274,8.71,-2.42,4.47,3.0
1758075068.8158,1758075068.71,0.0,0.0,0.0,40.16434,-10.48513,-25.26744,7.32,-2.23,4.25,3.0
1758075068.83087,1758075068.72,0.0,0.0,0.0,42.62806,-17.87628,-19.59516,7.32,-2.23,4.25,3.0
1758075068.83226,1758075068.73,0.0,0.0,0.0,45.20637,-27.61657,-10.59972,6.56,-1.8,3.99,3.0
1758075068.84675,1758075068.74,0.0,0.0,0.0,46.52417,-33.63263,-4.98473,6.56,-1.8,3.99,3.0
1758075068.86383,1758075068.75,0.0,0.0,0.0,47.61279,-37.92981,-1.03132,6.25,-1.13,3.81,3.0
1758075068.86502,1758075068.76,0.0,0.0,0.0,48.52953,-41.59674,1.20321,6.25,-1.13,3.81,3.0
1758075068.88052,1758075068.77,0.0,0.0,0.0,48.9306,-45.49285,1.3178,6.5,-0.36,3.78,3.0
1758075068.88174,1758075068.78,0.0,0.0,0.0,49.04519,-45.60744,-0.22918,7.12,0.24,3.62,3.0
1758075068.89708,1758075068.79,0.0,0.0,0.0,48.70141,-44.46153,-2.63561,7.12,0.24,3.62,3.0
1758075068.91306,1758075068.8,0.0,0.0,0.0,48.52953,-41.88322,-5.15662,7.7,0.55,3.34,3.0
1758075068.91564,1758075068.81,0.0,0.0,0.0,48.12846,-37.18496,-7.84952,7.7,0.55,3.34,3.0
1758075068.9311,1758075068.82,0.0,0.0,0.0,47.78468,-33.34615,-8.76626,7.87,0.52,3.2,3.0
1758075068.932,1758075068.83,0.0,0.0,0.0,47.03984,-28.87707,-8.76626,7.87,0.52,3.2,3.0
1758075068.94679,1758075068.84,0.0,0.0,0.0,46.1231,-23.37668,-8.02141,7.87,0.31,3.0,3.0
1758075068.96277,1758075068.85,0.0,0.0,0.0,44.28964,-12.77696,-6.13065,7.94,0.23,2.75,3.0
1758075068.96583,1758075068.86,0.0,0.0,0.0,42.91454,-4.98473,-4.87014,7.94,0.23,2.75,3.0
1758075068.9811,1758075068.87,0.0,0.0,0.0,41.42485,2.7502,-3.66693,8.0,0.35,2.47,3.0
1758075068.98202,1758075068.88,0.0,0.0,0.0,38.78925,15.35527,-2.86479,8.0,0.35,2.47,3.0
1758075068.99713,1758075068.89,0.0,0.0,0.0,37.01308,22.34536,-2.7502,8.1,0.56,2.41,3.0
1758075069.01312,1758075068.9,0.0,0.0,0.0,35.52338,28.41871,-3.09397,8.1,0.56,2.41,3.0
1758075069.01399,1758075068.91,0.0,0.0,0.0,34.14828,33.23156,-3.32316,8.0,0.66,2.43,3.0
1758075069.02909,1758075068.92,0.0,0.0,0.0,32.48671,38.38818,-3.55234,8.0,0.66,2.43,3.0
1758075069.03115,1758075068.93,0.0,0.0,0.0,31.45539,40.50812,-3.83882,8.01,0.63,2.58,3.0
1758075069.04688,1758075068.94,0.0,0.0,0.0,30.48136,41.13837,-3.55234,8.04,0.55,2.64,3.0
1758075069.06287,1758075068.95,0.0,0.0,0.0,29.67921,42.05511,-3.26586,8.04,0.55,2.64,3.0
1758075069.06404,1758075068.96,0.0,0.0,0.0,29.22085,42.1124,-2.57831,8.19,0.4,2.82,3.0
1758075069.07887,1758075068.97,0.0,0.0,0.0,28.476,42.91454,-2.34913,8.19,0.4,2.82,3.0
1758075069.08004,1758075068.98,0.0,0.0,0.0,28.07493,41.08107,-2.92208,8.37,0.33,2.94,3.0
1758075069.09484,1758075068.99,0.0,0.0,0.0,28.13223,37.18496,-3.95341,8.37,0.33,2.94,3.0
1758075069.11115,1758075069.0,0.0,0.0,0.0,27.78845,30.53865,-6.53172,7.96,0.35,2.98,3.0
1758075069.11205,1758075069.01,0.0,0.0,0.0,28.01764,27.2155,-8.25059,7.98,0.39,2.83,3.0
1758075069.14979,1758075069.02,0.0,0.0,0.0,28.59059,23.72045,-9.96947,7.98,0.39,2.83,3.0
1758075069.15256,1758075069.03,0.0,0.0,0.0,29.33544,21.02755,-11.00079,8.08,0.33,2.74,3.0
1758075069.15325,1758075069.04,0.0,0.0,0.0,30.93972,16.38659,-11.11538,8.08,0.33,2.74,3.0
1758075069.15449,1758075069.05,0.0,0.0,0.0,32.25753,13.34992,-10.19865,8.29,0.18,2.79,3.0
1758075069.1699,1758075069.06,0.0,0.0,0.0,33.68992,11.63104,-8.36518,8.29,0.18,2.79,3.0
1758075069.17115,1758075069.07,0.0,0.0,0.0,35.06502,11.57375,-4.29718,8.71,0.05,2.74,3.0
1758075069.18595,1758075069.08,0.0,0.0,0.0,36.95578,13.5791,-1.71887,9.22,0.03,2.67,3.0
1758075069.20194,1758075069.09,0.0,0.0,0.0,37.87251,15.24068,1.48969,9.22,0.03,2.67,3.0
1758075069.20343,1758075069.1,0.0,0.0,0.0,38.73195,17.24603,4.35448,9.47,0.16,2.69,3.0
1758075069.22035,1758075069.11,0.0,0.0,0.0,39.3622,19.59516,8.36518,9.47,0.16,2.69,3.0
1758075069.2216,1758075069.12,0.0,0.0,0.0,39.13302,21.31403,10.25595,9.39,0.33,2.48,3.0
1758075069.23706,1758075069.13,0.0,0.0,0.0,38.38818,21.42862,11.22997,9.39,0.33,2.48,3.0
1758075069.25398,1758075069.14,0.0,0.0,0.0,37.52874,19.53786,11.51645,8.94,0.56,2.53,3.0
1758075069.25652,1758075069.15,0.0,0.0,0.0,35.69527,13.86558,11.17268,8.35,0.56,2.4,3.0
1758075069.27222,1758075069.16,0.0,0.0,0.0,34.32018,10.19865,10.8862,8.35,0.73,2.4,3.0
1758075069.31723,1758075069.17,0.0,0.0,0.0,32.77319,5.84417,10.71431,8.29,0.85,2.51,3.0
1758075069.32231,1758075069.18,0.0,0.0,0.0,31.16891,1.14592,11.17268,8.29,0.85,2.51,3.0
1758075069.32316,1758075069.19,0.0,0.0,0.0,27.44468,0.80214,11.11538,8.68,0.94,2.6,3.0
1758075069.32494,1758075069.2,0.0,0.0,0.0,24.4653,0.40107,9.85487,8.68,0.94,2.6,3.0
1758075069.32676,1758075069.21,0.0,0.0,0.0,21.48592,-2.6929,8.136,9.08,1.14,2.67,3.0
1758075069.32764,1758075069.22,0.0,0.0,0.0,18.27736,-7.33386,6.18794,9.08,1.14,2.67,3.0
1758075069.34475,1758075069.23,0.0,0.0,0.0,13.40721,-14.09476,3.83882,9.34,1.32,2.67,3.0
1758075069.34579,1758075069.24,0.0,0.0,0.0,9.5684,-16.04282,0.45837,10.03,1.46,2.89,3.0
1758075069.36102,1758075069.25,0.0,0.0,0.0,5.55769,-16.73037,-3.20856,10.03,1.46,2.89,3.0
1758075069.36227,1758075069.26,0.0,0.0,0.0,2.06265,-16.90226,-7.21927,10.63,1.61,2.99,3.0
1758075069.37727,1758075069.27,0.0,0.0,0.0,-3.32316,-15.41257,-13.46451,10.63,1.61,2.99,3.0
1758075069.39335,1758075069.28,0.0,0.0,0.0,-7.10468,-17.87628,-16.38659,11.32,1.85,3.27,3.0
1758075069.39457,1758075069.29,0.0,0.0,0.0,-10.48513,-23.83505,-18.10547,11.32,1.85,3.27,3.0
1758075069.41003,1758075069.3,0.0,0.0,0.0,-14.32395,-34.32018,-17.01685,11.61,1.72,3.61,3.0
1758075069.41108,1758075069.31,0.0,0.0,0.0,-17.93358,-44.8053,-14.49583,12.41,1.91,5.13,3.0
1758075069.42638,1758075069.32,0.0,0.0,0.0,-19.13679,-68.41116,-8.0787,12.41,1.91,5.13,3.0
1758075069.44208,1758075069.33,0.0,0.0,0.0,-22.05888,-81.36001,-14.72501,14.14,2.0,6.71,3.0
1758075069.44336,1758075069.34,0.0,0.0,0.0,-19.07949,-39.24761,-18.73572,14.14,2.0,6.71,3.0
1758075069.45915,1758075069.35,0.0,0.0,0.0,-15.46986,-31.74186,-21.88699,19.12,1.29,6.19,3.0
1758075069.46011,1758075069.36,0.0,0.0,0.0,-11.22997,-16.61578,-22.05888,19.12,1.29,6.19,3.0
1758075069.47536,1758075069.37,0.0,0.0,0.0,-6.8182,-5.84417,-19.70975,16.34,0.38,4.27,3.0
1758075069.49316,1758075069.38,0.0,0.0,0.0,-3.49504,6.47442,-10.71431,14.11,0.54,4.14,3.0
1758075069.51738,1758075069.39,0.0,0.0,0.0,-3.32316,13.5791,-2.7502,14.11,0.54,4.14,3.0
1758075069.51913,1758075069.4,0.0,0.0,0.0,-4.1253,19.07949,4.92744,12.28,1.13,4.1,3.0
1758075069.52245,1758075069.41,0.0,0.0,0.0,-5.55769,22.05888,11.97482,12.28,1.13,4.1,3.0
1758075069.52338,1758075069.42,0.0,0.0,0.0,-8.25059,22.63183,20.05352,9.84,1.39,3.61,3.0
1758075069.54098,1758075069.43,0.0,0.0,0.0,-10.31324,20.16812,23.60586,9.84,1.39,3.61,3.0
1758075069.54292,1758075069.44,0.0,0.0,0.0,-12.54778,15.35527,25.43933,7.55,1.4,3.64,3.0
1758075069.5592,1758075069.45,0.0,0.0,0.0,-15.06879,8.59437,25.61122,7.55,1.4,3.64,3.0
1758075069.56096,1758075069.46,0.0,0.0,0.0,-18.73572,-1.60428,23.49127,6.08,1.39,3.92,3.0
1758075069.57722,1758075069.47,0.0,0.0,0.0,-21.31403,-7.67763,20.74107,6.02,1.3,3.91,3.0
1758075069.61647,1758075069.48,0.0,0.0,0.0,-24.00693,-14.38124,17.6471,6.02,1.3,3.91,3.0
1758075069.6196,1758075069.49,0.0,0.0,0.0,-27.78845,-22.11617,13.98017,6.12,1.12,3.8,3.0
1758075069.62176,1758075069.5,0.0,0.0,0.0,-30.19488,-33.34615,11.91752,6.12,1.12,3.8,3.0
1758075069.62312,1758075069.51,0.0,0.0,0.0,-32.48671,-39.3622,10.8862,6.6,0.9,3.65,3.0
1758075069.62452,1758075069.52,0.0,0.0,0.0,-34.89313,-43.14373,9.91217,6.6,0.9,3.65,3.0
1758075069.64127,1758075069.53,0.0,0.0,0.0,-38.21629,-43.77398,9.85487,7.28,0.61,3.4,3.0
1758075069.64244,1758075069.54,0.0,0.0,0.0,-40.50812,-42.22699,10.08406,7.88,0.32,3.32,3.0
1758075069.65723,1758075069.55,0.0,0.0,0.0,-42.74266,-40.68,10.59972,7.88,0.32,3.32,3.0
1758075069.67669,1758075069.56,0.0,0.0,0.0,-44.8053,-39.24761,10.54242,7.88,0.13,3.23,3.0
1758075069.70458,1758075069.57,0.0,0.0,0.0,-46.86795,-36.89849,10.19865,7.88,0.13,3.23,3.0
1758075069.70505,1758075069.58,0.0,0.0,0.0,-47.89928,-35.12231,9.62569,7.85,0.0,3.05,3.0
1758075069.70616,1758075069.59,0.0,0.0,0.0,-48.35764,-32.6013,8.93814,7.85,0.0,3.05,3.0
1758075069.70681,1758075069.6,0.0,0.0,0.0,-48.64412,-28.87707,8.30789,7.96,-0.13,2.87,3.0
1758075069.72247,1758075069.61,0.0,0.0,0.0,-48.41494,-22.51724,7.33386,8.22,-0.27,2.77,3.0
1758075069.72375,1758075069.62,0.0,0.0,0.0,-47.67009,-18.73572,7.10468,8.22,-0.27,2.77,3.0
1758075069.7393,1758075069.63,0.0,0.0,0.0,-46.69606,-14.66772,6.99009,8.37,-0.47,2.64,3.0
1758075069.74048,1758075069.64,0.0,0.0,0.0,-45.60744,-9.85487,7.10468,8.37,-0.47,2.64,3.0
1758075069.75633,1758075069.65,0.0,0.0,0.0,-43.94586,-1.77617,7.73493,8.71,-0.67,2.5,3.0
1758075069.77227,1758075069.66,0.0,0.0,0.0,-42.62806,3.03668,8.36518,8.71,-0.67,2.5,3.0
1758075069.77431,1758075069.67,0.0,0.0,0.0,-41.36755,7.62034,9.22462,8.87,-0.77,2.4,3.0
1758075069.78929,1758075069.68,0.0,0.0,0.0,-40.27893,11.45916,9.74028,8.87,-0.77,2.4,3.0
1758075069.79163,1758075069.69,0.0,0.0,0.0,-38.90384,16.73037,10.65701,8.91,-0.74,2.4,3.0
1758075069.80631,1758075069.7,0.0,0.0,0.0,-38.27358,20.16812,10.8289,8.99,-0.7,2.42,3.0
1758075069.82361,1758075069.71,0.0,0.0,0.0,-37.58603,22.91831,10.65701,8.99,-0.7,2.42,3.0
1758075069.82533,1758075069.72,0.0,0.0,0.0,-36.55471,25.15285,10.54242,8.91,-0.73,2.48,3.0
1758075069.84032,1758075069.73,0.0,0.0,0.0,-35.86716,27.33009,10.59972,8.91,-0.73,2.48,3.0
1758075069.84155,1758075069.74,0.0,0.0,0.0,-35.2369,29.67921,10.54242,9.03,-0.85,2.47,3.0
1758075069.85662,1758075069.75,0.0,0.0,0.0,-34.43476,32.37212,11.00079,9.03,-0.85,2.47,3.0
1758075069.87262,1758075069.76,0.0,0.0,0.0,-33.11696,35.00772,11.91752,9.14,-1.0,2.42,3.0
1758075069.87474,1758075069.77,0.0,0.0,0.0,-32.14294,34.43476,12.83425,8.83,-1.14,2.4,3.0
1758075069.88966,1758075069.78,0.0,0.0,0.0,-31.28349,34.26288,13.86558,8.83,-1.14,2.4,3.0
1758075069.89057,1758075069.79,0.0,0.0,0.0,-30.59595,34.09099,14.72501,8.81,-1.17,2.35,3.0
1758075069.90573,1758075069.8,0.0,0.0,0.0,-29.62192,35.63798,15.64175,8.81,-1.17,2.35,3.0
1758075069.92164,1758075069.81,0.0,0.0,0.0,-29.33544,36.6693,15.69904,8.96,-1.04,2.35,3.0
1758075069.9226,1758075069.82,0.0,0.0,0.0,-29.62192,36.32552,15.12609,8.96,-1.04,2.35,3.0
1758075069.93766,1758075069.83,0.0,0.0,0.0,-29.56462,35.3515,14.38124,8.78,-0.84,2.46,3.0
1758075069.9394,1758075069.84,0.0,0.0,0.0,-29.8511,33.11696,12.2613,8.77,-0.76,2.5,3.0
1758075069.95568,1758075069.85,0.0,0.0,0.0,-30.02299,31.62727,10.94349,8.77,-0.76,2.5,3.0
1758075069.9717,1758075069.86,0.0,0.0,0.0,-30.30947,31.16891,9.39651,9.01,-0.81,2.38,3.0
1758075069.97275,1758075069.87,0.0,0.0,0.0,-30.36677,31.39809,7.73493,9.01,-0.81,2.38,3.0
1758075069.9874,1758075069.88,0.0,0.0,0.0,-30.30947,30.88243,5.72958,9.17,-0.95,2.36,3.0
1758075070.00352,1758075069.89,0.0,0.0,0.0,-30.02299,29.33544,4.35448,9.17,-0.95,2.36,3.0
1758075070.00426,1758075069.9,0.0,0.0,0.0,-29.67921,26.41335,2.92208,8.89,-1.12,2.36,3.0
1758075070.02036,1758075069.91,0.0,0.0,0.0,-28.93437,23.54857,0.57296,8.89,-1.12,2.36,3.0
1758075070.02149,1758075069.92,0.0,0.0,0.0,-28.30412,18.16276,-0.68755,8.68,-1.28,2.42,3.0
1758075070.03643,1758075069.93,0.0,0.0,0.0,-27.50197,13.46451,-2.00535,8.44,-1.38,2.44,3.0
1758075070.05258,1758075069.94,0.0,0.0,0.0,-26.69983,9.4538,-3.03668,8.44,-1.38,2.44,3.0
1758075070.05324,1758075069.95,0.0,0.0,0.0,-25.55392,2.63561,-4.81285,8.37,-1.45,2.59,3.0
1758075070.06867,1758075069.96,0.0,0.0,0.0,-24.5226,-1.08862,-5.27121,8.37,-1.45,2.59,3.0
1758075070.06967,1758075069.97,0.0,0.0,0.0,-22.86102,0.57296,-5.4431,8.7,-1.55,2.7,3.0
1758075070.08466,1758075069.98,0.0,0.0,0.0,-20.34,6.13065,-4.58366,8.7,-1.55,2.7,3.0
1758075070.10055,1758075069.99,0.0,0.0,0.0,-16.67307,9.96947,-3.26586,9.63,-1.76,2.78,3.0
1758075070.10176,1758075070.0,0.0,0.0,0.0,-13.80828,8.136,-2.29183,9.43,-1.98,2.78,3.0
1758075070.11659,1758075070.01,0.0,0.0,0.0,-10.48513,6.18794,-1.14592,9.43,-1.98,2.78,3.0
1758075070.13254,1758075070.02,0.0,0.0,0.0,-6.70361,4.52637,0.22918,9.66,-2.15,2.66,3.0
1758075070.13308,1758075070.03,0.0,0.0,0.0,-0.80214,3.03668,3.38045,9.66,-2.15,2.66,3.0
1758075070.14881,1758075070.04,0.0,0.0,0.0,3.32316,1.83346,5.72958,10.12,-2.35,2.52,3.0
1758075070.14977,1758075070.05,0.0,0.0,0.0,7.84952,0.74485,8.25059,10.12,-2.35,2.52,3.0
1758075070.16481,1758075070.06,0.0,0.0,0.0,12.83425,0.17189,10.65701,10.88,-2.57,2.86,3.0
1758075070.18087,1758075070.07,0.0,0.0,0.0,20.16812,-7.39116,13.23533,11.31,-2.8,2.87,3.0
1758075070.18177,1758075070.08,0.0,0.0,0.0,24.23611,-15.98552,12.60507,11.31,-2.8,2.87,3.0
1758075070.19684,1758075070.09,0.0,0.0,0.0,27.1582,-16.272,9.11003,12.32,-3.03,3.37,3.0
1758075070.19859,1758075070.1,0.0,0.0,0.0,33.9764,-4.29718,4.35448,12.32,-3.03,3.37,3.0
1758075070.21419,1758075070.11,0.0,0.0,0.0,40.45082,7.73493,-1.08862,14.81,-3.7,5.26,3.0
1758075070.23165,1758075070.12,0.0,0.0,0.0,42.05511,-0.80214,2.97938,14.81,-3.7,5.26,3.0
1758075070.23421,1758075070.13,0.0,0.0,0.0,40.10705,-17.81899,4.69825,13.79,-2.94,7.0,3.0
1758075070.24958,1758075070.14,0.0,0.0,0.0,35.2942,-44.63341,16.04282,13.79,-2.94,7.0,3.0
1758075070.25082,1758075070.15,0.0,0.0,0.0,31.16891,-42.51347,18.33465,13.88,-1.4,5.57,3.0
1758075070.26585,1758075070.16,0.0,0.0,0.0,26.01229,-35.69527,15.98552,13.57,-0.35,4.1,3.0
1758075070.28163,1758075070.17,0.0,0.0,0.0,22.68913,-29.39274,12.89155,13.57,-0.35,4.1,3.0
1758075070.28281,1758075070.18,0.0,0.0,0.0,20.11082,-25.49662,5.21392,11.28,-0.3,4.24,3.0
1758075070.29765,1758075070.19,0.0,0.0,0.0,19.48057,-24.17882,-0.85944,11.28,-0.3,4.24,3.0
1758075070.29895,1758075070.2,0.0,0.0,0.0,19.36597,-19.59516,-7.21927,9.65,-0.8,3.57,3.0
1758075070.31536,1758075070.21,0.0,0.0,0.0,19.82434,-15.29797,-13.46451,9.65,-0.8,3.57,3.0
1758075070.33093,1758075070.22,0.0,0.0,0.0,21.42862,-14.78231,-21.7151,8.68,-1.21,3.85,3.0
1758075070.33218,1758075070.23,0.0,0.0,0.0,22.63183,-19.36597,-25.55392,7.45,-1.33,4.33,3.0
1758075070.34698,1758075070.24,0.0,0.0,0.0,23.60586,-26.64254,-28.01764,7.45,-1.33,4.33,3.0
1758075070.34788,1758075070.25,0.0,0.0,0.0,23.49127,-33.63263,-29.33544,7.06,-1.16,4.28,3.0
1758075070.36431,1758075070.26,0.0,0.0,0.0,22.68913,-42.05511,-29.56462,7.06,-1.16,4.28,3.0
1758075070.3807,1758075070.27,0.0,0.0,0.0,22.28806,-45.77933,-28.76248,7.11,-0.83,3.82,3.0
1758075070.3817,1758075070.28,0.0,0.0,0.0,22.05888,-48.58683,-26.81443,7.11,-0.83,3.82,3.0
1758075070.39677,1758075070.29,0.0,0.0,0.0,22.23076,-50.76406,-24.57989,7.2,-0.56,3.73,3.0
1758075070.39905,1758075070.3,0.0,0.0,0.0,22.57454,-50.87865,-20.74107,7.44,-0.5,3.57,3.0
1758075070.41607,1758075070.31,0.0,0.0,0.0,22.86102,-48.41494,-18.56383,7.44,-0.5,3.57,3.0
1758075070.43204,1758075070.32,0.0,0.0,0.0,23.26209,-44.28964,-16.84496,7.86,-0.47,3.3,3.0
1758075070.43295,1758075070.33,0.0,0.0,0.0,24.23611,-39.4195,-14.61043,7.86,-0.47,3.3,3.0
1758075070.44808,1758075070.34,0.0,0.0,0.0,25.15285,-31.39809,-13.34992,8.24,-0.47,3.21,3.0
1758075070.4498,1758075070.35,0.0,0.0,0.0,26.06958,-24.23611,-12.2613,8.24,-0.47,3.21,3.0
1758075070.46593,1758075070.36,0.0,0.0,0.0,26.87172,-16.61578,-11.80293,8.69,-0.5,3.07,3.0
1758075070.46943,1758075070.37,0.0,0.0,0.0,27.50197,-5.84417,-11.91752,8.69,-0.5,3.07,3.0
1758075070.4858,1758075070.38,0.0,0.0,0.0,27.44468,1.94806,-12.60507,8.67,-0.43,2.88,3.0
1758075070.50196,1758075070.39,0.0,0.0,0.0,27.33009,10.08406,-13.00614,8.76,-0.29,2.68,3.0
1758075070.50302,1758075070.4,0.0,0.0,0.0,26.64254,17.36062,-13.5791,8.76,-0.29,2.68,3.0
1758075070.51791,1758075070.41,0.0,0.0,0.0,25.26744,27.38738,-14.66772,8.73,-0.17,2.53,3.0
1758075070.52015,1758075070.42,0.0,0.0,0.0,24.4653,32.88778,-15.41257,8.73,-0.17,2.53,3.0
1758075070.53587,1758075070.43,0.0,0.0,0.0,23.72045,36.95578,-15.92823,8.67,-0.18,2.54,3.0
1758075070.55262,1758075070.44,0.0,0.0,0.0,23.54857,39.70598,-16.272,8.67,-0.18,2.54,3.0
1758075070.55385,1758075070.45,0.0,0.0,0.0,23.49127,41.31026,-16.73037,8.49,-0.29,2.64,3.0
1758075070.56917,1758075070.46,0.0,0.0,0.0,24.12152,41.13837,-16.84496,8.43,-0.35,2.72,3.0
1758075070.57005,1758075070.47,0.0,0.0,0.0,24.80907,39.82057,-16.84496,8.43,-0.35,2.72,3.0
1758075070.58507,1758075070.48,0.0,0.0,0.0,25.8404,39.01843,-16.90226,8.47,-0.3,2.73,3.0
1758075070.60085,1758075070.49,0.0,0.0,0.0,27.61657,36.38282,-15.69904,8.47,-0.3,2.73,3.0
1758075070.60204,1758075070.49999,0.0,0.0,0.0,28.64789,35.00772,-14.83961,8.5,-0.19,2.68,3.0
1758075070.61707,1758075070.50999,0.0,0.0,0.0,29.27814,33.34615,-13.80828,8.5,-0.19,2.68,3.0
1758075070.61806,1758075070.51999,0.0,0.0,0.0,29.33544,30.93972,-13.46451,8.48,-0.02,2.81,3.0
1758075070.63387,1758075070.52999,0.0,0.0,0.0,29.50733,29.67921,-12.43318,8.52,0.24,2.63,3.0
1758075070.64991,1758075070.53999,0.0,0.0,0.0,29.33544,29.27814,-12.08941,8.52,0.24,2.63,3.0
1758075070.65109,1758075070.54999,0.0,0.0,0.0,29.27814,27.67386,-11.57375,8.45,0.39,2.64,3.0
1758075070.66602,1758075070.55999,0.0,0.0,0.0,29.04896,23.26209,-11.00079,8.45,0.39,2.64,3.0
1758075070.68197,1758075070.56999,0.0,0.0,0.0,28.93437,18.9649,-10.37054,8.24,0.4,2.54,3.0
1758075070.68311,1758075070.57999,0.0,0.0,0.0,28.76248,14.61043,-9.28192,8.24,0.4,2.54,3.0
1758075070.69793,1758075070.58999,0.0,0.0,0.0,28.76248,10.8289,-7.84952,8.31,0.28,2.54,3.0
1758075070.69944,1758075070.59999,0.0,0.0,0.0,28.76248,7.67763,-5.32851,8.31,0.28,2.52,3.0
1758075070.71401,1758075070.60999,0.0,0.0,0.0,28.99167,7.21927,-3.38045,8.55,0.13,2.52,3.0
1758075070.7299,1758075070.61999,0.0,0.0,0.0,29.22085,7.10468,-1.66158,8.79,0.1,2.64,3.0
1758075070.73115,1758075070.62999,0.0,0.0,0.0,29.50733,7.39116,0.0573,8.79,0.1,2.64,3.0
1758075070.746,1758075070.63999,0.0,0.0,0.0,29.73651,8.25059,2.00535,8.91,0.21,2.65,3.0
1758075070.76195,1758075070.64999,0.0,0.0,0.0,29.8511,9.05273,2.92208,8.91,0.21,2.65,3.0
1758075070.76315,1758075070.65999,0.0,0.0,0.0,29.67921,8.88085,3.09397,8.9,0.42,2.64,3.0
1758075070.77795,1758075070.66999,0.0,0.0,0.0,29.33544,7.79223,3.32316,8.9,0.42,2.64,3.0
1758075070.77921,1758075070.67999,0.0,0.0,0.0,28.41871,6.87549,3.09397,8.77,0.72,2.68,3.0
1758075070.79397,1758075070.68999,0.0,0.0,0.0,27.33009,7.04738,3.26586,8.93,1.0,2.6,3.0
1758075070.81001,1758075070.69999,0.0,0.0,0.0,25.7831,7.62034,3.49504,8.93,1.0,2.6,3.0
1758075070.81165,1758075070.70999,0.0,0.0,0.0,24.00693,7.96411,3.38045,9.11,1.2,2.52,3.0
1758075070.82632,1758075070.71999,0.0,0.0,0.0,20.45459,6.8182,2.97938,9.11,1.2,2.52,3.0
1758075070.84232,1758075070.72999,0.0,0.0,0.0,17.81899,5.15662,2.97938,9.33,1.33,2.78,3.0
1758075070.84369,1758075070.73999,0.0,0.0,0.0,15.12609,2.23454,3.09397,9.33,1.33,2.78,3.0
1758075070.85913,1758075070.74999,0.0,0.0,0.0,10.71431,-0.0573,2.92208,9.63,1.41,2.83,3.0
1758075070.86004,1758075070.75999,0.0,0.0,0.0,7.96411,-5.21392,2.92208,10.15,1.43,2.96,3.0
1758075070.87531,1758075070.76999,0.0,0.0,0.0,3.32316,-4.87014,-0.57296,10.15,1.43,2.96,3.0
1758075070.89137,1758075070.77999,0.0,0.0,0.0,-0.0573,-5.90147,-3.49504,10.62,1.53,3.24,3.0
1758075070.89221,1758075070.78999,0.0,0.0,0.0,-5.32851,-2.63561,-11.17268,10.62,1.53,3.24,3.0
1758075070.90734,1758075070.79999,0.0,0.0,0.0,-8.99544,-1.43239,-16.10011,11.2,1.64,3.34,3.0
1758075070.90828,1758075070.80999,0.0,0.0,0.0,-12.43318,-4.52637,-19.76705,11.2,1.64,3.34,3.0
1758075070.92434,1758075070.81999,0.0,0.0,0.0,-15.12609,-11.86023,-21.7151,11.62,1.71,3.63,3.0
1758075070.94084,1758075070.82999,0.0,0.0,0.0,-19.53786,-24.12152,-21.08485,11.96,1.75,3.99,3.0
1758075070.94207,1758075070.83999,0.0,0.0,0.0,-21.7724,-35.06502,-17.93358,11.96,1.75,3.99,3.0
1758075070.95738,1758075070.84999,0.0,0.0,0.0,-24.29341,-47.15443,-8.36518,11.99,1.9,5.83,3.0
1758075070.95837,1758075070.85999,0.0,0.0,0.0,-27.84575,-66.00475,-14.38124,11.99,1.9,5.83,3.0
1758075070.97414,1758075070.86999,0.0,0.0,0.0,-25.7831,-33.40344,-19.48057,16.08,1.86,6.27,3.0
1758075070.99139,1758075070.87999,0.0,0.0,0.0,-23.20479,-24.92367,-23.54857,16.08,1.86,6.27,3.0
1758075070.9926,1758075070.88999,0.0,0.0,0.0,-20.22541,-17.93358,-26.12688,15.8,1.12,4.95,3.0
1758075071.00747,1758075070.89999,0.0,0.0,0.0,-16.21471,-7.04738,-24.80907,15.8,1.12,4.95,3.0
1758075071.00861,1758075070.90999,0.0,0.0,0.0,-11.80293,3.49504,-18.62113,14.29,0.51,4.2,3.0
1758075071.02443,1758075070.91999,0.0,0.0,0.0,-10.48513,12.2613,-11.63104,12.7,0.56,3.86,3.0
1758075071.04103,1758075070.92999,0.0,0.0,0.0,-9.96947,20.45459,-4.23989,12.7,0.56,3.86,3.0
1758075071.0422,1758075070.93999,0.0,0.0,0.0,-10.37054,25.49662,5.09932,11.29,0.91,3.78,3.0
1758075071.05744,1758075070.94999,0.0,0.0,0.0,-11.86023,25.89769,9.74028,11.29,0.91,3.78,3.0
1758075071.05839,1758075070.95999,0.0,0.0,0.0,-13.23533,23.37668,13.17803,9.18,1.06,3.55,3.0
1758075071.07457,1758075070.96999,0.0,0.0,0.0,-15.0115,18.73572,15.46986,9.18,1.06,3.55,3.0
1758075071.09021,1758075070.97999,0.0,0.0,0.0,-18.10547,10.02676,16.50119,7.54,1.16,3.57,3.0
1758075071.09149,1758075070.98999,0.0,0.0,0.0,-20.34,3.03668,15.75634,6.64,1.23,3.76,3.0
1758075071.10623,1758075070.99999,0.0,0.0,0.0,-22.51724,-4.29718,14.43854,6.64,1.23,3.76,3.0
1758075071.12225,1758075071.00999,0.0,0.0,0.0,-24.57989,-12.14671,12.71966,6.27,1.18,3.88,3.0
1758075071.12385,1758075071.01999,0.0,0.0,0.0,-27.67386,-23.94964,10.02676,6.27,1.18,3.88,3.0
1758075071.13825,1758075071.02999,0.0,0.0,0.0,-29.62192,-31.79916,8.70896,6.12,1.01,3.9,3.0
1758075071.13975,1758075071.03999,0.0,0.0,0.0,-31.2262,-38.61736,7.62034,6.12,1.01,3.9,3.0
1758075071.15531,1758075071.04999,0.0,0.0,0.0,-32.83048,-44.57612,6.8182,6.36,0.79,3.72,3.0
1758075071.17549,1758075071.05999,0.0,0.0,0.0,-35.00772,-49.61814,6.13065,6.91,0.63,3.56,3.0
1758075071.18441,1758075071.06999,0.0,0.0,0.0,-36.15364,-50.87865,6.24524,6.91,0.63,3.56,3.0
1758075071.1858,1758075071.07999,0.0,0.0,0.0,-37.24226,-50.01921,6.24524,7.54,0.48,3.44,3.0
1758075071.19258,1758075071.08999,0.0,0.0,0.0,-38.38818,-48.35764,6.18794,7.54,0.48,3.44,3.0
1758075071.2086,1758075071.09999,0.0,0.0,0.0,-39.76327,-44.748,5.95876,7.95,0.34,3.35,3.0
1758075071.20949,1758075071.10999,0.0,0.0,0.0,-40.62271,-43.14373,5.50039,7.95,0.34,3.35,3.0
1758075071.22457,1758075071.11999,0.0,0.0,0.0,-41.08107,-41.76862,4.92744,7.94,0.15,3.22,3.0
1758075071.24031,1758075071.12999,0.0,0.0,0.0,-41.48215,-40.10705,4.46907,7.94,0.15,3.22,3.0
1758075071.24155,1758075071.13999,0.0,0.0,0.0,-41.48215,-34.89313,4.46907,7.87,-0.09,2.94,3.0
1758075071.25631,1758075071.14999,0.0,0.0,0.0,-41.13837,-29.96569,5.09932,8.1,-0.3,2.63,3.0
1758075071.27233,1758075071.15999,0.0,0.0,0.0,-40.62271,-24.5226,5.84417,8.1,-0.3,2.63,3.0
1758075071.27354,1758075071.16999,0.0,0.0,0.0,-39.13302,-16.61578,7.39116,8.36,-0.42,2.59,3.0
1758075071.28864,1758075071.17999,0.0,0.0,0.0,-37.92981,-11.45916,8.47978,8.36,-0.42,2.59,3.0
1758075071.28956,1758075071.18999,0.0,0.0,0.0,-36.55471,-5.95876,9.28192,8.56,-0.45,2.53,3.0
1758075071.30458,1758075071.19999,0.0,0.0,0.0,-35.2369,-0.85944,9.91217,8.56,-0.45,2.53,3.0
1758075071.32063,1758075071.20999,0.0,0.0,0.0,-33.05967,5.84417,10.08406,8.82,-0.46,2.47,3.0
1758075071.32156,1758075071.21999,0.0,0.0,0.0,-31.91375,9.4538,9.96947,8.91,-0.42,2.46,3.0
1758075071.33661,1758075071.22999,0.0,0.0,0.0,-30.88243,13.12073,9.91217,8.91,-0.42,2.46,3.0
1758075071.35275,1758075071.23999,0.0,0.0,0.0,-30.25217,16.67307,9.85487,9.03,-0.32,2.46,3.0
1758075071.35356,1758075071.24999,0.0,0.0,0.0,-29.56462,21.42862,10.02676,9.03,-0.32,2.46,3.0
1758075071.36872,1758075071.25999,0.0,0.0,0.0,-29.62192,23.60586,10.31324,9.14,-0.19,2.6,3.0
1758075071.36963,1758075071.26999,0.0,0.0,0.0,-29.96569,24.4653,10.31324,9.14,-0.19,2.6,3.0
1758075071.38471,1758075071.27999,0.0,0.0,0.0,-30.02299,24.80907,10.8862,9.08,-0.14,2.7,3.0
1758075071.40074,1758075071.28999,0.0,0.0,0.0,-30.30947,20.34,12.60507,8.82,-0.18,2.74,3.0
1758075071.40169,1758075071.29999,0.0,0.0,0.0,-30.82513,17.18874,14.09476,8.82,-0.18,2.74,3.0
1758075071.41645,1758075071.30999,0.0,0.0,0.0,-30.93972,15.98552,15.46986,8.94,-0.32,2.65,3.0
1758075071.43269,1758075071.31999,0.0,0.0,0.0,-31.39809,16.73037,16.67307,8.94,-0.32,2.65,3.0
1758075071.43367,1758075071.32999,0.0,0.0,0.0,-31.85646,18.56383,17.81899,9.18,-0.35,2.55,3.0
1758075071.44843,1758075071.33999,0.0,0.0,0.0,-32.14294,18.79302,17.87628,9.18,-0.35,2.55,3.0
1758075071.44966,1758075071.34999,0.0,0.0,0.0,-32.25753,18.56383,17.47521,9.02,-0.35,2.44,3.0
1758075071.46447,1758075071.35999,0.0,0.0,0.0,-32.6013,17.6471,15.92823,9.02,-0.35,2.44,3.0
1758075071.48078,1758075071.36999,0.0,0.0,0.0,-33.05967,17.87628,14.09476,9.05,-0.39,2.25,3.0
1758075071.4817,1758075071.37999,0.0,0.0,0.0,-33.46074,19.53786,11.80293,9.52,-0.47,2.24,3.0
1758075071.49649,1758075071.38999,0.0,0.0,0.0,-33.80451,20.51189,9.62569,9.52,-0.47,2.24,3.0
1758075071.51252,1758075071.39999,0.0,0.0,0.0,-33.86181,20.62648,6.07335,9.54,-0.56,2.25,3.0
1758075071.5137,1758075071.40999,0.0,0.0,0.0,-34.0337,21.37133,4.1253,9.54,-0.56,2.25,3.0
1758075071.52872,1758075071.41999,0.0,0.0,0.0,-33.86181,22.05888,2.63561,9.55,-0.72,2.25,3.0
1758075071.5297,1758075071.42999,0.0,0.0,0.0,-33.40344,22.51724,1.77617,9.55,-0.72,2.25,3.0
1758075071.54452,1758075071.43999,0.0,0.0,0.0,-32.37212,21.31403,1.3178,9.38,-0.92,2.27,3.0
1758075071.56054,1758075071.44999,0.0,0.0,0.0,-31.56997,19.36597,1.60428,9.2,-1.07,2.39,3.0
1758075071.56173,1758075071.45999,0.0,0.0,0.0,-30.59595,16.67307,2.00535,9.2,-1.07,2.39,3.0
1758075071.57657,1758075071.46999,0.0,0.0,0.0,-29.50733,13.5218,2.40642,9.03,-1.12,2.39,3.0
1758075071.5926,1758075071.47999,0.0,0.0,0.0,-28.13223,10.65701,2.63561,9.03,-1.12,2.39,3.0
1758075071.59375,1758075071.48999,0.0,0.0,0.0,-26.81443,9.33921,2.97938,9.13,-1.2,2.42,3.0
1758075071.60883,1758075071.49999,0.0,0.0,0.0,-25.21014,7.96411,3.55234,9.13,-1.2,2.42,3.0
1758075071.60976,1758075071.50999,0.0,0.0,0.0,-22.91831,5.21392,5.32851,9.15,-1.39,2.59,3.0
1758075071.62472,1758075071.51999,0.0,0.0,0.0,-18.85031,1.77617,7.21927,9.07,-1.59,2.46,3.0
1758075071.64086,1758075071.52999,0.0,0.0,0.0,-16.10011,1.03132,8.42248,9.07,-1.59,2.46,3.0
1758075071.64292,1758075071.53999,0.0,0.0,0.0,-13.23533,1.48969,9.11003,9.26,-1.76,2.29,3.0
1758075071.65787,1758075071.54999,0.0,0.0,0.0,-10.54242,1.3178,9.5684,9.26,-1.76,2.29,3.0
1758075071.65916,1758075071.55999,0.0,0.0,0.0,-6.24524,0.97403,10.48513,9.05,-1.93,2.2,3.0
1758075071.67586,1758075071.56999,0.0,0.0,0.0,-2.97938,0.17189,11.51645,9.05,-1.93,2.2,3.0
1758075071.69189,1758075071.57999,0.0,0.0,0.0,0.74485,-0.40107,12.83425,8.88,-2.12,2.09,3.0
1758075071.69308,1758075071.58999,0.0,0.0,0.0,6.35983,-0.80214,14.61043,8.88,-2.12,2.09,3.0
1758075071.70793,1758075071.59999,0.0,0.0,0.0,9.96947,-2.97938,15.69904,9.0,-2.21,1.99,3.0
1758075071.70884,1758075071.60999,0.0,0.0,0.0,12.89155,-9.4538,16.04282,8.55,-2.14,1.85,3.0
1758075071.72492,1758075071.61999,0.0,0.0,0.0,14.61043,-14.43854,15.69904,8.55,-2.14,1.85,3.0
1758075071.74101,1758075071.62999,0.0,0.0,0.0,19.59516,4.81285,12.37589,9.54,-1.98,1.77,3.0
1758075071.74185,1758075071.63999,0.0,0.0,0.0,23.0902,28.64789,12.14671,9.54,-1.98,1.77,3.0
1758075071.75693,1758075071.64999,0.0,0.0,0.0,26.41335,43.02913,8.25059,11.94,-2.18,2.35,3.0
1758075071.77292,1758075071.65999,0.0,0.0,0.0,28.30412,37.52874,4.69825,11.94,-2.18,2.35,3.0
1758075071.77385,1758075071.66999,0.0,0.0,0.0,30.82513,-27.61657,-0.97403,8.53,-2.36,3.39,3.0
1758075071.78872,1758075071.67999,0.0,0.0,0.0,35.69527,-62.68159,12.14671,8.0,-3.03,3.66,3.0
1758075071.79023,1758075071.68999,0.0,0.0,0.0,35.63798,-55.23313,17.81899,8.0,-3.03,3.66,3.0
1758075071.80469,1758075071.69999,0.0,0.0,0.0,33.11696,-38.73195,18.9649,14.0,-2.77,4.3,3.0
1758075071.82101,1758075071.70999,0.0,0.0,0.0,30.25217,-13.23533,20.85567,14.0,-2.77,4.3,3.0
1758075071.82188,1758075071.71999,0.0,0.0,0.0,27.38738,-1.60428,19.19409,13.5,-1.76,3.81,3.0
1758075071.83699,1758075071.72999,0.0,0.0,0.0,23.31938,5.32851,14.83961,13.5,-1.76,3.81,3.0
1758075071.8733,1758075071.73999,0.0,0.0,0.0,19.99623,9.22462,10.02676,12.97,-0.7,4.28,3.0
1758075071.89144,1758075071.74999,0.0,0.0,0.0,15.0115,21.48592,0.17189,13.47,-0.15,3.49,3.0
1758075071.89205,1758075071.75999,0.0,0.0,0.0,13.17803,29.67921,-5.15662,13.47,-0.15,3.49,3.0
1758075071.89411,1758075071.76999,0.0,0.0,0.0,12.204,35.69527,-9.68299,13.99,-0.62,3.98,3.0
1758075071.8951,1758075071.77999,0.0,0.0,0.0,12.60507,37.29956,-13.80828,13.99,-0.62,3.98,3.0
1758075071.896,1758075071.78999,0.0,0.0,0.0,13.5218,30.48136,-14.43854,12.94,-1.83,4.51,3.0
1758075071.91109,1758075071.79999,0.0,0.0,0.0,14.20935,24.63719,-13.80828,12.94,-1.83,4.51,3.0
1758075071.9122,1758075071.80999,0.0,0.0,0.0,15.24068,19.59516,-12.2613,12.02,-2.78,4.57,3.0
1758075071.92705,1758075071.81999,0.0,0.0,0.0,17.81899,15.69904,-9.33921,12.02,-2.78,4.57,3.0
1758075071.94302,1758075071.82999,0.0,0.0,0.0,20.62648,13.5791,-7.50575,11.44,-2.91,4.28,3.0
1758075071.94402,1758075071.83999,0.0,0.0,0.0,24.00693,11.74564,-5.78687,10.33,-2.59,4.08,3.0
1758075071.95912,1758075071.84999,0.0,0.0,0.0,28.07493,9.68299,-4.1253,10.33,-2.59,4.08,3.0
1758075071.96001,1758075071.85999,0.0,0.0,0.0,34.32018,5.55769,-2.46372,9.01,-2.16,3.99,3.0
1758075071.97507,1758075071.86999,0.0,0.0,0.0,38.44547,2.11994,-1.83346,9.01,-2.16,3.99,3.0
1758075071.99104,1758075071.87999,0.0,0.0,0.0,42.28429,-0.85944,-1.3751,7.75,-1.77,3.97,3.0
1758075071.992,1758075071.88999,0.0,0.0,0.0,45.37826,-3.38045,-1.48969,7.75,-1.77,3.97,3.0
1758075072.00705,1758075071.89999,0.0,0.0,0.0,48.52953,-9.85487,-2.7502,7.1,-1.34,4.16,3.0
1758075072.02308,1758075071.90999,0.0,0.0,0.0,49.61814,-16.73037,-4.1253,6.45,-0.66,4.23,3.0
1758075072.02444,1758075071.91999,0.0,0.0,0.0,50.2484,-24.86637,-5.72958,6.45,-0.66,4.23,3.0
1758075072.03908,1758075071.92999,0.0,0.0,0.0,50.13381,-32.42941,-7.39116,6.39,0.02,3.96,3.0
1758075072.04045,1758075071.93999,0.0,0.0,0.0,48.58683,-41.48215,-9.4538,6.39,0.02,3.96,3.0
1758075072.0548,1758075071.94999,0.0,0.0,0.0,47.32632,-46.81066,-9.74028,6.76,0.56,3.66,3.0
1758075072.07118,1758075071.95999,0.0,0.0,0.0,45.49285,-51.10783,-9.5684,6.76,0.56,3.66,3.0
1758075072.07234,1758075071.96999,0.0,0.0,0.0,43.88857,-53.05589,-8.30789,7.16,0.74,3.61,3.0
1758075072.08684,1758075071.97999,0.0,0.0,0.0,41.31026,-52.13916,-5.61499,7.83,0.57,3.25,3.0
1758075072.10312,1758075071.98999,0.0,0.0,0.0,39.87786,-49.33167,-3.38045,7.83,0.57,3.25,3.0
1758075072.10432,1758075071.99999,0.0,0.0,0.0,39.01843,-46.2377,-0.85944,8.29,0.29,3.14,3.0
1758075072.11886,1758075072.00999,0.0,0.0,0.0,37.92981,-40.33623,2.00535,8.29,0.29,3.14,3.0
1758075072.12007,1758075072.01999,0.0,0.0,0.0,37.92981,-35.3515,3.26586,8.68,0.06,2.95,3.0
1758075072.13519,1758075072.02999,0.0,0.0,0.0,37.81522,-28.59059,3.95341,8.68,0.06,2.95,3.0
1758075072.1511,1758075072.03999,0.0,0.0,0.0,37.81522,-19.82434,3.60963,9.08,-0.04,2.62,3.0
1758075072.15211,1758075072.04999,0.0,0.0,0.0,37.29956,-6.41713,1.66158,9.08,-0.04,2.56,3.0
1758075072.16693,1758075072.05999,0.0,0.0,0.0,36.95578,1.60428,-0.22918,9.11,0.02,2.56,3.0
1758075072.18296,1758075072.06999,0.0,0.0,0.0,36.61201,8.65166,-2.6929,8.87,0.24,2.47,3.0
1758075072.18449,1758075072.07999,0.0,0.0,0.0,35.98175,14.78231,-4.81285,8.87,0.24,2.47,3.0
1758075072.19916,1758075072.08999,0.0,0.0,0.0,35.00772,21.7151,-7.50575,8.73,0.37,2.48,3.0
1758075072.2001,1758075072.09999,0.0,0.0,0.0,34.32018,24.5226,-8.42248,8.73,0.37,2.48,3.0
1758075072.21518,1758075072.10999,0.0,0.0,0.0,33.40344,25.89769,-9.11003,8.52,0.36,2.62,3.0
1758075072.23205,1758075072.11999,0.0,0.0,0.0,32.42941,26.12688,-9.28192,8.52,0.36,2.62,3.0
1758075072.23335,1758075072.12999,0.0,0.0,0.0,31.2262,24.80907,-9.11003,8.33,0.3,2.76,3.0
1758075072.24827,1758075072.13999,0.0,0.0,0.0,30.25217,22.97561,-9.22462,8.26,0.27,2.77,3.0
1758075072.24943,1758075072.14999,0.0,0.0,0.0,29.67921,21.14215,-8.99544,8.26,0.27,2.77,3.0
1758075072.26597,1758075072.15999,0.0,0.0,0.0,29.22085,18.85031,-8.65166,8.26,0.22,2.64,3.0
1758075072.28229,1758075072.16999,0.0,0.0,0.0,29.04896,15.98552,-7.16197,8.26,0.22,2.64,3.0
1758075072.28324,1758075072.17999,0.0,0.0,0.0,28.76248,14.20935,-6.35983,8.45,0.22,2.61,3.0
1758075072.29804,1758075072.18999,0.0,0.0,0.0,28.36141,13.23533,-5.50039,8.45,0.22,2.61,3.0
1758075072.29919,1758075072.19999,0.0,0.0,0.0,27.2155,12.37589,-5.72958,8.83,0.3,2.79,3.0
1758075072.31524,1758075072.20999,0.0,0.0,0.0,26.35606,9.4538,-6.41713,8.81,0.51,2.68,3.0
1758075072.33126,1758075072.21999,0.0,0.0,0.0,25.49662,6.8182,-6.8182,8.81,0.51,2.68,3.0
1758075072.33225,1758075072.22999,0.0,0.0,0.0,24.92367,4.35448,-6.7609,8.81,0.63,2.78,3.0
1758075072.34735,1758075072.23999,0.0,0.0,0.0,24.12152,-0.0573,-5.95876,8.81,0.63,2.78,3.0
1758075072.36307,1758075072.24999,0.0,0.0,0.0,23.83505,-3.26586,-4.69825,8.71,0.61,2.79,3.0
1758075072.36434,1758075072.25999,0.0,0.0,0.0,23.49127,-6.07335,-3.03668,8.71,0.61,2.79,3.0
1758075072.37937,1758075072.26999,0.0,0.0,0.0,23.26209,-7.73493,-1.08862,8.82,0.52,2.85,3.0
1758075072.38031,1758075072.27999,0.0,0.0,0.0,22.57454,-8.88085,1.66158,9.13,0.52,2.84,3.0
1758075072.39535,1758075072.28999,0.0,0.0,0.0,22.23076,-7.96411,2.97938,9.13,0.44,2.84,3.0
1758075072.41113,1758075072.29999,0.0,0.0,0.0,21.6578,-5.55769,3.95341,9.46,0.45,2.66,3.0
1758075072.41245,1758075072.30999,0.0,0.0,0.0,21.14215,-2.7502,4.23989,9.46,0.45,2.66,3.0
1758075072.42739,1758075072.31999,0.0,0.0,0.0,20.16812,1.3751,3.55234,9.43,0.52,2.52,3.0
1758075072.4434,1758075072.32999,0.0,0.0,0.0,19.25138,3.95341,2.57831,9.43,0.52,2.52,3.0
1758075072.44434,1758075072.33999,0.0,0.0,0.0,18.27736,5.72958,1.66158,9.29,0.68,2.48,3.0
1758075072.45943,1758075072.34999,0.0,0.0,0.0,17.18874,7.50575,0.74485,9.29,0.68,2.48,3.0
1758075072.46031,1758075072.35999,0.0,0.0,0.0,15.41257,10.48513,-0.51566,9.14,0.79,2.42,3.0
1758075072.47526,1758075072.36999,0.0,0.0,0.0,14.15206,12.14671,-1.14592,9.06,0.86,2.34,3.0
1758075072.49144,1758075072.37999,0.0,0.0,0.0,13.17803,14.03747,-1.03132,9.06,0.86,2.34,3.0
1758075072.49277,1758075072.38999,0.0,0.0,0.0,12.14671,16.10011,-0.22918,9.22,0.9,2.44,3.0
1758075072.50713,1758075072.39999,0.0,0.0,0.0,10.25595,12.77696,0.0573,9.22,0.9,2.44,3.0
1758075072.52343,1758075072.40999,0.0,0.0,0.0,8.42248,7.84952,0.34377,8.84,0.91,2.63,3.0
1758075072.52487,1758075072.41999,0.0,0.0,0.0,6.47442,2.46372,0.34377,8.84,0.91,2.63,3.0
1758075072.53943,1758075072.42999,0.0,0.0,0.0,3.89611,-3.03668,0.51566,9.0,1.02,2.57,3.0
1758075072.54149,1758075072.43999,0.0,0.0,0.0,2.57831,-8.136,1.66158,9.49,1.11,2.59,3.0
1758075072.55648,1758075072.44999,0.0,0.0,0.0,-1.14592,-8.0787,-1.20321,9.49,1.11,2.59,3.0
1758075072.57356,1758075072.45999,0.0,0.0,0.0,-4.1253,-10.25595,-3.09397,9.79,1.31,2.51,3.0
1758075072.5744,1758075072.46999,0.0,0.0,0.0,-8.25059,-10.54242,-7.96411,9.79,1.31,2.51,3.0
1758075072.58949,1758075072.47999,0.0,0.0,0.0,-10.8862,-7.73493,-12.60507,10.2,1.45,2.35,3.0
1758075072.59149,1758075072.48999,0.0,0.0,0.0,-14.09476,-6.13065,-16.84496,10.2,1.45,2.35,3.0
1758075072.6062,1758075072.49999,0.0,0.0,0.0,-17.13144,-6.53172,-19.99623,10.6,1.62,2.37,3.0
1758075072.62249,1758075072.50999,0.0,0.0,0.0,-20.05352,-15.46986,-23.0329,10.48,1.59,2.62,3.0
1758075072.6238,1758075072.51999,0.0,0.0,0.0,-21.42862,-22.28806,-22.91831,10.48,1.59,2.62,3.0
1758075072.63823,1758075072.52999,0.0,0.0,0.0,-23.0329,-29.39274,-19.25138,10.69,1.67,3.54,3.0
1758075072.63942,1758075072.53999,0.0,0.0,0.0,-25.49662,-70.81759,-20.79837,10.69,1.67,3.54,3.0
1758075072.65553,1758075072.54999,0.0,0.0,0.0,-24.5226,-50.93595,-24.29341,12.24,1.67,4.98,3.0
1758075072.6715,1758075072.55999,0.0,0.0,0.0,-26.01229,-26.06958,-29.10626,12.24,1.67,4.98,3.0
1758075072.67409,1758075072.56999,0.0,0.0,0.0,-24.12152,-7.16197,-29.96569,17.71,1.07,4.25,3.0
1758075072.6893,1758075072.57999,0.0,0.0,0.0,-20.85567,-0.51566,-29.22085,17.71,1.07,4.25,3.0
1758075072.69045,1758075072.58999,0.0,0.0,0.0,-16.04282,2.11994,-24.75178,14.56,0.17,4.16,3.0
1758075072.7053,1758075072.59999,0.0,0.0,0.0,-13.69369,11.28727,-18.16276,14.41,-0.13,3.73,3.0
1758075072.72133,1758075072.60999,0.0,0.0,0.0,-12.2613,20.51189,-10.48513,14.41,-0.13,3.73,3.0
1758075072.72331,1758075072.61999,0.0,0.0,0.0,-10.94349,28.76248,1.83346,14.19,0.24,3.98,3.0
1758075072.73857,1758075072.62999,0.0,0.0,0.0,-10.59972,34.09099,8.59437,14.19,0.24,3.98,3.0
1758075072.73952,1758075072.63999,0.0,0.0,0.0,-10.8289,33.46074,13.86558,12.91,0.82,3.94,3.0
1758075072.75541,1758075072.64999,0.0,0.0,0.0,-11.34457,31.2262,17.36062,12.91,0.82,3.94,3.0
1758075072.77134,1758075072.65999,0.0,0.0,0.0,-12.14671,25.7831,19.53786,11.19,1.32,3.41,3.0
1758075072.77302,1758075072.66999,0.0,0.0,0.0,-13.06344,20.34,18.90761,9.18,1.54,3.39,3.0
1758075072.78739,1758075072.67999,0.0,0.0,0.0,-14.32395,13.75099,17.36062,9.18,1.54,3.39,3.0
1758075072.80385,1758075072.68999,0.0,0.0,0.0,-15.87093,6.07335,14.78231,7.23,1.52,3.58,3.0
1758075072.80423,1758075072.69999,0.0,0.0,0.0,-19.59516,-6.07335,10.54242,7.23,1.52,3.58,3.0
1758075072.81966,1758075072.70999,0.0,0.0,0.0,-22.28806,-14.20935,7.79223,6.06,1.31,3.9,3.0
1758075072.82087,1758075072.71999,0.0,0.0,0.0,-25.26744,-21.08485,5.50039,6.06,1.31,3.9,3.0
1758075072.83566,1758075072.72999,0.0,0.0,0.0,-28.13223,-25.7831,3.89611,6.13,0.96,4.05,3.0
1758075072.85243,1758075072.73999,0.0,0.0,0.0,-31.79916,-32.54401,2.86479,6.81,0.64,4.12,3.0
1758075072.85338,1758075072.74999,0.0,0.0,0.0,-34.0337,-37.01308,2.7502,6.81,0.64,4.12,3.0
1758075072.86871,1758075072.75999,0.0,0.0,0.0,-35.69527,-41.31026,3.49504,7.31,0.27,4.05,3.0
1758075072.86959,1758075072.76999,0.0,0.0,0.0,-36.61201,-45.60744,4.58366,7.31,0.27,4.05,3.0
1758075072.88444,1758075072.77999,0.0,0.0,0.0,-36.6693,-51.16513,7.39116,7.61,-0.09,3.7,3.0
1758075072.90072,1758075072.78999,0.0,0.0,0.0,-35.86716,-51.50891,9.28192,7.61,-0.09,3.7,3.0
1758075072.90162,1758075072.79999,0.0,0.0,0.0,-35.06502,-50.47758,10.71431,8.12,-0.39,3.22,3.0
1758075072.91664,1758075072.80999,0.0,0.0,0.0,-34.0337,-48.41494,12.14671,8.12,-0.39,3.22,3.0
1758075072.93271,1758075072.81999,0.0,0.0,0.0,-32.83048,-45.26366,11.97482,8.25,-0.5,2.96,3.0
1758075072.93311,1758075072.82999,0.0,0.0,0.0,-32.14294,-42.97184,11.34457,8.1,-0.43,2.85,3.0
1758075072.94863,1758075072.83999,0.0,0.0,0.0,-31.74186,-40.7373,10.65701,8.1,-0.43,2.85,3.0
1758075072.94969,1758075072.84999,0.0,0.0,0.0,-31.16891,-36.03905,9.85487,8.07,-0.36,2.84,3.0
1758075072.96482,1758075072.85999,0.0,0.0,0.0,-30.93972,-32.08564,9.39651,8.07,-0.36,2.84,3.0
1758075072.98073,1758075072.86999,0.0,0.0,0.0,-30.53865,-27.61657,9.33921,8.17,-0.41,2.76,3.0
1758075072.98169,1758075072.87999,0.0,0.0,0.0,-29.96569,-22.97561,9.91217,8.17,-0.41,2.76,3.0
1758075072.99651,1758075072.88999,0.0,0.0,0.0,-28.76248,-15.69904,11.34457,8.31,-0.54,2.63,3.0
1758075072.99774,1758075072.89999,0.0,0.0,0.0,-27.78845,-9.85487,12.77696,8.62,-0.65,2.41,3.0
1758075073.01307,1758075072.90999,0.0,0.0,0.0,-27.10091,-3.95341,14.09476,8.62,-0.65,2.41,3.0
1758075073.02877,1758075072.91999,0.0,0.0,0.0,-26.69983,1.43239,15.29797,8.98,-0.68,2.25,3.0
1758075073.02969,1758075072.92999,0.0,0.0,0.0,-26.35606,8.99544,16.21471,8.98,-0.68,2.25,3.0
1758075073.04479,1758075072.93999,0.0,0.0,0.0,-26.47065,14.43854,16.3293,9.2,-0.62,2.19,3.0
1758075073.0608,1758075072.94999,0.0,0.0,0.0,-26.64254,20.05352,16.10011,9.2,-0.62,2.19,3.0
1758075073.06171,1758075072.95999,0.0,0.0,0.0,-27.1582,25.26744,15.92823,9.42,-0.52,2.21,3.0
1758075073.07687,1758075072.96999,0.0,0.0,0.0,-28.30412,33.11696,15.58445,9.48,-0.45,2.28,3.0
1758075073.07773,1758075072.97999,0.0,0.0,0.0,-29.04896,37.12767,15.12609,9.48,-0.45,2.28,3.0
1758075073.09311,1758075072.98999,0.0,0.0,0.0,-30.19488,39.87786,14.32395,9.38,-0.4,2.4,3.0
1758075073.10883,1758075072.99999,0.0,0.0,0.0,-31.2262,42.51347,13.46451,9.38,-0.4,2.4,3.0
1758075073.10976,1758075073.00999,0.0,0.0,0.0,-32.88778,43.37291,11.45916,9.29,-0.43,2.5,3.0
1758075073.12482,1758075073.01999,0.0,0.0,0.0,-33.46074,41.59674,10.37054,9.29,-0.43,2.5,3.0
1758075073.14056,1758075073.02999,0.0,0.0,0.0,-33.86181,38.73195,9.33921,8.97,-0.55,2.5,3.0
1758075073.14177,1758075073.03999,0.0,0.0,0.0,-33.80451,35.98175,8.42248,8.97,-0.55,2.5,3.0
1758075073.15688,1758075073.04999,0.0,0.0,0.0,-33.74722,33.11696,8.36518,8.95,-0.74,2.41,3.0
1758075073.15778,1758075073.05999,0.0,0.0,0.0,-33.34615,31.74186,8.76626,9.0,-0.91,2.41,3.0
1758075073.17419,1758075073.06999,0.0,0.0,0.0,-32.77319,30.82513,9.39651,9.0,-0.91,2.41,3.0
1758075073.18968,1758075073.07999,0.0,0.0,0.0,-31.91375,29.67921,10.8289,8.88,-1.05,2.42,3.0
1758075073.19082,1758075073.08999,0.0,0.0,0.0,-31.45539,28.70519,11.80293,8.88,-1.05,2.42,3.0
1758075073.20594,1758075073.09999,0.0,0.0,0.0,-31.2262,27.67386,12.71966,8.7,-1.08,2.44,3.0
1758075073.22165,1758075073.10999,0.0,0.0,0.0,-31.28349,25.7831,13.00614,8.7,-1.08,2.44,3.0
1758075073.22313,1758075073.11999,0.0,0.0,0.0,-31.62727,20.62648,13.00614,8.47,-1.01,2.46,3.0
1758075073.23763,1758075073.12999,0.0,0.0,0.0,-31.62727,17.81899,12.08941,8.52,-0.92,2.46,3.0
1758075073.23911,1758075073.13999,0.0,0.0,0.0,-31.79916,15.24068,11.00079,8.52,-0.92,2.46,3.0
1758075073.25418,1758075073.14999,0.0,0.0,0.0,-31.74186,12.83425,9.4538,8.87,-0.87,2.36,3.0
1758075073.26994,1758075073.15999,0.0,0.0,0.0,-31.39809,10.71431,6.8182,8.87,-0.87,2.36,3.0
1758075073.27173,1758075073.16999,0.0,0.0,0.0,-30.82513,9.91217,4.92744,9.13,-0.91,2.34,3.0
1758075073.28693,1758075073.17999,0.0,0.0,0.0,-29.96569,8.47978,3.09397,9.13,-0.91,2.34,3.0
1758075073.28788,1758075073.18999,0.0,0.0,0.0,-29.04896,7.96411,1.3751,9.19,-1.02,2.21,3.0
1758075073.3043,1758075073.19999,0.0,0.0,0.0,-27.67386,7.39116,-1.03132,9.17,-1.19,2.21,3.0
1758075073.31999,1758075073.20999,0.0,0.0,0.0,-26.52795,7.62034,-2.11994,9.17,-1.19,2.21,3.0
1758075073.32126,1758075073.21999,0.0,0.0,0.0,-25.43933,7.33386,-3.09397,9.02,-1.34,2.25,3.0
1758075073.33587,1758075073.22999,0.0,0.0,0.0,-24.4653,7.39116,-4.0107,9.02,-1.34,2.25,3.0
1758075073.35199,1758075073.23999,0.0,0.0,0.0,-21.7151,10.54242,-2.63561,9.06,-1.5,2.36,3.0
1758075073.35291,1758075073.24999,0.0,0.0,0.0,-19.53786,11.86023,-1.43239,9.06,-1.5,2.36,3.0
1758075073.36796,1758075073.25999,0.0,0.0,0.0,-17.36062,10.48513,-0.11459,8.94,-1.68,2.25,3.0
1758075073.36892,1758075073.26999,0.0,0.0,0.0,-14.72501,8.59437,0.85944,8.94,-1.68,2.25,3.0
1758075073.38406,1758075073.27999,0.0,0.0,0.0,-12.49048,8.59437,1.14592,8.88,-1.77,2.29,3.0
1758075073.39998,1758075073.28999,0.0,0.0,0.0,-10.31324,8.42248,1.94806,9.21,-1.8,2.34,3.0
1758075073.40093,1758075073.29999,0.0,0.0,0.0,-7.50575,8.36518,2.6929,9.21,-1.8,2.34,3.0
1758075073.41576,1758075073.30999,0.0,0.0,0.0,-2.63561,8.36518,5.4431,9.5,-1.92,2.31,3.0
1758075073.43176,1758075073.31999,0.0,0.0,0.0,1.08862,8.25059,7.79223,9.5,-1.92,2.31,3.0
1758075073.43295,1758075073.32999,0.0,0.0,0.0,5.32851,8.0787,10.48513,10.04,-2.16,2.15,3.0
1758075073.44797,1758075073.33999,0.0,0.0,0.0,9.33921,7.96411,12.71966,10.04,-2.16,2.15,3.0
1758075073.44896,1758075073.34999,0.0,0.0,0.0,14.15206,-2.92208,14.9542,10.43,-2.34,2.17,3.0
1758075073.46409,1758075073.35999,0.0,0.0,0.0,15.75634,-9.11003,14.09476,10.17,-2.37,2.27,3.0
1758075073.48004,1758075073.36999,0.0,0.0,0.0,19.70975,6.70361,11.97482,10.17,-2.37,2.27,3.0
1758075073.48141,1758075073.37999,0.0,0.0,0.0,24.12152,31.97105,9.5684,13.53,-2.95,3.62,3.0
1758075073.49609,1758075073.38999,0.0,0.0,0.0,30.25217,19.19409,5.72958,13.53,-2.95,3.62,3.0
1758075073.51206,1758075073.39999,0.0,0.0,0.0,28.99167,-6.47442,5.15662,10.9,-3.2,5.81,3.0
1758075073.51323,1758075073.40999,0.0,0.0,0.0,27.73116,-29.67921,13.40721,10.9,-3.2,5.81,3.0
1758075073.52807,1758075073.41999,0.0,0.0,0.0,26.35606,-34.66395,18.33465,13.44,-2.88,6.3,3.0
1758075073.52901,1758075073.42999,0.0,0.0,0.0,20.74107,-20.22541,19.59516,15.37,-1.76,4.37,3.0
1758075073.54387,1758075073.43999,0.0,0.0,0.0,15.92823,-3.89611,15.69904,15.37,-1.76,4.37,3.0
1758075073.55984,1758075073.44999,0.0,0.0,0.0,12.54778,2.86479,11.22997,14.32,-0.99,5.12,3.0
1758075073.56105,1758075073.45999,0.0,0.0,0.0,7.84952,7.10468,1.3178,14.32,-0.99,5.12,3.0
1758075073.57603,1758075073.46999,0.0,0.0,0.0,5.78687,11.45916,-5.78687,13.03,-0.98,4.46,3.0
1758075073.59213,1758075073.47999,0.0,0.0,0.0,4.46907,18.16276,-13.17803,13.03,-0.98,4.46,3.0
1758075073.5934,1758075073.48999,0.0,0.0,0.0,4.64096,21.48592,-19.53786,12.6,-1.26,4.02,3.0
1758075073.60814,1758075073.49999,0.0,0.0,0.0,6.70361,19.48057,-26.47065,12.6,-1.26,4.02,3.0
1758075073.60905,1758075073.50999,0.0,0.0,0.0,8.42248,15.35527,-28.59059,10.75,-1.65,4.18,3.0
1758075073.62415,1758075073.51999,0.0,0.0,0.0,10.19865,9.11003,-28.87707,8.86,-1.88,4.37,3.0
1758075073.64009,1758075073.52999,0.0,0.0,0.0,11.74564,2.6929,-27.73116,8.86,-1.88,4.37,3.0
1758075073.6411,1758075073.53999,0.0,0.0,0.0,13.5791,-4.64096,-24.86637,7.54,-1.79,4.16,3.0
1758075073.65617,1758075073.54999,0.0,0.0,0.0,15.12609,-7.39116,-22.86102,7.54,-1.79,4.16,3.0
1758075073.67215,1758075073.55999,0.0,0.0,0.0,16.55848,-9.96947,-21.08485,6.99,-1.48,3.87,3.0
1758075073.67313,1758075073.56999,0.0,0.0,0.0,18.22006,-13.34992,-19.59516,6.99,-1.48,3.87,3.0
1758075073.6882,1758075073.57999,0.0,0.0,0.0,20.11082,-19.36597,-18.62113,6.77,-1.02,3.95,3.0
1758075073.68913,1758075073.58999,0.0,0.0,0.0,21.02755,-24.63719,-18.79302,6.77,-0.54,3.94,3.0
1758075073.70405,1758075073.59999,0.0,0.0,0.0,21.6578,-30.36677,-19.59516,6.77,-0.54,3.94,3.0
1758075073.72028,1758075073.60999,0.0,0.0,0.0,21.60051,-36.84119,-20.62648,6.87,-0.1,3.96,3.0
1758075073.72235,1758075073.61999,0.0,0.0,0.0,20.97026,-44.00316,-23.0329,6.87,-0.1,3.96,3.0
1758075073.73702,1758075073.62999,0.0,0.0,0.0,20.22541,-44.86259,-24.5226,7.34,0.07,3.72,3.0
1758075073.73927,1758075073.63999,0.0,0.0,0.0,19.82434,-43.20102,-25.26744,7.34,0.07,3.72,3.0
1758075073.75605,1758075073.64999,0.0,0.0,0.0,19.59516,-40.85189,-24.86637,7.97,-0.08,3.47,3.0
1758075073.77199,1758075073.65999,0.0,0.0,0.0,19.70975,-37.24226,-23.66316,7.97,-0.41,3.29,3.0
1758075073.7757,1758075073.66999,0.0,0.0,0.0,19.70975,-35.2369,-21.48592,7.97,-0.41,3.29,3.0
1758075073.79103,1758075073.67999,0.0,0.0,0.0,20.16812,-31.85646,-19.07949,7.99,-0.68,3.1,3.0
1758075073.79222,1758075073.68999,0.0,0.0,0.0,21.02755,-23.66316,-14.9542,7.99,-0.68,3.1,3.0
1758075073.80727,1758075073.69999,0.0,0.0,0.0,21.48592,-17.47521,-12.83425,8.15,-0.73,2.87,3.0
1758075073.80824,1758075073.70999,0.0,0.0,0.0,22.00158,-10.94349,-11.57375,8.15,-0.73,2.87,3.0
1758075073.82431,1758075073.71999,0.0,0.0,0.0,22.11617,-3.09397,-11.45916,8.01,-0.51,2.68,3.0
1758075073.84115,1758075073.72999,0.0,0.0,0.0,22.23076,4.81285,-11.17268,7.84,-0.51,2.65,3.0
1758075073.84207,1758075073.73999,0.0,0.0,0.0,21.94428,9.96947,-12.43318,7.84,-0.21,2.65,3.0
1758075073.85735,1758075073.74999,0.0,0.0,0.0,21.7724,15.87093,-13.69369,8.12,0.11,2.58,3.0
1758075073.8586,1758075073.75999,0.0,0.0,0.0,21.48592,20.34,-14.78231,8.12,0.11,2.58,3.0
1758075073.8741,1758075073.76999,0.0,0.0,0.0,21.42862,23.49127,-15.98552,8.2,0.14,2.58,3.0
1758075073.89125,1758075073.77999,0.0,0.0,0.0,21.14215,24.23611,-16.10011,8.2,0.14,2.58,3.0
1758075073.89204,1758075073.78999,0.0,0.0,0.0,21.14215,24.17882,-16.272,8.3,0.01,2.68,3.0
1758075073.90735,1758075073.79999,0.0,0.0,0.0,21.08485,23.66316,-16.04282,8.3,0.01,2.68,3.0
1758075073.90832,1758075073.80999,0.0,0.0,0.0,21.02755,21.31403,-14.78231,8.38,-0.1,2.67,3.0
1758075073.92416,1758075073.81999,0.0,0.0,0.0,20.97026,21.42862,-14.15206,8.61,-0.14,2.75,3.0
1758075073.94118,1758075073.82999,0.0,0.0,0.0,20.68378,21.08485,-13.40721,8.61,-0.14,2.75,3.0
1758075073.94215,1758075073.83999,0.0,0.0,0.0,20.34,19.53786,-12.89155,8.7,-0.05,2.78,3.0
1758075073.95715,1758075073.84999,0.0,0.0,0.0,19.59516,16.67307,-12.83425,8.7,-0.05,2.78,3.0
1758075073.95832,1758075073.85999,0.0,0.0,0.0,19.25138,15.29797,-12.77696,8.75,0.21,2.72,3.0
1758075073.97603,1758075073.86999,0.0,0.0,0.0,19.25138,13.06344,-12.2613,8.75,0.21,2.72,3.0
1758075073.99155,1758075073.87999,0.0,0.0,0.0,19.59516,9.39651,-11.22997,8.85,0.4,2.64,3.0
1758075073.99238,1758075073.88999,0.0,0.0,0.0,19.76705,7.16197,-10.08406,8.9,0.39,2.67,3.0
1758075074.00744,1758075073.89999,0.0,0.0,0.0,20.3973,4.58366,-8.70896,8.9,0.39,2.67,3.0
1758075074.00863,1758075073.90999,0.0,0.0,0.0,21.25674,2.29183,-7.10468,8.91,0.27,2.65,3.0
1758075074.03161,1758075073.91999,0.0,0.0,0.0,22.34536,-0.51566,-4.69825,8.91,0.27,2.65,3.0
1758075074.03344,1758075073.92999,0.0,0.0,0.0,23.20479,-1.3178,-3.20856,9.11,0.16,2.67,3.0
1758075074.0523,1758075073.93999,0.0,0.0,0.0,24.00693,-1.20321,-1.66158,9.11,0.16,2.67,3.0
1758075074.05343,1758075073.94999,0.0,0.0,0.0,24.5226,-0.80214,-0.51566,9.33,0.11,2.63,3.0
1758075074.06853,1758075073.95999,0.0,0.0,0.0,25.55392,1.71887,0.80214,9.44,0.16,2.62,3.0
1758075074.06943,1758075073.96999,0.0,0.0,0.0,26.12688,4.69825,1.3751,9.44,0.16,2.62,3.0
1758075074.0845,1758075073.97999,0.0,0.0,0.0,26.47065,7.62034,1.43239,9.56,0.29,2.58,3.0
1758075074.10054,1758075073.98999,0.0,0.0,0.0,26.87172,10.71431,1.60428,9.56,0.29,2.58,3.0
1758075074.10143,1758075073.99999,0.0,0.0,0.0,26.47065,14.43854,1.08862,9.58,0.49,2.49,3.0
1758075074.11629,1758075074.00999,0.0,0.0,0.0,26.35606,16.21471,0.80214,9.58,0.49,2.49,3.0
1758075074.13248,1758075074.01999,0.0,0.0,0.0,25.61122,18.22006,0.51566,9.55,0.72,2.34,3.0
1758075074.13347,1758075074.02999,0.0,0.0,0.0,24.80907,20.22541,0.45837,9.55,0.72,2.34,3.0
1758075074.14832,1758075074.03999,0.0,0.0,0.0,23.0902,21.02755,1.48969,9.62,0.91,2.32,3.0
1758075074.14948,1758075074.04999,0.0,0.0,0.0,21.48592,19.07949,1.60428,9.36,1.04,2.5,3.0
1758075074.16452,1758075074.05999,0.0,0.0,0.0,19.25138,13.86558,1.60428,9.36,1.04,2.5,3.0
1758075074.18059,1758075074.06999,0.0,0.0,0.0,15.24068,9.05273,2.34913,8.9,1.23,2.44,3.0
1758075074.18156,1758075074.07999,0.0,0.0,0.0,12.49048,-0.0573,2.86479,8.9,1.23,2.44,3.0
1758075074.19662,1758075074.08999,0.0,0.0,0.0,9.62569,-6.24524,4.29718,8.84,1.39,2.33,3.0
1758075074.2126,1758075074.09999,0.0,0.0,0.0,5.15662,-9.33921,3.26586,8.84,1.39,2.33,3.0
1758075074.21356,1758075074.10999,0.0,0.0,0.0,-0.22918,-15.69904,2.86479,9.04,1.62,2.48,3.0
1758075074.2286,1758075074.11999,0.0,0.0,0.0,-4.1253,-17.99088,0.40107,9.3,1.95,2.41,3.0
1758075074.22957,1758075074.12999,0.0,0.0,0.0,-7.79223,-18.10547,-1.94806,9.3,1.95,2.41,3.0
1758075074.24444,1758075074.13999,0.0,0.0,0.0,-11.80293,-16.04282,-4.35448,9.99,2.31,2.51,3.0
1758075074.26043,1758075074.14999,0.0,0.0,0.0,-16.90226,-17.36062,-7.67763,9.99,2.31,2.51,3.0
1758075074.2616,1758075074.15999,0.0,0.0,0.0,-20.22541,-18.22006,-9.39651,9.87,2.43,2.44,3.0
1758075074.27652,1758075074.16999,0.0,0.0,0.0,-22.57454,-15.06879,-9.28192,9.87,2.43,2.44,3.0
1758075074.2925,1758075074.17999,0.0,0.0,0.0,-25.43933,-17.53251,-8.99544,10.24,2.34,2.46,3.0
1758075074.29359,1758075074.18999,0.0,0.0,0.0,-26.24147,-57.81144,-7.21927,8.58,2.27,3.89,3.0
1758075074.30948,1758075074.19999,0.0,0.0,0.0,-28.76248,-76.26069,-9.4538,8.58,2.27,3.89,3.0
1758075074.31071,1758075074.20999,0.0,0.0,0.0,-32.20023,-55.06125,-18.73572,13.02,2.64,3.78,3.0
1758075074.32545,1758075074.21999,0.0,0.0,0.0,-32.77319,-24.86637,-22.86102,13.02,2.64,3.78,3.0
1758075074.34177,1758075074.22999,0.0,0.0,0.0,-31.79916,3.60963,-30.13758,15.55,2.32,3.94,3.0
1758075074.34265,1758075074.23999,0.0,0.0,0.0,-30.25217,10.48513,-31.11161,15.55,2.32,3.94,3.0
1758075074.3577,1758075074.24999,0.0,0.0,0.0,-28.01764,18.10547,-28.70519,13.43,1.14,3.75,3.0
1758075074.3586,1758075074.25999,0.0,0.0,0.0,-26.41335,25.26744,-23.37668,13.43,1.14,3.75,3.0
1758075074.37448,1758075074.26999,0.0,0.0,0.0,-24.23611,33.46074,-13.98017,13.77,-0.12,3.67,3.0
1758075074.39093,1758075074.27999,0.0,0.0,0.0,-22.63183,40.27893,-7.10468,13.99,-0.19,3.95,3.0
1758075074.39174,1758075074.28999,0.0,0.0,0.0,-21.31403,46.69606,-1.3178,13.99,-0.19,3.95,3.0
1758075074.40673,1758075074.29999,0.0,0.0,0.0,-20.74107,52.48294,5.21392,13.92,0.37,4.01,3.0
1758075074.42275,1758075074.30999,0.0,0.0,0.0,-21.7151,51.5662,7.44845,13.92,0.37,4.01,3.0
1758075074.424,1758075074.31999,0.0,0.0,0.0,-23.0329,49.15978,8.0787,12.85,1.1,4.34,3.0
1758075074.43875,1758075074.32999,0.0,0.0,0.0,-24.63719,45.83662,7.39116,12.85,1.1,4.34,3.0
1758075074.43971,1758075074.33999,0.0,0.0,0.0,-27.1582,39.4768,4.46907,11.7,1.51,4.4,3.0
1758075074.45448,1758075074.34999,0.0,0.0,0.0,-29.22085,34.14828,2.00535,10.13,1.37,4.43,3.0
1758075074.47052,1758075074.35999,0.0,0.0,0.0,-31.2262,27.61657,-0.11459,10.13,1.37,4.43,3.0
1758075074.47198,1758075074.36999,0.0,0.0,0.0,-33.40344,22.63183,-1.77617,8.35,0.93,4.27,3.0
1758075074.48672,1758075074.37999,0.0,0.0,0.0,-37.12767,16.67307,-3.95341,8.35,0.93,4.27,3.0
1758075074.50276,1758075074.38999,0.0,0.0,0.0,-39.64868,12.83425,-4.87014,7.17,0.52,4.25,3.0
1758075074.50375,1758075074.39999,0.0,0.0,0.0,-41.99781,8.30789,-5.27121,7.17,0.52,4.25,3.0
1758075074.51879,1758075074.40999,0.0,0.0,0.0,-44.11775,2.29183,-5.27121,6.38,0.31,4.42,3.0
1758075074.52019,1758075074.41999,0.0,0.0,0.0,-46.98254,-9.4538,-3.83882,5.96,0.16,4.49,3.0
1758075074.53458,1758075074.42999,0.0,0.0,0.0,-48.07116,-17.24603,-2.11994,5.96,0.16,4.49,3.0
1758075074.55058,1758075074.43999,0.0,0.0,0.0,-48.70141,-24.57989,0.0,6.2,-0.05,4.34,3.0
1758075074.55178,1758075074.44999,0.0,0.0,0.0,-48.75871,-32.25753,2.29183,6.2,-0.05,4.34,3.0
1758075074.56655,1758075074.45999,0.0,0.0,0.0,-47.67009,-44.11775,5.61499,6.31,-0.41,4.13,3.0
1758075074.58259,1758075074.46999,0.0,0.0,0.0,-46.1231,-50.2484,7.50575,6.31,-0.41,4.13,3.0
1758075074.58377,1758075074.47999,0.0,0.0,0.0,-44.40423,-55.06125,8.88085,6.68,-0.81,3.75,3.0
1758075074.59853,1758075074.48999,0.0,0.0,0.0,-41.08107,-58.09792,9.4538,6.68,-0.81,3.75,3.0
1758075074.60217,1758075074.49999,0.0,0.0,0.0,-38.84654,-57.86874,8.93814,7.16,-1.12,3.4,3.0
1758075074.61747,1758075074.50999,0.0,0.0,0.0,-36.89849,-56.26446,7.21927,7.69,-1.14,3.23,3.0
1758075074.62031,1758075074.51999,0.0,0.0,0.0,-35.12231,-54.3737,4.87014,7.69,-1.14,3.23,3.0
1758075074.63553,1758075074.52999,0.0,0.0,0.0,-32.77319,-49.90463,1.08862,7.78,-1.0,3.2,3.0
1758075074.71681,1758075074.53999,0.0,0.0,0.0,-31.39809,-46.1231,-0.85944,7.78,-1.0,3.2,3.0
1758075074.72445,1758075074.54999,0.0,0.0,0.0,-29.62192,-41.42485,-2.29183,8.0,-0.96,3.06,3.0
1758075074.72665,1758075074.55999,0.0,0.0,0.0,-28.01764,-35.75257,-2.6929,8.0,-0.96,3.06,3.0
1758075074.72836,1758075074.56999,0.0,0.0,0.0,-25.26744,-27.50197,-2.06265,8.25,-1.06,2.88,3.0
1758075074.7316,1758075074.57999,0.0,0.0,0.0,-23.60586,-22.11617,-0.51566,8.33,-1.11,2.71,3.0
1758075074.75463,1758075074.58999,0.0,0.0,0.0,-21.7151,-16.90226,1.3178,8.33,-1.11,2.71,3.0
1758075074.75614,1758075074.59999,0.0,0.0,0.0,-20.34,-11.80293,3.09397,8.34,-0.99,2.61,3.0
1758075074.75733,1758075074.60999,0.0,0.0,0.0,-18.73572,-3.95341,5.27121,8.34,-0.99,2.61,3.0
1758075074.76167,1758075074.61999,0.0,0.0,0.0,-17.87628,0.74485,5.95876,8.4,-0.76,2.64,3.0
1758075074.7624,1758075074.62999,0.0,0.0,0.0,-17.36062,4.92744,6.13065,8.4,-0.76,2.64,3.0
1758075074.76376,1758075074.63999,0.0,0.0,0.0,-16.84496,8.36518,5.55769,8.52,-0.53,2.67,3.0
1758075074.76419,1758075074.64999,0.0,0.0,0.0,-16.10011,12.43318,4.29718,8.71,-0.44,2.66,3.0
1758075074.76539,1758075074.65999,0.0,0.0,0.0,-15.87093,14.49583,3.38045,8.71,-0.44,2.66,3.0
1758075074.78157,1758075074.66999,0.0,0.0,0.0,-15.64175,16.84496,2.23454,8.93,-0.45,2.68,3.0
1758075074.78323,1758075074.67999,0.0,0.0,0.0,-15.41257,19.13679,0.85944,8.93,-0.45,2.68,3.0
1758075074.79791,1758075074.68999,0.0,0.0,0.0,-15.69904,21.7151,-0.11459,9.08,-0.45,2.73,3.0
1758075074.79921,1758075074.69999,0.0,0.0,0.0,-16.04282,22.91831,-1.08862,9.08,-0.45,2.73,3.0
1758075074.81587,1758075074.70999,0.0,0.0,0.0,-16.73037,23.94964,-2.29183,9.07,-0.36,2.8,3.0
1758075074.83203,1758075074.71999,0.0,0.0,0.0,-17.6471,25.49662,-3.72423,9.07,-0.36,2.8,3.0
1758075074.8357,1758075074.72999,0.0,0.0,0.0,-18.33465,25.21014,-4.52637,9.09,-0.29,2.89,3.0
1758075074.85113,1758075074.73999,0.0,0.0,0.0,-19.13679,23.66316,-5.27121,8.9,-0.29,2.9,3.0
1758075074.85248,1758075074.74999,0.0,0.0,0.0,-19.99623,20.74107,-5.95876,8.9,-0.29,2.9,3.0
1758075074.86708,1758075074.75999,0.0,0.0,0.0,-20.45459,16.50119,-6.53172,8.85,-0.35,2.95,3.0
1758075074.88285,1758075074.76999,0.0,0.0,0.0,-20.22541,13.75099,-6.35983,8.85,-0.35,2.95,3.0
1758075074.88433,1758075074.77999,0.0,0.0,0.0,-19.88164,10.65701,-5.50039,8.88,-0.5,2.9,3.0
1758075074.89912,1758075074.78999,0.0,0.0,0.0,-19.48057,8.30789,-4.58366,8.88,-0.5,2.9,3.0
1758075074.90083,1758075074.79999,0.0,0.0,0.0,-18.79302,5.72958,-3.89611,8.83,-0.66,2.74,3.0
1758075074.91609,1758075074.80999,0.0,0.0,0.0,-18.56383,3.83882,-4.18259,8.82,-0.64,2.69,3.0
1758075074.93199,1758075074.81999,0.0,0.0,0.0,-18.62113,1.48969,-5.4431,8.82,-0.64,2.69,3.0
1758075074.933,1758075074.82999,0.0,0.0,0.0,-18.79302,-0.97403,-7.16197,8.72,-0.45,2.67,3.0
1758075074.94789,1758075074.83999,0.0,0.0,0.0,-19.19409,-2.23454,-10.59972,8.72,-0.45,2.67,3.0
1758075074.94905,1758075074.84999,0.0,0.0,0.0,-19.88164,-4.35448,-13.46451,8.85,-0.25,2.62,3.0
1758075074.96514,1758075074.85999,0.0,0.0,0.0,-20.68378,-7.21927,-15.24068,8.85,-0.25,2.62,3.0
1758075074.98115,1758075074.86999,0.0,0.0,0.0,-21.42862,-7.84952,-16.50119,8.86,-0.15,2.58,3.0
1758075074.98209,1758075074.87999,0.0,0.0,0.0,-23.0329,-9.11003,-16.61578,9.22,-0.25,2.51,3.0
1758075074.99717,1758075074.88999,0.0,0.0,0.0,-24.17882,-6.70361,-16.3293,9.22,-0.25,2.51,3.0
1758075075.01321,1758075074.89999,0.0,0.0,0.0,-25.26744,-4.18259,-15.92823,9.46,-0.38,2.33,3.0
1758075075.01413,1758075074.90999,0.0,0.0,0.0,-26.52795,-1.3751,-15.41257,9.46,-0.38,2.33,3.0
1758075075.02921,1758075074.91999,0.0,0.0,0.0,-27.2155,2.40642,-15.35527,9.42,-0.43,2.28,3.0
1758075075.03012,1758075074.92999,0.0,0.0,0.0,-27.67386,5.09932,-15.64175,9.42,-0.43,2.28,3.0
1758075075.04526,1758075074.93999,0.0,0.0,0.0,-27.67386,8.42248,-15.75634,9.39,-0.47,2.16,3.0
1758075075.06229,1758075074.94999,0.0,0.0,0.0,-27.44468,13.12073,-16.55848,9.39,-0.47,2.16,3.0
1758075075.06633,1758075074.95999,0.0,0.0,0.0,-27.33009,15.58445,-17.53251,9.52,-0.45,2.11,3.0
1758075075.0819,1758075074.96999,0.0,0.0,0.0,-26.81443,19.70975,-18.16276,9.72,-0.38,2.17,3.0
1758075075.08347,1758075074.97999,0.0,0.0,0.0,-25.61122,25.72581,-18.22006,9.72,-0.38,2.17,3.0
1758075075.10122,1758075074.98999,0.0,0.0,0.0,-23.89234,24.63719,-17.47521,9.69,-0.45,2.28,3.0
1758075075.10222,1758075074.99999,0.0,0.0,0.0,-22.28806,17.30333,-16.67307,9.69,-0.45,2.28,3.0
1758075075.11724,1758075075.00999,0.0,0.0,0.0,-20.34,8.65166,-15.58445,8.62,-0.72,2.24,3.0
1758075075.13309,1758075075.01999,0.0,0.0,0.0,-17.24603,0.57296,-14.20935,8.62,-0.72,2.24,3.0
1758075075.13416,1758075075.02999,0.0,0.0,0.0,-11.91752,-11.45916,-11.51645,8.59,-1.06,2.02,3.0
1758075075.15037,1758075075.03999,0.0,0.0,0.0,-8.0787,-19.82434,-9.33921,8.58,-1.16,1.61,3.0
1758075075.15118,1758075075.04999,0.0,0.0,0.0,-3.83882,-26.52795,-7.33386,8.58,-1.16,1.61,3.0
1758075075.16603,1758075075.05999,0.0,0.0,0.0,0.57296,-32.6013,-5.61499,8.83,-1.05,1.33,3.0
1758075075.18202,1758075075.06999,0.0,0.0,0.0,6.53172,-46.81066,-4.46907,8.83,-1.05,1.33,3.0
1758075075.18322,1758075075.07999,0.0,0.0,0.0,8.99544,-56.32175,-4.35448,8.18,-0.82,0.8,3.0
1758075075.198,1758075075.08999,0.0,0.0,0.0,11.51645,-52.9986,-7.16197,8.18,-0.82,0.8,3.0
1758075075.19996,1758075075.09999,0.0,0.0,0.0,16.272,-37.47144,-7.67763,9.47,-0.85,0.42,3.0
1758075075.21527,1758075075.10999,0.0,0.0,0.0,21.37133,-13.5218,-10.19865,11.44,-1.11,2.18,3.0
1758075075.23133,1758075075.11999,0.0,0.0,0.0,22.63183,-0.34377,-10.94349,11.44,-1.11,2.18,3.0
1758075075.2325,1758075075.12999,0.0,0.0,0.0,20.79837,4.69825,-10.8862,12.85,-1.32,4.27,3.0
1758075075.24707,1758075075.13999,0.0,0.0,0.0,16.21471,-32.25753,-7.39116,12.85,-1.32,4.27,3.0
1758075075.26363,1758075075.14999,0.0,0.0,0.0,14.20935,-74.02615,-1.48969,11.77,-0.55,6.89,3.0
1758075075.26429,1758075075.15999,0.0,0.0,0.0,9.11003,-104.85127,14.43854,11.77,-0.55,6.89,3.0
1758075075.2794,1758075075.16999,0.0,0.0,0.0,2.11994,-100.72599,26.06958,13.3,1.3,3.81,3.0
1758075075.28065,1758075075.17999,0.0,0.0,0.0,-10.94349,-69.95815,32.08564,13.3,1.3,3.74,3.0
1758075075.29533,1758075075.18999,0.0,0.0,0.0,-21.60051,-56.20716,28.41871,13.64,1.99,3.74,3.0
1758075075.31134,1758075075.19999,0.0,0.0,0.0,-34.37747,-50.93595,18.44924,8.28,2.22,3.4,3.0
1758075075.31229,1758075075.20999,0.0,0.0,0.0,-41.36755,-51.27972,11.00079,8.28,2.22,3.4,3.0
1758075075.32739,1758075075.21999,0.0,0.0,0.0,-46.00851,-42.39888,0.68755,7.88,0.5,2.11,3.0
1758075075.3434,1758075075.22999,0.0,0.0,0.0,-47.32632,-37.52874,-6.87549,7.88,0.5,2.11,3.0
1758075075.34468,1758075075.23999,0.0,0.0,0.0,-47.03984,-35.58068,-13.23533,8.61,-0.16,1.93,3.0
1758075075.35935,1758075075.24999,0.0,0.0,0.0,-45.83662,-33.51803,-17.87628,8.61,-0.16,1.93,3.0
1758075075.36057,1758075075.25999,0.0,0.0,0.0,-41.94051,-31.11161,-20.68378,9.01,-0.42,3.02,3.0
1758075075.3752,1758075075.26999,0.0,0.0,0.0,-38.56006,-27.96034,-19.82434,8.94,-0.9,3.15,3.0
1758075075.39124,1758075075.27999,0.0,0.0,0.0,-34.77854,-24.5226,-17.53251,8.94,-0.9,3.15,3.0
1758075075.39236,1758075075.28999,0.0,0.0,0.0,-31.16891,-21.88699,-13.98017,8.67,-1.17,3.23,3.0
1758075075.40736,1758075075.29999,0.0,0.0,0.0,-26.52795,-16.272,-7.04738,8.67,-1.17,3.23,3.0
1758075075.42322,1758075075.30999,0.0,0.0,0.0,-24.35071,-9.85487,-2.57831,9.24,-1.08,3.23,3.0
1758075075.42393,1758075075.31999,0.0,0.0,0.0,-23.0329,-2.7502,1.48969,9.24,-1.08,3.23,3.0
1758075075.43946,1758075075.32999,0.0,0.0,0.0,-22.34536,3.89611,6.18794,10.12,-0.62,2.92,3.0
1758075075.44064,1758075075.33999,0.0,0.0,0.0,-22.57454,14.49583,7.62034,10.39,-0.09,2.55,3.0
1758075075.45543,1758075075.34999,0.0,0.0,0.0,-23.0902,21.88699,8.47978,10.39,-0.09,2.55,3.0
1758075075.47133,1758075075.35999,0.0,0.0,0.0,-24.12152,28.64789,8.136,10.37,0.31,2.39,3.0
1758075075.47242,1758075075.36999,0.0,0.0,0.0,-26.06958,35.40879,5.55769,10.37,0.31,2.39,3.0
1758075075.48733,1758075075.37999,0.0,0.0,0.0,-27.38738,36.38282,3.60963,9.98,0.55,2.43,3.0
1758075075.50325,1758075075.38999,0.0,0.0,0.0,-28.76248,35.69527,1.08862,9.98,0.55,2.43,3.0
1758075075.504,1758075075.39999,0.0,0.0,0.0,-30.02299,34.60666,-0.97403,9.92,0.57,2.41,3.0
1758075075.51951,1758075075.40999,0.0,0.0,0.0,-31.85646,30.82513,-3.83882,10.1,0.57,2.32,3.0
1758075075.52043,1758075075.41999,0.0,0.0,0.0,-33.40344,27.38738,-5.95876,10.1,0.37,2.32,3.0
1758075075.53551,1758075075.42999,0.0,0.0,0.0,-35.06502,22.68913,-7.84952,9.91,0.14,2.29,3.0
1758075075.55154,1758075075.43999,0.0,0.0,0.0,-36.61201,17.76169,-10.25595,9.91,0.14,2.29,3.0
1758075075.55274,1758075075.44999,0.0,0.0,0.0,-38.56006,10.8862,-12.08941,9.55,0.05,2.08,3.0
1758075075.56725,1758075075.45999,0.0,0.0,0.0,-39.64868,8.76626,-12.77696,9.55,0.05,2.08,3.0
1758075075.58354,1758075075.46999,0.0,0.0,0.0,-40.62271,8.47978,-12.89155,9.61,0.09,2.02,3.0
1758075075.58395,1758075075.47999,0.0,0.0,0.0,-41.48215,8.99544,-12.83425,9.61,0.09,2.02,3.0
1758075075.60054,1758075075.48999,0.0,0.0,0.0,-42.57077,10.02676,-12.08941,9.62,0.14,2.05,3.0
1758075075.60154,1758075075.49999,0.0,0.0,0.0,-42.97184,10.94349,-11.22997,9.5,0.22,1.96,3.0
1758075075.61644,1758075075.50999,0.0,0.0,0.0,-43.4875,13.06344,-10.25595,9.5,0.22,1.96,3.0
1758075075.63242,1758075075.51999,0.0,0.0,0.0,-43.77398,15.58445,-9.22462,9.53,0.21,1.89,3.0
1758075075.63493,1758075075.52999,0.0,0.0,0.0,-43.77398,19.19409,-8.36518,9.53,0.21,1.89,3.0
1758075075.65165,1758075075.53999,0.0,0.0,0.0,-43.37291,20.51189,-7.79223,9.47,0.1,1.81,3.0
1758075075.65341,1758075075.54999,0.0,0.0,0.0,-43.02913,21.60051,-7.39116,9.47,0.1,1.81,3.0
1758075075.66854,1758075075.55999,0.0,0.0,0.0,-42.57077,22.63183,-6.35983,9.49,-0.03,1.71,3.0
1758075075.66955,1758075075.56999,0.0,0.0,0.0,-42.05511,21.08485,-6.41713,9.43,-0.17,1.66,3.0
1758075075.68568,1758075075.57999,0.0,0.0,0.0,-41.59674,19.99623,-5.90147,9.43,-0.17,1.66,3.0
1758075075.70163,1758075075.58999,0.0,0.0,0.0,-41.71133,18.50654,-6.07335,9.53,-0.18,1.59,3.0
1758075075.70255,1758075075.59999,0.0,0.0,0.0,-42.05511,14.83961,-5.95876,9.53,-0.18,1.59,3.0
1758075075.71772,1758075075.60999,0.0,0.0,0.0,-42.62806,12.08941,-6.07335,9.49,-0.01,1.51,3.0
1758075075.71855,1758075075.61999,0.0,0.0,0.0,-43.37291,12.14671,-5.84417,9.49,-0.01,1.51,3.0
1758075075.734,1758075075.62999,0.0,0.0,0.0,-44.23235,12.49048,-5.32851,9.7,0.22,1.48,3.0
1758075075.74939,1758075075.63999,0.0,0.0,0.0,-45.37826,9.22462,-4.64096,9.53,0.44,1.52,3.0
1758075075.75218,1758075075.64999,0.0,0.0,0.0,-46.69606,4.23989,-4.52637,9.53,0.44,1.52,3.0
1758075075.76774,1758075075.65999,0.0,0.0,0.0,-48.07116,-4.0107,-4.18259,9.2,0.66,1.31,3.0
1758075075.76861,1758075075.66999,0.0,0.0,0.0,-50.53488,-10.71431,-3.09397,9.2,0.66,1.31,3.0
1758075075.78398,1758075075.67999,0.0,0.0,0.0,-56.20716,-16.67307,-4.46907,9.22,1.02,1.02,3.0
1758075075.79942,1758075075.68999,0.0,0.0,0.0,-61.30648,-20.51189,-6.18794,9.22,1.02,1.02,3.0
1758075075.80056,1758075075.69999,0.0,0.0,0.0,-66.635,-24.12152,-8.136,9.1,1.4,0.96,3.0
1758075075.81569,1758075075.70999,0.0,0.0,0.0,-71.90621,-26.06958,-10.94349,9.1,1.4,0.96,3.0
1758075075.83165,1758075075.71999,0.0,0.0,0.0,-79.12547,-31.45539,-14.66772,8.97,1.72,0.52,3.0
1758075075.83302,1758075075.72999,0.0,0.0,0.0,-82.67782,-41.88322,-15.64175,8.29,1.62,0.11,3.0
1758075075.8477,1758075075.73999,0.0,0.0,0.0,-85.14153,-51.90998,-16.21471,8.29,1.62,0.11,3.0
1758075075.84898,1758075075.74999,0.0,0.0,0.0,-87.71984,-60.67623,-15.41257,8.06,1.45,-0.32,3.0
1758075075.864,1758075075.75999,0.0,0.0,0.0,-89.83979,-67.66632,-14.20935,8.06,1.45,-0.32,3.0
1758075075.87957,1758075075.76999,0.0,0.0,0.0,-90.92841,-44.40423,-11.97482,9.45,1.21,-0.25,3.0
1758075075.88102,1758075075.77999,0.0,0.0,0.0,-92.76187,-9.22462,-10.8289,9.45,1.21,-0.25,3.0
1758075075.89549,1758075075.78999,0.0,0.0,0.0,-100.38221,-31.97105,-14.78231,12.33,1.08,1.32,3.0
1758075075.91154,1758075075.79999,0.0,0.0,0.0,-101.92919,-49.50356,-13.46451,9.79,1.0,3.24,3.0
1758075075.91274,1758075075.80999,0.0,0.0,0.0,-104.79399,-88.17821,-20.45459,9.79,1.0,3.24,3.0
1758075075.92777,1758075075.81999,0.0,0.0,0.0,-107.54418,-97.05905,-33.40344,12.17,-0.69,2.61,3.0
1758075075.92871,1758075075.82999,0.0,0.0,0.0,-102.33027,-60.16057,-45.60744,12.17,-0.69,2.61,3.0
1758075075.94394,1758075075.83999,0.0,0.0,0.0,-97.11635,-36.84119,-51.27972,17.31,-2.86,2.5,3.0
1758075075.9598,1758075075.84999,0.0,0.0,0.0,-89.43871,-15.58445,-53.11319,17.31,-2.86,2.5,3.0
1758075075.96117,1758075075.85999,0.0,0.0,0.0,-79.98491,2.97938,-51.22243,13.08,-3.58,1.22,3.0
1758075075.97556,1758075075.86999,0.0,0.0,0.0,-65.66096,11.51645,-43.14373,8.41,-3.41,1.74,3.0
1758075075.99185,1758075075.87999,0.0,0.0,0.0,-56.66553,9.05273,-35.86716,8.41,-3.41,1.74,3.0
1758075075.99316,1758075075.88999,0.0,0.0,0.0,-48.41494,7.79223,-27.38738,7.53,-3.05,1.88,3.0
1758075076.00787,1758075075.89999,0.0,0.0,0.0,-42.39888,7.73493,-19.88164,7.53,-3.05,1.88,3.0
1758075076.00917,1758075075.90999,0.0,0.0,0.0,-36.84119,10.59972,-10.25595,9.92,-2.0,2.46,3.0
1758075076.02385,1758075075.91999,0.0,0.0,0.0,-35.06502,12.77696,-5.21392,9.92,-2.0,2.46,3.0
1758075076.03984,1758075075.92999,0.0,0.0,0.0,-35.52338,11.91752,-2.06265,11.36,-0.66,2.58,3.0
1758075076.04123,1758075075.93999,0.0,0.0,0.0,-38.1017,8.42248,0.17189,11.36,-0.66,2.58,3.0
1758075076.05557,1758075075.94999,0.0,0.0,0.0,-44.28964,4.64096,0.45837,10.61,0.31,2.37,3.0
1758075076.0721,1758075075.95999,0.0,0.0,0.0,-49.04519,4.69825,0.22918,10.29,0.69,2.4,3.0
1758075076.07334,1758075075.96999,0.0,0.0,0.0,-54.08722,5.4431,-0.17189,10.29,0.69,2.4,3.0
1758075076.08791,1758075075.97999,0.0,0.0,0.0,-61.36378,5.90147,-1.60428,9.92,0.61,2.56,3.0
1758075076.08912,1758075075.98999,0.0,0.0,0.0,-65.83286,5.21392,-2.92208,9.92,0.61,2.56,3.0
1758075076.10393,1758075075.99999,0.0,0.0,0.0,-70.30193,5.27121,-4.46907,9.33,0.22,2.48,3.0
1758075076.11972,1758075076.00999,0.0,0.0,0.0,-74.65641,6.47442,-6.18794,9.33,0.22,2.48,3.0
1758075076.12115,1758075076.01999,0.0,0.0,0.0,-80.61517,9.85487,-8.93814,9.23,-0.23,2.24,3.0
1758075076.13599,1758075076.02999,0.0,0.0,0.0,-84.11021,12.83425,-10.8289,9.35,-0.52,2.13,3.0
1758075076.15196,1758075076.03999,0.0,0.0,0.0,-86.91771,15.92823,-12.54778,9.35,-0.52,2.13,3.0
1758075076.1529,1758075076.04999,0.0,0.0,0.0,-88.92306,19.25138,-14.09476,9.66,-0.82,1.98,3.0
1758075076.16865,1758075076.05999,0.0,0.0,0.0,-89.55331,24.5226,-15.24068,9.66,-0.82,1.98,3.0
1758075076.16994,1758075076.06999,0.0,0.0,0.0,-88.69387,27.10091,-15.35527,10.01,-1.28,1.76,3.0
1758075076.18492,1758075076.07999,0.0,0.0,0.0,-86.74582,30.25217,-14.61043,10.01,-1.28,1.76,3.0
1758075076.20079,1758075076.08999,0.0,0.0,0.0,-84.05292,33.80451,-12.77696,10.07,-1.83,1.43,3.0
1758075076.20193,1758075076.09999,0.0,0.0,0.0,-79.29736,36.6693,-10.08406,10.01,-2.35,1.23,3.0
1758075076.21678,1758075076.10999,0.0,0.0,0.0,-75.85962,37.29956,-8.0787,10.01,-2.35,1.23,3.0
1758075076.21794,1758075076.11999,0.0,0.0,0.0,-72.30728,38.44547,-6.18794,10.07,-2.63,1.38,3.0
1758075076.23376,1758075076.12999,0.0,0.0,0.0,-68.58305,37.18496,-4.92744,10.07,-2.63,1.38,3.0
1758075076.24974,1758075076.13999,0.0,0.0,0.0,-62.79618,29.96569,-2.40642,9.77,-2.58,1.58,3.0
1758075076.2518,1758075076.14999,0.0,0.0,0.0,-59.12925,23.94964,-0.74485,9.77,-2.58,1.58,3.0
1758075076.26704,1758075076.15999,0.0,0.0,0.0,-56.03527,18.22006,0.85944,9.47,-2.23,1.83,3.0
1758075076.26824,1758075076.16999,0.0,0.0,0.0,-52.19646,12.77696,3.20856,9.47,-2.23,1.83,3.0
1758075076.28406,1758075076.17999,0.0,0.0,0.0,-50.1911,10.8862,4.35448,9.38,-1.8,1.91,3.0
1758075076.29983,1758075076.18999,0.0,0.0,0.0,-48.07116,10.02676,5.21392,9.49,-1.63,1.87,3.0
1758075076.30099,1758075076.19999,0.0,0.0,0.0,-46.2377,9.96947,6.13065,9.49,-1.63,1.87,3.0
1758075076.31609,1758075076.20999,0.0,0.0,0.0,-43.77398,12.204,6.35983,9.53,-1.64,1.79,3.0
1758075076.33211,1758075076.21999,0.0,0.0,0.0,-42.1124,13.34992,6.18794,9.53,-1.64,1.79,3.0
1758075076.33302,1758075076.22999,0.0,0.0,0.0,-40.85189,12.89155,5.32851,9.32,-1.64,1.72,3.0
1758075076.34792,1758075076.23999,0.0,0.0,0.0,-39.87786,12.43318,4.1253,9.32,-1.64,1.72,3.0
1758075076.34903,1758075076.24999,0.0,0.0,0.0,-38.21629,10.8289,1.08862,9.1,-1.62,1.68,3.0
1758075076.36411,1758075076.25999,0.0,0.0,0.0,-37.01308,9.68299,-1.03132,9.03,-1.61,1.7,3.0
1758075076.38012,1758075076.26999,0.0,0.0,0.0,-35.63798,8.30789,-3.20856,9.03,-1.61,1.7,3.0
1758075076.38106,1758075076.27999,0.0,0.0,0.0,-33.80451,6.8182,-4.98473,9.01,-1.65,1.67,3.0
1758075076.39613,1758075076.28999,0.0,0.0,0.0,-30.02299,5.84417,-6.8182,9.01,-1.65,1.67,3.0
1758075076.41222,1758075076.29999,0.0,0.0,0.0,-27.10091,6.47442,-7.33386,9.09,-1.75,1.61,3.0
1758075076.41304,1758075076.30999,0.0,0.0,0.0,-23.72045,7.73493,-7.50575,9.09,-1.75,1.61,3.0
1758075076.42816,1758075076.31999,0.0,0.0,0.0,-20.51189,9.11003,-7.62034,9.22,-1.87,1.64,3.0
1758075076.42934,1758075076.32999,0.0,0.0,0.0,-15.24068,11.91752,-7.84952,9.26,-1.89,1.75,3.0
1758075076.44471,1758075076.33999,0.0,0.0,0.0,-11.80293,12.71966,-7.84952,9.26,-1.89,1.75,3.0
1758075076.46112,1758075076.34999,0.0,0.0,0.0,-8.76626,12.37589,-8.30789,9.13,-1.84,1.89,3.0
1758075076.46231,1758075076.35999,0.0,0.0,0.0,-6.07335,11.34457,-8.88085,9.13,-1.84,1.89,3.0
1758075076.47686,1758075076.36999,0.0,0.0,0.0,-2.63561,9.91217,-9.05273,9.27,-1.72,1.99,3.0
1758075076.47814,1758075076.37999,0.0,0.0,0.0,-0.17189,8.0787,-9.28192,9.27,-1.72,1.99,3.0
1758075076.49403,1758075076.38999,0.0,0.0,0.0,2.57831,6.87549,-8.47978,9.48,-1.65,2.13,3.0
1758075076.51,1758075076.39999,0.0,0.0,0.0,7.67763,6.18794,-6.53172,9.48,-1.65,2.13,3.0
1758075076.512,1758075076.40999,0.0,0.0,0.0,11.80293,5.32851,-4.52637,9.72,-1.8,2.1,3.0
1758075076.52695,1758075076.41999,0.0,0.0,0.0,16.21471,4.29718,-2.46372,9.71,-1.93,1.9,3.0
1758075076.52817,1758075076.42999,0.0,0.0,0.0,20.62648,2.57831,-0.85944,9.71,-1.93,1.9,3.0
1758075076.54508,1758075076.43999,0.0,0.0,0.0,27.04361,-1.20321,0.22918,9.65,-1.93,1.87,3.0
1758075076.56123,1758075076.44999,0.0,0.0,0.0,30.93972,-6.35983,0.68755,9.65,-1.93,1.87,3.0
1758075076.56254,1758075076.45999,0.0,0.0,0.0,33.80451,-12.60507,0.22918,9.34,-1.71,1.69,3.0
1758075076.57721,1758075076.46999,0.0,0.0,0.0,33.68992,-13.12073,-3.32316,9.34,-1.71,1.69,3.0
1758075076.57812,1758075076.47999,0.0,0.0,0.0,35.92446,-3.60963,-5.4431,9.24,-1.5,1.43,3.0
1758075076.59393,1758075076.48999,0.0,0.0,0.0,38.15899,15.35527,-4.23989,11.18,-1.35,1.58,3.0
1758075076.61102,1758075076.49999,0.0,0.0,0.0,38.15899,33.68992,-5.55769,11.18,-1.35,1.58,3.0
1758075076.61226,1758075076.50999,0.0,0.0,0.0,37.52874,49.84733,-7.21927,11.16,-1.12,2.14,3.0
1758075076.62729,1758075076.51999,0.0,0.0,0.0,35.69527,26.06958,-11.00079,11.16,-1.12,2.14,3.0
1758075076.62818,1758075076.52999,0.0,0.0,0.0,39.99245,-8.70896,-10.25595,6.81,-1.07,1.85,3.0
1758075076.64416,1758075076.53999,0.0,0.0,0.0,42.39888,-33.11696,-5.21392,6.81,-1.07,1.85,3.0
1758075076.66031,1758075076.54999,0.0,0.0,0.0,42.28429,-41.94051,-1.71887,8.78,-1.87,1.79,3.0
1758075076.66158,1758075076.55999,0.0,0.0,0.0,37.64333,-48.07116,5.4431,12.72,-1.16,4.04,3.0
1758075076.67633,1758075076.56999,0.0,0.0,0.0,32.08564,-42.97184,11.91752,12.72,-1.16,4.04,3.0
1758075076.69233,1758075076.57999,0.0,0.0,0.0,23.31938,-34.26288,14.66772,13.69,0.96,4.33,3.0
1758075076.69327,1758075076.58999,0.0,0.0,0.0,14.15206,-26.06958,17.93358,13.69,0.96,4.33,3.0
1758075076.70812,1758075076.59999,0.0,0.0,0.0,10.48513,-18.27736,18.9649,10.71,0.86,1.76,3.0
1758075076.7094,1758075076.60999,0.0,0.0,0.0,5.84417,-8.25059,15.64175,10.71,0.86,1.76,3.0
1758075076.72443,1758075076.61999,0.0,0.0,0.0,2.34913,-2.06265,12.37589,8.53,0.31,1.56,3.0
1758075076.74036,1758075076.62999,0.0,0.0,0.0,-1.83346,0.0,6.7609,8.53,0.31,1.56,3.0
1758075076.74131,1758075076.63999,0.0,0.0,0.0,-4.1253,-1.20321,3.49504,7.28,0.04,1.9,3.0
1758075076.75616,1758075076.64999,0.0,0.0,0.0,-5.61499,-2.40642,0.51566,7.73,-0.46,1.79,3.0
1758075076.77214,1758075076.65999,0.0,0.0,0.0,-6.7609,-3.60963,-1.43239,7.73,-0.46,1.79,3.0
1758075076.7733,1758075076.66999,0.0,0.0,0.0,-7.79223,-4.87014,-4.1253,9.06,-0.9,1.98,3.0
1758075076.7884,1758075076.67999,0.0,0.0,0.0,-8.25059,-5.21392,-5.15662,9.06,-0.9,1.98,3.0
1758075076.78933,1758075076.68999,0.0,0.0,0.0,-8.65166,-5.21392,-5.95876,9.92,-1.3,2.16,3.0
1758075076.80436,1758075076.69999,0.0,0.0,0.0,-8.88085,-4.98473,-6.58902,9.92,-1.3,2.16,3.0
1758075076.8202,1758075076.70999,0.0,0.0,0.0,-8.93814,-2.40642,-7.50575,10.14,-1.51,2.08,3.0
1758075076.82137,1758075076.71999,0.0,0.0,0.0,-8.88085,0.45837,-7.96411,10.46,-1.31,2.15,3.0
1758075076.83629,1758075076.72999,0.0,0.0,0.0,-8.88085,2.40642,-8.47978,10.46,-1.31,2.15,3.0
1758075076.8522,1758075076.73999,0.0,0.0,0.0,-8.59437,2.34913,-9.05273,10.27,-0.91,2.35,3.0
1758075076.85338,1758075076.74999,0.0,0.0,0.0,-8.30789,-0.80214,-10.02676,10.27,-0.91,2.35,3.0
1758075076.86825,1758075076.75999,0.0,0.0,0.0,-7.73493,-3.72423,-10.8289,9.81,-0.59,2.38,3.0
1758075076.8694,1758075076.76999,0.0,0.0,0.0,-6.8182,-6.18794,-11.97482,9.81,-0.59,2.38,3.0
