timeStamp,timeStampAlign,roll,pitch,yaw,gyro_x,gyro_y,gyro_z,acc_x,acc_y,acc_z,flag_num
1758088060.26722,1758087989.84923,0.0,0.0,0.0,-4.35448,-2.23454,9.85487,9.1,0.39,0.06,4.0
1758088060.26844,1758087989.85923,0.0,0.0,0.0,-2.92208,-4.58366,9.62569,8.96,0.3,0.12,4.0
1758088060.33158,1758087989.86923,0.0,0.0,0.0,-1.77617,-5.61499,9.5684,8.96,0.3,0.12,4.0
1758088060.33474,1758087989.87923,0.0,0.0,0.0,-0.74485,-6.41713,9.39651,9.03,0.27,0.18,4.0
1758088060.34086,1758087989.88923,0.0,0.0,0.0,0.11459,-6.87549,9.5684,9.03,0.27,0.18,4.0
1758088060.34535,1758087989.89923,0.0,0.0,0.0,1.20321,-7.96411,9.74028,8.95,0.3,0.19,4.0
1758088060.3464,1758087989.90923,0.0,0.0,0.0,2.00535,-8.65166,10.19865,8.95,0.3,0.19,4.0
1758088060.34766,1758087989.91923,0.0,0.0,0.0,2.63561,-9.4538,10.48513,8.79,0.32,0.06,4.0
1758088060.34827,1758087989.92923,0.0,0.0,0.0,3.55234,-9.85487,10.65701,8.79,0.32,0.06,4.0
1758088060.35064,1758087989.93923,0.0,0.0,0.0,4.58366,-10.71431,10.54242,8.74,0.31,-0.19,4.0
1758088060.36676,1758087989.94923,0.0,0.0,0.0,5.50039,-11.57375,10.54242,8.72,0.33,-0.38,4.0
1758088060.36935,1758087989.95923,0.0,0.0,0.0,6.18794,-12.89155,10.02676,8.72,0.33,-0.38,4.0
1758088060.39071,1758087989.96923,0.0,0.0,0.0,7.10468,-15.46986,9.33921,8.52,0.4,-0.56,4.0
1758088060.39741,1758087989.97923,0.0,0.0,0.0,7.16197,-17.99088,8.59437,8.52,0.4,-0.56,4.0
1758088060.46559,1758087989.98923,0.0,0.0,0.0,7.44845,-20.85567,7.67763,8.4,0.36,-0.35,4.0
1758088060.47567,1758087989.99923,0.0,0.0,0.0,7.79223,-23.72045,6.35983,8.4,0.36,-0.35,4.0
1758088060.47846,1758087990.00923,0.0,0.0,0.0,8.88085,-26.69983,4.58366,9.08,0.02,0.22,4.0
1758088060.5325,1758087990.01923,0.0,0.0,0.0,10.37054,-26.41335,3.60963,10.68,-0.55,1.37,4.0
1758088060.53735,1758087990.02923,0.0,0.0,0.0,12.43318,-24.5226,2.97938,10.68,-0.55,1.37,4.0
1758088060.54707,1758087990.03923,0.0,0.0,0.0,14.61043,-23.31938,2.23454,12.36,-1.08,1.96,4.0
1758088060.55007,1758087990.04923,0.0,0.0,0.0,19.36597,-19.19409,0.40107,12.36,-1.08,1.96,4.0
1758088060.55196,1758087990.05923,0.0,0.0,0.0,23.49127,-19.99623,-0.85944,14.5,-2.04,2.77,4.0
1758088060.55358,1758087990.06923,0.0,0.0,0.0,26.47065,-28.76248,-3.66693,14.5,-2.04,2.77,4.0
1758088060.55705,1758087990.07923,0.0,0.0,0.0,29.39274,-40.04975,-6.41713,15.59,-3.43,2.17,4.0
1758088060.56198,1758087990.08923,0.0,0.0,0.0,34.89313,-26.35606,-5.21392,15.0,-3.14,-0.06,4.0
1758088060.56501,1758087990.09923,0.0,0.0,0.0,39.53409,-5.4431,-0.97403,15.0,-3.14,-0.06,4.0
1758088060.5725,1758087990.10923,0.0,0.0,0.0,42.74266,11.74564,2.92208,12.51,-1.28,-0.47,4.0
1758088060.79763,1758087990.11923,0.0,0.0,0.0,44.748,21.6578,6.70361,12.51,-1.28,-0.47,4.0
1758088060.80177,1758087990.12923,0.0,0.0,0.0,45.26366,23.54857,11.91752,10.32,-0.15,-0.08,4.0
1758088060.80234,1758087990.13923,0.0,0.0,0.0,40.50812,15.12609,12.204,10.32,-0.15,-0.08,4.0
1758088060.80682,1758087990.14923,0.0,0.0,0.0,35.52338,3.03668,12.60507,11.38,0.0,0.32,4.0
1758088060.8074,1758087990.15923,0.0,0.0,0.0,24.98096,-5.72958,11.00079,11.38,0.0,0.32,4.0
1758088060.81671,1758087990.16923,0.0,0.0,0.0,17.30333,-5.4431,9.39651,13.19,-0.24,0.41,4.0
1758088060.81722,1758087990.17923,0.0,0.0,0.0,9.96947,-0.80214,6.58902,12.57,-0.22,0.41,4.0
1758088060.81847,1758087990.18923,0.0,0.0,0.0,5.09932,11.17268,4.98473,12.57,-0.22,0.41,4.0
1758088060.81909,1758087990.19923,0.0,0.0,0.0,0.68755,19.13679,4.92744,11.81,0.02,0.99,4.0
1758088060.82224,1758087990.20923,0.0,0.0,0.0,-1.14592,17.6471,5.72958,11.81,0.02,0.99,4.0
1758088060.8244,1758087990.21923,0.0,0.0,0.0,-2.86479,16.73037,6.41713,10.42,0.26,0.89,4.0
1758088060.82477,1758087990.22923,0.0,0.0,0.0,-4.18259,17.18874,6.99009,10.42,0.26,0.89,4.0
1758088060.83201,1758087990.23923,0.0,0.0,0.0,-6.07335,17.81899,6.99009,10.53,0.1,0.29,4.0
1758088060.83594,1758087990.24923,0.0,0.0,0.0,-7.21927,17.76169,6.41713,10.14,-0.38,0.2,4.0
1758088060.8407,1758087990.25923,0.0,0.0,0.0,-8.47978,17.81899,5.78687,10.14,-0.38,0.2,4.0
1758088060.84139,1758087990.26923,0.0,0.0,0.0,-9.74028,17.53251,5.15662,9.79,-0.81,0.15,4.0
1758088060.84331,1758087990.27923,0.0,0.0,0.0,-11.34457,17.58981,4.23989,9.79,-0.81,0.15,4.0
1758088060.84583,1758087990.28923,0.0,0.0,0.0,-12.2613,17.30333,3.83882,9.57,-0.95,0.03,4.0
1758088060.84918,1758087990.29923,0.0,0.0,0.0,-13.12073,16.50119,3.66693,9.57,-0.95,0.03,4.0
1758088060.85702,1758087990.30923,0.0,0.0,0.0,-13.46451,15.24068,3.66693,9.34,-0.92,-0.02,4.0
1758088060.97966,1758087990.31923,0.0,0.0,0.0,-13.40721,13.75099,4.29718,9.09,-0.95,-0.2,4.0
1758088060.98006,1758087990.32923,0.0,0.0,0.0,-13.69369,13.86558,4.69825,9.09,-0.95,-0.2,4.0
1758088060.9847,1758087990.33923,0.0,0.0,0.0,-13.69369,13.23533,5.21392,8.72,-0.98,-0.25,4.0
1758088060.9917,1758087990.34923,0.0,0.0,0.0,-13.06344,11.74564,5.27121,8.72,-0.98,-0.25,4.0
1758088060.99208,1758087990.35923,0.0,0.0,0.0,-12.60507,9.91217,4.92744,8.21,-1.06,-0.3,4.0
1758088060.99901,1758087990.36923,0.0,0.0,0.0,-12.49048,8.88085,4.1253,8.21,-1.06,-0.3,4.0
1758088061.00216,1758087990.37923,0.0,0.0,0.0,-12.83425,7.62034,2.97938,8.05,-1.07,-0.36,4.0
1758088061.01143,1758087990.38923,0.0,0.0,0.0,-12.89155,5.90147,1.03132,8.05,-1.07,-0.36,4.0
1758088061.0118,1758087990.39923,0.0,0.0,0.0,-12.89155,5.72958,-0.34377,7.96,-1.03,-0.44,4.0
1758088061.01643,1758087990.40923,0.0,0.0,0.0,-12.83425,5.55769,-1.83346,8.27,-1.09,-0.36,4.0
1758088061.07176,1758087990.41923,0.0,0.0,0.0,-13.12073,6.58902,-3.09397,8.27,-1.09,-0.36,4.0
1758088061.07683,1758087990.42923,0.0,0.0,0.0,-12.83425,13.17803,-5.21392,8.68,-1.19,-0.26,4.0
1758088061.07723,1758087990.43923,0.0,0.0,0.0,-13.46451,22.40265,-7.33386,8.68,-1.19,-0.26,4.0
1758088061.08168,1758087990.44923,0.0,0.0,0.0,-12.77696,29.27814,-7.96411,9.2,-1.15,0.0,4.0
1758088061.08233,1758087990.45923,0.0,0.0,0.0,-12.54778,29.04896,-7.79223,9.2,-1.15,0.0,4.0
1758088061.08676,1758087990.46923,0.0,0.0,0.0,-11.97482,18.56383,-6.07335,7.94,-1.1,0.39,4.0
1758088061.08789,1758087990.47923,0.0,0.0,0.0,-12.2613,6.53172,-6.07335,6.81,-1.04,-0.22,4.0
1758088061.08944,1758087990.48923,0.0,0.0,0.0,-12.204,-0.74485,-6.18794,6.81,-1.04,-0.22,4.0
1758088061.09086,1758087990.49923,0.0,0.0,0.0,-10.8289,-3.20856,-6.53172,7.33,-1.17,-0.8,4.0
1758088061.09158,1758087990.50923,0.0,0.0,0.0,-7.44845,-5.61499,-7.21927,7.33,-1.17,-0.8,4.0
1758088061.09351,1758087990.51923,0.0,0.0,0.0,-4.69825,-7.44845,-7.84952,7.5,-1.52,-0.33,4.0
1758088061.09546,1758087990.52923,0.0,0.0,0.0,-1.71887,-9.05273,-8.76626,7.5,-1.52,-0.33,4.0
1758088061.09946,1758087990.53923,0.0,0.0,0.0,1.20321,-11.22997,-10.31324,7.6,-1.87,-0.17,4.0
1758088061.10186,1758087990.54923,0.0,0.0,0.0,5.61499,-14.43854,-11.22997,7.68,-2.07,-0.07,4.0
1758088061.10321,1758087990.55923,0.0,0.0,0.0,8.59437,-14.61043,-12.43318,7.68,-2.07,-0.07,4.0
1758088061.14994,1758087990.56923,0.0,0.0,0.0,11.80293,-13.86558,-13.17803,8.17,-2.15,0.24,4.0
1758088061.15991,1758087990.57923,0.0,0.0,0.0,16.3293,-13.06344,-14.20935,8.17,-2.15,0.24,4.0
1758088061.16198,1758087990.58923,0.0,0.0,0.0,19.07949,-12.77696,-14.66772,8.39,-2.18,0.58,4.0
1758088061.16316,1758087990.59923,0.0,0.0,0.0,21.48592,-14.03747,-15.0115,8.39,-2.18,0.58,4.0
1758088061.16372,1758087990.60923,0.0,0.0,0.0,23.66316,-16.50119,-15.35527,8.23,-2.06,0.65,4.0
1758088061.16736,1758087990.61923,0.0,0.0,0.0,26.01229,-21.48592,-15.46986,8.23,-2.06,0.48,4.0
1758088061.16878,1758087990.62923,0.0,0.0,0.0,27.04361,-23.60586,-15.58445,7.7,-1.68,0.48,4.0
1758088061.17109,1758087990.63923,0.0,0.0,0.0,28.07493,-24.12152,-15.75634,7.73,-1.28,0.07,4.0
1758088061.17147,1758087990.64923,0.0,0.0,0.0,29.39274,-23.31938,-16.21471,7.73,-1.28,0.07,4.0
1758088061.17221,1758087990.65923,0.0,0.0,0.0,31.16891,-20.3973,-16.84496,7.69,-1.02,-0.24,4.0
1758088061.17513,1758087990.66923,0.0,0.0,0.0,31.91375,-18.79302,-17.01685,7.69,-1.02,-0.24,4.0
1758088061.17929,1758087990.67923,0.0,0.0,0.0,31.79916,-18.22006,-17.30333,7.03,-0.75,-0.45,4.0
1758088061.1816,1758087990.68923,0.0,0.0,0.0,31.16891,-18.79302,-17.30333,7.03,-0.75,-0.45,4.0
1758088061.18994,1758087990.69923,0.0,0.0,0.0,29.62192,-18.16276,-16.84496,6.16,-0.57,-0.71,4.0
1758088061.25914,1758087990.70923,0.0,0.0,0.0,27.73116,-18.22006,-15.29797,5.97,-0.27,-0.55,4.0
1758088061.26409,1758087990.71923,0.0,0.0,0.0,25.61122,-19.48057,-12.71966,5.97,-0.27,-0.55,4.0
1758088061.27216,1758087990.72923,0.0,0.0,0.0,23.26209,-22.51724,-8.42248,7.0,0.63,0.77,4.0
1758088061.27624,1758087990.73923,0.0,0.0,0.0,16.73037,-25.21014,1.48969,7.0,0.63,0.77,4.0
1758088061.27719,1758087990.74923,0.0,0.0,0.0,9.91217,-23.31938,9.68299,11.72,2.13,2.01,4.0
1758088061.27782,1758087990.75923,0.0,0.0,0.0,1.20321,-20.79837,16.84496,11.72,2.13,2.01,4.0
1758088061.27908,1758087990.76923,0.0,0.0,0.0,-13.5791,-20.85567,20.79837,17.66,3.39,2.87,4.0
1758088061.28236,1758087990.77923,0.0,0.0,0.0,-22.91831,-19.13679,18.62113,18.38,3.85,3.06,4.0
1758088061.28492,1758087990.78923,0.0,0.0,0.0,-31.85646,-15.06879,13.69369,18.38,3.85,3.06,4.0
1758088061.28743,1758087990.79923,0.0,0.0,0.0,-38.84654,-16.95955,6.87549,18.0,3.53,2.33,4.0
1758088061.28784,1758087990.80923,0.0,0.0,0.0,-43.31561,-35.92446,-2.29183,18.0,3.53,2.33,4.0
1758088061.29535,1758087990.81923,0.0,0.0,0.0,-44.23235,-29.62192,-6.41713,15.36,2.31,-1.17,4.0
1758088061.29668,1758087990.82923,0.0,0.0,0.0,-44.9199,-4.0107,-12.14671,15.36,2.31,-1.17,4.0
1758088061.29725,1758087990.83923,0.0,0.0,0.0,-41.88322,14.20935,-13.34992,17.57,1.13,-1.11,4.0
1758088061.29801,1758087990.84923,0.0,0.0,0.0,-35.63798,23.54857,-10.94349,16.43,0.5,0.02,4.0
1758088061.2991,1758087990.85923,0.0,0.0,0.0,-31.2262,27.61657,-8.02141,16.43,0.5,0.02,4.0
1758088061.29987,1758087990.86923,0.0,0.0,0.0,-26.47065,29.10626,-5.4431,17.11,-0.52,0.24,4.0
1758088061.30178,1758087990.87923,0.0,0.0,0.0,-21.88699,24.80907,-3.38045,17.11,-0.52,0.24,4.0
1758088061.30239,1758087990.88923,0.0,0.0,0.0,-16.38659,12.49048,-2.06265,14.49,-1.34,0.01,4.0
1758088061.31914,1758087990.89923,0.0,0.0,0.0,-13.17803,7.62034,-2.40642,14.49,-1.34,0.01,4.0
1758088061.32167,1758087990.90923,0.0,0.0,0.0,-11.00079,5.72958,-3.09397,12.42,-1.3,0.41,4.0
1758088061.33714,1758087990.91923,0.0,0.0,0.0,-9.22462,5.95876,-4.0107,12.42,-1.3,0.41,4.0
1758088061.33905,1758087990.92923,0.0,0.0,0.0,-8.36518,11.57375,-5.32851,11.36,-0.47,0.76,4.0
1758088061.35496,1758087990.93923,0.0,0.0,0.0,-8.30789,16.61578,-5.84417,10.84,0.55,1.35,4.0
1758088061.35668,1758087990.94923,0.0,0.0,0.0,-8.0787,22.23076,-5.84417,10.84,0.55,1.35,4.0
1758088061.37319,1758087990.95923,0.0,0.0,0.0,-5.95876,26.24147,-5.78687,10.09,1.14,1.66,4.0
1758088061.39002,1758087990.96923,0.0,0.0,0.0,-3.95341,24.92367,-5.90147,10.09,1.14,1.66,4.0
1758088061.39462,1758087990.97923,0.0,0.0,0.0,-1.94806,22.40265,-6.47442,8.62,1.13,1.46,4.0
1758088061.40992,1758087990.98923,0.0,0.0,0.0,0.11459,23.0329,-7.21927,8.62,1.13,1.46,4.0
1758088061.41117,1758087990.99923,0.0,0.0,0.0,2.7502,23.20479,-7.62034,8.3,1.02,0.75,4.0
1758088061.42667,1758087991.00923,0.0,0.0,0.0,4.64096,22.28806,-6.8182,7.68,0.75,0.45,4.0
1758088061.43189,1758087991.01923,0.0,0.0,0.0,6.41713,22.00158,-5.78687,7.68,0.75,0.45,4.0
1758088061.44685,1758087991.02923,0.0,0.0,0.0,7.62034,22.40265,-4.69825,7.39,0.53,0.24,4.0
1758088061.4492,1758087991.03923,0.0,0.0,0.0,8.42248,22.86102,-3.60963,7.39,0.53,0.24,4.0
1758088061.4665,1758087991.04923,0.0,0.0,0.0,8.30789,21.7151,-2.97938,7.33,0.65,0.28,4.0
1758088061.46951,1758087991.05923,0.0,0.0,0.0,7.62034,19.42327,-2.34913,7.33,0.65,0.28,4.0
1758088061.48711,1758087991.06923,0.0,0.0,0.0,5.95876,17.36062,-1.77617,7.38,0.98,0.38,4.0
1758088061.49214,1758087991.07923,0.0,0.0,0.0,2.92208,15.75634,-1.20321,7.82,1.31,0.37,4.0
1758088061.50717,1758087991.08923,0.0,0.0,0.0,0.34377,15.24068,-1.20321,7.82,1.31,0.37,4.0
1758088061.51242,1758087991.09923,0.0,0.0,0.0,-2.63561,15.64175,-1.3178,8.25,1.6,0.29,4.0
1758088061.52717,1758087991.10923,0.0,0.0,0.0,-5.32851,19.07949,-1.3178,8.25,1.6,0.29,4.0
1758088061.52811,1758087991.11923,0.0,0.0,0.0,-8.36518,27.1582,-0.0573,9.04,1.74,0.33,4.0
1758088061.54397,1758087991.12923,0.0,0.0,0.0,-10.08406,29.04896,0.97403,9.04,1.74,0.33,4.0
1758088061.56182,1758087991.13923,0.0,0.0,0.0,-11.91752,26.69983,1.48969,8.78,1.66,0.49,4.0
1758088061.56301,1758087991.14923,0.0,0.0,0.0,-13.5218,22.57454,2.40642,8.78,1.66,0.49,4.0
1758088061.57917,1758087991.15923,0.0,0.0,0.0,-15.24068,15.0115,3.38045,8.52,1.39,0.03,4.0
1758088061.58169,1758087991.16923,0.0,0.0,0.0,-16.73037,11.17268,3.83882,8.81,1.01,-0.25,4.0
1758088061.59719,1758087991.17923,0.0,0.0,0.0,-17.81899,7.04738,4.64096,8.81,1.01,-0.25,4.0
1758088061.59844,1758087991.18923,0.0,0.0,0.0,-19.25138,0.34377,5.61499,8.99,0.68,0.05,4.0
1758088061.6387,1758087991.19923,0.0,0.0,0.0,-20.3973,-2.97938,5.72958,8.99,0.68,0.05,4.0
1758088061.64315,1758087991.20923,0.0,0.0,0.0,-21.14215,-5.95876,5.84417,8.8,0.54,0.08,4.0
1758088061.66148,1758087991.21923,0.0,0.0,0.0,-21.94428,-9.4538,5.95876,8.8,0.54,0.08,4.0
1758088061.66266,1758087991.22923,0.0,0.0,0.0,-22.51724,-14.43854,5.90147,8.12,0.72,0.06,4.0
1758088061.66495,1758087991.23923,0.0,0.0,0.0,-22.63183,-16.272,6.07335,7.66,1.02,-0.05,4.0
1758088061.66885,1758087991.24923,0.0,0.0,0.0,-22.86102,-17.6471,6.07335,7.66,1.02,-0.05,4.0
1758088061.67004,1758087991.25923,0.0,0.0,0.0,-22.86102,-19.88164,5.84417,7.5,1.21,0.09,4.0
1758088061.68596,1758087991.26923,0.0,0.0,0.0,-22.86102,-23.31938,5.84417,7.5,1.21,0.09,4.0
1758088061.68719,1758087991.27923,0.0,0.0,0.0,-22.40265,-23.89234,5.95876,7.79,1.1,0.24,4.0
1758088061.70199,1758087991.28923,0.0,0.0,0.0,-21.7724,-22.51724,6.53172,7.79,1.1,0.24,4.0
1758088061.767,1758087991.29923,0.0,0.0,0.0,-20.74107,-19.76705,7.21927,8.8,0.77,0.39,4.0
1758088061.76897,1758087991.30923,0.0,0.0,0.0,-17.93358,-14.66772,8.65166,9.49,0.26,0.24,4.0
1758088061.76931,1758087991.31923,0.0,0.0,0.0,-15.64175,-11.57375,9.33921,9.49,0.26,0.24,4.0
1758088061.77218,1758087991.32923,0.0,0.0,0.0,-13.40721,-9.68299,9.91217,9.56,-0.16,0.01,4.0
1758088061.77515,1758087991.33923,0.0,0.0,0.0,-10.94349,-8.93814,10.19865,9.56,-0.16,0.01,4.0
1758088061.77644,1758087991.34923,0.0,0.0,0.0,-7.84952,-10.37054,10.54242,9.32,-0.22,-0.27,4.0
1758088061.77733,1758087991.35923,0.0,0.0,0.0,-5.78687,-12.77696,10.71431,9.32,-0.22,-0.27,4.0
1758088061.77783,1758087991.36923,0.0,0.0,0.0,-3.60963,-15.12609,10.8862,9.02,0.07,-0.25,4.0
1758088061.79504,1758087991.37923,0.0,0.0,0.0,-0.45837,-16.61578,11.22997,9.02,0.07,-0.25,4.0
1758088061.79603,1758087991.38923,0.0,0.0,0.0,1.77617,-17.58981,11.34457,9.0,0.45,-0.33,4.0
1758088061.81239,1758087991.39923,0.0,0.0,0.0,4.23989,-17.76169,11.22997,8.9,0.67,-0.21,4.0
1758088061.82937,1758087991.40923,0.0,0.0,0.0,7.21927,-17.58981,11.57375,8.9,0.67,-0.21,4.0
1758088061.83022,1758087991.41923,0.0,0.0,0.0,11.17268,-17.13144,12.2613,8.72,0.64,0.04,4.0
1758088061.84607,1758087991.42923,0.0,0.0,0.0,13.80828,-18.50654,12.71966,8.72,0.64,0.04,4.0
1758088061.87266,1758087991.43923,0.0,0.0,0.0,15.87093,-21.25674,13.17803,7.9,0.3,0.22,4.0
1758088061.87488,1758087991.44923,0.0,0.0,0.0,17.36062,-24.23611,13.40721,7.9,0.3,0.22,4.0
1758088061.87723,1758087991.45923,0.0,0.0,0.0,18.73572,-28.30412,13.98017,6.84,-0.02,0.06,4.0
1758088061.87763,1758087991.46923,0.0,0.0,0.0,18.79302,-28.87707,13.98017,6.55,-0.18,-0.24,4.0
1758088061.89466,1758087991.47923,0.0,0.0,0.0,18.79302,-29.56462,13.75099,6.55,-0.18,-0.24,4.0
1758088061.91033,1758087991.48923,0.0,0.0,0.0,19.25138,-29.67921,13.17803,7.62,-0.46,-0.16,4.0
1758088061.91156,1758087991.49923,0.0,0.0,0.0,21.60051,-25.49662,11.11538,7.62,-0.46,-0.16,4.0
1758088061.92607,1758087991.50923,0.0,0.0,0.0,24.98096,-22.74642,9.91217,10.79,-1.06,0.93,4.0
1758088061.92727,1758087991.51923,0.0,0.0,0.0,30.13758,-21.6578,7.67763,10.79,-1.06,0.93,4.0
1758088061.94608,1758087991.52923,0.0,0.0,0.0,36.95578,-26.24147,4.87014,14.02,-2.28,2.87,4.0
1758088061.94803,1758087991.53923,0.0,0.0,0.0,46.69606,-54.71747,-4.64096,17.81,-4.72,4.72,4.0
1758088061.96626,1758087991.54923,0.0,0.0,0.0,49.79003,-71.56243,-12.37589,17.81,-4.72,4.72,4.0
1758088062.0169,1758087991.55923,0.0,0.0,0.0,52.76942,-52.71212,-12.60507,19.01,-4.91,-0.25,4.0
1758088062.02092,1758087991.56923,0.0,0.0,0.0,57.18119,-8.76626,-2.46372,19.01,-4.91,-0.25,4.0
1758088062.02687,1758087991.57923,0.0,0.0,0.0,60.50434,35.58068,5.78687,16.38,-2.24,-1.5,4.0
1758088062.03055,1758087991.58923,0.0,0.0,0.0,59.47303,43.25832,13.69369,16.38,-2.24,-1.5,4.0
1758088062.03671,1758087991.59923,0.0,0.0,0.0,57.81144,31.79916,21.7724,10.62,-0.72,0.16,4.0
1758088062.03705,1758087991.60923,0.0,0.0,0.0,50.53488,15.35527,31.97105,10.62,-0.72,0.16,4.0
1758088062.03778,1758087991.61923,0.0,0.0,0.0,42.57077,16.04282,31.74186,12.65,0.21,-0.58,4.0
1758088062.04136,1758087991.62923,0.0,0.0,0.0,32.83048,18.73572,26.47065,16.86,0.41,-0.74,4.0
1758088062.05723,1758087991.63923,0.0,0.0,0.0,23.0902,14.43854,18.22006,16.86,0.41,-0.74,4.0
1758088062.06581,1758087991.64923,0.0,0.0,0.0,11.45916,26.35606,7.39116,14.63,0.33,0.7,4.0
1758088062.06696,1758087991.65923,0.0,0.0,0.0,6.58902,35.75257,5.09932,14.63,0.33,0.7,4.0
1758088062.09137,1758087991.66923,0.0,0.0,0.0,2.00535,32.6013,3.89611,13.68,0.55,2.02,4.0
1758088062.28857,1758087991.67923,0.0,0.0,0.0,-2.6929,24.75178,4.46907,13.68,0.55,2.02,4.0
1758088062.28894,1758087991.68923,0.0,0.0,0.0,-8.88085,18.79302,6.8182,11.44,0.75,1.73,4.0
1758088062.29117,1758087991.69923,0.0,0.0,0.0,-12.14671,15.92823,8.0787,10.91,0.22,0.5,4.0
1758088062.29869,1758087991.70923,0.0,0.0,0.0,-14.83961,12.54778,8.47978,10.91,0.22,0.5,4.0
1758088062.3015,1758087991.71923,0.0,0.0,0.0,-17.01685,9.39651,8.42248,9.64,-0.53,0.15,4.0
1758088062.30212,1758087991.72923,0.0,0.0,0.0,-19.36597,6.35983,8.02141,9.64,-0.53,0.15,4.0
1758088062.30287,1758087991.73923,0.0,0.0,0.0,-20.11082,5.15662,7.33386,9.23,-1.16,0.09,4.0
1758088062.30754,1758087991.74923,0.0,0.0,0.0,-20.22541,4.87014,6.70361,9.23,-1.16,0.09,4.0
1758088062.30789,1758087991.75923,0.0,0.0,0.0,-19.88164,5.32851,5.95876,9.13,-1.58,0.11,4.0
1758088062.30951,1758087991.76923,0.0,0.0,0.0,-18.33465,5.50039,5.09932,8.9,-1.83,0.25,4.0
1758088062.31046,1758087991.77923,0.0,0.0,0.0,-16.90226,5.15662,4.87014,8.9,-1.83,0.25,4.0
1758088062.31167,1758087991.78923,0.0,0.0,0.0,-15.12609,5.4431,5.15662,8.44,-1.86,0.22,4.0
1758088062.31247,1758087991.79923,0.0,0.0,0.0,-11.86023,6.13065,5.78687,8.44,-1.86,0.22,4.0
1758088062.31599,1758087991.80923,0.0,0.0,0.0,-9.62569,6.87549,6.13065,8.02,-1.79,0.1,4.0
1758088062.31661,1758087991.81923,0.0,0.0,0.0,-7.16197,7.84952,6.47442,8.02,-1.79,0.1,4.0
1758088062.31971,1758087991.82923,0.0,0.0,0.0,-4.87014,8.93814,6.70361,7.64,-1.7,-0.07,4.0
1758088062.32164,1758087991.83923,0.0,0.0,0.0,-2.06265,10.54242,6.35983,7.64,-1.7,-0.13,4.0
1758088062.32484,1758087991.84923,0.0,0.0,0.0,-0.0573,11.63104,5.84417,7.37,-1.54,-0.13,4.0
1758088062.32596,1758087991.85923,0.0,0.0,0.0,1.08862,15.64175,4.23989,7.26,-1.39,-0.38,4.0
1758088062.32718,1758087991.86923,0.0,0.0,0.0,2.06265,22.97561,2.92208,7.26,-1.39,-0.38,4.0
1758088062.32785,1758087991.87923,0.0,0.0,0.0,3.09397,29.96569,-1.14592,7.66,-1.18,-0.16,4.0
1758088062.33615,1758087991.88923,0.0,0.0,0.0,1.48969,22.74642,-4.98473,7.66,-1.18,-0.16,4.0
1758088062.33686,1758087991.89923,0.0,0.0,0.0,0.40107,14.66772,-7.84952,6.33,-0.82,0.1,4.0
1758088062.33765,1758087991.90923,0.0,0.0,0.0,-0.57296,11.51645,-10.08406,6.33,-0.82,0.1,4.0
1758088062.33888,1758087991.91923,0.0,0.0,0.0,-1.20321,9.96947,-11.28727,7.71,-0.62,-0.43,4.0
1758088062.34042,1758087991.92923,0.0,0.0,0.0,-0.74485,8.47978,-11.28727,8.43,-0.8,-0.51,4.0
1758088062.35652,1758087991.93923,0.0,0.0,0.0,-0.17189,7.10468,-11.22997,8.43,-0.8,-0.51,4.0
1758088062.35746,1758087991.94923,0.0,0.0,0.0,0.45837,4.0107,-11.11538,8.31,-1.15,-0.2,4.0
1758088062.37248,1758087991.95923,0.0,0.0,0.0,1.48969,-3.32316,-11.86023,8.31,-1.15,-0.2,4.0
1758088062.38984,1758087991.96923,0.0,0.0,0.0,2.11994,-6.58902,-12.43318,7.67,-1.4,-0.22,4.0
1758088062.39263,1758087991.97923,0.0,0.0,0.0,3.26586,-8.0787,-12.2613,7.67,-1.4,-0.22,4.0
1758088062.41024,1758087991.98923,0.0,0.0,0.0,5.09932,-9.4538,-12.83425,7.74,-1.57,-0.14,4.0
1758088062.45942,1758087991.99923,0.0,0.0,0.0,6.07335,-9.96947,-13.12073,8.03,-1.74,0.21,4.0
1758088062.46079,1758087992.00923,0.0,0.0,0.0,7.33386,-9.96947,-13.69369,8.03,-1.74,0.21,4.0
1758088062.46196,1758087992.01923,0.0,0.0,0.0,8.93814,-9.4538,-14.38124,8.44,-1.75,0.52,4.0
1758088062.46235,1758087992.02923,0.0,0.0,0.0,11.57375,-8.0787,-15.69904,8.44,-1.75,0.52,4.0
1758088062.46762,1758087992.03923,0.0,0.0,0.0,13.46451,-7.62034,-16.55848,8.81,-1.64,0.52,4.0
1758088062.4687,1758087992.04923,0.0,0.0,0.0,15.12609,-7.10468,-17.47521,8.81,-1.64,0.52,4.0
1758088062.46903,1758087992.05923,0.0,0.0,0.0,16.73037,-5.90147,-18.33465,8.98,-1.47,0.33,4.0
1758088062.48635,1758087992.06923,0.0,0.0,0.0,18.50654,-5.90147,-19.59516,9.26,-1.35,0.28,4.0
1758088062.48725,1758087992.07923,0.0,0.0,0.0,19.53786,-6.58902,-20.22541,9.26,-1.35,0.28,4.0
1758088062.50227,1758087992.08923,0.0,0.0,0.0,20.16812,-6.47442,-20.68378,9.63,-1.27,0.35,4.0
1758088062.7037,1758087992.09923,0.0,0.0,0.0,20.62648,-6.24524,-20.79837,9.63,-1.27,0.35,4.0
1758088062.88167,1758087992.10923,0.0,0.0,0.0,21.25674,-10.31324,-20.3973,9.72,-1.28,0.63,4.0
1758088062.8831,1758087992.11923,0.0,0.0,0.0,21.37133,-13.75099,-19.53786,9.72,-1.28,0.63,4.0
1758088062.88847,1758087992.12923,0.0,0.0,0.0,21.25674,-17.53251,-18.9649,8.91,-1.19,0.59,4.0
1758088062.89641,1758087992.13923,0.0,0.0,0.0,20.79837,-21.02755,-18.50654,8.91,-1.19,0.59,4.0
1758088062.89734,1758087992.14923,0.0,0.0,0.0,19.76705,-22.34536,-17.93358,7.88,-0.93,0.18,4.0
1758088062.89877,1758087992.15923,0.0,0.0,0.0,19.07949,-20.85567,-17.99088,7.5,-0.72,-0.56,4.0
1758088062.90006,1758087992.16923,0.0,0.0,0.0,18.33465,-19.42327,-18.16276,7.5,-0.72,-0.56,4.0
1758088062.90223,1758087992.17923,0.0,0.0,0.0,17.87628,-18.79302,-18.33465,6.88,-0.55,-0.88,4.0
1758088062.90632,1758087992.18923,0.0,0.0,0.0,16.50119,-18.62113,-17.87628,6.88,-0.55,-0.88,4.0
1758088062.90729,1758087992.19923,0.0,0.0,0.0,15.35527,-19.07949,-16.10011,7.18,-0.02,-0.54,4.0
1758088062.91225,1758087992.20923,0.0,0.0,0.0,13.12073,-19.76705,-13.40721,7.18,-0.02,-0.54,4.0
1758088062.91478,1758087992.21923,0.0,0.0,0.0,7.10468,-21.7724,-8.02141,9.64,0.78,0.5,4.0
1758088062.91667,1758087992.22923,0.0,0.0,0.0,1.71887,-23.37668,-4.18259,12.64,1.53,1.82,4.0
1758088062.91739,1758087992.23923,0.0,0.0,0.0,-5.15662,-24.5226,-0.97403,12.64,1.53,1.82,4.0
1758088062.91883,1758087992.24923,0.0,0.0,0.0,-11.91752,-26.64254,0.68755,13.32,1.91,2.17,4.0
1758088062.9219,1758087992.25923,0.0,0.0,0.0,-21.08485,-24.00693,0.80214,13.32,1.91,2.17,4.0
1758088062.92418,1758087992.26923,0.0,0.0,0.0,-27.61657,-17.01685,1.3178,13.89,2.26,2.39,4.0
1758088062.92671,1758087992.27923,0.0,0.0,0.0,-34.0337,-6.99009,3.32316,13.89,2.26,2.39,4.0
1758088062.92733,1758087992.28923,0.0,0.0,0.0,-38.38818,-5.90147,2.46372,17.36,3.04,1.72,4.0
1758088062.93099,1758087992.29923,0.0,0.0,0.0,-40.33623,-20.34,-1.48969,13.87,1.42,-0.06,4.0
1758088062.9316,1758087992.30923,0.0,0.0,0.0,-41.76862,-22.51724,-5.09932,13.87,1.42,-0.06,4.0
1758088062.93232,1758087992.31923,0.0,0.0,0.0,-41.02378,-17.53251,-8.88085,13.63,-0.41,-0.52,4.0
1758088062.93656,1758087992.32923,0.0,0.0,0.0,-38.21629,-10.59972,-11.74564,13.63,-0.41,-0.52,4.0
1758088062.9377,1758087992.33923,0.0,0.0,0.0,-33.17426,3.09397,-11.91752,14.82,-0.6,-0.55,4.0
1758088062.94003,1758087992.34923,0.0,0.0,0.0,-29.56462,10.08406,-10.37054,14.82,-0.6,-0.55,4.0
1758088062.94178,1758087992.35923,0.0,0.0,0.0,-24.57989,11.63104,-7.44845,15.78,-0.11,1.16,4.0
1758088062.94467,1758087992.36923,0.0,0.0,0.0,-19.53786,12.89155,-4.92744,15.78,-0.11,1.16,4.0
1758088062.9452,1758087992.37923,0.0,0.0,0.0,-12.77696,16.84496,-3.83882,14.98,0.03,0.11,4.0
1758088062.94782,1758087992.38923,0.0,0.0,0.0,-8.88085,16.04282,-4.23989,13.53,0.05,-0.12,4.0
1758088062.94887,1758087992.39923,0.0,0.0,0.0,-6.18794,13.98017,-5.21392,13.53,0.05,-0.12,4.0
1758088062.95129,1758087992.40923,0.0,0.0,0.0,-4.18259,13.69369,-6.8182,12.47,0.03,-0.13,4.0
1758088062.95193,1758087992.41923,0.0,0.0,0.0,-3.60963,14.03747,-7.39116,12.47,0.03,-0.13,4.0
1758088062.9571,1758087992.42923,0.0,0.0,0.0,-3.72423,14.72501,-7.73493,11.91,0.22,0.26,4.0
1758088062.95966,1758087992.43923,0.0,0.0,0.0,-3.89611,15.41257,-7.67763,11.91,0.22,0.26,4.0
1758088062.96218,1758087992.44923,0.0,0.0,0.0,-3.89611,16.04282,-6.7609,10.88,0.39,0.61,4.0
1758088062.96611,1758087992.45923,0.0,0.0,0.0,-3.55234,16.04282,-5.95876,9.8,0.48,0.57,4.0
1758088063.0549,1758087992.46923,0.0,0.0,0.0,-2.7502,15.24068,-5.27121,9.8,0.48,0.57,4.0
1758088063.05721,1758087992.47923,0.0,0.0,0.0,-1.71887,14.38124,-4.58366,8.74,0.5,0.42,4.0
1758088063.05798,1758087992.48923,0.0,0.0,0.0,0.0573,13.5791,-3.95341,8.74,0.5,0.42,4.0
1758088063.06064,1758087992.49923,0.0,0.0,0.0,1.60428,13.12073,-3.60963,8.06,0.53,0.22,4.0
1758088063.06274,1758087992.50923,0.0,0.0,0.0,2.92208,12.71966,-3.55234,8.06,0.53,0.22,4.0
1758088063.06411,1758087992.51923,0.0,0.0,0.0,4.46907,13.86558,-3.66693,7.72,0.55,0.2,4.0
1758088063.06487,1758087992.52923,0.0,0.0,0.0,6.7609,19.82434,-2.7502,8.05,0.58,0.31,4.0
1758088063.07323,1758087992.53923,0.0,0.0,0.0,7.96411,23.37668,-2.11994,8.05,0.58,0.31,4.0
1758088063.07535,1758087992.54923,0.0,0.0,0.0,8.70896,22.97561,-1.66158,7.82,0.55,0.43,4.0
1758088063.0766,1758087992.55923,0.0,0.0,0.0,8.93814,21.37133,-1.14592,7.82,0.55,0.43,4.0
1758088063.07721,1758087992.56923,0.0,0.0,0.0,8.30789,18.73572,-0.74485,7.53,0.56,0.24,4.0
1758088063.07926,1758087992.57923,0.0,0.0,0.0,7.39116,15.75634,-0.40107,7.53,0.56,0.24,4.0
1758088063.07988,1758087992.58923,0.0,0.0,0.0,6.18794,11.86023,0.0,7.28,0.65,-0.18,4.0
1758088063.08194,1758087992.59923,0.0,0.0,0.0,4.23989,8.0787,1.03132,7.28,0.65,-0.18,4.0
1758088063.08256,1758087992.60923,0.0,0.0,0.0,2.63561,2.29183,2.00535,7.24,0.85,-0.55,4.0
1758088063.0833,1758087992.61923,0.0,0.0,0.0,1.3751,-2.06265,2.92208,7.35,1.16,-0.8,4.0
1758088063.08606,1758087992.62923,0.0,0.0,0.0,-0.17189,-5.84417,4.1253,7.35,1.16,-0.8,4.0
1758088063.08716,1758087992.63923,0.0,0.0,0.0,-2.34913,-9.39651,5.32851,7.63,1.34,-0.72,4.0
1758088063.08873,1758087992.64923,0.0,0.0,0.0,-3.60963,-10.65701,5.90147,7.63,1.34,-0.72,4.0
1758088063.09025,1758087992.65923,0.0,0.0,0.0,-4.81285,-11.86023,6.18794,7.96,1.2,-0.53,4.0
1758088063.0916,1758087992.66923,0.0,0.0,0.0,-5.95876,-12.49048,6.18794,7.96,1.2,-0.53,4.0
1758088063.09202,1758087992.67923,0.0,0.0,0.0,-7.73493,-12.71966,5.78687,8.18,0.89,-0.37,4.0
1758088063.11236,1758087992.68923,0.0,0.0,0.0,-8.76626,-12.54778,5.50039,8.16,0.64,-0.27,4.0
1758088063.11751,1758087992.69923,0.0,0.0,0.0,-9.91217,-12.43318,5.4431,8.16,0.64,-0.27,4.0
1758088063.12197,1758087992.70923,0.0,0.0,0.0,-11.00079,-12.14671,5.61499,7.95,0.6,-0.14,4.0
1758088063.18268,1758087992.71923,0.0,0.0,0.0,-12.43318,-11.80293,6.24524,7.95,0.6,-0.14,4.0
1758088063.18439,1758087992.72923,0.0,0.0,0.0,-13.12073,-10.8289,7.10468,8.19,0.77,0.0,4.0
1758088063.1867,1758087992.73923,0.0,0.0,0.0,-13.86558,-9.68299,8.02141,8.19,0.77,0.0,4.0
1758088063.19104,1758087992.74923,0.0,0.0,0.0,-14.20935,-8.30789,8.99544,8.93,0.93,0.08,4.0
1758088063.19291,1758087992.75923,0.0,0.0,0.0,-14.32395,-6.07335,10.19865,9.63,0.9,-0.02,4.0
1758088063.20653,1758087992.76923,0.0,0.0,0.0,-13.80828,-4.64096,10.65701,9.63,0.9,-0.02,4.0
1758088063.20707,1758087992.77923,0.0,0.0,0.0,-12.89155,-4.18259,10.71431,9.85,0.72,-0.44,4.0
1758088063.20903,1758087992.78923,0.0,0.0,0.0,-11.74564,-4.18259,10.48513,9.85,0.72,-0.44,4.0
1758088063.25769,1758087992.79923,0.0,0.0,0.0,-9.22462,-4.98473,10.08406,9.64,0.59,-0.86,4.0
1758088063.25931,1758087992.80923,0.0,0.0,0.0,-7.84952,-5.90147,9.62569,9.64,0.59,-0.86,4.0
1758088063.26039,1758087992.81923,0.0,0.0,0.0,-6.58902,-6.7609,9.05273,9.19,0.67,-0.85,4.0
1758088063.26076,1758087992.82923,0.0,0.0,0.0,-5.4431,-8.25059,8.25059,9.19,0.67,-0.85,4.0
1758088063.2619,1758087992.83923,0.0,0.0,0.0,-5.09932,-9.5684,7.73493,8.76,0.92,-0.5,4.0
1758088063.26302,1758087992.84923,0.0,0.0,0.0,-4.98473,-11.80293,7.44845,8.44,1.12,-0.16,4.0
1758088063.28111,1758087992.85923,0.0,0.0,0.0,-4.92744,-14.43854,7.21927,8.44,1.12,-0.16,4.0
1758088063.28262,1758087992.86923,0.0,0.0,0.0,-5.09932,-18.85031,7.10468,8.17,1.13,-0.12,4.0
1758088063.29769,1758087992.87923,0.0,0.0,0.0,-5.09932,-21.25674,7.16197,8.17,1.13,-0.12,4.0
1758088063.29872,1758087992.88923,0.0,0.0,0.0,-5.15662,-22.63183,7.39116,7.89,1.0,-0.4,4.0
1758088063.31378,1758087992.89923,0.0,0.0,0.0,-4.87014,-24.80907,7.50575,7.89,1.0,-0.4,4.0
1758088063.33145,1758087992.90923,0.0,0.0,0.0,-4.46907,-28.59059,7.44845,7.54,0.79,-0.74,4.0
1758088063.33289,1758087992.91923,0.0,0.0,0.0,-3.72423,-30.88243,6.70361,8.0,0.19,-0.6,4.0
1758088063.35576,1758087992.92923,0.0,0.0,0.0,-2.29183,-33.51803,4.81285,8.0,0.19,-0.6,4.0
1758088063.35747,1758087992.93923,0.0,0.0,0.0,0.11459,-36.55471,2.57831,10.22,-0.74,0.47,4.0
1758088063.35859,1758087992.94923,0.0,0.0,0.0,6.18794,-34.43476,-1.03132,10.22,-0.74,0.47,4.0
1758088063.37355,1758087992.95923,0.0,0.0,0.0,11.74564,-31.28349,-3.32316,14.28,-2.13,2.08,4.0
1758088063.39055,1758087992.96923,0.0,0.0,0.0,18.44924,-29.56462,-4.52637,14.28,-2.13,2.08,4.0
1758088063.39171,1758087992.97923,0.0,0.0,0.0,25.8404,-25.61122,-5.50039,16.55,-3.6,3.02,4.0
1758088063.40687,1758087992.98923,0.0,0.0,0.0,34.0337,-27.96034,-4.87014,17.47,-4.41,2.25,4.0
1758088063.41205,1758087992.99923,0.0,0.0,0.0,35.06502,-31.2262,-3.66693,17.47,-4.41,2.25,4.0
1758088063.42682,1758087993.00923,0.0,0.0,0.0,34.43476,-22.34536,-0.97403,15.84,-2.87,-1.08,4.0
1758088063.43093,1758087993.01923,0.0,0.0,0.0,35.52338,11.11538,8.0787,15.84,-2.87,-1.08,4.0
1758088063.53237,1758087993.02923,0.0,0.0,0.0,35.92446,25.43933,13.5791,14.59,-0.58,-1.45,4.0
1758088063.53718,1758087993.03923,0.0,0.0,0.0,35.12231,30.02299,18.10547,14.59,-0.58,-1.45,4.0
1758088063.54053,1758087993.04923,0.0,0.0,0.0,33.51803,26.87172,21.31403,11.92,0.22,-0.7,4.0
1758088063.54495,1758087993.05923,0.0,0.0,0.0,27.67386,16.90226,21.42862,11.92,0.22,-0.7,4.0
1758088063.5464,1758087993.06923,0.0,0.0,0.0,21.14215,14.32395,18.22006,12.57,0.29,-0.9,4.0
1758088063.54967,1758087993.07923,0.0,0.0,0.0,13.5218,13.5218,13.86558,13.83,0.3,-0.78,4.0
1758088063.55033,1758087993.08923,0.0,0.0,0.0,6.47442,17.6471,9.05273,13.83,0.3,-0.78,4.0
1758088063.5514,1758087993.09923,0.0,0.0,0.0,-2.00535,31.45539,5.61499,13.45,0.41,0.05,4.0
1758088063.55734,1758087993.10923,0.0,0.0,0.0,-6.58902,32.08564,4.69825,13.45,0.41,0.05,4.0
1758088063.55894,1758087993.11923,0.0,0.0,0.0,-10.48513,24.92367,5.27121,11.28,0.53,0.96,4.0
1758088063.55966,1758087993.12923,0.0,0.0,0.0,-13.69369,19.53786,6.47442,11.28,0.53,0.96,4.0
1758088063.56169,1758087993.13923,0.0,0.0,0.0,-16.272,18.16276,8.70896,10.14,0.37,0.31,4.0
1758088063.56662,1758087993.14923,0.0,0.0,0.0,-17.36062,16.38659,9.33921,9.79,-0.14,-0.03,4.0
1758088063.567,1758087993.15923,0.0,0.0,0.0,-17.81899,13.80828,9.28192,9.79,-0.14,-0.03,4.0
1758088063.58283,1758087993.16923,0.0,0.0,0.0,-18.22006,11.51645,8.65166,9.16,-0.88,-0.05,4.0
1758088063.59989,1758087993.17923,0.0,0.0,0.0,-18.62113,9.39651,6.7609,9.16,-0.88,-0.05,4.0
1758088063.60172,1758087993.18923,0.0,0.0,0.0,-18.73572,8.76626,5.32851,9.17,-1.47,-0.26,4.0
1758088063.61677,1758087993.19923,0.0,0.0,0.0,-18.33465,9.05273,4.35448,9.17,-1.47,-0.26,4.0
1758088063.61782,1758087993.20923,0.0,0.0,0.0,-17.24603,9.96947,3.60963,9.37,-1.7,-0.34,4.0
1758088063.63432,1758087993.21923,0.0,0.0,0.0,-16.38659,10.8289,3.60963,9.27,-1.56,-0.33,4.0
1758088063.65149,1758087993.22923,0.0,0.0,0.0,-15.35527,11.00079,3.72423,9.27,-1.56,-0.33,4.0
1758088063.65273,1758087993.23923,0.0,0.0,0.0,-14.43854,10.8289,4.1253,8.85,-1.32,-0.2,4.0
1758088063.65994,1758087993.24923,0.0,0.0,0.0,-12.71966,10.48513,4.46907,8.85,-1.32,-0.2,4.0
1758088063.70487,1758087993.25923,0.0,0.0,0.0,-11.34457,10.31324,4.64096,8.52,-1.19,-0.27,4.0
1758088063.71201,1758087993.26923,0.0,0.0,0.0,-9.91217,10.8862,4.23989,8.52,-1.19,-0.27,4.0
1758088063.71233,1758087993.27923,0.0,0.0,0.0,-8.30789,11.80293,3.55234,8.29,-1.22,-0.28,4.0
1758088063.71679,1758087993.28923,0.0,0.0,0.0,-5.55769,13.06344,2.00535,8.08,-1.22,-0.26,4.0
1758088063.71848,1758087993.29923,0.0,0.0,0.0,-3.26586,12.89155,0.74485,8.08,-1.31,-0.26,4.0
1758088063.72263,1758087993.30923,0.0,0.0,0.0,-1.43239,13.75099,-0.57296,7.77,-1.31,-0.31,4.0
1758088063.7395,1758087993.31923,0.0,0.0,0.0,0.22918,18.22006,-2.63561,7.77,-1.31,-0.31,4.0
1758088063.74048,1758087993.32923,0.0,0.0,0.0,2.6929,29.27814,-5.27121,8.05,-1.27,-0.35,4.0
1758088063.75595,1758087993.33923,0.0,0.0,0.0,3.83882,35.2942,-6.8182,8.05,-1.27,-0.35,4.0
1758088063.75717,1758087993.34923,0.0,0.0,0.0,4.87014,34.43476,-7.79223,7.59,-1.12,0.0,4.0
1758088063.77298,1758087993.35923,0.0,0.0,0.0,6.35983,23.37668,-8.42248,7.59,-1.12,0.0,4.0
1758088063.78991,1758087993.36923,0.0,0.0,0.0,6.35983,8.47978,-11.74564,5.91,-1.07,-0.12,4.0
1758088063.7911,1758087993.37923,0.0,0.0,0.0,7.62034,6.24524,-13.75099,6.96,-1.17,-0.88,4.0
1758088063.80646,1758087993.38923,0.0,0.0,0.0,9.74028,7.10468,-15.24068,6.96,-1.17,-0.88,4.0
1758088063.8101,1758087993.39923,0.0,0.0,0.0,12.60507,6.07335,-16.38659,7.94,-1.6,-0.48,4.0
1758088063.82673,1758087993.40923,0.0,0.0,0.0,17.18874,2.29183,-16.90226,7.94,-1.6,-0.48,4.0
1758088063.82769,1758087993.41923,0.0,0.0,0.0,20.34,-1.08862,-17.01685,7.87,-1.97,0.24,4.0
1758088063.84297,1758087993.42923,0.0,0.0,0.0,23.0329,-4.64096,-16.67307,7.87,-1.97,0.24,4.0
1758088063.85977,1758087993.43923,0.0,0.0,0.0,26.41335,-7.10468,-16.10011,7.9,-1.91,0.31,4.0
1758088063.8607,1758087993.44923,0.0,0.0,0.0,28.59059,-5.15662,-14.83961,8.31,-1.49,0.0,4.0
1758088063.8765,1758087993.45923,0.0,0.0,0.0,30.76784,-4.1253,-13.98017,8.31,-1.49,0.0,4.0
1758088063.87954,1758087993.46923,0.0,0.0,0.0,32.88778,-4.46907,-13.06344,7.99,-1.4,-0.16,4.0
1758088063.89472,1758087993.47923,0.0,0.0,0.0,35.92446,-8.93814,-12.77696,7.99,-1.4,-0.16,4.0
1758088063.8967,1758087993.48923,0.0,0.0,0.0,37.75792,-12.2613,-13.17803,7.14,-1.48,-0.18,4.0
1758088063.9179,1758087993.49923,0.0,0.0,0.0,39.53409,-14.43854,-13.80828,7.14,-1.48,-0.18,4.0
1758088063.92464,1758087993.50923,0.0,0.0,0.0,41.02378,-16.61578,-14.38124,6.93,-1.36,-0.33,4.0
1758088063.92757,1758087993.51923,0.0,0.0,0.0,41.71133,-24.35071,-15.64175,6.48,-1.01,-0.38,4.0
1758088063.94498,1758087993.52923,0.0,0.0,0.0,41.08107,-27.67386,-16.55848,6.48,-1.01,-0.38,4.0
1758088063.94911,1758087993.53923,0.0,0.0,0.0,39.99245,-28.93437,-17.18874,6.46,-0.52,-0.77,4.0
1758088063.96501,1758087993.54923,0.0,0.0,0.0,38.27358,-28.87707,-17.53251,6.46,-0.52,-0.77,4.0
1758088063.96674,1758087993.55923,0.0,0.0,0.0,35.58068,-30.65324,-17.24603,6.07,-0.1,-0.67,4.0
1758088063.99053,1758087993.56923,0.0,0.0,0.0,33.9764,-33.9764,-15.98552,6.07,-0.1,-0.67,4.0
1758088063.99264,1758087993.57923,0.0,0.0,0.0,32.25753,-37.64333,-13.5791,5.67,0.47,0.21,4.0
1758088064.0564,1758087993.58923,0.0,0.0,0.0,30.88243,-40.04975,-10.02676,5.67,0.47,0.21,4.0
1758088064.06038,1758087993.59923,0.0,0.0,0.0,27.61657,-38.84654,-2.97938,7.81,1.31,1.08,4.0
1758088064.06071,1758087993.60923,0.0,0.0,0.0,23.94964,-34.14828,1.77617,12.7,2.13,1.82,4.0
1758088064.06859,1758087993.61923,0.0,0.0,0.0,18.9649,-27.78845,6.24524,12.7,2.13,1.82,4.0
1758088064.10025,1758087993.62923,0.0,0.0,0.0,9.91217,-19.88164,11.86023,16.97,2.79,3.09,4.0
1758088064.10459,1758087993.63923,0.0,0.0,0.0,0.22918,-5.72958,16.61578,16.97,2.79,3.09,4.0
1758088064.28076,1758087993.64923,0.0,0.0,0.0,-12.2613,7.33386,19.25138,22.75,4.55,5.01,4.0
1758088064.28814,1758087993.65923,0.0,0.0,0.0,-19.53786,-11.80293,13.80828,22.75,4.55,5.01,4.0
1758088064.31949,1758087993.66923,0.0,0.0,0.0,-26.75713,-29.73651,2.97938,18.0,3.17,0.94,4.0
1758088064.32512,1758087993.67923,0.0,0.0,0.0,-32.20023,-24.75178,-4.69825,13.36,0.1,-1.3,4.0
1758088064.6166,1758087993.68923,0.0,0.0,0.0,-34.66395,-7.73493,-11.86023,13.36,0.1,-1.3,4.0
1758088064.61691,1758087993.69923,0.0,0.0,0.0,-31.91375,15.12609,-12.89155,14.02,-0.62,-1.42,4.0
1758088064.61941,1758087993.70923,0.0,0.0,0.0,-27.61657,30.59595,-11.91752,14.02,-0.62,-1.42,4.0
1758088064.62196,1758087993.71923,0.0,0.0,0.0,-22.74642,27.33009,-8.59437,14.81,0.45,0.87,4.0
1758088064.62377,1758087993.72923,0.0,0.0,0.0,-17.01685,26.24147,-4.92744,14.81,0.45,0.87,4.0
1758088064.62431,1758087993.73923,0.0,0.0,0.0,-11.22997,28.93437,-1.83346,16.19,0.93,0.06,4.0
1758088064.62777,1758087993.74923,0.0,0.0,0.0,-3.32316,29.22085,-0.11459,14.64,0.77,-0.08,4.0
1758088064.62807,1758087993.75923,0.0,0.0,0.0,1.43239,27.84575,-0.57296,14.64,0.77,-0.08,4.0
1758088064.6299,1758087993.76923,0.0,0.0,0.0,4.81285,28.476,-2.23454,12.81,0.59,0.19,4.0
1758088064.63044,1758087993.77923,0.0,0.0,0.0,6.70361,28.30412,-3.72423,12.81,0.59,0.19,4.0
1758088064.63731,1758087993.78923,0.0,0.0,0.0,6.18794,27.1582,-6.35983,12.51,0.52,0.21,4.0
1758088064.75027,1758087993.79923,0.0,0.0,0.0,4.58366,26.81443,-7.50575,12.51,0.52,0.21,4.0
1758088064.75183,1758087993.80923,0.0,0.0,0.0,2.29183,26.81443,-8.0787,12.14,0.56,0.57,4.0
1758088064.75451,1758087993.81923,0.0,0.0,0.0,0.0,27.04361,-7.39116,12.14,0.56,0.57,4.0
1758088064.75617,1758087993.82923,0.0,0.0,0.0,-3.09397,27.2155,-6.18794,11.59,0.8,0.77,4.0
1758088064.75717,1758087993.83923,0.0,0.0,0.0,-4.52637,27.33009,-5.21392,10.71,0.98,0.65,4.0
1758088064.75794,1758087993.84923,0.0,0.0,0.0,-5.15662,26.06958,-4.64096,10.71,0.98,0.65,4.0
1758088064.75931,1758087993.85923,0.0,0.0,0.0,-3.95341,22.86102,-3.66693,9.31,0.93,0.23,4.0
1758088064.76174,1758087993.86923,0.0,0.0,0.0,-2.34913,22.34536,-3.60963,9.31,0.93,0.23,4.0
1758088064.76286,1758087993.87923,0.0,0.0,0.0,0.0,24.80907,-3.09397,8.5,0.76,0.06,4.0
1758088064.76322,1758087993.88923,0.0,0.0,0.0,2.46372,29.50733,-2.6929,8.5,0.76,0.06,4.0
1758088064.77001,1758087993.89923,0.0,0.0,0.0,5.90147,31.74186,-1.3178,8.14,0.64,0.26,4.0
1758088064.77056,1758087993.90923,0.0,0.0,0.0,7.67763,29.33544,-0.51566,7.04,0.37,0.56,4.0
1758088064.77183,1758087993.91923,0.0,0.0,0.0,8.70896,25.89769,0.11459,7.04,0.37,0.56,4.0
1758088064.77244,1758087993.92923,0.0,0.0,0.0,9.28192,22.63183,0.40107,6.59,0.16,0.06,4.0
1758088064.7758,1758087993.93923,0.0,0.0,0.0,9.22462,18.56383,0.45837,6.59,0.16,0.06,4.0
1758088064.77612,1758087993.94923,0.0,0.0,0.0,8.70896,15.69904,0.51566,6.33,0.17,-0.5,4.0
1758088064.77664,1758087993.95923,0.0,0.0,0.0,7.84952,12.60507,0.51566,6.33,0.17,-0.5,4.0
1758088064.77776,1758087993.96923,0.0,0.0,0.0,6.87549,8.88085,0.97403,5.97,0.42,-0.63,4.0
1758088064.77901,1758087993.97923,0.0,0.0,0.0,4.92744,2.86479,2.29183,5.94,0.83,-0.51,4.0
1758088064.77964,1758087993.98923,0.0,0.0,0.0,3.49504,-1.14592,3.55234,5.94,0.83,-0.51,4.0
1758088064.78117,1758087993.99923,0.0,0.0,0.0,2.00535,-4.87014,4.81285,6.67,1.24,-0.34,4.0
1758088064.78233,1758087994.00923,0.0,0.0,0.0,0.45837,-7.62034,5.90147,6.67,1.24,-0.34,4.0
1758088064.78431,1758087994.01923,0.0,0.0,0.0,-1.77617,-10.48513,6.99009,7.86,1.52,-0.31,4.0
1758088064.78504,1758087994.02923,0.0,0.0,0.0,-3.38045,-11.45916,7.10468,7.86,1.52,-0.31,4.0
1758088064.7864,1758087994.03923,0.0,0.0,0.0,-4.87014,-11.91752,6.7609,8.96,1.53,-0.25,4.0
1758088064.78791,1758087994.04923,0.0,0.0,0.0,-6.8182,-12.83425,5.15662,8.96,1.53,-0.25,4.0
1758088064.78822,1758087994.05923,0.0,0.0,0.0,-8.02141,-13.5218,3.89611,9.12,1.21,-0.27,4.0
1758088064.78953,1758087994.06923,0.0,0.0,0.0,-8.88085,-14.61043,2.7502,8.33,0.8,-0.21,4.0
1758088064.79015,1758087994.07923,0.0,0.0,0.0,-9.39651,-15.41257,2.34913,8.33,0.8,-0.21,4.0
1758088064.7914,1758087994.08923,0.0,0.0,0.0,-9.91217,-15.92823,3.09397,7.7,0.55,-0.18,4.0
1758088064.79205,1758087994.09923,0.0,0.0,0.0,-9.91217,-15.64175,4.29718,7.7,0.55,-0.18,4.0
1758088064.79278,1758087994.10923,0.0,0.0,0.0,-9.85487,-14.78231,5.95876,7.84,0.51,-0.14,4.0
1758088064.79471,1758087994.11923,0.0,0.0,0.0,-9.62569,-14.20935,7.79223,7.84,0.51,-0.14,4.0
1758088064.79628,1758087994.12923,0.0,0.0,0.0,-8.76626,-11.97482,10.65701,8.33,0.51,0.05,4.0
1758088064.79734,1758087994.13923,0.0,0.0,0.0,-8.30789,-11.17268,11.97482,8.76,0.33,0.16,4.0
1758088064.79935,1758087994.14923,0.0,0.0,0.0,-7.16197,-10.59972,13.46451,8.76,0.33,0.16,4.0
1758088064.80164,1758087994.15923,0.0,0.0,0.0,-6.24524,-10.94349,14.32395,8.9,0.1,-0.02,4.0
1758088064.80239,1758087994.16923,0.0,0.0,0.0,-4.81285,-11.28727,14.83961,8.9,0.1,-0.02,4.0
1758088064.8043,1758087994.17923,0.0,0.0,0.0,-3.83882,-11.51645,14.78231,8.99,0.07,-0.4,4.0
1758088064.80653,1758087994.18923,0.0,0.0,0.0,-2.97938,-11.80293,14.72501,8.99,0.07,-0.4,4.0
1758088064.80776,1758087994.19923,0.0,0.0,0.0,-2.11994,-11.00079,14.49583,9.02,0.34,-0.68,4.0
1758088064.80918,1758087994.20923,0.0,0.0,0.0,-1.71887,-10.48513,13.75099,9.1,0.78,-0.69,4.0
1758088064.81123,1758087994.21923,0.0,0.0,0.0,-1.43239,-9.91217,13.34992,9.1,0.78,-0.69,4.0
1758088064.81185,1758087994.22923,0.0,0.0,0.0,-2.00535,-9.4538,13.34992,9.26,1.24,-0.64,4.0
1758088064.81346,1758087994.23923,0.0,0.0,0.0,-2.92208,-10.31324,12.49048,9.26,1.24,-0.64,4.0
1758088064.81723,1758087994.24923,0.0,0.0,0.0,-3.49504,-12.08941,11.57375,8.98,1.56,-0.54,4.0
1758088064.81765,1758087994.25923,0.0,0.0,0.0,-4.1253,-11.63104,10.71431,8.98,1.56,-0.54,4.0
1758088064.81972,1758087994.26923,0.0,0.0,0.0,-4.29718,-10.19865,10.31324,9.11,1.6,-0.2,4.0
1758088064.82211,1758087994.27923,0.0,0.0,0.0,-4.64096,-11.22997,8.30789,9.11,1.6,-0.2,4.0
1758088064.8249,1758087994.28923,0.0,0.0,0.0,-4.23989,-19.13679,6.18794,9.76,1.13,0.54,4.0
1758088064.82698,1758087994.29923,0.0,0.0,0.0,-3.09397,-26.75713,4.46907,10.21,0.12,1.42,4.0
1758088064.83046,1758087994.30923,0.0,0.0,0.0,-0.80214,-36.95578,2.7502,10.21,0.12,1.42,4.0
1758088064.83162,1758087994.31923,0.0,0.0,0.0,6.41713,-41.99781,0.45837,12.26,-1.11,1.81,4.0
1758088064.83473,1758087994.32923,0.0,0.0,0.0,12.49048,-38.38818,-1.08862,12.26,-1.11,1.81,4.0
1758088064.83614,1758087994.33923,0.0,0.0,0.0,18.22006,-31.79916,-4.35448,16.55,-2.61,3.17,4.0
1758088064.83818,1758087994.34923,0.0,0.0,0.0,23.72045,-18.62113,-7.73493,16.55,-2.61,3.17,4.0
1758088064.8399,1758087994.35923,0.0,0.0,0.0,28.13223,-11.51645,-8.36518,20.33,-4.71,1.95,4.0
1758088064.84921,1758087994.36923,0.0,0.0,0.0,29.67921,-6.24524,-4.98473,16.03,-3.78,0.53,4.0
1758088064.95212,1758087994.37923,0.0,0.0,0.0,31.28349,3.03668,0.85944,16.03,-3.78,0.53,4.0
1758088064.95563,1758087994.38923,0.0,0.0,0.0,31.56997,7.79223,6.47442,13.31,-1.15,-0.64,4.0
1758088064.95873,1758087994.39923,0.0,0.0,0.0,31.11161,9.74028,14.32395,13.31,-1.15,-0.64,4.0
1758088064.95947,1758087994.40923,0.0,0.0,0.0,29.73651,10.65701,17.87628,12.81,0.42,-0.43,4.0
1758088064.96462,1758087994.41923,0.0,0.0,0.0,26.12688,7.16197,17.58981,12.81,0.42,-0.43,4.0
1758088064.96696,1758087994.42923,0.0,0.0,0.0,21.08485,5.21392,13.12073,13.78,0.63,0.16,4.0
1758088064.9704,1758087994.43923,0.0,0.0,0.0,13.5791,6.7609,9.4538,13.92,0.26,0.36,4.0
1758088064.97218,1758087994.44923,0.0,0.0,0.0,8.0787,6.8182,6.58902,13.92,0.26,0.36,4.0
1758088064.97867,1758087994.45923,0.0,0.0,0.0,2.6929,7.16197,4.35448,12.39,-0.1,1.04,4.0
1758088064.97981,1758087994.46923,0.0,0.0,0.0,-2.7502,13.69369,2.6929,12.39,-0.1,1.04,4.0
1758088064.98126,1758087994.47923,0.0,0.0,0.0,-4.81285,24.80907,3.49504,12.17,-0.58,1.16,4.0
1758088064.98191,1758087994.48923,0.0,0.0,0.0,-5.90147,32.14294,4.52637,12.17,-0.58,1.16,4.0
1758088064.98475,1758087994.49923,0.0,0.0,0.0,-6.53172,31.91375,5.4431,11.19,-0.96,1.66,4.0
1758088064.98738,1758087994.50923,0.0,0.0,0.0,-7.16197,18.85031,7.16197,11.19,-0.96,1.31,4.0
1758088064.99254,1758087994.51923,0.0,0.0,0.0,-6.70361,10.94349,8.70896,8.77,-1.02,1.31,4.0
1758088064.99691,1758087994.52923,0.0,0.0,0.0,-5.78687,7.16197,9.91217,8.44,-1.05,0.32,4.0
1758088065.00209,1758087994.53923,0.0,0.0,0.0,-4.98473,6.13065,10.19865,8.44,-1.05,0.32,4.0
1758088065.00447,1758087994.54923,0.0,0.0,0.0,-3.95341,6.24524,8.99544,8.36,-1.05,0.27,4.0
1758088065.24766,1758087994.55923,0.0,0.0,0.0,-3.72423,6.47442,7.33386,8.36,-1.05,0.27,4.0
1758088065.24824,1758087994.56923,0.0,0.0,0.0,-3.55234,6.70361,5.50039,8.05,-1.06,0.58,4.0
1758088065.24936,1758087994.57923,0.0,0.0,0.0,-3.60963,8.136,3.89611,8.05,-1.06,0.58,4.0
1758088065.25203,1758087994.58923,0.0,0.0,0.0,-3.32316,12.2613,2.63561,8.18,-1.1,0.46,4.0
1758088065.25235,1758087994.59923,0.0,0.0,0.0,-2.92208,15.64175,2.06265,8.38,-1.23,0.48,4.0
1758088065.25595,1758087994.60923,0.0,0.0,0.0,-2.57831,16.84496,2.34913,8.38,-1.23,0.48,4.0
1758088065.25708,1758087994.61923,0.0,0.0,0.0,-1.83346,16.272,2.63561,7.89,-1.25,0.45,4.0
1758088065.2578,1758087994.62923,0.0,0.0,0.0,-0.97403,13.80828,2.7502,7.89,-1.25,0.45,4.0
1758088065.2587,1758087994.63923,0.0,0.0,0.0,-0.22918,12.37589,2.6929,7.44,-1.26,0.23,4.0
1758088065.26209,1758087994.64923,0.0,0.0,0.0,0.97403,10.19865,2.23454,7.44,-1.26,0.23,4.0
1758088065.2635,1758087994.65923,0.0,0.0,0.0,3.20856,7.33386,1.14592,7.18,-1.24,-0.23,4.0
1758088065.26477,1758087994.66923,0.0,0.0,0.0,4.81285,6.58902,0.34377,7.26,-1.17,-0.58,4.0
1758088065.26538,1758087994.67923,0.0,0.0,0.0,6.18794,7.10468,-1.14592,7.26,-1.17,-0.58,4.0
1758088065.26982,1758087994.68923,0.0,0.0,0.0,7.62034,8.76626,-2.92208,7.48,-1.12,-0.58,4.0
1758088065.27046,1758087994.69923,0.0,0.0,0.0,8.99544,15.35527,-5.32851,7.48,-1.12,-0.58,4.0
1758088065.27121,1758087994.70923,0.0,0.0,0.0,9.22462,17.99088,-7.67763,7.94,-0.87,-0.38,4.0
1758088065.27235,1758087994.71923,0.0,0.0,0.0,9.4538,17.30333,-8.99544,7.94,-0.87,-0.38,4.0
1758088065.2767,1758087994.72923,0.0,0.0,0.0,9.85487,14.66772,-9.74028,7.56,-0.92,-0.09,4.0
1758088065.27738,1758087994.73923,0.0,0.0,0.0,10.48513,11.74564,-9.74028,7.95,-1.01,-0.22,4.0
1758088065.27936,1758087994.74923,0.0,0.0,0.0,11.11538,9.11003,-9.22462,7.95,-1.01,-0.22,4.0
1758088065.28169,1758087994.75923,0.0,0.0,0.0,11.74564,4.35448,-8.65166,8.12,-1.0,-0.27,4.0
1758088065.28239,1758087994.76923,0.0,0.0,0.0,11.57375,-0.74485,-8.70896,8.12,-1.0,-0.27,4.0
1758088065.28431,1758087994.77923,0.0,0.0,0.0,11.34457,-6.58902,-9.11003,8.06,-0.79,-0.17,4.0
1758088065.28651,1758087994.78923,0.0,0.0,0.0,11.80293,-10.08406,-9.5684,8.06,-0.79,-0.17,4.0
1758088065.36136,1758087994.79923,0.0,0.0,0.0,12.83425,-11.91752,-10.48513,7.87,-0.59,-0.02,4.0
1758088065.3624,1758087994.80923,0.0,0.0,0.0,14.09476,-11.80293,-10.8289,7.87,-0.59,-0.02,4.0
1758088065.41509,1758087994.81923,0.0,0.0,0.0,17.24603,-10.65701,-11.00079,7.73,-0.63,0.24,4.0
1758088065.41566,1758087994.82923,0.0,0.0,0.0,19.48057,-11.51645,-11.28727,7.32,-0.88,0.15,4.0
1758088065.41768,1758087994.83923,0.0,0.0,0.0,21.02755,-15.41257,-11.97482,7.32,-0.88,0.15,4.0
1758088065.42079,1758087994.84923,0.0,0.0,0.0,22.74642,-20.34,-13.5791,6.93,-1.18,0.0,4.0
1758088065.42227,1758087994.85923,0.0,0.0,0.0,23.49127,-24.29341,-14.72501,6.93,-1.18,0.0,4.0
1758088065.42417,1758087994.86923,0.0,0.0,0.0,24.4653,-25.89769,-15.46986,7.65,-1.32,0.04,4.0
1758088065.42493,1758087994.87923,0.0,0.0,0.0,25.15285,-26.06958,-15.69904,7.65,-1.32,0.04,4.0
1758088065.42681,1758087994.88923,0.0,0.0,0.0,25.43933,-28.30412,-15.75634,8.21,-1.19,0.19,4.0
1758088065.43264,1758087994.89923,0.0,0.0,0.0,24.98096,-29.9084,-15.35527,7.96,-0.72,-0.08,4.0
1758088065.43591,1758087994.90923,0.0,0.0,0.0,24.35071,-30.99702,-14.78231,7.96,-0.72,-0.08,4.0
1758088065.43902,1758087994.91923,0.0,0.0,0.0,23.83505,-32.88778,-14.43854,7.55,-0.3,-0.45,4.0
1758088065.44447,1758087994.92923,0.0,0.0,0.0,22.68913,-39.70598,-14.03747,7.55,-0.3,-0.45,4.0
1758088065.44636,1758087994.93923,0.0,0.0,0.0,21.88699,-44.748,-13.06344,7.1,0.12,-0.08,4.0
1758088065.44758,1758087994.94923,0.0,0.0,0.0,20.85567,-50.76406,-11.74564,7.1,0.12,-0.08,4.0
1758088065.45006,1758087994.95923,0.0,0.0,0.0,19.76705,-55.86338,-9.22462,8.35,0.73,0.82,4.0
1758088065.45186,1758087994.96923,0.0,0.0,0.0,16.10011,-54.431,-4.35448,12.33,1.2,1.72,4.0
1758088065.45491,1758087994.97923,0.0,0.0,0.0,11.57375,-47.26902,-0.85944,12.33,1.2,1.72,4.0
1758088065.45691,1758087994.98923,0.0,0.0,0.0,5.84417,-39.99245,2.57831,16.21,1.56,1.74,4.0
1758088065.45945,1758087994.99923,0.0,0.0,0.0,-1.08862,-33.11696,3.66693,16.21,1.56,1.74,4.0
1758088065.46113,1758087995.00923,0.0,0.0,0.0,-9.91217,-20.22541,3.09397,15.66,1.24,1.52,4.0
1758088065.46661,1758087995.01923,0.0,0.0,0.0,-15.92823,-9.28192,2.97938,15.66,1.24,1.52,4.0
1758088065.46731,1758087995.02923,0.0,0.0,0.0,-22.86102,1.3178,4.92744,17.51,1.88,1.96,4.0
1758088065.47511,1758087995.03923,0.0,0.0,0.0,-27.10091,-1.83346,7.96411,17.51,1.88,1.96,4.0
1758088065.4755,1758087995.04923,0.0,0.0,0.0,-29.50733,-25.15285,9.96947,18.25,2.16,-0.25,4.0
1758088065.4802,1758087995.05923,0.0,0.0,0.0,-29.96569,-22.74642,6.53172,15.65,0.11,-1.48,4.0
1758088065.48224,1758087995.06923,0.0,0.0,0.0,-27.78845,-11.74564,3.95341,15.65,0.11,-1.48,4.0
1758088065.50035,1758087995.07923,0.0,0.0,0.0,-21.08485,0.80214,-1.83346,15.4,-0.61,-1.0,4.0
1758088065.50166,1758087995.08923,0.0,0.0,0.0,-16.95955,9.39651,-4.18259,15.4,-0.61,-1.0,4.0
1758088065.51784,1758087995.09923,0.0,0.0,0.0,-14.38124,15.46986,-4.69825,15.24,-0.13,0.23,4.0
1758088065.52092,1758087995.10923,0.0,0.0,0.0,-11.80293,15.0115,-3.32316,15.24,-0.13,0.23,4.0
1758088065.53632,1758087995.11923,0.0,0.0,0.0,-8.93814,10.31324,-1.03132,14.52,0.49,0.35,4.0
1758088065.53743,1758087995.12923,0.0,0.0,0.0,-7.39116,8.70896,-0.11459,13.02,0.56,0.09,4.0
1758088065.55566,1758087995.13923,0.0,0.0,0.0,-6.07335,9.5684,-0.51566,13.02,0.56,0.09,4.0
1758088065.55822,1758087995.14923,0.0,0.0,0.0,-5.09932,10.8862,-1.08862,11.77,0.17,0.17,4.0
1758088065.57323,1758087995.15923,0.0,0.0,0.0,-4.23989,12.14671,-2.00535,11.77,0.17,0.17,4.0
1758088065.59027,1758087995.16923,0.0,0.0,0.0,-3.66693,12.71966,-2.6929,10.71,-0.18,0.31,4.0
1758088065.5909,1758087995.17923,0.0,0.0,0.0,-2.7502,11.34457,-3.32316,10.71,-0.18,0.31,4.0
1758088065.60763,1758087995.18923,0.0,0.0,0.0,-1.83346,9.4538,-3.60963,9.5,-0.27,0.35,4.0
1758088065.6093,1758087995.19923,0.0,0.0,0.0,0.34377,9.33921,-3.66693,8.64,-0.06,0.36,4.0
1758088065.62515,1758087995.20923,0.0,0.0,0.0,2.11994,10.65701,-3.60963,8.64,-0.06,0.36,4.0
1758088065.6352,1758087995.21923,0.0,0.0,0.0,4.64096,12.71966,-3.38045,8.03,0.17,0.51,4.0
1758088065.6375,1758087995.22923,0.0,0.0,0.0,7.16197,15.35527,-2.57831,8.03,0.17,0.51,4.0
1758088065.65888,1758087995.23923,0.0,0.0,0.0,11.34457,18.73572,-1.48969,7.59,0.32,0.55,4.0
1758088065.77511,1758087995.24923,0.0,0.0,0.0,13.80828,18.79302,-0.97403,7.59,0.32,0.55,4.0
1758088065.77941,1758087995.25923,0.0,0.0,0.0,15.98552,17.99088,-0.0573,7.17,0.39,0.45,4.0
1758088065.80546,1758087995.26923,0.0,0.0,0.0,18.44924,16.55848,0.80214,7.17,0.39,0.45,4.0
1758088065.81109,1758087995.27923,0.0,0.0,0.0,19.19409,15.41257,1.43239,7.24,0.35,0.02,4.0
1758088065.81946,1758087995.28923,0.0,0.0,0.0,19.53786,15.75634,1.66158,7.66,0.24,-0.14,4.0
1758088065.91664,1758087995.29923,0.0,0.0,0.0,19.53786,17.01685,1.60428,7.66,0.24,-0.14,4.0
1758088065.93654,1758087995.30923,0.0,0.0,0.0,18.62113,19.88164,1.3751,8.04,0.22,-0.41,4.0
1758088065.93747,1758087995.31923,0.0,0.0,0.0,18.16276,21.48592,1.3751,8.04,0.22,-0.41,4.0
1758088065.93827,1758087995.32923,0.0,0.0,0.0,17.36062,21.42862,1.3751,8.17,0.3,-0.78,4.0
1758088065.94011,1758087995.33923,0.0,0.0,0.0,16.38659,19.99623,1.66158,8.17,0.3,-0.78,4.0
1758088065.9409,1758087995.34923,0.0,0.0,0.0,14.72501,15.41257,1.83346,8.12,0.52,-1.2,4.0
1758088065.94282,1758087995.35923,0.0,0.0,0.0,14.20935,10.71431,3.26586,8.37,0.75,-1.68,4.0
1758088065.94437,1758087995.36923,0.0,0.0,0.0,13.40721,7.39116,3.83882,8.37,0.75,-1.68,4.0
1758088065.94911,1758087995.37923,0.0,0.0,0.0,13.06344,2.63561,5.27121,9.16,0.84,-1.59,4.0
1758088065.95039,1758087995.38923,0.0,0.0,0.0,12.89155,-3.60963,6.7609,9.16,0.84,-1.59,4.0
1758088065.95136,1758087995.39923,0.0,0.0,0.0,13.23533,-6.99009,7.39116,9.71,0.63,-1.29,4.0
1758088065.95198,1758087995.40923,0.0,0.0,0.0,13.5218,-7.79223,7.50575,9.71,0.63,-1.29,4.0
1758088065.96126,1758087995.41923,0.0,0.0,0.0,13.46451,-7.67763,7.21927,10.21,0.31,-1.02,4.0
1758088065.96181,1758087995.42923,0.0,0.0,0.0,13.17803,-8.0787,6.24524,9.98,0.15,-0.71,4.0
1758088065.96463,1758087995.43923,0.0,0.0,0.0,12.60507,-9.33921,5.78687,9.98,0.15,-0.71,4.0
1758088065.96608,1758087995.44923,0.0,0.0,0.0,11.97482,-10.25595,5.61499,9.32,0.17,-0.66,4.0
1758088065.96762,1758087995.45923,0.0,0.0,0.0,11.57375,-10.37054,6.41713,9.32,0.17,-0.66,4.0
1758088065.96954,1758087995.46923,0.0,0.0,0.0,10.8862,-9.39651,7.21927,8.92,0.27,-0.76,4.0
1758088065.97097,1758087995.47923,0.0,0.0,0.0,10.65701,-8.59437,8.36518,8.92,0.27,-0.76,4.0
1758088065.97728,1758087995.48923,0.0,0.0,0.0,10.31324,-7.79223,9.33921,8.7,0.43,-0.77,4.0
1758088065.97775,1758087995.49923,0.0,0.0,0.0,10.02676,-6.8182,11.11538,8.7,0.43,-0.77,4.0
1758088065.9871,1758087995.50923,0.0,0.0,0.0,9.91217,-6.53172,11.91752,8.79,0.59,-0.8,4.0
1758088065.98748,1758087995.51923,0.0,0.0,0.0,9.74028,-6.41713,12.60507,8.76,0.66,-0.7,4.0
1758088065.99653,1758087995.52923,0.0,0.0,0.0,9.85487,-6.41713,12.83425,8.76,0.66,-0.7,4.0
1758088066.12161,1758087995.53923,0.0,0.0,0.0,10.02676,-6.13065,12.89155,8.64,0.61,-0.52,4.0
1758088066.12506,1758087995.54923,0.0,0.0,0.0,10.48513,-6.13065,12.71966,8.64,0.61,-0.52,4.0
1758088066.1271,1758087995.55923,0.0,0.0,0.0,10.8289,-6.07335,12.71966,8.64,0.48,-0.42,4.0
1758088066.13,1758087995.56923,0.0,0.0,0.0,11.11538,-5.95876,12.37589,8.64,0.48,-0.42,4.0
1758088066.13058,1758087995.57923,0.0,0.0,0.0,11.22997,-6.41713,12.08941,8.86,0.41,-0.5,4.0
1758088066.13524,1758087995.58923,0.0,0.0,0.0,11.57375,-6.8182,11.74564,8.9,0.39,-0.58,4.0
1758088066.1356,1758087995.59923,0.0,0.0,0.0,11.80293,-7.33386,11.51645,8.9,0.39,-0.58,4.0
1758088066.13636,1758087995.60923,0.0,0.0,0.0,12.37589,-7.73493,10.8862,8.67,0.37,-0.68,4.0
1758088066.14019,1758087995.61923,0.0,0.0,0.0,13.75099,-7.96411,9.91217,8.67,0.37,-0.68,4.0
1758088066.14142,1758087995.62923,0.0,0.0,0.0,14.83961,-8.136,9.22462,8.48,0.41,-0.77,4.0
1758088066.14735,1758087995.63923,0.0,0.0,0.0,15.75634,-8.93814,8.59437,8.48,0.41,-0.77,4.0
1758088066.14971,1758087995.64923,0.0,0.0,0.0,16.67307,-10.25595,8.0787,8.44,0.58,-0.71,4.0
1758088066.17581,1758087995.65923,0.0,0.0,0.0,17.99088,-14.03747,7.73493,8.3,0.79,-0.67,4.0
1758088066.17804,1758087995.66923,0.0,0.0,0.0,18.56383,-17.01685,7.50575,8.3,0.79,-0.67,4.0
1758088066.27921,1758087995.67923,0.0,0.0,0.0,18.90761,-19.42327,7.62034,8.03,0.95,-0.55,4.0
1758088066.27959,1758087995.68923,0.0,0.0,0.0,18.56383,-22.40265,7.39116,8.03,0.95,-0.55,4.0
1758088066.28267,1758087995.69923,0.0,0.0,0.0,18.16276,-25.72581,6.99009,8.04,0.95,-0.41,4.0
1758088066.28784,1758087995.70923,0.0,0.0,0.0,17.81899,-29.22085,5.72958,8.04,0.95,-0.41,4.0
1758088066.30958,1758087995.71923,0.0,0.0,0.0,18.16276,-34.77854,3.20856,9.19,0.32,0.22,4.0
1758088066.31023,1758087995.72923,0.0,0.0,0.0,21.42862,-42.51347,-1.08862,9.19,0.32,1.03,4.0
1758088066.31144,1758087995.73923,0.0,0.0,0.0,25.43933,-44.57612,-4.46907,11.51,-1.0,1.03,4.0
1758088066.31208,1758087995.74923,0.0,0.0,0.0,31.28349,-40.68,-7.04738,14.12,-2.66,1.52,4.0
1758088066.31323,1758087995.75923,0.0,0.0,0.0,38.1017,-32.54401,-8.36518,14.12,-2.66,1.52,4.0
1758088066.31968,1758087995.76923,0.0,0.0,0.0,47.09713,-7.84952,-7.04738,15.18,-3.59,1.33,4.0
1758088066.32186,1758087995.77923,0.0,0.0,0.0,53.05589,10.31324,-4.92744,15.18,-3.59,1.33,4.0
1758088066.43963,1758087995.78923,0.0,0.0,0.0,58.49899,10.25595,-1.60428,18.18,-4.52,0.84,4.0
1758088066.44104,1758087995.79923,0.0,0.0,0.0,57.81144,-2.7502,-3.95341,18.18,-4.52,0.84,4.0
1758088066.44409,1758087995.80923,0.0,0.0,0.0,57.86874,5.21392,-1.3751,16.64,-4.18,-1.55,4.0
1758088066.44701,1758087995.81923,0.0,0.0,0.0,59.35843,19.99623,3.95341,16.55,-1.4,-2.69,4.0
1758088066.45225,1758087995.82923,0.0,0.0,0.0,60.90542,30.30947,8.25059,16.55,-1.4,-2.69,4.0
1758088066.45459,1758087995.83923,0.0,0.0,0.0,62.33781,35.12231,11.86023,13.57,-0.14,-1.35,4.0
1758088066.45904,1758087995.84923,0.0,0.0,0.0,63.02536,32.6013,15.06879,13.57,-0.14,-1.35,4.0
1758088066.45937,1758087995.85923,0.0,0.0,0.0,62.28051,24.86637,14.72501,12.89,0.06,0.01,4.0
1758088066.46461,1758087995.86923,0.0,0.0,0.0,60.04598,14.38124,12.43318,12.89,0.06,0.01,4.0
1758088066.46608,1758087995.87923,0.0,0.0,0.0,55.92068,9.28192,7.50575,12.38,-0.29,-0.16,4.0
1758088066.46729,1758087995.88923,0.0,0.0,0.0,54.25911,23.72045,6.8182,12.97,-0.82,0.03,4.0
1758088066.47033,1758087995.89923,0.0,0.0,0.0,52.54023,28.76248,6.24524,12.97,-0.82,0.03,4.0
1758088066.47278,1758087995.90923,0.0,0.0,0.0,50.93595,24.35071,5.78687,10.45,-1.29,1.29,4.0
1758088066.47642,1758087995.91923,0.0,0.0,0.0,49.84733,12.60507,6.35983,10.45,-1.29,1.29,4.0
1758088066.47684,1758087995.92923,0.0,0.0,0.0,49.61814,6.47442,7.44845,8.73,-1.36,0.87,4.0
1758088066.48124,1758087995.93923,0.0,0.0,0.0,49.84733,0.45837,8.36518,8.73,-1.36,0.87,4.0
1758088066.48278,1758087995.94923,0.0,0.0,0.0,50.13381,-4.69825,9.22462,8.09,-1.16,0.0,4.0
1758088066.4878,1758087995.95923,0.0,0.0,0.0,50.2484,-9.4538,9.74028,7.56,-1.16,0.19,4.0
1758088066.48937,1758087995.96923,0.0,0.0,0.0,50.47758,-10.94349,10.08406,7.56,-0.99,0.19,4.0
1758088066.49051,1758087995.97923,0.0,0.0,0.0,50.64947,-10.8862,9.91217,7.47,-0.94,0.32,4.0
1758088066.49111,1758087995.98923,0.0,0.0,0.0,50.87865,-9.39651,9.91217,7.47,-0.94,0.32,4.0
1758088066.49332,1758087995.99923,0.0,0.0,0.0,51.39432,-3.32316,9.91217,8.05,-1.01,0.41,4.0
1758088066.49777,1758087996.00923,0.0,0.0,0.0,51.90998,1.71887,9.85487,8.05,-1.01,0.41,4.0
1758088066.50863,1758087996.01923,0.0,0.0,0.0,52.19646,5.27121,9.85487,8.63,-1.2,0.33,4.0
1758088066.51107,1758087996.02923,0.0,0.0,0.0,52.82671,6.70361,9.62569,8.63,-1.2,0.33,4.0
1758088066.51312,1758087996.03923,0.0,0.0,0.0,53.11319,5.55769,9.5684,8.39,-1.25,0.13,4.0
1758088066.51344,1758087996.04923,0.0,0.0,0.0,53.28508,-0.11459,8.99544,7.83,-1.25,-0.08,4.0
1758088066.51914,1758087996.05923,0.0,0.0,0.0,53.28508,-4.81285,8.65166,7.83,-1.25,-0.08,4.0
1758088066.52359,1758087996.06923,0.0,0.0,0.0,52.54023,-5.32851,7.62034,8.31,-1.05,-0.64,4.0
1758088066.524,1758087996.07923,0.0,0.0,0.0,51.6235,3.20856,6.13065,8.31,-1.05,-0.64,4.0
1758088066.52595,1758087996.08923,0.0,0.0,0.0,50.1911,8.70896,4.69825,9.54,-0.92,-0.9,4.0
1758088066.52711,1758087996.09923,0.0,0.0,0.0,48.24305,13.75099,2.86479,9.54,-0.92,-0.9,4.0
1758088066.52805,1758087996.10923,0.0,0.0,0.0,44.9199,16.38659,0.51566,9.89,-0.73,-0.5,4.0
1758088066.53218,1758087996.11923,0.0,0.0,0.0,42.74266,15.64175,-0.45837,9.7,-0.52,-0.46,4.0
1758088066.5476,1758087996.12923,0.0,0.0,0.0,41.02378,14.43854,-1.03132,9.7,-0.52,-0.46,4.0
1758088066.54875,1758087996.13923,0.0,0.0,0.0,39.64868,13.06344,-1.14592,9.45,-0.47,-0.67,4.0
1758088066.56369,1758087996.14923,0.0,0.0,0.0,38.50277,8.25059,-1.77617,9.45,-0.47,-0.67,4.0
1758088066.5796,1758087996.15923,0.0,0.0,0.0,38.27358,5.84417,-1.77617,8.51,-0.6,-0.54,4.0
1758088066.5808,1758087996.16923,0.0,0.0,0.0,37.98711,3.38045,-1.71887,8.51,-0.6,-0.54,4.0
1758088066.5956,1758087996.17923,0.0,0.0,0.0,37.81522,0.74485,-1.71887,7.64,-0.83,-0.28,4.0
1758088066.5968,1758087996.18923,0.0,0.0,0.0,37.92981,-2.29183,-2.00535,7.28,-1.12,-0.15,4.0
1758088066.61156,1758087996.19923,0.0,0.0,0.0,38.38818,-3.72423,-2.97938,7.28,-1.12,-0.15,4.0
1758088066.62864,1758087996.20923,0.0,0.0,0.0,39.01843,-4.1253,-4.29718,7.9,-1.54,-0.23,4.0
1758088066.63271,1758087996.21923,0.0,0.0,0.0,39.53409,-3.89611,-6.13065,7.9,-1.54,-0.23,4.0
1758088066.6487,1758087996.22923,0.0,0.0,0.0,40.39353,-2.97938,-8.70896,8.78,-1.77,-0.17,4.0
1758088066.65283,1758087996.23923,0.0,0.0,0.0,40.7373,-2.57831,-9.96947,8.78,-1.77,-0.17,4.0
1758088066.66794,1758087996.24923,0.0,0.0,0.0,40.7946,-1.77617,-10.37054,9.33,-1.57,-0.14,4.0
1758088066.66908,1758087996.25923,0.0,0.0,0.0,40.33623,-0.97403,-10.54242,9.33,-1.57,-0.14,4.0
1758088066.68389,1758087996.26923,0.0,0.0,0.0,38.90384,0.11459,-10.71431,9.97,-1.16,-0.37,4.0
1758088066.70202,1758087996.27923,0.0,0.0,0.0,37.75792,0.0573,-11.11538,10.81,-1.06,-0.42,4.0
1758088066.70321,1758087996.28923,0.0,0.0,0.0,36.15364,-1.03132,-11.63104,10.81,-1.06,-0.42,4.0
1758088066.71966,1758087996.29923,0.0,0.0,0.0,33.80451,-4.0107,-12.89155,11.03,-1.09,-0.19,4.0
1758088066.72727,1758087996.30923,0.0,0.0,0.0,32.54401,-5.50039,-13.46451,11.03,-1.09,-0.19,4.0
1758088066.73163,1758087996.31923,0.0,0.0,0.0,31.91375,-6.47442,-13.46451,10.56,-0.98,0.32,4.0
1758088066.73926,1758087996.32923,0.0,0.0,0.0,31.62727,-7.04738,-13.00614,10.56,-0.98,0.32,4.0
1758088066.76154,1758087996.33923,0.0,0.0,0.0,31.85646,-8.0787,-12.43318,9.6,-0.78,0.64,4.0
1758088066.7622,1758087996.34923,0.0,0.0,0.0,32.20023,-8.99544,-12.2613,8.72,-0.82,0.67,4.0
1758088066.7799,1758087996.35923,0.0,0.0,0.0,32.71589,-8.76626,-12.54778,8.72,-0.82,0.67,4.0
1758088066.78081,1758087996.36923,0.0,0.0,0.0,33.46074,-8.93814,-13.12073,8.35,-1.12,0.45,4.0
1758088066.797,1758087996.37923,0.0,0.0,0.0,34.43476,-10.54242,-15.35527,8.35,-1.12,0.45,4.0
1758088066.79974,1758087996.38923,0.0,0.0,0.0,35.00772,-8.02141,-16.84496,8.1,-1.36,-0.05,4.0
1758088066.8147,1758087996.39923,0.0,0.0,0.0,35.63798,-4.87014,-17.58981,8.1,-1.36,-0.05,4.0
1758088066.8162,1758087996.40923,0.0,0.0,0.0,35.75257,-1.83346,-17.93358,7.94,-1.25,-0.67,4.0
1758088066.83261,1758087996.41923,0.0,0.0,0.0,34.89313,0.68755,-17.53251,7.3,-0.9,-0.94,4.0
1758088066.83623,1758087996.42923,0.0,0.0,0.0,34.0337,1.3751,-16.84496,7.3,-0.9,-0.94,4.0
1758088066.85174,1758087996.43923,0.0,0.0,0.0,32.88778,1.3178,-15.87093,6.91,-0.7,-0.92,4.0
1758088066.87588,1758087996.44923,0.0,0.0,0.0,31.39809,1.3751,-14.72501,6.91,-0.7,-0.92,4.0
1758088066.87766,1758087996.45923,0.0,0.0,0.0,28.76248,0.40107,-13.17803,6.82,-0.66,-0.75,4.0
1758088066.87823,1758087996.46923,0.0,0.0,0.0,26.52795,-0.11459,-11.97482,6.82,-0.66,-0.75,4.0
1758088066.89447,1758087996.47923,0.0,0.0,0.0,23.89234,-0.68755,-11.17268,6.85,-0.58,-0.77,4.0
1758088066.89594,1758087996.48923,0.0,0.0,0.0,19.70975,-2.46372,-10.19865,6.85,-0.58,-0.77,4.0
1758088066.91276,1758087996.49923,0.0,0.0,0.0,17.01685,-10.02676,-9.05273,6.53,-0.43,-0.35,4.0
1758088066.92969,1758087996.50923,0.0,0.0,0.0,14.78231,-17.36062,-6.87549,6.51,0.11,0.58,4.0
1758088066.93086,1758087996.51923,0.0,0.0,0.0,12.89155,-25.55392,-3.26586,6.51,0.11,0.58,4.0
1758088066.94681,1758087996.52923,0.0,0.0,0.0,9.4538,-33.80451,3.09397,8.95,0.91,1.25,4.0
1758088066.94964,1758087996.53923,0.0,0.0,0.0,6.41713,-33.40344,6.87549,8.95,0.91,1.25,4.0
1758088066.96861,1758087996.54923,0.0,0.0,0.0,2.46372,-30.99702,9.68299,13.42,1.56,2.35,4.0
1758088067.15044,1758087996.55923,0.0,0.0,0.0,-2.29183,-25.26744,11.11538,13.42,1.56,2.35,4.0
1758088067.1775,1758087996.56923,0.0,0.0,0.0,-9.68299,-11.45916,10.08406,16.02,2.02,2.31,4.0
1758088067.24225,1758087996.57923,0.0,0.0,0.0,-14.72501,-2.29183,8.70896,17.14,2.63,2.36,4.0
1758088067.2468,1758087996.58923,0.0,0.0,0.0,-20.3973,2.46372,8.30789,17.14,2.63,2.36,4.0
1758088067.25051,1758087996.59923,0.0,0.0,0.0,-26.01229,9.11003,7.62034,19.37,3.8,1.71,4.0
1758088067.25107,1758087996.60923,0.0,0.0,0.0,-29.10626,8.25059,3.55234,19.37,3.8,1.71,4.0
1758088067.25174,1758087996.61923,0.0,0.0,0.0,-29.33544,10.48513,-0.17189,16.2,2.37,-1.03,4.0
1758088067.25487,1758087996.62923,0.0,0.0,0.0,-28.13223,8.30789,-3.66693,16.2,2.37,-1.03,4.0
1758088067.25531,1758087996.63923,0.0,0.0,0.0,-25.7831,2.97938,-6.53172,13.73,0.48,-0.83,4.0
1758088067.25649,1758087996.64923,0.0,0.0,0.0,-20.34,3.38045,-7.79223,15.09,-0.21,-1.28,4.0
1758088067.25721,1758087996.65923,0.0,0.0,0.0,-16.84496,10.02676,-7.16197,15.09,-0.21,-1.28,4.0
1758088067.26026,1758087996.66923,0.0,0.0,0.0,-12.77696,15.35527,-4.52637,16.1,-0.52,-0.15,4.0
1758088067.26065,1758087996.67923,0.0,0.0,0.0,-7.10468,20.16812,0.51566,16.1,-0.52,-0.15,4.0
1758088067.26179,1758087996.68923,0.0,0.0,0.0,0.51566,25.21014,2.86479,14.21,-0.85,0.02,4.0
1758088067.26244,1758087996.69923,0.0,0.0,0.0,4.18259,25.49662,3.72423,14.21,-0.85,0.02,4.0
1758088067.26365,1758087996.70923,0.0,0.0,0.0,6.24524,23.0329,3.55234,12.31,-1.0,0.35,4.0
1758088067.2643,1758087996.71923,0.0,0.0,0.0,7.21927,20.85567,3.09397,12.31,-1.0,0.35,4.0
1758088067.26631,1758087996.72923,0.0,0.0,0.0,7.04738,23.66316,2.40642,11.66,-0.83,0.14,4.0
1758088067.26697,1758087996.73923,0.0,0.0,0.0,6.18794,26.12688,2.06265,11.47,-0.07,0.49,4.0
1758088067.27219,1758087996.74923,0.0,0.0,0.0,6.07335,28.07493,1.71887,11.47,-0.07,0.49,4.0
1758088067.27281,1758087996.75923,0.0,0.0,0.0,8.136,29.56462,1.43239,10.53,0.53,0.54,4.0
1758088067.27439,1758087996.76923,0.0,0.0,0.0,11.11538,28.93437,0.97403,10.53,0.53,0.54,4.0
1758088067.27545,1758087996.77923,0.0,0.0,0.0,14.83961,27.10091,0.11459,9.47,0.5,0.11,4.0
1758088067.27621,1758087996.78923,0.0,0.0,0.0,19.42327,24.75178,-1.3178,9.47,0.5,0.11,4.0
1758088067.27743,1758087996.79923,0.0,0.0,0.0,26.24147,20.68378,-3.49504,8.49,0.3,0.04,4.0
1758088067.27999,1758087996.80923,0.0,0.0,0.0,30.99702,16.21471,-4.69825,7.97,0.05,0.29,4.0
1758088067.28162,1758087996.81923,0.0,0.0,0.0,35.2369,13.80828,-5.55769,7.97,0.05,0.29,4.0
1758088067.28239,1758087996.82923,0.0,0.0,0.0,39.53409,13.86558,-5.72958,8.41,-0.21,0.31,4.0
1758088067.28354,1758087996.83923,0.0,0.0,0.0,44.17505,20.74107,-6.18794,8.41,-0.21,0.31,4.0
1758088067.28414,1758087996.84923,0.0,0.0,0.0,46.00851,24.23611,-5.84417,8.99,-0.35,0.29,4.0
1758088067.28538,1758087996.85923,0.0,0.0,0.0,47.38361,26.18417,-4.98473,8.99,-0.35,0.29,4.0
1758088067.2868,1758087996.86923,0.0,0.0,0.0,48.41494,26.24147,-3.95341,8.66,-0.11,0.43,4.0
1758088067.28884,1758087996.87923,0.0,0.0,0.0,50.01921,25.26744,-1.20321,8.47,0.16,0.05,4.0
1758088067.30409,1758087996.88923,0.0,0.0,0.0,51.16513,25.21014,0.74485,8.47,0.16,0.05,4.0
1758088067.3209,1758087996.89923,0.0,0.0,0.0,52.13916,25.7831,3.03668,8.87,0.38,-0.5,4.0
1758088067.32185,1758087996.90923,0.0,0.0,0.0,53.68615,26.98631,5.4431,8.87,0.38,-0.5,4.0
1758088067.33783,1758087996.91923,0.0,0.0,0.0,54.66018,26.12688,6.41713,9.19,0.39,-0.94,4.0
1758088067.33886,1758087996.92923,0.0,0.0,0.0,55.40502,24.63719,6.47442,9.19,0.39,-0.94,4.0
1758088067.3557,1758087996.93923,0.0,0.0,0.0,56.20716,24.12152,6.41713,9.2,0.34,-0.85,4.0
1758088067.35692,1758087996.94923,0.0,0.0,0.0,56.78012,23.54857,6.53172,9.2,0.34,-0.85,4.0
1758088067.37292,1758087996.95923,0.0,0.0,0.0,56.952,28.01764,6.35983,9.34,0.4,-0.78,4.0
1758088067.40524,1758087996.96923,0.0,0.0,0.0,57.58226,35.12231,8.02141,10.17,0.54,-0.52,4.0
1758088067.40699,1758087996.97923,0.0,0.0,0.0,57.52497,39.70598,10.19865,10.17,0.54,-0.52,4.0
1758088067.40846,1758087996.98923,0.0,0.0,0.0,56.55093,38.1017,13.06344,9.75,0.56,0.17,4.0
1758088067.41279,1758087996.99923,0.0,0.0,0.0,55.51962,34.72124,14.43854,9.75,0.56,0.17,4.0
1758088067.42812,1758087997.00923,0.0,0.0,0.0,54.25911,31.2262,15.35527,9.28,0.45,0.02,4.0
1758088067.42904,1758087997.01923,0.0,0.0,0.0,52.82671,27.50197,15.98552,9.28,0.45,0.02,4.0
1758088067.44463,1758087997.02923,0.0,0.0,0.0,50.01921,21.14215,16.04282,9.13,0.39,-0.39,4.0
1758088067.44664,1758087997.03923,0.0,0.0,0.0,47.89928,16.10011,15.35527,8.76,0.55,-0.46,4.0
1758088067.46289,1758087997.04923,0.0,0.0,0.0,45.43555,11.57375,14.66772,8.76,0.55,-0.46,4.0
1758088067.46751,1758087997.05923,0.0,0.0,0.0,42.97184,6.99009,13.80828,8.57,0.9,-0.5,4.0
1758088067.49206,1758087997.06923,0.0,0.0,0.0,38.73195,0.85944,13.46451,8.57,0.9,-0.5,4.0
1758088067.4949,1758087997.07923,0.0,0.0,0.0,35.58068,-0.34377,12.89155,8.53,1.34,-0.57,4.0
1758088067.5099,1758087997.08923,0.0,0.0,0.0,32.25753,-3.20856,12.89155,8.53,1.34,-0.57,4.0
1758088067.51187,1758087997.09923,0.0,0.0,0.0,27.84575,-7.67763,13.40721,8.47,1.74,-0.65,4.0
1758088067.52715,1758087997.10923,0.0,0.0,0.0,26.06958,-16.55848,14.15206,9.08,1.78,0.16,4.0
1758088067.52835,1758087997.11923,0.0,0.0,0.0,25.72581,-24.98096,13.98017,9.08,1.78,0.16,4.0
1758088067.54298,1758087997.12923,0.0,0.0,0.0,26.87172,-34.72124,12.71966,11.1,1.08,2.04,4.0
1758088067.56017,1758087997.13923,0.0,0.0,0.0,27.73116,-59.81679,2.92208,11.1,1.08,2.04,4.0
1758088067.56286,1758087997.14923,0.0,0.0,0.0,29.04896,-52.82671,-4.69825,12.18,-0.18,2.29,4.0
1758088067.56752,1758087997.15923,0.0,0.0,0.0,33.40344,-37.12767,-7.10468,12.18,-0.18,2.29,4.0
1758088067.58419,1758087997.16923,0.0,0.0,0.0,37.29956,-28.76248,-5.84417,12.46,-0.62,1.09,4.0
1758088067.58596,1758087997.17923,0.0,0.0,0.0,38.15899,-19.88164,1.03132,10.47,-0.62,1.83,4.0
1758088067.60192,1758087997.18923,0.0,0.0,0.0,36.15364,-15.46986,6.99009,10.47,-0.1,1.83,4.0
1758088067.61901,1758087997.19923,0.0,0.0,0.0,32.37212,-8.47978,12.08941,11.73,0.21,1.37,4.0
1758088067.62073,1758087997.20923,0.0,0.0,0.0,27.78845,-4.29718,16.67307,11.73,0.21,1.37,4.0
1758088067.66402,1758087997.21923,0.0,0.0,0.0,22.28806,-3.49504,17.81899,12.75,0.39,2.1,4.0
1758088067.66769,1758087997.22923,0.0,0.0,0.0,20.34,-7.96411,14.72501,12.75,0.39,2.1,4.0
1758088067.66826,1758087997.23923,0.0,0.0,0.0,20.68378,-18.22006,13.75099,11.55,-0.15,2.87,4.0
1758088067.67064,1758087997.24923,0.0,0.0,0.0,21.6578,-22.63183,12.49048,11.55,-0.15,2.87,4.0
1758088067.67098,1758087997.25923,0.0,0.0,0.0,23.60586,-22.63183,10.08406,10.56,-0.94,2.3,4.0
1758088067.68692,1758087997.26923,0.0,0.0,0.0,24.5226,-23.26209,7.96411,9.43,-1.26,2.45,4.0
1758088067.68816,1758087997.27923,0.0,0.0,0.0,24.86637,-23.83505,5.90147,9.43,-1.26,2.45,4.0
1758088067.70302,1758087997.28923,0.0,0.0,0.0,24.80907,-22.23076,4.23989,9.35,-0.63,2.17,4.0
1758088067.71922,1758087997.29923,0.0,0.0,0.0,23.72045,-13.86558,4.87014,9.35,-0.63,2.17,4.0
1758088067.72128,1758087997.30923,0.0,0.0,0.0,23.49127,-3.26586,7.44845,10.89,-0.14,1.88,4.0
1758088067.73621,1758087997.31923,0.0,0.0,0.0,22.51724,1.43239,10.54242,10.89,-0.14,1.88,4.0
1758088067.73754,1758087997.32923,0.0,0.0,0.0,20.68378,-2.63561,13.40721,10.54,-0.56,2.17,4.0
1758088067.75224,1758087997.33923,0.0,0.0,0.0,18.62113,-10.71431,12.71966,9.24,-1.48,1.5,4.0
1758088067.77102,1758087997.34923,0.0,0.0,0.0,18.27736,-10.65701,11.97482,9.24,-1.48,1.5,4.0
1758088067.77274,1758087997.35923,0.0,0.0,0.0,19.19409,-4.1253,11.28727,10.53,-1.84,0.5,4.0
1758088067.78904,1758087997.36923,0.0,0.0,0.0,21.7151,6.18794,10.59972,10.53,-1.84,0.5,4.0
1758088067.79579,1758087997.37923,0.0,0.0,0.0,23.72045,9.4538,10.31324,10.23,-1.78,1.19,4.0
1758088067.79614,1758087997.38923,0.0,0.0,0.0,25.89769,9.28192,10.48513,10.23,-1.78,1.19,4.0
1758088067.81228,1758087997.39923,0.0,0.0,0.0,27.38738,7.10468,10.31324,9.18,-1.52,1.23,4.0
1758088067.81747,1758087997.40923,0.0,0.0,0.0,29.8511,8.42248,11.17268,9.2,-1.24,0.96,4.0
1758088067.84006,1758087997.41923,0.0,0.0,0.0,31.39809,7.73493,11.57375,9.2,-1.24,0.96,4.0
1758088067.84369,1758087997.42923,0.0,0.0,0.0,32.08564,6.70361,11.57375,9.1,-1.09,1.13,4.0
1758088067.85927,1758087997.43923,0.0,0.0,0.0,33.00237,6.58902,11.74564,9.1,-1.09,1.13,4.0
1758088067.86337,1758087997.44923,0.0,0.0,0.0,33.46074,8.70896,11.00079,9.32,-1.01,1.19,4.0
1758088067.87933,1758087997.45923,0.0,0.0,0.0,33.74722,11.63104,10.31324,9.32,-1.01,1.19,4.0
1758088068.00614,1758087997.46923,0.0,0.0,0.0,33.68992,14.61043,9.4538,9.58,-1.01,1.13,4.0
1758088068.00783,1758087997.47923,0.0,0.0,0.0,33.51803,15.24068,8.70896,9.58,-1.01,1.13,4.0
1758088068.00875,1758087997.48923,0.0,0.0,0.0,32.83048,13.46451,7.44845,9.29,-0.99,1.14,4.0
1758088068.01054,1758087997.49923,0.0,0.0,0.0,32.08564,11.80293,6.7609,9.07,-0.93,0.93,4.0
1758088068.01217,1758087997.50923,0.0,0.0,0.0,31.28349,10.48513,6.18794,9.07,-0.93,0.93,4.0
1758088068.01709,1758087997.51923,0.0,0.0,0.0,30.13758,9.91217,5.4431,9.11,-0.83,0.63,4.0
1758088068.01749,1758087997.52923,0.0,0.0,0.0,29.22085,8.36518,4.92744,9.11,-0.83,0.63,4.0
1758088068.01867,1758087997.53923,0.0,0.0,0.0,28.59059,7.44845,4.52637,9.13,-0.85,0.54,4.0
1758088068.01942,1758087997.54923,0.0,0.0,0.0,28.13223,6.70361,4.18259,9.13,-0.85,0.54,4.0
1758088068.02059,1758087997.55923,0.0,0.0,0.0,27.73116,6.47442,3.66693,9.39,-1.03,0.4,4.0
1758088068.0234,1758087997.56923,0.0,0.0,0.0,27.38738,6.41713,3.26586,9.4,-1.15,0.36,4.0
1758088068.02485,1758087997.57923,0.0,0.0,0.0,27.04361,6.53172,2.40642,9.4,-1.15,0.36,4.0
1758088068.02563,1758087997.58923,0.0,0.0,0.0,26.75713,6.24524,1.66158,9.2,-1.11,0.25,4.0
1758088068.02673,1758087997.59923,0.0,0.0,0.0,25.89769,5.78687,0.22918,9.2,-1.11,0.25,4.0
1758088068.02734,1758087997.60923,0.0,0.0,0.0,25.21014,5.90147,-0.57296,9.15,-1.0,-0.05,4.0
1758088068.03254,1758087997.61923,0.0,0.0,0.0,24.29341,5.61499,-1.43239,9.15,-1.0,-0.05,4.0
1758088068.03742,1758087997.62923,0.0,0.0,0.0,23.72045,5.21392,-2.34913,9.24,-0.96,-0.24,4.0
1758088068.05409,1758087997.63923,0.0,0.0,0.0,22.86102,5.4431,-3.95341,9.45,-1.06,-0.22,4.0
1758088068.0568,1758087997.64923,0.0,0.0,0.0,22.28806,5.4431,-4.81285,9.45,-1.06,-0.22,4.0
1758088068.07545,1758087997.65923,0.0,0.0,0.0,21.6578,4.46907,-5.72958,9.39,-1.15,-0.15,4.0
1758088068.07823,1758087997.66923,0.0,0.0,0.0,20.97026,2.40642,-6.70361,9.39,-1.15,-0.15,4.0
1758088068.09689,1758087997.67923,0.0,0.0,0.0,20.16812,0.0573,-7.50575,9.24,-1.14,0.04,4.0
1758088068.09805,1758087997.68923,0.0,0.0,0.0,19.59516,-2.63561,-7.79223,9.24,-1.14,0.04,4.0
1758088068.11337,1758087997.69923,0.0,0.0,0.0,18.85031,-6.18794,-7.67763,9.09,-1.03,0.23,4.0
1758088068.13101,1758087997.70923,0.0,0.0,0.0,17.99088,-10.54242,-6.99009,9.09,-1.03,0.23,4.0
1758088068.1364,1758087997.71923,0.0,0.0,0.0,16.21471,-17.01685,-5.95876,9.3,-0.74,0.92,4.0
1758088068.13674,1758087997.72923,0.0,0.0,0.0,14.61043,-21.31403,-4.35448,10.84,-0.23,2.22,4.0
1758088068.15214,1758087997.73923,0.0,0.0,0.0,12.204,-25.09555,-2.40642,10.84,-0.23,2.22,4.0
1758088068.16914,1758087997.74923,0.0,0.0,0.0,8.02141,-29.39274,-1.14592,12.53,-0.04,2.56,4.0
1758088068.17209,1758087997.75923,0.0,0.0,0.0,5.90147,-29.33544,-2.00535,12.53,-0.04,2.56,4.0
1758088068.18714,1758087997.76923,0.0,0.0,0.0,5.55769,-25.61122,-4.46907,11.75,-0.5,1.94,4.0
1758088068.18989,1758087997.77923,0.0,0.0,0.0,6.99009,-19.88164,-8.93814,11.75,-0.5,1.94,4.0
1758088068.20611,1758087997.78923,0.0,0.0,0.0,12.83425,-11.80293,-15.87093,11.48,-1.14,1.1,4.0
1758088068.20763,1758087997.79923,0.0,0.0,0.0,18.22006,-10.02676,-18.9649,11.4,-1.47,1.43,4.0
1758088068.22209,1758087997.80923,0.0,0.0,0.0,24.5226,-14.43854,-20.79837,11.4,-1.47,1.43,4.0
1758088068.23843,1758087997.81923,0.0,0.0,0.0,29.8511,-24.00693,-20.45459,9.85,-0.98,2.26,4.0
1758088068.2412,1758087997.82923,0.0,0.0,0.0,34.72124,-35.63798,-18.22006,9.85,-0.98,2.26,4.0
1758088068.25639,1758087997.83923,0.0,0.0,0.0,36.7266,-28.07493,-15.92823,9.67,0.15,2.08,4.0
1758088068.25731,1758087997.84923,0.0,0.0,0.0,35.86716,-16.38659,-15.29797,9.67,0.15,2.08,4.0
1758088068.31132,1758087997.85923,0.0,0.0,0.0,35.06502,-11.34457,-13.75099,10.25,1.13,1.92,4.0
1758088068.31248,1758087997.86923,0.0,0.0,0.0,31.97105,-9.33921,-12.60507,8.87,1.51,1.9,4.0
1758088068.31387,1758087997.87923,0.0,0.0,0.0,29.67921,-8.88085,-11.17268,8.87,1.51,1.9,4.0
1758088068.31725,1758087997.88923,0.0,0.0,0.0,26.75713,-5.72958,-9.96947,9.5,1.37,1.34,4.0
1758088068.32194,1758087997.89923,0.0,0.0,0.0,23.60586,-1.83346,-8.99544,9.5,1.37,1.34,4.0
1758088068.32314,1758087997.90923,0.0,0.0,0.0,18.27736,1.83346,-10.48513,10.41,1.06,1.81,4.0
1758088068.34082,1758087997.91923,0.0,0.0,0.0,15.24068,2.46372,-11.45916,10.41,1.06,1.81,4.0
1758088068.36691,1758087997.92923,0.0,0.0,0.0,12.89155,2.97938,-12.2613,10.45,1.03,1.91,4.0
1758088068.36727,1758087997.93923,0.0,0.0,0.0,10.8289,2.29183,-12.89155,10.45,1.03,1.91,4.0
1758088068.37642,1758087997.94923,0.0,0.0,0.0,11.34457,4.98473,-12.49048,9.88,1.19,1.33,4.0
1758088068.37737,1758087997.95923,0.0,0.0,0.0,12.83425,8.30789,-11.63104,9.59,1.13,0.9,4.0
1758088068.37937,1758087997.96923,0.0,0.0,0.0,14.20935,8.25059,-11.11538,9.59,1.13,0.9,4.0
1758088068.39412,1758087997.97923,0.0,0.0,0.0,15.64175,3.83882,-10.37054,8.88,0.98,0.78,4.0
1758088068.39691,1758087997.98923,0.0,0.0,0.0,16.3293,-0.34377,-10.19865,8.88,0.98,0.78,4.0
1758088068.41472,1758087997.99923,0.0,0.0,0.0,16.95955,-4.52637,-9.91217,8.75,0.78,0.73,4.0
1758088068.41755,1758087998.00923,0.0,0.0,0.0,17.53251,-7.79223,-9.68299,8.75,0.78,0.73,4.0
1758088068.43541,1758087998.01923,0.0,0.0,0.0,17.76169,-9.5684,-9.33921,8.99,0.71,0.81,4.0
1758088068.4367,1758087998.02923,0.0,0.0,0.0,17.6471,-9.85487,-9.05273,9.26,0.79,0.99,4.0
1758088068.4525,1758087998.03923,0.0,0.0,0.0,17.18874,-8.42248,-8.59437,9.26,0.79,0.99,4.0
1758088068.46817,1758087998.04923,0.0,0.0,0.0,16.50119,-6.13065,-7.84952,9.66,0.99,1.13,4.0
1758088068.46937,1758087998.05923,0.0,0.0,0.0,15.41257,-2.63561,-6.7609,9.66,0.99,1.13,4.0
1758088068.4842,1758087998.06923,0.0,0.0,0.0,14.72501,0.0,-5.72958,9.81,1.03,1.26,4.0
1758088068.5004,1758087998.07923,0.0,0.0,0.0,13.5791,2.34913,-4.69825,9.81,1.03,1.26,4.0
1758088068.50132,1758087998.08923,0.0,0.0,0.0,12.89155,4.58366,-3.83882,10.03,0.99,1.13,4.0
1758088068.51673,1758087998.09923,0.0,0.0,0.0,11.97482,5.09932,-2.34913,9.91,0.9,1.08,4.0
1758088068.51738,1758087998.10923,0.0,0.0,0.0,11.63104,3.20856,-1.77617,9.91,0.9,1.08,4.0
1758088068.53352,1758087998.11923,0.0,0.0,0.0,11.22997,0.80214,-1.43239,9.62,0.92,0.82,4.0
1758088068.55101,1758087998.12923,0.0,0.0,0.0,10.25595,-0.74485,-1.20321,9.62,0.92,0.82,4.0
1758088068.55253,1758087998.13923,0.0,0.0,0.0,10.02676,-0.85944,-1.3178,9.56,1.01,0.57,4.0
1758088068.57138,1758087998.14923,0.0,0.0,0.0,9.4538,0.45837,-1.20321,9.56,1.01,0.57,4.0
1758088068.57665,1758087998.15923,0.0,0.0,0.0,9.11003,2.6929,-1.08862,9.51,1.09,0.59,4.0
1758088068.577,1758087998.16923,0.0,0.0,0.0,8.42248,5.61499,-0.34377,9.51,1.09,0.59,4.0
1758088068.59508,1758087998.17923,0.0,0.0,0.0,7.73493,7.39116,0.40107,9.42,1.21,0.66,4.0
1758088068.61663,1758087998.18923,0.0,0.0,0.0,6.70361,8.136,1.03132,9.51,1.34,0.59,4.0
1758088068.67152,1758087998.19923,0.0,0.0,0.0,5.21392,8.65166,1.66158,9.51,1.34,0.59,4.0
1758088068.67563,1758087998.20923,0.0,0.0,0.0,2.86479,8.65166,2.40642,9.58,1.35,0.38,4.0
1758088068.6765,1758087998.21923,0.0,0.0,0.0,1.3178,8.76626,2.6929,9.58,1.35,0.38,4.0
1758088068.67907,1758087998.22923,0.0,0.0,0.0,-0.17189,8.02141,2.86479,9.54,1.27,0.26,4.0
1758088068.6824,1758087998.23923,0.0,0.0,0.0,-1.83346,6.70361,2.92208,9.54,1.27,0.26,4.0
1758088068.68503,1758087998.24923,0.0,0.0,0.0,-4.23989,3.95341,3.20856,9.21,1.18,0.18,4.0
1758088068.68622,1758087998.25923,0.0,0.0,0.0,-5.78687,1.71887,3.32316,8.86,1.13,0.0,4.0
1758088068.68729,1758087998.26923,0.0,0.0,0.0,-7.73493,-0.74485,3.60963,8.86,1.13,0.0,4.0
1758088068.68883,1758087998.27923,0.0,0.0,0.0,-9.11003,-2.11994,3.89611,8.39,1.14,-0.03,4.0
1758088068.70422,1758087998.28923,0.0,0.0,0.0,-11.28727,-0.40107,4.29718,8.39,1.14,-0.03,4.0
1758088068.70785,1758087998.29923,0.0,0.0,0.0,-12.71966,2.7502,4.87014,8.16,1.13,0.2,4.0
1758088068.72508,1758087998.30923,0.0,0.0,0.0,-13.80828,6.13065,5.95876,8.16,1.13,0.2,4.0
1758088068.74044,1758087998.31923,0.0,0.0,0.0,-15.12609,7.16197,7.16197,7.94,1.07,0.46,4.0
1758088068.74147,1758087998.32923,0.0,0.0,0.0,-17.6471,5.09932,7.96411,7.78,1.1,0.38,4.0
1758088068.75634,1758087998.33923,0.0,0.0,0.0,-19.53786,1.60428,8.59437,7.78,1.1,0.38,4.0
1758088068.75749,1758087998.34923,0.0,0.0,0.0,-21.48592,-1.60428,8.88085,7.89,1.15,0.03,4.0
1758088068.77254,1758087998.35923,0.0,0.0,0.0,-23.66316,-6.70361,9.33921,7.89,1.15,0.03,4.0
1758088068.78837,1758087998.36923,0.0,0.0,0.0,-24.4653,-10.25595,9.91217,8.0,1.16,-0.04,4.0
1758088068.79266,1758087998.37923,0.0,0.0,0.0,-24.98096,-13.80828,9.91217,8.0,1.16,-0.04,4.0
1758088068.80836,1758087998.38923,0.0,0.0,0.0,-25.38203,-15.98552,10.02676,8.1,1.09,-0.01,4.0
1758088068.80947,1758087998.39923,0.0,0.0,0.0,-25.89769,-18.22006,9.4538,8.1,1.09,-0.03,4.0
1758088068.82429,1758087998.40923,0.0,0.0,0.0,-26.18417,-19.59516,9.11003,8.46,1.01,-0.03,4.0
1758088068.83026,1758087998.41923,0.0,0.0,0.0,-26.75713,-20.79837,8.65166,8.55,0.91,-0.13,4.0
1758088068.84729,1758087998.42923,0.0,0.0,0.0,-27.1582,-21.6578,8.0787,8.55,0.91,-0.13,4.0
1758088068.85005,1758087998.43923,0.0,0.0,0.0,-27.67386,-22.28806,7.73493,8.44,0.84,-0.19,4.0
1758088068.8661,1758087998.44923,0.0,0.0,0.0,-27.96034,-22.28806,7.79223,8.44,0.84,-0.19,4.0
1758088068.86746,1758087998.45923,0.0,0.0,0.0,-27.67386,-21.6578,8.02141,8.31,0.83,-0.18,4.0
1758088068.88228,1758087998.46923,0.0,0.0,0.0,-27.73116,-20.97026,8.36518,8.31,0.83,-0.18,4.0
1758088068.90356,1758087998.47923,0.0,0.0,0.0,-27.44468,-19.48057,9.05273,8.43,0.85,-0.21,4.0
1758088068.90605,1758087998.48923,0.0,0.0,0.0,-27.38738,-18.73572,9.28192,8.54,0.88,-0.23,4.0
1758088068.90671,1758087998.49923,0.0,0.0,0.0,-27.61657,-18.62113,9.11003,8.54,0.88,-0.23,4.0
1758088068.92631,1758087998.50923,0.0,0.0,0.0,-27.61657,-19.76705,8.93814,8.21,0.9,-0.31,4.0
1758088068.9275,1758087998.51923,0.0,0.0,0.0,-27.84575,-21.7151,8.88085,8.21,0.9,-0.31,4.0
1758088068.94261,1758087998.52923,0.0,0.0,0.0,-28.13223,-22.86102,9.05273,7.71,0.94,-0.17,4.0
1758088068.95942,1758087998.53923,0.0,0.0,0.0,-28.59059,-23.49127,9.39651,7.71,0.94,-0.17,4.0
1758088068.96129,1758087998.54923,0.0,0.0,0.0,-29.8511,-26.35606,10.31324,7.2,0.93,-0.31,4.0
1758088068.9773,1758087998.55923,0.0,0.0,0.0,-30.82513,-28.99167,11.45916,6.64,0.67,-0.7,4.0
1758088068.97927,1758087998.56923,0.0,0.0,0.0,-31.62727,-33.00237,12.43318,6.64,0.67,-0.7,4.0
1758088068.99432,1758087998.57923,0.0,0.0,0.0,-32.6013,-38.73195,12.71966,8.14,-0.16,0.1,4.0
1758088069.01071,1758087998.58923,0.0,0.0,0.0,-33.63263,-48.30034,8.47978,8.14,-0.16,0.1,4.0
1758088069.01473,1758087998.59923,0.0,0.0,0.0,-31.45539,-46.2377,-0.97403,14.5,-2.02,3.16,4.0
1758088069.0303,1758087998.60923,0.0,0.0,0.0,-22.63183,-37.47144,-8.93814,14.5,-2.02,3.16,4.0
1758088069.0347,1758087998.61923,0.0,0.0,0.0,-13.00614,-49.67545,-18.79302,23.17,-5.94,3.78,4.0
1758088069.05086,1758087998.62923,0.0,0.0,0.0,-1.14592,-56.83742,-21.88699,17.75,-5.35,1.63,4.0
1758088069.0523,1758087998.63923,0.0,0.0,0.0,6.41713,-43.31561,-18.27736,17.75,-5.35,1.63,4.0
1758088069.06749,1758087998.64923,0.0,0.0,0.0,12.49048,-22.68913,-11.34457,13.97,-1.74,-0.72,4.0
1758088069.07252,1758087998.65923,0.0,0.0,0.0,17.53251,-0.57296,-1.60428,13.97,-1.74,-0.72,4.0
1758088069.08759,1758087998.66923,0.0,0.0,0.0,22.86102,23.37668,14.20935,12.09,0.15,-1.88,4.0
1758088069.09252,1758087998.67923,0.0,0.0,0.0,23.0902,28.30412,20.97026,12.09,0.15,-1.88,4.0
1758088069.10756,1758087998.68923,0.0,0.0,0.0,20.85567,32.88778,23.83505,12.74,0.04,-0.45,4.0
1758088069.11092,1758087998.69923,0.0,0.0,0.0,17.87628,38.38818,23.72045,12.74,0.04,-0.45,4.0
1758088069.12635,1758087998.70923,0.0,0.0,0.0,12.89155,31.39809,18.73572,16.26,-0.87,-0.14,4.0
1758088069.12872,1758087998.71923,0.0,0.0,0.0,8.88085,17.47521,12.83425,15.53,-1.68,1.27,4.0
1758088069.14636,1758087998.72923,0.0,0.0,0.0,4.23989,11.63104,4.92744,15.53,-1.68,1.27,4.0
1758088069.15078,1758087998.73923,0.0,0.0,0.0,0.85944,23.26209,0.57296,15.03,-1.35,0.73,4.0
1758088069.16635,1758087998.74923,0.0,0.0,0.0,0.34377,32.71589,0.40107,15.03,-1.35,0.73,4.0
1758088069.1676,1758087998.75923,0.0,0.0,0.0,-0.11459,27.50197,1.71887,12.05,-0.57,1.21,4.0
1758088069.2343,1758087998.76923,0.0,0.0,0.0,-0.74485,21.08485,3.49504,12.05,-0.57,1.21,4.0
1758088069.23551,1758087998.77923,0.0,0.0,0.0,-0.97403,16.21471,6.24524,9.48,0.0,1.34,4.0
1758088069.2361,1758087998.78923,0.0,0.0,0.0,-0.45837,13.80828,7.39116,8.75,0.04,0.37,4.0
1758088069.23741,1758087998.79923,0.0,0.0,0.0,0.0573,11.11538,8.30789,8.75,0.04,0.37,4.0
1758088069.23881,1758087998.80923,0.0,0.0,0.0,0.22918,8.25059,7.96411,7.74,-0.45,0.15,4.0
1758088069.24164,1758087998.81923,0.0,0.0,0.0,0.51566,5.55769,6.47442,7.74,-0.45,0.15,4.0
1758088069.24227,1758087998.82923,0.0,0.0,0.0,0.85944,5.27121,4.92744,7.13,-1.03,-0.18,4.0
1758088069.25866,1758087998.83923,0.0,0.0,0.0,1.20321,5.78687,3.09397,7.13,-1.03,-0.18,4.0
1758088069.25958,1758087998.84923,0.0,0.0,0.0,1.94806,6.07335,1.94806,6.96,-1.4,-0.08,4.0
1758088069.2744,1758087998.85923,0.0,0.0,0.0,3.49504,4.92744,0.57296,6.95,-1.54,0.25,4.0
1758088069.29045,1758087998.86923,0.0,0.0,0.0,4.92744,3.55234,0.34377,6.95,-1.54,0.25,4.0
1758088069.29161,1758087998.87923,0.0,0.0,0.0,6.13065,3.89611,0.34377,7.59,-1.54,0.27,4.0
1758088069.30669,1758087998.88923,0.0,0.0,0.0,7.73493,6.70361,0.74485,7.59,-1.54,0.27,4.0
1758088069.30804,1758087998.89923,0.0,0.0,0.0,10.48513,14.15206,1.08862,8.59,-1.51,0.16,4.0
1758088069.32247,1758087998.90923,0.0,0.0,0.0,12.2613,19.19409,1.3751,8.59,-1.51,0.16,4.0
1758088069.33946,1758087998.91923,0.0,0.0,0.0,14.66772,24.92367,1.94806,8.79,-1.43,0.3,4.0
1758088069.34065,1758087998.92923,0.0,0.0,0.0,16.04282,27.10091,2.29183,8.79,-1.43,0.3,4.0
1758088069.35573,1758087998.93923,0.0,0.0,0.0,17.47521,16.50119,1.94806,8.37,-1.32,0.32,4.0
1758088069.35689,1758087998.94923,0.0,0.0,0.0,17.18874,9.39651,0.74485,7.9,-1.05,-0.28,4.0
1758088069.37252,1758087998.95923,0.0,0.0,0.0,17.18874,8.76626,-0.45837,7.9,-1.05,-0.28,4.0
1758088069.38941,1758087998.96923,0.0,0.0,0.0,17.47521,10.71431,-1.71887,9.25,-0.75,-1.07,4.0
1758088069.39084,1758087998.97923,0.0,0.0,0.0,17.58981,9.5684,-2.34913,9.25,-0.75,-1.07,4.0
1758088069.40549,1758087998.98923,0.0,0.0,0.0,17.36062,6.7609,-3.03668,9.07,-0.63,-0.39,4.0
1758088069.4074,1758087998.99923,0.0,0.0,0.0,17.01685,3.55234,-3.83882,9.07,-0.63,-0.39,4.0
1758088069.42272,1758087999.00923,0.0,0.0,0.0,16.10011,-1.71887,-5.4431,9.09,-0.65,0.11,4.0
1758088069.4395,1758087999.01923,0.0,0.0,0.0,15.35527,-5.4431,-6.70361,9.5,-0.65,0.28,4.0
1758088069.44258,1758087999.02923,0.0,0.0,0.0,14.66772,-7.44845,-7.96411,9.5,-0.65,0.28,4.0
1758088069.45852,1758087999.03923,0.0,0.0,0.0,14.15206,-7.79223,-8.76626,9.88,-0.64,0.06,4.0
1758088069.46183,1758087999.04923,0.0,0.0,0.0,13.17803,-9.39651,-9.96947,9.88,-0.64,0.06,4.0
1758088069.47847,1758087999.05923,0.0,0.0,0.0,12.83425,-10.25595,-10.31324,9.33,-0.55,0.11,4.0
1758088069.47982,1758087999.06923,0.0,0.0,0.0,12.49048,-11.51645,-10.02676,9.33,-0.55,0.11,4.0
1758088069.49475,1758087999.07923,0.0,0.0,0.0,12.204,-12.43318,-9.4538,8.47,-0.44,0.02,4.0
1758088069.51079,1758087999.08923,0.0,0.0,0.0,12.60507,-10.71431,-8.59437,8.01,-0.39,-0.21,4.0
1758088069.51194,1758087999.09923,0.0,0.0,0.0,13.12073,-8.70896,-8.0787,8.01,-0.39,-0.21,4.0
1758088069.52649,1758087999.10923,0.0,0.0,0.0,13.69369,-6.47442,-8.02141,7.82,-0.51,-0.6,4.0
1758088069.52925,1758087999.11923,0.0,0.0,0.0,13.98017,-4.1253,-8.88085,7.82,-0.51,-0.6,4.0
1758088069.54649,1758087999.12923,0.0,0.0,0.0,13.98017,-2.63561,-9.85487,8.02,-0.64,-0.56,4.0
1758088069.54768,1758087999.13923,0.0,0.0,0.0,13.80828,-3.38045,-11.00079,8.02,-0.64,-0.56,4.0
1758088069.56352,1758087999.14923,0.0,0.0,0.0,13.5791,-4.64096,-12.14671,8.6,-0.73,-0.36,4.0
1758088069.57948,1758087999.15923,0.0,0.0,0.0,13.40721,-5.61499,-14.03747,8.6,-0.73,-0.36,4.0
1758088069.6098,1758087999.16923,0.0,0.0,0.0,13.23533,-9.5684,-14.72501,9.35,-0.83,0.0,4.0
1758088069.61154,1758087999.17923,0.0,0.0,0.0,13.00614,-12.54778,-14.9542,9.26,-0.71,0.04,4.0
1758088069.61289,1758087999.18923,0.0,0.0,0.0,12.37589,-15.69904,-14.66772,9.26,-0.71,0.04,4.0
1758088069.61322,1758087999.19923,0.0,0.0,0.0,11.34457,-21.94428,-14.20935,8.24,-0.3,0.08,4.0
1758088069.6313,1758087999.20923,0.0,0.0,0.0,11.00079,-22.28806,-13.98017,8.24,-0.3,0.08,4.0
1758088069.63571,1758087999.21923,0.0,0.0,0.0,10.71431,-20.34,-13.69369,7.59,-0.17,-0.36,4.0
1758088069.67067,1758087999.22923,0.0,0.0,0.0,10.31324,-16.55848,-14.15206,7.59,-0.17,-0.36,4.0
1758088069.67164,1758087999.23923,0.0,0.0,0.0,9.62569,-14.03747,-14.78231,7.09,-0.23,-0.91,4.0
1758088069.67274,1758087999.24923,0.0,0.0,0.0,9.62569,-14.83961,-15.24068,5.85,-0.26,-1.27,4.0
1758088069.67514,1758087999.25923,0.0,0.0,0.0,9.4538,-16.38659,-15.06879,5.85,-0.26,-1.27,4.0
1758088069.69051,1758087999.26923,0.0,0.0,0.0,8.99544,-15.98552,-14.9542,5.17,-0.34,-1.66,4.0
1758088069.69253,1758087999.27923,0.0,0.0,0.0,8.65166,-13.86558,-13.98017,5.17,-0.34,-1.66,4.0
1758088069.7357,1758087999.28923,0.0,0.0,0.0,8.30789,-14.9542,-12.60507,5.02,-0.19,-1.35,4.0
1758088069.73745,1758087999.29923,0.0,0.0,0.0,7.73493,-17.81899,-10.19865,5.02,-0.19,-1.35,4.0
1758088069.73811,1758087999.30923,0.0,0.0,0.0,6.99009,-21.14215,-6.8182,5.98,0.31,-0.29,4.0
1758088069.73931,1758087999.31923,0.0,0.0,0.0,5.21392,-25.89769,-1.20321,9.49,0.87,1.19,4.0
1758088069.74074,1758087999.32923,0.0,0.0,0.0,5.09932,-26.98631,1.3178,9.49,0.87,1.19,4.0
1758088069.75681,1758087999.33923,0.0,0.0,0.0,5.61499,-29.73651,3.09397,15.25,1.73,3.73,4.0
1758088069.75773,1758087999.34923,0.0,0.0,0.0,6.70361,-34.0337,5.95876,15.25,1.73,3.73,4.0
1758088069.77279,1758087999.35923,0.0,0.0,0.0,5.15662,-29.62192,8.76626,23.44,3.32,7.78,4.0
1758088069.77695,1758087999.36923,0.0,0.0,0.0,3.38045,-19.59516,11.22997,23.44,3.32,7.78,4.0
1758088069.79258,1758087999.37923,0.0,0.0,0.0,2.06265,-16.10011,9.85487,27.67,3.82,3.24,4.0
1758088069.81054,1758087999.38923,0.0,0.0,0.0,-1.83346,-3.09397,-1.03132,27.67,3.82,3.24,4.0
1758088069.81316,1758087999.39923,0.0,0.0,0.0,-5.50039,3.55234,-7.44845,18.13,1.45,0.4,4.0
1758088069.82853,1758087999.40923,0.0,0.0,0.0,-8.65166,11.57375,-13.17803,13.35,-0.74,-0.66,4.0
1758088069.82972,1758087999.41923,0.0,0.0,0.0,-11.45916,17.93358,-15.46986,13.35,-0.74,-0.66,4.0
1758088069.84646,1758087999.42923,0.0,0.0,0.0,-15.75634,18.50654,-12.60507,14.25,-1.26,-1.2,4.0
1758088069.849,1758087999.43923,0.0,0.0,0.0,-14.83961,16.67307,-5.95876,14.25,-1.26,-1.2,4.0
1758088069.86459,1758087999.44923,0.0,0.0,0.0,-10.31324,19.59516,-0.22918,16.16,-1.19,0.04,4.0
1758088069.86663,1758087999.45923,0.0,0.0,0.0,-6.07335,21.60051,4.87014,16.16,-1.19,0.04,4.0
1758088069.88344,1758087999.46923,0.0,0.0,0.0,0.11459,24.80907,9.22462,14.52,-0.66,-0.93,4.0
1758088069.88795,1758087999.47923,0.0,0.0,0.0,3.26586,28.07493,9.4538,11.88,-0.04,1.09,4.0
1758088069.90378,1758087999.48923,0.0,0.0,0.0,5.61499,29.96569,9.05273,11.88,-0.04,1.09,4.0
1758088069.92168,1758087999.49923,0.0,0.0,0.0,6.53172,34.26288,6.53172,10.35,0.39,-0.03,4.0
1758088069.92337,1758087999.50923,0.0,0.0,0.0,5.61499,39.3622,2.46372,10.35,0.39,-0.03,4.0
1758088069.93864,1758087999.51923,0.0,0.0,0.0,4.46907,39.99245,-0.22918,9.54,0.78,0.41,4.0
1758088069.9398,1758087999.52923,0.0,0.0,0.0,2.92208,37.18496,-2.11994,9.54,0.78,0.41,4.0
1758088069.95537,1758087999.53923,0.0,0.0,0.0,1.43239,32.6013,-3.09397,8.29,1.12,0.01,4.0
1758088069.96006,1758087999.54923,0.0,0.0,0.0,-0.74485,25.09555,-3.95341,7.43,1.34,-0.1,4.0
1758088070.0444,1758087999.55923,0.0,0.0,0.0,-1.48969,21.31403,-3.83882,7.43,1.34,-0.1,4.0
1758088070.09531,1758087999.56923,0.0,0.0,0.0,-3.26586,21.31403,-4.46907,6.95,1.47,-0.34,4.0
1758088070.09681,1758087999.57923,0.0,0.0,0.0,-3.32316,29.10626,-1.60428,6.95,1.47,-0.34,4.0
1758088070.09836,1758087999.58923,0.0,0.0,0.0,-3.09397,29.73651,-0.0573,7.03,1.2,0.0,4.0
1758088070.09934,1758087999.59923,0.0,0.0,0.0,-3.32316,26.35606,1.60428,7.03,1.2,0.0,4.0
1758088070.10026,1758087999.60923,0.0,0.0,0.0,-3.95341,21.02755,2.06265,6.03,0.72,0.19,4.0
1758088070.10171,1758087999.61923,0.0,0.0,0.0,-5.15662,10.71431,2.29183,6.03,0.72,-0.36,4.0
1758088070.10289,1758087999.62923,0.0,0.0,0.0,-5.84417,2.40642,2.29183,5.9,0.34,-0.36,4.0
1758088070.10593,1758087999.63923,0.0,0.0,0.0,-6.7609,-4.35448,2.00535,5.87,0.29,-0.94,4.0
1758088070.10705,1758087999.64922,0.0,0.0,0.0,-8.02141,-8.25059,1.71887,5.87,0.29,-0.94,4.0
1758088070.10781,1758087999.65922,0.0,0.0,0.0,-10.19865,-10.65701,1.03132,6.72,0.53,-1.1,4.0
1758088070.10857,1758087999.66922,0.0,0.0,0.0,-11.28727,-12.204,1.08862,6.72,0.53,-1.1,4.0
1758088070.10967,1758087999.67922,0.0,0.0,0.0,-12.08941,-13.69369,1.60428,7.56,0.85,-0.92,4.0
1758088070.11047,1758087999.68922,0.0,0.0,0.0,-12.43318,-16.04282,2.63561,7.56,0.85,-0.92,4.0
1758088070.11157,1758087999.69922,0.0,0.0,0.0,-12.49048,-19.25138,4.46907,8.51,0.96,-0.43,4.0
1758088070.12661,1758087999.70922,0.0,0.0,0.0,-11.80293,-20.05352,5.55769,9.39,0.71,-0.32,4.0
1758088070.12971,1758087999.71922,0.0,0.0,0.0,-10.94349,-19.53786,6.35983,9.39,0.71,-0.32,4.0
1758088070.14491,1758087999.72922,0.0,0.0,0.0,-9.85487,-18.62113,6.8182,9.69,0.18,-0.43,4.0
1758088070.14666,1758087999.73922,0.0,0.0,0.0,-8.02141,-17.24603,7.16197,9.69,0.18,-0.43,4.0
1758088070.16347,1758087999.74922,0.0,0.0,0.0,-7.39116,-16.61578,7.62034,9.07,-0.1,-0.63,4.0
1758088070.16868,1758087999.75922,0.0,0.0,0.0,-7.04738,-15.58445,8.136,9.07,-0.1,-0.63,4.0
1758088070.18737,1758087999.76922,0.0,0.0,0.0,-7.21927,-14.66772,9.4538,8.33,-0.01,-0.88,4.0
1758088070.21527,1758087999.77922,0.0,0.0,0.0,-8.136,-14.43854,10.37054,7.9,0.38,-1.05,4.0
1758088070.21745,1758087999.78922,0.0,0.0,0.0,-9.22462,-14.43854,11.22997,7.9,0.38,-1.05,4.0
1758088070.22187,1758087999.79922,0.0,0.0,0.0,-10.31324,-14.66772,11.97482,7.88,0.82,-0.91,4.0
1758088070.22387,1758087999.80922,0.0,0.0,0.0,-11.86023,-15.46986,12.60507,7.88,0.82,-0.91,4.0
1758088070.22673,1758087999.81922,0.0,0.0,0.0,-12.54778,-16.61578,13.23533,8.27,1.03,-0.78,4.0
1758088070.28996,1758087999.82922,0.0,0.0,0.0,-13.46451,-17.81899,13.46451,8.27,1.03,-0.78,4.0
1758088070.2924,1758087999.83922,0.0,0.0,0.0,-14.03747,-18.90761,13.34992,8.79,1.01,-0.45,4.0
1758088070.29473,1758087999.84922,0.0,0.0,0.0,-14.43854,-20.79837,12.49048,9.02,1.01,-0.38,4.0
1758088070.29591,1758087999.85922,0.0,0.0,0.0,-14.09476,-21.37133,11.74564,9.02,0.84,-0.38,4.0
1758088070.29654,1758087999.86922,0.0,0.0,0.0,-13.5791,-21.42862,10.8862,9.07,0.67,-0.52,4.0
1758088070.29777,1758087999.87922,0.0,0.0,0.0,-12.89155,-21.14215,9.91217,9.07,0.67,-0.52,4.0
1758088070.2995,1758087999.88922,0.0,0.0,0.0,-11.34457,-20.85567,8.93814,8.82,0.68,-0.56,4.0
1758088070.34426,1758087999.89922,0.0,0.0,0.0,-10.25595,-20.68378,8.30789,8.82,0.68,-0.56,4.0
1758088070.3471,1758087999.90922,0.0,0.0,0.0,-9.4538,-19.76705,7.96411,8.69,0.79,-0.66,4.0
1758088070.35249,1758087999.91922,0.0,0.0,0.0,-8.76626,-19.53786,7.62034,8.69,0.79,-0.66,4.0
1758088070.35702,1758087999.92922,0.0,0.0,0.0,-8.47978,-21.37133,7.16197,8.72,0.94,-0.71,4.0
1758088070.36153,1758087999.93922,0.0,0.0,0.0,-8.36518,-24.35071,7.04738,8.39,1.03,-0.39,4.0
1758088070.36325,1758087999.94922,0.0,0.0,0.0,-8.88085,-26.98631,7.04738,8.39,1.03,-0.39,4.0
1758088070.40155,1758087999.95922,0.0,0.0,0.0,-9.28192,-28.41871,6.58902,8.44,0.85,0.0,4.0
1758088070.40484,1758087999.96922,0.0,0.0,0.0,-10.19865,-34.37747,5.50039,8.44,0.85,0.0,4.0
1758088070.40547,1758087999.97922,0.0,0.0,0.0,-8.65166,-40.62271,4.92744,9.05,-0.06,0.83,4.0
1758088070.40699,1758087999.98922,0.0,0.0,0.0,-5.90147,-41.99781,4.18259,9.05,-0.06,0.83,4.0
1758088070.40733,1758087999.99922,0.0,0.0,0.0,-0.74485,-36.7266,3.55234,11.25,-1.68,1.61,4.0
1758088070.42502,1758088000.00922,0.0,0.0,0.0,3.66693,-29.27814,1.20321,15.24,-3.18,3.76,4.0
1758088070.42676,1758088000.01922,0.0,0.0,0.0,9.22462,-7.44845,-4.64096,15.24,-3.18,3.76,4.0
1758088070.44675,1758088000.02922,0.0,0.0,0.0,20.85567,-4.58366,-4.29718,22.64,-6.87,2.77,4.0
1758088070.452,1758088000.03922,0.0,0.0,0.0,21.42862,-44.28964,-16.55848,22.64,-6.87,2.77,4.0
1758088070.4668,1758088000.04922,0.0,0.0,0.0,24.12152,-32.08564,-14.15206,16.69,-6.07,-1.15,4.0
1758088070.47307,1758088000.05922,0.0,0.0,0.0,30.36677,-1.20321,-5.21392,16.69,-6.07,-1.15,4.0
1758088070.4877,1758088000.06922,0.0,0.0,0.0,34.0337,21.88699,3.83882,15.97,-1.08,-3.12,4.0
1758088070.52753,1758088000.07922,0.0,0.0,0.0,37.47144,49.96192,18.27736,12.66,1.03,-0.66,4.0
1758088070.52974,1758088000.08922,0.0,0.0,0.0,37.75792,60.04598,26.98631,12.66,1.03,-0.66,4.0
1758088070.53225,1758088000.09922,0.0,0.0,0.0,33.46074,53.62885,28.99167,12.09,0.53,-0.37,4.0
1758088070.53647,1758088000.10922,0.0,0.0,0.0,26.75713,48.64412,26.69983,12.09,0.53,-0.37,4.0
1758088070.53734,1758088000.11922,0.0,0.0,0.0,16.3293,46.2377,18.90761,14.13,-0.49,-0.79,4.0
1758088070.53902,1758088000.12922,0.0,0.0,0.0,8.76626,37.58603,12.54778,14.13,-0.49,-0.79,4.0
1758088070.55487,1758088000.13922,0.0,0.0,0.0,1.20321,26.75713,4.81285,13.32,-0.93,-0.55,4.0
1758088070.57087,1758088000.14922,0.0,0.0,0.0,-2.40642,40.33623,2.6929,13.32,-0.93,-0.55,4.0
1758088070.5728,1758088000.15922,0.0,0.0,0.0,-6.18794,55.29043,1.08862,14.18,-0.73,-0.23,4.0
1758088070.5881,1758088000.16922,0.0,0.0,0.0,-7.73493,50.87865,2.11994,11.37,-0.58,0.95,4.0
1758088070.58932,1758088000.17922,0.0,0.0,0.0,-8.88085,38.84654,2.34913,11.37,-0.58,0.95,4.0
1758088070.60461,1758088000.18922,0.0,0.0,0.0,-8.47978,22.57454,5.4431,9.16,-0.57,0.0,4.0
1758088070.62112,1758088000.19922,0.0,0.0,0.0,-6.87549,15.0115,7.04738,9.16,-0.57,0.0,4.0
1758088070.62239,1758088000.20922,0.0,0.0,0.0,-4.98473,7.73493,8.25059,8.78,-0.91,-0.86,4.0
1758088070.63711,1758088000.21922,0.0,0.0,0.0,-2.92208,2.06265,7.84952,8.78,-0.91,-0.86,4.0
1758088070.63836,1758088000.22922,0.0,0.0,0.0,0.0573,-4.1253,6.18794,8.11,-1.56,-0.8,4.0
1758088070.6562,1758088000.23922,0.0,0.0,0.0,1.3178,-6.70361,4.52637,7.97,-1.85,-0.28,4.0
1758088070.65724,1758088000.24922,0.0,0.0,0.0,2.6929,-8.136,2.97938,7.97,-1.85,-0.28,4.0
1758088070.67492,1758088000.25922,0.0,0.0,0.0,4.0107,-8.25059,1.66158,8.23,-1.74,0.21,4.0
1758088070.69113,1758088000.26922,0.0,0.0,0.0,5.27121,-1.43239,-0.34377,8.23,-1.74,0.21,4.0
1758088070.69523,1758088000.27922,0.0,0.0,0.0,6.99009,8.59437,-1.20321,8.94,-1.49,0.38,4.0
1758088070.71114,1758088000.28922,0.0,0.0,0.0,8.42248,25.26744,-2.63561,8.94,-1.49,0.38,4.0
1758088070.71682,1758088000.29922,0.0,0.0,0.0,9.85487,33.74722,-2.86479,9.43,-1.37,0.58,4.0
1758088070.71858,1758088000.30922,0.0,0.0,0.0,11.80293,25.72581,-2.57831,6.93,-1.07,0.57,4.0
1758088070.75665,1758088000.31922,0.0,0.0,0.0,11.97482,13.75099,-3.49504,6.93,-1.07,0.57,4.0
1758088070.76176,1758088000.32922,0.0,0.0,0.0,11.91752,9.62569,-4.1253,6.23,-0.67,-0.67,4.0
1758088070.76292,1758088000.33922,0.0,0.0,0.0,12.49048,8.59437,-4.52637,6.23,-0.67,-0.67,4.0
1758088070.76439,1758088000.34922,0.0,0.0,0.0,13.80828,6.24524,-4.52637,6.65,-0.68,-0.93,4.0
1758088070.76721,1758088000.35922,0.0,0.0,0.0,15.06879,5.32851,-4.58366,6.65,-0.68,-0.93,4.0
1758088070.78391,1758088000.36922,0.0,0.0,0.0,16.272,4.92744,-4.64096,6.81,-1.09,-0.57,4.0
1758088070.80096,1758088000.37922,0.0,0.0,0.0,17.53251,3.38045,-5.50039,6.81,-1.09,-0.57,4.0
1758088070.8021,1758088000.38922,0.0,0.0,0.0,17.87628,-0.51566,-6.47442,7.31,-1.42,-0.46,4.0
1758088070.81718,1758088000.39922,0.0,0.0,0.0,17.99088,-2.7502,-7.67763,7.89,-1.45,-0.44,4.0
1758088070.81814,1758088000.40922,0.0,0.0,0.0,17.58981,-3.72423,-8.76626,7.89,-1.45,-0.44,4.0
1758088070.83394,1758088000.41922,0.0,0.0,0.0,17.30333,-4.1253,-9.96947,8.55,-1.19,-0.44,4.0
1758088070.85097,1758088000.42922,0.0,0.0,0.0,17.01685,-4.52637,-10.25595,8.55,-1.19,-0.44,4.0
1758088070.85211,1758088000.43922,0.0,0.0,0.0,16.67307,-5.78687,-10.31324,8.58,-0.85,-0.15,4.0
1758088070.86698,1758088000.44922,0.0,0.0,0.0,16.61578,-7.21927,-10.25595,8.58,-0.85,-0.15,4.0
1758088070.86842,1758088000.45922,0.0,0.0,0.0,16.67307,-8.93814,-10.08406,8.34,-0.61,0.02,4.0
1758088070.88398,1758088000.46922,0.0,0.0,0.0,16.90226,-9.22462,-10.31324,8.27,-0.51,0.09,4.0
1758088070.9191,1758088000.47922,0.0,0.0,0.0,17.24603,-9.4538,-10.59972,8.27,-0.51,0.09,4.0
1758088070.92208,1758088000.48922,0.0,0.0,0.0,17.53251,-9.39651,-11.17268,8.14,-0.55,0.06,4.0
1758088070.92413,1758088000.49922,0.0,0.0,0.0,17.58981,-7.84952,-12.14671,8.14,-0.55,0.06,4.0
1758088070.92451,1758088000.50922,0.0,0.0,0.0,17.47521,-7.79223,-13.00614,8.34,-0.86,-0.17,4.0
1758088070.94116,1758088000.51922,0.0,0.0,0.0,17.18874,-8.25059,-13.98017,8.34,-0.86,-0.17,4.0
1758088070.94445,1758088000.52922,0.0,0.0,0.0,16.90226,-8.88085,-14.72501,8.64,-1.29,-0.31,4.0
1758088070.96176,1758088000.53922,0.0,0.0,0.0,16.55848,-10.25595,-14.83961,9.08,-1.43,-0.14,4.0
1758088070.96295,1758088000.54922,0.0,0.0,0.0,16.38659,-11.28727,-14.38124,9.08,-1.43,-0.14,4.0
1758088071.07689,1758088000.55922,0.0,0.0,0.0,16.38659,-11.63104,-14.09476,9.33,-1.34,0.05,4.0
1758088071.07883,1758088000.56922,0.0,0.0,0.0,16.50119,-13.46451,-12.77696,9.33,-1.34,0.05,4.0
1758088071.08591,1758088000.57922,0.0,0.0,0.0,16.3293,-15.98552,-12.49048,9.06,-1.22,-0.14,4.0
1758088071.08665,1758088000.58922,0.0,0.0,0.0,16.3293,-14.72501,-12.14671,9.06,-1.22,-0.14,4.0
1758088071.08854,1758088000.59922,0.0,0.0,0.0,15.98552,-11.34457,-11.91752,9.0,-0.93,-0.54,4.0
1758088071.08916,1758088000.60922,0.0,0.0,0.0,14.49583,-8.93814,-12.14671,9.0,-0.93,-0.54,4.0
1758088071.09222,1758088000.61922,0.0,0.0,0.0,13.5791,-10.54242,-11.80293,8.22,-0.64,-0.72,4.0
1758088071.09604,1758088000.62922,0.0,0.0,0.0,12.60507,-12.77696,-11.63104,6.9,-0.51,-0.76,4.0
1758088071.09709,1758088000.63922,0.0,0.0,0.0,11.63104,-15.41257,-11.45916,6.9,-0.51,-0.76,4.0
1758088071.0977,1758088000.64922,0.0,0.0,0.0,10.8289,-18.73572,-10.8289,6.09,-0.5,-1.04,4.0
1758088071.09972,1758088000.65922,0.0,0.0,0.0,10.8289,-21.25674,-9.74028,6.09,-0.5,-1.04,4.0
1758088071.10036,1758088000.66922,0.0,0.0,0.0,10.59972,-24.12152,-7.50575,5.98,-0.21,-0.36,4.0
1758088071.10189,1758088000.67922,0.0,0.0,0.0,10.25595,-27.10091,-4.64096,5.98,-0.21,-0.36,4.0
1758088071.1031,1758088000.68922,0.0,0.0,0.0,8.65166,-29.27814,0.40107,7.64,0.42,0.4,4.0
1758088071.12009,1758088000.69922,0.0,0.0,0.0,6.24524,-26.98631,3.26586,10.92,0.95,0.84,4.0
1758088071.12262,1758088000.70922,0.0,0.0,0.0,3.66693,-22.23076,5.15662,10.92,0.95,0.84,4.0
1758088071.14072,1758088000.71922,0.0,0.0,0.0,1.43239,-18.33465,6.8182,14.35,1.79,2.83,4.0
1758088071.14638,1758088000.72922,0.0,0.0,0.0,-5.21392,-18.56383,13.98017,14.35,1.79,2.83,4.0
1758088071.14819,1758088000.73922,0.0,0.0,0.0,-13.34992,-9.33921,17.81899,22.44,4.12,5.04,4.0
1758088071.15701,1758088000.74922,0.0,0.0,0.0,-19.07949,-19.99623,16.10011,22.44,4.12,5.04,4.0
1758088071.17205,1758088000.75922,0.0,0.0,0.0,-25.09555,-24.98096,11.22997,22.86,4.18,1.24,4.0
1758088071.19128,1758088000.76922,0.0,0.0,0.0,-30.99702,-14.09476,-2.46372,15.2,0.8,-0.71,4.0
1758088071.19162,1758088000.77922,0.0,0.0,0.0,-34.14828,-8.36518,-11.11538,15.2,0.8,-0.71,4.0
1758088071.20746,1758088000.78922,0.0,0.0,0.0,-35.52338,-4.81285,-18.10547,11.33,-1.3,-1.04,4.0
1758088071.20827,1758088000.79922,0.0,0.0,0.0,-34.89313,1.08862,-22.91831,11.33,-1.3,-1.04,4.0
1758088071.22413,1758088000.80922,0.0,0.0,0.0,-31.62727,1.94806,-19.19409,13.04,-1.21,-0.51,4.0
1758088071.22727,1758088000.81922,0.0,0.0,0.0,-25.49662,4.0107,-13.17803,13.04,-1.21,-0.51,4.0
1758088071.24205,1758088000.82922,0.0,0.0,0.0,-18.56383,11.80293,-6.7609,15.61,-0.2,-0.5,4.0
1758088071.25911,1758088000.83922,0.0,0.0,0.0,-9.85487,23.83505,0.80214,15.61,-0.2,-0.5,4.0
1758088071.26037,1758088000.84922,0.0,0.0,0.0,-5.21392,30.19488,3.83882,14.76,0.49,-0.33,4.0
1758088071.37859,1758088000.85922,0.0,0.0,0.0,-2.46372,34.66395,4.87014,12.23,0.52,0.26,4.0
1758088071.38615,1758088000.86922,0.0,0.0,0.0,-0.85944,36.21093,4.52637,12.23,0.52,0.26,4.0
1758088071.39661,1758088000.87922,0.0,0.0,0.0,-0.85944,33.86181,1.14592,11.15,0.21,-0.37,4.0
1758088071.3984,1758088000.88922,0.0,0.0,0.0,-2.57831,29.8511,-1.43239,11.15,0.21,-0.37,4.0
1758088071.39929,1758088000.89922,0.0,0.0,0.0,-5.09932,27.2155,-3.26586,10.76,0.15,-0.48,4.0
1758088071.40296,1758088000.90922,0.0,0.0,0.0,-7.50575,25.89769,-3.72423,10.76,0.15,-0.48,4.0
1758088071.40329,1758088000.91922,0.0,0.0,0.0,-10.54242,23.26209,-2.6929,10.69,0.37,-0.35,4.0
1758088071.40497,1758088000.92922,0.0,0.0,0.0,-11.51645,20.16812,-1.77617,9.57,0.44,-0.23,4.0
1758088071.40664,1758088000.93922,0.0,0.0,0.0,-11.97482,17.87628,-0.85944,9.57,0.44,-0.23,4.0
1758088071.40746,1758088000.94922,0.0,0.0,0.0,-11.80293,16.3293,-0.0573,8.6,0.58,-0.28,4.0
1758088071.41252,1758088000.95922,0.0,0.0,0.0,-10.65701,20.51189,1.14592,8.6,0.58,-0.28,4.0
1758088071.41394,1758088000.96922,0.0,0.0,0.0,-8.65166,26.12688,2.46372,8.59,0.65,-0.32,4.0
1758088071.41599,1758088000.97922,0.0,0.0,0.0,-6.8182,29.10626,3.72423,8.59,0.65,-0.32,4.0
1758088071.4166,1758088000.98922,0.0,0.0,0.0,-4.98473,28.41871,4.52637,8.0,0.56,0.15,4.0
1758088071.41866,1758088000.99922,0.0,0.0,0.0,-3.32316,23.0329,4.52637,7.08,0.42,0.0,4.0
1758088071.41928,1758088001.00922,0.0,0.0,0.0,-2.86479,19.07949,4.1253,7.08,0.42,0.0,4.0
1758088071.43641,1758088001.01922,0.0,0.0,0.0,-3.03668,16.04282,3.49504,6.83,0.31,-0.37,4.0
1758088071.43727,1758088001.02922,0.0,0.0,0.0,-3.72423,11.00079,2.86479,6.83,0.31,-0.37,4.0
1758088071.45208,1758088001.03922,0.0,0.0,0.0,-4.35448,7.33386,2.57831,6.45,0.34,-0.5,4.0
1758088071.4718,1758088001.04922,0.0,0.0,0.0,-5.32851,2.97938,2.92208,6.45,0.34,-0.5,4.0
1758088071.47431,1758088001.05922,0.0,0.0,0.0,-6.35983,-1.14592,3.55234,6.34,0.51,-0.53,4.0
1758088071.48911,1758088001.06922,0.0,0.0,0.0,-8.136,-6.8182,4.98473,6.73,0.51,-0.49,4.0
1758088071.49031,1758088001.07922,0.0,0.0,0.0,-9.05273,-9.85487,5.95876,6.73,0.72,-0.49,4.0
1758088071.50591,1758088001.08922,0.0,0.0,0.0,-10.19865,-12.08941,6.8182,7.22,0.83,-0.28,4.0
1758088071.50886,1758088001.09922,0.0,0.0,0.0,-11.11538,-13.23533,7.16197,7.22,0.83,-0.28,4.0
1758088071.52433,1758088001.10922,0.0,0.0,0.0,-12.08941,-15.0115,7.16197,7.58,0.79,-0.17,4.0
1758088071.52641,1758088001.11922,0.0,0.0,0.0,-12.43318,-16.3293,6.7609,7.58,0.79,-0.17,4.0
1758088071.54359,1758088001.12922,0.0,0.0,0.0,-12.77696,-17.53251,6.41713,7.78,0.67,-0.31,4.0
1758088071.55813,1758088001.13922,0.0,0.0,0.0,-13.12073,-18.44924,6.13065,7.78,0.67,-0.31,4.0
1758088071.55956,1758088001.14922,0.0,0.0,0.0,-13.23533,-18.10547,6.07335,8.15,0.54,-0.54,4.0
1758088071.57638,1758088001.15922,0.0,0.0,0.0,-13.34992,-17.53251,6.41713,8.38,0.44,-0.76,4.0
1758088071.60089,1758088001.16922,0.0,0.0,0.0,-13.34992,-16.84496,6.99009,8.38,0.44,-0.76,4.0
1758088071.60224,1758088001.17922,0.0,0.0,0.0,-13.12073,-15.92823,7.62034,8.43,0.37,-0.74,4.0
1758088071.60583,1758088001.18922,0.0,0.0,0.0,-13.00614,-14.66772,8.76626,8.43,0.37,-0.74,4.0
1758088071.60649,1758088001.19922,0.0,0.0,0.0,-12.71966,-13.23533,9.85487,8.61,0.35,-0.72,4.0
1758088071.62229,1758088001.20922,0.0,0.0,0.0,-12.77696,-11.57375,10.59972,8.61,0.35,-0.72,4.0
1758088071.63942,1758088001.21922,0.0,0.0,0.0,-12.89155,-8.59437,11.80293,9.0,0.44,-0.88,4.0
1758088071.64113,1758088001.22922,0.0,0.0,0.0,-13.17803,-6.47442,12.14671,9.33,0.57,-0.85,4.0
1758088071.65615,1758088001.23922,0.0,0.0,0.0,-13.5791,-4.23989,12.43318,9.33,0.57,-0.85,4.0
1758088071.65737,1758088001.24922,0.0,0.0,0.0,-13.75099,-2.29183,12.2613,9.49,0.62,-0.81,4.0
1758088071.69526,1758088001.25922,0.0,0.0,0.0,-13.80828,-0.74485,11.28727,9.49,0.62,-0.81,4.0
1758088071.69664,1758088001.26922,0.0,0.0,0.0,-13.46451,-1.43239,10.31324,9.28,0.55,-0.62,4.0
1758088071.6975,1758088001.27922,0.0,0.0,0.0,-12.71966,-3.55234,9.39651,9.28,0.55,-0.62,4.0
1758088071.69916,1758088001.28922,0.0,0.0,0.0,-11.80293,-5.72958,8.70896,8.82,0.52,-0.45,4.0
1758088071.71418,1758088001.29922,0.0,0.0,0.0,-10.19865,-10.19865,8.36518,8.55,0.62,-0.28,4.0
1758088071.71575,1758088001.30922,0.0,0.0,0.0,-9.11003,-13.80828,8.47978,8.55,0.62,-0.28,4.0
1758088071.73176,1758088001.31922,0.0,0.0,0.0,-8.36518,-18.79302,9.05273,7.96,0.72,-0.09,4.0
1758088071.74912,1758088001.32922,0.0,0.0,0.0,-7.79223,-23.72045,9.5684,7.96,0.72,-0.09,4.0
1758088071.75081,1758088001.33922,0.0,0.0,0.0,-7.79223,-29.67921,10.48513,7.47,0.64,-0.28,4.0
1758088071.79222,1758088001.34922,0.0,0.0,0.0,-8.36518,-32.83048,10.54242,7.47,0.64,-0.28,4.0
1758088071.79635,1758088001.35922,0.0,0.0,0.0,-8.99544,-35.00772,10.25595,8.07,0.29,-0.18,4.0
1758088071.79695,1758088001.36922,0.0,0.0,0.0,-9.11003,-34.43476,9.68299,8.07,0.29,-0.18,4.0
1758088071.79926,1758088001.37922,0.0,0.0,0.0,-5.78687,-28.36141,7.44845,10.16,-0.65,0.79,4.0
1758088071.80121,1758088001.38922,0.0,0.0,0.0,0.57296,-18.90761,5.4431,13.76,-2.38,2.9,4.0
1758088071.81847,1758088001.39922,0.0,0.0,0.0,6.41713,-6.13065,0.45837,13.76,-2.38,2.9,4.0
1758088071.81982,1758088001.40922,0.0,0.0,0.0,24.63719,-0.40107,-6.18794,21.74,-5.96,4.84,4.0
1758088071.83599,1758088001.41922,0.0,0.0,0.0,24.12152,-58.67088,-16.67307,21.74,-5.96,4.84,4.0
1758088071.84182,1758088001.42922,0.0,0.0,0.0,23.26209,-52.65482,-17.36062,17.72,-6.98,-0.59,4.0
1758088071.882,1758088001.43922,0.0,0.0,0.0,29.04896,-13.06344,-7.50575,17.72,-6.98,-0.59,4.0
1758088071.88638,1758088001.44922,0.0,0.0,0.0,35.2369,30.19488,6.24524,18.71,-3.11,-3.9,4.0
1758088071.88673,1758088001.45922,0.0,0.0,0.0,38.1017,43.83128,15.0115,12.11,-0.55,-0.51,4.0
1758088071.89192,1758088001.46922,0.0,0.0,0.0,39.87786,53.28508,24.57989,12.11,-0.55,-0.51,4.0
1758088071.89258,1758088001.47922,0.0,0.0,0.0,40.10705,52.65482,30.99702,11.48,0.49,0.51,4.0
1758088071.89621,1758088001.48922,0.0,0.0,0.0,35.52338,43.54479,29.9084,11.48,0.49,0.51,4.0
1758088071.91256,1758088001.49922,0.0,0.0,0.0,30.59595,45.43555,25.49662,13.89,0.16,-0.3,4.0
1758088071.92949,1758088001.50922,0.0,0.0,0.0,25.8404,40.27893,17.93358,13.89,0.16,-0.3,4.0
1758088071.9346,1758088001.51922,0.0,0.0,0.0,19.82434,29.8511,9.85487,14.26,-0.54,-0.6,4.0
1758088071.94923,1758088001.52922,0.0,0.0,0.0,10.25595,25.09555,-2.00535,12.68,-0.44,0.08,4.0
1758088071.95092,1758088001.53922,0.0,0.0,0.0,7.62034,40.7373,-1.48969,12.68,-0.44,0.08,4.0
1758088071.96611,1758088001.54922,0.0,0.0,0.0,5.09932,42.97184,-2.29183,12.53,-0.41,0.48,4.0
1758088071.96729,1758088001.55922,0.0,0.0,0.0,2.97938,32.42941,0.17189,12.53,-0.41,0.48,4.0
1758088071.98467,1758088001.56922,0.0,0.0,0.0,0.34377,20.34,4.18259,9.26,-0.59,1.37,4.0
1758088071.98857,1758088001.57922,0.0,0.0,0.0,-0.80214,17.24603,5.84417,9.26,-0.59,1.37,4.0
1758088072.00675,1758088001.58922,0.0,0.0,0.0,-1.77617,12.89155,5.95876,9.33,-0.81,-0.01,4.0
1758088072.00799,1758088001.59922,0.0,0.0,0.0,-2.34913,6.24524,4.58366,9.33,-0.81,-0.01,4.0
1758088072.02455,1758088001.60922,0.0,0.0,0.0,-3.03668,-2.06265,3.49504,8.19,-1.03,-0.47,4.0
1758088072.03184,1758088001.61922,0.0,0.0,0.0,-3.09397,-5.15662,2.23454,8.12,-1.24,-0.3,4.0
1758088072.11633,1758088001.62922,0.0,0.0,0.0,-3.09397,-5.61499,0.80214,8.12,-1.24,-0.3,4.0
1758088072.11822,1758088001.63922,0.0,0.0,0.0,-2.46372,-3.83882,-1.20321,8.3,-1.29,-0.23,4.0
1758088072.12132,1758088001.64922,0.0,0.0,0.0,-1.94806,-1.66158,-1.94806,8.3,-1.29,-0.23,4.0
1758088072.14739,1758088001.65922,0.0,0.0,0.0,-1.3751,0.80214,-2.63561,8.52,-1.3,0.34,4.0
1758088072.15532,1758088001.66922,0.0,0.0,0.0,-0.45837,3.83882,-2.7502,8.52,-1.3,0.34,4.0
1758088072.15709,1758088001.67922,0.0,0.0,0.0,0.51566,9.05273,-2.46372,8.56,-1.2,0.33,4.0
1758088072.15877,1758088001.68922,0.0,0.0,0.0,1.43239,12.60507,-2.29183,8.46,-1.09,0.3,4.0
1758088072.15923,1758088001.69922,0.0,0.0,0.0,1.83346,13.98017,-2.06265,8.46,-1.09,0.3,4.0
1758088072.16191,1758088001.70922,0.0,0.0,0.0,1.83346,14.43854,-1.94806,7.94,-1.02,0.05,4.0
1758088072.16268,1758088001.71922,0.0,0.0,0.0,2.00535,16.21471,-3.32316,7.94,-1.02,0.05,4.0
1758088072.16534,1758088001.72922,0.0,0.0,0.0,2.23454,16.3293,-4.18259,7.91,-1.15,-0.07,4.0
1758088072.16733,1758088001.73922,0.0,0.0,0.0,2.40642,17.01685,-5.61499,7.91,-1.15,-0.07,4.0
1758088072.16812,1758088001.74922,0.0,0.0,0.0,2.40642,19.19409,-7.33386,8.09,-1.21,-0.28,4.0
1758088072.16919,1758088001.75922,0.0,0.0,0.0,2.63561,19.99623,-9.28192,8.27,-1.24,-0.32,4.0
1758088072.18614,1758088001.76922,0.0,0.0,0.0,3.26586,18.33465,-10.08406,8.27,-1.24,-0.32,4.0
1758088072.18737,1758088001.77922,0.0,0.0,0.0,4.58366,17.18874,-10.37054,8.15,-1.27,-0.45,4.0
1758088072.20237,1758088001.78922,0.0,0.0,0.0,6.18794,16.10011,-10.08406,8.15,-1.27,-0.45,4.0
1758088072.21937,1758088001.79922,0.0,0.0,0.0,8.88085,14.03747,-10.08406,8.19,-1.35,-0.44,4.0
1758088072.22134,1758088001.80922,0.0,0.0,0.0,10.65701,11.80293,-10.25595,8.19,-1.35,-0.44,4.0
1758088072.23662,1758088001.81922,0.0,0.0,0.0,12.37589,9.22462,-10.65701,7.89,-1.39,-0.32,4.0
1758088072.23838,1758088001.82922,0.0,0.0,0.0,13.98017,4.35448,-11.22997,7.89,-1.39,-0.32,4.0
1758088072.27655,1758088001.83922,0.0,0.0,0.0,14.43854,1.08862,-11.45916,7.49,-1.3,-0.11,4.0
1758088072.28338,1758088001.84922,0.0,0.0,0.0,14.72501,-2.06265,-11.80293,7.21,-1.19,0.1,4.0
1758088072.28444,1758088001.85922,0.0,0.0,0.0,15.06879,-4.98473,-12.08941,7.21,-1.19,0.1,4.0
1758088072.28654,1758088001.86922,0.0,0.0,0.0,15.41257,-7.79223,-13.00614,7.35,-1.19,0.1,4.0
1758088072.28717,1758088001.87922,0.0,0.0,0.0,16.272,-9.05273,-13.5218,7.35,-1.19,0.1,4.0
1758088072.3074,1758088001.88922,0.0,0.0,0.0,17.18874,-10.19865,-14.38124,7.66,-1.31,0.05,4.0
1758088072.3094,1758088001.89922,0.0,0.0,0.0,18.62113,-11.91752,-15.06879,7.66,-1.31,0.05,4.0
1758088072.32596,1758088001.90922,0.0,0.0,0.0,21.08485,-15.12609,-15.92823,7.78,-1.43,0.18,4.0
1758088072.32719,1758088001.91922,0.0,0.0,0.0,23.20479,-17.47521,-16.38659,7.91,-1.42,0.09,4.0
1758088072.34346,1758088001.92922,0.0,0.0,0.0,24.86637,-18.79302,-16.67307,7.91,-1.42,0.09,4.0
1758088072.34756,1758088001.93922,0.0,0.0,0.0,26.41335,-18.79302,-16.90226,8.25,-1.22,-0.31,4.0
1758088072.40361,1758088001.94922,0.0,0.0,0.0,27.61657,-19.07949,-16.67307,8.25,-1.22,-0.31,4.0
1758088072.40797,1758088001.95922,0.0,0.0,0.0,27.61657,-19.82434,-16.272,8.27,-0.91,-0.5,4.0
1758088072.41263,1758088001.96922,0.0,0.0,0.0,26.81443,-21.37133,-15.46986,8.27,-0.91,-0.5,4.0
1758088072.4155,1758088001.97922,0.0,0.0,0.0,25.55392,-22.57454,-14.78231,8.07,-0.73,-0.57,4.0
1758088072.41583,1758088001.98922,0.0,0.0,0.0,23.0902,-25.26744,-13.80828,7.78,-0.65,-0.59,4.0
1758088072.417,1758088001.99922,0.0,0.0,0.0,21.6578,-27.50197,-13.40721,7.78,-0.65,-0.59,4.0
1758088072.41765,1758088002.00922,0.0,0.0,0.0,20.45459,-30.19488,-13.17803,7.13,-0.62,-0.5,4.0
1758088072.43524,1758088002.01922,0.0,0.0,0.0,18.9649,-34.32018,-13.86558,7.13,-0.62,-0.5,4.0
1758088072.43619,1758088002.02922,0.0,0.0,0.0,18.73572,-40.04975,-14.61043,6.31,-0.48,-0.53,4.0
1758088072.45134,1758088002.03922,0.0,0.0,0.0,18.73572,-42.62806,-15.24068,6.31,-0.48,-0.53,4.0
1758088072.45743,1758088002.04922,0.0,0.0,0.0,19.25138,-44.63341,-15.12609,6.38,0.05,0.13,4.0
1758088072.47536,1758088002.05922,0.0,0.0,0.0,20.11082,-44.9199,-12.60507,6.38,0.05,0.13,4.0
1758088072.4767,1758088002.06922,0.0,0.0,0.0,20.11082,-40.7946,-10.31324,8.34,0.7,0.96,4.0
1758088072.49148,1758088002.07922,0.0,0.0,0.0,19.48057,-35.00772,-7.44845,12.01,1.27,1.29,4.0
1758088072.53119,1758088002.08922,0.0,0.0,0.0,18.27736,-26.69983,-3.20856,12.01,1.27,1.29,4.0
1758088072.53261,1758088002.09922,0.0,0.0,0.0,13.5218,-10.31324,5.15662,17.26,2.34,2.67,4.0
1758088072.53655,1758088002.10922,0.0,0.0,0.0,5.95876,0.22918,11.97482,17.26,2.34,2.67,4.0
1758088072.53981,1758088002.11922,0.0,0.0,0.0,-6.13065,8.25059,18.79302,24.71,4.43,4.8,4.0
1758088072.54075,1758088002.12922,0.0,0.0,0.0,-17.6471,-16.84496,18.9649,24.71,4.43,4.8,4.0
1758088072.55679,1758088002.13922,0.0,0.0,0.0,-30.48136,-42.91454,7.04738,22.39,3.87,1.66,4.0
1758088072.55766,1758088002.14922,0.0,0.0,0.0,-39.13302,-33.46074,-3.95341,15.87,-0.23,-1.84,4.0
1758088072.57676,1758088002.15922,0.0,0.0,0.0,-42.22699,-0.57296,-9.68299,15.87,-0.23,-1.84,4.0
1758088072.58169,1758088002.16922,0.0,0.0,0.0,-40.33623,21.25674,-15.41257,14.21,-1.54,-0.56,4.0
1758088072.59729,1758088002.17922,0.0,0.0,0.0,-34.0337,30.59595,-18.22006,14.21,-1.54,-0.56,4.0
1758088072.59933,1758088002.18922,0.0,0.0,0.0,-28.13223,27.1582,-15.12609,12.39,-0.33,0.67,4.0
1758088072.61729,1758088002.19922,0.0,0.0,0.0,-20.34,25.43933,-8.99544,12.39,-0.33,0.67,4.0
1758088072.62165,1758088002.20922,0.0,0.0,0.0,-12.37589,24.98096,-0.74485,15.1,0.69,-1.08,4.0
1758088072.63814,1758088002.21922,0.0,0.0,0.0,-2.00535,17.6471,2.11994,13.59,0.59,-0.96,4.0
1758088072.63956,1758088002.22922,0.0,0.0,0.0,1.43239,14.38124,1.66158,13.59,0.59,-0.96,4.0
1758088072.65529,1758088002.23922,0.0,0.0,0.0,2.6929,13.5791,-0.17189,11.37,0.48,0.17,4.0
1758088072.65723,1758088002.24922,0.0,0.0,0.0,1.14592,14.49583,-4.69825,11.37,0.48,0.17,4.0
1758088072.67271,1758088002.25922,0.0,0.0,0.0,-2.11994,15.0115,-7.39116,10.36,0.53,0.41,4.0
1758088072.67686,1758088002.26922,0.0,0.0,0.0,-6.35983,15.41257,-9.28192,10.36,0.53,0.41,4.0
1758088072.7318,1758088002.27922,0.0,0.0,0.0,-10.65701,17.18874,-10.08406,9.91,0.86,0.71,4.0
1758088072.73622,1758088002.28922,0.0,0.0,0.0,-15.0115,20.74107,-9.05273,9.91,0.86,0.47,4.0
1758088072.73678,1758088002.29922,0.0,0.0,0.0,-16.21471,21.25674,-7.39116,9.45,0.9,0.47,4.0
1758088072.74135,1758088002.30922,0.0,0.0,0.0,-16.61578,20.51189,-5.61499,8.09,0.82,0.55,4.0
1758088072.74183,1758088002.31922,0.0,0.0,0.0,-16.10011,19.88164,-4.23989,8.09,0.82,0.55,4.0
1758088072.7431,1758088002.32922,0.0,0.0,0.0,-14.9542,19.59516,-2.7502,7.1,0.79,0.51,4.0
1758088072.75886,1758088002.33922,0.0,0.0,0.0,-13.80828,19.07949,-2.29183,7.1,0.79,0.51,4.0
1758088072.76125,1758088002.34922,0.0,0.0,0.0,-12.14671,19.59516,-1.71887,6.48,0.78,0.52,4.0
1758088072.77652,1758088002.35922,0.0,0.0,0.0,-10.71431,20.11082,-0.97403,6.48,0.78,0.52,4.0
1758088072.77768,1758088002.36922,0.0,0.0,0.0,-8.59437,17.76169,0.97403,6.46,0.62,0.46,4.0
1758088072.79518,1758088002.37922,0.0,0.0,0.0,-7.62034,16.55848,2.00535,6.68,0.33,0.02,4.0
1758088072.79638,1758088002.38922,0.0,0.0,0.0,-7.33386,16.04282,2.63561,6.68,0.33,0.02,4.0
1758088072.81177,1758088002.39922,0.0,0.0,0.0,-7.73493,14.49583,2.86479,7.17,0.27,-0.12,4.0
1758088072.92626,1758088002.40922,0.0,0.0,0.0,-8.65166,10.48513,2.92208,7.17,0.27,-0.12,4.0
1758088072.93577,1758088002.41922,0.0,0.0,0.0,-9.05273,6.70361,3.26586,7.36,0.49,-0.25,4.0
1758088072.93614,1758088002.42922,0.0,0.0,0.0,-10.37054,3.89611,3.26586,7.36,0.49,-0.25,4.0
1758088072.93843,1758088002.43922,0.0,0.0,0.0,-11.57375,1.14592,3.89611,7.86,0.85,-0.36,4.0
1758088072.94201,1758088002.44922,0.0,0.0,0.0,-12.37589,-2.06265,4.23989,8.36,1.04,-0.55,4.0
1758088072.94631,1758088002.45922,0.0,0.0,0.0,-12.89155,-3.72423,4.69825,8.36,1.04,-0.55,4.0
1758088072.94698,1758088002.46922,0.0,0.0,0.0,-13.46451,-5.27121,4.92744,8.67,1.0,-0.72,4.0
1758088072.94898,1758088002.47922,0.0,0.0,0.0,-13.86558,-9.11003,4.87014,8.67,1.0,-0.72,4.0
1758088072.95038,1758088002.48922,0.0,0.0,0.0,-14.09476,-11.17268,4.81285,8.45,0.82,-0.7,4.0
1758088072.95141,1758088002.49922,0.0,0.0,0.0,-14.32395,-12.43318,4.46907,8.45,0.82,-0.7,4.0
1758088072.95226,1758088002.50922,0.0,0.0,0.0,-14.32395,-13.12073,4.64096,8.34,0.56,-0.55,4.0
1758088072.95464,1758088002.51922,0.0,0.0,0.0,-15.0115,-13.75099,5.27121,8.28,0.4,-0.5,4.0
1758088072.95616,1758088002.52922,0.0,0.0,0.0,-15.46986,-14.09476,6.07335,8.28,0.4,-0.5,4.0
1758088072.95647,1758088002.53922,0.0,0.0,0.0,-16.10011,-13.5218,7.33386,8.51,0.48,-0.57,4.0
1758088072.95761,1758088002.54922,0.0,0.0,0.0,-16.90226,-12.49048,8.65166,8.51,0.48,-0.57,4.0
1758088072.97261,1758088002.55922,0.0,0.0,0.0,-17.81899,-11.17268,10.94349,8.98,0.63,-0.83,4.0
1758088072.97806,1758088002.56922,0.0,0.0,0.0,-18.16276,-11.00079,12.14671,8.98,0.63,-0.83,4.0
1758088073.0383,1758088002.57922,0.0,0.0,0.0,-18.44924,-11.51645,13.17803,9.22,0.6,-0.84,4.0
1758088073.09625,1758088002.58922,0.0,0.0,0.0,-18.10547,-12.14671,13.69369,9.22,0.6,-0.84,4.0
1758088073.09685,1758088002.59922,0.0,0.0,0.0,-16.73037,-13.00614,13.40721,9.16,0.33,-0.71,4.0
1758088073.09812,1758088002.60922,0.0,0.0,0.0,-15.46986,-13.69369,12.77696,9.04,0.05,-0.7,4.0
1758088073.09913,1758088002.61922,0.0,0.0,0.0,-14.03747,-13.98017,12.14671,9.04,0.05,-0.7,4.0
1758088073.10266,1758088002.62922,0.0,0.0,0.0,-12.60507,-14.66772,11.34457,9.02,0.0,-0.68,4.0
1758088073.1041,1758088002.63922,0.0,0.0,0.0,-10.54242,-15.64175,11.11538,9.02,0.0,-0.68,4.0
1758088073.10624,1758088002.64922,0.0,0.0,0.0,-9.39651,-16.50119,10.94349,9.04,0.18,-0.58,4.0
1758088073.10728,1758088002.65922,0.0,0.0,0.0,-8.30789,-17.93358,10.8862,9.04,0.18,-0.58,4.0
1758088073.11225,1758088002.66922,0.0,0.0,0.0,-6.70361,-19.53786,11.11538,8.88,0.44,-0.5,4.0
1758088073.11485,1758088002.67922,0.0,0.0,0.0,-5.72958,-20.51189,11.28727,8.91,0.61,-0.56,4.0
1758088073.11543,1758088002.68922,0.0,0.0,0.0,-4.92744,-21.6578,11.51645,8.91,0.61,-0.56,4.0
1758088073.11659,1758088002.69922,0.0,0.0,0.0,-4.29718,-23.31938,11.63104,8.72,0.65,-0.69,4.0
1758088073.11733,1758088002.70922,0.0,0.0,0.0,-3.89611,-26.69983,11.45916,8.72,0.65,-0.69,4.0
1758088073.13444,1758088002.71922,0.0,0.0,0.0,-3.72423,-28.13223,11.34457,8.23,0.6,-0.92,4.0
1758088073.13587,1758088002.72922,0.0,0.0,0.0,-3.72423,-30.65324,11.11538,8.23,0.6,-0.92,4.0
1758088073.15272,1758088002.73922,0.0,0.0,0.0,-4.29718,-33.46074,11.11538,7.59,0.5,-0.88,4.0
1758088073.15597,1758088002.74922,0.0,0.0,0.0,-5.09932,-33.63263,10.8862,7.98,0.12,-0.46,4.0
1758088073.17274,1758088002.75922,0.0,0.0,0.0,-4.87014,-30.36677,10.71431,7.98,0.12,-0.46,4.0
1758088073.19231,1758088002.76922,0.0,0.0,0.0,-3.20856,-27.44468,10.37054,10.0,-0.76,1.17,4.0
1758088073.19557,1758088002.77922,0.0,0.0,0.0,-0.68755,-25.72581,9.5684,10.0,-0.76,1.17,4.0
1758088073.19643,1758088002.78922,0.0,0.0,0.0,3.89611,-14.9542,6.70361,12.6,-2.01,1.91,4.0
