timeStamp,timeStampAlign,roll,pitch,yaw,gyro_x,gyro_y,gyro_z,acc_x,acc_y,acc_z,flag_num
1758089303.81177,1758089293.86168,0.0,0.0,0.0,-37.58603,-24.4653,8.76626,9.93,1.1,-0.4,2.0
1758089303.82744,1758089293.87168,0.0,0.0,0.0,-38.73195,-22.68913,9.39651,9.93,1.1,-0.4,2.0
1758089303.84388,1758089293.88168,0.0,0.0,0.0,-40.50812,-16.61578,11.11538,10.17,1.05,-0.35,2.0
1758089303.84617,1758089293.89168,0.0,0.0,0.0,-41.31026,-11.86023,12.43318,10.17,1.05,-0.35,2.0
1758089303.86087,1758089293.90168,0.0,0.0,0.0,-41.65404,-10.94349,14.03747,10.65,1.0,0.61,2.0
1758089303.86186,1758089293.91168,0.0,0.0,0.0,-41.94051,-15.64175,13.86558,10.65,1.0,0.61,2.0
1758089303.87827,1758089293.92168,0.0,0.0,0.0,-40.62271,-24.63719,13.17803,11.09,0.8,1.6,2.0
1758089303.89371,1758089293.93168,0.0,0.0,0.0,-38.21629,-30.13758,11.17268,12.65,0.26,2.28,2.0
1758089303.89486,1758089293.94168,0.0,0.0,0.0,-35.2942,-29.67921,9.28192,12.65,0.26,2.28,2.0
1758089303.90968,1758089293.95168,0.0,0.0,0.0,-32.54401,-24.00693,6.47442,15.29,-0.69,2.65,2.0
1758089303.91193,1758089293.96168,0.0,0.0,0.0,-28.07493,-24.29341,0.74485,15.29,-0.69,2.65,2.0
1758089303.92664,1758089293.97168,0.0,0.0,0.0,-26.41335,-26.41335,-2.86479,14.57,-1.42,1.71,2.0
1758089303.94289,1758089293.98168,0.0,0.0,0.0,-24.86637,-21.60051,-3.72423,14.57,-1.42,1.71,2.0
1758089303.94389,1758089293.99168,0.0,0.0,0.0,-24.12152,-18.73572,-2.00535,12.38,-0.95,0.59,2.0
1758089303.95868,1758089294.00168,0.0,0.0,0.0,-23.60586,-15.46986,2.46372,9.86,-0.35,0.61,2.0
1758089303.96008,1758089294.01168,0.0,0.0,0.0,-23.37668,-12.204,5.78687,9.86,-0.35,0.61,2.0
1758089303.97572,1758089294.02168,0.0,0.0,0.0,-23.60586,-9.33921,7.50575,9.29,0.21,1.5,2.0
1758089303.99205,1758089294.03168,0.0,0.0,0.0,-24.12152,-6.58902,8.0787,9.29,0.21,1.5,2.0
1758089303.9929,1758089294.04168,0.0,0.0,0.0,-24.98096,-5.15662,6.70361,8.75,0.08,1.4,2.0
1758089304.00759,1758089294.05168,0.0,0.0,0.0,-25.72581,-3.32316,5.78687,8.75,0.08,1.4,2.0
1758089304.0096,1758089294.06168,0.0,0.0,0.0,-26.81443,-4.98473,4.35448,8.21,-0.26,1.42,2.0
1758089304.02599,1758089294.07168,0.0,0.0,0.0,-28.01764,-4.92744,2.92208,8.21,-0.26,1.42,2.0
1758089304.04194,1758089294.08168,0.0,0.0,0.0,-28.99167,-0.40107,2.29183,7.87,-0.57,1.44,2.0
1758089304.04291,1758089294.09168,0.0,0.0,0.0,-29.9084,4.18259,1.66158,8.6,-1.02,1.64,2.0
1758089304.05769,1758089294.10168,0.0,0.0,0.0,-30.48136,6.7609,1.83346,8.6,-1.02,1.64,2.0
1758089304.0737,1758089294.11168,0.0,0.0,0.0,-29.33544,9.68299,2.92208,8.73,-1.46,1.69,2.0
1758089304.07523,1758089294.12168,0.0,0.0,0.0,-27.73116,11.57375,3.95341,8.73,-1.46,1.69,2.0
1758089304.08967,1758089294.13168,0.0,0.0,0.0,-25.26744,14.32395,5.27121,9.21,-1.75,1.35,2.0
1758089304.092,1758089294.14168,0.0,0.0,0.0,-22.34536,17.36062,6.53172,9.21,-1.75,1.35,2.0
1758089304.10775,1758089294.15168,0.0,0.0,0.0,-18.50654,18.62113,7.96411,9.81,-1.9,1.21,2.0
1758089304.12358,1758089294.16168,0.0,0.0,0.0,-16.84496,18.79302,8.02141,10.19,-1.83,1.1,2.0
1758089304.12559,1758089294.17168,0.0,0.0,0.0,-15.92823,20.11082,7.44845,10.19,-1.83,1.1,2.0
1758089304.14095,1758089294.18168,0.0,0.0,0.0,-15.87093,20.85567,6.18794,10.83,-1.77,0.98,2.0
1758089304.14186,1758089294.19168,0.0,0.0,0.0,-16.55848,21.14215,4.18259,10.83,-1.77,0.98,2.0
1758089304.15669,1758089294.20168,0.0,0.0,0.0,-17.87628,21.7151,2.92208,10.81,-1.45,0.82,2.0
1758089304.1737,1758089294.21168,0.0,0.0,0.0,-19.19409,22.28806,1.77617,10.81,-1.45,0.82,2.0
1758089304.17486,1758089294.22168,0.0,0.0,0.0,-20.85567,22.86102,1.20321,10.59,-1.14,0.84,2.0
1758089304.18967,1758089294.23168,0.0,0.0,0.0,-22.68913,23.60586,1.20321,10.33,-1.03,1.03,2.0
1758089304.19199,1758089294.24168,0.0,0.0,0.0,-23.66316,23.26209,1.08862,10.33,-1.03,1.03,2.0
1758089304.20668,1758089294.25168,0.0,0.0,0.0,-24.12152,23.0329,1.3751,10.01,-0.99,1.0,2.0
1758089304.22265,1758089294.26168,0.0,0.0,0.0,-24.17882,22.63183,1.60428,10.01,-0.99,1.0,2.0
1758089304.22416,1758089294.27168,0.0,0.0,0.0,-23.72045,21.48592,1.48969,9.75,-1.1,0.91,2.0
1758089304.2387,1758089294.28168,0.0,0.0,0.0,-22.91831,20.51189,1.77617,9.75,-1.1,0.91,2.0
1758089304.23988,1758089294.29168,0.0,0.0,0.0,-22.05888,19.59516,1.83346,9.44,-1.34,0.82,2.0
1758089304.25564,1758089294.30168,0.0,0.0,0.0,-20.97026,18.10547,1.66158,9.28,-1.34,0.71,2.0
1758089304.2717,1758089294.31168,0.0,0.0,0.0,-20.34,16.95955,1.48969,9.28,-1.45,0.71,2.0
1758089304.27289,1758089294.32168,0.0,0.0,0.0,-19.76705,15.75634,1.43239,9.24,-1.41,0.71,2.0
1758089304.2879,1758089294.33168,0.0,0.0,0.0,-19.19409,14.03747,1.08862,9.24,-1.41,0.71,2.0
1758089304.30389,1758089294.34168,0.0,0.0,0.0,-18.56383,11.22997,0.80214,9.15,-1.37,0.64,2.0
1758089304.30487,1758089294.35168,0.0,0.0,0.0,-18.22006,9.4538,0.80214,9.15,-1.37,0.64,2.0
1758089304.31998,1758089294.36168,0.0,0.0,0.0,-17.87628,7.84952,1.03132,9.24,-1.27,0.6,2.0
1758089304.32089,1758089294.37168,0.0,0.0,0.0,-17.24603,6.53172,1.14592,9.24,-1.27,0.6,2.0
1758089304.33566,1758089294.38168,0.0,0.0,0.0,-16.67307,4.98473,1.08862,9.37,-1.27,0.55,2.0
1758089304.35222,1758089294.39168,0.0,0.0,0.0,-16.3293,4.29718,1.03132,9.51,-1.32,0.53,2.0
1758089304.35291,1758089294.40168,0.0,0.0,0.0,-15.92823,3.55234,0.80214,9.51,-1.32,0.53,2.0
1758089304.36769,1758089294.41168,0.0,0.0,0.0,-15.69904,3.03668,0.68755,9.54,-1.4,0.44,2.0
1758089304.38367,1758089294.42168,0.0,0.0,0.0,-15.87093,4.58366,-0.17189,9.54,-1.4,0.44,2.0
1758089304.38487,1758089294.43168,0.0,0.0,0.0,-16.04282,6.41713,-1.20321,9.66,-1.31,0.39,2.0
1758089304.39963,1758089294.44168,0.0,0.0,0.0,-16.38659,8.42248,-2.29183,9.66,-1.31,0.39,2.0
1758089304.40086,1758089294.45168,0.0,0.0,0.0,-16.55848,11.91752,-3.72423,9.74,-1.23,0.5,2.0
1758089304.41574,1758089294.46168,0.0,0.0,0.0,-16.3293,14.61043,-4.87014,9.85,-1.19,0.6,2.0
1758089304.43175,1758089294.47168,0.0,0.0,0.0,-15.98552,17.36062,-5.84417,9.85,-1.19,0.6,2.0
1758089304.43289,1758089294.48168,0.0,0.0,0.0,-15.06879,19.70975,-6.7609,9.81,-1.19,0.56,2.0
1758089304.4479,1758089294.49168,0.0,0.0,0.0,-14.03747,17.93358,-7.79223,9.81,-1.19,0.56,2.0
1758089304.46397,1758089294.50168,0.0,0.0,0.0,-12.89155,14.61043,-8.0787,9.27,-1.22,0.45,2.0
1758089304.46516,1758089294.51168,0.0,0.0,0.0,-11.17268,10.94349,-8.0787,9.27,-1.22,0.45,2.0
1758089304.48003,1758089294.52168,0.0,0.0,0.0,-8.99544,8.30789,-7.50575,9.18,-1.35,0.25,2.0
1758089304.48091,1758089294.53168,0.0,0.0,0.0,-5.55769,4.64096,-6.24524,9.11,-1.57,0.11,2.0
1758089304.49602,1758089294.54168,0.0,0.0,0.0,-3.38045,1.48969,-5.50039,9.11,-1.57,0.11,2.0
1758089304.51176,1758089294.55168,0.0,0.0,0.0,-1.60428,-1.3178,-4.64096,8.89,-1.74,0.09,2.0
1758089304.51288,1758089294.56168,0.0,0.0,0.0,-0.57296,-3.60963,-4.87014,8.89,-1.74,0.09,2.0
1758089304.52758,1758089294.57168,0.0,0.0,0.0,0.17189,-14.20935,-5.95876,8.54,-1.71,0.02,2.0
1758089304.54371,1758089294.58168,0.0,0.0,0.0,-0.22918,-19.19409,-6.58902,8.54,-1.71,0.02,2.0
1758089304.5449,1758089294.59168,0.0,0.0,0.0,-0.68755,-18.62113,-8.36518,8.77,-1.47,-0.4,2.0
1758089304.55974,1758089294.60168,0.0,0.0,0.0,-0.57296,-12.14671,-9.91217,8.77,-1.47,-0.4,2.0
1758089304.56085,1758089294.61168,0.0,0.0,0.0,0.74485,-2.29183,-10.19865,9.97,-1.35,-0.02,2.0
1758089304.57602,1758089294.62168,0.0,0.0,0.0,0.68755,0.80214,-9.96947,9.98,-1.36,0.67,2.0
1758089304.59197,1758089294.63168,0.0,0.0,0.0,0.0573,1.43239,-10.31324,9.98,-1.36,0.67,2.0
1758089304.59323,1758089294.64168,0.0,0.0,0.0,-1.48969,2.00535,-10.94349,9.81,-1.32,0.83,2.0
1758089304.6077,1758089294.65168,0.0,0.0,0.0,-2.46372,0.57296,-11.28727,9.81,-1.32,0.83,2.0
1758089304.62409,1758089294.66168,0.0,0.0,0.0,-2.97938,0.0573,-11.51645,9.91,-1.39,0.45,2.0
1758089304.62491,1758089294.67168,0.0,0.0,0.0,-2.7502,-2.23454,-11.91752,9.91,-1.39,0.45,2.0
1758089304.63976,1758089294.68168,0.0,0.0,0.0,-2.06265,-11.34457,-12.2613,9.82,-1.74,0.17,2.0
1758089304.6417,1758089294.69168,0.0,0.0,0.0,0.0573,-24.75178,-9.39651,8.86,-1.93,0.05,2.0
1758089304.65667,1758089294.70168,0.0,0.0,0.0,2.6929,-30.13758,-5.27121,8.86,-1.93,0.05,2.0
1758089304.66005,1758089294.71168,0.0,0.0,0.0,3.32316,-25.8404,-2.92208,10.93,-2.05,0.51,2.0
1758089304.67567,1758089294.72168,0.0,0.0,0.0,1.14592,-22.34536,-1.94806,10.93,-2.05,0.51,2.0
1758089304.69172,1758089294.73168,0.0,0.0,0.0,-1.66158,-25.15285,-2.06265,11.33,-1.46,1.26,2.0
1758089304.69287,1758089294.74168,0.0,0.0,0.0,-5.90147,-27.78845,-1.43239,11.33,-1.46,1.26,2.0
1758089304.70786,1758089294.75168,0.0,0.0,0.0,-11.11538,-28.24682,0.22918,12.31,-0.95,2.85,2.0
1758089304.72405,1758089294.76168,0.0,0.0,0.0,-20.68378,-24.4653,3.95341,14.29,-0.05,2.77,2.0
1758089304.72447,1758089294.77168,0.0,0.0,0.0,-27.33009,-21.02755,6.18794,14.29,-0.05,2.77,2.0
1758089304.73974,1758089294.78168,0.0,0.0,0.0,-32.77319,-16.95955,6.99009,14.4,0.5,1.76,2.0
1758089304.74087,1758089294.79168,0.0,0.0,0.0,-36.26823,-14.78231,6.41713,14.4,0.5,1.76,2.0
1758089304.75578,1758089294.80168,0.0,0.0,0.0,-38.44547,-13.12073,2.63561,11.54,-0.01,0.54,2.0
1758089304.77174,1758089294.81168,0.0,0.0,0.0,-37.35685,-11.11538,-0.57296,11.54,-0.01,0.54,2.0
1758089304.77293,1758089294.82168,0.0,0.0,0.0,-34.66395,-7.50575,-3.32316,9.4,-0.64,0.56,2.0
1758089304.78774,1758089294.83168,0.0,0.0,0.0,-31.28349,-3.89611,-7.16197,9.4,-0.64,0.56,2.0
1758089304.80399,1758089294.84168,0.0,0.0,0.0,-24.57989,-2.06265,-8.42248,8.85,-0.4,1.25,2.0
1758089304.8044,1758089294.85168,0.0,0.0,0.0,-19.59516,-1.08862,-8.99544,8.46,-0.15,1.77,2.0
1758089304.81978,1758089294.86168,0.0,0.0,0.0,-14.72501,0.0573,-9.22462,8.46,-0.15,1.77,2.0
1758089304.82092,1758089294.87168,0.0,0.0,0.0,-8.0787,0.85944,-8.136,8.34,-0.11,2.21,2.0
1758089304.8357,1758089294.88168,0.0,0.0,0.0,-4.69825,1.14592,-6.87549,8.34,-0.11,2.21,2.0
1758089304.85221,1758089294.89168,0.0,0.0,0.0,-2.06265,1.77617,-5.4431,8.55,0.05,2.64,2.0
1758089304.85295,1758089294.90168,0.0,0.0,0.0,-0.74485,3.38045,-4.18259,8.55,0.05,2.64,2.0
1758089304.86801,1758089294.91168,0.0,0.0,0.0,-1.71887,9.28192,-2.57831,9.5,0.29,2.51,2.0
1758089304.88395,1758089294.92168,0.0,0.0,0.0,-3.72423,13.80828,-2.06265,10.6,0.48,2.31,2.0
1758089304.88441,1758089294.93168,0.0,0.0,0.0,-7.50575,17.87628,-1.03132,10.6,0.48,2.31,2.0
1758089304.89973,1758089294.94168,0.0,0.0,0.0,-10.08406,19.76705,-1.08862,10.87,0.72,2.04,2.0
1758089304.90097,1758089294.95168,0.0,0.0,0.0,-14.43854,22.00158,-2.23454,10.87,0.72,2.04,2.0
1758089304.91601,1758089294.96168,0.0,0.0,0.0,-16.50119,20.74107,-4.18259,10.99,0.73,2.07,2.0
1758089304.932,1758089294.97168,0.0,0.0,0.0,-17.6471,20.79837,-6.13065,10.99,0.73,2.07,2.0
1758089304.9329,1758089294.98168,0.0,0.0,0.0,-17.36062,20.11082,-8.136,10.89,0.82,1.74,2.0
1758089304.94807,1758089294.99168,0.0,0.0,0.0,-15.98552,18.50654,-10.8289,10.43,0.87,1.68,2.0
1758089304.96378,1758089295.00168,0.0,0.0,0.0,-14.20935,18.33465,-12.49048,10.43,0.87,1.68,2.0
1758089304.96454,1758089295.01168,0.0,0.0,0.0,-12.43318,19.53786,-12.83425,10.16,0.8,1.65,2.0
1758089304.97999,1758089295.02168,0.0,0.0,0.0,-10.8289,19.13679,-12.83425,10.16,0.8,1.65,2.0
1758089304.98096,1758089295.03168,0.0,0.0,0.0,-8.76626,19.13679,-12.43318,9.62,0.61,1.28,2.0
1758089304.99575,1758089295.04168,0.0,0.0,0.0,-7.73493,20.3973,-11.97482,9.62,0.61,1.28,2.0
1758089305.01174,1758089295.05168,0.0,0.0,0.0,-6.7609,20.79837,-11.17268,9.52,0.48,1.34,2.0
1758089305.01292,1758089295.06168,0.0,0.0,0.0,-6.35983,20.68378,-10.54242,9.52,0.48,1.34,2.0
1758089305.02769,1758089295.07168,0.0,0.0,0.0,-6.24524,20.34,-10.02676,9.42,0.34,1.29,2.0
1758089305.04373,1758089295.08168,0.0,0.0,0.0,-6.41713,20.74107,-9.91217,9.5,0.12,1.26,2.0
1758089305.04448,1758089295.09168,0.0,0.0,0.0,-6.53172,21.08485,-9.39651,9.5,0.12,1.26,2.0
1758089305.06004,1758089295.10168,0.0,0.0,0.0,-6.70361,19.59516,-8.70896,9.55,0.02,1.22,2.0
1758089305.06091,1758089295.11168,0.0,0.0,0.0,-6.47442,18.73572,-7.79223,9.55,0.02,1.22,2.0
1758089305.07603,1758089295.12168,0.0,0.0,0.0,-6.18794,18.27736,-6.7609,9.71,-0.02,1.17,2.0
1758089305.09206,1758089295.13168,0.0,0.0,0.0,-5.95876,17.76169,-5.61499,9.71,-0.02,1.17,2.0
1758089305.09302,1758089295.14167,0.0,0.0,0.0,-5.95876,17.87628,-3.72423,9.88,0.09,1.11,2.0
1758089305.10781,1758089295.15167,0.0,0.0,0.0,-6.41713,17.53251,-3.09397,9.85,0.3,1.15,2.0
1758089305.1098,1758089295.16167,0.0,0.0,0.0,-6.87549,17.30333,-2.6929,9.85,0.3,1.15,2.0
1758089305.12605,1758089295.17167,0.0,0.0,0.0,-7.73493,17.53251,-2.63561,9.73,0.53,1.04,2.0
1758089305.14174,1758089295.18167,0.0,0.0,0.0,-8.99544,19.48057,-2.23454,9.73,0.53,1.04,2.0
1758089305.14298,1758089295.19167,0.0,0.0,0.0,-9.62569,21.31403,-1.71887,9.55,0.73,0.76,2.0
1758089305.15796,1758089295.20167,0.0,0.0,0.0,-9.96947,22.97561,-0.85944,9.55,0.73,0.76,2.0
1758089305.17405,1758089295.21167,0.0,0.0,0.0,-9.91217,23.94964,0.0573,9.28,0.73,0.64,2.0
1758089305.17446,1758089295.22167,0.0,0.0,0.0,-9.74028,25.49662,1.77617,9.02,0.61,0.45,2.0
1758089305.18975,1758089295.23167,0.0,0.0,0.0,-9.96947,26.64254,2.97938,9.02,0.61,0.45,2.0
1758089305.19101,1758089295.24167,0.0,0.0,0.0,-10.31324,27.33009,4.1253,8.87,0.5,0.26,2.0
1758089305.20572,1758089295.25167,0.0,0.0,0.0,-11.11538,26.87172,5.95876,8.87,0.5,0.26,2.0
1758089305.22197,1758089295.26167,0.0,0.0,0.0,-12.08941,23.37668,7.04738,8.5,0.46,0.21,2.0
1758089305.22302,1758089295.27167,0.0,0.0,0.0,-13.34992,19.19409,7.62034,8.5,0.46,0.21,2.0
1758089305.23777,1758089295.28167,0.0,0.0,0.0,-14.61043,12.2613,8.65166,8.26,0.37,0.04,2.0
1758089305.23985,1758089295.29167,0.0,0.0,0.0,-15.92823,0.11459,9.28192,8.26,0.37,0.04,2.0
1758089305.25581,1758089295.30167,0.0,0.0,0.0,-16.10011,-7.62034,10.02676,8.08,0.14,-0.16,2.0
1758089305.27208,1758089295.31167,0.0,0.0,0.0,-15.98552,-14.78231,10.8289,8.28,-0.09,-0.53,2.0
1758089305.27303,1758089295.32167,0.0,0.0,0.0,-14.9542,-20.79837,11.97482,8.28,-0.09,-0.53,2.0
1758089305.28778,1758089295.33167,0.0,0.0,0.0,-12.89155,-27.61657,13.5218,8.47,-0.17,-0.54,2.0
1758089305.30387,1758089295.34167,0.0,0.0,0.0,-11.45916,-29.73651,14.43854,8.47,-0.17,-0.54,2.0
1758089305.30432,1758089295.35167,0.0,0.0,0.0,-10.02676,-31.16891,15.46986,8.96,-0.1,-0.39,2.0
1758089305.31977,1758089295.36167,0.0,0.0,0.0,-8.70896,-32.08564,16.38659,8.96,-0.1,-0.39,2.0
1758089305.32101,1758089295.37167,0.0,0.0,0.0,-8.47978,-33.51803,16.95955,9.28,0.09,-0.2,2.0
1758089305.33601,1758089295.38167,0.0,0.0,0.0,-9.11003,-38.1017,17.6471,9.01,0.53,0.0,2.0
1758089305.35177,1758089295.39167,0.0,0.0,0.0,-11.45916,-42.39888,14.09476,9.01,0.53,0.0,2.0
1758089305.35299,1758089295.40167,0.0,0.0,0.0,-13.17803,-50.1911,14.9542,8.51,1.51,0.76,2.0
1758089305.36811,1758089295.41167,0.0,0.0,0.0,-17.47521,-75.34396,11.86023,8.51,1.51,0.76,2.0
1758089305.38399,1758089295.42167,0.0,0.0,0.0,-19.13679,-97.9185,8.36518,8.19,1.89,1.94,2.0
1758089305.38435,1758089295.43167,0.0,0.0,0.0,-18.73572,-123.41511,0.57296,8.19,1.89,1.94,2.0
1758089305.39989,1758089295.44167,0.0,0.0,0.0,-15.92823,-133.67107,-10.71431,10.29,0.43,3.1,2.0
1758089305.40097,1758089295.45167,0.0,0.0,0.0,-10.25595,-122.32648,-15.75634,15.33,-2.36,3.98,2.0
1758089305.41574,1758089295.46167,0.0,0.0,0.0,-7.44845,-108.34632,-17.93358,15.33,-2.36,3.98,2.0
1758089305.43192,1758089295.47167,0.0,0.0,0.0,-4.58366,-87.71984,-15.75634,15.73,-3.04,3.89,2.0
1758089305.43301,1758089295.48167,0.0,0.0,0.0,-1.48969,-76.60446,-8.30789,15.73,-3.04,3.89,2.0
1758089305.44799,1758089295.49167,0.0,0.0,0.0,1.66158,-74.59911,-0.45837,12.45,-2.34,1.77,2.0
1758089305.46416,1758089295.50167,0.0,0.0,0.0,4.35448,-71.44785,6.8182,12.45,-2.34,1.77,2.0
1758089305.46453,1758089295.51167,0.0,0.0,0.0,6.7609,-59.07195,14.38124,10.99,-0.74,0.17,2.0
1758089305.48011,1758089295.52167,0.0,0.0,0.0,9.11003,-37.75792,20.45459,10.99,-0.74,0.65,2.0
1758089305.481,1758089295.53167,0.0,0.0,0.0,9.22462,-33.74722,19.19409,10.79,0.03,0.65,2.0
1758089305.49615,1758089295.54167,0.0,0.0,0.0,7.50575,-25.61122,14.83961,9.82,0.21,1.89,2.0
1758089305.51188,1758089295.55167,0.0,0.0,0.0,6.47442,-18.44924,13.00614,9.82,0.21,1.89,2.0
1758089305.51304,1758089295.56167,0.0,0.0,0.0,3.49504,-6.18794,8.30789,9.84,-0.6,1.22,2.0
1758089305.52813,1758089295.57167,0.0,0.0,0.0,1.3178,3.72423,4.98473,9.84,-0.6,1.22,2.0
1758089305.54391,1758089295.58167,0.0,0.0,0.0,0.0,9.5684,2.23454,10.17,-1.01,1.08,2.0
1758089305.54438,1758089295.59167,0.0,0.0,0.0,-0.74485,8.25059,0.34377,10.17,-1.01,1.08,2.0
1758089305.55975,1758089295.60167,0.0,0.0,0.0,0.97403,1.14592,-0.40107,9.89,-1.32,0.4,2.0
1758089305.56101,1758089295.61167,0.0,0.0,0.0,3.20856,-1.43239,2.40642,10.16,-1.86,-0.16,2.0
1758089305.57613,1758089295.62167,0.0,0.0,0.0,4.92744,6.99009,6.24524,10.16,-1.86,-0.16,2.0
1758089305.59218,1758089295.63167,0.0,0.0,0.0,5.50039,41.59674,6.35983,12.79,-1.89,-0.15,2.0
1758089305.59302,1758089295.64167,0.0,0.0,0.0,1.20321,62.62429,5.84417,12.79,-1.89,-0.15,2.0
1758089305.60784,1758089295.65167,0.0,0.0,0.0,1.14592,61.07731,6.8182,10.56,-1.67,1.55,2.0
1758089305.62386,1758089295.66167,0.0,0.0,0.0,0.51566,52.884,6.58902,10.56,-1.67,1.55,2.0
1758089305.62438,1758089295.67167,0.0,0.0,0.0,1.83346,45.09178,7.73493,9.41,-1.6,1.07,2.0
1758089305.63986,1758089295.68167,0.0,0.0,0.0,4.23989,40.04975,8.70896,9.93,-1.34,0.02,2.0
1758089305.64103,1758089295.69167,0.0,0.0,0.0,7.73493,35.00772,8.76626,9.93,-1.34,0.02,2.0
1758089305.65586,1758089295.70167,0.0,0.0,0.0,11.57375,30.99702,9.39651,9.81,-1.49,0.09,2.0
1758089305.67193,1758089295.71167,0.0,0.0,0.0,15.87093,24.63719,8.88085,9.81,-1.49,0.09,2.0
1758089305.67308,1758089295.72167,0.0,0.0,0.0,17.18874,20.34,7.33386,9.57,-1.49,0.28,2.0
1758089305.68815,1758089295.73167,0.0,0.0,0.0,17.87628,15.35527,5.72958,9.57,-1.49,0.28,2.0
1758089305.70386,1758089295.74167,0.0,0.0,0.0,17.58981,10.71431,4.46907,9.24,-1.25,0.31,2.0
1758089305.70442,1758089295.75167,0.0,0.0,0.0,15.98552,5.72958,3.20856,9.36,-1.01,0.02,2.0
1758089305.7199,1758089295.76167,0.0,0.0,0.0,14.38124,3.03668,3.09397,9.36,-1.01,0.02,2.0
1758089305.72102,1758089295.77167,0.0,0.0,0.0,12.71966,1.3178,2.92208,9.45,-0.82,-0.04,2.0
1758089305.73617,1758089295.78167,0.0,0.0,0.0,10.8862,0.22918,2.7502,9.45,-0.82,-0.04,2.0
1758089305.75218,1758089295.79167,0.0,0.0,0.0,8.99544,0.0,2.46372,9.55,-0.77,0.2,2.0
1758089305.75302,1758089295.80167,0.0,0.0,0.0,8.0787,2.23454,1.94806,9.55,-0.77,0.2,2.0
1758089305.7679,1758089295.81167,0.0,0.0,0.0,6.87549,6.24524,0.97403,9.88,-0.83,0.31,2.0
1758089305.78391,1758089295.82167,0.0,0.0,0.0,5.90147,10.02676,-0.11459,9.88,-0.83,0.31,2.0
1758089305.78447,1758089295.83167,0.0,0.0,0.0,4.69825,14.78231,-1.71887,9.91,-0.88,0.56,2.0
1758089305.7999,1758089295.84167,0.0,0.0,0.0,4.18259,17.30333,-3.03668,9.85,-0.99,0.51,2.0
1758089305.80134,1758089295.85167,0.0,0.0,0.0,4.1253,20.51189,-4.1253,9.85,-0.99,0.51,2.0
1758089305.81617,1758089295.86167,0.0,0.0,0.0,4.64096,23.66316,-5.50039,9.98,-0.98,0.37,2.0
1758089305.83204,1758089295.87167,0.0,0.0,0.0,5.21392,25.7831,-6.18794,9.98,-0.98,0.37,2.0
1758089305.83306,1758089295.88167,0.0,0.0,0.0,5.72958,26.35606,-6.87549,9.8,-0.97,0.12,2.0
1758089305.84788,1758089295.89167,0.0,0.0,0.0,6.35983,26.75713,-7.67763,9.8,-0.97,0.12,2.0
1758089305.84907,1758089295.90167,0.0,0.0,0.0,7.04738,25.7831,-8.47978,9.68,-0.9,0.0,2.0
1758089305.86437,1758089295.91167,0.0,0.0,0.0,8.25059,23.72045,-8.88085,9.54,-0.92,0.0,2.0
1758089305.88016,1758089295.92167,0.0,0.0,0.0,9.28192,20.79837,-8.88085,9.54,-0.92,0.0,2.0
1758089305.88107,1758089295.93167,0.0,0.0,0.0,10.54242,17.53251,-8.59437,9.43,-1.11,0.03,2.0
1758089305.89592,1758089295.94167,0.0,0.0,0.0,12.49048,11.28727,-7.62034,9.43,-1.11,0.03,2.0
1758089305.91219,1758089295.95167,0.0,0.0,0.0,13.17803,7.96411,-7.73493,9.28,-1.36,-0.03,2.0
1758089305.91337,1758089295.96167,0.0,0.0,0.0,14.09476,2.40642,-7.84952,9.28,-1.36,-0.03,2.0
1758089305.92792,1758089295.97167,0.0,0.0,0.0,14.20935,-5.90147,-7.39116,9.02,-1.47,0.04,2.0
1758089305.92932,1758089295.98167,0.0,0.0,0.0,12.83425,-11.22997,-7.44845,9.38,-1.43,-0.13,2.0
1758089305.94443,1758089295.99167,0.0,0.0,0.0,11.80293,-11.34457,-7.84952,9.38,-1.43,-0.13,2.0
1758089305.95988,1758089296.00167,0.0,0.0,0.0,11.28727,-9.05273,-8.59437,10.0,-1.3,0.09,2.0
1758089305.96109,1758089296.01167,0.0,0.0,0.0,11.22997,-2.40642,-8.0787,10.0,-1.3,0.09,2.0
1758089305.97613,1758089296.02167,0.0,0.0,0.0,10.65701,12.37589,-8.02141,10.74,-1.22,0.54,2.0
1758089305.99213,1758089296.03167,0.0,0.0,0.0,10.31324,19.76705,-8.47978,10.74,-1.22,0.54,2.0
1758089305.99334,1758089296.04167,0.0,0.0,0.0,10.02676,22.74642,-8.93814,10.39,-1.04,0.78,2.0
1758089306.0082,1758089296.05167,0.0,0.0,0.0,11.00079,19.59516,-11.45916,10.39,-1.04,0.78,2.0
1758089306.00941,1758089296.06167,0.0,0.0,0.0,12.77696,-4.87014,-10.71431,9.24,-0.92,0.1,2.0
1758089306.0245,1758089296.07167,0.0,0.0,0.0,14.83961,-15.75634,-9.22462,8.6,-1.17,-0.86,2.0
1758089306.04018,1758089296.08167,0.0,0.0,0.0,17.47521,-11.45916,-5.84417,8.6,-1.17,-0.86,2.0
1758089306.0411,1758089296.09167,0.0,0.0,0.0,18.16276,3.09397,-5.4431,11.49,-1.47,-0.73,2.0
1758089306.05592,1758089296.10167,0.0,0.0,0.0,17.30333,6.87549,-6.07335,11.49,-1.47,-0.73,2.0
1758089306.07198,1758089296.11167,0.0,0.0,0.0,15.35527,11.34457,-6.8182,10.42,-1.41,-0.09,2.0
1758089306.07304,1758089296.12167,0.0,0.0,0.0,11.86023,15.46986,-7.96411,10.42,-1.41,-0.09,2.0
1758089306.08776,1758089296.13167,0.0,0.0,0.0,7.33386,15.98552,-8.99544,10.46,-1.2,0.52,2.0
1758089306.089,1758089296.14167,0.0,0.0,0.0,4.98473,16.73037,-8.88085,10.3,-0.91,-0.3,2.0
1758089306.10447,1758089296.15167,0.0,0.0,0.0,3.03668,19.25138,-7.84952,10.3,-0.91,-0.3,2.0
1758089306.1201,1758089296.16167,0.0,0.0,0.0,1.14592,20.62648,-7.04738,10.83,-0.7,0.21,2.0
1758089306.1211,1758089296.17167,0.0,0.0,0.0,-1.60428,15.41257,-5.27121,10.83,-0.7,0.21,2.0
1758089306.13591,1758089296.18167,0.0,0.0,0.0,-3.95341,9.85487,-3.49504,10.71,-0.33,0.95,2.0
1758089306.15209,1758089296.19167,0.0,0.0,0.0,-6.7609,4.52637,-1.71887,10.71,-0.33,0.95,2.0
1758089306.15336,1758089296.20167,0.0,0.0,0.0,-9.62569,-1.03132,0.51566,11.49,-0.06,1.56,2.0
1758089306.16813,1758089296.21167,0.0,0.0,0.0,-14.9542,-8.99544,2.57831,12.12,0.09,1.42,2.0
1758089306.16906,1758089296.22167,0.0,0.0,0.0,-18.10547,-13.5791,3.03668,12.12,0.09,1.42,2.0
1758089306.18444,1758089296.23167,0.0,0.0,0.0,-20.34,-16.3293,2.34913,11.75,-0.09,0.8,2.0
1758089306.19982,1758089296.24167,0.0,0.0,0.0,-21.94428,-16.67307,0.0,11.75,-0.09,0.8,2.0
1758089306.20106,1758089296.25167,0.0,0.0,0.0,-22.34536,-17.13144,-4.81285,10.15,-0.37,0.2,2.0
1758089306.21581,1758089296.26167,0.0,0.0,0.0,-21.42862,-15.92823,-7.50575,10.15,-0.37,0.2,2.0
1758089306.23193,1758089296.27167,0.0,0.0,0.0,-19.88164,-12.71966,-9.62569,8.96,-0.23,0.6,2.0
1758089306.23308,1758089296.28167,0.0,0.0,0.0,-15.58445,-10.08406,-11.28727,8.96,-0.23,0.6,2.0
1758089306.24791,1758089296.29167,0.0,0.0,0.0,-11.57375,-7.04738,-11.11538,8.64,0.07,1.44,2.0
1758089306.24907,1758089296.30167,0.0,0.0,0.0,-7.04738,-6.53172,-9.62569,8.41,0.08,2.21,2.0
1758089306.26449,1758089296.31167,0.0,0.0,0.0,-2.6929,-6.13065,-7.50575,8.41,0.08,2.21,2.0
1758089306.28014,1758089296.32167,0.0,0.0,0.0,2.40642,-3.72423,-4.87014,8.65,0.03,2.56,2.0
1758089306.28113,1758089296.33167,0.0,0.0,0.0,4.46907,-1.77617,-2.86479,8.65,0.03,2.56,2.0
1758089306.29589,1758089296.34167,0.0,0.0,0.0,4.69825,0.74485,-1.71887,9.76,0.05,2.67,2.0
1758089306.31218,1758089296.35167,0.0,0.0,0.0,3.38045,3.83882,-0.85944,9.76,0.05,2.67,2.0
1758089306.31309,1758089296.36167,0.0,0.0,0.0,-1.77617,11.11538,-1.20321,10.93,0.42,2.5,2.0
1758089306.32787,1758089296.37167,0.0,0.0,0.0,-5.4431,14.72501,-2.29183,11.33,1.14,2.03,2.0
1758089306.32906,1758089296.38167,0.0,0.0,0.0,-8.70896,15.87093,-4.64096,11.33,1.14,2.03,2.0
1758089306.34445,1758089296.39167,0.0,0.0,0.0,-11.17268,15.41257,-6.24524,10.88,1.39,2.01,2.0
1758089306.36001,1758089296.40167,0.0,0.0,0.0,-11.57375,14.66772,-8.70896,10.88,1.39,2.01,2.0
1758089306.36109,1758089296.41167,0.0,0.0,0.0,-10.8862,14.49583,-9.5684,10.5,1.39,1.74,2.0
1758089306.37616,1758089296.42167,0.0,0.0,0.0,-9.74028,14.38124,-10.71431,10.5,1.39,1.74,2.0
1758089306.39294,1758089296.43167,0.0,0.0,0.0,-8.36518,16.90226,-11.45916,10.25,1.33,1.65,2.0
1758089306.39428,1758089296.44167,0.0,0.0,0.0,-6.8182,18.22006,-11.34457,10.22,0.9,1.89,2.0
1758089306.40894,1758089296.45167,0.0,0.0,0.0,-5.90147,16.95955,-10.94349,10.22,0.9,1.89,2.0
1758089306.4101,1758089296.46167,0.0,0.0,0.0,-5.09932,16.50119,-10.65701,9.92,0.69,1.77,2.0
1758089306.42571,1758089296.47167,0.0,0.0,0.0,-4.1253,15.46986,-9.74028,9.92,0.69,1.77,2.0
1758089306.44203,1758089296.48167,0.0,0.0,0.0,-3.32316,13.86558,-9.74028,9.74,0.41,1.68,2.0
1758089306.44313,1758089296.49167,0.0,0.0,0.0,-2.63561,12.2613,-9.39651,9.74,0.41,1.68,2.0
1758089306.4578,1758089296.50167,0.0,0.0,0.0,-2.34913,10.94349,-9.33921,9.44,0.22,1.72,2.0
1758089306.45905,1758089296.51167,0.0,0.0,0.0,-2.34913,9.4538,-8.99544,9.44,0.22,1.72,2.0
1758089306.47454,1758089296.52167,0.0,0.0,0.0,-2.63561,8.59437,-8.36518,9.25,0.25,1.57,2.0
1758089306.4899,1758089296.53167,0.0,0.0,0.0,-3.20856,8.25059,-7.67763,9.3,0.51,1.45,2.0
1758089306.49116,1758089296.54167,0.0,0.0,0.0,-3.89611,8.136,-6.7609,9.3,0.51,1.45,2.0
1758089306.50858,1758089296.55167,0.0,0.0,0.0,-5.15662,8.47978,-5.84417,9.42,0.77,1.38,2.0
1758089306.50954,1758089296.56167,0.0,0.0,0.0,-5.90147,9.33921,-5.27121,9.42,0.77,1.38,2.0
1758089306.52523,1758089296.57167,0.0,0.0,0.0,-6.87549,10.19865,-4.87014,9.47,1.01,1.28,2.0
1758089306.5417,1758089296.58167,0.0,0.0,0.0,-7.96411,11.28727,-4.52637,9.47,1.01,1.28,2.0
1758089306.54298,1758089296.59167,0.0,0.0,0.0,-9.39651,13.06344,-3.89611,9.5,1.13,1.29,2.0
1758089306.55796,1758089296.60167,0.0,0.0,0.0,-10.37054,13.80828,-3.83882,9.52,1.12,1.17,2.0
1758089306.55914,1758089296.61167,0.0,0.0,0.0,-11.45916,16.73037,-3.55234,9.52,1.12,1.17,2.0
1758089306.57445,1758089296.62167,0.0,0.0,0.0,-12.60507,20.16812,-3.09397,9.65,1.03,1.03,2.0
1758089306.58991,1758089296.63167,0.0,0.0,0.0,-14.32395,24.35071,-1.83346,9.65,1.03,1.03,2.0
1758089306.59117,1758089296.64167,0.0,0.0,0.0,-15.69904,26.69983,-0.80214,9.5,0.99,0.97,2.0
1758089306.60594,1758089296.65167,0.0,0.0,0.0,-17.36062,29.39274,0.45837,9.5,0.99,0.97,2.0
1758089306.62191,1758089296.66167,0.0,0.0,0.0,-19.42327,31.2262,1.20321,9.53,1.02,0.99,2.0
1758089306.62313,1758089296.67167,0.0,0.0,0.0,-22.86102,31.91375,2.23454,9.36,1.11,0.76,2.0
1758089306.63822,1758089296.68167,0.0,0.0,0.0,-25.15285,30.82513,3.03668,9.36,1.11,0.76,2.0
1758089306.63991,1758089296.69167,0.0,0.0,0.0,-27.44468,28.99167,3.83882,9.16,1.16,0.58,2.0
1758089306.65693,1758089296.70167,0.0,0.0,0.0,-30.65324,24.63719,5.21392,9.16,1.16,0.58,2.0
1758089306.65873,1758089296.71167,0.0,0.0,0.0,-32.25753,19.70975,6.13065,8.88,1.11,0.43,2.0
1758089306.67455,1758089296.72167,0.0,0.0,0.0,-33.51803,12.89155,7.16197,8.88,1.11,0.43,2.0
1758089306.68993,1758089296.73167,0.0,0.0,0.0,-34.43476,5.78687,8.0787,8.55,0.86,0.26,2.0
1758089306.69266,1758089296.74167,0.0,0.0,0.0,-35.75257,-4.18259,8.88085,8.55,0.86,-0.02,2.0
1758089306.70824,1758089296.75167,0.0,0.0,0.0,-36.38282,-10.31324,9.05273,8.61,0.76,-0.02,2.0
1758089306.70915,1758089296.76167,0.0,0.0,0.0,-36.55471,-16.55848,9.39651,8.51,0.84,-0.17,2.0
1758089306.7245,1758089296.77167,0.0,0.0,0.0,-36.7266,-22.05888,9.85487,8.51,0.84,-0.17,2.0
1758089306.73993,1758089296.78167,0.0,0.0,0.0,-36.7266,-30.19488,10.31324,8.46,0.8,-0.04,2.0
1758089306.74117,1758089296.79167,0.0,0.0,0.0,-37.01308,-34.89313,11.00079,8.46,0.8,-0.04,2.0
1758089306.756,1758089296.80167,0.0,0.0,0.0,-37.47144,-38.44547,12.14671,8.7,0.63,0.4,2.0
1758089306.75873,1758089296.81167,0.0,0.0,0.0,-37.52874,-41.59674,13.00614,8.7,0.63,0.4,2.0
1758089306.77527,1758089296.82167,0.0,0.0,0.0,-36.95578,-49.21708,13.86558,9.54,0.27,1.71,2.0
1758089306.79123,1758089296.83167,0.0,0.0,0.0,-36.21093,-55.97798,13.06344,10.9,-0.31,3.23,2.0
1758089306.79241,1758089296.84167,0.0,0.0,0.0,-35.06502,-60.50434,10.37054,10.9,-0.31,3.23,2.0
1758089306.80809,1758089296.85167,0.0,0.0,0.0,-33.34615,-60.04598,7.33386,13.01,-0.8,3.08,2.0
1758089306.8094,1758089296.86167,0.0,0.0,0.0,-29.22085,-54.08722,3.89611,13.01,-0.8,3.08,2.0
1758089306.82498,1758089296.87167,0.0,0.0,0.0,-26.69983,-46.75336,3.03668,13.91,-1.47,2.45,2.0
1758089306.83997,1758089296.88167,0.0,0.0,0.0,-24.35071,-37.81522,3.83882,13.91,-1.47,2.45,2.0
1758089306.84115,1758089296.89167,0.0,0.0,0.0,-22.68913,-31.28349,7.67763,13.07,-1.63,2.31,2.0
1758089306.85584,1758089296.90167,0.0,0.0,0.0,-20.74107,-24.12152,10.08406,11.69,-1.08,2.4,2.0
1758089306.87221,1758089296.91167,0.0,0.0,0.0,-20.11082,-20.45459,11.97482,11.69,-1.08,2.4,2.0
1758089306.87315,1758089296.92167,0.0,0.0,0.0,-19.07949,-21.02755,12.89155,10.79,-0.72,2.27,2.0
1758089306.88827,1758089296.93167,0.0,0.0,0.0,-17.76169,-23.94964,12.83425,10.79,-0.72,2.27,2.0
1758089306.88917,1758089296.94167,0.0,0.0,0.0,-17.24603,-24.98096,9.96947,10.2,-0.44,2.01,2.0
1758089306.90454,1758089296.95167,0.0,0.0,0.0,-16.61578,-21.7724,9.62569,10.2,-0.44,2.01,2.0
1758089306.92002,1758089296.96167,0.0,0.0,0.0,-17.30333,-21.42862,8.70896,10.25,-0.67,2.22,2.0
1758089306.92114,1758089296.97167,0.0,0.0,0.0,-19.82434,-21.48592,7.39116,9.23,-0.88,2.32,2.0
1758089306.936,1758089296.98167,0.0,0.0,0.0,-22.23076,-18.85031,6.58902,9.23,-0.88,2.32,2.0
1758089306.95199,1758089296.99167,0.0,0.0,0.0,-24.63719,-15.06879,5.95876,9.25,-0.99,2.3,2.0
1758089306.95313,1758089297.00167,0.0,0.0,0.0,-26.75713,-10.8862,5.78687,9.25,-0.99,2.3,2.0
1758089306.96791,1758089297.01167,0.0,0.0,0.0,-28.59059,-3.89611,6.47442,9.25,-1.32,2.09,2.0
1758089306.96915,1758089297.02167,0.0,0.0,0.0,-28.13223,0.85944,7.73493,9.25,-1.32,2.09,2.0
1758089306.98453,1758089297.03167,0.0,0.0,0.0,-26.81443,4.52637,8.99544,9.59,-1.76,1.95,2.0
1758089307.00029,1758089297.04167,0.0,0.0,0.0,-24.98096,6.41713,10.25595,9.59,-1.76,1.95,2.0
1758089307.00116,1758089297.05167,0.0,0.0,0.0,-21.48592,9.28192,11.57375,9.78,-2.15,1.76,2.0
1758089307.01625,1758089297.06167,0.0,0.0,0.0,-18.85031,11.00079,11.97482,10.01,-2.51,1.47,2.0
1758089307.03221,1758089297.07167,0.0,0.0,0.0,-16.38659,12.49048,11.97482,10.01,-2.51,1.47,2.0
1758089307.03316,1758089297.08167,0.0,0.0,0.0,-14.09476,13.69369,11.45916,10.0,-2.71,1.35,2.0
1758089307.04795,1758089297.09167,0.0,0.0,0.0,-10.94349,15.29797,11.17268,10.0,-2.71,1.35,2.0
1758089307.04917,1758089297.10167,0.0,0.0,0.0,-9.28192,15.75634,10.8862,9.88,-2.56,1.36,2.0
1758089307.06455,1758089297.11167,0.0,0.0,0.0,-8.02141,15.35527,10.59972,9.88,-2.56,1.36,2.0
1758089307.07999,1758089297.12167,0.0,0.0,0.0,-6.58902,14.15206,10.54242,9.6,-2.12,1.31,2.0
1758089307.08119,1758089297.13167,0.0,0.0,0.0,-6.13065,13.12073,10.71431,9.4,-1.65,1.25,2.0
1758089307.09588,1758089297.14167,0.0,0.0,0.0,-5.78687,12.37589,10.8862,9.4,-1.65,1.25,2.0
1758089307.11209,1758089297.15167,0.0,0.0,0.0,-5.55769,12.204,11.00079,9.26,-1.25,1.21,2.0
1758089307.11323,1758089297.16167,0.0,0.0,0.0,-5.27121,12.37589,10.65701,9.26,-1.25,1.21,2.0
1758089307.12829,1758089297.17167,0.0,0.0,0.0,-5.27121,11.97482,10.25595,9.03,-1.1,1.18,2.0
1758089307.12922,1758089297.18167,0.0,0.0,0.0,-5.4431,11.28727,9.39651,9.03,-1.1,1.18,2.0
1758089307.14457,1758089297.19167,0.0,0.0,0.0,-5.72958,10.54242,8.30789,8.78,-1.29,1.29,2.0
1758089307.16003,1758089297.20167,0.0,0.0,0.0,-6.35983,10.02676,6.47442,8.98,-1.58,1.24,2.0
1758089307.16122,1758089297.21167,0.0,0.0,0.0,-6.70361,9.4538,5.27121,8.98,-1.58,1.24,2.0
1758089307.17633,1758089297.22167,0.0,0.0,0.0,-6.58902,9.5684,4.18259,9.25,-1.8,1.07,2.0
1758089307.19224,1758089297.23167,0.0,0.0,0.0,-6.24524,9.96947,3.55234,9.25,-1.8,1.07,2.0
1758089307.19319,1758089297.24167,0.0,0.0,0.0,-5.55769,9.68299,3.09397,9.49,-1.83,1.16,2.0
1758089307.2079,1758089297.25167,0.0,0.0,0.0,-5.15662,8.47978,3.09397,9.49,-1.83,1.16,2.0
1758089307.20912,1758089297.26167,0.0,0.0,0.0,-4.92744,7.44845,2.97938,9.41,-1.69,1.22,2.0
1758089307.22429,1758089297.27167,0.0,0.0,0.0,-4.52637,6.47442,2.92208,9.41,-1.69,1.22,2.0
1758089307.24027,1758089297.28167,0.0,0.0,0.0,-4.35448,5.15662,2.29183,9.43,-1.42,1.22,2.0
1758089307.24196,1758089297.29167,0.0,0.0,0.0,-4.23989,4.64096,1.66158,9.56,-1.33,1.13,2.0
1758089307.25702,1758089297.30167,0.0,0.0,0.0,-4.23989,4.64096,0.85944,9.56,-1.33,1.13,2.0
1758089307.259,1758089297.31167,0.0,0.0,0.0,-4.52637,4.29718,-0.45837,9.76,-1.33,1.09,2.0
1758089307.27426,1758089297.32167,0.0,0.0,0.0,-4.87014,3.66693,-1.43239,9.76,-1.33,1.09,2.0
1758089307.29003,1758089297.33167,0.0,0.0,0.0,-5.61499,3.95341,-2.46372,9.79,-1.35,1.01,2.0
1758089307.2923,1758089297.34167,0.0,0.0,0.0,-6.35983,4.87014,-3.66693,9.79,-1.35,1.01,2.0
1758089307.30811,1758089297.35167,0.0,0.0,0.0,-6.8182,6.7609,-5.21392,10.2,-1.39,0.91,2.0
1758089307.30899,1758089297.36167,0.0,0.0,0.0,-6.99009,7.62034,-6.13065,10.47,-1.45,0.81,2.0
1758089307.32418,1758089297.37167,0.0,0.0,0.0,-7.10468,8.02141,-6.8182,10.47,-1.45,0.81,2.0
1758089307.34106,1758089297.38167,0.0,0.0,0.0,-6.70361,8.59437,-7.44845,10.39,-1.5,0.7,2.0
1758089307.34318,1758089297.39167,0.0,0.0,0.0,-5.90147,8.88085,-8.25059,10.39,-1.5,0.7,2.0
1758089307.35804,1758089297.40167,0.0,0.0,0.0,-4.98473,8.93814,-8.70896,10.13,-1.57,0.63,2.0
1758089307.35952,1758089297.41167,0.0,0.0,0.0,-4.23989,8.47978,-9.22462,10.13,-1.57,0.63,2.0
1758089307.37422,1758089297.42167,0.0,0.0,0.0,-3.60963,8.25059,-9.74028,9.78,-1.65,0.65,2.0
1758089307.39185,1758089297.43167,0.0,0.0,0.0,-2.63561,7.96411,-10.48513,9.67,-1.75,0.61,2.0
1758089307.39287,1758089297.44167,0.0,0.0,0.0,-2.00535,8.02141,-10.71431,9.67,-1.75,0.61,2.0
1758089307.40889,1758089297.45167,0.0,0.0,0.0,-1.43239,7.67763,-10.8862,9.56,-1.82,0.56,2.0
1758089307.41323,1758089297.46167,0.0,0.0,0.0,-0.74485,7.39116,-10.8289,9.56,-1.82,0.56,2.0
1758089307.42891,1758089297.47167,0.0,0.0,0.0,0.0573,6.53172,-10.8289,9.35,-1.82,0.49,2.0
1758089307.43027,1758089297.48167,0.0,0.0,0.0,0.74485,5.95876,-10.54242,9.35,-1.82,0.49,2.0
1758089307.44821,1758089297.49167,0.0,0.0,0.0,1.20321,5.15662,-10.54242,9.17,-1.7,0.49,2.0
1758089307.45145,1758089297.50167,0.0,0.0,0.0,1.71887,3.72423,-10.54242,9.17,-1.7,0.49,2.0
1758089307.46806,1758089297.51167,0.0,0.0,0.0,1.94806,1.83346,-10.65701,9.04,-1.52,0.52,2.0
1758089307.46923,1758089297.52167,0.0,0.0,0.0,1.77617,0.68755,-10.8862,9.14,-1.33,0.5,2.0
1758089307.48437,1758089297.53167,0.0,0.0,0.0,1.43239,-0.40107,-11.28727,9.14,-1.33,0.5,2.0
1758089307.50007,1758089297.54167,0.0,0.0,0.0,0.34377,-0.85944,-11.51645,9.31,-1.17,0.36,2.0
1758089307.50126,1758089297.55167,0.0,0.0,0.0,-0.45837,-1.03132,-11.86023,9.31,-1.17,0.36,2.0
1758089307.51605,1758089297.56167,0.0,0.0,0.0,-1.60428,-1.03132,-12.14671,9.53,-1.09,0.28,2.0
1758089307.51886,1758089297.57167,0.0,0.0,0.0,-2.63561,-0.80214,-12.37589,9.53,-1.09,0.28,2.0
1758089307.53635,1758089297.58167,0.0,0.0,0.0,-4.0107,-0.11459,-12.71966,9.73,-1.08,0.19,2.0
1758089307.55312,1758089297.59167,0.0,0.0,0.0,-4.87014,0.0,-12.83425,9.87,-1.07,0.15,2.0
1758089307.55401,1758089297.60167,0.0,0.0,0.0,-5.72958,0.11459,-13.12073,9.87,-1.07,0.15,2.0
1758089307.56903,1758089297.61167,0.0,0.0,0.0,-6.47442,-0.0573,-13.23533,9.94,-1.09,0.12,2.0
1758089307.57022,1758089297.62167,0.0,0.0,0.0,-7.50575,-0.68755,-13.80828,9.94,-1.09,0.12,2.0
1758089307.58504,1758089297.63167,0.0,0.0,0.0,-8.25059,-1.20321,-14.15206,9.93,-1.13,0.11,2.0
1758089307.60103,1758089297.64167,0.0,0.0,0.0,-8.59437,-1.83346,-14.49583,9.93,-1.13,0.11,2.0
1758089307.60299,1758089297.65167,0.0,0.0,0.0,-8.88085,-2.40642,-14.83961,9.91,-1.18,0.11,2.0
1758089307.61801,1758089297.66167,0.0,0.0,0.0,-9.28192,-2.6929,-15.12609,9.93,-1.24,0.06,2.0
1758089307.61922,1758089297.67167,0.0,0.0,0.0,-9.4538,-2.00535,-15.24068,9.93,-1.24,0.06,2.0
1758089307.63396,1758089297.68167,0.0,0.0,0.0,-9.5684,-2.11994,-15.0115,9.91,-1.34,0.1,2.0
1758089307.65004,1758089297.69167,0.0,0.0,0.0,-9.85487,-2.63561,-14.9542,9.91,-1.34,0.1,2.0
1758089307.65169,1758089297.70167,0.0,0.0,0.0,-9.96947,-3.55234,-14.78231,9.8,-1.45,0.09,2.0
1758089307.66716,1758089297.71167,0.0,0.0,0.0,-10.25595,-3.95341,-14.61043,9.8,-1.45,0.09,2.0
1758089307.66882,1758089297.72167,0.0,0.0,0.0,-10.31324,-4.18259,-14.09476,10.07,-1.53,0.28,2.0
1758089307.68439,1758089297.73167,0.0,0.0,0.0,-10.94349,-4.0107,-13.00614,10.07,-1.53,0.28,2.0
1758089307.70036,1758089297.74167,0.0,0.0,0.0,-12.14671,-3.72423,-11.86023,10.54,-1.43,0.69,2.0
1758089307.70125,1758089297.75167,0.0,0.0,0.0,-13.40721,-3.49504,-10.65701,11.25,-1.23,1.57,2.0
1758089307.71636,1758089297.76167,0.0,0.0,0.0,-15.12609,-2.92208,-9.05273,11.25,-1.23,1.57,2.0
1758089307.71899,1758089297.77167,0.0,0.0,0.0,-17.93358,-1.3178,-6.35983,12.15,-0.83,2.08,2.0
1758089307.73533,1758089297.78167,0.0,0.0,0.0,-20.34,0.34377,-4.87014,12.15,-0.83,2.08,2.0
1758089307.75128,1758089297.79167,0.0,0.0,0.0,-22.11617,2.34913,-3.95341,12.51,-0.28,2.06,2.0
1758089307.75227,1758089297.80167,0.0,0.0,0.0,-23.20479,2.34913,-4.52637,12.51,-0.28,2.06,2.0
1758089307.76811,1758089297.81167,0.0,0.0,0.0,-22.11617,0.40107,-6.99009,11.5,-0.12,1.63,2.0
1758089307.76906,1758089297.82167,0.0,0.0,0.0,-20.34,-1.94806,-9.4538,10.22,-0.47,1.1,2.0
1758089307.78411,1758089297.83167,0.0,0.0,0.0,-17.58981,-3.32316,-11.80293,10.22,-0.47,1.1,2.0
1758089307.80005,1758089297.84167,0.0,0.0,0.0,-14.49583,-3.49504,-13.69369,9.98,-0.88,0.89,2.0
1758089307.80129,1758089297.85167,0.0,0.0,0.0,-9.68299,-3.83882,-14.49583,9.98,-0.88,0.89,2.0
1758089307.81606,1758089297.86167,0.0,0.0,0.0,-6.7609,-3.60963,-14.20935,9.92,-1.08,0.93,2.0
1758089307.83233,1758089297.87167,0.0,0.0,0.0,-4.18259,-2.86479,-13.34992,9.92,-1.08,0.93,2.0
1758089307.83327,1758089297.88167,0.0,0.0,0.0,-2.06265,-4.18259,-11.63104,9.7,-1.05,1.14,2.0
1758089307.84836,1758089297.89167,0.0,0.0,0.0,-0.80214,-3.55234,-9.33921,9.34,-0.54,1.39,2.0
1758089307.84925,1758089297.90167,0.0,0.0,0.0,-0.97403,-0.51566,-8.59437,9.34,-0.54,1.39,2.0
1758089307.8641,1758089297.91167,0.0,0.0,0.0,-2.34913,-4.64096,-9.11003,9.04,0.18,1.71,2.0
1758089307.88009,1758089297.92167,0.0,0.0,0.0,-5.72958,-10.54242,-11.11538,9.04,0.18,1.71,2.0
1758089307.88128,1758089297.93167,0.0,0.0,0.0,-6.99009,-11.45916,-11.63104,8.95,0.89,1.75,2.0
1758089307.89634,1758089297.94167,0.0,0.0,0.0,-7.67763,-12.2613,-11.51645,8.95,0.89,1.75,2.0
1758089307.91236,1758089297.95167,0.0,0.0,0.0,-8.02141,-12.83425,-11.11538,9.42,1.05,1.91,2.0
1758089307.91324,1758089297.96167,0.0,0.0,0.0,-7.84952,-11.11538,-10.25595,9.42,1.05,1.91,2.0
1758089307.92803,1758089297.97167,0.0,0.0,0.0,-7.67763,-7.67763,-9.96947,9.6,0.95,2.02,2.0
1758089307.92929,1758089297.98167,0.0,0.0,0.0,-7.33386,-2.63561,-10.02676,9.85,0.92,2.07,2.0
1758089307.94416,1758089297.99167,0.0,0.0,0.0,-6.70361,2.11994,-10.25595,9.85,0.92,2.07,2.0
1758089307.96006,1758089298.00167,0.0,0.0,0.0,-5.90147,8.99544,-10.8862,9.97,0.91,2.11,2.0
1758089307.96131,1758089298.01167,0.0,0.0,0.0,-4.98473,11.34457,-11.22997,9.97,0.91,2.11,2.0
1758089307.97606,1758089298.02167,0.0,0.0,0.0,-3.89611,12.14671,-11.22997,9.89,0.82,1.93,2.0
1758089307.99236,1758089298.03167,0.0,0.0,0.0,-2.29183,9.05273,-11.28727,9.89,0.82,1.93,2.0
1758089307.99359,1758089298.04167,0.0,0.0,0.0,-1.48969,0.11459,-11.91752,9.58,0.66,1.62,2.0
1758089308.00836,1758089298.05167,0.0,0.0,0.0,0.85944,-4.18259,-12.89155,9.62,0.59,1.24,2.0
1758089308.00931,1758089298.06167,0.0,0.0,0.0,3.72423,1.20321,-10.54242,9.62,0.59,1.24,2.0
1758089308.0241,1758089298.07167,0.0,0.0,0.0,5.4431,6.24524,-10.08406,11.18,0.43,1.69,2.0
1758089308.04011,1758089298.08167,0.0,0.0,0.0,5.61499,9.05273,-10.37054,11.18,0.43,1.69,2.0
1758089308.04126,1758089298.09167,0.0,0.0,0.0,4.0107,11.00079,-10.59972,10.62,0.71,1.85,2.0
1758089308.05602,1758089298.10167,0.0,0.0,0.0,1.60428,13.23533,-11.00079,10.62,0.71,1.85,2.0
1758089308.072,1758089298.11167,0.0,0.0,0.0,-2.29183,13.69369,-10.65701,10.42,1.19,1.66,2.0
1758089308.07327,1758089298.12167,0.0,0.0,0.0,-4.29718,15.24068,-9.74028,10.17,1.38,1.4,2.0
1758089308.08808,1758089298.13167,0.0,0.0,0.0,-5.84417,16.50119,-8.70896,10.17,1.38,1.4,2.0
1758089308.08924,1758089298.14167,0.0,0.0,0.0,-6.7609,17.53251,-7.79223,10.08,1.21,1.39,2.0
1758089308.10437,1758089298.15167,0.0,0.0,0.0,-6.53172,18.10547,-6.13065,10.08,1.21,1.39,2.0
1758089308.12036,1758089298.16167,0.0,0.0,0.0,-5.4431,17.53251,-4.92744,9.75,0.97,1.27,2.0
1758089308.12159,1758089298.17167,0.0,0.0,0.0,-3.83882,16.3293,-3.49504,9.75,0.97,1.27,2.0
1758089308.13638,1758089298.18167,0.0,0.0,0.0,-2.06265,15.41257,-2.40642,9.47,0.72,1.11,2.0
1758089308.15236,1758089298.19167,0.0,0.0,0.0,0.11459,13.80828,-1.08862,9.36,0.72,1.16,2.0
1758089308.15324,1758089298.20167,0.0,0.0,0.0,1.08862,12.49048,-0.45837,9.36,0.51,1.16,2.0
1758089308.16836,1758089298.21167,0.0,0.0,0.0,1.3751,11.97482,-0.17189,9.32,0.48,1.25,2.0
1758089308.1693,1758089298.22167,0.0,0.0,0.0,1.3178,11.45916,0.22918,9.32,0.48,1.25,2.0
1758089308.18399,1758089298.23167,0.0,0.0,0.0,0.11459,11.86023,0.74485,9.48,0.69,1.23,2.0
1758089308.20008,1758089298.24167,0.0,0.0,0.0,-0.85944,12.14671,1.48969,9.48,0.69,1.23,2.0
1758089308.20128,1758089298.25167,0.0,0.0,0.0,-2.29183,12.89155,2.34913,9.59,0.97,1.16,2.0
1758089308.2161,1758089298.26167,0.0,0.0,0.0,-3.83882,13.23533,3.09397,9.59,0.97,1.16,2.0
1758089308.21918,1758089298.27167,0.0,0.0,0.0,-5.95876,14.78231,4.1253,9.61,1.18,1.04,2.0
1758089308.23508,1758089298.28167,0.0,0.0,0.0,-7.39116,15.69904,5.15662,9.64,1.27,0.94,2.0
1758089308.25116,1758089298.29167,0.0,0.0,0.0,-8.59437,16.90226,5.78687,9.64,1.27,0.94,2.0
1758089308.25228,1758089298.30167,0.0,0.0,0.0,-9.74028,19.99623,6.7609,9.71,1.24,0.87,2.0
1758089308.26732,1758089298.31167,0.0,0.0,0.0,-11.11538,24.80907,7.73493,9.71,1.24,0.87,2.0
1758089308.26827,1758089298.32167,0.0,0.0,0.0,-11.86023,27.50197,8.59437,9.63,1.1,0.74,2.0
1758089308.2844,1758089298.33167,0.0,0.0,0.0,-12.37589,28.93437,9.68299,9.63,1.1,0.74,2.0
1758089308.30002,1758089298.34167,0.0,0.0,0.0,-13.00614,25.15285,11.74564,9.11,0.97,0.69,2.0
1758089308.30123,1758089298.35167,0.0,0.0,0.0,-13.69369,20.97026,12.71966,8.53,0.98,0.39,2.0
1758089308.31605,1758089298.36167,0.0,0.0,0.0,-14.43854,16.61578,13.5218,8.53,0.98,0.39,2.0
1758089308.31809,1758089298.37167,0.0,0.0,0.0,-15.35527,11.57375,14.32395,8.48,1.15,0.05,2.0
1758089308.3341,1758089298.38167,0.0,0.0,0.0,-16.84496,3.26586,15.24068,8.48,1.15,0.05,2.0
1758089308.3501,1758089298.39167,0.0,0.0,0.0,-17.76169,-2.6929,15.46986,8.47,1.31,-0.04,2.0
1758089308.35136,1758089298.40167,0.0,0.0,0.0,-18.90761,-8.93814,15.64175,8.47,1.31,-0.04,2.0
1758089308.36608,1758089298.41167,0.0,0.0,0.0,-20.05352,-14.32395,15.58445,8.68,1.32,0.0,2.0
1758089308.38316,1758089298.42167,0.0,0.0,0.0,-21.7724,-20.85567,15.24068,9.04,1.16,0.0,2.0
1758089308.38408,1758089298.43167,0.0,0.0,0.0,-22.63183,-23.83505,14.78231,9.04,1.16,0.0,2.0
1758089308.3994,1758089298.44167,0.0,0.0,0.0,-23.26209,-26.52795,14.9542,9.31,1.0,0.0,2.0
1758089308.40187,1758089298.45167,0.0,0.0,0.0,-23.83505,-28.24682,14.78231,9.31,1.0,0.0,2.0
1758089308.41788,1758089298.46167,0.0,0.0,0.0,-24.86637,-29.10626,15.29797,9.42,1.0,0.08,2.0
1758089308.41903,1758089298.47167,0.0,0.0,0.0,-25.38203,-28.01764,16.3293,9.42,1.0,0.08,2.0
1758089308.4341,1758089298.48167,0.0,0.0,0.0,-25.61122,-26.47065,17.13144,9.75,1.0,0.57,2.0
1758089308.45036,1758089298.49167,0.0,0.0,0.0,-25.49662,-26.24147,17.93358,9.75,1.0,0.57,2.0
1758089308.45156,1758089298.50167,0.0,0.0,0.0,-24.80907,-33.46074,17.76169,10.29,0.79,1.62,2.0
1758089308.46632,1758089298.51167,0.0,0.0,0.0,-23.94964,-40.45082,17.81899,11.2,0.44,2.85,2.0
1758089308.46831,1758089298.52167,0.0,0.0,0.0,-24.23611,-49.38896,14.20935,11.2,0.44,2.85,2.0
1758089308.48415,1758089298.53167,0.0,0.0,0.0,-21.88699,-52.36834,7.33386,13.07,-0.16,3.2,2.0
1758089308.50009,1758089298.54167,0.0,0.0,0.0,-18.50654,-50.47758,3.55234,13.07,-0.16,3.2,2.0
1758089308.50133,1758089298.55167,0.0,0.0,0.0,-14.72501,-43.60209,0.85944,14.65,-1.46,2.23,2.0
1758089308.51645,1758089298.56167,0.0,0.0,0.0,-11.17268,-35.00772,1.83346,14.65,-1.46,2.23,2.0
1758089308.51815,1758089298.57167,0.0,0.0,0.0,-7.67763,-28.30412,5.90147,13.49,-1.68,1.53,2.0
1758089308.53412,1758089298.58167,0.0,0.0,0.0,-6.41713,-25.49662,8.99544,10.76,-0.7,1.29,2.0
1758089308.55007,1758089298.59167,0.0,0.0,0.0,-5.95876,-24.63719,11.34457,10.76,-0.7,1.29,2.0
1758089308.55158,1758089298.60167,0.0,0.0,0.0,-5.90147,-24.63719,12.54778,9.9,0.0,1.43,2.0
1758089308.56616,1758089298.61167,0.0,0.0,0.0,-6.13065,-26.47065,11.74564,9.9,0.0,1.43,2.0
1758089308.5821,1758089298.62167,0.0,0.0,0.0,-6.53172,-27.50197,9.91217,9.76,0.12,1.77,2.0
1758089308.58358,1758089298.63167,0.0,0.0,0.0,-7.44845,-27.78845,7.67763,9.76,0.12,1.77,2.0
1758089308.59812,1758089298.64167,0.0,0.0,0.0,-8.47978,-26.52795,4.58366,9.47,-0.21,1.86,2.0
1758089308.59926,1758089298.65167,0.0,0.0,0.0,-9.5684,-17.53251,2.23454,9.49,-0.79,1.89,2.0
1758089308.61414,1758089298.66167,0.0,0.0,0.0,-10.48513,-12.49048,1.43239,9.49,-0.79,1.89,2.0
1758089308.63011,1758089298.67167,0.0,0.0,0.0,-10.31324,-12.83425,2.6929,8.73,-1.47,2.2,2.0
1758089308.63212,1758089298.68167,0.0,0.0,0.0,-11.11538,-34.60666,1.43239,8.73,-1.47,2.2,2.0
1758089308.64711,1758089298.69167,0.0,0.0,0.0,-11.28727,-58.04062,0.85944,6.71,-1.86,1.6,2.0
1758089308.64834,1758089298.70167,0.0,0.0,0.0,-11.00079,-55.06125,2.63561,6.71,-1.86,1.6,2.0
1758089308.6641,1758089298.71167,0.0,0.0,0.0,-9.91217,-26.52795,5.55769,10.68,-2.16,0.71,2.0
1758089308.6804,1758089298.72167,0.0,0.0,0.0,-14.15206,4.87014,4.18259,10.68,-2.16,0.71,2.0
1758089308.68135,1758089298.73167,0.0,0.0,0.0,-13.17803,10.65701,5.61499,12.41,-2.15,1.93,2.0
1758089308.69615,1758089298.74167,0.0,0.0,0.0,-11.28727,13.40721,6.13065,9.84,-1.97,2.08,2.0
1758089308.71213,1758089298.75167,0.0,0.0,0.0,-7.44845,17.53251,7.84952,9.84,-1.97,2.08,2.0
1758089308.71331,1758089298.76167,0.0,0.0,0.0,-0.45837,18.90761,10.08406,10.19,-2.15,0.47,2.0
1758089308.7284,1758089298.77167,0.0,0.0,0.0,3.38045,17.58981,10.54242,10.19,-2.15,0.47,2.0
1758089308.72933,1758089298.78167,0.0,0.0,0.0,5.90147,16.73037,9.96947,10.06,-2.19,0.75,2.0
1758089308.74438,1758089298.79167,0.0,0.0,0.0,7.67763,17.24603,9.11003,10.06,-2.19,0.75,2.0
1758089308.76042,1758089298.80167,0.0,0.0,0.0,8.93814,19.13679,7.84952,10.34,-1.92,0.99,2.0
1758089308.76132,1758089298.81167,0.0,0.0,0.0,8.65166,18.44924,6.99009,9.97,-1.59,1.12,2.0
1758089308.77602,1758089298.82167,0.0,0.0,0.0,7.84952,17.13144,5.95876,9.97,-1.59,1.12,2.0
1758089308.7924,1758089298.83167,0.0,0.0,0.0,6.99009,15.87093,5.27121,9.58,-1.24,0.97,2.0
1758089308.79334,1758089298.84167,0.0,0.0,0.0,5.4431,14.03747,4.35448,9.58,-1.24,0.97,2.0
1758089308.80827,1758089298.85167,0.0,0.0,0.0,4.46907,11.74564,3.72423,9.38,-1.15,0.93,2.0
1758089308.81018,1758089298.86167,0.0,0.0,0.0,4.0107,9.28192,3.60963,9.38,-1.15,0.93,2.0
1758089308.82538,1758089298.87167,0.0,0.0,0.0,4.0107,6.53172,3.32316,9.13,-1.29,0.96,2.0
1758089308.84137,1758089298.88167,0.0,0.0,0.0,5.61499,2.40642,3.49504,9.06,-1.56,0.91,2.0
1758089308.84267,1758089298.89167,0.0,0.0,0.0,7.33386,-0.22918,3.72423,9.06,-1.56,0.91,2.0
1758089308.85795,1758089298.90167,0.0,0.0,0.0,9.68299,-1.94806,4.23989,9.24,-1.8,0.89,2.0
1758089308.85942,1758089298.91167,0.0,0.0,0.0,12.08941,-4.1253,4.98473,9.24,-1.8,0.89,2.0
1758089308.87417,1758089298.92167,0.0,0.0,0.0,15.29797,-6.18794,5.4431,9.38,-1.95,0.85,2.0
1758089308.89006,1758089298.93167,0.0,0.0,0.0,16.84496,-7.33386,5.4431,9.38,-1.95,0.85,2.0
1758089308.89127,1758089298.94167,0.0,0.0,0.0,17.87628,-8.30789,5.32851,9.46,-1.86,0.89,2.0
1758089308.90612,1758089298.95167,0.0,0.0,0.0,18.56383,-8.136,4.52637,9.46,-1.86,0.89,2.0
1758089308.92216,1758089298.96167,0.0,0.0,0.0,18.56383,-7.67763,3.55234,9.58,-1.6,0.84,2.0
1758089308.92331,1758089298.97167,0.0,0.0,0.0,17.99088,-7.79223,2.40642,9.55,-1.3,0.79,2.0
1758089308.93817,1758089298.98167,0.0,0.0,0.0,17.53251,-7.84952,1.14592,9.55,-1.3,0.79,2.0
1758089308.93937,1758089298.99167,0.0,0.0,0.0,16.61578,-6.8182,-0.34377,9.57,-1.12,0.7,2.0
1758089308.95417,1758089299.00167,0.0,0.0,0.0,16.21471,-5.27121,-0.85944,9.57,-1.12,0.7,2.0
1758089308.97017,1758089299.01167,0.0,0.0,0.0,15.92823,-3.38045,-1.43239,9.71,-1.1,0.65,2.0
1758089308.97134,1758089299.02167,0.0,0.0,0.0,15.64175,-0.85944,-1.48969,9.71,-1.1,0.65,2.0
1758089308.98618,1758089299.03167,0.0,0.0,0.0,15.35527,2.34913,-1.83346,9.86,-1.17,0.73,2.0
1758089309.00214,1758089299.04167,0.0,0.0,0.0,15.29797,4.87014,-2.29183,10.03,-1.2,0.7,2.0
1758089309.00326,1758089299.05167,0.0,0.0,0.0,15.35527,8.65166,-2.57831,10.03,-1.2,0.7,2.0
1758089309.01804,1758089299.06167,0.0,0.0,0.0,15.75634,11.80293,-2.7502,10.22,-1.18,0.64,2.0
1758089309.01928,1758089299.07167,0.0,0.0,0.0,16.10011,14.20935,-3.38045,10.22,-1.18,0.64,2.0
1758089309.03413,1758089299.08167,0.0,0.0,0.0,16.55848,15.46986,-3.95341,9.99,-1.11,0.61,2.0
1758089309.05045,1758089299.09167,0.0,0.0,0.0,17.01685,16.38659,-4.81285,9.99,-1.11,0.61,2.0
1758089309.05132,1758089299.10167,0.0,0.0,0.0,17.53251,17.58981,-5.50039,9.98,-1.08,0.57,2.0
1758089309.06605,1758089299.11167,0.0,0.0,0.0,18.44924,18.62113,-6.24524,9.88,-1.15,0.57,2.0
1758089309.06808,1758089299.12167,0.0,0.0,0.0,18.9649,18.10547,-6.87549,9.88,-1.15,0.57,2.0
1758089309.08419,1758089299.13167,0.0,0.0,0.0,19.59516,17.53251,-7.21927,9.62,-1.24,0.61,2.0
1758089309.10042,1758089299.14167,0.0,0.0,0.0,20.3973,16.21471,-7.67763,9.62,-1.24,0.61,2.0
1758089309.10138,1758089299.15167,0.0,0.0,0.0,20.22541,12.89155,-8.02141,9.44,-1.25,0.48,2.0
1758089309.11618,1758089299.16167,0.0,0.0,0.0,19.42327,9.96947,-8.88085,9.44,-1.25,0.48,2.0
1758089309.11819,1758089299.17167,0.0,0.0,0.0,18.62113,8.25059,-9.39651,9.3,-1.14,0.4,2.0
1758089309.13417,1758089299.18167,0.0,0.0,0.0,17.30333,5.55769,-10.31324,9.3,-1.14,0.4,2.0
1758089309.15015,1758089299.19167,0.0,0.0,0.0,17.18874,6.87549,-10.65701,9.41,-1.02,0.28,2.0
1758089309.15136,1758089299.20167,0.0,0.0,0.0,17.76169,14.43854,-10.59972,10.17,-1.03,0.4,2.0
1758089309.16618,1758089299.21167,0.0,0.0,0.0,18.33465,24.80907,-10.71431,10.17,-1.03,0.4,2.0
1758089309.18217,1758089299.22167,0.0,0.0,0.0,18.85031,32.14294,-11.80293,10.46,-1.05,1.04,2.0
1758089309.18378,1758089299.23167,0.0,0.0,0.0,18.90761,31.45539,-12.71966,10.46,-1.05,1.04,2.0
1758089309.19815,1758089299.24167,0.0,0.0,0.0,20.62648,22.34536,-13.46451,9.23,-0.9,0.91,2.0
1758089309.19933,1758089299.25167,0.0,0.0,0.0,19.99623,4.46907,-15.69904,9.23,-0.9,0.91,2.0
1758089309.21438,1758089299.26167,0.0,0.0,0.0,24.75178,-13.98017,-10.08406,7.86,-0.94,-0.34,2.0
1758089309.23018,1758089299.27167,0.0,0.0,0.0,25.7831,-9.96947,-8.42248,10.23,-1.15,-0.56,2.0
1758089309.23218,1758089299.28167,0.0,0.0,0.0,25.49662,-6.8182,-8.136,10.23,-1.15,-0.56,2.0
1758089309.2482,1758089299.29167,0.0,0.0,0.0,24.98096,-6.53172,-8.70896,9.7,-0.99,-0.01,2.0
1758089309.24917,1758089299.30167,0.0,0.0,0.0,22.05888,-3.89611,-9.96947,9.7,-0.99,-0.01,2.0
1758089309.26418,1758089299.31167,0.0,0.0,0.0,19.19409,-0.34377,-10.8862,9.86,-0.68,0.75,2.0
1758089309.28021,1758089299.32167,0.0,0.0,0.0,16.55848,2.23454,-12.08941,9.86,-0.68,0.75,2.0
1758089309.28137,1758089299.33167,0.0,0.0,0.0,14.61043,4.29718,-13.12073,10.0,-0.24,0.17,2.0
1758089309.29672,1758089299.34167,0.0,0.0,0.0,12.49048,6.24524,-13.17803,9.97,0.02,0.11,2.0
1758089309.29842,1758089299.35167,0.0,0.0,0.0,11.80293,6.07335,-13.06344,9.97,0.02,0.11,2.0
1758089309.31419,1758089299.36167,0.0,0.0,0.0,10.94349,5.09932,-12.83425,9.89,-0.02,0.45,2.0
1758089309.33198,1758089299.37167,0.0,0.0,0.0,9.11003,3.03668,-12.37589,9.89,-0.02,0.45,2.0
1758089309.33347,1758089299.38167,0.0,0.0,0.0,6.7609,1.66158,-12.54778,10.19,0.0,1.15,2.0
1758089309.34846,1758089299.39167,0.0,0.0,0.0,3.83882,-0.80214,-11.97482,10.19,0.0,1.15,2.0
1758089309.34939,1758089299.40167,0.0,0.0,0.0,0.40107,-5.61499,-11.28727,11.24,0.19,2.0,2.0
1758089309.36447,1758089299.41167,0.0,0.0,0.0,-5.72958,-11.28727,-8.88085,12.65,0.19,2.22,2.0
1758089309.38093,1758089299.42167,0.0,0.0,0.0,-10.19865,-10.59972,-7.16197,12.65,0.17,2.22,2.0
1758089309.38209,1758089299.43167,0.0,0.0,0.0,-14.43854,-8.76626,-6.53172,13.82,0.25,1.56,2.0
1758089309.39798,1758089299.44167,0.0,0.0,0.0,-18.22006,-6.41713,-7.39116,13.82,0.25,1.56,2.0
1758089309.39944,1758089299.45167,0.0,0.0,0.0,-22.11617,-4.23989,-10.8862,12.54,0.02,0.88,2.0
1758089309.4147,1758089299.46167,0.0,0.0,0.0,-23.0329,-4.1253,-13.12073,12.54,0.02,0.88,2.0
1758089309.43018,1758089299.47167,0.0,0.0,0.0,-22.91831,-3.49504,-14.38124,10.36,-0.31,0.29,2.0
1758089309.43213,1758089299.48167,0.0,0.0,0.0,-22.05888,-2.00535,-15.06879,10.36,-0.31,0.29,2.0
1758089309.44744,1758089299.49167,0.0,0.0,0.0,-19.76705,-0.11459,-14.66772,9.37,-0.57,0.27,2.0
1758089309.44836,1758089299.50167,0.0,0.0,0.0,-17.87628,-0.22918,-13.80828,8.81,-0.76,0.46,2.0
1758089309.46443,1758089299.51167,0.0,0.0,0.0,-16.04282,-1.43239,-13.23533,8.81,-0.76,0.46,2.0
1758089309.48052,1758089299.52167,0.0,0.0,0.0,-14.32395,-3.38045,-12.83425,8.18,-0.57,0.65,2.0
1758089309.48137,1758089299.53167,0.0,0.0,0.0,-12.60507,-7.39116,-12.60507,8.18,-0.57,0.65,2.0
1758089309.49619,1758089299.54167,0.0,0.0,0.0,-11.86023,-10.71431,-12.54778,7.78,-0.2,0.84,2.0
1758089309.49811,1758089299.55167,0.0,0.0,0.0,-11.57375,-14.49583,-11.80293,7.78,-0.2,0.84,2.0
1758089309.51418,1758089299.56167,0.0,0.0,0.0,-11.63104,-21.02755,-10.65701,7.82,-0.13,1.29,2.0
1758089309.53021,1758089299.57167,0.0,0.0,0.0,-12.14671,-24.92367,-9.5684,8.36,-0.16,1.92,2.0
1758089309.53138,1758089299.58167,0.0,0.0,0.0,-12.77696,-28.01764,-8.47978,8.36,-0.16,1.92,2.0
1758089309.54616,1758089299.59167,0.0,0.0,0.0,-13.5791,-29.9084,-7.33386,9.28,-0.04,2.37,2.0
1758089309.5622,1758089299.60167,0.0,0.0,0.0,-14.83961,-30.76784,-5.78687,9.28,-0.04,2.37,2.0
1758089309.5634,1758089299.61167,0.0,0.0,0.0,-16.10011,-29.56462,-4.87014,10.17,0.28,2.46,2.0
1758089309.5782,1758089299.62167,0.0,0.0,0.0,-17.18874,-26.81443,-3.95341,10.17,0.28,2.46,2.0
1758089309.57942,1758089299.63167,0.0,0.0,0.0,-18.27736,-22.51724,-3.26586,10.99,0.56,2.16,2.0
1758089309.59418,1758089299.64167,0.0,0.0,0.0,-19.25138,-14.72501,-1.83346,11.55,0.62,1.74,2.0
1758089309.61019,1758089299.65167,0.0,0.0,0.0,-19.82434,-7.84952,-0.57296,11.55,0.62,1.74,2.0
1758089309.61378,1758089299.66167,0.0,0.0,0.0,-19.53786,-2.6929,-0.45837,11.76,0.51,1.3,2.0
1758089309.62968,1758089299.67167,0.0,0.0,0.0,-19.53786,2.97938,-0.34377,11.76,0.51,1.3,2.0
1758089309.6304,1758089299.68167,0.0,0.0,0.0,-19.48057,8.88085,-0.34377,11.5,0.42,1.16,2.0
1758089309.64523,1758089299.69167,0.0,0.0,0.0,-19.19409,12.37589,-0.22918,11.5,0.42,1.16,2.0
1758089309.6612,1758089299.70167,0.0,0.0,0.0,-18.56383,14.61043,-0.68755,10.88,0.59,1.1,2.0
1758089309.66399,1758089299.71167,0.0,0.0,0.0,-18.16276,15.87093,-0.80214,10.88,0.59,1.1,2.0
1758089309.67926,1758089299.72167,0.0,0.0,0.0,-17.24603,15.41257,-1.14592,10.35,0.75,1.44,2.0
1758089309.68382,1758089299.73167,0.0,0.0,0.0,-16.95955,14.66772,-1.48969,9.92,0.89,1.51,2.0
1758089309.69945,1758089299.74167,0.0,0.0,0.0,-16.73037,13.98017,-1.77617,9.92,0.89,1.51,2.0
1758089309.70126,1758089299.75167,0.0,0.0,0.0,-16.73037,13.75099,-2.46372,9.66,1.04,1.45,2.0
1758089309.71646,1758089299.76167,0.0,0.0,0.0,-16.95955,14.9542,-3.32316,9.66,1.04,1.45,2.0
1758089309.71894,1758089299.77167,0.0,0.0,0.0,-17.47521,15.12609,-4.52637,9.43,1.04,1.32,2.0
1758089309.73537,1758089299.78167,0.0,0.0,0.0,-17.76169,14.38124,-5.32851,9.43,1.04,1.32,2.0
1758089309.75133,1758089299.79167,0.0,0.0,0.0,-18.27736,14.03747,-5.55769,9.11,0.9,1.05,2.0
1758089309.75311,1758089299.80167,0.0,0.0,0.0,-18.85031,14.49583,-5.50039,9.39,0.61,0.94,2.0
1758089309.76823,1758089299.81167,0.0,0.0,0.0,-19.19409,15.24068,-4.98473,9.39,0.61,0.94,2.0
1758089309.76941,1758089299.82167,0.0,0.0,0.0,-19.53786,15.92823,-4.46907,9.68,0.32,0.9,2.0
1758089309.78418,1758089299.83167,0.0,0.0,0.0,-20.16812,17.01685,-3.60963,9.68,0.32,0.9,2.0
1758089309.80044,1758089299.84167,0.0,0.0,0.0,-20.68378,17.53251,-2.86479,9.84,0.17,0.92,2.0
1758089309.80141,1758089299.85167,0.0,0.0,0.0,-21.31403,18.10547,-2.34913,9.84,0.17,0.92,2.0
1758089309.81649,1758089299.86167,0.0,0.0,0.0,-21.88699,18.62113,-2.06265,9.96,0.25,0.9,2.0
1758089309.81823,1758089299.87167,0.0,0.0,0.0,-23.0902,18.9649,-1.83346,10.01,0.47,0.88,2.0
1758089309.83416,1758089299.88167,0.0,0.0,0.0,-23.72045,19.07949,-1.83346,10.01,0.47,0.88,2.0
1758089309.85018,1758089299.89167,0.0,0.0,0.0,-24.29341,18.90761,-1.71887,9.96,0.69,0.87,2.0
1758089309.85141,1758089299.90167,0.0,0.0,0.0,-24.92367,19.07949,-1.94806,9.96,0.69,0.87,2.0
1758089309.86611,1758089299.91167,0.0,0.0,0.0,-25.49662,17.99088,-2.06265,9.88,0.78,0.82,2.0
1758089309.86948,1758089299.92167,0.0,0.0,0.0,-25.72581,17.93358,-2.29183,9.88,0.78,0.82,2.0
1758089309.88549,1758089299.93167,0.0,0.0,0.0,-25.61122,19.76705,-1.94806,9.75,0.76,0.56,2.0
1758089309.90308,1758089299.94167,0.0,0.0,0.0,-25.49662,23.26209,-0.74485,9.75,0.76,0.56,2.0
1758089309.90425,1758089299.95167,0.0,0.0,0.0,-25.38203,27.04361,0.34377,9.74,0.63,0.47,2.0
1758089309.91919,1758089299.96167,0.0,0.0,0.0,-25.49662,25.8404,1.48969,9.18,0.58,0.58,2.0
1758089309.92038,1758089299.97167,0.0,0.0,0.0,-25.89769,21.02755,2.57831,9.18,0.58,0.58,2.0
1758089309.93627,1758089299.98167,0.0,0.0,0.0,-27.44468,11.57375,4.18259,8.69,0.62,0.22,2.0
1758089309.93913,1758089299.99167,0.0,0.0,0.0,-29.22085,6.13065,4.58366,8.69,0.62,0.22,2.0
1758089309.95452,1758089300.00167,0.0,0.0,0.0,-31.45539,0.85944,5.09932,8.86,0.73,-0.25,2.0
1758089309.97127,1758089300.01167,0.0,0.0,0.0,-33.63263,-4.87014,5.21392,8.86,0.73,-0.25,2.0
1758089309.97243,1758089300.02167,0.0,0.0,0.0,-37.18496,-15.24068,5.55769,8.9,0.81,-0.48,2.0
1758089309.9871,1758089300.03167,0.0,0.0,0.0,-39.01843,-21.37133,6.18794,9.01,0.74,-0.5,2.0
1758089309.98835,1758089300.04167,0.0,0.0,0.0,-40.16434,-26.06958,6.41713,9.01,0.74,-0.5,2.0
1758089310.00427,1758089300.05167,0.0,0.0,0.0,-40.7946,-28.41871,6.07335,9.51,0.78,-0.49,2.0
1758089310.02225,1758089300.06167,0.0,0.0,0.0,-40.96649,-30.13758,6.35983,9.51,0.78,-0.49,2.0
1758089310.02341,1758089300.07167,0.0,0.0,0.0,-41.13837,-29.22085,6.58902,9.79,0.73,-0.33,2.0
1758089310.03824,1758089300.08167,0.0,0.0,0.0,-40.7373,-27.33009,7.33386,9.79,0.73,-0.33,2.0
1758089310.03955,1758089300.09167,0.0,0.0,0.0,-41.08107,-26.12688,8.02141,9.87,0.75,-0.11,2.0
1758089310.05457,1758089300.10167,0.0,0.0,0.0,-42.1124,-29.50733,8.70896,9.64,0.97,0.44,2.0
1758089310.07284,1758089300.11167,0.0,0.0,0.0,-43.54479,-29.62192,8.0787,9.64,0.97,0.44,2.0
1758089310.07437,1758089300.12167,0.0,0.0,0.0,-45.20637,-27.96034,4.58366,10.96,1.32,1.57,2.0
1758089310.08924,1758089300.13167,0.0,0.0,0.0,-44.748,-30.48136,2.63561,10.96,1.32,1.57,2.0
1758089310.09285,1758089300.14167,0.0,0.0,0.0,-42.05511,-33.74722,-1.20321,12.56,0.56,2.99,2.0
1758089310.10811,1758089300.15167,0.0,0.0,0.0,-39.19032,-29.96569,-3.72423,12.56,0.56,2.99,2.0
1758089310.10944,1758089300.16167,0.0,0.0,0.0,-35.86716,-24.86637,-5.27121,14.16,-1.15,2.41,2.0
1758089310.12423,1758089300.17167,0.0,0.0,0.0,-29.33544,-13.75099,-5.32851,14.16,-1.15,2.41,2.0
1758089310.14362,1758089300.18167,0.0,0.0,0.0,-25.89769,-9.91217,-4.52637,12.29,-2.06,1.43,2.0
1758089310.14562,1758089300.19167,0.0,0.0,0.0,-22.91831,-6.24524,-2.00535,9.79,-1.73,1.18,2.0
1758089310.16129,1758089300.20167,0.0,0.0,0.0,-21.08485,-4.29718,1.20321,9.79,-1.73,1.18,2.0
1758089310.16412,1758089300.21167,0.0,0.0,0.0,-20.05352,-4.64096,5.32851,9.6,-0.84,1.13,2.0
1758089310.17949,1758089300.22167,0.0,0.0,0.0,-20.3973,-5.27121,6.58902,9.6,-0.84,1.13,2.0
1758089310.18123,1758089300.23167,0.0,0.0,0.0,-21.48592,-6.47442,6.35983,10.06,0.1,1.15,2.0
1758089310.19855,1758089300.24167,0.0,0.0,0.0,-23.31938,-7.16197,4.69825,10.06,0.1,1.15,2.0
1758089310.19944,1758089300.25167,0.0,0.0,0.0,-26.41335,-7.84952,1.43239,9.82,0.54,1.24,2.0
1758089310.21424,1758089300.26167,0.0,0.0,0.0,-28.64789,-8.99544,-0.74485,9.15,0.29,1.59,2.0
1758089310.23162,1758089300.27167,0.0,0.0,0.0,-30.82513,-10.48513,-2.6929,9.15,0.29,1.59,2.0
1758089310.23246,1758089300.28167,0.0,0.0,0.0,-32.54401,-12.14671,-3.72423,8.49,-0.3,1.77,2.0
1758089310.24718,1758089300.29167,0.0,0.0,0.0,-35.06502,-14.20935,-3.66693,8.49,-0.3,1.77,2.0
1758089310.24838,1758089300.30167,0.0,0.0,0.0,-36.26823,-14.66772,-2.6929,8.6,-0.9,1.78,2.0
1758089310.26427,1758089300.31167,0.0,0.0,0.0,-37.35685,-14.66772,-1.3178,8.6,-0.9,1.78,2.0
1758089310.28309,1758089300.32167,0.0,0.0,0.0,-38.21629,-13.80828,0.0573,9.15,-1.3,1.71,2.0
1758089310.28426,1758089300.33167,0.0,0.0,0.0,-38.56006,-11.63104,2.29183,9.68,-1.52,1.61,2.0
1758089310.28896,1758089300.34167,0.0,0.0,0.0,-38.27358,-9.4538,3.49504,9.68,-1.52,1.61,2.0
1758089310.30451,1758089300.35167,0.0,0.0,0.0,-37.92981,-6.7609,4.46907,10.1,-1.58,1.45,2.0
1758089310.32145,1758089300.36167,0.0,0.0,0.0,-36.84119,-3.66693,4.81285,10.1,-1.58,1.45,2.0
1758089310.32407,1758089300.37167,0.0,0.0,0.0,-35.63798,1.08862,4.64096,10.48,-1.58,1.25,2.0
1758089310.3393,1758089300.38167,0.0,0.0,0.0,-34.49206,5.27121,4.35448,10.48,-1.58,1.25,2.0
1758089310.34363,1758089300.39167,0.0,0.0,0.0,-32.77319,9.33921,4.0107,10.92,-1.62,1.01,2.0
1758089310.35917,1758089300.40167,0.0,0.0,0.0,-30.48136,15.35527,3.55234,10.92,-1.62,1.01,2.0
1758089310.36291,1758089300.41167,0.0,0.0,0.0,-29.27814,18.90761,3.49504,11.03,-1.69,0.88,2.0
1758089310.37826,1758089300.42167,0.0,0.0,0.0,-28.30412,21.25674,3.32316,10.6,-1.82,0.94,2.0
1758089310.37947,1758089300.43167,0.0,0.0,0.0,-27.67386,21.94428,3.60963,10.6,-1.82,0.94,2.0
1758089310.39429,1758089300.44167,0.0,0.0,0.0,-27.04361,21.94428,4.0107,10.06,-1.86,0.81,2.0
1758089310.41132,1758089300.45167,0.0,0.0,0.0,-26.64254,21.42862,4.23989,10.06,-1.86,0.81,2.0
1758089310.4135,1758089300.46167,0.0,0.0,0.0,-26.24147,20.45459,4.52637,9.89,-1.82,0.76,2.0
1758089310.42723,1758089300.47167,0.0,0.0,0.0,-25.7831,19.42327,4.35448,9.89,-1.82,0.76,2.0
1758089310.42924,1758089300.48167,0.0,0.0,0.0,-25.38203,18.56383,4.35448,9.78,-1.69,0.77,2.0
1758089310.44881,1758089300.49167,0.0,0.0,0.0,-24.98096,18.27736,4.23989,9.66,-1.52,0.81,2.0
1758089310.45228,1758089300.50167,0.0,0.0,0.0,-24.80907,17.30333,3.66693,9.66,-1.52,0.81,2.0
1758089310.46731,1758089300.51167,0.0,0.0,0.0,-24.57989,16.04282,3.09397,9.3,-1.38,0.78,2.0
1758089310.46878,1758089300.52167,0.0,0.0,0.0,-24.29341,13.34992,2.23454,9.3,-1.38,0.78,2.0
1758089310.48464,1758089300.53167,0.0,0.0,0.0,-23.94964,11.63104,1.60428,9.11,-1.29,0.71,2.0
1758089310.50115,1758089300.54167,0.0,0.0,0.0,-23.49127,9.5684,1.3751,9.11,-1.29,0.71,2.0
1758089310.50397,1758089300.55167,0.0,0.0,0.0,-22.97561,7.67763,1.14592,9.1,-1.29,0.66,2.0
1758089310.51926,1758089300.56167,0.0,0.0,0.0,-21.88699,4.29718,1.3178,9.1,-1.41,0.65,2.0
1758089310.52322,1758089300.57167,0.0,0.0,0.0,-21.02755,2.6929,1.3751,9.1,-1.41,0.65,2.0
1758089310.53829,1758089300.58167,0.0,0.0,0.0,-19.99623,1.48969,1.20321,9.29,-1.61,0.62,2.0
1758089310.54021,1758089300.59167,0.0,0.0,0.0,-18.44924,2.00535,0.85944,9.29,-1.61,0.62,2.0
1758089310.55531,1758089300.60167,0.0,0.0,0.0,-17.24603,5.15662,0.68755,9.69,-1.73,0.66,2.0
1758089310.57151,1758089300.61167,0.0,0.0,0.0,-16.21471,9.62569,0.11459,9.69,-1.73,0.66,2.0
1758089310.57328,1758089300.62167,0.0,0.0,0.0,-15.24068,13.69369,-0.11459,10.12,-1.77,0.83,2.0
1758089310.58839,1758089300.63167,0.0,0.0,0.0,-13.46451,16.55848,-0.40107,10.12,-1.77,0.86,2.0
1758089310.58953,1758089300.64167,0.0,0.0,0.0,-12.204,15.69904,-0.40107,10.02,-1.75,0.86,2.0
1758089310.60425,1758089300.65167,0.0,0.0,0.0,-10.71431,14.20935,-0.68755,9.73,-1.74,0.63,2.0
1758089310.60942,1758089300.66167,0.0,0.0,0.0,-9.28192,12.37589,-0.97403,9.73,-1.74,0.63,2.0
1758089310.6242,1758089300.67167,0.0,0.0,0.0,-7.10468,8.99544,-1.94806,9.59,-1.77,0.36,2.0
1758089310.643,1758089300.68167,0.0,0.0,0.0,-5.72958,6.13065,-2.92208,9.59,-1.77,0.36,2.0
1758089310.64425,1758089300.69167,0.0,0.0,0.0,-4.58366,3.60963,-3.72423,9.34,-1.77,0.3,2.0
1758089310.6595,1758089300.70167,0.0,0.0,0.0,-3.95341,2.00535,-5.27121,9.34,-1.77,0.3,2.0
1758089310.66367,1758089300.71167,0.0,0.0,0.0,-2.6929,-6.41713,-6.70361,9.06,-1.69,0.19,2.0
1758089310.67931,1758089300.72167,0.0,0.0,0.0,-2.00535,-11.57375,-6.47442,8.67,-1.49,-0.16,2.0
1758089310.68124,1758089300.73167,0.0,0.0,0.0,-1.20321,-14.03747,-7.44845,8.67,-1.49,-0.16,2.0
1758089310.69654,1758089300.74167,0.0,0.0,0.0,0.22918,-11.86023,-8.0787,9.31,-1.49,-0.38,2.0
1758089310.6983,1758089300.75167,0.0,0.0,0.0,2.86479,-0.11459,-8.30789,9.31,-1.49,-0.38,2.0
1758089310.7143,1758089300.76167,0.0,0.0,0.0,4.0107,7.73493,-8.93814,10.24,-1.63,0.23,2.0
1758089310.73298,1758089300.77167,0.0,0.0,0.0,5.09932,11.86023,-9.96947,10.24,-1.63,0.23,2.0
1758089310.73404,1758089300.78167,0.0,0.0,0.0,7.79223,5.61499,-11.34457,9.81,-1.58,0.66,2.0
1758089310.74917,1758089300.79167,0.0,0.0,0.0,8.70896,-9.05273,-15.24068,8.2,-1.55,-0.05,2.0
1758089310.75364,1758089300.80167,0.0,0.0,0.0,12.89155,-31.56997,-12.54778,8.2,-1.55,-0.05,2.0
1758089310.76953,1758089300.81167,0.0,0.0,0.0,17.13144,-41.48215,-8.65166,8.52,-1.87,-0.98,2.0
1758089310.77287,1758089300.82167,0.0,0.0,0.0,20.97026,-30.13758,-4.87014,8.52,-1.87,-0.98,2.0
1758089310.7891,1758089300.83167,0.0,0.0,0.0,21.6578,-23.54857,-4.29718,11.05,-2.26,-0.12,2.0
1758089310.79348,1758089300.84167,0.0,0.0,0.0,20.45459,-19.53786,-5.21392,11.05,-2.26,-0.12,2.0
1758089310.80852,1758089300.85167,0.0,0.0,0.0,17.6471,-15.69904,-6.87549,10.35,-2.17,1.34,2.0
1758089310.80949,1758089300.86167,0.0,0.0,0.0,12.54778,-11.34457,-10.19865,10.75,-1.31,1.42,2.0
1758089310.82733,1758089300.87167,0.0,0.0,0.0,9.68299,-10.48513,-11.86023,10.75,-1.31,1.42,2.0
1758089310.82848,1758089300.88167,0.0,0.0,0.0,7.96411,-10.48513,-12.54778,11.14,-0.66,1.21,2.0
1758089310.84448,1758089300.89167,0.0,0.0,0.0,6.8182,-9.4538,-11.45916,11.14,-0.66,1.21,2.0
1758089310.86282,1758089300.90167,0.0,0.0,0.0,4.92744,-7.79223,-8.136,12.79,-0.32,1.52,2.0
1758089310.864,1758089300.91167,0.0,0.0,0.0,2.92208,-6.70361,-6.35983,12.79,-0.32,1.52,2.0
1758089310.87955,1758089300.92167,0.0,0.0,0.0,0.74485,-6.70361,-5.61499,13.59,0.2,1.58,2.0
1758089310.88125,1758089300.93167,0.0,0.0,0.0,-0.80214,-8.02141,-6.18794,13.59,0.2,1.58,2.0
1758089310.89829,1758089300.94167,0.0,0.0,0.0,-1.3178,-10.25595,-8.99544,12.43,0.11,1.05,2.0
1758089310.90198,1758089300.95167,0.0,0.0,0.0,-0.68755,-11.11538,-11.17268,10.71,-0.34,0.62,2.0
1758089310.91825,1758089300.96167,0.0,0.0,0.0,0.85944,-12.77696,-13.17803,10.71,-0.34,0.62,2.0
1758089310.91956,1758089300.97167,0.0,0.0,0.0,4.52637,-14.49583,-15.12609,9.45,-0.75,0.83,2.0
1758089310.93426,1758089300.98167,0.0,0.0,0.0,7.84952,-17.6471,-15.58445,9.45,-0.75,0.83,2.0
1758089310.9537,1758089300.99167,0.0,0.0,0.0,11.00079,-20.11082,-15.69904,8.71,-0.9,1.13,2.0
1758089310.98352,1758089301.00167,0.0,0.0,0.0,14.09476,-21.7724,-15.69904,8.71,-0.9,1.13,2.0
1758089310.98415,1758089301.01167,0.0,0.0,0.0,18.33465,-23.0902,-15.0115,8.26,-0.71,1.49,2.0
1758089310.98941,1758089301.02167,0.0,0.0,0.0,20.79837,-23.37668,-14.61043,8.09,-0.27,1.82,2.0
1758089310.99327,1758089301.03167,0.0,0.0,0.0,22.74642,-22.91831,-13.5791,8.09,-0.27,1.82,2.0
1758089310.99472,1758089301.04167,0.0,0.0,0.0,23.60586,-21.7724,-12.60507,8.46,0.31,1.98,2.0
1758089311.00927,1758089301.05167,0.0,0.0,0.0,23.37668,-18.9649,-10.59972,8.46,0.31,1.98,2.0
1758089311.01206,1758089301.06167,0.0,0.0,0.0,21.7724,-16.55848,-9.11003,9.26,0.9,1.87,2.0
1758089311.02752,1758089301.07167,0.0,0.0,0.0,19.25138,-13.5218,-7.73493,9.26,0.9,1.87,2.0
1758089311.02846,1758089301.08167,0.0,0.0,0.0,15.92823,-9.11003,-6.70361,10.22,1.34,1.58,2.0
1758089311.04449,1758089301.09167,0.0,0.0,0.0,10.02676,-0.97403,-5.15662,11.02,1.59,1.08,2.0
1758089311.0535,1758089301.10167,0.0,0.0,0.0,6.41713,5.61499,-6.24524,11.02,1.59,1.08,2.0
1758089311.06827,1758089301.11167,0.0,0.0,0.0,2.92208,9.85487,-6.7609,11.42,1.4,1.07,2.0
1758089311.09916,1758089301.12167,0.0,0.0,0.0,1.03132,11.17268,-7.96411,11.42,1.4,1.07,2.0
1758089311.10053,1758089301.13167,0.0,0.0,0.0,0.40107,11.34457,-7.79223,10.91,1.12,0.68,2.0
1758089311.10183,1758089301.14167,0.0,0.0,0.0,1.20321,11.22997,-7.79223,10.91,1.12,0.68,2.0
1758089311.10324,1758089301.15167,0.0,0.0,0.0,3.09397,13.00614,-7.39116,10.7,0.79,0.56,2.0
1758089311.11927,1758089301.16167,0.0,0.0,0.0,5.15662,14.03747,-6.35983,10.7,0.79,0.56,2.0
1758089311.12127,1758089301.17167,0.0,0.0,0.0,8.02141,13.5791,-5.95876,10.35,0.35,0.62,2.0
1758089311.13787,1758089301.18167,0.0,0.0,0.0,9.4538,14.78231,-5.55769,9.96,0.41,0.64,2.0
1758089311.13912,1758089301.19167,0.0,0.0,0.0,10.59972,16.10011,-5.50039,9.96,0.41,0.64,2.0
1758089311.15454,1758089301.20167,0.0,0.0,0.0,11.22997,16.61578,-5.21392,9.67,0.63,0.71,2.0
1758089311.17288,1758089301.21167,0.0,0.0,0.0,11.51645,16.55848,-4.87014,9.67,0.63,0.71,2.0
1758089311.17407,1758089301.22167,0.0,0.0,0.0,11.00079,15.64175,-4.35448,9.22,0.78,0.63,2.0
1758089311.18935,1758089301.23167,0.0,0.0,0.0,10.71431,13.17803,-3.49504,9.22,0.78,0.63,2.0
1758089311.19444,1758089301.24167,0.0,0.0,0.0,9.39651,9.85487,-1.83346,8.88,0.82,0.59,2.0
1758089311.20934,1758089301.25167,0.0,0.0,0.0,7.84952,8.25059,-1.3751,9.05,0.83,0.54,2.0
1758089311.21362,1758089301.26167,0.0,0.0,0.0,6.24524,6.99009,-1.14592,9.05,0.83,0.54,2.0
1758089311.22934,1758089301.27167,0.0,0.0,0.0,4.81285,5.61499,-0.57296,9.27,0.88,0.62,2.0
1758089311.23286,1758089301.28167,0.0,0.0,0.0,2.92208,3.32316,-0.0573,9.27,0.88,0.62,2.0
1758089311.24859,1758089301.29167,0.0,0.0,0.0,2.06265,0.80214,0.45837,9.44,0.85,0.68,2.0
1758089311.25382,1758089301.30167,0.0,0.0,0.0,1.71887,-0.97403,1.3178,9.44,0.85,0.68,2.0
1758089311.26832,1758089301.31167,0.0,0.0,0.0,1.48969,-1.20321,2.23454,9.75,0.73,0.59,2.0
1758089311.26958,1758089301.32167,0.0,0.0,0.0,1.3178,-1.48969,2.97938,10.03,0.65,0.5,2.0
1758089311.28757,1758089301.33167,0.0,0.0,0.0,1.3178,0.0,3.83882,10.03,0.65,0.5,2.0
1758089311.29252,1758089301.34167,0.0,0.0,0.0,1.03132,3.49504,4.35448,10.38,0.62,0.43,2.0
1758089311.3074,1758089301.35167,0.0,0.0,0.0,0.85944,7.73493,5.15662,10.38,0.62,0.43,2.0
1758089311.31329,1758089301.36167,0.0,0.0,0.0,-0.22918,14.9542,6.18794,10.52,0.71,0.49,2.0
1758089311.32825,1758089301.37167,0.0,0.0,0.0,-1.60428,17.18874,6.53172,10.52,0.71,0.49,2.0
1758089311.32947,1758089301.38167,0.0,0.0,0.0,-3.03668,16.3293,7.16197,10.0,0.87,0.49,2.0
1758089311.34862,1758089301.39167,0.0,0.0,0.0,-5.32851,13.40721,7.67763,10.0,0.87,0.49,2.0
1758089311.3536,1758089301.40167,0.0,0.0,0.0,-7.04738,8.02141,7.67763,9.44,1.03,0.29,2.0
1758089311.36942,1758089301.41167,0.0,0.0,0.0,-8.88085,4.87014,7.50575,9.33,1.2,0.03,2.0
1758089311.37353,1758089301.42167,0.0,0.0,0.0,-11.00079,2.34913,6.99009,9.33,1.2,0.03,2.0
1758089311.39399,1758089301.43167,0.0,0.0,0.0,-13.86558,-2.46372,5.72958,9.34,1.36,-0.04,2.0
1758089311.39908,1758089301.44167,0.0,0.0,0.0,-15.46986,-8.65166,4.81285,9.34,1.36,-0.04,2.0
1758089311.40377,1758089301.45167,0.0,0.0,0.0,-16.38659,-15.12609,4.81285,9.13,1.29,-0.2,2.0
1758089311.41972,1758089301.46167,0.0,0.0,0.0,-17.30333,-17.24603,4.87014,9.13,1.29,-0.2,2.0
1758089311.42529,1758089301.47167,0.0,0.0,0.0,-17.18874,-17.76169,4.87014,9.73,1.09,-0.23,2.0
1758089311.42915,1758089301.48167,0.0,0.0,0.0,-17.24603,-16.67307,4.81285,10.02,0.87,-0.25,2.0
1758089311.44936,1758089301.49167,0.0,0.0,0.0,-17.53251,-13.69369,4.92744,10.02,0.87,-0.25,2.0
1758089311.45767,1758089301.50167,0.0,0.0,0.0,-17.18874,-10.54242,5.84417,10.37,0.62,0.32,2.0
1758089311.45943,1758089301.51167,0.0,0.0,0.0,-17.24603,-9.39651,7.16197,10.37,0.62,0.32,2.0
1758089311.47533,1758089301.52167,0.0,0.0,0.0,-17.30333,-25.7831,6.41713,9.6,0.59,0.05,2.0
1758089311.49139,1758089301.53167,0.0,0.0,0.0,-19.53786,-36.15364,6.7609,9.6,0.59,0.05,2.0
1758089311.49257,1758089301.54167,0.0,0.0,0.0,-22.05888,-26.35606,4.92744,9.33,0.99,-0.46,2.0
1758089311.50761,1758089301.55167,0.0,0.0,0.0,-25.89769,-6.7609,1.43239,11.55,1.39,-0.56,2.0
1758089311.50854,1758089301.56167,0.0,0.0,0.0,-28.24682,-2.92208,0.45837,11.55,1.39,-0.56,2.0
1758089311.52468,1758089301.57167,0.0,0.0,0.0,-29.22085,0.85944,0.34377,10.23,1.34,0.41,2.0
1758089311.54373,1758089301.58167,0.0,0.0,0.0,-29.33544,6.18794,1.71887,10.23,1.34,0.41,2.0
1758089311.54568,1758089301.59167,0.0,0.0,0.0,-27.84575,12.49048,3.72423,10.28,1.07,0.02,2.0
1758089311.56235,1758089301.60167,0.0,0.0,0.0,-26.41335,12.77696,5.4431,10.28,1.07,0.02,2.0
1758089311.56435,1758089301.61167,0.0,0.0,0.0,-24.98096,13.17803,6.70361,9.87,0.74,-0.04,2.0
1758089311.57929,1758089301.62167,0.0,0.0,0.0,-22.86102,13.5791,7.16197,9.87,0.74,-0.04,2.0
1758089311.58772,1758089301.63167,0.0,0.0,0.0,-21.60051,9.96947,7.04738,10.4,0.45,0.44,2.0
1758089311.58921,1758089301.64167,0.0,0.0,0.0,-20.74107,3.72423,5.95876,10.3,0.35,1.04,2.0
1758089311.60735,1758089301.65167,0.0,0.0,0.0,-20.05352,-2.23454,4.18259,10.3,0.35,1.04,2.0
1758089311.60856,1758089301.66167,0.0,0.0,0.0,-19.07949,-9.91217,0.74485,11.17,0.54,1.48,2.0
1758089311.62436,1758089301.67167,0.0,0.0,0.0,-18.16276,-13.17803,-2.00535,11.17,0.54,1.48,2.0
1758089311.64296,1758089301.68167,0.0,0.0,0.0,-16.95955,-14.43854,-5.09932,12.28,0.46,1.4,2.0
1758089311.64415,1758089301.69167,0.0,0.0,0.0,-15.69904,-13.69369,-7.67763,12.28,0.46,1.4,2.0
1758089311.6535,1758089301.70167,0.0,0.0,0.0,-14.38124,-9.11003,-9.05273,12.21,0.11,0.75,2.0
1758089311.66937,1758089301.71167,0.0,0.0,0.0,-13.98017,-5.84417,-8.02141,10.96,-0.03,0.0,2.0
1758089311.67455,1758089301.72167,0.0,0.0,0.0,-13.98017,-2.97938,-5.55769,10.96,-0.03,0.0,2.0
1758089311.68934,1758089301.73167,0.0,0.0,0.0,-14.72501,0.11459,-2.34913,10.15,0.21,-0.26,2.0
1758089311.69563,1758089301.74167,0.0,0.0,0.0,-16.55848,4.98473,2.11994,10.15,0.21,-0.26,2.0
1758089311.71361,1758089301.75167,0.0,0.0,0.0,-17.53251,8.136,4.52637,9.96,0.56,-0.22,2.0
1758089311.71584,1758089301.76167,0.0,0.0,0.0,-18.56383,10.02676,5.90147,9.96,0.56,-0.22,2.0
1758089311.73224,1758089301.77167,0.0,0.0,0.0,-19.53786,9.91217,6.41713,9.58,0.75,0.2,2.0
1758089311.73394,1758089301.78167,0.0,0.0,0.0,-20.51189,8.70896,6.18794,9.53,0.6,0.62,2.0
1758089311.74939,1758089301.79167,0.0,0.0,0.0,-20.74107,7.10468,5.61499,9.53,0.6,0.62,2.0
1758089311.75379,1758089301.80167,0.0,0.0,0.0,-20.68378,5.15662,5.21392,9.75,0.15,1.02,2.0
1758089311.76964,1758089301.81167,0.0,0.0,0.0,-20.68378,0.97403,4.64096,9.75,0.15,1.02,2.0
1758089311.77854,1758089301.82167,0.0,0.0,0.0,-20.62648,-1.60428,4.64096,9.86,-0.37,1.18,2.0
1758089311.77916,1758089301.83167,0.0,0.0,0.0,-20.74107,-3.95341,4.69825,9.86,-0.37,1.18,2.0
1758089311.8185,1758089301.84167,0.0,0.0,0.0,-20.97026,-6.47442,5.32851,9.85,-0.79,1.26,2.0
1758089311.82184,1758089301.85167,0.0,0.0,0.0,-21.25674,-9.85487,6.58902,9.85,-0.79,1.45,2.0
1758089311.82439,1758089301.86167,0.0,0.0,0.0,-20.74107,-11.57375,7.62034,9.74,-1.09,1.45,2.0
1758089311.82949,1758089301.87167,0.0,0.0,0.0,-20.16812,-12.204,8.47978,9.68,-1.32,1.62,2.0
1758089311.834,1758089301.88167,0.0,0.0,0.0,-19.59516,-12.2613,9.11003,9.68,-1.32,1.62,2.0
1758089311.84964,1758089301.89167,0.0,0.0,0.0,-17.58981,-9.91217,9.85487,9.62,-1.45,1.69,2.0
1758089311.85295,1758089301.90167,0.0,0.0,0.0,-15.92823,-7.10468,10.08406,9.62,-1.45,1.69,2.0
1758089311.86838,1758089301.91167,0.0,0.0,0.0,-13.98017,-4.0107,10.48513,9.58,-1.54,1.63,2.0
1758089311.87367,1758089301.92167,0.0,0.0,0.0,-11.17268,-0.97403,10.65701,9.58,-1.54,1.63,2.0
1758089311.8886,1758089301.93167,0.0,0.0,0.0,-6.35983,2.00535,11.17268,9.65,-1.5,1.33,2.0
1758089311.89387,1758089301.94167,0.0,0.0,0.0,-5.09932,4.87014,11.00079,9.84,-1.56,1.1,2.0
1758089311.90829,1758089301.95167,0.0,0.0,0.0,-4.46907,8.70896,10.94349,9.84,-1.56,1.1,2.0
1758089311.90952,1758089301.96167,0.0,0.0,0.0,-4.1253,11.00079,10.8862,10.15,-1.51,1.35,2.0
1758089311.92464,1758089301.97167,0.0,0.0,0.0,-4.0107,14.32395,10.8862,10.15,-1.51,1.35,2.0
1758089311.94374,1758089301.98167,0.0,0.0,0.0,-3.72423,17.47521,10.8862,10.2,-1.42,0.98,2.0
1758089311.94577,1758089301.99167,0.0,0.0,0.0,-3.49504,19.36597,11.17268,10.2,-1.42,0.98,2.0
1758089311.964,1758089302.00167,0.0,0.0,0.0,-3.26586,19.36597,11.22997,10.02,-1.38,1.02,2.0
1758089312.00369,1758089302.01167,0.0,0.0,0.0,-3.09397,18.44924,11.22997,9.79,-1.36,1.05,2.0
1758089312.00425,1758089302.02167,0.0,0.0,0.0,-2.7502,17.87628,11.28727,9.79,-1.36,1.05,2.0
1758089312.00744,1758089302.03167,0.0,0.0,0.0,-2.40642,17.18874,11.45916,9.87,-1.41,1.05,2.0
1758089312.00782,1758089302.04167,0.0,0.0,0.0,-1.83346,16.04282,11.74564,9.87,-1.41,1.05,2.0
1758089312.0114,1758089302.05167,0.0,0.0,0.0,-1.48969,14.78231,11.86023,9.73,-1.36,1.08,2.0
1758089312.01296,1758089302.06167,0.0,0.0,0.0,-1.03132,13.12073,11.91752,9.73,-1.36,1.08,2.0
1758089312.02864,1758089302.07167,0.0,0.0,0.0,-0.51566,10.54242,11.97482,9.35,-1.26,1.05,2.0
1758089312.03071,1758089302.08167,0.0,0.0,0.0,-0.11459,6.7609,11.86023,9.03,-1.13,0.95,2.0
1758089312.04778,1758089302.09167,0.0,0.0,0.0,-0.0573,4.81285,11.57375,9.03,-1.13,0.95,2.0
1758089312.05246,1758089302.10167,0.0,0.0,0.0,0.0573,3.32316,11.22997,9.07,-1.03,0.91,2.0
1758089312.06745,1758089302.11167,0.0,0.0,0.0,0.22918,2.34913,11.00079,9.07,-1.03,0.91,2.0
1758089312.06887,1758089302.12167,0.0,0.0,0.0,0.45837,1.48969,10.19865,9.41,-0.98,0.93,2.0
1758089312.08519,1758089302.13167,0.0,0.0,0.0,0.68755,1.20321,9.85487,9.41,-0.98,0.93,2.0
1758089312.09387,1758089302.14167,0.0,0.0,0.0,0.85944,1.03132,8.99544,9.86,-1.02,0.94,2.0
1758089312.1087,1758089302.15167,0.0,0.0,0.0,0.97403,0.85944,8.42248,9.86,-1.02,0.94,2.0
1758089312.11035,1758089302.16167,0.0,0.0,0.0,1.20321,0.40107,7.16197,10.11,-1.15,0.88,2.0
1758089312.12543,1758089302.17167,0.0,0.0,0.0,1.43239,0.11459,6.18794,10.11,-1.27,0.79,2.0
1758089312.14353,1758089302.18167,0.0,0.0,0.0,1.48969,0.22918,5.21392,10.11,-1.27,0.79,2.0
1758089312.14517,1758089302.19167,0.0,0.0,0.0,1.48969,0.17189,4.0107,10.07,-1.33,0.8,2.0
1758089312.16064,1758089302.20167,0.0,0.0,0.0,1.43239,0.74485,2.97938,10.07,-1.33,0.8,2.0
1758089312.16277,1758089302.21167,0.0,0.0,0.0,1.66158,0.68755,2.29183,10.01,-1.35,0.85,2.0
1758089312.22931,1758089302.22167,0.0,0.0,0.0,1.71887,1.20321,1.48969,10.01,-1.35,0.85,2.0
1758089312.23928,1758089302.23167,0.0,0.0,0.0,2.06265,2.7502,0.80214,9.9,-1.3,0.8,2.0
1758089312.24313,1758089302.24167,0.0,0.0,0.0,2.40642,4.29718,0.22918,9.76,-1.23,0.69,2.0
1758089312.24669,1758089302.25167,0.0,0.0,0.0,2.6929,5.50039,-0.17189,9.76,-1.23,0.69,2.0
1758089312.24729,1758089302.26167,0.0,0.0,0.0,3.20856,6.47442,-0.85944,9.58,-1.12,0.62,2.0
1758089312.24856,1758089302.27167,0.0,0.0,0.0,3.89611,7.50575,-1.77617,9.58,-1.12,0.62,2.0
1758089312.24921,1758089302.28167,0.0,0.0,0.0,4.18259,8.99544,-2.46372,9.52,-1.05,0.5,2.0
1758089312.25197,1758089302.29167,0.0,0.0,0.0,4.87014,10.71431,-3.26586,9.52,-1.05,0.5,2.0
1758089312.25348,1758089302.30167,0.0,0.0,0.0,5.32851,12.60507,-3.89611,9.61,-1.07,0.43,2.0
1758089312.26945,1758089302.31167,0.0,0.0,0.0,5.78687,13.69369,-5.15662,9.5,-1.09,0.39,2.0
1758089312.27307,1758089302.32167,0.0,0.0,0.0,5.90147,13.75099,-5.84417,9.5,-1.09,0.39,2.0
1758089312.28931,1758089302.33167,0.0,0.0,0.0,5.95876,13.98017,-6.47442,9.51,-1.11,0.34,2.0
1758089312.29317,1758089302.34167,0.0,0.0,0.0,5.90147,14.32395,-7.16197,9.51,-1.11,0.34,2.0
1758089312.30841,1758089302.35167,0.0,0.0,0.0,5.95876,14.9542,-8.0787,9.65,-1.14,0.33,2.0
1758089312.31297,1758089302.36167,0.0,0.0,0.0,5.90147,15.29797,-8.70896,9.65,-1.14,0.33,2.0
1758089312.32847,1758089302.37167,0.0,0.0,0.0,5.90147,15.0115,-9.05273,9.73,-1.18,0.39,2.0
1758089312.33309,1758089302.38167,0.0,0.0,0.0,6.07335,14.61043,-9.39651,9.73,-1.18,0.39,2.0
1758089312.34848,1758089302.39167,0.0,0.0,0.0,6.53172,12.204,-9.91217,9.74,-1.23,0.43,2.0
1758089312.35318,1758089302.40167,0.0,0.0,0.0,7.04738,9.62569,-9.96947,9.67,-1.28,0.4,2.0
1758089312.36851,1758089302.41167,0.0,0.0,0.0,7.62034,6.99009,-10.08406,9.67,-1.28,0.4,2.0
1758089312.37291,1758089302.42167,0.0,0.0,0.0,8.59437,2.7502,-10.02676,9.63,-1.33,0.33,2.0
1758089312.38848,1758089302.43167,0.0,0.0,0.0,8.93814,-0.17189,-10.08406,9.63,-1.33,0.33,2.0
1758089312.39312,1758089302.44167,0.0,0.0,0.0,9.4538,-2.29183,-10.19865,9.49,-1.36,0.39,2.0
1758089312.4085,1758089302.45167,0.0,0.0,0.0,9.91217,-2.92208,-10.37054,9.49,-1.36,0.39,2.0
1758089312.41296,1758089302.46167,0.0,0.0,0.0,10.65701,-1.08862,-10.65701,9.66,-1.31,0.53,2.0
1758089312.42853,1758089302.47167,0.0,0.0,0.0,11.00079,0.17189,-10.54242,9.89,-1.25,0.7,2.0
1758089312.4331,1758089302.48167,0.0,0.0,0.0,10.8289,1.43239,-10.59972,9.89,-1.25,0.7,2.0
1758089312.44854,1758089302.49167,0.0,0.0,0.0,10.31324,1.20321,-10.59972,9.85,-1.15,0.6,2.0
1758089312.45307,1758089302.50167,0.0,0.0,0.0,9.4538,-0.40107,-10.94349,9.85,-1.15,0.6,2.0
1758089312.46845,1758089302.51167,0.0,0.0,0.0,9.11003,-1.14592,-10.94349,9.79,-1.08,0.21,2.0
1758089312.47286,1758089302.52167,0.0,0.0,0.0,9.05273,-1.48969,-10.8862,9.79,-1.08,0.21,2.0
1758089312.51339,1758089302.53167,0.0,0.0,0.0,9.11003,-1.03132,-10.8862,10.09,-1.15,-0.03,2.0
1758089312.52236,1758089302.54167,0.0,0.0,0.0,9.11003,-0.17189,-11.22997,10.23,-1.25,0.0,2.0
1758089312.52811,1758089302.55167,0.0,0.0,0.0,9.28192,0.40107,-11.28727,10.23,-1.25,0.0,2.0
1758089312.53306,1758089302.56167,0.0,0.0,0.0,9.85487,1.48969,-11.51645,10.26,-1.31,0.06,2.0
1758089312.53362,1758089302.57167,0.0,0.0,0.0,10.31324,3.20856,-11.91752,10.26,-1.31,0.06,2.0
1758089312.53921,1758089302.58167,0.0,0.0,0.0,11.45916,2.97938,-12.43318,10.36,-1.21,0.4,2.0
1758089312.53968,1758089302.59167,0.0,0.0,0.0,12.204,-0.22918,-11.74564,10.36,-1.21,0.4,2.0
1758089312.55812,1758089302.60167,0.0,0.0,0.0,12.54778,-4.29718,-10.25595,10.6,-0.95,1.04,2.0
1758089312.55931,1758089302.61167,0.0,0.0,0.0,11.74564,-7.62034,-6.87549,10.6,-0.95,1.04,2.0
1758089312.57439,1758089302.62167,0.0,0.0,0.0,10.08406,-11.34457,-4.58366,11.75,-0.66,1.67,2.0
1758089312.59213,1758089302.63167,0.0,0.0,0.0,8.136,-13.46451,-2.40642,12.5,-0.44,1.78,2.0
1758089312.59408,1758089302.64167,0.0,0.0,0.0,6.24524,-16.21471,-1.66158,12.5,-0.44,1.78,2.0
1758089312.61222,1758089302.65167,0.0,0.0,0.0,4.29718,-21.25674,-2.46372,11.66,-0.62,1.36,2.0
1758089312.61388,1758089302.66167,0.0,0.0,0.0,3.95341,-24.63719,-4.0107,11.66,-0.62,1.36,2.0
1758089312.63214,1758089302.67167,0.0,0.0,0.0,4.81285,-27.38738,-5.21392,10.09,-0.88,0.98,2.0
1758089312.63309,1758089302.68167,0.0,0.0,0.0,6.13065,-28.07493,-6.24524,10.09,-0.88,0.98,2.0
1758089312.64854,1758089302.69167,0.0,0.0,0.0,9.05273,-26.75713,-7.04738,9.13,-0.84,1.09,2.0
1758089312.65297,1758089302.70167,0.0,0.0,0.0,11.57375,-24.29341,-7.10468,8.74,-0.51,1.54,2.0
1758089312.66876,1758089302.71167,0.0,0.0,0.0,13.98017,-20.79837,-7.10468,8.74,-0.51,1.54,2.0
1758089312.67302,1758089302.72167,0.0,0.0,0.0,16.50119,-18.90761,-6.99009,8.56,0.06,1.94,2.0
1758089312.6888,1758089302.73167,0.0,0.0,0.0,19.99623,-21.7724,-7.50575,8.56,0.06,1.94,2.0
1758089312.69293,1758089302.74167,0.0,0.0,0.0,22.23076,-38.15899,-6.7609,7.81,0.69,2.0,2.0
1758089312.70874,1758089302.75167,0.0,0.0,0.0,23.54857,-45.49285,-5.72958,7.81,0.69,2.0,2.0
1758089312.71398,1758089302.76167,0.0,0.0,0.0,25.72581,-39.70598,-2.57831,8.89,0.92,1.55,2.0
1758089312.7288,1758089302.77167,0.0,0.0,0.0,25.49662,-24.63719,-0.85944,11.5,0.74,1.73,2.0
1758089312.73377,1758089302.78167,0.0,0.0,0.0,22.86102,-17.58981,-1.71887,11.5,0.74,1.73,2.0
1758089312.77466,1758089302.79167,0.0,0.0,0.0,18.33465,-10.65701,-2.6929,11.02,0.95,2.1,2.0
1758089312.77646,1758089302.80167,0.0,0.0,0.0,12.89155,-1.3751,-4.52637,11.02,0.95,2.1,2.0
1758089312.77863,1758089302.81167,0.0,0.0,0.0,6.70361,9.62569,-6.24524,10.92,1.29,1.54,2.0
1758089312.78071,1758089302.82167,0.0,0.0,0.0,2.92208,15.58445,-7.62034,10.92,1.29,1.54,2.0
1758089312.78292,1758089302.83167,0.0,0.0,0.0,0.51566,21.31403,-8.25059,10.59,1.39,1.0,2.0
1758089312.79854,1758089302.84167,0.0,0.0,0.0,-1.08862,28.24682,-7.96411,10.59,1.39,1.0,2.0
1758089312.79975,1758089302.85167,0.0,0.0,0.0,-0.40107,30.19488,-7.33386,10.5,1.25,1.03,2.0
1758089312.81439,1758089302.86167,0.0,0.0,0.0,1.14592,29.50733,-5.78687,10.02,0.79,1.3,2.0
1758089312.83377,1758089302.87167,0.0,0.0,0.0,2.97938,25.7831,-4.64096,10.02,0.79,1.3,2.0
1758089312.83572,1758089302.88167,0.0,0.0,0.0,5.78687,18.10547,-2.46372,9.32,0.51,1.15,2.0
1758089312.83874,1758089302.89167,0.0,0.0,0.0,7.21927,13.34992,-1.71887,9.32,0.51,1.15,2.0
1758089312.85896,1758089302.90167,0.0,0.0,0.0,7.96411,8.02141,-1.60428,9.42,0.6,1.57,2.0
1758089312.86168,1758089302.91167,0.0,0.0,0.0,7.79223,3.60963,-2.00535,9.42,0.6,1.57,2.0
1758089312.89887,1758089302.92167,0.0,0.0,0.0,5.84417,-1.66158,-3.49504,9.38,0.92,1.49,2.0
1758089312.90619,1758089302.93167,0.0,0.0,0.0,3.55234,-4.18259,-4.35448,9.41,1.25,1.32,2.0
1758089312.90946,1758089302.94167,0.0,0.0,0.0,0.74485,-5.4431,-5.15662,9.41,1.25,1.32,2.0
1758089312.9137,1758089302.95167,0.0,0.0,0.0,-1.94806,-6.47442,-5.4431,9.41,1.27,1.05,2.0
1758089312.91423,1758089302.96167,0.0,0.0,0.0,-5.4431,-7.04738,-5.61499,9.41,1.27,1.05,2.0
1758089312.91865,1758089302.97167,0.0,0.0,0.0,-7.04738,-7.39116,-5.27121,9.42,0.92,0.89,2.0
1758089312.93648,1758089302.98167,0.0,0.0,0.0,-8.0787,-7.39116,-4.64096,9.42,0.92,0.89,2.0
1758089312.93925,1758089302.99167,0.0,0.0,0.0,-8.47978,-6.41713,-3.32316,9.43,0.53,0.7,2.0
1758089312.95807,1758089303.00167,0.0,0.0,0.0,-8.76626,-2.92208,-1.60428,9.74,0.26,0.6,2.0
1758089312.95931,1758089303.01167,0.0,0.0,0.0,-8.76626,0.11459,-0.45837,9.74,0.26,0.6,2.0
1758089312.97661,1758089303.02167,0.0,0.0,0.0,-8.76626,2.29183,0.51566,9.82,0.23,0.48,2.0
1758089312.97934,1758089303.03167,0.0,0.0,0.0,-9.05273,5.90147,2.06265,9.82,0.23,0.48,2.0
1758089312.9981,1758089303.04167,0.0,0.0,0.0,-9.5684,9.62569,2.6929,10.0,0.42,0.43,2.0
1758089312.99935,1758089303.05167,0.0,0.0,0.0,-10.31324,12.49048,3.03668,10.0,0.42,0.43,2.0
1758089313.01457,1758089303.06167,0.0,0.0,0.0,-11.00079,15.35527,3.55234,10.06,0.66,0.33,2.0
1758089313.03261,1758089303.07167,0.0,0.0,0.0,-12.08941,20.22541,4.69825,10.06,0.66,0.33,2.0
1758089313.03359,1758089303.08167,0.0,0.0,0.0,-12.71966,23.0902,5.55769,10.04,0.72,0.23,2.0
1758089313.04854,1758089303.09167,0.0,0.0,0.0,-13.12073,25.43933,6.35983,9.83,0.7,0.17,2.0
1758089313.04969,1758089303.10167,0.0,0.0,0.0,-13.40721,26.18417,7.16197,9.83,0.7,0.17,2.0
1758089313.06564,1758089303.11167,0.0,0.0,0.0,-13.34992,24.57989,8.25059,9.51,0.68,0.2,2.0
1758089313.07324,1758089303.12167,0.0,0.0,0.0,-13.00614,23.20479,9.05273,9.51,0.68,0.2,2.0
1758089313.08879,1758089303.13167,0.0,0.0,0.0,-13.00614,21.42862,9.4538,9.57,0.67,0.27,2.0
1758089313.08977,1758089303.14167,0.0,0.0,0.0,-13.06344,18.27736,9.91217,9.57,0.67,0.27,2.0
1758089313.10463,1758089303.15167,0.0,0.0,0.0,-14.03747,11.34457,9.4538,9.55,0.69,0.4,2.0
1758089313.12158,1758089303.16167,0.0,0.0,0.0,-15.0115,6.70361,9.05273,9.48,0.78,0.27,2.0
1758089313.12358,1758089303.17167,0.0,0.0,0.0,-16.21471,2.23454,8.42248,9.48,0.78,0.27,2.0
1758089313.13855,1758089303.18167,0.0,0.0,0.0,-17.47521,-2.06265,7.84952,9.5,0.82,0.0,2.0
1758089313.13977,1758089303.19167,0.0,0.0,0.0,-19.53786,-8.76626,7.33386,9.5,0.82,0.0,2.0
1758089313.15533,1758089303.20167,0.0,0.0,0.0,-21.08485,-11.74564,6.7609,9.67,0.78,-0.31,2.0
1758089313.1716,1758089303.21167,0.0,0.0,0.0,-22.68913,-13.40721,6.18794,9.67,0.78,-0.31,2.0
1758089313.17362,1758089303.22167,0.0,0.0,0.0,-24.57989,-15.92823,5.15662,9.96,0.79,-0.42,2.0
1758089313.18859,1758089303.23167,0.0,0.0,0.0,-25.15285,-21.94428,4.81285,9.64,0.88,-0.59,2.0
1758089313.19383,1758089303.24167,0.0,0.0,0.0,-25.61122,-24.35071,4.81285,9.64,0.88,-0.59,2.0
1758089313.20886,1758089303.25167,0.0,0.0,0.0,-26.24147,-25.21014,4.81285,9.64,0.95,-0.51,2.0
1758089313.21326,1758089303.26167,0.0,0.0,0.0,-27.61657,-25.72581,4.58366,9.64,0.95,-0.51,2.0
1758089313.22891,1758089303.27167,0.0,0.0,0.0,-28.87707,-23.66316,4.87014,9.47,1.15,-0.37,2.0
1758089313.23295,1758089303.28167,0.0,0.0,0.0,-30.36677,-19.88164,5.4431,9.47,1.15,-0.37,2.0
1758089313.24884,1758089303.29167,0.0,0.0,0.0,-32.20023,-18.10547,6.13065,9.79,1.43,0.33,2.0
1758089313.25492,1758089303.30167,0.0,0.0,0.0,-33.34615,-15.41257,6.18794,10.41,1.43,1.3,2.0
1758089313.29891,1758089303.31167,0.0,0.0,0.0,-33.11696,-19.53786,4.92744,10.41,1.38,1.3,2.0
1758089313.30008,1758089303.32167,0.0,0.0,0.0,-32.71589,-27.2155,2.63561,10.74,0.85,2.21,2.0
1758089313.30066,1758089303.33167,0.0,0.0,0.0,-30.76784,-31.51268,0.74485,10.74,0.85,2.21,2.0
1758089313.30672,1758089303.34167,0.0,0.0,0.0,-26.69983,-33.74722,-2.11994,12.6,-0.11,2.42,2.0
1758089313.30969,1758089303.35167,0.0,0.0,0.0,-25.09555,-45.72203,-5.4431,12.6,-0.11,2.42,2.0
1758089313.31406,1758089303.36167,0.0,0.0,0.0,-23.0902,-47.78468,-6.18794,13.08,-1.49,1.6,2.0
1758089313.31874,1758089303.37167,0.0,0.0,0.0,-22.28806,-37.81522,-7.21927,13.08,-1.49,1.6,2.0
1758089313.33557,1758089303.38167,0.0,0.0,0.0,-20.68378,-18.79302,-4.64096,14.35,-1.69,0.32,2.0
1758089313.35182,1758089303.39167,0.0,0.0,0.0,-18.9649,-17.99088,-1.20321,11.33,-1.06,0.4,2.0
1758089313.35353,1758089303.40167,0.0,0.0,0.0,-17.58981,-17.18874,1.77617,11.33,-1.06,0.4,2.0
1758089313.36877,1758089303.41167,0.0,0.0,0.0,-15.64175,-13.46451,4.81285,10.24,-0.27,0.7,2.0
1758089313.37245,1758089303.42167,0.0,0.0,0.0,-13.86558,-10.65701,4.81285,10.24,-0.27,0.7,2.0
1758089313.38864,1758089303.43167,0.0,0.0,0.0,-13.5218,-10.8862,3.20856,9.87,0.27,0.75,2.0
1758089313.39147,1758089303.44167,0.0,0.0,0.0,-13.69369,-8.42248,1.66158,9.87,0.27,0.75,2.0
1758089313.40926,1758089303.45167,0.0,0.0,0.0,-15.41257,-10.31324,-0.34377,9.52,0.23,1.3,2.0
1758089313.41417,1758089303.46167,0.0,0.0,0.0,-17.01685,-11.28727,-1.3751,8.53,-0.09,1.42,2.0
1758089313.43353,1758089303.47167,0.0,0.0,0.0,-18.90761,-9.39651,-2.06265,8.53,-0.09,1.42,2.0
1758089313.44027,1758089303.48167,0.0,0.0,0.0,-21.14215,-6.99009,-2.6929,8.69,-0.43,1.74,2.0
1758089313.46347,1758089303.49167,0.0,0.0,0.0,-24.5226,-4.52637,-2.97938,8.69,-0.43,1.74,2.0
1758089313.46465,1758089303.50167,0.0,0.0,0.0,-26.12688,-3.26586,-2.63561,8.66,-0.8,1.73,2.0
1758089313.46931,1758089303.51167,0.0,0.0,0.0,-26.47065,-1.3178,-1.3178,8.66,-0.8,1.73,2.0
1758089313.4739,1758089303.52167,0.0,0.0,0.0,-25.7831,1.77617,0.11459,9.29,-1.3,1.4,2.0
1758089313.48882,1758089303.53167,0.0,0.0,0.0,-22.91831,7.21927,2.86479,9.97,-1.75,1.09,2.0
1758089313.49095,1758089303.54167,0.0,0.0,0.0,-19.99623,11.34457,4.1253,9.97,-1.75,1.09,2.0
1758089313.50722,1758089303.55167,0.0,0.0,0.0,-17.18874,15.64175,5.21392,10.5,-1.89,0.93,2.0
1758089313.52372,1758089303.56167,0.0,0.0,0.0,-14.43854,19.88164,6.13065,10.5,-1.89,0.93,2.0
1758089313.52502,1758089303.57167,0.0,0.0,0.0,-11.51645,24.75178,7.04738,10.81,-1.73,0.74,2.0
1758089313.54141,1758089303.58167,0.0,0.0,0.0,-10.48513,26.24147,7.33386,10.81,-1.73,0.74,2.0
1758089313.54423,1758089303.59167,0.0,0.0,0.0,-10.25595,26.64254,7.39116,10.77,-1.36,0.62,2.0
1758089313.5488,1758089303.60167,0.0,0.0,0.0,-10.8289,26.69983,6.99009,10.77,-1.36,0.62,2.0
1758089313.56546,1758089303.61167,0.0,0.0,0.0,-12.54778,27.33009,5.95876,10.56,-1.31,0.67,2.0
1758089313.58169,1758089303.62167,0.0,0.0,0.0,-13.5791,26.24147,5.55769,10.2,-1.33,0.79,2.0
1758089313.58363,1758089303.63167,0.0,0.0,0.0,-14.38124,24.12152,5.15662,10.2,-1.33,0.79,2.0
1758089313.59891,1758089303.64167,0.0,0.0,0.0,-15.0115,21.25674,4.98473,9.73,-1.26,0.71,2.0
1758089313.60389,1758089303.65167,0.0,0.0,0.0,-15.35527,16.61578,4.35448,9.73,-1.26,0.71,2.0
1758089313.61887,1758089303.66167,0.0,0.0,0.0,-15.06879,13.80828,3.89611,9.51,-1.12,0.71,2.0
1758089313.62307,1758089303.67167,0.0,0.0,0.0,-14.38124,10.8862,3.72423,9.51,-1.12,0.71,2.0
1758089313.63864,1758089303.68167,0.0,0.0,0.0,-13.12073,6.35983,3.49504,9.2,-1.07,0.65,2.0
1758089313.64103,1758089303.69167,0.0,0.0,0.0,-12.2613,3.89611,3.60963,8.93,-1.08,0.62,2.0
1758089313.6557,1758089303.70167,0.0,0.0,0.0,-11.45916,1.3178,4.0107,8.93,-1.08,0.62,2.0
1758089313.67344,1758089303.71167,0.0,0.0,0.0,-11.11538,-0.80214,4.18259,8.9,-1.15,0.6,2.0
1758089313.67638,1758089303.72167,0.0,0.0,0.0,-10.37054,-3.55234,4.52637,8.9,-1.15,0.6,2.0
1758089313.69421,1758089303.73167,0.0,0.0,0.0,-9.68299,-4.98473,4.87014,9.04,-1.27,0.55,2.0
1758089313.69791,1758089303.74167,0.0,0.0,0.0,-9.28192,-5.27121,5.09932,9.04,-1.27,0.55,2.0
1758089313.71373,1758089303.75167,0.0,0.0,0.0,-8.70896,-4.29718,5.09932,9.32,-1.36,0.52,2.0
1758089313.7146,1758089303.76167,0.0,0.0,0.0,-8.02141,-1.94806,5.32851,9.53,-1.35,0.53,2.0
1758089313.73327,1758089303.77167,0.0,0.0,0.0,-7.44845,0.0573,4.98473,9.53,-1.35,0.53,2.0
1758089313.73439,1758089303.78167,0.0,0.0,0.0,-6.8182,2.86479,4.58366,9.82,-1.26,0.57,2.0
1758089313.75361,1758089303.79167,0.0,0.0,0.0,-6.13065,5.50039,3.83882,9.82,-1.26,0.57,2.0
1758089313.75835,1758089303.80167,0.0,0.0,0.0,-4.98473,9.91217,2.46372,9.95,-1.16,0.5,2.0
1758089313.75873,1758089303.81167,0.0,0.0,0.0,-4.29718,13.34992,1.77617,9.95,-1.16,0.5,2.0
1758089313.77484,1758089303.82167,0.0,0.0,0.0,-3.49504,16.21471,0.45837,10.04,-1.16,0.44,2.0
1758089313.79326,1758089303.83167,0.0,0.0,0.0,-2.57831,18.73572,-0.40107,10.04,-1.16,0.44,2.0
1758089313.79448,1758089303.84167,0.0,0.0,0.0,-1.20321,20.11082,-1.14592,9.93,-1.21,0.44,2.0
1758089313.81303,1758089303.85167,0.0,0.0,0.0,-0.40107,19.53786,-1.94806,9.79,-1.24,0.41,2.0
1758089313.81416,1758089303.86167,0.0,0.0,0.0,0.68755,18.44924,-2.46372,9.79,-1.24,0.41,2.0
1758089313.83362,1758089303.87167,0.0,0.0,0.0,3.20856,15.0115,-2.97938,9.74,-1.3,0.38,2.0
1758089313.83801,1758089303.88167,0.0,0.0,0.0,4.98473,10.8289,-3.26586,9.74,-1.3,0.38,2.0
1758089313.83858,1758089303.89167,0.0,0.0,0.0,6.99009,6.58902,-3.20856,9.51,-1.39,0.32,2.0
1758089313.85462,1758089303.90167,0.0,0.0,0.0,8.88085,2.7502,-2.92208,9.51,-1.39,0.32,2.0
1758089313.85898,1758089303.91167,0.0,0.0,0.0,11.00079,-5.15662,-3.09397,9.35,-1.49,0.24,2.0
1758089313.9038,1758089303.92167,0.0,0.0,0.0,12.2613,-14.15206,-3.20856,8.77,-1.49,0.08,2.0
1758089313.90497,1758089303.93167,0.0,0.0,0.0,12.77696,-20.45459,-3.38045,8.77,-1.49,0.08,2.0
1758089313.90531,1758089303.94167,0.0,0.0,0.0,12.89155,-22.97561,-3.20856,9.23,-1.42,-0.2,2.0
1758089313.90907,1758089303.95167,0.0,0.0,0.0,14.38124,-20.85567,-4.0107,9.23,-1.42,-0.2,2.0
1758089313.91291,1758089303.96167,0.0,0.0,0.0,15.46986,-13.69369,-4.52637,10.01,-1.51,0.05,2.0
1758089313.93041,1758089303.97167,0.0,0.0,0.0,16.84496,-4.58366,-4.23989,10.01,-1.51,0.05,2.0
1758089313.93236,1758089303.98167,0.0,0.0,0.0,17.58981,3.03668,-4.23989,10.59,-1.53,0.73,2.0
1758089313.94851,1758089303.99167,0.0,0.0,0.0,17.30333,8.36518,-5.27121,9.85,-1.26,0.86,2.0
1758089313.95044,1758089304.00167,0.0,0.0,0.0,17.36062,8.0787,-6.47442,9.85,-1.26,0.86,2.0
1758089313.96588,1758089304.01167,0.0,0.0,0.0,19.36597,2.29183,-6.47442,9.18,-1.08,0.28,2.0
1758089313.98238,1758089304.02167,0.0,0.0,0.0,19.07949,-12.71966,-10.02676,9.18,-1.08,0.28,2.0
1758089313.98364,1758089304.03167,0.0,0.0,0.0,23.20479,-30.59595,-6.8182,8.31,-1.22,-0.64,2.0
1758089313.99869,1758089304.04167,0.0,0.0,0.0,26.87172,-27.33009,-2.34913,8.31,-1.22,-0.64,2.0
1758089314.00073,1758089304.05167,0.0,0.0,0.0,28.36141,-16.84496,-1.3751,11.16,-1.74,-0.36,2.0
1758089314.01582,1758089304.06167,0.0,0.0,0.0,27.61657,-7.44845,-2.23454,11.16,-1.74,-0.36,2.0
1758089314.01924,1758089304.07167,0.0,0.0,0.0,25.15285,-4.92744,-3.49504,10.86,-1.85,0.26,2.0
1758089314.0387,1758089304.08167,0.0,0.0,0.0,22.23076,-1.77617,-4.64096,10.37,-1.49,0.92,2.0
1758089314.04066,1758089304.09167,0.0,0.0,0.0,19.13679,3.32316,-5.90147,10.37,-1.49,0.92,2.0
1758089314.05554,1758089304.10167,0.0,0.0,0.0,15.46986,11.00079,-7.44845,10.86,-1.03,0.24,2.0
1758089314.07161,1758089304.11167,0.0,0.0,0.0,13.69369,14.49583,-7.79223,10.86,-1.03,0.24,2.0
1758089314.07369,1758089304.12167,0.0,0.0,0.0,12.54778,16.67307,-7.21927,11.03,-0.88,0.22,2.0
1758089314.08891,1758089304.13167,0.0,0.0,0.0,11.74564,15.75634,-5.84417,11.03,-0.88,0.22,2.0
1758089314.09339,1758089304.14167,0.0,0.0,0.0,11.28727,7.84952,-3.49504,10.91,-0.83,0.5,2.0
1758089314.10892,1758089304.15167,0.0,0.0,0.0,11.22997,2.06265,-1.77617,10.43,-0.98,0.39,2.0
1758089314.11175,1758089304.16167,0.0,0.0,0.0,11.45916,-2.63561,-0.17189,10.43,-0.98,0.39,2.0
1758089314.1285,1758089304.17167,0.0,0.0,0.0,11.57375,-5.55769,1.20321,10.61,-1.23,0.82,2.0
1758089314.13348,1758089304.18167,0.0,0.0,0.0,11.28727,-7.10468,3.26586,10.61,-1.23,0.82,2.0
1758089314.14868,1758089304.19167,0.0,0.0,0.0,10.08406,-6.58902,4.0107,11.31,-1.09,1.24,2.0
1758089314.1539,1758089304.20167,0.0,0.0,0.0,8.47978,-5.95876,4.0107,11.31,-1.09,1.24,2.0
1758089314.16869,1758089304.21167,0.0,0.0,0.0,6.70361,-4.87014,2.86479,11.51,-0.75,1.23,2.0
1758089314.17311,1758089304.22167,0.0,0.0,0.0,4.46907,-3.38045,-0.0573,10.71,-0.56,0.55,2.0
1758089314.18899,1758089304.23167,0.0,0.0,0.0,3.55234,-4.1253,-2.40642,10.71,-0.56,0.55,2.0
1758089314.19141,1758089304.24167,0.0,0.0,0.0,2.57831,-5.84417,-4.64096,9.64,-0.47,0.17,2.0
1758089314.20832,1758089304.25167,0.0,0.0,0.0,1.48969,-7.73493,-7.16197,9.64,-0.47,0.17,2.0
1758089314.21373,1758089304.26167,0.0,0.0,0.0,1.03132,-10.71431,-8.30789,9.17,-0.35,0.19,2.0
1758089314.22897,1758089304.27167,0.0,0.0,0.0,0.97403,-12.60507,-8.59437,9.17,-0.35,0.19,2.0
1758089314.23314,1758089304.28167,0.0,0.0,0.0,1.43239,-14.72501,-8.42248,8.94,-0.23,0.51,2.0
1758089314.24894,1758089304.29167,0.0,0.0,0.0,2.97938,-17.99088,-7.67763,8.94,-0.23,0.51,2.0
1758089314.25336,1758089304.30167,0.0,0.0,0.0,4.64096,-20.45459,-7.10468,8.67,-0.07,1.03,2.0
1758089314.26895,1758089304.31167,0.0,0.0,0.0,6.35983,-22.00158,-6.8182,8.58,0.1,1.54,2.0
1758089314.27338,1758089304.32167,0.0,0.0,0.0,8.30789,-22.23076,-6.8182,8.58,0.1,1.54,2.0
1758089314.28872,1758089304.33167,0.0,0.0,0.0,11.11538,-20.22541,-6.58902,9.17,0.42,1.87,2.0
1758089314.29394,1758089304.34167,0.0,0.0,0.0,11.86023,-18.10547,-6.7609,9.17,0.42,1.87,2.0
1758089314.30857,1758089304.35167,0.0,0.0,0.0,11.97482,-15.0115,-7.21927,9.9,0.74,2.06,2.0
1758089314.3139,1758089304.36167,0.0,0.0,0.0,11.34457,-10.31324,-7.79223,9.9,0.74,2.06,2.0
1758089314.33217,1758089304.37167,0.0,0.0,0.0,8.88085,-2.23454,-8.42248,10.62,0.98,1.82,2.0
1758089314.33945,1758089304.38167,0.0,0.0,0.0,6.41713,3.38045,-8.88085,11.06,1.07,1.57,2.0
1758089314.34003,1758089304.39167,0.0,0.0,0.0,3.49504,9.33921,-8.88085,11.06,1.07,1.57,2.0
1758089314.35869,1758089304.40167,0.0,0.0,0.0,1.3751,13.46451,-9.4538,11.18,1.14,1.32,2.0
1758089314.36101,1758089304.41167,0.0,0.0,0.0,-1.14592,16.95955,-10.31324,11.18,1.14,1.32,2.0
1758089314.37871,1758089304.42167,0.0,0.0,0.0,-2.46372,17.76169,-10.31324,11.05,0.93,1.23,2.0
1758089314.38104,1758089304.43167,0.0,0.0,0.0,-2.57831,19.13679,-10.25595,11.05,0.93,1.23,2.0
1758089314.39574,1758089304.44167,0.0,0.0,0.0,-2.29183,20.62648,-10.37054,10.71,0.83,1.02,2.0
1758089314.39936,1758089304.45167,0.0,0.0,0.0,-0.97403,21.31403,-10.71431,10.26,0.84,1.02,2.0
1758089314.41595,1758089304.46167,0.0,0.0,0.0,-0.11459,22.05888,-10.59972,10.26,0.84,1.02,2.0
1758089314.41948,1758089304.47167,0.0,0.0,0.0,0.57296,22.28806,-10.31324,10.04,0.92,1.15,2.0
1758089314.43597,1758089304.48167,0.0,0.0,0.0,1.14592,22.51724,-9.85487,10.04,0.92,1.15,2.0
1758089314.44441,1758089304.49167,0.0,0.0,0.0,1.3751,22.86102,-9.4538,9.88,0.95,1.03,2.0
1758089314.46395,1758089304.50167,0.0,0.0,0.0,1.48969,22.51724,-8.88085,9.88,0.95,1.03,2.0
1758089314.46893,1758089304.51167,0.0,0.0,0.0,1.43239,20.97026,-8.36518,9.58,0.78,1.01,2.0
1758089314.47451,1758089304.52167,0.0,0.0,0.0,1.48969,16.04282,-7.10468,9.01,0.78,0.92,2.0
1758089314.4787,1758089304.53167,0.0,0.0,0.0,1.60428,12.08941,-6.35983,9.01,0.57,0.92,2.0
1758089314.50319,1758089304.54167,0.0,0.0,0.0,1.43239,8.76626,-5.84417,8.8,0.42,0.8,2.0
1758089314.50896,1758089304.55167,0.0,0.0,0.0,1.3178,5.09932,-5.21392,8.8,0.42,0.8,2.0
1758089314.51186,1758089304.56167,0.0,0.0,0.0,0.74485,-0.17189,-4.81285,8.79,0.43,0.83,2.0
1758089314.53371,1758089304.57167,0.0,0.0,0.0,0.11459,-3.20856,-4.46907,8.79,0.43,0.83,2.0
1758089314.53599,1758089304.58167,0.0,0.0,0.0,-0.68755,-5.72958,-3.95341,9.01,0.57,0.87,2.0
1758089314.5554,1758089304.59167,0.0,0.0,0.0,-1.71887,-7.21927,-3.38045,9.01,0.57,0.87,2.0
1758089314.559,1758089304.60167,0.0,0.0,0.0,-3.83882,-7.16197,-2.97938,9.41,0.71,0.86,2.0
1758089314.55963,1758089304.61167,0.0,0.0,0.0,-4.92744,-4.35448,-2.34913,9.97,0.85,0.87,2.0
1758089314.57528,1758089304.62167,0.0,0.0,0.0,-5.84417,-0.74485,-1.77617,9.97,0.85,0.87,2.0
1758089314.62757,1758089304.63167,0.0,0.0,0.0,-6.53172,2.29183,-1.08862,10.24,0.82,0.88,2.0
1758089314.62816,1758089304.64167,0.0,0.0,0.0,-7.21927,7.21927,0.34377,10.24,0.82,0.88,2.0
1758089314.63338,1758089304.65167,0.0,0.0,0.0,-7.33386,10.31324,1.3751,10.35,0.68,0.81,2.0
1758089314.66394,1758089304.66167,0.0,0.0,0.0,-7.62034,13.80828,2.23454,10.35,0.68,0.81,2.0
1758089314.66591,1758089304.67167,0.0,0.0,0.0,-8.136,18.62113,3.49504,10.29,0.6,0.56,2.0
1758089314.6664,1758089304.68167,0.0,0.0,0.0,-8.47978,21.7151,4.23989,9.97,0.69,0.5,2.0
1758089314.66704,1758089304.69167,0.0,0.0,0.0,-8.99544,24.57989,5.15662,9.97,0.69,0.5,2.0
1758089314.66823,1758089304.70167,0.0,0.0,0.0,-9.4538,25.55392,5.84417,9.73,0.83,0.53,2.0
1758089314.66891,1758089304.71167,0.0,0.0,0.0,-10.08406,22.68913,6.7609,9.73,0.83,0.53,2.0
1758089314.67409,1758089304.72167,0.0,0.0,0.0,-10.71431,20.22541,7.33386,9.41,0.85,0.33,2.0
1758089314.6931,1758089304.73167,0.0,0.0,0.0,-11.28727,17.87628,7.79223,9.41,0.85,0.33,2.0
1758089314.69546,1758089304.74167,0.0,0.0,0.0,-12.204,15.0115,8.136,9.5,0.8,0.03,2.0
1758089314.71181,1758089304.75167,0.0,0.0,0.0,-14.03747,11.00079,8.30789,9.5,0.83,0.01,2.0
1758089314.71435,1758089304.76167,0.0,0.0,0.0,-15.46986,9.05273,8.30789,9.5,0.83,0.01,2.0
1758089314.73324,1758089304.77167,0.0,0.0,0.0,-17.01685,6.8182,8.02141,9.59,0.9,0.15,2.0
1758089314.73411,1758089304.78167,0.0,0.0,0.0,-18.79302,4.35448,7.79223,9.59,0.9,0.15,2.0
1758089314.75316,1758089304.79167,0.0,0.0,0.0,-20.74107,-1.48969,7.21927,9.5,0.91,0.22,2.0
1758089314.75414,1758089304.80167,0.0,0.0,0.0,-21.88699,-6.35983,6.7609,9.5,0.91,0.22,2.0
1758089314.7739,1758089304.81167,0.0,0.0,0.0,-22.63183,-13.06344,6.18794,9.32,0.9,0.16,2.0
1758089314.77573,1758089304.82167,0.0,0.0,0.0,-23.0902,-19.07949,5.84417,9.32,0.9,0.16,2.0
1758089314.79302,1758089304.83167,0.0,0.0,0.0,-22.97561,-25.15285,4.87014,9.32,0.84,-0.13,2.0
1758089314.79424,1758089304.84167,0.0,0.0,0.0,-23.0902,-26.98631,3.72423,9.61,0.88,-0.15,2.0
1758089314.81297,1758089304.85167,0.0,0.0,0.0,-23.49127,-26.87172,2.97938,9.61,0.88,-0.15,2.0
1758089314.81461,1758089304.86167,0.0,0.0,0.0,-24.17882,-26.12688,2.40642,9.79,0.93,-0.02,2.0
1758089314.83293,1758089304.87167,0.0,0.0,0.0,-24.98096,-23.20479,2.40642,9.79,0.93,-0.02,2.0
1758089314.83457,1758089304.88167,0.0,0.0,0.0,-25.7831,-20.22541,2.57831,9.93,1.06,0.23,2.0
1758089314.85316,1758089304.89167,0.0,0.0,0.0,-26.52795,-16.04282,3.49504,9.93,1.06,0.23,2.0
1758089314.85417,1758089304.90167,0.0,0.0,0.0,-28.01764,-10.48513,4.18259,10.36,1.1,0.67,2.0
1758089314.8885,1758089304.91167,0.0,0.0,0.0,-28.07493,-8.42248,4.52637,10.73,0.84,1.27,2.0
1758089314.89323,1758089304.92167,0.0,0.0,0.0,-27.38738,-8.70896,4.81285,10.73,0.84,1.27,2.0
1758089314.89361,1758089304.93167,0.0,0.0,0.0,-27.50197,-21.02755,2.6929,10.82,0.61,1.95,2.0
1758089314.89644,1758089304.94167,0.0,0.0,0.0,-26.64254,-28.76248,-1.20321,10.82,0.61,1.95,2.0
1758089314.89963,1758089304.95167,0.0,0.0,0.0,-23.37668,-28.93437,-3.89611,12.76,0.06,1.86,2.0
1758089314.91873,1758089304.96167,0.0,0.0,0.0,-19.19409,-25.72581,-6.24524,12.76,0.06,1.86,2.0
1758089314.92077,1758089304.97167,0.0,0.0,0.0,-14.15206,-19.76705,-6.47442,13.82,-1.05,1.31,2.0
1758089314.93577,1758089304.98167,0.0,0.0,0.0,-7.10468,-11.22997,-3.26586,11.98,-1.61,0.65,2.0
1758089314.94015,1758089304.99167,0.0,0.0,0.0,-3.89611,-7.73493,-0.45837,11.98,-1.61,0.65,2.0
1758089314.95816,1758089305.00167,0.0,0.0,0.0,-1.77617,-5.84417,1.60428,9.9,-0.84,0.24,2.0
1758089314.95958,1758089305.01167,0.0,0.0,0.0,-0.68755,-3.95341,2.86479,9.9,-0.84,0.24,2.0
1758089314.97603,1758089305.02167,0.0,0.0,0.0,-0.40107,-1.03132,3.38045,9.56,0.1,0.17,2.0
1758089314.98011,1758089305.03167,0.0,0.0,0.0,-1.03132,0.68755,3.03668,9.56,0.1,0.17,2.0
1758089314.99808,1758089305.04167,0.0,0.0,0.0,-2.63561,0.45837,2.11994,9.44,0.72,0.73,2.0
1758089315.00365,1758089305.05167,0.0,0.0,0.0,-5.15662,-1.14592,0.57296,9.44,0.72,0.73,2.0
1758089315.01869,1758089305.06167,0.0,0.0,0.0,-9.22462,-4.23989,-0.34377,9.08,0.84,1.28,2.0
1758089315.01991,1758089305.07167,0.0,0.0,0.0,-11.97482,-5.32851,-1.08862,9.13,0.49,1.67,2.0
1758089315.035,1758089305.08167,0.0,0.0,0.0,-14.61043,-6.7609,-1.60428,9.13,0.49,1.67,2.0
1758089315.05342,1758089305.09167,0.0,0.0,0.0,-17.76169,-10.8862,-1.83346,9.09,-0.12,2.06,2.0
1758089315.05441,1758089305.10167,0.0,0.0,0.0,-18.85031,-13.40721,-1.60428,9.09,-0.12,2.06,2.0
1758089315.07295,1758089305.11167,0.0,0.0,0.0,-19.36597,-14.49583,-1.3751,9.16,-0.78,2.1,2.0
1758089315.07469,1758089305.12167,0.0,0.0,0.0,-19.25138,-13.75099,-0.85944,9.16,-0.78,2.1,2.0
1758089315.07906,1758089305.13167,0.0,0.0,0.0,-17.93358,-10.71431,-0.40107,9.66,-1.29,1.96,2.0
1758089315.09881,1758089305.14167,0.0,0.0,0.0,-16.61578,-7.04738,0.0,10.23,-1.5,1.63,2.0
1758089315.10477,1758089305.15167,0.0,0.0,0.0,-15.0115,-2.7502,0.22918,10.23,-1.5,1.63,2.0
1758089315.12392,1758089305.16167,0.0,0.0,0.0,-13.46451,1.66158,0.97403,10.79,-1.39,1.36,2.0
1758089315.12908,1758089305.17167,0.0,0.0,0.0,-11.51645,7.44845,1.77617,10.79,-1.39,1.36,2.0
1758089315.13355,1758089305.18167,0.0,0.0,0.0,-10.8289,10.94349,2.34913,10.98,-1.14,1.13,2.0
1758089315.15376,1758089305.19167,0.0,0.0,0.0,-10.48513,14.72501,2.7502,10.98,-1.14,1.13,2.0
1758089315.15846,1758089305.20167,0.0,0.0,0.0,-10.59972,17.58981,3.09397,10.91,-1.01,1.0,2.0
1758089315.15882,1758089305.21167,0.0,0.0,0.0,-10.94349,20.34,3.32316,10.5,-1.04,0.95,2.0
1758089315.17906,1758089305.22167,0.0,0.0,0.0,-11.45916,21.6578,3.32316,10.5,-1.04,0.95,2.0
1758089315.18029,1758089305.23167,0.0,0.0,0.0,-11.57375,22.57454,3.38045,10.16,-1.12,0.87,2.0
1758089315.19506,1758089305.24167,0.0,0.0,0.0,-11.74564,22.57454,3.20856,10.16,-1.12,0.87,2.0
1758089315.21398,1758089305.25167,0.0,0.0,0.0,-12.2613,20.79837,3.03668,9.67,-1.12,0.83,2.0
1758089315.21759,1758089305.26167,0.0,0.0,0.0,-12.77696,19.13679,3.03668,9.67,-1.12,0.83,2.0
1758089315.23361,1758089305.27167,0.0,0.0,0.0,-13.23533,17.53251,2.97938,9.45,-1.04,0.85,2.0
1758089315.2388,1758089305.28167,0.0,0.0,0.0,-13.80828,14.66772,3.26586,9.45,-1.04,0.85,2.0
1758089315.23942,1758089305.29167,0.0,0.0,0.0,-13.69369,12.2613,3.49504,9.4,-0.95,0.87,2.0
1758089315.25477,1758089305.30167,0.0,0.0,0.0,-13.5218,10.08406,3.72423,9.25,-0.92,0.81,2.0
1758089315.25918,1758089305.31167,0.0,0.0,0.0,-13.06344,7.67763,4.0107,9.25,-0.92,0.81,2.0
1758089315.27819,1758089305.32167,0.0,0.0,0.0,-12.54778,3.72423,4.1253,9.14,-0.95,0.82,2.0
1758089315.28021,1758089305.33167,0.0,0.0,0.0,-12.204,1.3751,4.23989,9.14,-0.95,0.82,2.0
1758089315.29606,1758089305.34167,0.0,0.0,0.0,-11.74564,-1.03132,4.35448,9.15,-0.97,0.82,2.0
1758089315.31368,1758089305.35167,0.0,0.0,0.0,-11.22997,-3.49504,4.52637,9.15,-0.97,0.82,2.0
1758089315.31576,1758089305.36167,0.0,0.0,0.0,-10.59972,-5.50039,4.52637,9.21,-0.97,0.75,2.0
1758089315.33272,1758089305.37167,0.0,0.0,0.0,-9.96947,-5.50039,4.35448,9.45,-0.96,0.68,2.0
1758089315.33442,1758089305.38167,0.0,0.0,0.0,-9.74028,-4.98473,4.18259,9.45,-0.96,0.68,2.0
1758089315.35317,1758089305.39167,0.0,0.0,0.0,-9.4538,-3.09397,4.1253,9.72,-0.94,0.66,2.0
1758089315.35421,1758089305.40167,0.0,0.0,0.0,-9.39651,1.14592,3.09397,9.72,-0.94,0.66,2.0
1758089315.37306,1758089305.41167,0.0,0.0,0.0,-9.5684,4.35448,2.40642,10.0,-0.85,0.66,2.0
1758089315.37422,1758089305.42167,0.0,0.0,0.0,-9.68299,7.73493,1.66158,10.0,-0.85,0.66,2.0
1758089315.39333,1758089305.43167,0.0,0.0,0.0,-9.68299,10.37054,0.68755,10.08,-0.79,0.58,2.0
1758089315.39419,1758089305.44167,0.0,0.0,0.0,-9.33921,13.40721,-0.34377,9.98,-0.83,0.42,2.0
1758089315.39908,1758089305.45167,0.0,0.0,0.0,-8.76626,15.35527,-0.85944,9.98,-0.83,0.42,2.0
1758089315.41881,1758089305.46167,0.0,0.0,0.0,-7.96411,17.87628,-1.3751,10.04,-0.91,0.35,2.0
1758089315.45299,1758089305.47167,0.0,0.0,0.0,-6.47442,20.85567,-2.40642,10.04,-0.91,0.35,2.0
1758089315.45351,1758089305.48167,0.0,0.0,0.0,-5.21392,22.28806,-2.92208,10.08,-1.0,0.42,2.0
1758089315.46381,1758089305.49167,0.0,0.0,0.0,-3.83882,20.51189,-3.32316,10.08,-1.0,0.42,2.0
1758089315.46417,1758089305.50167,0.0,0.0,0.0,-2.40642,17.76169,-3.66693,9.67,-1.08,0.41,2.0
1758089315.46945,1758089305.51167,0.0,0.0,0.0,-0.0573,11.74564,-4.1253,9.67,-1.08,0.41,2.0
1758089315.47394,1758089305.52167,0.0,0.0,0.0,1.77617,7.04738,-4.35448,9.48,-1.2,0.24,2.0
1758089315.493,1758089305.53167,0.0,0.0,0.0,3.32316,2.00535,-4.52637,9.2,-1.31,0.11,2.0
1758089315.49416,1758089305.54167,0.0,0.0,0.0,4.81285,-2.92208,-4.35448,9.2,-1.31,0.11,2.0
1758089315.51297,1758089305.55167,0.0,0.0,0.0,6.47442,-7.67763,-4.69825,9.14,-1.35,-0.05,2.0
1758089315.51421,1758089305.56167,0.0,0.0,0.0,7.50575,-13.06344,-4.81285,9.14,-1.35,-0.05,2.0
1758089315.53316,1758089305.57167,0.0,0.0,0.0,7.79223,-17.87628,-5.32851,9.04,-1.27,-0.06,2.0
1758089315.53423,1758089305.58167,0.0,0.0,0.0,8.02141,-19.82434,-4.98473,9.04,-1.27,-0.06,2.0
1758089315.55378,1758089305.59167,0.0,0.0,0.0,8.65166,-16.67307,-5.90147,9.58,-1.13,-0.17,2.0
1758089315.55819,1758089305.60167,0.0,0.0,0.0,9.11003,-8.42248,-6.53172,10.61,-1.2,0.15,2.0
1758089315.55888,1758089305.61167,0.0,0.0,0.0,9.96947,1.20321,-6.41713,10.61,-1.2,0.15,2.0
1758089315.57918,1758089305.62167,0.0,0.0,0.0,10.02676,8.136,-6.58902,10.8,-1.25,0.84,2.0
1758089315.58005,1758089305.63166,0.0,0.0,0.0,9.33921,10.94349,-7.62034,10.8,-1.25,0.84,2.0
1758089315.59802,1758089305.64166,0.0,0.0,0.0,9.05273,9.5684,-8.25059,9.93,-1.08,0.78,2.0
1758089315.59919,1758089305.65166,0.0,0.0,0.0,9.85487,3.26586,-8.76626,9.93,-1.08,0.78,2.0
1758089315.61818,1758089305.66166,0.0,0.0,0.0,10.8289,-3.60963,-10.19865,9.35,-1.12,0.09,2.0
1758089315.62025,1758089305.67166,0.0,0.0,0.0,13.98017,-27.1582,-7.96411,8.38,-1.47,-0.56,2.0
1758089315.63826,1758089305.68166,0.0,0.0,0.0,17.01685,-29.22085,-4.58366,8.38,-1.47,-0.56,2.0
1758089315.63943,1758089305.69166,0.0,0.0,0.0,19.19409,-20.74107,-2.40642,10.66,-1.88,-0.39,2.0
1758089315.65565,1758089305.70166,0.0,0.0,0.0,21.42862,-11.80293,-2.00535,10.66,-1.88,-0.39,2.0
1758089315.65926,1758089305.71166,0.0,0.0,0.0,21.31403,-8.25059,-2.92208,10.28,-1.87,0.52,2.0
1758089315.67867,1758089305.72166,0.0,0.0,0.0,20.05352,-3.95341,-3.83882,10.28,-1.87,0.52,2.0
1758089315.68069,1758089305.73166,0.0,0.0,0.0,17.81899,-1.14592,-4.52637,10.47,-1.27,1.15,2.0
1758089315.69905,1758089305.74166,0.0,0.0,0.0,14.32395,-2.34913,-5.15662,10.47,-1.27,1.15,2.0
1758089315.77855,1758089305.75166,0.0,0.0,0.0,12.49048,-3.72423,-4.58366,10.31,-0.57,1.15,2.0
1758089315.78316,1758089305.76166,0.0,0.0,0.0,10.71431,-6.18794,-3.26586,10.66,-0.27,1.37,2.0
1758089315.80816,1758089305.77166,0.0,0.0,0.0,8.70896,-10.31324,-1.71887,10.66,-0.27,1.37,2.0
1758089315.8088,1758089305.78166,0.0,0.0,0.0,5.32851,-14.09476,1.60428,11.63,0.11,1.77,2.0
1758089315.81877,1758089305.79166,0.0,0.0,0.0,2.23454,-13.34992,2.40642,11.63,0.11,1.77,2.0
1758089315.82095,1758089305.80166,0.0,0.0,0.0,-0.85944,-13.46451,2.06265,12.87,0.52,1.5,2.0
1758089315.82166,1758089305.81166,0.0,0.0,0.0,-3.38045,-13.98017,0.22918,12.87,0.52,1.5,2.0
1758089315.82362,1758089305.82166,0.0,0.0,0.0,-5.61499,-13.5218,-3.49504,12.01,0.36,0.8,2.0
1758089315.82669,1758089305.83166,0.0,0.0,0.0,-5.4431,-12.14671,-5.84417,10.69,-0.2,0.43,2.0
1758089315.83373,1758089305.84166,0.0,0.0,0.0,-4.1253,-11.11538,-7.39116,10.69,-0.2,0.43,2.0
1758089315.83428,1758089305.85166,0.0,0.0,0.0,-2.23454,-10.65701,-8.42248,9.69,-0.64,0.69,2.0
1758089315.8394,1758089305.86166,0.0,0.0,0.0,2.00535,-11.51645,-8.42248,9.69,-0.64,0.69,2.0
1758089315.84018,1758089305.87166,0.0,0.0,0.0,5.15662,-12.54778,-7.79223,9.1,-0.76,1.08,2.0
1758089315.84443,1758089305.88166,0.0,0.0,0.0,8.136,-13.69369,-7.10468,9.1,-0.76,1.08,2.0
1758089315.84508,1758089305.89166,0.0,0.0,0.0,11.97482,-14.49583,-5.90147,8.73,-0.49,1.48,2.0
1758089315.95844,1758089305.90166,0.0,0.0,0.0,13.98017,-15.24068,-5.15662,8.53,0.06,1.82,2.0
1758089315.98365,1758089305.91166,0.0,0.0,0.0,15.29797,-15.69904,-4.35448,8.53,0.06,1.82,2.0
1758089315.98415,1758089305.92166,0.0,0.0,0.0,15.75634,-15.87093,-3.83882,8.56,0.68,1.89,2.0
1758089315.98921,1758089305.93166,0.0,0.0,0.0,15.29797,-14.20935,-2.97938,8.56,0.68,1.89,2.0
1758089315.99394,1758089305.94166,0.0,0.0,0.0,14.43854,-12.49048,-2.6929,9.07,1.07,1.74,2.0
1758089316.00406,1758089305.95166,0.0,0.0,0.0,13.17803,-10.59972,-2.29183,9.07,1.07,1.74,2.0
1758089316.00523,1758089305.96166,0.0,0.0,0.0,11.22997,-8.65166,-1.77617,9.69,1.12,1.53,2.0
1758089316.01494,1758089305.97166,0.0,0.0,0.0,8.65166,-4.58366,-1.66158,10.36,1.05,1.27,2.0
1758089316.11367,1758089305.98166,0.0,0.0,0.0,6.8182,-1.3751,-1.3751,10.36,1.05,1.27,2.0
1758089316.11933,1758089305.99166,0.0,0.0,0.0,4.52637,0.74485,-1.77617,10.83,0.92,1.23,2.0
1758089316.12392,1758089306.00166,0.0,0.0,0.0,2.86479,3.49504,-2.00535,10.83,0.92,1.23,2.0
1758089316.12818,1758089306.01166,0.0,0.0,0.0,0.80214,6.24524,-2.00535,10.91,0.99,1.26,2.0
1758089316.12903,1758089306.02166,0.0,0.0,0.0,-0.17189,7.39116,-2.34913,10.91,0.99,1.26,2.0
1758089316.13383,1758089306.03166,0.0,0.0,0.0,-0.34377,9.91217,-2.6929,10.58,1.18,1.01,2.0
1758089316.13923,1758089306.04166,0.0,0.0,0.0,-0.34377,12.37589,-2.46372,10.58,1.18,1.01,2.0
1758089316.13968,1758089306.05166,0.0,0.0,0.0,-0.0573,11.57375,-2.86479,10.46,1.03,1.28,2.0
1758089316.14419,1758089306.06166,0.0,0.0,0.0,0.34377,10.65701,-3.09397,9.95,0.94,0.85,2.0
1758089316.14534,1758089306.07166,0.0,0.0,0.0,0.74485,10.25595,-3.20856,9.95,0.94,0.85,2.0
1758089316.14818,1758089306.08166,0.0,0.0,0.0,1.3178,9.4538,-3.32316,9.71,0.78,0.75,2.0
1758089316.14887,1758089306.09166,0.0,0.0,0.0,1.94806,6.70361,-3.38045,9.71,0.78,0.75,2.0
1758089316.1544,1758089306.10166,0.0,0.0,0.0,2.23454,5.27121,-3.03668,9.26,0.66,0.48,2.0
1758089316.15543,1758089306.11166,0.0,0.0,0.0,2.40642,4.98473,-2.97938,9.26,0.66,0.48,2.0
1758089316.1588,1758089306.12166,0.0,0.0,0.0,1.83346,4.81285,-2.6929,9.33,0.6,0.49,2.0
1758089316.16137,1758089306.13166,0.0,0.0,0.0,0.85944,3.95341,-2.46372,9.35,0.62,0.51,2.0
1758089316.16404,1758089306.14166,0.0,0.0,0.0,-0.11459,2.92208,-2.23454,9.35,0.62,0.51,2.0
1758089316.16478,1758089306.15166,0.0,0.0,0.0,-1.20321,2.34913,-1.94806,9.5,0.64,0.49,2.0
1758089316.16754,1758089306.16166,0.0,0.0,0.0,-3.09397,1.71887,-1.03132,9.5,0.64,0.49,2.0
1758089316.17313,1758089306.17166,0.0,0.0,0.0,-4.0107,1.48969,-0.22918,9.66,0.68,0.41,2.0
1758089316.17384,1758089306.18166,0.0,0.0,0.0,-4.81285,1.14592,0.34377,9.66,0.68,0.41,2.0
1758089316.17891,1758089306.19166,0.0,0.0,0.0,-5.61499,0.17189,1.08862,9.79,0.68,0.46,2.0
1758089316.18376,1758089306.20166,0.0,0.0,0.0,-6.7609,0.34377,2.23454,10.03,0.67,0.49,2.0
1758089316.18473,1758089306.21166,0.0,0.0,0.0,-7.39116,2.86479,2.63561,10.03,0.67,0.49,2.0
1758089316.18534,1758089306.22166,0.0,0.0,0.0,-7.96411,5.90147,3.09397,10.36,0.65,0.52,2.0
1758089316.18845,1758089306.23166,0.0,0.0,0.0,-8.30789,9.62569,3.66693,10.36,0.65,0.52,2.0
1758089316.20403,1758089306.24166,0.0,0.0,0.0,-8.88085,15.64175,4.35448,10.33,0.6,0.54,2.0
1758089316.20568,1758089306.25166,0.0,0.0,0.0,-8.93814,19.19409,5.15662,10.33,0.6,0.54,2.0
1758089316.22371,1758089306.26166,0.0,0.0,0.0,-9.28192,22.68913,5.90147,10.06,0.57,0.48,2.0
1758089316.22497,1758089306.27166,0.0,0.0,0.0,-9.62569,24.23611,6.41713,10.06,0.57,0.48,2.0
1758089316.24075,1758089306.28166,0.0,0.0,0.0,-10.19865,22.05888,6.87549,9.65,0.62,0.48,2.0
1758089316.24754,1758089306.29166,0.0,0.0,0.0,-10.65701,19.13679,7.04738,9.42,0.72,0.19,2.0
1758089316.26564,1758089306.30166,0.0,0.0,0.0,-11.51645,16.73037,6.99009,9.42,0.72,0.19,2.0
1758089316.33496,1758089306.31166,0.0,0.0,0.0,-12.89155,14.66772,6.58902,9.68,0.87,-0.07,2.0
1758089316.33891,1758089306.32166,0.0,0.0,0.0,-13.98017,12.08941,6.47442,9.68,0.87,-0.07,2.0
1758089316.34329,1758089306.33166,0.0,0.0,0.0,-15.69904,7.62034,6.13065,9.58,0.98,-0.02,2.0
1758089316.34392,1758089306.34166,0.0,0.0,0.0,-17.58981,2.46372,5.78687,9.58,0.98,-0.02,2.0
1758089316.34912,1758089306.35166,0.0,0.0,0.0,-21.02755,-4.69825,4.81285,9.31,1.05,-0.08,2.0
1758089316.35369,1758089306.36166,0.0,0.0,0.0,-23.49127,-8.88085,3.95341,9.36,1.08,-0.28,2.0
1758089316.35967,1758089306.37166,0.0,0.0,0.0,-25.8404,-12.37589,3.20856,9.36,1.08,-0.28,2.0
1758089316.36355,1758089306.38166,0.0,0.0,0.0,-27.78845,-14.32395,2.29183,9.6,1.04,-0.45,2.0
1758089316.51325,1758089306.39166,0.0,0.0,0.0,-30.13758,-16.84496,1.03132,9.6,1.04,-0.45,2.0
1758089316.51424,1758089306.40166,0.0,0.0,0.0,-30.93972,-19.82434,0.68755,9.64,0.98,-0.6,2.0
1758089316.51928,1758089306.41166,0.0,0.0,0.0,-31.56997,-21.7151,1.03132,9.64,0.98,-0.6,2.0
1758089316.52588,1758089306.42166,0.0,0.0,0.0,-31.62727,-20.85567,1.03132,9.59,0.81,-0.75,2.0
1758089316.61386,1758089306.43166,0.0,0.0,0.0,-31.16891,-18.10547,1.14592,9.76,0.73,-0.89,2.0
1758089316.61465,1758089306.44166,0.0,0.0,0.0,-31.28349,-15.75634,0.85944,9.76,0.73,-0.89,2.0
1758089316.6185,1758089306.45166,0.0,0.0,0.0,-31.2262,-15.12609,1.71887,9.64,0.74,-0.84,2.0
1758089316.62288,1758089306.46166,0.0,0.0,0.0,-31.97105,-15.0115,1.48969,9.64,0.74,-0.84,2.0
1758089316.6235,1758089306.47166,0.0,0.0,0.0,-32.42941,-13.98017,3.26586,9.66,0.75,-0.65,2.0
1758089316.62554,1758089306.48166,0.0,0.0,0.0,-32.48671,-14.03747,4.35448,9.66,0.75,-0.65,2.0
1758089316.62616,1758089306.49166,0.0,0.0,0.0,-32.08564,-13.23533,4.92744,10.08,0.64,0.05,2.0
1758089316.62741,1758089306.50166,0.0,0.0,0.0,-30.76784,-13.98017,4.58366,10.08,0.64,0.05,2.0
1758089316.62804,1758089306.51166,0.0,0.0,0.0,-28.30412,-4.46907,3.26586,11.1,0.24,1.13,2.0
1758089316.62872,1758089306.52166,0.0,0.0,0.0,-26.24147,-12.08941,1.48969,11.88,-0.02,2.39,2.0
1758089316.63245,1758089306.53166,0.0,0.0,0.0,-26.41335,-32.71589,-4.69825,11.88,-0.02,2.39,2.0
1758089316.63315,1758089306.54166,0.0,0.0,0.0,-21.7724,-42.97184,-12.43318,11.71,-0.24,2.15,2.0
1758089316.63423,1758089306.55166,0.0,0.0,0.0,-17.30333,-35.98175,-15.29797,11.71,-0.24,2.15,2.0
1758089316.63582,1758089306.56166,0.0,0.0,0.0,-13.46451,-30.19488,-16.73037,13.64,-1.23,1.26,2.0
1758089316.63932,1758089306.57166,0.0,0.0,0.0,-9.96947,-22.74642,-15.35527,13.64,-1.23,1.26,2.0
1758089316.64444,1758089306.58166,0.0,0.0,0.0,-7.39116,-11.91752,-8.47978,12.23,-1.29,0.83,2.0
1758089316.64945,1758089306.59166,0.0,0.0,0.0,-7.10468,-7.33386,-2.63561,10.52,-0.38,0.79,2.0
1758089316.65312,1758089306.60166,0.0,0.0,0.0,-7.62034,-3.20856,2.11994,10.52,-0.38,0.79,2.0
1758089316.65422,1758089306.61166,0.0,0.0,0.0,-8.25059,0.74485,5.4431,10.23,0.19,0.77,2.0
1758089316.65907,1758089306.62166,0.0,0.0,0.0,-9.4538,3.09397,7.21927,10.23,0.19,0.77,2.0
1758089316.66091,1758089306.63166,0.0,0.0,0.0,-10.94349,2.92208,6.53172,10.25,0.27,0.84,2.0
1758089316.66145,1758089306.64166,0.0,0.0,0.0,-12.37589,1.83346,4.87014,10.25,0.27,0.84,2.0
1758089316.66352,1758089306.65166,0.0,0.0,0.0,-13.75099,-0.11459,3.09397,9.97,0.17,0.99,2.0
1758089316.66414,1758089306.66166,0.0,0.0,0.0,-14.83961,-1.83346,0.51566,9.58,-0.29,1.14,2.0
1758089316.66489,1758089306.67166,0.0,0.0,0.0,-15.35527,-2.06265,-0.34377,9.58,-0.29,1.14,2.0
1758089316.67432,1758089306.68166,0.0,0.0,0.0,-15.87093,-3.32316,-0.22918,9.1,-0.67,1.34,2.0
1758089316.67585,1758089306.69166,0.0,0.0,0.0,-16.04282,-5.27121,1.03132,9.1,-0.67,1.34,2.0
1758089316.67822,1758089306.70166,0.0,0.0,0.0,-15.92823,-7.84952,2.6929,8.71,-0.89,1.59,2.0
1758089316.67941,1758089306.71166,0.0,0.0,0.0,-15.35527,-8.70896,4.35448,8.71,-0.89,1.59,2.0
1758089316.68326,1758089306.72166,0.0,0.0,0.0,-14.43854,-8.136,5.78687,8.89,-1.07,1.68,2.0
1758089316.68407,1758089306.73166,0.0,0.0,0.0,-12.14671,-5.32851,7.10468,8.89,-1.07,1.68,2.0
1758089316.68915,1758089306.74166,0.0,0.0,0.0,-10.19865,-2.7502,7.50575,9.41,-1.22,1.64,2.0
1758089316.70904,1758089306.75166,0.0,0.0,0.0,-8.36518,0.22918,7.50575,10.02,-1.34,1.36,2.0
1758089316.71,1758089306.76166,0.0,0.0,0.0,-6.53172,3.72423,7.39116,10.02,-1.34,1.36,2.0
1758089316.72802,1758089306.77166,0.0,0.0,0.0,-4.18259,9.85487,7.10468,10.59,-1.43,1.08,2.0
1758089316.72919,1758089306.78166,0.0,0.0,0.0,-2.92208,13.98017,7.21927,10.59,-1.43,1.08,2.0
1758089316.74789,1758089306.79166,0.0,0.0,0.0,-2.00535,17.53251,7.44845,10.93,-1.4,0.86,2.0
1758089316.74914,1758089306.80166,0.0,0.0,0.0,-1.3751,20.3973,8.0787,10.93,-1.4,0.86,2.0
1758089316.76804,1758089306.81166,0.0,0.0,0.0,-1.60428,21.7724,8.88085,10.76,-1.25,0.67,2.0
1758089316.76921,1758089306.82166,0.0,0.0,0.0,-2.34913,21.88699,9.33921,10.46,-1.07,0.53,2.0
1758089316.78803,1758089306.83166,0.0,0.0,0.0,-3.09397,22.00158,9.39651,10.46,-1.07,0.53,2.0
1758089316.78901,1758089306.84166,0.0,0.0,0.0,-3.83882,21.88699,9.33921,10.26,-0.93,0.48,2.0
