timeStamp,timeStampAlign,roll,pitch,yaw,gyro_x,gyro_y,gyro_z,acc_x,acc_y,acc_z,flag_num
1758074629.91508,1758074629.67375,0.0,0.0,0.0,64.22858,-15.92823,5.95876,9.01,-1.88,1.68,7.0
1758074629.97123,1758074629.68375,0.0,0.0,0.0,61.76485,-26.98631,4.52637,9.01,-1.88,1.68,7.0
1758074629.97999,1758074629.69375,0.0,0.0,0.0,58.15522,-32.71589,1.83346,10.04,-1.19,1.63,7.0
1758074629.98178,1758074629.70375,0.0,0.0,0.0,51.22243,-26.35606,-2.06265,10.04,-1.19,1.63,7.0
1758074629.99054,1758074629.71375,0.0,0.0,0.0,47.38361,-10.08406,-2.23454,12.75,-0.39,2.27,7.0
1758074629.99085,1758074629.72375,0.0,0.0,0.0,42.62806,4.35448,-4.23989,12.75,-0.39,2.27,7.0
1758074630.00088,1758074629.73375,0.0,0.0,0.0,36.32552,13.98017,-8.65166,12.58,0.06,3.77,7.0
1758074630.06993,1758074629.74375,0.0,0.0,0.0,29.50733,7.33386,-11.45916,8.79,-0.04,3.9,7.0
1758074630.07497,1758074629.75375,0.0,0.0,0.0,22.91831,-24.86637,-12.43318,8.79,-0.04,3.9,7.0
1758074630.0831,1758074629.76375,0.0,0.0,0.0,20.74107,-45.37826,-7.21927,6.68,-0.43,1.48,7.0
1758074630.08544,1758074629.77375,0.0,0.0,0.0,21.60051,-43.54479,-0.85944,6.68,-0.43,1.48,7.0
1758074630.08975,1758074629.78375,0.0,0.0,0.0,22.34536,-32.77319,1.66158,10.34,-1.13,1.08,7.0
1758074630.0901,1758074629.79375,0.0,0.0,0.0,23.83505,-24.00693,4.46907,10.34,-1.13,1.08,7.0
1758074630.09132,1758074629.80375,0.0,0.0,0.0,25.72581,-15.87093,5.84417,10.48,-1.68,1.99,7.0
1758074630.09527,1758074629.81375,0.0,0.0,0.0,27.33009,-6.58902,5.72958,10.48,-1.68,3.29,7.0
1758074630.10043,1758074629.82375,0.0,0.0,0.0,27.2155,-2.11994,3.60963,10.0,-1.85,3.29,7.0
1758074630.10174,1758074629.83375,0.0,0.0,0.0,26.52795,1.83346,1.48969,9.97,-1.31,2.46,7.0
1758074630.10963,1758074629.84375,0.0,0.0,0.0,25.38203,5.32851,-0.0573,9.97,-1.31,2.46,7.0
1758074630.11024,1758074629.85375,0.0,0.0,0.0,22.51724,11.22997,-1.71887,10.34,-0.51,2.66,7.0
1758074630.11128,1758074629.86375,0.0,0.0,0.0,20.34,12.37589,-2.57831,10.34,-0.51,2.66,7.0
1758074630.12851,1758074629.87375,0.0,0.0,0.0,17.6471,12.43318,-3.55234,9.79,0.01,2.63,7.0
1758074630.12983,1758074629.88375,0.0,0.0,0.0,15.29797,12.71966,-4.0107,9.79,0.01,2.63,7.0
1758074630.1499,1758074629.89375,0.0,0.0,0.0,12.204,14.32395,-4.29718,9.41,0.16,2.94,7.0
1758074630.15024,1758074629.90375,0.0,0.0,0.0,10.71431,16.10011,-4.46907,9.43,0.12,2.86,7.0
1758074630.16932,1758074629.91375,0.0,0.0,0.0,10.02676,17.76169,-3.83882,9.43,0.12,2.86,7.0
1758074630.17071,1758074629.92375,0.0,0.0,0.0,9.74028,19.82434,-4.1253,9.66,0.0,2.81,7.0
1758074630.17533,1758074629.93375,0.0,0.0,0.0,10.65701,21.7724,-3.38045,9.66,0.0,2.81,7.0
1758074630.1896,1758074629.94375,0.0,0.0,0.0,11.86023,20.11082,-3.26586,9.8,-0.23,2.93,7.0
1758074630.2055,1758074629.95375,0.0,0.0,0.0,13.40721,16.73037,-3.60963,9.8,-0.23,2.93,7.0
1758074630.20989,1758074629.96375,0.0,0.0,0.0,16.272,13.00614,-4.64096,9.54,-0.54,3.04,7.0
1758074630.22576,1758074629.97375,0.0,0.0,0.0,18.27736,10.02676,-5.84417,9.61,-0.73,2.94,7.0
1758074630.23053,1758074629.98375,0.0,0.0,0.0,20.05352,7.39116,-7.62034,9.61,-0.73,2.94,7.0
1758074630.24576,1758074629.99375,0.0,0.0,0.0,21.48592,4.29718,-9.33921,9.4,-0.64,3.08,7.0
1758074630.25052,1758074630.00375,0.0,0.0,0.0,22.68913,1.03132,-11.63104,9.4,-0.64,3.08,7.0
1758074630.26556,1758074630.01375,0.0,0.0,0.0,22.68913,-0.45837,-12.83425,9.27,-0.3,3.25,7.0
1758074630.27112,1758074630.02375,0.0,0.0,0.0,22.40265,-0.57296,-13.46451,9.27,-0.3,3.25,7.0
1758074630.28556,1758074630.03375,0.0,0.0,0.0,21.6578,-1.3178,-13.98017,9.28,0.07,3.41,7.0
1758074630.2903,1758074630.04375,0.0,0.0,0.0,20.97026,-1.3178,-14.03747,9.22,0.33,3.37,7.0
1758074630.30593,1758074630.05375,0.0,0.0,0.0,21.31403,-1.83346,-12.83425,9.22,0.33,3.37,7.0
1758074630.31074,1758074630.06375,0.0,0.0,0.0,21.94428,-2.86479,-11.22997,9.2,0.32,3.44,7.0
1758074630.31632,1758074630.07375,0.0,0.0,0.0,22.97561,-3.32316,-9.05273,9.2,0.32,3.44,7.0
1758074630.33556,1758074630.08375,0.0,0.0,0.0,24.63719,-3.83882,-5.72958,9.37,0.13,3.43,7.0
1758074630.34025,1758074630.09375,0.0,0.0,0.0,25.72581,-4.18259,-3.89611,9.37,0.13,3.43,7.0
1758074630.35584,1758074630.10375,0.0,0.0,0.0,26.35606,-2.97938,-2.63561,9.62,0.04,3.59,7.0
1758074630.36013,1758074630.11375,0.0,0.0,0.0,26.69983,-1.20321,-1.66158,9.62,0.04,3.59,7.0
1758074630.37591,1758074630.12375,0.0,0.0,0.0,26.75713,0.0,-1.03132,9.78,0.13,3.69,7.0
1758074630.38036,1758074630.13375,0.0,0.0,0.0,26.12688,0.11459,-1.20321,9.47,0.56,3.5,7.0
1758074630.39595,1758074630.14375,0.0,0.0,0.0,24.86637,1.48969,-1.43239,9.47,0.56,3.5,7.0
1758074630.40032,1758074630.15375,0.0,0.0,0.0,23.31938,3.03668,-2.29183,9.54,1.1,3.3,7.0
1758074630.41603,1758074630.16375,0.0,0.0,0.0,20.45459,5.27121,-2.7502,9.54,1.1,3.3,7.0
1758074630.42002,1758074630.17375,0.0,0.0,0.0,18.79302,7.84952,-3.09397,9.36,1.46,2.93,7.0
1758074630.43606,1758074630.18375,0.0,0.0,0.0,17.30333,10.54242,-3.32316,9.36,1.46,2.93,7.0
1758074630.43848,1758074630.19375,0.0,0.0,0.0,15.29797,12.54778,-3.32316,9.28,1.43,2.94,7.0
1758074630.45537,1758074630.20375,0.0,0.0,0.0,14.38124,13.34992,-3.09397,9.07,1.16,2.87,7.0
1758074630.45764,1758074630.21375,0.0,0.0,0.0,13.86558,12.14671,-2.57831,9.07,1.16,2.87,7.0
1758074630.47459,1758074630.22375,0.0,0.0,0.0,13.17803,9.96947,-1.83346,8.97,0.92,2.81,7.0
1758074630.47577,1758074630.23375,0.0,0.0,0.0,12.37589,8.65166,-1.43239,8.97,0.92,2.81,7.0
1758074630.49102,1758074630.24375,0.0,0.0,0.0,11.86023,8.42248,-1.03132,9.21,0.85,2.56,7.0
1758074630.49346,1758074630.25375,0.0,0.0,0.0,11.22997,8.59437,-0.40107,9.21,0.85,2.56,7.0
1758074630.50991,1758074630.26375,0.0,0.0,0.0,10.48513,9.05273,0.17189,9.33,0.97,2.67,7.0
1758074630.52567,1758074630.27375,0.0,0.0,0.0,9.05273,9.4538,1.48969,9.43,1.17,2.84,7.0
1758074630.53088,1758074630.28375,0.0,0.0,0.0,7.67763,10.8289,1.71887,9.43,1.17,2.84,7.0
1758074630.54592,1758074630.29375,0.0,0.0,0.0,6.58902,12.2613,2.86479,9.66,1.29,2.76,7.0
1758074630.55012,1758074630.30375,0.0,0.0,0.0,4.81285,13.40721,3.38045,9.66,1.29,2.76,7.0
1758074630.56577,1758074630.31375,0.0,0.0,0.0,2.63561,14.20935,4.1253,9.56,1.23,2.8,7.0
1758074630.5701,1758074630.32375,0.0,0.0,0.0,1.03132,14.66772,4.46907,9.56,1.23,2.8,7.0
1758074630.58574,1758074630.33375,0.0,0.0,0.0,-0.80214,14.78231,4.52637,9.42,1.11,2.73,7.0
1758074630.59044,1758074630.34375,0.0,0.0,0.0,-2.7502,14.15206,4.58366,9.42,1.11,2.73,7.0
1758074630.60566,1758074630.35375,0.0,0.0,0.0,-5.90147,11.91752,5.09932,9.27,1.04,2.67,7.0
1758074630.6109,1758074630.36375,0.0,0.0,0.0,-8.93814,10.08406,5.4431,8.97,1.04,2.67,7.0
1758074630.62575,1758074630.37375,0.0,0.0,0.0,-11.91752,7.67763,5.61499,8.97,1.04,2.67,7.0
1758074630.62935,1758074630.38375,0.0,0.0,0.0,-16.61578,4.81285,6.07335,8.58,1.08,2.66,7.0
1758074630.6448,1758074630.39375,0.0,0.0,0.0,-19.82434,0.22918,6.07335,8.58,1.08,2.66,7.0
1758074630.646,1758074630.40375,0.0,0.0,0.0,-22.86102,-1.14592,6.41713,8.47,1.22,2.66,7.0
1758074630.66106,1758074630.41375,0.0,0.0,0.0,-25.49662,-2.34913,6.87549,8.47,1.22,2.66,7.0
1758074630.66997,1758074630.42375,0.0,0.0,0.0,-28.87707,-6.7609,8.0787,8.53,1.26,2.72,7.0
1758074630.68517,1758074630.43375,0.0,0.0,0.0,-31.39809,-10.71431,9.11003,8.41,1.13,2.67,7.0
1758074630.686,1758074630.44375,0.0,0.0,0.0,-34.60666,-14.43854,9.39651,8.41,1.13,2.67,7.0
1758074630.70083,1758074630.45375,0.0,0.0,0.0,-38.50277,-18.56383,8.99544,8.6,1.05,2.52,7.0
1758074630.70597,1758074630.46375,0.0,0.0,0.0,-45.77933,-22.57454,6.8182,8.6,1.05,2.52,7.0
1758074630.7211,1758074630.47375,0.0,0.0,0.0,-50.93595,-24.75178,4.46907,8.82,1.2,2.39,7.0
1758074630.72361,1758074630.48375,0.0,0.0,0.0,-54.77477,-31.28349,2.00535,8.82,1.2,2.39,7.0
1758074630.74009,1758074630.49375,0.0,0.0,0.0,-57.75415,-37.92981,0.68755,8.62,1.25,2.23,7.0
1758074630.75612,1758074630.50375,0.0,0.0,0.0,-59.18654,-41.88322,0.57296,9.17,0.92,2.08,7.0
1758074630.75784,1758074630.51375,0.0,0.0,0.0,-59.75951,-44.17505,0.85944,9.17,0.92,2.08,7.0
1758074630.77512,1758074630.52375,0.0,0.0,0.0,-58.3844,-31.45539,4.64096,10.23,0.73,1.95,7.0
1758074630.77713,1758074630.53375,0.0,0.0,0.0,-62.28051,-27.67386,0.0,10.23,0.73,1.95,7.0
1758074630.79609,1758074630.54375,0.0,0.0,0.0,-69.04142,-33.63263,-3.03668,9.41,0.49,2.67,7.0
1758074630.87085,1758074630.55375,0.0,0.0,0.0,-72.65105,-34.77854,-6.47442,9.41,0.49,2.67,7.0
1758074630.90047,1758074630.56375,0.0,0.0,0.0,-73.3959,-30.65324,-8.136,9.22,0.54,2.47,7.0
1758074630.9051,1758074630.57375,0.0,0.0,0.0,-72.88023,-28.07493,-7.39116,9.22,0.54,2.47,7.0
1758074630.90956,1758074630.58375,0.0,0.0,0.0,-69.38519,-24.57989,-4.35448,9.3,0.58,1.51,7.0
1758074630.91576,1758074630.59375,0.0,0.0,0.0,-65.48907,-20.79837,0.68755,9.83,0.05,1.73,7.0
1758074630.91853,1758074630.60375,0.0,0.0,0.0,-60.73353,-10.8289,4.81285,9.83,0.05,1.73,7.0
1758074630.92082,1758074630.61375,0.0,0.0,0.0,-52.48294,-7.44845,11.51645,10.33,-0.7,1.65,7.0
1758074630.94414,1758074630.62375,0.0,0.0,0.0,-47.49821,-7.73493,14.66772,10.33,-0.7,1.65,7.0
1758074630.94607,1758074630.63375,0.0,0.0,0.0,-43.37291,-9.74028,16.38659,9.76,-1.46,2.08,7.0
1758074630.95576,1758074630.64375,0.0,0.0,0.0,-40.10705,-12.89155,17.13144,9.76,-1.46,2.08,7.0
1758074630.95748,1758074630.65375,0.0,0.0,0.0,-36.32552,-15.35527,16.38659,9.58,-1.81,1.56,7.0
1758074630.96527,1758074630.66375,0.0,0.0,0.0,-34.60666,-15.92823,15.29797,9.65,-1.68,1.67,7.0
1758074630.96606,1758074630.67375,0.0,0.0,0.0,-33.46074,-16.55848,14.20935,9.65,-1.68,1.67,7.0
1758074630.97621,1758074630.68375,0.0,0.0,0.0,-32.6013,-17.18874,13.5791,9.65,-1.04,1.74,7.0
1758074630.97733,1758074630.69375,0.0,0.0,0.0,-32.83048,-18.90761,13.34992,9.65,-1.04,1.74,7.0
1758074631.01002,1758074630.70375,0.0,0.0,0.0,-33.74722,-20.62648,13.40721,9.76,-0.3,2.03,7.0
1758074631.01098,1758074630.71375,0.0,0.0,0.0,-34.72124,-20.62648,13.40721,9.76,-0.3,2.03,7.0
1758074631.01363,1758074630.72375,0.0,0.0,0.0,-35.00772,-19.13679,13.5218,10.38,0.02,1.97,7.0
1758074631.01525,1758074630.73375,0.0,0.0,0.0,-34.0337,-18.33465,13.46451,10.66,-0.28,1.98,7.0
1758074631.01649,1758074630.74375,0.0,0.0,0.0,-32.88778,-20.68378,12.89155,10.66,-0.28,1.98,7.0
1758074631.02033,1758074630.75375,0.0,0.0,0.0,-31.74186,-24.4653,11.34457,9.92,-0.75,2.1,7.0
1758074631.0207,1758074630.76375,0.0,0.0,0.0,-30.76784,-26.81443,9.74028,9.92,-0.75,2.1,7.0
1758074631.02592,1758074630.77375,0.0,0.0,0.0,-28.93437,-24.12152,7.96411,9.86,-1.05,1.73,7.0
1758074631.031,1758074630.78375,0.0,0.0,0.0,-27.04361,-19.82434,7.73493,9.86,-1.05,1.73,7.0
1758074631.035,1758074630.79375,0.0,0.0,0.0,-24.35071,-16.21471,7.96411,10.11,-1.29,1.63,7.0
1758074631.05132,1758074630.80375,0.0,0.0,0.0,-19.82434,-13.98017,8.136,10.11,-1.29,1.63,7.0
1758074631.05248,1758074630.81375,0.0,0.0,0.0,-16.50119,-9.28192,8.88085,9.73,-1.27,1.65,7.0
1758074631.07006,1758074630.82375,0.0,0.0,0.0,-13.17803,-7.04738,9.74028,9.75,-1.25,1.46,7.0
1758074631.08872,1758074630.83375,0.0,0.0,0.0,-10.54242,-5.90147,10.8289,9.75,-1.25,1.46,7.0
1758074631.09071,1758074630.84375,0.0,0.0,0.0,-7.16197,-3.26586,12.37589,9.97,-1.33,1.31,7.0
1758074631.10846,1758074630.85375,0.0,0.0,0.0,-5.32851,0.0573,12.49048,9.97,-1.33,1.31,7.0
1758074631.11046,1758074630.86375,0.0,0.0,0.0,-3.26586,2.63561,12.60507,10.91,-1.59,1.39,7.0
1758074631.13056,1758074630.87375,0.0,0.0,0.0,-1.60428,3.09397,11.97482,10.91,-1.59,1.39,7.0
1758074631.1316,1758074630.88375,0.0,0.0,0.0,0.0573,-0.45837,10.25595,11.17,-2.07,2.01,7.0
1758074631.13307,1758074630.89375,0.0,0.0,0.0,0.34377,-4.0107,8.0787,11.28,-2.53,2.74,7.0
1758074631.15109,1758074630.90375,0.0,0.0,0.0,0.51566,-5.84417,5.32851,11.28,-2.53,2.74,7.0
1758074631.22574,1758074630.91375,0.0,0.0,0.0,-0.17189,-8.88085,1.08862,11.79,-2.57,2.8,7.0
1758074631.23005,1758074630.92375,0.0,0.0,0.0,0.51566,-6.7609,-4.35448,11.79,-2.57,2.8,7.0
1758074631.23096,1758074630.93375,0.0,0.0,0.0,1.66158,-2.34913,-4.98473,12.17,-2.08,2.5,7.0
1758074631.2359,1758074630.94375,0.0,0.0,0.0,2.63561,-0.45837,-3.32316,12.17,-2.08,2.5,7.0
1758074631.23921,1758074630.95375,0.0,0.0,0.0,3.20856,-1.20321,0.17189,10.73,-1.02,2.24,7.0
1758074631.24568,1758074630.96375,0.0,0.0,0.0,3.03668,-2.97938,7.39116,9.3,-0.57,2.33,7.0
1758074631.25032,1758074630.97375,0.0,0.0,0.0,2.23454,-4.64096,12.204,9.3,-0.57,2.33,7.0
1758074631.25158,1758074630.98375,0.0,0.0,0.0,0.74485,-5.50039,15.58445,8.73,-0.83,2.27,7.0
1758074631.25298,1758074630.99375,0.0,0.0,0.0,-1.48969,-5.84417,17.53251,8.73,-0.83,2.27,7.0
1758074631.25381,1758074631.00375,0.0,0.0,0.0,-6.07335,-3.32316,16.95955,8.65,-1.15,2.22,7.0
1758074631.25564,1758074631.01375,0.0,0.0,0.0,-9.85487,-0.40107,15.24068,8.65,-1.15,2.22,7.0
1758074631.27233,1758074631.02375,0.0,0.0,0.0,-14.20935,3.26586,12.204,8.61,-1.31,1.78,7.0
1758074631.27322,1758074631.03375,0.0,0.0,0.0,-20.74107,12.14671,6.07335,8.61,-1.31,1.78,7.0
1758074631.28826,1758074631.04375,0.0,0.0,0.0,-24.17882,19.82434,1.66158,9.03,-1.59,1.41,7.0
1758074631.30558,1758074631.05375,0.0,0.0,0.0,-26.52795,28.76248,-3.09397,10.1,-2.33,1.27,7.0
1758074631.30995,1758074631.06375,0.0,0.0,0.0,-26.81443,35.75257,-6.99009,10.1,-2.33,1.27,7.0
1758074631.32559,1758074631.07375,0.0,0.0,0.0,-25.26744,37.29956,-11.22997,10.4,-3.18,1.4,7.0
1758074631.32836,1758074631.08375,0.0,0.0,0.0,-22.63183,35.06502,-12.77696,10.4,-3.18,1.4,7.0
1758074631.3434,1758074631.09375,0.0,0.0,0.0,-18.73572,33.40344,-12.71966,10.61,-3.6,1.59,7.0
1758074631.34559,1758074631.10375,0.0,0.0,0.0,-13.98017,30.65324,-11.00079,10.61,-3.6,1.59,7.0
1758074631.36054,1758074631.11375,0.0,0.0,0.0,-5.84417,24.98096,-5.90147,10.94,-3.49,1.35,7.0
1758074631.36571,1758074631.12375,0.0,0.0,0.0,-0.74485,21.6578,-1.77617,10.36,-2.95,1.1,7.0
1758074631.38488,1758074631.13375,0.0,0.0,0.0,3.72423,18.44924,2.29183,10.36,-2.95,1.1,7.0
1758074631.38607,1758074631.14375,0.0,0.0,0.0,7.50575,14.66772,5.72958,9.37,-2.49,1.03,7.0
1758074631.40556,1758074631.15375,0.0,0.0,0.0,11.11538,9.22462,8.42248,9.37,-2.49,1.03,7.0
1758074631.41046,1758074631.16375,0.0,0.0,0.0,12.14671,4.92744,8.42248,8.58,-2.12,1.13,7.0
1758074631.42534,1758074631.17375,0.0,0.0,0.0,12.204,2.6929,7.21927,8.58,-2.12,1.13,7.0
1758074631.42925,1758074631.18375,0.0,0.0,0.0,12.37589,5.09932,5.27121,8.82,-1.84,1.21,7.0
1758074631.4454,1758074631.19375,0.0,0.0,0.0,11.57375,10.25595,1.94806,9.63,-1.8,1.39,7.0
1758074631.45034,1758074631.20375,0.0,0.0,0.0,10.48513,12.43318,-0.68755,9.63,-1.8,1.39,7.0
1758074631.46564,1758074631.21375,0.0,0.0,0.0,9.4538,14.9542,-3.32316,9.6,-2.04,1.55,7.0
1758074631.46988,1758074631.22375,0.0,0.0,0.0,8.25059,17.36062,-7.39116,9.6,-2.04,1.55,7.0
1758074631.48562,1758074631.23375,0.0,0.0,0.0,7.79223,20.11082,-10.08406,9.51,-2.32,1.37,7.0
1758074631.49081,1758074631.24375,0.0,0.0,0.0,7.67763,21.7724,-12.49048,9.51,-2.32,1.37,7.0
1758074631.51033,1758074631.25375,0.0,0.0,0.0,8.25059,24.35071,-14.61043,9.41,-2.38,1.24,7.0
1758074631.51132,1758074631.26375,0.0,0.0,0.0,10.19865,27.78845,-16.61578,9.41,-2.38,1.24,7.0
1758074631.53066,1758074631.27375,0.0,0.0,0.0,11.97482,29.8511,-17.87628,9.49,-2.28,1.36,7.0
1758074631.53185,1758074631.28375,0.0,0.0,0.0,14.15206,33.11696,-18.9649,9.62,-2.33,1.79,7.0
1758074631.54984,1758074631.29375,0.0,0.0,0.0,17.30333,36.6693,-18.9649,9.62,-2.33,1.79,7.0
1758074631.55078,1758074631.30375,0.0,0.0,0.0,23.66316,38.56006,-16.3293,9.74,-2.45,2.11,7.0
1758074631.56988,1758074631.31375,0.0,0.0,0.0,29.10626,36.95578,-12.2613,9.74,-2.45,2.11,7.0
1758074631.57106,1758074631.32375,0.0,0.0,0.0,35.86716,33.86181,-7.16197,9.28,-2.5,2.09,7.0
1758074631.59064,1758074631.33375,0.0,0.0,0.0,42.34158,29.56462,-2.00535,9.28,-2.5,2.09,7.0
1758074631.59515,1758074631.34375,0.0,0.0,0.0,51.45161,22.68913,4.64096,8.87,-2.78,1.67,7.0
1758074631.59553,1758074631.35375,0.0,0.0,0.0,56.952,17.47521,8.136,8.63,-2.91,1.58,7.0
1758074631.61542,1758074631.36375,0.0,0.0,0.0,61.07731,12.204,9.96947,8.63,-2.91,1.58,7.0
1758074631.62098,1758074631.37375,0.0,0.0,0.0,63.8275,1.77617,10.65701,8.26,-2.67,1.6,7.0
1758074631.63544,1758074631.38375,0.0,0.0,0.0,64.22858,-20.11082,8.47978,8.26,-2.67,1.6,7.0
1758074631.64061,1758074631.39375,0.0,0.0,0.0,62.39511,-30.13758,5.09932,7.89,-2.18,1.22,7.0
1758074631.65555,1758074631.40375,0.0,0.0,0.0,60.38975,-21.7724,0.74485,7.89,-2.18,1.22,7.0
1758074631.66065,1758074631.41375,0.0,0.0,0.0,59.87409,-10.65701,-2.6929,10.78,-1.82,0.54,7.0
1758074631.67557,1758074631.42375,0.0,0.0,0.0,57.12389,0.74485,-5.55769,10.74,-1.54,2.16,7.0
1758074631.67698,1758074631.43375,0.0,0.0,0.0,52.76942,4.98473,-9.74028,10.74,-1.54,2.16,7.0
1758074631.69259,1758074631.44375,0.0,0.0,0.0,49.04519,4.29718,-13.80828,9.89,-1.0,3.28,7.0
1758074631.69585,1758074631.45375,0.0,0.0,0.0,41.36755,-24.23611,-19.88164,9.89,-1.0,3.28,7.0
1758074631.71232,1758074631.46375,0.0,0.0,0.0,42.91454,-49.79003,-15.41257,8.19,-0.34,2.44,7.0
1758074631.71621,1758074631.47375,0.0,0.0,0.0,43.37291,-58.55629,-12.14671,8.19,-0.34,2.44,7.0
1758074631.73252,1758074631.48375,0.0,0.0,0.0,43.37291,-60.79083,-9.11003,10.39,-0.38,1.3,7.0
1758074631.73458,1758074631.49375,0.0,0.0,0.0,44.46153,-55.06125,-5.4431,10.39,-0.38,2.07,7.0
1758074631.75085,1758074631.50375,0.0,0.0,0.0,44.46153,-47.95657,-2.92208,11.35,-0.91,2.07,7.0
1758074631.75527,1758074631.51375,0.0,0.0,0.0,42.74266,-39.70598,-1.83346,10.81,-1.72,3.99,7.0
1758074631.77088,1758074631.52375,0.0,0.0,0.0,39.99245,-33.11696,-1.08862,10.81,-1.72,3.99,7.0
1758074631.78817,1758074631.53375,0.0,0.0,0.0,32.48671,-25.26744,-1.60428,10.09,-1.52,3.44,7.0
1758074631.79082,1758074631.54375,0.0,0.0,0.0,26.06958,-19.42327,-1.77617,10.09,-1.52,3.44,7.0
1758074631.80562,1758074631.55375,0.0,0.0,0.0,19.36597,-12.37589,-2.57831,10.54,-0.57,2.72,7.0
1758074631.81078,1758074631.56375,0.0,0.0,0.0,13.46451,-4.58366,-4.18259,10.54,-0.57,2.72,7.0
1758074631.82589,1758074631.57375,0.0,0.0,0.0,6.99009,6.99009,-7.33386,10.85,0.32,2.21,7.0
1758074631.83033,1758074631.58375,0.0,0.0,0.0,4.87014,12.2613,-9.28192,10.37,0.41,2.21,7.0
1758074631.84563,1758074631.59375,0.0,0.0,0.0,3.89611,15.41257,-11.28727,10.37,0.41,2.21,7.0
1758074631.85035,1758074631.60375,0.0,0.0,0.0,4.29718,16.84496,-12.71966,9.64,-0.2,2.38,7.0
1758074631.86565,1758074631.61375,0.0,0.0,0.0,6.13065,15.75634,-13.69369,9.64,-0.2,2.38,7.0
1758074631.87115,1758074631.62375,0.0,0.0,0.0,7.96411,13.5218,-13.34992,9.36,-0.83,2.38,7.0
1758074631.88593,1758074631.63375,0.0,0.0,0.0,9.91217,11.34457,-12.2613,9.36,-0.83,2.38,7.0
1758074631.89111,1758074631.64375,0.0,0.0,0.0,13.40721,8.93814,-9.62569,9.39,-1.28,2.39,7.0
1758074631.90567,1758074631.65375,0.0,0.0,0.0,15.64175,5.4431,-7.84952,9.33,-1.47,2.34,7.0
1758074631.91003,1758074631.66375,0.0,0.0,0.0,17.6471,2.63561,-6.13065,9.33,-1.47,2.34,7.0
1758074631.92592,1758074631.67375,0.0,0.0,0.0,19.25138,0.51566,-5.27121,9.26,-1.42,2.24,7.0
1758074631.93107,1758074631.68375,0.0,0.0,0.0,21.7151,0.80214,-5.21392,9.26,-1.42,2.24,7.0
1758074631.97004,1758074631.69375,0.0,0.0,0.0,22.57454,1.3178,-6.07335,9.71,-1.05,2.24,7.0
1758074631.97596,1758074631.70375,0.0,0.0,0.0,23.20479,1.20321,-7.50575,9.71,-1.05,2.24,7.0
1758074631.97694,1758074631.71375,0.0,0.0,0.0,23.20479,0.0573,-8.93814,9.76,-0.54,2.4,7.0
1758074631.98049,1758074631.72375,0.0,0.0,0.0,22.34536,-0.68755,-11.00079,9.76,0.06,2.5,7.0
1758074631.98084,1758074631.73375,0.0,0.0,0.0,21.60051,-2.92208,-11.80293,9.76,0.06,2.5,7.0
1758074631.99008,1758074631.74375,0.0,0.0,0.0,20.34,-3.09397,-12.83425,9.6,0.56,2.55,7.0
1758074632.0059,1758074631.75375,0.0,0.0,0.0,19.19409,-4.35448,-13.23533,9.6,0.56,2.55,7.0
1758074632.012,1758074631.76375,0.0,0.0,0.0,17.30333,-4.92744,-13.40721,9.29,0.62,2.72,7.0
1758074632.02781,1758074631.77375,0.0,0.0,0.0,16.73037,-3.38045,-13.06344,9.29,0.62,2.72,7.0
1758074632.02986,1758074631.78375,0.0,0.0,0.0,16.61578,-1.71887,-12.2613,9.19,0.34,2.83,7.0
1758074632.0456,1758074631.79375,0.0,0.0,0.0,16.90226,0.34377,-11.22997,9.19,0.34,2.83,7.0
1758074632.04997,1758074631.80375,0.0,0.0,0.0,17.30333,1.94806,-9.11003,9.0,0.11,3.03,7.0
1758074632.06561,1758074631.81375,0.0,0.0,0.0,17.6471,2.57831,-7.44845,9.0,-0.02,3.02,7.0
1758074632.07078,1758074631.82375,0.0,0.0,0.0,18.16276,3.20856,-5.84417,9.0,-0.02,3.02,7.0
1758074632.07392,1758074631.83375,0.0,0.0,0.0,18.73572,2.86479,-3.66693,9.42,0.13,2.93,7.0
1758074632.08998,1758074631.84375,0.0,0.0,0.0,19.36597,2.34913,-2.40642,9.42,0.13,2.93,7.0
1758074632.10574,1758074631.85375,0.0,0.0,0.0,19.36597,2.63561,-1.3178,9.94,0.48,2.93,7.0
1758074632.11017,1758074631.86375,0.0,0.0,0.0,18.73572,2.40642,-0.51566,9.94,0.48,2.93,7.0
1758074632.12595,1758074631.87375,0.0,0.0,0.0,17.01685,1.14592,-0.11459,10.12,0.78,2.93,7.0
1758074632.13205,1758074631.88375,0.0,0.0,0.0,15.58445,-0.17189,-0.22918,9.63,1.02,2.98,7.0
1758074632.15032,1758074631.89375,0.0,0.0,0.0,13.5218,-1.83346,-0.68755,9.63,1.02,2.98,7.0
1758074632.1515,1758074631.90375,0.0,0.0,0.0,11.45916,-3.38045,-1.03132,9.34,1.28,2.64,7.0
1758074632.17009,1758074631.91375,0.0,0.0,0.0,8.0787,-4.52637,-1.71887,9.34,1.28,2.64,7.0
1758074632.17177,1758074631.92375,0.0,0.0,0.0,5.84417,-3.95341,-1.83346,9.5,1.5,2.39,7.0
1758074632.18016,1758074631.93375,0.0,0.0,0.0,3.66693,-2.40642,-1.83346,9.5,1.5,2.39,7.0
1758074632.19612,1758074631.94375,0.0,0.0,0.0,1.66158,0.0,-1.77617,9.87,1.55,2.38,7.0
1758074632.20535,1758074631.95375,0.0,0.0,0.0,-0.45837,3.89611,-1.60428,10.0,1.41,2.45,7.0
1758074632.20577,1758074631.96375,0.0,0.0,0.0,-1.3751,5.84417,-1.20321,10.0,1.41,2.45,7.0
1758074632.22492,1758074631.97375,0.0,0.0,0.0,-1.83346,8.02141,-1.03132,9.9,1.13,2.46,7.0
1758074632.23039,1758074631.98375,0.0,0.0,0.0,-2.00535,8.76626,-0.85944,9.9,1.13,2.46,7.0
1758074632.24514,1758074631.99375,0.0,0.0,0.0,-1.66158,8.30789,-0.85944,9.58,0.87,2.44,7.0
1758074632.25016,1758074632.00375,0.0,0.0,0.0,-1.43239,7.44845,-1.20321,9.58,0.87,2.44,7.0
1758074632.26494,1758074632.01375,0.0,0.0,0.0,-0.97403,6.35983,-1.3751,9.32,0.77,2.4,7.0
1758074632.26861,1758074632.02375,0.0,0.0,0.0,-0.45837,5.50039,-1.3178,9.32,0.77,2.4,7.0
1758074632.28498,1758074632.03375,0.0,0.0,0.0,-0.68755,4.87014,-1.14592,9.22,0.92,2.37,7.0
1758074632.29016,1758074632.04375,0.0,0.0,0.0,-1.08862,4.87014,-0.80214,9.23,1.19,2.39,7.0
1758074632.3051,1758074632.05375,0.0,0.0,0.0,-2.11994,4.29718,-0.40107,9.23,1.19,2.39,7.0
1758074632.31023,1758074632.06375,0.0,0.0,0.0,-4.46907,3.09397,0.40107,9.09,1.42,2.35,7.0
1758074632.32504,1758074632.07375,0.0,0.0,0.0,-6.18794,1.77617,1.48969,9.09,1.42,2.35,7.0
1758074632.3302,1758074632.08375,0.0,0.0,0.0,-7.67763,1.48969,2.34913,9.05,1.46,2.19,7.0
1758074632.34524,1758074632.09375,0.0,0.0,0.0,-9.05273,1.14592,3.26586,9.05,1.46,2.19,7.0
1758074632.3497,1758074632.10375,0.0,0.0,0.0,-11.17268,0.0573,4.18259,9.1,1.27,2.24,7.0
1758074632.36527,1758074632.11375,0.0,0.0,0.0,-12.83425,-0.34377,4.23989,9.22,0.98,2.19,7.0
1758074632.36963,1758074632.12375,0.0,0.0,0.0,-14.32395,-0.40107,4.0107,9.22,0.98,2.19,7.0
1758074632.38511,1758074632.13375,0.0,0.0,0.0,-15.87093,-0.22918,3.55234,9.35,0.79,2.22,7.0
1758074632.38966,1758074632.14375,0.0,0.0,0.0,-17.99088,-0.0573,3.32316,9.35,0.79,2.22,7.0
1758074632.40529,1758074632.15375,0.0,0.0,0.0,-19.36597,0.11459,3.32316,9.29,0.74,2.28,7.0
1758074632.40969,1758074632.16375,0.0,0.0,0.0,-20.85567,0.85944,3.55234,9.29,0.74,2.28,7.0
1758074632.42531,1758074632.17375,0.0,0.0,0.0,-22.57454,2.06265,4.35448,9.37,0.83,2.27,7.0
1758074632.42947,1758074632.18375,0.0,0.0,0.0,-25.55392,5.21392,5.61499,9.56,0.95,2.31,7.0
1758074632.44538,1758074632.19375,0.0,0.0,0.0,-27.73116,6.53172,6.47442,9.56,0.95,2.31,7.0
1758074632.44971,1758074632.20375,0.0,0.0,0.0,-30.02299,7.33386,7.21927,9.42,0.97,2.4,7.0
1758074632.46508,1758074632.21375,0.0,0.0,0.0,-32.25753,7.79223,8.0787,9.42,0.97,2.4,7.0
1758074632.46971,1758074632.22375,0.0,0.0,0.0,-35.3515,8.02141,8.65166,9.4,0.86,2.39,7.0
1758074632.4851,1758074632.23375,0.0,0.0,0.0,-37.18496,6.87549,8.65166,9.4,0.86,2.39,7.0
1758074632.4898,1758074632.24375,0.0,0.0,0.0,-38.73195,5.84417,8.36518,9.26,0.69,2.27,7.0
1758074632.5054,1758074632.25375,0.0,0.0,0.0,-39.99245,4.58366,7.67763,9.26,0.69,2.27,7.0
1758074632.51034,1758074632.26375,0.0,0.0,0.0,-40.04975,0.97403,8.76626,9.13,0.37,2.15,7.0
1758074632.52538,1758074632.27375,0.0,0.0,0.0,-40.27893,2.29183,8.25059,9.31,-0.01,2.12,7.0
1758074632.53034,1758074632.28375,0.0,0.0,0.0,-39.64868,0.22918,8.65166,9.31,-0.01,2.12,7.0
1758074632.54592,1758074632.29375,0.0,0.0,0.0,-38.90384,-4.0107,9.39651,9.07,-0.22,2.2,7.0
1758074632.60583,1758074632.30375,0.0,0.0,0.0,-38.21629,-6.18794,10.31324,9.07,-0.22,2.2,7.0
1758074632.61137,1758074632.31375,0.0,0.0,0.0,-37.58603,-8.47978,11.45916,9.46,-0.26,2.44,7.0
1758074632.61485,1758074632.32375,0.0,0.0,0.0,-37.12767,-11.34457,12.43318,9.46,-0.26,2.44,7.0
1758074632.61547,1758074632.33375,0.0,0.0,0.0,-36.7266,-15.98552,13.98017,9.53,-0.22,2.42,7.0
1758074632.61992,1758074632.34375,0.0,0.0,0.0,-36.7266,-19.82434,14.43854,9.34,-0.23,2.26,7.0
1758074632.62051,1758074632.35375,0.0,0.0,0.0,-36.55471,-22.97561,14.78231,9.34,-0.23,2.26,7.0
1758074632.6249,1758074632.36375,0.0,0.0,0.0,-36.38282,-24.4653,14.49583,9.09,-0.29,1.89,7.0
1758074632.62954,1758074632.37375,0.0,0.0,0.0,-35.75257,-23.94964,13.75099,9.09,-0.29,1.89,7.0
1758074632.63028,1758074632.38375,0.0,0.0,0.0,-35.12231,-22.57454,13.06344,9.0,-0.37,1.6,7.0
1758074632.64981,1758074632.39375,0.0,0.0,0.0,-34.14828,-20.68378,12.43318,9.0,-0.37,1.6,7.0
1758074632.65081,1758074632.40375,0.0,0.0,0.0,-32.83048,-18.22006,11.86023,8.9,-0.52,1.62,7.0
1758074632.65472,1758074632.41375,0.0,0.0,0.0,-30.93972,-15.87093,12.08941,8.98,-0.51,1.73,7.0
1758074632.6705,1758074632.42375,0.0,0.0,0.0,-29.73651,-14.49583,13.34992,8.98,-0.51,1.73,7.0
1758074632.68962,1758074632.43375,0.0,0.0,0.0,-28.64789,-13.69369,14.72501,9.35,-0.53,1.72,7.0
1758074632.69512,1758074632.44375,0.0,0.0,0.0,-27.61657,-11.86023,16.61578,9.35,-0.53,1.72,7.0
1758074632.69705,1758074632.45375,0.0,0.0,0.0,-25.7831,-10.31324,19.53786,9.63,-0.86,1.55,7.0
1758074632.73134,1758074632.46375,0.0,0.0,0.0,-24.4653,-8.99544,21.08485,9.63,-0.86,1.55,7.0
1758074632.85053,1758074632.47375,0.0,0.0,0.0,-23.0902,-8.25059,22.05888,9.79,-1.25,1.4,7.0
1758074632.85086,1758074632.48375,0.0,0.0,0.0,-20.62648,-7.39116,22.34536,9.79,-1.25,1.4,7.0
1758074632.85365,1758074632.49375,0.0,0.0,0.0,-18.44924,-6.35983,22.00158,10.02,-1.47,1.29,7.0
1758074632.85426,1758074632.50375,0.0,0.0,0.0,-15.98552,-6.58902,21.02755,10.31,-1.63,1.21,7.0
1758074632.85548,1758074632.51375,0.0,0.0,0.0,-13.75099,-8.30789,19.88164,10.31,-1.63,1.21,7.0
1758074632.85792,1758074632.52375,0.0,0.0,0.0,-10.94349,-12.37589,18.73572,9.81,-1.32,1.33,7.0
1758074632.86049,1758074632.53375,0.0,0.0,0.0,-9.33921,-14.78231,17.81899,9.81,-1.32,1.33,7.0
1758074632.86275,1758074632.54375,0.0,0.0,0.0,-7.96411,-17.99088,16.73037,9.4,-1.12,1.59,7.0
1758074632.86617,1758074632.55375,0.0,0.0,0.0,-6.87549,-21.60051,15.98552,9.4,-1.12,1.59,7.0
1758074632.87021,1758074632.56375,0.0,0.0,0.0,-6.41713,-25.21014,15.24068,8.86,-1.02,1.71,7.0
1758074632.87134,1758074632.57375,0.0,0.0,0.0,-6.47442,-26.98631,14.72501,9.31,-1.06,2.15,7.0
1758074632.87366,1758074632.58375,0.0,0.0,0.0,-6.41713,-27.73116,13.75099,9.31,-1.06,2.15,7.0
1758074632.87481,1758074632.59375,0.0,0.0,0.0,-6.13065,-24.00693,12.08941,11.34,-1.63,3.12,7.0
1758074632.87588,1758074632.60375,0.0,0.0,0.0,-4.81285,-14.15206,8.59437,11.34,-1.63,3.12,7.0
1758074632.87701,1758074632.61375,0.0,0.0,0.0,-1.77617,-18.9649,9.22462,13.38,-2.49,4.21,7.0
1758074632.88094,1758074632.62375,0.0,0.0,0.0,-3.55234,-54.25911,2.23454,13.38,-2.49,4.21,7.0
1758074632.88126,1758074632.63375,0.0,0.0,0.0,-1.71887,-82.84971,-0.74485,9.93,-2.8,4.06,7.0
1758074632.88549,1758074632.64375,0.0,0.0,0.0,2.57831,-72.88023,-2.29183,12.89,-2.52,1.57,7.0
1758074632.90065,1758074632.65375,0.0,0.0,0.0,4.46907,-31.56997,-7.33386,12.89,-2.52,1.57,7.0
1758074632.90583,1758074632.66375,0.0,0.0,0.0,0.57296,-14.49583,-9.4538,13.26,-2.42,0.81,7.0
1758074632.92438,1758074632.67375,0.0,0.0,0.0,0.45837,-3.66693,-12.83425,13.26,-2.42,0.81,7.0
1758074632.92559,1758074632.68375,0.0,0.0,0.0,-2.29183,6.58902,-14.66772,9.48,-2.34,3.35,7.0
1758074632.94067,1758074632.69375,0.0,0.0,0.0,-2.00535,9.33921,-13.98017,9.48,-2.34,3.35,7.0
1758074632.94427,1758074632.70375,0.0,0.0,0.0,-0.68755,11.45916,-12.60507,8.94,-2.3,1.73,7.0
1758074632.95947,1758074632.71375,0.0,0.0,0.0,4.52637,20.51189,-8.136,8.94,-2.3,1.73,7.0
1758074632.97582,1758074632.72375,0.0,0.0,0.0,9.05273,27.73116,-4.18259,10.32,-2.57,0.73,7.0
1758074632.97861,1758074632.73375,0.0,0.0,0.0,13.23533,32.37212,-0.17189,10.88,-2.52,0.95,7.0
1758074632.99532,1758074632.74375,0.0,0.0,0.0,16.3293,34.43476,2.7502,10.88,-2.52,0.95,7.0
1758074632.99733,1758074632.75375,0.0,0.0,0.0,17.47521,34.72124,5.15662,9.8,-2.3,1.37,7.0
1758074633.01249,1758074632.76375,0.0,0.0,0.0,16.38659,33.05967,4.98473,9.8,-2.3,1.37,7.0
1758074633.01363,1758074632.77375,0.0,0.0,0.0,14.15206,31.11161,3.83882,9.15,-2.1,1.32,7.0
1758074633.03005,1758074632.78375,0.0,0.0,0.0,11.63104,29.96569,1.83346,9.15,-2.1,1.32,7.0
1758074633.04575,1758074632.79375,0.0,0.0,0.0,8.0787,28.30412,-1.83346,9.61,-1.81,1.35,7.0
1758074633.05067,1758074632.80375,0.0,0.0,0.0,6.41713,26.64254,-4.58366,9.86,-1.69,1.39,7.0
1758074633.06574,1758074632.81375,0.0,0.0,0.0,5.50039,24.92367,-7.62034,9.86,-1.69,1.39,7.0
1758074633.07076,1758074632.82375,0.0,0.0,0.0,5.55769,23.26209,-10.48513,9.8,-1.98,1.46,7.0
1758074633.08558,1758074632.83375,0.0,0.0,0.0,8.36518,21.25674,-13.00614,9.8,-1.98,1.46,7.0
1758074633.1039,1758074632.84375,0.0,0.0,0.0,11.34457,20.11082,-13.17803,9.45,-2.37,1.29,7.0
1758074633.1055,1758074632.85375,0.0,0.0,0.0,14.83961,22.11617,-12.77696,9.45,-2.37,1.29,7.0
1758074633.11108,1758074632.86375,0.0,0.0,0.0,18.22006,25.38203,-12.204,9.35,-2.74,1.14,7.0
1758074633.12577,1758074632.87375,0.0,0.0,0.0,22.40265,29.22085,-11.97482,9.13,-2.77,1.3,7.0
1758074633.13068,1758074632.88375,0.0,0.0,0.0,24.63719,30.53865,-12.37589,9.13,-2.77,1.3,7.0
1758074633.14554,1758074632.89375,0.0,0.0,0.0,26.47065,30.36677,-13.00614,8.92,-2.52,1.58,7.0
1758074633.15084,1758074632.90375,0.0,0.0,0.0,28.36141,30.25217,-13.98017,8.92,-2.52,1.58,7.0
1758074633.16561,1758074632.91375,0.0,0.0,0.0,29.50733,30.13758,-14.49583,9.09,-2.21,1.51,7.0
1758074633.1687,1758074632.92375,0.0,0.0,0.0,30.59595,29.04896,-15.58445,9.09,-2.21,1.51,7.0
1758074633.18566,1758074632.93375,0.0,0.0,0.0,32.08564,26.47065,-16.61578,9.22,-1.99,1.72,7.0
1758074633.18995,1758074632.94375,0.0,0.0,0.0,35.2369,22.28806,-18.33465,9.22,-1.99,1.72,7.0
1758074633.20565,1758074632.95375,0.0,0.0,0.0,37.18496,18.79302,-19.13679,9.15,-2.02,1.62,7.0
1758074633.20992,1758074632.96375,0.0,0.0,0.0,39.13302,15.35527,-19.48057,9.18,-2.03,1.51,7.0
1758074633.22598,1758074632.97375,0.0,0.0,0.0,40.7946,10.94349,-19.25138,9.18,-2.03,1.51,7.0
1758074633.22996,1758074632.98375,0.0,0.0,0.0,42.57077,3.49504,-18.85031,9.07,-1.86,1.45,7.0
1758074633.24575,1758074632.99375,0.0,0.0,0.0,43.94586,-1.08862,-18.33465,9.07,-1.86,1.45,7.0
1758074633.25003,1758074633.00375,0.0,0.0,0.0,45.37826,-5.95876,-17.81899,9.12,-1.67,1.64,7.0
1758074633.26597,1758074633.01375,0.0,0.0,0.0,46.81066,-11.91752,-16.73037,9.12,-1.67,1.64,7.0
1758074633.27001,1758074633.02375,0.0,0.0,0.0,49.21708,-23.0329,-13.17803,9.41,-1.36,2.39,7.0
1758074633.28578,1758074633.03375,0.0,0.0,0.0,49.61814,-27.10091,-10.48513,10.58,-0.8,3.01,7.0
1758074633.2901,1758074633.04375,0.0,0.0,0.0,48.64412,-27.84575,-8.47978,10.58,-0.8,3.01,7.0
1758074633.30569,1758074633.05375,0.0,0.0,0.0,46.52417,-27.84575,-7.73493,11.44,-0.48,3.22,7.0
1758074633.31007,1758074633.06375,0.0,0.0,0.0,41.88322,-28.41871,-7.96411,11.44,-0.48,3.22,7.0
1758074633.32592,1758074633.07375,0.0,0.0,0.0,37.81522,-26.35606,-9.05273,10.57,-0.61,2.22,7.0
1758074633.33005,1758074633.08375,0.0,0.0,0.0,33.40344,-22.34536,-10.8289,10.57,-0.61,2.22,7.0
1758074633.34572,1758074633.09375,0.0,0.0,0.0,29.04896,-17.30333,-14.61043,9.99,-0.73,1.61,7.0
1758074633.35014,1758074633.10375,0.0,0.0,0.0,22.00158,-10.31324,-17.30333,9.74,-0.59,1.89,7.0
1758074633.36604,1758074633.11375,0.0,0.0,0.0,17.76169,-6.87549,-19.76705,9.74,-0.59,1.89,7.0
1758074633.37011,1758074633.12375,0.0,0.0,0.0,14.15206,-3.49504,-21.42862,9.94,-0.18,2.53,7.0
1758074633.38572,1758074633.13375,0.0,0.0,0.0,9.96947,2.11994,-22.34536,9.94,-0.18,2.53,7.0
1758074633.39054,1758074633.14375,0.0,0.0,0.0,8.42248,3.83882,-22.34536,10.19,0.16,2.68,7.0
1758074633.40576,1758074633.15375,0.0,0.0,0.0,7.50575,5.21392,-20.74107,10.19,0.16,2.68,7.0
1758074633.41018,1758074633.16375,0.0,0.0,0.0,7.39116,5.84417,-19.42327,9.98,0.33,2.82,7.0
1758074633.42595,1758074633.17375,0.0,0.0,0.0,7.44845,4.87014,-16.67307,9.98,0.33,2.59,7.0
1758074633.43017,1758074633.18375,0.0,0.0,0.0,7.50575,3.66693,-15.0115,9.78,0.33,2.59,7.0
1758074633.44594,1758074633.19375,0.0,0.0,0.0,7.62034,2.29183,-13.80828,9.84,0.27,2.57,7.0
1758074633.44966,1758074633.20375,0.0,0.0,0.0,7.33386,1.3178,-13.00614,9.84,0.27,2.57,7.0
1758074633.46508,1758074633.21375,0.0,0.0,0.0,6.8182,0.74485,-13.23533,9.88,0.21,2.66,7.0
1758074633.46872,1758074633.22375,0.0,0.0,0.0,5.95876,-0.11459,-14.03747,9.88,0.21,2.66,7.0
1758074633.48487,1758074633.23375,0.0,0.0,0.0,5.15662,-1.71887,-15.12609,9.52,0.25,2.81,7.0
1758074633.4887,1758074633.24375,0.0,0.0,0.0,4.35448,-2.63561,-16.10011,9.52,0.25,2.81,7.0
1758074633.50385,1758074633.25375,0.0,0.0,0.0,3.09397,-3.09397,-17.36062,9.24,0.42,2.83,7.0
1758074633.50988,1758074633.26375,0.0,0.0,0.0,2.57831,-3.09397,-17.81899,9.24,0.72,2.83,7.0
1758074633.52477,1758074633.27375,0.0,0.0,0.0,2.06265,-2.6929,-18.10547,9.24,0.72,2.83,7.0
1758074633.52843,1758074633.28375,0.0,0.0,0.0,1.77617,-2.00535,-17.87628,9.48,1.05,2.81,7.0
1758074633.54582,1758074633.29375,0.0,0.0,0.0,1.43239,-1.03132,-17.6471,9.48,1.05,2.81,7.0
1758074633.55083,1758074633.30375,0.0,0.0,0.0,1.3178,-0.40107,-17.18874,9.71,1.33,2.73,7.0
1758074633.56591,1758074633.31375,0.0,0.0,0.0,1.08862,0.80214,-16.95955,9.71,1.33,2.73,7.0
1758074633.57022,1758074633.32375,0.0,0.0,0.0,0.85944,1.03132,-16.73037,9.81,1.45,2.72,7.0
1758074633.58586,1758074633.33375,0.0,0.0,0.0,0.57296,1.3178,-16.61578,9.65,1.32,2.74,7.0
1758074633.58949,1758074633.34375,0.0,0.0,0.0,0.40107,2.00535,-16.61578,9.65,1.32,2.74,7.0
1758074633.60521,1758074633.35375,0.0,0.0,0.0,0.11459,3.55234,-16.38659,9.63,1.07,2.75,7.0
1758074633.60882,1758074633.36375,0.0,0.0,0.0,-0.40107,5.27121,-15.98552,9.63,1.07,2.75,7.0
1758074633.62421,1758074633.37375,0.0,0.0,0.0,-0.68755,5.84417,-15.69904,9.48,0.89,2.73,7.0
1758074633.6254,1758074633.38375,0.0,0.0,0.0,-1.03132,6.58902,-15.0115,9.48,0.89,2.73,7.0
1758074633.64019,1758074633.39375,0.0,0.0,0.0,-1.3178,8.70896,-14.32395,9.48,0.88,2.64,7.0
1758074633.65591,1758074633.40375,0.0,0.0,0.0,-2.11994,10.37054,-13.17803,9.66,0.88,2.58,7.0
1758074633.65789,1758074633.41375,0.0,0.0,0.0,-2.6929,10.8862,-12.14671,9.66,1.16,2.58,7.0
1758074633.67323,1758074633.42375,0.0,0.0,0.0,-3.26586,11.97482,-11.17268,9.81,1.5,2.47,7.0
1758074633.67573,1758074633.43375,0.0,0.0,0.0,-4.1253,13.00614,-10.94349,9.81,1.5,2.47,7.0
1758074633.69103,1758074633.44375,0.0,0.0,0.0,-4.98473,11.63104,-10.54242,9.75,1.76,2.47,7.0
1758074633.69377,1758074633.45375,0.0,0.0,0.0,-5.84417,10.8289,-10.37054,9.75,1.76,2.47,7.0
1758074633.70998,1758074633.46375,0.0,0.0,0.0,-6.47442,10.37054,-10.59972,9.83,1.85,2.47,7.0
1758074633.72629,1758074633.47375,0.0,0.0,0.0,-7.33386,10.19865,-10.8289,9.83,1.85,2.47,7.0
1758074633.72962,1758074633.48375,0.0,0.0,0.0,-8.47978,9.85487,-11.45916,9.86,1.73,2.5,7.0
1758074633.7453,1758074633.49375,0.0,0.0,0.0,-9.28192,9.39651,-11.91752,9.7,1.47,2.68,7.0
1758074633.74966,1758074633.50375,0.0,0.0,0.0,-10.19865,9.22462,-12.49048,9.7,1.47,2.68,7.0
1758074633.76593,1758074633.51375,0.0,0.0,0.0,-10.94349,9.11003,-12.60507,9.58,1.28,2.63,7.0
1758074633.88048,1758074633.52375,0.0,0.0,0.0,-12.2613,9.05273,-12.2613,9.58,1.28,2.63,7.0
1758074633.8818,1758074633.53375,0.0,0.0,0.0,-13.40721,8.99544,-11.74564,9.49,1.31,2.58,7.0
1758074633.91087,1758074633.54375,0.0,0.0,0.0,-14.32395,8.36518,-10.48513,9.49,1.31,2.58,7.0
1758074633.91574,1758074633.55375,0.0,0.0,0.0,-15.75634,7.39116,-8.93814,9.45,1.45,2.59,7.0
1758074633.91694,1758074633.56375,0.0,0.0,0.0,-16.61578,6.07335,-7.62034,9.41,1.56,2.54,7.0
1758074633.9193,1758074633.57375,0.0,0.0,0.0,-17.24603,5.09932,-6.58902,9.41,1.56,2.54,7.0
1758074633.91966,1758074633.58375,0.0,0.0,0.0,-17.6471,3.32316,-5.78687,9.43,1.51,2.54,7.0
1758074633.92092,1758074633.59375,0.0,0.0,0.0,-17.93358,0.17189,-4.98473,9.43,1.51,2.54,7.0
1758074633.92594,1758074633.60375,0.0,0.0,0.0,-17.93358,-2.46372,-4.64096,9.2,1.4,2.52,7.0
1758074633.93095,1758074633.61375,0.0,0.0,0.0,-18.10547,-5.32851,-4.81285,9.2,1.4,2.52,7.0
1758074633.93133,1758074633.62375,0.0,0.0,0.0,-18.50654,-7.73493,-5.09932,9.03,1.31,2.53,7.0
1758074633.93245,1758074633.63375,0.0,0.0,0.0,-18.85031,-9.96947,-5.4431,9.03,1.32,2.58,7.0
1758074633.93369,1758074633.64375,0.0,0.0,0.0,-19.07949,-11.22997,-5.50039,9.03,1.32,2.58,7.0
1758074633.93596,1758074633.65375,0.0,0.0,0.0,-19.82434,-12.08941,-5.4431,9.09,1.36,2.65,7.0
1758074633.93656,1758074633.66375,0.0,0.0,0.0,-20.62648,-12.43318,-5.32851,9.09,1.36,2.65,7.0
1758074633.93781,1758074633.67375,0.0,0.0,0.0,-21.6578,-11.63104,-5.15662,9.24,1.4,2.69,7.0
1758074633.93869,1758074633.68375,0.0,0.0,0.0,-22.51724,-10.37054,-4.81285,9.24,1.4,2.69,7.0
1758074633.94121,1758074633.69375,0.0,0.0,0.0,-23.20479,-9.33921,-4.35448,9.43,1.4,2.73,7.0
1758074633.94594,1758074633.70375,0.0,0.0,0.0,-23.66316,-8.30789,-4.0107,9.43,1.4,2.73,7.0
1758074633.96524,1758074633.71375,0.0,0.0,0.0,-24.4653,-6.7609,-3.83882,9.52,1.27,2.67,7.0
1758074633.96968,1758074633.72375,0.0,0.0,0.0,-24.57989,-5.21392,-3.72423,9.58,1.15,2.54,7.0
1758074633.98594,1758074633.73375,0.0,0.0,0.0,-24.35071,-3.89611,-3.83882,9.58,1.15,2.54,7.0
1758074633.99206,1758074633.74375,0.0,0.0,0.0,-24.29341,-2.34913,-3.83882,9.67,1.06,2.52,7.0
1758074633.99239,1758074633.75375,0.0,0.0,0.0,-23.89234,-1.14592,-3.66693,9.67,1.06,2.52,7.0
1758074634.0085,1758074633.76375,0.0,0.0,0.0,-23.49127,-1.48969,-3.55234,9.56,1.03,2.51,7.0
1758074634.02453,1758074633.77375,0.0,0.0,0.0,-23.0902,-2.57831,-3.38045,9.56,1.03,2.51,7.0
1758074634.02544,1758074633.78375,0.0,0.0,0.0,-22.68913,-4.0107,-2.86479,9.48,1.02,2.36,7.0
1758074634.04027,1758074633.79375,0.0,0.0,0.0,-22.28806,-4.58366,-2.29183,9.55,1.02,2.31,7.0
1758074634.04548,1758074633.80375,0.0,0.0,0.0,-22.05888,-5.15662,-1.60428,9.55,1.02,2.31,7.0
1758074634.06563,1758074633.81375,0.0,0.0,0.0,-21.7151,-5.84417,-0.85944,9.56,1.05,2.32,7.0
1758074634.07039,1758074633.82375,0.0,0.0,0.0,-21.25674,-7.10468,0.0,9.56,1.05,2.32,7.0
1758074634.08554,1758074633.83375,0.0,0.0,0.0,-20.68378,-7.62034,0.74485,9.56,1.08,2.33,7.0
1758074634.09074,1758074633.84375,0.0,0.0,0.0,-19.88164,-7.62034,1.48969,9.56,1.08,2.33,7.0
1758074634.10557,1758074633.85375,0.0,0.0,0.0,-19.13679,-6.53172,2.40642,9.6,1.03,2.29,7.0
1758074634.10966,1758074633.86375,0.0,0.0,0.0,-17.87628,-5.15662,3.26586,9.51,0.88,2.22,7.0
1758074634.12537,1758074633.87375,0.0,0.0,0.0,-16.95955,-5.27121,3.55234,9.51,0.88,2.22,7.0
1758074634.12807,1758074633.88375,0.0,0.0,0.0,-15.87093,-5.72958,3.95341,9.23,0.69,2.1,7.0
1758074634.1433,1758074633.89375,0.0,0.0,0.0,-14.9542,-5.55769,4.0107,9.23,0.69,2.1,7.0
1758074634.14448,1758074633.90375,0.0,0.0,0.0,-13.86558,-5.27121,4.0107,9.28,0.62,2.08,7.0
1758074634.16007,1758074633.91375,0.0,0.0,0.0,-13.06344,-4.98473,4.1253,9.28,0.62,2.08,7.0
1758074634.1766,1758074633.92375,0.0,0.0,0.0,-12.49048,-4.92744,4.23989,9.44,0.67,2.21,7.0
1758074634.17755,1758074633.93375,0.0,0.0,0.0,-11.91752,-4.98473,4.98473,9.44,0.67,2.21,7.0
1758074634.195,1758074633.94375,0.0,0.0,0.0,-11.80293,-4.0107,5.90147,9.73,0.84,2.3,7.0
1758074634.19779,1758074633.95375,0.0,0.0,0.0,-11.91752,-4.23989,6.87549,9.93,1.02,2.25,7.0
1758074634.21343,1758074633.96375,0.0,0.0,0.0,-12.2613,-4.46907,7.84952,9.93,1.02,2.25,7.0
1758074634.21436,1758074633.97375,0.0,0.0,0.0,-12.89155,-4.92744,8.88085,9.82,0.96,2.1,7.0
1758074634.23018,1758074633.98375,0.0,0.0,0.0,-13.12073,-4.98473,9.05273,9.82,0.96,2.1,7.0
1758074634.25062,1758074633.99375,0.0,0.0,0.0,-13.40721,-4.98473,9.33921,9.62,0.78,1.99,7.0
1758074634.25479,1758074634.00375,0.0,0.0,0.0,-13.46451,-5.55769,9.39651,9.62,0.78,1.99,7.0
1758074634.25534,1758074634.01375,0.0,0.0,0.0,-13.40721,-6.07335,9.39651,9.39,0.61,1.97,7.0
1758074634.27246,1758074634.02375,0.0,0.0,0.0,-13.17803,-6.47442,9.68299,9.32,0.51,1.92,7.0
1758074634.2751,1758074634.03375,0.0,0.0,0.0,-12.83425,-7.16197,10.08406,9.32,0.51,1.92,7.0
1758074634.29046,1758074634.04375,0.0,0.0,0.0,-12.49048,-8.65166,10.8289,9.18,0.52,1.82,7.0
1758074634.2924,1758074634.05375,0.0,0.0,0.0,-11.97482,-10.8862,12.14671,9.18,0.52,1.82,7.0
1758074634.30872,1758074634.06375,0.0,0.0,0.0,-11.86023,-12.14671,13.23533,9.06,0.56,1.75,7.0
1758074634.32574,1758074634.07375,0.0,0.0,0.0,-11.74564,-12.14671,14.78231,9.06,0.56,1.75,7.0
1758074634.33069,1758074634.08375,0.0,0.0,0.0,-11.91752,-11.80293,16.38659,9.25,0.67,1.71,7.0
1758074634.34573,1758074634.09375,0.0,0.0,0.0,-12.43318,-10.08406,18.79302,9.48,0.73,1.83,7.0
1758074634.35101,1758074634.10375,0.0,0.0,0.0,-12.60507,-8.76626,20.11082,9.48,0.73,1.83,7.0
1758074634.36578,1758074634.11375,0.0,0.0,0.0,-13.00614,-8.02141,21.25674,9.6,0.66,1.85,7.0
1758074634.37106,1758074634.12375,0.0,0.0,0.0,-13.40721,-8.0787,22.23076,9.6,0.66,1.85,7.0
1758074634.37559,1758074634.13375,0.0,0.0,0.0,-14.15206,-8.59437,23.0902,9.54,0.49,1.73,7.0
1758074634.41738,1758074634.14375,0.0,0.0,0.0,-14.9542,-8.136,23.37668,9.54,0.49,1.73,7.0
1758074634.42179,1758074634.15375,0.0,0.0,0.0,-15.41257,-7.50575,23.26209,9.59,0.31,1.65,7.0
1758074634.42272,1758074634.16375,0.0,0.0,0.0,-16.04282,-7.79223,22.97561,9.59,0.31,1.65,7.0
1758074634.42447,1758074634.17375,0.0,0.0,0.0,-16.38659,-7.79223,22.74642,9.22,0.09,1.58,7.0
1758074634.42536,1758074634.18375,0.0,0.0,0.0,-16.55848,-8.02141,22.63183,9.06,0.06,1.67,7.0
1758074634.44573,1758074634.19375,0.0,0.0,0.0,-16.73037,-8.88085,22.86102,9.06,0.06,1.67,7.0
1758074634.45085,1758074634.20375,0.0,0.0,0.0,-17.13144,-10.48513,23.94964,9.17,0.3,1.62,7.0
1758074634.4658,1758074634.21375,0.0,0.0,0.0,-17.30333,-11.34457,25.09555,9.17,0.3,1.62,7.0
1758074634.46989,1758074634.22375,0.0,0.0,0.0,-17.81899,-12.204,26.41335,9.53,0.42,1.57,7.0
1758074634.48578,1758074634.23375,0.0,0.0,0.0,-18.10547,-13.00614,27.73116,9.53,0.42,1.57,7.0
1758074634.49108,1758074634.24375,0.0,0.0,0.0,-17.99088,-13.5791,29.04896,9.64,0.25,1.49,7.0
1758074634.5058,1758074634.25375,0.0,0.0,0.0,-17.47521,-13.40721,29.62192,9.59,-0.13,1.3,7.0
1758074634.50913,1758074634.26375,0.0,0.0,0.0,-16.84496,-12.37589,29.62192,9.59,-0.13,1.3,7.0
1758074634.52563,1758074634.27375,0.0,0.0,0.0,-16.21471,-11.28727,29.33544,9.74,-0.41,1.11,7.0
1758074634.52849,1758074634.28375,0.0,0.0,0.0,-15.24068,-8.76626,28.64789,9.74,-0.41,1.11,7.0
1758074634.54468,1758074634.29375,0.0,0.0,0.0,-14.72501,-8.0787,27.84575,9.8,-0.5,1.09,7.0
1758074634.54565,1758074634.30375,0.0,0.0,0.0,-14.20935,-8.36518,26.81443,9.8,-0.5,1.09,7.0
1758074634.56066,1758074634.31375,0.0,0.0,0.0,-13.5218,-8.93814,25.8404,9.52,-0.55,1.08,7.0
1758074634.56593,1758074634.32375,0.0,0.0,0.0,-12.49048,-9.22462,24.4653,9.7,-0.55,1.4,7.0
1758074634.58561,1758074634.33375,0.0,0.0,0.0,-11.28727,-9.74028,23.66316,9.7,-0.55,1.4,7.0
1758074634.5909,1758074634.34375,0.0,0.0,0.0,-10.25595,-11.91752,23.54857,9.63,-0.36,1.77,7.0
1758074634.60595,1758074634.35375,0.0,0.0,0.0,-9.4538,-13.75099,23.72045,9.63,-0.36,1.77,7.0
1758074634.60997,1758074634.36375,0.0,0.0,0.0,-8.70896,-14.43854,24.4653,9.22,-0.24,1.91,7.0
1758074634.62568,1758074634.37375,0.0,0.0,0.0,-8.0787,-11.28727,24.63719,9.22,-0.24,1.91,7.0
1758074634.6359,1758074634.38375,0.0,0.0,0.0,-6.99009,-6.41713,24.29341,9.49,-0.48,1.46,7.0
1758074634.6363,1758074634.39375,0.0,0.0,0.0,-3.83882,4.52637,22.23076,9.49,-0.48,1.46,7.0
1758074634.65595,1758074634.40375,0.0,0.0,0.0,-0.85944,11.34457,19.82434,10.87,-1.44,1.43,7.0
1758074634.66003,1758074634.41375,0.0,0.0,0.0,2.97938,15.58445,17.36062,11.93,-2.7,1.98,7.0
1758074634.67592,1758074634.42375,0.0,0.0,0.0,7.39116,16.10011,14.20935,11.93,-2.7,1.98,7.0
1758074634.67878,1758074634.43375,0.0,0.0,0.0,15.06879,8.59437,9.28192,12.11,-3.55,3.34,7.0
1758074634.69595,1758074634.44375,0.0,0.0,0.0,21.7151,0.0,7.62034,12.11,-3.55,3.34,7.0
1758074634.70003,1758074634.45375,0.0,0.0,0.0,28.64789,-8.76626,6.13065,11.8,-3.77,3.93,7.0
1758074634.71591,1758074634.46375,0.0,0.0,0.0,37.12767,-17.6471,3.26586,11.8,-3.77,3.93,7.0
1758074634.72038,1758074634.47375,0.0,0.0,0.0,46.1231,-33.40344,3.95341,10.82,-3.33,3.26,7.0
1758074634.73574,1758074634.48375,0.0,0.0,0.0,49.04519,-36.7266,6.35983,9.58,-1.77,2.07,7.0
1758074634.74007,1758074634.49375,0.0,0.0,0.0,50.01921,-37.12767,11.34457,9.58,-1.77,2.07,7.0
1758074634.75597,1758074634.50375,0.0,0.0,0.0,48.70141,-31.85646,16.04282,9.49,-0.34,1.97,7.0
1758074634.76039,1758074634.51375,0.0,0.0,0.0,44.51882,-17.30333,23.31938,9.49,-0.34,1.97,7.0
1758074634.77599,1758074634.52375,0.0,0.0,0.0,40.33623,-11.45916,25.21014,9.82,0.04,2.36,7.0
1758074634.78007,1758074634.53375,0.0,0.0,0.0,35.2369,-7.62034,24.5226,9.82,0.04,2.36,7.0
1758074634.79603,1758074634.54375,0.0,0.0,0.0,30.48136,-1.08862,21.7151,9.3,-0.48,1.91,7.0
1758074634.80089,1758074634.55375,0.0,0.0,0.0,25.21014,12.49048,14.38124,10.45,-1.42,0.89,7.0
1758074634.81593,1758074634.56375,0.0,0.0,0.0,23.0329,20.97026,9.11003,10.45,-1.42,0.89,7.0
1758074634.84586,1758074634.57375,0.0,0.0,0.0,22.11617,28.59059,4.52637,11.01,-2.16,1.31,7.0
1758074634.87537,1758074634.58375,0.0,0.0,0.0,21.60051,33.34615,-0.68755,11.01,-2.16,1.31,7.0
1758074634.88069,1758074634.59375,0.0,0.0,0.0,21.48592,35.75257,-2.29183,10.63,-2.44,1.5,7.0
1758074634.88176,1758074634.60375,0.0,0.0,0.0,21.08485,29.22085,-3.32316,10.63,-2.44,1.5,7.0
1758074634.88539,1758074634.61375,0.0,0.0,0.0,20.62648,20.97026,-3.20856,9.52,-2.34,1.3,7.0
1758074634.88846,1758074634.62375,0.0,0.0,0.0,21.31403,13.5791,-1.3178,9.52,-2.34,1.3,7.0
1758074634.89119,1758074634.63375,0.0,0.0,0.0,22.57454,12.204,1.20321,9.78,-2.34,0.72,7.0
1758074634.89266,1758074634.64375,0.0,0.0,0.0,24.12152,13.12073,3.72423,10.39,-2.33,1.01,7.0
1758074634.8934,1758074634.65375,0.0,0.0,0.0,25.55392,15.58445,5.4431,10.39,-2.33,1.01,7.0
1758074634.91212,1758074634.66375,0.0,0.0,0.0,28.13223,18.79302,6.18794,10.08,-2.57,1.56,7.0
1758074634.91626,1758074634.67375,0.0,0.0,0.0,29.73651,19.76705,6.18794,10.08,-2.57,1.56,7.0
1758074634.93398,1758074634.68375,0.0,0.0,0.0,31.16891,19.82434,6.13065,9.5,-2.46,1.53,7.0
1758074634.93921,1758074634.69375,0.0,0.0,0.0,31.74186,20.45459,5.84417,9.5,-2.46,1.53,7.0
1758074634.95518,1758074634.70375,0.0,0.0,0.0,32.25753,20.74107,4.69825,9.52,-1.99,1.52,7.0
1758074634.98001,1758074634.71375,0.0,0.0,0.0,32.48671,17.99088,3.83882,9.23,-1.83,1.59,7.0
1758074634.98059,1758074634.72375,0.0,0.0,0.0,32.48671,14.15206,2.92208,9.23,-1.83,1.59,7.0
1758074634.98592,1758074634.73375,0.0,0.0,0.0,31.97105,11.80293,1.66158,9.26,-1.72,1.53,7.0
1758074634.99044,1758074634.74375,0.0,0.0,0.0,30.99702,10.19865,-0.34377,9.26,-1.72,1.53,7.0
1758074634.99509,1758074634.75375,0.0,0.0,0.0,30.53865,9.22462,-1.71887,9.43,-1.85,1.47,7.0
1758074635.01091,1758074634.76375,0.0,0.0,0.0,29.9084,9.05273,-2.6929,9.43,-1.85,1.47,7.0
1758074635.01371,1758074634.77375,0.0,0.0,0.0,29.56462,8.88085,-3.66693,9.33,-1.92,1.62,7.0
1758074635.02997,1758074634.78375,0.0,0.0,0.0,29.33544,8.42248,-4.35448,9.25,-1.77,1.54,7.0
1758074635.04597,1758074634.79375,0.0,0.0,0.0,29.62192,7.79223,-4.92744,9.25,-1.77,1.54,7.0
1758074635.05071,1758074634.80375,0.0,0.0,0.0,29.96569,6.53172,-5.21392,9.27,-1.57,1.53,7.0
1758074635.06601,1758074634.81375,0.0,0.0,0.0,31.11161,3.72423,-5.84417,9.27,-1.57,1.53,7.0
1758074635.06958,1758074634.82375,0.0,0.0,0.0,32.37212,1.3751,-6.35983,9.36,-1.44,1.55,7.0
1758074635.08537,1758074634.83375,0.0,0.0,0.0,33.23156,-0.74485,-6.99009,9.36,-1.44,1.55,7.0
1758074635.08945,1758074634.84375,0.0,0.0,0.0,34.37747,-2.7502,-7.62034,9.43,-1.36,1.56,7.0
1758074635.10504,1758074634.85375,0.0,0.0,0.0,35.69527,-5.09932,-8.88085,9.43,-1.36,1.43,7.0
1758074635.10971,1758074634.86375,0.0,0.0,0.0,36.38282,-4.81285,-9.5684,9.46,-1.35,1.43,7.0
1758074635.12531,1758074634.87375,0.0,0.0,0.0,36.84119,-3.26586,-10.08406,9.69,-1.37,1.48,7.0
1758074635.128,1758074634.88375,0.0,0.0,0.0,37.29956,-1.60428,-10.8862,9.69,-1.37,1.48,7.0
1758074635.14327,1758074634.89375,0.0,0.0,0.0,37.98711,0.45837,-11.80293,9.73,-1.31,1.52,7.0
1758074635.14423,1758074634.90375,0.0,0.0,0.0,37.98711,0.57296,-12.2613,9.73,-1.31,1.52,7.0
1758074635.1598,1758074634.91375,0.0,0.0,0.0,37.75792,0.17189,-12.43318,9.67,-1.04,1.64,7.0
1758074635.17692,1758074634.92375,0.0,0.0,0.0,37.12767,-0.34377,-11.97482,9.67,-1.04,1.64,7.0
1758074635.18286,1758074634.93375,0.0,0.0,0.0,35.12231,-2.86479,-10.31324,10.03,-0.53,2.01,7.0
1758074635.23562,1758074634.94375,0.0,0.0,0.0,32.88778,-4.58366,-8.65166,10.9,0.04,2.77,7.0
1758074635.23862,1758074634.95375,0.0,0.0,0.0,29.33544,-5.27121,-6.7609,10.9,0.04,2.77,7.0
1758074635.24075,1758074634.96375,0.0,0.0,0.0,24.80907,-5.15662,-5.4431,11.85,0.36,3.43,7.0
1758074635.24376,1758074634.97375,0.0,0.0,0.0,17.01685,-4.64096,-4.92744,11.85,0.36,3.43,7.0
1758074635.24409,1758074634.98375,0.0,0.0,0.0,12.2613,-3.55234,-5.61499,10.96,-0.05,3.4,7.0
1758074635.24603,1758074634.99375,0.0,0.0,0.0,8.0787,-1.48969,-6.70361,10.96,-0.05,3.4,7.0
1758074635.25097,1758074635.00375,0.0,0.0,0.0,3.83882,1.3178,-8.59437,9.82,-0.51,2.73,7.0
1758074635.2661,1758074635.01375,0.0,0.0,0.0,2.23454,6.18794,-10.19865,9.42,-0.56,2.14,7.0
1758074635.27081,1758074635.02375,0.0,0.0,0.0,2.06265,9.11003,-11.86023,9.42,-0.56,2.14,7.0
1758074635.28898,1758074635.03375,0.0,0.0,0.0,2.6929,12.37589,-13.46451,9.42,-0.62,2.1,7.0
1758074635.28938,1758074635.04375,0.0,0.0,0.0,5.95876,17.6471,-15.29797,9.42,-0.62,2.1,7.0
1758074635.29469,1758074635.05375,0.0,0.0,0.0,8.93814,20.51189,-15.69904,9.62,-0.9,2.01,7.0
1758074635.31012,1758074635.06375,0.0,0.0,0.0,13.34992,24.92367,-16.50119,9.62,-0.9,2.01,7.0
1758074635.31567,1758074635.07375,0.0,0.0,0.0,17.99088,25.89769,-16.10011,9.83,-1.17,2.36,7.0
1758074635.33234,1758074635.08375,0.0,0.0,0.0,24.57989,21.31403,-14.03747,9.75,-1.17,2.73,7.0
1758074635.33493,1758074635.09375,0.0,0.0,0.0,27.78845,13.86558,-11.91752,9.75,-1.18,2.73,7.0
1758074635.35143,1758074635.10375,0.0,0.0,0.0,29.73651,5.50039,-9.62569,9.8,-0.87,3.04,7.0
1758074635.3548,1758074635.11375,0.0,0.0,0.0,30.59595,0.34377,-7.50575,9.8,-0.87,3.04,7.0
1758074635.37017,1758074635.12375,0.0,0.0,0.0,29.39274,2.7502,-5.09932,10.34,-0.36,3.29,7.0
1758074635.37542,1758074635.13375,0.0,0.0,0.0,27.10091,6.13065,-4.92744,10.34,-0.36,3.29,7.0
1758074635.38588,1758074635.14375,0.0,0.0,0.0,24.57989,-0.34377,-4.64096,9.43,0.15,3.89,7.0
1758074635.40306,1758074635.15375,0.0,0.0,0.0,20.74107,-5.4431,-5.90147,9.43,0.15,3.89,7.0
1758074635.40985,1758074635.16375,0.0,0.0,0.0,15.75634,-10.08406,-8.30789,7.81,0.52,3.94,7.0
1758074635.42554,1758074635.17375,0.0,0.0,0.0,13.75099,-10.48513,-9.39651,7.87,0.63,3.32,7.0
1758074635.43042,1758074635.18375,0.0,0.0,0.0,12.77696,-9.85487,-9.85487,7.87,0.63,3.32,7.0
1758074635.47484,1758074635.19375,0.0,0.0,0.0,12.83425,-8.42248,-9.33921,8.29,0.48,3.37,7.0
1758074635.4801,1758074635.20375,0.0,0.0,0.0,13.80828,-3.60963,-7.79223,8.29,0.48,3.37,7.0
1758074635.48157,1758074635.21375,0.0,0.0,0.0,14.66772,-0.40107,-7.21927,9.35,0.19,3.44,7.0
1758074635.48564,1758074635.22375,0.0,0.0,0.0,15.58445,1.43239,-6.18794,9.35,0.19,3.44,7.0
1758074635.49024,1758074635.23375,0.0,0.0,0.0,15.75634,4.29718,-3.60963,9.98,0.17,3.61,7.0
1758074635.49227,1758074635.24375,0.0,0.0,0.0,15.24068,5.50039,-1.48969,10.19,0.47,3.7,7.0
1758074635.49713,1758074635.25375,0.0,0.0,0.0,14.20935,6.87549,0.51566,10.19,0.47,3.7,7.0
1758074635.51555,1758074635.26375,0.0,0.0,0.0,12.60507,9.33921,2.11994,9.98,0.77,3.53,7.0
1758074635.51808,1758074635.27375,0.0,0.0,0.0,10.02676,14.43854,3.89611,9.98,0.77,3.53,7.0
1758074635.53433,1758074635.28375,0.0,0.0,0.0,8.136,18.62113,4.29718,9.68,0.7,3.21,7.0
1758074635.53555,1758074635.29375,0.0,0.0,0.0,6.53172,22.68913,4.23989,9.68,0.7,3.21,7.0
1758074635.55058,1758074635.30375,0.0,0.0,0.0,5.21392,26.01229,3.72423,9.52,0.51,3.01,7.0
1758074635.55186,1758074635.31375,0.0,0.0,0.0,3.55234,31.39809,3.66693,9.73,0.58,2.92,7.0
1758074635.57197,1758074635.32375,0.0,0.0,0.0,2.63561,33.80451,4.18259,9.73,0.58,2.92,7.0
1758074635.57234,1758074635.33375,0.0,0.0,0.0,1.83346,34.32018,5.09932,9.51,0.87,2.85,7.0
1758074635.59496,1758074635.34375,0.0,0.0,0.0,0.97403,32.77319,6.13065,9.51,0.87,2.85,7.0
1758074635.66463,1758074635.35375,0.0,0.0,0.0,-0.22918,26.64254,8.30789,9.01,1.14,2.8,7.0
1758074635.66564,1758074635.36375,0.0,0.0,0.0,-1.14592,19.59516,9.39651,9.01,1.14,2.8,7.0
1758074635.67009,1758074635.37375,0.0,0.0,0.0,-2.34913,13.12073,9.91217,8.46,1.26,2.55,7.0
1758074635.67071,1758074635.38375,0.0,0.0,0.0,-3.95341,10.94349,9.91217,8.46,1.26,2.55,7.0
1758074635.67365,1758074635.39375,0.0,0.0,0.0,-5.09932,26.18417,10.71431,8.89,1.07,2.38,7.0
1758074635.67419,1758074635.40375,0.0,0.0,0.0,-6.13065,33.51803,10.59972,9.41,0.55,2.86,7.0
1758074635.67579,1758074635.41375,0.0,0.0,0.0,-7.84952,33.40344,9.28192,9.41,0.55,2.86,7.0
1758074635.68035,1758074635.42375,0.0,0.0,0.0,-11.86023,28.70519,6.13065,7.98,0.34,3.29,7.0
1758074635.68072,1758074635.43375,0.0,0.0,0.0,-14.78231,19.42327,4.46907,7.98,0.34,3.29,7.0
1758074635.68355,1758074635.44375,0.0,0.0,0.0,-17.99088,12.83425,3.38045,8.2,0.49,2.55,7.0
1758074635.70411,1758074635.45375,0.0,0.0,0.0,-21.14215,6.8182,3.03668,8.2,0.49,2.55,7.0
1758074635.71079,1758074635.46375,0.0,0.0,0.0,-26.52795,2.46372,3.72423,8.41,0.86,2.54,7.0
1758074635.72546,1758074635.47375,0.0,0.0,0.0,-30.19488,1.60428,4.29718,9.02,0.96,3.01,7.0
1758074635.73251,1758074635.48375,0.0,0.0,0.0,-34.09099,0.45837,4.92744,9.02,0.96,3.01,7.0
1758074635.80465,1758074635.49375,0.0,0.0,0.0,-38.27358,-1.3751,5.50039,9.02,0.81,3.28,7.0
1758074635.83395,1758074635.50375,0.0,0.0,0.0,-44.40423,-4.35448,5.72958,9.02,0.81,3.28,7.0
1758074635.83439,1758074635.51375,0.0,0.0,0.0,-48.07116,-6.18794,5.61499,8.8,0.4,3.18,7.0
1758074635.83761,1758074635.52375,0.0,0.0,0.0,-51.27972,-8.76626,5.4431,8.8,0.4,3.18,7.0
1758074635.83797,1758074635.53375,0.0,0.0,0.0,-53.91533,-11.22997,5.09932,8.39,0.04,2.85,7.0
1758074635.84066,1758074635.54375,0.0,0.0,0.0,-56.83742,-14.66772,4.81285,8.12,-0.22,2.41,7.0
1758074635.84248,1758074635.55375,0.0,0.0,0.0,-58.3844,-15.92823,4.87014,8.12,-0.22,2.41,7.0
1758074635.84413,1758074635.56375,0.0,0.0,0.0,-59.53032,-16.55848,4.81285,8.21,-0.43,2.13,7.0
1758074635.84479,1758074635.57375,0.0,0.0,0.0,-60.44705,-17.81899,5.15662,8.21,-0.43,2.13,7.0
1758074635.84558,1758074635.58375,0.0,0.0,0.0,-61.24919,-17.87628,6.24524,8.41,-0.53,2.14,7.0
1758074635.84986,1758074635.59375,0.0,0.0,0.0,-61.59297,-15.41257,6.99009,8.41,-0.53,2.14,7.0
1758074635.85099,1758074635.60375,0.0,0.0,0.0,-61.76485,-13.80828,7.79223,9.09,-0.57,2.4,7.0
1758074635.85281,1758074635.61375,0.0,0.0,0.0,-61.87944,-12.71966,8.88085,9.09,-0.57,2.4,7.0
1758074635.87014,1758074635.62375,0.0,0.0,0.0,-61.42108,-11.80293,9.91217,9.11,-0.74,2.62,7.0
1758074635.88564,1758074635.63375,0.0,0.0,0.0,-60.67623,-13.40721,10.02676,8.62,-1.07,2.28,7.0
1758074635.89074,1758074635.64375,0.0,0.0,0.0,-59.53032,-16.61578,9.85487,8.62,-1.07,2.28,7.0
1758074635.90581,1758074635.65375,0.0,0.0,0.0,-55.40502,-26.64254,10.02676,7.74,-1.42,1.93,7.0
1758074635.90864,1758074635.66375,0.0,0.0,0.0,-52.42564,-27.78845,7.67763,7.74,-1.42,1.93,7.0
1758074635.92471,1758074635.67375,0.0,0.0,0.0,-48.58683,-30.82513,5.72958,8.06,-1.72,1.79,7.0
1758074635.92825,1758074635.68375,0.0,0.0,0.0,-44.8053,-33.51803,4.35448,8.06,-1.72,1.79,7.0
1758074635.94362,1758074635.69375,0.0,0.0,0.0,-39.82057,-35.86716,3.32316,8.59,-1.93,1.86,7.0
1758074635.94484,1758074635.70375,0.0,0.0,0.0,-37.18496,-36.38282,3.83882,9.64,-2.07,1.97,7.0
1758074635.96041,1758074635.71375,0.0,0.0,0.0,-35.06502,-36.03905,4.87014,9.64,-2.07,1.97,7.0
1758074636.03579,1758074635.72375,0.0,0.0,0.0,-33.40344,-35.06502,6.18794,10.24,-2.3,1.91,7.0
1758074636.03986,1758074635.73375,0.0,0.0,0.0,-31.91375,-33.23156,8.30789,10.24,-2.3,1.91,7.0
1758074636.04116,1758074635.74375,0.0,0.0,0.0,-30.65324,-32.37212,9.39651,10.06,-2.25,1.46,7.0
1758074636.04556,1758074635.75375,0.0,0.0,0.0,-29.73651,-31.16891,10.37054,10.06,-2.25,1.46,7.0
1758074636.05092,1758074635.76375,0.0,0.0,0.0,-28.70519,-31.28349,10.8289,9.71,-1.97,0.9,7.0
1758074636.05128,1758074635.77375,0.0,0.0,0.0,-26.87172,-29.62192,10.37054,9.41,-1.53,0.51,7.0
1758074636.05201,1758074635.78375,0.0,0.0,0.0,-25.38203,-28.01764,10.08406,9.41,-1.53,0.51,7.0
1758074636.05389,1758074635.79375,0.0,0.0,0.0,-24.5226,-28.59059,9.05273,9.25,-1.15,0.87,7.0
1758074636.05593,1758074635.80375,0.0,0.0,0.0,-24.35071,-29.67921,8.0787,9.25,-1.15,0.87,7.0
1758074636.06096,1758074635.81375,0.0,0.0,0.0,-25.89769,-34.32018,6.41713,9.04,-0.57,1.8,7.0
1758074636.06385,1758074635.82375,0.0,0.0,0.0,-28.59059,-39.01843,5.21392,9.04,-0.57,1.8,7.0
1758074636.08003,1758074635.83375,0.0,0.0,0.0,-31.62727,-42.57077,2.92208,9.41,-0.01,3.4,7.0
1758074636.09599,1758074635.84375,0.0,0.0,0.0,-36.15364,-45.37826,-1.3178,9.41,-0.01,3.4,7.0
1758074636.09718,1758074635.85375,0.0,0.0,0.0,-37.52874,-38.56006,-5.90147,11.4,-0.22,4.18,7.0
1758074636.11209,1758074635.86375,0.0,0.0,0.0,-37.52874,-31.39809,-14.09476,13.94,-2.29,4.59,7.0
1758074636.11533,1758074635.87375,0.0,0.0,0.0,-36.55471,-40.45082,-21.02755,13.94,-2.29,4.59,7.0
1758074636.13107,1758074635.88375,0.0,0.0,0.0,-29.56462,-61.02001,-25.43933,11.27,-4.85,4.13,7.0
1758074636.13355,1758074635.89375,0.0,0.0,0.0,-24.00693,-51.79538,-28.30412,11.27,-4.85,4.13,7.0
1758074636.14998,1758074635.90375,0.0,0.0,0.0,-16.50119,-39.01843,-33.23156,14.04,-6.6,2.63,7.0
1758074636.16596,1758074635.91375,0.0,0.0,0.0,-8.76626,-33.00237,-36.6693,14.04,-6.6,2.63,7.0
1758074636.16892,1758074635.92375,0.0,0.0,0.0,2.40642,-13.17803,-37.01308,13.12,-6.09,1.55,7.0
1758074636.18376,1758074635.93375,0.0,0.0,0.0,10.02676,4.29718,-30.82513,12.52,-2.85,2.6,7.0
1758074636.18848,1758074635.94375,0.0,0.0,0.0,18.62113,8.70896,-21.94428,12.52,-2.85,2.6,7.0
1758074636.20406,1758074635.95375,0.0,0.0,0.0,22.34536,-13.34992,-16.90226,8.68,-0.79,2.05,7.0
1758074636.20497,1758074635.96375,0.0,0.0,0.0,25.7831,-26.01229,-5.50039,8.68,-0.79,2.05,7.0
1758074636.22002,1758074635.97375,0.0,0.0,0.0,26.01229,-15.69904,1.43239,11.11,-0.73,1.16,7.0
1758074636.23581,1758074635.98375,0.0,0.0,0.0,25.43933,2.7502,6.41713,11.11,-0.73,1.16,7.0
1758074636.24019,1758074635.99375,0.0,0.0,0.0,23.83505,19.99623,8.36518,12.7,-2.15,0.55,7.0
1758074636.25594,1758074636.00375,0.0,0.0,0.0,17.87628,34.0337,7.33386,9.69,-2.91,2.12,7.0
1758074636.26026,1758074636.01375,0.0,0.0,0.0,13.80828,38.21629,5.27121,9.69,-2.91,2.12,7.0
1758074636.27615,1758074636.02375,0.0,0.0,0.0,10.54242,39.99245,3.20856,8.3,-2.47,1.25,7.0
1758074636.28183,1758074636.03375,0.0,0.0,0.0,8.0787,39.76327,1.43239,8.3,-2.47,1.25,7.0
1758074636.2858,1758074636.04375,0.0,0.0,0.0,5.55769,36.6693,-1.14592,8.6,-1.64,0.96,7.0
1758074636.30418,1758074636.05375,0.0,0.0,0.0,4.81285,32.6013,-2.86479,8.6,-1.64,0.96,7.0
1758074636.30593,1758074636.06375,0.0,0.0,0.0,4.81285,27.78845,-4.52637,8.42,-1.0,0.86,7.0
1758074636.32519,1758074636.07375,0.0,0.0,0.0,5.72958,21.42862,-7.62034,8.42,-1.0,0.86,7.0
1758074636.32865,1758074636.08375,0.0,0.0,0.0,6.87549,19.13679,-9.74028,8.31,-0.86,1.02,7.0
1758074636.34422,1758074636.09375,0.0,0.0,0.0,7.84952,19.36597,-11.80293,8.87,-1.18,0.99,7.0
1758074636.34599,1758074636.10375,0.0,0.0,0.0,8.70896,23.0329,-13.5218,8.87,-1.18,0.99,7.0
1758074636.36519,1758074636.11375,0.0,0.0,0.0,10.25595,31.97105,-16.04282,10.06,-1.74,1.57,7.0
1758074636.37015,1758074636.12375,0.0,0.0,0.0,11.17268,36.21093,-17.13144,10.06,-1.74,1.57,7.0
1758074636.38499,1758074636.13375,0.0,0.0,0.0,11.51645,37.18496,-17.99088,10.39,-2.35,2.12,7.0
1758074636.39015,1758074636.14375,0.0,0.0,0.0,11.86023,35.75257,-18.50654,10.39,-2.35,2.12,7.0
1758074636.40524,1758074636.15375,0.0,0.0,0.0,11.74564,33.11696,-18.56383,10.11,-2.51,2.13,7.0
1758074636.40692,1758074636.16375,0.0,0.0,0.0,11.28727,30.19488,-18.62113,9.96,-2.19,1.77,7.0
1758074636.42382,1758074636.17375,0.0,0.0,0.0,10.59972,26.98631,-18.56383,9.96,-2.19,1.77,7.0
1758074636.42958,1758074636.18375,0.0,0.0,0.0,9.68299,23.60586,-18.16276,9.59,-1.6,1.72,7.0
1758074636.44525,1758074636.19375,0.0,0.0,0.0,7.79223,18.9649,-18.10547,9.59,-1.6,1.72,7.0
1758074636.44942,1758074636.20375,0.0,0.0,0.0,6.41713,16.50119,-18.73572,9.21,-1.14,1.49,7.0
1758074636.46504,1758074636.21375,0.0,0.0,0.0,4.98473,14.72501,-19.70975,9.21,-1.14,1.49,7.0
1758074636.47023,1758074636.22375,0.0,0.0,0.0,3.89611,13.12073,-21.25674,8.92,-1.04,1.12,7.0
1758074636.48506,1758074636.23375,0.0,0.0,0.0,2.86479,9.11003,-23.54857,8.77,-1.06,0.92,7.0
1758074636.48968,1758074636.24375,0.0,0.0,0.0,2.7502,5.4431,-24.86637,8.77,-1.06,0.92,7.0
1758074636.49565,1758074636.25375,0.0,0.0,0.0,3.26586,1.48969,-25.61122,9.14,-1.1,1.09,7.0
1758074636.51551,1758074636.26375,0.0,0.0,0.0,5.27121,-1.94806,-25.8404,9.14,-1.1,1.09,7.0
1758074636.52305,1758074636.27375,0.0,0.0,0.0,6.87549,-2.46372,-24.86637,10.2,-1.32,2.12,7.0
1758074636.52534,1758074636.28375,0.0,0.0,0.0,7.84952,-0.40107,-22.57454,10.2,-1.32,2.12,7.0
1758074636.54109,1758074636.29375,0.0,0.0,0.0,8.36518,1.77617,-19.19409,11.69,-1.32,3.67,7.0
1758074636.54222,1758074636.30375,0.0,0.0,0.0,7.44845,7.21927,-14.61043,11.69,-1.32,3.67,7.0
1758074636.55999,1758074636.31375,0.0,0.0,0.0,6.24524,9.96947,-12.54778,11.41,-1.39,3.49,7.0
1758074636.5764,1758074636.32375,0.0,0.0,0.0,5.61499,11.22997,-11.22997,9.87,-1.49,2.02,7.0
1758074636.57929,1758074636.33375,0.0,0.0,0.0,6.18794,10.19865,-9.96947,9.87,-1.49,2.02,7.0
1758074636.59595,1758074636.34375,0.0,0.0,0.0,7.50575,6.58902,-8.02141,9.31,-1.16,1.1,7.0
1758074636.60431,1758074636.35375,0.0,0.0,0.0,8.99544,6.58902,-7.21927,9.31,-1.16,1.1,7.0
1758074636.62106,1758074636.36375,0.0,0.0,0.0,11.22997,6.58902,-6.70361,10.15,-0.79,2.18,7.0
1758074636.62588,1758074636.37375,0.0,0.0,0.0,14.03747,6.41713,-6.70361,10.15,-0.79,2.18,7.0
1758074636.63046,1758074636.38375,0.0,0.0,0.0,18.33465,6.7609,-8.02141,10.67,-0.55,2.87,7.0
1758074636.64876,1758074636.39375,0.0,0.0,0.0,21.14215,6.53172,-9.39651,10.61,-0.57,3.18,7.0
1758074636.65082,1758074636.40375,0.0,0.0,0.0,23.26209,4.81285,-9.91217,10.61,-0.57,3.18,7.0
1758074636.66858,1758074636.41375,0.0,0.0,0.0,25.26744,2.7502,-11.17268,9.94,-0.85,2.97,7.0
1758074636.67074,1758074636.42375,0.0,0.0,0.0,27.1582,-2.40642,-11.97482,9.94,-0.85,2.97,7.0
1758074636.68882,1758074636.43375,0.0,0.0,0.0,28.24682,-7.79223,-12.08941,9.01,-0.9,3.11,7.0
1758074636.69234,1758074636.44375,0.0,0.0,0.0,28.76248,-11.74564,-12.08941,9.01,-0.9,3.11,7.0
1758074636.69266,1758074636.45375,0.0,0.0,0.0,30.02299,-13.86558,-11.17268,8.45,-0.56,3.49,7.0
1758074636.7084,1758074636.46375,0.0,0.0,0.0,31.45539,-11.63104,-10.25595,8.66,0.16,3.64,7.0
1758074636.7252,1758074636.47375,0.0,0.0,0.0,30.25217,-10.71431,-11.28727,8.66,0.16,3.64,7.0
1758074636.72985,1758074636.48375,0.0,0.0,0.0,29.62192,-12.49048,-10.48513,8.28,0.95,4.13,7.0
1758074636.7455,1758074636.49375,0.0,0.0,0.0,28.24682,-8.02141,-9.74028,8.28,0.95,4.13,7.0
1758074636.75069,1758074636.50375,0.0,0.0,0.0,28.01764,-6.99009,-8.47978,8.9,1.24,3.6,7.0
1758074636.76546,1758074636.51375,0.0,0.0,0.0,27.84575,-6.70361,-6.8182,8.9,1.24,3.6,7.0
1758074636.76993,1758074636.52375,0.0,0.0,0.0,28.13223,-3.89611,-5.50039,9.02,0.94,3.36,7.0
1758074636.78529,1758074636.53375,0.0,0.0,0.0,28.24682,2.97938,-4.46907,9.02,0.94,3.36,7.0
1758074636.7907,1758074636.54375,0.0,0.0,0.0,28.01764,7.50575,-3.83882,9.55,0.45,3.34,7.0
1758074636.80538,1758074636.55375,0.0,0.0,0.0,27.44468,11.28727,-3.20856,9.5,0.5,3.32,7.0
1758074636.81002,1758074636.56375,0.0,0.0,0.0,26.47065,13.98017,-2.57831,9.5,0.5,3.32,7.0
1758074636.82556,1758074636.57375,0.0,0.0,0.0,24.29341,15.92823,-1.71887,9.43,0.94,3.12,7.0
1758074636.83073,1758074636.58375,0.0,0.0,0.0,22.68913,16.55848,-1.14592,9.43,0.94,3.12,7.0
1758074636.84533,1758074636.59375,0.0,0.0,0.0,20.85567,17.18874,-0.40107,9.74,1.41,2.82,7.0
1758074636.85049,1758074636.60375,0.0,0.0,0.0,18.85031,17.58981,0.22918,9.74,1.41,2.82,7.0
1758074636.8703,1758074636.61375,0.0,0.0,0.0,15.69904,16.84496,0.80214,10.07,1.68,2.72,7.0
1758074636.87473,1758074636.62375,0.0,0.0,0.0,13.46451,15.24068,0.97403,9.87,1.6,2.78,7.0
1758074636.87775,1758074636.63375,0.0,0.0,0.0,11.34457,13.34992,0.85944,9.87,1.6,2.78,7.0
1758074636.89553,1758074636.64375,0.0,0.0,0.0,9.28192,10.54242,0.80214,9.56,1.27,2.77,7.0
1758074636.90075,1758074636.65375,0.0,0.0,0.0,6.41713,5.95876,0.57296,9.56,1.27,2.77,7.0
1758074636.91555,1758074636.66375,0.0,0.0,0.0,4.81285,3.60963,0.68755,9.25,1.05,2.71,7.0
1758074636.92043,1758074636.67375,0.0,0.0,0.0,3.66693,4.81285,1.14592,9.25,1.05,2.71,7.0
1758074637.0384,1758074636.68375,0.0,0.0,0.0,2.86479,8.30789,2.86479,9.48,0.97,2.76,7.0
1758074637.06545,1758074636.69375,0.0,0.0,0.0,1.20321,12.204,3.83882,9.33,1.01,2.91,7.0
1758074637.0847,1758074636.70375,0.0,0.0,0.0,0.0573,12.2613,4.81285,9.33,1.01,2.91,7.0
1758074637.13004,1758074636.71375,0.0,0.0,0.0,-0.85944,10.54242,5.61499,8.91,1.09,2.85,7.0
1758074637.13048,1758074636.72375,0.0,0.0,0.0,-2.06265,6.18794,6.41713,8.91,1.09,2.85,7.0
1758074637.13611,1758074636.73375,0.0,0.0,0.0,-2.57831,3.03668,6.70361,8.97,1.12,2.63,7.0
1758074637.13966,1758074636.74375,0.0,0.0,0.0,-2.6929,-0.97403,6.99009,8.97,1.12,2.63,7.0
1758074637.14191,1758074636.75375,0.0,0.0,0.0,-2.86479,-3.66693,7.39116,9.05,1.14,2.58,7.0
1758074637.15026,1758074636.76375,0.0,0.0,0.0,-3.55234,-3.20856,7.62034,9.41,1.14,2.6,7.0
1758074637.15092,1758074636.77375,0.0,0.0,0.0,-4.35448,0.22918,7.79223,9.41,1.12,2.6,7.0
1758074637.15411,1758074636.78375,0.0,0.0,0.0,-5.90147,4.29718,7.96411,9.47,1.07,2.64,7.0
1758074637.15518,1758074636.79375,0.0,0.0,0.0,-7.67763,7.04738,7.84952,9.47,1.07,2.64,7.0
1758074637.16063,1758074636.80375,0.0,0.0,0.0,-10.54242,7.84952,8.02141,8.9,1.03,2.8,7.0
1758074637.16182,1758074636.81375,0.0,0.0,0.0,-12.49048,6.8182,8.02141,8.9,1.03,2.8,7.0
1758074637.16538,1758074636.82375,0.0,0.0,0.0,-14.49583,4.92744,8.02141,8.73,0.97,2.54,7.0
1758074637.17001,1758074636.83375,0.0,0.0,0.0,-16.04282,2.97938,8.65166,8.73,0.97,2.54,7.0
1758074637.17117,1758074636.84375,0.0,0.0,0.0,-17.99088,1.20321,9.96947,8.89,0.94,2.33,7.0
1758074637.17503,1758074636.85375,0.0,0.0,0.0,-19.07949,0.97403,11.22997,9.12,0.8,2.34,7.0
1758074637.17626,1758074636.86375,0.0,0.0,0.0,-19.88164,0.22918,12.54778,9.12,0.8,2.34,7.0
1758074637.17879,1758074636.87375,0.0,0.0,0.0,-20.62648,-1.08862,13.5791,8.97,0.58,2.46,7.0
1758074637.18529,1758074636.88375,0.0,0.0,0.0,-21.31403,-4.58366,15.12609,8.97,0.58,2.46,7.0
1758074637.18986,1758074636.89375,0.0,0.0,0.0,-21.42862,-7.33386,15.69904,8.75,0.36,2.45,7.0
1758074637.19465,1758074636.90375,0.0,0.0,0.0,-21.25674,-8.99544,15.87093,8.75,0.36,2.45,7.0
1758074637.26099,1758074636.91375,0.0,0.0,0.0,-20.68378,-10.19865,15.35527,8.8,0.21,2.26,7.0
1758074637.26341,1758074636.92375,0.0,0.0,0.0,-20.11082,-11.11538,14.66772,8.76,0.05,2.19,7.0
1758074637.27157,1758074636.93375,0.0,0.0,0.0,-19.36597,-11.63104,13.69369,8.76,0.05,2.19,7.0
1758074637.27453,1758074636.94375,0.0,0.0,0.0,-18.22006,-13.06344,12.83425,8.68,-0.09,2.17,7.0
1758074637.27794,1758074636.95375,0.0,0.0,0.0,-16.21471,-16.21471,12.37589,8.68,-0.09,2.17,7.0
1758074637.28049,1758074636.96375,0.0,0.0,0.0,-14.49583,-20.3973,12.37589,8.7,-0.21,1.97,7.0
1758074637.28534,1758074636.97375,0.0,0.0,0.0,-12.54778,-22.63183,13.5218,8.7,-0.21,1.97,7.0
1758074637.29083,1758074636.98375,0.0,0.0,0.0,-11.17268,-23.94964,14.43854,9.18,-0.27,1.85,7.0
1758074637.32227,1758074636.99375,0.0,0.0,0.0,-9.4538,-26.75713,16.67307,9.51,-0.23,1.92,7.0
1758074637.32559,1758074637.00375,0.0,0.0,0.0,-8.65166,-27.2155,17.93358,9.51,-0.23,1.92,7.0
1758074637.33079,1758074637.01375,0.0,0.0,0.0,-8.02141,-27.04361,18.9649,9.72,-0.29,1.9,7.0
1758074637.33112,1758074637.02375,0.0,0.0,0.0,-7.62034,-26.75713,19.82434,9.72,-0.29,1.9,7.0
1758074637.33318,1758074637.03375,0.0,0.0,0.0,-7.44845,-25.38203,20.22541,9.43,-0.39,1.5,7.0
1758074637.3338,1758074637.04375,0.0,0.0,0.0,-7.50575,-23.89234,20.16812,9.43,-0.39,1.5,7.0
1758074637.33637,1758074637.05375,0.0,0.0,0.0,-7.73493,-22.57454,20.05352,9.3,-0.41,1.5,7.0
1758074637.34044,1758074637.06375,0.0,0.0,0.0,-7.79223,-21.7724,19.70975,9.3,-0.41,1.5,7.0
1758074637.34198,1758074637.07375,0.0,0.0,0.0,-8.65166,-20.16812,19.53786,9.52,-0.19,1.52,7.0
1758074637.34962,1758074637.08375,0.0,0.0,0.0,-8.93814,-18.22006,19.42327,10.1,-0.05,1.39,7.0
1758074637.35022,1758074637.09375,0.0,0.0,0.0,-9.22462,-16.61578,19.19409,10.1,-0.05,1.39,7.0
1758074637.35487,1758074637.10375,0.0,0.0,0.0,-9.39651,-15.12609,18.56383,10.04,-0.17,1.1,7.0
1758074637.35521,1758074637.11375,0.0,0.0,0.0,-9.33921,-13.69369,17.6471,10.04,-0.17,1.1,7.0
1758074637.37262,1758074637.12375,0.0,0.0,0.0,-9.5684,-11.91752,17.53251,9.64,-0.41,0.96,7.0
1758074637.37443,1758074637.13375,0.0,0.0,0.0,-10.02676,-11.63104,16.67307,9.64,-0.41,0.96,7.0
1758074637.38994,1758074637.14375,0.0,0.0,0.0,-10.48513,-13.23533,15.75634,9.25,-0.51,0.96,7.0
1758074637.40599,1758074637.15375,0.0,0.0,0.0,-10.8289,-14.72501,15.12609,8.97,-0.26,0.97,7.0
1758074637.41007,1758074637.16375,0.0,0.0,0.0,-11.11538,-16.55848,14.83961,8.97,-0.26,0.97,7.0
1758074637.42574,1758074637.17375,0.0,0.0,0.0,-11.57375,-17.81899,14.49583,8.83,0.05,0.91,7.0
1758074637.43005,1758074637.18375,0.0,0.0,0.0,-12.204,-18.33465,13.40721,8.83,0.05,0.91,7.0
1758074637.446,1758074637.19375,0.0,0.0,0.0,-12.204,-18.9649,13.00614,9.0,0.02,0.99,7.0
1758074637.45003,1758074637.20375,0.0,0.0,0.0,-12.08941,-21.37133,12.37589,9.0,0.02,0.99,7.0
1758074637.46598,1758074637.21375,0.0,0.0,0.0,-11.91752,-25.61122,11.74564,8.46,-0.08,1.48,7.0
1758074637.468,1758074637.22375,0.0,0.0,0.0,-11.11538,-31.62727,9.91217,8.36,0.01,1.88,7.0
1758074637.48399,1758074637.23375,0.0,0.0,0.0,-10.37054,-33.34615,8.02141,8.36,0.01,1.88,7.0
1758074637.48508,1758074637.24375,0.0,0.0,0.0,-8.99544,-32.88778,5.50039,10.16,-0.49,2.64,7.0
1758074637.49998,1758074637.25375,0.0,0.0,0.0,-7.10468,-28.36141,2.06265,10.16,-0.49,2.64,7.0
1758074637.51601,1758074637.26375,0.0,0.0,0.0,-3.32316,-8.70896,-4.69825,13.97,-2.19,4.18,7.0
1758074637.52175,1758074637.27375,0.0,0.0,0.0,1.03132,1.66158,-8.70896,13.97,-2.19,4.18,7.0
1758074637.52577,1758074637.28375,0.0,0.0,0.0,4.23989,1.08862,-14.15206,15.98,-4.58,5.62,7.0
1758074637.54574,1758074637.29375,0.0,0.0,0.0,8.70896,-21.37133,-15.41257,15.98,-4.58,5.62,7.0
1758074637.5501,1758074637.30375,0.0,0.0,0.0,22.05888,-55.57691,-15.87093,12.08,-5.54,5.03,7.0
1758074637.56571,1758074637.31375,0.0,0.0,0.0,30.53865,-51.85268,-18.50654,12.14,-5.05,2.13,7.0
1758074637.57006,1758074637.32375,0.0,0.0,0.0,37.29956,-46.1231,-16.50119,12.14,-5.05,2.13,7.0
1758074637.58576,1758074637.33375,0.0,0.0,0.0,44.9199,-25.55392,-10.8289,11.84,-3.0,0.64,7.0
1758074637.59015,1758074637.34375,0.0,0.0,0.0,46.75336,-9.91217,-4.87014,11.84,-3.0,0.64,7.0
1758074637.60576,1758074637.35375,0.0,0.0,0.0,48.12846,1.48969,3.32316,11.11,-1.23,2.77,7.0
1758074637.60964,1758074637.36375,0.0,0.0,0.0,46.69606,3.32316,9.91217,11.11,-1.23,2.77,7.0
1758074637.6251,1758074637.37375,0.0,0.0,0.0,38.84654,-7.33386,14.20935,9.57,-0.45,2.52,7.0
1758074637.62869,1758074637.38375,0.0,0.0,0.0,33.05967,-6.58902,15.64175,10.31,-0.39,1.42,7.0
1758074637.64401,1758074637.39375,0.0,0.0,0.0,27.96034,0.85944,15.75634,10.31,-0.39,1.42,7.0
1758074637.65093,1758074637.40375,0.0,0.0,0.0,23.0329,10.54242,13.80828,11.45,-0.92,0.43,7.0
1758074637.66582,1758074637.41375,0.0,0.0,0.0,17.24603,19.76705,9.22462,11.45,-0.92,0.43,7.0
1758074637.67423,1758074637.42375,0.0,0.0,0.0,14.43854,22.91831,5.50039,9.78,-1.57,1.22,7.0
1758074637.67482,1758074637.43375,0.0,0.0,0.0,12.14671,22.23076,1.83346,9.78,-1.57,1.22,7.0
1758074637.69084,1758074637.44375,0.0,0.0,0.0,10.94349,20.16812,-0.40107,8.68,-1.7,1.25,7.0
1758074637.69281,1758074637.45375,0.0,0.0,0.0,11.11538,19.13679,-2.86479,8.9,-1.44,0.69,7.0
1758074637.70991,1758074637.46375,0.0,0.0,0.0,12.43318,20.11082,-3.55234,8.9,-1.44,0.69,7.0
1758074637.72591,1758074637.47375,0.0,0.0,0.0,14.49583,21.31403,-3.26586,9.41,-1.18,0.67,7.0
1758074637.73095,1758074637.48375,0.0,0.0,0.0,17.01685,22.00158,-2.63561,9.41,-1.18,0.67,7.0
1758074637.74593,1758074637.49375,0.0,0.0,0.0,20.74107,19.70975,-1.03132,9.47,-1.23,1.35,7.0
1758074637.75267,1758074637.50375,0.0,0.0,0.0,22.74642,17.47521,-0.22918,9.47,-1.23,1.35,7.0
1758074637.7541,1758074637.51375,0.0,0.0,0.0,24.80907,14.72501,0.17189,9.32,-1.74,1.53,7.0
1758074637.81604,1758074637.52375,0.0,0.0,0.0,26.41335,12.08941,0.22918,9.32,-1.74,1.53,7.0
1758074637.91058,1758074637.53375,0.0,0.0,0.0,28.13223,8.47978,-0.17189,9.35,-2.27,1.4,7.0
1758074637.91095,1758074637.54375,0.0,0.0,0.0,29.33544,6.13065,-0.51566,9.5,-2.42,1.46,7.0
1758074637.92115,1758074637.55375,0.0,0.0,0.0,29.8511,4.0107,-1.20321,9.5,-2.42,1.46,7.0
1758074637.93918,1758074637.56375,0.0,0.0,0.0,30.13758,2.23454,-1.94806,9.6,-2.1,1.34,7.0
1758074637.94195,1758074637.57375,0.0,0.0,0.0,29.67921,5.27121,-2.23454,9.6,-2.1,1.34,7.0
1758074637.94979,1758074637.58375,0.0,0.0,0.0,28.41871,15.0115,-3.26586,10.2,-1.46,1.35,7.0
1758074637.95013,1758074637.59375,0.0,0.0,0.0,26.81443,24.12152,-4.23989,10.2,-1.46,1.35,7.0
1758074637.95374,1758074637.60375,0.0,0.0,0.0,23.89234,27.04361,-4.81285,10.27,-0.89,1.7,7.0
1758074637.95572,1758074637.61375,0.0,0.0,0.0,21.7724,20.97026,-4.98473,8.98,-0.44,2.27,7.0
1758074637.96074,1758074637.62375,0.0,0.0,0.0,19.48057,14.09476,-4.92744,8.98,-0.44,2.27,7.0
1758074637.96476,1758074637.63375,0.0,0.0,0.0,17.24603,8.36518,-4.87014,9.22,-0.22,1.27,7.0
1758074638.02948,1758074637.64375,0.0,0.0,0.0,14.78231,2.11994,-4.35448,9.22,-0.22,1.27,7.0
1758074638.03018,1758074637.65375,0.0,0.0,0.0,13.80828,-1.43239,-4.35448,9.84,-0.29,1.05,7.0
1758074638.03143,1758074637.66375,0.0,0.0,0.0,13.17803,-4.35448,-4.64096,9.84,-0.29,1.05,7.0
1758074638.03359,1758074637.67375,0.0,0.0,0.0,13.06344,-6.41713,-5.27121,9.9,-0.81,1.44,7.0
1758074638.03627,1758074637.68375,0.0,0.0,0.0,13.98017,-5.95876,-7.04738,9.99,-1.4,1.49,7.0
1758074638.03693,1758074637.69375,0.0,0.0,0.0,14.49583,-2.92208,-8.36518,9.99,-1.4,1.49,7.0
1758074638.0409,1758074637.70375,0.0,0.0,0.0,15.87093,1.66158,-9.4538,10.09,-1.76,1.5,7.0
1758074638.04124,1758074637.71375,0.0,0.0,0.0,16.95955,5.72958,-10.37054,10.09,-1.76,1.5,7.0
1758074638.0448,1758074637.72375,0.0,0.0,0.0,18.44924,9.05273,-11.74564,9.7,-1.77,1.58,7.0
1758074638.04545,1758074637.73375,0.0,0.0,0.0,18.90761,9.5684,-12.43318,9.7,-1.77,1.58,7.0
1758074638.05039,1758074637.74375,0.0,0.0,0.0,19.13679,9.5684,-12.77696,9.35,-1.46,1.57,7.0
1758074638.05129,1758074637.75375,0.0,0.0,0.0,19.13679,9.39651,-12.83425,9.35,-1.46,1.57,7.0
1758074638.05392,1758074637.76375,0.0,0.0,0.0,18.85031,10.54242,-13.06344,9.48,-1.01,1.45,7.0
1758074638.05471,1758074637.77375,0.0,0.0,0.0,18.44924,12.37589,-13.12073,9.94,-0.61,1.62,7.0
1758074638.05551,1758074637.78375,0.0,0.0,0.0,17.81899,14.32395,-13.40721,9.94,-0.61,1.62,7.0
1758074638.05665,1758074637.79375,0.0,0.0,0.0,15.92823,14.03747,-13.69369,10.35,-0.36,2.17,7.0
1758074638.05738,1758074637.80375,0.0,0.0,0.0,14.15206,12.71966,-13.00614,10.35,-0.36,2.17,7.0
1758074638.06008,1758074637.81375,0.0,0.0,0.0,11.97482,11.00079,-11.63104,10.74,-0.26,2.77,7.0
1758074638.0751,1758074637.82375,0.0,0.0,0.0,9.28192,8.42248,-10.02676,10.74,-0.26,2.77,7.0
1758074638.07741,1758074637.83375,0.0,0.0,0.0,4.64096,5.55769,-7.50575,10.88,-0.28,2.9,7.0
1758074638.09241,1758074637.84375,0.0,0.0,0.0,1.43239,5.61499,-6.24524,10.59,-0.38,2.64,7.0
1758074638.1107,1758074637.85375,0.0,0.0,0.0,-1.20321,7.21927,-5.55769,10.59,-0.38,2.64,7.0
1758074638.11091,1758074637.86375,0.0,0.0,0.0,-3.32316,9.05273,-5.72958,10.09,-0.58,2.06,7.0
1758074638.12882,1758074637.87375,0.0,0.0,0.0,-4.98473,11.91752,-7.21927,10.09,-0.58,2.06,7.0
1758074638.13031,1758074637.88375,0.0,0.0,0.0,-5.09932,13.00614,-8.59437,9.41,-0.73,1.67,7.0
1758074638.15061,1758074637.89375,0.0,0.0,0.0,-4.69825,13.34992,-9.91217,9.41,-0.73,1.67,7.0
1758074638.15181,1758074637.90375,0.0,0.0,0.0,-3.66693,12.83425,-11.11538,8.89,-0.8,1.6,7.0
1758074638.1538,1758074637.91375,0.0,0.0,0.0,-1.3751,12.49048,-12.2613,8.93,-0.75,1.66,7.0
1758074638.17035,1758074637.92375,0.0,0.0,0.0,0.22918,12.2613,-12.83425,8.93,-0.75,1.66,7.0
1758074638.17148,1758074637.93375,0.0,0.0,0.0,2.00535,11.86023,-13.17803,9.12,-0.67,2.06,7.0
1758074638.18933,1758074637.94375,0.0,0.0,0.0,3.55234,11.22997,-13.5791,9.12,-0.67,2.06,7.0
1758074638.20549,1758074637.95375,0.0,0.0,0.0,5.4431,9.68299,-13.80828,9.33,-0.58,2.49,7.0
1758074638.21044,1758074637.96375,0.0,0.0,0.0,6.47442,7.73493,-13.98017,9.33,-0.58,2.49,7.0
1758074638.22522,1758074637.97375,0.0,0.0,0.0,7.50575,5.15662,-14.09476,9.47,-0.53,2.67,7.0
1758074638.23039,1758074637.98375,0.0,0.0,0.0,8.76626,0.97403,-13.98017,9.47,-0.53,2.67,7.0
1758074638.24556,1758074637.99375,0.0,0.0,0.0,9.74028,-1.60428,-13.80828,9.59,-0.5,2.59,7.0
1758074638.25073,1758074638.00375,0.0,0.0,0.0,10.65701,-3.72423,-13.23533,9.69,-0.39,2.53,7.0
1758074638.26532,1758074638.01375,0.0,0.0,0.0,11.97482,-5.09932,-13.00614,9.69,-0.39,2.53,7.0
1758074638.27041,1758074638.02375,0.0,0.0,0.0,13.80828,-8.65166,-12.83425,9.6,-0.21,2.7,7.0
1758074638.28555,1758074638.03375,0.0,0.0,0.0,15.35527,-12.08941,-13.06344,9.6,-0.21,2.7,7.0
1758074638.28908,1758074638.04375,0.0,0.0,0.0,16.73037,-15.29797,-13.5218,9.16,-0.07,2.74,7.0
1758074638.30436,1758074638.05375,0.0,0.0,0.0,18.33465,-17.81899,-14.15206,9.16,-0.07,2.74,7.0
1758074638.30544,1758074638.06375,0.0,0.0,0.0,21.14215,-19.53786,-14.61043,9.06,-0.11,2.74,7.0
1758074638.32025,1758074638.07375,0.0,0.0,0.0,23.26209,-17.99088,-14.72501,9.24,-0.14,2.66,7.0
1758074638.32253,1758074638.08375,0.0,0.0,0.0,25.89769,-14.09476,-14.03747,9.24,-0.14,2.66,7.0
1758074638.34006,1758074638.09375,0.0,0.0,0.0,27.84575,-9.85487,-13.34992,9.4,-0.08,2.85,7.0
1758074638.34131,1758074638.10375,0.0,0.0,0.0,30.88243,-8.47978,-11.17268,9.4,-0.08,2.85,7.0
1758074638.36128,1758074638.11375,0.0,0.0,0.0,33.11696,-11.17268,-9.39651,8.77,0.01,3.05,7.0
1758074638.36989,1758074638.12375,0.0,0.0,0.0,33.74722,-16.73037,-9.4538,8.77,0.01,3.05,7.0
1758074638.38561,1758074638.13375,0.0,0.0,0.0,34.49206,-18.62113,-9.33921,8.69,0.06,2.78,7.0
1758074638.38838,1758074638.14375,0.0,0.0,0.0,37.01308,-15.24068,-7.79223,10.33,0.19,2.54,7.0
1758074638.40439,1758074638.15375,0.0,0.0,0.0,38.90384,-10.59972,-6.99009,10.33,0.19,2.54,7.0
1758074638.4053,1758074638.16375,0.0,0.0,0.0,40.7373,-8.25059,-5.15662,11.05,0.39,3.05,7.0
1758074638.42058,1758074638.17375,0.0,0.0,0.0,42.74266,-6.18794,-1.66158,11.05,0.39,3.05,7.0
1758074638.42154,1758074638.18375,0.0,0.0,0.0,43.54479,-2.46372,0.85944,10.91,0.5,3.08,7.0
1758074638.43787,1758074638.19375,0.0,0.0,0.0,44.11775,-0.74485,3.20856,10.91,0.5,3.08,7.0
1758074638.45333,1758074638.20375,0.0,0.0,0.0,44.11775,-0.34377,4.98473,10.3,0.6,2.76,7.0
1758074638.45538,1758074638.21375,0.0,0.0,0.0,43.54479,-0.57296,7.21927,10.3,0.6,2.76,7.0
1758074638.47058,1758074638.22375,0.0,0.0,0.0,42.74266,-0.17189,8.25059,9.82,0.78,2.6,7.0
1758074638.4723,1758074638.23375,0.0,0.0,0.0,42.1124,0.57296,8.88085,9.89,0.99,2.47,7.0
1758074638.48937,1758074638.24375,0.0,0.0,0.0,41.36755,2.00535,8.99544,9.89,0.99,2.47,7.0
1758074638.50539,1758074638.25375,0.0,0.0,0.0,39.87786,4.29718,8.65166,9.92,1.16,2.41,7.0
1758074638.51101,1758074638.26375,0.0,0.0,0.0,38.73195,5.90147,8.25059,9.92,1.16,2.41,7.0
1758074638.52568,1758074638.27375,0.0,0.0,0.0,37.52874,7.39116,7.84952,9.85,1.3,2.4,7.0
1758074638.53563,1758074638.28375,0.0,0.0,0.0,36.15364,8.65166,7.67763,9.85,1.3,2.4,7.0
1758074638.54031,1758074638.29375,0.0,0.0,0.0,34.0337,10.71431,7.73493,9.62,1.43,2.26,7.0
1758074638.57068,1758074638.30375,0.0,0.0,0.0,32.48671,13.00614,7.79223,9.57,1.48,2.1,7.0
1758074638.59939,1758074638.31375,0.0,0.0,0.0,30.99702,15.12609,7.96411,9.57,1.48,2.1,7.0
1758074638.59991,1758074638.32375,0.0,0.0,0.0,29.67921,16.67307,8.25059,9.44,1.43,2.08,7.0
1758074638.60311,1758074638.33375,0.0,0.0,0.0,27.61657,17.87628,9.05273,9.44,1.43,2.08,7.0
1758074638.6058,1758074638.34375,0.0,0.0,0.0,26.41335,18.27736,9.85487,9.33,1.42,2.11,7.0
1758074638.61528,1758074638.35375,0.0,0.0,0.0,25.21014,18.44924,10.8862,9.33,1.42,2.11,7.0
1758074638.61572,1758074638.36375,0.0,0.0,0.0,23.72045,17.93358,12.54778,9.43,1.53,2.12,7.0
1758074638.6167,1758074638.37375,0.0,0.0,0.0,21.37133,16.50119,13.80828,9.51,1.66,2.11,7.0
1758074638.63573,1758074638.38375,0.0,0.0,0.0,19.25138,14.72501,14.83961,9.51,1.66,2.11,7.0
1758074638.63858,1758074638.39375,0.0,0.0,0.0,16.95955,13.23533,15.58445,9.47,1.7,2.08,7.0
1758074638.65456,1758074638.40375,0.0,0.0,0.0,12.77696,13.5218,15.98552,9.47,1.7,2.08,7.0
1758074638.6555,1758074638.41375,0.0,0.0,0.0,9.5684,13.46451,15.64175,9.43,1.52,2.06,7.0
1758074638.67082,1758074638.42375,0.0,0.0,0.0,6.18794,13.06344,15.06879,9.43,1.52,2.06,7.0
1758074638.67198,1758074638.43375,0.0,0.0,0.0,2.7502,12.43318,14.49583,9.04,1.35,1.97,7.0
1758074638.7171,1758074638.44375,0.0,0.0,0.0,-1.71887,11.51645,13.98017,9.04,1.35,2.0,7.0
1758074638.72122,1758074638.45375,0.0,0.0,0.0,-4.52637,9.96947,14.09476,8.86,1.21,2.0,7.0
1758074638.72584,1758074638.46375,0.0,0.0,0.0,-7.39116,7.73493,14.43854,8.75,1.18,2.02,7.0
1758074638.73506,1758074638.47375,0.0,0.0,0.0,-9.91217,4.35448,15.0115,8.75,1.18,2.02,7.0
1758074638.73566,1758074638.48375,0.0,0.0,0.0,-13.69369,-0.51566,15.92823,8.84,1.31,2.03,7.0
1758074638.7369,1758074638.49375,0.0,0.0,0.0,-15.98552,-1.71887,16.84496,8.84,1.31,2.03,7.0
1758074638.7528,1758074638.50375,0.0,0.0,0.0,-18.56383,-2.11994,17.30333,9.27,1.34,2.01,7.0
1758074638.75378,1758074638.51375,0.0,0.0,0.0,-20.85567,-2.40642,17.76169,9.27,1.34,2.01,7.0
1758074638.77068,1758074638.52375,0.0,0.0,0.0,-24.29341,-3.60963,17.87628,9.45,1.17,2.16,7.0
1758074638.77185,1758074638.53375,0.0,0.0,0.0,-26.41335,-5.61499,17.53251,9.27,0.91,2.15,7.0
1758074638.79019,1758074638.54375,0.0,0.0,0.0,-28.30412,-7.62034,17.24603,9.27,0.91,2.15,7.0
1758074638.79566,1758074638.55375,0.0,0.0,0.0,-29.73651,-8.93814,16.67307,9.15,0.72,1.88,7.0
1758074638.84218,1758074638.56375,0.0,0.0,0.0,-31.28349,-10.48513,15.92823,9.15,0.72,1.88,7.0
1758074638.86305,1758074638.57375,0.0,0.0,0.0,-32.14294,-11.51645,15.41257,8.94,0.5,1.7,7.0
1758074638.86589,1758074638.58375,0.0,0.0,0.0,-32.42941,-13.06344,14.66772,8.94,0.5,1.7,7.0
1758074638.87017,1758074638.59374,0.0,0.0,0.0,-32.42941,-13.69369,14.20935,8.62,0.23,1.55,7.0
1758074638.87081,1758074638.60374,0.0,0.0,0.0,-31.62727,-15.87093,14.61043,8.68,0.18,1.52,7.0
1758074638.87551,1758074638.61374,0.0,0.0,0.0,-31.2262,-17.47521,14.83961,8.68,0.18,1.52,7.0
1758074638.87582,1758074638.62374,0.0,0.0,0.0,-30.82513,-18.56383,15.35527,9.13,0.21,1.52,7.0
1758074638.8779,1758074638.63374,0.0,0.0,0.0,-30.25217,-19.76705,16.61578,9.13,0.21,1.52,7.0
1758074638.89601,1758074638.64374,0.0,0.0,0.0,-30.19488,-21.08485,17.18874,9.6,0.14,1.61,7.0
1758074638.89694,1758074638.65374,0.0,0.0,0.0,-29.73651,-21.88699,17.53251,9.6,0.14,1.61,7.0
1758074638.91991,1758074638.66374,0.0,0.0,0.0,-29.73651,-22.05888,17.36062,9.7,-0.01,1.53,7.0
1758074638.92114,1758074638.67374,0.0,0.0,0.0,-29.56462,-22.57454,16.3293,9.6,-0.2,1.3,7.0
1758074638.975,1758074638.68374,0.0,0.0,0.0,-29.62192,-22.51724,15.06879,9.6,-0.2,1.3,7.0
1758074638.97949,1758074638.69374,0.0,0.0,0.0,-29.67921,-22.05888,13.98017,9.5,-0.32,1.16,7.0
1758074638.98006,1758074638.70374,0.0,0.0,0.0,-29.8511,-21.42862,12.71966,9.5,-0.32,1.16,7.0
1758074638.98123,1758074638.71374,0.0,0.0,0.0,-30.02299,-20.22541,10.71431,9.41,-0.29,1.01,7.0
1758074638.98587,1758074638.72374,0.0,0.0,0.0,-30.30947,-18.85031,9.33921,9.41,-0.29,1.01,7.0
1758074638.99106,1758074638.73374,0.0,0.0,0.0,-30.53865,-18.10547,8.42248,9.05,-0.25,0.98,7.0
1758074638.99334,1758074638.74374,0.0,0.0,0.0,-30.65324,-17.36062,7.96411,9.05,-0.25,0.98,7.0
1758074638.99524,1758074638.75374,0.0,0.0,0.0,-31.56997,-17.53251,8.36518,8.86,-0.07,1.08,7.0
1758074639.0134,1758074638.76374,0.0,0.0,0.0,-32.42941,-16.38659,9.5684,9.31,0.2,1.06,7.0
1758074639.01542,1758074638.77374,0.0,0.0,0.0,-33.34615,-16.50119,11.22997,9.31,0.2,1.06,7.0
1758074639.05692,1758074638.78374,0.0,0.0,0.0,-33.80451,-16.90226,12.89155,9.46,0.04,0.87,7.0
1758074639.06183,1758074638.79374,0.0,0.0,0.0,-33.86181,-17.99088,13.46451,9.46,0.04,0.87,7.0
1758074639.06569,1758074638.80374,0.0,0.0,0.0,-33.40344,-19.13679,13.00614,9.33,-0.42,0.74,7.0
1758074639.07015,1758074638.81374,0.0,0.0,0.0,-32.42941,-20.05352,11.80293,9.33,-0.42,0.74,7.0
1758074639.07116,1758074638.82374,0.0,0.0,0.0,-30.30947,-23.0329,9.22462,9.25,-0.96,0.52,7.0
1758074639.0727,1758074638.83374,0.0,0.0,0.0,-28.99167,-26.98631,6.99009,8.93,-1.01,0.86,7.0
1758074639.09038,1758074638.84374,0.0,0.0,0.0,-28.01764,-31.62727,4.35448,8.93,-1.01,0.86,7.0
1758074639.10844,1758074638.85374,0.0,0.0,0.0,-27.10091,-34.0337,1.71887,9.21,-0.76,1.27,7.0
1758074639.11605,1758074638.86374,0.0,0.0,0.0,-25.15285,-32.14294,-3.09397,9.21,-0.76,1.27,7.0
1758074639.12041,1758074638.87374,0.0,0.0,0.0,-23.0902,-24.92367,-7.62034,11.22,-1.22,2.16,7.0
1758074639.12559,1758074638.88374,0.0,0.0,0.0,-20.74107,-15.35527,-11.91752,11.22,-1.22,2.16,7.0
1758074639.14595,1758074638.89374,0.0,0.0,0.0,-18.56383,-6.13065,-15.35527,13.84,-2.56,3.77,7.0
1758074639.15186,1758074638.90374,0.0,0.0,0.0,-12.83425,-9.22462,-19.25138,12.87,-3.52,4.4,7.0
1758074639.15488,1758074638.91374,0.0,0.0,0.0,-10.71431,-30.36677,-20.51189,12.87,-3.52,4.4,7.0
1758074639.17081,1758074638.92374,0.0,0.0,0.0,-6.58902,-49.67545,-17.13144,10.35,-3.29,3.7,7.0
1758074639.17398,1758074638.93374,0.0,0.0,0.0,-0.85944,-52.9986,-15.75634,10.35,-3.29,3.7,7.0
1758074639.19074,1758074638.94374,0.0,0.0,0.0,6.70361,-46.1804,-18.10547,12.4,-2.91,2.42,7.0
1758074639.21038,1758074638.95374,0.0,0.0,0.0,10.31324,-38.44547,-20.22541,12.4,-2.91,2.42,7.0
1758074639.21479,1758074638.96374,0.0,0.0,0.0,13.17803,-20.85567,-20.68378,12.08,-2.05,2.44,7.0
1758074639.2162,1758074638.97374,0.0,0.0,0.0,15.24068,-2.23454,-19.13679,12.08,-2.05,2.44,7.0
1758074639.23481,1758074638.98374,0.0,0.0,0.0,18.50654,2.23454,-14.03747,12.06,-1.28,2.02,7.0
1758074639.23626,1758074638.99374,0.0,0.0,0.0,16.04282,-5.90147,-14.20935,9.68,-1.0,1.46,7.0
1758074639.25119,1758074639.00374,0.0,0.0,0.0,14.66772,-3.83882,-12.54778,9.68,-1.0,1.46,7.0
1758074639.25375,1758074639.01374,0.0,0.0,0.0,12.08941,4.81285,-9.68299,12.11,-1.17,0.24,7.0
1758074639.26994,1758074639.02374,0.0,0.0,0.0,10.02676,21.7724,-7.79223,12.11,-1.17,0.24,7.0
1758074639.34566,1758074639.03374,0.0,0.0,0.0,7.04738,29.96569,-6.58902,12.03,-1.68,0.75,7.0
1758074639.35066,1758074639.04374,0.0,0.0,0.0,3.83882,34.49206,-5.84417,12.03,-1.68,0.75,7.0
1758074639.35389,1758074639.05374,0.0,0.0,0.0,-0.97403,37.58603,-5.27121,10.05,-1.85,1.49,7.0
1758074639.35562,1758074639.06374,0.0,0.0,0.0,-3.09397,38.44547,-5.09932,9.34,-1.44,0.91,7.0
1758074639.36058,1758074639.07374,0.0,0.0,0.0,-4.29718,38.56006,-4.98473,9.34,-1.44,0.91,7.0
1758074639.36268,1758074639.08374,0.0,0.0,0.0,-4.46907,36.84119,-4.58366,9.39,-0.89,0.94,7.0
1758074639.36564,1758074639.09374,0.0,0.0,0.0,-3.32316,31.85646,-4.18259,9.39,-0.89,0.94,7.0
1758074639.37023,1758074639.10374,0.0,0.0,0.0,-2.11994,29.39274,-4.29718,9.45,-0.67,0.85,7.0
1758074639.37119,1758074639.11374,0.0,0.0,0.0,-0.74485,28.59059,-4.29718,9.45,-0.67,0.85,7.0
1758074639.37319,1758074639.12374,0.0,0.0,0.0,0.85944,26.18417,-4.52637,9.71,-1.03,0.9,7.0
1758074639.37784,1758074639.13374,0.0,0.0,0.0,3.32316,21.94428,-5.27121,9.42,-1.71,1.21,7.0
1758074639.39629,1758074639.14374,0.0,0.0,0.0,4.64096,19.36597,-5.21392,9.42,-1.71,1.21,7.0
1758074639.39722,1758074639.15374,0.0,0.0,0.0,6.13065,18.73572,-5.4431,9.53,-2.18,1.16,7.0
1758074639.41532,1758074639.16374,0.0,0.0,0.0,7.79223,18.79302,-5.15662,9.53,-2.18,1.16,7.0
1758074639.4165,1758074639.17374,0.0,0.0,0.0,10.02676,17.47521,-4.35448,9.63,-2.12,1.46,7.0
1758074639.44006,1758074639.18374,0.0,0.0,0.0,10.8862,15.0115,-3.95341,9.63,-2.12,1.46,7.0
1758074639.51524,1758074639.19374,0.0,0.0,0.0,11.57375,11.97482,-3.66693,9.4,-1.67,1.3,7.0
1758074639.51557,1758074639.20374,0.0,0.0,0.0,11.80293,11.57375,-3.49504,9.4,-1.67,1.3,7.0
1758074639.52108,1758074639.21374,0.0,0.0,0.0,11.86023,22.74642,-4.52637,9.82,-1.05,1.28,7.0
1758074639.53179,1758074639.22374,0.0,0.0,0.0,10.37054,31.11161,-6.87549,10.38,-0.72,1.46,7.0
1758074639.81076,1758074639.23374,0.0,0.0,0.0,9.33921,31.56997,-7.04738,10.38,-0.72,1.46,7.0
1758074639.81535,1758074639.24374,0.0,0.0,0.0,7.10468,27.1582,-7.79223,9.35,-0.43,2.27,7.0
1758074639.81809,1758074639.25374,0.0,0.0,0.0,5.21392,20.97026,-7.50575,9.35,-0.43,2.27,7.0
1758074639.83544,1758074639.26374,0.0,0.0,0.0,3.66693,14.83961,-6.99009,9.18,-0.29,1.41,7.0
1758074639.8362,1758074639.27374,0.0,0.0,0.0,2.63561,9.68299,-6.18794,9.18,-0.29,1.41,7.0
1758074639.84531,1758074639.28374,0.0,0.0,0.0,2.06265,3.49504,-5.50039,9.64,-0.41,1.01,7.0
1758074639.85094,1758074639.29374,0.0,0.0,0.0,2.57831,0.22918,-5.4431,9.75,-0.78,1.2,7.0
1758074639.96078,1758074639.30374,0.0,0.0,0.0,3.09397,-1.3178,-5.21392,9.75,-0.78,1.2,7.0
1758074639.96326,1758074639.31374,0.0,0.0,0.0,3.95341,-1.60428,-5.50039,9.93,-1.12,1.44,7.0
1758074640.22299,1758074639.32374,0.0,0.0,0.0,5.27121,2.23454,-5.21392,9.93,-1.12,1.44,7.0
1758074640.22592,1758074639.33374,0.0,0.0,0.0,6.07335,5.21392,-4.87014,10.12,-1.2,1.52,7.0
1758074640.23012,1758074639.34374,0.0,0.0,0.0,6.53172,7.62034,-4.58366,10.12,-1.2,1.52,7.0
1758074640.23154,1758074639.35374,0.0,0.0,0.0,6.58902,8.76626,-4.29718,9.87,-1.02,1.53,7.0
1758074640.23525,1758074639.36374,0.0,0.0,0.0,6.18794,8.136,-4.35448,9.65,-0.78,1.46,7.0
1758074640.23578,1758074639.37374,0.0,0.0,0.0,5.72958,7.16197,-4.58366,9.65,-0.78,1.46,7.0
1758074640.23783,1758074639.38374,0.0,0.0,0.0,5.32851,6.41713,-4.69825,9.69,-0.63,1.19,7.0
1758074640.24353,1758074639.39374,0.0,0.0,0.0,4.98473,5.84417,-4.92744,9.69,-0.63,1.19,7.0
1758074640.24606,1758074639.40374,0.0,0.0,0.0,4.58366,7.84952,-5.4431,9.98,-0.6,1.24,7.0
1758074640.25135,1758074639.41374,0.0,0.0,0.0,4.23989,9.11003,-5.90147,9.98,-0.6,1.24,7.0
1758074640.25262,1758074639.42374,0.0,0.0,0.0,4.1253,10.54242,-6.53172,10.14,-0.62,1.42,7.0
1758074640.25812,1758074639.43374,0.0,0.0,0.0,3.49504,12.37589,-7.79223,10.14,-0.62,1.42,7.0
1758074640.26016,1758074639.44374,0.0,0.0,0.0,3.20856,12.71966,-8.30789,10.03,-0.66,1.67,7.0
1758074640.26078,1758074639.45374,0.0,0.0,0.0,3.26586,11.86023,-8.136,9.78,-0.7,1.81,7.0
1758074640.27044,1758074639.46374,0.0,0.0,0.0,3.66693,10.25595,-7.67763,9.78,-0.7,1.81,7.0
1758074640.27642,1758074639.47374,0.0,0.0,0.0,4.58366,8.30789,-6.35983,9.96,-0.57,1.87,7.0
1758074640.30595,1758074639.48374,0.0,0.0,0.0,5.61499,8.30789,-5.55769,9.96,-0.57,1.87,7.0
1758074640.31018,1758074639.49374,0.0,0.0,0.0,6.53172,8.76626,-4.69825,10.37,-0.36,2.09,7.0
1758074640.3107,1758074639.50374,0.0,0.0,0.0,7.21927,10.19865,-4.29718,10.37,-0.36,2.09,7.0
1758074640.31399,1758074639.51374,0.0,0.0,0.0,7.79223,11.57375,-4.29718,10.55,-0.19,2.15,7.0
1758074640.31425,1758074639.52374,0.0,0.0,0.0,7.62034,12.37589,-4.69825,10.37,-0.05,2.23,7.0
1758074640.31965,1758074639.53374,0.0,0.0,0.0,7.16197,12.83425,-5.15662,10.37,-0.05,2.23,7.0
1758074640.32009,1758074639.54374,0.0,0.0,0.0,6.47442,12.83425,-5.84417,10.02,0.06,2.37,7.0
1758074640.32088,1758074639.55374,0.0,0.0,0.0,4.64096,12.37589,-7.04738,10.02,0.06,2.37,7.0
1758074640.32592,1758074639.56374,0.0,0.0,0.0,3.38045,11.86023,-8.0787,9.62,0.18,2.6,7.0
1758074640.32869,1758074639.57374,0.0,0.0,0.0,2.00535,11.28727,-9.22462,9.62,0.18,2.6,7.0
1758074640.33093,1758074639.58374,0.0,0.0,0.0,0.74485,10.59972,-10.25595,9.27,0.24,2.72,7.0
1758074640.3322,1758074639.59374,0.0,0.0,0.0,-1.14592,10.08406,-11.63104,9.2,0.29,2.73,7.0
1758074640.33532,1758074639.60374,0.0,0.0,0.0,-2.29183,9.85487,-12.49048,9.2,0.29,2.73,7.0
1758074640.33648,1758074639.61374,0.0,0.0,0.0,-2.97938,9.68299,-13.23533,9.28,0.34,2.66,7.0
1758074640.33984,1758074639.62374,0.0,0.0,0.0,-3.49504,9.91217,-14.38124,9.28,0.34,2.66,7.0
1758074640.34019,1758074639.63374,0.0,0.0,0.0,-2.86479,10.65701,-14.9542,9.47,0.3,2.58,7.0
1758074640.3425,1758074639.64374,0.0,0.0,0.0,-2.06265,11.22997,-15.41257,9.47,0.3,2.58,7.0
1758074640.34473,1758074639.65374,0.0,0.0,0.0,-0.68755,11.28727,-15.92823,9.58,0.12,2.77,7.0
1758074640.34568,1758074639.66374,0.0,0.0,0.0,1.3751,9.28192,-15.75634,9.58,0.12,2.77,7.0
1758074640.34977,1758074639.67374,0.0,0.0,0.0,2.86479,7.73493,-15.64175,9.45,-0.05,3.08,7.0
1758074640.3507,1758074639.68374,0.0,0.0,0.0,4.0107,3.03668,-15.41257,9.09,-0.14,3.32,7.0
1758074640.35242,1758074639.69374,0.0,0.0,0.0,5.21392,-2.97938,-15.0115,9.09,-0.14,3.32,7.0
1758074640.35282,1758074639.70374,0.0,0.0,0.0,6.53172,-11.22997,-14.66772,8.77,-0.1,3.19,7.0
1758074640.35551,1758074639.71374,0.0,0.0,0.0,7.10468,-15.12609,-14.43854,8.77,-0.1,3.19,7.0
1758074640.35634,1758074639.72374,0.0,0.0,0.0,7.67763,-17.18874,-13.69369,8.95,0.0,3.1,7.0
1758074640.35745,1758074639.73374,0.0,0.0,0.0,8.42248,-16.90226,-12.49048,8.95,0.0,3.1,7.0
1758074640.35821,1758074639.74374,0.0,0.0,0.0,9.05273,-15.0115,-10.48513,9.43,0.1,3.19,7.0
1758074640.3658,1758074639.75374,0.0,0.0,0.0,9.28192,-14.03747,-8.99544,9.66,0.13,3.31,7.0
1758074640.36983,1758074639.76374,0.0,0.0,0.0,9.33921,-12.77696,-7.62034,9.66,0.13,3.31,7.0
1758074640.37072,1758074639.77374,0.0,0.0,0.0,9.05273,-10.71431,-6.41713,10.14,0.14,3.21,7.0
1758074640.37214,1758074639.78374,0.0,0.0,0.0,8.59437,-7.33386,-5.27121,10.14,0.14,3.21,7.0
1758074640.37531,1758074639.79374,0.0,0.0,0.0,8.30789,-5.4431,-4.69825,10.26,0.28,3.13,7.0
1758074640.37567,1758074639.80374,0.0,0.0,0.0,7.73493,-3.20856,-4.46907,10.26,0.28,3.13,7.0
1758074640.37685,1758074639.81374,0.0,0.0,0.0,7.16197,-1.08862,-4.35448,9.99,0.58,3.03,7.0
1758074640.3783,1758074639.82374,0.0,0.0,0.0,6.58902,1.3178,-4.58366,9.62,0.86,2.84,7.0
1758074640.383,1758074639.83374,0.0,0.0,0.0,6.24524,2.57831,-4.81285,9.62,0.86,2.84,7.0
1758074640.3859,1758074639.84374,0.0,0.0,0.0,6.24524,3.83882,-4.98473,9.43,1.01,2.66,7.0
1758074640.38832,1758074639.85374,0.0,0.0,0.0,6.41713,5.15662,-5.15662,9.43,1.01,2.66,7.0
1758074640.39076,1758074639.86374,0.0,0.0,0.0,6.7609,7.16197,-4.92744,9.46,0.95,2.54,7.0
1758074640.39354,1758074639.87374,0.0,0.0,0.0,7.39116,8.36518,-4.46907,9.46,0.95,2.54,7.0
1758074640.3952,1758074639.88374,0.0,0.0,0.0,8.02141,8.88085,-3.83882,9.53,0.82,2.5,7.0
1758074640.39579,1758074639.89374,0.0,0.0,0.0,9.33921,8.99544,-3.09397,9.53,0.82,2.5,7.0
1758074640.40036,1758074639.90374,0.0,0.0,0.0,10.02676,8.88085,-2.63561,9.55,0.68,2.46,7.0
1758074640.40075,1758074639.91374,0.0,0.0,0.0,10.71431,8.47978,-2.06265,9.57,0.67,2.36,7.0
1758074640.40996,1758074639.92374,0.0,0.0,0.0,11.34457,8.30789,-1.60428,9.57,0.67,2.36,7.0
1758074640.41052,1758074639.93374,0.0,0.0,0.0,11.97482,7.73493,-0.85944,9.61,0.77,2.36,7.0
1758074640.4152,1758074639.94374,0.0,0.0,0.0,12.08941,7.10468,-0.45837,9.61,0.77,2.36,7.0
1758074640.41561,1758074639.95374,0.0,0.0,0.0,12.14671,5.95876,-0.11459,9.5,0.93,2.37,7.0
1758074640.42099,1758074639.96374,0.0,0.0,0.0,11.91752,4.81285,0.11459,9.5,0.93,2.37,7.0
1758074640.42578,1758074639.97374,0.0,0.0,0.0,11.22997,3.32316,0.68755,9.37,1.12,2.39,7.0
1758074640.43065,1758074639.98374,0.0,0.0,0.0,10.71431,2.86479,1.20321,9.31,1.27,2.28,7.0
1758074640.4554,1758074639.99374,0.0,0.0,0.0,9.74028,2.46372,1.77617,9.31,1.27,2.28,7.0
1758074640.546,1758074640.00374,0.0,0.0,0.0,8.70896,2.7502,2.57831,9.25,1.35,2.21,7.0
1758074640.55089,1758074640.01374,0.0,0.0,0.0,6.7609,3.95341,3.66693,9.25,1.35,2.21,7.0
1758074640.55215,1758074640.02374,0.0,0.0,0.0,5.4431,4.64096,4.35448,9.29,1.29,2.2,7.0
1758074640.55596,1758074640.03374,0.0,0.0,0.0,3.95341,4.58366,4.87014,9.29,1.29,2.2,7.0
1758074640.55629,1758074640.04374,0.0,0.0,0.0,2.34913,3.89611,5.4431,9.3,1.17,2.22,7.0
1758074640.56019,1758074640.05374,0.0,0.0,0.0,-0.0573,3.26586,5.95876,9.41,1.1,2.2,7.0
1758074640.56054,1758074640.06374,0.0,0.0,0.0,-1.60428,3.09397,6.53172,9.41,1.1,2.2,7.0
1758074640.56566,1758074640.07374,0.0,0.0,0.0,-3.20856,2.97938,7.21927,9.49,1.05,2.25,7.0
1758074640.56953,1758074640.08374,0.0,0.0,0.0,-5.61499,2.97938,8.36518,9.49,1.05,2.25,7.0
1758074640.57077,1758074640.09374,0.0,0.0,0.0,-7.39116,3.32316,9.05273,9.45,1.03,2.27,7.0
1758074640.57245,1758074640.10374,0.0,0.0,0.0,-9.11003,3.55234,9.96947,9.45,1.03,2.27,7.0
1758074640.57616,1758074640.11374,0.0,0.0,0.0,-11.11538,3.66693,10.65701,9.26,1.07,2.21,7.0
1758074640.57722,1758074640.12374,0.0,0.0,0.0,-14.15206,3.49504,11.91752,9.26,1.07,2.19,7.0
1758074640.58523,1758074640.13374,0.0,0.0,0.0,-16.04282,3.49504,12.54778,9.08,1.15,2.19,7.0
1758074640.58572,1758074640.14374,0.0,0.0,0.0,-18.10547,3.55234,13.40721,9.1,1.24,2.17,7.0
1758074640.58894,1758074640.15374,0.0,0.0,0.0,-19.88164,3.89611,14.09476,9.1,1.24,2.17,7.0
1758074640.59081,1758074640.16374,0.0,0.0,0.0,-22.11617,4.52637,15.12609,9.15,1.22,2.25,7.0
1758074640.59123,1758074640.17374,0.0,0.0,0.0,-23.31938,4.81285,15.92823,9.15,1.22,2.25,7.0
1758074640.59556,1758074640.18374,0.0,0.0,0.0,-24.29341,4.87014,16.61578,9.12,1.07,2.32,7.0
1758074640.59715,1758074640.19374,0.0,0.0,0.0,-25.09555,4.69825,17.24603,9.12,1.07,2.32,7.0
1758074640.60065,1758074640.20374,0.0,0.0,0.0,-25.89769,2.57831,17.76169,8.94,0.85,2.3,7.0
1758074640.60137,1758074640.21374,0.0,0.0,0.0,-26.52795,0.0,17.99088,8.67,0.68,2.17,7.0
1758074640.60426,1758074640.22374,0.0,0.0,0.0,-27.04361,-2.86479,18.22006,8.67,0.68,2.17,7.0
1758074640.60472,1758074640.23374,0.0,0.0,0.0,-27.44468,-5.72958,18.33465,8.57,0.59,1.94,7.0
1758074640.60597,1758074640.24374,0.0,0.0,0.0,-27.73116,-10.8289,18.90761,8.57,0.59,1.94,7.0
1758074640.60847,1758074640.25374,0.0,0.0,0.0,-28.41871,-11.17268,18.44924,8.72,0.59,1.79,7.0
1758074640.6102,1758074640.26374,0.0,0.0,0.0,-29.22085,-12.49048,18.44924,8.72,0.59,1.79,7.0
1758074640.61115,1758074640.27374,0.0,0.0,0.0,-30.65324,-13.00614,18.22006,9.02,0.72,1.78,7.0
1758074640.61447,1758074640.28374,0.0,0.0,0.0,-31.85646,-13.46451,18.16276,9.29,0.78,2.03,7.0
1758074640.61509,1758074640.29374,0.0,0.0,0.0,-32.88778,-14.32395,17.99088,9.29,0.78,2.03,7.0
1758074640.61585,1758074640.30374,0.0,0.0,0.0,-33.9764,-15.98552,17.93358,9.25,0.7,1.86,7.0
1758074640.61935,1758074640.31374,0.0,0.0,0.0,-34.89313,-18.44924,17.36062,9.25,0.7,1.86,7.0
1758074640.62088,1758074640.32374,0.0,0.0,0.0,-35.12231,-18.85031,16.55848,9.02,0.37,1.72,7.0
1758074640.6252,1758074640.33374,0.0,0.0,0.0,-35.06502,-18.79302,15.46986,9.02,0.37,1.72,7.0
1758074640.62599,1758074640.34374,0.0,0.0,0.0,-34.89313,-17.53251,14.15206,8.7,-0.07,1.42,7.0
1758074640.62942,1758074640.35374,0.0,0.0,0.0,-34.14828,-13.98017,11.63104,8.61,-0.07,1.26,7.0
1758074640.63023,1758074640.36374,0.0,0.0,0.0,-32.6013,-12.77696,10.65701,8.61,-0.22,1.26,7.0
1758074640.63246,1758074640.37374,0.0,0.0,0.0,-31.56997,-10.59972,10.08406,8.52,0.01,0.9,7.0
1758074640.63359,1758074640.38374,0.0,0.0,0.0,-30.36677,-8.93814,9.74028,8.52,0.01,0.9,7.0
1758074640.63482,1758074640.39374,0.0,0.0,0.0,-27.84575,-8.76626,10.65701,8.32,0.11,0.76,7.0
1758074640.67113,1758074640.40374,0.0,0.0,0.0,-26.06958,-8.99544,11.28727,8.32,0.11,0.76,7.0
1758074640.67682,1758074640.41374,0.0,0.0,0.0,-24.29341,-10.08406,11.74564,7.98,-0.05,0.47,7.0
1758074640.68102,1758074640.42374,0.0,0.0,0.0,-22.74642,-11.74564,12.14671,7.98,-0.05,0.47,7.0
1758074640.68455,1758074640.43374,0.0,0.0,0.0,-21.08485,-15.98552,13.23533,7.82,-0.29,0.37,7.0
1758074640.68568,1758074640.44374,0.0,0.0,0.0,-19.99623,-19.53786,14.38124,8.2,-0.15,0.46,7.0
1758074640.70595,1758074640.45374,0.0,0.0,0.0,-19.59516,-23.20479,14.61043,8.2,-0.15,0.46,7.0
1758074640.70996,1758074640.46374,0.0,0.0,0.0,-19.19409,-26.06958,14.03747,8.81,-0.12,0.83,7.0
1758074640.71452,1758074640.47374,0.0,0.0,0.0,-17.30333,-34.32018,13.17803,8.81,-0.12,0.83,7.0
1758074640.72994,1758074640.48374,0.0,0.0,0.0,-15.46986,-43.77398,11.45916,8.51,-0.51,1.45,7.0
1758074640.73421,1758074640.49374,0.0,0.0,0.0,-13.5218,-55.7488,8.30789,8.51,-0.51,1.45,7.0
1758074640.749,1758074640.50374,0.0,0.0,0.0,-11.22997,-72.30728,2.7502,8.16,-0.81,2.76,7.0
1758074640.76869,1758074640.51374,0.0,0.0,0.0,-8.47978,-79.92762,-2.06265,10.69,-1.91,4.18,7.0
1758074640.77376,1758074640.52374,0.0,0.0,0.0,-5.15662,-74.88559,-8.25059,10.69,-1.91,4.18,7.0
1758074640.77589,1758074640.53374,0.0,0.0,0.0,-0.34377,-59.47303,-13.17803,17.77,-4.92,5.79,7.0
1758074640.82533,1758074640.54374,0.0,0.0,0.0,7.39116,-42.74266,-18.44924,17.77,-4.92,5.79,7.0
1758074640.82579,1758074640.55374,0.0,0.0,0.0,13.5791,-29.96569,-21.94428,18.41,-7.03,5.29,7.0
1758074640.82975,1758074640.56374,0.0,0.0,0.0,21.60051,-9.22462,-26.41335,18.41,-7.03,5.29,7.0
1758074640.83253,1758074640.57374,0.0,0.0,0.0,26.52795,-4.64096,-25.72581,15.57,-6.15,2.77,7.0
1758074640.8358,1758074640.58374,0.0,0.0,0.0,31.85646,-16.84496,-21.6578,10.75,-2.39,2.91,7.0
1758074640.83758,1758074640.59374,0.0,0.0,0.0,35.92446,-25.26744,-15.64175,10.75,-2.39,2.91,7.0
1758074640.85536,1758074640.60374,0.0,0.0,0.0,40.10705,-31.45539,-7.62034,10.37,0.71,1.23,7.0
1758074640.85713,1758074640.61374,0.0,0.0,0.0,42.28429,-25.49662,1.08862,10.37,0.71,1.23,7.0
1758074640.8745,1758074640.62374,0.0,0.0,0.0,42.51347,-3.20856,9.91217,13.7,1.05,1.03,7.0
1758074640.88051,1758074640.63374,0.0,0.0,0.0,41.59674,13.75099,12.60507,13.7,1.05,1.03,7.0
1758074640.88541,1758074640.64374,0.0,0.0,0.0,39.01843,31.85646,12.2613,12.5,-1.34,1.13,7.0
1758074640.90302,1758074640.65374,0.0,0.0,0.0,35.12231,42.97184,10.54242,12.5,-1.34,1.13,7.0
1758074640.90975,1758074640.66374,0.0,0.0,0.0,29.8511,45.55015,7.96411,9.39,-2.88,1.74,7.0
1758074640.9254,1758074640.67374,0.0,0.0,0.0,27.38738,45.55015,6.24524,7.89,-2.89,0.85,7.0
1758074640.92963,1758074640.68374,0.0,0.0,0.0,25.21014,45.20637,5.27121,7.89,-2.89,0.85,7.0
1758074640.94547,1758074640.69374,0.0,0.0,0.0,23.72045,42.28429,4.23989,8.42,-2.03,0.4,7.0
1758074640.95066,1758074640.70374,0.0,0.0,0.0,23.66316,32.83048,3.55234,8.42,-2.03,0.4,7.0
1758074640.96546,1758074640.71374,0.0,0.0,0.0,24.17882,28.70519,3.38045,8.49,-1.01,0.49,7.0
1758074640.96812,1758074640.72374,0.0,0.0,0.0,25.7831,26.47065,2.46372,8.49,-1.01,0.49,7.0
1758074640.98396,1758074640.73374,0.0,0.0,0.0,29.27814,30.48136,-0.68755,9.04,-0.44,0.69,7.0
1758074640.9887,1758074640.74374,0.0,0.0,0.0,32.88778,34.37747,-1.3178,9.35,-0.52,1.03,7.0
1758074641.00547,1758074640.75374,0.0,0.0,0.0,36.15364,36.03905,-2.00535,9.35,-0.52,1.03,7.0
1758074641.01389,1758074640.76374,0.0,0.0,0.0,39.3622,35.92446,-4.35448,8.87,-1.12,1.87,7.0
1758074641.01529,1758074640.77374,0.0,0.0,0.0,40.10705,29.10626,-5.4431,8.87,-1.12,1.87,7.0
1758074641.03231,1758074640.78374,0.0,0.0,0.0,40.27893,26.12688,-6.99009,9.12,-1.77,2.02,7.0
1758074641.036,1758074640.79374,0.0,0.0,0.0,40.39353,21.08485,-7.33386,9.12,-1.77,2.02,7.0
1758074641.05228,1758074640.80374,0.0,0.0,0.0,40.33623,16.50119,-7.44845,9.92,-2.0,2.17,7.0
1758074641.05485,1758074640.81374,0.0,0.0,0.0,40.04975,8.99544,-6.8182,10.21,-1.57,2.05,7.0
1758074641.07059,1758074640.82374,0.0,0.0,0.0,39.4195,3.89611,-5.72958,10.21,-1.57,2.05,7.0
1758074641.07334,1758074640.83374,0.0,0.0,0.0,38.44547,-0.85944,-4.23989,9.87,-0.81,1.83,7.0
1758074641.09039,1758074640.84374,0.0,0.0,0.0,37.29956,-4.46907,-2.7502,9.87,-0.81,1.83,7.0
1758074641.09125,1758074640.85374,0.0,0.0,0.0,35.2369,-8.76626,-1.20321,9.48,-0.19,1.75,7.0
1758074641.1105,1758074640.86374,0.0,0.0,0.0,34.09099,-11.51645,0.0,9.48,-0.19,1.75,7.0
1758074641.11573,1758074640.87374,0.0,0.0,0.0,32.83048,-12.37589,0.80214,9.27,0.11,1.49,7.0
1758074641.13159,1758074640.88374,0.0,0.0,0.0,31.11161,-13.34992,0.51566,9.27,0.11,1.49,7.0
1758074641.13565,1758074640.89374,0.0,0.0,0.0,28.59059,-17.01685,-0.74485,9.49,0.22,1.47,7.0
1758074641.15148,1758074640.90374,0.0,0.0,0.0,27.04361,-19.82434,-2.29183,9.45,0.27,1.23,7.0
1758074641.15279,1758074640.91374,0.0,0.0,0.0,25.43933,-21.42862,-4.18259,9.45,0.27,1.23,7.0
1758074641.16816,1758074640.92374,0.0,0.0,0.0,22.97561,-22.05888,-6.47442,9.91,0.21,1.09,7.0
1758074641.1846,1758074640.93374,0.0,0.0,0.0,21.31403,-21.02755,-7.96411,9.91,0.21,1.09,7.0
1758074641.18975,1758074640.94374,0.0,0.0,0.0,19.36597,-18.79302,-8.93814,10.11,-0.23,1.17,7.0
1758074641.20448,1758074640.95374,0.0,0.0,0.0,17.01685,-16.61578,-9.4538,10.11,-0.23,1.17,7.0
1758074641.20791,1758074640.96374,0.0,0.0,0.0,13.34992,-13.12073,-9.62569,10.14,-0.54,1.53,7.0
1758074641.22359,1758074640.97374,0.0,0.0,0.0,10.65701,-10.25595,-8.93814,10.2,-0.51,1.68,7.0
1758074641.232,1758074640.98374,0.0,0.0,0.0,8.136,-6.58902,-8.02141,10.2,-0.51,1.68,7.0
1758074641.23311,1758074640.99374,0.0,0.0,0.0,5.95876,-3.09397,-6.99009,10.3,-0.3,1.68,7.0
1758074641.2496,1758074641.00374,0.0,0.0,0.0,2.34913,0.0573,-6.35983,10.3,-0.3,1.68,7.0
1758074641.26562,1758074641.01374,0.0,0.0,0.0,0.17189,1.43239,-6.58902,10.29,0.0,1.58,7.0
1758074641.27067,1758074641.02374,0.0,0.0,0.0,-2.06265,2.11994,-7.21927,10.29,0.0,1.58,7.0
1758074641.28537,1758074641.03374,0.0,0.0,0.0,-4.35448,2.34913,-7.96411,10.1,0.15,1.56,7.0
1758074641.29053,1758074641.04374,0.0,0.0,0.0,-7.67763,4.0107,-8.65166,9.96,0.12,1.59,7.0
1758074641.30937,1758074641.05374,0.0,0.0,0.0,-9.62569,5.78687,-8.88085,9.96,0.12,1.59,7.0
1758074641.34055,1758074641.06374,0.0,0.0,0.0,-11.74564,7.04738,-8.93814,10.08,0.1,1.76,7.0
1758074641.34298,1758074641.07374,0.0,0.0,0.0,-13.5791,8.88085,-9.22462,10.08,0.1,1.76,7.0
1758074641.43592,1758074641.08374,0.0,0.0,0.0,-16.38659,11.80293,-9.22462,10.37,0.15,2.08,7.0
1758074641.44066,1758074641.09374,0.0,0.0,0.0,-17.93358,15.06879,-8.42248,10.37,0.15,2.08,7.0
1758074641.4458,1758074641.10374,0.0,0.0,0.0,-19.76705,18.50654,-7.79223,10.92,0.23,2.32,7.0
1758074641.45068,1758074641.11374,0.0,0.0,0.0,-22.23076,19.88164,-6.99009,10.92,0.23,2.32,7.0
1758074641.45107,1758074641.12374,0.0,0.0,0.0,-23.66316,19.99623,-6.7609,10.8,0.17,2.37,7.0
1758074641.45536,1758074641.13374,0.0,0.0,0.0,-24.92367,18.27736,-6.7609,10.19,-0.02,2.13,7.0
1758074641.45653,1758074641.14374,0.0,0.0,0.0,-25.7831,15.75634,-6.99009,10.19,-0.02,2.13,7.0
1758074641.45726,1758074641.15374,0.0,0.0,0.0,-26.24147,11.97482,-7.84952,9.58,-0.19,1.97,7.0
1758074641.46006,1758074641.16374,0.0,0.0,0.0,-26.06958,9.91217,-8.59437,9.58,-0.19,1.97,7.0
1758074641.46073,1758074641.17374,0.0,0.0,0.0,-25.7831,8.70896,-9.39651,9.39,-0.19,1.87,7.0
1758074641.46228,1758074641.18374,0.0,0.0,0.0,-25.21014,7.96411,-10.54242,9.39,-0.19,1.87,7.0
1758074641.46415,1758074641.19374,0.0,0.0,0.0,-24.35071,6.70361,-12.2613,9.35,-0.15,2.05,7.0
1758074641.46562,1758074641.20374,0.0,0.0,0.0,-23.54857,5.61499,-13.46451,9.13,-0.2,2.21,7.0
1758074641.47004,1758074641.21374,0.0,0.0,0.0,-22.57454,4.58366,-14.78231,9.13,-0.2,2.21,7.0
1758074641.47098,1758074641.22374,0.0,0.0,0.0,-21.31403,3.66693,-15.98552,9.1,-0.22,2.3,7.0
1758074641.4735,1758074641.23374,0.0,0.0,0.0,-18.62113,3.20856,-17.53251,9.1,-0.22,2.3,7.0
1758074641.4908,1758074641.24374,0.0,0.0,0.0,-16.272,3.60963,-18.22006,9.36,-0.23,2.42,7.0
1758074641.49276,1758074641.25374,0.0,0.0,0.0,-13.80828,3.32316,-18.22006,9.36,-0.23,2.42,7.0
1758074641.51407,1758074641.26374,0.0,0.0,0.0,-11.45916,2.34913,-17.76169,9.51,-0.19,2.73,7.0
1758074641.51557,1758074641.27374,0.0,0.0,0.0,-9.05273,-5.27121,-16.84496,8.89,-0.08,2.88,7.0
1758074641.5305,1758074641.28374,0.0,0.0,0.0,-7.50575,-12.60507,-16.04282,8.89,-0.08,2.88,7.0
1758074641.53417,1758074641.29374,0.0,0.0,0.0,-6.18794,-20.16812,-15.0115,8.54,-0.04,2.83,7.0
1758074641.54978,1758074641.30374,0.0,0.0,0.0,-4.52637,-22.28806,-14.32395,8.54,-0.04,2.83,7.0
1758074641.56582,1758074641.31374,0.0,0.0,0.0,-1.71887,-18.16276,-13.12073,9.56,-0.1,2.93,7.0
1758074641.56993,1758074641.32374,0.0,0.0,0.0,-0.45837,-11.80293,-12.60507,9.56,-0.1,2.93,7.0
1758074641.58566,1758074641.33374,0.0,0.0,0.0,0.34377,-6.8182,-12.49048,10.57,-0.22,3.35,7.0
1758074641.59106,1758074641.34374,0.0,0.0,0.0,0.51566,-1.66158,-12.77696,10.57,-0.22,3.35,7.0
1758074641.59539,1758074641.35374,0.0,0.0,0.0,0.0573,0.57296,-12.37589,10.43,-0.2,3.27,7.0
1758074641.6309,1758074641.36374,0.0,0.0,0.0,-0.34377,2.57831,-11.74564,9.99,0.03,3.04,7.0
1758074641.64038,1758074641.37374,0.0,0.0,0.0,-0.51566,4.18259,-10.65701,9.99,0.03,3.04,7.0
1758074641.6458,1758074641.38374,0.0,0.0,0.0,0.0573,6.41713,-8.65166,9.69,0.34,2.86,7.0
1758074641.65626,1758074641.39374,0.0,0.0,0.0,0.80214,7.39116,-7.39116,9.69,0.34,2.86,7.0
1758074641.66038,1758074641.40374,0.0,0.0,0.0,2.00535,8.30789,-6.35983,9.64,0.5,2.72,7.0
1758074641.66236,1758074641.41374,0.0,0.0,0.0,3.32316,8.30789,-5.4431,9.64,0.5,2.72,7.0
1758074641.66463,1758074641.42374,0.0,0.0,0.0,5.32851,7.62034,-4.58366,9.5,0.53,2.52,7.0
1758074641.72981,1758074641.43374,0.0,0.0,0.0,6.70361,6.7609,-4.1253,9.28,0.48,2.42,7.0
1758074641.73103,1758074641.44374,0.0,0.0,0.0,7.67763,5.4431,-3.72423,9.28,0.48,2.42,7.0
1758074641.73392,1758074641.45374,0.0,0.0,0.0,8.59437,4.35448,-3.32316,9.02,0.47,2.35,7.0
1758074641.73638,1758074641.46374,0.0,0.0,0.0,9.28192,3.55234,-2.97938,9.02,0.47,2.35,7.0
1758074641.73999,1758074641.47374,0.0,0.0,0.0,9.62569,3.49504,-2.57831,9.07,0.5,2.35,7.0
1758074641.7417,1758074641.48374,0.0,0.0,0.0,9.91217,3.89611,-1.83346,9.07,0.5,2.35,7.0
1758074641.75031,1758074641.49374,0.0,0.0,0.0,9.91217,4.58366,-1.20321,9.36,0.62,2.38,7.0
1758074641.75546,1758074641.50374,0.0,0.0,0.0,9.68299,5.55769,-0.0573,9.74,0.79,2.42,7.0
1758074641.75649,1758074641.51374,0.0,0.0,0.0,9.33921,6.58902,0.97403,9.74,0.79,2.42,7.0
1758074641.76541,1758074641.52374,0.0,0.0,0.0,8.93814,6.8182,2.00535,9.89,0.99,2.36,7.0
1758074641.78098,1758074641.53374,0.0,0.0,0.0,8.30789,7.16197,3.09397,9.89,0.99,2.36,7.0
1758074641.7836,1758074641.54374,0.0,0.0,0.0,7.62034,7.39116,3.49504,9.97,1.07,2.37,7.0
1758074641.79997,1758074641.55374,0.0,0.0,0.0,7.10468,6.70361,3.60963,9.97,1.07,2.37,7.0
1758074641.81604,1758074641.56374,0.0,0.0,0.0,6.58902,6.7609,3.66693,9.8,1.06,2.2,7.0
1758074641.81961,1758074641.57374,0.0,0.0,0.0,5.50039,6.24524,3.49504,9.8,1.06,2.2,7.0
1758074641.83479,1758074641.58374,0.0,0.0,0.0,4.98473,5.90147,3.38045,9.56,1.02,2.16,7.0
1758074641.83627,1758074641.59374,0.0,0.0,0.0,4.18259,6.7609,3.49504,9.38,1.02,2.23,7.0
1758074641.85102,1758074641.60374,0.0,0.0,0.0,3.32316,7.33386,3.72423,9.38,1.02,2.23,7.0
1758074641.85274,1758074641.61374,0.0,0.0,0.0,1.94806,8.02141,4.58366,9.27,1.08,2.14,7.0
1758074641.87003,1758074641.62374,0.0,0.0,0.0,0.80214,8.59437,5.50039,9.27,1.08,2.14,7.0
1758074641.88596,1758074641.63374,0.0,0.0,0.0,-0.45837,9.28192,6.58902,9.35,1.11,2.18,7.0
1758074641.89101,1758074641.64374,0.0,0.0,0.0,-1.71887,9.91217,7.67763,9.35,1.11,2.18,7.0
1758074641.90599,1758074641.65374,0.0,0.0,0.0,-3.89611,10.65701,9.33921,9.52,1.05,2.09,7.0
1758074641.91577,1758074641.66374,0.0,0.0,0.0,-5.32851,11.00079,10.19865,9.61,0.94,2.08,7.0
1758074641.9245,1758074641.67374,0.0,0.0,0.0,-7.04738,10.59972,10.8862,9.61,0.94,2.08,7.0
1758074641.93622,1758074641.68374,0.0,0.0,0.0,-8.65166,9.4538,11.51645,9.47,0.84,1.96,7.0
1758074642.27688,1758074641.69374,0.0,0.0,0.0,-11.11538,8.25059,11.91752,9.47,0.84,1.96,7.0
1758074642.30034,1758074641.70374,0.0,0.0,0.0,-12.71966,6.99009,12.14671,9.32,0.84,1.92,7.0
1758074642.3519,1758074641.71374,0.0,0.0,0.0,-14.32395,5.55769,12.60507,9.32,0.84,1.92,7.0
1758074642.35496,1758074641.72374,0.0,0.0,0.0,-15.92823,3.20856,13.12073,9.06,0.87,1.98,7.0
1758074642.35533,1758074641.73374,0.0,0.0,0.0,-18.79302,-0.74485,13.80828,8.79,0.91,2.01,7.0
1758074642.35997,1758074641.74374,0.0,0.0,0.0,-20.85567,-2.46372,14.32395,8.79,0.91,2.01,7.0
1758074642.36035,1758074641.75374,0.0,0.0,0.0,-22.91831,-2.6929,15.12609,8.89,0.87,2.08,7.0
1758074642.36218,1758074641.76374,0.0,0.0,0.0,-26.35606,-3.49504,15.87093,8.89,0.87,2.08,7.0
1758074642.36942,1758074641.77374,0.0,0.0,0.0,-28.64789,-4.29718,16.272,8.73,0.82,2.11,7.0
1758074642.37015,1758074641.78374,0.0,0.0,0.0,-31.2262,-5.78687,16.50119,8.73,0.82,2.11,7.0
1758074642.37133,1758074641.79374,0.0,0.0,0.0,-33.68992,-7.44845,16.67307,8.63,0.79,2.0,7.0
1758074642.37196,1758074641.80374,0.0,0.0,0.0,-36.6693,-11.80293,16.90226,8.63,0.79,1.73,7.0
1758074642.37505,1758074641.81374,0.0,0.0,0.0,-38.15899,-13.5218,16.84496,8.55,0.7,1.73,7.0
1758074642.37539,1758074641.82374,0.0,0.0,0.0,-39.24761,-15.29797,16.67307,8.84,0.48,1.57,7.0
1758074642.3806,1758074641.83374,0.0,0.0,0.0,-39.87786,-16.21471,16.3293,8.84,0.48,1.57,7.0
1758074642.38114,1758074641.84374,0.0,0.0,0.0,-39.99245,-15.41257,15.29797,9.23,0.15,1.53,7.0
1758074642.38319,1758074641.85374,0.0,0.0,0.0,-39.4768,-15.06879,14.49583,9.23,0.15,1.53,7.0
1758074642.38382,1758074641.86374,0.0,0.0,0.0,-38.56006,-14.72501,14.09476,9.46,-0.19,1.59,7.0
1758074642.38984,1758074641.87374,0.0,0.0,0.0,-37.29956,-15.41257,14.03747,9.46,-0.19,1.59,7.0
1758074642.39046,1758074641.88374,0.0,0.0,0.0,-35.06502,-16.38659,14.78231,9.58,-0.37,1.64,7.0
1758074642.39171,1758074641.89374,0.0,0.0,0.0,-33.51803,-16.67307,15.98552,9.93,-0.41,1.52,7.0
1758074642.39233,1758074641.90374,0.0,0.0,0.0,-32.08564,-16.3293,16.95955,9.93,-0.41,1.52,7.0
1758074642.39386,1758074641.91374,0.0,0.0,0.0,-30.76784,-15.64175,18.22006,10.19,-0.47,1.51,7.0
1758074642.395,1758074641.92374,0.0,0.0,0.0,-28.87707,-15.69904,19.13679,10.19,-0.47,1.51,7.0
1758074642.39581,1758074641.93374,0.0,0.0,0.0,-27.67386,-15.64175,18.9649,9.85,-0.63,1.39,7.0
1758074642.40014,1758074641.94374,0.0,0.0,0.0,-26.64254,-15.41257,18.22006,9.85,-0.63,1.39,7.0
1758074642.40083,1758074641.95374,0.0,0.0,0.0,-25.26744,-14.83961,16.55848,9.32,-0.8,1.09,7.0
1758074642.41065,1758074641.96374,0.0,0.0,0.0,-24.29341,-11.86023,15.29797,9.01,-0.83,0.89,7.0
1758074642.41302,1758074641.97374,0.0,0.0,0.0,-23.49127,-9.85487,14.72501,9.01,-0.83,0.89,7.0
1758074642.41517,1758074641.98374,0.0,0.0,0.0,-22.91831,-8.76626,14.61043,8.99,-0.53,1.08,7.0
1758074642.41551,1758074641.99374,0.0,0.0,0.0,-22.51724,-9.22462,15.92823,8.99,-0.53,1.08,7.0
1758074642.42026,1758074642.00374,0.0,0.0,0.0,-22.34536,-9.5684,17.53251,9.48,-0.09,1.1,7.0
1758074642.42061,1758074642.01374,0.0,0.0,0.0,-22.28806,-9.5684,19.13679,9.48,-0.09,1.1,7.0
1758074642.42581,1758074642.02374,0.0,0.0,0.0,-22.05888,-8.88085,20.22541,10.04,-0.04,0.71,7.0
1758074642.43046,1758074642.03374,0.0,0.0,0.0,-21.14215,-8.36518,20.68378,10.07,-0.04,0.82,7.0
1758074642.43488,1758074642.04374,0.0,0.0,0.0,-20.05352,-9.4538,19.82434,10.07,-0.54,0.82,7.0
1758074642.4355,1758074642.05374,0.0,0.0,0.0,-18.85031,-10.59972,18.22006,9.68,-0.92,0.54,7.0
1758074642.44195,1758074642.06374,0.0,0.0,0.0,-17.87628,-11.57375,16.55848,9.68,-0.92,0.54,7.0
1758074642.52439,1758074642.07374,0.0,0.0,0.0,-16.61578,-11.63104,13.98017,9.71,-0.99,0.52,7.0
1758074642.55024,1758074642.08374,0.0,0.0,0.0,-15.98552,-11.80293,12.54778,9.71,-0.99,0.52,7.0
1758074642.55148,1758074642.09374,0.0,0.0,0.0,-15.41257,-14.20935,11.11538,9.37,-0.86,0.88,7.0
1758074642.5519,1758074642.10374,0.0,0.0,0.0,-14.83961,-19.70975,9.33921,9.37,-0.86,0.88,7.0
1758074642.55555,1758074642.11374,0.0,0.0,0.0,-14.66772,-29.56462,7.10468,8.04,-0.42,1.4,7.0
1758074642.55671,1758074642.12374,0.0,0.0,0.0,-14.43854,-36.61201,6.58902,7.76,-0.05,1.58,7.0
1758074642.56006,1758074642.13374,0.0,0.0,0.0,-14.49583,-43.54479,6.13065,7.76,-0.05,1.58,7.0
1758074642.56039,1758074642.14374,0.0,0.0,0.0,-14.38124,-45.83662,5.72958,9.22,-0.34,2.24,7.0
1758074642.56471,1758074642.15374,0.0,0.0,0.0,-13.80828,-35.40879,2.63561,9.22,-0.34,2.24,7.0
1758074642.56538,1758074642.16374,0.0,0.0,0.0,-12.60507,-20.62648,-1.48969,14.02,-2.1,4.1,7.0
1758074642.57095,1758074642.17374,0.0,0.0,0.0,-11.17268,-8.42248,-6.35983,14.02,-2.1,4.1,7.0
1758074642.5713,1758074642.18374,0.0,0.0,0.0,-7.44845,-16.61578,-16.272,15.53,-4.86,5.55,7.0
1758074642.5734,1758074642.19374,0.0,0.0,0.0,-4.1253,-40.16434,-19.88164,11.26,-5.9,3.95,7.0
1758074642.575,1758074642.20374,0.0,0.0,0.0,2.11994,-48.30034,-23.31938,11.26,-5.9,3.95,7.0
1758074642.57542,1758074642.21374,0.0,0.0,0.0,8.30789,-49.15978,-28.76248,11.84,-5.51,1.02,7.0
1758074642.57658,1758074642.22374,0.0,0.0,0.0,17.81899,-42.62806,-27.78845,11.84,-5.51,1.02,7.0
1758074642.57736,1758074642.23374,0.0,0.0,0.0,21.31403,-33.34615,-25.15285,12.74,-3.34,1.18,7.0
1758074642.58349,1758074642.24374,0.0,0.0,0.0,23.94964,-19.36597,-18.44924,12.74,-3.34,1.18,7.0
1758074642.5858,1758074642.25374,0.0,0.0,0.0,24.4653,-4.18259,-10.37054,12.66,-0.96,2.08,7.0
1758074642.59068,1758074642.26374,0.0,0.0,0.0,22.63183,3.89611,3.89611,11.0,-0.09,1.92,7.0
1758074642.59192,1758074642.27374,0.0,0.0,0.0,16.73037,-5.72958,7.79223,11.0,-0.09,1.92,7.0
1758074642.59567,1758074642.28374,0.0,0.0,0.0,13.46451,-6.13065,12.83425,9.62,-0.28,0.53,7.0
1758074642.59713,1758074642.29374,0.0,0.0,0.0,10.08406,0.22918,14.9542,9.62,-0.28,0.53,7.0
1758074642.59993,1758074642.30374,0.0,0.0,0.0,6.58902,14.09476,15.0115,10.91,-1.39,-0.12,7.0
1758074642.60057,1758074642.31374,0.0,0.0,0.0,5.55769,22.40265,12.37589,10.91,-1.39,-0.12,7.0
1758074642.60584,1758074642.32374,0.0,0.0,0.0,4.98473,27.33009,8.42248,10.34,-2.42,0.75,7.0
1758074642.61066,1758074642.33374,0.0,0.0,0.0,4.46907,29.67921,3.89611,10.34,-2.42,0.75,7.0
1758074642.61193,1758074642.34374,0.0,0.0,0.0,4.81285,29.9084,-1.94806,9.63,-2.79,1.0,7.0
1758074642.61225,1758074642.35374,0.0,0.0,0.0,6.07335,28.64789,-4.23989,9.17,-2.47,0.29,7.0
1758074642.61378,1758074642.36374,0.0,0.0,0.0,7.44845,27.73116,-5.21392,9.17,-2.47,0.29,7.0
1758074642.61572,1758074642.37374,0.0,0.0,0.0,9.85487,27.38738,-4.23989,8.83,-2.08,-0.02,7.0
1758074642.63237,1758074642.38374,0.0,0.0,0.0,11.57375,24.92367,-2.92208,8.83,-2.08,-0.02,7.0
1758074642.6352,1758074642.39374,0.0,0.0,0.0,14.20935,21.94428,-2.23454,8.39,-2.0,0.11,7.0
1758074642.65039,1758074642.40374,0.0,0.0,0.0,16.84496,17.87628,-1.3178,8.39,-2.0,0.11,7.0
1758074642.66961,1758074642.41374,0.0,0.0,0.0,20.05352,14.32395,-0.17189,8.35,-2.06,0.22,7.0
1758074642.67107,1758074642.42374,0.0,0.0,0.0,21.88699,12.60507,-0.17189,9.03,-2.26,0.71,7.0
1758074642.68813,1758074642.43374,0.0,0.0,0.0,23.31938,10.59972,-0.74485,9.03,-2.26,0.71,7.0
1758074642.69122,1758074642.44374,0.0,0.0,0.0,24.80907,8.93814,-1.94806,9.3,-2.28,0.74,7.0
1758074642.7104,1758074642.45374,0.0,0.0,0.0,25.49662,9.85487,-4.1253,9.3,-2.28,0.74,7.0
1758074642.71243,1758074642.46374,0.0,0.0,0.0,25.15285,16.272,-6.07335,9.97,-2.06,1.01,7.0
1758074642.71381,1758074642.47374,0.0,0.0,0.0,23.37668,24.75178,-8.70896,9.97,-2.06,1.01,7.0
1758074642.72946,1758074642.48374,0.0,0.0,0.0,21.14215,29.10626,-11.34457,10.38,-1.65,1.1,7.0
1758074642.74544,1758074642.49374,0.0,0.0,0.0,17.13144,26.69983,-13.46451,9.29,-1.17,1.72,7.0
1758074642.75069,1758074642.50374,0.0,0.0,0.0,13.75099,21.6578,-14.32395,9.29,-1.17,1.72,7.0
1758074642.76562,1758074642.51374,0.0,0.0,0.0,10.08406,15.92823,-14.49583,9.16,-0.73,1.0,7.0
1758074642.76984,1758074642.52374,0.0,0.0,0.0,6.7609,11.34457,-14.15206,9.16,-0.73,1.0,7.0
1758074642.78566,1758074642.53374,0.0,0.0,0.0,3.03668,6.41713,-14.43854,9.58,-0.51,0.58,7.0
1758074642.78983,1758074642.54374,0.0,0.0,0.0,1.94806,4.23989,-15.0115,9.58,-0.51,0.58,7.0
1758074642.80569,1758074642.55374,0.0,0.0,0.0,1.20321,3.89611,-16.3293,9.83,-0.59,0.48,7.0
1758074642.81069,1758074642.56374,0.0,0.0,0.0,1.3178,5.90147,-17.93358,9.83,-0.59,0.48,7.0
1758074642.82549,1758074642.57374,0.0,0.0,0.0,3.20856,10.71431,-19.48057,10.14,-1.0,0.71,7.0
1758074642.8299,1758074642.58374,0.0,0.0,0.0,4.29718,13.5218,-20.3973,10.08,-1.55,0.88,7.0
1758074642.84556,1758074642.59374,0.0,0.0,0.0,5.50039,14.03747,-20.34,10.08,-1.55,0.88,7.0
1758074642.8511,1758074642.60374,0.0,0.0,0.0,6.99009,9.5684,-19.70975,9.4,-1.82,0.82,7.0
1758074642.86573,1758074642.61374,0.0,0.0,0.0,7.84952,5.55769,-18.56383,9.4,-1.82,0.82,7.0
1758074642.87062,1758074642.62374,0.0,0.0,0.0,8.70896,3.03668,-16.84496,9.05,-1.97,0.3,7.0
1758074642.88573,1758074642.63374,0.0,0.0,0.0,9.28192,2.11994,-15.06879,9.05,-1.97,0.3,7.0
1758074642.97044,1758074642.64374,0.0,0.0,0.0,10.02676,2.29183,-13.40721,9.26,-2.09,0.05,7.0
1758074642.97426,1758074642.65374,0.0,0.0,0.0,10.65701,1.66158,-13.12073,9.22,-2.12,0.18,7.0
1758074642.98025,1758074642.66374,0.0,0.0,0.0,11.11538,2.06265,-13.34992,9.22,-2.12,0.18,7.0
1758074642.98083,1758074642.67374,0.0,0.0,0.0,11.57375,1.94806,-13.98017,9.32,-2.01,0.17,7.0
