timeStamp,timeStampAlign,roll,pitch,yaw,gyro_x,gyro_y,gyro_z,acc_x,acc_y,acc_z,flag_num
1758077931.70186,1758077930.91568,0.0,0.0,0.0,-27.38738,-24.57989,9.68299,9.95,-1.1,2.01,4.0
1758077931.70283,1758077930.92568,0.0,0.0,0.0,-25.26744,-14.03747,6.47442,9.8,-1.33,2.0,4.0
1758077931.71902,1758077930.93568,0.0,0.0,0.0,-22.63183,-5.09932,5.32851,10.18,-1.5,1.76,4.0
1758077931.7349,1758077930.94568,0.0,0.0,0.0,-20.74107,0.0,4.18259,10.18,-1.5,1.76,4.0
1758077931.73676,1758077930.95568,0.0,0.0,0.0,-17.6471,2.29183,3.95341,9.67,-1.76,1.85,4.0
1758077931.75089,1758077930.96568,0.0,0.0,0.0,-13.98017,-0.0573,3.38045,9.67,-1.76,1.85,4.0
1758077931.75301,1758077930.97568,0.0,0.0,0.0,-11.91752,0.22918,3.66693,9.73,-1.91,1.43,4.0
1758077931.77097,1758077930.98568,0.0,0.0,0.0,-9.33921,4.98473,4.69825,9.73,-1.91,1.43,4.0
1758077931.7746,1758077930.99568,0.0,0.0,0.0,-6.47442,12.43318,6.35983,10.88,-2.16,1.14,4.0
1758077931.79073,1758077931.00568,0.0,0.0,0.0,-2.7502,20.16812,8.42248,10.63,-2.27,1.49,4.0
1758077931.79279,1758077931.01568,0.0,0.0,0.0,-0.68755,21.25674,9.39651,10.63,-2.27,1.49,4.0
1758077931.81018,1758077931.02568,0.0,0.0,0.0,1.14592,20.05352,10.25595,9.64,-1.94,1.51,4.0
1758077931.82498,1758077931.03568,0.0,0.0,0.0,4.0107,17.6471,11.00079,9.64,-1.94,1.51,4.0
1758077931.82617,1758077931.04568,0.0,0.0,0.0,5.78687,11.74564,11.00079,9.21,-1.55,1.33,4.0
1758077931.84071,1758077931.05568,0.0,0.0,0.0,7.21927,7.44845,10.59972,9.21,-1.55,1.33,4.0
1758077931.84505,1758077931.06568,0.0,0.0,0.0,8.42248,4.29718,9.91217,9.04,-1.27,1.3,4.0
1758077931.86073,1758077931.07568,0.0,0.0,0.0,9.68299,0.57296,8.0787,9.04,-1.27,1.3,4.0
1758077931.86272,1758077931.08568,0.0,0.0,0.0,10.65701,1.14592,6.87549,9.05,-1.17,1.36,4.0
1758077931.88006,1758077931.09568,0.0,0.0,0.0,11.51645,4.87014,5.61499,9.36,-1.18,1.68,4.0
1758077931.89688,1758077931.10568,0.0,0.0,0.0,12.43318,8.59437,4.52637,9.36,-1.18,1.68,4.0
1758077931.89859,1758077931.11568,0.0,0.0,0.0,13.17803,9.74028,2.92208,9.21,-1.26,1.88,4.0
1758077931.91376,1758077931.12568,0.0,0.0,0.0,13.17803,8.30789,1.83346,9.21,-1.26,1.88,4.0
1758077931.91498,1758077931.13568,0.0,0.0,0.0,13.12073,6.53172,1.20321,8.95,-1.15,1.81,4.0
1758077931.93134,1758077931.14568,0.0,0.0,0.0,13.12073,4.87014,0.74485,8.95,-1.15,1.81,4.0
1758077931.93331,1758077931.15568,0.0,0.0,0.0,12.60507,3.95341,-0.22918,9.32,-1.08,1.68,4.0
1758077931.95215,1758077931.16568,0.0,0.0,0.0,12.08941,4.87014,-0.85944,9.96,-1.07,1.7,4.0
1758077931.95945,1758077931.17568,0.0,0.0,0.0,11.51645,6.18794,-1.60428,9.96,-1.07,1.7,4.0
1758077931.97495,1758077931.18568,0.0,0.0,0.0,10.94349,6.47442,-2.06265,10.12,-1.05,1.59,4.0
1758077931.97634,1758077931.19568,0.0,0.0,0.0,10.31324,6.07335,-2.6929,10.12,-1.05,1.59,4.0
1758077931.99098,1758077931.20568,0.0,0.0,0.0,10.02676,6.13065,-3.03668,9.94,-1.01,1.4,4.0
1758077931.99311,1758077931.21568,0.0,0.0,0.0,9.68299,7.50575,-3.32316,9.94,-1.01,1.4,4.0
1758077932.01094,1758077931.22568,0.0,0.0,0.0,9.39651,8.76626,-4.0107,10.02,-1.03,1.39,4.0
1758077932.01314,1758077931.23568,0.0,0.0,0.0,9.05273,10.65701,-5.21392,10.07,-1.05,1.54,4.0
1758077932.0291,1758077931.24568,0.0,0.0,0.0,8.88085,12.14671,-5.90147,10.07,-1.05,1.54,4.0
1758077932.04482,1758077931.25568,0.0,0.0,0.0,8.88085,12.83425,-7.16197,10.06,-1.1,1.61,4.0
1758077932.04604,1758077931.26568,0.0,0.0,0.0,8.93814,11.17268,-8.47978,10.06,-1.1,1.61,4.0
1758077932.06086,1758077931.27568,0.0,0.0,0.0,9.28192,8.93814,-8.93814,9.62,-1.13,1.47,4.0
1758077932.06206,1758077931.28568,0.0,0.0,0.0,9.74028,6.47442,-9.33921,9.62,-1.13,1.47,4.0
1758077932.07867,1758077931.29568,0.0,0.0,0.0,9.96947,4.18259,-9.4538,9.33,-1.12,1.18,4.0
1758077932.09495,1758077931.30568,0.0,0.0,0.0,10.54242,1.20321,-9.68299,9.33,-1.12,1.16,4.0
1758077932.09633,1758077931.31568,0.0,0.0,0.0,10.8289,0.68755,-9.74028,9.16,-1.1,1.16,4.0
1758077932.11092,1758077931.32568,0.0,0.0,0.0,11.11538,0.34377,-9.85487,9.29,-1.07,1.17,4.0
1758077932.11315,1758077931.33568,0.0,0.0,0.0,11.34457,0.11459,-10.08406,9.29,-1.07,1.17,4.0
1758077932.12985,1758077931.34568,0.0,0.0,0.0,11.63104,0.40107,-10.65701,9.4,-1.09,1.12,4.0
1758077932.14617,1758077931.35568,0.0,0.0,0.0,11.97482,0.51566,-11.22997,9.4,-1.09,1.12,4.0
1758077932.14733,1758077931.36568,0.0,0.0,0.0,12.2613,0.74485,-11.91752,9.42,-1.09,0.91,4.0
1758077932.16265,1758077931.37568,0.0,0.0,0.0,12.49048,1.3178,-12.89155,9.42,-1.09,0.91,4.0
1758077932.16506,1758077931.38568,0.0,0.0,0.0,13.17803,1.43239,-14.61043,9.34,-1.06,0.66,4.0
1758077932.18015,1758077931.39568,0.0,0.0,0.0,13.86558,1.3178,-15.75634,9.24,-1.03,0.51,4.0
1758077932.19616,1758077931.40568,0.0,0.0,0.0,14.9542,1.14592,-17.30333,9.24,-1.03,0.51,4.0
1758077932.19712,1758077931.41568,0.0,0.0,0.0,15.75634,1.43239,-18.73572,9.35,-1.03,0.42,4.0
1758077932.21433,1758077931.42568,0.0,0.0,0.0,17.47521,2.92208,-20.79837,9.35,-1.03,0.42,4.0
1758077932.21551,1758077931.43568,0.0,0.0,0.0,18.62113,4.92744,-22.00158,9.79,-1.07,0.51,4.0
1758077932.23092,1758077931.44568,0.0,0.0,0.0,19.53786,6.99009,-22.86102,9.79,-1.07,0.51,4.0
1758077932.23405,1758077931.45568,0.0,0.0,0.0,20.34,6.8182,-21.6578,10.58,-1.01,1.11,4.0
1758077932.253,1758077931.46568,0.0,0.0,0.0,20.16812,-0.0573,-19.13679,11.59,-0.72,2.0,4.0
1758077932.259,1758077931.47568,0.0,0.0,0.0,19.19409,-8.42248,-15.35527,11.59,-0.72,2.0,4.0
1758077932.27426,1758077931.48568,0.0,0.0,0.0,17.76169,-16.272,-10.8862,11.96,-0.25,2.1,4.0
1758077932.27544,1758077931.49568,0.0,0.0,0.0,15.12609,-20.79837,-5.78687,11.96,-0.25,2.1,4.0
1758077932.28995,1758077931.50568,0.0,0.0,0.0,13.75099,-17.6471,-4.52637,11.08,0.02,1.71,4.0
1758077932.30627,1758077931.51568,0.0,0.0,0.0,12.83425,-13.12073,-5.15662,11.08,0.02,1.71,4.0
1758077932.30721,1758077931.52568,0.0,0.0,0.0,11.86023,-10.48513,-6.8182,9.36,0.12,1.42,4.0
1758077932.32307,1758077931.53568,0.0,0.0,0.0,10.25595,-10.59972,-10.19865,7.93,0.12,1.11,4.0
1758077932.32556,1758077931.54568,0.0,0.0,0.0,9.22462,-11.80293,-11.80293,7.93,0.24,1.11,4.0
1758077932.34131,1758077931.55568,0.0,0.0,0.0,8.02141,-12.43318,-12.71966,8.21,0.35,1.19,4.0
1758077932.34302,1758077931.56568,0.0,0.0,0.0,6.99009,-12.71966,-12.2613,8.21,0.35,1.19,4.0
1758077932.35907,1758077931.57568,0.0,0.0,0.0,5.55769,-13.17803,-10.54242,9.46,0.23,1.83,4.0
1758077932.37503,1758077931.58568,0.0,0.0,0.0,4.87014,-14.09476,-8.47978,9.46,0.23,1.83,4.0
1758077932.37623,1758077931.59568,0.0,0.0,0.0,4.23989,-15.98552,-6.87549,10.16,-0.05,2.35,4.0
1758077932.3911,1758077931.60568,0.0,0.0,0.0,4.0107,-18.9649,-4.87014,10.16,-0.05,2.35,4.0
1758077932.39254,1758077931.61568,0.0,0.0,0.0,4.46907,-24.75178,-2.7502,9.77,-0.19,2.33,4.0
1758077932.40916,1758077931.62568,0.0,0.0,0.0,4.98473,-31.2262,-2.40642,9.1,-0.02,2.19,4.0
1758077932.42516,1758077931.63568,0.0,0.0,0.0,5.27121,-34.49206,-2.6929,9.1,-0.02,2.19,4.0
1758077932.42627,1758077931.64568,0.0,0.0,0.0,5.95876,-33.9764,-3.60963,9.71,0.23,1.99,4.0
1758077932.44128,1758077931.65568,0.0,0.0,0.0,7.84952,-30.76784,-5.4431,9.71,0.23,1.99,4.0
1758077932.44504,1758077931.66568,0.0,0.0,0.0,9.5684,-28.24682,-6.7609,10.4,0.38,1.92,4.0
1758077932.46036,1758077931.67568,0.0,0.0,0.0,11.28727,-24.86637,-7.96411,10.4,0.38,1.92,4.0
1758077932.47638,1758077931.68568,0.0,0.0,0.0,13.75099,-17.24603,-8.76626,10.77,0.49,1.64,4.0
1758077932.47901,1758077931.69568,0.0,0.0,0.0,15.29797,-11.11538,-8.70896,11.12,0.68,1.2,4.0
1758077932.49412,1758077931.70568,0.0,0.0,0.0,16.50119,-3.38045,-8.25059,11.12,0.68,1.2,4.0
1758077932.49643,1758077931.71568,0.0,0.0,0.0,17.24603,3.83882,-7.39116,11.33,0.99,1.09,4.0
1758077932.51147,1758077931.72568,0.0,0.0,0.0,17.53251,13.06344,-6.13065,11.33,0.99,1.09,4.0
1758077932.51662,1758077931.73568,0.0,0.0,0.0,17.13144,17.6471,-5.84417,11.19,1.17,0.97,4.0
1758077932.53441,1758077931.74568,0.0,0.0,0.0,16.272,20.62648,-5.84417,11.19,1.17,0.97,4.0
1758077932.53646,1758077931.75568,0.0,0.0,0.0,15.0115,20.16812,-6.41713,10.79,1.14,0.87,4.0
1758077932.55113,1758077931.76568,0.0,0.0,0.0,12.83425,16.61578,-7.73493,10.31,1.13,0.81,4.0
1758077932.55235,1758077931.77568,0.0,0.0,0.0,11.22997,12.60507,-8.59437,10.31,1.13,0.81,4.0
1758077932.5684,1758077931.78568,0.0,0.0,0.0,10.31324,11.17268,-9.91217,10.18,1.16,0.65,4.0
1758077932.58579,1758077931.79568,0.0,0.0,0.0,10.25595,17.87628,-10.59972,10.18,1.16,0.65,4.0
1758077932.58808,1758077931.80568,0.0,0.0,0.0,11.57375,23.83505,-10.25595,10.75,1.09,0.97,4.0
1758077932.6051,1758077931.81568,0.0,0.0,0.0,11.97482,19.88164,-11.17268,10.75,1.09,0.97,4.0
1758077932.6068,1758077931.82568,0.0,0.0,0.0,12.49048,14.49583,-11.91752,9.38,1.04,1.13,4.0
1758077932.62254,1758077931.83568,0.0,0.0,0.0,13.06344,8.65166,-12.71966,9.38,1.04,1.13,4.0
1758077932.62535,1758077931.84568,0.0,0.0,0.0,13.98017,0.57296,-13.12073,9.07,0.94,0.65,4.0
1758077932.64127,1758077931.85568,0.0,0.0,0.0,14.20935,-2.86479,-13.00614,9.17,0.73,0.73,4.0
1758077932.64499,1758077931.86568,0.0,0.0,0.0,14.20935,-5.09932,-13.17803,9.17,0.73,0.73,4.0
1758077932.66029,1758077931.87568,0.0,0.0,0.0,14.49583,-6.7609,-12.89155,9.29,0.68,0.92,4.0
1758077932.68146,1758077931.88568,0.0,0.0,0.0,14.66772,-1.48969,-13.12073,9.29,0.68,0.92,4.0
1758077932.74136,1758077931.89568,0.0,0.0,0.0,14.78231,0.80214,-13.17803,9.61,0.78,1.01,4.0
1758077932.74255,1758077931.90568,0.0,0.0,0.0,15.24068,1.08862,-13.12073,9.61,0.78,1.01,4.0
1758077932.74782,1758077931.91568,0.0,0.0,0.0,16.04282,1.03132,-12.14671,9.21,0.88,1.32,4.0
1758077932.75031,1758077931.92568,0.0,0.0,0.0,16.61578,1.77617,-10.94349,9.7,0.9,1.24,4.0
1758077932.75126,1758077931.93568,0.0,0.0,0.0,16.84496,2.00535,-9.62569,9.7,0.9,1.24,4.0
1758077932.75263,1758077931.94568,0.0,0.0,0.0,16.61578,1.94806,-8.30789,9.87,1.04,1.44,4.0
1758077932.75471,1758077931.95568,0.0,0.0,0.0,15.46986,1.43239,-6.18794,9.87,1.04,1.44,4.0
1758077932.75559,1758077931.96568,0.0,0.0,0.0,14.03747,0.74485,-4.69825,9.65,1.62,1.62,4.0
1758077932.756,1758077931.97568,0.0,0.0,0.0,11.63104,-0.40107,-3.20856,9.65,1.62,1.62,4.0
1758077932.77149,1758077931.98568,0.0,0.0,0.0,8.76626,-1.3751,-1.71887,9.23,2.45,1.61,4.0
1758077932.77602,1758077931.99568,0.0,0.0,0.0,3.20856,-2.00535,-0.0573,9.12,2.99,1.62,4.0
1758077932.79158,1758077932.00568,0.0,0.0,0.0,-0.97403,-2.40642,0.57296,9.12,2.99,1.62,4.0
1758077932.79602,1758077932.01568,0.0,0.0,0.0,-5.32851,-2.86479,0.74485,9.01,3.04,1.61,4.0
1758077932.81161,1758077932.02568,0.0,0.0,0.0,-9.68299,-2.86479,0.74485,9.01,3.04,1.61,4.0
1758077932.81409,1758077932.03568,0.0,0.0,0.0,-15.46986,-3.20856,0.45837,9.03,2.81,1.52,4.0
1758077932.8303,1758077932.04568,0.0,0.0,0.0,-18.79302,-3.55234,0.45837,9.03,2.81,1.52,4.0
1758077932.84638,1758077932.05568,0.0,0.0,0.0,-21.7151,-4.0107,0.74485,9.11,2.53,1.58,4.0
1758077932.84837,1758077932.06568,0.0,0.0,0.0,-24.17882,-4.35448,2.00535,9.11,2.53,1.58,4.0
1758077932.86517,1758077932.07568,0.0,0.0,0.0,-27.38738,-4.46907,2.86479,9.33,2.27,1.65,4.0
1758077932.86616,1758077932.08568,0.0,0.0,0.0,-28.70519,-4.18259,3.95341,9.55,2.06,1.6,4.0
1758077932.88168,1758077932.09568,0.0,0.0,0.0,-29.96569,-3.89611,4.52637,9.55,2.06,1.6,4.0
1758077932.88494,1758077932.10568,0.0,0.0,0.0,-30.82513,-3.55234,4.87014,9.58,1.83,1.43,4.0
1758077932.90061,1758077932.11568,0.0,0.0,0.0,-30.48136,-3.72423,4.58366,9.58,1.83,1.43,4.0
1758077932.91669,1758077932.12568,0.0,0.0,0.0,-29.9084,-4.81285,4.29718,9.62,1.6,1.31,4.0
1758077932.91789,1758077932.13568,0.0,0.0,0.0,-28.93437,-5.72958,4.0107,9.62,1.6,1.31,4.0
1758077932.93369,1758077932.14568,0.0,0.0,0.0,-27.1582,-6.7609,3.89611,9.81,1.33,1.29,4.0
1758077932.93466,1758077932.15568,0.0,0.0,0.0,-25.7831,-7.04738,4.18259,9.9,1.01,1.22,4.0
1758077932.94949,1758077932.16568,0.0,0.0,0.0,-24.23611,-6.35983,4.52637,9.9,1.01,1.22,4.0
1758077932.96641,1758077932.17568,0.0,0.0,0.0,-22.34536,-4.98473,4.92744,9.77,0.77,1.22,4.0
1758077932.96841,1758077932.18568,0.0,0.0,0.0,-19.36597,-3.38045,5.32851,9.77,0.77,1.22,4.0
1758077932.98528,1758077932.19568,0.0,0.0,0.0,-16.90226,-3.83882,5.55769,9.68,0.6,1.17,4.0
1758077932.98621,1758077932.20568,0.0,0.0,0.0,-14.15206,-3.83882,5.55769,9.68,0.6,1.17,4.0
1758077933.0089,1758077932.21568,0.0,0.0,0.0,-11.11538,-3.89611,5.72958,9.8,0.56,1.01,4.0
1758077933.01583,1758077932.22568,0.0,0.0,0.0,-6.41713,-4.35448,5.72958,9.93,0.54,1.08,4.0
1758077933.01837,1758077932.23568,0.0,0.0,0.0,-3.32316,-4.64096,5.61499,9.93,0.54,1.08,4.0
1758077933.03474,1758077932.24568,0.0,0.0,0.0,-0.40107,-4.69825,5.72958,9.86,0.48,1.15,4.0
1758077933.03609,1758077932.25568,0.0,0.0,0.0,2.00535,-4.52637,5.72958,9.86,0.48,1.15,4.0
1758077933.0507,1758077932.26568,0.0,0.0,0.0,4.92744,-6.35983,5.84417,9.63,0.45,1.07,4.0
1758077933.06684,1758077932.27568,0.0,0.0,0.0,6.18794,-7.84952,5.78687,9.63,0.45,1.07,4.0
1758077933.07047,1758077932.28568,0.0,0.0,0.0,7.39116,-8.65166,5.72958,9.37,0.5,0.9,4.0
1758077933.08666,1758077932.29568,0.0,0.0,0.0,8.59437,-8.42248,5.72958,9.37,0.5,0.9,4.0
1758077933.09076,1758077932.30568,0.0,0.0,0.0,9.28192,-7.67763,5.72958,9.4,0.58,0.86,4.0
1758077933.1059,1758077932.31568,0.0,0.0,0.0,9.4538,-6.7609,6.07335,9.38,0.7,0.97,4.0
1758077933.10674,1758077932.32568,0.0,0.0,0.0,9.5684,-6.35983,6.41713,9.38,0.7,0.97,4.0
1758077933.12591,1758077932.33568,0.0,0.0,0.0,8.93814,-6.41713,6.7609,9.19,0.86,0.95,4.0
1758077933.12788,1758077932.34568,0.0,0.0,0.0,8.36518,-5.50039,7.04738,9.19,0.86,0.95,4.0
1758077933.14288,1758077932.35568,0.0,0.0,0.0,7.96411,-3.49504,7.21927,9.2,0.97,0.8,4.0
1758077933.14534,1758077932.36568,0.0,0.0,0.0,7.44845,-0.45837,7.62034,9.2,0.97,0.8,4.0
1758077933.16082,1758077932.37568,0.0,0.0,0.0,6.70361,3.26586,8.0787,9.44,0.95,0.84,4.0
1758077933.17693,1758077932.38568,0.0,0.0,0.0,6.18794,4.18259,8.30789,9.52,0.84,0.9,4.0
1758077933.17888,1758077932.39568,0.0,0.0,0.0,5.78687,4.0107,8.65166,9.52,0.84,0.9,4.0
1758077933.19465,1758077932.40568,0.0,0.0,0.0,5.50039,1.83346,8.88085,9.48,0.69,0.82,4.0
1758077933.19643,1758077932.41568,0.0,0.0,0.0,5.32851,-0.97403,9.74028,9.48,0.69,0.82,4.0
1758077933.2124,1758077932.42568,0.0,0.0,0.0,5.15662,-1.3178,10.59972,9.68,0.59,0.72,4.0
1758077933.216,1758077932.43568,0.0,0.0,0.0,4.98473,-1.48969,11.63104,9.68,0.59,0.72,4.0
1758077933.23161,1758077932.44568,0.0,0.0,0.0,4.64096,-1.77617,12.60507,9.88,0.56,0.86,4.0
1758077933.23279,1758077932.45568,0.0,0.0,0.0,4.29718,-4.64096,13.80828,9.69,0.63,0.86,4.0
1758077933.24899,1758077932.46568,0.0,0.0,0.0,4.18259,-6.18794,14.15206,9.69,0.63,0.86,4.0
1758077933.26593,1758077932.47568,0.0,0.0,0.0,3.89611,-6.58902,14.09476,9.74,0.71,0.7,4.0
1758077933.26794,1758077932.48568,0.0,0.0,0.0,3.66693,-5.90147,13.5791,9.74,0.71,0.7,4.0
1758077933.28295,1758077932.49568,0.0,0.0,0.0,3.32316,-5.90147,13.12073,9.86,0.74,0.68,4.0
1758077933.28537,1758077932.50568,0.0,0.0,0.0,3.03668,-5.61499,12.54778,9.86,0.74,0.68,4.0
1758077933.30091,1758077932.51568,0.0,0.0,0.0,2.97938,-5.32851,12.2613,9.92,0.69,0.68,4.0
1758077933.31857,1758077932.52568,0.0,0.0,0.0,2.40642,-4.18259,11.97482,9.92,0.69,0.68,4.0
1758077933.31945,1758077932.53568,0.0,0.0,0.0,2.06265,-2.7502,11.86023,9.83,0.62,0.59,4.0
1758077933.33545,1758077932.54568,0.0,0.0,0.0,1.77617,-1.3751,11.86023,9.68,0.53,0.54,4.0
1758077933.33777,1758077932.55568,0.0,0.0,0.0,1.66158,-0.85944,11.86023,9.68,0.53,0.54,4.0
1758077933.353,1758077932.56568,0.0,0.0,0.0,1.77617,-1.14592,11.86023,9.37,0.44,0.49,4.0
1758077933.35391,1758077932.57568,0.0,0.0,0.0,2.11994,-1.14592,11.86023,9.37,0.44,0.49,4.0
1758077933.36899,1758077932.58568,0.0,0.0,0.0,2.40642,-0.34377,12.14671,9.37,0.41,0.47,4.0
1758077933.38598,1758077932.59568,0.0,0.0,0.0,2.57831,1.14592,12.2613,9.37,0.41,0.47,4.0
1758077933.38801,1758077932.60568,0.0,0.0,0.0,2.63561,3.89611,12.49048,9.55,0.44,0.4,4.0
1758077933.40273,1758077932.61568,0.0,0.0,0.0,2.57831,5.09932,12.54778,9.6,0.5,0.32,4.0
1758077933.40666,1758077932.62568,0.0,0.0,0.0,2.63561,5.90147,12.71966,9.6,0.5,0.32,4.0
1758077933.42204,1758077932.63568,0.0,0.0,0.0,2.6929,6.35983,13.06344,9.61,0.49,0.35,4.0
1758077933.42372,1758077932.64568,0.0,0.0,0.0,2.34913,5.90147,13.12073,9.61,0.49,0.35,4.0
1758077933.44002,1758077932.65568,0.0,0.0,0.0,1.77617,4.29718,13.40721,9.52,0.51,0.49,4.0
1758077933.45601,1758077932.66568,0.0,0.0,0.0,1.20321,3.89611,13.40721,9.52,0.51,0.49,4.0
1758077933.45888,1758077932.67568,0.0,0.0,0.0,0.51566,4.29718,13.5791,9.54,0.66,0.52,4.0
1758077933.47404,1758077932.68568,0.0,0.0,0.0,-0.40107,4.69825,13.5791,9.47,0.79,0.54,4.0
1758077933.47537,1758077932.69568,0.0,0.0,0.0,-1.08862,4.58366,13.75099,9.47,0.79,0.54,4.0
1758077933.49095,1758077932.70568,0.0,0.0,0.0,-1.94806,4.1253,13.5218,9.24,0.86,0.66,4.0
1758077933.51003,1758077932.71568,0.0,0.0,0.0,-3.20856,3.09397,13.23533,9.24,0.86,0.66,4.0
1758077933.54085,1758077932.72568,0.0,0.0,0.0,-4.0107,1.48969,12.83425,9.13,0.9,0.43,4.0
1758077933.54119,1758077932.73568,0.0,0.0,0.0,-4.98473,1.03132,12.2613,9.13,0.9,0.43,4.0
1758077933.54239,1758077932.74568,0.0,0.0,0.0,-5.61499,0.45837,11.57375,8.99,0.85,0.18,4.0
1758077933.54406,1758077932.75568,0.0,0.0,0.0,-6.18794,-1.14592,11.00079,8.99,0.85,0.18,4.0
1758077933.54738,1758077932.76568,0.0,0.0,0.0,-6.35983,-2.23454,10.54242,8.68,0.71,0.09,4.0
1758077933.56293,1758077932.77568,0.0,0.0,0.0,-6.18794,-3.38045,9.91217,8.4,0.6,0.05,4.0
1758077933.56719,1758077932.78568,0.0,0.0,0.0,-5.84417,-5.15662,9.4538,8.4,0.6,0.05,4.0
1758077933.58292,1758077932.79568,0.0,0.0,0.0,-4.81285,-9.5684,8.42248,7.89,0.49,-0.08,4.0
1758077933.58513,1758077932.80568,0.0,0.0,0.0,-3.66693,-13.12073,7.79223,7.89,0.49,-0.08,4.0
1758077933.60015,1758077932.81568,0.0,0.0,0.0,-2.46372,-16.272,7.16197,7.38,0.37,-0.23,4.0
1758077933.61606,1758077932.82568,0.0,0.0,0.0,-1.08862,-18.44924,6.7609,7.38,0.37,-0.23,4.0
1758077933.61736,1758077932.83568,0.0,0.0,0.0,1.3751,-20.68378,5.4431,7.33,0.23,-0.28,4.0
1758077933.63445,1758077932.84568,0.0,0.0,0.0,3.03668,-22.68913,4.46907,7.45,-0.06,0.11,4.0
1758077933.63565,1758077932.85568,0.0,0.0,0.0,4.64096,-25.55392,3.26586,7.45,-0.06,0.11,4.0
1758077933.65094,1758077932.86568,0.0,0.0,0.0,6.35983,-28.41871,2.29183,8.24,-0.52,0.7,4.0
1758077933.6704,1758077932.87568,0.0,0.0,0.0,8.93814,-31.28349,2.11994,8.24,-0.52,0.7,4.0
1758077933.67613,1758077932.88568,0.0,0.0,0.0,10.19865,-32.25753,3.38045,9.3,-0.97,1.17,4.0
1758077933.67671,1758077932.89568,0.0,0.0,0.0,10.54242,-31.62727,4.64096,9.3,-0.97,1.17,4.0
1758077933.69557,1758077932.90568,0.0,0.0,0.0,11.80293,-31.28349,-1.20321,10.89,-1.65,3.49,4.0
1758077933.69658,1758077932.91568,0.0,0.0,0.0,16.272,-20.68378,-10.54242,20.77,-3.28,5.46,4.0
1758077933.71435,1758077932.92568,0.0,0.0,0.0,23.20479,-6.41713,-21.14215,20.77,-3.28,5.46,4.0
1758077933.71629,1758077932.93568,0.0,0.0,0.0,28.59059,-14.03747,-30.48136,26.04,-6.87,0.99,4.0
1758077933.73463,1758077932.94568,0.0,0.0,0.0,33.63263,-34.26288,-31.62727,26.04,-6.87,0.99,4.0
1758077933.73631,1758077932.95568,0.0,0.0,0.0,40.04975,-29.8511,-20.51189,17.48,-4.25,-1.51,4.0
1758077933.75465,1758077932.96568,0.0,0.0,0.0,45.03448,-17.76169,-8.88085,17.48,-4.25,-1.51,4.0
1758077933.75576,1758077932.97568,0.0,0.0,0.0,48.30034,-8.93814,2.57831,12.83,-1.35,0.78,4.0
1758077933.77093,1758077932.98568,0.0,0.0,0.0,47.49821,1.83346,12.89155,12.83,-1.35,1.67,4.0
1758077933.77373,1758077932.99568,0.0,0.0,0.0,43.94586,10.08406,16.50119,9.83,-0.13,1.67,4.0
1758077933.79128,1758077933.00568,0.0,0.0,0.0,37.92981,17.13144,17.87628,9.42,0.17,1.25,4.0
1758077933.79294,1758077933.01568,0.0,0.0,0.0,30.59595,22.23076,18.56383,9.42,0.17,1.25,4.0
1758077933.80933,1758077933.02568,0.0,0.0,0.0,20.45459,28.13223,17.87628,9.01,0.28,0.88,4.0
1758077933.82535,1758077933.03568,0.0,0.0,0.0,14.83961,35.86716,16.84496,9.01,0.28,0.88,4.0
1758077933.82619,1758077933.04568,0.0,0.0,0.0,11.45916,40.16434,15.92823,10.08,0.9,1.01,4.0
1758077933.84128,1758077933.05568,0.0,0.0,0.0,8.65166,36.26823,13.40721,10.08,0.9,1.01,4.0
1758077933.85867,1758077933.06568,0.0,0.0,0.0,6.18794,22.51724,8.76626,9.44,1.23,1.25,4.0
1758077933.86005,1758077933.07568,0.0,0.0,0.0,4.98473,13.34992,5.55769,8.89,0.84,1.24,4.0
1758077933.87506,1758077933.08568,0.0,0.0,0.0,4.35448,6.58902,3.60963,8.89,0.84,1.24,4.0
1758077933.87666,1758077933.09568,0.0,0.0,0.0,3.20856,6.70361,2.00535,9.21,-0.04,0.71,4.0
1758077933.89105,1758077933.10568,0.0,0.0,0.0,1.14592,11.28727,0.80214,9.21,-0.04,0.71,4.0
1758077933.90816,1758077933.11568,0.0,0.0,0.0,-0.34377,13.17803,0.51566,9.32,-0.73,0.9,4.0
1758077933.91086,1758077933.12568,0.0,0.0,0.0,-1.83346,13.69369,0.11459,9.32,-0.73,0.9,4.0
1758077933.92813,1758077933.13568,0.0,0.0,0.0,-4.35448,13.5791,-0.40107,9.14,-0.9,1.02,4.0
1758077933.92993,1758077933.14568,0.0,0.0,0.0,-5.84417,14.09476,-1.14592,9.74,-0.67,0.63,4.0
1758077933.94535,1758077933.15568,0.0,0.0,0.0,-6.99009,14.61043,-2.06265,9.74,-0.67,0.63,4.0
1758077933.94628,1758077933.16568,0.0,0.0,0.0,-7.62034,14.78231,-3.09397,10.02,-0.34,0.67,4.0
1758077933.96135,1758077933.17568,0.0,0.0,0.0,-7.79223,14.20935,-4.52637,10.02,-0.34,0.67,4.0
1758077933.96663,1758077933.18568,0.0,0.0,0.0,-7.39116,11.80293,-5.21392,9.98,-0.05,0.87,4.0
1758077933.98537,1758077933.19568,0.0,0.0,0.0,-6.53172,7.50575,-5.61499,9.98,-0.05,0.87,4.0
1758077933.98633,1758077933.20568,0.0,0.0,0.0,-5.72958,3.49504,-5.32851,9.45,0.03,0.91,4.0
1758077934.00138,1758077933.21568,0.0,0.0,0.0,-4.58366,-0.45837,-4.23989,9.2,-0.24,0.68,4.0
1758077934.00507,1758077933.22568,0.0,0.0,0.0,-3.55234,-0.85944,-2.46372,9.2,-0.24,0.68,4.0
1758077934.02021,1758077933.23568,0.0,0.0,0.0,-2.97938,6.47442,-2.00535,9.7,-0.66,0.45,4.0
1758077934.0361,1758077933.24568,0.0,0.0,0.0,-2.11994,22.05888,-1.83346,9.7,-0.66,0.45,4.0
1758077934.03732,1758077933.25568,0.0,0.0,0.0,-2.97938,30.19488,-2.92208,10.16,-0.87,0.58,4.0
1758077934.05467,1758077933.26568,0.0,0.0,0.0,-3.09397,22.34536,-2.97938,10.16,-0.87,0.58,4.0
1758077934.05616,1758077933.27568,0.0,0.0,0.0,-3.32316,10.48513,-3.32316,8.37,-0.75,1.15,4.0
1758077934.07116,1758077933.28568,0.0,0.0,0.0,-3.72423,5.55769,-3.55234,8.37,-0.75,1.15,4.0
1758077934.08718,1758077933.29568,0.0,0.0,0.0,-3.66693,4.52637,-2.63561,9.53,-0.67,-0.11,4.0
1758077934.09023,1758077933.30568,0.0,0.0,0.0,-2.86479,2.63561,-1.77617,9.88,-0.78,0.52,4.0
1758077934.10548,1758077933.31568,0.0,0.0,0.0,-2.29183,-0.45837,-1.03132,9.88,-0.78,0.52,4.0
1758077934.10638,1758077933.32568,0.0,0.0,0.0,-2.23454,-4.29718,-0.57296,9.51,-0.78,1.03,4.0
1758077934.12168,1758077933.33568,0.0,0.0,0.0,-2.86479,-10.19865,-0.57296,9.51,-0.78,1.03,4.0
1758077934.13749,1758077933.34568,0.0,0.0,0.0,-3.55234,-13.06344,-0.34377,9.29,-0.63,0.89,4.0
1758077934.1392,1758077933.35568,0.0,0.0,0.0,-4.35448,-15.24068,-0.22918,9.29,-0.63,0.89,4.0
1758077934.15459,1758077933.36568,0.0,0.0,0.0,-5.61499,-16.84496,-0.11459,9.18,-0.59,0.99,4.0
1758077934.15541,1758077933.37568,0.0,0.0,0.0,-6.53172,-17.13144,-0.22918,9.04,-0.57,1.06,4.0
1758077934.17048,1758077933.38568,0.0,0.0,0.0,-7.62034,-16.55848,-0.45837,9.04,-0.57,1.06,4.0
1758077934.18642,1758077933.39568,0.0,0.0,0.0,-8.42248,-15.41257,-0.80214,9.07,-0.51,1.05,4.0
1758077934.18744,1758077933.40568,0.0,0.0,0.0,-9.28192,-12.77696,-1.48969,9.07,-0.51,1.05,4.0
1758077934.20242,1758077933.41568,0.0,0.0,0.0,-9.4538,-10.59972,-2.34913,9.31,-0.4,0.98,4.0
1758077934.20615,1758077933.42568,0.0,0.0,0.0,-9.62569,-7.79223,-3.55234,9.31,-0.4,0.98,4.0
1758077934.22154,1758077933.43568,0.0,0.0,0.0,-9.28192,-5.50039,-4.58366,9.83,-0.33,1.03,4.0
1758077934.22516,1758077933.44568,0.0,0.0,0.0,-8.70896,-4.0107,-6.35983,10.26,-0.37,1.15,4.0
1758077934.24055,1758077933.45568,0.0,0.0,0.0,-8.88085,-4.35448,-7.16197,10.26,-0.37,1.15,4.0
1758077934.25654,1758077933.46568,0.0,0.0,0.0,-8.93814,-5.21392,-7.84952,10.33,-0.61,1.12,4.0
1758077934.25773,1758077933.47568,0.0,0.0,0.0,-8.99544,-6.13065,-8.0787,10.33,-0.61,1.12,4.0
1758077934.27253,1758077933.48568,0.0,0.0,0.0,-8.93814,-6.07335,-7.84952,10.24,-0.96,0.95,4.0
1758077934.2783,1758077933.49568,0.0,0.0,0.0,-8.76626,-5.15662,-7.79223,10.24,-0.96,0.95,4.0
1758077934.29328,1758077933.50568,0.0,0.0,0.0,-8.36518,-4.92744,-7.67763,10.06,-1.22,0.78,4.0
1758077934.29556,1758077933.51568,0.0,0.0,0.0,-7.79223,-4.23989,-7.39116,10.06,-1.22,0.78,4.0
1758077934.34148,1758077933.52568,0.0,0.0,0.0,-7.04738,-2.11994,-7.39116,9.69,-1.24,0.65,4.0
1758077934.34633,1758077933.53568,0.0,0.0,0.0,-6.35983,-0.57296,-7.44845,9.49,-1.1,0.5,4.0
1758077934.35022,1758077933.54568,0.0,0.0,0.0,-5.4431,0.74485,-7.44845,9.49,-1.1,0.5,4.0
1758077934.3538,1758077933.55568,0.0,0.0,0.0,-4.1253,3.20856,-7.33386,9.4,-0.92,0.42,4.0
1758077934.35438,1758077933.56568,0.0,0.0,0.0,-3.03668,4.1253,-7.39116,9.4,-0.92,0.42,4.0
1758077934.35568,1758077933.57568,0.0,0.0,0.0,-2.23454,4.1253,-7.73493,9.37,-0.77,0.46,4.0
1758077934.37169,1758077933.58568,0.0,0.0,0.0,-1.3751,3.83882,-8.25059,9.37,-0.77,0.46,4.0
1758077934.37329,1758077933.59568,0.0,0.0,0.0,-0.40107,3.32316,-8.93814,9.4,-0.69,0.39,4.0
1758077934.39569,1758077933.60568,0.0,0.0,0.0,0.0573,3.09397,-9.4538,9.33,-0.62,0.38,4.0
1758077934.40516,1758077933.61568,0.0,0.0,0.0,0.22918,3.20856,-10.08406,9.33,-0.62,0.38,4.0
1758077934.40659,1758077933.62568,0.0,0.0,0.0,0.17189,3.89611,-10.48513,9.09,-0.58,0.4,4.0
1758077934.42525,1758077933.63568,0.0,0.0,0.0,-0.22918,5.55769,-10.59972,9.09,-0.58,0.4,4.0
1758077934.42615,1758077933.64568,0.0,0.0,0.0,-0.57296,6.58902,-10.8289,8.85,-0.5,0.37,4.0
1758077934.44165,1758077933.65568,0.0,0.0,0.0,-1.08862,7.79223,-11.00079,8.85,-0.5,0.37,4.0
1758077934.44582,1758077933.66568,0.0,0.0,0.0,-1.66158,7.96411,-11.51645,8.83,-0.45,0.28,4.0
1758077934.46172,1758077933.67568,0.0,0.0,0.0,-2.46372,5.78687,-12.2613,8.64,-0.45,0.15,4.0
1758077934.46527,1758077933.68568,0.0,0.0,0.0,-2.92208,3.55234,-12.83425,8.64,-0.45,0.15,4.0
1758077934.48056,1758077933.69568,0.0,0.0,0.0,-3.32316,0.85944,-13.46451,8.52,-0.46,0.13,4.0
1758077934.49667,1758077933.70568,0.0,0.0,0.0,-3.26586,-1.77617,-14.15206,8.52,-0.46,0.13,4.0
1758077934.49859,1758077933.71568,0.0,0.0,0.0,-2.46372,-4.29718,-15.29797,8.53,-0.52,0.09,4.0
1758077934.51472,1758077933.72568,0.0,0.0,0.0,-1.66158,-5.4431,-15.92823,8.53,-0.52,0.09,4.0
1758077934.51588,1758077933.73568,0.0,0.0,0.0,-0.80214,-6.24524,-16.38659,8.66,-0.66,-0.01,4.0
1758077934.53052,1758077933.74568,0.0,0.0,0.0,0.22918,-7.67763,-16.84496,8.66,-0.66,-0.01,4.0
1758077934.54646,1758077933.75568,0.0,0.0,0.0,1.48969,-9.62569,-16.84496,8.49,-0.82,-0.1,4.0
1758077934.54704,1758077933.76568,0.0,0.0,0.0,2.29183,-10.8862,-16.73037,8.26,-0.94,-0.12,4.0
1758077934.60172,1758077933.77568,0.0,0.0,0.0,3.09397,-11.91752,-16.50119,8.26,-0.94,-0.12,4.0
1758077934.60587,1758077933.78568,0.0,0.0,0.0,4.29718,-14.38124,-15.87093,8.08,-0.99,-0.07,4.0
1758077934.60645,1758077933.79568,0.0,0.0,0.0,5.09932,-16.55848,-15.58445,8.08,-0.99,-0.07,4.0
1758077934.60844,1758077933.80568,0.0,0.0,0.0,5.55769,-18.50654,-14.78231,7.75,-0.95,-0.13,4.0
1758077934.61026,1758077933.81568,0.0,0.0,0.0,5.90147,-21.6578,-14.15206,7.75,-0.95,-0.13,4.0
1758077934.61138,1758077933.82568,0.0,0.0,0.0,6.35983,-26.12688,-13.46451,7.32,-0.91,-0.37,4.0
1758077934.61172,1758077933.83568,0.0,0.0,0.0,6.47442,-28.70519,-12.71966,7.02,-0.88,-0.47,4.0
1758077934.6279,1758077933.84568,0.0,0.0,0.0,6.7609,-32.54401,-11.86023,7.02,-0.88,-0.47,4.0
1758077934.64541,1758077933.85568,0.0,0.0,0.0,6.87549,-36.84119,-10.8862,6.26,-0.81,-0.54,4.0
1758077934.64632,1758077933.86568,0.0,0.0,0.0,7.50575,-42.05511,-9.85487,6.26,-0.81,-0.54,4.0
1758077934.66191,1758077933.87568,0.0,0.0,0.0,8.30789,-45.60744,-8.99544,5.55,-0.76,-0.47,4.0
1758077934.66602,1758077933.88568,0.0,0.0,0.0,9.33921,-49.15978,-9.05273,5.55,-0.76,-0.47,4.0
1758077934.6816,1758077933.89568,0.0,0.0,0.0,11.63104,-49.84733,-8.30789,5.06,-0.65,-0.45,4.0
1758077934.68682,1758077933.90568,0.0,0.0,0.0,15.46986,-50.82136,-7.44845,6.17,-0.23,0.11,4.0
1758077934.70159,1758077933.91568,0.0,0.0,0.0,18.33465,-46.1804,-6.53172,6.17,-0.23,0.11,4.0
1758077934.70271,1758077933.92568,0.0,0.0,0.0,20.62648,-41.08107,-4.81285,9.35,0.42,1.72,4.0
1758077934.71969,1758077933.93568,0.0,0.0,0.0,22.11617,-37.12767,-1.83346,9.35,0.42,1.72,4.0
1758077934.73664,1758077933.94568,0.0,0.0,0.0,22.28806,-21.6578,6.07335,13.09,1.12,3.67,4.0
1758077934.73945,1758077933.95568,0.0,0.0,0.0,16.38659,9.11003,16.90226,13.09,1.12,3.67,4.0
1758077934.75497,1758077933.96568,0.0,0.0,0.0,4.18259,42.68536,30.99702,27.62,3.53,8.15,4.0
1758077934.7609,1758077933.97568,0.0,0.0,0.0,-10.19865,-34.09099,49.96192,27.62,3.53,8.15,4.0
1758077934.77562,1758077933.98568,0.0,0.0,0.0,-9.85487,-90.87111,49.79003,28.2,8.79,-0.86,4.0
1758077934.77926,1758077933.99568,0.0,0.0,0.0,-17.87628,-45.72203,34.0337,20.82,3.79,-5.0,4.0
1758077934.79564,1758077934.00568,0.0,0.0,0.0,-21.60051,14.20935,26.24147,20.82,3.79,-5.0,4.0
1758077934.79902,1758077934.01568,0.0,0.0,0.0,-29.50733,44.28964,0.51566,14.92,-0.92,2.16,4.0
1758077934.81462,1758077934.02568,0.0,0.0,0.0,-31.97105,26.98631,-15.06879,14.92,-0.92,2.16,4.0
1758077934.81624,1758077934.03568,0.0,0.0,0.0,-28.70519,21.6578,-26.12688,5.81,-1.21,3.13,4.0
1758077934.83069,1758077934.04568,0.0,0.0,0.0,-21.94428,20.85567,-30.13758,5.81,-1.21,3.13,4.0
1758077934.83429,1758077934.05568,0.0,0.0,0.0,-7.39116,10.37054,-26.06958,8.97,0.71,-2.96,4.0
1758077934.85071,1758077934.06568,0.0,0.0,0.0,0.51566,15.35527,-19.13679,9.7,0.59,0.43,4.0
1758077934.85352,1758077934.07568,0.0,0.0,0.0,3.72423,49.50356,-19.99623,9.7,0.59,0.43,4.0
1758077934.87067,1758077934.08568,0.0,0.0,0.0,2.11994,63.54102,-19.48057,13.72,0.88,1.41,4.0
1758077934.87259,1758077934.09568,0.0,0.0,0.0,-4.0107,40.04975,-21.08485,13.72,0.88,1.41,4.0
1758077934.88892,1758077934.10568,0.0,0.0,0.0,-7.04738,24.5226,-20.51189,10.14,1.07,1.71,4.0
1758077934.90493,1758077934.11568,0.0,0.0,0.0,-9.4538,15.75634,-18.10547,10.14,1.07,1.71,4.0
1758077934.90613,1758077934.12568,0.0,0.0,0.0,-12.77696,2.92208,-15.29797,9.8,0.67,-0.48,4.0
1758077934.92086,1758077934.13568,0.0,0.0,0.0,-20.51189,-2.57831,-10.54242,8.75,1.16,0.52,4.0
1758077934.92596,1758077934.14568,0.0,0.0,0.0,-23.0902,13.12073,-4.29718,8.75,1.16,0.52,4.0
1758077934.94279,1758077934.15568,0.0,0.0,0.0,-23.26209,26.18417,1.94806,10.38,1.66,0.88,4.0
1758077934.95092,1758077934.16568,0.0,0.0,0.0,-23.54857,29.22085,6.87549,10.38,1.66,0.88,4.0
1758077934.96605,1758077934.17568,0.0,0.0,0.0,-23.20479,20.51189,8.30789,8.7,1.3,1.11,4.0
1758077935.01632,1758077934.18568,0.0,0.0,0.0,-22.28806,11.80293,8.42248,8.7,1.3,1.11,4.0
1758077935.02116,1758077934.19568,0.0,0.0,0.0,-20.68378,3.09397,7.96411,8.45,0.68,-0.03,4.0
1758077935.02609,1758077934.20568,0.0,0.0,0.0,-17.81899,-3.89611,5.90147,8.45,0.68,-0.03,4.0
1758077935.02995,1758077934.21568,0.0,0.0,0.0,-15.92823,-6.24524,4.35448,9.15,0.18,-0.3,4.0
1758077935.03111,1758077934.22568,0.0,0.0,0.0,-14.32395,-8.25059,3.32316,9.41,0.0,-0.22,4.0
1758077935.03602,1758077934.23568,0.0,0.0,0.0,-13.12073,-10.31324,2.40642,9.41,0.0,-0.22,4.0
1758077935.0364,1758077934.24568,0.0,0.0,0.0,-11.97482,-12.54778,2.00535,9.2,0.13,-0.38,4.0
1758077935.03994,1758077934.25568,0.0,0.0,0.0,-11.80293,-13.98017,1.77617,9.2,0.13,-0.38,4.0
1758077935.05613,1758077934.26568,0.0,0.0,0.0,-11.63104,-14.43854,2.00535,8.89,0.47,-0.6,4.0
1758077935.0761,1758077934.27568,0.0,0.0,0.0,-11.51645,-12.37589,2.11994,8.89,0.47,-0.6,4.0
1758077935.0783,1758077934.28568,0.0,0.0,0.0,-10.94349,-8.02141,3.20856,9.01,0.72,-0.48,4.0
1758077935.07992,1758077934.29568,0.0,0.0,0.0,-10.31324,-4.18259,3.83882,9.39,0.67,-0.23,4.0
1758077935.0948,1758077934.30568,0.0,0.0,0.0,-9.39651,-1.3178,4.58366,9.39,0.67,-0.23,4.0
1758077935.09839,1758077934.31568,0.0,0.0,0.0,-8.36518,-1.60428,5.55769,9.45,0.33,-0.01,4.0
1758077935.1139,1758077934.32568,0.0,0.0,0.0,-6.99009,-3.32316,6.99009,9.45,0.33,-0.01,4.0
1758077935.11859,1758077934.33568,0.0,0.0,0.0,-5.84417,-6.99009,7.39116,9.48,0.08,-0.15,4.0
1758077935.13416,1758077934.34568,0.0,0.0,0.0,-5.21392,-9.11003,7.62034,9.48,0.08,-0.15,4.0
1758077935.13824,1758077934.35568,0.0,0.0,0.0,-4.35448,-8.02141,7.96411,9.74,0.13,-0.26,4.0
1758077935.15419,1758077934.36568,0.0,0.0,0.0,-2.40642,-3.38045,8.59437,10.28,0.28,-0.18,4.0
1758077935.15663,1758077934.37568,0.0,0.0,0.0,-1.3751,-0.97403,8.93814,10.28,0.28,-0.18,4.0
1758077935.17315,1758077934.38568,0.0,0.0,0.0,-0.22918,-0.11459,9.39651,10.02,0.35,0.17,4.0
1758077935.17729,1758077934.39568,0.0,0.0,0.0,1.03132,-0.40107,9.85487,10.02,0.35,0.17,4.0
1758077935.30193,1758077934.40568,0.0,0.0,0.0,1.3751,-1.3178,9.85487,9.64,0.42,0.11,4.0
1758077935.30584,1758077934.41568,0.0,0.0,0.0,1.60428,-2.06265,9.74028,9.64,0.42,0.11,4.0
1758077935.30727,1758077934.42568,0.0,0.0,0.0,1.3751,-2.34913,9.4538,9.35,0.56,0.01,4.0
1758077935.31009,1758077934.43568,0.0,0.0,0.0,0.57296,-2.46372,9.28192,9.35,0.56,0.13,4.0
1758077935.3109,1758077934.44568,0.0,0.0,0.0,-0.11459,-2.6929,9.05273,9.21,0.73,0.13,4.0
1758077935.31282,1758077934.45568,0.0,0.0,0.0,-1.14592,-2.46372,8.59437,9.14,0.83,0.22,4.0
1758077935.31424,1758077934.46568,0.0,0.0,0.0,-2.23454,-1.43239,8.42248,9.14,0.83,0.22,4.0
1758077935.31492,1758077934.47568,0.0,0.0,0.0,-4.35448,1.83346,8.0787,9.22,0.85,0.23,4.0
1758077935.31947,1758077934.48568,0.0,0.0,0.0,-5.84417,4.87014,8.02141,9.22,0.85,0.23,4.0
1758077935.32,1758077934.49568,0.0,0.0,0.0,-7.33386,6.99009,7.84952,9.29,0.84,0.26,4.0
1758077935.32113,1758077934.50568,0.0,0.0,0.0,-8.47978,7.67763,7.96411,9.29,0.84,0.26,4.0
1758077935.32636,1758077934.51568,0.0,0.0,0.0,-9.68299,6.8182,8.02141,9.21,0.86,0.27,4.0
1758077935.33096,1758077934.52568,0.0,0.0,0.0,-10.19865,7.50575,8.25059,9.58,0.78,0.21,4.0
1758077935.33507,1758077934.53568,0.0,0.0,0.0,-9.96947,8.47978,8.02141,9.58,0.78,0.21,4.0
1758077935.33678,1758077934.54568,0.0,0.0,0.0,-9.85487,8.76626,7.79223,9.72,0.69,0.29,4.0
1758077935.33743,1758077934.55568,0.0,0.0,0.0,-9.5684,9.74028,7.79223,9.72,0.69,0.29,4.0
1758077935.35407,1758077934.56568,0.0,0.0,0.0,-9.33921,10.71431,7.73493,9.54,0.54,0.4,4.0
1758077935.36011,1758077934.57568,0.0,0.0,0.0,-9.05273,11.86023,8.136,9.54,0.54,0.4,4.0
1758077935.37605,1758077934.58568,0.0,0.0,0.0,-8.76626,12.204,8.88085,9.21,0.47,0.41,4.0
1758077935.37879,1758077934.59568,0.0,0.0,0.0,-8.70896,8.99544,9.62569,8.68,0.47,0.33,4.0
1758077935.39504,1758077934.60568,0.0,0.0,0.0,-8.25059,7.16197,10.48513,8.68,0.47,0.33,4.0
1758077935.39652,1758077934.61568,0.0,0.0,0.0,-8.02141,3.55234,11.28727,8.55,0.5,0.11,4.0
1758077935.41129,1758077934.62568,0.0,0.0,0.0,-7.21927,-0.22918,13.06344,8.55,0.5,0.11,4.0
1758077935.41538,1758077934.63568,0.0,0.0,0.0,-6.41713,-0.45837,13.69369,8.7,0.43,-0.03,4.0
1758077935.43104,1758077934.64568,0.0,0.0,0.0,-5.72958,-0.17189,14.20935,8.7,0.43,-0.03,4.0
1758077935.4325,1758077934.65568,0.0,0.0,0.0,-5.15662,0.57296,14.15206,8.71,0.37,-0.26,4.0
1758077935.45053,1758077934.66568,0.0,0.0,0.0,-4.46907,2.7502,13.5218,8.49,0.37,-0.27,4.0
1758077935.49638,1758077934.67568,0.0,0.0,0.0,-3.49504,4.18259,13.06344,8.49,0.32,-0.27,4.0
1758077935.5009,1758077934.68568,0.0,0.0,0.0,-2.57831,5.32851,12.49048,8.32,0.3,-0.67,4.0
1758077935.50299,1758077934.69568,0.0,0.0,0.0,-1.20321,5.4431,11.91752,8.32,0.3,-0.67,4.0
1758077935.50877,1758077934.70568,0.0,0.0,0.0,1.60428,3.26586,11.51645,7.97,0.21,-0.72,4.0
1758077935.50937,1758077934.71568,0.0,0.0,0.0,3.49504,0.97403,11.80293,7.97,0.21,-0.72,4.0
1758077935.51143,1758077934.72568,0.0,0.0,0.0,5.21392,-1.14592,12.2613,7.7,0.14,-0.71,4.0
1758077935.51237,1758077934.73568,0.0,0.0,0.0,6.87549,-2.86479,12.71966,7.7,0.14,-0.71,4.0
1758077935.52837,1758077934.74568,0.0,0.0,0.0,8.76626,-4.98473,12.71966,7.53,0.16,-0.93,4.0
1758077935.54521,1758077934.75568,0.0,0.0,0.0,9.62569,-6.18794,12.204,6.98,0.28,-0.74,4.0
1758077935.54638,1758077934.76568,0.0,0.0,0.0,10.59972,-7.39116,11.45916,6.98,0.28,-0.74,4.0
1758077935.56111,1758077934.77568,0.0,0.0,0.0,11.11538,-8.88085,10.59972,6.76,0.34,0.22,4.0
1758077935.56591,1758077934.78568,0.0,0.0,0.0,10.94349,-14.66772,8.59437,6.76,0.34,0.22,4.0
1758077935.5814,1758077934.79568,0.0,0.0,0.0,10.48513,-21.14215,6.87549,7.77,0.17,1.59,4.0
1758077935.58234,1758077934.80568,0.0,0.0,0.0,9.28192,-27.2155,5.4431,7.77,0.17,1.59,4.0
1758077935.6002,1758077934.81568,0.0,0.0,0.0,6.41713,-30.25217,4.64096,10.26,-0.19,2.21,4.0
1758077935.60209,1758077934.82568,0.0,0.0,0.0,4.1253,-27.10091,3.89611,13.05,-0.84,3.59,4.0
1758077935.62039,1758077934.83568,0.0,0.0,0.0,3.38045,-17.58981,0.40107,13.05,-0.84,3.59,4.0
1758077935.70558,1758077934.84568,0.0,0.0,0.0,5.09932,-5.72958,-6.35983,21.41,-2.41,6.21,4.0
1758077935.7157,1758077934.85568,0.0,0.0,0.0,10.59972,-18.50654,-19.59516,21.41,-2.41,6.21,4.0
1758077935.71602,1758077934.86568,0.0,0.0,0.0,10.08406,-34.37747,-25.7831,24.02,-5.61,-0.11,4.0
1758077935.7213,1758077934.87568,0.0,0.0,0.0,10.8862,-30.48136,-22.68913,24.02,-5.61,-0.11,4.0
1758077935.72622,1758077934.88568,0.0,0.0,0.0,14.38124,-13.69369,-13.06344,19.43,-3.06,-1.99,4.0
1758077935.72723,1758077934.89568,0.0,0.0,0.0,22.57454,8.136,4.1253,14.2,-0.39,1.17,4.0
1758077935.72821,1758077934.90568,0.0,0.0,0.0,25.15285,19.36597,12.71966,14.2,-0.39,1.17,4.0
1758077935.72854,1758077934.91568,0.0,0.0,0.0,26.24147,28.30412,17.87628,11.13,1.21,1.58,4.0
1758077935.73129,1758077934.92568,0.0,0.0,0.0,24.86637,29.8511,18.73572,11.13,1.21,1.58,4.0
1758077935.73295,1758077934.93568,0.0,0.0,0.0,18.50654,26.24147,14.03747,9.55,1.24,0.08,4.0
1758077935.7357,1758077934.94568,0.0,0.0,0.0,14.15206,36.21093,11.45916,9.55,1.24,0.08,4.0
1758077935.73898,1758077934.95568,0.0,0.0,0.0,10.94349,49.21708,10.02676,10.81,0.04,0.74,4.0
1758077935.75447,1758077934.96568,0.0,0.0,0.0,7.62034,52.42564,8.36518,10.81,0.04,0.74,4.0
1758077935.75863,1758077934.97568,0.0,0.0,0.0,4.35448,35.63798,6.53172,10.55,-0.65,2.07,4.0
1758077935.77426,1758077934.98568,0.0,0.0,0.0,3.55234,22.40265,5.72958,9.34,-0.39,1.07,4.0
1758077935.77899,1758077934.99568,0.0,0.0,0.0,4.35448,10.59972,6.24524,9.34,-0.39,1.07,4.0
1758077935.79431,1758077935.00568,0.0,0.0,0.0,5.50039,3.20856,6.58902,9.37,0.01,0.82,4.0
1758077935.79596,1758077935.01568,0.0,0.0,0.0,5.21392,-2.92208,6.87549,9.37,0.01,0.82,4.0
1758077935.81057,1758077935.02568,0.0,0.0,0.0,4.29718,-5.55769,6.58902,9.24,-0.06,1.78,4.0
1758077935.82646,1758077935.03568,0.0,0.0,0.0,2.63561,-7.21927,6.18794,9.24,-0.06,1.78,4.0
1758077935.82828,1758077935.04568,0.0,0.0,0.0,-1.3751,-9.74028,5.72958,9.3,-0.2,2.31,4.0
1758077935.84514,1758077935.05568,0.0,0.0,0.0,-4.58366,-10.37054,5.27121,9.05,-0.2,1.99,4.0
1758077935.84636,1758077935.06568,0.0,0.0,0.0,-7.73493,-8.88085,5.21392,9.05,-0.2,1.99,4.0
1758077935.86163,1758077935.07568,0.0,0.0,0.0,-10.8289,-6.35983,5.15662,8.97,-0.19,1.66,4.0
1758077935.8633,1758077935.08568,0.0,0.0,0.0,-14.61043,-1.08862,4.64096,8.97,-0.19,1.66,4.0
1758077935.88062,1758077935.09568,0.0,0.0,0.0,-16.95955,2.11994,4.35448,8.98,-0.16,1.39,4.0
1758077935.89634,1758077935.10568,0.0,0.0,0.0,-18.85031,5.15662,3.83882,8.98,-0.16,1.39,4.0
1758077935.89909,1758077935.11568,0.0,0.0,0.0,-20.34,5.09932,3.03668,9.09,-0.09,1.21,4.0
1758077935.91441,1758077935.12568,0.0,0.0,0.0,-21.37133,1.71887,2.34913,9.02,-0.11,1.01,4.0
1758077935.91635,1758077935.13568,0.0,0.0,0.0,-21.14215,0.0,1.77617,9.02,-0.11,1.01,4.0
1758077935.93193,1758077935.14568,0.0,0.0,0.0,-20.74107,0.22918,1.3178,9.53,-0.32,0.79,4.0
1758077935.93333,1758077935.15568,0.0,0.0,0.0,-19.70975,2.46372,0.85944,9.53,-0.32,0.79,4.0
1758077935.94865,1758077935.16568,0.0,0.0,0.0,-17.58981,6.18794,0.40107,10.06,-0.65,0.86,4.0
1758077935.96626,1758077935.17568,0.0,0.0,0.0,-16.3293,7.33386,0.22918,10.06,-0.65,0.86,4.0
1758077935.96718,1758077935.18568,0.0,0.0,0.0,-15.12609,8.136,0.11459,10.13,-0.9,0.78,4.0
1758077935.98264,1758077935.19568,0.0,0.0,0.0,-13.98017,9.33921,0.45837,10.13,-0.9,0.78,4.0
1758077935.98547,1758077935.20568,0.0,0.0,0.0,-12.49048,11.22997,1.20321,10.28,-1.02,0.46,4.0
1758077936.00053,1758077935.21568,0.0,0.0,0.0,-11.63104,11.80293,1.71887,10.17,-1.04,0.39,4.0
1758077936.01804,1758077935.22568,0.0,0.0,0.0,-11.17268,11.97482,2.06265,10.17,-1.04,0.39,4.0
1758077936.02116,1758077935.23568,0.0,0.0,0.0,-10.02676,11.00079,2.63561,10.0,-0.97,0.41,4.0
1758077936.03669,1758077935.24568,0.0,0.0,0.0,-9.11003,10.48513,2.63561,10.0,-0.97,0.41,4.0
1758077936.0504,1758077935.25568,0.0,0.0,0.0,-8.136,9.91217,2.57831,10.01,-1.03,0.38,4.0
1758077936.07263,1758077935.26568,0.0,0.0,0.0,-6.70361,9.4538,2.29183,10.01,-1.03,0.38,4.0
1758077936.12266,1758077935.27568,0.0,0.0,0.0,-4.64096,8.93814,1.66158,9.83,-1.1,0.39,4.0
1758077936.12566,1758077935.28568,0.0,0.0,0.0,-3.09397,8.136,0.85944,9.57,-1.12,0.3,4.0
1758077936.12859,1758077935.29568,0.0,0.0,0.0,-1.66158,6.99009,0.51566,9.57,-1.12,0.3,4.0
1758077936.1339,1758077935.30568,0.0,0.0,0.0,-0.51566,7.04738,-0.11459,9.34,-1.06,0.15,4.0
1758077936.13425,1758077935.31568,0.0,0.0,0.0,0.74485,11.80293,-1.03132,9.34,-1.06,0.15,4.0
1758077936.1357,1758077935.32568,0.0,0.0,0.0,1.14592,18.62113,-2.34913,9.67,-1.02,0.28,4.0
1758077936.23289,1758077935.33568,0.0,0.0,0.0,1.14592,21.7151,-3.83882,9.67,-1.02,0.28,4.0
1758077936.24028,1758077935.34568,0.0,0.0,0.0,1.77617,18.79302,-4.35448,9.34,-1.03,0.6,4.0
1758077936.24291,1758077935.35568,0.0,0.0,0.0,3.03668,9.62569,-4.69825,8.83,-1.08,0.56,4.0
1758077936.25097,1758077935.36568,0.0,0.0,0.0,3.95341,4.46907,-4.46907,8.83,-1.08,0.56,4.0
1758077936.25312,1758077935.37568,0.0,0.0,0.0,4.92744,0.68755,-3.95341,9.21,-1.3,0.33,4.0
1758077936.25404,1758077935.38568,0.0,0.0,0.0,6.35983,-3.26586,-3.26586,9.21,-1.3,0.33,4.0
1758077936.25466,1758077935.39568,0.0,0.0,0.0,8.36518,-10.65701,-2.29183,9.23,-1.59,0.73,4.0
1758077936.25595,1758077935.40568,0.0,0.0,0.0,9.96947,-15.0115,-1.48969,9.23,-1.59,0.73,4.0
1758077936.25683,1758077935.41568,0.0,0.0,0.0,11.28727,-17.76169,-0.68755,9.3,-1.73,0.7,4.0
1758077936.25863,1758077935.42568,0.0,0.0,0.0,13.40721,-20.05352,0.22918,9.3,-1.73,0.7,4.0
1758077936.2593,1758077935.43568,0.0,0.0,0.0,14.9542,-21.48592,0.51566,9.53,-1.72,0.5,4.0
1758077936.26043,1758077935.44568,0.0,0.0,0.0,15.98552,-21.08485,1.03132,9.68,-1.53,0.55,4.0
1758077936.26109,1758077935.45568,0.0,0.0,0.0,17.01685,-20.34,1.3751,9.68,-1.53,0.55,4.0
1758077936.26184,1758077935.46568,0.0,0.0,0.0,17.6471,-19.13679,1.60428,9.69,-1.21,0.7,4.0
1758077936.26535,1758077935.47568,0.0,0.0,0.0,17.58981,-18.22006,1.66158,9.69,-1.21,0.7,4.0
1758077936.26609,1758077935.48568,0.0,0.0,0.0,17.30333,-17.13144,1.3178,9.69,-0.87,0.71,4.0
1758077936.28191,1758077935.49568,0.0,0.0,0.0,16.67307,-16.272,0.80214,9.69,-0.87,0.71,4.0
1758077936.28277,1758077935.50568,0.0,0.0,0.0,15.35527,-14.20935,-0.0573,9.72,-0.6,0.6,4.0
1758077936.30085,1758077935.51568,0.0,0.0,0.0,14.20935,-12.89155,-0.57296,9.75,-0.46,0.6,4.0
1758077936.36087,1758077935.52568,0.0,0.0,0.0,12.71966,-12.49048,-1.60428,9.75,-0.46,0.6,4.0
1758077936.36201,1758077935.53568,0.0,0.0,0.0,11.11538,-12.54778,-2.63561,9.77,-0.36,0.47,4.0
1758077936.3648,1758077935.54568,0.0,0.0,0.0,8.25059,-12.49048,-4.35448,9.77,-0.36,0.47,4.0
1758077936.366,1758077935.55568,0.0,0.0,0.0,6.13065,-11.22997,-5.15662,9.85,-0.4,0.26,4.0
1758077936.36664,1758077935.56568,0.0,0.0,0.0,3.89611,-9.91217,-5.55769,9.85,-0.4,0.26,4.0
1758077936.36893,1758077935.57568,0.0,0.0,0.0,2.23454,-8.47978,-6.35983,9.75,-0.51,0.03,4.0
1758077936.37007,1758077935.58568,0.0,0.0,0.0,0.85944,-4.35448,-8.02141,9.95,-0.46,0.2,4.0
1758077936.37639,1758077935.59568,0.0,0.0,0.0,0.40107,-1.20321,-9.22462,9.95,-0.46,0.2,4.0
1758077936.3936,1758077935.60568,0.0,0.0,0.0,0.0573,0.40107,-10.31324,9.95,-0.47,-0.02,4.0
1758077936.39878,1758077935.61568,0.0,0.0,0.0,-0.45837,0.97403,-10.94349,9.95,-0.47,-0.02,4.0
1758077936.41529,1758077935.62568,0.0,0.0,0.0,-1.08862,0.40107,-10.65701,9.54,-0.62,-0.29,4.0
1758077936.41701,1758077935.63568,0.0,0.0,0.0,-0.85944,-0.17189,-10.37054,9.54,-0.62,-0.29,4.0
1758077936.43357,1758077935.64568,0.0,0.0,0.0,-0.34377,-0.74485,-9.91217,9.34,-0.84,-0.26,4.0
1758077936.43879,1758077935.65568,0.0,0.0,0.0,0.97403,-0.34377,-9.22462,9.34,-0.84,-0.26,4.0
1758077936.57035,1758077935.66568,0.0,0.0,0.0,2.46372,0.51566,-8.76626,9.27,-1.08,-0.11,4.0
1758077936.57171,1758077935.67568,0.0,0.0,0.0,3.95341,0.57296,-8.99544,9.04,-1.19,0.04,4.0
1758077936.57384,1758077935.68568,0.0,0.0,0.0,5.4431,-0.57296,-9.39651,9.04,-1.19,0.04,4.0
1758077936.57664,1758077935.69568,0.0,0.0,0.0,7.96411,-2.6929,-10.02676,8.73,-1.18,0.09,4.0
1758077936.58132,1758077935.70568,0.0,0.0,0.0,9.74028,-3.66693,-10.37054,8.73,-1.18,0.09,4.0
1758077936.58861,1758077935.71568,0.0,0.0,0.0,11.74564,-4.1253,-10.48513,8.88,-1.13,0.0,4.0
1758077936.5904,1758077935.72568,0.0,0.0,0.0,13.75099,-3.83882,-10.37054,8.88,-1.13,0.0,4.0
1758077936.59081,1758077935.73568,0.0,0.0,0.0,16.21471,-3.83882,-10.31324,9.24,-1.13,-0.14,4.0
1758077936.59293,1758077935.74568,0.0,0.0,0.0,17.6471,-3.83882,-10.25595,9.46,-1.11,-0.25,4.0
1758077936.59331,1758077935.75568,0.0,0.0,0.0,18.56383,-4.0107,-10.19865,9.46,-1.11,-0.25,4.0
1758077936.59463,1758077935.76568,0.0,0.0,0.0,19.07949,-3.83882,-10.08406,9.52,-1.01,-0.27,4.0
1758077936.59524,1758077935.77568,0.0,0.0,0.0,19.48057,-2.86479,-10.02676,9.52,-1.01,-0.27,4.0
1758077936.60068,1758077935.78568,0.0,0.0,0.0,19.48057,-2.29183,-10.02676,9.54,-0.86,-0.33,4.0
1758077936.60319,1758077935.79568,0.0,0.0,0.0,19.36597,-1.60428,-10.19865,9.54,-0.86,-0.33,4.0
1758077936.60616,1758077935.80568,0.0,0.0,0.0,19.25138,-1.3178,-10.54242,9.37,-0.75,-0.2,4.0
1758077936.60678,1758077935.81568,0.0,0.0,0.0,18.9649,-0.45837,-11.11538,9.12,-0.69,-0.14,4.0
1758077936.60883,1758077935.82568,0.0,0.0,0.0,18.90761,-0.22918,-11.51645,9.12,-0.69,-0.14,4.0
1758077936.62606,1758077935.83568,0.0,0.0,0.0,19.07949,0.57296,-12.08941,8.93,-0.69,-0.21,4.0
1758077936.62776,1758077935.84568,0.0,0.0,0.0,18.9649,1.14592,-12.77696,8.93,-0.69,-0.21,4.0
1758077936.64285,1758077935.85568,0.0,0.0,0.0,18.79302,1.3178,-13.5218,8.77,-0.66,-0.37,4.0
1758077936.64636,1758077935.86568,0.0,0.0,0.0,18.62113,1.3751,-13.98017,8.77,-0.66,-0.37,4.0
1758077936.66207,1758077935.87568,0.0,0.0,0.0,18.22006,0.97403,-14.20935,8.6,-0.62,-0.51,4.0
1758077936.66595,1758077935.88568,0.0,0.0,0.0,17.36062,0.0573,-14.09476,8.6,-0.62,-0.51,4.0
1758077936.68092,1758077935.89568,0.0,0.0,0.0,16.84496,-0.68755,-13.75099,8.29,-0.58,-0.61,4.0
1758077936.69961,1758077935.90568,0.0,0.0,0.0,16.21471,-1.77617,-12.83425,7.88,-0.51,-0.58,4.0
1758077936.70047,1758077935.91568,0.0,0.0,0.0,15.41257,-4.52637,-11.97482,7.88,-0.51,-0.58,4.0
1758077936.71588,1758077935.92568,0.0,0.0,0.0,14.83961,-9.28192,-11.22997,7.12,-0.4,-0.63,4.0
1758077936.71869,1758077935.93568,0.0,0.0,0.0,14.43854,-12.14671,-10.59972,7.12,-0.4,-0.63,4.0
1758077936.73414,1758077935.94568,0.0,0.0,0.0,14.09476,-16.04282,-10.37054,6.51,-0.35,-0.43,4.0
1758077936.73847,1758077935.95568,0.0,0.0,0.0,14.03747,-21.31403,-10.08406,6.51,-0.35,-0.43,4.0
1758077936.78006,1758077935.96568,0.0,0.0,0.0,14.03747,-28.01764,-10.37054,5.66,-0.33,-0.46,4.0
1758077936.78128,1758077935.97568,0.0,0.0,0.0,14.61043,-33.00237,-10.48513,4.98,-0.33,-0.54,4.0
1758077936.7816,1758077935.98568,0.0,0.0,0.0,15.24068,-37.12767,-10.94349,4.98,-0.33,-0.54,4.0
1758077936.78612,1758077935.99568,0.0,0.0,0.0,15.64175,-40.16434,-11.34457,4.64,-0.28,-0.39,4.0
1758077936.78677,1758077936.00568,0.0,0.0,0.0,15.98552,-41.13837,-11.34457,4.64,-0.28,-0.39,4.0
1758077936.80556,1758077936.01568,0.0,0.0,0.0,15.92823,-37.52874,-11.00079,6.45,-0.05,0.45,4.0
1758077936.809,1758077936.02568,0.0,0.0,0.0,14.78231,-30.48136,-10.65701,6.45,-0.05,0.45,4.0
1758077936.84915,1758077936.03568,0.0,0.0,0.0,13.06344,-23.89234,-8.70896,10.7,0.48,1.61,4.0
1758077936.85338,1758077936.04568,0.0,0.0,0.0,11.00079,-16.67307,-5.90147,13.8,1.18,2.11,4.0
1758077936.85657,1758077936.05568,0.0,0.0,0.0,9.39651,-7.16197,-2.46372,13.8,1.18,2.11,4.0
1758077936.86071,1758077936.06568,0.0,0.0,0.0,6.18794,8.88085,1.83346,17.41,1.88,2.85,4.0
1758077936.86177,1758077936.07568,0.0,0.0,0.0,-3.89611,39.76327,17.24603,17.41,1.88,2.85,4.0
1758077936.86575,1758077936.08568,0.0,0.0,0.0,-16.84496,35.12231,27.33009,27.41,4.0,3.96,4.0
1758077936.88295,1758077936.09568,0.0,0.0,0.0,-11.57375,-23.37668,44.17505,27.41,4.0,3.96,4.0
1758077936.88913,1758077936.10568,0.0,0.0,0.0,-10.94349,-65.2599,41.76862,20.67,4.74,-1.86,4.0
1758077936.90592,1758077936.11568,0.0,0.0,0.0,-9.91217,-2.6929,35.52338,20.67,4.74,-3.67,4.0
1758077936.90677,1758077936.12568,0.0,0.0,0.0,-8.99544,35.58068,22.74642,20.31,-0.25,-3.67,4.0
1758077936.92509,1758077936.13568,0.0,0.0,0.0,-8.99544,33.9764,10.19865,11.78,-2.46,3.54,4.0
1758077936.92681,1758077936.14568,0.0,0.0,0.0,-9.62569,17.6471,-3.49504,11.78,-2.46,3.54,4.0
1758077936.94533,1758077936.15568,0.0,0.0,0.0,-6.07335,4.87014,-13.69369,8.01,-1.5,1.51,4.0
1758077936.94626,1758077936.16568,0.0,0.0,0.0,-1.71887,-1.03132,-14.15206,8.01,-1.5,1.51,4.0
1758077936.96136,1758077936.17568,0.0,0.0,0.0,2.29183,-3.55234,-12.83425,9.69,0.02,-1.06,4.0
1758077936.96489,1758077936.18568,0.0,0.0,0.0,4.69825,-1.60428,-10.19865,9.69,0.02,-1.06,4.0
1758077936.98033,1758077936.19568,0.0,0.0,0.0,3.38045,27.96034,-6.41713,11.07,0.84,0.58,4.0
1758077936.99634,1758077936.20568,0.0,0.0,0.0,-1.3751,52.42564,-3.38045,14.18,1.58,1.46,4.0
1758077936.99725,1758077936.21568,0.0,0.0,0.0,-8.65166,57.58226,-3.60963,14.18,1.58,1.46,4.0
1758077937.01319,1758077936.22568,0.0,0.0,0.0,-12.43318,39.01843,-3.49504,9.72,1.7,2.14,4.0
1758077937.01599,1758077936.23568,0.0,0.0,0.0,-18.27736,12.37589,-5.84417,9.72,1.7,2.14,4.0
1758077937.03107,1758077936.24568,0.0,0.0,0.0,-21.37133,5.50039,-6.70361,7.89,1.58,0.23,4.0
1758077937.03546,1758077936.25568,0.0,0.0,0.0,-24.80907,3.49504,-7.33386,7.89,1.58,0.23,4.0
1758077937.05111,1758077936.26568,0.0,0.0,0.0,-28.30412,7.04738,-6.13065,8.68,1.63,0.22,4.0
1758077937.05311,1758077936.27568,0.0,0.0,0.0,-28.59059,16.90226,-4.18259,9.43,1.5,0.78,4.0
1758077937.07019,1758077936.28568,0.0,0.0,0.0,-27.73116,24.63719,-1.48969,9.43,1.5,0.78,4.0
1758077937.0863,1758077936.29568,0.0,0.0,0.0,-26.12688,28.70519,0.40107,9.33,0.91,0.83,4.0
1758077937.08755,1758077936.30568,0.0,0.0,0.0,-23.49127,27.1582,1.77617,9.33,0.91,0.83,4.0
1758077937.10239,1758077936.31568,0.0,0.0,0.0,-21.37133,21.7151,1.66158,8.68,0.38,0.59,4.0
1758077937.10491,1758077936.32568,0.0,0.0,0.0,-19.42327,15.98552,1.14592,8.68,0.38,0.59,4.0
1758077937.12139,1758077936.33568,0.0,0.0,0.0,-17.13144,11.28727,0.68755,8.72,-0.04,-0.06,4.0
1758077937.12505,1758077936.34568,0.0,0.0,0.0,-13.86558,5.95876,0.45837,9.26,-0.28,-0.04,4.0
1758077937.14018,1758077936.35568,0.0,0.0,0.0,-11.80293,3.72423,0.45837,9.26,-0.28,-0.04,4.0
1758077937.1562,1758077936.36568,0.0,0.0,0.0,-9.96947,1.71887,0.45837,9.62,-0.38,0.15,4.0
1758077937.16129,1758077936.37568,0.0,0.0,0.0,-8.25059,-0.17189,0.34377,9.62,-0.38,0.15,4.0
1758077937.22119,1758077936.38568,0.0,0.0,0.0,-6.13065,-2.23454,-0.17189,9.68,-0.22,0.15,4.0
1758077937.31668,1758077936.39568,0.0,0.0,0.0,-4.81285,-2.7502,-0.74485,9.68,-0.22,0.15,4.0
1758077937.31945,1758077936.40568,0.0,0.0,0.0,-4.0107,-2.92208,-1.3178,9.63,0.16,0.0,4.0
1758077937.3257,1758077936.41568,0.0,0.0,0.0,-3.03668,-2.46372,-1.71887,9.63,0.16,0.0,4.0
1758077937.32604,1758077936.42568,0.0,0.0,0.0,-2.23454,-1.3751,-2.00535,9.6,0.57,-0.01,4.0
1758077937.32678,1758077936.43568,0.0,0.0,0.0,-1.66158,-0.80214,-1.94806,9.63,0.84,0.02,4.0
1758077937.32898,1758077936.44568,0.0,0.0,0.0,-1.3751,-0.51566,-1.71887,9.63,0.84,0.02,4.0
1758077937.33016,1758077936.45568,0.0,0.0,0.0,-1.14592,-0.74485,-1.03132,9.51,0.86,0.11,4.0
1758077937.33246,1758077936.46568,0.0,0.0,0.0,-0.97403,-1.60428,-0.40107,9.51,0.86,0.11,4.0
1758077937.33496,1758077936.47568,0.0,0.0,0.0,-0.80214,-1.94806,0.17189,9.46,0.73,0.09,4.0
1758077937.34694,1758077936.48568,0.0,0.0,0.0,-0.68755,-2.29183,1.03132,9.46,0.73,0.09,4.0
1758077937.3911,1758077936.49568,0.0,0.0,0.0,-0.57296,-2.6929,2.06265,9.45,0.55,0.16,4.0
1758077937.40031,1758077936.50568,0.0,0.0,0.0,-0.22918,-3.03668,2.6929,9.34,0.45,0.22,4.0
1758077937.40072,1758077936.51568,0.0,0.0,0.0,0.0573,-3.26586,3.49504,9.34,0.45,0.22,4.0
1758077937.4026,1758077936.52568,0.0,0.0,0.0,0.51566,-3.20856,3.95341,9.28,0.46,0.29,4.0
1758077937.40588,1758077936.53568,0.0,0.0,0.0,1.08862,-1.71887,4.87014,9.28,0.46,0.29,4.0
1758077937.40801,1758077936.54568,0.0,0.0,0.0,1.43239,-0.45837,5.50039,9.31,0.55,0.37,4.0
1758077937.41007,1758077936.55568,0.0,0.0,0.0,1.60428,0.34377,6.07335,9.31,0.55,0.37,4.0
1758077937.41117,1758077936.56568,0.0,0.0,0.0,1.3178,0.74485,6.41713,9.28,0.65,0.46,4.0
1758077937.4129,1758077936.57568,0.0,0.0,0.0,0.80214,0.45837,6.87549,9.23,0.73,0.49,4.0
1758077937.41329,1758077936.58568,0.0,0.0,0.0,0.34377,0.11459,7.16197,9.23,0.73,0.49,4.0
1758077937.41443,1758077936.59568,0.0,0.0,0.0,-0.22918,0.22918,7.44845,9.32,0.8,0.53,4.0
1758077937.41522,1758077936.60568,0.0,0.0,0.0,-1.08862,0.22918,7.62034,9.32,0.8,0.53,4.0
1758077937.41633,1758077936.61568,0.0,0.0,0.0,-2.46372,0.45837,7.62034,9.32,0.84,0.55,4.0
1758077937.41914,1758077936.62568,0.0,0.0,0.0,-3.49504,0.85944,7.50575,9.32,0.84,0.55,4.0
1758077937.42006,1758077936.63568,0.0,0.0,0.0,-4.52637,0.68755,7.44845,9.25,0.87,0.46,4.0
1758077937.43544,1758077936.64568,0.0,0.0,0.0,-5.27121,-0.0573,7.62034,9.25,0.87,0.46,4.0
1758077937.43651,1758077936.65568,0.0,0.0,0.0,-6.41713,-1.66158,8.136,9.13,0.84,0.29,4.0
1758077937.45138,1758077936.66568,0.0,0.0,0.0,-6.53172,-1.66158,8.30789,9.18,0.81,0.21,4.0
1758077937.4859,1758077936.67568,0.0,0.0,0.0,-6.99009,-1.3751,8.76626,9.18,0.81,0.21,4.0
1758077937.48642,1758077936.68568,0.0,0.0,0.0,-7.50575,-0.97403,9.39651,9.26,0.78,0.25,4.0
1758077937.49036,1758077936.69568,0.0,0.0,0.0,-8.0787,-1.43239,9.85487,9.26,0.78,0.25,4.0
1758077937.49189,1758077936.70568,0.0,0.0,0.0,-8.25059,-3.26586,10.37054,9.09,0.77,0.24,4.0
1758077937.49316,1758077936.71568,0.0,0.0,0.0,-8.42248,-4.23989,11.00079,9.09,0.77,0.24,4.0
1758077937.51065,1758077936.72568,0.0,0.0,0.0,-8.93814,-3.60963,11.74564,8.9,0.74,-0.01,4.0
1758077937.56621,1758077936.73568,0.0,0.0,0.0,-9.39651,-2.23454,12.08941,8.94,0.71,-0.09,4.0
1758077937.56907,1758077936.74568,0.0,0.0,0.0,-9.96947,-1.03132,12.08941,8.94,0.71,-0.09,4.0
1758077937.57174,1758077936.75568,0.0,0.0,0.0,-10.59972,-0.45837,12.08941,8.76,0.72,-0.12,4.0
1758077937.57238,1758077936.76568,0.0,0.0,0.0,-11.34457,0.68755,12.08941,8.76,0.72,-0.12,4.0
1758077937.57601,1758077936.77568,0.0,0.0,0.0,-12.08941,1.43239,11.97482,8.69,0.77,-0.4,4.0
1758077937.57906,1758077936.78568,0.0,0.0,0.0,-12.49048,1.83346,11.86023,8.69,0.77,-0.4,4.0
1758077937.57979,1758077936.79568,0.0,0.0,0.0,-13.06344,1.43239,11.63104,8.42,0.78,-0.62,4.0
1758077937.5825,1758077936.80568,0.0,0.0,0.0,-13.17803,-0.40107,11.17268,8.08,0.71,-0.77,4.0
1758077937.59965,1758077936.81568,0.0,0.0,0.0,-13.06344,-2.11994,11.00079,8.08,0.71,-0.77,4.0
1758077937.61586,1758077936.82568,0.0,0.0,0.0,-12.89155,-3.60963,10.71431,7.96,0.51,-0.9,4.0
1758077937.61648,1758077936.83568,0.0,0.0,0.0,-12.37589,-5.90147,10.25595,7.96,0.51,-0.9,4.0
1758077937.6357,1758077936.84568,0.0,0.0,0.0,-11.51645,-11.00079,9.4538,7.59,0.28,-0.86,4.0
1758077937.79613,1758077936.85568,0.0,0.0,0.0,-10.94349,-15.41257,9.11003,7.59,0.28,-0.86,4.0
1758077937.79829,1758077936.86568,0.0,0.0,0.0,-10.31324,-19.53786,8.93814,7.1,0.16,-0.78,4.0
1758077937.8049,1758077936.87568,0.0,0.0,0.0,-9.5684,-23.26209,8.76626,7.1,0.16,-0.78,4.0
1758077937.8055,1758077936.88568,0.0,0.0,0.0,-8.70896,-28.36141,8.36518,6.66,0.11,-0.51,4.0
1758077937.80668,1758077936.89568,0.0,0.0,0.0,-7.96411,-32.6013,7.50575,6.92,-0.11,0.44,4.0
1758077937.80926,1758077936.90568,0.0,0.0,0.0,-7.39116,-39.19032,5.72958,6.92,-0.11,0.44,4.0
1758077937.81166,1758077936.91568,0.0,0.0,0.0,-6.8182,-45.26366,3.38045,8.39,-0.67,1.12,4.0
1758077937.8167,1758077936.92568,0.0,0.0,0.0,-6.47442,-45.77933,2.7502,8.39,-0.67,1.12,4.0
1758077937.8197,1758077936.93568,0.0,0.0,0.0,-6.53172,-44.28964,2.92208,10.85,-1.34,1.78,4.0
1758077937.82103,1758077936.94568,0.0,0.0,0.0,-6.7609,-39.53409,2.63561,10.85,-1.34,1.78,4.0
1758077937.82136,1758077936.95568,0.0,0.0,0.0,-4.46907,-29.50733,-3.20856,13.46,-2.04,3.67,4.0
1758077937.82573,1758077936.96568,0.0,0.0,0.0,-1.3751,-18.90761,-12.14671,22.22,-4.05,4.79,4.0
1758077937.82645,1758077936.97568,0.0,0.0,0.0,4.69825,-27.78845,-20.22541,22.22,-4.05,4.79,4.0
1758077937.83068,1758077936.98568,0.0,0.0,0.0,4.23989,-43.88857,-26.06958,24.97,-6.14,-1.6,4.0
1758077937.83538,1758077936.99568,0.0,0.0,0.0,-0.85944,-37.87251,-24.12152,24.97,-6.14,-1.6,4.0
1758077937.83687,1758077937.00568,0.0,0.0,0.0,1.77617,-23.60586,-13.46451,20.09,-2.9,-2.47,4.0
1758077937.84118,1758077937.01568,0.0,0.0,0.0,6.13065,-7.50575,-2.23454,20.09,-2.9,-2.47,4.0
1758077937.85123,1758077937.02568,0.0,0.0,0.0,10.08406,6.8182,7.10468,13.91,-0.11,0.48,4.0
1758077937.85597,1758077937.03568,0.0,0.0,0.0,13.00614,22.28806,14.03747,10.6,0.89,-0.21,4.0
1758077937.85972,1758077937.04568,0.0,0.0,0.0,12.37589,22.91831,13.69369,10.6,0.89,-0.21,4.0
1758077937.86112,1758077937.05568,0.0,0.0,0.0,10.19865,17.81899,11.97482,8.82,0.38,-0.18,4.0
1758077937.86605,1758077937.06568,0.0,0.0,0.0,7.04738,11.74564,9.96947,8.82,0.38,-0.18,4.0
1758077937.86662,1758077937.07568,0.0,0.0,0.0,5.27121,21.14215,8.42248,9.48,-1.02,0.56,4.0
1758077937.87099,1758077937.08568,0.0,0.0,0.0,6.07335,30.76784,8.65166,9.48,-1.02,0.56,4.0
1758077937.87601,1758077937.09567,0.0,0.0,0.0,7.33386,32.37212,9.68299,10.26,-1.8,0.56,4.0
1758077937.89628,1758077937.10567,0.0,0.0,0.0,9.96947,18.50654,11.86023,10.26,-1.8,0.56,4.0
1758077937.90156,1758077937.11567,0.0,0.0,0.0,12.77696,8.136,13.17803,7.89,-1.47,0.33,4.0
1758077937.90314,1758077937.12567,0.0,0.0,0.0,16.21471,0.40107,13.34992,7.68,-1.12,-0.14,4.0
1758077937.92092,1758077937.13567,0.0,0.0,0.0,19.48057,-4.98473,12.2613,7.68,-1.12,-0.14,4.0
1758077937.92296,1758077937.14567,0.0,0.0,0.0,24.12152,-8.65166,8.30789,8.13,-1.55,0.04,4.0
1758077937.94095,1758077937.15567,0.0,0.0,0.0,26.18417,-8.99544,4.35448,8.13,-1.55,0.04,4.0
1758077937.94289,1758077937.16567,0.0,0.0,0.0,27.44468,-8.59437,0.22918,8.69,-2.08,0.45,4.0
1758077937.95998,1758077937.17567,0.0,0.0,0.0,28.01764,-7.96411,-3.20856,8.69,-2.08,0.45,4.0
1758077937.97601,1758077937.18567,0.0,0.0,0.0,27.84575,-5.32851,-6.53172,9.02,-1.97,0.29,4.0
1758077937.97865,1758077937.19567,0.0,0.0,0.0,26.87172,-3.32316,-7.50575,9.12,-1.37,0.13,4.0
1758077937.99404,1758077937.20567,0.0,0.0,0.0,25.61122,-1.3178,-7.39116,9.12,-1.37,0.13,4.0
1758077937.99652,1758077937.21567,0.0,0.0,0.0,24.00693,1.66158,-7.21927,8.99,-0.76,-0.2,4.0
1758077938.01401,1758077937.22567,0.0,0.0,0.0,20.3973,10.19865,-7.62034,8.99,-0.76,-0.2,4.0
1758077938.01655,1758077937.23567,0.0,0.0,0.0,17.76169,12.43318,-6.87549,9.09,-0.27,-0.54,4.0
1758077938.15631,1758077937.24567,0.0,0.0,0.0,14.20935,10.37054,-7.44845,9.09,-0.27,-0.54,4.0
1758077938.1613,1758077937.25567,0.0,0.0,0.0,11.11538,5.95876,-7.96411,8.32,0.09,-0.71,4.0
1758077938.1662,1758077937.26567,0.0,0.0,0.0,9.05273,3.26586,-8.42248,8.61,0.01,-1.04,4.0
1758077938.1706,1758077937.27567,0.0,0.0,0.0,9.4538,3.32316,-7.67763,8.61,0.01,-1.04,4.0
1758077938.17099,1758077937.28567,0.0,0.0,0.0,11.63104,3.20856,-5.95876,9.09,-0.9,-0.79,4.0
1758077938.17215,1758077937.29567,0.0,0.0,0.0,15.69904,3.83882,-3.83882,9.09,-0.9,-0.79,4.0
1758077938.17307,1758077937.30567,0.0,0.0,0.0,18.90761,2.86479,-2.46372,9.28,-1.75,-0.85,4.0
1758077938.17433,1758077937.31567,0.0,0.0,0.0,21.94428,-0.11459,-1.60428,9.28,-1.75,-0.85,4.0
1758077938.17566,1758077937.32567,0.0,0.0,0.0,24.23611,-2.97938,-1.3178,9.12,-1.92,-1.15,4.0
1758077938.1762,1758077937.33567,0.0,0.0,0.0,25.7831,-4.92744,-1.66158,9.12,-1.92,-1.15,4.0
1758077938.17894,1758077937.34567,0.0,0.0,0.0,25.49662,-4.35448,-2.23454,9.21,-1.44,-1.2,4.0
1758077938.18148,1758077937.35567,0.0,0.0,0.0,24.35071,-3.66693,-2.86479,9.37,-0.77,-0.75,4.0
1758077938.18241,1758077937.36567,0.0,0.0,0.0,22.63183,-3.20856,-3.38045,9.37,-0.77,-0.75,4.0
1758077938.18435,1758077937.37567,0.0,0.0,0.0,19.53786,-3.26586,-3.89611,9.23,-0.3,-0.38,4.0
1758077938.18665,1758077937.38567,0.0,0.0,0.0,17.30333,-3.72423,-4.18259,9.23,-0.3,-0.38,4.0
1758077938.18922,1758077937.39567,0.0,0.0,0.0,15.0115,-4.23989,-4.81285,8.92,-0.02,-0.33,4.0
1758077938.19091,1758077937.40567,0.0,0.0,0.0,12.71966,-4.69825,-6.07335,8.92,-0.02,-0.33,4.0
1758077938.20614,1758077937.41567,0.0,0.0,0.0,9.28192,-4.87014,-8.88085,9.02,0.08,-0.49,4.0
1758077938.20892,1758077937.42567,0.0,0.0,0.0,7.10468,-4.52637,-10.8862,9.49,0.02,-0.64,4.0
1758077938.22493,1758077937.43567,0.0,0.0,0.0,4.92744,-3.95341,-13.00614,9.49,0.02,-0.64,4.0
1758077938.22616,1758077937.44567,0.0,0.0,0.0,2.92208,-2.57831,-14.72501,10.13,-0.18,-0.69,4.0
1758077938.24118,1758077937.45567,0.0,0.0,0.0,0.57296,-1.60428,-17.01685,10.13,-0.18,-0.69,4.0
1758077938.24552,1758077937.46567,0.0,0.0,0.0,-0.51566,-1.20321,-17.93358,10.47,-0.39,-0.73,4.0
1758077938.26101,1758077937.47567,0.0,0.0,0.0,-1.3178,-1.08862,-18.27736,10.47,-0.39,-0.73,4.0
1758077938.27086,1758077937.48567,0.0,0.0,0.0,-1.77617,-1.66158,-18.44924,10.35,-0.56,-0.68,4.0
1758077938.3193,1758077937.49567,0.0,0.0,0.0,-2.00535,-0.80214,-17.76169,10.1,-0.64,-0.73,4.0
1758077938.32061,1758077937.50567,0.0,0.0,0.0,-1.77617,0.11459,-17.24603,10.1,-0.64,-0.73,4.0
1758077938.32112,1758077937.51567,0.0,0.0,0.0,-1.66158,0.57296,-16.272,9.74,-0.66,-0.63,4.0
1758077938.32631,1758077937.52567,0.0,0.0,0.0,-1.3751,1.20321,-15.06879,9.74,-0.66,-0.63,4.0
1758077938.32819,1758077937.53567,0.0,0.0,0.0,-0.80214,1.71887,-14.66772,9.32,-0.65,-0.44,4.0
1758077938.33084,1758077937.54567,0.0,0.0,0.0,-0.11459,2.46372,-14.20935,9.32,-0.65,-0.44,4.0
1758077938.34595,1758077937.55567,0.0,0.0,0.0,0.51566,3.55234,-14.15206,9.03,-0.73,-0.34,4.0
1758077938.34719,1758077937.56567,0.0,0.0,0.0,1.60428,4.98473,-14.9542,9.03,-0.73,-0.52,4.0
1758077938.3662,1758077937.57567,0.0,0.0,0.0,1.77617,5.90147,-15.46986,8.99,-0.87,-0.52,4.0
1758077938.39622,1758077937.58567,0.0,0.0,0.0,1.60428,4.87014,-16.38659,8.87,-0.84,-0.65,4.0
1758077938.39652,1758077937.59567,0.0,0.0,0.0,1.08862,3.26586,-17.24603,8.87,-0.84,-0.65,4.0
1758077938.39863,1758077937.60567,0.0,0.0,0.0,0.0573,1.48969,-17.81899,8.68,-0.69,-0.5,4.0
1758077938.39916,1758077937.61567,0.0,0.0,0.0,-0.51566,0.34377,-17.6471,8.68,-0.69,-0.5,4.0
1758077938.41618,1758077937.62567,0.0,0.0,0.0,-0.85944,-1.3751,-17.36062,8.36,-0.59,-0.39,4.0
1758077938.417,1758077937.63567,0.0,0.0,0.0,-0.80214,-3.66693,-16.67307,8.36,-0.59,-0.39,4.0
1758077938.43308,1758077937.64567,0.0,0.0,0.0,-0.51566,-10.25595,-15.98552,7.81,-0.6,-0.26,4.0
1758077938.4364,1758077937.65567,0.0,0.0,0.0,-0.34377,-12.89155,-15.92823,7.34,-0.7,-0.39,4.0
1758077938.47622,1758077937.66567,0.0,0.0,0.0,0.17189,-13.69369,-15.98552,7.34,-0.7,-0.39,4.0
1758077938.48108,1758077937.67567,0.0,0.0,0.0,0.68755,-13.40721,-15.92823,7.24,-0.83,-0.6,4.0
1758077938.48605,1758077937.68567,0.0,0.0,0.0,1.03132,-13.69369,-15.87093,7.24,-0.83,-0.6,4.0
1758077938.48805,1758077937.69567,0.0,0.0,0.0,0.74485,-14.61043,-15.58445,6.57,-0.87,-0.79,4.0
1758077938.48842,1758077937.70567,0.0,0.0,0.0,0.0,-16.21471,-15.06879,6.57,-0.87,-0.79,4.0
1758077938.50634,1758077937.71567,0.0,0.0,0.0,-1.3178,-18.22006,-14.03747,5.91,-0.66,-0.55,4.0
1758077938.50881,1758077937.72567,0.0,0.0,0.0,-2.29183,-22.28806,-12.83425,6.07,-0.27,0.28,4.0
1758077938.52594,1758077937.73567,0.0,0.0,0.0,-3.26586,-25.72581,-11.11538,6.07,-0.27,0.28,4.0
1758077938.528,1758077937.74567,0.0,0.0,0.0,-3.95341,-27.04361,-8.88085,8.0,0.41,1.39,4.0
1758077938.54538,1758077937.75567,0.0,0.0,0.0,-6.07335,-22.40265,-5.09932,8.0,0.41,1.39,4.0
1758077938.5463,1758077937.76567,0.0,0.0,0.0,-8.42248,-16.10011,-2.23454,11.73,1.44,2.25,4.0
1758077938.56137,1758077937.77567,0.0,0.0,0.0,-10.94349,-8.25059,0.11459,11.73,1.44,2.25,4.0
1758077938.56514,1758077937.78567,0.0,0.0,0.0,-14.09476,2.7502,1.3751,13.94,2.47,1.39,4.0
1758077938.5801,1758077937.79567,0.0,0.0,0.0,-21.14215,27.44468,3.03668,17.13,2.47,3.17,4.0
1758077938.59638,1758077937.80567,0.0,0.0,0.0,-28.87707,48.9879,7.67763,17.13,3.37,3.17,4.0
1758077938.59979,1758077937.81567,0.0,0.0,0.0,-39.4768,53.17049,12.54778,24.56,5.84,2.14,4.0
1758077938.61518,1758077937.82567,0.0,0.0,0.0,-42.22699,6.18794,23.0902,24.56,5.84,2.14,4.0
1758077938.61669,1758077937.83567,0.0,0.0,0.0,-47.49821,-53.05589,15.75634,16.89,5.03,-0.75,4.0
1758077938.63123,1758077937.84567,0.0,0.0,0.0,-48.01387,-9.5684,13.98017,16.89,5.03,-0.75,4.0
1758077938.63237,1758077937.85567,0.0,0.0,0.0,-48.70141,42.28429,6.7609,19.52,-0.41,-1.61,4.0
1758077938.64845,1758077937.86567,0.0,0.0,0.0,-49.21708,56.26446,-1.43239,19.52,-0.41,-1.61,4.0
1758077938.66608,1758077937.87567,0.0,0.0,0.0,-43.25832,26.87172,-10.59972,11.44,-1.36,1.61,4.0
1758077938.66777,1758077937.88567,0.0,0.0,0.0,-35.00772,21.94428,-14.09476,9.39,-0.9,-1.26,4.0
1758077938.68574,1758077937.89567,0.0,0.0,0.0,-24.00693,12.37589,-12.204,9.39,-0.9,-1.26,4.0
1758077938.71606,1758077937.90567,0.0,0.0,0.0,-13.06344,2.63561,-11.80293,10.25,-1.1,-1.24,4.0
1758077938.71861,1758077937.91567,0.0,0.0,0.0,-1.66158,17.76169,-9.4538,10.25,-1.1,-1.24,4.0
1758077938.72034,1758077937.92567,0.0,0.0,0.0,0.57296,45.72203,-10.37054,14.36,-0.45,1.32,4.0
1758077938.721,1758077937.93567,0.0,0.0,0.0,0.17189,52.48294,-12.37589,14.36,-0.45,1.32,4.0
1758077938.72493,1758077937.94567,0.0,0.0,0.0,0.68755,32.6013,-11.74564,12.99,0.33,1.52,4.0
1758077938.74047,1758077937.95567,0.0,0.0,0.0,1.60428,22.05888,-10.25595,9.33,0.94,0.11,4.0
1758077938.75626,1758077937.96567,0.0,0.0,0.0,2.11994,17.87628,-7.16197,9.33,0.94,0.11,4.0
1758077938.75899,1758077937.97567,0.0,0.0,0.0,2.29183,14.03747,-3.89611,8.96,0.86,0.1,4.0
1758077938.77453,1758077937.98567,0.0,0.0,0.0,0.80214,11.57375,-0.22918,8.96,0.86,0.1,4.0
1758077938.77546,1758077937.99567,0.0,0.0,0.0,1.3178,13.46451,2.29183,8.87,0.99,0.55,4.0
1758077938.79064,1758077938.00567,0.0,0.0,0.0,1.94806,19.59516,4.92744,8.87,0.99,0.55,4.0
1758077938.79543,1758077938.01567,0.0,0.0,0.0,2.29183,25.09555,7.04738,9.21,1.06,0.63,4.0
1758077938.81126,1758077938.02567,0.0,0.0,0.0,2.29183,28.36141,8.70896,8.68,1.02,0.78,4.0
1758077938.81642,1758077938.03567,0.0,0.0,0.0,1.77617,26.52795,9.28192,8.68,1.02,0.78,4.0
1758077938.83131,1758077938.04567,0.0,0.0,0.0,0.85944,23.94964,8.93814,8.16,1.07,0.46,4.0
1758077938.83324,1758077938.05567,0.0,0.0,0.0,-0.0573,20.97026,8.42248,8.16,1.07,0.46,4.0
1758077938.85039,1758077938.06567,0.0,0.0,0.0,-1.60428,17.36062,7.62034,8.32,1.16,0.32,4.0
1758077938.86661,1758077938.07567,0.0,0.0,0.0,-2.63561,14.43854,7.21927,8.32,1.16,0.32,4.0
1758077938.87067,1758077938.08567,0.0,0.0,0.0,-3.49504,11.57375,7.21927,8.53,1.36,0.36,4.0
1758077938.88656,1758077938.09567,0.0,0.0,0.0,-4.0107,8.42248,7.10468,8.53,1.36,0.36,4.0
1758077938.89022,1758077938.10567,0.0,0.0,0.0,-4.98473,3.89611,6.87549,8.5,1.47,0.39,4.0
1758077938.90559,1758077938.11567,0.0,0.0,0.0,-5.84417,0.57296,6.70361,8.22,1.42,0.3,4.0
1758077938.90656,1758077938.12567,0.0,0.0,0.0,-6.41713,-2.40642,6.53172,8.22,1.42,0.3,4.0
1758077938.92145,1758077938.13567,0.0,0.0,0.0,-7.10468,-4.81285,5.90147,7.97,1.29,0.24,4.0
1758077938.92572,1758077938.14567,0.0,0.0,0.0,-7.62034,-7.16197,5.61499,7.97,1.29,0.24,4.0
1758077938.94166,1758077938.15567,0.0,0.0,0.0,-7.79223,-8.30789,5.15662,7.94,1.12,0.14,4.0
1758077938.94533,1758077938.16567,0.0,0.0,0.0,-7.79223,-9.11003,4.98473,7.94,1.12,0.14,4.0
1758077938.96147,1758077938.17567,0.0,0.0,0.0,-7.67763,-10.71431,4.98473,8.06,0.98,0.1,4.0
1758077938.96239,1758077938.18567,0.0,0.0,0.0,-7.50575,-11.74564,5.09932,8.25,0.86,0.05,4.0
1758077938.98039,1758077938.19567,0.0,0.0,0.0,-7.04738,-12.204,5.4431,8.25,0.86,0.05,4.0
1758077938.9967,1758077938.20567,0.0,0.0,0.0,-6.35983,-11.91752,5.95876,8.7,0.67,0.18,4.0
1758077938.99873,1758077938.21567,0.0,0.0,0.0,-4.69825,-9.11003,6.8182,8.7,0.67,0.18,4.0
1758077939.01345,1758077938.22567,0.0,0.0,0.0,-3.20856,-6.47442,7.79223,9.26,0.35,0.38,4.0
1758077939.01467,1758077938.23567,0.0,0.0,0.0,-1.60428,-4.1253,8.59437,9.26,0.35,0.38,4.0
1758077939.02972,1758077938.24567,0.0,0.0,0.0,0.0573,-1.48969,9.39651,9.58,0.0,0.42,4.0
1758077939.04575,1758077938.25567,0.0,0.0,0.0,1.83346,0.0,10.48513,9.77,-0.06,0.18,4.0
1758077939.04665,1758077938.26567,0.0,0.0,0.0,2.97938,-1.20321,11.74564,9.77,-0.06,0.18,4.0
1758077939.06152,1758077938.27567,0.0,0.0,0.0,3.72423,-3.49504,12.60507,9.72,0.11,-0.05,4.0
1758077939.06615,1758077938.28567,0.0,0.0,0.0,4.35448,-5.15662,13.5791,9.72,0.11,-0.05,4.0
1758077939.08533,1758077938.29567,0.0,0.0,0.0,4.18259,-7.10468,14.66772,9.91,0.45,-0.06,4.0
1758077939.08625,1758077938.30567,0.0,0.0,0.0,3.60963,-7.50575,14.78231,9.91,0.45,-0.06,4.0
1758077939.10572,1758077938.31567,0.0,0.0,0.0,2.92208,-6.24524,14.72501,10.01,0.7,0.05,4.0
1758077939.11015,1758077938.32567,0.0,0.0,0.0,2.29183,-2.92208,14.03747,10.01,0.7,0.05,4.0
1758077939.12569,1758077938.33567,0.0,0.0,0.0,1.3178,0.97403,13.69369,10.22,0.84,0.15,4.0
1758077939.17032,1758077938.34567,0.0,0.0,0.0,0.85944,0.45837,12.89155,9.73,0.83,0.39,4.0
1758077939.17078,1758077938.35567,0.0,0.0,0.0,0.34377,-1.48969,12.43318,9.73,0.83,0.39,4.0
1758077939.17258,1758077938.36567,0.0,0.0,0.0,-0.57296,-2.34913,11.86023,9.38,0.79,0.37,4.0
1758077939.17324,1758077938.37567,0.0,0.0,0.0,-1.43239,-1.14592,11.22997,9.38,0.79,0.37,4.0
1758077939.1746,1758077938.38567,0.0,0.0,0.0,-2.46372,-0.34377,10.65701,9.54,0.78,0.33,4.0
1758077939.17622,1758077938.39567,0.0,0.0,0.0,-3.09397,-0.51566,10.31324,9.54,0.78,0.33,4.0
1758077939.19533,1758077938.40567,0.0,0.0,0.0,-3.95341,0.0573,10.02676,9.26,0.83,0.34,4.0
1758077939.20005,1758077938.41567,0.0,0.0,0.0,-4.29718,0.97403,10.31324,9.18,0.8,0.18,4.0
1758077939.21531,1758077938.42567,0.0,0.0,0.0,-4.29718,2.46372,10.71431,9.18,0.8,0.18,4.0
1758077939.21659,1758077938.43567,0.0,0.0,0.0,-3.89611,3.49504,11.22997,9.05,0.67,-0.05,4.0
1758077939.23262,1758077938.44567,0.0,0.0,0.0,-2.92208,3.89611,12.08941,9.05,0.67,-0.05,4.0
1758077939.23382,1758077938.45567,0.0,0.0,0.0,-1.94806,3.95341,12.60507,8.8,0.49,-0.24,4.0
1758077939.2486,1758077938.46567,0.0,0.0,0.0,-0.57296,4.64096,12.89155,8.8,0.49,-0.24,4.0
1758077939.26589,1758077938.47567,0.0,0.0,0.0,0.85944,5.09932,13.06344,8.74,0.32,-0.51,4.0
1758077939.27094,1758077938.48567,0.0,0.0,0.0,3.03668,5.21392,12.43318,8.57,0.2,-0.53,4.0
1758077939.28569,1758077938.49567,0.0,0.0,0.0,4.64096,3.83882,11.86023,8.57,0.2,-0.53,4.0
1758077939.29355,1758077938.50567,0.0,0.0,0.0,6.24524,1.3178,11.45916,8.12,0.16,-0.46,4.0
1758077939.2989,1758077938.51567,0.0,0.0,0.0,7.50575,-1.60428,11.22997,8.12,0.16,-0.46,4.0
1758077939.31592,1758077938.52567,0.0,0.0,0.0,8.42248,-6.41713,11.17268,7.79,0.3,-0.54,4.0
1758077939.32035,1758077938.53567,0.0,0.0,0.0,8.36518,-9.39651,11.45916,7.79,0.3,-0.54,4.0
1758077939.33567,1758077938.54567,0.0,0.0,0.0,8.0787,-12.49048,11.86023,7.4,0.53,-0.75,4.0
1758077939.33929,1758077938.55567,0.0,0.0,0.0,7.50575,-14.9542,12.71966,7.4,0.53,-0.75,4.0
1758077939.35468,1758077938.56567,0.0,0.0,0.0,6.99009,-15.98552,13.34992,6.98,0.73,-0.87,4.0
1758077939.35632,1758077938.57567,0.0,0.0,0.0,6.41713,-18.22006,13.5218,6.7,0.64,-0.31,4.0
1758077939.37092,1758077938.58567,0.0,0.0,0.0,5.95876,-23.66316,13.17803,6.7,0.64,-0.31,4.0
1758077939.37266,1758077938.59567,0.0,0.0,0.0,5.09932,-33.23156,8.99544,7.69,0.14,1.06,4.0
1758077939.39058,1758077938.60567,0.0,0.0,0.0,4.52637,-38.21629,5.21392,7.69,0.14,1.06,4.0
1758077939.42002,1758077938.61567,0.0,0.0,0.0,4.35448,-39.82057,1.14592,11.47,-0.65,2.24,4.0
1758077939.42139,1758077938.62567,0.0,0.0,0.0,4.58366,-35.98175,-3.32316,11.47,-0.65,2.24,4.0
1758077939.42172,1758077938.63567,0.0,0.0,0.0,5.90147,-23.37668,-5.09932,15.83,-2.0,2.73,4.0
1758077939.4263,1758077938.64567,0.0,0.0,0.0,6.13065,-18.56383,-3.89611,16.76,-3.37,2.27,4.0
1758077939.44195,1758077938.65567,0.0,0.0,0.0,7.04738,-16.3293,-0.11459,16.76,-3.37,2.27,4.0
1758077939.44609,1758077938.66567,0.0,0.0,0.0,4.18259,-17.58981,3.26586,16.28,-3.61,1.76,4.0
1758077939.46193,1758077938.67567,0.0,0.0,0.0,9.39651,-58.72818,3.32316,16.28,-3.61,1.76,4.0
1758077939.46603,1758077938.68567,0.0,0.0,0.0,13.17803,-1.94806,1.3751,18.78,-3.4,0.7,4.0
1758077939.48199,1758077938.69567,0.0,0.0,0.0,15.75634,-1.3751,-1.14592,18.78,-3.4,0.7,4.0
1758077939.48525,1758077938.70567,0.0,0.0,0.0,17.47521,0.51566,-1.66158,18.38,-2.93,-0.21,4.0
1758077939.50102,1758077938.71567,0.0,0.0,0.0,20.45459,9.5684,3.49504,15.08,-1.26,0.05,4.0
1758077939.51862,1758077938.72567,0.0,0.0,0.0,22.05888,18.10547,7.79223,15.08,-1.26,0.05,4.0
1758077939.52115,1758077938.73567,0.0,0.0,0.0,22.86102,22.63183,11.17268,12.31,-0.43,0.83,4.0
1758077939.589,1758077938.74567,0.0,0.0,0.0,22.51724,23.0902,13.5791,12.31,-0.43,0.83,4.0
1758077939.59159,1758077938.75567,0.0,0.0,0.0,21.60051,22.11617,13.86558,10.27,-0.26,0.98,4.0
1758077939.59215,1758077938.76567,0.0,0.0,0.0,20.79837,20.16812,13.00614,10.27,-0.26,0.98,4.0
1758077939.5942,1758077938.77567,0.0,0.0,0.0,20.79837,23.0329,12.204,9.22,-0.51,0.51,4.0
1758077939.5959,1758077938.78567,0.0,0.0,0.0,21.08485,34.72124,11.11538,9.22,-0.51,0.51,4.0
1758077939.59877,1758077938.79567,0.0,0.0,0.0,21.31403,35.98175,10.08406,9.23,-0.96,0.95,4.0
1758077939.59915,1758077938.80567,0.0,0.0,0.0,20.97026,29.33544,8.47978,7.41,-1.06,1.42,4.0
1758077939.60103,1758077938.81567,0.0,0.0,0.0,20.3973,20.74107,7.04738,7.41,-1.06,1.42,4.0
1758077939.61614,1758077938.82567,0.0,0.0,0.0,19.48057,10.48513,5.27121,7.07,-0.78,0.94,4.0
1758077939.61728,1758077938.83567,0.0,0.0,0.0,18.90761,4.98473,3.72423,7.07,-0.78,0.94,4.0
1758077939.63413,1758077938.84567,0.0,0.0,0.0,17.99088,1.08862,2.29183,7.72,-0.62,0.63,4.0
1758077939.6353,1758077938.85567,0.0,0.0,0.0,16.95955,-1.83346,0.68755,7.72,-0.62,0.63,4.0
1758077939.65061,1758077938.86567,0.0,0.0,0.0,15.0115,-4.1253,-2.29183,8.54,-0.64,1.04,4.0
1758077939.66796,1758077938.87567,0.0,0.0,0.0,13.5791,-4.98473,-3.83882,9.32,-0.8,1.16,4.0
1758077939.67041,1758077938.88567,0.0,0.0,0.0,12.49048,-4.35448,-4.92744,9.32,-0.8,1.16,4.0
1758077939.68591,1758077938.89567,0.0,0.0,0.0,11.45916,-1.94806,-5.32851,9.93,-1.01,1.11,4.0
1758077939.68906,1758077938.90567,0.0,0.0,0.0,10.37054,3.49504,-4.52637,9.93,-1.01,1.11,4.0
1758077939.70516,1758077938.91567,0.0,0.0,0.0,10.02676,5.32851,-3.38045,10.06,-1.11,0.78,4.0
1758077939.71096,1758077938.92567,0.0,0.0,0.0,9.5684,8.136,-2.34913,10.06,-1.11,0.78,4.0
1758077939.73062,1758077938.93567,0.0,0.0,0.0,8.93814,11.91752,-1.77617,9.75,-1.05,0.35,4.0
1758077939.80651,1758077938.94567,0.0,0.0,0.0,8.0787,21.6578,-1.66158,9.65,-0.9,0.0,4.0
1758077939.80787,1758077938.95567,0.0,0.0,0.0,7.33386,21.37133,-2.46372,9.65,-0.9,0.0,4.0
1758077939.81052,1758077938.96567,0.0,0.0,0.0,6.58902,15.24068,-3.95341,8.44,-0.73,0.1,4.0
1758077939.81112,1758077938.97567,0.0,0.0,0.0,6.8182,9.85487,-6.58902,8.44,-0.73,0.1,4.0
1758077939.81229,1758077938.98567,0.0,0.0,0.0,8.25059,10.08406,-7.84952,9.18,-0.86,-0.5,4.0
1758077939.81479,1758077938.99567,0.0,0.0,0.0,10.37054,9.91217,-8.42248,9.18,-0.86,-0.5,4.0
1758077939.81529,1758077939.00567,0.0,0.0,0.0,13.12073,7.84952,-8.65166,9.65,-1.35,-0.3,4.0
1758077939.82122,1758077939.01567,0.0,0.0,0.0,16.84496,3.66693,-7.67763,9.65,-1.35,-0.3,4.0
1758077939.82559,1758077939.02567,0.0,0.0,0.0,18.79302,-0.45837,-6.47442,9.53,-1.74,0.11,4.0
1758077939.82625,1758077939.03567,0.0,0.0,0.0,19.42327,-4.64096,-5.27121,9.4,-1.65,0.06,4.0
1758077939.82835,1758077939.04567,0.0,0.0,0.0,19.48057,-7.84952,-4.0107,9.4,-1.65,0.06,4.0
1758077939.84088,1758077939.05567,0.0,0.0,0.0,18.73572,-12.14671,-2.63561,9.12,-1.18,-0.06,4.0
1758077939.9111,1758077939.06567,0.0,0.0,0.0,17.53251,-14.49583,-2.00535,9.12,-1.18,-0.06,4.0
1758077939.92053,1758077939.07567,0.0,0.0,0.0,16.3293,-16.21471,-1.71887,8.6,-0.76,0.18,4.0
1758077939.92573,1758077939.08567,0.0,0.0,0.0,14.9542,-17.47521,-1.94806,8.6,-0.76,0.18,4.0
1758077939.93091,1758077939.09567,0.0,0.0,0.0,13.06344,-18.33465,-2.7502,8.43,-0.41,0.32,4.0
1758077939.9326,1758077939.10567,0.0,0.0,0.0,11.74564,-18.62113,-3.60963,8.71,-0.21,0.51,4.0
1758077939.9391,1758077939.11567,0.0,0.0,0.0,10.48513,-18.44924,-4.81285,8.71,-0.21,0.51,4.0
1758077939.94083,1758077939.12567,0.0,0.0,0.0,9.11003,-17.87628,-5.90147,9.06,-0.13,0.43,4.0
1758077939.94321,1758077939.13567,0.0,0.0,0.0,7.10468,-16.38659,-7.39116,9.06,-0.13,0.43,4.0
1758077939.94632,1758077939.14567,0.0,0.0,0.0,5.55769,-15.24068,-8.36518,9.18,-0.14,0.24,4.0
1758077939.94716,1758077939.15567,0.0,0.0,0.0,4.1253,-13.86558,-9.33921,9.18,-0.14,0.24,4.0
1758077939.94983,1758077939.16567,0.0,0.0,0.0,2.57831,-12.204,-10.59972,9.46,-0.21,0.02,4.0
1758077939.96602,1758077939.17567,0.0,0.0,0.0,0.40107,-9.5684,-11.45916,9.81,-0.32,-0.11,4.0
1758077939.96899,1758077939.18567,0.0,0.0,0.0,-0.85944,-8.0787,-12.08941,9.81,-0.32,-0.11,4.0
1758077939.98609,1758077939.19567,0.0,0.0,0.0,-1.94806,-6.8182,-12.60507,9.88,-0.47,-0.12,4.0
1758077940.0504,1758077939.20567,0.0,0.0,0.0,-3.49504,-4.98473,-12.71966,9.88,-0.47,-0.12,4.0
1758077940.05087,1758077939.21567,0.0,0.0,0.0,-4.35448,-4.81285,-13.12073,9.82,-0.56,-0.12,4.0
1758077940.13004,1758077939.22567,0.0,0.0,0.0,-4.69825,-4.87014,-13.00614,9.82,-0.56,-0.12,4.0
1758077940.13055,1758077939.23567,0.0,0.0,0.0,-5.09932,-4.29718,-12.77696,9.77,-0.61,-0.23,4.0
1758077940.13343,1758077939.24567,0.0,0.0,0.0,-5.21392,-1.83346,-12.89155,9.77,-0.61,-0.28,4.0
1758077940.13409,1758077939.25567,0.0,0.0,0.0,-5.32851,-0.74485,-13.23533,9.95,-0.66,-0.28,4.0
1758077940.13532,1758077939.26567,0.0,0.0,0.0,-5.50039,-0.22918,-13.5791,9.83,-0.65,-0.28,4.0
1758077940.13594,1758077939.27567,0.0,0.0,0.0,-5.55769,-0.68755,-13.98017,9.83,-0.65,-0.28,4.0
1758077940.13908,1758077939.28567,0.0,0.0,0.0,-5.61499,-0.74485,-14.61043,9.71,-0.62,-0.32,4.0
1758077940.22058,1758077939.29567,0.0,0.0,0.0,-5.78687,-0.97403,-14.78231,9.71,-0.62,-0.32,4.0
1758077940.22095,1758077939.30567,0.0,0.0,0.0,-5.78687,-1.43239,-15.0115,9.66,-0.6,-0.4,4.0
1758077940.22221,1758077939.31567,0.0,0.0,0.0,-5.78687,-2.29183,-15.0115,9.66,-0.6,-0.4,4.0
1758077940.22658,1758077939.32567,0.0,0.0,0.0,-5.90147,-3.20856,-14.78231,9.27,-0.56,-0.31,4.0
1758077940.2283,1758077939.33567,0.0,0.0,0.0,-5.95876,-3.60963,-14.49583,8.81,-0.53,-0.19,4.0
1758077940.2287,1758077939.34567,0.0,0.0,0.0,-5.95876,-4.1253,-14.15206,8.81,-0.53,-0.19,4.0
1758077940.23068,1758077939.35567,0.0,0.0,0.0,-5.84417,-4.35448,-14.09476,8.36,-0.57,-0.19,4.0
1758077940.23175,1758077939.36567,0.0,0.0,0.0,-5.72958,-4.87014,-13.46451,8.36,-0.57,-0.19,4.0
1758077940.23658,1758077939.37567,0.0,0.0,0.0,-5.90147,-4.64096,-13.40721,7.96,-0.57,-0.2,4.0
1758077940.23768,1758077939.38567,0.0,0.0,0.0,-6.24524,-4.81285,-13.00614,7.96,-0.57,-0.2,4.0
1758077940.2392,1758077939.39567,0.0,0.0,0.0,-7.73493,-5.32851,-12.43318,7.59,-0.5,-0.21,4.0
1758077940.23986,1758077939.40567,0.0,0.0,0.0,-8.70896,-6.07335,-12.14671,7.28,-0.39,-0.2,4.0
1758077940.24107,1758077939.41567,0.0,0.0,0.0,-10.31324,-6.13065,-11.80293,7.28,-0.39,-0.2,4.0
1758077940.24171,1758077939.42567,0.0,0.0,0.0,-12.08941,-6.99009,-11.00079,7.07,-0.31,0.0,4.0
1758077940.24246,1758077939.43567,0.0,0.0,0.0,-14.72501,-9.05273,-10.19865,7.07,-0.31,0.0,4.0
1758077940.24694,1758077939.44567,0.0,0.0,0.0,-16.55848,-11.34457,-9.22462,6.67,-0.18,0.03,4.0
1758077940.24753,1758077939.45567,0.0,0.0,0.0,-17.99088,-13.98017,-8.76626,6.67,-0.18,0.03,4.0
1758077940.24939,1758077939.46567,0.0,0.0,0.0,-19.25138,-17.30333,-8.25059,6.1,-0.13,0.11,4.0
1758077940.26543,1758077939.47567,0.0,0.0,0.0,-21.14215,-21.60051,-7.73493,5.84,-0.12,0.57,4.0
1758077940.30927,1758077939.48567,0.0,0.0,0.0,-22.23076,-23.66316,-6.7609,5.84,-0.12,0.57,4.0
1758077940.31073,1758077939.49567,0.0,0.0,0.0,-23.0902,-26.47065,-4.69825,7.11,-0.02,1.68,4.0
1758077940.31236,1758077939.50567,0.0,0.0,0.0,-24.4653,-26.81443,-2.6929,7.11,-0.02,1.68,4.0
1758077940.31323,1758077939.51567,0.0,0.0,0.0,-27.1582,-20.34,-1.3178,10.38,0.41,2.76,4.0
1758077940.31588,1758077939.52567,0.0,0.0,0.0,-28.59059,-10.8862,0.17189,10.38,0.41,2.76,4.0
1758077940.31648,1758077939.53567,0.0,0.0,0.0,-29.73651,3.49504,2.40642,13.74,1.19,3.01,4.0
1758077940.35985,1758077939.54567,0.0,0.0,0.0,-31.79916,24.29341,4.98473,13.74,1.19,3.01,4.0
1758077940.36605,1758077939.55567,0.0,0.0,0.0,-39.70598,60.73353,12.08941,17.07,2.25,2.83,4.0
1758077940.36638,1758077939.56567,0.0,0.0,0.0,-50.53488,59.75951,16.272,23.24,4.66,4.08,4.0
1758077940.37238,1758077939.57567,0.0,0.0,0.0,-53.11319,6.70361,29.22085,23.24,4.66,4.08,4.0
1758077940.373,1758077939.58567,0.0,0.0,0.0,-54.88936,-49.90463,30.48136,16.1,5.41,-1.62,4.0
1758077940.37506,1758077939.59567,0.0,0.0,0.0,-59.41573,6.41713,28.76248,16.1,5.41,-1.62,4.0
1758077940.39059,1758077939.60567,0.0,0.0,0.0,-59.18654,60.04598,22.74642,18.92,0.77,-3.34,4.0
1758077940.39262,1758077939.61567,0.0,0.0,0.0,-60.44705,70.87489,9.33921,18.92,0.77,-3.34,4.0
1758077940.416,1758077939.62567,0.0,0.0,0.0,-56.14987,29.50733,-9.05273,9.31,-1.36,2.84,4.0
1758077940.41854,1758077939.63567,0.0,0.0,0.0,-49.04519,27.10091,-17.18874,10.07,-1.39,1.56,4.0
