timeStamp,timeStampAlign,roll,pitch,yaw,gyro_x,gyro_y,gyro_z,acc_x,acc_y,acc_z,flag_num
1758088969.64941,1758088969.62653,0.0,0.0,0.0,-18.79302,31.91375,-10.59972,14.27,1.71,2.56,3.0
1758088969.65062,1758088969.63653,0.0,0.0,0.0,-19.70975,35.69527,-6.07335,14.27,1.71,2.56,3.0
1758088969.66545,1758088969.64653,0.0,0.0,0.0,-20.16812,36.15364,-1.20321,14.05,2.13,3.06,3.0
1758088969.66659,1758088969.65653,0.0,0.0,0.0,-20.16812,32.14294,2.6929,14.05,2.13,3.06,3.0
1758088969.68164,1758088969.66653,0.0,0.0,0.0,-18.33465,22.63183,7.39116,13.36,1.95,3.45,3.0
1758088969.69769,1758088969.67653,0.0,0.0,0.0,-17.13144,16.95955,8.88085,12.59,1.4,3.52,3.0
1758088969.69863,1758088969.68653,0.0,0.0,0.0,-16.272,10.8289,9.68299,12.59,1.4,3.52,3.0
1758088969.7134,1758088969.69653,0.0,0.0,0.0,-15.87093,-4.87014,9.68299,10.68,0.92,3.68,3.0
1758088969.71542,1758088969.70653,0.0,0.0,0.0,-16.21471,-19.13679,8.65166,10.68,0.92,3.68,3.0
1758088969.7314,1758088969.71653,0.0,0.0,0.0,-16.90226,-33.9764,7.21927,8.19,0.69,3.86,3.0
1758088969.74778,1758088969.72653,0.0,0.0,0.0,-17.6471,-47.72739,5.21392,8.19,0.69,3.86,3.0
1758088969.74865,1758088969.73653,0.0,0.0,0.0,-18.79302,-64.51505,1.83346,7.06,0.56,3.75,3.0
1758088969.76363,1758088969.74653,0.0,0.0,0.0,-19.42327,-74.02615,-0.40107,6.86,0.43,3.37,3.0
1758088969.77948,1758088969.75653,0.0,0.0,0.0,-19.53786,-80.78706,-2.57831,6.86,0.43,3.37,3.0
1758088969.78065,1758088969.76653,0.0,0.0,0.0,-19.76705,-84.79775,-4.35448,7.47,0.23,2.88,3.0
1758088969.79573,1758088969.77653,0.0,0.0,0.0,-20.16812,-83.13618,-6.58902,7.47,0.23,2.88,3.0
1758088969.79667,1758088969.78653,0.0,0.0,0.0,-20.79837,-80.1568,-7.84952,8.31,0.07,2.16,3.0
1758088969.81235,1758088969.79653,0.0,0.0,0.0,-21.60051,-76.83365,-8.42248,8.31,0.07,2.16,3.0
1758088969.82847,1758088969.80653,0.0,0.0,0.0,-22.51724,-72.42187,-8.99544,8.33,0.02,1.63,3.0
1758088969.82969,1758088969.81653,0.0,0.0,0.0,-23.60586,-63.19725,-8.76626,8.29,-0.03,1.29,3.0
1758088969.8444,1758088969.82653,0.0,0.0,0.0,-24.12152,-56.89471,-7.96411,8.29,-0.03,1.29,3.0
1758088969.84566,1758088969.83653,0.0,0.0,0.0,-24.12152,-50.53488,-6.47442,8.16,-0.1,1.17,3.0
1758088969.86181,1758088969.84653,0.0,0.0,0.0,-23.83505,-43.77398,-4.29718,8.16,-0.1,1.17,3.0
1758088969.87832,1758088969.85653,0.0,0.0,0.0,-22.63183,-31.91375,0.11459,8.26,-0.19,1.09,3.0
1758088969.87983,1758088969.86653,0.0,0.0,0.0,-21.42862,-23.49127,3.66693,8.26,-0.19,1.09,3.0
1758088969.89451,1758088969.87653,0.0,0.0,0.0,-20.34,-14.43854,7.33386,8.66,-0.21,0.88,3.0
1758088969.89578,1758088969.88653,0.0,0.0,0.0,-19.07949,-5.55769,12.77696,8.66,-0.21,0.88,3.0
1758088969.91237,1758088969.89653,0.0,0.0,0.0,-18.50654,6.47442,15.75634,9.04,-0.06,0.66,3.0
1758088969.92882,1758088969.90653,0.0,0.0,0.0,-18.50654,14.03747,17.93358,9.24,0.18,0.58,3.0
1758088969.92971,1758088969.91653,0.0,0.0,0.0,-19.07949,20.62648,18.79302,9.24,0.18,0.58,3.0
1758088969.94482,1758088969.92653,0.0,0.0,0.0,-21.02755,29.27814,18.50654,9.35,0.43,0.51,3.0
1758088969.94576,1758088969.93653,0.0,0.0,0.0,-24.17882,30.02299,17.47521,9.35,0.43,0.51,3.0
1758088969.96183,1758088969.94653,0.0,0.0,0.0,-27.1582,33.34615,17.87628,9.26,0.62,0.67,3.0
1758088969.97759,1758088969.95653,0.0,0.0,0.0,-31.39809,37.98711,15.87093,9.26,0.62,0.67,3.0
1758088969.97883,1758088969.96653,0.0,0.0,0.0,-38.27358,41.59674,13.00614,9.56,0.62,0.52,3.0
1758088969.99359,1758088969.97653,0.0,0.0,0.0,-42.34158,41.65404,10.48513,9.03,0.47,0.78,3.0
1758088970.00964,1758088969.98653,0.0,0.0,0.0,-45.49285,41.25296,7.21927,9.03,0.47,0.78,3.0
1758088970.01093,1758088969.99653,0.0,0.0,0.0,-48.12846,41.13837,3.95341,8.81,0.21,0.75,3.0
1758088970.02638,1758088970.00653,0.0,0.0,0.0,-49.79003,40.16434,-1.03132,8.81,0.21,0.75,3.0
1758088970.0284,1758088970.01653,0.0,0.0,0.0,-49.04519,37.35685,-3.83882,8.85,-0.07,0.78,3.0
1758088970.04368,1758088970.02653,0.0,0.0,0.0,-47.15443,34.43476,-5.95876,8.85,-0.07,0.78,3.0
1758088970.05965,1758088970.03653,0.0,0.0,0.0,-43.94586,32.54401,-7.44845,8.85,-0.43,0.77,3.0
1758088970.06088,1758088970.04653,0.0,0.0,0.0,-37.35685,30.36677,-7.50575,9.33,-0.83,0.7,3.0
1758088970.07635,1758088970.05653,0.0,0.0,0.0,-32.6013,29.27814,-6.35983,9.33,-0.83,0.7,3.0
1758088970.0792,1758088970.06653,0.0,0.0,0.0,-28.01764,27.50197,-4.23989,9.51,-0.98,0.91,3.0
1758088970.09467,1758088970.07653,0.0,0.0,0.0,-23.89234,24.92367,-0.0573,9.51,-0.98,0.91,3.0
1758088970.09586,1758088970.08653,0.0,0.0,0.0,-18.62113,19.36597,2.92208,9.26,-0.88,1.04,3.0
1758088970.11269,1758088970.09653,0.0,0.0,0.0,-16.3293,15.0115,5.72958,9.26,-0.88,1.04,3.0
1758088970.12889,1758088970.10653,0.0,0.0,0.0,-14.72501,10.25595,7.79223,8.99,-0.66,1.17,3.0
1758088970.12983,1758088970.11653,0.0,0.0,0.0,-13.46451,4.29718,10.25595,8.99,-0.66,1.17,3.0
1758088970.14497,1758088970.12653,0.0,0.0,0.0,-12.83425,0.40107,10.94349,8.9,-0.47,1.13,3.0
1758088970.14588,1758088970.13653,0.0,0.0,0.0,-11.86023,-4.35448,11.17268,8.79,-0.28,0.91,3.0
1758088970.16196,1758088970.14653,0.0,0.0,0.0,-10.31324,-7.62034,11.22997,8.79,-0.28,0.91,3.0
1758088970.17868,1758088970.15653,0.0,0.0,0.0,-7.39116,-6.18794,10.08406,9.1,-0.25,0.85,3.0
1758088970.17989,1758088970.16653,0.0,0.0,0.0,-4.87014,-2.34913,8.93814,9.1,-0.25,0.85,3.0
1758088970.19458,1758088970.17653,0.0,0.0,0.0,-1.77617,1.43239,8.0787,9.6,-0.4,0.97,3.0
1758088970.19583,1758088970.18653,0.0,0.0,0.0,1.66158,4.0107,7.62034,9.6,-0.4,0.97,3.0
1758088970.21186,1758088970.19653,0.0,0.0,0.0,6.87549,4.35448,8.70896,9.37,-0.73,0.9,3.0
1758088970.22798,1758088970.20653,0.0,0.0,0.0,10.65701,3.55234,10.59972,9.34,-1.03,0.4,3.0
1758088970.22892,1758088970.21653,0.0,0.0,0.0,14.15206,3.60963,12.49048,9.34,-1.03,0.4,3.0
1758088970.24388,1758088970.22653,0.0,0.0,0.0,17.24603,5.21392,14.61043,10.34,-1.1,0.13,3.0
1758088970.25978,1758088970.23653,0.0,0.0,0.0,21.31403,3.83882,16.61578,10.34,-1.1,0.13,3.0
1758088970.26096,1758088970.24653,0.0,0.0,0.0,24.57989,-9.68299,19.25138,10.9,-0.92,0.47,3.0
1758088970.27602,1758088970.25653,0.0,0.0,0.0,27.61657,-23.89234,21.7724,10.9,-0.92,0.47,3.0
1758088970.2772,1758088970.26653,0.0,0.0,0.0,26.64254,-22.97561,22.00158,11.84,-0.85,0.53,3.0
1758088970.29397,1758088970.27653,0.0,0.0,0.0,27.84575,7.50575,22.05888,16.68,-0.48,1.66,3.0
1758088970.31003,1758088970.28653,0.0,0.0,0.0,27.73116,24.00693,20.79837,16.68,-0.48,1.66,3.0
1758088970.31097,1758088970.29653,0.0,0.0,0.0,26.75713,38.84654,19.13679,16.12,0.41,2.86,3.0
1758088970.32597,1758088970.30653,0.0,0.0,0.0,24.80907,46.1231,15.98552,16.12,0.41,2.86,3.0
1758088970.32691,1758088970.31653,0.0,0.0,0.0,22.86102,45.43555,13.23533,14.5,0.91,3.33,3.0
1758088970.34409,1758088970.32653,0.0,0.0,0.0,22.28806,41.02378,11.34457,14.5,0.91,3.33,3.0
1758088970.3602,1758088970.33653,0.0,0.0,0.0,19.76705,33.9764,8.25059,14.0,0.62,3.36,3.0
1758088970.361,1758088970.34653,0.0,0.0,0.0,16.95955,18.33465,4.98473,14.0,0.62,3.36,3.0
1758088970.37715,1758088970.35653,0.0,0.0,0.0,16.61578,12.89155,3.89611,13.8,0.0,3.43,3.0
1758088970.37965,1758088970.36653,0.0,0.0,0.0,16.61578,8.59437,3.32316,14.08,-0.59,3.22,3.0
1758088970.39483,1758088970.37653,0.0,0.0,0.0,16.38659,7.04738,2.86479,14.08,-0.59,3.22,3.0
1758088970.39638,1758088970.38653,0.0,0.0,0.0,15.69904,7.44845,2.34913,12.95,-0.53,2.92,3.0
1758088970.4118,1758088970.39653,0.0,0.0,0.0,15.06879,5.90147,2.06265,12.95,-0.53,2.92,3.0
1758088970.42806,1758088970.40653,0.0,0.0,0.0,14.20935,3.20856,1.77617,10.64,-0.2,2.65,3.0
1758088970.42906,1758088970.41653,0.0,0.0,0.0,13.46451,1.48969,1.83346,10.64,-0.2,2.65,3.0
1758088970.44375,1758088970.42653,0.0,0.0,0.0,13.00614,-2.92208,2.23454,8.57,0.08,2.71,3.0
1758088970.46013,1758088970.43653,0.0,0.0,0.0,13.06344,-9.62569,3.66693,6.63,0.11,3.03,3.0
1758088970.46269,1758088970.44653,0.0,0.0,0.0,12.77696,-20.45459,4.92744,6.63,0.11,3.03,3.0
1758088970.48017,1758088970.45653,0.0,0.0,0.0,12.49048,-32.25753,5.84417,5.39,0.0,3.47,3.0
1758088970.48273,1758088970.46653,0.0,0.0,0.0,12.49048,-44.57612,7.21927,5.39,0.0,3.47,3.0
1758088970.50018,1758088970.47653,0.0,0.0,0.0,12.71966,-48.07116,7.62034,6.56,-0.07,2.96,3.0
1758088970.50276,1758088970.48653,0.0,0.0,0.0,13.12073,-48.64412,7.67763,6.56,-0.07,2.96,3.0
1758088970.5088,1758088970.49653,0.0,0.0,0.0,13.86558,-47.38361,7.16197,8.3,-0.07,2.59,3.0
1758088970.52517,1758088970.50653,0.0,0.0,0.0,15.12609,-40.68,6.13065,8.94,-0.08,1.88,3.0
1758088970.52658,1758088970.51653,0.0,0.0,0.0,16.73037,-34.95043,5.90147,8.94,-0.08,1.88,3.0
1758088970.54198,1758088970.52653,0.0,0.0,0.0,18.56383,-30.02299,6.18794,8.72,-0.1,1.55,3.0
1758088970.55864,1758088970.53653,0.0,0.0,0.0,20.79837,-23.49127,6.24524,8.72,-0.1,1.55,3.0
1758088970.55985,1758088970.54653,0.0,0.0,0.0,21.7151,-18.56383,6.47442,8.21,0.07,1.8,3.0
1758088970.57489,1758088970.55653,0.0,0.0,0.0,22.11617,-13.23533,6.47442,8.21,0.07,1.8,3.0
1758088970.57615,1758088970.56653,0.0,0.0,0.0,21.94428,-7.79223,5.72958,8.03,0.4,1.73,3.0
1758088970.5919,1758088970.57653,0.0,0.0,0.0,20.85567,-1.08862,3.32316,7.97,0.4,1.74,3.0
1758088970.60795,1758088970.58653,0.0,0.0,0.0,19.59516,3.55234,0.57296,7.97,0.66,1.74,3.0
1758088970.60913,1758088970.59653,0.0,0.0,0.0,18.27736,7.96411,-2.46372,8.28,0.67,1.75,3.0
1758088970.62399,1758088970.60653,0.0,0.0,0.0,17.13144,11.97482,-5.84417,8.28,0.67,1.75,3.0
1758088970.64027,1758088970.61653,0.0,0.0,0.0,15.98552,17.6471,-10.48513,8.47,0.42,1.77,3.0
1758088970.64067,1758088970.62653,0.0,0.0,0.0,15.24068,19.82434,-13.12073,8.47,0.42,1.77,3.0
1758088970.6562,1758088970.63653,0.0,0.0,0.0,15.06879,21.7151,-14.78231,8.48,0.1,1.78,3.0
1758088970.65875,1758088970.64653,0.0,0.0,0.0,15.41257,23.83505,-15.06879,8.48,0.1,1.78,3.0
1758088970.67391,1758088970.65653,0.0,0.0,0.0,16.61578,25.21014,-14.78231,8.55,-0.15,1.75,3.0
1758088970.69038,1758088970.66653,0.0,0.0,0.0,18.10547,25.38203,-13.86558,8.38,-0.25,1.9,3.0
1758088970.69076,1758088970.67653,0.0,0.0,0.0,19.76705,24.57989,-11.86023,8.38,-0.25,1.9,3.0
1758088970.70698,1758088970.68653,0.0,0.0,0.0,21.31403,22.86102,-10.08406,8.22,-0.21,1.96,3.0
1758088970.7082,1758088970.69653,0.0,0.0,0.0,23.60586,18.62113,-7.50575,8.22,-0.21,1.96,3.0
1758088970.72332,1758088970.70653,0.0,0.0,0.0,25.21014,16.272,-5.84417,8.21,-0.05,1.91,3.0
1758088970.73899,1758088970.71653,0.0,0.0,0.0,26.18417,13.5791,-4.46907,8.21,-0.05,1.91,3.0
1758088970.73964,1758088970.72653,0.0,0.0,0.0,26.87172,10.37054,-3.03668,8.38,0.13,1.75,3.0
1758088970.75506,1758088970.73653,0.0,0.0,0.0,26.87172,8.59437,-2.57831,8.6,0.27,1.66,3.0
1758088970.75629,1758088970.74653,0.0,0.0,0.0,26.52795,7.62034,-2.46372,8.6,0.27,1.66,3.0
1758088970.7713,1758088970.75653,0.0,0.0,0.0,25.43933,6.58902,-2.57831,8.76,0.43,1.47,3.0
1758088970.78705,1758088970.76653,0.0,0.0,0.0,23.37668,5.09932,-2.63561,8.76,0.43,1.47,3.0
1758088970.78825,1758088970.77653,0.0,0.0,0.0,21.60051,4.46907,-2.57831,8.89,0.6,1.48,3.0
1758088970.80335,1758088970.78653,0.0,0.0,0.0,19.70975,3.60963,-2.11994,8.89,0.6,1.48,3.0
1758088970.80452,1758088970.79653,0.0,0.0,0.0,17.76169,3.49504,-2.06265,9.07,0.66,1.39,3.0
1758088970.81962,1758088970.80653,0.0,0.0,0.0,14.83961,4.1253,-1.71887,9.36,0.61,1.42,3.0
1758088970.83504,1758088970.81653,0.0,0.0,0.0,13.5218,4.92744,-1.83346,9.36,0.61,1.42,3.0
1758088970.83703,1758088970.82653,0.0,0.0,0.0,12.37589,6.58902,-2.00535,9.55,0.48,1.38,3.0
1758088970.85115,1758088970.83653,0.0,0.0,0.0,11.51645,8.02141,-2.6929,9.55,0.48,1.38,3.0
1758088970.8671,1758088970.84653,0.0,0.0,0.0,10.59972,10.02676,-3.60963,9.58,0.32,1.35,3.0
1758088970.86909,1758088970.85653,0.0,0.0,0.0,10.54242,10.8862,-4.46907,9.58,0.32,1.35,3.0
1758088970.88413,1758088970.86653,0.0,0.0,0.0,10.48513,10.65701,-5.21392,9.6,0.18,1.4,3.0
1758088970.88538,1758088970.87653,0.0,0.0,0.0,10.59972,10.48513,-5.90147,9.6,0.18,1.4,3.0
1758088970.90071,1758088970.88653,0.0,0.0,0.0,10.71431,10.59972,-5.61499,9.56,0.11,1.38,3.0
1758088970.91617,1758088970.89653,0.0,0.0,0.0,10.25595,10.37054,-5.09932,9.52,0.13,1.32,3.0
1758088970.91743,1758088970.90653,0.0,0.0,0.0,9.5684,8.30789,-4.18259,9.52,0.13,1.32,3.0
1758088970.93436,1758088970.91653,0.0,0.0,0.0,7.50575,7.04738,-3.32316,9.42,0.28,1.5,3.0
1758088970.93534,1758088970.92653,0.0,0.0,0.0,5.84417,5.32851,-3.32316,9.42,0.28,1.5,3.0
1758088970.95241,1758088970.93653,0.0,0.0,0.0,3.95341,3.55234,-3.32316,9.54,0.5,1.33,3.0
1758088970.95414,1758088970.94653,0.0,0.0,0.0,1.77617,1.48969,-3.89611,9.54,0.5,1.33,3.0
1758088970.96969,1758088970.95653,0.0,0.0,0.0,-1.3751,-2.97938,-5.09932,9.35,0.6,1.17,3.0
1758088970.98545,1758088970.96653,0.0,0.0,0.0,-3.09397,-4.98473,-6.35983,9.41,0.51,0.94,3.0
1758088970.98642,1758088970.97653,0.0,0.0,0.0,-5.09932,-6.35983,-7.84952,9.41,0.51,0.94,3.0
1758088971.00121,1758088970.98653,0.0,0.0,0.0,-6.58902,-7.79223,-9.85487,9.69,0.48,0.92,3.0
1758088971.0174,1758088970.99653,0.0,0.0,0.0,-8.88085,-13.5218,-11.80293,9.69,0.48,0.92,3.0
1758088971.01997,1758088971.00653,0.0,0.0,0.0,-9.96947,-17.13144,-12.60507,9.73,0.54,0.92,3.0
1758088971.03513,1758088971.01653,0.0,0.0,0.0,-10.65701,-20.22541,-13.40721,9.73,0.54,0.92,3.0
1758088971.0439,1758088971.02653,0.0,0.0,0.0,-11.00079,-23.54857,-13.40721,10.04,0.61,1.17,3.0
1758088971.08994,1758088971.03653,0.0,0.0,0.0,-10.94349,-32.88778,-13.80828,10.3,0.7,1.95,3.0
1758088971.09347,1758088971.04653,0.0,0.0,0.0,-8.88085,-36.49741,-12.89155,10.3,0.7,1.95,3.0
1758088971.0941,1758088971.05653,0.0,0.0,0.0,-7.79223,-39.82057,-14.72501,11.57,0.9,2.36,3.0
1758088971.09535,1758088971.06653,0.0,0.0,0.0,-6.18794,-31.97105,-16.84496,11.57,0.9,2.36,3.0
1758088971.09677,1758088971.07653,0.0,0.0,0.0,-5.27121,-16.55848,-20.11082,13.7,0.74,1.79,3.0
1758088971.09814,1758088971.08653,0.0,0.0,0.0,-5.32851,-7.39116,-23.20479,13.7,0.74,1.79,3.0
1758088971.11458,1758088971.09653,0.0,0.0,0.0,-5.95876,1.77617,-24.17882,13.29,0.68,1.45,3.0
1758088971.11548,1758088971.10653,0.0,0.0,0.0,-7.39116,8.93814,-22.00158,13.29,0.68,1.45,3.0
1758088971.13059,1758088971.11653,0.0,0.0,0.0,-9.85487,17.47521,-19.13679,12.71,1.01,1.62,3.0
1758088971.13464,1758088971.12653,0.0,0.0,0.0,-11.17268,23.0329,-14.72501,12.7,1.43,2.07,3.0
1758088971.15057,1758088971.13653,0.0,0.0,0.0,-12.77696,28.70519,-10.31324,12.7,1.43,2.07,3.0
1758088971.16841,1758088971.14653,0.0,0.0,0.0,-14.38124,35.06502,-3.60963,13.11,1.69,2.63,3.0
1758088971.17247,1758088971.15653,0.0,0.0,0.0,-14.49583,38.1017,0.0,13.11,1.69,2.63,3.0
1758088971.18836,1758088971.16653,0.0,0.0,0.0,-14.09476,39.4195,2.92208,13.55,1.54,3.14,3.0
1758088971.1933,1758088971.17653,0.0,0.0,0.0,-12.60507,36.89849,5.61499,13.55,1.54,3.14,3.0
1758088971.20822,1758088971.18653,0.0,0.0,0.0,-10.65701,27.10091,8.93814,13.21,1.18,3.2,3.0
1758088971.20944,1758088971.19653,0.0,0.0,0.0,-9.62569,19.48057,10.65701,12.59,1.04,3.56,3.0
1758088971.22454,1758088971.20653,0.0,0.0,0.0,-9.68299,12.08941,11.63104,12.59,1.04,3.56,3.0
1758088971.22636,1758088971.21653,0.0,0.0,0.0,-10.59972,4.58366,11.91752,11.72,1.21,3.75,3.0
1758088971.24128,1758088971.22653,0.0,0.0,0.0,-12.89155,-9.33921,11.57375,11.72,1.21,3.75,3.0
1758088971.25764,1758088971.23653,0.0,0.0,0.0,-15.0115,-19.76705,10.71431,9.87,1.34,3.62,3.0
1758088971.25932,1758088971.24653,0.0,0.0,0.0,-17.47521,-31.56997,9.91217,9.87,1.34,3.62,3.0
1758088971.27432,1758088971.25653,0.0,0.0,0.0,-19.76705,-42.51347,8.65166,8.07,1.16,3.54,3.0
1758088971.27877,1758088971.26653,0.0,0.0,0.0,-22.68913,-56.83742,6.70361,7.33,0.9,3.49,3.0
1758088971.29435,1758088971.27653,0.0,0.0,0.0,-24.4653,-64.91612,5.15662,7.33,0.9,3.49,3.0
1758088971.29555,1758088971.28653,0.0,0.0,0.0,-25.49662,-70.93218,3.55234,7.44,0.64,3.03,3.0
1758088971.31036,1758088971.29653,0.0,0.0,0.0,-26.35606,-73.3386,1.83346,7.44,0.64,3.03,3.0
1758088971.32638,1758088971.30653,0.0,0.0,0.0,-25.72581,-69.49979,0.40107,8.41,0.29,2.55,3.0
1758088971.32915,1758088971.31653,0.0,0.0,0.0,-27.67386,-66.635,2.11994,8.41,0.29,2.55,3.0
1758088971.34468,1758088971.32653,0.0,0.0,0.0,-28.13223,-64.40046,2.46372,8.42,-1.41,1.63,3.0
1758088971.34643,1758088971.33653,0.0,0.0,0.0,-27.67386,-56.89471,0.97403,8.42,-1.41,1.63,3.0
1758088971.36165,1758088971.34653,0.0,0.0,0.0,-26.18417,-50.01921,-0.0573,9.68,0.22,2.71,3.0
1758088971.3775,1758088971.35653,0.0,0.0,0.0,-23.94964,-43.65939,-0.85944,8.56,0.29,1.48,3.0
1758088971.37894,1758088971.36653,0.0,0.0,0.0,-22.11617,-37.35685,-1.66158,8.56,0.29,1.48,3.0
1758088971.39343,1758088971.37653,0.0,0.0,0.0,-18.56383,-27.2155,-0.57296,8.39,-0.34,1.58,3.0
1758088971.395,1758088971.38653,0.0,0.0,0.0,-15.98552,-19.48057,1.03132,8.39,-0.34,1.58,3.0
1758088971.41071,1758088971.39653,0.0,0.0,0.0,-13.5218,-12.43318,3.60963,8.8,-0.89,1.6,3.0
1758088971.42779,1758088971.40653,0.0,0.0,0.0,-11.22997,-5.72958,7.10468,8.8,-0.89,1.6,3.0
1758088971.4303,1758088971.41653,0.0,0.0,0.0,-8.30789,4.81285,12.71966,8.98,-1.06,1.44,3.0
1758088971.44733,1758088971.42653,0.0,0.0,0.0,-6.58902,11.22997,16.38659,9.08,-0.86,1.28,3.0
1758088971.4502,1758088971.43653,0.0,0.0,0.0,-5.72958,17.01685,19.59516,9.08,-0.86,1.28,3.0
1758088971.46545,1758088971.44653,0.0,0.0,0.0,-5.27121,22.86102,22.40265,9.17,-0.41,1.21,3.0
1758088971.46779,1758088971.45653,0.0,0.0,0.0,-5.09932,30.93972,24.75178,9.17,-0.41,1.21,3.0
1758088971.48375,1758088971.46653,0.0,0.0,0.0,-5.4431,34.95043,25.15285,9.3,0.03,1.22,3.0
1758088971.48466,1758088971.47653,0.0,0.0,0.0,-5.95876,38.73195,24.80907,9.3,0.03,1.22,3.0
1758088971.50051,1758088971.48653,0.0,0.0,0.0,-7.39116,39.07573,24.4653,9.18,0.3,1.25,3.0
1758088971.51827,1758088971.49653,0.0,0.0,0.0,-10.25595,42.91454,23.94964,9.3,0.35,1.46,3.0
1758088971.51951,1758088971.50653,0.0,0.0,0.0,-11.91752,42.97184,23.0329,9.3,0.35,1.46,3.0
1758088971.53489,1758088971.51653,0.0,0.0,0.0,-13.75099,42.91454,21.37133,8.83,0.24,1.32,3.0
1758088971.5365,1758088971.52653,0.0,0.0,0.0,-15.58445,42.1124,16.73037,8.83,0.24,1.32,3.0
1758088971.55232,1758088971.53653,0.0,0.0,0.0,-17.53251,41.36755,12.71966,8.56,0.04,1.37,3.0
1758088971.56847,1758088971.54653,0.0,0.0,0.0,-18.22006,39.13302,8.88085,8.56,0.04,1.37,3.0
1758088971.56972,1758088971.55653,0.0,0.0,0.0,-17.87628,36.03905,4.92744,8.36,-0.19,1.4,3.0
1758088971.58455,1758088971.56653,0.0,0.0,0.0,-15.87093,30.82513,-0.0573,8.36,-0.19,1.4,3.0
1758088971.58598,1758088971.57653,0.0,0.0,0.0,-13.80828,27.96034,-2.40642,8.26,-0.53,1.19,3.0
1758088971.60076,1758088971.58653,0.0,0.0,0.0,-11.51645,24.63719,-3.72423,8.37,-0.85,1.22,3.0
1758088971.61657,1758088971.59653,0.0,0.0,0.0,-8.88085,20.45459,-4.0107,8.37,-0.85,1.22,3.0
1758088971.61855,1758088971.60653,0.0,0.0,0.0,-5.15662,13.80828,-2.6929,8.4,-1.02,1.46,3.0
1758088971.63359,1758088971.61653,0.0,0.0,0.0,-3.26586,9.62569,-0.85944,8.4,-1.02,1.46,3.0
1758088971.63478,1758088971.62653,0.0,0.0,0.0,-2.00535,5.21392,1.48969,8.58,-0.91,1.54,3.0
1758088971.65241,1758088971.63653,0.0,0.0,0.0,-1.3751,0.57296,3.89611,8.58,-0.91,1.54,3.0
1758088971.66862,1758088971.64653,0.0,0.0,0.0,-1.71887,-5.21392,6.99009,8.55,-0.59,1.43,3.0
1758088971.66977,1758088971.65653,0.0,0.0,0.0,-2.34913,-8.59437,8.136,8.68,-0.23,1.28,3.0
1758088971.68453,1758088971.66653,0.0,0.0,0.0,-3.09397,-12.43318,8.30789,8.68,-0.23,1.28,3.0
1758088971.68579,1758088971.67653,0.0,0.0,0.0,-4.1253,-16.61578,7.73493,8.81,0.0,1.17,3.0
1758088971.70063,1758088971.68653,0.0,0.0,0.0,-4.64096,-17.87628,6.07335,8.81,0.0,1.17,3.0
1758088971.71662,1758088971.69653,0.0,0.0,0.0,-4.81285,-15.29797,4.18259,9.43,0.02,0.93,3.0
1758088971.71939,1758088971.70653,0.0,0.0,0.0,-5.09932,-11.63104,1.3178,9.43,0.02,0.93,3.0
1758088971.73461,1758088971.71653,0.0,0.0,0.0,-4.92744,-7.39116,-1.71887,9.58,-0.13,0.66,3.0
1758088971.736,1758088971.72653,0.0,0.0,0.0,-4.18259,-0.51566,-5.95876,9.61,-0.26,0.49,3.0
1758088971.75063,1758088971.73653,0.0,0.0,0.0,-3.20856,3.95341,-7.79223,9.61,-0.26,0.49,3.0
1758088971.76845,1758088971.74653,0.0,0.0,0.0,-2.11994,6.7609,-8.0787,9.93,-0.41,0.51,3.0
1758088971.76964,1758088971.75653,0.0,0.0,0.0,-0.34377,6.99009,-6.58902,9.93,-0.41,0.51,3.0
1758088971.78469,1758088971.76653,0.0,0.0,0.0,0.85944,6.8182,-4.64096,10.21,-0.55,0.65,3.0
1758088971.78584,1758088971.77653,0.0,0.0,0.0,2.06265,7.21927,-2.23454,10.21,-0.55,0.65,3.0
1758088971.80075,1758088971.78653,0.0,0.0,0.0,3.03668,7.84952,0.22918,10.69,-0.67,0.67,3.0
1758088971.81848,1758088971.79653,0.0,0.0,0.0,4.52637,7.73493,2.97938,10.69,-0.67,0.67,3.0
1758088971.81972,1758088971.80653,0.0,0.0,0.0,5.27121,-1.48969,4.18259,10.69,-0.79,0.85,3.0
1758088971.83468,1758088971.81653,0.0,0.0,0.0,7.10468,-24.80907,6.58902,8.97,-0.97,1.3,3.0
1758088971.83593,1758088971.82653,0.0,0.0,0.0,7.39116,-41.13837,8.25059,8.97,-0.97,1.3,3.0
1758088971.85071,1758088971.83653,0.0,0.0,0.0,7.73493,-17.99088,10.08406,12.04,-1.14,1.48,3.0
1758088971.86767,1758088971.84653,0.0,0.0,0.0,7.79223,3.83882,10.19865,12.04,-1.14,1.48,3.0
1758088971.86895,1758088971.85653,0.0,0.0,0.0,7.21927,24.4653,9.96947,14.85,-0.73,2.24,3.0
1758088971.88369,1758088971.86653,0.0,0.0,0.0,6.7609,37.35685,9.39651,14.85,-0.73,2.24,3.0
1758088971.88497,1758088971.87653,0.0,0.0,0.0,5.61499,36.7266,7.84952,13.4,-0.25,2.73,3.0
1758088971.9011,1758088971.88653,0.0,0.0,0.0,3.26586,28.59059,5.72958,11.84,-0.18,2.69,3.0
1758088971.91672,1758088971.89653,0.0,0.0,0.0,2.6929,18.50654,4.29718,11.84,-0.18,2.69,3.0
1758088971.91956,1758088971.90653,0.0,0.0,0.0,1.20321,8.136,3.32316,12.65,-0.33,3.03,3.0
1758088971.93476,1758088971.91653,0.0,0.0,0.0,-0.22918,2.6929,3.60963,12.65,-0.33,3.03,3.0
1758088971.93758,1758088971.92653,0.0,0.0,0.0,-0.68755,4.92744,2.86479,14.68,-0.91,3.27,3.0
1758088971.9528,1758088971.93653,0.0,0.0,0.0,-0.17189,8.36518,2.63561,14.68,-0.91,3.27,3.0
1758088971.96882,1758088971.94653,0.0,0.0,0.0,0.0,11.28727,1.3178,14.84,-1.14,3.26,3.0
1758088971.97001,1758088971.95653,0.0,0.0,0.0,-0.22918,12.71966,-0.74485,13.34,-1.04,2.85,3.0
1758088971.98484,1758088971.96653,0.0,0.0,0.0,-0.57296,12.60507,-2.97938,13.34,-1.04,2.85,3.0
1758088971.98712,1758088971.97653,0.0,0.0,0.0,-0.80214,12.49048,-5.32851,12.06,-0.61,2.64,3.0
1758088972.00197,1758088971.98653,0.0,0.0,0.0,-0.40107,12.49048,-7.67763,12.06,-0.61,2.64,3.0
1758088972.01782,1758088971.99653,0.0,0.0,0.0,0.40107,11.63104,-8.30789,10.85,-0.28,2.64,3.0
1758088972.01902,1758088972.00653,0.0,0.0,0.0,1.71887,10.25595,-7.84952,10.85,-0.28,2.64,3.0
1758088972.03378,1758088972.01653,0.0,0.0,0.0,3.26586,6.13065,-6.7609,9.35,-0.25,2.61,3.0
1758088972.03502,1758088972.02653,0.0,0.0,0.0,5.78687,-4.35448,-3.72423,7.58,-0.25,2.62,3.0
1758088972.05184,1758088972.03653,0.0,0.0,0.0,7.50575,-13.06344,-1.3751,7.58,-0.38,2.62,3.0
1758088972.06876,1758088972.04653,0.0,0.0,0.0,8.99544,-22.68913,1.08862,6.53,-0.51,2.93,3.0
1758088972.06982,1758088972.05653,0.0,0.0,0.0,10.19865,-31.62727,2.97938,6.53,-0.51,2.93,3.0
1758088972.08495,1758088972.06653,0.0,0.0,0.0,11.51645,-40.39353,4.23989,6.59,-0.55,3.1,3.0
1758088972.08963,1758088972.07653,0.0,0.0,0.0,12.37589,-44.11775,4.46907,6.59,-0.55,3.1,3.0
1758088972.10496,1758088972.08653,0.0,0.0,0.0,13.17803,-46.46688,3.83882,7.5,-0.53,2.8,3.0
1758088972.10606,1758088972.09653,0.0,0.0,0.0,13.69369,-47.09713,2.86479,7.5,-0.53,2.8,3.0
1758088972.12112,1758088972.10653,0.0,0.0,0.0,14.9542,-44.23235,0.74485,8.24,-0.41,2.45,3.0
1758088972.13693,1758088972.11653,0.0,0.0,0.0,15.69904,-37.98711,-0.97403,8.83,-0.23,1.92,3.0
1758088972.13919,1758088972.12653,0.0,0.0,0.0,17.36062,-32.20023,-1.08862,8.83,-0.23,1.92,3.0
1758088972.15387,1758088972.13653,0.0,0.0,0.0,18.90761,-26.41335,-1.20321,8.83,-0.04,1.76,3.0
1758088972.15512,1758088972.14653,0.0,0.0,0.0,20.74107,-18.50654,-0.80214,8.83,-0.04,1.76,3.0
1758088972.17083,1758088972.15653,0.0,0.0,0.0,21.7151,-12.60507,-0.40107,8.69,0.18,1.87,3.0
1758088972.18796,1758088972.16653,0.0,0.0,0.0,22.05888,-5.95876,-0.57296,8.69,0.18,1.87,3.0
1758088972.1891,1758088972.17653,0.0,0.0,0.0,22.28806,4.0107,-2.00535,8.86,0.43,1.82,3.0
1758088972.20399,1758088972.18653,0.0,0.0,0.0,22.28806,10.59972,-3.55234,9.15,0.56,1.78,3.0
1758088972.20514,1758088972.19653,0.0,0.0,0.0,21.7151,17.30333,-5.90147,9.15,0.56,1.78,3.0
1758088972.22122,1758088972.20653,0.0,0.0,0.0,21.02755,22.86102,-8.76626,9.42,0.45,1.74,3.0
1758088972.23719,1758088972.21653,0.0,0.0,0.0,20.62648,30.25217,-13.06344,9.42,0.45,1.74,3.0
1758088972.23972,1758088972.22653,0.0,0.0,0.0,20.62648,33.68992,-15.58445,9.53,0.17,1.91,3.0
1758088972.25518,1758088972.23653,0.0,0.0,0.0,20.22541,36.89849,-17.93358,9.53,0.17,1.91,3.0
1758088972.2564,1758088972.24653,0.0,0.0,0.0,20.22541,38.56006,-18.79302,9.37,-0.07,2.0,3.0
1758088972.27093,1758088972.25653,0.0,0.0,0.0,20.51189,40.7946,-18.79302,9.14,-0.17,1.89,3.0
1758088972.28686,1758088972.26653,0.0,0.0,0.0,21.42862,41.31026,-18.10547,9.14,-0.17,1.89,3.0
1758088972.2881,1758088972.27653,0.0,0.0,0.0,22.28806,39.24761,-16.95955,8.64,-0.11,1.89,3.0
1758088972.30322,1758088972.28653,0.0,0.0,0.0,23.72045,36.55471,-14.9542,8.64,-0.11,1.89,3.0
1758088972.31898,1758088972.29653,0.0,0.0,0.0,25.15285,31.2262,-11.34457,8.34,0.11,1.92,3.0
1758088972.32018,1758088972.30653,0.0,0.0,0.0,25.61122,28.70519,-9.39651,8.34,0.11,1.92,3.0
1758088972.3352,1758088972.31653,0.0,0.0,0.0,26.01229,26.24147,-7.39116,8.36,0.39,1.7,3.0
1758088972.3378,1758088972.32653,0.0,0.0,0.0,25.61122,23.66316,-6.07335,8.36,0.39,1.7,3.0
1758088972.3532,1758088972.33653,0.0,0.0,0.0,23.94964,19.42327,-4.69825,8.21,0.66,1.52,3.0
1758088972.3693,1758088972.34653,0.0,0.0,0.0,22.40265,16.67307,-4.29718,8.22,0.93,1.49,3.0
1758088972.37055,1758088972.35653,0.0,0.0,0.0,20.34,14.20935,-4.35448,8.22,0.93,1.49,3.0
1758088972.38528,1758088972.36653,0.0,0.0,0.0,16.90226,11.57375,-4.46907,8.34,1.11,1.44,3.0
1758088972.38877,1758088972.37653,0.0,0.0,0.0,14.20935,8.25059,-4.69825,8.34,1.11,1.44,3.0
1758088972.40408,1758088972.38653,0.0,0.0,0.0,11.91752,6.47442,-4.58366,8.45,1.16,1.44,3.0
1758088972.40529,1758088972.39653,0.0,0.0,0.0,9.4538,5.50039,-4.29718,8.45,1.16,1.44,3.0
1758088972.42135,1758088972.40653,0.0,0.0,0.0,7.44845,5.27121,-4.46907,8.62,1.07,1.51,3.0
1758088972.43916,1758088972.41653,0.0,0.0,0.0,6.87549,4.64096,-4.58366,8.86,0.86,1.74,3.0
1758088972.44081,1758088972.42653,0.0,0.0,0.0,6.8182,3.66693,-4.81285,8.86,0.86,1.74,3.0
1758088972.4563,1758088972.43653,0.0,0.0,0.0,7.04738,4.18259,-5.72958,9.05,0.65,1.69,3.0
1758088972.45731,1758088972.44653,0.0,0.0,0.0,7.84952,4.64096,-6.70361,9.05,0.65,1.69,3.0
1758088972.4722,1758088972.45653,0.0,0.0,0.0,8.42248,4.87014,-7.10468,9.21,0.48,1.63,3.0
1758088972.48799,1758088972.46653,0.0,0.0,0.0,8.93814,3.95341,-7.50575,9.21,0.48,1.63,3.0
1758088972.49001,1758088972.47653,0.0,0.0,0.0,9.5684,1.94806,-7.33386,9.04,0.37,1.59,3.0
1758088972.5051,1758088972.48653,0.0,0.0,0.0,9.91217,-0.51566,-6.58902,9.06,0.3,1.64,3.0
1758088972.50658,1758088972.49653,0.0,0.0,0.0,9.96947,-2.57831,-5.55769,9.06,0.3,1.64,3.0
1758088972.52114,1758088972.50653,0.0,0.0,0.0,9.68299,-3.03668,-4.23989,9.24,0.35,1.64,3.0
1758088972.53742,1758088972.51653,0.0,0.0,0.0,9.05273,-1.71887,-2.63561,9.24,0.35,1.64,3.0
1758088972.53835,1758088972.52653,0.0,0.0,0.0,7.84952,1.3751,-0.68755,9.62,0.55,1.61,3.0
1758088972.55341,1758088972.53653,0.0,0.0,0.0,6.70361,2.34913,-0.0573,9.62,0.55,1.61,3.0
1758088972.56943,1758088972.54653,0.0,0.0,0.0,5.50039,1.71887,-0.17189,9.62,0.8,1.56,3.0
1758088972.57034,1758088972.55653,0.0,0.0,0.0,4.81285,-2.23454,-1.03132,9.62,0.8,1.56,3.0
1758088972.58513,1758088972.56653,0.0,0.0,0.0,2.63561,-6.35983,-2.6929,9.56,0.99,1.32,3.0
1758088972.58662,1758088972.57653,0.0,0.0,0.0,1.66158,-8.47978,-4.35448,9.96,1.08,1.3,3.0
1758088972.60115,1758088972.58653,0.0,0.0,0.0,0.34377,-11.00079,-6.70361,9.96,1.08,1.3,3.0
1758088972.61812,1758088972.59653,0.0,0.0,0.0,-0.97403,-21.14215,-8.02141,9.76,1.06,1.32,3.0
1758088972.61929,1758088972.60653,0.0,0.0,0.0,-1.20321,-27.78845,-9.28192,9.76,1.06,1.32,3.0
1758088972.63413,1758088972.61653,0.0,0.0,0.0,-2.06265,-30.88243,-9.39651,9.67,0.95,1.36,3.0
1758088972.63537,1758088972.62653,0.0,0.0,0.0,-1.83346,-34.14828,-8.76626,9.67,0.95,1.36,3.0
1758088972.65153,1758088972.63653,0.0,0.0,0.0,-2.06265,-52.13916,-9.33921,10.07,0.9,1.73,3.0
1758088972.66714,1758088972.64653,0.0,0.0,0.0,-0.51566,-48.24305,-10.65701,11.65,1.15,2.78,3.0
1758088972.66923,1758088972.65653,0.0,0.0,0.0,1.08862,-31.91375,-15.69904,11.65,1.15,2.78,3.0
1758088972.68426,1758088972.66653,0.0,0.0,0.0,4.58366,-17.01685,-17.47521,14.59,1.03,2.43,3.0
1758088972.68544,1758088972.67653,0.0,0.0,0.0,6.18794,-9.74028,-20.68378,14.59,1.03,2.43,3.0
1758088972.7012,1758088972.68653,0.0,0.0,0.0,6.41713,-7.21927,-20.79837,12.93,1.23,1.91,3.0
1758088972.71899,1758088972.69653,0.0,0.0,0.0,5.78687,-5.32851,-18.27736,12.93,1.23,1.91,3.0
1758088972.72023,1758088972.70653,0.0,0.0,0.0,4.1253,-1.94806,-15.0115,12.77,1.55,1.81,3.0
1758088972.73553,1758088972.71653,0.0,0.0,0.0,0.45837,7.50575,-7.79223,13.58,1.99,2.42,3.0
1758088972.73641,1758088972.72653,0.0,0.0,0.0,-2.34913,13.12073,-2.6929,13.58,1.99,2.42,3.0
1758088972.75256,1758088972.73653,0.0,0.0,0.0,-5.21392,16.38659,1.48969,13.72,2.06,2.89,3.0
1758088972.76829,1758088972.74653,0.0,0.0,0.0,-7.50575,18.56383,4.1253,13.72,2.06,2.89,3.0
1758088972.76943,1758088972.75653,0.0,0.0,0.0,-9.05273,20.3973,6.35983,13.88,1.67,3.08,3.0
1758088972.79246,1758088972.76653,0.0,0.0,0.0,-9.33921,20.62648,6.7609,13.88,1.67,3.08,3.0
1758088972.79501,1758088972.77653,0.0,0.0,0.0,-9.85487,18.27736,6.53172,14.04,1.34,3.05,3.0
1758088972.7964,1758088972.78653,0.0,0.0,0.0,-10.59972,10.02676,6.35983,14.04,1.34,3.05,3.0
1758088972.81256,1758088972.79653,0.0,0.0,0.0,-11.80293,2.92208,5.90147,12.76,1.48,3.28,3.0
1758088972.8283,1758088972.80653,0.0,0.0,0.0,-13.23533,-5.84417,5.55769,11.15,1.66,3.31,3.0
1758088972.82947,1758088972.81653,0.0,0.0,0.0,-15.06879,-14.9542,4.69825,11.15,1.66,3.31,3.0
1758088972.8446,1758088972.82653,0.0,0.0,0.0,-18.44924,-30.19488,3.38045,9.36,1.51,3.29,3.0
1758088972.84952,1758088972.83653,0.0,0.0,0.0,-20.97026,-41.88322,2.34913,9.36,1.51,3.29,3.0
1758088972.86536,1758088972.84653,0.0,0.0,0.0,-23.26209,-51.5662,1.3751,7.77,1.23,3.53,3.0
1758088972.86653,1758088972.85653,0.0,0.0,0.0,-26.01229,-60.10328,0.40107,7.77,1.23,3.53,3.0
1758088972.8815,1758088972.86653,0.0,0.0,0.0,-29.9084,-69.95815,-0.97403,7.4,0.99,3.54,3.0
1758088972.8973,1758088972.87653,0.0,0.0,0.0,-32.37212,-74.08345,-1.60428,7.56,0.73,3.17,3.0
1758088972.89849,1758088972.88653,0.0,0.0,0.0,-34.60666,-75.68773,-2.40642,7.56,0.73,3.17,3.0
1758088972.91331,1758088972.89653,0.0,0.0,0.0,-36.7266,-74.02615,-2.86479,8.19,0.53,2.51,3.0
1758088972.92942,1758088972.90653,0.0,0.0,0.0,-40.10705,-66.74959,-3.60963,8.19,0.53,2.51,3.0
1758088972.9306,1758088972.91653,0.0,0.0,0.0,-42.05511,-60.10328,-3.89611,8.82,0.35,1.99,3.0
1758088972.94764,1758088972.92653,0.0,0.0,0.0,-43.77398,-52.54023,-4.18259,8.82,0.35,1.99,3.0
1758088972.94858,1758088972.93653,0.0,0.0,0.0,-45.14908,-44.57612,-4.29718,8.95,0.17,1.67,3.0
1758088972.96426,1758088972.94653,0.0,0.0,0.0,-46.00851,-33.34615,-3.95341,8.79,-0.04,1.45,3.0
1758088972.96543,1758088972.95653,0.0,0.0,0.0,-45.26366,-24.86637,-2.97938,8.79,-0.04,1.45,3.0
1758088972.98542,1758088972.96653,0.0,0.0,0.0,-44.46153,-15.98552,-1.08862,8.95,-0.3,1.23,3.0
1758088972.98908,1758088972.97653,0.0,0.0,0.0,-41.99781,-6.87549,3.49504,8.95,-0.3,1.23,3.0
1758088973.00467,1758088972.98653,0.0,0.0,0.0,-39.99245,6.47442,7.16197,9.0,-0.54,1.06,3.0
1758088973.00679,1758088972.99653,0.0,0.0,0.0,-37.64333,14.61043,11.28727,9.0,-0.54,1.06,3.0
1758088973.02242,1758088973.00653,0.0,0.0,0.0,-35.52338,21.7151,15.64175,8.87,-0.56,1.01,3.0
1758088973.03962,1758088973.01653,0.0,0.0,0.0,-32.88778,31.11161,21.42862,8.87,-0.56,1.01,3.0
1758088973.04229,1758088973.02653,0.0,0.0,0.0,-31.56997,36.03905,24.29341,8.66,-0.4,1.18,3.0
1758088973.05744,1758088973.03653,0.0,0.0,0.0,-30.88243,40.27893,26.47065,8.6,-0.2,1.27,3.0
1758088973.05942,1758088973.04653,0.0,0.0,0.0,-30.82513,43.37291,27.61657,8.6,-0.2,1.27,3.0
1758088973.0747,1758088973.05653,0.0,0.0,0.0,-31.74186,45.26366,27.84575,8.5,-0.1,1.43,3.0
1758088973.07645,1758088973.06653,0.0,0.0,0.0,-32.54401,44.40423,27.10091,8.5,-0.1,1.43,3.0
1758088973.09373,1758088973.07653,0.0,0.0,0.0,-33.68992,42.85724,25.09555,8.38,-0.16,1.5,3.0
1758088973.1094,1758088973.08653,0.0,0.0,0.0,-34.77854,41.71133,22.34536,8.38,-0.16,1.5,3.0
1758088973.11233,1758088973.09653,0.0,0.0,0.0,-36.03905,38.38818,18.90761,8.56,-0.34,1.5,3.0
1758088973.12758,1758088973.10653,0.0,0.0,0.0,-36.32552,36.32552,16.38659,8.51,-0.53,1.52,3.0
1758088973.12869,1758088973.11653,0.0,0.0,0.0,-36.26823,34.37747,14.15206,8.51,-0.53,1.52,3.0
1758088973.14425,1758088973.12653,0.0,0.0,0.0,-35.63798,33.68992,11.80293,8.27,-0.67,1.31,3.0
1758088973.1494,1758088973.13653,0.0,0.0,0.0,-33.34615,32.77319,8.36518,8.27,-0.67,1.31,3.0
1758088973.16582,1758088973.14653,0.0,0.0,0.0,-30.88243,30.48136,6.41713,7.98,-0.81,1.29,3.0
1758088973.16673,1758088973.15653,0.0,0.0,0.0,-28.13223,28.30412,4.46907,7.98,-0.81,1.29,3.0
1758088973.1816,1758088973.16653,0.0,0.0,0.0,-24.75178,25.49662,2.97938,7.91,-0.9,1.32,3.0
1758088973.19786,1758088973.17653,0.0,0.0,0.0,-20.16812,20.51189,1.43239,8.23,-0.94,1.31,3.0
1758088973.19954,1758088973.18653,0.0,0.0,0.0,-17.47521,17.76169,0.97403,8.23,-0.94,1.31,3.0
1758088973.21453,1758088973.19653,0.0,0.0,0.0,-15.35527,14.78231,1.08862,8.74,-0.85,1.4,3.0
1758088973.21571,1758088973.20653,0.0,0.0,0.0,-13.17803,9.22462,2.40642,8.74,-0.85,1.4,3.0
1758088973.23235,1758088973.21653,0.0,0.0,0.0,-12.204,5.61499,3.72423,8.85,-0.74,1.5,3.0
1758088973.24855,1758088973.22653,0.0,0.0,0.0,-11.34457,2.57831,5.27121,8.85,-0.74,1.5,3.0
1758088973.25216,1758088973.23653,0.0,0.0,0.0,-10.8289,-0.80214,6.7609,8.88,-0.66,1.44,3.0
1758088973.26748,1758088973.24653,0.0,0.0,0.0,-9.91217,-4.87014,8.65166,8.88,-0.66,1.3,3.0
1758088973.26878,1758088973.25653,0.0,0.0,0.0,-9.28192,-7.21927,9.22462,8.97,-0.56,1.3,3.0
1758088973.28379,1758088973.26653,0.0,0.0,0.0,-8.30789,-9.68299,9.39651,9.1,-0.49,1.24,3.0
1758088973.29966,1758088973.27653,0.0,0.0,0.0,-7.10468,-12.14671,8.99544,9.1,-0.49,1.24,3.0
1758088973.30078,1758088973.28653,0.0,0.0,0.0,-4.87014,-13.5218,7.10468,9.18,-0.51,1.18,3.0
1758088973.31633,1758088973.29653,0.0,0.0,0.0,-2.92208,-10.71431,5.21392,9.18,-0.51,1.18,3.0
1758088973.31879,1758088973.30653,0.0,0.0,0.0,-0.51566,-5.15662,3.49504,9.64,-0.62,1.01,3.0
1758088973.3336,1758088973.31653,0.0,0.0,0.0,2.00535,1.43239,1.66158,9.64,-0.62,1.01,3.0
1758088973.3495,1758088973.32653,0.0,0.0,0.0,5.95876,7.96411,0.17189,9.78,-0.81,0.97,3.0
1758088973.35076,1758088973.33653,0.0,0.0,0.0,9.11003,8.0787,0.11459,9.36,-1.02,1.04,3.0
1758088973.36632,1758088973.34653,0.0,0.0,0.0,12.14671,5.95876,0.57296,9.36,-1.02,1.04,3.0
1758088973.36994,1758088973.35653,0.0,0.0,0.0,15.0115,4.29718,2.06265,9.59,-1.2,1.02,3.0
1758088973.38633,1758088973.36653,0.0,0.0,0.0,19.42327,4.29718,4.92744,9.59,-1.2,1.02,3.0
1758088973.38996,1758088973.37653,0.0,0.0,0.0,22.51724,4.18259,6.99009,10.15,-1.31,1.0,3.0
1758088973.40634,1758088973.38653,0.0,0.0,0.0,25.55392,4.23989,9.11003,10.15,-1.31,1.0,3.0
1758088973.40837,1758088973.39653,0.0,0.0,0.0,29.8511,1.94806,12.204,10.19,-1.4,1.1,3.0
1758088973.42356,1758088973.40653,0.0,0.0,0.0,32.08564,-5.27121,13.12073,10.04,-1.4,1.12,3.0
1758088973.43978,1758088973.41653,0.0,0.0,0.0,33.63263,-7.84952,13.06344,10.04,-1.4,1.12,3.0
1758088973.4409,1758088973.42653,0.0,0.0,0.0,35.3515,-7.62034,12.204,10.93,-1.33,1.39,3.0
1758088973.4565,1758088973.43653,0.0,0.0,0.0,37.35685,-1.48969,11.57375,10.93,-1.33,1.39,3.0
1758088973.45766,1758088973.44653,0.0,0.0,0.0,36.49741,11.57375,11.11538,12.49,-1.39,2.01,3.0
1758088973.47353,1758088973.45653,0.0,0.0,0.0,35.86716,25.8404,11.34457,12.49,-1.39,2.01,3.0
1758088973.48974,1758088973.46653,0.0,0.0,0.0,33.46074,30.88243,10.59972,13.72,-1.18,2.49,3.0
1758088973.49091,1758088973.47653,0.0,0.0,0.0,30.76784,15.06879,7.62034,11.78,-1.18,3.09,3.0
1758088973.50597,1758088973.48653,0.0,0.0,0.0,26.64254,-2.00535,6.07335,11.78,-0.39,3.09,3.0
1758088973.50697,1758088973.49653,0.0,0.0,0.0,22.57454,-9.33921,7.44845,13.0,-0.09,3.04,3.0
1758088973.52254,1758088973.50653,0.0,0.0,0.0,20.68378,-8.0787,7.33386,13.0,-0.09,3.04,3.0
1758088973.54443,1758088973.51653,0.0,0.0,0.0,21.48592,5.95876,9.22462,14.95,-0.7,2.56,3.0
1758088973.55296,1758088973.52653,0.0,0.0,0.0,22.97561,17.13144,9.62569,14.95,-0.7,2.56,3.0
1758088973.55409,1758088973.53653,0.0,0.0,0.0,24.80907,22.34536,9.33921,14.58,-1.55,3.69,3.0
1758088973.56997,1758088973.54653,0.0,0.0,0.0,26.01229,22.63183,8.36518,14.58,-1.55,3.69,3.0
1758088973.57207,1758088973.55653,0.0,0.0,0.0,26.41335,21.37133,6.41713,13.36,-1.62,3.66,3.0
1758088973.5926,1758088973.56653,0.0,0.0,0.0,26.01229,22.57454,4.92744,13.48,-0.99,3.49,3.0
1758088973.59532,1758088973.57653,0.0,0.0,0.0,25.61122,23.94964,3.20856,13.48,-0.99,3.49,3.0
1758088973.62036,1758088973.58653,0.0,0.0,0.0,25.55392,24.00693,0.74485,12.32,-0.42,3.31,3.0
1758088973.6215,1758088973.59653,0.0,0.0,0.0,26.12688,17.81899,-0.97403,12.32,-0.42,3.31,3.0
1758088973.62217,1758088973.60653,0.0,0.0,0.0,26.87172,11.34457,-1.66158,9.99,-0.21,2.95,3.0
1758088973.63976,1758088973.61653,0.0,0.0,0.0,27.73116,5.32851,-1.94806,9.99,-0.21,2.95,3.0
1758088973.64052,1758088973.62653,0.0,0.0,0.0,29.33544,-4.69825,-1.43239,8.5,-0.11,2.64,3.0
1758088973.65704,1758088973.63653,0.0,0.0,0.0,30.02299,-13.80828,-1.03132,6.9,-0.04,3.03,3.0
1758088973.65801,1758088973.64653,0.0,0.0,0.0,29.73651,-23.37668,-1.14592,6.9,-0.04,3.03,3.0
1758088973.67302,1758088973.65653,0.0,0.0,0.0,28.36141,-32.71589,-2.46372,5.88,0.31,3.7,3.0
1758088973.69042,1758088973.66653,0.0,0.0,0.0,26.98631,-46.35228,-3.60963,5.88,0.31,3.7,3.0
1758088973.6929,1758088973.67653,0.0,0.0,0.0,26.64254,-50.53488,-3.66693,6.46,0.46,3.48,3.0
1758088973.71041,1758088973.68653,0.0,0.0,0.0,26.24147,-50.2484,-4.46907,6.46,0.46,3.48,3.0
1758088973.71262,1758088973.69653,0.0,0.0,0.0,26.24147,-47.15443,-5.15662,8.15,0.63,2.84,3.0
1758088973.71626,1758088973.70653,0.0,0.0,0.0,27.1582,-39.4768,-5.78687,8.97,0.52,2.46,3.0
1758088973.74063,1758088973.71653,0.0,0.0,0.0,28.59059,-35.3515,-5.21392,8.97,0.52,2.46,3.0
1758088973.75936,1758088973.72653,0.0,0.0,0.0,30.36677,-31.39809,-4.52637,8.77,0.18,2.31,3.0
1758088973.75999,1758088973.73653,0.0,0.0,0.0,32.71589,-26.24147,-3.49504,8.77,0.18,2.31,3.0
1758088973.76925,1758088973.74653,0.0,0.0,0.0,36.38282,-16.50119,-1.60428,9.02,-0.05,2.34,3.0
1758088973.7698,1758088973.75653,0.0,0.0,0.0,38.56006,-9.96947,-0.57296,9.02,-0.05,2.34,3.0
1758088973.7859,1758088973.76653,0.0,0.0,0.0,40.33623,-3.38045,0.11459,9.05,-0.02,2.18,3.0
1758088973.78711,1758088973.77653,0.0,0.0,0.0,41.88322,3.55234,0.17189,9.05,-0.02,2.18,3.0
1758088973.80191,1758088973.78653,0.0,0.0,0.0,43.65939,15.12609,-1.03132,9.34,0.29,2.06,3.0
1758088973.81799,1758088973.79653,0.0,0.0,0.0,44.28964,21.31403,-2.06265,9.49,0.63,2.05,3.0
1758088973.81938,1758088973.80653,0.0,0.0,0.0,44.40423,25.49662,-3.55234,9.49,0.63,2.05,3.0
1758088973.83489,1758088973.81653,0.0,0.0,0.0,44.17505,31.39809,-6.13065,9.16,0.72,2.23,3.0
1758088973.8361,1758088973.82653,0.0,0.0,0.0,43.54479,34.60666,-8.0787,9.16,0.72,2.23,3.0
1758088973.85088,1758088973.83653,0.0,0.0,0.0,42.91454,35.69527,-9.28192,8.9,0.62,2.19,3.0
1758088973.86691,1758088973.84653,0.0,0.0,0.0,42.22699,36.7266,-10.37054,8.9,0.62,2.19,3.0
1758088973.87053,1758088973.85653,0.0,0.0,0.0,41.02378,37.35685,-10.8289,8.8,0.5,2.19,3.0
1758088973.88606,1758088973.86653,0.0,0.0,0.0,40.39353,35.12231,-10.8289,8.35,0.5,2.08,3.0
1758088973.88964,1758088973.87653,0.0,0.0,0.0,40.39353,31.28349,-9.91217,8.35,0.5,2.08,3.0
1758088973.90525,1758088973.88653,0.0,0.0,0.0,39.4768,28.476,-9.22462,8.25,0.62,2.23,3.0
1758088973.90937,1758088973.89653,0.0,0.0,0.0,38.61736,24.29341,-7.67763,8.25,0.62,2.23,3.0
1758088973.92528,1758088973.90653,0.0,0.0,0.0,37.52874,22.63183,-6.87549,8.57,0.78,2.18,3.0
1758088973.9302,1758088973.91653,0.0,0.0,0.0,36.21093,21.02755,-7.04738,8.57,0.78,2.18,3.0
1758088973.94531,1758088973.92653,0.0,0.0,0.0,34.77854,18.85031,-7.33386,8.5,0.96,1.92,3.0
1758088973.95017,1758088973.93653,0.0,0.0,0.0,32.48671,14.66772,-8.47978,8.18,1.15,1.82,3.0
1758088973.96498,1758088973.94653,0.0,0.0,0.0,30.65324,12.89155,-9.5684,8.18,1.15,1.82,3.0
1758088973.97016,1758088973.95653,0.0,0.0,0.0,29.04896,11.91752,-10.25595,8.37,1.23,1.86,3.0
1758088973.98498,1758088973.96653,0.0,0.0,0.0,27.1582,10.65701,-10.48513,8.37,1.23,1.86,3.0
1758088973.98854,1758088973.97653,0.0,0.0,0.0,24.63719,9.11003,-9.4538,8.51,1.2,1.78,3.0
1758088974.05395,1758088973.98653,0.0,0.0,0.0,23.0329,7.73493,-8.02141,8.51,1.2,1.78,3.0
1758088974.05496,1758088973.99653,0.0,0.0,0.0,21.7151,6.53172,-6.07335,8.7,1.11,2.03,3.0
1758088974.0564,1758088974.00653,0.0,0.0,0.0,20.34,6.18794,-3.95341,8.7,1.11,2.03,3.0
1758088974.05999,1758088974.01653,0.0,0.0,0.0,18.50654,6.99009,-2.92208,8.96,0.97,2.07,3.0
1758088974.06145,1758088974.02653,0.0,0.0,0.0,17.24603,6.53172,-2.29183,8.93,0.92,2.07,3.0
1758088974.06459,1758088974.03653,0.0,0.0,0.0,16.04282,5.90147,-2.57831,8.93,0.92,2.07,3.0
1758088974.06644,1758088974.04653,0.0,0.0,0.0,13.98017,4.18259,-3.60963,8.83,0.98,1.96,3.0
1758088974.0701,1758088974.05653,0.0,0.0,0.0,12.08941,2.11994,-4.46907,8.83,0.98,1.96,3.0
1758088974.08507,1758088974.06653,0.0,0.0,0.0,10.02676,-0.74485,-5.4431,8.65,1.1,1.74,3.0
1758088974.08792,1758088974.07653,0.0,0.0,0.0,7.21927,-3.32316,-6.13065,8.65,1.1,1.74,3.0
1758088974.10407,1758088974.08653,0.0,0.0,0.0,2.6929,-4.58366,-5.95876,8.68,1.25,1.61,3.0
1758088974.10508,1758088974.09653,0.0,0.0,0.0,-0.34377,-4.1253,-4.87014,8.98,1.38,1.53,3.0
1758088974.12064,1758088974.10653,0.0,0.0,0.0,-3.60963,-2.63561,-3.20856,8.98,1.38,1.53,3.0
1758088974.13687,1758088974.11653,0.0,0.0,0.0,-6.99009,-1.08862,-0.97403,9.2,1.4,1.66,3.0
1758088974.13891,1758088974.12653,0.0,0.0,0.0,-11.86023,0.85944,1.08862,9.2,1.4,1.66,3.0
1758088974.15414,1758088974.13653,0.0,0.0,0.0,-15.0115,1.14592,1.3178,9.44,1.29,1.63,3.0
1758088974.15531,1758088974.14653,0.0,0.0,0.0,-17.36062,-1.71887,0.57296,9.44,1.29,1.63,3.0
1758088974.17339,1758088974.15653,0.0,0.0,0.0,-19.13679,-6.41713,-0.74485,9.59,1.25,1.56,3.0
1758088974.17438,1758088974.16653,0.0,0.0,0.0,-21.48592,-11.34457,-4.92744,9.73,1.31,1.55,3.0
1758088974.19066,1758088974.17653,0.0,0.0,0.0,-22.57454,-11.97482,-8.59437,9.73,1.31,1.55,3.0
1758088974.20787,1758088974.18653,0.0,0.0,0.0,-23.37668,-13.80828,-12.204,10.03,1.35,1.48,3.0
1758088974.21069,1758088974.19653,0.0,0.0,0.0,-24.23611,-19.13679,-14.49583,10.03,1.35,1.48,3.0
1758088974.22718,1758088974.20653,0.0,0.0,0.0,-24.57989,-24.4653,-16.10011,9.81,1.22,1.5,3.0
1758088974.22869,1758088974.21653,0.0,0.0,0.0,-23.66316,-35.69527,-15.0115,9.81,1.22,1.5,3.0
1758088974.24345,1758088974.22653,0.0,0.0,0.0,-23.31938,-55.11855,-16.95955,9.11,1.24,2.48,3.0
1758088974.24463,1758088974.23653,0.0,0.0,0.0,-18.56383,-68.01009,-19.59516,9.11,1.24,2.48,3.0
1758088974.26046,1758088974.24653,0.0,0.0,0.0,-13.98017,-40.45082,-23.0329,10.73,1.07,2.97,3.0
1758088974.27649,1758088974.25653,0.0,0.0,0.0,-10.54242,-25.55392,-23.66316,14.19,0.76,1.52,3.0
1758088974.27742,1758088974.26653,0.0,0.0,0.0,-7.50575,-9.74028,-25.61122,14.19,0.76,1.52,3.0
1758088974.29342,1758088974.27653,0.0,0.0,0.0,-6.07335,-1.3178,-24.86637,11.67,0.96,2.22,3.0
1758088974.29446,1758088974.28653,0.0,0.0,0.0,-6.47442,-2.00535,-21.7151,11.67,0.96,2.22,3.0
1758088974.3105,1758088974.29653,0.0,0.0,0.0,-7.73493,-3.26586,-17.81899,10.59,1.26,2.22,3.0
1758088974.32757,1758088974.30653,0.0,0.0,0.0,-9.28192,-0.17189,-12.83425,10.59,1.26,2.22,3.0
1758088974.32847,1758088974.31653,0.0,0.0,0.0,-12.2613,8.59437,-4.46907,12.08,1.67,2.58,3.0
1758088974.34645,1758088974.32653,0.0,0.0,0.0,-13.46451,15.12609,0.74485,13.25,1.74,2.88,3.0
1758088974.35325,1758088974.33653,0.0,0.0,0.0,-13.46451,19.76705,5.4431,13.25,1.74,2.88,3.0
1758088974.36835,1758088974.34653,0.0,0.0,0.0,-12.54778,22.00158,9.28192,13.42,1.46,3.29,3.0
1758088974.36941,1758088974.35653,0.0,0.0,0.0,-10.37054,24.23611,12.77696,13.42,1.46,3.29,3.0
1758088974.38464,1758088974.36653,0.0,0.0,0.0,-8.65166,22.34536,13.98017,13.73,1.13,3.49,3.0
1758088974.38548,1758088974.37653,0.0,0.0,0.0,-7.50575,17.24603,14.49583,13.73,1.13,3.49,3.0
1758088974.40458,1758088974.38653,0.0,0.0,0.0,-6.8182,9.91217,14.61043,13.33,1.08,3.88,3.0
1758088974.40979,1758088974.39653,0.0,0.0,0.0,-7.33386,-1.3178,13.86558,12.58,1.29,3.9,3.0
1758088974.4246,1758088974.40653,0.0,0.0,0.0,-8.47978,-8.136,13.12073,12.58,1.29,3.9,3.0
1758088974.42657,1758088974.41653,0.0,0.0,0.0,-10.71431,-14.72501,12.2613,11.41,1.44,3.72,3.0
1758088974.44131,1758088974.42653,0.0,0.0,0.0,-15.87093,-23.37668,10.8289,11.41,1.44,3.72,3.0
1758088974.45767,1758088974.43653,0.0,0.0,0.0,-19.99623,-38.44547,9.74028,9.4,1.4,3.67,3.0
1758088974.45853,1758088974.44653,0.0,0.0,0.0,-24.29341,-48.35764,8.59437,9.4,1.4,3.67,3.0
1758088974.47362,1758088974.45653,0.0,0.0,0.0,-28.76248,-57.0093,7.44845,7.98,1.27,3.72,3.0
1758088974.47532,1758088974.46653,0.0,0.0,0.0,-35.52338,-65.71826,5.61499,7.98,1.27,3.72,3.0
1758088974.4987,1758088974.47653,0.0,0.0,0.0,-40.04975,-69.27061,3.89611,7.65,1.14,3.41,3.0
1758088974.4999,1758088974.48653,0.0,0.0,0.0,-43.77398,-71.04677,2.57831,7.91,0.93,3.08,3.0
1758088974.51534,1758088974.49653,0.0,0.0,0.0,-47.44091,-71.10406,1.14592,7.91,0.93,3.08,3.0
1758088974.51683,1758088974.50653,0.0,0.0,0.0,-52.25375,-68.12468,-0.45837,8.44,0.59,2.57,3.0
1758088974.53214,1758088974.51653,0.0,0.0,0.0,-54.77477,-63.59832,-1.48969,8.44,0.59,2.57,3.0
1758088974.54848,1758088974.52653,0.0,0.0,0.0,-57.0093,-57.75415,-2.34913,8.99,0.19,1.96,3.0
1758088974.5496,1758088974.53653,0.0,0.0,0.0,-58.67088,-51.5662,-2.86479,8.99,0.19,1.96,3.0
1758088974.56468,1758088974.54653,0.0,0.0,0.0,-60.04598,-42.39888,-2.29183,9.0,-0.17,1.47,3.0
1758088974.5664,1758088974.55653,0.0,0.0,0.0,-60.38975,-34.77854,-1.14592,8.96,-0.43,1.24,3.0
1758088974.58164,1758088974.56653,0.0,0.0,0.0,-60.27517,-26.12688,0.57296,8.96,-0.43,1.24,3.0
1758088974.59741,1758088974.57653,0.0,0.0,0.0,-60.04598,-17.36062,3.26586,9.03,-0.5,0.99,3.0
1758088974.60018,1758088974.58653,0.0,0.0,0.0,-59.18654,-5.4431,7.96411,9.03,-0.5,0.99,3.0
1758088974.61562,1758088974.59653,0.0,0.0,0.0,-58.3844,1.60428,11.34457,8.92,-0.37,1.03,3.0
1758088974.61734,1758088974.60653,0.0,0.0,0.0,-57.75415,8.02141,14.78231,8.92,-0.37,1.03,3.0
1758088974.63249,1758088974.61653,0.0,0.0,0.0,-57.52497,14.38124,19.07949,8.82,-0.23,1.05,3.0
1758088974.63444,1758088974.62653,0.0,0.0,0.0,-57.58226,23.49127,20.79837,8.77,-0.12,1.04,3.0
1758088974.65073,1758088974.63653,0.0,0.0,0.0,-57.92604,27.61657,22.11617,8.77,-0.12,1.04,3.0
1758088974.66751,1758088974.64653,0.0,0.0,0.0,-58.09792,31.11161,22.28806,8.44,-0.06,1.08,3.0
1758088974.66866,1758088974.65653,0.0,0.0,0.0,-59.07195,34.0337,21.31403,8.44,-0.06,1.08,3.0
1758088974.68376,1758088974.66653,0.0,0.0,0.0,-59.41573,36.6693,21.42862,8.41,-0.13,1.13,3.0
1758088974.68467,1758088974.67653,0.0,0.0,0.0,-59.75951,39.24761,19.59516,8.41,-0.13,1.13,3.0
1758088974.70078,1758088974.68653,0.0,0.0,0.0,-59.75951,40.7946,17.36062,8.58,-0.34,1.1,3.0
1758088974.71672,1758088974.69653,0.0,0.0,0.0,-58.55629,41.94051,12.08941,8.58,-0.34,1.2,3.0
1758088974.71932,1758088974.70653,0.0,0.0,0.0,-57.18119,42.74266,6.47442,8.33,-0.63,1.2,3.0
1758088974.73444,1758088974.71653,0.0,0.0,0.0,-54.66018,41.99781,1.77617,8.3,-0.83,1.25,3.0
1758088974.73568,1758088974.72653,0.0,0.0,0.0,-51.27972,38.73195,-3.20856,8.3,-0.83,1.25,3.0
1758088974.75048,1758088974.73653,0.0,0.0,0.0,-45.03448,33.40344,-8.59437,8.21,-1.08,1.32,3.0
1758088974.76746,1758088974.74653,0.0,0.0,0.0,-40.7946,30.59595,-10.37054,8.21,-1.08,1.32,3.0
1758088974.77025,1758088974.75653,0.0,0.0,0.0,-37.01308,28.93437,-10.8289,8.64,-1.29,1.37,3.0
1758088974.78554,1758088974.76653,0.0,0.0,0.0,-33.74722,26.81443,-9.4538,8.64,-1.29,1.37,3.0
1758088974.78748,1758088974.77653,0.0,0.0,0.0,-29.56462,22.63183,-5.50039,8.84,-1.32,1.4,3.0
1758088974.80376,1758088974.78653,0.0,0.0,0.0,-27.2155,19.19409,-2.11994,8.76,-1.27,1.57,3.0
1758088974.80501,1758088974.79653,0.0,0.0,0.0,-25.15285,15.41257,1.14592,8.76,-1.27,1.57,3.0
1758088974.82159,1758088974.80653,0.0,0.0,0.0,-23.37668,10.54242,3.60963,8.64,-1.1,1.76,3.0
1758088974.83945,1758088974.81653,0.0,0.0,0.0,-20.85567,2.97938,5.84417,8.64,-1.1,1.76,3.0
1758088974.84049,1758088974.82653,0.0,0.0,0.0,-19.59516,-1.20321,6.35983,8.72,-0.77,1.89,3.0
1758088974.85562,1758088974.83653,0.0,0.0,0.0,-18.33465,-4.52637,5.50039,8.72,-0.77,1.89,3.0
1758088974.85679,1758088974.84653,0.0,0.0,0.0,-17.18874,-7.73493,2.63561,8.95,-0.5,1.72,3.0
1758088974.87184,1758088974.85653,0.0,0.0,0.0,-16.04282,-11.11538,0.57296,9.02,-0.43,1.39,3.0
1758088974.8878,1758088974.86653,0.0,0.0,0.0,-14.66772,-9.96947,-2.06265,9.02,-0.43,1.39,3.0
1758088974.88961,1758088974.87653,0.0,0.0,0.0,-12.83425,-6.24524,-4.46907,9.35,-0.56,1.14,3.0
1758088974.90488,1758088974.88653,0.0,0.0,0.0,-9.4538,0.51566,-8.30789,9.35,-0.56,1.14,3.0
1758088974.90578,1758088974.89653,0.0,0.0,0.0,-6.87549,3.60963,-10.54242,9.44,-0.77,1.1,3.0
1758088974.92062,1758088974.90653,0.0,0.0,0.0,-4.46907,5.72958,-12.08941,9.44,-0.77,1.1,3.0
1758088974.93768,1758088974.91653,0.0,0.0,0.0,-2.11994,7.84952,-12.89155,9.35,-0.97,1.05,3.0
1758088974.93921,1758088974.92653,0.0,0.0,0.0,0.97403,10.54242,-12.49048,9.48,-1.06,1.16,3.0
1758088974.95398,1758088974.93653,0.0,0.0,0.0,2.92208,9.91217,-10.71431,9.48,-1.06,1.16,3.0
1758088974.95485,1758088974.94653,0.0,0.0,0.0,4.35448,6.35983,-8.30789,9.29,-0.97,1.6,3.0
1758088974.97061,1758088974.95653,0.0,0.0,0.0,5.61499,0.85944,-5.09932,9.29,-0.97,1.6,3.0
1758088974.98763,1758088974.96653,0.0,0.0,0.0,7.62034,-6.8182,-0.17189,9.18,-0.85,1.69,3.0
1758088974.98905,1758088974.97653,0.0,0.0,0.0,8.99544,-10.25595,2.6929,9.18,-0.85,1.69,3.0
1758088975.00389,1758088974.98653,0.0,0.0,0.0,10.02676,-12.54778,5.4431,9.59,-0.85,1.66,3.0
1758088975.00508,1758088974.99653,0.0,0.0,0.0,10.8862,-13.86558,7.79223,9.59,-0.85,1.66,3.0
1758088975.02246,1758088975.00653,0.0,0.0,0.0,11.28727,-14.78231,9.96947,9.96,-0.84,1.23,3.0
1758088975.03896,1758088975.01653,0.0,0.0,0.0,11.17268,-15.35527,10.25595,10.33,-0.8,0.86,3.0
1758088975.03989,1758088975.02653,0.0,0.0,0.0,10.59972,-16.84496,8.88085,10.33,-0.8,0.86,3.0
1758088975.05469,1758088975.03653,0.0,0.0,0.0,9.05273,-24.17882,5.27121,10.07,-0.85,1.54,3.0
1758088975.05589,1758088975.04653,0.0,0.0,0.0,6.7609,-21.88699,4.0107,10.07,-0.85,1.54,3.0
1758088975.07069,1758088975.05653,0.0,0.0,0.0,3.49504,-8.30789,5.09932,11.73,-0.85,1.7,3.0
1758088975.08781,1758088975.06653,0.0,0.0,0.0,-0.80214,10.94349,3.72423,11.73,-0.85,1.7,3.0
1758088975.08892,1758088975.07653,0.0,0.0,0.0,-4.64096,12.2613,4.1253,13.02,-0.42,1.55,3.0
1758088975.10391,1758088975.08653,0.0,0.0,0.0,-9.4538,1.83346,3.66693,10.62,0.25,1.79,3.0
1758088975.10488,1758088975.09653,0.0,0.0,0.0,-11.22997,-6.58902,6.58902,10.62,0.25,1.79,3.0
1758088975.17003,1758088975.10653,0.0,0.0,0.0,-12.60507,-2.34913,7.39116,13.13,0.39,2.09,3.0
1758088975.17436,1758088975.11653,0.0,0.0,0.0,-13.00614,12.60507,7.44845,13.13,0.39,2.09,3.0
1758088975.17481,1758088975.12653,0.0,0.0,0.0,-12.54778,23.0902,6.99009,14.67,-0.27,2.37,3.0
1758088975.17611,1758088975.13653,0.0,0.0,0.0,-11.97482,27.84575,5.72958,14.67,-0.27,2.37,3.0
1758088975.17921,1758088975.14653,0.0,0.0,0.0,-11.86023,30.36677,3.95341,13.88,-1.29,2.92,3.0
1758088975.18039,1758088975.15653,0.0,0.0,0.0,-12.71966,35.58068,-0.11459,14.22,-1.6,3.27,3.0
1758088975.18178,1758088975.16653,0.0,0.0,0.0,-13.34992,37.92981,-3.09397,14.22,-1.6,3.27,3.0
1758088975.19927,1758088975.17653,0.0,0.0,0.0,-13.23533,38.61736,-6.24524,14.42,-1.13,3.5,3.0
1758088975.2013,1758088975.18653,0.0,0.0,0.0,-12.2613,37.92981,-8.88085,14.42,-1.13,3.5,3.0
1758088975.21693,1758088975.19653,0.0,0.0,0.0,-8.88085,34.14828,-11.86023,13.81,-0.76,3.34,3.0
1758088975.21806,1758088975.20653,0.0,0.0,0.0,-5.55769,28.70519,-13.23533,13.81,-0.76,3.34,3.0
1758088975.23286,1758088975.21653,0.0,0.0,0.0,-1.60428,23.0329,-14.38124,12.39,-0.57,3.09,3.0
1758088975.24885,1758088975.22653,0.0,0.0,0.0,2.97938,16.55848,-15.06879,12.39,-0.57,3.09,3.0
1758088975.2503,1758088975.23653,0.0,0.0,0.0,9.22462,5.55769,-14.61043,10.72,-0.56,2.86,3.0
1758088975.26509,1758088975.24653,0.0,0.0,0.0,13.23533,-0.45837,-13.80828,9.04,-0.59,2.85,3.0
1758088975.27032,1758088975.25653,0.0,0.0,0.0,16.55848,-6.13065,-12.54778,9.04,-0.59,2.85,3.0
1758088975.28484,1758088975.26653,0.0,0.0,0.0,20.51189,-19.07949,-10.25595,7.38,-0.57,2.83,3.0
1758088975.28601,1758088975.27653,0.0,0.0,0.0,21.88699,-32.54401,-8.99544,7.38,-0.57,2.83,3.0
1758088975.30166,1758088975.28653,0.0,0.0,0.0,22.11617,-46.63877,-8.70896,5.61,-0.48,2.88,3.0
1758088975.31862,1758088975.29653,0.0,0.0,0.0,21.7724,-58.21251,-9.05273,5.61,-0.48,2.88,3.0
1758088975.31988,1758088975.30653,0.0,0.0,0.0,20.62648,-68.92683,-9.74028,5.77,-0.23,2.71,3.0
1758088975.33479,1758088975.31653,0.0,0.0,0.0,19.76705,-72.07809,-9.96947,7.27,0.13,2.64,3.0
1758088975.33638,1758088975.32653,0.0,0.0,0.0,18.90761,-72.53646,-9.74028,7.27,0.13,2.64,3.0
1758088975.39485,1758088975.33653,0.0,0.0,0.0,18.73572,-70.6457,-8.70896,8.65,0.39,2.3,3.0
1758088975.39736,1758088975.34653,0.0,0.0,0.0,18.79302,-65.83286,-7.16197,8.65,0.39,2.3,3.0
1758088975.40205,1758088975.35653,0.0,0.0,0.0,19.88164,-62.91077,-5.15662,8.84,0.43,1.89,3.0
1758088975.4048,1758088975.36653,0.0,0.0,0.0,20.97026,-58.78547,-3.20856,8.84,0.43,1.89,3.0
1758088975.40546,1758088975.37653,0.0,0.0,0.0,21.94428,-53.05589,-1.71887,8.81,0.4,1.78,3.0
1758088975.41256,1758088975.38653,0.0,0.0,0.0,22.11617,-41.99781,-0.57296,8.83,0.55,1.86,3.0
1758088975.41302,1758088975.39653,0.0,0.0,0.0,21.88699,-34.60666,-1.14592,8.83,0.55,1.86,3.0
1758088975.42881,1758088975.40653,0.0,0.0,0.0,21.14215,-26.87172,-2.63561,8.96,0.77,1.81,3.0
1758088975.4333,1758088975.41653,0.0,0.0,0.0,20.68378,-19.13679,-4.81285,8.96,0.77,1.81,3.0
1758088975.44972,1758088975.42653,0.0,0.0,0.0,20.79837,-7.50575,-8.88085,9.47,0.74,1.52,3.0
1758088975.45813,1758088975.43653,0.0,0.0,0.0,20.79837,-0.74485,-11.34457,9.47,0.74,1.52,3.0
1758088975.45871,1758088975.44653,0.0,0.0,0.0,20.79837,5.21392,-13.80828,9.37,0.45,1.47,3.0
1758088975.4752,1758088975.45653,0.0,0.0,0.0,21.25674,10.71431,-16.73037,9.37,0.45,1.47,3.0
1758088975.47709,1758088975.46653,0.0,0.0,0.0,22.05888,17.18874,-16.90226,9.01,0.16,1.44,3.0
1758088975.49394,1758088975.47653,0.0,0.0,0.0,22.91831,20.85567,-16.50119,8.75,0.01,1.42,3.0
1758088975.49513,1758088975.48653,0.0,0.0,0.0,24.29341,24.17882,-15.06879,8.75,0.01,1.42,3.0
1758088975.51204,1758088975.49653,0.0,0.0,0.0,27.04361,26.69983,-12.60507,8.43,0.01,1.22,3.0
1758088975.52793,1758088975.50653,0.0,0.0,0.0,28.93437,24.57989,-8.88085,8.43,0.01,1.22,3.0
1758088975.53074,1758088975.51653,0.0,0.0,0.0,30.02299,22.51724,-6.41713,8.0,0.29,1.36,3.0
1758088975.54787,1758088975.52653,0.0,0.0,0.0,31.2262,22.28806,-2.97938,8.0,0.29,1.36,3.0
1758088975.5499,1758088975.53653,0.0,0.0,0.0,30.93972,22.28806,-0.11459,8.54,0.73,1.24,3.0
1758088975.56529,1758088975.54653,0.0,0.0,0.0,30.25217,20.51189,1.43239,8.55,1.11,0.95,3.0
1758088975.56696,1758088975.55653,0.0,0.0,0.0,28.64789,18.44924,2.23454,8.55,1.11,0.95,3.0
1758088975.58198,1758088975.56653,0.0,0.0,0.0,26.52795,17.47521,2.11994,8.59,1.28,1.05,3.0
1758088975.59878,1758088975.57653,0.0,0.0,0.0,22.97561,17.13144,1.14592,8.59,1.28,1.05,3.0
1758088975.6003,1758088975.58653,0.0,0.0,0.0,20.68378,15.06879,0.11459,8.68,1.27,1.05,3.0
1758088975.61507,1758088975.59653,0.0,0.0,0.0,18.27736,12.89155,-0.85944,8.68,1.27,1.05,3.0
1758088975.61782,1758088975.60653,0.0,0.0,0.0,16.21471,11.28727,-2.23454,8.62,1.14,1.1,3.0
1758088975.63303,1758088975.61653,0.0,0.0,0.0,13.98017,10.25595,-3.20856,8.96,0.96,1.07,3.0
1758088975.64902,1758088975.62653,0.0,0.0,0.0,12.89155,9.74028,-3.49504,8.96,0.96,1.07,3.0
1758088975.65029,1758088975.63653,0.0,0.0,0.0,12.204,9.62569,-3.32316,9.28,0.78,1.21,3.0
1758088975.66699,1758088975.64653,0.0,0.0,0.0,11.86023,8.36518,-3.26586,9.28,0.78,1.21,3.0
1758088975.66826,1758088975.65653,0.0,0.0,0.0,11.91752,8.47978,-2.6929,9.49,0.65,1.3,3.0
1758088975.68307,1758088975.66653,0.0,0.0,0.0,12.08941,8.02141,-2.57831,9.49,0.65,1.3,3.0
1758088975.68505,1758088975.67653,0.0,0.0,0.0,11.91752,6.87549,-2.40642,9.51,0.61,1.49,3.0
1758088975.70528,1758088975.68653,0.0,0.0,0.0,11.17268,4.98473,-2.23454,9.51,0.61,1.49,3.0
1758088975.70953,1758088975.69653,0.0,0.0,0.0,10.02676,3.03668,-2.23454,9.28,0.71,1.41,3.0
1758088975.72532,1758088975.70653,0.0,0.0,0.0,8.47978,-0.40107,-2.46372,8.95,0.88,1.24,3.0
1758088975.72703,1758088975.71653,0.0,0.0,0.0,6.24524,-2.06265,-2.57831,8.95,0.88,1.24,3.0
1758088975.74389,1758088975.72653,0.0,0.0,0.0,2.06265,-1.3751,-2.29183,9.07,1.09,0.91,3.0
1758088975.75949,1758088975.73653,0.0,0.0,0.0,-0.85944,-0.45837,-1.60428,9.07,1.09,0.91,3.0
1758088975.7603,1758088975.74653,0.0,0.0,0.0,-4.29718,0.0,-0.51566,9.14,1.3,0.64,3.0
1758088975.77502,1758088975.75653,0.0,0.0,0.0,-7.62034,-0.40107,1.08862,9.14,1.3,0.64,3.0
1758088975.77624,1758088975.76653,0.0,0.0,0.0,-12.14671,-1.43239,3.03668,9.21,1.42,0.41,3.0
1758088975.7911,1758088975.77653,0.0,0.0,0.0,-14.78231,-2.06265,3.66693,9.69,1.43,0.55,3.0
1758088975.80832,1758088975.78653,0.0,0.0,0.0,-17.01685,-2.92208,3.26586,9.69,1.43,0.55,3.0
1758088975.80936,1758088975.79653,0.0,0.0,0.0,-18.73572,-5.4431,1.48969,9.97,1.35,0.81,3.0
1758088975.82414,1758088975.80653,0.0,0.0,0.0,-20.05352,-13.5218,-1.66158,9.97,1.35,0.81,3.0
1758088975.82539,1758088975.81653,0.0,0.0,0.0,-20.3973,-18.50654,-4.1253,9.7,1.18,0.72,3.0
1758088975.84322,1758088975.82653,0.0,0.0,0.0,-20.97026,-20.85567,-7.33386,9.7,1.18,0.72,3.0
1758088975.86046,1758088975.83653,0.0,0.0,0.0,-21.31403,-21.60051,-10.25595,9.89,1.08,0.83,3.0
1758088975.86066,1758088975.84653,0.0,0.0,0.0,-21.60051,-26.12688,-14.43854,9.8,1.03,0.75,3.0
1758088975.87628,1758088975.85653,0.0,0.0,0.0,-21.6578,-30.13758,-15.92823,9.8,1.03,0.75,3.0
1758088975.87738,1758088975.86653,0.0,0.0,0.0,-20.97026,-31.79916,-16.67307,9.76,1.01,0.69,3.0
1758088975.8942,1758088975.87653,0.0,0.0,0.0,-21.25674,-30.02299,-15.92823,9.76,1.01,0.69,3.0
1758088975.89539,1758088975.88653,0.0,0.0,0.0,-20.79837,-22.97561,-14.49583,10.54,1.04,0.68,3.0
1758088975.91221,1758088975.89653,0.0,0.0,0.0,-19.76705,-18.79302,-13.5218,10.54,1.04,0.68,3.0
1758088975.92848,1758088975.90653,0.0,0.0,0.0,-16.61578,-15.92823,-10.25595,10.99,1.13,1.76,3.0
1758088975.92942,1758088975.91653,0.0,0.0,0.0,-11.74564,-27.1582,-11.74564,10.99,1.13,1.76,3.0
1758088975.94434,1758088975.92653,0.0,0.0,0.0,-8.136,-25.21014,-16.10011,10.55,1.24,2.32,3.0
1758088975.94544,1758088975.93653,0.0,0.0,0.0,-4.58366,-17.30333,-17.6471,11.96,1.12,1.06,3.0
1758088975.96723,1758088975.94653,0.0,0.0,0.0,-2.63561,-1.3751,-18.79302,11.96,1.12,1.06,3.0
1758088975.96843,1758088975.95653,0.0,0.0,0.0,-2.97938,18.62113,-17.47521,12.62,1.06,0.45,3.0
1758088975.98421,1758088975.96653,0.0,0.0,0.0,-4.46907,28.70519,-15.58445,12.62,1.06,0.45,3.0
1758088975.98533,1758088975.97653,0.0,0.0,0.0,-6.47442,36.26823,-12.83425,12.25,0.97,1.16,3.0
1758088976.0013,1758088975.98653,0.0,0.0,0.0,-8.47978,39.4768,-9.74028,12.25,0.97,1.16,3.0
1758088976.01727,1758088975.99653,0.0,0.0,0.0,-12.204,42.68536,-6.07335,12.49,1.22,1.56,3.0
1758088976.01847,1758088976.00653,0.0,0.0,0.0,-14.49583,43.54479,-4.64096,13.63,1.77,2.28,3.0
1758088976.03508,1758088976.01653,0.0,0.0,0.0,-15.87093,44.57612,-3.95341,13.63,1.77,2.28,3.0
