timeStamp,timeStampAlign,roll,pitch,yaw,gyro_x,gyro_y,gyro_z,acc_x,acc_y,acc_z,flag_num
1758079552.19653,1758079551.96701,0.0,0.0,0.0,2.34913,-12.49048,5.84417,8.94,1.29,0.49,4.0
1758079552.19852,1758079551.97701,0.0,0.0,0.0,0.57296,-11.63104,6.99009,8.94,1.29,0.49,4.0
1758079552.21392,1758079551.98701,0.0,0.0,0.0,-0.68755,-11.45916,7.79223,9.26,1.43,0.51,4.0
1758079552.21837,1758079551.99701,0.0,0.0,0.0,-1.71887,-11.00079,8.42248,9.26,1.43,0.51,4.0
1758079552.23424,1758079552.00701,0.0,0.0,0.0,-2.86479,-10.54242,9.05273,9.42,1.42,0.5,4.0
1758079552.23842,1758079552.01701,0.0,0.0,0.0,-3.38045,-9.22462,9.11003,9.57,1.3,0.35,4.0
1758079552.25397,1758079552.02701,0.0,0.0,0.0,-3.95341,-8.25059,9.22462,9.57,1.3,0.35,4.0
1758079552.25681,1758079552.03701,0.0,0.0,0.0,-4.35448,-7.04738,9.05273,9.65,1.18,0.27,4.0
1758079552.27424,1758079552.04701,0.0,0.0,0.0,-4.98473,-5.21392,8.65166,9.65,1.18,0.27,4.0
1758079552.27688,1758079552.05701,0.0,0.0,0.0,-5.21392,-4.46907,8.36518,9.65,1.1,0.28,4.0
1758079552.29413,1758079552.06701,0.0,0.0,0.0,-5.15662,-4.23989,8.136,9.65,1.1,0.28,4.0
1758079552.31022,1758079552.07701,0.0,0.0,0.0,-5.21392,-4.0107,8.0787,9.62,1.08,0.27,4.0
1758079552.31168,1758079552.08701,0.0,0.0,0.0,-4.92744,-4.69825,7.96411,9.59,1.08,0.17,4.0
1758079552.34922,1758079552.09701,0.0,0.0,0.0,-4.64096,-5.61499,7.96411,9.59,1.08,0.17,4.0
1758079552.35328,1758079552.10701,0.0,0.0,0.0,-4.29718,-6.47442,8.42248,9.6,1.1,0.11,4.0
1758079552.35393,1758079552.11701,0.0,0.0,0.0,-4.1253,-3.26586,8.36518,9.6,1.1,0.11,4.0
1758079552.36157,1758079552.12701,0.0,0.0,0.0,-3.38045,0.68755,8.36518,9.91,1.14,0.2,4.0
1758079552.36289,1758079552.13701,0.0,0.0,0.0,-3.26586,1.94806,8.136,9.91,1.14,0.2,4.0
1758079552.36736,1758079552.14701,0.0,0.0,0.0,-3.03668,2.40642,7.84952,9.43,1.15,0.3,4.0
1758079552.38383,1758079552.15701,0.0,0.0,0.0,-2.57831,2.00535,7.73493,9.43,1.15,0.3,4.0
1758079552.38819,1758079552.16701,0.0,0.0,0.0,-2.06265,-0.17189,7.16197,8.93,1.13,0.17,4.0
1758079552.40902,1758079552.17701,0.0,0.0,0.0,-1.3751,-2.40642,6.47442,8.49,1.14,-0.16,4.0
1758079552.41267,1758079552.18701,0.0,0.0,0.0,-0.97403,-5.27121,5.90147,8.49,1.14,-0.16,4.0
1758079552.42829,1758079552.19701,0.0,0.0,0.0,-0.11459,-9.39651,5.32851,8.11,1.17,-0.3,4.0
1758079552.42925,1758079552.20701,0.0,0.0,0.0,0.97403,-18.10547,4.87014,8.11,1.17,-0.3,4.0
1758079552.44435,1758079552.21701,0.0,0.0,0.0,1.60428,-23.89234,4.58366,7.53,1.33,-0.27,4.0
1758079552.46008,1758079552.22701,0.0,0.0,0.0,1.43239,-29.04896,4.58366,7.53,1.33,-0.27,4.0
1758079552.46239,1758079552.23701,0.0,0.0,0.0,0.40107,-37.18496,4.92744,7.0,1.39,0.29,4.0
1758079552.47813,1758079552.24701,0.0,0.0,0.0,-1.60428,-41.08107,4.92744,6.33,1.18,1.12,4.0
1758079552.47905,1758079552.25701,0.0,0.0,0.0,-3.95341,-44.8053,4.98473,6.33,1.18,1.12,4.0
1758079552.49907,1758079552.26701,0.0,0.0,0.0,-6.7609,-46.69606,4.46907,6.25,0.43,1.68,4.0
1758079552.50264,1758079552.27701,0.0,0.0,0.0,-8.36518,-51.6235,2.11994,6.25,0.43,1.68,4.0
1758079552.51901,1758079552.28701,0.0,0.0,0.0,-10.02676,-69.55708,0.57296,6.47,-0.67,2.71,4.0
1758079552.52247,1758079552.29701,0.0,0.0,0.0,-9.39651,-81.93298,0.0,6.47,-0.67,2.71,4.0
1758079552.56402,1758079552.30701,0.0,0.0,0.0,-5.21392,-81.07353,0.97403,9.67,-1.71,3.83,4.0
1758079552.56558,1758079552.31701,0.0,0.0,0.0,1.14592,-58.55629,-2.06265,17.87,-3.07,3.92,4.0
1758079552.56595,1758079552.32701,0.0,0.0,0.0,7.33386,-33.11696,-2.63561,17.87,-3.07,3.92,4.0
1758079552.56709,1758079552.33701,0.0,0.0,0.0,15.58445,-14.9542,-0.74485,20.92,-4.07,2.82,4.0
1758079552.56777,1758079552.34701,0.0,0.0,0.0,24.35071,-24.00693,2.63561,20.92,-4.07,2.82,4.0
1758079552.5831,1758079552.35701,0.0,0.0,0.0,26.35606,-31.28349,3.38045,15.73,-2.97,1.21,4.0
1758079552.59912,1758079552.36701,0.0,0.0,0.0,23.49127,-29.39274,3.89611,15.73,-2.97,1.21,4.0
1758079552.60118,1758079552.37701,0.0,0.0,0.0,22.68913,-15.06879,6.07335,16.72,-0.75,-0.36,4.0
1758079552.61633,1758079552.38701,0.0,0.0,0.0,22.28806,9.22462,8.47978,16.72,-0.75,-0.36,4.0
1758079552.61764,1758079552.39701,0.0,0.0,0.0,20.51189,45.83662,11.45916,17.4,0.9,-0.15,4.0
1758079552.6332,1758079552.40701,0.0,0.0,0.0,18.22006,66.46311,11.80293,14.49,1.42,0.65,4.0
1758079552.64939,1758079552.41701,0.0,0.0,0.0,14.66772,79.98491,9.22462,14.49,1.42,0.65,4.0
1758079552.65112,1758079552.42701,0.0,0.0,0.0,10.19865,73.3386,9.11003,10.51,1.55,0.19,4.0
1758079552.66641,1758079552.43701,0.0,0.0,0.0,7.39116,53.51426,7.96411,10.51,1.55,0.19,4.0
1758079552.66733,1758079552.44701,0.0,0.0,0.0,3.09397,49.38896,3.72423,8.93,1.3,-0.16,4.0
1758079552.6821,1758079552.45701,0.0,0.0,0.0,0.51566,59.75951,0.0,8.93,1.3,-0.16,4.0
1758079552.6982,1758079552.46701,0.0,0.0,0.0,-2.46372,74.54182,-6.07335,10.78,0.76,-0.94,4.0
1758079552.69933,1758079552.47701,0.0,0.0,0.0,-4.35448,73.68237,-10.02676,9.03,0.11,1.07,4.0
1758079552.7148,1758079552.48701,0.0,0.0,0.0,-6.18794,66.74959,-13.5218,9.03,0.11,1.07,4.0
1758079552.73019,1758079552.49701,0.0,0.0,0.0,-7.44845,56.952,-15.87093,7.77,-0.41,1.27,4.0
1758079552.73143,1758079552.50701,0.0,0.0,0.0,-7.73493,39.3622,-17.13144,7.77,-0.41,1.27,4.0
1758079552.74615,1758079552.51701,0.0,0.0,0.0,-6.8182,28.13223,-16.21471,7.53,-0.75,0.25,4.0
1758079552.74778,1758079552.52701,0.0,0.0,0.0,-5.72958,19.19409,-13.80828,7.53,-0.75,0.25,4.0
1758079552.76235,1758079552.53701,0.0,0.0,0.0,-5.90147,17.01685,-13.12073,7.76,-1.09,-0.01,4.0
1758079552.77818,1758079552.54701,0.0,0.0,0.0,-2.40642,43.83128,-12.08941,9.35,-1.26,0.11,4.0
1758079552.78023,1758079552.55701,0.0,0.0,0.0,0.51566,66.29122,-10.65701,9.35,-1.26,0.11,4.0
1758079552.79518,1758079552.56701,0.0,0.0,0.0,3.66693,64.80153,-8.93814,7.69,-0.96,1.95,4.0
1758079552.79719,1758079552.57701,0.0,0.0,0.0,7.79223,39.3622,-6.8182,7.69,-0.96,1.95,4.0
1758079552.8122,1758079552.58701,0.0,0.0,0.0,10.59972,15.87093,-4.98473,4.49,-0.55,1.37,4.0
1758079552.82896,1758079552.59701,0.0,0.0,0.0,13.12073,15.87093,-5.27121,4.49,-0.55,1.37,4.0
1758079552.8302,1758079552.60701,0.0,0.0,0.0,16.50119,14.43854,-4.81285,7.17,-0.37,-0.73,4.0
1758079552.84545,1758079552.61701,0.0,0.0,0.0,20.62648,10.59972,-3.89611,7.17,-0.37,-0.73,4.0
1758079552.8464,1758079552.62701,0.0,0.0,0.0,26.69983,5.78687,-3.72423,6.86,-0.73,-0.43,4.0
1758079552.86217,1758079552.63701,0.0,0.0,0.0,30.65324,0.68755,-4.52637,7.28,-1.03,0.17,4.0
1758079552.87828,1758079552.64701,0.0,0.0,0.0,34.09099,-5.72958,-5.4431,7.28,-1.03,0.17,4.0
1758079552.87938,1758079552.65701,0.0,0.0,0.0,38.44547,-14.38124,-6.87549,7.52,-1.19,-0.21,4.0
1758079552.89454,1758079552.66701,0.0,0.0,0.0,39.99245,-18.10547,-8.47978,7.52,-1.19,-0.21,4.0
1758079552.91027,1758079552.67701,0.0,0.0,0.0,41.31026,-22.51724,-8.88085,8.06,-1.05,-0.39,4.0
1758079552.91275,1758079552.68701,0.0,0.0,0.0,41.65404,-26.06958,-9.62569,8.06,-1.05,-0.39,4.0
1758079552.92829,1758079552.69701,0.0,0.0,0.0,41.25296,-26.87172,-9.5684,8.27,-0.62,-0.55,4.0
1758079552.92942,1758079552.70701,0.0,0.0,0.0,40.7946,-25.89769,-8.65166,8.8,-0.21,-0.25,4.0
1758079552.9475,1758079552.71701,0.0,0.0,0.0,39.76327,-24.23611,-7.62034,8.8,-0.21,-0.25,4.0
1758079552.94868,1758079552.72701,0.0,0.0,0.0,37.81522,-22.91831,-6.7609,8.88,0.24,-0.2,4.0
1758079552.96321,1758079552.73701,0.0,0.0,0.0,33.80451,-23.0329,-5.95876,8.88,0.24,-0.2,4.0
1758079552.97943,1758079552.74701,0.0,0.0,0.0,30.36677,-24.86637,-5.95876,8.71,0.67,0.01,4.0
1758079552.97991,1758079552.75701,0.0,0.0,0.0,26.18417,-27.73116,-5.50039,8.71,0.67,0.01,4.0
1758079552.99744,1758079552.76701,0.0,0.0,0.0,22.05888,-32.20023,-5.4431,8.58,1.01,-0.07,4.0
1758079552.99845,1758079552.77701,0.0,0.0,0.0,14.78231,-40.7946,-5.4431,8.48,1.25,0.09,4.0
1758079553.01321,1758079552.78701,0.0,0.0,0.0,10.37054,-47.09713,-5.50039,8.48,1.25,0.09,4.0
1758079553.03057,1758079552.79701,0.0,0.0,0.0,6.24524,-54.02992,-5.72958,8.17,1.21,0.25,4.0
1758079553.03097,1758079552.80701,0.0,0.0,0.0,2.6929,-60.61894,-6.18794,8.17,1.21,0.25,4.0
1758079553.04778,1758079552.81701,0.0,0.0,0.0,0.34377,-68.29657,-6.99009,7.3,0.7,0.84,4.0
1758079553.04846,1758079552.82701,0.0,0.0,0.0,0.45837,-71.04677,-7.33386,7.3,0.7,0.84,4.0
1758079553.06323,1758079552.83701,0.0,0.0,0.0,1.08862,-69.78626,-9.74028,6.63,0.09,1.49,4.0
1758079553.0793,1758079552.84701,0.0,0.0,0.0,5.15662,-78.43793,-12.43318,6.63,0.09,1.49,4.0
1758079553.07981,1758079552.85701,0.0,0.0,0.0,6.99009,-78.55252,-12.71966,6.45,0.2,2.45,4.0
1758079553.09526,1758079552.86701,0.0,0.0,0.0,8.25059,-67.37984,-12.77696,10.03,1.01,2.58,4.0
1758079553.09731,1758079552.87701,0.0,0.0,0.0,9.68299,-53.62885,-10.54242,10.03,1.01,2.58,4.0
1758079553.11309,1758079552.88701,0.0,0.0,0.0,10.19865,-32.6013,-5.09932,14.12,1.74,3.1,4.0
1758079553.12929,1758079552.89701,0.0,0.0,0.0,8.02141,-8.88085,0.51566,14.12,1.74,3.1,4.0
1758079553.12984,1758079552.90701,0.0,0.0,0.0,1.03132,20.97026,7.16197,20.07,3.13,5.13,4.0
1758079553.14707,1758079552.91701,0.0,0.0,0.0,-8.30789,15.87093,8.42248,20.07,3.13,5.13,4.0
1758079553.14832,1758079552.92701,0.0,0.0,0.0,0.85944,-52.71212,24.86637,17.76,4.43,1.46,4.0
1758079553.16326,1758079552.93701,0.0,0.0,0.0,8.59437,-75.85962,38.56006,14.99,2.97,-3.19,4.0
1758079553.17983,1758079552.94701,0.0,0.0,0.0,-0.22918,-26.41335,27.10091,14.99,2.97,-3.19,4.0
1758079553.18027,1758079552.95701,0.0,0.0,0.0,7.10468,41.71133,30.76784,22.41,-0.1,-4.02,4.0
1758079553.19534,1758079552.96701,0.0,0.0,0.0,5.95876,87.54795,11.51645,22.41,-0.1,-4.02,4.0
1758079553.19765,1758079552.97701,0.0,0.0,0.0,2.97938,94.59533,-4.46907,13.73,-1.12,2.06,4.0
1758079553.21237,1758079552.98701,0.0,0.0,0.0,2.57831,101.35624,-14.49583,13.73,-1.12,2.06,4.0
1758079553.22841,1758079552.99701,0.0,0.0,0.0,3.09397,103.53348,-20.11082,11.95,-0.52,3.03,4.0
1758079553.2296,1758079553.00701,0.0,0.0,0.0,3.95341,86.40204,-22.63183,11.78,0.95,0.15,4.0
1758079553.24467,1758079553.01701,0.0,0.0,0.0,4.81285,71.90621,-20.45459,11.78,0.95,0.15,4.0
1758079553.24555,1758079553.02701,0.0,0.0,0.0,5.61499,60.33246,-15.35527,11.89,2.08,-0.25,4.0
1758079553.2609,1758079553.03701,0.0,0.0,0.0,8.136,53.68615,-4.81285,11.89,2.08,-0.25,4.0
1758079553.27664,1758079553.04701,0.0,0.0,0.0,7.79223,46.35228,1.08862,11.73,2.04,-0.32,4.0
1758079553.27753,1758079553.05701,0.0,0.0,0.0,6.58902,63.25455,4.18259,11.73,2.04,-0.32,4.0
1758079553.29262,1758079553.06701,0.0,0.0,0.0,1.71887,83.76643,6.07335,12.05,1.61,0.61,4.0
1758079553.30832,1758079553.07701,0.0,0.0,0.0,-1.03132,84.51128,8.65166,12.05,1.61,0.61,4.0
1758079553.31071,1758079553.08701,0.0,0.0,0.0,-2.29183,71.44785,7.16197,8.99,1.19,1.81,4.0
1758079553.32538,1758079553.09701,0.0,0.0,0.0,-2.63561,56.89471,6.7609,6.03,0.94,2.09,4.0
1758079553.32737,1758079553.10701,0.0,0.0,0.0,-2.11994,46.52417,4.92744,6.03,0.94,2.09,4.0
1758079553.34262,1758079553.11701,0.0,0.0,0.0,-1.77617,33.00237,1.71887,6.42,0.95,0.3,4.0
1758079553.35866,1758079553.12701,0.0,0.0,0.0,-1.60428,25.49662,-0.51566,6.42,0.95,0.3,4.0
1758079553.36071,1758079553.13701,0.0,0.0,0.0,-1.77617,18.85031,-2.40642,6.46,1.15,0.42,4.0
1758079553.37546,1758079553.14701,0.0,0.0,0.0,-2.46372,12.14671,-3.95341,6.46,1.15,0.42,4.0
1758079553.37653,1758079553.15701,0.0,0.0,0.0,-4.29718,3.32316,-4.58366,6.29,1.42,0.22,4.0
1758079553.39381,1758079553.16701,0.0,0.0,0.0,-5.78687,-2.29183,-4.23989,6.19,1.67,0.06,4.0
1758079553.3947,1758079553.17701,0.0,0.0,0.0,-7.79223,-7.16197,-3.55234,6.19,1.67,0.06,4.0
1758079553.40998,1758079553.18701,0.0,0.0,0.0,-9.4538,-12.14671,-2.23454,6.35,1.7,-0.51,4.0
1758079553.42569,1758079553.19701,0.0,0.0,0.0,-12.14671,-16.95955,0.40107,6.35,1.7,-0.51,4.0
1758079553.42777,1758079553.20701,0.0,0.0,0.0,-14.09476,-21.02755,2.11994,6.58,1.55,-0.81,4.0
1758079553.44271,1758079553.21701,0.0,0.0,0.0,-16.67307,-24.00693,4.52637,6.58,1.55,-0.81,4.0
1758079553.45869,1758079553.22701,0.0,0.0,0.0,-20.05352,-22.05888,5.15662,6.96,1.43,-0.61,4.0
1758079553.46045,1758079553.23701,0.0,0.0,0.0,-25.26744,-17.81899,6.35983,7.8,1.49,-0.08,4.0
1758079553.4764,1758079553.24701,0.0,0.0,0.0,-28.87707,-17.53251,6.53172,7.8,1.49,-0.08,4.0
1758079553.47821,1758079553.25701,0.0,0.0,0.0,-31.62727,-19.36597,6.35983,7.64,1.63,0.23,4.0
1758079553.49375,1758079553.26701,0.0,0.0,0.0,-34.72124,-23.83505,6.35983,7.64,1.63,0.23,4.0
1758079553.49544,1758079553.27701,0.0,0.0,0.0,-35.2942,-27.33009,5.55769,7.55,1.56,0.22,4.0
1758079553.51104,1758079553.28701,0.0,0.0,0.0,-34.72124,-30.30947,4.29718,7.55,1.56,0.22,4.0
1758079553.52657,1758079553.29701,0.0,0.0,0.0,-33.63263,-33.68992,2.7502,7.69,1.39,-0.28,4.0
1758079553.52769,1758079553.30701,0.0,0.0,0.0,-30.59595,-39.3622,-0.0573,7.69,1.39,-0.32,4.0
1758079553.54251,1758079553.31701,0.0,0.0,0.0,-27.67386,-43.4875,-1.43239,7.86,1.17,-0.32,4.0
1758079553.5587,1758079553.32701,0.0,0.0,0.0,-24.5226,-48.35764,-2.63561,7.87,0.88,-0.4,4.0
1758079553.56083,1758079553.33701,0.0,0.0,0.0,-21.25674,-53.74345,-3.32316,7.87,0.88,-0.4,4.0
1758079553.57755,1758079553.34701,0.0,0.0,0.0,-16.61578,-63.13995,-3.49504,7.64,0.61,0.0,4.0
1758079553.57949,1758079553.35701,0.0,0.0,0.0,-14.38124,-69.38519,-3.03668,7.64,0.61,0.0,4.0
1758079553.59478,1758079553.36701,0.0,0.0,0.0,-13.69369,-75.91692,-1.77617,7.12,0.49,0.8,4.0
1758079553.59577,1758079553.37701,0.0,0.0,0.0,-14.03747,-80.61517,-0.0573,7.12,0.49,0.8,4.0
1758079553.61121,1758079553.38701,0.0,0.0,0.0,-16.73037,-76.48987,2.97938,6.88,0.4,1.7,4.0
1758079553.62684,1758079553.39701,0.0,0.0,0.0,-18.44924,-69.61437,3.09397,7.99,-0.2,2.83,4.0
1758079553.62809,1758079553.40701,0.0,0.0,0.0,-18.50654,-69.04142,2.40642,7.99,-0.2,2.83,4.0
1758079553.64261,1758079553.41701,0.0,0.0,0.0,-16.90226,-83.42266,3.83882,8.64,-1.02,3.73,4.0
1758079553.65856,1758079553.42701,0.0,0.0,0.0,-12.37589,-87.08958,0.80214,8.64,-1.02,3.73,4.0
1758079553.66448,1758079553.43701,0.0,0.0,0.0,-8.88085,-71.44785,-2.92208,14.61,-1.94,4.13,4.0
1758079553.66621,1758079553.44701,0.0,0.0,0.0,-1.14592,-45.49285,-4.18259,14.61,-1.94,4.13,4.0
1758079553.68173,1758079553.45701,0.0,0.0,0.0,8.70896,-40.04975,-5.90147,22.38,-3.08,2.41,4.0
1758079553.69878,1758079553.46701,0.0,0.0,0.0,11.97482,-62.05133,-5.50039,18.84,-3.54,-0.02,4.0
1758079553.70081,1758079553.47701,0.0,0.0,0.0,8.36518,-57.41038,-10.8289,18.84,-3.54,-0.02,4.0
1758079553.71549,1758079553.48701,0.0,0.0,0.0,10.71431,-37.29956,-4.52637,19.18,-1.45,-3.77,4.0
1758079553.7175,1758079553.49701,0.0,0.0,0.0,11.51645,17.76169,7.39116,19.18,-1.45,-3.77,4.0
1758079553.7326,1758079553.50701,0.0,0.0,0.0,10.08406,51.6235,11.86023,18.49,0.8,-2.24,4.0
1758079553.74888,1758079553.51701,0.0,0.0,0.0,6.99009,81.87567,14.43854,18.49,0.8,-2.24,4.0
1758079553.7502,1758079553.52701,0.0,0.0,0.0,2.63561,106.16908,14.43854,15.36,1.95,0.91,4.0
1758079553.76487,1758079553.53701,0.0,0.0,0.0,-1.14592,106.16908,11.34457,11.63,1.95,0.77,4.0
1758079553.76665,1758079553.54701,0.0,0.0,0.0,-6.13065,79.64114,6.8182,11.63,2.14,0.77,4.0
1758079553.7829,1758079553.55701,0.0,0.0,0.0,-8.93814,59.47303,2.86479,9.58,1.6,0.88,4.0
1758079553.79882,1758079553.56701,0.0,0.0,0.0,-12.71966,71.27596,-4.92744,9.58,1.6,0.88,4.0
1758079553.80004,1758079553.57701,0.0,0.0,0.0,-15.12609,95.34019,-10.94349,13.29,0.63,-1.6,4.0
1758079553.8147,1758079553.58701,0.0,0.0,0.0,-16.10011,94.53805,-15.75634,13.29,0.63,-1.6,4.0
1758079553.81583,1758079553.59701,0.0,0.0,0.0,-17.47521,82.33404,-20.22541,9.49,-0.32,1.25,4.0
1758079553.83068,1758079553.60701,0.0,0.0,0.0,-19.19409,63.42643,-23.66316,9.49,-0.32,1.25,4.0
1758079553.84783,1758079553.61701,0.0,0.0,0.0,-19.53786,36.21093,-24.80907,7.32,-0.77,1.18,4.0
1758079553.84904,1758079553.62701,0.0,0.0,0.0,-18.85031,24.17882,-22.86102,7.89,-1.01,-0.42,4.0
1758079553.86392,1758079553.63701,0.0,0.0,0.0,-18.79302,20.45459,-21.37133,7.89,-1.01,-0.42,4.0
1758079553.86508,1758079553.64701,0.0,0.0,0.0,-13.80828,39.3622,-18.50654,9.4,-1.2,-0.46,4.0
1758079553.88086,1758079553.65701,0.0,0.0,0.0,-17.93358,66.00475,-17.99088,9.4,-1.2,-0.46,4.0
1758079553.89664,1758079553.66701,0.0,0.0,0.0,-15.98552,62.5097,-15.35527,8.39,-0.89,1.25,4.0
1758079553.90123,1758079553.67701,0.0,0.0,0.0,-15.29797,42.68536,-14.15206,8.39,-0.89,1.25,4.0
1758079553.94356,1758079553.68701,0.0,0.0,0.0,-11.45916,14.61043,-10.59972,4.24,-0.53,2.68,4.0
1758079553.94822,1758079553.69701,0.0,0.0,0.0,-8.93814,2.40642,-8.65166,4.91,-0.35,-0.04,4.0
1758079553.9486,1758079553.70701,0.0,0.0,0.0,-5.84417,-4.18259,-6.7609,4.91,-0.35,-0.04,4.0
1758079553.9533,1758079553.71701,0.0,0.0,0.0,-1.77617,-9.05273,-4.92744,5.86,-0.69,-0.99,4.0
1758079553.95369,1758079553.72701,0.0,0.0,0.0,5.21392,-18.10547,-2.00535,5.86,-0.69,-0.99,4.0
1758079553.95484,1758079553.73701,0.0,0.0,0.0,9.28192,-23.72045,-1.03132,5.75,-1.13,-1.28,4.0
1758079553.97194,1758079553.74701,0.0,0.0,0.0,13.40721,-29.22085,-0.0573,5.75,-1.13,-1.28,4.0
1758079553.98793,1758079553.75701,0.0,0.0,0.0,17.18874,-35.2942,-0.11459,6.06,-1.35,-1.33,4.0
1758079553.98889,1758079553.76701,0.0,0.0,0.0,23.60586,-33.46074,-0.45837,7.36,-1.41,-1.21,4.0
1758079554.00366,1758079553.77701,0.0,0.0,0.0,28.30412,-30.30947,-0.40107,7.36,-1.41,-1.21,4.0
1758079554.00485,1758079553.78701,0.0,0.0,0.0,32.6013,-30.48136,-0.22918,8.29,-1.3,-0.15,4.0
1758079554.04665,1758079553.79701,0.0,0.0,0.0,35.92446,-33.17426,-0.22918,8.29,-1.3,-0.15,4.0
1758079554.04809,1758079553.80701,0.0,0.0,0.0,37.75792,-38.50277,-0.57296,8.4,-0.79,0.42,4.0
1758079554.04848,1758079553.81701,0.0,0.0,0.0,37.35685,-42.62806,-0.74485,8.4,-0.79,0.42,4.0
1758079554.05053,1758079553.82701,0.0,0.0,0.0,35.86716,-46.75336,-0.34377,8.55,-0.21,0.43,4.0
1758079554.06683,1758079553.83701,0.0,0.0,0.0,33.23156,-50.13381,0.11459,8.55,-0.21,0.43,4.0
1758079554.06773,1758079553.84701,0.0,0.0,0.0,27.1582,-54.66018,1.14592,8.3,0.29,-0.05,4.0
1758079554.083,1758079553.85701,0.0,0.0,0.0,22.34536,-55.86338,1.94806,7.86,0.75,0.0,4.0
1758079554.09893,1758079553.86701,0.0,0.0,0.0,17.47521,-56.55093,3.09397,7.86,0.75,0.0,4.0
1758079554.10017,1758079553.87701,0.0,0.0,0.0,10.94349,-60.73353,4.18259,7.02,0.96,0.57,4.0
1758079554.11659,1758079553.88701,0.0,0.0,0.0,8.65166,-69.3279,4.92744,7.02,0.96,0.57,4.0
1758079554.11823,1758079553.89701,0.0,0.0,0.0,6.53172,-87.31877,2.86479,5.24,0.84,1.51,4.0
1758079554.13397,1758079553.90701,0.0,0.0,0.0,4.81285,-99.29359,0.45837,5.24,0.84,1.51,4.0
1758079554.13577,1758079553.91701,0.0,0.0,0.0,5.15662,-88.69387,-1.08862,5.85,1.13,2.07,4.0
1758079554.15332,1758079553.92701,0.0,0.0,0.0,5.78687,-66.74959,-0.57296,11.58,1.73,1.87,4.0
1758079554.16886,1758079553.93701,0.0,0.0,0.0,5.95876,-43.4875,1.77617,11.58,1.73,1.87,4.0
1758079554.17048,1758079553.94701,0.0,0.0,0.0,3.60963,-18.85031,4.87014,16.59,2.89,3.4,4.0
1758079554.18663,1758079553.95701,0.0,0.0,0.0,-2.46372,10.48513,8.36518,16.59,2.89,3.4,4.0
1758079554.18752,1758079553.96701,0.0,0.0,0.0,-6.70361,1.83346,8.25059,18.72,3.9,2.83,4.0
1758079554.20357,1758079553.97701,0.0,0.0,0.0,-8.59437,-30.65324,11.91752,18.72,3.9,2.83,4.0
1758079554.20753,1758079553.98701,0.0,0.0,0.0,-4.1253,-47.95657,15.98552,15.26,3.66,0.93,4.0
1758079554.22409,1758079553.99701,0.0,0.0,0.0,-2.00535,-41.31026,18.10547,19.76,1.67,-4.01,4.0
1758079554.22742,1758079554.00701,0.0,0.0,0.0,-3.09397,24.35071,15.58445,19.76,1.67,-4.01,4.0
1758079554.24392,1758079554.01701,0.0,0.0,0.0,-3.26586,66.97877,10.8862,20.99,-0.48,-2.19,4.0
1758079554.24475,1758079554.02701,0.0,0.0,0.0,-2.11994,90.87111,5.55769,20.99,-0.48,-2.19,4.0
1758079554.26259,1758079554.03701,0.0,0.0,0.0,-2.63561,114.0759,-10.08406,13.12,-0.74,2.91,4.0
1758079554.27959,1758079554.04701,0.0,0.0,0.0,-0.40107,124.10267,-12.49048,13.12,-0.74,2.91,4.0
1758079554.2827,1758079554.05701,0.0,0.0,0.0,1.3751,116.42503,-14.20935,12.49,0.23,0.32,4.0
1758079554.29806,1758079554.06701,0.0,0.0,0.0,4.35448,100.32492,-12.60507,12.49,0.23,0.32,4.0
1758079554.29895,1758079554.07701,0.0,0.0,0.0,9.05273,75.51585,-8.136,12.12,1.21,0.32,4.0
1758079554.31402,1758079554.08701,0.0,0.0,0.0,13.06344,61.76485,-2.92208,12.61,1.54,-1.09,4.0
1758079554.315,1758079554.09701,0.0,0.0,0.0,14.83961,60.50434,2.40642,12.61,1.54,-1.09,4.0
1758079554.33086,1758079554.10701,0.0,0.0,0.0,11.45916,90.06896,3.89611,13.95,1.57,0.91,4.0
1758079554.34706,1758079554.11701,0.0,0.0,0.0,9.22462,99.69466,7.39116,13.95,1.57,0.91,4.0
1758079554.34798,1758079554.12701,0.0,0.0,0.0,6.18794,92.76187,8.30789,10.97,1.29,1.94,4.0
1758079554.36283,1758079554.13701,0.0,0.0,0.0,5.21392,76.0315,9.05273,10.97,1.29,1.94,4.0
1758079554.38123,1758079554.14701,0.0,0.0,0.0,2.92208,51.39432,8.136,6.49,1.1,1.95,4.0
1758079554.38254,1758079554.15701,0.0,0.0,0.0,1.14592,41.59674,6.99009,6.1,1.02,-0.4,4.0
1758079554.39879,1758079554.16701,0.0,0.0,0.0,-1.14592,33.86181,4.92744,6.1,1.02,-0.4,4.0
1758079554.40078,1758079554.17701,0.0,0.0,0.0,-4.29718,25.72581,2.97938,5.64,1.15,-0.08,4.0
1758079554.41842,1758079554.18701,0.0,0.0,0.0,-9.74028,11.34457,0.0,5.64,1.15,-0.08,4.0
1758079554.41964,1758079554.19701,0.0,0.0,0.0,-13.86558,1.83346,-1.08862,4.99,1.58,0.15,4.0
1758079554.43679,1758079554.20701,0.0,0.0,0.0,-18.22006,-7.62034,-1.71887,4.99,1.58,0.15,4.0
1758079554.44367,1758079554.21701,0.0,0.0,0.0,-22.51724,-16.84496,-1.66158,5.24,2.02,-0.15,4.0
1758079554.4589,1758079554.22701,0.0,0.0,0.0,-29.10626,-23.0329,-1.43239,6.18,2.25,-0.43,4.0
1758079554.46319,1758079554.23701,0.0,0.0,0.0,-33.34615,-24.92367,-0.97403,6.18,2.25,-0.43,4.0
1758079554.50406,1758079554.24701,0.0,0.0,0.0,-37.24226,-26.41335,-0.97403,7.05,2.2,-0.19,4.0
1758079554.50495,1758079554.25701,0.0,0.0,0.0,-40.33623,-29.73651,0.34377,7.05,2.2,-0.19,4.0
1758079554.5067,1758079554.26701,0.0,0.0,0.0,-43.25832,-33.86181,2.46372,7.5,1.94,0.16,4.0
1758079554.50802,1758079554.27701,0.0,0.0,0.0,-44.23235,-35.00772,3.60963,7.5,1.94,0.16,4.0
1758079554.5084,1758079554.28701,0.0,0.0,0.0,-44.00316,-36.21093,4.35448,8.06,1.43,0.39,4.0
1758079554.52432,1758079554.29701,0.0,0.0,0.0,-41.36755,-37.52874,4.35448,8.06,1.43,0.39,4.0
1758079554.52504,1758079554.30701,0.0,0.0,0.0,-38.38818,-36.7266,3.55234,8.33,0.76,0.18,4.0
1758079554.54107,1758079554.31701,0.0,0.0,0.0,-34.37747,-36.03905,2.46372,8.69,0.0,-0.2,4.0
1758079554.55793,1758079554.32701,0.0,0.0,0.0,-29.73651,-35.2942,0.85944,8.69,0.0,-0.2,4.0
1758079554.55932,1758079554.33701,0.0,0.0,0.0,-21.7724,-34.0337,-1.20321,8.68,-0.56,-0.53,4.0
1758079554.57869,1758079554.34701,0.0,0.0,0.0,-16.04282,-33.17426,-2.06265,8.68,-0.56,-0.53,4.0
1758079554.58171,1758079554.35701,0.0,0.0,0.0,-10.54242,-32.54401,-2.57831,8.82,-0.79,-0.53,4.0
1758079554.59695,1758079554.36701,0.0,0.0,0.0,-5.21392,-31.97105,-2.29183,8.82,-0.79,-0.53,4.0
1758079554.5981,1758079554.37701,0.0,0.0,0.0,1.3751,-31.16891,-0.80214,9.11,-0.64,-0.13,4.0
1758079554.6129,1758079554.38701,0.0,0.0,0.0,4.92744,-30.48136,0.45837,9.24,-0.1,0.47,4.0
1758079554.62916,1758079554.39701,0.0,0.0,0.0,7.96411,-31.56997,2.34913,9.24,-0.1,0.47,4.0
1758079554.6301,1758079554.40701,0.0,0.0,0.0,9.11003,-35.98175,4.23989,8.17,0.52,0.94,4.0
1758079554.64488,1758079554.41701,0.0,0.0,0.0,9.39651,-47.61279,6.7609,8.17,0.52,0.94,4.0
1758079554.64686,1758079554.42701,0.0,0.0,0.0,8.02141,-54.94666,8.65166,6.27,0.98,1.16,4.0
1758079554.66192,1758079554.43701,0.0,0.0,0.0,6.87549,-63.99939,10.8862,6.27,0.98,1.16,4.0
1758079554.67806,1758079554.44701,0.0,0.0,0.0,4.1253,-74.02615,10.59972,4.99,0.96,0.88,4.0
1758079554.68187,1758079554.45701,0.0,0.0,0.0,2.00535,-96.19962,13.06344,4.54,0.25,0.72,4.0
1758079554.69797,1758079554.46701,0.0,0.0,0.0,1.48969,-93.39213,13.34992,4.54,0.25,0.72,4.0
1758079554.70187,1758079554.47701,0.0,0.0,0.0,0.0573,-70.41652,9.68299,10.82,-0.68,1.52,4.0
1758079554.71874,1758079554.48701,0.0,0.0,0.0,4.1253,-49.33167,1.77617,10.82,-0.68,1.52,4.0
1758079554.72308,1758079554.49701,0.0,0.0,0.0,9.96947,-22.74642,-2.86479,17.51,-2.0,3.21,4.0
1758079554.73905,1758079554.50701,0.0,0.0,0.0,16.67307,-9.22462,-6.70361,17.51,-2.0,3.21,4.0
1758079554.78903,1758079554.51701,0.0,0.0,0.0,22.97561,-18.27736,-6.24524,19.8,-2.79,2.85,4.0
1758079554.79027,1758079554.52701,0.0,0.0,0.0,26.87172,-26.12688,-4.46907,19.8,-2.79,2.85,4.0
1758079554.7931,1758079554.53701,0.0,0.0,0.0,22.97561,-23.54857,-7.79223,17.7,-2.07,-0.33,4.0
1758079554.79374,1758079554.54701,0.0,0.0,0.0,21.7151,-14.43854,-5.27121,19.28,-0.11,-2.73,4.0
1758079554.79825,1758079554.55701,0.0,0.0,0.0,20.22541,9.91217,-0.11459,19.28,-0.11,-2.73,4.0
1758079554.79878,1758079554.56701,0.0,0.0,0.0,17.76169,47.89928,6.87549,18.47,0.8,-0.87,4.0
1758079554.79951,1758079554.57701,0.0,0.0,0.0,14.9542,69.84356,10.31324,18.47,0.8,-0.87,4.0
1758079554.81829,1758079554.58701,0.0,0.0,0.0,11.57375,88.35009,12.08941,14.55,1.16,0.82,4.0
1758079554.82027,1758079554.59701,0.0,0.0,0.0,7.73493,98.94981,11.45916,14.55,1.16,0.82,4.0
1758079554.83679,1758079554.60701,0.0,0.0,0.0,3.32316,100.6114,7.79223,11.56,1.56,0.72,4.0
1758079554.83773,1758079554.61701,0.0,0.0,0.0,0.34377,93.44942,4.23989,9.96,1.51,0.61,4.0
1758079554.85407,1758079554.62701,0.0,0.0,0.0,-1.83346,84.1675,-0.34377,9.96,1.51,0.61,4.0
1758079554.85608,1758079554.63701,0.0,0.0,0.0,-3.55234,80.90164,-4.18259,10.1,0.82,0.25,4.0
1758079554.8728,1758079554.64701,0.0,0.0,0.0,-4.87014,75.51585,-8.76626,10.1,0.82,0.25,4.0
1758079554.889,1758079554.65701,0.0,0.0,0.0,-5.50039,67.43713,-11.91752,10.02,-0.12,0.6,4.0
1758079554.89098,1758079554.66701,0.0,0.0,0.0,-6.07335,53.62885,-15.29797,10.02,-0.12,0.6,4.0
1758079554.90681,1758079554.67701,0.0,0.0,0.0,-6.35983,34.37747,-17.47521,8.36,-0.77,0.88,4.0
1758079554.90797,1758079554.68701,0.0,0.0,0.0,-5.78687,8.93814,-16.55848,7.72,-1.04,0.07,4.0
1758079554.92305,1758079554.69701,0.0,0.0,0.0,-4.81285,0.51566,-13.00614,7.72,-1.04,0.07,4.0
1758079554.93899,1758079554.70701,0.0,0.0,0.0,-2.46372,8.30789,-9.4538,9.08,-1.08,-0.43,4.0
1758079554.94365,1758079554.71701,0.0,0.0,0.0,-2.63561,30.48136,-10.25595,9.08,-1.08,-0.43,4.0
1758079554.95898,1758079554.72701,0.0,0.0,0.0,-5.84417,39.07573,-12.204,9.56,-0.8,0.88,4.0
1758079554.96262,1758079554.73701,0.0,0.0,0.0,-5.4431,31.28349,-10.54242,9.56,-0.8,0.88,4.0
1758079554.97823,1758079554.74701,0.0,0.0,0.0,-3.38045,15.46986,-7.96411,6.48,-0.29,2.4,4.0
1758079554.98009,1758079554.75701,0.0,0.0,0.0,0.17189,-2.63561,-4.92744,6.48,-0.29,-0.1,4.0
1758079554.99504,1758079554.76701,0.0,0.0,0.0,3.09397,-9.05273,-3.55234,6.32,-0.25,-0.1,4.0
1758079554.99817,1758079554.77701,0.0,0.0,0.0,6.58902,-15.58445,-1.83346,6.79,-0.79,-1.2,4.0
1758079555.01437,1758079554.78701,0.0,0.0,0.0,10.19865,-22.34536,-0.85944,6.79,-0.79,-1.2,4.0
1758079555.01796,1758079554.79701,0.0,0.0,0.0,14.9542,-28.87707,-0.11459,6.43,-1.44,-1.12,4.0
1758079555.03415,1758079554.80701,0.0,0.0,0.0,18.10547,-33.34615,-0.17189,6.43,-1.44,-1.12,4.0
1758079555.0351,1758079554.81701,0.0,0.0,0.0,20.22541,-36.7266,-0.57296,6.51,-1.66,-0.9,4.0
1758079555.05113,1758079554.82701,0.0,0.0,0.0,23.20479,-34.95043,-1.08862,6.51,-1.66,-0.9,4.0
1758079555.0671,1758079554.83701,0.0,0.0,0.0,27.38738,-30.13758,-1.3178,7.36,-1.5,-0.23,4.0
1758079555.06831,1758079554.84701,0.0,0.0,0.0,29.56462,-27.50197,-1.14592,8.04,-1.17,0.54,4.0
1758079555.08311,1758079554.85701,0.0,0.0,0.0,30.53865,-25.49662,-1.20321,8.04,-1.17,0.54,4.0
1758079555.09913,1758079554.86701,0.0,0.0,0.0,30.48136,-25.55392,-2.00535,8.3,-0.56,0.77,4.0
1758079555.10348,1758079554.87701,0.0,0.0,0.0,28.87707,-28.76248,-2.7502,8.3,-0.56,0.77,4.0
1758079555.11914,1758079554.88701,0.0,0.0,0.0,26.87172,-30.93972,-3.03668,8.07,0.01,-0.21,4.0
1758079555.12381,1758079554.89701,0.0,0.0,0.0,24.5226,-31.97105,-3.32316,8.07,0.01,-0.21,4.0
1758079555.1391,1758079554.90701,0.0,0.0,0.0,20.16812,-31.74186,-3.32316,8.28,0.44,-0.79,4.0
1758079555.14293,1758079554.91701,0.0,0.0,0.0,16.90226,-30.25217,-3.49504,8.44,0.69,-0.92,4.0
1758079555.1584,1758079554.92701,0.0,0.0,0.0,13.46451,-29.67921,-3.38045,8.44,0.69,-0.92,4.0
1758079555.16018,1758079554.93701,0.0,0.0,0.0,10.37054,-28.59059,-3.49504,8.26,0.7,-0.31,4.0
1758079555.17513,1758079554.94701,0.0,0.0,0.0,6.13065,-30.48136,-3.66693,8.26,0.7,-0.31,4.0
1758079555.1767,1758079554.95701,0.0,0.0,0.0,4.46907,-34.14828,-3.09397,7.33,0.51,0.3,4.0
1758079555.19113,1758079554.96701,0.0,0.0,0.0,3.55234,-42.74266,-2.46372,7.33,0.51,0.3,4.0
1758079555.20831,1758079554.97701,0.0,0.0,0.0,3.55234,-57.29578,-2.63561,6.01,0.36,1.21,4.0
1758079555.20933,1758079554.98701,0.0,0.0,0.0,3.60963,-73.16672,-2.11994,6.66,0.87,1.74,4.0
1758079555.2244,1758079554.99701,0.0,0.0,0.0,4.35448,-69.95815,-1.03132,6.66,0.87,1.74,4.0
1758079555.22691,1758079555.00701,0.0,0.0,0.0,3.83882,-55.06125,1.48969,12.47,1.89,2.18,4.0
1758079555.24313,1758079555.01701,0.0,0.0,0.0,1.60428,-35.40879,4.0107,12.47,1.89,2.18,4.0
1758079555.26159,1758079555.02701,0.0,0.0,0.0,-3.66693,-4.92744,7.04738,16.79,2.93,2.87,4.0
1758079555.2643,1758079555.03701,0.0,0.0,0.0,-8.25059,11.51645,7.21927,16.79,2.93,2.87,4.0
1758079555.28185,1758079555.04701,0.0,0.0,0.0,-12.08941,22.97561,4.98473,17.1,3.47,1.84,4.0
1758079555.28438,1758079555.05701,0.0,0.0,0.0,-15.92823,11.34457,5.21392,17.1,3.47,1.84,4.0
1758079555.30085,1758079555.06701,0.0,0.0,0.0,-12.60507,-13.34992,3.66693,15.78,3.6,1.33,4.0
1758079555.30295,1758079555.07701,0.0,0.0,0.0,-8.42248,-28.87707,7.44845,17.33,2.52,-0.79,4.0
1758079555.3391,1758079555.08701,0.0,0.0,0.0,-7.62034,-8.76626,2.11994,17.33,2.52,-0.79,4.0
1758079555.34699,1758079555.09701,0.0,0.0,0.0,-4.18259,41.31026,1.77617,21.76,0.77,-1.8,4.0
1758079555.34748,1758079555.10701,0.0,0.0,0.0,-2.11994,79.75573,-2.29183,21.76,0.77,-1.8,4.0
1758079555.34878,1758079555.11701,0.0,0.0,0.0,-1.83346,91.1003,-7.73493,14.91,-0.15,1.56,4.0
1758079555.35025,1758079555.12701,0.0,0.0,0.0,-1.3178,91.043,-13.17803,14.91,-0.15,1.56,4.0
1758079555.3685,1758079555.13701,0.0,0.0,0.0,0.22918,84.56858,-14.03747,10.68,0.08,1.56,4.0
1758079555.37058,1758079555.14701,0.0,0.0,0.0,3.38045,71.10406,-12.83425,9.91,0.5,0.56,4.0
1758079555.38652,1758079555.15701,0.0,0.0,0.0,5.84417,54.48829,-9.85487,9.91,0.5,0.56,4.0
1758079555.38741,1758079555.16701,0.0,0.0,0.0,8.36518,42.51347,-5.95876,10.07,1.09,-0.2,4.0
1758079555.40233,1758079555.17701,0.0,0.0,0.0,10.71431,57.12389,-3.09397,10.07,1.09,-0.2,4.0
1758079555.41844,1758079555.18701,0.0,0.0,0.0,11.45916,76.26069,-0.22918,13.14,1.43,0.0,4.0
1758079555.41938,1758079555.19701,0.0,0.0,0.0,11.45916,79.75573,1.48969,13.14,1.43,0.0,4.0
1758079555.43437,1758079555.20701,0.0,0.0,0.0,11.34457,66.69229,2.57831,10.58,1.5,2.36,4.0
1758079555.43617,1758079555.21701,0.0,0.0,0.0,11.57375,36.55471,2.6929,7.33,1.3,1.8,4.0
1758079555.45307,1758079555.22701,0.0,0.0,0.0,10.65701,23.26209,1.83346,7.33,1.3,1.8,4.0
1758079555.4695,1758079555.23701,0.0,0.0,0.0,10.94349,24.35071,2.29183,8.29,1.11,-0.4,4.0
1758079555.47044,1758079555.24701,0.0,0.0,0.0,10.54242,25.26744,1.83346,8.29,1.11,-0.4,4.0
1758079555.48555,1758079555.25701,0.0,0.0,0.0,8.47978,19.13679,0.57296,7.66,1.17,0.67,4.0
1758079555.48643,1758079555.26701,0.0,0.0,0.0,6.35983,14.32395,0.40107,7.66,1.17,0.67,4.0
1758079555.50231,1758079555.27701,0.0,0.0,0.0,3.83882,9.5684,0.51566,7.08,1.57,1.19,4.0
1758079555.51926,1758079555.28701,0.0,0.0,0.0,1.03132,3.72423,0.68755,7.08,1.57,1.19,4.0
1758079555.52045,1758079555.29701,0.0,0.0,0.0,-3.89611,-4.69825,1.14592,7.0,1.79,0.58,4.0
1758079555.53556,1758079555.30701,0.0,0.0,0.0,-7.50575,-9.22462,1.66158,7.09,1.8,0.13,4.0
1758079555.53671,1758079555.31701,0.0,0.0,0.0,-11.11538,-13.12073,2.29183,7.09,1.8,0.13,4.0
1758079555.55127,1758079555.32701,0.0,0.0,0.0,-16.21471,-16.10011,4.1253,7.12,1.75,-0.22,4.0
1758079555.56858,1758079555.33701,0.0,0.0,0.0,-19.42327,-17.99088,5.15662,7.12,1.75,-0.22,4.0
1758079555.56971,1758079555.34701,0.0,0.0,0.0,-21.94428,-20.11082,6.41713,7.14,1.7,-0.16,4.0
1758079555.58456,1758079555.35701,0.0,0.0,0.0,-24.12152,-20.79837,7.50575,7.14,1.7,-0.16,4.0
1758079555.58706,1758079555.36701,0.0,0.0,0.0,-26.12688,-21.08485,9.62569,7.44,1.62,-0.22,4.0
1758079555.60328,1758079555.37701,0.0,0.0,0.0,-26.69983,-21.37133,10.8862,7.76,1.35,-0.09,4.0
1758079555.61957,1758079555.38701,0.0,0.0,0.0,-26.69983,-21.94428,11.97482,7.76,1.35,-0.09,4.0
1758079555.62076,1758079555.39701,0.0,0.0,0.0,-25.72581,-22.91831,13.06344,7.97,0.97,0.1,4.0
1758079555.63556,1758079555.40701,0.0,0.0,0.0,-23.0329,-24.17882,14.03747,7.97,0.97,0.1,4.0
1758079555.6365,1758079555.41701,0.0,0.0,0.0,-20.51189,-24.75178,14.32395,8.39,0.55,0.17,4.0
1758079555.65153,1758079555.42701,0.0,0.0,0.0,-17.6471,-24.35071,14.32395,8.39,0.55,0.17,4.0
1758079555.66839,1758079555.43701,0.0,0.0,0.0,-14.49583,-22.74642,14.09476,9.08,0.18,0.17,4.0
1758079555.67042,1758079555.44701,0.0,0.0,0.0,-9.62569,-19.42327,13.5218,9.54,-0.12,0.07,4.0
1758079555.70823,1758079555.45701,0.0,0.0,0.0,-6.18794,-17.87628,13.00614,9.54,-0.12,0.07,4.0
1758079555.70944,1758079555.46701,0.0,0.0,0.0,-2.63561,-16.95955,12.2613,9.28,-0.22,0.0,4.0
1758079555.71327,1758079555.47701,0.0,0.0,0.0,0.85944,-16.67307,11.57375,9.28,-0.22,0.0,4.0
1758079555.71453,1758079555.48701,0.0,0.0,0.0,5.61499,-18.16276,10.59972,8.72,-0.04,-0.09,4.0
1758079555.71715,1758079555.49701,0.0,0.0,0.0,8.76626,-20.51189,9.96947,8.72,-0.04,-0.09,4.0
1758079555.73646,1758079555.50701,0.0,0.0,0.0,11.22997,-23.31938,9.4538,8.06,0.35,-0.04,4.0
1758079555.73842,1758079555.51701,0.0,0.0,0.0,14.32395,-26.41335,9.05273,8.06,0.35,-0.04,4.0
1758079555.75363,1758079555.52701,0.0,0.0,0.0,15.64175,-30.76784,8.99544,7.63,0.81,0.0,4.0
1758079555.81585,1758079555.53701,0.0,0.0,0.0,16.67307,-33.80451,9.22462,7.18,1.12,0.1,4.0
1758079555.81714,1758079555.54701,0.0,0.0,0.0,16.95955,-36.21093,9.5684,7.18,1.12,0.1,4.0
1758079555.81777,1758079555.55701,0.0,0.0,0.0,16.10011,-39.4768,10.25595,6.52,1.17,0.31,4.0
1758079555.81898,1758079555.56701,0.0,0.0,0.0,14.9542,-42.05511,10.65701,6.52,1.17,0.31,4.0
1758079555.82042,1758079555.57701,0.0,0.0,0.0,13.40721,-43.20102,10.94349,5.91,0.73,0.47,4.0
1758079555.82165,1758079555.58701,0.0,0.0,0.0,11.51645,-43.25832,10.31324,5.91,0.73,0.47,4.0
1758079555.82336,1758079555.59701,0.0,0.0,0.0,11.00079,-52.48294,6.87549,6.4,-0.09,1.02,4.0
1758079555.83966,1758079555.60701,0.0,0.0,0.0,13.17803,-69.38519,5.72958,7.34,-1.09,2.08,4.0
1758079555.84083,1758079555.61701,0.0,0.0,0.0,16.50119,-74.02615,4.0107,7.34,-1.09,2.08,4.0
1758079555.85568,1758079555.62701,0.0,0.0,0.0,21.42862,-61.1346,-0.51566,15.84,-2.8,3.37,4.0
1758079555.85658,1758079555.63701,0.0,0.0,0.0,30.82513,-30.65324,-5.61499,15.84,-2.8,3.37,4.0
1758079555.8734,1758079555.64701,0.0,0.0,0.0,38.38818,-8.47978,-6.47442,21.96,-3.94,1.92,4.0
1758079555.88939,1758079555.65701,0.0,0.0,0.0,47.78468,-6.07335,-2.7502,21.96,-3.94,1.92,4.0
1758079555.8914,1758079555.66701,0.0,0.0,0.0,51.50891,-14.32395,-3.03668,18.76,-3.41,0.97,4.0
1758079555.90636,1758079555.67701,0.0,0.0,0.0,52.19646,-16.10011,-4.69825,17.3,-1.56,-1.12,4.0
1758079555.90753,1758079555.68701,0.0,0.0,0.0,51.16513,-10.8289,-3.09397,17.3,-1.56,-1.12,4.0
1758079555.9232,1758079555.69701,0.0,0.0,0.0,50.1911,4.0107,-0.22918,18.31,0.21,-0.6,4.0
1758079555.93969,1758079555.70701,0.0,0.0,0.0,48.75871,24.80907,4.18259,18.31,0.21,-0.6,4.0
1758079555.94102,1758079555.71701,0.0,0.0,0.0,45.03448,55.6915,9.5684,16.99,1.29,-0.07,4.0
1758079555.95566,1758079555.72701,0.0,0.0,0.0,41.76862,69.3279,11.74564,16.99,1.29,-0.07,4.0
1758079555.95859,1758079555.73701,0.0,0.0,0.0,38.15899,74.54182,11.00079,13.39,1.27,0.7,4.0
1758079555.97341,1758079555.74701,0.0,0.0,0.0,31.79916,69.84356,7.04738,13.39,1.27,0.7,4.0
1758079555.99021,1758079555.75701,0.0,0.0,0.0,27.44468,62.62429,2.11994,10.63,0.92,1.08,4.0
1758079555.99305,1758079555.76701,0.0,0.0,0.0,24.63719,61.76485,-2.63561,10.53,0.48,0.41,4.0
1758079556.00868,1758079555.77701,0.0,0.0,0.0,22.68913,68.41116,-6.13065,10.53,0.48,0.41,4.0
1758079556.01041,1758079555.78701,0.0,0.0,0.0,20.74107,68.75494,-11.22997,11.22,-0.06,0.49,4.0
1758079556.02651,1758079555.79701,0.0,0.0,0.0,19.48057,58.90006,-13.86558,11.22,-0.06,0.49,4.0
1758079556.02904,1758079555.80701,0.0,0.0,0.0,18.33465,45.49285,-15.0115,8.72,-0.5,1.06,4.0
1758079556.089,1758079555.81701,0.0,0.0,0.0,17.76169,32.77319,-14.9542,8.72,-0.5,1.06,4.0
1758079556.09154,1758079555.82701,0.0,0.0,0.0,17.30333,19.76705,-11.74564,7.83,-0.69,0.51,4.0
1758079556.09411,1758079555.83701,0.0,0.0,0.0,18.16276,13.12073,-8.59437,7.64,-0.87,-0.16,4.0
1758079556.13884,1758079555.84701,0.0,0.0,0.0,18.90761,7.16197,-4.81285,7.64,-0.87,-0.16,4.0
1758079556.14138,1758079555.85701,0.0,0.0,0.0,19.82434,0.97403,-1.08862,7.08,-0.98,0.08,4.0
1758079556.1462,1758079555.86701,0.0,0.0,0.0,21.31403,-4.29718,4.23989,7.08,-0.98,0.08,4.0
1758079556.14686,1758079555.87701,0.0,0.0,0.0,21.94428,6.58902,4.87014,7.4,-0.93,-0.14,4.0
1758079556.14761,1758079555.88701,0.0,0.0,0.0,21.6578,19.82434,1.3178,7.4,-0.93,-0.14,4.0
1758079556.14879,1758079555.89701,0.0,0.0,0.0,24.57989,24.98096,1.71887,8.34,-0.74,0.16,4.0
1758079556.15037,1758079555.90701,0.0,0.0,0.0,27.04361,23.83505,-0.22918,7.38,-0.67,0.74,4.0
1758079556.1517,1758079555.91701,0.0,0.0,0.0,28.93437,16.21471,-2.46372,7.38,-0.67,0.74,4.0
1758079556.15398,1758079555.92701,0.0,0.0,0.0,30.48136,7.44845,-5.32851,6.99,-0.6,-0.35,4.0
1758079556.16957,1758079555.93701,0.0,0.0,0.0,32.6013,0.85944,-9.4538,6.99,-0.6,-0.35,4.0
1758079556.17159,1758079555.94701,0.0,0.0,0.0,34.26288,-3.72423,-11.51645,7.64,-0.58,-1.26,4.0
1758079556.18686,1758079555.95701,0.0,0.0,0.0,36.03905,-5.21392,-13.06344,7.64,-0.58,-1.26,4.0
1758079556.18929,1758079555.96701,0.0,0.0,0.0,37.35685,-7.84952,-13.69369,7.93,-0.62,-0.98,4.0
1758079556.20639,1758079555.97701,0.0,0.0,0.0,38.78925,-12.71966,-13.5218,7.93,-0.62,-0.98,4.0
1758079556.20842,1758079555.98701,0.0,0.0,0.0,39.19032,-16.55848,-12.83425,7.71,-0.59,-0.11,4.0
1758079556.22381,1758079555.99701,0.0,0.0,0.0,39.53409,-19.99623,-11.57375,7.55,-0.51,0.15,4.0
1758079556.22925,1758079556.00701,0.0,0.0,0.0,39.64868,-23.0329,-10.02676,7.55,-0.51,0.15,4.0
1758079556.25409,1758079556.01701,0.0,0.0,0.0,39.01843,-24.4653,-8.136,7.54,-0.48,0.0,4.0
1758079556.25504,1758079556.02701,0.0,0.0,0.0,38.50277,-24.35071,-7.33386,7.54,-0.48,0.0,4.0
1758079556.25682,1758079556.03701,0.0,0.0,0.0,37.58603,-24.57989,-6.53172,7.28,-0.5,-0.13,4.0
1758079556.27373,1758079556.04701,0.0,0.0,0.0,36.6693,-24.00693,-6.41713,7.28,-0.5,-0.13,4.0
1758079556.28954,1758079556.05701,0.0,0.0,0.0,35.06502,-22.51724,-6.8182,7.13,-0.44,-0.17,4.0
1758079556.29077,1758079556.06701,0.0,0.0,0.0,33.86181,-20.79837,-7.04738,7.45,-0.23,-0.32,4.0
1758079556.3066,1758079556.07701,0.0,0.0,0.0,32.42941,-19.19409,-7.21927,7.45,-0.23,-0.32,4.0
1758079556.30754,1758079556.08701,0.0,0.0,0.0,30.59595,-18.50654,-7.50575,7.69,0.06,-0.46,4.0
1758079556.32283,1758079556.09701,0.0,0.0,0.0,27.38738,-19.59516,-7.67763,7.69,0.06,-0.46,4.0
1758079556.33883,1758079556.10701,0.0,0.0,0.0,24.80907,-23.31938,-7.21927,7.6,0.37,-0.3,4.0
1758079556.33994,1758079556.11701,0.0,0.0,0.0,22.23076,-30.36677,-6.7609,7.6,0.37,-0.3,4.0
1758079556.35468,1758079556.12701,0.0,0.0,0.0,19.48057,-41.13837,-5.84417,6.83,0.46,0.01,4.0
1758079556.35893,1758079556.13701,0.0,0.0,0.0,16.67307,-59.98868,-5.78687,5.66,0.26,0.3,4.0
1758079556.37463,1758079556.14701,0.0,0.0,0.0,15.46986,-66.17663,-6.70361,5.66,0.26,0.3,4.0
1758079556.38086,1758079556.15701,0.0,0.0,0.0,14.66772,-62.39511,-8.88085,6.49,0.13,1.0,4.0
1758079556.40701,1758079556.16701,0.0,0.0,0.0,15.0115,-52.54023,-10.65701,6.49,0.13,1.0,4.0
1758079556.41093,1758079556.17701,0.0,0.0,0.0,16.55848,-44.63341,-9.4538,8.19,0.75,2.04,4.0
1758079556.41796,1758079556.18701,0.0,0.0,0.0,18.27736,-34.66395,-6.58902,8.19,0.75,2.04,4.0
1758079556.43135,1758079556.19701,0.0,0.0,0.0,20.22541,-20.68378,-1.43239,10.89,1.75,1.7,4.0
1758079556.43358,1758079556.20701,0.0,0.0,0.0,19.48057,13.69369,6.70361,10.89,1.75,2.05,4.0
1758079556.43609,1758079556.21701,0.0,0.0,0.0,13.46451,42.51347,12.54778,15.62,3.06,2.05,4.0
1758079556.45386,1758079556.22701,0.0,0.0,0.0,3.95341,55.51962,12.60507,20.94,5.31,3.57,4.0
1758079556.45559,1758079556.237,0.0,0.0,0.0,1.08862,-8.25059,23.89234,20.94,5.31,3.57,4.0
1758079556.47266,1758079556.247,0.0,0.0,0.0,8.93814,-91.21489,37.81522,15.12,5.75,-0.61,4.0
1758079556.51369,1758079556.257,0.0,0.0,0.0,-0.74485,-37.58603,25.7831,15.12,5.75,-0.61,4.0
1758079556.51491,1758079556.267,0.0,0.0,0.0,7.50575,34.77854,29.67921,25.89,2.04,-5.84,4.0
1758079556.5161,1758079556.277,0.0,0.0,0.0,1.94806,84.79775,9.05273,25.89,2.04,-5.84,4.0
1758079556.51848,1758079556.287,0.0,0.0,0.0,-3.20856,95.51206,-9.28192,18.18,-0.53,-1.54,4.0
1758079556.51897,1758079556.297,0.0,0.0,0.0,-6.13065,86.28745,-22.23076,9.83,-0.51,5.46,4.0
1758079556.53595,1758079556.307,0.0,0.0,0.0,-9.11003,85.42801,-28.93437,9.83,-0.51,5.46,4.0
1758079556.53758,1758079556.317,0.0,0.0,0.0,-6.53172,79.52654,-28.41871,11.42,1.18,0.91,4.0
