timeStamp,timeStampAlign,roll,pitch,yaw,gyro_x,gyro_y,gyro_z,acc_x,acc_y,acc_z,flag_num
1758075481.27551,1758075481.24493,0.0,0.0,0.0,48.12846,19.99623,-4.46907,9.7,1.28,0.45,4.0
1758075481.2767,1758075481.25493,0.0,0.0,0.0,47.32632,26.69983,-6.41713,9.7,1.28,0.45,4.0
1758075481.2915,1758075481.26493,0.0,0.0,0.0,47.32632,34.14828,-7.39116,10.72,1.2,0.82,4.0
1758075481.29278,1758075481.27493,0.0,0.0,0.0,46.35228,34.95043,-8.136,10.72,1.2,0.82,4.0
1758075481.30756,1758075481.28493,0.0,0.0,0.0,45.55015,30.25217,-7.73493,9.73,1.03,1.07,4.0
1758075481.32383,1758075481.29493,0.0,0.0,0.0,44.8053,25.09555,-6.8182,8.99,0.89,0.87,4.0
1758075481.32504,1758075481.30493,0.0,0.0,0.0,43.88857,21.37133,-5.21392,8.99,0.89,0.87,4.0
1758075481.33977,1758075481.31493,0.0,0.0,0.0,42.39888,16.61578,-2.6929,9.42,0.91,0.92,4.0
1758075481.35585,1758075481.32493,0.0,0.0,0.0,41.31026,13.80828,-1.03132,9.42,0.91,0.92,4.0
1758075481.3568,1758075481.33493,0.0,0.0,0.0,40.16434,11.80293,0.34377,9.6,1.04,0.92,4.0
1758075481.37187,1758075481.34493,0.0,0.0,0.0,39.13302,10.37054,1.14592,9.6,1.04,0.92,4.0
1758075481.37363,1758075481.35493,0.0,0.0,0.0,37.35685,9.4538,1.71887,9.62,1.19,0.85,4.0
1758075481.38851,1758075481.36493,0.0,0.0,0.0,35.86716,10.02676,1.48969,9.63,1.34,0.8,4.0
1758075481.40456,1758075481.37493,0.0,0.0,0.0,34.32018,10.25595,1.20321,9.63,1.34,0.8,4.0
1758075481.40573,1758075481.38493,0.0,0.0,0.0,32.6013,9.91217,0.51566,9.46,1.46,0.72,4.0
1758075481.4208,1758075481.39493,0.0,0.0,0.0,30.02299,9.96947,-0.0573,9.46,1.46,0.72,4.0
1758075481.42178,1758075481.40493,0.0,0.0,0.0,28.07493,9.91217,-0.40107,9.5,1.54,0.66,4.0
1758075481.43783,1758075481.41493,0.0,0.0,0.0,26.12688,9.85487,-0.45837,9.5,1.54,0.66,4.0
1758075481.45389,1758075481.42493,0.0,0.0,0.0,23.94964,9.62569,-0.11459,9.56,1.58,0.6,4.0
1758075481.45508,1758075481.43493,0.0,0.0,0.0,21.02755,9.4538,0.45837,9.59,1.53,0.52,4.0
1758075481.46961,1758075481.44493,0.0,0.0,0.0,19.13679,9.4538,1.48969,9.59,1.53,0.52,4.0
1758075481.48587,1758075481.45493,0.0,0.0,0.0,17.47521,9.74028,2.86479,9.56,1.45,0.54,4.0
1758075481.48627,1758075481.46493,0.0,0.0,0.0,15.35527,9.28192,4.87014,9.56,1.45,0.54,4.0
1758075481.50194,1758075481.47493,0.0,0.0,0.0,14.09476,8.65166,6.07335,9.42,1.34,0.55,4.0
1758075481.50311,1758075481.48493,0.0,0.0,0.0,13.34992,8.36518,7.33386,9.42,1.34,0.55,4.0
1758075481.51773,1758075481.49493,0.0,0.0,0.0,12.71966,8.65166,8.59437,9.46,1.24,0.56,4.0
1758075481.53398,1758075481.50493,0.0,0.0,0.0,11.45916,10.19865,9.85487,9.46,1.24,0.54,4.0
1758075481.53488,1758075481.51493,0.0,0.0,0.0,10.54242,11.11538,10.25595,9.69,1.18,0.54,4.0
1758075481.54996,1758075481.52493,0.0,0.0,0.0,9.62569,11.57375,10.37054,9.67,1.17,0.63,4.0
1758075481.56592,1758075481.53493,0.0,0.0,0.0,8.99544,11.86023,10.54242,9.67,1.17,0.63,4.0
1758075481.56635,1758075481.54493,0.0,0.0,0.0,7.21927,13.00614,10.25595,9.63,1.18,0.57,4.0
1758075481.58194,1758075481.55493,0.0,0.0,0.0,6.35983,11.45916,10.65701,9.63,1.18,0.57,4.0
1758075481.58318,1758075481.56493,0.0,0.0,0.0,5.32851,11.11538,10.8289,9.47,1.19,0.49,4.0
1758075481.5977,1758075481.57493,0.0,0.0,0.0,4.18259,9.74028,11.11538,9.47,1.19,0.49,4.0
1758075481.61371,1758075481.58493,0.0,0.0,0.0,2.23454,7.62034,11.86023,9.45,1.3,0.37,4.0
1758075481.61528,1758075481.59493,0.0,0.0,0.0,0.85944,5.95876,12.60507,9.44,1.34,0.38,4.0
1758075481.62991,1758075481.60493,0.0,0.0,0.0,-0.22918,3.89611,13.17803,9.44,1.34,0.38,4.0
1758075481.64597,1758075481.61493,0.0,0.0,0.0,-1.3178,0.80214,13.86558,9.53,1.34,0.95,4.0
1758075481.64632,1758075481.62493,0.0,0.0,0.0,-1.14592,-6.35983,13.17803,9.53,1.34,0.95,4.0
1758075481.66202,1758075481.63493,0.0,0.0,0.0,0.0,-12.2613,10.94349,10.31,1.1,2.1,4.0
1758075481.66297,1758075481.64493,0.0,0.0,0.0,2.00535,-19.19409,7.44845,10.31,1.1,2.1,4.0
1758075481.67781,1758075481.65493,0.0,0.0,0.0,5.78687,-26.64254,0.0,11.39,0.63,2.64,4.0
1758075481.69392,1758075481.66493,0.0,0.0,0.0,8.25059,-27.67386,-4.58366,12.0,0.11,2.36,4.0
1758075481.695,1758075481.67493,0.0,0.0,0.0,10.08406,-28.41871,-7.62034,12.0,0.11,2.36,4.0
1758075481.70991,1758075481.68493,0.0,0.0,0.0,11.00079,-28.76248,-8.59437,11.12,-0.04,1.93,4.0
1758075481.71099,1758075481.69493,0.0,0.0,0.0,10.59972,-27.73116,-6.7609,11.12,-0.04,1.93,4.0
1758075481.72642,1758075481.70493,0.0,0.0,0.0,9.22462,-27.61657,-4.18259,10.34,0.32,1.72,4.0
1758075481.74311,1758075481.71493,0.0,0.0,0.0,6.99009,-27.61657,-0.80214,10.34,0.32,1.72,4.0
1758075481.74428,1758075481.72493,0.0,0.0,0.0,3.66693,-26.41335,2.29183,10.07,0.84,2.03,4.0
1758075481.75885,1758075481.73493,0.0,0.0,0.0,-2.06265,-21.48592,6.58902,10.33,1.17,2.39,4.0
1758075481.76056,1758075481.74493,0.0,0.0,0.0,-6.07335,-17.76169,8.0787,10.33,1.17,2.39,4.0
1758075481.77539,1758075481.75493,0.0,0.0,0.0,-9.05273,-14.38124,8.70896,10.17,0.93,2.83,4.0
1758075481.79112,1758075481.76493,0.0,0.0,0.0,-11.91752,-18.22006,7.79223,10.17,0.93,2.83,4.0
1758075481.79228,1758075481.77493,0.0,0.0,0.0,-13.98017,-44.00316,3.32316,7.9,0.16,2.32,4.0
1758075481.80694,1758075481.78493,0.0,0.0,0.0,-13.98017,-56.89471,0.80214,7.9,0.16,2.32,4.0
1758075481.82415,1758075481.79493,0.0,0.0,0.0,-13.17803,-55.06125,-1.60428,7.95,-0.88,1.56,4.0
1758075481.82508,1758075481.80493,0.0,0.0,0.0,-11.86023,-43.88857,-3.32316,7.95,-0.88,1.56,4.0
1758075481.84005,1758075481.81493,0.0,0.0,0.0,-9.22462,-29.67921,-4.81285,10.86,-1.74,1.51,4.0
1758075481.8411,1758075481.82493,0.0,0.0,0.0,-7.16197,-24.5226,-5.32851,10.45,-2.09,1.4,4.0
1758075481.85645,1758075481.83493,0.0,0.0,0.0,-5.27121,-20.45459,-5.21392,10.45,-2.09,1.4,4.0
1758075481.87193,1758075481.84493,0.0,0.0,0.0,-3.20856,-16.50119,-3.49504,10.03,-2.02,0.92,4.0
1758075481.87314,1758075481.85493,0.0,0.0,0.0,0.34377,-8.88085,-0.97403,10.03,-2.02,0.92,4.0
1758075481.88821,1758075481.86493,0.0,0.0,0.0,2.6929,-1.03132,3.26586,10.5,-1.89,0.95,4.0
1758075481.90422,1758075481.87493,0.0,0.0,0.0,4.69825,7.73493,7.67763,10.5,-1.89,0.95,4.0
1758075481.90516,1758075481.88493,0.0,0.0,0.0,6.18794,15.41257,12.71966,10.99,-1.54,0.91,4.0
1758075481.91995,1758075481.89493,0.0,0.0,0.0,6.07335,18.50654,15.06879,10.4,-1.01,0.9,4.0
1758075481.92117,1758075481.90493,0.0,0.0,0.0,6.24524,26.52795,16.21471,10.4,-1.01,0.9,4.0
1758075481.93656,1758075481.91493,0.0,0.0,0.0,4.1253,41.31026,14.32395,11.13,-0.37,0.84,4.0
1758075481.95226,1758075481.92493,0.0,0.0,0.0,1.3178,48.75871,12.37589,11.13,-0.37,0.84,4.0
1758075481.95345,1758075481.93493,0.0,0.0,0.0,-1.14592,47.67009,8.70896,10.05,-0.08,1.39,4.0
1758075481.96803,1758075481.94493,0.0,0.0,0.0,-2.46372,43.14373,6.35983,10.05,-0.08,1.39,4.0
1758075481.98431,1758075481.95493,0.0,0.0,0.0,-3.03668,39.24761,4.0107,9.27,-0.04,1.19,4.0
1758075481.98522,1758075481.96493,0.0,0.0,0.0,-3.03668,34.26288,1.77617,9.53,-0.35,1.38,4.0
1758075482.00021,1758075481.97493,0.0,0.0,0.0,-2.34913,29.8511,1.03132,9.53,-0.35,1.38,4.0
1758075482.00118,1758075481.98493,0.0,0.0,0.0,-1.60428,25.09555,0.68755,9.16,-0.76,1.37,4.0
1758075482.01632,1758075481.99493,0.0,0.0,0.0,-0.45837,20.79837,1.03132,9.16,-0.76,1.37,4.0
1758075482.032,1758075482.00493,0.0,0.0,0.0,1.08862,13.40721,1.71887,8.72,-1.11,1.2,4.0
1758075482.03321,1758075482.01493,0.0,0.0,0.0,1.83346,8.88085,2.29183,8.72,-1.11,1.2,4.0
1758075482.04827,1758075482.02493,0.0,0.0,0.0,2.6929,5.21392,2.97938,8.37,-1.22,1.0,4.0
1758075482.0641,1758075482.03493,0.0,0.0,0.0,3.38045,1.94806,3.72423,8.37,-1.22,1.0,4.0
1758075482.06524,1758075482.04493,0.0,0.0,0.0,4.35448,-2.86479,4.52637,8.37,-1.13,0.79,4.0
1758075482.08034,1758075482.05493,0.0,0.0,0.0,4.87014,-5.09932,4.69825,8.48,-0.87,0.65,4.0
1758075482.08125,1758075482.06493,0.0,0.0,0.0,5.50039,-4.92744,4.58366,8.48,-0.87,0.65,4.0
1758075482.09633,1758075482.07493,0.0,0.0,0.0,5.4431,-3.26586,3.20856,9.05,-0.52,0.55,4.0
1758075482.11237,1758075482.08493,0.0,0.0,0.0,5.09932,-1.83346,1.60428,9.05,-0.52,0.55,4.0
1758075482.11326,1758075482.09493,0.0,0.0,0.0,4.35448,-2.7502,-0.22918,9.06,-0.2,0.58,4.0
1758075482.12833,1758075482.10493,0.0,0.0,0.0,3.83882,-4.52637,-2.11994,9.06,-0.2,0.58,4.0
1758075482.1444,1758075482.11493,0.0,0.0,0.0,2.86479,-7.33386,-4.64096,8.96,-0.05,0.63,4.0
1758075482.14532,1758075482.12493,0.0,0.0,0.0,2.06265,-9.68299,-5.78687,9.07,-0.1,0.75,4.0
1758075482.16029,1758075482.13493,0.0,0.0,0.0,1.3178,-11.97482,-6.7609,9.07,-0.1,0.75,4.0
1758075482.16133,1758075482.14493,0.0,0.0,0.0,0.34377,-14.43854,-7.16197,9.18,-0.2,0.7,4.0
1758075482.17639,1758075482.15493,0.0,0.0,0.0,-1.03132,-17.13144,-7.44845,9.18,-0.2,0.7,4.0
1758075482.19242,1758075482.16493,0.0,0.0,0.0,-1.83346,-17.81899,-7.39116,9.29,-0.25,0.54,4.0
1758075482.19335,1758075482.17493,0.0,0.0,0.0,-2.7502,-16.84496,-7.33386,9.29,-0.25,0.54,4.0
1758075482.20843,1758075482.18493,0.0,0.0,0.0,-3.26586,-15.58445,-7.16197,9.48,-0.3,0.45,4.0
1758075482.22436,1758075482.19493,0.0,0.0,0.0,-3.72423,-14.38124,-6.87549,9.34,-0.33,0.37,4.0
1758075482.2253,1758075482.20493,0.0,0.0,0.0,-4.18259,-13.69369,-7.16197,9.34,-0.33,0.37,4.0
1758075482.24045,1758075482.21493,0.0,0.0,0.0,-4.35448,-12.60507,-7.62034,9.28,-0.33,0.31,4.0
1758075482.24251,1758075482.22493,0.0,0.0,0.0,-4.29718,-11.28727,-8.30789,9.28,-0.33,0.31,4.0
1758075482.25744,1758075482.23493,0.0,0.0,0.0,-4.18259,-9.4538,-9.68299,9.44,-0.31,0.32,4.0
1758075482.27395,1758075482.24493,0.0,0.0,0.0,-4.18259,-8.47978,-10.94349,9.44,-0.31,0.32,4.0
1758075482.27519,1758075482.25493,0.0,0.0,0.0,-3.72423,-7.10468,-12.37589,9.82,-0.28,0.49,4.0
1758075482.29052,1758075482.26493,0.0,0.0,0.0,-2.6929,-6.13065,-13.80828,9.82,-0.28,0.49,4.0
1758075482.29173,1758075482.27493,0.0,0.0,0.0,-1.14592,-5.32851,-14.38124,10.21,-0.47,0.73,4.0
1758075482.30648,1758075482.28493,0.0,0.0,0.0,0.40107,-5.55769,-14.32395,10.15,-0.84,0.92,4.0
1758075482.32254,1758075482.29493,0.0,0.0,0.0,2.34913,-5.72958,-13.86558,10.15,-0.84,0.92,4.0
1758075482.32341,1758075482.30493,0.0,0.0,0.0,4.98473,-7.04738,-12.83425,9.65,-1.19,0.9,4.0
1758075482.33826,1758075482.31493,0.0,0.0,0.0,6.07335,-7.73493,-12.83425,9.65,-1.19,0.9,4.0
1758075482.35422,1758075482.32493,0.0,0.0,0.0,6.47442,-7.50575,-12.77696,9.15,-0.88,0.77,4.0
1758075482.3556,1758075482.33493,0.0,0.0,0.0,6.58902,-7.50575,-12.71966,9.15,-0.88,0.77,4.0
1758075482.37057,1758075482.34493,0.0,0.0,0.0,6.24524,-8.65166,-13.06344,8.76,-0.63,1.05,4.0
1758075482.37174,1758075482.35493,0.0,0.0,0.0,5.90147,-9.74028,-13.46451,8.53,-0.82,1.1,4.0
1758075482.38652,1758075482.36493,0.0,0.0,0.0,5.55769,-11.51645,-13.5791,8.53,-0.82,1.1,4.0
1758075482.40251,1758075482.37493,0.0,0.0,0.0,5.09932,-15.0115,-13.98017,8.54,-1.02,0.96,4.0
1758075482.4035,1758075482.38493,0.0,0.0,0.0,4.35448,-21.08485,-13.80828,8.54,-1.02,0.96,4.0
1758075482.41854,1758075482.39493,0.0,0.0,0.0,3.95341,-25.09555,-13.69369,8.52,-1.01,1.1,4.0
1758075482.43459,1758075482.40493,0.0,0.0,0.0,3.60963,-28.01764,-13.40721,8.52,-1.01,1.1,4.0
1758075482.43579,1758075482.41493,0.0,0.0,0.0,3.03668,-30.19488,-13.12073,8.56,-0.89,0.88,4.0
1758075482.45035,1758075482.42493,0.0,0.0,0.0,2.6929,-30.25217,-12.77696,8.51,-0.65,0.39,4.0
1758075482.45183,1758075482.43493,0.0,0.0,0.0,2.06265,-29.39274,-12.60507,8.51,-0.65,0.39,4.0
1758075482.46655,1758075482.44493,0.0,0.0,0.0,1.83346,-27.50197,-12.2613,8.07,-0.41,-0.31,4.0
1758075482.4826,1758075482.45493,0.0,0.0,0.0,1.3178,-25.7831,-11.91752,8.07,-0.41,-0.31,4.0
1758075482.48355,1758075482.46493,0.0,0.0,0.0,0.0,-22.68913,-11.51645,7.35,-0.11,-0.76,4.0
1758075482.49863,1758075482.47493,0.0,0.0,0.0,-1.14592,-21.02755,-11.51645,7.35,-0.11,-0.76,4.0
1758075482.51434,1758075482.48493,0.0,0.0,0.0,-2.46372,-19.53786,-11.57375,6.61,0.09,-0.85,4.0
1758075482.51558,1758075482.49493,0.0,0.0,0.0,-4.92744,-18.16276,-12.54778,6.61,0.09,-0.85,4.0
1758075482.53038,1758075482.50493,0.0,0.0,0.0,-6.7609,-16.3293,-13.23533,6.08,0.26,-0.53,4.0
1758075482.53159,1758075482.51493,0.0,0.0,0.0,-8.70896,-16.04282,-13.80828,5.77,0.36,-0.45,4.0
1758075482.54638,1758075482.52493,0.0,0.0,0.0,-11.00079,-16.3293,-14.09476,5.77,0.36,-0.45,4.0
1758075482.56233,1758075482.53493,0.0,0.0,0.0,-14.9542,-18.16276,-13.80828,5.66,0.46,-0.37,4.0
1758075482.56357,1758075482.54493,0.0,0.0,0.0,-18.10547,-20.22541,-13.5218,5.66,0.46,-0.37,4.0
1758075482.57837,1758075482.55493,0.0,0.0,0.0,-21.25674,-23.60586,-12.49048,5.72,0.48,0.08,4.0
1758075482.5947,1758075482.56493,0.0,0.0,0.0,-24.29341,-28.59059,-10.8289,5.72,0.48,0.08,4.0
1758075482.59559,1758075482.57493,0.0,0.0,0.0,-27.67386,-30.30947,-8.02141,6.48,0.41,1.38,4.0
1758075482.61068,1758075482.58493,0.0,0.0,0.0,-29.67921,-26.01229,-5.95876,9.41,0.66,0.99,4.0
1758075482.61186,1758075482.59493,0.0,0.0,0.0,-32.20023,-17.81899,-4.64096,9.41,0.66,0.99,4.0
1758075482.62668,1758075482.60493,0.0,0.0,0.0,-34.72124,-11.74564,-2.46372,13.25,1.4,1.19,4.0
1758075482.64371,1758075482.61493,0.0,0.0,0.0,-39.76327,-6.24524,1.20321,13.25,1.4,1.19,4.0
1758075482.64461,1758075482.62493,0.0,0.0,0.0,-43.65939,-0.80214,3.72423,16.18,2.27,1.11,4.0
1758075482.65968,1758075482.63493,0.0,0.0,0.0,-48.75871,3.03668,6.70361,16.18,2.27,1.11,4.0
1758075482.66089,1758075482.64493,0.0,0.0,0.0,-54.14451,7.96411,12.37589,19.04,3.34,3.89,4.0
1758075482.67673,1758075482.65493,0.0,0.0,0.0,-63.02536,16.38659,23.54857,22.88,5.26,-0.4,4.0
1758075482.69272,1758075482.66493,0.0,0.0,0.0,-63.31184,14.43854,24.98096,22.88,5.26,-0.4,4.0
1758075482.69362,1758075482.67493,0.0,0.0,0.0,-61.65026,6.24524,21.02755,17.83,3.17,-0.75,4.0
1758075482.70872,1758075482.68493,0.0,0.0,0.0,-59.18654,-0.74485,11.45916,17.83,3.17,-0.75,4.0
1758075482.72459,1758075482.69493,0.0,0.0,0.0,-52.9986,-4.81285,5.09932,13.65,-0.25,0.12,4.0
1758075482.72571,1758075482.70493,0.0,0.0,0.0,-49.90463,2.23454,-0.74485,13.65,-0.25,0.12,4.0
1758075482.74071,1758075482.71493,0.0,0.0,0.0,-45.55015,17.13144,-6.41713,13.31,-1.69,1.05,4.0
1758075482.7417,1758075482.72493,0.0,0.0,0.0,-42.57077,28.76248,-16.04282,13.31,-1.69,1.05,4.0
1758075482.75677,1758075482.73493,0.0,0.0,0.0,-39.87786,19.70975,-18.56383,12.86,-1.85,0.78,4.0
1758075482.77274,1758075482.74493,0.0,0.0,0.0,-36.84119,13.5218,-18.62113,11.87,-1.29,0.51,4.0
1758075482.7738,1758075482.75493,0.0,0.0,0.0,-32.42941,10.94349,-14.03747,11.87,-1.29,0.51,4.0
1758075482.7885,1758075482.76493,0.0,0.0,0.0,-24.35071,15.12609,-2.86479,13.41,-0.03,0.36,4.0
1758075482.80453,1758075482.77493,0.0,0.0,0.0,-19.13679,22.57454,3.72423,13.41,-0.03,0.36,4.0
1758075482.80578,1758075482.78493,0.0,0.0,0.0,-14.43854,27.96034,7.73493,13.36,0.86,0.66,4.0
1758075482.82079,1758075482.79493,0.0,0.0,0.0,-10.8289,27.84575,8.65166,13.36,0.86,0.66,4.0
1758075482.82176,1758075482.80493,0.0,0.0,0.0,-6.99009,23.54857,6.35983,10.99,1.07,0.7,4.0
1758075482.83682,1758075482.81493,0.0,0.0,0.0,-5.55769,20.16812,3.09397,9.51,0.77,0.64,4.0
1758075482.85361,1758075482.82493,0.0,0.0,0.0,-4.69825,17.13144,-0.17189,9.51,0.77,0.64,4.0
1758075482.85521,1758075482.83493,0.0,0.0,0.0,-4.69825,15.29797,-3.66693,9.03,0.28,0.84,4.0
1758075482.86964,1758075482.84493,0.0,0.0,0.0,-5.78687,12.204,-8.30789,9.03,0.28,0.84,4.0
1758075482.87079,1758075482.85493,0.0,0.0,0.0,-6.53172,11.28727,-10.71431,8.85,0.2,0.82,4.0
1758075482.88686,1758075482.86493,0.0,0.0,0.0,-7.33386,10.8862,-12.77696,8.85,0.2,0.82,4.0
1758075482.90287,1758075482.87493,0.0,0.0,0.0,-7.84952,11.11538,-14.20935,9.02,0.61,0.65,4.0
1758075482.90382,1758075482.88493,0.0,0.0,0.0,-8.136,11.74564,-15.29797,9.16,1.14,0.56,4.0
1758075482.91865,1758075482.89493,0.0,0.0,0.0,-7.84952,12.43318,-15.0115,9.16,1.14,0.56,4.0
1758075482.9346,1758075482.90493,0.0,0.0,0.0,-7.39116,13.86558,-14.20935,9.19,1.42,0.52,4.0
1758075482.93585,1758075482.91493,0.0,0.0,0.0,-6.70361,15.75634,-12.2613,9.19,1.42,0.52,4.0
1758075482.95094,1758075482.92493,0.0,0.0,0.0,-6.24524,18.9649,-10.71431,9.21,1.33,0.46,4.0
1758075482.95185,1758075482.93493,0.0,0.0,0.0,-5.61499,20.22541,-8.76626,9.21,1.33,0.46,4.0
1758075482.96686,1758075482.94493,0.0,0.0,0.0,-4.92744,20.79837,-6.87549,9.04,1.0,0.37,4.0
1758075482.98264,1758075482.95493,0.0,0.0,0.0,-3.55234,20.05352,-4.35448,9.04,1.0,0.37,4.0
1758075482.98422,1758075482.96493,0.0,0.0,0.0,-2.63561,18.73572,-2.92208,8.95,0.69,0.36,4.0
1758075482.99893,1758075482.97493,0.0,0.0,0.0,-1.83346,17.30333,-1.43239,9.22,0.58,0.25,4.0
1758075483.01473,1758075482.98493,0.0,0.0,0.0,-1.77617,16.38659,-0.40107,9.22,0.58,0.25,4.0
1758075483.01622,1758075482.99493,0.0,0.0,0.0,-2.11994,11.86023,0.97403,9.46,0.75,0.29,4.0
1758075483.03084,1758075483.00493,0.0,0.0,0.0,-2.86479,8.47978,1.66158,9.46,0.75,0.29,4.0
1758075483.03191,1758075483.01493,0.0,0.0,0.0,-3.49504,4.81285,2.23454,9.49,1.15,0.43,4.0
1758075483.047,1758075483.02493,0.0,0.0,0.0,-4.52637,1.48969,2.40642,9.49,1.15,0.43,4.0
1758075483.06273,1758075483.03493,0.0,0.0,0.0,-6.41713,-2.29183,1.83346,9.49,1.54,0.48,4.0
1758075483.06392,1758075483.04493,0.0,0.0,0.0,-7.73493,-4.23989,0.80214,9.36,1.7,0.64,4.0
1758075483.07894,1758075483.05493,0.0,0.0,0.0,-8.88085,-6.07335,-0.34377,9.36,1.7,0.64,4.0
1758075483.09482,1758075483.06493,0.0,0.0,0.0,-9.96947,-6.70361,-1.66158,9.36,1.52,0.85,4.0
1758075483.09598,1758075483.07493,0.0,0.0,0.0,-10.54242,-6.18794,-1.43239,9.36,1.52,0.85,4.0
1758075483.11081,1758075483.08493,0.0,0.0,0.0,-10.94349,-8.70896,-2.97938,9.26,0.97,0.86,4.0
1758075483.11196,1758075483.09493,0.0,0.0,0.0,-9.85487,-6.24524,-2.34913,9.26,0.97,0.86,4.0
1758075483.12705,1758075483.10493,0.0,0.0,0.0,-8.65166,-6.7609,-2.11994,9.5,0.5,1.0,4.0
1758075483.14308,1758075483.11493,0.0,0.0,0.0,-6.35983,-5.61499,-1.66158,9.5,0.32,0.85,4.0
1758075483.14417,1758075483.12493,0.0,0.0,0.0,-4.81285,-4.23989,-1.14592,9.5,0.32,0.85,4.0
1758075483.15911,1758075483.13493,0.0,0.0,0.0,-3.55234,-2.34913,-0.11459,9.82,0.41,0.95,4.0
1758075483.17483,1758075483.14493,0.0,0.0,0.0,-1.71887,-0.22918,1.83346,9.82,0.41,0.95,4.0
1758075483.17632,1758075483.15493,0.0,0.0,0.0,-0.51566,0.45837,3.09397,9.92,0.55,0.83,4.0
1758075483.19108,1758075483.16493,0.0,0.0,0.0,0.51566,1.20321,4.1253,9.92,0.55,0.83,4.0
1758075483.19228,1758075483.17493,0.0,0.0,0.0,1.77617,1.14592,5.21392,9.76,0.62,0.74,4.0
1758075483.2071,1758075483.18493,0.0,0.0,0.0,3.55234,1.20321,6.13065,9.76,0.62,0.81,4.0
1758075483.22313,1758075483.19493,0.0,0.0,0.0,4.35448,1.14592,7.16197,9.54,0.54,0.81,4.0
1758075483.22431,1758075483.20493,0.0,0.0,0.0,4.64096,0.45837,7.67763,9.51,0.49,0.92,4.0
1758075483.23904,1758075483.21493,0.0,0.0,0.0,4.92744,-0.68755,8.65166,9.51,0.49,0.92,4.0
1758075483.25508,1758075483.22493,0.0,0.0,0.0,5.09932,-3.83882,9.85487,9.26,0.53,0.9,4.0
1758075483.25604,1758075483.23493,0.0,0.0,0.0,4.98473,-5.95876,10.54242,9.26,0.53,0.9,4.0
1758075483.27088,1758075483.24493,0.0,0.0,0.0,5.15662,-6.70361,11.11538,9.05,0.58,0.64,4.0
1758075483.27206,1758075483.25493,0.0,0.0,0.0,5.27121,-6.53172,11.74564,9.05,0.58,0.64,4.0
1758075483.28688,1758075483.26493,0.0,0.0,0.0,5.32851,-5.61499,12.14671,9.09,0.58,0.47,4.0
1758075483.30312,1758075483.27493,0.0,0.0,0.0,5.55769,-4.58366,12.43318,9.2,0.54,0.31,4.0
1758075483.30407,1758075483.28493,0.0,0.0,0.0,5.90147,-3.38045,12.83425,9.2,0.54,0.31,4.0
1758075483.3189,1758075483.29493,0.0,0.0,0.0,6.24524,-2.11994,13.00614,9.42,0.53,0.12,4.0
1758075483.33497,1758075483.30493,0.0,0.0,0.0,6.7609,1.3178,13.80828,9.42,0.53,0.12,4.0
1758075483.33661,1758075483.31493,0.0,0.0,0.0,7.16197,3.38045,14.32395,9.65,0.55,-0.01,4.0
1758075483.35091,1758075483.32493,0.0,0.0,0.0,7.50575,4.29718,14.83961,9.65,0.55,-0.01,4.0
1758075483.35219,1758075483.33493,0.0,0.0,0.0,7.79223,5.15662,15.06879,9.39,0.65,0.0,4.0
1758075483.3669,1758075483.34493,0.0,0.0,0.0,7.73493,5.15662,14.83961,9.21,0.81,0.16,4.0
1758075483.38323,1758075483.35493,0.0,0.0,0.0,7.44845,4.58366,14.9542,9.21,0.81,0.16,4.0
1758075483.38413,1758075483.36493,0.0,0.0,0.0,6.99009,3.60963,15.12609,9.41,1.04,0.3,4.0
1758075483.39932,1758075483.37493,0.0,0.0,0.0,6.58902,2.46372,16.73037,9.41,1.04,0.3,4.0
1758075483.41511,1758075483.38493,0.0,0.0,0.0,6.13065,2.06265,17.99088,9.85,1.2,0.25,4.0
1758075483.41615,1758075483.39493,0.0,0.0,0.0,5.72958,0.11459,18.27736,9.85,1.2,0.25,4.0
1758075483.43099,1758075483.40493,0.0,0.0,0.0,5.61499,-4.18259,18.56383,9.47,1.18,0.07,4.0
1758075483.4322,1758075483.41493,0.0,0.0,0.0,6.07335,-6.41713,17.81899,9.22,1.18,-0.24,4.0
1758075483.44731,1758075483.42493,0.0,0.0,0.0,6.70361,-7.04738,17.13144,9.22,1.0,-0.24,4.0
1758075483.4632,1758075483.43493,0.0,0.0,0.0,7.50575,-8.25059,16.21471,9.01,0.82,-0.15,4.0
1758075483.46418,1758075483.44493,0.0,0.0,0.0,8.25059,-10.02676,15.24068,9.01,0.82,-0.15,4.0
1758075483.47925,1758075483.45493,0.0,0.0,0.0,9.5684,-12.60507,14.72501,8.64,0.72,-0.16,4.0
1758075483.49528,1758075483.46493,0.0,0.0,0.0,10.19865,-13.98017,14.43854,8.64,0.72,-0.16,4.0
1758075483.49652,1758075483.47493,0.0,0.0,0.0,10.8862,-14.43854,14.61043,8.39,0.68,-0.35,4.0
1758075483.51132,1758075483.48493,0.0,0.0,0.0,11.51645,-14.38124,14.83961,8.39,0.68,-0.35,4.0
1758075483.51253,1758075483.49493,0.0,0.0,0.0,12.49048,-14.03747,15.64175,8.11,0.69,-0.5,4.0
1758075483.52722,1758075483.50493,0.0,0.0,0.0,13.06344,-13.40721,16.21471,7.84,0.72,-0.61,4.0
1758075483.54341,1758075483.51493,0.0,0.0,0.0,13.69369,-12.43318,16.84496,7.84,0.72,-0.61,4.0
1758075483.54424,1758075483.52493,0.0,0.0,0.0,14.15206,-11.45916,17.81899,7.81,0.73,-0.58,4.0
1758075483.55936,1758075483.53493,0.0,0.0,0.0,14.9542,-9.96947,18.33465,7.81,0.73,-0.58,4.0
1758075483.57515,1758075483.54493,0.0,0.0,0.0,15.41257,-9.62569,18.79302,7.81,0.77,-0.63,4.0
1758075483.5763,1758075483.55493,0.0,0.0,0.0,15.98552,-9.11003,19.25138,7.81,0.77,-0.63,4.0
1758075483.5914,1758075483.56493,0.0,0.0,0.0,16.61578,-10.08406,19.53786,7.67,0.84,-0.63,4.0
1758075483.5923,1758075483.57493,0.0,0.0,0.0,16.95955,-11.34457,19.53786,7.19,0.87,-0.5,4.0
1758075483.60717,1758075483.58493,0.0,0.0,0.0,17.18874,-13.40721,19.48057,7.19,0.87,-0.5,4.0
1758075483.62315,1758075483.59493,0.0,0.0,0.0,17.24603,-16.3293,19.07949,6.53,0.84,-0.35,4.0
1758075483.62426,1758075483.60493,0.0,0.0,0.0,17.53251,-23.89234,17.93358,6.53,0.84,-0.35,4.0
1758075483.63934,1758075483.61493,0.0,0.0,0.0,17.93358,-30.59595,16.272,6.0,0.53,1.19,4.0
1758075483.65533,1758075483.62493,0.0,0.0,0.0,18.22006,-37.18496,12.49048,6.0,0.53,1.19,4.0
1758075483.65632,1758075483.63493,0.0,0.0,0.0,19.07949,-37.18496,8.93814,7.45,-0.43,2.2,4.0
1758075483.67228,1758075483.64493,0.0,0.0,0.0,22.11617,-25.72581,2.86479,11.6,-1.68,2.71,4.0
1758075483.67314,1758075483.65493,0.0,0.0,0.0,25.09555,-15.92823,-0.74485,11.6,-1.68,2.71,4.0
1758075483.68845,1758075483.66493,0.0,0.0,0.0,26.98631,-19.42327,-4.98473,13.12,-2.37,2.84,4.0
1758075483.7044,1758075483.67493,0.0,0.0,0.0,30.36677,-44.51882,-4.1253,13.12,-2.37,2.84,4.0
1758075483.70534,1758075483.68493,0.0,0.0,0.0,37.12767,-56.32175,-3.60963,13.02,-3.09,2.12,4.0
1758075483.72045,1758075483.69493,0.0,0.0,0.0,40.96649,-43.25832,-3.32316,13.02,-3.09,2.12,4.0
1758075483.72136,1758075483.70493,0.0,0.0,0.0,41.31026,-22.23076,-6.53172,20.59,-4.37,1.73,4.0
1758075483.7372,1758075483.71493,0.0,0.0,0.0,40.27893,-10.02676,-8.0787,20.59,-4.37,1.73,4.0
1758075483.75354,1758075483.72493,0.0,0.0,0.0,33.40344,-7.04738,-10.8289,22.13,-4.29,0.1,4.0
1758075483.75471,1758075483.73493,0.0,0.0,0.0,27.84575,-1.3751,-10.8862,16.88,-0.97,0.04,4.0
1758075483.7695,1758075483.74493,0.0,0.0,0.0,22.91831,9.5684,-8.47978,16.88,-0.97,0.04,4.0
1758075483.78607,1758075483.75493,0.0,0.0,0.0,16.38659,21.60051,-3.03668,14.24,1.33,0.75,4.0
1758075483.78844,1758075483.76493,0.0,0.0,0.0,12.204,33.40344,0.22918,14.24,1.33,0.75,4.0
1758075483.80328,1758075483.77493,0.0,0.0,0.0,7.79223,33.68992,2.29183,11.34,1.23,0.68,4.0
1758075483.80446,1758075483.78493,0.0,0.0,0.0,4.23989,29.9084,2.57831,11.34,1.23,0.68,4.0
1758075483.81935,1758075483.79493,0.0,0.0,0.0,0.17189,22.40265,0.51566,9.81,0.49,0.77,4.0
1758075483.83612,1758075483.80493,0.0,0.0,0.0,-2.11994,21.6578,-1.83346,10.65,-0.22,0.24,4.0
1758075483.83807,1758075483.81493,0.0,0.0,0.0,-3.89611,24.86637,-4.52637,10.65,-0.22,0.24,4.0
1758075483.85357,1758075483.82493,0.0,0.0,0.0,-4.52637,28.07493,-6.47442,11.3,-0.93,0.0,4.0
1758075483.85479,1758075483.83493,0.0,0.0,0.0,-4.81285,31.2262,-7.50575,11.3,-0.93,0.0,4.0
1758075483.86929,1758075483.84493,0.0,0.0,0.0,-3.60963,32.25753,-7.39116,10.31,-1.24,-0.03,4.0
1758075483.8856,1758075483.85493,0.0,0.0,0.0,-1.83346,32.77319,-6.24524,10.31,-1.24,-0.03,4.0
1758075483.88677,1758075483.86493,0.0,0.0,0.0,0.68755,32.48671,-4.81285,9.3,-1.23,0.03,4.0
1758075483.90164,1758075483.87493,0.0,0.0,0.0,4.92744,27.2155,-1.43239,8.5,-1.24,0.33,4.0
1758075483.90253,1758075483.88493,0.0,0.0,0.0,7.79223,23.0902,0.74485,8.5,-1.24,0.33,4.0
1758075483.91766,1758075483.89493,0.0,0.0,0.0,10.54242,18.27736,2.92208,8.19,-1.24,0.37,4.0
1758075483.93364,1758075483.90493,0.0,0.0,0.0,12.77696,13.69369,4.81285,8.19,-1.24,0.37,4.0
1758075483.93458,1758075483.91493,0.0,0.0,0.0,13.98017,13.46451,5.72958,8.57,-1.03,0.27,4.0
1758075483.9497,1758075483.92493,0.0,0.0,0.0,15.41257,16.95955,7.33386,8.57,-1.03,0.27,4.0
1758075483.9655,1758075483.93493,0.0,0.0,0.0,14.83961,32.83048,5.09932,9.83,-0.75,0.22,4.0
1758075483.96767,1758075483.94493,0.0,0.0,0.0,13.23533,40.33623,2.34913,9.83,-0.75,0.22,4.0
1758075483.98263,1758075483.95493,0.0,0.0,0.0,9.62569,29.10626,0.80214,9.69,-0.36,0.5,4.0
1758075483.98383,1758075483.96493,0.0,0.0,0.0,7.33386,22.05888,-1.60428,8.05,-0.24,-0.04,4.0
1758075483.99836,1758075483.97493,0.0,0.0,0.0,6.13065,22.34536,-3.38045,8.05,-0.24,-0.04,4.0
1758075484.01433,1758075483.98493,0.0,0.0,0.0,5.09932,24.12152,-5.72958,9.24,-0.36,0.17,4.0
1758075484.01559,1758075483.99493,0.0,0.0,0.0,5.15662,21.08485,-6.99009,9.24,-0.36,0.17,4.0
1758075484.03198,1758075484.00493,0.0,0.0,0.0,5.78687,17.93358,-7.84952,8.62,-0.63,0.27,4.0
1758075484.03319,1758075484.01493,0.0,0.0,0.0,6.87549,15.41257,-8.59437,8.62,-0.63,0.27,4.0
1758075484.04843,1758075484.02493,0.0,0.0,0.0,9.22462,11.28727,-9.4538,8.41,-1.02,-0.04,4.0
1758075484.06441,1758075484.03493,0.0,0.0,0.0,11.00079,7.50575,-9.85487,8.04,-1.4,0.1,4.0
1758075484.06644,1758075484.04493,0.0,0.0,0.0,13.06344,3.89611,-10.37054,8.04,-1.4,0.1,4.0
1758075484.0817,1758075484.05493,0.0,0.0,0.0,15.24068,0.97403,-10.8289,8.08,-1.57,0.19,4.0
1758075484.08258,1758075484.06493,0.0,0.0,0.0,18.90761,-2.6929,-11.28727,8.08,-1.57,0.19,4.0
1758075484.09749,1758075484.07493,0.0,0.0,0.0,21.88699,-5.72958,-11.22997,8.26,-1.5,0.34,4.0
1758075484.11341,1758075484.08493,0.0,0.0,0.0,24.75178,-7.96411,-11.51645,8.26,-1.5,0.34,4.0
1758075484.11463,1758075484.09493,0.0,0.0,0.0,27.67386,-9.74028,-11.57375,8.24,-1.39,0.49,4.0
1758075484.12972,1758075484.10493,0.0,0.0,0.0,31.91375,-14.61043,-11.57375,7.94,-1.29,0.45,4.0
1758075484.14574,1758075484.11493,0.0,0.0,0.0,34.09099,-18.56383,-11.63104,7.94,-1.29,0.45,4.0
1758075484.14828,1758075484.12493,0.0,0.0,0.0,35.69527,-21.48592,-11.63104,7.47,-1.11,0.16,4.0
1758075484.1638,1758075484.13493,0.0,0.0,0.0,37.01308,-23.0902,-11.22997,7.47,-1.11,0.16,4.0
1758075484.16472,1758075484.14493,0.0,0.0,0.0,38.50277,-23.66316,-9.85487,7.3,-0.88,-0.09,4.0
1758075484.17969,1758075484.15493,0.0,0.0,0.0,38.61736,-23.66316,-8.47978,7.3,-0.88,-0.09,4.0
1758075484.19553,1758075484.16493,0.0,0.0,0.0,37.87251,-24.12152,-7.84952,6.71,-0.64,-0.02,4.0
1758075484.19626,1758075484.17493,0.0,0.0,0.0,35.92446,-25.72581,-6.58902,6.71,-0.64,-0.02,4.0
1758075484.21283,1758075484.18493,0.0,0.0,0.0,33.68992,-23.83505,-6.47442,6.1,-0.39,-0.07,4.0
1758075484.21382,1758075484.19493,0.0,0.0,0.0,31.11161,-22.00158,-6.58902,6.05,-0.07,-0.22,4.0
1758075484.22882,1758075484.20493,0.0,0.0,0.0,28.07493,-20.45459,-6.70361,6.05,-0.07,-0.22,4.0
1758075484.24467,1758075484.21493,0.0,0.0,0.0,22.23076,-17.01685,-6.70361,5.89,0.25,-0.24,4.0
1758075484.24527,1758075484.22493,0.0,0.0,0.0,18.33465,-15.75634,-6.8182,5.89,0.25,-0.24,4.0
1758075484.26482,1758075484.23493,0.0,0.0,0.0,13.86558,-15.24068,-6.70361,5.68,0.57,-0.36,4.0
1758075484.2661,1758075484.24493,0.0,0.0,0.0,9.33921,-14.66772,-6.41713,5.68,0.57,-0.36,4.0
1758075484.28436,1758075484.25493,0.0,0.0,0.0,3.55234,-18.16276,-6.35983,5.55,0.86,-0.47,4.0
1758075484.2856,1758075484.26493,0.0,0.0,0.0,0.85944,-29.96569,-6.35983,4.42,0.83,-0.29,4.0
1758075484.30086,1758075484.27493,0.0,0.0,0.0,-1.48969,-50.59217,-5.55769,4.42,0.83,-0.29,4.0
1758075484.30183,1758075484.28493,0.0,0.0,0.0,-4.23989,-64.11398,-6.18794,3.98,0.62,1.28,4.0
1758075484.31687,1758075484.29493,0.0,0.0,0.0,-7.62034,-53.17049,-5.21392,3.98,0.62,1.28,4.0
1758075484.33343,1758075484.30493,0.0,0.0,0.0,-9.39651,-43.88857,-2.7502,9.36,0.62,3.82,4.0
1758075484.33462,1758075484.31493,0.0,0.0,0.0,-13.17803,-37.24226,0.51566,9.36,0.62,3.82,4.0
1758075484.34988,1758075484.32493,0.0,0.0,0.0,-18.10547,-31.45539,4.23989,14.05,1.87,3.59,4.0
1758075484.3528,1758075484.33493,0.0,0.0,0.0,-27.73116,-19.88164,9.68299,18.82,3.69,1.09,4.0
1758075484.3679,1758075484.34493,0.0,0.0,0.0,-35.2369,-7.21927,13.23533,18.82,3.69,1.09,4.0
1758075484.38388,1758075484.35493,0.0,0.0,0.0,-42.91454,7.44845,16.10011,22.32,4.05,2.67,4.0
1758075484.38529,1758075484.36493,0.0,0.0,0.0,-50.13381,12.83425,22.63183,22.32,4.05,2.67,4.0
1758075484.39985,1758075484.37493,0.0,0.0,0.0,-55.06125,-7.96411,28.30412,23.03,3.32,3.18,4.0
1758075484.40114,1758075484.38493,0.0,0.0,0.0,-53.80074,-17.99088,30.19488,23.03,3.32,3.18,4.0
1758075484.41696,1758075484.39493,0.0,0.0,0.0,-49.90463,-4.87014,26.81443,20.45,1.29,-0.57,4.0
1758075484.43298,1758075484.40493,0.0,0.0,0.0,-40.10705,30.99702,16.90226,20.45,1.29,-0.57,4.0
1758075484.43388,1758075484.41493,0.0,0.0,0.0,-32.71589,42.91454,10.02676,18.14,-1.42,0.33,4.0
1758075484.44892,1758075484.42493,0.0,0.0,0.0,-26.06958,48.30034,3.38045,12.84,-2.85,1.51,4.0
1758075484.44981,1758075484.43493,0.0,0.0,0.0,-17.58981,49.21708,0.11459,12.84,-2.85,1.51,4.0
1758075484.46522,1758075484.44493,0.0,0.0,0.0,-4.92744,34.32018,-4.18259,10.46,-3.52,0.48,4.0
1758075484.48073,1758075484.45493,0.0,0.0,0.0,2.7502,20.85567,-6.13065,10.46,-3.52,0.48,4.0
1758075484.48254,1758075484.46493,0.0,0.0,0.0,8.76626,10.94349,-6.41713,10.44,-2.02,0.57,4.0
1758075484.49694,1758075484.47493,0.0,0.0,0.0,13.06344,7.39116,-5.55769,10.44,-2.02,0.57,4.0
1758075484.51402,1758075484.48493,0.0,0.0,0.0,15.75634,16.90226,-2.86479,12.04,-0.25,0.36,4.0
1758075484.51536,1758075484.49493,0.0,0.0,0.0,16.10011,26.87172,-0.17189,12.64,1.01,0.58,4.0
1758075484.52994,1758075484.50493,0.0,0.0,0.0,14.9542,35.75257,1.60428,12.64,1.01,0.58,4.0
1758075484.53117,1758075484.51493,0.0,0.0,0.0,12.60507,37.24226,2.06265,10.47,1.36,0.75,4.0
1758075484.54637,1758075484.52493,0.0,0.0,0.0,7.44845,27.2155,-0.51566,10.47,1.36,0.75,4.0
1758075484.56194,1758075484.53493,0.0,0.0,0.0,4.18259,19.76705,-3.60963,8.11,1.35,0.07,4.0
1758075484.56297,1758075484.54493,0.0,0.0,0.0,1.14592,15.58445,-7.62034,8.11,1.35,0.07,4.0
1758075484.57794,1758075484.55493,0.0,0.0,0.0,-1.48969,12.89155,-11.86023,8.24,1.2,-0.27,4.0
1758075484.59388,1758075484.56493,0.0,0.0,0.0,-4.92744,8.59437,-18.10547,8.5,0.76,-0.16,4.0
1758075484.59499,1758075484.57493,0.0,0.0,0.0,-6.58902,6.7609,-20.68378,8.5,0.76,-0.16,4.0
1758075484.60998,1758075484.58493,0.0,0.0,0.0,-8.0787,6.35983,-22.23076,8.7,0.33,-0.14,4.0
1758075484.611,1758075484.59493,0.0,0.0,0.0,-9.22462,5.21392,-21.60051,8.7,0.33,-0.14,4.0
1758075484.62626,1758075484.60493,0.0,0.0,0.0,-9.62569,2.29183,-19.88164,8.47,0.11,-0.19,4.0
1758075484.64206,1758075484.61493,0.0,0.0,0.0,-9.68299,0.17189,-17.30333,8.47,0.11,-0.19,4.0
1758075484.64302,1758075484.62493,0.0,0.0,0.0,-9.4538,-3.09397,-14.20935,8.32,0.18,-0.2,4.0
1758075484.65791,1758075484.63493,0.0,0.0,0.0,-9.22462,-10.48513,-9.28192,8.32,0.18,-0.2,4.0
1758075484.67404,1758075484.64493,0.0,0.0,0.0,-9.22462,-15.75634,-6.07335,8.06,0.32,-0.18,4.0
1758075484.67505,1758075484.65493,0.0,0.0,0.0,-9.62569,-20.11082,-2.97938,8.18,0.43,-0.18,4.0
1758075484.68993,1758075484.66493,0.0,0.0,0.0,-10.25595,-23.20479,-0.57296,8.18,0.43,-0.18,4.0
1758075484.69132,1758075484.67493,0.0,0.0,0.0,-11.22997,-25.8404,1.94806,8.51,0.51,-0.16,4.0
1758075484.70616,1758075484.68493,0.0,0.0,0.0,-12.43318,-22.74642,2.46372,8.51,0.51,-0.16,4.0
1758075484.72201,1758075484.69493,0.0,0.0,0.0,-14.66772,-16.10011,2.29183,9.3,0.64,-0.17,4.0
1758075484.72334,1758075484.70493,0.0,0.0,0.0,-15.64175,-8.42248,2.57831,9.3,0.64,-0.17,4.0
1758075484.73786,1758075484.71493,0.0,0.0,0.0,-16.67307,-6.53172,3.72423,9.8,0.73,0.02,4.0
1758075484.75382,1758075484.72493,0.0,0.0,0.0,-19.07949,-19.99623,2.63561,8.21,0.92,-0.11,4.0
1758075484.75503,1758075484.73493,0.0,0.0,0.0,-22.74642,-27.1582,0.74485,8.21,0.92,-0.11,4.0
1758075484.76996,1758075484.74493,0.0,0.0,0.0,-26.06958,-27.1582,-1.14592,8.89,1.41,-0.71,4.0
1758075484.77107,1758075484.75493,0.0,0.0,0.0,-29.62192,-19.82434,-1.77617,8.89,1.41,-0.71,4.0
1758075484.78601,1758075484.76493,0.0,0.0,0.0,-31.2262,-15.24068,-1.66158,9.61,1.66,0.05,4.0
1758075484.80196,1758075484.77493,0.0,0.0,0.0,-32.20023,-13.40721,-1.43239,9.61,1.66,0.05,4.0
1758075484.80417,1758075484.78493,0.0,0.0,0.0,-32.6013,-11.57375,-0.85944,8.93,1.34,0.26,4.0
1758075484.81896,1758075484.79493,0.0,0.0,0.0,-32.08564,-9.05273,-0.0573,8.87,0.84,0.12,4.0
1758075484.82016,1758075484.80493,0.0,0.0,0.0,-30.99702,-8.42248,0.80214,8.87,0.84,0.12,4.0
1758075484.83621,1758075484.81493,0.0,0.0,0.0,-29.22085,-8.59437,2.06265,8.92,0.33,-0.22,4.0
1758075484.85221,1758075484.82493,0.0,0.0,0.0,-26.12688,-9.96947,3.66693,8.92,0.33,-0.22,4.0
1758075484.8532,1758075484.83493,0.0,0.0,0.0,-23.31938,-12.14671,5.21392,8.94,-0.02,-0.29,4.0
1758075484.868,1758075484.84493,0.0,0.0,0.0,-20.34,-13.5791,6.47442,8.94,-0.02,-0.29,4.0
1758075484.88396,1758075484.85493,0.0,0.0,0.0,-17.53251,-15.24068,7.73493,9.01,-0.14,-0.4,4.0
1758075484.88515,1758075484.86493,0.0,0.0,0.0,-13.40721,-18.33465,9.33921,9.01,-0.14,-0.35,4.0
1758075484.90026,1758075484.87493,0.0,0.0,0.0,-10.59972,-19.82434,9.96947,8.79,-0.01,-0.35,4.0
1758075484.90117,1758075484.88493,0.0,0.0,0.0,-8.0787,-20.68378,10.54242,8.54,0.21,-0.47,4.0
1758075484.91626,1758075484.89493,0.0,0.0,0.0,-5.78687,-20.79837,10.8862,8.54,0.21,-0.47,4.0
1758075484.93231,1758075484.90493,0.0,0.0,0.0,-2.63561,-20.11082,11.22997,8.24,0.37,-0.79,4.0
1758075484.93321,1758075484.91493,0.0,0.0,0.0,-0.74485,-18.9649,11.51645,8.24,0.37,-0.79,4.0
1758075484.94828,1758075484.92493,0.0,0.0,0.0,0.97403,-16.67307,12.204,7.96,0.38,-0.9,4.0
1758075484.96414,1758075484.93493,0.0,0.0,0.0,2.6929,-14.15206,13.17803,7.96,0.38,-0.9,4.0
1758075484.96522,1758075484.94493,0.0,0.0,0.0,4.92744,-10.59972,14.43854,7.89,0.33,-1.18,4.0
1758075484.98033,1758075484.95493,0.0,0.0,0.0,6.35983,-8.59437,15.35527,7.74,0.25,-0.79,4.0
1758075484.98123,1758075484.96493,0.0,0.0,0.0,7.79223,-6.7609,15.98552,7.74,0.25,-0.79,4.0
1758075484.99633,1758075484.97493,0.0,0.0,0.0,9.11003,-6.18794,16.50119,7.56,0.22,-0.63,4.0
1758075485.01233,1758075484.98493,0.0,0.0,0.0,10.8289,-6.99009,16.61578,7.56,0.22,-0.63,4.0
1758075485.01326,1758075484.99493,0.0,0.0,0.0,11.57375,-8.36518,16.55848,7.22,0.22,-0.62,4.0
1758075485.02838,1758075485.00493,0.0,0.0,0.0,11.97482,-9.4538,16.272,7.22,0.22,-0.62,4.0
1758075485.04436,1758075485.01493,0.0,0.0,0.0,12.14671,-9.85487,15.69904,7.06,0.32,-0.7,4.0
1758075485.04531,1758075485.02493,0.0,0.0,0.0,12.204,-14.66772,14.32395,7.24,0.41,1.03,4.0
1758075485.06021,1758075485.03493,0.0,0.0,0.0,12.204,-22.05888,11.00079,7.24,0.41,1.03,4.0
1758075485.06131,1758075485.04493,0.0,0.0,0.0,13.06344,-23.83505,6.18794,9.56,0.03,1.99,4.0
1758075485.07634,1758075485.05493,0.0,0.0,0.0,16.90226,-14.83961,-1.77617,9.56,0.03,1.99,4.0
1758075485.0933,1758075485.06493,0.0,0.0,0.0,20.22541,-10.19865,-7.62034,13.89,-0.68,2.08,4.0
1758075485.09539,1758075485.07493,0.0,0.0,0.0,23.26209,-7.67763,-13.06344,13.89,-0.68,2.08,4.0
1758075485.10939,1758075485.08493,0.0,0.0,0.0,25.72581,-5.21392,-17.13144,14.79,-1.64,1.77,4.0
1758075485.11061,1758075485.09493,0.0,0.0,0.0,27.67386,-2.6929,-20.34,15.65,-1.64,1.97,4.0
1758075485.12741,1758075485.10493,0.0,0.0,0.0,28.41871,-2.97938,-21.37133,15.65,-2.67,1.97,4.0
1758075485.14333,1758075485.11493,0.0,0.0,0.0,28.13223,-3.83882,-22.34536,18.08,-3.32,1.94,4.0
1758075485.1446,1758075485.12493,0.0,0.0,0.0,26.52795,3.20856,-23.49127,18.08,-3.32,1.94,4.0
1758075485.15916,1758075485.13493,0.0,0.0,0.0,22.00158,19.76705,-21.48592,19.15,-2.15,-0.69,4.0
1758075485.1604,1758075485.14493,0.0,0.0,0.0,18.73572,33.11696,-16.67307,19.15,-2.15,-0.69,4.0
1758075485.17825,1758075485.15493,0.0,0.0,0.0,14.03747,47.03984,-12.43318,15.75,0.73,0.12,4.0
1758075485.19455,1758075485.16493,0.0,0.0,0.0,9.28192,55.06125,-7.39116,15.75,0.73,0.12,4.0
1758075485.19543,1758075485.17493,0.0,0.0,0.0,2.63561,54.94666,-0.0573,12.48,2.03,0.98,4.0
1758075485.21054,1758075485.18493,0.0,0.0,0.0,-1.77617,51.45161,3.49504,11.09,2.03,0.55,4.0
1758075485.21141,1758075485.19493,0.0,0.0,0.0,-6.18794,47.49821,5.32851,11.09,2.03,0.55,4.0
1758075485.22623,1758075485.20493,0.0,0.0,0.0,-10.65701,43.54479,5.27121,11.62,1.51,-0.05,4.0
1758075485.24223,1758075485.21493,0.0,0.0,0.0,-16.67307,39.53409,3.95341,11.62,1.51,-0.05,4.0
1758075485.24343,1758075485.22493,0.0,0.0,0.0,-20.3973,40.50812,1.71887,11.94,0.49,-0.29,4.0
1758075485.25819,1758075485.23493,0.0,0.0,0.0,-24.12152,41.76862,-1.03132,11.94,0.49,-0.29,4.0
1758075485.27482,1758075485.24493,0.0,0.0,0.0,-28.24682,40.45082,-4.29718,11.17,-0.35,-0.37,4.0
1758075485.27545,1758075485.25493,0.0,0.0,0.0,-29.33544,37.92981,-5.61499,9.51,-0.62,-0.25,4.0
1758075485.29028,1758075485.26493,0.0,0.0,0.0,-29.22085,36.89849,-6.70361,9.51,-0.62,-0.25,4.0
1758075485.29229,1758075485.27493,0.0,0.0,0.0,-26.52795,35.75257,-5.61499,8.68,-0.76,-0.27,4.0
1758075485.30833,1758075485.28493,0.0,0.0,0.0,-23.20479,29.73651,-4.98473,8.68,-0.76,-0.27,4.0
1758075485.32459,1758075485.29493,0.0,0.0,0.0,-19.82434,26.87172,-3.66693,8.25,-0.9,0.26,4.0
1758075485.32628,1758075485.30493,0.0,0.0,0.0,-15.58445,24.63719,-1.43239,8.25,-0.9,0.26,4.0
1758075485.34158,1758075485.31493,0.0,0.0,0.0,-11.45916,24.23611,0.51566,8.79,-1.09,-0.29,4.0
1758075485.34326,1758075485.32493,0.0,0.0,0.0,-6.70361,23.89234,2.06265,8.97,-1.27,-0.15,4.0
1758075485.35851,1758075485.33493,0.0,0.0,0.0,-4.1253,23.72045,3.49504,8.97,-1.27,-0.15,4.0
1758075485.36031,1758075485.34493,0.0,0.0,0.0,-2.00535,23.66316,4.87014,8.93,-1.29,-0.41,4.0
1758075485.37736,1758075485.35493,0.0,0.0,0.0,-0.22918,25.38203,5.72958,8.93,-1.29,-0.41,4.0
1758075485.39337,1758075485.36493,0.0,0.0,0.0,1.77617,22.97561,6.18794,8.51,-1.23,-0.28,4.0
1758075485.39493,1758075485.37493,0.0,0.0,0.0,3.38045,20.22541,6.18794,8.51,-1.23,-0.28,4.0
1758075485.40935,1758075485.38493,0.0,0.0,0.0,5.4431,17.53251,5.55769,7.89,-1.21,-0.15,4.0
1758075485.41056,1758075485.39493,0.0,0.0,0.0,7.79223,14.43854,4.92744,7.89,-1.21,-0.15,4.0
1758075485.42668,1758075485.40493,0.0,0.0,0.0,12.14671,7.67763,3.38045,7.57,-1.27,-0.02,4.0
1758075485.44368,1758075485.41493,0.0,0.0,0.0,15.0115,2.6929,1.94806,7.41,-1.43,0.37,4.0
1758075485.44459,1758075485.42493,0.0,0.0,0.0,17.76169,-2.92208,0.45837,7.41,-1.43,0.37,4.0
1758075485.45966,1758075485.43493,0.0,0.0,0.0,20.79837,-8.65166,-1.66158,7.45,-1.55,0.49,4.0
1758075485.4606,1758075485.44493,0.0,0.0,0.0,22.63183,-15.75634,-2.34913,7.45,-1.55,0.49,4.0
1758075485.47637,1758075485.45493,0.0,0.0,0.0,24.17882,-19.59516,-2.63561,7.77,-1.47,0.54,4.0
1758075485.49267,1758075485.46493,0.0,0.0,0.0,25.38203,-22.28806,-2.46372,7.77,-1.47,0.54,4.0
1758075485.49365,1758075485.47493,0.0,0.0,0.0,26.47065,-23.37668,-2.63561,8.2,-1.28,0.67,4.0
1758075485.50871,1758075485.48493,0.0,0.0,0.0,26.98631,-26.35606,-2.63561,8.32,-1.06,0.76,4.0
1758075485.52469,1758075485.49493,0.0,0.0,0.0,27.50197,-28.64789,-2.11994,8.32,-1.06,0.76,4.0
1758075485.52568,1758075485.50493,0.0,0.0,0.0,27.10091,-28.99167,-2.11994,8.56,-0.67,0.55,4.0
1758075485.54073,1758075485.51493,0.0,0.0,0.0,25.61122,-27.61657,-1.71887,8.56,-0.67,0.55,4.0
1758075485.54164,1758075485.52493,0.0,0.0,0.0,23.60586,-26.87172,-1.08862,8.59,-0.22,0.9,4.0
1758075485.55671,1758075485.53493,0.0,0.0,0.0,21.25674,-26.47065,-0.51566,8.59,-0.22,0.9,4.0
1758075485.57405,1758075485.54493,0.0,0.0,0.0,17.99088,-24.80907,-0.34377,8.13,0.26,1.3,4.0
1758075485.5756,1758075485.55493,0.0,0.0,0.0,12.14671,-20.34,0.22918,7.68,0.62,1.11,4.0
1758075485.59093,1758075485.56493,0.0,0.0,0.0,8.65166,-17.87628,-0.0573,7.68,0.62,1.11,4.0
1758075485.59246,1758075485.57493,0.0,0.0,0.0,7.44845,-25.55392,-1.20321,6.14,0.81,0.33,4.0
1758075485.60773,1758075485.58493,0.0,0.0,0.0,5.27121,-57.41038,-0.45837,6.14,0.81,0.33,4.0
1758075485.62377,1758075485.59493,0.0,0.0,0.0,4.35448,-88.35009,0.0573,2.84,0.65,-0.4,4.0
1758075485.62475,1758075485.60493,0.0,0.0,0.0,3.89611,-63.19725,1.03132,2.84,0.65,-0.4,4.0
1758075485.63978,1758075485.61493,0.0,0.0,0.0,5.32851,-41.13837,-0.22918,8.29,0.1,-1.47,4.0
1758075485.64101,1758075485.62493,0.0,0.0,0.0,6.7609,-37.87251,-3.95341,8.29,0.1,-1.47,4.0
1758075485.65653,1758075485.63493,0.0,0.0,0.0,5.32851,-37.29956,-6.35983,5.72,-0.18,-0.29,4.0
1758075485.67387,1758075485.64493,0.0,0.0,0.0,2.46372,-34.37747,-9.62569,5.04,0.0,-0.05,4.0
1758075485.67504,1758075485.65493,0.0,0.0,0.0,-0.85944,-30.88243,-13.00614,5.04,0.0,-0.05,4.0
1758075485.6896,1758075485.66493,0.0,0.0,0.0,-7.21927,-24.5226,-16.84496,6.15,0.47,2.08,4.0
1758075485.69108,1758075485.67493,0.0,0.0,0.0,-12.2613,-16.84496,-15.0115,6.15,0.47,2.08,4.0
1758075485.70684,1758075485.68493,0.0,0.0,0.0,-17.47521,-6.8182,-10.65701,10.76,1.48,2.76,4.0
1758075485.72366,1758075485.69493,0.0,0.0,0.0,-22.91831,1.20321,-5.4431,10.76,1.48,2.76,4.0
1758075485.72476,1758075485.70493,0.0,0.0,0.0,-31.51268,-1.43239,1.03132,15.55,3.02,1.41,4.0
1758075485.73985,1758075485.71493,0.0,0.0,0.0,-36.38282,-1.66158,3.83882,18.06,3.77,0.85,4.0
1758075485.74078,1758075485.72493,0.0,0.0,0.0,-40.04975,6.53172,4.87014,18.06,3.77,0.85,4.0
1758075485.75691,1758075485.73493,0.0,0.0,0.0,-41.25296,16.38659,4.29718,19.49,2.59,1.55,4.0
1758075485.77285,1758075485.74493,0.0,0.0,0.0,-41.08107,21.42862,0.68755,19.49,2.59,1.55,4.0
1758075485.7738,1758075485.75493,0.0,0.0,0.0,-38.1017,13.86558,-0.85944,18.65,0.4,3.12,4.0
1758075485.78888,1758075485.76493,0.0,0.0,0.0,-32.6013,2.92208,-0.34377,18.65,0.4,3.12,4.0
1758075485.80489,1758075485.77493,0.0,0.0,0.0,-26.75713,12.77696,-0.34377,19.1,-0.55,0.07,4.0
1758075485.80582,1758075485.78493,0.0,0.0,0.0,-12.37589,46.86795,0.17189,18.54,-1.49,0.05,4.0
1758075485.8209,1758075485.79493,0.0,0.0,0.0,-4.1253,56.55093,-1.83346,18.54,-1.49,0.05,4.0
1758075485.82374,1758075485.80493,0.0,0.0,0.0,2.06265,56.03527,-5.21392,13.16,-2.42,1.5,4.0
1758075485.83888,1758075485.81493,0.0,0.0,0.0,6.35983,49.33167,-8.76626,13.16,-2.42,1.5,4.0
1758075485.85499,1758075485.82493,0.0,0.0,0.0,13.46451,33.11696,-11.51645,11.54,-2.61,0.89,4.0
1758075485.85591,1758075485.83493,0.0,0.0,0.0,17.99088,20.3973,-10.71431,11.54,-2.61,0.89,4.0
1758075485.87162,1758075485.84493,0.0,0.0,0.0,22.74642,13.34992,-8.36518,11.4,-1.77,0.83,4.0
1758075485.87291,1758075485.85493,0.0,0.0,0.0,27.61657,13.75099,-3.60963,11.4,-1.77,0.83,4.0
1758075485.88771,1758075485.86493,0.0,0.0,0.0,30.53865,23.72045,-0.34377,12.34,-0.34,0.85,4.0
1758075485.90401,1758075485.87493,0.0,0.0,0.0,30.65324,32.83048,1.14592,12.5,0.79,1.29,4.0
1758075485.90519,1758075485.88493,0.0,0.0,0.0,29.04896,37.12767,1.14592,12.5,0.79,1.29,4.0
1758075485.91999,1758075485.89493,0.0,0.0,0.0,24.35071,32.83048,1.20321,10.6,1.66,1.0,4.0
1758075485.92177,1758075485.90493,0.0,0.0,0.0,19.48057,28.36141,0.11459,10.6,1.66,1.0,4.0
1758075485.93847,1758075485.91493,0.0,0.0,0.0,14.20935,25.15285,-1.20321,9.04,2.66,0.57,4.0
1758075485.95482,1758075485.92493,0.0,0.0,0.0,9.22462,23.49127,-2.57831,9.04,2.66,0.57,4.0
1758075485.95591,1758075485.93493,0.0,0.0,0.0,3.26586,22.74642,-5.15662,8.18,2.34,0.14,4.0
1758075485.97092,1758075485.94493,0.0,0.0,0.0,0.22918,22.91831,-6.41713,7.66,1.18,0.35,4.0
1758075485.97195,1758075485.95493,0.0,0.0,0.0,-1.94806,21.02755,-7.39116,7.66,1.18,0.35,4.0
1758075485.9868,1758075485.96493,0.0,0.0,0.0,-3.95341,18.10547,-8.136,7.47,0.5,0.29,4.0
1758075486.00408,1758075485.97493,0.0,0.0,0.0,-5.55769,15.41257,-8.36518,7.47,0.5,0.29,4.0
1758075486.00495,1758075485.98493,0.0,0.0,0.0,-6.07335,12.43318,-7.44845,7.97,0.39,0.42,4.0
1758075486.02005,1758075485.99493,0.0,0.0,0.0,-6.47442,8.02141,-6.24524,7.97,0.39,0.42,4.0
1758075486.02096,1758075486.00493,0.0,0.0,0.0,-7.10468,3.09397,-4.87014,8.12,0.48,0.28,4.0
1758075486.03707,1758075486.01493,0.0,0.0,0.0,-7.84952,-2.34913,-2.46372,8.45,0.82,0.19,4.0
1758075486.05279,1758075486.02493,0.0,0.0,0.0,-8.65166,-5.15662,-0.68755,8.45,0.82,0.19,4.0
1758075486.05401,1758075486.03493,0.0,0.0,0.0,-9.39651,-7.62034,0.80214,8.55,1.06,0.21,4.0
1758075486.06911,1758075486.04493,0.0,0.0,0.0,-10.54242,-9.11003,1.66158,8.55,1.06,0.21,4.0
1758075486.08486,1758075486.05493,0.0,0.0,0.0,-11.45916,-8.36518,3.83882,8.74,1.01,0.21,4.0
1758075486.08651,1758075486.06493,0.0,0.0,0.0,-11.34457,-7.50575,4.98473,8.74,1.01,0.21,4.0
1758075486.1011,1758075486.07493,0.0,0.0,0.0,-11.57375,-10.48513,5.95876,8.83,0.66,0.35,4.0
1758075486.10232,1758075486.08493,0.0,0.0,0.0,-12.54778,-28.64789,5.90147,8.83,0.66,0.35,4.0
1758075486.11695,1758075486.09493,0.0,0.0,0.0,-13.98017,-34.43476,4.58366,7.67,0.42,0.09,4.0
1758075486.1329,1758075486.10493,0.0,0.0,0.0,-15.0115,-34.26288,3.60963,8.61,0.58,-0.08,4.0
1758075486.13407,1758075486.11493,0.0,0.0,0.0,-15.46986,-33.00237,3.20856,8.61,0.58,-0.08,4.0
1758075486.14918,1758075486.12493,0.0,0.0,0.0,-15.92823,-29.27814,2.6929,9.21,0.69,0.35,4.0
1758075486.16517,1758075486.13493,0.0,0.0,0.0,-15.98552,-26.47065,2.92208,9.21,0.69,0.35,4.0
1758075486.16654,1758075486.14493,0.0,0.0,0.0,-15.75634,-24.17882,3.49504,9.17,0.69,0.35,4.0
1758075486.18126,1758075486.15493,0.0,0.0,0.0,-15.24068,-22.91831,3.89611,9.17,0.69,0.35,4.0
1758075486.18323,1758075486.16493,0.0,0.0,0.0,-13.86558,-21.88699,5.27121,8.82,0.68,0.29,4.0
1758075486.19828,1758075486.17493,0.0,0.0,0.0,-13.00614,-19.53786,6.18794,8.8,0.66,0.11,4.0
1758075486.21397,1758075486.18493,0.0,0.0,0.0,-12.08941,-18.50654,7.04738,8.8,0.66,0.11,4.0
1758075486.21512,1758075486.19493,0.0,0.0,0.0,-10.8862,-17.53251,7.96411,8.67,0.58,0.02,4.0
1758075486.22995,1758075486.20493,0.0,0.0,0.0,-8.99544,-17.6471,9.28192,8.67,0.58,0.02,4.0
1758075486.23193,1758075486.21493,0.0,0.0,0.0,-7.44845,-18.10547,9.68299,8.55,0.52,-0.17,4.0
1758075486.24792,1758075486.22493,0.0,0.0,0.0,-5.72958,-18.79302,10.08406,8.55,0.52,-0.17,4.0
1758075486.26417,1758075486.23493,0.0,0.0,0.0,-3.89611,-19.07949,10.37054,8.35,0.46,-0.35,4.0
1758075486.26515,1758075486.24493,0.0,0.0,0.0,-1.03132,-18.90761,10.59972,8.32,0.39,-0.45,4.0
1758075486.28018,1758075486.25493,0.0,0.0,0.0,0.45837,-18.50654,10.71431,8.32,0.39,-0.45,4.0
1758075486.2811,1758075486.26493,0.0,0.0,0.0,2.11994,-17.6471,10.8289,8.28,0.42,-0.67,4.0
1758075486.29702,1758075486.27493,0.0,0.0,0.0,4.29718,-15.87093,11.22997,8.28,0.42,-0.67,4.0
1758075486.31326,1758075486.28493,0.0,0.0,0.0,5.61499,-12.204,11.22997,8.29,0.49,-0.88,4.0
1758075486.31423,1758075486.29493,0.0,0.0,0.0,6.87549,-10.02676,11.22997,8.29,0.49,-0.88,4.0
1758075486.32931,1758075486.30493,0.0,0.0,0.0,8.02141,-8.70896,11.11538,8.18,0.55,-0.79,4.0
1758075486.34528,1758075486.31493,0.0,0.0,0.0,9.85487,-7.67763,10.94349,8.18,0.55,-0.79,4.0
1758075486.34625,1758075486.32493,0.0,0.0,0.0,11.11538,-6.47442,11.22997,8.0,0.6,-0.82,4.0
1758075486.36181,1758075486.33493,0.0,0.0,0.0,12.60507,-5.32851,11.34457,7.99,0.64,-0.82,4.0
1758075486.3634,1758075486.34493,0.0,0.0,0.0,13.86558,-4.98473,11.34457,7.99,0.64,-0.82,4.0
1758075486.37831,1758075486.35493,0.0,0.0,0.0,15.64175,-6.87549,11.91752,7.69,0.68,-0.61,4.0
1758075486.39459,1758075486.36493,0.0,0.0,0.0,16.90226,-9.11003,12.49048,7.69,0.68,-0.61,4.0
1758075486.39521,1758075486.37493,0.0,0.0,0.0,17.93358,-11.28727,13.17803,7.2,0.77,-0.76,4.0
1758075486.41042,1758075486.38493,0.0,0.0,0.0,19.25138,-13.5218,14.03747,7.2,0.77,-0.76,4.0
1758075486.41152,1758075486.39493,0.0,0.0,0.0,21.42862,-19.82434,13.34992,7.09,0.76,0.45,4.0
1758075486.42814,1758075486.40493,0.0,0.0,0.0,23.20479,-23.66316,10.37054,8.54,0.05,1.64,4.0
1758075486.44435,1758075486.41493,0.0,0.0,0.0,26.06958,-21.7724,6.18794,8.54,0.05,1.64,4.0
1758075486.44529,1758075486.42493,0.0,0.0,0.0,29.27814,-16.90226,0.85944,12.37,-1.18,2.14,4.0
1758075486.46037,1758075486.43493,0.0,0.0,0.0,33.23156,-16.3293,-7.04738,12.37,-1.18,2.14,4.0
1758075486.46129,1758075486.44493,0.0,0.0,0.0,34.37747,-18.50654,-10.8289,13.73,-2.12,2.42,4.0
1758075486.47736,1758075486.45493,0.0,0.0,0.0,34.60666,-17.87628,-12.71966,13.73,-2.12,2.42,4.0
1758075486.49411,1758075486.46493,0.0,0.0,0.0,34.14828,-14.83961,-13.46451,15.24,-2.64,2.45,4.0
1758075486.49533,1758075486.47493,0.0,0.0,0.0,31.74186,-14.15206,-15.12609,17.8,-2.7,2.78,4.0
1758075486.51036,1758075486.48493,0.0,0.0,0.0,28.30412,-12.89155,-17.6471,17.8,-2.7,2.78,4.0
1758075486.51212,1758075486.49493,0.0,0.0,0.0,23.31938,-7.04738,-19.82434,19.13,-2.0,0.4,4.0
1758075486.52813,1758075486.50493,0.0,0.0,0.0,15.87093,9.4538,-18.16276,19.13,-2.0,0.4,4.0
1758075486.54414,1758075486.51493,0.0,0.0,0.0,10.54242,22.91831,-14.78231,17.02,0.37,-0.02,4.0
1758075486.54534,1758075486.52493,0.0,0.0,0.0,5.32851,33.74722,-10.94349,17.02,0.37,-0.02,4.0
1758075486.56037,1758075486.53493,0.0,0.0,0.0,0.34377,40.39353,-7.10468,13.82,1.83,0.67,4.0
1758075486.56136,1758075486.54493,0.0,0.0,0.0,-6.41713,43.60209,-2.97938,13.82,1.83,0.85,4.0
1758075486.57744,1758075486.55493,0.0,0.0,0.0,-10.59972,43.02913,-2.06265,12.04,1.78,0.85,4.0
1758075486.59339,1758075486.56493,0.0,0.0,0.0,-13.5791,40.96649,-2.57831,11.7,1.03,0.82,4.0
1758075486.59463,1758075486.57493,0.0,0.0,0.0,-15.69904,37.52874,-3.83882,11.7,1.03,0.82,4.0
1758075486.60946,1758075486.58493,0.0,0.0,0.0,-17.93358,33.51803,-5.61499,11.74,0.0,0.37,4.0
1758075486.62549,1758075486.59493,0.0,0.0,0.0,-18.62113,35.12231,-6.18794,11.74,0.0,0.37,4.0
1758075486.62644,1758075486.60493,0.0,0.0,0.0,-19.19409,37.64333,-6.47442,11.68,-0.95,0.06,4.0
1758075486.64149,1758075486.61493,0.0,0.0,0.0,-19.59516,38.90384,-5.72958,11.68,-0.95,0.06,4.0
1758075486.6424,1758075486.62493,0.0,0.0,0.0,-18.10547,36.89849,-2.7502,10.42,-1.21,0.38,4.0
1758075486.65722,1758075486.63493,0.0,0.0,0.0,-16.50119,33.05967,-0.11459,9.09,-1.26,0.42,4.0
1758075486.67324,1758075486.64493,0.0,0.0,0.0,-13.98017,28.70519,2.63561,9.09,-1.26,0.42,4.0
1758075486.67438,1758075486.65493,0.0,0.0,0.0,-11.57375,24.75178,5.27121,8.51,-1.27,0.25,4.0
1758075486.68946,1758075486.66493,0.0,0.0,0.0,-7.62034,20.3973,8.59437,8.51,-1.27,0.25,4.0
1758075486.7053,1758075486.67493,0.0,0.0,0.0,-4.64096,18.50654,10.08406,8.62,-1.2,0.4,4.0
1758075486.70694,1758075486.68493,0.0,0.0,0.0,-1.43239,17.24603,11.22997,8.62,-1.2,0.4,4.0
1758075486.7213,1758075486.69493,0.0,0.0,0.0,2.6929,17.24603,11.22997,8.91,-1.12,0.22,4.0
1758075486.72288,1758075486.70493,0.0,0.0,0.0,4.69825,17.36062,10.37054,9.02,-0.95,0.15,4.0
1758075486.73834,1758075486.71493,0.0,0.0,0.0,5.78687,16.50119,8.76626,9.02,-0.95,0.15,4.0
1758075486.75429,1758075486.72493,0.0,0.0,0.0,6.47442,15.29797,6.99009,8.67,-0.73,0.22,4.0
1758075486.75551,1758075486.73493,0.0,0.0,0.0,6.58902,12.37589,4.29718,8.67,-0.73,0.22,4.0
1758075486.7703,1758075486.74493,0.0,0.0,0.0,6.8182,10.65701,2.6929,8.43,-0.64,0.1,4.0
1758075486.77148,1758075486.75493,0.0,0.0,0.0,7.67763,9.05273,1.3751,8.43,-0.64,0.1,4.0
1758075486.78812,1758075486.76493,0.0,0.0,0.0,9.05273,7.62034,0.40107,8.4,-0.73,0.08,4.0
1758075486.80458,1758075486.77493,0.0,0.0,0.0,12.204,4.46907,-0.85944,8.29,-0.73,-0.04,4.0
1758075486.80558,1758075486.78493,0.0,0.0,0.0,14.78231,0.51566,-1.48969,8.29,-0.98,-0.04,4.0
1758075486.82061,1758075486.79493,0.0,0.0,0.0,17.76169,-3.89611,-1.94806,8.15,-1.17,0.06,4.0
1758075486.82156,1758075486.80493,0.0,0.0,0.0,20.34,-10.02676,-2.40642,8.15,-1.17,0.06,4.0
1758075486.83815,1758075486.81493,0.0,0.0,0.0,23.26209,-16.90226,-3.20856,8.23,-1.21,0.11,4.0
1758075486.85466,1758075486.82493,0.0,0.0,0.0,24.75178,-20.05352,-3.60963,8.23,-1.21,0.11,4.0
1758075486.8555,1758075486.83493,0.0,0.0,0.0,25.72581,-21.94428,-3.49504,8.78,-1.11,0.33,4.0
1758075486.87069,1758075486.84493,0.0,0.0,0.0,26.47065,-23.31938,-3.26586,8.78,-1.11,0.33,4.0
1758075486.8716,1758075486.85493,0.0,0.0,0.0,26.81443,-24.5226,-3.95341,9.01,-0.97,0.62,4.0
1758075486.88769,1758075486.86493,0.0,0.0,0.0,27.38738,-28.59059,-4.18259,8.68,-0.81,0.5,4.0
1758075486.90364,1758075486.87493,0.0,0.0,0.0,27.44468,-32.54401,-4.46907,8.68,-0.81,0.5,4.0
1758075486.90485,1758075486.88493,0.0,0.0,0.0,27.10091,-35.06502,-4.87014,8.32,-0.61,0.07,4.0
1758075486.9197,1758075486.89493,0.0,0.0,0.0,26.47065,-34.26288,-5.55769,8.32,-0.61,0.07,4.0
1758075486.93567,1758075486.90493,0.0,0.0,0.0,25.89769,-31.39809,-5.90147,8.48,-0.38,-0.03,4.0
1758075486.93606,1758075486.91493,0.0,0.0,0.0,24.80907,-26.98631,-6.13065,8.48,-0.38,-0.03,4.0
1758075486.95167,1758075486.92493,0.0,0.0,0.0,22.51724,-18.62113,-6.70361,8.5,-0.13,-0.14,4.0
1758075486.95288,1758075486.93493,0.0,0.0,0.0,20.45459,-13.86558,-6.58902,8.25,0.13,-0.44,4.0
1758075486.96771,1758075486.94493,0.0,0.0,0.0,18.44924,-8.36518,-7.16197,8.25,0.13,-0.44,4.0
1758075486.98373,1758075486.95493,0.0,0.0,0.0,16.50119,-4.35448,-7.44845,7.87,0.17,-0.4,4.0
1758075486.98464,1758075486.96493,0.0,0.0,0.0,14.03747,-9.33921,-9.62569,7.87,0.17,-0.4,4.0
1758075486.99977,1758075486.97493,0.0,0.0,0.0,12.204,-32.42941,-8.65166,6.11,0.2,-0.47,4.0
1758075487.01547,1758075486.98493,0.0,0.0,0.0,12.08941,-50.53488,-6.70361,6.11,0.2,-0.47,4.0
1758075487.01603,1758075486.99493,0.0,0.0,0.0,11.63104,-41.71133,-2.63561,6.02,0.02,-0.33,4.0
1758075487.03152,1758075487.00493,0.0,0.0,0.0,13.17803,-24.92367,0.68755,8.84,-0.61,-0.13,4.0
1758075487.03266,1758075487.01493,0.0,0.0,0.0,12.89155,-25.8404,0.22918,8.84,-0.61,-0.13,4.0
1758075487.04754,1758075487.02493,0.0,0.0,0.0,11.63104,-26.87172,-0.34377,6.49,-0.6,0.01,4.0
1758075487.06349,1758075487.03493,0.0,0.0,0.0,9.4538,-26.47065,-2.86479,6.49,-0.6,0.01,4.0
1758075487.06497,1758075487.04493,0.0,0.0,0.0,6.13065,-25.72581,-7.62034,5.71,-0.43,-0.93,4.0
1758075487.07977,1758075487.05493,0.0,0.0,0.0,3.60963,-24.98096,-10.54242,5.71,-0.43,-0.93,4.0
1758075487.09578,1758075487.06493,0.0,0.0,0.0,0.85944,-24.98096,-12.204,5.15,-0.14,-0.62,4.0
1758075487.09616,1758075487.07493,0.0,0.0,0.0,-2.06265,-25.26744,-13.40721,5.15,-0.14,-0.62,4.0
1758075487.11178,1758075487.08493,0.0,0.0,0.0,-7.44845,-30.65324,-12.43318,5.74,0.31,1.38,4.0
1758075487.11318,1758075487.09493,0.0,0.0,0.0,-10.8862,-30.76784,-9.62569,8.45,1.66,2.37,4.0
1758075487.12763,1758075487.10493,0.0,0.0,0.0,-14.43854,-21.88699,-5.72958,8.45,1.66,2.37,4.0
1758075487.14384,1758075487.11493,0.0,0.0,0.0,-21.6578,-10.31324,-0.40107,14.49,4.01,1.61,4.0
1758075487.14476,1758075487.12493,0.0,0.0,0.0,-26.47065,0.97403,2.92208,14.49,4.01,1.61,4.0
1758075487.15983,1758075487.13493,0.0,0.0,0.0,-31.39809,3.38045,4.46907,17.7,5.23,0.56,4.0
1758075487.16074,1758075487.14493,0.0,0.0,0.0,-35.12231,9.96947,4.58366,17.7,5.23,0.56,4.0
1758075487.17696,1758075487.15493,0.0,0.0,0.0,-38.84654,21.02755,1.08862,17.79,3.42,0.51,4.0
1758075487.19284,1758075487.16493,0.0,0.0,0.0,-39.87786,21.88699,-2.00535,17.39,0.69,2.93,4.0
1758075487.19377,1758075487.17493,0.0,0.0,0.0,-38.44547,15.75634,-3.20856,17.39,0.69,2.93,4.0
1758075487.2086,1758075487.18493,0.0,0.0,0.0,-34.14828,11.57375,-2.23454,18.7,-0.4,0.63,4.0
1758075487.20977,1758075487.19493,0.0,0.0,0.0,-24.4653,22.28806,-2.11994,18.7,-0.4,0.63,4.0
1758075487.2252,1758075487.20493,0.0,0.0,0.0,-18.44924,33.00237,-4.29718,17.9,-1.31,-0.68,4.0
1758075487.24095,1758075487.21493,0.0,0.0,0.0,-13.40721,41.48215,-6.70361,17.9,-1.31,-0.68,4.0
1758075487.2418,1758075487.22493,0.0,0.0,0.0,-9.11003,43.4875,-8.136,14.21,-1.82,0.45,4.0
1758075487.25662,1758075487.23493,0.0,0.0,0.0,-3.20856,36.15364,-8.47978,11.73,-1.65,0.98,4.0
1758075487.27264,1758075487.24493,0.0,0.0,0.0,1.66158,26.52795,-6.47442,11.73,-1.65,0.98,4.0
1758075487.27382,1758075487.25493,0.0,0.0,0.0,6.18794,16.84496,-3.09397,11.57,-1.02,0.75,4.0
1758075487.28865,1758075487.26493,0.0,0.0,0.0,11.00079,10.65701,1.08862,11.57,-1.02,0.75,4.0
1758075487.28983,1758075487.27493,0.0,0.0,0.0,17.01685,5.32851,6.99009,12.52,-0.23,0.98,4.0
1758075487.30618,1758075487.28493,0.0,0.0,0.0,19.59516,4.29718,9.4538,12.52,-0.23,0.98,4.0
1758075487.32187,1758075487.29493,0.0,0.0,0.0,21.48592,4.58366,10.59972,12.51,0.56,1.55,4.0
1758075487.32288,1758075487.30493,0.0,0.0,0.0,21.60051,5.15662,9.74028,12.51,0.56,1.55,4.0
1758075487.33793,1758075487.31493,0.0,0.0,0.0,19.19409,6.8182,6.58902,11.56,1.13,1.37,4.0
1758075487.35365,1758075487.32493,0.0,0.0,0.0,17.58981,7.33386,4.18259,10.08,1.44,1.26,4.0
1758075487.35491,1758075487.33493,0.0,0.0,0.0,15.35527,4.52637,1.08862,10.08,1.44,1.26,4.0
1758075487.36968,1758075487.34493,0.0,0.0,0.0,12.08941,-0.74485,-3.26586,8.59,1.44,1.02,4.0
1758075487.3712,1758075487.35493,0.0,0.0,0.0,9.68299,-3.03668,-5.95876,8.59,1.44,1.02,4.0
1758075487.38601,1758075487.36493,0.0,0.0,0.0,7.84952,-3.95341,-8.0787,8.36,1.31,0.64,4.0
1758075487.40171,1758075487.37493,0.0,0.0,0.0,5.84417,-4.0107,-9.4538,8.36,1.31,0.64,4.0
1758075487.40317,1758075487.38493,0.0,0.0,0.0,3.60963,-2.97938,-10.19865,8.86,1.14,0.51,4.0
1758075487.41794,1758075487.39493,0.0,0.0,0.0,2.34913,-1.83346,-9.68299,9.46,0.9,0.27,4.0
1758075487.43397,1758075487.40493,0.0,0.0,0.0,1.03132,-0.22918,-8.65166,9.46,0.9,0.27,4.0
1758075487.43494,1758075487.41493,0.0,0.0,0.0,-0.0573,1.66158,-7.10468,9.71,0.71,0.01,4.0
1758075487.44984,1758075487.42493,0.0,0.0,0.0,-2.23454,5.27121,-4.64096,9.71,0.71,0.01,4.0
1758075487.45095,1758075487.43493,0.0,0.0,0.0,-3.66693,8.02141,-3.20856,9.59,0.61,-0.11,4.0
1758075487.46595,1758075487.44493,0.0,0.0,0.0,-5.21392,10.54242,-1.77617,9.59,0.61,-0.11,4.0
1758075487.48183,1758075487.45493,0.0,0.0,0.0,-6.70361,11.80293,-0.51566,9.21,0.59,-0.27,4.0
1758075487.48326,1758075487.46493,0.0,0.0,0.0,-8.25059,10.37054,1.20321,8.63,0.63,-0.47,4.0
1758075487.49787,1758075487.47493,0.0,0.0,0.0,-9.05273,8.0787,2.29183,8.63,0.63,-0.47,4.0
1758075487.5139,1758075487.48493,0.0,0.0,0.0,-9.62569,5.84417,3.49504,8.45,0.63,-0.86,4.0
1758075487.515,1758075487.49493,0.0,0.0,0.0,-9.74028,4.18259,4.52637,8.45,0.63,-0.86,4.0
1758075487.52981,1758075487.50493,0.0,0.0,0.0,-9.11003,0.45837,6.58902,8.58,0.58,-1.11,4.0
1758075487.53101,1758075487.51493,0.0,0.0,0.0,-8.42248,-0.11459,7.44845,8.58,0.58,-1.11,4.0
1758075487.54585,1758075487.52493,0.0,0.0,0.0,-7.44845,-0.17189,8.136,8.8,0.49,-0.98,4.0
1758075487.56191,1758075487.53493,0.0,0.0,0.0,-5.78687,-0.45837,9.11003,8.8,0.49,-0.98,4.0
1758075487.56303,1758075487.54493,0.0,0.0,0.0,-4.87014,-0.85944,9.5684,8.77,0.3,-0.9,4.0
1758075487.57793,1758075487.55493,0.0,0.0,0.0,-3.95341,-1.3751,10.08406,8.66,0.06,-0.81,4.0
1758075487.57984,1758075487.56493,0.0,0.0,0.0,-3.20856,-2.34913,10.71431,8.66,0.06,-0.81,4.0
1758075487.59614,1758075487.57493,0.0,0.0,0.0,-2.00535,-6.87549,11.86023,8.51,0.0,-0.67,4.0
1758075487.61213,1758075487.58493,0.0,0.0,0.0,-2.06265,-15.58445,11.86023,8.51,0.0,-0.67,4.0
1758075487.61309,1758075487.59493,0.0,0.0,0.0,-2.63561,-22.40265,11.45916,8.02,0.21,-0.46,4.0
1758075487.62815,1758075487.60493,0.0,0.0,0.0,-3.03668,-25.72581,10.94349,8.02,0.21,-0.46,4.0
1758075487.64419,1758075487.61493,0.0,0.0,0.0,-2.7502,-27.10091,10.65701,8.83,0.61,-0.44,4.0
1758075487.64588,1758075487.62493,0.0,0.0,0.0,-2.00535,-27.2155,11.28727,9.31,0.85,-0.06,4.0
1758075487.66115,1758075487.63493,0.0,0.0,0.0,-1.20321,-26.47065,11.91752,9.31,0.85,-0.06,4.0
1758075487.66237,1758075487.64493,0.0,0.0,0.0,0.0,-24.92367,12.49048,9.46,0.76,-0.07,4.0
1758075487.67689,1758075487.65493,0.0,0.0,0.0,2.23454,-22.40265,13.06344,9.46,0.76,-0.07,4.0
1758075487.69292,1758075487.66493,0.0,0.0,0.0,4.1253,-20.68378,13.17803,9.34,0.55,-0.23,4.0
1758075487.69413,1758075487.67493,0.0,0.0,0.0,5.84417,-18.56383,13.06344,9.34,0.55,-0.23,4.0
1758075487.7092,1758075487.68493,0.0,0.0,0.0,7.84952,-17.81899,13.00614,9.19,0.3,-0.25,4.0
1758075487.71054,1758075487.69493,0.0,0.0,0.0,11.00079,-16.21471,12.71966,9.17,0.26,-0.33,4.0
1758075487.72591,1758075487.70493,0.0,0.0,0.0,12.89155,-14.32395,12.60507,9.17,0.26,-0.33,4.0
1758075487.74192,1758075487.71493,0.0,0.0,0.0,14.66772,-12.54778,12.60507,9.35,0.37,-0.45,4.0
1758075487.74312,1758075487.72493,0.0,0.0,0.0,16.21471,-10.48513,12.83425,9.35,0.37,-0.45,4.0
1758075487.75796,1758075487.73493,0.0,0.0,0.0,18.62113,-8.30789,13.17803,9.34,0.48,-0.67,4.0
1758075487.77392,1758075487.74493,0.0,0.0,0.0,20.3973,-7.21927,13.5791,9.34,0.48,-0.67,4.0
1758075487.77558,1758075487.75493,0.0,0.0,0.0,22.23076,-5.84417,14.09476,9.18,0.47,-1.03,4.0
1758075487.78994,1758075487.76493,0.0,0.0,0.0,24.80907,-3.95341,14.49583,9.18,0.47,-1.03,4.0
1758075487.79192,1758075487.77493,0.0,0.0,0.0,26.41335,-3.20856,15.0115,9.04,0.38,-1.21,4.0
1758075487.8072,1758075487.78493,0.0,0.0,0.0,27.78845,-3.09397,15.24068,8.78,0.31,-1.22,4.0
1758075487.82325,1758075487.79493,0.0,0.0,0.0,29.22085,-3.66693,15.75634,8.78,0.31,-1.22,4.0
1758075487.82415,1758075487.80493,0.0,0.0,0.0,31.16891,-3.95341,16.55848,8.4,0.34,-1.26,4.0
1758075487.83915,1758075487.81493,0.0,0.0,0.0,32.25753,-3.26586,16.90226,8.4,0.34,-1.26,4.0
1758075487.84054,1758075487.82493,0.0,0.0,0.0,33.51803,-2.40642,17.36062,8.12,0.37,-1.4,4.0
1758075487.85627,1758075487.83493,0.0,0.0,0.0,34.77854,-0.74485,17.36062,8.12,0.37,-1.4,4.0
1758075487.8721,1758075487.84493,0.0,0.0,0.0,36.26823,2.7502,17.13144,7.96,0.38,-1.63,4.0
1758075487.87317,1758075487.85493,0.0,0.0,0.0,37.24226,4.69825,16.61578,7.84,0.41,-1.69,4.0
1758075487.88847,1758075487.86493,0.0,0.0,0.0,37.92981,5.50039,15.64175,7.84,0.41,-1.69,4.0
1758075487.90427,1758075487.87493,0.0,0.0,0.0,38.44547,5.4431,14.61043,7.62,0.42,-1.38,4.0
1758075487.90521,1758075487.88493,0.0,0.0,0.0,38.84654,2.11994,13.69369,7.62,0.42,-1.38,4.0
1758075487.92033,1758075487.89493,0.0,0.0,0.0,39.64868,-2.46372,13.5218,7.27,0.45,-0.94,4.0
1758075487.92124,1758075487.90493,0.0,0.0,0.0,40.45082,-9.74028,13.46451,7.27,0.45,-0.94,4.0
1758075487.93626,1758075487.91493,0.0,0.0,0.0,41.76862,-19.25138,12.60507,7.06,0.33,0.71,4.0
1758075487.95231,1758075487.92493,0.0,0.0,0.0,44.23235,-29.22085,8.65166,8.58,-0.27,1.12,4.0
1758075487.95325,1758075487.93493,0.0,0.0,0.0,47.03984,-27.1582,5.15662,8.58,-0.27,1.12,4.0
1758075487.96832,1758075487.94493,0.0,0.0,0.0,50.363,-24.12152,0.97403,11.32,-1.14,1.72,4.0
1758075487.98405,1758075487.95493,0.0,0.0,0.0,55.34772,-24.00693,-6.41713,11.32,-1.14,1.72,4.0
1758075487.98526,1758075487.96493,0.0,0.0,0.0,58.15522,-28.59059,-10.8289,12.31,-1.96,2.18,4.0
1758075487.99997,1758075487.97493,0.0,0.0,0.0,60.50434,-30.25217,-14.72501,12.31,-1.96,2.18,4.0
1758075488.00121,1758075487.98493,0.0,0.0,0.0,62.33781,-27.2155,-16.67307,13.7,-2.71,1.71,4.0
1758075488.01636,1758075487.99493,0.0,0.0,0.0,64.51505,-18.85031,-17.53251,13.7,-2.71,1.71,4.0
1758075488.03312,1758075488.00493,0.0,0.0,0.0,64.85883,-17.76169,-15.24068,15.28,-2.91,1.02,4.0
1758075488.03433,1758075488.01493,0.0,0.0,0.0,63.54102,-15.0115,-14.61043,16.43,-2.51,0.78,4.0
1758075488.04944,1758075488.02492,0.0,0.0,0.0,60.67623,-10.37054,-13.86558,16.43,-2.51,0.78,4.0
1758075488.0503,1758075488.03492,0.0,0.0,0.0,54.02992,5.32851,-12.83425,17.46,-1.51,-0.55,4.0
1758075488.06616,1758075488.04492,0.0,0.0,0.0,48.12846,16.67307,-11.80293,17.46,-1.51,-0.55,4.0
1758075488.08236,1758075488.05492,0.0,0.0,0.0,43.4875,19.82434,-8.93814,16.31,-0.01,-0.28,4.0
1758075488.08331,1758075488.06492,0.0,0.0,0.0,39.13302,27.84575,-5.78687,16.31,-0.01,-0.28,4.0
1758075488.09816,1758075488.07492,0.0,0.0,0.0,32.77319,34.72124,-1.08862,14.44,0.7,-0.09,4.0
1758075488.11418,1758075488.08492,0.0,0.0,0.0,28.64789,39.4195,1.08862,13.25,0.8,0.02,4.0
1758075488.11575,1758075488.09492,0.0,0.0,0.0,24.80907,41.31026,1.20321,13.25,0.8,0.02,4.0
1758075488.13055,1758075488.10492,0.0,0.0,0.0,21.60051,39.3622,0.97403,11.86,0.32,0.03,4.0
1758075488.1317,1758075488.11492,0.0,0.0,0.0,17.53251,37.58603,-1.03132,11.86,0.32,0.03,4.0
1758075488.1465,1758075488.12492,0.0,0.0,0.0,15.12609,34.49206,-2.63561,11.01,-0.33,0.17,4.0
1758075488.16241,1758075488.13492,0.0,0.0,0.0,13.06344,31.85646,-2.97938,11.01,-0.33,0.17,4.0
1758075488.16341,1758075488.14492,0.0,0.0,0.0,11.97482,31.91375,-2.06265,10.49,-0.81,0.48,4.0
1758075488.17856,1758075488.15492,0.0,0.0,0.0,10.71431,33.11696,-1.20321,10.16,-1.01,0.51,4.0
1758075488.19423,1758075488.16492,0.0,0.0,0.0,11.11538,30.36677,-0.11459,10.16,-1.01,0.51,4.0
1758075488.19537,1758075488.17492,0.0,0.0,0.0,11.74564,24.63719,1.20321,8.81,-1.06,0.78,4.0
1758075488.21024,1758075488.18492,0.0,0.0,0.0,13.75099,17.6471,4.18259,8.81,-1.06,0.78,4.0
1758075488.21142,1758075488.19492,0.0,0.0,0.0,15.69904,14.20935,6.24524,8.35,-1.07,0.62,4.0
1758075488.22625,1758075488.20492,0.0,0.0,0.0,17.76169,10.59972,8.70896,8.35,-1.07,0.62,4.0
1758075488.24227,1758075488.21492,0.0,0.0,0.0,19.53786,7.21927,10.48513,8.23,-0.93,0.65,4.0
1758075488.24385,1758075488.22492,0.0,0.0,0.0,21.42862,3.26586,12.43318,8.23,-0.93,0.65,4.0
1758075488.25827,1758075488.23492,0.0,0.0,0.0,22.23076,4.0107,12.77696,8.27,-0.64,0.4,4.0
1758075488.27449,1758075488.24492,0.0,0.0,0.0,22.23076,7.10468,12.2613,8.82,-0.39,0.21,4.0
1758075488.27601,1758075488.25492,0.0,0.0,0.0,21.7724,9.62569,10.8862,8.82,-0.39,0.21,4.0
1758075488.29055,1758075488.26492,0.0,0.0,0.0,20.34,12.08941,8.02141,8.71,-0.25,0.04,4.0
1758075488.29173,1758075488.27492,0.0,0.0,0.0,19.13679,14.09476,5.15662,8.71,-0.25,0.04,4.0
1758075488.3063,1758075488.28492,0.0,0.0,0.0,17.6471,16.272,2.29183,8.76,-0.22,-0.17,4.0
1758075488.32357,1758075488.29492,0.0,0.0,0.0,16.04282,17.99088,-0.85944,8.76,-0.22,-0.17,4.0
1758075488.32449,1758075488.30492,0.0,0.0,0.0,13.40721,19.36597,-5.55769,9.05,-0.11,-0.14,4.0
1758075488.33958,1758075488.31492,0.0,0.0,0.0,12.54778,19.99623,-8.136,9.25,-0.13,-0.09,4.0
1758075488.34045,1758075488.32492,0.0,0.0,0.0,12.08941,19.25138,-10.31324,9.25,-0.13,-0.09,4.0
1758075488.35637,1758075488.33492,0.0,0.0,0.0,12.14671,17.30333,-11.86023,9.21,-0.38,-0.11,4.0
1758075488.37258,1758075488.34492,0.0,0.0,0.0,12.89155,13.06344,-13.23533,9.21,-0.38,-0.11,4.0
1758075488.37466,1758075488.35492,0.0,0.0,0.0,14.03747,9.4538,-13.40721,9.09,-0.76,-0.02,4.0
1758075488.38962,1758075488.36492,0.0,0.0,0.0,15.06879,5.09932,-12.89155,9.09,-0.76,-0.02,4.0
1758075488.39052,1758075488.37492,0.0,0.0,0.0,16.272,0.11459,-11.57375,8.94,-1.09,-0.03,4.0
1758075488.40668,1758075488.38492,0.0,0.0,0.0,16.38659,-7.84952,-10.54242,8.84,-1.25,-0.15,4.0
1758075488.42264,1758075488.39492,0.0,0.0,0.0,16.21471,-10.08406,-8.88085,8.84,-1.25,-0.15,4.0
1758075488.42357,1758075488.40492,0.0,0.0,0.0,15.64175,-10.54242,-7.39116,9.23,-1.1,-0.18,4.0
1758075488.4384,1758075488.41492,0.0,0.0,0.0,14.83961,-9.85487,-5.4431,9.23,-1.1,-0.18,4.0
1758075488.4544,1758075488.42492,0.0,0.0,0.0,14.32395,-9.68299,-4.58366,9.3,-0.8,-0.17,4.0
1758075488.45631,1758075488.43492,0.0,0.0,0.0,13.5218,-10.54242,-4.35448,9.3,-0.8,-0.17,4.0
1758075488.47167,1758075488.44492,0.0,0.0,0.0,12.89155,-12.204,-4.58366,8.91,-0.56,-0.33,4.0
1758075488.47284,1758075488.45492,0.0,0.0,0.0,12.14671,-14.43854,-5.90147,8.57,-0.56,-0.71,4.0
1758075488.4874,1758075488.46492,0.0,0.0,0.0,11.86023,-15.64175,-7.33386,8.57,-0.48,-0.71,4.0
1758075488.50367,1758075488.47492,0.0,0.0,0.0,11.63104,-16.84496,-8.76626,8.37,-0.44,-0.94,4.0
1758075488.50469,1758075488.48492,0.0,0.0,0.0,11.63104,-18.73572,-9.91217,8.37,-0.44,-0.94,4.0
1758075488.51971,1758075488.49492,0.0,0.0,0.0,11.74564,-20.97026,-11.51645,8.07,-0.44,-1.07,4.0
1758075488.52095,1758075488.50492,0.0,0.0,0.0,12.204,-20.05352,-12.43318,8.07,-0.44,-1.07,4.0
1758075488.53683,1758075488.51492,0.0,0.0,0.0,12.77696,-17.87628,-13.12073,8.07,-0.53,-0.94,4.0
1758075488.55372,1758075488.52492,0.0,0.0,0.0,13.80828,-11.97482,-13.12073,8.07,-0.53,-0.94,4.0
1758075488.55464,1758075488.53492,0.0,0.0,0.0,15.12609,-3.60963,-12.54778,8.4,-0.7,-0.83,4.0
1758075488.56974,1758075488.54492,0.0,0.0,0.0,15.69904,-1.66158,-12.204,7.86,-0.85,-0.81,4.0
1758075488.57063,1758075488.55492,0.0,0.0,0.0,16.3293,-0.0573,-11.57375,7.86,-0.85,-0.81,4.0
1758075488.58671,1758075488.56492,0.0,0.0,0.0,16.84496,0.40107,-10.8289,7.22,-1.03,-0.96,4.0
1758075488.60372,1758075488.57492,0.0,0.0,0.0,18.79302,-7.84952,-10.02676,7.22,-1.03,-0.96,4.0
1758075488.60498,1758075488.58492,0.0,0.0,0.0,19.48057,-23.31938,-8.30789,5.69,-1.16,-1.44,4.0
1758075488.61979,1758075488.59492,0.0,0.0,0.0,22.11617,-37.01308,-3.55234,5.69,-1.16,-1.44,4.0
1758075488.62111,1758075488.60492,0.0,0.0,0.0,24.23611,-38.73195,2.11994,5.33,-1.4,-1.42,4.0
1758075488.63683,1758075488.61492,0.0,0.0,0.0,24.98096,-37.81522,3.89611,6.68,-1.52,-1.46,4.0
1758075488.65354,1758075488.62492,0.0,0.0,0.0,25.43933,-35.98175,4.69825,6.68,-1.52,-1.46,4.0
1758075488.65481,1758075488.63492,0.0,0.0,0.0,25.09555,-33.74722,5.15662,6.25,-1.11,-1.46,4.0
1758075488.66956,1758075488.64492,0.0,0.0,0.0,23.60586,-32.88778,3.89611,6.25,-1.11,-1.46,4.0
1758075488.67076,1758075488.65492,0.0,0.0,0.0,21.88699,-32.71589,2.06265,5.55,-0.71,-0.47,4.0
1758075488.68737,1758075488.66492,0.0,0.0,0.0,19.48057,-35.92446,0.80214,5.55,-0.71,-0.47,4.0
1758075488.70437,1758075488.67492,0.0,0.0,0.0,17.47521,-39.13302,0.74485,6.31,-0.04,2.46,4.0
1758075488.70559,1758075488.68492,0.0,0.0,0.0,11.86023,-33.63263,3.38045,11.54,2.19,3.29,4.0
1758075488.72059,1758075488.69492,0.0,0.0,0.0,6.58902,-25.72581,5.61499,11.54,2.19,3.29,4.0
1758075488.72177,1758075488.70492,0.0,0.0,0.0,0.51566,-19.13679,8.136,17.32,4.42,1.59,4.0
1758075488.73661,1758075488.71492,0.0,0.0,0.0,-5.32851,-11.51645,10.94349,17.32,4.42,1.59,4.0
1758075488.75261,1758075488.72492,0.0,0.0,0.0,-13.75099,3.83882,15.92823,19.56,3.98,1.08,4.0
1758075488.75381,1758075488.73492,0.0,0.0,0.0,-18.62113,10.19865,19.88164,19.56,3.98,1.08,4.0
1758075488.76886,1758075488.74492,0.0,0.0,0.0,-21.7724,11.45916,25.21014,20.43,1.77,2.35,4.0
1758075488.78488,1758075488.75492,0.0,0.0,0.0,-22.05888,10.8289,31.16891,20.43,1.77,2.35,4.0
1758075488.78579,1758075488.76492,0.0,0.0,0.0,-15.98552,20.51189,35.92446,21.11,0.08,0.92,4.0
1758075488.80153,1758075488.77492,0.0,0.0,0.0,-7.96411,34.60666,34.95043,19.9,-1.55,0.66,4.0
1758075488.80261,1758075488.78492,0.0,0.0,0.0,1.3178,47.89928,31.28349,19.9,-1.55,0.66,4.0
1758075488.81763,1758075488.79492,0.0,0.0,0.0,8.59437,55.34772,21.08485,16.45,-2.81,0.95,4.0
1758075488.83367,1758075488.80492,0.0,0.0,0.0,14.83961,56.20716,13.98017,16.45,-2.81,0.95,4.0
1758075488.83746,1758075488.81492,0.0,0.0,0.0,17.30333,49.38896,6.87549,13.98,-1.49,1.21,4.0
1758075488.85289,1758075488.82492,0.0,0.0,0.0,19.82434,41.94051,1.3178,13.98,-1.49,1.21,4.0
1758075488.85389,1758075488.83492,0.0,0.0,0.0,21.02755,32.71589,-4.92744,13.0,-0.36,1.23,4.0
1758075488.86904,1758075488.84492,0.0,0.0,0.0,21.31403,30.93972,-6.99009,12.46,0.84,1.34,4.0
1758075488.88496,1758075488.85492,0.0,0.0,0.0,20.16812,34.95043,-8.136,12.46,0.84,1.34,4.0
1758075488.8859,1758075488.86492,0.0,0.0,0.0,18.56383,41.59674,-8.136,12.18,1.71,1.64,4.0
