timeStamp,timeStampAlign,roll,pitch,yaw,gyro_x,gyro_y,gyro_z,acc_x,acc_y,acc_z,flag_num
1758076300.21163,1758076300.07095,0.0,0.0,0.0,30.59595,-24.63719,-8.88085,8.83,-0.28,0.47,2.0
1758076300.21305,1758076300.08095,0.0,0.0,0.0,29.27814,-30.13758,-8.02141,8.83,-0.28,0.47,2.0
1758076300.22804,1758076300.09095,0.0,0.0,0.0,27.10091,-32.6013,-7.50575,9.79,0.23,0.57,2.0
1758076300.22927,1758076300.10095,0.0,0.0,0.0,24.35071,-36.15364,-7.84952,9.79,0.23,0.57,2.0
1758076300.2441,1758076300.11095,0.0,0.0,0.0,22.00158,-39.99245,-8.99544,10.14,0.86,0.64,2.0
1758076300.26013,1758076300.12095,0.0,0.0,0.0,19.42327,-44.63341,-11.17268,10.3,1.22,0.01,2.0
1758076300.26203,1758076300.13095,0.0,0.0,0.0,18.22006,-45.20637,-12.83425,10.3,1.22,0.01,2.0
1758076300.2771,1758076300.14095,0.0,0.0,0.0,18.10547,-44.40423,-14.61043,10.89,0.88,-0.22,2.0
1758076300.27824,1758076300.15095,0.0,0.0,0.0,18.56383,-41.94051,-16.04282,10.89,0.88,-0.22,2.0
1758076300.29419,1758076300.16095,0.0,0.0,0.0,21.25674,-35.40879,-18.22006,11.64,0.05,-0.18,2.0
1758076300.31105,1758076300.17095,0.0,0.0,0.0,24.80907,-29.9084,-18.50654,11.64,0.05,-0.18,2.0
1758076300.31227,1758076300.18095,0.0,0.0,0.0,29.8511,-23.20479,-18.73572,12.58,-1.02,-0.41,2.0
1758076300.32704,1758076300.19095,0.0,0.0,0.0,38.56006,-18.79302,-17.24603,12.58,-1.02,-0.41,2.0
1758076300.32828,1758076300.20095,0.0,0.0,0.0,43.83128,-17.6471,-14.78231,12.78,-2.09,-0.33,2.0
1758076300.34504,1758076300.21095,0.0,0.0,0.0,48.9306,-17.30333,-10.08406,12.81,-2.44,0.51,2.0
1758076300.36105,1758076300.22095,0.0,0.0,0.0,50.76406,-11.51645,-5.32851,12.81,-2.44,0.51,2.0
1758076300.36225,1758076300.23095,0.0,0.0,0.0,45.60744,-4.87014,-0.68755,13.73,-0.88,2.23,2.0
1758076300.37779,1758076300.24095,0.0,0.0,0.0,39.76327,-3.55234,2.6929,13.73,-0.88,2.23,2.0
1758076300.37907,1758076300.25095,0.0,0.0,0.0,33.11696,-7.73493,6.70361,13.02,2.2,3.86,2.0
1758076300.39405,1758076300.26095,0.0,0.0,0.0,26.98631,-15.46986,12.77696,13.02,2.2,3.86,2.0
1758076300.41006,1758076300.27095,0.0,0.0,0.0,19.99623,-19.70975,24.23611,11.66,3.69,3.24,2.0
1758076300.4121,1758076300.28095,0.0,0.0,0.0,16.272,-16.73037,31.91375,12.03,2.7,2.88,2.0
1758076300.42709,1758076300.29095,0.0,0.0,0.0,13.17803,-10.59972,36.55471,12.03,2.7,2.88,2.0
1758076300.4283,1758076300.30095,0.0,0.0,0.0,11.22997,-4.69825,38.15899,10.56,0.79,3.07,2.0
1758076300.44407,1758076300.31095,0.0,0.0,0.0,10.8862,1.3751,33.11696,10.56,0.79,3.07,2.0
1758076300.46011,1758076300.32095,0.0,0.0,0.0,12.83425,2.00535,28.01764,8.3,-1.11,3.79,2.0
1758076300.46212,1758076300.33095,0.0,0.0,0.0,16.73037,1.3178,23.26209,8.3,-1.11,3.79,2.0
1758076300.47726,1758076300.34095,0.0,0.0,0.0,21.08485,-0.68755,20.16812,8.39,-1.87,4.58,2.0
1758076300.47831,1758076300.35095,0.0,0.0,0.0,27.33009,0.85944,16.10011,10.35,-0.91,3.67,2.0
1758076300.49407,1758076300.36095,0.0,0.0,0.0,29.22085,3.26586,13.06344,10.35,-0.91,3.67,2.0
1758076300.5111,1758076300.37095,0.0,0.0,0.0,29.73651,4.52637,9.62569,10.87,0.07,2.97,2.0
1758076300.51235,1758076300.38095,0.0,0.0,0.0,28.59059,4.35448,5.55769,10.87,0.07,2.97,2.0
1758076300.52717,1758076300.39095,0.0,0.0,0.0,24.29341,4.35448,3.60963,10.42,1.14,1.98,2.0
1758076300.52835,1758076300.40095,0.0,0.0,0.0,19.82434,4.29718,1.71887,10.42,1.14,1.98,2.0
1758076300.54439,1758076300.41095,0.0,0.0,0.0,14.49583,5.15662,-0.22918,9.96,1.9,2.03,2.0
1758076300.56119,1758076300.42095,0.0,0.0,0.0,5.84417,8.30789,-3.38045,9.96,1.9,2.03,2.0
1758076300.56234,1758076300.43095,0.0,0.0,0.0,-0.0573,8.25059,-6.41713,9.4,2.17,1.75,2.0
1758076300.57714,1758076300.44095,0.0,0.0,0.0,-5.55769,9.33921,-9.62569,8.67,2.2,1.49,2.0
1758076300.57834,1758076300.45095,0.0,0.0,0.0,-10.8862,12.89155,-12.83425,8.67,2.2,1.49,2.0
1758076300.59415,1758076300.46095,0.0,0.0,0.0,-17.47521,18.33465,-17.13144,8.89,2.19,1.37,2.0
1758076300.61121,1758076300.47095,0.0,0.0,0.0,-21.7151,21.02755,-19.07949,8.89,2.19,1.37,2.0
1758076300.61267,1758076300.48095,0.0,0.0,0.0,-25.61122,21.7724,-20.51189,8.79,2.13,1.4,2.0
1758076300.62719,1758076300.49095,0.0,0.0,0.0,-29.04896,21.31403,-21.31403,8.79,2.13,1.4,2.0
1758076300.62836,1758076300.50095,0.0,0.0,0.0,-33.63263,20.45459,-21.08485,8.61,1.88,1.32,2.0
1758076300.64424,1758076300.51095,0.0,0.0,0.0,-35.92446,19.53786,-19.99623,8.66,1.4,1.16,2.0
1758076300.66198,1758076300.52095,0.0,0.0,0.0,-37.75792,19.25138,-18.44924,8.66,1.4,1.16,2.0
1758076300.6632,1758076300.53095,0.0,0.0,0.0,-39.07573,18.85031,-16.50119,8.72,0.9,1.05,2.0
1758076300.67823,1758076300.54095,0.0,0.0,0.0,-39.87786,18.44924,-12.89155,8.72,0.9,1.05,2.0
1758076300.67943,1758076300.55095,0.0,0.0,0.0,-39.70598,17.87628,-10.48513,8.6,0.45,0.86,2.0
1758076300.69458,1758076300.56095,0.0,0.0,0.0,-38.90384,17.24603,-7.96411,8.6,0.45,0.86,2.0
1758076300.71151,1758076300.57095,0.0,0.0,0.0,-37.87251,16.55848,-5.55769,8.52,0.22,0.73,2.0
1758076300.7124,1758076300.58095,0.0,0.0,0.0,-35.98175,15.75634,-2.23454,8.67,0.21,0.63,2.0
1758076300.72716,1758076300.59095,0.0,0.0,0.0,-34.66395,15.29797,-0.22918,8.67,0.21,0.63,2.0
1758076300.72833,1758076300.60095,0.0,0.0,0.0,-33.46074,14.61043,1.14592,8.84,0.31,0.55,2.0
1758076300.74417,1758076300.61095,0.0,0.0,0.0,-32.25753,13.98017,2.86479,8.84,0.31,0.55,2.0
1758076300.76027,1758076300.62095,0.0,0.0,0.0,-31.79916,14.66772,3.60963,8.99,0.48,0.35,2.0
1758076300.76138,1758076300.63095,0.0,0.0,0.0,-31.39809,15.64175,4.23989,8.99,0.48,0.35,2.0
1758076300.77619,1758076300.64095,0.0,0.0,0.0,-30.99702,16.10011,4.98473,9.06,0.63,0.18,2.0
1758076300.7925,1758076300.65095,0.0,0.0,0.0,-30.59595,12.77696,5.90147,9.06,0.63,0.18,2.0
1758076300.79342,1758076300.66095,0.0,0.0,0.0,-29.73651,9.4538,7.39116,8.7,0.65,0.31,2.0
1758076300.80848,1758076300.67095,0.0,0.0,0.0,-28.87707,3.55234,8.30789,8.43,0.37,0.58,2.0
1758076300.81263,1758076300.68095,0.0,0.0,0.0,-28.01764,-2.11994,9.33921,8.43,0.37,0.58,2.0
1758076300.82823,1758076300.69095,0.0,0.0,0.0,-26.12688,-5.72958,10.31324,8.91,0.01,0.73,2.0
1758076300.83342,1758076300.70095,0.0,0.0,0.0,-24.86637,-8.0787,10.8289,8.91,0.01,0.73,2.0
1758076300.84829,1758076300.71095,0.0,0.0,0.0,-23.94964,-12.43318,10.8289,9.52,-0.16,0.83,2.0
1758076300.8494,1758076300.72095,0.0,0.0,0.0,-23.0329,-17.99088,10.59972,9.52,-0.16,0.83,2.0
1758076300.86458,1758076300.73095,0.0,0.0,0.0,-22.97561,-28.36141,9.5684,9.72,-0.02,0.92,2.0
1758076300.88026,1758076300.74095,0.0,0.0,0.0,-23.37668,-34.26288,9.22462,10.03,0.38,0.74,2.0
1758076300.88147,1758076300.75095,0.0,0.0,0.0,-24.5226,-36.61201,8.0787,10.03,0.38,0.74,2.0
1758076300.89651,1758076300.76095,0.0,0.0,0.0,-26.01229,-34.09099,6.87549,11.06,0.97,0.33,2.0
1758076300.91256,1758076300.77095,0.0,0.0,0.0,-28.93437,-26.98631,5.09932,11.06,0.97,0.33,2.0
1758076300.91346,1758076300.78095,0.0,0.0,0.0,-32.14294,-20.79837,3.89611,11.86,1.62,0.27,2.0
1758076300.92816,1758076300.79095,0.0,0.0,0.0,-35.2942,-15.58445,2.92208,11.86,1.62,0.27,2.0
1758076300.93019,1758076300.80095,0.0,0.0,0.0,-38.44547,-11.22997,1.08862,12.42,1.97,0.77,2.0
1758076300.94558,1758076300.81095,0.0,0.0,0.0,-39.76327,-11.34457,-2.92208,12.73,1.46,1.98,2.0
1758076300.96229,1758076300.82095,0.0,0.0,0.0,-39.4768,-14.61043,-6.53172,12.73,1.46,1.98,2.0
1758076300.96347,1758076300.83095,0.0,0.0,0.0,-36.6693,-22.97561,-11.00079,11.99,0.38,2.43,2.0
1758076300.97828,1758076300.84095,0.0,0.0,0.0,-30.53865,-52.13916,-17.24603,11.99,0.38,2.43,2.0
1758076300.9795,1758076300.85095,0.0,0.0,0.0,-26.69983,-59.64491,-22.40265,9.9,-0.79,2.37,2.0
1758076300.99458,1758076300.86095,0.0,0.0,0.0,-21.02755,-47.03984,-23.60586,9.9,-0.79,2.37,2.0
1758076301.01033,1758076300.87095,0.0,0.0,0.0,-15.0115,-34.14828,-26.35606,13.35,-2.0,2.3,2.0
1758076301.01228,1758076300.88095,0.0,0.0,0.0,-7.67763,-25.38203,-28.59059,13.35,-2.0,2.3,2.0
1758076301.02761,1758076300.89095,0.0,0.0,0.0,-6.13065,-22.63183,-28.41871,12.67,-2.34,3.46,2.0
1758076301.02883,1758076300.90095,0.0,0.0,0.0,-8.30789,-19.42327,-27.61657,10.75,-1.3,3.95,2.0
1758076301.04455,1758076300.91095,0.0,0.0,0.0,-13.5791,-15.92823,-25.49662,10.75,-1.3,3.95,2.0
1758076301.06038,1758076300.92095,0.0,0.0,0.0,-21.37133,-13.23533,-27.10091,9.69,-0.13,3.77,2.0
1758076301.06233,1758076300.93095,0.0,0.0,0.0,-26.18417,-7.39116,-27.61657,9.69,-0.13,3.77,2.0
1758076301.07735,1758076300.94095,0.0,0.0,0.0,-28.93437,4.23989,-26.24147,10.35,0.29,3.25,2.0
1758076301.07882,1758076300.95095,0.0,0.0,0.0,-30.30947,11.91752,-24.00693,10.35,0.29,3.25,2.0
1758076301.09436,1758076300.96095,0.0,0.0,0.0,-29.04896,13.17803,-17.58981,10.99,0.29,2.48,2.0
1758076301.11035,1758076300.97095,0.0,0.0,0.0,-26.81443,11.91752,-12.60507,10.55,-0.17,1.88,2.0
1758076301.11154,1758076300.98095,0.0,0.0,0.0,-24.12152,9.22462,-7.96411,10.55,-0.17,1.88,2.0
1758076301.12657,1758076300.99095,0.0,0.0,0.0,-20.97026,9.68299,-3.20856,10.67,-0.96,1.44,2.0
1758076301.14235,1758076301.00095,0.0,0.0,0.0,-14.83961,18.79302,3.49504,10.67,-0.96,1.44,2.0
1758076301.14355,1758076301.01095,0.0,0.0,0.0,-10.8289,24.75178,7.39116,10.91,-1.75,1.23,2.0
1758076301.15837,1758076301.02095,0.0,0.0,0.0,-7.16197,27.96034,10.54242,10.91,-1.75,1.23,2.0
1758076301.15957,1758076301.03095,0.0,0.0,0.0,-2.11994,28.76248,13.98017,9.69,-2.06,1.37,2.0
1758076301.17437,1758076301.04095,0.0,0.0,0.0,0.51566,26.18417,15.35527,8.63,-1.97,1.22,2.0
1758076301.19121,1758076301.05095,0.0,0.0,0.0,3.03668,26.12688,16.61578,8.63,-1.97,1.22,2.0
1758076301.19263,1758076301.06095,0.0,0.0,0.0,5.15662,24.5226,16.90226,8.4,-1.68,1.07,2.0
1758076301.20737,1758076301.07095,0.0,0.0,0.0,8.136,22.23076,16.04282,8.4,-1.68,1.07,2.0
1758076301.20858,1758076301.08095,0.0,0.0,0.0,10.48513,26.47065,15.41257,8.31,-1.28,1.16,2.0
1758076301.22545,1758076301.09095,0.0,0.0,0.0,12.83425,34.32018,14.66772,8.31,-1.28,1.16,2.0
1758076301.24167,1758076301.10095,0.0,0.0,0.0,14.43854,38.61736,13.46451,8.93,-0.92,1.35,2.0
1758076301.2426,1758076301.11095,0.0,0.0,0.0,15.41257,35.00772,10.8862,7.84,-0.92,1.52,2.0
1758076301.25741,1758076301.12095,0.0,0.0,0.0,15.41257,28.70519,8.76626,7.84,-0.57,1.52,2.0
1758076301.25859,1758076301.13095,0.0,0.0,0.0,14.9542,21.37133,6.87549,7.23,-0.28,1.11,2.0
1758076301.27439,1758076301.14095,0.0,0.0,0.0,14.20935,15.0115,5.15662,7.23,-0.28,1.11,2.0
1758076301.29037,1758076301.15095,0.0,0.0,0.0,12.60507,8.88085,3.20856,7.44,-0.09,0.79,2.0
1758076301.29237,1758076301.16095,0.0,0.0,0.0,11.17268,5.61499,1.66158,7.44,-0.09,0.79,2.0
1758076301.30738,1758076301.17095,0.0,0.0,0.0,10.37054,4.69825,1.08862,7.9,0.01,0.68,2.0
1758076301.30855,1758076301.18095,0.0,0.0,0.0,9.22462,9.96947,-0.51566,7.9,0.01,0.68,2.0
1758076301.32465,1758076301.19095,0.0,0.0,0.0,7.67763,20.3973,-3.83882,9.08,0.1,0.52,2.0
1758076301.34043,1758076301.20095,0.0,0.0,0.0,7.79223,23.0902,-5.21392,9.13,-0.04,0.6,2.0
1758076301.37466,1758076301.21095,0.0,0.0,0.0,11.91752,4.69825,-11.00079,8.35,-0.38,-0.14,2.0
1758076301.39063,1758076301.22095,0.0,0.0,0.0,13.75099,0.17189,-11.28727,8.35,-0.38,-0.14,2.0
1758076301.39244,1758076301.23095,0.0,0.0,0.0,16.50119,-6.07335,-11.86023,8.76,-0.47,-0.09,2.0
1758076301.40765,1758076301.24095,0.0,0.0,0.0,19.19409,-10.08406,-10.8862,9.11,-0.46,0.41,2.0
1758076301.40861,1758076301.25095,0.0,0.0,0.0,21.60051,-12.49048,-9.62569,9.11,-0.46,0.41,2.0
1758076301.42469,1758076301.26095,0.0,0.0,0.0,23.83505,-14.03747,-8.65166,9.81,-0.36,0.77,2.0
1758076301.4406,1758076301.27095,0.0,0.0,0.0,26.47065,-18.50654,-7.84952,9.81,-0.36,0.77,2.0
1758076301.4416,1758076301.28095,0.0,0.0,0.0,27.84575,-21.48592,-7.79223,10.15,-0.07,0.91,2.0
1758076301.45749,1758076301.29095,0.0,0.0,0.0,29.67921,-23.94964,-8.136,10.15,-0.07,0.91,2.0
1758076301.45872,1758076301.30095,0.0,0.0,0.0,31.56997,-26.01229,-8.76626,10.71,0.16,0.71,2.0
1758076301.47469,1758076301.31095,0.0,0.0,0.0,35.2942,-26.47065,-9.68299,11.31,0.14,0.39,2.0
1758076301.49144,1758076301.32095,0.0,0.0,0.0,38.27358,-24.86637,-10.25595,11.31,0.14,0.39,2.0
1758076301.49266,1758076301.33095,0.0,0.0,0.0,41.25296,-21.7724,-10.59972,11.88,-0.18,0.11,2.0
1758076301.50766,1758076301.34095,0.0,0.0,0.0,44.17505,-16.55848,-10.65701,11.88,-0.18,0.11,2.0
1758076301.50903,1758076301.35095,0.0,0.0,0.0,47.49821,-11.91752,-10.54242,12.08,-0.61,-0.02,2.0
1758076301.52529,1758076301.36095,0.0,0.0,0.0,49.27437,-12.83425,-9.33921,12.08,-0.61,-0.02,2.0
1758076301.54141,1758076301.37095,0.0,0.0,0.0,49.21708,-18.50654,-7.67763,11.78,-0.68,0.6,2.0
1758076301.54259,1758076301.38095,0.0,0.0,0.0,46.40959,-21.02755,-4.92744,11.78,-0.68,0.6,2.0
1758076301.5578,1758076301.39095,0.0,0.0,0.0,40.16434,-17.47521,1.77617,12.67,0.15,1.65,2.0
1758076301.55868,1758076301.40095,0.0,0.0,0.0,35.06502,-14.43854,6.87549,13.83,1.15,2.3,2.0
1758076301.57449,1758076301.41095,0.0,0.0,0.0,29.9084,-15.58445,11.28727,13.83,1.15,2.3,2.0
1758076301.59179,1758076301.42095,0.0,0.0,0.0,25.7831,-20.05352,20.22541,12.45,1.67,2.82,2.0
1758076301.59269,1758076301.43095,0.0,0.0,0.0,20.34,-20.74107,25.7831,12.45,1.67,2.82,2.0
1758076301.60778,1758076301.44095,0.0,0.0,0.0,17.53251,-16.73037,29.50733,11.9,1.2,3.03,2.0
1758076301.60955,1758076301.45095,0.0,0.0,0.0,15.64175,-11.45916,31.74186,11.9,1.2,3.03,2.0
1758076301.62711,1758076301.46095,0.0,0.0,0.0,15.75634,-3.49504,31.79916,10.08,0.21,3.29,2.0
1758076301.64257,1758076301.47095,0.0,0.0,0.0,17.87628,-1.3178,30.53865,8.38,-0.63,4.18,2.0
1758076301.64372,1758076301.48095,0.0,0.0,0.0,21.37133,-0.68755,28.36141,8.38,-0.63,4.18,2.0
1758076301.65838,1758076301.49095,0.0,0.0,0.0,24.75178,0.11459,25.7831,8.39,-1.1,4.28,2.0
1758076301.65964,1758076301.50095,0.0,0.0,0.0,27.67386,-1.94806,22.00158,8.39,-1.1,4.28,2.0
1758076301.67451,1758076301.51095,0.0,0.0,0.0,27.84575,-3.95341,19.19409,9.85,-0.52,3.67,2.0
1758076301.69156,1758076301.52095,0.0,0.0,0.0,27.1582,-2.57831,15.41257,9.85,-0.52,3.67,2.0
1758076301.69299,1758076301.53095,0.0,0.0,0.0,24.80907,-0.85944,11.28727,10.93,0.11,2.55,2.0
1758076301.70786,1758076301.54095,0.0,0.0,0.0,19.19409,1.08862,5.72958,10.48,0.95,2.01,2.0
1758076301.709,1758076301.55095,0.0,0.0,0.0,14.20935,2.57831,2.11994,10.48,0.95,2.01,2.0
1758076301.72481,1758076301.56095,0.0,0.0,0.0,8.88085,4.92744,-0.85944,9.83,1.58,2.06,2.0
1758076301.74199,1758076301.57095,0.0,0.0,0.0,3.20856,5.61499,-4.23989,9.83,1.58,2.06,2.0
1758076301.74324,1758076301.58095,0.0,0.0,0.0,-4.87014,5.78687,-9.28192,9.19,1.95,1.94,2.0
1758076301.75842,1758076301.59095,0.0,0.0,0.0,-9.74028,6.47442,-12.37589,9.19,1.95,1.94,2.0
1758076301.75965,1758076301.60095,0.0,0.0,0.0,-14.20935,9.5684,-14.9542,9.06,2.1,1.62,2.0
1758076301.77443,1758076301.61095,0.0,0.0,0.0,-17.76169,16.67307,-16.272,9.06,2.1,1.62,2.0
1758076301.79043,1758076301.62095,0.0,0.0,0.0,-22.91831,22.00158,-17.58981,9.62,1.94,1.53,2.0
1758076301.79167,1758076301.63095,0.0,0.0,0.0,-25.55392,22.57454,-17.99088,8.97,1.58,1.65,2.0
1758076301.80643,1758076301.64095,0.0,0.0,0.0,-27.78845,22.74642,-18.22006,8.97,1.58,1.65,2.0
1758076301.82244,1758076301.65095,0.0,0.0,0.0,-30.48136,22.34536,-17.6471,8.61,1.1,1.57,2.0
1758076301.82368,1758076301.66095,0.0,0.0,0.0,-31.79916,21.6578,-16.55848,8.61,1.1,1.57,2.0
1758076301.83916,1758076301.67095,0.0,0.0,0.0,-32.77319,21.31403,-15.46986,8.36,0.58,1.47,2.0
1758076301.83979,1758076301.68095,0.0,0.0,0.0,-33.63263,23.94964,-13.86558,8.36,0.58,1.47,2.0
1758076301.85482,1758076301.69095,0.0,0.0,0.0,-34.37747,32.25753,-11.51645,8.74,0.35,1.31,2.0
1758076301.87144,1758076301.70095,0.0,0.0,0.0,-35.63798,40.27893,-10.54242,9.41,0.45,1.26,2.0
1758076301.87257,1758076301.71095,0.0,0.0,0.0,-35.75257,46.1804,-9.68299,9.41,0.45,1.26,2.0
1758076301.88783,1758076301.72095,0.0,0.0,0.0,-35.2369,43.83128,-8.99544,8.83,0.53,1.52,2.0
1758076301.88964,1758076301.73095,0.0,0.0,0.0,-33.9764,14.83961,-9.05273,8.83,0.53,1.52,2.0
1758076301.90762,1758076301.74095,0.0,0.0,0.0,-31.97105,-5.61499,-5.4431,6.23,0.44,0.56,2.0
1758076301.90856,1758076301.75095,0.0,0.0,0.0,-30.48136,-11.45916,-0.57296,6.23,0.44,0.56,2.0
1758076301.92546,1758076301.76095,0.0,0.0,0.0,-30.59595,-7.84952,1.66158,8.81,0.0,0.31,2.0
1758076301.94165,1758076301.77095,0.0,0.0,0.0,-32.14294,-2.29183,3.26586,9.9,0.14,0.53,2.0
1758076301.94316,1758076301.78095,0.0,0.0,0.0,-34.26288,-0.51566,2.97938,9.9,0.14,0.53,2.0
1758076301.95788,1758076301.79095,0.0,0.0,0.0,-37.24226,0.17189,1.77617,9.68,0.49,0.55,2.0
1758076301.95992,1758076301.80095,0.0,0.0,0.0,-40.33623,0.17189,0.40107,9.68,0.49,0.55,2.0
1758076301.97579,1758076301.81095,0.0,0.0,0.0,-45.03448,-2.92208,-0.80214,9.09,0.88,0.32,2.0
1758076301.99173,1758076301.82095,0.0,0.0,0.0,-47.32632,-7.67763,-0.74485,9.09,0.88,0.32,2.0
1758076301.99285,1758076301.83095,0.0,0.0,0.0,-49.27437,-14.09476,-0.74485,8.5,0.98,0.52,2.0
1758076302.00754,1758076301.84095,0.0,0.0,0.0,-51.10783,-20.97026,-0.68755,8.5,0.98,0.52,2.0
1758076302.00961,1758076301.85095,0.0,0.0,0.0,-53.17049,-28.41871,-0.80214,8.75,0.8,0.78,2.0
1758076302.02746,1758076301.86095,0.0,0.0,0.0,-54.02992,-31.97105,-0.80214,9.48,0.36,0.74,2.0
1758076302.02867,1758076301.87095,0.0,0.0,0.0,-54.431,-32.25753,-0.85944,9.48,0.36,0.74,2.0
1758076302.04493,1758076301.88095,0.0,0.0,0.0,-55.00395,-23.31938,-2.11994,10.58,0.04,0.67,2.0
1758076302.06145,1758076301.89095,0.0,0.0,0.0,-55.7488,-16.38659,-2.29183,10.58,0.04,0.67,2.0
1758076302.06267,1758076301.90095,0.0,0.0,0.0,-57.46767,-12.08941,-2.86479,11.24,0.14,0.3,2.0
1758076302.07784,1758076301.91095,0.0,0.0,0.0,-58.90006,-17.36062,-3.09397,11.24,0.14,0.3,2.0
1758076302.07965,1758076301.92095,0.0,0.0,0.0,-60.79083,-38.84654,-4.29718,10.2,0.5,-0.01,2.0
1758076302.09577,1758076301.93095,0.0,0.0,0.0,-62.56699,-50.01921,-4.18259,9.76,0.77,-0.5,2.0
1758076302.11171,1758076301.94095,0.0,0.0,0.0,-64.45775,-40.10705,-1.60428,9.76,0.77,-0.5,2.0
1758076302.11289,1758076301.95095,0.0,0.0,0.0,-66.635,-18.90761,-0.97403,13.75,1.31,-0.49,2.0
1758076302.12756,1758076301.96095,0.0,0.0,0.0,-74.7137,-4.46907,-4.58366,13.75,1.31,-0.49,2.0
1758076302.12958,1758076301.97095,0.0,0.0,0.0,-75.63043,-14.20935,-9.28192,13.05,1.12,1.78,2.0
1758076302.14763,1758076301.98095,0.0,0.0,0.0,-75.00018,-29.39274,-15.29797,13.05,1.12,1.78,2.0
1758076302.14888,1758076301.99095,0.0,0.0,0.0,-73.3386,-40.33623,-22.23076,10.88,0.06,2.77,2.0
1758076302.16781,1758076302.00095,0.0,0.0,0.0,-67.66632,-41.25296,-31.62727,12.1,-1.09,2.49,2.0
1758076302.17111,1758076302.01095,0.0,0.0,0.0,-63.31184,-36.61201,-37.64333,12.1,-1.09,2.49,2.0
1758076302.18777,1758076302.02095,0.0,0.0,0.0,-58.78547,-29.62192,-41.99781,12.98,-2.0,2.88,2.0
1758076302.19116,1758076302.03095,0.0,0.0,0.0,-54.48829,-22.40265,-44.86259,12.98,-2.0,2.88,2.0
1758076302.20778,1758076302.04095,0.0,0.0,0.0,-52.36834,-14.78231,-45.49285,11.62,-1.8,3.11,2.0
1758076302.21133,1758076302.05095,0.0,0.0,0.0,-54.71747,-11.97482,-44.23235,11.62,-1.8,3.11,2.0
1758076302.22778,1758076302.06095,0.0,0.0,0.0,-60.33246,-8.70896,-42.51347,10.11,-0.61,3.78,2.0
1758076302.22975,1758076302.07095,0.0,0.0,0.0,-72.13539,-5.90147,-39.4195,10.11,-0.61,3.78,2.0
1758076302.24733,1758076302.08095,0.0,0.0,0.0,-80.44328,-4.64096,-35.98175,10.44,0.48,3.68,2.0
1758076302.26273,1758076302.09095,0.0,0.0,0.0,-85.48531,-5.27121,-31.2262,11.58,1.01,2.73,2.0
1758076302.2643,1758076302.10095,0.0,0.0,0.0,-88.69387,0.22918,-26.01229,11.58,1.01,2.73,2.0
1758076302.27874,1758076302.11095,0.0,0.0,0.0,-88.29281,11.45916,-15.06879,12.89,0.57,1.22,2.0
1758076302.28018,1758076302.12095,0.0,0.0,0.0,-85.71449,16.38659,-8.76626,12.89,0.57,1.22,2.0
1758076302.29544,1758076302.13095,0.0,0.0,0.0,-81.99026,20.45459,-4.23989,11.89,-0.53,1.12,2.0
1758076302.31209,1758076302.14095,0.0,0.0,0.0,-77.80767,25.21014,-0.57296,11.89,-0.53,1.12,2.0
1758076302.31299,1758076302.15095,0.0,0.0,0.0,-72.30728,29.96569,3.66693,10.99,-1.61,0.94,2.0
1758076302.32804,1758076302.16095,0.0,0.0,0.0,-69.84356,31.45539,5.72958,9.7,-2.0,0.82,2.0
1758076302.33252,1758076302.17095,0.0,0.0,0.0,-68.29657,31.91375,7.04738,9.7,-2.0,0.82,2.0
1758076302.34803,1758076302.18095,0.0,0.0,0.0,-66.92148,31.39809,8.02141,8.66,-1.88,0.71,2.0
1758076302.3492,1758076302.19095,0.0,0.0,0.0,-65.54638,31.16891,8.136,8.66,-1.88,0.71,2.0
1758076302.36478,1758076302.20095,0.0,0.0,0.0,-64.45775,31.11161,8.02141,8.06,-1.65,0.79,2.0
1758076302.38183,1758076302.21095,0.0,0.0,0.0,-63.25455,31.56997,7.50575,8.06,-1.65,0.79,2.0
1758076302.38301,1758076302.22095,0.0,0.0,0.0,-61.87944,31.91375,6.99009,7.71,-1.41,0.79,2.0
1758076302.39784,1758076302.23095,0.0,0.0,0.0,-58.78547,30.19488,5.55769,7.27,-1.16,0.72,2.0
1758076302.39926,1758076302.24095,0.0,0.0,0.0,-55.97798,28.70519,4.52637,7.27,-1.16,0.72,2.0
1758076302.41557,1758076302.25095,0.0,0.0,0.0,-52.82671,27.67386,3.60963,7.17,-1.02,0.62,2.0
1758076302.43213,1758076302.26095,0.0,0.0,0.0,-49.67545,26.47065,2.6929,7.17,-1.02,0.62,2.0
1758076302.43296,1758076302.27095,0.0,0.0,0.0,-45.55015,25.55392,2.11994,7.42,-1.05,0.33,2.0
1758076302.44807,1758076302.28095,0.0,0.0,0.0,-43.02913,24.80907,1.3751,7.42,-1.05,0.33,2.0
1758076302.44898,1758076302.29095,0.0,0.0,0.0,-41.02378,22.74642,0.34377,7.83,-1.07,0.17,2.0
1758076302.46483,1758076302.30095,0.0,0.0,0.0,-38.56006,19.53786,-1.43239,7.83,-1.07,0.17,2.0
1758076302.48165,1758076302.31095,0.0,0.0,0.0,-36.89849,18.62113,-2.7502,8.19,-1.01,0.08,2.0
1758076302.48315,1758076302.32095,0.0,0.0,0.0,-34.89313,17.87628,-3.72423,8.86,-1.04,0.01,2.0
1758076302.49799,1758076302.33095,0.0,0.0,0.0,-31.97105,21.02755,-4.64096,8.86,-1.04,0.01,2.0
1758076302.49925,1758076302.34095,0.0,0.0,0.0,-26.87172,29.62192,-5.32851,9.9,-1.28,-0.16,2.0
1758076302.51591,1758076302.35095,0.0,0.0,0.0,-23.20479,31.28349,-5.61499,9.9,-1.28,-0.16,2.0
1758076302.53266,1758076302.36095,0.0,0.0,0.0,-19.13679,30.25217,-5.95876,9.69,-1.55,-0.25,2.0
1758076302.5354,1758076302.37095,0.0,0.0,0.0,-14.83961,27.44468,-6.18794,9.69,-1.55,-0.25,2.0
1758076302.55187,1758076302.38095,0.0,0.0,0.0,-8.30789,20.16812,-6.47442,9.26,-1.7,-0.35,2.0
1758076302.55285,1758076302.39095,0.0,0.0,0.0,-3.55234,12.37589,-6.7609,8.7,-1.71,-0.51,2.0
1758076302.56793,1758076302.40095,0.0,0.0,0.0,1.08862,-1.08862,-7.10468,8.7,-1.71,-0.51,2.0
1758076302.56898,1758076302.41095,0.0,0.0,0.0,4.81285,-18.50654,-8.136,7.83,-1.58,-0.33,2.0
1758076302.58721,1758076302.42095,0.0,0.0,0.0,11.17268,-26.47065,-11.11538,7.83,-1.58,-0.33,2.0
1758076302.60316,1758076302.43095,0.0,0.0,0.0,15.29797,-15.92823,-11.51645,10.3,-1.49,-0.01,2.0
1758076302.60516,1758076302.44095,0.0,0.0,0.0,19.19409,-3.66693,-12.89155,10.3,-1.49,-0.01,2.0
1758076302.61992,1758076302.45095,0.0,0.0,0.0,24.29341,10.02676,-12.14671,12.97,-1.61,1.36,2.0
1758076302.62107,1758076302.46095,0.0,0.0,0.0,28.36141,14.38124,-15.46986,12.81,-1.36,1.79,2.0
1758076302.63616,1758076302.47095,0.0,0.0,0.0,31.39809,0.22918,-18.62113,12.81,-1.36,1.79,2.0
1758076302.6521,1758076302.48095,0.0,0.0,0.0,32.83048,-28.13223,-19.76705,10.24,-1.28,0.62,2.0
1758076302.65303,1758076302.49095,0.0,0.0,0.0,37.87251,-53.05589,-16.10011,10.24,-1.28,0.62,2.0
1758076302.66786,1758076302.50095,0.0,0.0,0.0,36.26823,-58.67088,-11.45916,11.69,-1.49,0.24,2.0
1758076302.669,1758076302.51095,0.0,0.0,0.0,32.83048,-54.71747,-4.0107,11.69,-1.49,0.24,2.0
1758076302.68753,1758076302.52095,0.0,0.0,0.0,25.15285,-55.92068,2.63561,14.36,-0.9,3.63,2.0
1758076302.7032,1758076302.53095,0.0,0.0,0.0,10.71431,-66.29122,12.77696,14.36,-0.9,3.63,2.0
1758076302.70409,1758076302.54095,0.0,0.0,0.0,2.00535,-68.06739,18.85031,13.61,1.0,4.61,2.0
1758076302.71987,1758076302.55095,0.0,0.0,0.0,-4.92744,-66.97877,23.0329,12.47,2.07,2.5,2.0
1758076302.72191,1758076302.56095,0.0,0.0,0.0,-10.25595,-62.39511,25.38203,12.47,2.07,2.5,2.0
1758076302.7372,1758076302.57095,0.0,0.0,0.0,-14.03747,-50.76406,26.01229,10.84,1.59,1.58,2.0
1758076302.75323,1758076302.58095,0.0,0.0,0.0,-13.98017,-43.37291,24.4653,10.84,1.59,1.58,2.0
1758076302.75441,1758076302.59095,0.0,0.0,0.0,-13.34992,-35.40879,22.00158,9.77,0.22,2.93,2.0
1758076302.76988,1758076302.60095,0.0,0.0,0.0,-11.17268,-29.62192,21.48592,9.77,0.22,2.93,2.0
1758076302.77082,1758076302.61095,0.0,0.0,0.0,-6.24524,-24.98096,22.11617,8.35,-0.45,3.65,2.0
1758076302.786,1758076302.62095,0.0,0.0,0.0,-2.11994,-23.0329,24.86637,8.41,-0.71,4.61,2.0
1758076302.80322,1758076302.63095,0.0,0.0,0.0,1.77617,-18.56383,27.84575,8.41,-0.71,4.61,2.0
1758076302.80412,1758076302.64095,0.0,0.0,0.0,4.92744,-13.80828,29.22085,10.01,-0.61,3.94,2.0
1758076302.82004,1758076302.65095,0.0,0.0,0.0,7.33386,-6.18794,27.67386,10.01,-0.61,3.94,2.0
1758076302.82171,1758076302.66095,0.0,0.0,0.0,7.39116,1.08862,24.5226,10.76,-0.2,2.75,2.0
1758076302.83718,1758076302.67095,0.0,0.0,0.0,6.07335,9.96947,19.82434,10.76,-0.2,2.75,2.0
1758076302.85301,1758076302.68095,0.0,0.0,0.0,3.60963,18.85031,14.03747,11.12,0.19,1.88,2.0
1758076302.8552,1758076302.69095,0.0,0.0,0.0,-1.43239,29.39274,5.15662,10.47,0.57,1.85,2.0
1758076302.86991,1758076302.70095,0.0,0.0,0.0,-5.84417,34.95043,-0.80214,10.47,0.57,1.85,2.0
1758076302.87119,1758076302.71095,0.0,0.0,0.0,-10.08406,39.53409,-5.61499,9.77,0.98,1.91,2.0
1758076302.88802,1758076302.72095,0.0,0.0,0.0,-16.38659,45.09178,-11.17268,9.77,0.98,1.91,2.0
1758076302.88914,1758076302.73095,0.0,0.0,0.0,-20.11082,48.01387,-13.86558,9.44,1.27,1.7,2.0
1758076302.90597,1758076302.74095,0.0,0.0,0.0,-23.37668,51.27972,-15.92823,9.44,1.27,1.7,2.0
1758076302.92269,1758076302.75095,0.0,0.0,0.0,-26.41335,54.88936,-17.53251,9.54,1.38,1.68,2.0
1758076302.92395,1758076302.76095,0.0,0.0,0.0,-30.19488,56.14987,-18.27736,9.54,1.38,1.68,2.0
1758076302.93897,1758076302.77095,0.0,0.0,0.0,-32.37212,54.14451,-17.99088,9.21,1.24,1.57,2.0
1758076302.94006,1758076302.78095,0.0,0.0,0.0,-34.14828,50.47758,-16.90226,8.52,0.81,1.47,2.0
1758076302.95596,1758076302.79095,0.0,0.0,0.0,-35.92446,46.63877,-15.29797,8.52,0.81,1.47,2.0
1758076302.97217,1758076302.80095,0.0,0.0,0.0,-38.61736,40.50812,-12.37589,8.11,0.32,1.53,2.0
1758076302.97319,1758076302.81095,0.0,0.0,0.0,-40.04975,33.9764,-10.31324,8.11,0.32,1.53,2.0
1758076302.98823,1758076302.82095,0.0,0.0,0.0,-41.65404,26.69983,-9.91217,7.65,0.04,1.51,2.0
1758076302.98999,1758076302.83095,0.0,0.0,0.0,-43.14373,20.85567,-10.25595,7.65,0.04,1.51,2.0
1758076303.00721,1758076302.84095,0.0,0.0,0.0,-44.9199,12.08941,-11.45916,7.69,0.11,1.27,2.0
1758076303.02301,1758076302.85095,0.0,0.0,0.0,-46.06581,4.64096,-11.97482,7.71,0.2,1.07,2.0
1758076303.02495,1758076302.86095,0.0,0.0,0.0,-46.86795,-0.40107,-12.14671,7.71,0.2,1.07,2.0
1758076303.04186,1758076302.87095,0.0,0.0,0.0,-47.67009,-2.63561,-11.45916,8.13,0.34,0.82,2.0
1758076303.04438,1758076302.88095,0.0,0.0,0.0,-48.75871,-3.95341,-9.96947,8.13,0.34,0.82,2.0
1758076303.06261,1758076302.89095,0.0,0.0,0.0,-49.84733,-5.95876,-9.39651,8.4,0.53,0.73,2.0
1758076303.06761,1758076302.90095,0.0,0.0,0.0,-51.79538,-8.65166,-8.93814,8.4,0.53,0.73,2.0
1758076303.08323,1758076302.91095,0.0,0.0,0.0,-55.6915,-12.83425,-9.11003,8.35,0.75,0.71,2.0
1758076303.08493,1758076302.92095,0.0,0.0,0.0,-58.78547,-17.76169,-10.08406,8.43,0.98,0.33,2.0
1758076303.10178,1758076302.93095,0.0,0.0,0.0,-62.28051,-22.11617,-11.51645,8.43,0.98,0.33,2.0
1758076303.10269,1758076302.94095,0.0,0.0,0.0,-65.54638,-32.14294,-12.49048,8.17,0.97,-0.07,2.0
1758076303.11798,1758076302.95095,0.0,0.0,0.0,-68.58305,-50.47758,-12.2613,8.17,0.97,-0.07,2.0
1758076303.12161,1758076302.96095,0.0,0.0,0.0,-70.53111,-61.30648,-11.63104,7.74,0.79,-0.33,2.0
1758076303.137,1758076302.97095,0.0,0.0,0.0,-71.10406,-68.06739,-11.00079,7.74,0.79,-0.33,2.0
1758076303.15327,1758076302.98095,0.0,0.0,0.0,-70.6457,-72.53646,-10.37054,8.31,0.29,-0.38,2.0
1758076303.1545,1758076302.99095,0.0,0.0,0.0,-69.27061,-44.51882,-7.79223,11.08,0.29,0.71,2.0
1758076303.17,1758076303.00095,0.0,0.0,0.0,-66.635,-13.23533,-3.66693,11.08,-0.37,0.71,2.0
1758076303.17153,1758076303.01095,0.0,0.0,0.0,-66.635,-26.75713,-5.32851,10.95,-1.0,1.24,2.0
1758076303.18601,1758076303.02095,0.0,0.0,0.0,-66.11933,-37.12767,-7.10468,10.95,-1.0,1.24,2.0
1758076303.20193,1758076303.03095,0.0,0.0,0.0,-64.40046,-41.99781,-12.204,9.99,-0.63,0.96,2.0
1758076303.20317,1758076303.04095,0.0,0.0,0.0,-63.88479,-33.11696,-14.49583,9.99,-0.63,0.96,2.0
1758076303.21806,1758076303.05095,0.0,0.0,0.0,-63.8275,-19.76705,-15.24068,12.05,-0.3,-0.77,2.0
1758076303.22243,1758076303.06095,0.0,0.0,0.0,-63.48372,-9.68299,-13.46451,12.05,-0.3,-0.77,2.0
1758076303.23801,1758076303.07095,0.0,0.0,0.0,-61.65026,-0.97403,-8.136,11.95,-0.09,-0.56,2.0
1758076303.23921,1758076303.08095,0.0,0.0,0.0,-59.53032,0.80214,-4.18259,11.52,-0.19,0.39,2.0
1758076303.25727,1758076303.09095,0.0,0.0,0.0,-56.55093,-1.08862,-1.71887,11.52,-0.19,0.39,2.0
1758076303.27391,1758076303.10095,0.0,0.0,0.0,-52.48294,-6.24524,-1.66158,11.78,-0.42,1.28,2.0
1758076303.27666,1758076303.11095,0.0,0.0,0.0,-43.94586,-18.9649,-6.07335,11.78,-0.42,1.28,2.0
1758076303.29329,1758076303.12095,0.0,0.0,0.0,-38.73195,-31.62727,-12.08941,12.14,-0.77,2.06,2.0
1758076303.29692,1758076303.13095,0.0,0.0,0.0,-34.49206,-40.39353,-18.56383,12.14,-0.77,2.06,2.0
1758076303.31291,1758076303.14095,0.0,0.0,0.0,-29.39274,-45.20637,-27.1582,12.31,-1.11,1.92,2.0
1758076303.31641,1758076303.15095,0.0,0.0,0.0,-26.81443,-40.62271,-30.99702,12.67,-1.48,1.48,2.0
1758076303.33365,1758076303.16095,0.0,0.0,0.0,-25.09555,-31.91375,-32.25753,12.67,-1.48,1.48,2.0
1758076303.3368,1758076303.17095,0.0,0.0,0.0,-24.5226,-23.89234,-30.82513,11.73,-1.08,1.07,2.0
1758076303.35293,1758076303.18095,0.0,0.0,0.0,-28.30412,-17.24603,-24.98096,11.73,-1.08,1.07,2.0
1758076303.35405,1758076303.19095,0.0,0.0,0.0,-34.89313,-16.50119,-20.51189,10.09,0.09,2.12,2.0
1758076303.36906,1758076303.20095,0.0,0.0,0.0,-44.748,-15.69904,-16.95955,10.09,0.09,2.12,2.0
1758076303.37076,1758076303.21095,0.0,0.0,0.0,-56.55093,-12.49048,-14.72501,10.3,1.12,3.46,2.0
1758076303.3859,1758076303.22095,0.0,0.0,0.0,-74.25533,-7.33386,-14.49583,11.55,1.71,3.89,2.0
1758076303.40336,1758076303.23095,0.0,0.0,0.0,-83.65184,-6.8182,-15.98552,11.55,1.71,3.89,2.0
1758076303.40427,1758076303.24095,0.0,0.0,0.0,-89.6679,-6.53172,-17.99088,11.43,1.43,2.67,2.0
1758076303.41939,1758076303.25095,0.0,0.0,0.0,-91.78784,-3.26586,-19.53786,11.43,1.43,2.67,2.0
1758076303.42183,1758076303.26095,0.0,0.0,0.0,-89.6679,8.36518,-19.48057,12.21,0.22,1.18,2.0
1758076303.43697,1758076303.27095,0.0,0.0,0.0,-85.54259,15.58445,-17.01685,12.21,0.22,1.18,2.0
1758076303.4534,1758076303.28095,0.0,0.0,0.0,-80.44328,21.60051,-13.40721,12.44,-1.25,0.55,2.0
1758076303.45427,1758076303.29095,0.0,0.0,0.0,-74.59911,25.61122,-8.36518,12.44,-1.25,0.55,2.0
1758076303.46934,1758076303.30095,0.0,0.0,0.0,-66.635,28.41871,0.40107,11.27,-2.14,0.59,2.0
1758076303.47301,1758076303.31095,0.0,0.0,0.0,-61.93674,30.19488,5.90147,9.89,-2.25,0.57,2.0
1758076303.48837,1758076303.32095,0.0,0.0,0.0,-58.15522,32.14294,10.48513,9.89,-2.25,0.57,2.0
1758076303.49007,1758076303.33095,0.0,0.0,0.0,-54.431,34.09099,15.35527,9.11,-1.96,0.57,2.0
1758076303.50739,1758076303.34095,0.0,0.0,0.0,-49.90463,36.21093,16.73037,9.11,-1.96,0.57,2.0
1758076303.52339,1758076303.35095,0.0,0.0,0.0,-47.03984,36.95578,16.3293,8.6,-1.51,0.53,2.0
1758076303.52454,1758076303.36095,0.0,0.0,0.0,-44.17505,37.98711,14.38124,8.6,-1.51,0.53,2.0
1758076303.53914,1758076303.37095,0.0,0.0,0.0,-40.04975,39.13302,10.31324,8.17,-1.16,0.55,2.0
1758076303.54265,1758076303.38095,0.0,0.0,0.0,-37.52874,38.61736,7.16197,7.62,-0.93,0.4,2.0
1758076303.55798,1758076303.39095,0.0,0.0,0.0,-35.86716,36.89849,3.55234,7.62,-0.93,0.4,2.0
1758076303.56256,1758076303.40095,0.0,0.0,0.0,-34.89313,35.58068,0.17189,7.26,-0.62,0.58,2.0
1758076303.57811,1758076303.41095,0.0,0.0,0.0,-34.0337,33.63263,-2.86479,7.26,-0.62,0.58,2.0
1758076303.58433,1758076303.42095,0.0,0.0,0.0,-33.51803,31.74186,-3.89611,7.37,-0.54,0.6,2.0
1758076303.59988,1758076303.43095,0.0,0.0,0.0,-33.23156,29.56462,-4.0107,7.37,-0.54,0.6,2.0
1758076303.60431,1758076303.44095,0.0,0.0,0.0,-32.77319,26.87172,-4.29718,7.57,-0.66,0.44,2.0
1758076303.62101,1758076303.45095,0.0,0.0,0.0,-32.08564,22.40265,-4.81285,7.95,-0.79,0.26,2.0
1758076303.62273,1758076303.46095,0.0,0.0,0.0,-30.65324,21.02755,-4.81285,7.95,-0.79,0.26,2.0
1758076303.63817,1758076303.47095,0.0,0.0,0.0,-29.10626,23.60586,-5.15662,8.81,-0.92,0.18,2.0
1758076303.64201,1758076303.48095,0.0,0.0,0.0,-26.98631,27.84575,-5.50039,8.81,-0.92,0.18,2.0
1758076303.6572,1758076303.49095,0.0,0.0,0.0,-23.0902,32.42941,-6.18794,9.39,-1.07,0.18,2.0
1758076303.67343,1758076303.50095,0.0,0.0,0.0,-19.53786,31.2262,-6.24524,9.39,-1.07,0.18,2.0
1758076303.67595,1758076303.51095,0.0,0.0,0.0,-15.75634,26.18417,-6.47442,8.98,-1.24,0.27,2.0
1758076303.69117,1758076303.52095,0.0,0.0,0.0,-11.63104,19.19409,-6.7609,8.98,-1.24,0.27,2.0
1758076303.69399,1758076303.53095,0.0,0.0,0.0,-4.81285,7.33386,-6.99009,8.66,-1.51,-0.07,2.0
1758076303.71129,1758076303.54095,0.0,0.0,0.0,0.0,-2.46372,-6.53172,8.63,-1.84,-0.23,2.0
1758076303.71407,1758076303.55095,0.0,0.0,0.0,4.46907,-18.22006,-5.55769,8.63,-1.84,-0.23,2.0
1758076303.73116,1758076303.56095,0.0,0.0,0.0,8.93814,-35.40879,-3.89611,8.25,-1.88,-0.13,2.0
1758076303.73595,1758076303.57095,0.0,0.0,0.0,13.06344,-41.25296,-3.20856,8.25,-1.88,-0.13,2.0
1758076303.75304,1758076303.58095,0.0,0.0,0.0,17.01685,-26.64254,-1.3178,11.03,-1.54,-0.01,2.0
1758076303.758,1758076303.59095,0.0,0.0,0.0,20.22541,-4.69825,-0.34377,11.03,-1.54,-0.01,2.0
1758076303.77345,1758076303.60095,0.0,0.0,0.0,21.88699,19.19409,-1.66158,14.04,-1.03,1.15,2.0
1758076303.77518,1758076303.61095,0.0,0.0,0.0,24.00693,3.09397,-8.0787,11.52,-0.44,1.44,2.0
1758076303.79146,1758076303.62095,0.0,0.0,0.0,25.8404,-29.8511,-8.93814,11.52,-0.44,1.44,2.0
1758076303.7932,1758076303.63095,0.0,0.0,0.0,27.67386,-57.92604,-8.30789,9.16,-0.26,-0.66,2.0
1758076303.80848,1758076303.64095,0.0,0.0,0.0,25.89769,-46.69606,-6.99009,9.16,-0.26,-0.66,2.0
1758076303.81099,1758076303.65095,0.0,0.0,0.0,25.26744,-34.26288,-5.72958,13.08,-0.18,-0.59,2.0
1758076303.82706,1758076303.66095,0.0,0.0,0.0,25.8404,-28.70519,-5.50039,13.08,-0.18,-0.59,2.0
1758076303.84319,1758076303.67095,0.0,0.0,0.0,27.38738,-24.75178,-4.92744,11.33,-0.88,-1.19,2.0
1758076303.84685,1758076303.68095,0.0,0.0,0.0,29.96569,-15.0115,-2.29183,11.6,-1.5,1.01,2.0
1758076303.86232,1758076303.69095,0.0,0.0,0.0,31.11161,-13.98017,-0.80214,11.6,-1.5,1.01,2.0
1758076303.86338,1758076303.70095,0.0,0.0,0.0,31.97105,-21.7724,2.11994,10.97,-1.31,2.01,2.0
1758076303.87841,1758076303.71095,0.0,0.0,0.0,32.37212,-32.88778,6.41713,10.97,-1.31,2.01,2.0
1758076303.88286,1758076303.72095,0.0,0.0,0.0,33.68992,-48.58683,17.36062,10.61,-0.96,3.47,2.0
1758076303.89854,1758076303.73095,0.0,0.0,0.0,33.23156,-51.6235,26.12688,10.61,-0.96,3.47,2.0
1758076303.90336,1758076303.74095,0.0,0.0,0.0,31.45539,-50.93595,34.72124,11.6,0.11,3.92,2.0
1758076303.91852,1758076303.75095,0.0,0.0,0.0,29.27814,-49.90463,45.89392,11.6,0.11,3.92,2.0
1758076303.92022,1758076303.76095,0.0,0.0,0.0,26.64254,-43.37291,50.76406,11.17,1.08,4.59,2.0
1758076303.9382,1758076303.77095,0.0,0.0,0.0,24.86637,-34.32018,52.71212,9.7,1.46,3.89,2.0
1758076303.94188,1758076303.78095,0.0,0.0,0.0,23.31938,-26.24147,52.25375,9.7,1.46,3.89,2.0
1758076303.95718,1758076303.79095,0.0,0.0,0.0,21.37133,-18.22006,47.95657,8.43,1.21,4.31,2.0
1758076303.97725,1758076303.80095,0.0,0.0,0.0,20.05352,-15.64175,42.74266,8.43,1.21,4.31,2.0
1758076303.99781,1758076303.81095,0.0,0.0,0.0,18.85031,-12.2613,37.29956,9.63,1.06,4.28,2.0
1758076303.99876,1758076303.82095,0.0,0.0,0.0,16.95955,-1.83346,29.96569,9.63,1.06,4.28,2.0
1758076303.99961,1758076303.83095,0.0,0.0,0.0,13.5218,16.67307,17.01685,12.58,0.56,2.31,2.0
1758076304.00024,1758076303.84095,0.0,0.0,0.0,10.94349,26.35606,9.74028,12.96,-0.19,1.19,2.0
1758076304.01756,1758076303.85095,0.0,0.0,0.0,9.11003,33.80451,4.1253,12.96,-0.19,1.19,2.0
1758076304.03334,1758076303.86095,0.0,0.0,0.0,7.39116,40.85189,0.22918,12.32,-0.44,1.08,2.0
1758076304.0369,1758076303.87095,0.0,0.0,0.0,5.27121,49.67545,-3.09397,12.32,-0.44,1.08,2.0
1758076304.05253,1758076303.88095,0.0,0.0,0.0,4.52637,52.9986,-3.83882,11.12,-0.14,1.21,2.0
1758076304.05354,1758076303.89095,0.0,0.0,0.0,4.0107,55.7488,-4.92744,11.12,-0.14,1.21,2.0
1758076304.0685,1758076303.90095,0.0,0.0,0.0,3.49504,57.63955,-5.4431,9.75,0.25,1.31,2.0
1758076304.07219,1758076303.91095,0.0,0.0,0.0,1.77617,59.64491,-6.70361,8.92,0.64,1.34,2.0
1758076304.08851,1758076303.92095,0.0,0.0,0.0,0.34377,59.98868,-7.67763,8.92,0.64,1.34,2.0
1758076304.09053,1758076303.93095,0.0,0.0,0.0,-1.66158,59.24384,-8.47978,8.36,0.96,1.36,2.0
1758076304.10804,1758076303.94095,0.0,0.0,0.0,-3.83882,55.92068,-9.39651,8.36,0.96,1.36,2.0
1758076304.1101,1758076303.95095,0.0,0.0,0.0,-9.11003,47.67009,-11.00079,7.63,1.18,1.5,2.0
1758076304.1262,1758076303.96095,0.0,0.0,0.0,-13.5218,42.39888,-11.91752,7.63,1.18,1.5,2.0
1758076304.14349,1758076303.97095,0.0,0.0,0.0,-18.27736,37.81522,-12.77696,7.26,1.23,1.3,2.0
1758076304.14447,1758076303.98095,0.0,0.0,0.0,-25.26744,32.71589,-13.86558,7.26,1.23,1.3,2.0
1758076304.15926,1758076303.99095,0.0,0.0,0.0,-29.62192,25.38203,-14.43854,7.35,1.15,1.2,2.0
1758076304.16047,1758076304.00095,0.0,0.0,0.0,-33.86181,20.16812,-15.0115,7.87,0.99,1.2,2.0
1758076304.17558,1758076304.01095,0.0,0.0,0.0,-37.64333,12.204,-15.12609,7.87,0.99,1.2,2.0
1758076304.19155,1758076304.02095,0.0,0.0,0.0,-42.97184,4.98473,-16.61578,8.31,0.84,0.83,2.0
1758076304.19274,1758076304.03095,0.0,0.0,0.0,-45.26366,5.32851,-16.95955,8.31,0.84,0.83,2.0
1758076304.20755,1758076304.04095,0.0,0.0,0.0,-46.69606,5.84417,-16.73037,9.35,0.76,0.44,2.0
1758076304.22354,1758076304.05095,0.0,0.0,0.0,-47.49821,5.09932,-16.3293,9.35,0.76,0.44,2.0
1758076304.22473,1758076304.06095,0.0,0.0,0.0,-48.58683,0.45837,-15.0115,9.18,0.74,0.42,2.0
1758076304.23926,1758076304.07095,0.0,0.0,0.0,-49.04519,-4.92744,-13.86558,8.72,0.77,0.13,2.0
1758076304.24058,1758076304.08095,0.0,0.0,0.0,-49.21708,-13.5218,-12.83425,8.72,0.77,0.13,2.0
1758076304.25609,1758076304.09095,0.0,0.0,0.0,-48.75871,-24.35071,-10.71431,7.88,0.57,-0.31,2.0
1758076304.27218,1758076304.10095,0.0,0.0,0.0,-46.1231,-39.07573,-7.62034,7.88,0.57,-0.31,2.0
1758076304.27517,1758076304.11095,0.0,0.0,0.0,-43.37291,-48.75871,-4.64096,7.58,0.14,-0.5,2.0
1758076304.29029,1758076304.12095,0.0,0.0,0.0,-41.36755,-55.51962,-3.32316,7.58,0.14,-0.5,2.0
1758076304.2923,1758076304.13095,0.0,0.0,0.0,-38.38818,-29.27814,-1.3751,8.98,-0.45,0.25,2.0
1758076304.30751,1758076304.14095,0.0,0.0,0.0,-34.49206,-12.77696,3.26586,11.73,-0.68,0.89,2.0
1758076304.32351,1758076304.15095,0.0,0.0,0.0,-41.02378,-35.2942,-4.87014,11.73,-0.68,0.89,2.0
1758076304.32445,1758076304.16095,0.0,0.0,0.0,-41.25296,-46.2377,-7.33386,9.07,0.07,0.87,2.0
1758076304.33958,1758076304.17095,0.0,0.0,0.0,-43.94586,-44.748,-14.72501,9.07,0.07,0.87,2.0
1758076304.3429,1758076304.18095,0.0,0.0,0.0,-48.70141,-28.93437,-17.87628,11.57,0.2,0.48,2.0
1758076304.35838,1758076304.19095,0.0,0.0,0.0,-51.79538,-18.79302,-18.22006,11.57,0.2,0.48,2.0
1758076304.35954,1758076304.20095,0.0,0.0,0.0,-53.80074,-10.37054,-15.24068,11.78,0.55,0.24,2.0
1758076304.37533,1758076304.21095,0.0,0.0,0.0,-55.6342,-4.1253,-8.02141,11.78,0.55,0.24,2.0
1758076304.39124,1758076304.22095,0.0,0.0,0.0,-56.14987,-5.09932,-2.97938,11.21,0.4,0.41,2.0
1758076304.39246,1758076304.23095,0.0,0.0,0.0,-55.97798,-5.90147,1.60428,10.81,0.33,-0.23,2.0
1758076304.40779,1758076304.24095,0.0,0.0,0.0,-55.11855,-1.60428,4.35448,10.81,0.33,-0.23,2.0
1758076304.42336,1758076304.25095,0.0,0.0,0.0,-51.39432,0.51566,4.69825,12.09,0.14,0.26,2.0
1758076304.42533,1758076304.26095,0.0,0.0,0.0,-47.09713,-6.18794,1.83346,12.09,0.14,0.26,2.0
1758076304.44061,1758076304.27095,0.0,0.0,0.0,-41.65404,-17.36062,-3.49504,11.78,-0.26,1.06,2.0
1758076304.44231,1758076304.28095,0.0,0.0,0.0,-36.32552,-31.56997,-10.48513,11.78,-0.26,1.06,2.0
1758076304.45761,1758076304.29095,0.0,0.0,0.0,-30.65324,-48.24305,-21.88699,11.06,-0.61,1.84,2.0
1758076304.47365,1758076304.30095,0.0,0.0,0.0,-28.59059,-53.91533,-28.41871,10.6,-0.9,1.29,2.0
1758076304.47565,1758076304.31095,0.0,0.0,0.0,-27.38738,-57.86874,-33.68992,10.6,-0.9,1.29,2.0
1758076304.49035,1758076304.32095,0.0,0.0,0.0,-27.1582,-61.24919,-37.52874,10.24,-1.08,1.92,2.0
1758076304.49159,1758076304.33095,0.0,0.0,0.0,-27.38738,-63.59832,-41.31026,10.24,-1.08,1.92,2.0
1758076304.50658,1758076304.34095,0.0,0.0,0.0,-27.67386,-58.84277,-41.88322,10.5,-0.72,3.33,2.0
1758076304.52442,1758076304.35095,0.0,0.0,0.0,-29.22085,-50.87865,-40.7946,10.5,-0.72,3.33,2.0
1758076304.52694,1758076304.36095,0.0,0.0,0.0,-33.00237,-43.4875,-38.44547,10.87,-0.18,4.09,2.0
1758076304.54224,1758076304.37095,0.0,0.0,0.0,-42.28429,-36.89849,-32.25753,10.15,0.81,5.17,2.0
1758076304.54377,1758076304.38095,0.0,0.0,0.0,-50.59217,-35.12231,-27.1582,10.15,0.81,5.17,2.0
1758076304.55866,1758076304.39095,0.0,0.0,0.0,-57.75415,-34.43476,-23.72045,10.68,1.3,4.14,2.0
1758076304.5604,1758076304.40095,0.0,0.0,0.0,-64.45775,-27.67386,-19.70975,10.68,1.3,4.14,2.0
1758076304.57738,1758076304.41095,0.0,0.0,0.0,-64.80153,-11.51645,-17.6471,12.73,0.99,2.22,2.0
1758076304.59354,1758076304.42095,0.0,0.0,0.0,-63.02536,-2.11994,-14.43854,12.73,0.99,2.22,2.0
1758076304.59613,1758076304.43095,0.0,0.0,0.0,-60.44705,8.42248,-11.63104,12.77,0.42,0.6,2.0
1758076304.61149,1758076304.44095,0.0,0.0,0.0,-54.94666,23.0902,-6.99009,12.77,0.42,0.6,2.0
1758076304.61259,1758076304.45095,0.0,0.0,0.0,-51.10783,30.82513,-4.0107,12.68,-0.59,0.59,2.0
1758076304.62765,1758076304.46095,0.0,0.0,0.0,-47.49821,37.75792,-1.3751,11.56,-1.46,0.57,2.0
1758076304.64356,1758076304.47095,0.0,0.0,0.0,-43.54479,42.85724,1.66158,11.56,-1.46,0.57,2.0
1758076304.6446,1758076304.48095,0.0,0.0,0.0,-38.1017,49.27437,5.15662,10.39,-1.71,0.67,2.0
1758076304.65931,1758076304.49095,0.0,0.0,0.0,-34.72124,51.85268,7.16197,10.39,-1.71,0.67,2.0
1758076304.663,1758076304.50095,0.0,0.0,0.0,-31.74186,53.45696,8.36518,9.51,-1.61,0.58,2.0
1758076304.67877,1758076304.51095,0.0,0.0,0.0,-28.99167,54.3737,8.93814,9.51,-1.61,0.58,2.0
1758076304.67962,1758076304.52095,0.0,0.0,0.0,-25.43933,55.40502,8.70896,8.91,-1.33,0.67,2.0
1758076304.6958,1758076304.53095,0.0,0.0,0.0,-22.97561,55.11855,8.02141,8.32,-1.05,0.72,2.0
1758076304.71147,1758076304.54095,0.0,0.0,0.0,-20.51189,54.25911,6.8182,8.32,-1.05,0.72,2.0
1758076304.71264,1758076304.55095,0.0,0.0,0.0,-17.93358,53.45696,5.61499,7.86,-0.82,0.89,2.0
1758076304.72767,1758076304.56095,0.0,0.0,0.0,-14.32395,51.50891,3.03668,7.86,-0.82,0.89,2.0
1758076304.74348,1758076304.57095,0.0,0.0,0.0,-12.14671,48.58683,1.48969,7.61,-0.61,0.92,2.0
1758076304.74501,1758076304.58095,0.0,0.0,0.0,-9.74028,46.00851,0.45837,7.61,-0.61,0.92,2.0
1758076304.76043,1758076304.59095,0.0,0.0,0.0,-7.62034,43.20102,0.17189,7.6,-0.51,0.78,2.0
1758076304.76258,1758076304.60095,0.0,0.0,0.0,-4.81285,37.01308,0.11459,7.53,-0.48,0.44,2.0
1758076304.77756,1758076304.61095,0.0,0.0,0.0,-2.86479,32.42941,0.45837,7.53,-0.48,0.44,2.0
1758076304.79372,1758076304.62095,0.0,0.0,0.0,-0.45837,28.59059,1.03132,7.76,-0.47,0.29,2.0
1758076304.79416,1758076304.63095,0.0,0.0,0.0,3.66693,27.78845,1.66158,7.76,-0.47,0.29,2.0
1758076304.80983,1758076304.64095,0.0,0.0,0.0,6.70361,28.64789,1.60428,8.44,-0.58,0.15,2.0
1758076304.81061,1758076304.65095,0.0,0.0,0.0,9.85487,27.10091,0.97403,8.44,-0.58,0.15,2.0
1758076304.82578,1758076304.66095,0.0,0.0,0.0,13.40721,22.23076,0.0573,8.46,-0.79,0.49,2.0
1758076304.84154,1758076304.67095,0.0,0.0,0.0,18.73572,11.51645,-1.94806,8.46,-0.79,0.49,2.0
1758076304.84305,1758076304.68095,0.0,0.0,0.0,22.34536,3.26586,-3.26586,8.34,-1.06,0.49,2.0
1758076304.85758,1758076304.69095,0.0,0.0,0.0,26.01229,-6.13065,-3.95341,8.52,-1.23,0.14,2.0
1758076304.8735,1758076304.70095,0.0,0.0,0.0,29.62192,-17.93358,-4.23989,8.52,-1.23,0.14,2.0
1758076304.87408,1758076304.71095,0.0,0.0,0.0,33.80451,-35.69527,-3.09397,8.58,-1.11,-0.1,2.0
1758076304.88955,1758076304.72095,0.0,0.0,0.0,35.92446,-46.63877,-1.94806,8.58,-1.11,-0.1,2.0
1758076304.8911,1758076304.73095,0.0,0.0,0.0,38.73195,-51.85268,1.71887,9.2,-0.65,-0.13,2.0
1758076304.90555,1758076304.74095,0.0,0.0,0.0,40.10705,-45.55015,3.95341,9.2,-0.65,-0.13,2.0
1758076304.92158,1758076304.75095,0.0,0.0,0.0,41.36755,-19.59516,10.94349,11.16,0.0,0.48,2.0
1758076304.92306,1758076304.76095,0.0,0.0,0.0,39.87786,0.68755,14.03747,12.85,0.86,1.17,2.0
1758076304.9378,1758076304.77095,0.0,0.0,0.0,37.92981,6.70361,12.2613,12.85,0.86,1.17,2.0
1758076304.93985,1758076304.78095,0.0,0.0,0.0,36.55471,-21.88699,14.09476,9.05,1.29,1.21,2.0
1758076304.95454,1758076304.79095,0.0,0.0,0.0,35.75257,-65.54638,15.0115,9.05,1.29,1.21,2.0
1758076304.97052,1758076304.80095,0.0,0.0,0.0,36.15364,-59.75951,17.13144,8.95,0.95,-0.4,2.0
1758076304.97178,1758076304.81095,0.0,0.0,0.0,35.92446,-44.11775,18.90761,8.95,0.95,-0.4,2.0
1758076304.98685,1758076304.82095,0.0,0.0,0.0,37.01308,-32.14294,18.85031,12.99,0.03,-0.67,2.0
1758076305.00257,1758076304.83095,0.0,0.0,0.0,37.75792,-21.37133,15.64175,12.44,-0.55,-0.18,2.0
1758076305.00315,1758076304.84095,0.0,0.0,0.0,39.01843,-14.72501,11.22997,12.44,-0.55,-0.18,2.0
1758076305.01861,1758076304.85095,0.0,0.0,0.0,40.62271,-6.41713,5.61499,12.76,-0.83,0.46,2.0
1758076305.01977,1758076304.86095,0.0,0.0,0.0,44.23235,3.38045,-1.77617,12.76,-0.83,0.46,2.0
1758076305.03455,1758076304.87095,0.0,0.0,0.0,47.03984,6.18794,-3.66693,12.24,-0.84,0.77,2.0
1758076305.05213,1758076304.88095,0.0,0.0,0.0,49.50356,6.18794,-2.29183,12.24,-0.84,0.77,2.0
1758076305.05414,1758076304.89095,0.0,0.0,0.0,50.64947,2.00535,0.68755,11.89,-0.73,1.89,2.0
1758076305.06978,1758076304.90095,0.0,0.0,0.0,52.25375,-12.204,11.57375,11.5,-0.73,2.09,2.0
1758076305.0715,1758076304.91095,0.0,0.0,0.0,52.25375,-16.10011,20.22541,11.5,-0.27,2.09,2.0
1758076305.08655,1758076304.92095,0.0,0.0,0.0,51.50891,-17.99088,27.50197,12.36,0.6,1.83,2.0
1758076305.0886,1758076304.93095,0.0,0.0,0.0,50.13381,-20.51189,32.88778,12.36,0.6,1.83,2.0
1758076305.1042,1758076304.94095,0.0,0.0,0.0,47.26902,-24.12152,36.84119,10.81,1.14,2.06,2.0
1758076305.11961,1758076304.95095,0.0,0.0,0.0,44.9199,-26.01229,37.87251,10.81,1.14,2.06,2.0
1758076305.12241,1758076304.96095,0.0,0.0,0.0,42.97184,-26.35606,38.1017,9.26,0.83,3.01,2.0
1758076305.13763,1758076304.97095,0.0,0.0,0.0,41.48215,-22.40265,37.24226,9.26,0.83,3.01,2.0
1758076305.13919,1758076304.98095,0.0,0.0,0.0,39.07573,-13.5218,36.15364,8.41,0.26,2.97,2.0
1758076305.1542,1758076304.99095,0.0,0.0,0.0,37.98711,-12.60507,36.89849,7.82,0.08,4.31,2.0
1758076305.16958,1758076305.00095,0.0,0.0,0.0,38.78925,-11.51645,38.21629,7.82,0.08,4.31,2.0
1758076305.17273,1758076305.01095,0.0,0.0,0.0,40.39353,-9.74028,37.81522,8.8,0.03,3.9,2.0
1758076305.18791,1758076305.02095,0.0,0.0,0.0,41.76862,-4.81285,33.68992,8.8,0.03,3.9,2.0
1758076305.18961,1758076305.03095,0.0,0.0,0.0,42.28429,0.68755,29.67921,10.51,-0.17,3.04,2.0
1758076305.20564,1758076305.04095,0.0,0.0,0.0,41.71133,7.84952,25.09555,10.51,-0.17,3.04,2.0
1758076305.22226,1758076305.05095,0.0,0.0,0.0,39.24761,18.33465,19.07949,12.31,-0.16,1.91,2.0
1758076305.22285,1758076305.06095,0.0,0.0,0.0,36.7266,24.86637,15.58445,12.74,0.22,1.39,2.0
1758076305.23792,1758076305.07095,0.0,0.0,0.0,33.68992,29.67921,12.08941,12.74,0.22,1.39,2.0
1758076305.23963,1758076305.08095,0.0,0.0,0.0,30.19488,34.89313,8.99544,11.86,0.84,1.14,2.0
1758076305.25566,1758076305.09095,0.0,0.0,0.0,25.15285,41.71133,4.29718,11.86,0.84,1.14,2.0
1758076305.25762,1758076305.10095,0.0,0.0,0.0,21.88699,46.46688,1.20321,10.76,1.23,1.15,2.0
1758076305.27319,1758076305.11095,0.0,0.0,0.0,18.56383,49.50356,-1.77617,10.76,1.23,1.15,2.0
1758076305.28874,1758076305.12095,0.0,0.0,0.0,15.24068,51.5662,-4.46907,9.68,1.23,1.14,2.0
1758076305.2899,1758076305.13095,0.0,0.0,0.0,10.02676,50.2484,-7.33386,8.88,1.08,1.15,2.0
1758076305.30471,1758076305.14095,0.0,0.0,0.0,6.58902,48.9879,-8.59437,8.88,1.08,1.15,2.0
1758076305.32078,1758076305.15095,0.0,0.0,0.0,3.26586,47.26902,-9.5684,8.58,0.91,1.15,2.0
1758076305.3229,1758076305.16095,0.0,0.0,0.0,0.0,43.14373,-10.19865,8.58,0.91,1.15,2.0
1758076305.33799,1758076305.17095,0.0,0.0,0.0,-4.92744,35.2942,-10.54242,7.9,0.81,1.07,2.0
1758076305.33918,1758076305.18095,0.0,0.0,0.0,-8.136,32.48671,-10.25595,7.9,0.81,1.07,2.0
1758076305.35423,1758076305.19095,0.0,0.0,0.0,-11.17268,26.41335,-9.74028,7.83,0.63,1.05,2.0
1758076305.3705,1758076305.20095,0.0,0.0,0.0,-14.20935,20.34,-10.65701,7.83,0.63,1.05,2.0
1758076305.3717,1758076305.21095,0.0,0.0,0.0,-17.53251,14.38124,-10.65701,7.46,0.67,0.78,2.0
1758076305.38659,1758076305.22095,0.0,0.0,0.0,-18.79302,10.8289,-10.19865,7.91,0.57,0.83,2.0
1758076305.38781,1758076305.23095,0.0,0.0,0.0,-19.59516,7.16197,-9.68299,7.91,0.57,0.83,2.0
1758076305.40433,1758076305.24095,0.0,0.0,0.0,-19.99623,4.0107,-8.0787,8.04,0.46,0.69,2.0
1758076305.4216,1758076305.25095,0.0,0.0,0.0,-20.34,1.08862,-6.47442,8.04,0.46,0.69,2.0
1758076305.42252,1758076305.26095,0.0,0.0,0.0,-20.16812,2.46372,-4.64096,8.48,0.4,0.75,2.0
1758076305.43799,1758076305.27095,0.0,0.0,0.0,-20.22541,5.09932,-2.11994,8.48,0.4,0.75,2.0
1758076305.43892,1758076305.28095,0.0,0.0,0.0,-21.48592,7.39116,0.74485,9.19,0.45,0.91,2.0
1758076305.45609,1758076305.29095,0.0,0.0,0.0,-23.54857,7.62034,2.34913,9.42,0.59,0.88,2.0
1758076305.47067,1758076305.30095,0.0,0.0,0.0,-26.69983,5.50039,2.11994,9.42,0.59,0.88,2.0
1758076305.47601,1758076305.31095,0.0,0.0,0.0,-30.30947,0.34377,0.97403,9.07,0.78,0.47,2.0
1758076305.49077,1758076305.32095,0.0,0.0,0.0,-36.55471,-9.05273,-1.3751,9.07,0.78,0.47,2.0
1758076305.49189,1758076305.33095,0.0,0.0,0.0,-40.85189,-14.9542,-3.09397,8.74,0.9,0.06,2.0
1758076305.50688,1758076305.34095,0.0,0.0,0.0,-44.63341,-21.7724,-4.64096,8.74,0.9,0.06,2.0
1758076305.50785,1758076305.35095,0.0,0.0,0.0,-47.26902,-31.85646,-6.53172,8.74,0.8,0.0,2.0
1758076305.52428,1758076305.36095,0.0,0.0,0.0,-48.07116,-49.33167,-8.88085,8.61,0.22,-0.05,2.0
1758076305.54214,1758076305.37095,0.0,0.0,0.0,-45.14908,-49.96192,-9.4538,8.61,0.22,-0.05,2.0
1758076305.54331,1758076305.38095,0.0,0.0,0.0,-40.7373,-41.65404,-7.96411,10.48,-0.73,0.34,2.0
1758076305.55982,1758076305.39095,0.0,0.0,0.0,-36.7266,-34.72124,-6.41713,10.48,-0.73,0.34,2.0
1758076305.56234,1758076305.40095,0.0,0.0,0.0,-35.69527,-60.67623,-9.05273,9.77,-0.75,0.43,2.0
1758076305.57779,1758076305.41095,0.0,0.0,0.0,-35.86716,-63.25455,-9.62569,9.77,-0.75,0.43,2.0
1758076305.57922,1758076305.42095,0.0,0.0,0.0,-35.92446,-48.07116,-12.204,10.48,0.0,-0.11,2.0
1758076305.59405,1758076305.43095,0.0,0.0,0.0,-37.29956,-32.37212,-14.66772,10.48,0.0,-0.11,2.0
1758076305.61055,1758076305.44095,0.0,0.0,0.0,-40.7373,-17.87628,-17.30333,12.2,0.66,-0.11,2.0
1758076305.61328,1758076305.45095,0.0,0.0,0.0,-43.77398,-10.8289,-17.58981,11.34,1.26,0.52,2.0
1758076305.63111,1758076305.46095,0.0,0.0,0.0,-46.69606,-2.97938,-15.92823,11.34,1.26,0.52,2.0
1758076305.63315,1758076305.47095,0.0,0.0,0.0,-48.75871,1.3751,-11.91752,11.89,1.08,1.03,2.0
1758076305.64985,1758076305.48095,0.0,0.0,0.0,-48.24305,-0.97403,-9.68299,11.89,1.08,1.03,2.0
1758076305.65101,1758076305.49095,0.0,0.0,0.0,-46.06581,-8.99544,-9.11003,11.76,0.33,1.49,2.0
1758076305.66587,1758076305.50095,0.0,0.0,0.0,-42.97184,-19.59516,-10.31324,11.76,0.33,1.49,2.0
1758076305.66779,1758076305.51095,0.0,0.0,0.0,-38.44547,-31.39809,-16.3293,11.21,-0.33,2.05,2.0
1758076305.68595,1758076305.52095,0.0,0.0,0.0,-35.00772,-34.49206,-22.63183,11.81,-0.93,1.99,2.0
1758076305.70194,1758076305.53095,0.0,0.0,0.0,-31.39809,-34.0337,-29.50733,11.81,-0.93,1.99,2.0
1758076305.70308,1758076305.54095,0.0,0.0,0.0,-28.64789,-35.12231,-36.03905,11.95,-1.34,2.67,2.0
1758076305.71795,1758076305.55095,0.0,0.0,0.0,-26.35606,-33.00237,-42.97184,11.95,-1.34,2.67,2.0
1758076305.71904,1758076305.56095,0.0,0.0,0.0,-26.75713,-29.39274,-43.25832,11.4,-0.98,3.02,2.0
1758076305.73544,1758076305.57095,0.0,0.0,0.0,-27.10091,-19.25138,-40.39353,11.4,-0.98,3.02,2.0
1758076305.75083,1758076305.58095,0.0,0.0,0.0,-30.59595,-20.45459,-38.21629,10.32,-0.02,2.91,2.0
1758076305.75206,1758076305.59095,0.0,0.0,0.0,-38.50277,-18.50654,-32.83048,8.63,0.61,3.32,2.0
1758076305.76682,1758076305.60095,0.0,0.0,0.0,-43.60209,-16.50119,-29.73651,8.63,0.61,3.32,2.0
1758076305.76801,1758076305.61095,0.0,0.0,0.0,-48.30034,-11.80293,-30.25217,10.76,0.55,4.13,2.0
1758076305.78571,1758076305.62095,0.0,0.0,0.0,-53.91533,-3.49504,-32.54401,10.76,0.55,4.13,2.0
1758076305.8019,1758076305.63095,0.0,0.0,0.0,-55.97798,2.7502,-28.87707,12.15,0.43,2.99,2.0
1758076305.80329,1758076305.64095,0.0,0.0,0.0,-56.14987,7.96411,-25.21014,12.15,0.43,2.99,2.0
1758076305.81787,1758076305.65095,0.0,0.0,0.0,-54.88936,13.75099,-21.6578,12.33,0.14,1.55,2.0
1758076305.82222,1758076305.66095,0.0,0.0,0.0,-53.05589,21.7724,-15.24068,12.33,0.14,1.55,2.0
1758076305.83794,1758076305.67095,0.0,0.0,0.0,-48.30034,30.25217,-10.8862,12.48,-0.65,0.93,2.0
1758076305.84015,1758076305.68095,0.0,0.0,0.0,-44.748,33.80451,-7.10468,11.18,-1.36,1.1,2.0
1758076305.85516,1758076305.69095,0.0,0.0,0.0,-40.96649,37.24226,-3.20856,11.18,-1.36,1.1,2.0
1758076305.87197,1758076305.70095,0.0,0.0,0.0,-35.40879,41.76862,1.66158,10.23,-1.79,1.24,2.0
1758076305.87288,1758076305.71095,0.0,0.0,0.0,-32.08564,42.97184,4.52637,10.23,-1.79,1.24,2.0
1758076305.88796,1758076305.72095,0.0,0.0,0.0,-28.93437,43.4875,6.47442,9.34,-1.87,1.13,2.0
1758076305.89218,1758076305.73095,0.0,0.0,0.0,-25.43933,43.94586,8.136,9.34,-1.87,1.13,2.0
1758076305.90814,1758076305.74095,0.0,0.0,0.0,-20.16812,43.37291,9.4538,8.91,-1.71,0.96,2.0
1758076305.90907,1758076305.75095,0.0,0.0,0.0,-16.55848,42.34158,9.33921,8.55,-1.46,0.87,2.0
1758076305.92442,1758076305.76095,0.0,0.0,0.0,-13.17803,41.88322,8.88085,8.55,-1.46,0.87,2.0
1758076305.94157,1758076305.77095,0.0,0.0,0.0,-10.19865,40.68,8.36518,8.34,-1.17,1.02,2.0
1758076305.94269,1758076305.78095,0.0,0.0,0.0,-6.70361,36.38282,7.16197,8.34,-1.17,1.02,2.0
1758076305.95794,1758076305.79095,0.0,0.0,0.0,-4.69825,32.77319,6.24524,7.88,-0.86,1.02,2.0
1758076305.96017,1758076305.80095,0.0,0.0,0.0,-3.38045,29.50733,5.78687,7.88,-0.86,1.02,2.0
1758076305.97491,1758076305.81095,0.0,0.0,0.0,-2.06265,27.04361,5.78687,7.83,-0.51,0.99,2.0
1758076305.99215,1758076305.82095,0.0,0.0,0.0,-0.68755,23.0329,5.95876,7.77,-0.21,0.76,2.0
1758076305.99338,1758076305.83095,0.0,0.0,0.0,0.0,19.99623,6.24524,7.77,-0.21,0.76,2.0
1758076306.0078,1758076305.84095,0.0,0.0,0.0,0.51566,16.67307,5.55769,7.61,0.01,0.51,2.0
1758076306.01202,1758076305.85095,0.0,0.0,0.0,1.20321,14.9542,4.29718,7.61,0.01,0.51,2.0
1758076306.02697,1758076305.86095,0.0,0.0,0.0,1.43239,16.272,0.0,8.09,0.09,0.45,2.0
1758076306.02809,1758076305.87095,0.0,0.0,0.0,1.3751,19.07949,-4.0107,8.09,0.09,0.45,2.0
1758076306.04529,1758076305.88095,0.0,0.0,0.0,1.48969,22.00158,-8.25059,8.74,-0.02,0.58,2.0
1758076306.06123,1758076305.89095,0.0,0.0,0.0,2.97938,23.0329,-13.5791,8.74,-0.02,0.58,2.0
1758076306.06216,1758076305.90095,0.0,0.0,0.0,5.09932,22.05888,-15.69904,8.92,-0.37,0.65,2.0
1758076306.07696,1758076305.91095,0.0,0.0,0.0,8.136,17.81899,-16.04282,8.95,-0.74,0.45,2.0
1758076306.07814,1758076305.92095,0.0,0.0,0.0,11.22997,9.85487,-15.35527,8.95,-0.74,0.45,2.0
1758076306.09527,1758076305.93095,0.0,0.0,0.0,16.38659,-2.57831,-12.77696,8.98,-0.97,0.11,2.0
1758076306.11194,1758076305.94095,0.0,0.0,0.0,20.16812,-10.02676,-10.25595,8.98,-0.97,0.11,2.0
1758076306.11312,1758076305.95095,0.0,0.0,0.0,24.23611,-18.10547,-7.21927,9.54,-0.99,-0.06,2.0
1758076306.12783,1758076305.96095,0.0,0.0,0.0,28.07493,-29.67921,-3.09397,9.54,-0.99,-0.06,2.0
1758076306.13348,1758076305.97095,0.0,0.0,0.0,30.53865,-41.99781,0.85944,9.54,-0.62,0.14,2.0
1758076306.14796,1758076305.98095,0.0,0.0,0.0,32.25753,-51.6235,4.35448,9.55,0.02,0.33,2.0
1758076306.14915,1758076305.99095,0.0,0.0,0.0,33.9764,-52.02457,7.62034,9.55,0.02,0.33,2.0
1758076306.16423,1758076306.00095,0.0,0.0,0.0,35.2369,-42.68536,9.91217,11.1,0.64,0.24,2.0
1758076306.18106,1758076306.01095,0.0,0.0,0.0,37.29956,-14.43854,15.29797,11.1,0.64,0.24,2.0
1758076306.18198,1758076306.02095,0.0,0.0,0.0,36.7266,2.97938,16.67307,12.46,0.93,0.68,2.0
1758076306.19718,1758076306.03095,0.0,0.0,0.0,36.32552,6.18794,15.98552,12.46,0.93,0.68,2.0
1758076306.19818,1758076306.04095,0.0,0.0,0.0,34.72124,-19.59516,14.66772,10.11,0.89,0.77,2.0
1758076306.21396,1758076306.05095,0.0,0.0,0.0,38.50277,-56.66553,18.16276,7.89,0.07,-0.43,2.0
1758076306.23176,1758076306.06095,0.0,0.0,0.0,40.96649,-51.22243,22.91831,7.89,0.07,-0.43,2.0
1758076306.23295,1758076306.07095,0.0,0.0,0.0,42.22699,-33.05967,24.12152,12.85,-1.04,-0.87,2.0
1758076306.24792,1758076306.08095,0.0,0.0,0.0,43.88857,-20.16812,23.49127,12.85,-1.04,-0.87,2.0
1758076306.25263,1758076306.09095,0.0,0.0,0.0,46.46688,-8.65166,19.48057,12.28,-1.36,-0.68,2.0
1758076306.26832,1758076306.10095,0.0,0.0,0.0,47.72739,-1.3751,13.06344,12.28,-1.36,-0.68,2.0
1758076306.26923,1758076306.11095,0.0,0.0,0.0,48.9879,3.89611,5.15662,11.95,-1.14,0.7,2.0
1758076306.28831,1758076306.12095,0.0,0.0,0.0,49.33167,8.30789,-7.16197,11.95,-1.14,0.7,2.0
1758076306.29003,1758076306.13095,0.0,0.0,0.0,47.78468,10.02676,-12.204,11.3,-0.5,0.78,2.0
1758076306.30577,1758076306.14095,0.0,0.0,0.0,45.03448,8.93814,-12.83425,11.52,0.34,1.56,2.0
1758076306.32203,1758076306.15095,0.0,0.0,0.0,41.59674,2.7502,-9.39651,11.52,0.34,1.56,2.0
1758076306.32367,1758076306.16095,0.0,0.0,0.0,37.98711,-15.29797,3.72423,11.6,0.69,2.24,2.0
1758076306.338,1758076306.17095,0.0,0.0,0.0,35.3515,-21.25674,15.0115,11.6,0.69,2.24,2.0
1758076306.34004,1758076306.18095,0.0,0.0,0.0,31.91375,-25.72581,24.92367,12.69,1.32,2.59,2.0
1758076306.35619,1758076306.19095,0.0,0.0,0.0,27.50197,-30.30947,33.46074,12.69,1.32,2.59,2.0
1758076306.37201,1758076306.20095,0.0,0.0,0.0,18.62113,-33.63263,43.14373,11.54,2.27,3.18,2.0
1758076306.37318,1758076306.21095,0.0,0.0,0.0,13.40721,-38.38818,45.43555,9.18,2.2,3.32,2.0
1758076306.38841,1758076306.22095,0.0,0.0,0.0,9.28192,-41.48215,45.55015,9.18,2.2,3.32,2.0
1758076306.39002,1758076306.23095,0.0,0.0,0.0,7.04738,-41.08107,43.60209,7.51,1.03,3.02,2.0
1758076306.4053,1758076306.24095,0.0,0.0,0.0,5.50039,-34.09099,37.92981,7.51,1.03,3.02,2.0
1758076306.42291,1758076306.25095,0.0,0.0,0.0,5.61499,-27.73116,33.40344,7.39,-0.17,3.44,2.0
1758076306.42574,1758076306.26095,0.0,0.0,0.0,6.53172,-22.23076,28.70519,7.39,-0.17,3.44,2.0
1758076306.44291,1758076306.27095,0.0,0.0,0.0,8.65166,-19.19409,24.80907,8.23,-0.75,4.21,2.0
1758076306.4458,1758076306.28095,0.0,0.0,0.0,12.54778,-14.09476,20.34,10.31,-0.96,3.65,2.0
1758076306.46132,1758076306.29095,0.0,0.0,0.0,14.78231,-6.35983,17.13144,10.31,-0.96,3.65,2.0
1758076306.4623,1758076306.30095,0.0,0.0,0.0,16.61578,3.83882,13.86558,12.46,-1.32,1.85,2.0
1758076306.47865,1758076306.31095,0.0,0.0,0.0,18.44924,14.78231,9.91217,12.46,-1.32,1.85,2.0
1758076306.48299,1758076306.32095,0.0,0.0,0.0,18.9649,27.44468,7.96411,12.94,-1.07,1.12,2.0
1758076306.49909,1758076306.33095,0.0,0.0,0.0,18.62113,32.83048,6.7609,12.94,-1.07,1.12,2.0
1758076306.50186,1758076306.34095,0.0,0.0,0.0,17.81899,36.89849,5.15662,11.94,-0.23,1.49,2.0
1758076306.51734,1758076306.35095,0.0,0.0,0.0,14.83961,41.31026,3.32316,11.94,-0.23,1.49,2.0
1758076306.51855,1758076306.36095,0.0,0.0,0.0,11.86023,43.20102,1.3178,11.0,0.72,2.01,2.0
1758076306.53446,1758076306.37095,0.0,0.0,0.0,8.42248,44.9199,-0.68755,10.1,1.33,2.1,2.0
1758076306.5512,1758076306.38095,0.0,0.0,0.0,4.35448,45.77933,-3.55234,10.1,1.33,2.1,2.0
1758076306.55261,1758076306.39095,0.0,0.0,0.0,-2.11994,43.25832,-7.62034,9.08,1.47,1.77,2.0
1758076306.56713,1758076306.40095,0.0,0.0,0.0,-6.87549,39.64868,-10.25595,9.08,1.47,1.77,2.0
1758076306.56875,1758076306.41095,0.0,0.0,0.0,-11.74564,35.06502,-13.00614,8.43,1.4,1.46,2.0
1758076306.58444,1758076306.42095,0.0,0.0,0.0,-16.67307,30.48136,-15.46986,8.43,1.4,1.46,2.0
1758076306.6002,1758076306.43095,0.0,0.0,0.0,-23.94964,24.92367,-19.59516,8.28,1.32,1.15,2.0
1758076306.60212,1758076306.44095,0.0,0.0,0.0,-27.96034,21.08485,-22.05888,8.28,1.23,0.92,2.0
1758076306.61716,1758076306.45095,0.0,0.0,0.0,-31.28349,17.18874,-24.12152,8.28,1.23,0.92,2.0
1758076306.61833,1758076306.46095,0.0,0.0,0.0,-33.86181,14.15206,-25.15285,8.35,0.96,0.85,2.0
1758076306.63414,1758076306.47095,0.0,0.0,0.0,-35.98175,14.9542,-24.63719,8.35,0.96,0.85,2.0
1758076306.65116,1758076306.48095,0.0,0.0,0.0,-36.61201,16.272,-23.26209,8.92,0.56,0.68,2.0
1758076306.65234,1758076306.49095,0.0,0.0,0.0,-36.38282,15.06879,-21.48592,8.92,0.56,0.68,2.0
1758076306.66742,1758076306.50095,0.0,0.0,0.0,-35.40879,12.89155,-19.19409,8.72,0.23,0.52,2.0
1758076306.66839,1758076306.51095,0.0,0.0,0.0,-33.40344,15.0115,-14.61043,9.16,0.03,0.32,2.0
1758076306.68431,1758076306.52095,0.0,0.0,0.0,-31.91375,18.56383,-11.34457,9.16,0.03,0.32,2.0
1758076306.70125,1758076306.53095,0.0,0.0,0.0,-30.30947,20.11082,-8.42248,9.49,0.0,0.26,2.0
1758076306.7026,1758076306.54095,0.0,0.0,0.0,-28.76248,17.76169,-4.81285,9.49,0.0,0.26,2.0
1758076306.71734,1758076306.55095,0.0,0.0,0.0,-28.36141,14.38124,-3.03668,9.3,0.09,0.29,2.0
1758076306.71835,1758076306.56095,0.0,0.0,0.0,-28.59059,10.71431,-2.23454,9.3,0.09,0.29,2.0
1758076306.73416,1758076306.57095,0.0,0.0,0.0,-29.33544,6.70361,-2.29183,9.39,0.28,0.21,2.0
1758076306.75122,1758076306.58095,0.0,0.0,0.0,-31.97105,-0.97403,-3.89611,9.39,0.28,0.21,2.0
1758076306.75243,1758076306.59095,0.0,0.0,0.0,-33.80451,-6.87549,-5.50039,9.09,0.53,0.2,2.0
1758076306.7675,1758076306.60094,0.0,0.0,0.0,-35.2369,-15.35527,-7.16197,8.64,0.66,0.16,2.0
1758076306.76836,1758076306.61094,0.0,0.0,0.0,-36.26823,-29.96569,-8.42248,8.64,0.66,0.16,2.0
1758076306.78424,1758076306.62094,0.0,0.0,0.0,-35.75257,-46.52417,-10.31324,7.93,0.31,-0.03,2.0
1758076306.80054,1758076306.63094,0.0,0.0,0.0,-34.66395,-52.25375,-10.59972,7.93,0.31,-0.03,2.0
1758076306.80219,1758076306.64094,0.0,0.0,0.0,-33.46074,-53.97263,-10.8289,9.02,-0.2,-0.1,2.0
1758076306.81724,1758076306.65094,0.0,0.0,0.0,-31.56997,-52.65482,-9.05273,9.02,-0.2,-0.1,2.0
1758076306.81843,1758076306.66094,0.0,0.0,0.0,-29.39274,-42.62806,-4.87014,10.04,-0.71,0.44,2.0
1758076306.83458,1758076306.67094,0.0,0.0,0.0,-32.42941,-43.14373,-7.79223,10.46,-0.84,0.76,2.0
1758076306.85125,1758076306.68094,0.0,0.0,0.0,-32.6013,-39.4195,-8.47978,10.46,-0.84,0.76,2.0
1758076306.85246,1758076306.69094,0.0,0.0,0.0,-31.62727,-33.17426,-8.99544,10.86,-0.38,0.17,2.0
1758076306.8671,1758076306.70094,0.0,0.0,0.0,-32.71589,-20.16812,-11.11538,10.86,-0.38,0.17,2.0
1758076306.86835,1758076306.71094,0.0,0.0,0.0,-34.77854,-9.11003,-11.51645,11.09,0.21,0.07,2.0
1758076306.88421,1758076306.72094,0.0,0.0,0.0,-37.12767,0.68755,-10.71431,11.09,0.21,0.07,2.0
1758076306.90053,1758076306.73094,0.0,0.0,0.0,-40.27893,8.88085,-7.10468,11.01,0.73,-0.32,2.0
1758076306.90226,1758076306.74094,0.0,0.0,0.0,-42.51347,12.54778,-3.89611,10.38,0.86,0.0,2.0
1758076306.91759,1758076306.75094,0.0,0.0,0.0,-44.63341,10.31324,-0.80214,10.38,0.86,0.0,2.0
1758076306.91844,1758076306.76094,0.0,0.0,0.0,-45.89392,7.79223,2.00535,10.34,0.75,0.24,2.0
1758076306.93425,1758076306.77094,0.0,0.0,0.0,-45.60744,3.83882,4.46907,10.34,0.75,0.24,2.0
1758076306.95217,1758076306.78094,0.0,0.0,0.0,-43.88857,-1.3178,4.23989,11.12,0.39,0.66,2.0
1758076306.95305,1758076306.79094,0.0,0.0,0.0,-41.31026,-9.85487,1.83346,11.12,0.39,0.66,2.0
1758076306.9686,1758076306.80094,0.0,0.0,0.0,-38.50277,-20.22541,-2.23454,11.21,0.0,1.33,2.0
1758076306.96948,1758076306.81094,0.0,0.0,0.0,-34.77854,-40.10705,-11.22997,10.61,0.0,1.54,2.0
1758076306.98538,1758076306.82094,0.0,0.0,0.0,-32.14294,-48.58683,-17.36062,10.61,-0.27,1.54,2.0
1758076307.0021,1758076306.83094,0.0,0.0,0.0,-29.62192,-55.57691,-23.26209,10.69,-0.72,1.48,2.0
1758076307.00329,1758076306.84094,0.0,0.0,0.0,-27.2155,-61.93674,-27.96034,10.69,-0.72,1.48,2.0
1758076307.01855,1758076306.85094,0.0,0.0,0.0,-25.21014,-71.44785,-33.51803,10.44,-0.74,3.09,2.0
1758076307.01979,1758076306.86094,0.0,0.0,0.0,-25.43933,-73.62508,-34.72124,10.44,-0.74,3.09,2.0
1758076307.03461,1758076306.87094,0.0,0.0,0.0,-26.41335,-72.19269,-33.05967,10.4,-0.27,3.63,2.0
1758076307.05098,1758076306.88094,0.0,0.0,0.0,-28.70519,-66.92148,-30.30947,10.4,-0.27,3.63,2.0
1758076307.05382,1758076306.89094,0.0,0.0,0.0,-32.54401,-59.98868,-24.63719,9.81,0.41,3.39,2.0
1758076307.0711,1758076306.90094,0.0,0.0,0.0,-34.89313,-51.6235,-22.91831,9.08,0.94,3.91,2.0
1758076307.0739,1758076306.91094,0.0,0.0,0.0,-39.99245,-45.20637,-23.72045,9.08,0.94,3.91,2.0
1758076307.09147,1758076306.92094,0.0,0.0,0.0,-44.11775,-40.33623,-22.51724,9.34,1.59,3.27,2.0
1758076307.09632,1758076306.93094,0.0,0.0,0.0,-50.53488,-26.52795,-19.53786,9.34,1.59,3.27,2.0
1758076307.11241,1758076306.94094,0.0,0.0,0.0,-53.91533,-16.73037,-16.67307,11.8,1.75,2.49,2.0
1758076307.11334,1758076306.95094,0.0,0.0,0.0,-55.6342,-5.21392,-14.03747,11.8,1.75,2.49,2.0
1758076307.12862,1758076306.96094,0.0,0.0,0.0,-56.14987,14.15206,-11.51645,13.09,1.14,0.5,2.0
1758076307.12959,1758076306.97094,0.0,0.0,0.0,-55.06125,24.86637,-10.48513,13.31,0.08,-0.08,2.0
1758076307.14464,1758076306.98094,0.0,0.0,0.0,-53.45696,34.0337,-9.74028,13.31,0.08,-0.08,2.0
1758076307.16034,1758076306.99094,0.0,0.0,0.0,-50.64947,40.7946,-8.65166,12.27,-0.9,0.17,2.0
1758076307.16235,1758076307.00094,0.0,0.0,0.0,-46.00851,44.28964,-7.50575,12.27,-0.9,0.17,2.0
1758076307.17729,1758076307.01094,0.0,0.0,0.0,-42.85724,45.83662,-6.53172,10.79,-1.27,0.46,2.0
1758076307.17846,1758076307.02094,0.0,0.0,0.0,-40.27893,47.95657,-5.21392,10.79,-1.27,0.46,2.0
1758076307.19436,1758076307.03094,0.0,0.0,0.0,-37.75792,49.79003,-3.09397,10.13,-1.01,0.4,2.0
1758076307.21038,1758076307.04094,0.0,0.0,0.0,-34.09099,50.53488,-0.22918,9.61,-0.72,0.42,2.0
1758076307.21184,1758076307.05094,0.0,0.0,0.0,-31.51268,50.76406,1.60428,9.61,-0.72,0.42,2.0
1758076307.22639,1758076307.06094,0.0,0.0,0.0,-28.76248,51.27972,2.97938,9.37,-0.54,0.55,2.0
1758076307.24236,1758076307.07094,0.0,0.0,0.0,-25.7831,51.27972,4.23989,9.37,-0.54,0.55,2.0
1758076307.24364,1758076307.08094,0.0,0.0,0.0,-21.6578,49.90463,5.32851,8.99,-0.52,0.54,2.0
1758076307.25863,1758076307.09094,0.0,0.0,0.0,-18.9649,47.49821,5.90147,8.99,-0.52,0.54,2.0
1758076307.25983,1758076307.10094,0.0,0.0,0.0,-16.38659,44.23235,6.47442,8.66,-0.52,0.7,2.0
1758076307.27475,1758076307.11094,0.0,0.0,0.0,-13.75099,40.10705,6.7609,8.66,-0.52,0.7,2.0
1758076307.29144,1758076307.12094,0.0,0.0,0.0,-9.91217,34.43476,6.8182,8.56,-0.49,0.48,2.0
1758076307.29255,1758076307.13094,0.0,0.0,0.0,-7.50575,31.79916,6.53172,8.89,-0.41,0.28,2.0
1758076307.3077,1758076307.14094,0.0,0.0,0.0,-5.27121,29.73651,6.53172,8.89,-0.41,0.28,2.0
1758076307.30857,1758076307.15094,0.0,0.0,0.0,-3.03668,28.76248,6.53172,9.12,-0.35,0.11,2.0
1758076307.32557,1758076307.16094,0.0,0.0,0.0,0.11459,29.27814,5.15662,9.12,-0.35,0.11,2.0
1758076307.34176,1758076307.17094,0.0,0.0,0.0,2.34913,28.99167,5.4431,9.09,-0.27,0.0,2.0
1758076307.34289,1758076307.18094,0.0,0.0,0.0,3.95341,33.40344,4.58366,9.09,-0.27,0.0,2.0
1758076307.35769,1758076307.19094,0.0,0.0,0.0,6.47442,38.56006,3.83882,9.41,-0.38,-0.02,2.0
1758076307.35863,1758076307.20094,0.0,0.0,0.0,8.59437,38.38818,3.38045,9.23,-0.4,0.27,2.0
1758076307.37706,1758076307.21094,0.0,0.0,0.0,10.65701,36.03905,2.7502,9.23,-0.4,0.27,2.0
1758076307.41728,1758076307.22094,0.0,0.0,0.0,13.00614,32.20023,2.23454,9.2,-0.37,0.48,2.0
1758076307.42259,1758076307.23094,0.0,0.0,0.0,17.47521,22.63183,2.40642,9.2,-0.37,0.48,2.0
1758076307.42319,1758076307.24094,0.0,0.0,0.0,20.97026,15.35527,3.55234,9.13,-0.34,0.39,2.0
1758076307.42515,1758076307.25094,0.0,0.0,0.0,24.57989,8.36518,5.27121,9.13,-0.34,0.39,2.0
1758076307.42741,1758076307.26094,0.0,0.0,0.0,28.24682,0.22918,7.50575,9.17,-0.33,0.57,2.0
1758076307.43367,1758076307.27094,0.0,0.0,0.0,33.40344,-17.47521,13.12073,8.83,-0.27,0.58,2.0
1758076307.45048,1758076307.28094,0.0,0.0,0.0,34.60666,-25.49662,14.72501,8.83,-0.27,0.58,2.0
1758076307.45164,1758076307.29094,0.0,0.0,0.0,36.32552,-33.68992,16.84496,9.0,-0.07,0.36,2.0
1758076307.46728,1758076307.30094,0.0,0.0,0.0,38.38818,-32.37212,19.25138,9.0,-0.07,0.36,2.0
1758076307.46876,1758076307.31094,0.0,0.0,0.0,40.85189,-15.06879,21.48592,10.78,0.17,0.37,2.0
1758076307.48476,1758076307.32094,0.0,0.0,0.0,41.13837,1.60428,22.23076,10.78,0.17,0.37,2.0
1758076307.50162,1758076307.33094,0.0,0.0,0.0,41.08107,13.98017,22.28806,11.71,0.42,1.02,2.0
1758076307.50245,1758076307.34094,0.0,0.0,0.0,42.05511,10.54242,19.36597,11.71,0.42,1.02,2.0
1758076307.51748,1758076307.35094,0.0,0.0,0.0,42.62806,-30.76784,18.33465,9.16,0.61,1.1,2.0
1758076307.51946,1758076307.36094,0.0,0.0,0.0,41.94051,-40.39353,19.70975,8.62,0.3,-0.06,2.0
1758076307.53536,1758076307.37094,0.0,0.0,0.0,39.82057,-27.73116,20.51189,8.62,0.3,-0.06,2.0
1758076307.55174,1758076307.38094,0.0,0.0,0.0,37.35685,-13.23533,20.34,11.86,0.31,-0.02,2.0
1758076307.55269,1758076307.39094,0.0,0.0,0.0,36.89849,-0.97403,18.44924,11.86,0.31,-0.02,2.0
1758076307.56859,1758076307.40094,0.0,0.0,0.0,37.52874,7.96411,15.75634,11.15,0.13,-0.02,2.0
1758076307.56948,1758076307.41094,0.0,0.0,0.0,39.4768,16.38659,12.43318,11.15,0.13,-0.02,2.0
1758076307.58789,1758076307.42094,0.0,0.0,0.0,43.25832,25.61122,5.84417,11.47,-0.16,0.65,2.0
1758076307.58908,1758076307.43094,0.0,0.0,0.0,45.60744,30.02299,2.00535,11.36,-0.11,0.72,2.0
1758076307.60529,1758076307.44094,0.0,0.0,0.0,47.09713,31.45539,-0.68755,11.36,-0.11,0.72,2.0
1758076307.62259,1758076307.45094,0.0,0.0,0.0,47.67009,27.2155,-1.03132,11.09,0.05,1.77,2.0
1758076307.62357,1758076307.46094,0.0,0.0,0.0,47.15443,14.38124,1.60428,11.09,0.05,1.77,2.0
1758076307.64224,1758076307.47094,0.0,0.0,0.0,46.46688,3.95341,5.61499,10.65,0.24,2.6,2.0
1758076307.64664,1758076307.48094,0.0,0.0,0.0,45.55015,-5.55769,10.65701,10.65,0.24,2.6,2.0
1758076307.66234,1758076307.49094,0.0,0.0,0.0,44.40423,-12.08941,16.55848,11.16,0.75,2.8,2.0
1758076307.66355,1758076307.50094,0.0,0.0,0.0,42.05511,-16.90226,22.68913,11.74,1.39,2.21,2.0
1758076307.68078,1758076307.51094,0.0,0.0,0.0,39.99245,-18.50654,24.92367,11.74,1.39,2.21,2.0
1758076307.68335,1758076307.52094,0.0,0.0,0.0,37.35685,-18.62113,25.72581,11.37,1.46,2.27,2.0
1758076307.69857,1758076307.53094,0.0,0.0,0.0,34.60666,-19.13679,24.98096,11.37,1.46,2.27,2.0
1758076307.70298,1758076307.54094,0.0,0.0,0.0,31.39809,-19.07949,22.97561,11.25,0.86,1.94,2.0
1758076307.71859,1758076307.55094,0.0,0.0,0.0,30.19488,-15.87093,21.37133,11.25,0.86,1.94,2.0
1758076307.72052,1758076307.56094,0.0,0.0,0.0,29.39274,-10.65701,20.22541,10.7,-0.09,1.4,2.0
1758076307.73684,1758076307.57094,0.0,0.0,0.0,30.02299,-8.0787,18.27736,10.7,-0.09,1.4,2.0
1758076307.75287,1758076307.58094,0.0,0.0,0.0,35.06502,-8.25059,19.07949,8.87,-0.87,2.09,2.0
1758076307.75382,1758076307.59094,0.0,0.0,0.0,39.76327,-8.93814,19.82434,7.64,-1.1,3.0,2.0
1758076307.76849,1758076307.60094,0.0,0.0,0.0,46.06581,-8.70896,22.28806,7.64,-1.1,3.0,2.0
1758076307.77289,1758076307.61094,0.0,0.0,0.0,55.00395,-8.47978,27.33009,7.95,-1.03,3.61,2.0
1758076307.78862,1758076307.62094,0.0,0.0,0.0,60.10328,-7.16197,30.13758,7.95,-1.03,3.61,2.0
1758076307.7898,1758076307.63094,0.0,0.0,0.0,64.11398,-6.18794,31.56997,9.34,-1.0,3.68,2.0
1758076307.80463,1758076307.64094,0.0,0.0,0.0,66.69229,-4.23989,32.08564,9.34,-1.0,3.68,2.0
1758076307.82188,1758076307.65094,0.0,0.0,0.0,67.89551,2.29183,29.67921,10.64,-0.48,3.2,2.0
1758076307.82315,1758076307.66094,0.0,0.0,0.0,66.5204,8.0787,26.41335,11.24,0.56,2.3,2.0
1758076307.83782,1758076307.67094,0.0,0.0,0.0,63.59832,13.80828,21.88699,11.24,0.56,2.3,2.0
1758076307.83992,1758076307.68094,0.0,0.0,0.0,59.18654,19.59516,16.3293,10.53,1.54,1.96,2.0
1758076307.85691,1758076307.69094,0.0,0.0,0.0,50.82136,26.75713,7.10468,10.53,1.54,1.96,2.0
1758076307.85862,1758076307.70094,0.0,0.0,0.0,44.63341,29.39274,1.03132,9.74,2.08,1.94,2.0
1758076307.87702,1758076307.71094,0.0,0.0,0.0,38.56006,29.73651,-3.89611,9.74,2.08,1.94,2.0
1758076307.8929,1758076307.72094,0.0,0.0,0.0,33.00237,28.07493,-7.39116,9.26,2.21,1.88,2.0
1758076307.89391,1758076307.73094,0.0,0.0,0.0,25.15285,23.20479,-10.8862,9.16,1.94,1.75,2.0
1758076307.90871,1758076307.74094,0.0,0.0,0.0,20.85567,19.82434,-11.86023,9.16,1.94,1.75,2.0
1758076307.91072,1758076307.75094,0.0,0.0,0.0,17.13144,17.36062,-12.14671,9.16,1.41,1.38,2.0
1758076307.92764,1758076307.76094,0.0,0.0,0.0,14.15206,15.87093,-11.80293,9.16,1.41,1.38,2.0
1758076307.92963,1758076307.77094,0.0,0.0,0.0,10.71431,14.32395,-10.59972,9.11,0.97,1.24,2.0
1758076307.94693,1758076307.78094,0.0,0.0,0.0,9.22462,14.15206,-9.85487,9.11,0.97,1.24,2.0
1758076307.96276,1758076307.79094,0.0,0.0,0.0,8.02141,14.32395,-8.70896,8.91,0.71,1.16,2.0
1758076307.96386,1758076307.80094,0.0,0.0,0.0,6.58902,14.72501,-7.21927,8.91,0.71,1.16,2.0
1758076307.97891,1758076307.81094,0.0,0.0,0.0,6.07335,15.12609,-5.90147,8.78,0.61,1.19,2.0
1758076307.98174,1758076307.82094,0.0,0.0,0.0,5.78687,14.83961,-4.18259,8.69,0.6,1.23,2.0
1758076307.99665,1758076307.83094,0.0,0.0,0.0,5.4431,15.41257,-2.00535,8.69,0.6,1.23,2.0
1758076307.99937,1758076307.84094,0.0,0.0,0.0,4.64096,14.66772,1.60428,8.85,0.66,1.26,2.0
1758076308.01575,1758076307.85094,0.0,0.0,0.0,3.38045,14.83961,3.60963,8.85,0.66,1.26,2.0
1758076308.03167,1758076307.86094,0.0,0.0,0.0,1.3178,20.05352,4.64096,9.2,0.87,1.31,2.0
1758076308.03364,1758076307.87094,0.0,0.0,0.0,-0.85944,25.15285,5.09932,9.2,0.87,1.31,2.0
1758076308.0489,1758076307.88094,0.0,0.0,0.0,-4.81285,25.72581,5.21392,9.53,1.17,1.14,2.0
1758076308.04983,1758076307.89094,0.0,0.0,0.0,-7.79223,22.91831,4.92744,8.86,1.42,1.09,2.0
1758076308.06493,1758076307.90094,0.0,0.0,0.0,-11.28727,18.85031,4.52637,8.86,1.42,1.09,2.0
1758076308.08098,1758076307.91094,0.0,0.0,0.0,-15.41257,13.46451,4.0107,8.66,1.59,0.81,2.0
1758076308.08263,1758076307.92094,0.0,0.0,0.0,-22.74642,5.55769,2.46372,8.66,1.59,0.81,2.0
1758076308.09793,1758076307.93094,0.0,0.0,0.0,-28.01764,-1.3751,0.80214,8.53,1.75,0.5,2.0
1758076308.09883,1758076307.94094,0.0,0.0,0.0,-32.83048,-12.08941,-0.74485,8.53,1.75,0.5,2.0
1758076308.11656,1758076307.95094,0.0,0.0,0.0,-36.61201,-28.99167,-2.23454,7.85,1.88,0.13,2.0
1758076308.13296,1758076307.96094,0.0,0.0,0.0,-39.82057,-55.7488,-4.69825,7.42,1.49,-0.25,2.0
1758076308.13389,1758076307.97094,0.0,0.0,0.0,-41.71133,-69.15601,-6.18794,7.42,1.49,-0.25,2.0
1758076308.15067,1758076307.98094,0.0,0.0,0.0,-42.62806,-68.86953,-4.23989,8.97,0.89,-0.38,2.0
1758076308.15347,1758076307.99094,0.0,0.0,0.0,-41.08107,-42.05511,0.17189,8.97,0.89,-0.38,2.0
1758076308.16986,1758076308.00094,0.0,0.0,0.0,-35.3515,-26.75713,-0.17189,11.85,-0.27,1.25,2.0
1758076308.17327,1758076308.01094,0.0,0.0,0.0,-32.77319,-38.27358,0.74485,11.85,-0.27,1.25,2.0
1758076308.18978,1758076308.02094,0.0,0.0,0.0,-31.45539,-50.59217,-2.92208,8.41,-0.49,1.15,2.0
1758076308.19092,1758076308.03094,0.0,0.0,0.0,-31.39809,-42.05511,-9.11003,8.41,-0.49,1.15,2.0
1758076308.20587,1758076308.04094,0.0,0.0,0.0,-32.42941,-26.12688,-11.22997,11.16,0.49,0.18,2.0
1758076308.22309,1758076308.05094,0.0,0.0,0.0,-32.83048,-13.80828,-10.8289,11.89,1.02,-0.51,2.0
1758076308.22507,1758076308.06094,0.0,0.0,0.0,-32.54401,-6.07335,-8.76626,11.89,1.02,-0.51,2.0
1758076308.24004,1758076308.07094,0.0,0.0,0.0,-31.39809,-3.89611,-6.47442,11.21,0.91,1.57,2.0
1758076308.24203,1758076308.08094,0.0,0.0,0.0,-30.13758,-4.98473,-6.8182,11.21,0.91,1.57,2.0
1758076308.25685,1758076308.09094,0.0,0.0,0.0,-29.22085,-8.0787,-9.22462,11.44,0.45,2.29,2.0
1758076308.27307,1758076308.10094,0.0,0.0,0.0,-28.24682,-14.83961,-12.71966,11.44,0.45,2.29,2.0
1758076308.27396,1758076308.11094,0.0,0.0,0.0,-27.73116,-26.35606,-17.87628,11.02,0.08,3.15,2.0
1758076308.2898,1758076308.12094,0.0,0.0,0.0,-27.2155,-31.62727,-20.74107,11.26,-0.21,2.84,2.0
1758076308.29081,1758076308.13094,0.0,0.0,0.0,-26.64254,-36.49741,-23.37668,11.26,-0.21,2.84,2.0
1758076308.30602,1758076308.14094,0.0,0.0,0.0,-26.12688,-38.84654,-25.15285,12.8,-0.46,3.13,2.0
1758076308.32304,1758076308.15094,0.0,0.0,0.0,-25.21014,-32.88778,-24.29341,12.8,-0.46,3.13,2.0
1758076308.32584,1758076308.16094,0.0,0.0,0.0,-25.49662,-27.67386,-21.02755,13.92,-0.4,2.27,2.0
1758076308.34107,1758076308.17094,0.0,0.0,0.0,-26.98631,-25.55392,-16.50119,13.92,-0.4,2.27,2.0
1758076308.34274,1758076308.18094,0.0,0.0,0.0,-30.65324,-27.44468,-11.80293,12.14,0.55,2.03,2.0
1758076308.35798,1758076308.19094,0.0,0.0,0.0,-39.13302,-27.10091,-5.95876,10.63,1.42,1.96,2.0
1758076308.35893,1758076308.20094,0.0,0.0,0.0,-46.00851,-23.72045,-4.46907,10.63,1.42,1.96,2.0
1758076308.37563,1758076308.21094,0.0,0.0,0.0,-53.68615,-20.34,-5.78687,10.21,1.5,2.6,2.0
1758076308.39171,1758076308.22094,0.0,0.0,0.0,-63.99939,-16.90226,-11.57375,10.21,1.5,2.6,2.0
1758076308.39295,1758076308.23094,0.0,0.0,0.0,-70.47381,-17.13144,-16.73037,9.11,1.04,3.03,2.0
1758076308.40807,1758076308.24094,0.0,0.0,0.0,-73.79697,-14.03747,-20.68378,9.11,1.04,3.03,2.0
1758076308.409,1758076308.25094,0.0,0.0,0.0,-76.20339,-6.8182,-23.83505,8.98,0.13,2.29,2.0
1758076308.42563,1758076308.26094,0.0,0.0,0.0,-76.89094,1.71887,-25.61122,8.98,0.13,2.29,2.0
1758076308.44289,1758076308.27094,0.0,0.0,0.0,-75.17207,6.99009,-24.92367,9.86,-0.75,1.66,2.0
1758076308.44459,1758076308.28094,0.0,0.0,0.0,-71.56243,11.97482,-23.0329,10.76,-1.58,1.42,2.0
1758076308.46143,1758076308.29094,0.0,0.0,0.0,-67.09336,17.6471,-20.51189,10.76,-1.58,1.42,2.0
1758076308.46261,1758076308.30094,0.0,0.0,0.0,-59.53032,25.43933,-13.46451,11.03,-2.11,0.8,2.0
1758076308.47782,1758076308.31094,0.0,0.0,0.0,-53.68615,28.59059,-7.79223,11.03,-2.11,0.8,2.0
1758076308.47937,1758076308.32094,0.0,0.0,0.0,-47.61279,30.99702,-2.29183,10.07,-2.37,0.81,2.0
1758076308.49488,1758076308.33094,0.0,0.0,0.0,-41.36755,33.00237,2.63561,10.07,-2.37,0.81,2.0
1758076308.51186,1758076308.34094,0.0,0.0,0.0,-32.25753,34.77854,9.33921,9.63,-2.53,1.07,2.0
1758076308.51304,1758076308.35094,0.0,0.0,0.0,-26.81443,33.80451,12.71966,9.37,-2.45,1.15,2.0
1758076308.52807,1758076308.36094,0.0,0.0,0.0,-22.23076,32.83048,14.78231,9.37,-2.45,1.15,2.0
1758076308.53301,1758076308.37094,0.0,0.0,0.0,-18.22006,32.83048,15.69904,9.44,-2.08,1.0,2.0
1758076308.54973,1758076308.38094,0.0,0.0,0.0,-13.40721,33.51803,15.92823,9.44,-2.08,1.0,2.0
1758076308.55195,1758076308.39094,0.0,0.0,0.0,-10.59972,33.68992,15.12609,9.52,-1.56,0.86,2.0
1758076308.5672,1758076308.40094,0.0,0.0,0.0,-8.93814,33.51803,13.5791,9.52,-1.56,0.86,2.0
1758076308.56888,1758076308.41094,0.0,0.0,0.0,-7.67763,32.6013,11.80293,9.35,-1.07,0.87,2.0
1758076308.58566,1758076308.42094,0.0,0.0,0.0,-6.35983,32.08564,8.99544,9.14,-0.67,0.78,2.0
1758076308.60273,1758076308.43094,0.0,0.0,0.0,-6.07335,31.45539,7.10468,9.14,-0.67,0.78,2.0
1758076308.60465,1758076308.44094,0.0,0.0,0.0,-5.90147,29.73651,5.21392,8.78,-0.4,0.76,2.0
1758076308.62195,1758076308.45094,0.0,0.0,0.0,-6.53172,26.52795,2.46372,8.78,-0.4,0.76,2.0
1758076308.62309,1758076308.46094,0.0,0.0,0.0,-7.16197,23.0329,0.45837,8.41,-0.24,0.75,2.0
1758076308.64,1758076308.47094,0.0,0.0,0.0,-7.84952,19.19409,-1.43239,8.41,-0.24,0.75,2.0
1758076308.64403,1758076308.48094,0.0,0.0,0.0,-8.65166,16.10011,-3.49504,8.21,-0.2,0.75,2.0
1758076308.65997,1758076308.49094,0.0,0.0,0.0,-9.22462,14.78231,-6.41713,8.21,-0.2,0.75,2.0
1758076308.66367,1758076308.50094,0.0,0.0,0.0,-9.39651,16.67307,-8.25059,8.55,-0.26,0.71,2.0
1758076308.6788,1758076308.51094,0.0,0.0,0.0,-9.5684,19.36597,-10.37054,9.02,-0.37,0.65,2.0
1758076308.68247,1758076308.52094,0.0,0.0,0.0,-9.39651,20.22541,-12.37589,9.02,-0.37,0.65,2.0
1758076308.69795,1758076308.53094,0.0,0.0,0.0,-8.25059,20.74107,-14.43854,9.07,-0.52,0.58,2.0
1758076308.70146,1758076308.54094,0.0,0.0,0.0,-6.8182,20.62648,-15.35527,9.07,-0.52,0.58,2.0
1758076308.7172,1758076308.55094,0.0,0.0,0.0,-5.15662,20.11082,-15.98552,9.27,-0.71,0.27,2.0
1758076308.73323,1758076308.56094,0.0,0.0,0.0,-2.92208,18.85031,-15.92823,9.27,-0.71,0.27,2.0
1758076308.73407,1758076308.57094,0.0,0.0,0.0,0.97403,14.72501,-15.35527,9.34,-0.93,0.2,2.0
1758076308.7492,1758076308.58094,0.0,0.0,0.0,4.1253,10.94349,-14.15206,9.39,-1.11,0.29,2.0
1758076308.75009,1758076308.59094,0.0,0.0,0.0,7.39116,6.13065,-12.83425,9.39,-1.11,0.29,2.0
1758076308.76496,1758076308.60094,0.0,0.0,0.0,11.17268,-0.74485,-11.17268,9.27,-1.1,0.39,2.0
1758076308.78126,1758076308.61094,0.0,0.0,0.0,16.04282,-20.3973,-7.96411,9.27,-1.1,0.39,2.0
1758076308.78255,1758076308.62094,0.0,0.0,0.0,17.30333,-30.88243,-8.136,8.48,-0.86,0.46,2.0
1758076308.79698,1758076308.63094,0.0,0.0,0.0,19.88164,-39.82057,-6.53172,8.48,-0.86,0.46,2.0
1758076308.81297,1758076308.64094,0.0,0.0,0.0,24.86637,-36.7266,-4.69825,8.98,-0.54,0.8,2.0
1758076308.81527,1758076308.65094,0.0,0.0,0.0,27.67386,-13.75099,-2.11994,11.6,-0.37,1.86,2.0
1758076308.83156,1758076308.66094,0.0,0.0,0.0,29.50733,0.80214,-1.3178,11.6,-0.37,1.86,2.0
1758076308.83354,1758076308.67094,0.0,0.0,0.0,32.37212,2.46372,-1.83346,10.63,-0.06,2.16,2.0
1758076308.85261,1758076308.68094,0.0,0.0,0.0,39.3622,-35.75257,-0.85944,10.63,-0.06,2.16,2.0
1758076308.8535,1758076308.69094,0.0,0.0,0.0,45.37826,-51.50891,3.83882,7.57,-0.16,0.73,2.0
1758076308.86898,1758076308.70094,0.0,0.0,0.0,50.87865,-37.87251,7.62034,7.57,-0.16,0.73,2.0
1758076308.87049,1758076308.71094,0.0,0.0,0.0,54.88936,-14.9542,9.05273,12.81,-1.02,-0.95,2.0
1758076308.88707,1758076308.72094,0.0,0.0,0.0,57.92604,3.09397,8.88085,12.62,-1.02,-0.41,2.0
1758076308.90325,1758076308.73094,0.0,0.0,0.0,57.52497,11.34457,5.72958,12.62,-1.22,-0.41,2.0
1758076308.90592,1758076308.74094,0.0,0.0,0.0,55.57691,19.48057,0.80214,12.42,-0.59,0.98,2.0
1758076308.92285,1758076308.75094,0.0,0.0,0.0,52.65482,26.12688,-4.81285,12.42,-0.59,0.98,2.0
1758076308.92704,1758076308.76094,0.0,0.0,0.0,48.9306,31.85646,-10.65701,12.3,0.17,0.98,2.0
1758076308.94295,1758076308.77094,0.0,0.0,0.0,46.81066,32.77319,-10.94349,12.3,0.17,0.98,2.0
1758076308.94592,1758076308.78094,0.0,0.0,0.0,45.03448,29.73651,-8.25059,12.39,0.31,1.49,2.0
1758076308.96249,1758076308.79094,0.0,0.0,0.0,43.20102,23.37668,-4.0107,12.39,0.31,1.49,2.0
1758076308.96637,1758076308.80094,0.0,0.0,0.0,41.13837,11.45916,6.41713,12.0,0.73,2.16,2.0
1758076308.98244,1758076308.81094,0.0,0.0,0.0,39.3622,4.81285,13.75099,12.32,1.2,2.63,2.0
1758076308.98565,1758076308.82094,0.0,0.0,0.0,36.89849,-1.20321,20.79837,12.32,1.2,2.63,2.0
1758076309.00287,1758076308.83094,0.0,0.0,0.0,33.86181,-6.8182,26.18417,11.84,1.49,2.57,2.0
1758076309.00735,1758076308.84094,0.0,0.0,0.0,28.24682,-13.06344,30.02299,11.84,1.49,2.57,2.0
1758076309.02202,1758076308.85094,0.0,0.0,0.0,24.5226,-16.67307,29.33544,10.4,1.12,2.32,2.0
1758076309.02354,1758076308.86094,0.0,0.0,0.0,21.48592,-20.68378,26.98631,10.4,1.12,2.32,2.0
1758076309.03798,1758076308.87094,0.0,0.0,0.0,19.19409,-24.98096,21.7724,8.96,0.16,2.12,2.0
1758076309.04276,1758076308.88094,0.0,0.0,0.0,19.53786,-25.61122,17.58981,8.32,-0.76,1.97,2.0
1758076309.05862,1758076308.89094,0.0,0.0,0.0,21.08485,-24.98096,13.5218,8.32,-0.76,1.97,2.0
1758076309.06244,1758076308.90094,0.0,0.0,0.0,23.37668,-25.26744,10.31324,7.87,-1.2,2.47,2.0
1758076309.0782,1758076308.91094,0.0,0.0,0.0,28.76248,-27.1582,8.99544,7.87,-1.2,2.47,2.0
1758076309.07927,1758076308.92094,0.0,0.0,0.0,33.63263,-29.04896,10.37054,7.49,-1.14,3.16,2.0
1758076309.09736,1758076308.93094,0.0,0.0,0.0,38.38818,-31.2262,14.49583,7.49,-1.14,3.16,2.0
1758076309.11303,1758076308.94094,0.0,0.0,0.0,43.20102,-31.85646,19.88164,8.04,-0.84,3.73,2.0
1758076309.13725,1758076308.95094,0.0,0.0,0.0,48.64412,-29.62192,26.01229,9.45,-0.58,3.51,2.0
1758076309.1377,1758076308.96094,0.0,0.0,0.0,50.64947,-27.78845,27.84575,9.45,-0.58,3.51,2.0
1758076309.14285,1758076308.97094,0.0,0.0,0.0,51.10783,-24.17882,27.96034,10.55,0.05,2.87,2.0
1758076309.14339,1758076308.98094,0.0,0.0,0.0,50.59217,-17.47521,25.89769,10.55,0.05,2.87,2.0
1758076309.15939,1758076308.99094,0.0,0.0,0.0,47.44091,-6.53172,19.70975,11.25,1.01,1.92,2.0
1758076309.16025,1758076309.00094,0.0,0.0,0.0,44.23235,0.11459,14.03747,11.25,1.01,1.92,2.0
1758076309.17588,1758076309.01094,0.0,0.0,0.0,40.27893,5.95876,8.0787,10.54,1.78,1.67,2.0
1758076309.19282,1758076309.02094,0.0,0.0,0.0,35.92446,11.91752,2.46372,10.54,1.78,1.67,2.0
1758076309.1948,1758076309.03094,0.0,0.0,0.0,29.04896,19.59516,-4.58366,9.87,2.02,1.75,2.0
1758076309.21012,1758076309.04094,0.0,0.0,0.0,24.5226,24.00693,-8.25059,9.63,1.86,1.68,2.0
1758076309.21286,1758076309.05094,0.0,0.0,0.0,20.51189,27.50197,-10.65701,9.63,1.86,1.68,2.0
1758076309.2284,1758076309.06094,0.0,0.0,0.0,16.50119,29.27814,-12.77696,9.44,1.49,1.54,2.0
1758076309.23167,1758076309.07094,0.0,0.0,0.0,11.80293,27.73116,-12.77696,9.44,1.49,1.54,2.0
1758076309.24736,1758076309.08094,0.0,0.0,0.0,9.05273,24.23611,-11.97482,9.08,1.07,1.34,2.0
1758076309.2634,1758076309.09094,0.0,0.0,0.0,6.35983,22.05888,-11.17268,9.08,1.07,1.34,2.0
1758076309.26714,1758076309.10094,0.0,0.0,0.0,3.20856,18.73572,-9.62569,8.87,0.83,1.09,2.0
1758076309.2821,1758076309.11094,0.0,0.0,0.0,1.66158,16.73037,-8.59437,8.75,0.76,0.97,2.0
1758076309.28358,1758076309.12094,0.0,0.0,0.0,-0.0573,15.41257,-8.65166,8.75,0.76,0.97,2.0
1758076309.2981,1758076309.13094,0.0,0.0,0.0,-1.43239,14.43854,-8.65166,8.77,0.84,0.94,2.0
1758076309.3009,1758076309.14094,0.0,0.0,0.0,-3.89611,14.43854,-8.93814,8.77,0.84,0.94,2.0
1758076309.31709,1758076309.15094,0.0,0.0,0.0,-5.4431,14.66772,-9.28192,9.05,0.99,0.84,2.0
1758076309.33322,1758076309.16094,0.0,0.0,0.0,-6.53172,14.49583,-8.76626,9.05,0.99,0.84,2.0
1758076309.33679,1758076309.17094,0.0,0.0,0.0,-7.67763,14.49583,-7.96411,9.15,1.07,0.79,2.0
1758076309.35209,1758076309.18094,0.0,0.0,0.0,-9.22462,13.06344,-5.90147,8.99,1.02,0.57,2.0
1758076309.35335,1758076309.19094,0.0,0.0,0.0,-9.96947,11.34457,-4.23989,8.99,1.02,0.57,2.0
1758076309.36843,1758076309.20094,0.0,0.0,0.0,-10.54242,9.68299,-2.23454,8.85,0.9,0.44,2.0
1758076309.37051,1758076309.21094,0.0,0.0,0.0,-11.17268,8.136,-0.17189,8.85,0.9,0.44,2.0
1758076309.38742,1758076309.22094,0.0,0.0,0.0,-12.37589,9.33921,2.40642,8.9,0.68,0.35,2.0
1758076309.40344,1758076309.23094,0.0,0.0,0.0,-13.12073,12.08941,4.58366,8.9,0.68,0.35,2.0
1758076309.40518,1758076309.24094,0.0,0.0,0.0,-13.5791,15.06879,7.10468,9.19,0.57,0.21,2.0
1758076309.42096,1758076309.25094,0.0,0.0,0.0,-14.78231,17.47521,8.65166,9.19,0.57,0.21,2.0
1758076309.42296,1758076309.26094,0.0,0.0,0.0,-17.36062,13.98017,9.74028,9.38,0.7,0.74,2.0
1758076309.43813,1758076309.27094,0.0,0.0,0.0,-19.99623,6.8182,9.05273,9.01,0.98,0.97,2.0
1758076309.44186,1758076309.28094,0.0,0.0,0.0,-23.0902,-0.80214,7.84952,9.01,0.98,0.97,2.0
1758076309.45744,1758076309.29094,0.0,0.0,0.0,-28.36141,-8.136,5.32851,9.2,1.22,0.76,2.0
1758076309.47323,1758076309.30094,0.0,0.0,0.0,-30.88243,-20.45459,3.32316,9.2,1.22,0.76,2.0
1758076309.47598,1758076309.31094,0.0,0.0,0.0,-32.71589,-27.38738,1.03132,9.04,1.12,0.78,2.0
1758076309.4912,1758076309.32094,0.0,0.0,0.0,-33.34615,-33.05967,-0.80214,9.04,1.12,0.78,2.0
1758076309.49318,1758076309.33094,0.0,0.0,0.0,-35.75257,-41.13837,-4.87014,9.3,0.7,0.92,2.0
1758076309.50841,1758076309.34094,0.0,0.0,0.0,-38.15899,-39.53409,-5.4431,10.17,0.64,0.28,2.0
1758076309.51219,1758076309.35094,0.0,0.0,0.0,-41.36755,-36.7266,-6.99009,10.17,0.64,0.28,2.0
1758076309.52726,1758076309.36094,0.0,0.0,0.0,-45.14908,-33.63263,-5.15662,10.88,0.67,0.25,2.0
1758076309.54324,1758076309.37094,0.0,0.0,0.0,-48.8733,-30.48136,-2.46372,10.88,0.67,0.25,2.0
1758076309.54566,1758076309.38094,0.0,0.0,0.0,-53.39967,-40.10705,-3.55234,10.67,0.78,0.53,2.0
1758076309.56227,1758076309.39094,0.0,0.0,0.0,-56.952,-37.24226,-2.11994,10.67,0.78,0.53,2.0
1758076309.56333,1758076309.40094,0.0,0.0,0.0,-61.24919,-25.7831,-1.03132,11.25,1.14,-0.19,2.0
1758076309.57819,1758076309.41094,0.0,0.0,0.0,-69.78626,-4.81285,-1.71887,12.59,1.72,-0.48,2.0
1758076309.58099,1758076309.42094,0.0,0.0,0.0,-74.54182,2.34913,-2.92208,12.59,1.72,-0.48,2.0
1758076309.59728,1758076309.43094,0.0,0.0,0.0,-77.29202,3.32316,-3.66693,11.85,1.98,0.79,2.0
1758076309.61345,1758076309.44094,0.0,0.0,0.0,-78.7817,0.45837,-5.09932,11.85,1.98,0.79,2.0
1758076309.61396,1758076309.45094,0.0,0.0,0.0,-78.15145,-6.99009,-8.25059,11.89,1.32,1.67,2.0
1758076309.63048,1758076309.46094,0.0,0.0,0.0,-75.91692,-15.46986,-10.8289,11.89,1.32,1.67,2.0
1758076309.63223,1758076309.47094,0.0,0.0,0.0,-73.10942,-27.67386,-15.58445,11.65,0.47,2.25,2.0
1758076309.64734,1758076309.48094,0.0,0.0,0.0,-70.18733,-35.12231,-25.43933,11.65,0.47,2.25,2.0
1758076309.66315,1758076309.49094,0.0,0.0,0.0,-64.40046,-36.38282,-31.85646,12.1,-0.54,2.21,2.0
1758076309.66385,1758076309.50094,0.0,0.0,0.0,-59.98868,-36.38282,-37.12767,12.34,-1.49,1.64,2.0
1758076309.67924,1758076309.51094,0.0,0.0,0.0,-55.34772,-35.86716,-40.04975,12.34,-1.49,1.64,2.0
1758076309.68043,1758076309.52094,0.0,0.0,0.0,-49.21708,-30.59595,-39.99245,11.12,-1.58,1.88,2.0
1758076309.69563,1758076309.53094,0.0,0.0,0.0,-46.06581,-26.18417,-36.7266,11.12,-1.58,1.88,2.0
1758076309.71231,1758076309.54094,0.0,0.0,0.0,-44.57612,-23.49127,-32.20023,9.33,-0.91,2.01,2.0
1758076309.71325,1758076309.55094,0.0,0.0,0.0,-44.63341,-19.25138,-27.2155,9.33,-0.91,2.01,2.0
1758076309.72936,1758076309.56094,0.0,0.0,0.0,-49.15978,-20.22541,-22.11617,8.38,0.03,3.56,2.0
1758076309.73263,1758076309.57094,0.0,0.0,0.0,-52.54023,-16.61578,-21.08485,8.79,0.38,3.89,2.0
1758076309.74853,1758076309.58094,0.0,0.0,0.0,-56.20716,-13.5791,-22.28806,8.79,0.38,3.89,2.0
1758076309.74949,1758076309.59094,0.0,0.0,0.0,-59.24384,-8.136,-23.37668,10.94,0.26,3.66,2.0
1758076309.76453,1758076309.60094,0.0,0.0,0.0,-61.87944,0.45837,-23.31938,10.94,0.26,3.66,2.0
1758076309.78101,1758076309.61094,0.0,0.0,0.0,-62.16592,4.69825,-22.57454,11.53,0.3,2.32,2.0
1758076309.78298,1758076309.62094,0.0,0.0,0.0,-60.79083,12.83425,-20.79837,11.53,0.3,2.32,2.0
1758076309.79864,1758076309.63094,0.0,0.0,0.0,-58.78547,21.25674,-18.85031,11.81,-0.04,1.31,2.0
1758076309.7995,1758076309.64094,0.0,0.0,0.0,-54.25911,31.51268,-14.66772,11.78,-0.73,1.31,2.0
1758076309.81428,1758076309.65094,0.0,0.0,0.0,-50.53488,36.6693,-11.74564,11.78,-0.73,1.31,2.0
1758076309.83107,1758076309.66094,0.0,0.0,0.0,-46.69606,40.10705,-8.02141,10.95,-1.29,1.26,2.0
1758076309.83676,1758076309.67094,0.0,0.0,0.0,-42.91454,42.97184,-4.1253,10.95,-1.29,1.26,2.0
1758076309.85154,1758076309.68094,0.0,0.0,0.0,-37.87251,45.55015,1.83346,9.92,-1.56,0.98,2.0
1758076309.85327,1758076309.69094,0.0,0.0,0.0,-35.12231,47.44091,5.32851,9.92,-1.56,0.98,2.0
1758076309.86859,1758076309.70094,0.0,0.0,0.0,-32.37212,48.30034,8.25059,9.38,-1.55,0.99,2.0
1758076309.86955,1758076309.71094,0.0,0.0,0.0,-28.24682,48.58683,11.11538,9.38,-1.55,0.99,2.0
1758076309.88541,1758076309.72094,0.0,0.0,0.0,-25.55392,47.72739,11.97482,9.03,-1.33,1.13,2.0
1758076309.9036,1758076309.73094,0.0,0.0,0.0,-23.26209,46.40959,12.204,8.65,-0.95,1.21,2.0
1758076309.90405,1758076309.74094,0.0,0.0,0.0,-21.08485,43.88857,11.91752,8.65,-0.95,1.21,2.0
1758076309.91933,1758076309.75094,0.0,0.0,0.0,-18.85031,39.53409,10.02676,8.14,-0.53,1.18,2.0
1758076309.9221,1758076309.76094,0.0,0.0,0.0,-17.36062,35.98175,8.70896,8.14,-0.53,1.18,2.0
1758076309.93731,1758076309.77094,0.0,0.0,0.0,-16.04282,30.19488,7.33386,7.76,-0.19,1.25,2.0
1758076309.94025,1758076309.78094,0.0,0.0,0.0,-14.9542,25.8404,6.53172,7.76,-0.19,1.25,2.0
1758076309.95665,1758076309.79094,0.0,0.0,0.0,-13.12073,18.9649,6.58902,7.66,-0.06,1.07,2.0
1758076309.97259,1758076309.80094,0.0,0.0,0.0,-12.14671,14.43854,6.8182,7.75,-0.09,0.84,2.0
1758076309.97295,1758076309.81094,0.0,0.0,0.0,-11.22997,10.48513,6.35983,7.75,-0.09,0.84,2.0
1758076309.98912,1758076309.82094,0.0,0.0,0.0,-10.08406,5.15662,5.27121,7.92,-0.28,0.64,2.0
1758076309.99355,1758076309.83094,0.0,0.0,0.0,-7.67763,-0.51566,2.63561,7.92,-0.28,0.64,2.0
1758076310.00939,1758076309.84094,0.0,0.0,0.0,-5.84417,-0.51566,0.0,8.38,-0.54,0.44,2.0
1758076310.01357,1758076309.85094,0.0,0.0,0.0,-4.18259,1.83346,-3.09397,8.38,-0.54,0.44,2.0
1758076310.0294,1758076309.86094,0.0,0.0,0.0,-2.00535,5.72958,-6.58902,9.13,-0.72,0.3,2.0
1758076310.0327,1758076309.87094,0.0,0.0,0.0,0.85944,11.63104,-11.51645,9.29,-0.69,0.33,2.0
1758076310.04838,1758076309.88094,0.0,0.0,0.0,2.97938,14.78231,-14.09476,9.29,-0.69,0.33,2.0
1758076310.0496,1758076309.89094,0.0,0.0,0.0,5.15662,17.47521,-15.64175,9.18,-0.55,0.25,2.0
1758076310.06444,1758076309.90094,0.0,0.0,0.0,7.44845,18.33465,-15.98552,9.18,-0.55,0.25,2.0
1758076310.08195,1758076309.91094,0.0,0.0,0.0,11.80293,15.98552,-15.24068,9.07,-0.45,0.43,2.0
1758076310.08319,1758076309.92094,0.0,0.0,0.0,15.0115,13.69369,-13.34992,9.07,-0.45,0.43,2.0
1758076310.09859,1758076309.93094,0.0,0.0,0.0,18.27736,10.65701,-11.34457,9.29,-0.47,0.77,2.0
1758076310.10277,1758076309.94094,0.0,0.0,0.0,23.31938,2.40642,-7.96411,9.29,-0.47,0.77,2.0
1758076310.11842,1758076309.95094,0.0,0.0,0.0,27.10091,-4.52637,-5.32851,9.56,-0.57,1.21,2.0
1758076310.11961,1758076309.96094,0.0,0.0,0.0,31.39809,-11.51645,-2.11994,9.95,-0.71,1.38,2.0
1758076310.13464,1758076309.97094,0.0,0.0,0.0,35.92446,-16.272,1.3178,9.95,-0.71,1.38,2.0
1758076310.15251,1758076309.98094,0.0,0.0,0.0,43.25832,-20.97026,6.47442,10.61,-0.84,1.17,2.0
1758076310.15343,1758076309.99094,0.0,0.0,0.0,48.58683,-24.75178,9.74028,10.61,-0.84,1.17,2.0
1758076310.16879,1758076310.00094,0.0,0.0,0.0,53.45696,-28.07493,12.71966,10.62,-1.01,0.95,2.0
1758076310.16965,1758076310.01094,0.0,0.0,0.0,58.15522,-30.13758,15.0115,10.62,-1.01,0.95,2.0
1758076310.18537,1758076310.02094,0.0,0.0,0.0,64.51505,-31.85646,16.95955,10.79,-1.21,0.71,2.0
1758076310.18795,1758076310.03094,0.0,0.0,0.0,68.52576,-32.20023,16.55848,11.04,-1.25,0.38,2.0
1758076310.20393,1758076310.04094,0.0,0.0,0.0,72.53646,-31.11161,15.12609,11.04,-1.25,0.38,2.0
1758076310.22154,1758076310.05094,0.0,0.0,0.0,75.91692,-27.78845,12.83425,11.85,-1.17,0.52,2.0
1758076310.22245,1758076310.06094,0.0,0.0,0.0,79.29736,-23.0329,10.65701,11.85,-1.17,0.52,2.0
1758076310.23774,1758076310.07094,0.0,0.0,0.0,79.41196,-23.20479,11.17268,12.82,-0.63,1.6,2.0
1758076310.23978,1758076310.08094,0.0,0.0,0.0,78.26604,-26.98631,13.5218,12.82,-0.63,1.6,2.0
1758076310.25564,1758076310.09094,0.0,0.0,0.0,75.57314,-30.59595,16.95955,12.79,0.33,2.81,2.0
1758076310.27145,1758076310.10094,0.0,0.0,0.0,69.95815,-25.89769,23.83505,13.4,1.54,2.87,2.0
1758076310.27274,1758076310.11094,0.0,0.0,0.0,65.83286,-21.60051,27.67386,13.4,1.54,2.87,2.0
1758076310.28749,1758076310.12094,0.0,0.0,0.0,63.99939,-28.99167,34.0337,11.95,2.18,2.53,2.0
1758076310.29116,1758076310.13094,0.0,0.0,0.0,59.47303,-46.1804,38.38818,11.95,2.18,2.53,2.0
1758076310.30738,1758076310.14094,0.0,0.0,0.0,57.29578,-62.85347,39.82057,9.71,1.56,3.23,2.0
1758076310.30949,1758076310.15094,0.0,0.0,0.0,57.0093,-61.59297,43.83128,9.71,1.56,3.23,2.0
1758076310.32584,1758076310.16094,0.0,0.0,0.0,56.37905,-52.25375,43.37291,11.32,0.27,2.48,2.0
1758076310.32746,1758076310.17094,0.0,0.0,0.0,56.37905,-48.58683,38.84654,11.32,0.27,2.48,2.0
1758076310.34404,1758076310.18094,0.0,0.0,0.0,56.60823,-49.27437,33.63263,9.69,-0.7,3.04,2.0
1758076310.35983,1758076310.19094,0.0,0.0,0.0,57.0093,-46.1804,28.01764,8.45,-0.63,3.34,2.0
1758076310.3623,1758076310.20094,0.0,0.0,0.0,57.29578,-38.61736,22.11617,8.45,-0.63,3.34,2.0
1758076310.37762,1758076310.21094,0.0,0.0,0.0,57.63955,-25.21014,14.43854,9.48,0.39,2.9,2.0
1758076310.37983,1758076310.22094,0.0,0.0,0.0,57.81144,-17.53251,11.45916,9.48,0.39,2.9,2.0
1758076310.39679,1758076310.23094,0.0,0.0,0.0,57.18119,-9.62569,9.33921,10.12,1.34,2.41,2.0
1758076310.39766,1758076310.24094,0.0,0.0,0.0,56.20716,-2.23454,8.47978,10.12,1.34,2.41,2.0
1758076310.41411,1758076310.25094,0.0,0.0,0.0,53.80074,9.11003,9.05273,10.43,1.48,1.45,2.0
1758076310.4298,1758076310.26094,0.0,0.0,0.0,51.90998,16.50119,9.62569,10.57,1.03,1.04,2.0
1758076310.43145,1758076310.27094,0.0,0.0,0.0,49.67545,23.54857,9.85487,10.57,1.03,1.04,2.0
1758076310.44721,1758076310.28094,0.0,0.0,0.0,47.38361,29.67921,10.08406,10.23,0.63,0.81,2.0
1758076310.44877,1758076310.29094,0.0,0.0,0.0,44.28964,38.15899,9.4538,10.23,0.63,0.81,2.0
1758076310.46405,1758076310.30094,0.0,0.0,0.0,42.62806,42.68536,8.47978,9.64,0.73,0.8,2.0
1758076310.47982,1758076310.31094,0.0,0.0,0.0,40.96649,47.15443,7.73493,9.64,0.73,0.8,2.0
1758076310.48235,1758076310.32094,0.0,0.0,0.0,39.07573,50.64947,6.41713,9.07,1.1,0.92,2.0
1758076310.49757,1758076310.33094,0.0,0.0,0.0,35.92446,52.82671,4.58366,8.56,1.43,1.21,2.0
1758076310.50113,1758076310.34094,0.0,0.0,0.0,33.63263,51.79538,4.1253,8.56,1.43,1.21,2.0
1758076310.5168,1758076310.35094,0.0,0.0,0.0,30.76784,49.21708,3.89611,8.18,1.47,1.39,2.0
1758076310.51775,1758076310.36094,0.0,0.0,0.0,26.12688,42.97184,4.64096,8.18,1.47,1.39,2.0
1758076310.53414,1758076310.37094,0.0,0.0,0.0,23.20479,36.26823,5.61499,8.07,1.24,1.41,2.0
1758076310.55055,1758076310.38094,0.0,0.0,0.0,20.11082,28.70519,7.04738,8.07,1.24,1.41,2.0
1758076310.55174,1758076310.39094,0.0,0.0,0.0,17.18874,20.51189,8.36518,8.05,0.93,1.36,2.0
1758076310.56732,1758076310.40094,0.0,0.0,0.0,12.60507,9.96947,9.11003,8.05,0.93,1.36,2.0
1758076310.56853,1758076310.41094,0.0,0.0,0.0,9.62569,3.95341,8.65166,8.51,0.82,1.4,2.0
1758076310.58397,1758076310.42094,0.0,0.0,0.0,6.41713,-0.74485,7.16197,8.82,1.01,1.19,2.0
1758076310.59972,1758076310.43094,0.0,0.0,0.0,3.38045,-5.09932,5.78687,8.82,1.01,1.19,2.0
1758076310.60316,1758076310.44094,0.0,0.0,0.0,-1.43239,-10.8289,3.55234,9.0,1.26,1.01,2.0
1758076310.62116,1758076310.45094,0.0,0.0,0.0,-4.81285,-11.97482,2.29183,9.0,1.26,1.01,2.0
1758076310.6224,1758076310.46094,0.0,0.0,0.0,-7.96411,-10.8862,1.71887,9.31,1.39,0.55,2.0
1758076310.63791,1758076310.47094,0.0,0.0,0.0,-11.00079,-8.65166,1.48969,9.31,1.39,0.55,2.0
1758076310.63959,1758076310.48094,0.0,0.0,0.0,-14.9542,-4.1253,2.23454,9.56,1.32,0.16,2.0
1758076310.65536,1758076310.49094,0.0,0.0,0.0,-17.47521,-0.85944,2.6929,9.65,1.12,0.07,2.0
1758076310.67188,1758076310.50094,0.0,0.0,0.0,-19.99623,2.63561,3.55234,9.65,1.12,0.07,2.0
1758076310.67291,1758076310.51094,0.0,0.0,0.0,-22.34536,6.7609,4.35448,9.8,0.91,0.02,2.0
1758076310.68789,1758076310.52094,0.0,0.0,0.0,-26.47065,11.80293,5.90147,9.8,0.91,0.02,2.0
1758076310.69295,1758076310.53094,0.0,0.0,0.0,-29.96569,13.23533,6.35983,9.76,0.72,0.33,2.0
1758076310.70766,1758076310.54094,0.0,0.0,0.0,-33.86181,15.12609,6.18794,9.76,0.72,0.33,2.0
1758076310.70887,1758076310.55094,0.0,0.0,0.0,-37.87251,16.67307,5.72958,9.88,0.69,0.51,2.0
1758076310.72368,1758076310.56094,0.0,0.0,0.0,-44.00316,15.92823,4.69825,10.06,0.67,0.61,2.0
1758076310.73965,1758076310.57094,0.0,0.0,0.0,-48.30034,13.80828,2.92208,10.06,0.67,0.61,2.0
1758076310.74161,1758076310.58094,0.0,0.0,0.0,-52.02457,11.17268,0.45837,10.11,0.64,0.45,2.0
1758076310.75691,1758076310.59094,0.0,0.0,0.0,-55.97798,4.52637,-3.95341,10.11,0.64,0.45,2.0
1758076310.75971,1758076310.60094,0.0,0.0,0.0,-57.46767,-2.34913,-7.84952,10.31,0.45,0.07,2.0
1758076310.77595,1758076310.61094,0.0,0.0,0.0,-57.75415,-8.47978,-11.80293,10.31,0.45,0.07,2.0
1758076310.79194,1758076310.62094,0.0,0.0,0.0,-57.52497,-12.77696,-15.29797,10.81,0.07,0.0,2.0
1758076310.7929,1758076310.63094,0.0,0.0,0.0,-56.49364,-15.29797,-19.88164,11.26,0.07,0.08,2.0
1758076310.80793,1758076310.64094,0.0,0.0,0.0,-55.57691,-15.0115,-21.7724,11.26,-0.19,0.08,2.0
1758076310.80885,1758076310.65094,0.0,0.0,0.0,-54.77477,-14.09476,-22.68913,11.02,-0.27,0.02,2.0
1758076310.82396,1758076310.66094,0.0,0.0,0.0,-54.25911,-12.77696,-22.23076,11.02,-0.27,0.02,2.0
1758076310.84094,1758076310.67094,0.0,0.0,0.0,-54.14451,-12.37589,-18.33465,10.65,-0.12,-0.2,2.0
1758076310.84264,1758076310.68094,0.0,0.0,0.0,-54.66018,-11.97482,-13.86558,10.65,-0.12,-0.2,2.0
1758076310.85796,1758076310.69094,0.0,0.0,0.0,-54.94666,-11.22997,-8.70896,10.58,0.14,-0.06,2.0
1758076310.85889,1758076310.70094,0.0,0.0,0.0,-55.06125,-11.57375,-4.18259,10.58,0.14,-0.06,2.0
1758076310.87554,1758076310.71094,0.0,0.0,0.0,-55.11855,-17.99088,-1.71887,10.8,0.39,0.88,2.0
1758076310.89097,1758076310.72094,0.0,0.0,0.0,-54.66018,-23.54857,-3.09397,10.68,0.48,2.25,2.0
1758076310.89269,1758076310.73094,0.0,0.0,0.0,-53.62885,-27.61657,-5.4431,10.68,0.48,2.25,2.0
1758076310.90798,1758076310.74094,0.0,0.0,0.0,-53.17049,-36.03905,-9.85487,10.55,0.19,2.92,2.0
1758076310.90893,1758076310.75094,0.0,0.0,0.0,-50.3057,-69.27061,-19.25138,10.55,0.19,2.92,2.0
1758076310.92364,1758076310.76094,0.0,0.0,0.0,-48.64412,-82.39134,-23.94964,9.81,-0.14,3.82,2.0
1758076310.9417,1758076310.77094,0.0,0.0,0.0,-48.75871,-66.40582,-31.62727,9.81,-0.14,3.82,2.0
1758076310.94297,1758076310.78094,0.0,0.0,0.0,-49.79003,-32.77319,-37.52874,15.11,-0.41,3.26,2.0
1758076310.95798,1758076310.79094,0.0,0.0,0.0,-50.01921,-30.02299,-37.24226,12.63,0.19,2.91,2.0
1758076310.95978,1758076310.80094,0.0,0.0,0.0,-50.363,-32.37212,-34.49206,12.63,0.19,2.91,2.0
1758076310.97578,1758076310.81094,0.0,0.0,0.0,-50.99325,-32.71589,-29.67921,9.04,0.93,2.82,2.0
1758076310.99277,1758076310.82094,0.0,0.0,0.0,-53.05589,-24.5226,-20.51189,9.04,0.93,2.82,2.0
1758076310.99533,1758076310.83094,0.0,0.0,0.0,-54.94666,-15.87093,-15.64175,9.48,0.78,2.44,2.0
1758076311.01077,1758076310.84094,0.0,0.0,0.0,-56.66553,-8.59437,-13.00614,9.48,0.78,2.44,2.0
1758076311.01194,1758076310.85094,0.0,0.0,0.0,-57.86874,-3.95341,-13.17803,10.3,-0.1,3.45,2.0
1758076311.02674,1758076310.86094,0.0,0.0,0.0,-58.21251,4.69825,-14.83961,10.71,-0.85,2.02,2.0
1758076311.02786,1758076310.87094,0.0,0.0,0.0,-57.29578,11.22997,-15.46986,10.71,-0.85,2.02,2.0
1758076311.04788,1758076310.88094,0.0,0.0,0.0,-54.431,16.55848,-14.72501,10.95,-1.2,0.57,2.0
1758076311.04897,1758076310.89094,0.0,0.0,0.0,-50.59217,23.94964,-13.98017,10.95,-1.2,0.57,2.0
1758076311.06482,1758076310.90094,0.0,0.0,0.0,-42.97184,32.37212,-10.8862,11.23,-1.68,0.48,2.0
1758076311.08185,1758076310.91094,0.0,0.0,0.0,-37.12767,37.64333,-8.70896,11.23,-1.68,0.48,2.0
1758076311.08272,1758076310.92094,0.0,0.0,0.0,-31.28349,40.96649,-5.72958,10.55,-2.01,0.6,2.0
1758076311.09789,1758076310.93094,0.0,0.0,0.0,-26.24147,43.02913,-2.40642,10.55,-2.01,0.6,2.0
1758076311.10288,1758076310.94094,0.0,0.0,0.0,-19.76705,44.57612,3.26586,9.32,-2.08,0.86,2.0
1758076311.11791,1758076310.95094,0.0,0.0,0.0,-15.75634,44.9199,6.7609,8.54,-1.87,1.04,2.0
1758076311.1198,1758076310.96094,0.0,0.0,0.0,-12.14671,44.11775,9.68299,8.54,-1.87,1.04,2.0
1758076311.13582,1758076310.97094,0.0,0.0,0.0,-8.88085,42.28429,12.37589,8.2,-1.65,1.07,2.0
1758076311.15203,1758076310.98094,0.0,0.0,0.0,-4.92744,40.27893,12.37589,8.2,-1.65,1.07,2.0
1758076311.15297,1758076310.99094,0.0,0.0,0.0,-2.97938,38.78925,11.57375,8.27,-1.39,1.3,2.0
1758076311.16806,1758076311.00094,0.0,0.0,0.0,-1.14592,36.61201,10.25595,8.27,-1.39,1.3,2.0
1758076311.17221,1758076311.01094,0.0,0.0,0.0,0.74485,30.36677,6.87549,8.06,-1.02,1.28,2.0
1758076311.18818,1758076311.02094,0.0,0.0,0.0,1.3751,25.26744,3.66693,7.89,-0.57,1.3,2.0
1758076311.18934,1758076311.03094,0.0,0.0,0.0,1.77617,21.94428,0.11459,7.89,-0.57,1.3,2.0
1758076311.20481,1758076311.04094,0.0,0.0,0.0,1.83346,18.79302,-3.20856,8.21,-0.1,1.1,2.0
1758076311.22239,1758076311.05094,0.0,0.0,0.0,1.3751,15.69904,-7.44845,8.21,-0.1,1.1,2.0
1758076311.22362,1758076311.06094,0.0,0.0,0.0,1.3178,14.66772,-8.76626,8.56,0.18,0.97,2.0
1758076311.24006,1758076311.07094,0.0,0.0,0.0,1.08862,13.80828,-9.28192,8.56,0.18,0.97,2.0
1758076311.24264,1758076311.08094,0.0,0.0,0.0,1.14592,12.89155,-8.70896,8.84,0.14,0.82,2.0
1758076311.2578,1758076311.09094,0.0,0.0,0.0,1.3178,12.14671,-7.73493,9.0,-0.09,0.52,2.0
1758076311.2622,1758076311.10094,0.0,0.0,0.0,1.48969,11.45916,-7.16197,9.0,-0.09,0.52,2.0
1758076311.27779,1758076311.11094,0.0,0.0,0.0,1.60428,9.62569,-7.21927,8.99,-0.27,0.29,2.0
1758076311.28013,1758076311.12094,0.0,0.0,0.0,1.60428,8.47978,-7.67763,8.99,-0.27,0.29,2.0
1758076311.29508,1758076311.13094,0.0,0.0,0.0,1.20321,10.08406,-9.68299,9.12,-0.24,0.01,2.0
1758076311.31117,1758076311.14094,0.0,0.0,0.0,0.97403,11.28727,-11.86023,9.12,-0.24,0.01,2.0
1758076311.31202,1758076311.15094,0.0,0.0,0.0,0.74485,12.71966,-14.15206,9.15,-0.06,0.03,2.0
1758076311.32681,1758076311.16094,0.0,0.0,0.0,0.80214,13.23533,-16.272,9.15,-0.06,0.03,2.0
1758076311.32801,1758076311.17094,0.0,0.0,0.0,1.14592,13.46451,-19.42327,9.12,0.11,0.26,2.0
1758076311.34483,1758076311.18094,0.0,0.0,0.0,1.94806,13.00614,-20.74107,9.32,0.12,0.55,2.0
1758076311.36164,1758076311.19094,0.0,0.0,0.0,3.09397,12.08941,-21.7151,9.32,0.12,0.55,2.0
1758076311.36285,1758076311.20094,0.0,0.0,0.0,6.07335,10.37054,-21.48592,9.71,-0.1,0.81,2.0
1758076311.37791,1758076311.21094,0.0,0.0,0.0,9.05273,7.16197,-20.34,9.71,-0.1,0.81,2.0
1758076311.38227,1758076311.22094,0.0,0.0,0.0,12.71966,3.03668,-18.44924,10.04,-0.5,1.08,2.0
1758076311.39791,1758076311.23094,0.0,0.0,0.0,17.47521,-0.74485,-15.58445,10.04,-0.5,1.08,2.0
1758076311.39986,1758076311.24094,0.0,0.0,0.0,25.09555,-4.87014,-10.71431,10.37,-0.78,1.04,2.0
1758076311.41585,1758076311.25094,0.0,0.0,0.0,30.99702,-6.47442,-7.21927,10.86,-0.76,0.99,2.0
1758076311.43292,1758076311.26094,0.0,0.0,0.0,37.47144,-6.47442,-3.95341,10.86,-0.76,0.99,2.0
1758076311.43385,1758076311.27094,0.0,0.0,0.0,44.23235,-4.46907,-0.85944,11.58,-0.73,0.92,2.0
1758076311.45082,1758076311.28094,0.0,0.0,0.0,55.00395,3.26586,3.26586,11.58,-0.73,0.92,2.0
1758076311.45199,1758076311.29094,0.0,0.0,0.0,61.93674,7.21927,5.72958,12.29,-0.9,0.46,2.0
1758076311.4669,1758076311.30094,0.0,0.0,0.0,68.35387,8.02141,7.73493,12.29,-0.9,0.46,2.0
1758076311.46819,1758076311.31094,0.0,0.0,0.0,74.08345,7.33386,9.11003,11.97,-1.15,-0.03,2.0
1758076311.48598,1758076311.32094,0.0,0.0,0.0,80.90164,7.04738,10.71431,12.19,-1.35,-0.26,2.0
1758076311.48887,1758076311.33094,0.0,0.0,0.0,83.93832,6.7609,11.91752,12.19,-1.35,-0.26,2.0
1758076311.50495,1758076311.34094,0.0,0.0,0.0,85.37071,5.4431,13.80828,12.58,-1.14,0.69,2.0
1758076311.52203,1758076311.35094,0.0,0.0,0.0,85.37071,0.80214,16.55848,12.58,-1.14,0.69,2.0
1758076311.52564,1758076311.36094,0.0,0.0,0.0,83.13618,-11.63104,21.7724,12.36,-0.22,2.03,2.0
1758076311.54122,1758076311.37094,0.0,0.0,0.0,79.69843,-24.5226,26.01229,12.36,-0.22,2.03,2.0
1758076311.5429,1758076311.38094,0.0,0.0,0.0,74.771,-36.89849,30.76784,11.58,0.92,2.48,2.0
1758076311.55797,1758076311.39094,0.0,0.0,0.0,68.92683,-46.1231,37.35685,11.58,0.92,2.48,2.0
1758076311.55914,1758076311.40094,0.0,0.0,0.0,59.18654,-38.90384,40.16434,11.53,2.01,2.11,2.0
1758076311.57399,1758076311.41094,0.0,0.0,0.0,52.71212,-21.48592,40.85189,12.47,2.68,2.17,2.0
1758076311.59102,1758076311.42094,0.0,0.0,0.0,46.35228,-7.79223,38.61736,12.47,2.68,2.17,2.0
1758076311.59294,1758076311.43094,0.0,0.0,0.0,35.06502,-25.43933,31.45539,9.12,2.27,3.36,2.0
1758076311.60823,1758076311.44094,0.0,0.0,0.0,30.02299,-57.92604,26.52795,9.12,2.27,3.36,2.0
1758076311.60914,1758076311.45094,0.0,0.0,0.0,26.12688,-79.41196,25.8404,4.5,1.77,3.9,2.0
1758076311.62703,1758076311.46094,0.0,0.0,0.0,21.7151,-72.42187,23.83505,4.5,1.77,3.9,2.0
1758076311.62841,1758076311.47094,0.0,0.0,0.0,16.10011,-52.884,20.45459,9.64,0.78,3.3,2.0
1758076311.64586,1758076311.48094,0.0,0.0,0.0,13.80828,-50.47758,18.79302,9.1,0.17,3.03,2.0
1758076311.64786,1758076311.49094,0.0,0.0,0.0,12.2613,-46.1804,17.18874,9.1,0.17,3.03,2.0
1758076311.66413,1758076311.50094,0.0,0.0,0.0,10.94349,-36.03905,14.9542,9.67,0.11,3.87,2.0
1758076311.68,1758076311.51094,0.0,0.0,0.0,10.8862,-20.16812,10.25595,9.67,0.11,3.87,2.0
1758076311.68226,1758076311.52094,0.0,0.0,0.0,10.8862,-13.17803,9.74028,10.12,0.58,2.81,2.0
1758076311.69722,1758076311.53094,0.0,0.0,0.0,12.08941,-5.95876,11.80293,10.12,0.58,2.81,2.0
1758076311.69814,1758076311.54094,0.0,0.0,0.0,12.83425,3.60963,11.86023,10.66,1.24,2.54,2.0
1758076311.71587,1758076311.55094,0.0,0.0,0.0,13.80828,15.58445,12.14671,10.36,0.95,1.25,2.0
1758076311.73304,1758076311.56094,0.0,0.0,0.0,14.38124,23.0902,11.63104,10.36,0.95,1.25,2.0
1758076311.7372,1758076311.57094,0.0,0.0,0.0,14.49583,30.25217,10.65701,10.37,0.61,1.43,2.0
1758076311.75202,1758076311.58094,0.0,0.0,0.0,14.09476,36.32552,8.70896,10.37,0.61,1.43,2.0
1758076311.75344,1758076311.59094,0.0,0.0,0.0,12.60507,45.43555,5.90147,10.45,0.67,1.54,2.0
1758076311.77124,1758076311.60094,0.0,0.0,0.0,11.00079,50.64947,3.66693,10.45,0.67,1.54,2.0
1758076311.77216,1758076311.61094,0.0,0.0,0.0,8.65166,55.40502,1.77617,10.14,1.08,1.62,2.0
1758076311.78705,1758076311.62094,0.0,0.0,0.0,4.46907,58.04062,-2.06265,10.14,1.08,1.62,2.0
1758076311.78955,1758076311.63094,0.0,0.0,0.0,0.85944,57.58226,-3.66693,9.34,1.44,1.55,2.0
1758076311.83259,1758076311.64094,0.0,0.0,0.0,-2.7502,56.83742,-4.92744,8.7,1.53,1.54,2.0
1758076311.83693,1758076311.65094,0.0,0.0,0.0,-7.39116,56.14987,-6.24524,8.7,1.53,1.54,2.0
1758076311.83803,1758076311.66094,0.0,0.0,0.0,-14.72501,54.25911,-7.44845,8.51,1.54,1.48,2.0
1758076311.84011,1758076311.67094,0.0,0.0,0.0,-19.82434,51.6235,-7.79223,8.51,1.54,1.48,2.0
1758076311.84283,1758076311.68094,0.0,0.0,0.0,-25.15285,45.60744,-7.73493,8.28,1.45,1.51,2.0
1758076311.85805,1758076311.69094,0.0,0.0,0.0,-30.82513,39.3622,-8.99544,8.28,1.45,1.51,2.0
1758076311.86316,1758076311.70094,0.0,0.0,0.0,-37.87251,31.97105,-10.02676,8.19,1.56,1.32,2.0
1758076311.87806,1758076311.71094,0.0,0.0,0.0,-41.99781,26.69983,-10.8862,8.56,1.58,1.42,2.0
1758076311.88279,1758076311.72094,0.0,0.0,0.0,-45.49285,20.34,-11.57375,8.56,1.58,1.42,2.0
1758076311.89807,1758076311.73094,0.0,0.0,0.0,-47.95657,14.78231,-11.57375,8.48,1.42,1.54,2.0
1758076311.92445,1758076311.74094,0.0,0.0,0.0,-49.61814,5.09932,-10.31324,8.48,1.42,1.54,2.0
1758076311.92668,1758076311.75094,0.0,0.0,0.0,-49.50356,0.74485,-8.99544,8.42,0.97,1.51,2.0
1758076311.92793,1758076311.76094,0.0,0.0,0.0,-48.24305,-0.85944,-7.50575,8.42,0.97,1.51,2.0
1758076311.93022,1758076311.77094,0.0,0.0,0.0,-46.1231,-0.45837,-5.09932,8.67,0.28,1.26,2.0
1758076311.94686,1758076311.78094,0.0,0.0,0.0,-42.68536,1.48969,-2.97938,8.93,-0.24,0.92,2.0
1758076311.94804,1758076311.79094,0.0,0.0,0.0,-40.10705,4.35448,-1.94806,8.93,-0.24,0.92,2.0
1758076311.96837,1758076311.80094,0.0,0.0,0.0,-37.81522,6.7609,-0.74485,9.36,-0.32,0.84,2.0
1758076311.97006,1758076311.81094,0.0,0.0,0.0,-35.98175,8.42248,-0.51566,9.36,-0.32,0.84,2.0
1758076311.98775,1758076311.82094,0.0,0.0,0.0,-33.80451,10.59972,-0.17189,9.48,-0.14,0.73,2.0
1758076311.98975,1758076311.83094,0.0,0.0,0.0,-32.77319,11.80293,0.11459,9.48,-0.14,0.73,2.0
1758076312.00539,1758076311.84094,0.0,0.0,0.0,-32.71589,10.54242,0.57296,9.54,0.07,0.96,2.0
1758076312.00975,1758076311.85094,0.0,0.0,0.0,-32.54401,7.79223,2.00535,9.54,0.07,0.96,2.0
1758076312.02534,1758076311.86094,0.0,0.0,0.0,-33.00237,3.83882,3.55234,9.51,0.19,0.82,2.0
1758076312.04209,1758076311.87094,0.0,0.0,0.0,-33.9764,-1.71887,5.27121,9.48,0.15,0.73,2.0
1758076312.04335,1758076311.88094,0.0,0.0,0.0,-34.95043,-5.27121,6.47442,9.48,0.15,0.73,2.0
1758076312.05861,1758076311.89094,0.0,0.0,0.0,-37.35685,-9.62569,7.84952,9.91,0.06,0.64,2.0
1758076312.0601,1758076311.90094,0.0,0.0,0.0,-39.4195,-11.51645,7.33386,9.91,0.06,0.64,2.0
1758076312.077,1758076311.91094,0.0,0.0,0.0,-41.94051,-11.11538,6.18794,10.35,0.02,0.82,2.0
1758076312.07822,1758076311.92094,0.0,0.0,0.0,-44.28964,-9.96947,3.89611,10.35,0.02,0.82,2.0
1758076312.0954,1758076311.93094,0.0,0.0,0.0,-48.75871,-10.59972,0.17189,10.79,0.2,0.91,2.0
1758076312.11137,1758076311.94094,0.0,0.0,0.0,-51.90998,-11.63104,-2.29183,10.65,0.5,0.73,2.0
1758076312.11386,1758076311.95094,0.0,0.0,0.0,-54.88936,-11.63104,-3.72423,10.65,0.5,0.73,2.0
1758076312.13135,1758076311.96094,0.0,0.0,0.0,-57.86874,-10.65701,-5.09932,10.82,0.67,0.31,2.0
1758076312.13569,1758076311.97094,0.0,0.0,0.0,-62.16592,-11.17268,-5.32851,10.82,0.67,0.31,2.0
1758076312.15139,1758076311.98094,0.0,0.0,0.0,-63.94209,-13.06344,-5.15662,10.88,0.75,0.07,2.0
1758076312.15398,1758076311.99094,0.0,0.0,0.0,-64.57235,-16.272,-4.81285,10.88,0.75,0.07,2.0
1758076312.16939,1758076312.00094,0.0,0.0,0.0,-64.17127,-20.68378,-5.50039,11.22,0.63,0.94,2.0
1758076312.17347,1758076312.01094,0.0,0.0,0.0,-60.61894,-33.34615,-8.59437,11.71,0.11,2.16,2.0
1758076312.18912,1758076312.02094,0.0,0.0,0.0,-56.55093,-43.20102,-12.37589,11.71,0.11,2.16,2.0
1758076312.19112,1758076312.03094,0.0,0.0,0.0,-51.6235,-48.52953,-16.272,11.74,-0.78,2.6,2.0
1758076312.20694,1758076312.04094,0.0,0.0,0.0,-42.28429,-53.97263,-23.20479,11.74,-0.78,2.6,2.0
1758076312.21115,1758076312.05094,0.0,0.0,0.0,-35.2942,-76.66176,-28.87707,11.31,-1.64,3.1,2.0
1758076312.22833,1758076312.06094,0.0,0.0,0.0,-28.41871,-88.69387,-31.85646,11.31,-1.64,3.1,2.0
1758076312.23326,1758076312.07094,0.0,0.0,0.0,-24.00693,-75.05748,-35.98175,11.63,-2.27,3.23,2.0
1758076312.25144,1758076312.08094,0.0,0.0,0.0,-21.6578,-44.40423,-38.84654,11.63,-2.27,3.23,2.0
1758076312.25237,1758076312.09094,0.0,0.0,0.0,-21.37133,-41.65404,-37.64333,13.82,-1.64,2.77,2.0
1758076312.2674,1758076312.10094,0.0,0.0,0.0,-21.7151,-41.88322,-34.49206,9.26,-0.04,3.39,2.0
1758076312.27153,1758076312.11094,0.0,0.0,0.0,-21.6578,-43.65939,-30.13758,9.26,-0.04,3.39,2.0
1758076312.28841,1758076312.12094,0.0,0.0,0.0,-22.11617,-42.74266,-26.12688,8.29,0.57,3.46,2.0
1758076312.29019,1758076312.13094,0.0,0.0,0.0,-23.49127,-34.14828,-24.5226,8.29,0.57,3.46,2.0
1758076312.30542,1758076312.14094,0.0,0.0,0.0,-24.92367,-25.38203,-21.02755,10.44,0.1,4.14,2.0
1758076312.32219,1758076312.15094,0.0,0.0,0.0,-26.47065,-20.11082,-17.87628,10.44,0.1,4.14,2.0
1758076312.32342,1758076312.16094,0.0,0.0,0.0,-27.38738,-11.97482,-13.5218,10.29,0.0,3.15,2.0
1758076312.33839,1758076312.17094,0.0,0.0,0.0,-27.04361,-6.99009,-10.25595,10.28,-0.08,1.83,2.0
1758076312.34256,1758076312.18094,0.0,0.0,0.0,-25.7831,-1.08862,-8.02141,10.28,-0.08,1.83,2.0
1758076312.35817,1758076312.19094,0.0,0.0,0.0,-22.86102,6.24524,-5.72958,10.65,-0.47,1.59,2.0
1758076312.36017,1758076312.20094,0.0,0.0,0.0,-17.76169,16.272,-3.09397,10.65,-0.47,1.59,2.0
1758076312.37603,1758076312.21094,0.0,0.0,0.0,-14.15206,21.14215,-1.20321,10.48,-0.93,1.47,2.0
1758076312.39249,1758076312.22094,0.0,0.0,0.0,-11.17268,26.12688,0.51566,10.48,-0.93,1.47,2.0
1758076312.39446,1758076312.23094,0.0,0.0,0.0,-8.59437,29.9084,2.92208,10.09,-1.27,1.47,2.0
1758076312.41185,1758076312.24094,0.0,0.0,0.0,-4.64096,35.00772,6.47442,9.66,-1.35,1.25,2.0
1758076312.41599,1758076312.25094,0.0,0.0,0.0,-2.11994,38.27358,9.05273,9.66,-1.35,1.25,2.0
1758076312.43144,1758076312.26094,0.0,0.0,0.0,0.0,40.45082,11.11538,9.49,-1.31,1.17,2.0
1758076312.43321,1758076312.27094,0.0,0.0,0.0,2.7502,43.14373,13.17803,9.49,-1.31,1.17,2.0
1758076312.44813,1758076312.28094,0.0,0.0,0.0,4.1253,44.63341,13.17803,9.29,-1.09,1.06,2.0
1758076312.44937,1758076312.29094,0.0,0.0,0.0,5.50039,44.57612,12.37589,9.29,-1.09,1.06,2.0
1758076312.46446,1758076312.30094,0.0,0.0,0.0,6.13065,42.91454,11.28727,8.76,-0.7,1.08,2.0
1758076312.48258,1758076312.31094,0.0,0.0,0.0,7.04738,38.90384,8.59437,8.76,-0.7,1.08,2.0
1758076312.48346,1758076312.32094,0.0,0.0,0.0,7.50575,36.61201,6.87549,8.23,-0.29,1.2,2.0
1758076312.49972,1758076312.33094,0.0,0.0,0.0,7.44845,32.71589,4.69825,8.03,-0.02,1.18,2.0
1758076312.50207,1758076312.34094,0.0,0.0,0.0,7.50575,29.96569,2.57831,8.03,-0.02,1.18,2.0
1758076312.51754,1758076312.35094,0.0,0.0,0.0,8.59437,26.41335,0.51566,8.25,0.05,1.26,2.0
1758076312.51847,1758076312.36094,0.0,0.0,0.0,9.62569,23.60586,0.11459,8.25,0.05,1.26,2.0
1758076312.53526,1758076312.37094,0.0,0.0,0.0,10.94349,20.62648,0.0573,8.39,-0.11,1.13,2.0
1758076312.55126,1758076312.38094,0.0,0.0,0.0,12.49048,17.81899,0.40107,8.39,-0.11,1.13,2.0
1758076312.55245,1758076312.39094,0.0,0.0,0.0,14.66772,13.86558,0.45837,8.54,-0.33,0.86,2.0
1758076312.56759,1758076312.40094,0.0,0.0,0.0,16.272,12.77696,0.0573,8.72,-0.4,0.52,2.0
1758076312.56873,1758076312.41094,0.0,0.0,0.0,17.30333,13.00614,-1.03132,8.72,-0.4,0.52,2.0
1758076312.58524,1758076312.42094,0.0,0.0,0.0,17.93358,13.46451,-2.6929,8.95,-0.29,0.29,2.0
1758076312.60222,1758076312.43094,0.0,0.0,0.0,18.44924,13.17803,-6.07335,8.95,-0.29,0.29,2.0
1758076312.60362,1758076312.44094,0.0,0.0,0.0,18.62113,12.54778,-8.76626,8.87,-0.1,0.35,2.0
1758076312.61855,1758076312.45094,0.0,0.0,0.0,18.85031,11.28727,-10.94349,8.87,-0.1,0.35,2.0
1758076312.61978,1758076312.46094,0.0,0.0,0.0,18.90761,8.42248,-13.5791,8.83,-0.07,0.5,2.0
1758076312.63454,1758076312.47094,0.0,0.0,0.0,19.53786,2.29183,-14.20935,9.02,-0.12,0.85,2.0
1758076312.65135,1758076312.48094,0.0,0.0,0.0,20.68378,-1.3751,-14.15206,9.02,-0.12,0.85,2.0
1758076312.6531,1758076312.49094,0.0,0.0,0.0,22.23076,-4.23989,-13.46451,9.65,-0.19,0.98,2.0
1758076312.66917,1758076312.50094,0.0,0.0,0.0,25.55392,-10.08406,-11.00079,9.65,-0.19,0.98,2.0
1758076312.67292,1758076312.51094,0.0,0.0,0.0,28.59059,-13.80828,-8.70896,9.92,-0.21,0.99,2.0
1758076312.68918,1758076312.52094,0.0,0.0,0.0,32.14294,-15.92823,-6.58902,9.92,-0.21,0.99,2.0
1758076312.69265,1758076312.53094,0.0,0.0,0.0,35.63798,-16.73037,-4.81285,10.25,-0.2,0.83,2.0
1758076312.70937,1758076312.54094,0.0,0.0,0.0,41.48215,-18.62113,-2.92208,10.31,-0.2,0.76,2.0
1758076312.71269,1758076312.55094,0.0,0.0,0.0,45.72203,-17.6471,-2.23454,10.31,-0.21,0.76,2.0
1758076312.72834,1758076312.56094,0.0,0.0,0.0,50.2484,-13.98017,-1.3751,10.93,-0.33,0.61,2.0
1758076312.72953,1758076312.57094,0.0,0.0,0.0,55.06125,-7.39116,-0.34377,10.93,-0.33,0.61,2.0
1758076312.7454,1758076312.58094,0.0,0.0,0.0,62.85347,2.97938,1.3178,11.66,-0.67,0.5,2.0
1758076312.76236,1758076312.59094,0.0,0.0,0.0,68.58305,6.47442,3.20856,11.66,-0.67,0.5,2.0
1758076312.76352,1758076312.60094,0.0,0.0,0.0,74.771,6.41713,5.32851,11.32,-1.09,0.28,2.0
1758076312.77834,1758076312.61094,0.0,0.0,0.0,81.07353,5.72958,6.99009,11.32,-1.09,0.28,2.0
1758076312.77953,1758076312.62094,0.0,0.0,0.0,90.41274,6.35983,9.5684,10.98,-1.47,-0.11,2.0
1758076312.79528,1758076312.63094,0.0,0.0,0.0,96.77258,7.67763,11.00079,11.38,-1.6,0.16,2.0
1758076312.81157,1758076312.64094,0.0,0.0,0.0,101.24165,7.04738,12.08941,11.38,-1.6,0.16,2.0
1758076312.81256,1758076312.65094,0.0,0.0,0.0,103.93455,3.60963,13.23533,11.44,-1.03,1.29,2.0
1758076312.82764,1758076312.66094,0.0,0.0,0.0,102.44486,-5.90147,14.49583,11.44,-1.03,1.29,2.0
1758076312.82855,1758076312.67094,0.0,0.0,0.0,97.28824,-16.10011,15.75634,11.24,0.45,2.63,2.0
1758076312.84542,1758076312.68094,0.0,0.0,0.0,91.55866,-21.60051,18.73572,11.24,0.45,2.63,2.0
1758076312.86143,1758076312.69094,0.0,0.0,0.0,81.24542,-20.74107,26.18417,12.03,1.98,2.98,2.0
1758076312.86288,1758076312.70094,0.0,0.0,0.0,72.99483,-18.10547,32.54401,13.52,2.95,3.26,2.0
1758076312.87738,1758076312.71094,0.0,0.0,0.0,65.37449,-17.47521,38.73195,13.52,2.95,3.26,2.0
1758076312.87881,1758076312.72094,0.0,0.0,0.0,58.72818,-26.24147,43.65939,12.16,3.51,3.98,2.0
1758076312.89747,1758076312.73094,0.0,0.0,0.0,51.85268,-43.60209,45.14908,12.16,3.51,3.98,2.0
1758076312.89836,1758076312.74094,0.0,0.0,0.0,48.35764,-47.09713,42.57077,9.06,2.66,2.86,2.0
1758076312.91635,1758076312.75094,0.0,0.0,0.0,45.89392,-44.57612,37.35685,9.06,2.66,2.86,2.0
1758076312.93234,1758076312.76094,0.0,0.0,0.0,44.748,-43.94586,30.65324,8.38,0.22,2.93,2.0
1758076312.93628,1758076312.77094,0.0,0.0,0.0,45.03448,-49.38896,26.98631,8.28,-0.64,3.66,2.0
1758076312.95168,1758076312.78094,0.0,0.0,0.0,45.77933,-43.54479,25.72581,8.28,-0.64,3.66,2.0
1758076312.95262,1758076312.79094,0.0,0.0,0.0,46.40959,-34.66395,24.4653,10.08,-0.45,3.25,2.0
1758076312.96765,1758076312.80094,0.0,0.0,0.0,47.38361,-28.70519,24.12152,10.08,-0.45,3.25,2.0
1758076312.96935,1758076312.81094,0.0,0.0,0.0,49.04519,-21.7151,23.94964,9.59,0.2,3.37,2.0
1758076312.98828,1758076312.82094,0.0,0.0,0.0,49.67545,-15.92823,23.60586,9.59,0.2,3.37,2.0
1758076312.99323,1758076312.83094,0.0,0.0,0.0,49.50356,-9.39651,22.86102,10.0,0.88,2.83,2.0
1758076313.01043,1758076312.84094,0.0,0.0,0.0,48.8733,-3.03668,21.6578,10.0,0.88,2.83,2.0
1758076313.0116,1758076312.85094,0.0,0.0,0.0,46.63877,6.41713,19.07949,10.39,1.46,2.07,2.0
1758076313.02756,1758076312.86094,0.0,0.0,0.0,44.28964,12.71966,16.61578,10.47,1.75,1.64,2.0
1758076313.02839,1758076312.87094,0.0,0.0,0.0,40.96649,18.62113,13.12073,10.47,1.75,1.64,2.0
1758076313.04568,1758076312.88094,0.0,0.0,0.0,37.01308,26.52795,7.04738,10.34,1.82,1.53,2.0
1758076313.0623,1758076312.89094,0.0,0.0,0.0,30.88243,38.21629,1.77617,10.34,1.82,1.53,2.0
1758076313.0655,1758076312.90094,0.0,0.0,0.0,26.75713,43.88857,-2.6929,10.22,1.97,1.38,2.0
1758076313.12759,1758076312.91094,0.0,0.0,0.0,22.74642,46.52417,-6.8182,10.22,1.97,1.38,2.0
1758076313.13764,1758076312.92094,0.0,0.0,0.0,17.76169,46.69606,-9.96947,9.76,2.15,1.37,2.0
1758076313.13812,1758076312.93094,0.0,0.0,0.0,14.61043,45.60744,-9.96947,9.56,1.97,1.31,2.0
1758076313.1424,1758076312.94094,0.0,0.0,0.0,11.57375,44.51882,-9.5684,9.56,1.97,1.31,2.0
1758076313.14294,1758076312.95094,0.0,0.0,0.0,8.76626,42.05511,-8.25059,9.27,1.5,1.37,2.0
