timeStamp,timeStampAlign,roll,pitch,yaw,gyro_x,gyro_y,gyro_z,acc_x,acc_y,acc_z,flag_num
1758075341.73682,1758075341.71506,0.0,0.0,0.0,29.73651,93.90779,12.43318,6.26,2.31,0.32,2.0
1758075341.73964,1758075341.72506,0.0,0.0,0.0,22.51724,89.20953,8.93814,6.42,1.47,0.38,2.0
1758075341.75602,1758075341.73506,0.0,0.0,0.0,14.66772,85.02695,3.49504,6.42,1.47,0.38,2.0
1758075341.77368,1758075341.74506,0.0,0.0,0.0,6.58902,82.04756,-2.46372,8.1,1.06,0.61,2.0
1758075341.77647,1758075341.75506,0.0,0.0,0.0,-5.55769,74.25533,-14.09476,8.1,1.06,0.61,2.0
1758075341.78057,1758075341.76506,0.0,0.0,0.0,-12.60507,63.13995,-22.74642,9.65,0.79,0.66,2.0
1758075341.79713,1758075341.77506,0.0,0.0,0.0,-19.59516,51.5662,-28.64789,9.65,0.79,0.66,2.0
1758075341.79849,1758075341.78506,0.0,0.0,0.0,-27.84575,44.46153,-38.61736,10.21,1.0,0.53,2.0
1758075341.81437,1758075341.79506,0.0,0.0,0.0,-38.21629,36.89849,-46.35228,10.81,2.04,0.44,2.0
1758075341.83548,1758075341.80506,0.0,0.0,0.0,-44.40423,28.36141,-46.86795,10.81,2.04,0.44,2.0
1758075341.83797,1758075341.81506,0.0,0.0,0.0,-50.2484,18.50654,-43.88857,10.31,2.94,0.07,2.0
1758075341.84431,1758075341.82506,0.0,0.0,0.0,-55.34772,10.59972,-39.76327,10.31,2.94,0.07,2.0
1758075341.86239,1758075341.83506,0.0,0.0,0.0,-61.30648,-3.49504,-29.9084,9.78,2.97,-0.73,2.0
1758075341.8628,1758075341.84506,0.0,0.0,0.0,-64.91612,-16.38659,-23.0902,9.78,2.97,-0.73,2.0
1758075341.87842,1758075341.85506,0.0,0.0,0.0,-67.60902,-31.62727,-16.04282,8.98,2.5,-1.51,2.0
1758075341.87935,1758075341.86506,0.0,0.0,0.0,-70.47381,-48.07116,-6.99009,8.98,2.5,-1.51,2.0
1758075341.89412,1758075341.87506,0.0,0.0,0.0,-72.19269,-50.53488,-3.20856,8.79,1.48,-2.14,2.0
1758075341.91013,1758075341.88506,0.0,0.0,0.0,-75.22936,-27.78845,-5.4431,13.06,0.65,-2.08,2.0
1758075341.91306,1758075341.89506,0.0,0.0,0.0,-73.45319,-7.84952,-0.34377,13.06,0.65,-2.08,2.0
1758075341.92893,1758075341.90506,0.0,0.0,0.0,-78.38063,-56.32175,-9.05273,11.06,0.17,-1.32,2.0
1758075341.93013,1758075341.91506,0.0,0.0,0.0,-79.52654,-81.5319,-14.78231,11.06,0.17,-1.32,2.0
1758075341.94537,1758075341.92506,0.0,0.0,0.0,-82.04756,-80.1568,-19.13679,9.69,0.72,-3.17,2.0
1758075341.96141,1758075341.93506,0.0,0.0,0.0,-86.975,-71.04677,-21.31403,9.69,0.72,-3.17,2.0
1758075341.96185,1758075341.94506,0.0,0.0,0.0,-92.3035,-70.24463,-18.73572,10.71,1.23,-1.71,2.0
1758075341.97716,1758075341.95506,0.0,0.0,0.0,-93.16295,-80.90164,-16.95955,7.6,1.11,3.19,2.0
1758075341.97872,1758075341.96506,0.0,0.0,0.0,-90.81382,-100.95516,-18.44924,7.6,1.11,3.19,2.0
1758075341.99315,1758075341.97506,0.0,0.0,0.0,-87.26147,-126.56638,-25.61122,8.8,-0.55,6.95,2.0
1758075342.01325,1758075341.98506,0.0,0.0,0.0,-78.839,-137.68176,-42.28429,8.8,-0.55,6.95,2.0
1758075342.01379,1758075341.99506,0.0,0.0,0.0,-69.95815,-127.54041,-52.82671,14.98,-3.35,6.21,2.0
1758075342.02943,1758075342.00506,0.0,0.0,0.0,-61.07731,-122.49837,-62.28051,14.98,-3.35,6.21,2.0
1758075342.03037,1758075342.01506,0.0,0.0,0.0,-56.20716,-120.60761,-70.76029,14.58,-5.16,4.0,2.0
1758075342.04615,1758075342.02506,0.0,0.0,0.0,-56.37905,-102.21567,-76.60446,11.06,-3.17,1.65,2.0
1758075342.04816,1758075342.03506,0.0,0.0,0.0,-60.33246,-83.65184,-72.70835,11.06,-3.17,1.65,2.0
1758075342.06432,1758075342.04506,0.0,0.0,0.0,-62.85347,-64.22858,-60.90542,10.37,-0.5,0.05,2.0
1758075342.06622,1758075342.05506,0.0,0.0,0.0,-66.74959,-43.65939,-34.32018,10.37,-0.5,0.05,2.0
1758075342.08374,1758075342.06506,0.0,0.0,0.0,-68.69764,-10.8862,-14.43854,11.24,0.85,-0.95,2.0
1758075342.10027,1758075342.07506,0.0,0.0,0.0,-67.15066,8.47978,4.64096,11.24,0.85,-0.95,2.0
1758075342.10121,1758075342.08506,0.0,0.0,0.0,-63.13995,26.52795,20.22541,11.47,1.13,-1.94,2.0
1758075342.1205,1758075342.09506,0.0,0.0,0.0,-57.0093,52.76942,34.14828,11.47,1.13,-1.94,2.0
1758075342.12257,1758075342.10506,0.0,0.0,0.0,-51.27972,66.40582,37.58603,11.43,0.13,-1.39,2.0
1758075342.14009,1758075342.11506,0.0,0.0,0.0,-44.28964,75.68773,36.49741,10.73,-1.31,-0.67,2.0
1758075342.14294,1758075342.12506,0.0,0.0,0.0,-35.63798,81.87567,33.00237,10.73,-1.31,-0.67,2.0
1758075342.15989,1758075342.13506,0.0,0.0,0.0,-21.37133,80.72976,24.75178,8.9,-2.8,-0.72,2.0
1758075342.16131,1758075342.14506,0.0,0.0,0.0,-12.2613,75.91692,18.22006,8.9,-2.8,-0.72,2.0
1758075342.17857,1758075342.15506,0.0,0.0,0.0,-2.86479,71.27596,11.91752,6.62,-3.85,-0.83,2.0
1758075342.18044,1758075342.16506,0.0,0.0,0.0,7.04738,67.26525,6.70361,6.62,-3.85,-0.83,2.0
1758075342.19558,1758075342.17506,0.0,0.0,0.0,19.53786,61.99404,1.66158,5.79,-4.07,-0.83,2.0
1758075342.19923,1758075342.18506,0.0,0.0,0.0,28.01764,61.02001,1.03132,6.53,-3.36,-0.62,2.0
1758075342.21616,1758075342.19506,0.0,0.0,0.0,35.86716,62.68159,2.29183,6.53,-3.36,-0.62,2.0
1758075342.22057,1758075342.20506,0.0,0.0,0.0,43.60209,63.42643,4.52637,8.21,-2.34,-0.57,2.0
1758075342.23528,1758075342.21506,0.0,0.0,0.0,51.79538,58.15522,9.11003,8.21,-2.34,-0.57,2.0
1758075342.23645,1758075342.22506,0.0,0.0,0.0,57.86874,51.10783,13.86558,9.09,-1.42,-0.21,2.0
1758075342.25183,1758075342.23506,0.0,0.0,0.0,63.25455,47.49821,19.13679,9.09,-1.42,-0.21,2.0
1758075342.26985,1758075342.24506,0.0,0.0,0.0,67.55173,47.95657,23.89234,10.5,-1.01,-0.45,2.0
1758075342.27109,1758075342.25506,0.0,0.0,0.0,71.44785,44.57612,29.04896,10.96,-0.88,-0.06,2.0
1758075342.28653,1758075342.26506,0.0,0.0,0.0,73.73967,37.64333,30.82513,10.96,-0.88,-0.06,2.0
1758075342.28748,1758075342.27506,0.0,0.0,0.0,75.80232,29.27814,30.82513,10.12,-0.86,-0.33,2.0
1758075342.30476,1758075342.28506,0.0,0.0,0.0,77.92226,12.71966,28.76248,10.12,-0.86,-0.33,2.0
1758075342.32058,1758075342.29506,0.0,0.0,0.0,78.7817,-5.15662,26.64254,9.22,-0.88,-1.07,2.0
1758075342.32233,1758075342.30506,0.0,0.0,0.0,78.49522,-26.12688,23.0902,9.22,-0.88,-1.07,2.0
1758075342.33894,1758075342.31506,0.0,0.0,0.0,79.01089,-35.92446,19.19409,8.44,-0.88,-1.83,2.0
1758075342.34086,1758075342.32506,0.0,0.0,0.0,81.01624,-31.97105,14.72501,8.44,-0.88,-1.83,2.0
1758075342.35794,1758075342.33506,0.0,0.0,0.0,82.33404,-25.72581,12.54778,11.06,-0.8,-1.87,2.0
1758075342.36073,1758075342.34506,0.0,0.0,0.0,83.25077,-16.95955,12.2613,12.54,-0.74,-1.88,2.0
1758075342.40751,1758075342.35506,0.0,0.0,0.0,81.5319,-5.95876,9.5684,12.54,-0.74,-1.88,2.0
1758075342.40924,1758075342.36506,0.0,0.0,0.0,81.24542,-14.38124,3.60963,12.61,-0.55,-1.2,2.0
1758075342.40992,1758075342.37506,0.0,0.0,0.0,83.59455,-50.64947,0.45837,12.61,-0.55,-1.2,2.0
1758075342.41122,1758075342.38506,0.0,0.0,0.0,85.94368,-100.26762,0.51566,6.42,-0.6,-2.98,2.0
1758075342.41177,1758075342.39506,0.0,0.0,0.0,91.21489,-118.65957,9.39651,6.42,-0.6,-2.98,2.0
1758075342.42966,1758075342.40506,0.0,0.0,0.0,92.81918,-115.3364,13.40721,9.71,-1.69,-0.66,2.0
1758075342.43087,1758075342.41506,0.0,0.0,0.0,90.12627,-126.96745,18.22006,11.59,-0.47,2.94,2.0
1758075342.44638,1758075342.42506,0.0,0.0,0.0,83.88103,-144.61456,25.49662,11.59,-0.47,2.94,2.0
1758075342.44766,1758075342.43506,0.0,0.0,0.0,76.66176,-153.89647,36.49741,14.5,3.16,6.18,2.0
1758075342.46301,1758075342.44506,0.0,0.0,0.0,68.41116,-144.15619,53.34238,14.5,3.16,6.18,2.0
1758075342.47874,1758075342.45506,0.0,0.0,0.0,64.57235,-127.08205,60.44705,18.0,5.19,1.87,2.0
1758075342.48004,1758075342.46506,0.0,0.0,0.0,62.85347,-106.34097,61.99404,18.0,5.19,1.87,2.0
1758075342.4944,1758075342.47506,0.0,0.0,0.0,64.80153,-82.16215,57.12389,13.17,1.6,1.86,2.0
1758075342.51038,1758075342.48506,0.0,0.0,0.0,68.58305,-42.28429,49.50356,8.85,-1.83,0.22,2.0
1758075342.51399,1758075342.49506,0.0,0.0,0.0,72.82294,-16.55848,38.38818,8.85,-1.83,0.22,2.0
1758075342.52963,1758075342.50506,0.0,0.0,0.0,76.48987,5.90147,21.88699,8.1,-3.35,-0.38,2.0
1758075342.53063,1758075342.51506,0.0,0.0,0.0,81.87567,40.27893,-1.66158,8.1,-3.35,-0.38,2.0
1758075342.54548,1758075342.52506,0.0,0.0,0.0,82.56322,64.91612,-13.23533,10.25,-3.36,-0.88,2.0
1758075342.5474,1758075342.53506,0.0,0.0,0.0,80.90164,87.14688,-20.68378,10.25,-3.36,-0.88,2.0
1758075342.56471,1758075342.54506,0.0,0.0,0.0,76.48987,107.02851,-25.15285,11.98,-1.5,-1.24,2.0
1758075342.58048,1758075342.55506,0.0,0.0,0.0,66.97877,119.46171,-23.31938,11.69,-1.5,-1.4,2.0
1758075342.58322,1758075342.56506,0.0,0.0,0.0,58.78547,118.94605,-18.50654,11.69,2.39,-1.4,2.0
1758075342.59854,1758075342.57506,0.0,0.0,0.0,50.01921,114.99265,-12.08941,10.59,5.08,-0.98,2.0
1758075342.60127,1758075342.58506,0.0,0.0,0.0,41.13837,111.32571,-5.55769,10.59,5.08,-0.98,2.0
1758075342.61884,1758075342.59506,0.0,0.0,0.0,27.50197,108.17444,3.49504,8.36,3.94,-0.29,2.0
1758075342.61997,1758075342.60506,0.0,0.0,0.0,18.27736,106.79934,7.39116,8.36,3.94,-0.29,2.0
1758075342.63558,1758075342.61506,0.0,0.0,0.0,8.02141,103.93455,9.11003,6.38,2.36,0.32,2.0
1758075342.6365,1758075342.62506,0.0,0.0,0.0,-2.11994,97.05905,8.47978,6.38,2.36,0.32,2.0
1758075342.65285,1758075342.63506,0.0,0.0,0.0,-17.6471,88.00632,2.63561,5.96,1.84,0.54,2.0
1758075342.6693,1758075342.64506,0.0,0.0,0.0,-28.41871,82.27674,-4.29718,7.7,1.54,0.64,2.0
1758075342.67162,1758075342.65506,0.0,0.0,0.0,-37.29956,72.42187,-13.06344,7.7,1.54,0.64,2.0
1758075342.68678,1758075342.66506,0.0,0.0,0.0,-44.9199,58.90006,-18.62113,8.75,1.64,0.37,2.0
1758075342.68852,1758075342.67506,0.0,0.0,0.0,-57.0093,55.06125,-33.34615,8.75,1.64,0.37,2.0
1758075342.70378,1758075342.68506,0.0,0.0,0.0,-63.65561,54.14451,-39.82057,9.9,1.98,0.54,2.0
1758075342.71978,1758075342.69506,0.0,0.0,0.0,-67.9528,45.26366,-41.88322,9.9,1.98,0.54,2.0
1758075342.72076,1758075342.70506,0.0,0.0,0.0,-72.70835,24.29341,-39.53409,9.38,1.8,0.24,2.0
1758075342.7358,1758075342.71506,0.0,0.0,0.0,-73.51049,9.96947,-35.2942,8.67,0.94,-0.56,2.0
1758075342.73759,1758075342.72506,0.0,0.0,0.0,-73.16672,-3.26586,-28.93437,8.67,0.94,-0.56,2.0
1758075342.75378,1758075342.73506,0.0,0.0,0.0,-72.47916,-14.49583,-21.7151,8.93,0.09,-1.84,2.0
1758075342.76981,1758075342.74506,0.0,0.0,0.0,-70.24463,-18.27736,-8.25059,8.93,0.09,-1.84,2.0
1758075342.77073,1758075342.75506,0.0,0.0,0.0,-67.66632,-5.78687,-4.46907,11.06,-0.28,-1.68,2.0
1758075342.78585,1758075342.76506,0.0,0.0,0.0,-66.06203,10.71431,-1.43239,11.06,-0.28,-1.68,2.0
1758075342.78915,1758075342.77506,0.0,0.0,0.0,-59.12925,9.28192,5.50039,13.38,-0.71,-1.28,2.0
1758075342.8054,1758075342.78506,0.0,0.0,0.0,-57.46767,-46.40959,2.11994,8.57,-0.62,-1.48,2.0
1758075342.80731,1758075342.79506,0.0,0.0,0.0,-57.23849,-64.85883,-3.95341,8.57,-0.62,-1.48,2.0
1758075342.8238,1758075342.80506,0.0,0.0,0.0,-56.89471,-64.45775,-6.18794,11.27,-0.08,-3.44,2.0
1758075342.84087,1758075342.81506,0.0,0.0,0.0,-57.81144,-54.94666,-8.02141,11.27,-0.08,-3.44,2.0
1758075342.84374,1758075342.82506,0.0,0.0,0.0,-62.56699,-45.49285,-5.32851,11.08,0.37,-2.08,2.0
1758075342.85912,1758075342.83506,0.0,0.0,0.0,-65.71826,-44.57612,-1.94806,11.08,0.37,-2.08,2.0
1758075342.86065,1758075342.84506,0.0,0.0,0.0,-66.80688,-49.61814,1.3751,8.75,0.56,-0.05,2.0
1758075342.87665,1758075342.85506,0.0,0.0,0.0,-64.28587,-64.57235,2.7502,8.75,0.56,-0.05,2.0
1758075342.88154,1758075342.86506,0.0,0.0,0.0,-55.57691,-105.30964,-3.03668,7.51,0.37,3.86,2.0
1758075342.89687,1758075342.87506,0.0,0.0,0.0,-49.21708,-125.59235,-14.78231,10.26,-0.73,6.78,2.0
1758075342.89779,1758075342.88506,0.0,0.0,0.0,-42.68536,-125.36317,-29.22085,10.26,-0.73,6.78,2.0
1758075342.91423,1758075342.89506,0.0,0.0,0.0,-32.6013,-117.57095,-52.42564,15.83,-2.49,5.46,2.0
1758075342.9296,1758075342.90506,0.0,0.0,0.0,-29.39274,-106.74203,-65.77556,15.83,-2.49,5.46,2.0
1758075342.93173,1758075342.91506,0.0,0.0,0.0,-30.30947,-98.49145,-76.43258,13.56,-3.61,3.48,2.0
1758075342.94683,1758075342.92506,0.0,0.0,0.0,-32.77319,-87.14688,-80.67246,13.56,-3.61,3.48,2.0
1758075342.94942,1758075342.93506,0.0,0.0,0.0,-35.63798,-67.89551,-71.84892,10.72,-1.96,1.1,2.0
1758075342.96464,1758075342.94506,0.0,0.0,0.0,-37.35685,-49.27437,-56.66553,10.85,0.01,0.51,2.0
1758075342.98089,1758075342.95506,0.0,0.0,0.0,-36.6693,-30.48136,-38.15899,10.85,0.01,0.51,2.0
1758075342.98297,1758075342.96506,0.0,0.0,0.0,-33.17426,-15.46986,-18.50654,10.84,0.79,0.12,2.0
1758075342.99764,1758075342.97506,0.0,0.0,0.0,-23.0902,5.50039,8.25059,10.84,0.79,0.12,2.0
1758075342.9989,1758075342.98506,0.0,0.0,0.0,-14.83961,21.6578,21.37133,10.81,0.33,-0.34,2.0
1758075343.01392,1758075342.99506,0.0,0.0,0.0,-6.41713,39.53409,30.53865,10.81,0.33,-0.34,2.0
1758075343.03096,1758075343.00506,0.0,0.0,0.0,2.23454,56.37905,35.52338,11.5,-1.34,-1.14,2.0
1758075343.03216,1758075343.01506,0.0,0.0,0.0,14.03747,71.16136,37.29956,10.38,-2.94,-1.94,2.0
1758075343.04794,1758075343.02506,0.0,0.0,0.0,19.59516,72.13539,34.37747,10.38,-2.94,-1.94,2.0
1758075343.04978,1758075343.03506,0.0,0.0,0.0,23.37668,71.73432,28.64789,8.15,-3.56,-1.98,2.0
1758075343.06467,1758075343.04506,0.0,0.0,0.0,24.75178,72.13539,21.94428,8.15,-3.56,-1.98,2.0
1758075343.08072,1758075343.05506,0.0,0.0,0.0,27.84575,73.68237,13.40721,7.68,-3.07,-1.61,2.0
1758075343.0854,1758075343.06506,0.0,0.0,0.0,30.59595,74.65641,10.37054,7.68,-3.07,-1.61,2.0
1758075343.10101,1758075343.07506,0.0,0.0,0.0,35.06502,77.57849,9.4538,7.67,-1.71,-0.49,2.0
1758075343.10455,1758075343.08506,0.0,0.0,0.0,40.62271,80.78706,10.65701,7.67,-1.71,-0.49,2.0
1758075343.12,1758075343.09506,0.0,0.0,0.0,49.90463,79.64114,13.23533,8.16,-0.82,-0.09,2.0
1758075343.12116,1758075343.10506,0.0,0.0,0.0,56.78012,73.73967,17.53251,8.55,-0.85,-0.26,2.0
1758075343.13582,1758075343.11506,0.0,0.0,0.0,62.5097,69.49979,21.7724,8.55,-0.85,-0.26,2.0
1758075343.13962,1758075343.12506,0.0,0.0,0.0,68.92683,65.89015,27.04361,9.52,-1.44,-0.5,2.0
1758075343.15509,1758075343.13506,0.0,0.0,0.0,71.16136,62.96807,29.22085,9.52,-1.44,-0.5,2.0
1758075343.16021,1758075343.14506,0.0,0.0,0.0,72.19269,55.34772,30.48136,9.82,-1.67,0.21,2.0
1758075343.17604,1758075343.15506,0.0,0.0,0.0,72.0208,42.05511,30.13758,9.82,-1.67,0.21,2.0
1758075343.17717,1758075343.16506,0.0,0.0,0.0,69.95815,23.83505,26.41335,8.85,-1.36,-0.32,2.0
1758075343.19307,1758075343.17506,0.0,0.0,0.0,68.69764,18.10547,22.34536,9.24,-0.71,-1.03,2.0
1758075343.20978,1758075343.18506,0.0,0.0,0.0,69.21331,15.0115,19.25138,9.24,-0.71,-1.03,2.0
1758075343.21286,1758075343.19506,0.0,0.0,0.0,69.3279,8.02141,15.58445,9.82,-0.08,-0.81,2.0
1758075343.22936,1758075343.20506,0.0,0.0,0.0,70.58841,-1.94806,13.12073,9.82,-0.08,-0.81,2.0
1758075343.23254,1758075343.21506,0.0,0.0,0.0,69.27061,-3.03668,10.08406,10.37,0.03,-1.2,2.0
1758075343.24811,1758075343.22506,0.0,0.0,0.0,66.11933,2.34913,8.30789,10.37,0.03,-1.2,2.0
1758075343.24901,1758075343.23506,0.0,0.0,0.0,63.02536,3.89611,4.52637,12.18,0.03,-0.87,2.0
1758075343.26488,1758075343.24506,0.0,0.0,0.0,61.76485,-55.51962,-2.6929,7.44,-0.39,-1.55,2.0
1758075343.26715,1758075343.25506,0.0,0.0,0.0,62.62429,-105.19505,2.92208,7.44,-0.39,-1.55,2.0
1758075343.28404,1758075343.26506,0.0,0.0,0.0,63.99939,-115.79478,10.08406,9.25,-1.46,-2.53,2.0
1758075343.30009,1758075343.27506,0.0,0.0,0.0,66.17663,-109.43494,13.06344,9.25,-1.46,-2.53,2.0
1758075343.30294,1758075343.28506,0.0,0.0,0.0,66.69229,-104.04914,13.69369,11.37,-1.57,-1.01,2.0
1758075343.31802,1758075343.29506,0.0,0.0,0.0,62.05133,-109.77872,12.54778,11.37,-1.57,-1.01,2.0
1758075343.31933,1758075343.30506,0.0,0.0,0.0,54.02992,-119.69088,11.80293,9.27,-0.24,2.71,2.0
1758075343.33489,1758075343.31506,0.0,0.0,0.0,39.01843,-134.47321,15.98552,9.27,-0.24,2.71,2.0
1758075343.35111,1758075343.32506,0.0,0.0,0.0,30.25217,-148.79715,24.17882,9.75,2.63,3.1,2.0
1758075343.35203,1758075343.33506,0.0,0.0,0.0,23.31938,-145.76047,34.0337,13.51,5.18,3.24,2.0
1758075343.36721,1758075343.34506,0.0,0.0,0.0,17.47521,-133.72836,42.34158,13.51,5.18,3.24,2.0
1758075343.36971,1758075343.35506,0.0,0.0,0.0,13.5791,-109.83601,50.64947,15.12,4.02,2.44,2.0
1758075343.38502,1758075343.36506,0.0,0.0,0.0,15.0115,-90.18356,52.08187,15.12,4.02,2.44,2.0
1758075343.4012,1758075343.37506,0.0,0.0,0.0,19.42327,-67.37984,50.59217,11.93,0.15,1.45,2.0
1758075343.4021,1758075343.38506,0.0,0.0,0.0,25.89769,-41.48215,45.14908,11.93,0.15,1.45,2.0
1758075343.41719,1758075343.39506,0.0,0.0,0.0,36.49741,-0.97403,27.1582,10.25,-2.64,-0.12,2.0
1758075343.41837,1758075343.40506,0.0,0.0,0.0,42.74266,22.51724,10.08406,10.99,-3.85,-1.33,2.0
1758075343.43311,1758075343.41506,0.0,0.0,0.0,46.98254,45.77933,-5.09932,10.99,-3.85,-1.33,2.0
1758075343.44988,1758075343.42506,0.0,0.0,0.0,49.96192,67.9528,-17.99088,12.05,-3.5,-1.64,2.0
1758075343.45291,1758075343.43506,0.0,0.0,0.0,52.48294,93.27753,-30.88243,12.05,-3.5,-1.64,2.0
1758075343.46822,1758075343.44506,0.0,0.0,0.0,53.34238,104.04914,-33.9764,12.48,-1.2,-1.6,2.0
1758075343.46993,1758075343.45506,0.0,0.0,0.0,54.08722,111.15382,-33.17426,12.48,-1.2,-1.6,2.0
1758075343.48491,1758075343.46506,0.0,0.0,0.0,54.3164,115.3364,-29.96569,11.58,1.08,-0.89,2.0
1758075343.50097,1758075343.47506,0.0,0.0,0.0,54.3737,115.90937,-22.63183,9.88,1.6,-0.26,2.0
1758075343.50449,1758075343.48506,0.0,0.0,0.0,54.48829,114.59156,-15.64175,9.88,1.6,-0.26,2.0
1758075343.52022,1758075343.49506,0.0,0.0,0.0,53.11319,110.69545,-8.36518,7.71,1.04,0.18,2.0
1758075343.52457,1758075343.50506,0.0,0.0,0.0,50.82136,103.53348,2.00535,7.71,1.04,0.18,2.0
1758075343.53995,1758075343.51506,0.0,0.0,0.0,44.748,90.81382,7.33386,6.05,0.69,0.43,2.0
1758075343.54297,1758075343.52506,0.0,0.0,0.0,39.01843,83.42266,9.91217,6.05,0.69,0.43,2.0
1758075343.55792,1758075343.53506,0.0,0.0,0.0,30.13758,77.4639,9.33921,6.21,0.85,0.53,2.0
1758075343.55923,1758075343.54506,0.0,0.0,0.0,14.78231,64.22858,2.86479,6.21,0.85,0.53,2.0
1758075343.57508,1758075343.55506,0.0,0.0,0.0,4.69825,46.40959,-4.0107,6.89,1.47,0.4,2.0
1758075343.59203,1758075343.56506,0.0,0.0,0.0,-7.39116,37.87251,-13.46451,7.56,2.14,0.34,2.0
1758075343.59533,1758075343.57506,0.0,0.0,0.0,-18.56383,33.68992,-25.38203,7.56,2.14,0.34,2.0
1758075343.60025,1758075343.58506,0.0,0.0,0.0,-32.83048,29.50733,-38.38818,8.89,2.57,0.11,2.0
1758075343.61836,1758075343.59506,0.0,0.0,0.0,-40.7946,23.49127,-43.65939,8.89,2.57,0.11,2.0
1758075343.62111,1758075343.60506,0.0,0.0,0.0,-46.81066,16.90226,-45.83662,9.01,2.43,-0.46,2.0
1758075343.63711,1758075343.61506,0.0,0.0,0.0,-51.45161,9.5684,-45.83662,9.01,2.43,-0.46,2.0
1758075343.64068,1758075343.62506,0.0,0.0,0.0,-55.23313,-5.27121,-41.25296,9.11,1.63,-1.91,2.0
1758075343.65708,1758075343.63506,0.0,0.0,0.0,-56.83742,-17.76169,-36.6693,9.38,1.25,-3.39,2.0
1758075343.65799,1758075343.64506,0.0,0.0,0.0,-56.952,-32.08564,-30.25217,9.38,1.25,-3.39,2.0
1758075343.67329,1758075343.65506,0.0,0.0,0.0,-58.26981,-37.64333,-22.57454,11.18,1.58,-3.19,2.0
1758075343.69047,1758075343.66506,0.0,0.0,0.0,-57.18119,-9.11003,-19.82434,11.18,1.58,-3.19,2.0
1758075343.69122,1758075343.67506,0.0,0.0,0.0,-53.05589,7.10468,-12.60507,16.41,1.24,-2.4,2.0
1758075343.70703,1758075343.68506,0.0,0.0,0.0,-54.66018,-26.64254,-15.24068,16.41,1.24,-2.4,2.0
1758075343.70964,1758075343.69506,0.0,0.0,0.0,-54.25911,-62.56699,-14.49583,11.32,1.22,-1.45,2.0
1758075343.7253,1758075343.70506,0.0,0.0,0.0,-53.51426,-74.88559,-15.24068,11.66,1.3,-3.61,2.0
1758075343.7429,1758075343.71506,0.0,0.0,0.0,-55.23313,-69.84356,-13.98017,11.66,1.3,-3.61,2.0
1758075343.74491,1758075343.72506,0.0,0.0,0.0,-57.63955,-70.13004,-12.14671,10.05,1.31,-1.37,2.0
1758075343.76009,1758075343.73506,0.0,0.0,0.0,-58.67088,-91.15759,-11.17268,10.05,1.31,-1.37,2.0
1758075343.7647,1758075343.74506,0.0,0.0,0.0,-56.20716,-113.33105,-15.46986,6.71,0.91,3.24,2.0
1758075343.78037,1758075343.75506,0.0,0.0,0.0,-52.71212,-136.24936,-25.21014,6.71,0.91,3.24,2.0
1758075343.7852,1758075343.76506,0.0,0.0,0.0,-49.21708,-149.71388,-39.13302,8.72,-0.89,6.2,2.0
1758075343.80037,1758075343.77506,0.0,0.0,0.0,-42.51347,-142.20813,-60.61894,8.72,-0.89,6.2,2.0
1758075343.80382,1758075343.78506,0.0,0.0,0.0,-37.52874,-133.95753,-72.88023,14.46,-3.81,6.53,2.0
1758075343.81939,1758075343.79506,0.0,0.0,0.0,-35.98175,-130.4052,-83.19347,13.62,-5.34,4.45,2.0
1758075343.82062,1758075343.80506,0.0,0.0,0.0,-38.21629,-121.35246,-90.06896,13.62,-5.34,4.45,2.0
1758075343.83534,1758075343.81506,0.0,0.0,0.0,-43.94586,-97.57471,-85.02695,11.83,-2.84,1.66,2.0
1758075343.85272,1758075343.82506,0.0,0.0,0.0,-47.44091,-77.52119,-70.93218,11.83,-2.84,1.66,2.0
1758075343.85476,1758075343.83506,0.0,0.0,0.0,-50.59217,-53.45696,-51.85268,12.19,0.06,-0.41,2.0
1758075343.87041,1758075343.84506,0.0,0.0,0.0,-52.02457,-26.35606,-29.33544,12.19,0.06,-0.41,2.0
1758075343.8755,1758075343.85506,0.0,0.0,0.0,-47.15443,6.70361,4.23989,13.4,1.48,-1.78,2.0
1758075343.8901,1758075343.86506,0.0,0.0,0.0,-42.39888,28.59059,22.68913,12.66,1.57,-2.32,2.0
1758075343.89214,1758075343.87506,0.0,0.0,0.0,-37.18496,50.93595,35.92446,12.66,1.57,-2.32,2.0
1758075343.90743,1758075343.88506,0.0,0.0,0.0,-32.42941,70.6457,44.23235,11.19,0.53,-2.0,2.0
1758075343.90929,1758075343.89506,0.0,0.0,0.0,-25.7831,92.41809,49.38896,11.19,0.53,-2.0,2.0
1758075343.92413,1758075343.90506,0.0,0.0,0.0,-20.74107,102.78864,48.41494,9.91,-0.89,-1.39,2.0
1758075343.94044,1758075343.91506,0.0,0.0,0.0,-14.78231,108.80469,44.17505,9.91,-0.89,-1.39,2.0
1758075343.94219,1758075343.92506,0.0,0.0,0.0,-5.72958,107.94526,34.49206,8.96,-2.09,-0.83,2.0
1758075343.95794,1758075343.93506,0.0,0.0,0.0,-0.34377,98.83522,25.49662,7.17,-2.78,-0.53,2.0
1758075343.95943,1758075343.94506,0.0,0.0,0.0,5.09932,89.83979,16.04282,7.17,-2.78,-0.53,2.0
1758075343.97416,1758075343.95506,0.0,0.0,0.0,10.71431,83.65184,7.67763,6.15,-2.77,-0.08,2.0
1758075343.99046,1758075343.96506,0.0,0.0,0.0,19.76705,82.56322,-1.94806,6.15,-2.77,-0.08,2.0
1758075343.9945,1758075343.97506,0.0,0.0,0.0,26.24147,83.88103,-4.58366,6.69,-2.27,-0.13,2.0
1758075344.0102,1758075343.98506,0.0,0.0,0.0,32.42941,82.67782,-5.72958,6.69,-2.27,-0.13,2.0
1758075344.01249,1758075343.99506,0.0,0.0,0.0,38.90384,73.91156,-3.03668,6.84,-1.94,-0.13,2.0
1758075344.02749,1758075344.00506,0.0,0.0,0.0,51.27972,65.43179,5.78687,7.66,-1.94,-0.85,2.0
1758075344.03008,1758075344.01506,0.0,0.0,0.0,58.21251,65.03072,14.20935,7.66,-1.77,-0.85,2.0
1758075344.04557,1758075344.02506,0.0,0.0,0.0,63.54102,63.48372,21.31403,9.48,-1.42,-0.99,2.0
1758075344.04733,1758075344.03506,0.0,0.0,0.0,67.03606,59.75951,27.73116,9.48,-1.42,-0.99,2.0
1758075344.06354,1758075344.04506,0.0,0.0,0.0,68.98412,43.20102,33.74722,9.74,-0.78,-0.58,2.0
1758075344.07953,1758075344.05506,0.0,0.0,0.0,68.29657,30.13758,34.0337,9.74,-0.78,-0.58,2.0
1758075344.08047,1758075344.06506,0.0,0.0,0.0,66.97877,24.4653,32.42941,9.48,-0.21,-1.31,2.0
1758075344.09938,1758075344.07506,0.0,0.0,0.0,64.80153,23.0329,28.59059,9.48,-0.21,-1.31,2.0
1758075344.10526,1758075344.08506,0.0,0.0,0.0,62.85347,20.45459,22.86102,10.43,0.07,-1.37,2.0
1758075344.12692,1758075344.09506,0.0,0.0,0.0,62.5097,15.69904,19.70975,10.33,-0.15,-1.1,2.0
1758075344.14979,1758075344.10506,0.0,0.0,0.0,61.59297,6.58902,16.90226,10.33,-0.15,-1.1,2.0
1758075344.15041,1758075344.11506,0.0,0.0,0.0,59.47303,4.29718,13.23533,10.61,-0.51,-1.43,2.0
1758075344.15239,1758075344.12506,0.0,0.0,0.0,53.45696,18.10547,8.47978,10.61,-0.51,-1.43,2.0
1758075344.1531,1758075344.13506,0.0,0.0,0.0,50.99325,8.0787,2.23454,12.2,-0.61,-0.87,2.0
1758075344.17033,1758075344.14506,0.0,0.0,0.0,50.64947,-24.35071,0.40107,12.2,-0.61,-0.87,2.0
1758075344.17176,1758075344.15506,0.0,0.0,0.0,52.54023,-89.55331,6.70361,7.3,-1.01,-2.33,2.0
1758075344.19029,1758075344.16506,0.0,0.0,0.0,53.74345,-98.54874,13.5791,9.78,-2.01,-2.09,2.0
1758075344.19179,1758075344.17506,0.0,0.0,0.0,55.29043,-95.28289,17.93358,9.78,-2.01,-2.09,2.0
1758075344.20633,1758075344.18506,0.0,0.0,0.0,55.51962,-95.62666,19.59516,11.19,-1.98,-0.87,2.0
1758075344.20865,1758075344.19506,0.0,0.0,0.0,47.49821,-108.05984,19.76705,11.19,-1.98,-0.87,2.0
1758075344.22565,1758075344.20506,0.0,0.0,0.0,37.64333,-120.20655,22.51724,10.77,-0.06,2.95,2.0
1758075344.23053,1758075344.21506,0.0,0.0,0.0,26.41335,-135.56183,27.44468,10.77,-0.06,2.95,2.0
1758075344.2474,1758075344.22506,0.0,0.0,0.0,15.46986,-146.39073,36.21093,13.37,4.26,3.55,2.0
1758075344.24915,1758075344.23506,0.0,0.0,0.0,4.46907,-138.77039,49.90463,17.06,6.59,2.72,2.0
1758075344.26446,1758075344.24506,0.0,0.0,0.0,1.20321,-126.56638,52.65482,17.06,6.59,2.72,2.0
1758075344.28064,1758075344.25506,0.0,0.0,0.0,3.38045,-117.39906,51.5662,13.38,2.6,3.12,2.0
1758075344.28411,1758075344.26506,0.0,0.0,0.0,8.99544,-105.30964,46.75336,13.38,2.6,3.12,2.0
1758075344.29938,1758075344.27506,0.0,0.0,0.0,24.12152,-78.7244,34.77854,9.15,-1.23,2.78,2.0
1758075344.30084,1758075344.28506,0.0,0.0,0.0,36.03905,-53.51426,23.94964,9.15,-1.23,2.78,2.0
1758075344.31575,1758075344.29506,0.0,0.0,0.0,47.38361,-26.64254,11.91752,8.04,-3.66,-0.04,2.0
1758075344.31728,1758075344.30506,0.0,0.0,0.0,56.37905,-3.26586,-1.20321,8.04,-3.66,-0.04,2.0
1758075344.33419,1758075344.31506,0.0,0.0,0.0,63.54102,35.98175,-19.19409,8.92,-5.12,-0.77,2.0
1758075344.35065,1758075344.32506,0.0,0.0,0.0,63.42643,63.42643,-26.81443,12.23,-4.73,-1.25,2.0
1758075344.35441,1758075344.33506,0.0,0.0,0.0,61.07731,87.94903,-30.48136,12.23,-4.73,-1.25,2.0
1758075344.36964,1758075344.34506,0.0,0.0,0.0,55.11855,105.19505,-30.02299,13.06,-1.66,-1.97,2.0
1758075344.37062,1758075344.35506,0.0,0.0,0.0,50.47758,118.71685,-26.75713,13.06,-1.66,-1.97,2.0
1758075344.38543,1758075344.36506,0.0,0.0,0.0,45.43555,124.38914,-21.37133,12.27,2.77,-1.52,2.0
1758075344.38932,1758075344.37506,0.0,0.0,0.0,41.48215,127.31123,-15.0115,12.27,2.77,-1.52,2.0
1758075344.40439,1758075344.38506,0.0,0.0,0.0,35.06502,126.45179,-6.07335,10.56,4.7,-0.78,2.0
1758075344.42069,1758075344.39506,0.0,0.0,0.0,30.30947,122.67027,-0.40107,7.48,3.59,0.28,2.0
1758075344.42481,1758075344.40506,0.0,0.0,0.0,24.35071,117.34176,3.95341,7.48,3.59,0.28,2.0
1758075344.44045,1758075344.41506,0.0,0.0,0.0,16.84496,110.81004,7.04738,6.0,2.33,0.84,2.0
1758075344.44675,1758075344.42506,0.0,0.0,0.0,2.29183,99.35089,7.16197,6.0,2.33,0.84,2.0
1758075344.4487,1758075344.43506,0.0,0.0,0.0,-9.62569,91.73055,4.0107,6.31,1.84,0.95,2.0
1758075344.46465,1758075344.44506,0.0,0.0,0.0,-22.40265,81.30271,-2.57831,6.31,1.84,0.95,2.0
1758075344.48063,1758075344.45506,0.0,0.0,0.0,-34.95043,66.5204,-10.19865,7.31,1.74,0.59,2.0
1758075344.48564,1758075344.46506,0.0,0.0,0.0,-54.71747,52.884,-26.01229,8.46,1.99,0.03,2.0
1758075344.50043,1758075344.47506,0.0,0.0,0.0,-64.62964,50.53488,-35.40879,8.46,1.99,0.03,2.0
1758075344.50484,1758075344.48506,0.0,0.0,0.0,-74.14074,48.70141,-45.49285,9.7,2.43,-0.22,2.0
1758075344.52074,1758075344.49506,0.0,0.0,0.0,-80.1568,38.84654,-50.01921,9.7,2.43,-0.22,2.0
1758075344.52517,1758075344.50506,0.0,0.0,0.0,-86.05827,19.53786,-51.39432,8.45,2.37,-0.42,2.0
1758075344.54305,1758075344.51506,0.0,0.0,0.0,-85.94368,5.15662,-47.49821,8.45,2.37,-0.42,2.0
1758075344.54518,1758075344.52506,0.0,0.0,0.0,-84.56858,-8.42248,-41.25296,8.06,1.5,-1.35,2.0
1758075344.56074,1758075344.53506,0.0,0.0,0.0,-82.27674,-19.07949,-26.18417,8.06,1.5,-1.35,2.0
1758075344.56482,1758075344.54506,0.0,0.0,0.0,-74.771,-2.63561,-20.85567,9.43,0.05,-1.61,2.0
1758075344.58083,1758075344.55506,0.0,0.0,0.0,-71.73432,7.73493,-15.41257,12.62,-1.19,-1.97,2.0
1758075344.60987,1758075344.56506,0.0,0.0,0.0,-65.83286,17.81899,-8.02141,12.62,-1.19,-1.97,2.0
1758075344.61023,1758075344.57506,0.0,0.0,0.0,-63.19725,-38.1017,-8.59437,10.94,-0.83,-1.22,2.0
1758075344.61144,1758075344.58506,0.0,0.0,0.0,-60.96271,-63.31184,-11.63104,10.94,-0.83,-1.22,2.0
1758075344.61694,1758075344.59506,0.0,0.0,0.0,-57.58226,-63.25455,-15.06879,11.24,0.0,-3.09,2.0
1758075344.62527,1758075344.60506,0.0,0.0,0.0,-56.26446,-55.97798,-17.81899,11.24,0.0,-3.09,2.0
1758075344.64079,1758075344.61506,0.0,0.0,0.0,-58.72818,-50.3057,-17.6471,12.89,0.45,-1.65,2.0
1758075344.64492,1758075344.62506,0.0,0.0,0.0,-61.87944,-48.75871,-14.49583,10.38,0.56,-1.18,2.0
1758075344.68492,1758075344.63506,0.0,0.0,0.0,-65.03072,-48.07116,-9.4538,10.38,0.56,-1.18,2.0
1758075344.68589,1758075344.64506,0.0,0.0,0.0,-67.32255,-53.39967,-4.29718,7.83,0.52,0.24,2.0
1758075344.68697,1758075344.65506,0.0,0.0,0.0,-67.03606,-83.42266,1.43239,7.83,0.52,0.24,2.0
1758075344.68845,1758075344.66506,0.0,0.0,0.0,-63.48372,-117.34176,0.57296,5.51,0.11,4.1,2.0
1758075344.69077,1758075344.67506,0.0,0.0,0.0,-61.07731,-148.33879,-8.76626,5.51,0.11,4.1,2.0
1758075344.70928,1758075344.68506,0.0,0.0,0.0,-58.78547,-155.44345,-23.37668,9.13,-0.73,6.36,2.0
1758075344.71017,1758075344.69506,0.0,0.0,0.0,-56.49364,-126.85285,-48.24305,18.1,-1.8,5.06,2.0
1758075344.72587,1758075344.70506,0.0,0.0,0.0,-55.40502,-112.01324,-64.91612,18.1,-1.8,5.06,2.0
1758075344.72871,1758075344.71506,0.0,0.0,0.0,-56.37905,-98.83522,-76.66176,16.15,-2.56,2.52,2.0
1758075344.77241,1758075344.72506,0.0,0.0,0.0,-65.83286,-91.043,-82.16215,16.15,-2.56,2.52,2.0
1758075344.7768,1758075344.73506,0.0,0.0,0.0,-66.34852,-62.22322,-76.31798,12.42,-0.68,-0.29,2.0
1758075344.77733,1758075344.74506,0.0,0.0,0.0,-69.3279,-36.38282,-60.38975,12.42,-0.68,-0.29,2.0
1758075344.77896,1758075344.75506,0.0,0.0,0.0,-70.87489,-11.45916,-40.68,12.96,1.12,-0.67,2.0
1758075344.77936,1758075344.76506,0.0,0.0,0.0,-67.26525,8.99544,-8.02141,12.96,1.12,-0.67,2.0
1758075344.79995,1758075344.77506,0.0,0.0,0.0,-62.28051,31.74186,11.34457,11.39,1.56,-1.07,2.0
1758075344.8048,1758075344.78506,0.0,0.0,0.0,-56.83742,44.28964,26.18417,10.26,0.77,-0.58,2.0
1758075344.81985,1758075344.79506,0.0,0.0,0.0,-51.6235,57.0093,35.86716,10.26,0.77,-0.58,2.0
1758075344.82403,1758075344.80506,0.0,0.0,0.0,-44.17505,71.73432,40.39353,10.08,-0.84,-0.24,2.0
1758075344.83992,1758075344.81506,0.0,0.0,0.0,-37.87251,79.46925,37.98711,10.08,-0.84,-0.24,2.0
1758075344.84434,1758075344.82506,0.0,0.0,0.0,-30.59595,81.5892,33.86181,9.49,-2.62,-0.52,2.0
1758075344.85988,1758075344.83506,0.0,0.0,0.0,-23.0329,76.48987,27.73116,9.49,-2.62,-0.52,2.0
1758075344.86351,1758075344.84506,0.0,0.0,0.0,-11.86023,68.29657,16.50119,6.68,-3.47,-1.02,2.0
1758075344.88048,1758075344.85506,0.0,0.0,0.0,-3.83882,68.75494,10.37054,6.06,-3.5,-1.13,2.0
1758075344.88301,1758075344.86506,0.0,0.0,0.0,4.18259,72.42187,5.84417,6.06,-3.5,-1.13,2.0
1758075344.89905,1758075344.87506,0.0,0.0,0.0,12.54778,76.31798,3.72423,6.72,-2.92,-1.1,2.0
1758075344.90085,1758075344.88506,0.0,0.0,0.0,24.98096,81.36001,2.97938,6.72,-2.92,-1.1,2.0
1758075344.91944,1758075344.89506,0.0,0.0,0.0,33.11696,79.98491,5.4431,7.44,-2.1,-0.86,2.0
1758075344.92065,1758075344.90506,0.0,0.0,0.0,41.71133,77.92226,10.48513,7.44,-2.1,-0.86,2.0
1758075344.94026,1758075344.91506,0.0,0.0,0.0,48.12846,77.75038,16.84496,8.66,-1.59,-0.96,2.0
1758075344.94501,1758075344.92506,0.0,0.0,0.0,54.94666,74.7137,26.52795,10.16,-1.27,-0.68,2.0
1758075344.96,1758075344.93506,0.0,0.0,0.0,57.29578,67.89551,32.6013,10.16,-1.27,-0.68,2.0
1758075344.96092,1758075344.94506,0.0,0.0,0.0,57.92604,56.26446,37.81522,10.11,-1.05,-0.27,2.0
1758075344.97643,1758075344.95506,0.0,0.0,0.0,55.6342,43.94586,39.01843,10.11,-1.05,-0.27,2.0
1758075344.97879,1758075344.96506,0.0,0.0,0.0,50.76406,40.50812,37.75792,10.28,-0.68,-0.69,2.0
1758075344.99496,1758075344.97506,0.0,0.0,0.0,47.26902,42.97184,35.2942,10.28,-0.68,-0.69,2.0
1758075345.01098,1758075344.98506,0.0,0.0,0.0,44.00316,39.19032,32.08564,10.97,0.0,-0.33,2.0
1758075345.01278,1758075344.99506,0.0,0.0,0.0,41.48215,24.4653,26.98631,10.97,0.0,-0.33,2.0
1758075345.02782,1758075345.00506,0.0,0.0,0.0,40.39353,10.65701,22.74642,9.63,-0.04,-0.82,2.0
1758075345.02974,1758075345.01506,0.0,0.0,0.0,38.61736,1.94806,17.6471,9.6,-0.57,-1.28,2.0
1758075345.04497,1758075345.02506,0.0,0.0,0.0,37.47144,2.23454,13.98017,9.6,-0.57,-1.28,2.0
1758075345.08945,1758075345.03506,0.0,0.0,0.0,35.12231,7.04738,8.30789,11.51,-1.13,-1.04,2.0
1758075345.12393,1758075345.04506,0.0,0.0,0.0,36.38282,-13.80828,3.66693,11.51,-1.13,-1.04,2.0
1758075345.12538,1758075345.05506,0.0,0.0,0.0,38.50277,-51.22243,0.68755,8.96,-1.62,-0.95,2.0
1758075345.12713,1758075345.06506,0.0,0.0,0.0,42.1124,-100.72599,9.4538,8.96,-1.62,-0.95,2.0
1758075345.12779,1758075345.07506,0.0,0.0,0.0,48.9879,-110.1225,21.6578,8.07,-2.56,-3.01,2.0
1758075345.13088,1758075345.08506,0.0,0.0,0.0,53.68615,-103.53348,25.09555,11.83,-2.73,-1.52,2.0
1758075345.13304,1758075345.09506,0.0,0.0,0.0,56.952,-104.85127,25.26744,11.83,-2.73,-1.52,2.0
1758075345.13473,1758075345.10506,0.0,0.0,0.0,56.952,-110.58086,22.74642,8.92,-1.93,-0.21,2.0
1758075345.13626,1758075345.11506,0.0,0.0,0.0,50.01921,-120.8941,19.42327,8.92,-1.93,-0.21,2.0
1758075345.17787,1758075345.12506,0.0,0.0,0.0,42.34158,-137.39528,18.50654,8.46,0.07,3.73,2.0
1758075345.19682,1758075345.13506,0.0,0.0,0.0,34.14828,-157.21964,21.7724,8.46,0.07,3.73,2.0
1758075345.19794,1758075345.14506,0.0,0.0,0.0,29.56462,-168.4496,31.45539,10.0,3.84,5.12,2.0
1758075345.19997,1758075345.15506,0.0,0.0,0.0,25.43933,-158.59473,48.30034,16.43,6.35,4.33,2.0
1758075345.2049,1758075345.16506,0.0,0.0,0.0,24.98096,-142.55191,56.89471,16.43,6.35,4.33,2.0
1758075345.20583,1758075345.17506,0.0,0.0,0.0,26.64254,-124.73292,60.38975,16.74,3.53,3.0,2.0
1758075345.20919,1758075345.18506,0.0,0.0,0.0,32.88778,-90.41274,58.04062,16.74,3.53,3.0,2.0
1758075345.21041,1758075345.19506,0.0,0.0,0.0,38.78925,-62.39511,51.73809,11.95,-1.32,0.27,2.0
1758075345.23133,1758075345.20506,0.0,0.0,0.0,45.20637,-33.05967,40.39353,11.95,-1.32,0.27,2.0
1758075345.23503,1758075345.21506,0.0,0.0,0.0,50.3057,-3.66693,23.37668,9.85,-3.62,-0.83,2.0
1758075345.26488,1758075345.22506,0.0,0.0,0.0,55.40502,40.04975,-3.95341,9.85,-3.62,-0.83,2.0
1758075345.27186,1758075345.23506,0.0,0.0,0.0,56.78012,63.99939,-18.10547,10.66,-3.8,-1.28,2.0
1758075345.27289,1758075345.24506,0.0,0.0,0.0,56.03527,86.74582,-28.24682,11.09,-2.76,-1.26,2.0
1758075345.27682,1758075345.25506,0.0,0.0,0.0,55.34772,107.54418,-33.23156,11.09,-2.76,-1.26,2.0
1758075345.28057,1758075345.26506,0.0,0.0,0.0,54.25911,129.43117,-32.77319,12.15,-0.05,-1.36,2.0
1758075345.29884,1758075345.27506,0.0,0.0,0.0,52.71212,134.18672,-29.27814,12.15,-0.05,-1.36,2.0
1758075345.31226,1758075345.28506,0.0,0.0,0.0,50.1911,134.18672,-22.91831,11.1,2.48,-0.72,2.0
1758075345.31513,1758075345.29506,0.0,0.0,0.0,47.67009,129.77495,-16.04282,11.1,2.48,-0.72,2.0
1758075345.32053,1758075345.30506,0.0,0.0,0.0,39.64868,120.32114,-6.87549,8.77,2.9,0.1,2.0
1758075345.34536,1758075345.31506,0.0,0.0,0.0,31.74186,114.82076,-1.77617,6.9,2.43,0.97,2.0
1758075345.34974,1758075345.32506,0.0,0.0,0.0,21.94428,110.29437,1.3178,6.9,2.43,0.97,2.0
1758075345.35038,1758075345.33506,0.0,0.0,0.0,10.8289,105.53883,1.71887,6.41,2.42,1.22,2.0
1758075345.37002,1758075345.34506,0.0,0.0,0.0,-7.96411,93.7359,-2.63561,6.41,2.42,1.22,2.0
1758075345.3736,1758075345.35506,0.0,0.0,0.0,-21.08485,83.53725,-8.88085,6.44,2.69,0.97,2.0
1758075345.38992,1758075345.36506,0.0,0.0,0.0,-32.37212,65.71826,-14.03747,6.44,2.69,0.97,2.0
1758075345.39356,1758075345.37506,0.0,0.0,0.0,-51.50891,59.64491,-31.51268,7.27,2.83,0.62,2.0
1758075345.41068,1758075345.38506,0.0,0.0,0.0,-62.16592,50.99325,-41.65404,8.73,2.91,0.22,2.0
1758075345.43738,1758075345.39506,0.0,0.0,0.0,-70.93218,35.3515,-46.75336,8.73,2.91,0.22,2.0
1758075345.45617,1758075345.40506,0.0,0.0,0.0,-77.57849,24.4653,-49.33167,8.38,2.24,-0.45,2.0
1758075345.4564,1758075345.41506,0.0,0.0,0.0,-81.99026,10.59972,-45.83662,8.38,2.24,-0.45,2.0
1758075345.47007,1758075345.42506,0.0,0.0,0.0,-85.37071,6.07335,-39.76327,9.27,0.93,-1.38,2.0
1758075345.4745,1758075345.43506,0.0,0.0,0.0,-87.43336,15.0115,-33.51803,9.27,0.93,-1.38,2.0
1758075345.47506,1758075345.44506,0.0,0.0,0.0,-90.06896,26.06958,-28.87707,11.9,0.12,-1.58,2.0
1758075345.47663,1758075345.45506,0.0,0.0,0.0,-91.27219,30.76784,-23.66316,12.25,0.12,-2.0,2.0
1758075345.47852,1758075345.46506,0.0,0.0,0.0,-86.91771,22.68913,-15.06879,12.25,0.06,-2.0,2.0
1758075345.49509,1758075345.47506,0.0,0.0,0.0,-87.43336,-19.88164,-16.73037,9.7,0.16,-1.01,2.0
1758075345.51295,1758075345.48506,0.0,0.0,0.0,-85.08423,-52.42564,-16.04282,9.7,0.16,-1.01,2.0
1758075345.51442,1758075345.49506,0.0,0.0,0.0,-79.98491,-59.70221,-19.76705,11.23,0.18,-2.97,2.0
1758075345.52997,1758075345.50506,0.0,0.0,0.0,-77.75038,-54.08722,-22.63183,11.23,0.18,-2.97,2.0
1758075345.53231,1758075345.51506,0.0,0.0,0.0,-76.89094,-52.65482,-23.0902,12.69,0.07,-1.19,2.0
1758075345.54919,1758075345.52506,0.0,0.0,0.0,-77.17742,-53.45696,-21.7151,12.69,0.07,-1.19,2.0
1758075345.55207,1758075345.53506,0.0,0.0,0.0,-77.23472,-54.77477,-15.87093,9.96,-0.06,-1.05,2.0
1758075345.56726,1758075345.54506,0.0,0.0,0.0,-75.97421,-60.38975,-11.57375,7.55,-0.29,0.53,2.0
1758075345.57053,1758075345.55506,0.0,0.0,0.0,-72.30728,-77.17742,-8.36518,7.55,-0.29,0.53,2.0
1758075345.58707,1758075345.56506,0.0,0.0,0.0,-67.37984,-105.02316,-8.47978,5.57,-0.91,3.57,2.0
1758075345.58987,1758075345.57506,0.0,0.0,0.0,-57.18119,-150.34413,-18.50654,5.57,-0.91,3.57,2.0
1758075345.60531,1758075345.58506,0.0,0.0,0.0,-51.6235,-156.18831,-30.76784,8.44,-1.79,6.06,2.0
1758075345.62525,1758075345.59506,0.0,0.0,0.0,-45.09178,-143.9843,-43.25832,8.44,-1.79,6.06,2.0
1758075345.62978,1758075345.60506,0.0,0.0,0.0,-38.44547,-131.15004,-65.77556,15.25,-3.24,5.26,2.0
1758075345.63187,1758075345.61506,0.0,0.0,0.0,-38.90384,-123.47241,-78.55252,13.9,-3.66,2.9,2.0
1758075345.64981,1758075345.62506,0.0,0.0,0.0,-42.85724,-114.24779,-86.17285,13.9,-3.66,2.9,2.0
1758075345.67531,1758075345.63506,0.0,0.0,0.0,8.59437,-89.03764,-86.34474,12.23,-0.96,0.3,2.0
1758075345.67576,1758075345.64506,0.0,0.0,0.0,-40.04975,-65.48907,-68.64035,12.23,-0.96,0.3,2.0
1758075345.67695,1758075345.65506,0.0,0.0,0.0,-50.3057,-47.15443,-49.04519,12.89,1.35,-0.27,2.0
1758075345.67835,1758075345.66506,0.0,0.0,0.0,-47.89928,-31.45539,-27.1582,12.89,1.35,-0.27,2.0
1758075345.70017,1758075345.67506,0.0,0.0,0.0,-44.28964,-19.13679,-5.78687,12.12,2.17,-0.95,2.0
1758075345.70476,1758075345.68506,0.0,0.0,0.0,-37.24226,6.24524,19.99623,12.38,1.2,-0.95,2.0
1758075345.72034,1758075345.69506,0.0,0.0,0.0,-31.56997,24.57989,30.93972,12.38,1.2,-0.95,2.0
1758075345.72445,1758075345.70506,0.0,0.0,0.0,-24.92367,42.05511,37.35685,12.17,-1.09,-1.3,2.0
1758075345.74033,1758075345.71506,0.0,0.0,0.0,-17.81899,59.01466,38.1017,12.17,-1.09,-1.3,2.0
1758075345.74286,1758075345.72506,0.0,0.0,0.0,-4.87014,70.81759,34.0337,10.63,-3.15,-1.35,2.0
1758075345.75888,1758075345.73506,0.0,0.0,0.0,3.09397,69.3279,27.84575,10.63,-3.15,-1.35,2.0
1758075345.7601,1758075345.74506,0.0,0.0,0.0,11.00079,66.5204,20.85567,7.32,-3.77,-1.5,2.0
1758075345.77508,1758075345.75506,0.0,0.0,0.0,18.9649,65.08801,14.83961,7.32,-3.77,-1.5,2.0
1758075345.78055,1758075345.76506,0.0,0.0,0.0,29.96569,66.29122,8.47978,6.42,-3.31,-1.27,2.0
1758075345.80013,1758075345.77506,0.0,0.0,0.0,36.7266,70.01544,7.33386,6.7,-2.43,-1.17,2.0
1758075345.80366,1758075345.78506,0.0,0.0,0.0,42.68536,75.17207,6.99009,6.7,-2.43,-1.17,2.0
1758075345.82014,1758075345.79506,0.0,0.0,0.0,50.87865,76.54716,8.25059,7.34,-1.66,-0.71,2.0
1758075345.82507,1758075345.80506,0.0,0.0,0.0,56.49364,70.01544,11.28727,7.34,-1.66,-0.71,2.0
1758075345.84007,1758075345.81506,0.0,0.0,0.0,61.99404,68.64035,14.61043,8.04,-1.37,-0.55,2.0
1758075345.84718,1758075345.82506,0.0,0.0,0.0,65.71826,68.69764,18.44924,8.04,-1.37,-0.55,2.0
1758075345.84936,1758075345.83506,0.0,0.0,0.0,67.26525,68.12468,22.86102,9.8,-1.16,-0.87,2.0
1758075345.86509,1758075345.84506,0.0,0.0,0.0,66.11933,63.8275,24.29341,10.16,-0.73,-0.16,2.0
1758075345.86629,1758075345.85506,0.0,0.0,0.0,62.68159,54.48829,24.63719,10.16,-0.73,-0.16,2.0
1758075345.88342,1758075345.86506,0.0,0.0,0.0,57.12389,44.9199,22.68913,9.44,-0.2,-0.74,2.0
1758075345.89996,1758075345.87506,0.0,0.0,0.0,47.09713,37.87251,16.95955,9.44,-0.2,-0.74,2.0
1758075345.90387,1758075345.88506,0.0,0.0,0.0,41.99781,36.49741,12.71966,9.93,0.55,-0.9,2.0
1758075345.92006,1758075345.89506,0.0,0.0,0.0,37.18496,36.15364,8.93814,9.93,0.55,-0.9,2.0
1758075345.92267,1758075345.90506,0.0,0.0,0.0,32.6013,30.82513,7.79223,10.3,1.07,-1.03,2.0
1758075345.93812,1758075345.91506,0.0,0.0,0.0,24.29341,42.22699,2.34913,11.44,1.18,-0.92,2.0
1758075345.93941,1758075345.92506,0.0,0.0,0.0,18.50654,47.32632,-1.60428,11.44,1.18,-0.92,2.0
1758075345.95509,1758075345.93506,0.0,0.0,0.0,12.54778,36.32552,-9.22462,10.25,1.13,-0.66,2.0
1758075345.96038,1758075345.94506,0.0,0.0,0.0,10.19865,-8.99544,-11.97482,10.25,1.13,-0.66,2.0
1758075345.98041,1758075345.95506,0.0,0.0,0.0,13.40721,-67.55173,-7.96411,6.15,0.01,-2.88,2.0
1758075345.98532,1758075345.96506,0.0,0.0,0.0,13.80828,-72.99483,-3.66693,6.15,0.01,-2.88,2.0
1758075345.98944,1758075345.97506,0.0,0.0,0.0,15.58445,-67.78091,-0.85944,10.81,-1.44,-1.74,2.0
1758075346.00993,1758075345.98506,0.0,0.0,0.0,16.90226,-67.37984,0.51566,10.81,-1.44,-1.74,2.0
1758075346.01711,1758075345.99506,0.0,0.0,0.0,14.61043,-78.7244,0.74485,10.71,-2.07,-0.78,2.0
1758075346.01749,1758075346.00506,0.0,0.0,0.0,8.36518,-89.26682,1.03132,10.42,-1.94,2.26,2.0
1758075346.03514,1758075346.01506,0.0,0.0,0.0,-1.66158,-103.53348,2.86479,10.42,-1.94,2.26,2.0
1758075346.04035,1758075346.02506,0.0,0.0,0.0,-17.76169,-129.31659,13.06344,12.46,0.57,4.48,2.0
1758075346.05845,1758075346.03506,0.0,0.0,0.0,-26.01229,-136.07747,24.57989,12.46,0.57,4.48,2.0
1758075346.05974,1758075346.04506,0.0,0.0,0.0,-30.99702,-132.29596,35.63798,16.23,4.42,3.83,2.0
1758075346.0742,1758075346.05506,0.0,0.0,0.0,-33.9764,-125.0194,41.65404,16.23,4.42,3.83,2.0
1758075346.09021,1758075346.06506,0.0,0.0,0.0,-31.11161,-113.56024,43.20102,14.62,3.75,1.99,2.0
1758075346.10621,1758075346.07506,0.0,0.0,0.0,-25.72581,-101.9865,40.33623,9.51,0.15,2.71,2.0
1758075346.10745,1758075346.08506,0.0,0.0,0.0,-18.10547,-84.39669,35.58068,9.51,0.15,2.71,2.0
1758075346.10995,1758075346.09506,0.0,0.0,0.0,-9.91217,-60.73353,28.70519,8.61,-1.97,1.46,2.0
1758075346.12548,1758075346.10506,0.0,0.0,0.0,0.74485,-24.86637,14.49583,8.61,-1.97,1.46,2.0
1758075346.12641,1758075346.11506,0.0,0.0,0.0,4.92744,-6.53172,3.49504,8.5,-3.24,0.0,2.0
1758075346.14278,1758075346.12506,0.0,0.0,0.0,6.47442,13.00614,-7.04738,8.5,-3.24,0.0,2.0
1758075346.159,1758075346.13506,0.0,0.0,0.0,4.1253,36.7266,-15.41257,10.66,-3.22,-0.42,2.0
1758075346.16027,1758075346.14506,0.0,0.0,0.0,-3.49504,77.86497,-23.20479,14.12,-1.11,-2.08,2.0
1758075346.1755,1758075346.15506,0.0,0.0,0.0,-9.96947,97.23093,-26.01229,14.12,-1.11,-2.08,2.0
1758075346.1764,1758075346.16506,0.0,0.0,0.0,-16.10011,108.6328,-26.01229,13.14,2.15,-1.79,2.0
1758075346.19536,1758075346.17506,0.0,0.0,0.0,-23.31938,113.90401,-24.75178,13.14,2.15,-1.79,2.0
1758075346.2005,1758075346.18506,0.0,0.0,0.0,-31.2262,117.85743,-20.45459,10.76,3.73,-0.65,2.0
1758075346.22035,1758075346.19506,0.0,0.0,0.0,-35.40879,116.8261,-16.73037,10.76,3.73,-0.65,2.0
1758075346.22147,1758075346.20506,0.0,0.0,0.0,-39.3622,114.41968,-12.89155,8.55,3.24,-0.12,2.0
1758075346.23891,1758075346.21506,0.0,0.0,0.0,-46.00851,112.07055,-6.07335,8.55,3.24,-0.12,2.0
1758075346.24006,1758075346.22506,0.0,0.0,0.0,-52.02457,105.53883,-3.38045,7.23,2.34,0.28,2.0
1758075346.25548,1758075346.23506,0.0,0.0,0.0,-59.87409,103.59077,-3.03668,7.25,1.94,0.39,2.0
1758075346.25763,1758075346.24506,0.0,0.0,0.0,-68.64035,101.06976,-5.27121,7.25,1.94,0.39,2.0
1758075346.27551,1758075346.25506,0.0,0.0,0.0,-81.5892,82.84971,-10.08406,7.86,1.91,0.11,2.0
1758075346.27649,1758075346.26506,0.0,0.0,0.0,-92.81918,74.94289,-20.79837,7.86,1.91,0.11,2.0
1758075346.2943,1758075346.27506,0.0,0.0,0.0,-100.43951,67.32255,-29.8511,8.3,1.97,0.15,2.0
1758075346.31052,1758075346.28506,0.0,0.0,0.0,-106.97123,58.78547,-40.33623,8.3,1.97,0.15,2.0
1758075346.31483,1758075346.29506,0.0,0.0,0.0,-114.93534,28.99167,-48.8733,8.14,1.76,-0.52,2.0
1758075346.33055,1758075346.30506,0.0,0.0,0.0,-115.79478,12.83425,-50.53488,7.14,1.07,-0.39,2.0
1758075346.33394,1758075346.31506,0.0,0.0,0.0,-116.88341,5.78687,-49.15978,7.14,1.07,-0.39,2.0
1758075346.3496,1758075346.32506,0.0,0.0,0.0,-116.53963,8.76626,-41.88322,9.31,0.14,-0.95,2.0
1758075346.35479,1758075346.33506,0.0,0.0,0.0,-116.19585,41.02378,-38.21629,9.31,0.14,-0.95,2.0
1758075346.36945,1758075346.34506,0.0,0.0,0.0,-115.68018,45.89392,-32.54401,12.07,-0.48,-0.41,2.0
1758075346.37053,1758075346.35506,0.0,0.0,0.0,-113.10187,48.24305,-26.98631,12.07,-0.48,-0.41,2.0
1758075346.38531,1758075346.36506,0.0,0.0,0.0,-108.6328,37.52874,-18.73572,10.52,-0.63,-0.63,2.0
1758075346.38726,1758075346.37506,0.0,0.0,0.0,-100.26762,-8.99544,-10.8862,8.28,-0.73,-1.97,2.0
1758075346.40433,1758075346.38506,0.0,0.0,0.0,-94.65263,-24.92367,-7.50575,8.28,-0.73,-1.97,2.0
1758075346.42061,1758075346.39506,0.0,0.0,0.0,-89.83979,-28.59059,-7.84952,11.03,-0.81,-2.45,2.0
1758075346.42156,1758075346.40506,0.0,0.0,0.0,-85.37071,-27.44468,-11.28727,11.03,-0.81,-2.45,2.0
1758075346.43635,1758075346.41506,0.0,0.0,0.0,-80.38599,-29.8511,-14.9542,11.87,-0.71,-0.93,2.0
1758075346.43992,1758075346.42506,0.0,0.0,0.0,-77.29202,-32.48671,-17.6471,11.87,-0.71,-0.93,2.0
1758075346.45565,1758075346.43506,0.0,0.0,0.0,-74.65641,-34.09099,-19.13679,11.5,-0.45,-0.25,2.0
1758075346.45731,1758075346.44506,0.0,0.0,0.0,-72.47916,-36.55471,-16.50119,11.5,-0.45,-0.25,2.0
1758075346.47534,1758075346.45506,0.0,0.0,0.0,-73.16672,-37.81522,-12.43318,10.26,-0.36,-0.67,2.0
1758075346.47735,1758075346.46506,0.0,0.0,0.0,-74.54182,-38.44547,-6.58902,8.35,-0.4,-0.49,2.0
1758075346.49461,1758075346.47506,0.0,0.0,0.0,-75.80232,-42.62806,-0.68755,8.35,-0.4,-0.49,2.0
1758075346.51068,1758075346.48506,0.0,0.0,0.0,-74.42722,-69.27061,4.52637,6.49,-0.94,1.63,2.0
1758075346.51161,1758075346.49506,0.0,0.0,0.0,-71.21866,-100.66869,2.29183,6.49,-0.94,1.63,2.0
1758075346.52641,1758075346.50506,0.0,0.0,0.0,-67.89551,-130.17603,-5.95876,6.31,-1.8,3.27,2.0
1758075346.5284,1758075346.51506,0.0,0.0,0.0,-64.45775,-142.15085,-17.30333,6.31,-1.8,3.27,2.0
1758075346.54363,1758075346.52506,0.0,0.0,0.0,-58.3844,-128.22797,-34.14828,11.27,-1.45,4.16,2.0
1758075346.55966,1758075346.53506,0.0,0.0,0.0,-55.97798,-120.37844,-46.75336,14.77,-0.79,4.22,2.0
1758075346.56085,1758075346.54506,0.0,0.0,0.0,-56.14987,-116.42503,-58.84277,14.77,-0.79,4.22,2.0
1758075346.57568,1758075346.55506,0.0,0.0,0.0,-62.39511,-108.51821,-68.29657,12.7,0.11,2.28,2.0
1758075346.58057,1758075346.56506,0.0,0.0,0.0,-75.97421,-90.18356,-73.10942,12.7,0.11,2.28,2.0
1758075346.59846,1758075346.57506,0.0,0.0,0.0,-83.82372,-70.01544,-66.46311,12.47,1.38,0.02,2.0
1758075346.59966,1758075346.58506,0.0,0.0,0.0,-90.41274,-48.8733,-52.65482,12.47,1.38,0.02,2.0
1758075346.61553,1758075346.59506,0.0,0.0,0.0,-94.02238,-28.59059,-34.89313,13.76,1.79,-0.59,2.0
1758075346.61643,1758075346.60506,0.0,0.0,0.0,-94.19427,-4.58366,-6.13065,12.4,1.36,-0.8,2.0
1758075346.63269,1758075346.61506,0.0,0.0,0.0,-91.27219,8.65166,11.74564,12.4,1.36,-0.8,2.0
1758075346.64842,1758075346.62506,0.0,0.0,0.0,-87.66255,21.7151,25.72581,11.09,0.31,-0.51,2.0
1758075346.64972,1758075346.63506,0.0,0.0,0.0,-81.93298,39.24761,37.87251,11.09,0.31,-0.51,2.0
1758075346.66475,1758075346.64506,0.0,0.0,0.0,-78.15145,47.89928,39.53409,9.98,-0.87,0.12,2.0
1758075346.68073,1758075346.65506,0.0,0.0,0.0,-73.68237,54.3737,36.84119,9.98,-0.87,0.12,2.0
1758075346.68327,1758075346.66506,0.0,0.0,0.0,-68.58305,60.96271,30.88243,8.95,-2.19,0.14,2.0
1758075346.69854,1758075346.67506,0.0,0.0,0.0,-58.55629,64.62964,21.42862,8.95,-2.19,0.14,2.0
1758075346.70001,1758075346.68506,0.0,0.0,0.0,-50.363,62.39511,14.83961,7.83,-3.39,-0.43,2.0
1758075346.71446,1758075346.69506,0.0,0.0,0.0,-41.48215,59.41573,8.65166,6.58,-3.85,-0.85,2.0
1758075346.73314,1758075346.70506,0.0,0.0,0.0,-31.2262,59.41573,4.64096,6.58,-3.85,-0.85,2.0
1758075346.73489,1758075346.71506,0.0,0.0,0.0,-15.24068,66.06203,1.66158,7.66,-3.5,-0.97,2.0
1758075346.75051,1758075346.72506,0.0,0.0,0.0,-4.23989,69.95815,2.00535,7.66,-3.5,-0.97,2.0
1758075346.75202,1758075346.73506,0.0,0.0,0.0,7.39116,69.21331,4.23989,8.47,-2.68,-0.87,2.0
1758075346.76652,1758075346.74506,0.0,0.0,0.0,18.44924,66.29122,9.05273,8.47,-2.68,-0.87,2.0
1758075346.76794,1758075346.75506,0.0,0.0,0.0,31.56997,64.80153,17.36062,8.97,-2.17,-0.81,2.0
1758075346.78282,1758075346.76506,0.0,0.0,0.0,37.87251,63.77021,22.51724,10.2,-1.96,-0.87,2.0
1758075346.79854,1758075346.77506,0.0,0.0,0.0,43.54479,60.04598,27.67386,10.2,-1.96,-0.87,2.0
1758075346.79998,1758075346.78506,0.0,0.0,0.0,46.75336,51.6235,31.74186,10.27,-1.84,-0.52,2.0
1758075346.81477,1758075346.79506,0.0,0.0,0.0,47.89928,38.90384,32.48671,10.27,-1.84,-0.52,2.0
1758075346.83082,1758075346.80506,0.0,0.0,0.0,46.1231,41.65404,30.13758,10.56,-1.76,-1.36,2.0
1758075346.83173,1758075346.81506,0.0,0.0,0.0,45.20637,44.23235,27.2155,10.56,-1.76,-1.36,2.0
1758075346.84657,1758075346.82506,0.0,0.0,0.0,43.54479,46.35228,21.60051,11.84,-1.29,-1.13,2.0
1758075346.84856,1758075346.83506,0.0,0.0,0.0,42.68536,32.6013,17.76169,10.93,-0.98,-1.14,2.0
1758075346.86381,1758075346.84506,0.0,0.0,0.0,41.25296,22.86102,13.46451,10.93,-0.98,-1.14,2.0
1758075346.87981,1758075346.85506,0.0,0.0,0.0,39.4768,25.89769,9.22462,11.77,-0.85,-1.63,2.0
1758075346.881,1758075346.86506,0.0,0.0,0.0,35.92446,26.81443,2.06265,11.77,-0.85,-1.63,2.0
1758075346.89581,1758075346.87506,0.0,0.0,0.0,32.6013,24.75178,-2.97938,11.58,-0.79,-0.93,2.0
1758075346.90071,1758075346.88506,0.0,0.0,0.0,33.05967,-10.37054,-6.35983,11.58,-0.79,-0.93,2.0
1758075346.91869,1758075346.89506,0.0,0.0,0.0,35.2369,-54.94666,-8.02141,7.11,-0.89,-1.57,2.0
1758075346.91985,1758075346.90506,0.0,0.0,0.0,39.3622,-86.74582,3.83882,8.13,-0.89,-2.95,2.0
1758075346.93457,1758075346.91506,0.0,0.0,0.0,42.85724,-85.77179,7.62034,8.13,-1.77,-2.95,2.0
1758075346.95091,1758075346.92506,0.0,0.0,0.0,43.88857,-91.44406,11.11538,9.38,-2.29,0.25,2.0
1758075346.95263,1758075346.93506,0.0,0.0,0.0,41.25296,-114.0759,15.35527,9.38,-2.29,0.25,2.0
1758075346.96765,1758075346.94506,0.0,0.0,0.0,25.55392,-155.90182,33.86181,9.0,-1.01,6.69,2.0
1758075346.96883,1758075346.95506,0.0,0.0,0.0,13.5791,-171.48627,54.94666,9.0,-1.01,6.69,2.0
1758075346.98468,1758075346.96506,0.0,0.0,0.0,3.95341,-162.54814,71.79161,17.31,5.88,6.94,2.0
1758075347.00076,1758075346.97506,0.0,0.0,0.0,-3.09397,-145.81776,79.29736,17.31,5.88,6.94,2.0
1758075347.00297,1758075346.98506,0.0,0.0,0.0,-7.84952,-129.25928,78.66711,17.62,7.04,1.67,2.0
1758075347.0187,1758075346.99506,0.0,0.0,0.0,-7.16197,-125.82154,71.04677,8.52,1.5,3.17,2.0
1758075347.02043,1758075347.00506,0.0,0.0,0.0,-2.86479,-118.94605,62.68159,8.52,1.5,3.17,2.0
1758075347.03644,1758075347.01506,0.0,0.0,0.0,4.58366,-98.94981,51.27972,6.83,-1.5,2.28,2.0
1758075347.04006,1758075347.02506,0.0,0.0,0.0,15.24068,-64.17127,28.476,6.83,-1.5,2.28,2.0
1758075347.05641,1758075347.03506,0.0,0.0,0.0,19.99623,-44.9199,11.74564,8.34,-2.85,0.81,2.0
1758075347.06039,1758075347.04506,0.0,0.0,0.0,22.63183,-26.64254,-3.66693,8.34,-2.85,0.81,2.0
1758075347.076,1758075347.05506,0.0,0.0,0.0,21.7724,3.95341,-20.68378,10.45,-2.91,0.37,2.0
1758075347.07692,1758075347.06506,0.0,0.0,0.0,17.58981,31.45539,-26.69983,14.35,-0.84,-2.05,2.0
1758075347.09373,1758075347.07506,0.0,0.0,0.0,11.63104,60.33246,-27.61657,14.35,-0.84,-2.05,2.0
1758075347.10997,1758075347.08506,0.0,0.0,0.0,3.83882,85.14153,-27.84575,14.94,1.99,-2.52,2.0
1758075347.1121,1758075347.09506,0.0,0.0,0.0,-9.74028,101.81461,-25.38203,14.94,1.99,-2.52,2.0
1758075347.12675,1758075347.10506,0.0,0.0,0.0,-17.53251,107.60149,-21.94428,10.5,2.72,-1.07,2.0
1758075347.12795,1758075347.11506,0.0,0.0,0.0,-24.29341,114.59156,-17.99088,10.5,2.72,-1.07,2.0
1758075347.14329,1758075347.12506,0.0,0.0,0.0,-30.13758,117.80012,-13.40721,8.19,2.32,-0.37,2.0
1758075347.15875,1758075347.13506,0.0,0.0,0.0,-38.1017,116.76881,-6.24524,6.45,1.97,-0.18,2.0
1758075347.15993,1758075347.14506,0.0,0.0,0.0,-43.14373,114.70615,-1.48969,6.45,1.97,-0.18,2.0
1758075347.17506,1758075347.15506,0.0,0.0,0.0,-48.70141,113.44565,0.80214,6.44,1.69,0.07,2.0
1758075347.19107,1758075347.16506,0.0,0.0,0.0,-54.25911,112.6435,1.60428,6.44,1.69,0.07,2.0
1758075347.19196,1758075347.17506,0.0,0.0,0.0,-62.85347,104.10643,-2.7502,7.57,1.58,0.45,2.0
1758075347.20707,1758075347.18506,0.0,0.0,0.0,-68.35387,93.56402,-6.41713,7.57,1.58,0.45,2.0
1758075347.20907,1758075347.19506,0.0,0.0,0.0,-75.63043,83.76643,-15.29797,8.38,1.65,0.87,2.0
1758075347.2248,1758075347.20506,0.0,0.0,0.0,-79.75573,74.42722,-22.86102,8.38,1.65,0.87,2.0
1758075347.24083,1758075347.21506,0.0,0.0,0.0,-87.71984,57.92604,-35.3515,9.52,1.61,0.91,2.0
1758075347.24311,1758075347.22506,0.0,0.0,0.0,-91.78784,39.07573,-40.7946,8.93,1.39,0.31,2.0
1758075347.25784,1758075347.23506,0.0,0.0,0.0,-94.19427,21.60051,-43.94586,8.93,1.39,0.31,2.0
1758075347.26016,1758075347.24506,0.0,0.0,0.0,-95.28289,9.62569,-42.68536,8.73,0.96,-0.44,2.0
1758075347.27483,1758075347.25506,0.0,0.0,0.0,-95.51206,4.58366,-40.10705,8.73,0.96,-0.44,2.0
1758075347.2911,1758075347.26506,0.0,0.0,0.0,-96.42879,4.87014,-33.51803,9.54,0.21,-0.9,2.0
1758075347.29276,1758075347.27506,0.0,0.0,0.0,-97.05905,21.48592,-31.11161,9.54,0.21,-0.9,2.0
1758075347.30804,1758075347.28506,0.0,0.0,0.0,-98.66334,31.28349,-25.8404,11.44,0.1,-1.0,2.0
1758075347.30978,1758075347.29506,0.0,0.0,0.0,-97.46013,37.47144,-20.97026,11.05,-0.03,-1.16,2.0
1758075347.3251,1758075347.30506,0.0,0.0,0.0,-94.88181,10.08406,-17.58981,11.05,-0.03,-1.16,2.0
1758075347.34113,1758075347.31506,0.0,0.0,0.0,-94.70992,-28.76248,-17.76169,7.61,-0.08,-1.65,2.0
1758075347.34279,1758075347.32506,0.0,0.0,0.0,-91.27219,-50.2484,-17.30333,7.61,-0.08,-1.65,2.0
1758075347.35791,1758075347.33506,0.0,0.0,0.0,-89.32412,-44.86259,-17.87628,11.43,0.04,-3.28,2.0
1758075347.36329,1758075347.34506,0.0,0.0,0.0,-87.54795,-34.95043,-17.93358,11.43,0.04,-3.28,2.0
1758075347.37782,1758075347.35506,0.0,0.0,0.0,-86.45934,-27.96034,-17.18874,13.06,0.16,-1.37,2.0
1758075347.38332,1758075347.36506,0.0,0.0,0.0,-85.71449,-24.75178,-14.49583,11.83,0.49,-0.85,2.0
1758075347.39788,1758075347.37506,0.0,0.0,0.0,-86.40204,-25.8404,-11.57375,11.83,0.49,-0.85,2.0
1758075347.39907,1758075347.38506,0.0,0.0,0.0,-87.54795,-30.02299,-8.02141,9.63,0.55,-0.68,2.0
1758075347.41547,1758075347.39506,0.0,0.0,0.0,-88.63658,-40.16434,-5.72958,9.63,0.55,-0.68,2.0
1758075347.42464,1758075347.40506,0.0,0.0,0.0,-87.60525,-69.21331,-6.70361,7.33,-0.09,1.18,2.0
1758075347.43989,1758075347.41506,0.0,0.0,0.0,-85.37071,-97.9185,-12.14671,7.33,-0.09,1.18,2.0
1758075347.44269,1758075347.42506,0.0,0.0,0.0,-82.56322,-126.45179,-21.7151,7.26,-1.4,3.44,2.0
1758075347.46019,1758075347.43506,0.0,0.0,0.0,-79.52654,-138.82768,-36.95578,7.26,-1.4,3.44,2.0
1758075347.46518,1758075347.44506,0.0,0.0,0.0,-73.73967,-137.85365,-45.26366,10.94,-2.11,5.23,2.0
1758075347.48017,1758075347.45506,0.0,0.0,0.0,-73.16672,-137.45259,-54.25911,12.5,-2.77,5.12,2.0
1758075347.48376,1758075347.46506,0.0,0.0,0.0,-76.54716,-135.8483,-61.76485,12.5,-2.77,5.12,2.0
1758075347.49909,1758075347.47506,0.0,0.0,0.0,-87.66255,-124.79022,-69.04142,10.51,-2.08,2.84,2.0
1758075347.50087,1758075347.48506,0.0,0.0,0.0,-95.68395,-109.60683,-69.04142,10.51,-2.08,2.84,2.0
1758075347.51917,1758075347.49506,0.0,0.0,0.0,-101.24165,-92.07432,-60.27517,11.12,0.1,0.57,2.0
1758075347.5201,1758075347.50506,0.0,0.0,0.0,-103.07512,-69.55708,-44.11775,11.12,0.1,0.57,2.0
1758075347.5352,1758075347.51506,0.0,0.0,0.0,-99.40818,-35.75257,-14.03747,12.94,1.4,-1.33,2.0
1758075347.54041,1758075347.52506,0.0,0.0,0.0,-93.62132,-15.64175,6.24524,12.92,1.3,-2.03,2.0
1758075347.56019,1758075347.53506,0.0,0.0,0.0,-86.80311,2.6929,24.23611,12.92,1.3,-2.03,2.0
1758075347.56521,1758075347.54506,0.0,0.0,0.0,-80.0995,20.16812,37.35685,11.94,0.0,-1.65,2.0
1758075347.58494,1758075347.55506,0.0,0.0,0.0,-72.82294,44.57612,46.69606,11.94,0.0,-1.65,2.0
1758075347.61078,1758075347.56506,0.0,0.0,0.0,-68.75494,59.18654,46.2377,10.8,-1.4,-0.8,2.0
1758075347.61536,1758075347.57506,0.0,0.0,0.0,-64.80153,68.98412,41.42485,10.8,-1.4,-0.8,2.0
1758075347.62043,1758075347.58506,0.0,0.0,0.0,-60.50434,75.34396,34.32018,9.77,-2.55,-0.2,2.0
1758075347.62428,1758075347.59506,0.0,0.0,0.0,-53.74345,73.91156,21.42862,7.86,-3.33,-0.29,2.0
1758075347.62534,1758075347.60506,0.0,0.0,0.0,-48.35764,68.29657,12.71966,7.86,-3.33,-0.29,2.0
1758075347.64443,1758075347.61506,0.0,0.0,0.0,-42.62806,65.14531,4.81285,6.93,-3.34,-0.66,2.0
1758075347.64537,1758075347.62506,0.0,0.0,0.0,-35.58068,65.77556,-1.3178,6.93,-3.34,-0.66,2.0
1758075347.66438,1758075347.63506,0.0,0.0,0.0,-22.74642,71.67702,-6.24524,7.6,-2.85,-0.91,2.0
1758075347.66539,1758075347.64506,0.0,0.0,0.0,-12.37589,74.771,-6.41713,7.6,-2.85,-0.91,2.0
1758075347.68447,1758075347.65506,0.0,0.0,0.0,-2.00535,75.68773,-4.46907,8.13,-2.28,-0.71,2.0
1758075347.68619,1758075347.66506,0.0,0.0,0.0,14.43854,73.2813,2.29183,8.13,-2.28,-0.71,2.0
1758075347.70446,1758075347.67506,0.0,0.0,0.0,24.35071,70.18733,8.70896,8.87,-2.16,-0.82,2.0
1758075347.7054,1758075347.68506,0.0,0.0,0.0,32.71589,68.41116,15.46986,10.22,-2.34,-1.3,2.0
1758075347.72446,1758075347.69506,0.0,0.0,0.0,39.99245,67.26525,21.88699,10.22,-2.34,-1.3,2.0
1758075347.72541,1758075347.70506,0.0,0.0,0.0,45.83662,61.07731,29.62192,11.23,-2.41,-0.9,2.0
1758075347.74263,1758075347.71506,0.0,0.0,0.0,46.52417,51.50891,32.48671,11.23,-2.41,-0.9,2.0
1758075347.74486,1758075347.72506,0.0,0.0,0.0,46.1804,45.49285,33.74722,10.99,-2.36,-1.49,2.0
1758075347.76004,1758075347.73506,0.0,0.0,0.0,43.20102,45.14908,32.6013,10.99,-2.36,-1.49,2.0
1758075347.76474,1758075347.74506,0.0,0.0,0.0,39.4195,49.50356,28.76248,12.11,-1.85,-1.59,2.0
1758075347.78027,1758075347.75506,0.0,0.0,0.0,36.89849,43.77398,26.18417,12.05,-1.06,-1.35,2.0
1758075347.7852,1758075347.76506,0.0,0.0,0.0,35.06502,33.17426,22.63183,12.05,-1.06,-1.35,2.0
1758075347.80429,1758075347.77506,0.0,0.0,0.0,32.48671,21.48592,17.87628,11.08,-0.91,-1.82,2.0
1758075347.8055,1758075347.78506,0.0,0.0,0.0,29.22085,21.42862,11.86023,11.08,-0.91,-1.82,2.0
1758075347.82436,1758075347.79506,0.0,0.0,0.0,25.72581,21.37133,6.70361,12.21,-1.15,-1.53,2.0
1758075347.82682,1758075347.80506,0.0,0.0,0.0,22.34536,15.29797,1.20321,12.21,-1.15,-1.53,2.0
1758075347.82937,1758075347.81506,0.0,0.0,0.0,23.89234,-15.92823,-2.00535,9.78,-1.35,-1.22,2.0
1758075347.84534,1758075347.82506,0.0,0.0,0.0,20.85567,-78.20874,-3.72423,5.48,-1.7,-2.7,2.0
1758075347.8635,1758075347.83506,0.0,0.0,0.0,24.4653,-104.16373,5.32851,5.48,-1.7,-2.7,2.0
1758075347.86503,1758075347.84506,0.0,0.0,0.0,23.54857,-115.22182,10.08406,8.54,-2.76,0.67,2.0
1758075347.88011,1758075347.85506,0.0,0.0,0.0,20.3973,-131.09276,25.26744,8.54,-2.76,0.67,2.0
1758075347.88454,1758075347.86506,0.0,0.0,0.0,7.96411,-165.29834,42.28429,10.75,-0.21,6.94,2.0
1758075347.90442,1758075347.87506,0.0,0.0,0.0,-0.34377,-170.39767,60.50434,10.75,-0.21,6.94,2.0
1758075347.90532,1758075347.88506,0.0,0.0,0.0,-8.59437,-155.78723,72.19269,16.71,6.18,5.12,2.0
1758075347.9094,1758075347.89506,0.0,0.0,0.0,-17.30333,-133.90025,76.66176,16.71,6.18,5.12,2.0
1758075347.9252,1758075347.90506,0.0,0.0,0.0,-20.3973,-121.86813,72.70835,14.54,5.75,1.28,2.0
1758075347.94304,1758075347.91506,0.0,0.0,0.0,-19.88164,-116.13856,66.17663,7.01,1.34,2.69,2.0
1758075347.94555,1758075347.92506,0.0,0.0,0.0,-17.53251,-102.61675,57.81144,7.01,1.34,2.69,2.0
1758075347.96313,1758075347.93506,0.0,0.0,0.0,-7.67763,-67.78091,40.04975,7.18,-1.1,2.51,2.0
1758075347.96469,1758075347.94506,0.0,0.0,0.0,-0.51566,-48.8733,26.98631,7.18,-1.1,2.51,2.0
1758075347.9802,1758075347.95506,0.0,0.0,0.0,5.32851,-31.56997,13.06344,9.45,-2.38,1.27,2.0
1758075347.98544,1758075347.96506,0.0,0.0,0.0,9.96947,-13.17803,-0.0573,9.45,-2.38,1.27,2.0
1758075348.00039,1758075347.97506,0.0,0.0,0.0,16.272,23.66316,-15.69904,13.13,-2.95,-0.52,2.0
1758075348.00532,1758075347.98506,0.0,0.0,0.0,17.47521,50.53488,-22.00158,15.99,-1.71,-2.47,2.0
1758075348.0204,1758075347.99506,0.0,0.0,0.0,17.47521,76.20339,-24.23611,15.99,-1.71,-2.47,2.0
1758075348.02296,1758075348.00506,0.0,0.0,0.0,15.75634,94.70992,-26.52795,13.49,0.35,-1.88,2.0
1758075348.04044,1758075348.01506,0.0,0.0,0.0,12.83425,110.46626,-26.52795,13.49,0.35,-1.88,2.0
1758075348.04456,1758075348.02506,0.0,0.0,0.0,10.71431,116.19585,-25.26744,9.57,1.39,-0.9,2.0
1758075348.0605,1758075348.03506,0.0,0.0,0.0,8.93814,121.63895,-22.23076,9.57,1.39,-0.9,2.0
1758075348.06539,1758075348.04506,0.0,0.0,0.0,6.87549,124.10267,-18.10547,7.82,1.47,-0.33,2.0
1758075348.06926,1758075348.05506,0.0,0.0,0.0,4.81285,124.21727,-10.8862,6.43,1.2,-0.09,2.0
1758075348.08524,1758075348.06506,0.0,0.0,0.0,3.32316,120.8941,-5.27121,6.43,1.2,-0.09,2.0
1758075348.08884,1758075348.07506,0.0,0.0,0.0,1.43239,115.16451,-0.34377,5.75,0.85,0.06,2.0
1758075348.10527,1758075348.08506,0.0,0.0,0.0,-1.66158,105.08047,6.58902,5.75,0.85,0.06,2.0
1758075348.12283,1758075348.09506,0.0,0.0,0.0,-4.23989,96.77258,9.68299,6.23,0.62,0.28,2.0
1758075348.12399,1758075348.10506,0.0,0.0,0.0,-8.136,87.0323,10.31324,6.23,0.62,0.28,2.0
1758075348.14011,1758075348.11506,0.0,0.0,0.0,-13.06344,75.63043,8.47978,6.97,0.67,0.68,2.0
1758075348.14473,1758075348.12506,0.0,0.0,0.0,-22.74642,58.09792,1.20321,6.97,0.67,0.68,2.0
1758075348.16031,1758075348.13506,0.0,0.0,0.0,-30.88243,44.9199,-7.21927,8.02,1.17,1.04,2.0
1758075348.16791,1758075348.14506,0.0,0.0,0.0,-38.56006,27.1582,-15.35527,8.51,2.09,0.74,2.0
1758075348.16938,1758075348.15506,0.0,0.0,0.0,-49.50356,23.0329,-25.43933,8.51,2.09,0.74,2.0
1758075348.18649,1758075348.16506,0.0,0.0,0.0,-63.02536,16.55848,-35.98175,9.44,2.81,0.3,2.0
1758075348.18775,1758075348.17506,0.0,0.0,0.0,-71.56243,10.71431,-40.7946,9.44,2.81,0.3,2.0
1758075348.20559,1758075348.18506,0.0,0.0,0.0,-78.839,3.95341,-43.60209,9.42,2.56,-0.21,2.0
1758075348.20911,1758075348.19506,0.0,0.0,0.0,-84.74047,-4.52637,-44.51882,9.42,2.56,-0.21,2.0
1758075348.22532,1758075348.20506,0.0,0.0,0.0,-91.21489,-25.61122,-41.94051,9.51,1.72,-1.23,2.0
1758075348.22975,1758075348.21506,0.0,0.0,0.0,-93.6786,-42.97184,-38.61736,9.36,1.02,-2.3,2.0
1758075348.24561,1758075348.22506,0.0,0.0,0.0,-95.34019,-59.47303,-34.43476,9.36,1.02,-2.3,2.0
1758075348.26998,1758075348.23506,0.0,0.0,0.0,-96.02773,-73.73967,-29.62192,10.4,0.68,-2.92,2.0
1758075348.27344,1758075348.24506,0.0,0.0,0.0,-98.03308,-63.54102,-22.05888,10.4,0.68,-2.92,2.0
1758075348.27885,1758075348.25506,0.0,0.0,0.0,-96.60069,-23.72045,-19.59516,15.3,0.61,-2.37,2.0
1758075348.28418,1758075348.26506,0.0,0.0,0.0,-93.7359,-8.65166,-13.46451,15.3,0.61,-2.37,2.0
1758075348.29955,1758075348.27506,0.0,0.0,0.0,-96.02773,-33.51803,-15.24068,14.66,0.45,-1.51,2.0
1758075348.30071,1758075348.28506,0.0,0.0,0.0,-94.65263,-62.28051,-14.66772,9.96,0.89,-3.14,2.0
1758075348.31552,1758075348.29506,0.0,0.0,0.0,-97.51743,-60.90542,-14.78231,9.96,0.89,-3.14,2.0
1758075348.31728,1758075348.30506,0.0,0.0,0.0,-99.00711,-54.60288,-12.204,10.69,1.1,-2.7,2.0
1758075348.33408,1758075348.31506,0.0,0.0,0.0,-99.63737,-61.53567,-7.96411,10.69,1.1,-2.7,2.0
1758075348.35046,1758075348.32506,0.0,0.0,0.0,-96.94446,-80.1568,-9.74028,8.29,0.78,2.02,2.0
1758075348.35386,1758075348.33506,0.0,0.0,0.0,-92.81918,-102.27297,-18.44924,8.29,0.78,2.02,2.0
1758075348.36959,1758075348.34506,0.0,0.0,0.0,-87.37608,-116.71152,-31.97105,10.47,-1.04,5.54,2.0
1758075348.37053,1758075348.35506,0.0,0.0,0.0,-74.59911,-107.83066,-51.16513,15.92,-1.04,4.98,2.0
1758075348.38538,1758075348.36506,0.0,0.0,0.0,-64.17127,-100.66869,-59.70221,15.92,-3.84,4.98,2.0
1758075348.38739,1758075348.37506,0.0,0.0,0.0,-57.63955,-104.79399,-67.37984,13.15,-5.66,4.55,2.0
1758075348.40472,1758075348.38506,0.0,0.0,0.0,-54.66018,-105.48153,-72.70835,13.15,-5.66,4.55,2.0
1758075348.42046,1758075348.39506,0.0,0.0,0.0,-59.47303,-86.91771,-73.96885,9.5,-3.49,3.33,2.0
1758075348.42232,1758075348.40506,0.0,0.0,0.0,-64.40046,-72.13539,-68.35387,9.5,-3.49,3.33,2.0
1758075348.43764,1758075348.41506,0.0,0.0,0.0,-69.78626,-58.49899,-55.6342,9.15,-0.64,1.9,2.0
1758075348.43886,1758075348.42506,0.0,0.0,0.0,-72.07809,-43.4875,-37.92981,9.15,-0.64,1.9,2.0
1758075348.4534,1758075348.43506,0.0,0.0,0.0,-71.21866,-13.75099,-6.7609,10.42,1.0,0.37,2.0
1758075348.47048,1758075348.44506,0.0,0.0,0.0,-66.40582,3.26586,13.80828,12.08,1.47,-0.88,2.0
1758075348.47247,1758075348.45506,0.0,0.0,0.0,-60.96271,20.34,31.39809,12.08,1.47,-0.88,2.0
1758075348.48741,1758075348.46506,0.0,0.0,0.0,-55.11855,37.87251,44.11775,11.99,0.52,-1.33,2.0
1758075348.48937,1758075348.47506,0.0,0.0,0.0,-47.09713,61.07731,54.08722,11.99,0.52,-1.33,2.0
1758075348.50467,1758075348.48506,0.0,0.0,0.0,-42.05511,71.04677,54.3737,10.5,-0.71,-0.83,2.0
1758075348.52068,1758075348.49506,0.0,0.0,0.0,-37.58603,77.12012,49.96192,10.5,-0.71,-0.83,2.0
1758075348.52403,1758075348.50506,0.0,0.0,0.0,-30.19488,84.45398,38.50277,8.83,-1.64,0.0,2.0
1758075348.53945,1758075348.51506,0.0,0.0,0.0,-24.75178,86.40204,29.10626,7.75,-2.6,-0.09,2.0
1758075348.54064,1758075348.52506,0.0,0.0,0.0,-18.9649,85.42801,19.36597,7.75,-2.6,-0.09,2.0
1758075348.55746,1758075348.53506,0.0,0.0,0.0,-13.75099,81.99026,10.08406,6.82,-3.19,-0.23,2.0
1758075348.56379,1758075348.54506,0.0,0.0,0.0,-4.81285,74.94289,-2.11994,6.82,-3.19,-0.23,2.0
1758075348.57846,1758075348.55506,0.0,0.0,0.0,0.80214,71.21866,-8.76626,6.73,-3.06,-0.5,2.0
1758075348.58399,1758075348.56506,0.0,0.0,0.0,6.7609,68.52576,-13.23533,6.73,-3.06,-0.5,2.0
1758075348.59876,1758075348.57506,0.0,0.0,0.0,11.28727,67.55173,-15.35527,7.59,-2.2,-0.32,2.0
1758075348.59999,1758075348.58506,0.0,0.0,0.0,17.93358,66.06203,-13.46451,8.65,-1.07,-0.12,2.0
1758075348.61482,1758075348.59506,0.0,0.0,0.0,21.94428,63.59832,-9.05273,8.65,-1.07,-0.12,2.0
1758075348.63076,1758075348.60506,0.0,0.0,0.0,25.8404,59.01466,-2.40642,9.49,-0.31,-0.08,2.0
1758075348.63277,1758075348.61506,0.0,0.0,0.0,29.67921,52.82671,6.58902,9.49,-0.31,-0.08,2.0
1758075348.64774,1758075348.62506,0.0,0.0,0.0,35.63798,51.45161,20.79837,10.43,-0.21,-0.48,2.0
1758075348.64944,1758075348.63506,0.0,0.0,0.0,38.84654,51.85268,29.27814,10.43,-0.21,-0.48,2.0
1758075348.6648,1758075348.64506,0.0,0.0,0.0,41.65404,50.1911,35.3515,11.12,-0.62,-0.93,2.0
1758075348.68077,1758075348.65506,0.0,0.0,0.0,43.65939,45.72203,39.07573,11.12,-0.62,-0.93,2.0
1758075348.68329,1758075348.66506,0.0,0.0,0.0,47.03984,35.58068,39.99245,10.75,-1.05,-1.12,2.0
1758075348.69859,1758075348.67506,0.0,0.0,0.0,48.8733,23.83505,38.61736,10.17,-1.38,-1.75,2.0
1758075348.70025,1758075348.68506,0.0,0.0,0.0,50.1911,6.18794,35.63798,10.17,-1.38,-1.75,2.0
1758075348.71449,1758075348.69506,0.0,0.0,0.0,49.21708,-10.65701,27.04361,9.3,-1.71,-2.21,2.0
1758075348.73076,1758075348.70506,0.0,0.0,0.0,49.56085,-16.61578,21.94428,9.3,-1.71,-2.21,2.0
1758075348.73177,1758075348.71506,0.0,0.0,0.0,48.9879,-13.80828,14.15206,11.32,-1.68,-2.05,2.0
1758075348.74761,1758075348.72506,0.0,0.0,0.0,49.67545,-12.83425,12.204,11.32,-1.68,-2.05,2.0
1758075348.7493,1758075348.73506,0.0,0.0,0.0,48.75871,-3.60963,7.10468,12.4,-1.39,-1.74,2.0
1758075348.76567,1758075348.74506,0.0,0.0,0.0,46.1231,7.62034,2.7502,13.53,-0.63,-1.24,2.0
1758075348.78163,1758075348.75506,0.0,0.0,0.0,43.94586,3.83882,-5.32851,13.53,-0.63,-1.24,2.0
1758075348.78384,1758075348.76506,0.0,0.0,0.0,44.9199,-41.65404,-6.24524,7.57,-0.12,-1.61,2.0
1758075348.79858,1758075348.77506,0.0,0.0,0.0,49.84733,-100.5541,-4.92744,7.57,-0.12,-1.61,2.0
1758075348.80054,1758075348.78506,0.0,0.0,0.0,50.3057,-107.4296,0.85944,6.98,-0.87,-2.12,2.0
1758075348.81582,1758075348.79506,0.0,0.0,0.0,48.75871,-112.29974,4.58366,6.98,-0.87,-2.12,2.0
1758075348.83167,1758075348.80506,0.0,0.0,0.0,44.17505,-130.06143,12.204,9.93,-0.68,3.8,2.0
1758075348.83543,1758075348.81506,0.0,0.0,0.0,32.88778,-169.25174,35.52338,12.28,2.39,8.7,2.0
1758075348.85167,1758075348.82506,0.0,0.0,0.0,26.24147,-172.68948,55.06125,12.28,2.39,8.7,2.0
1758075348.85765,1758075348.83506,0.0,0.0,0.0,21.08485,-156.58937,67.66632,18.8,5.39,4.62,2.0
1758075348.87718,1758075348.84506,0.0,0.0,0.0,18.73572,-144.49997,74.54182,18.8,5.39,4.62,2.0
1758075348.88087,1758075348.85506,0.0,0.0,0.0,17.99088,-128.05608,71.10406,13.17,2.84,3.68,2.0
1758075348.88533,1758075348.86506,0.0,0.0,0.0,20.79837,-114.41968,66.34852,13.17,2.84,3.68,2.0
1758075348.90507,1758075348.87506,0.0,0.0,0.0,24.75178,-93.39213,57.63955,8.02,-0.83,2.01,2.0
1758075348.91002,1758075348.88506,0.0,0.0,0.0,27.73116,-70.30193,35.58068,8.02,-0.83,2.01,2.0
1758075348.91158,1758075348.89506,0.0,0.0,0.0,31.97105,-40.7373,15.69904,7.69,-2.5,0.78,2.0
1758075348.92976,1758075348.90506,0.0,0.0,0.0,32.71589,-19.36597,-4.0107,8.92,-3.11,-0.02,2.0
1758075348.93035,1758075348.91506,0.0,0.0,0.0,31.97105,4.23989,-20.16812,8.92,-3.11,-0.02,2.0
1758075348.94964,1758075348.92506,0.0,0.0,0.0,27.61657,42.34158,-36.15364,11.66,-2.39,-0.99,2.0
1758075348.95405,1758075348.93506,0.0,0.0,0.0,22.74642,70.24463,-41.13837,11.66,-2.39,-0.99,2.0
1758075348.96961,1758075348.94506,0.0,0.0,0.0,16.73037,93.56402,-42.97184,13.58,0.21,-1.63,2.0
1758075348.97514,1758075348.95506,0.0,0.0,0.0,10.37054,106.68475,-40.96649,13.58,0.21,-1.63,2.0
1758075348.98978,1758075348.96506,0.0,0.0,0.0,0.17189,114.87804,-33.00237,11.85,2.97,-1.48,2.0
1758075348.99275,1758075348.97506,0.0,0.0,0.0,-5.90147,117.45636,-24.98096,9.75,3.75,-0.39,2.0
1758075349.00996,1758075348.98506,0.0,0.0,0.0,-11.11538,118.37309,-16.38659,9.75,3.75,-0.39,2.0
1758075349.0109,1758075348.99506,0.0,0.0,0.0,-15.29797,119.34712,-7.44845,7.73,2.51,-0.11,2.0
1758075349.02991,1758075349.00506,0.0,0.0,0.0,-20.79837,114.59156,5.15662,7.73,2.51,-0.11,2.0
1758075349.03494,1758075349.01506,0.0,0.0,0.0,-24.12152,108.46091,12.204,6.27,1.31,0.27,2.0
1758075349.04976,1758075349.02506,0.0,0.0,0.0,-27.73116,102.96053,16.3293,6.27,1.31,0.27,2.0
1758075349.05118,1758075349.03506,0.0,0.0,0.0,-31.91375,98.03308,17.6471,6.7,0.82,0.61,2.0
1758075349.06601,1758075349.04506,0.0,0.0,0.0,-39.19032,89.49601,13.17803,8.31,0.9,1.09,2.0
1758075349.06937,1758075349.05506,0.0,0.0,0.0,-45.14908,81.76109,6.24524,8.31,0.9,1.09,2.0
1758075349.08498,1758075349.06506,0.0,0.0,0.0,-51.85268,71.84892,-3.38045,9.42,1.28,1.14,2.0
1758075349.10444,1758075349.07506,0.0,0.0,0.0,-57.23849,57.63955,-11.11538,9.42,1.28,1.14,2.0
1758075349.10485,1758075349.08506,0.0,0.0,0.0,-69.15601,50.1911,-28.36141,9.73,1.55,0.48,2.0
1758075349.12364,1758075349.09506,0.0,0.0,0.0,-75.57314,46.63877,-36.38282,9.73,1.55,0.48,2.0
1758075349.12539,1758075349.10506,0.0,0.0,0.0,-81.01624,40.62271,-42.22699,9.69,1.45,0.03,2.0
1758075349.14197,1758075349.11506,0.0,0.0,0.0,-86.975,30.19488,-46.1231,9.69,1.45,0.03,2.0
1758075349.1436,1758075349.12506,0.0,0.0,0.0,-89.55331,4.98473,-45.72203,8.69,1.2,-0.94,2.0
1758075349.15905,1758075349.13506,0.0,0.0,0.0,-89.26682,-14.09476,-42.97184,7.77,0.96,-1.76,2.0
1758075349.15987,1758075349.14506,0.0,0.0,0.0,-86.975,-32.54401,-38.38818,7.77,0.96,-1.76,2.0
1758075349.17501,1758075349.15506,0.0,0.0,0.0,-83.82372,-47.09713,-26.69983,8.65,0.16,-2.48,2.0
1758075349.1802,1758075349.16506,0.0,0.0,0.0,-80.44328,-29.04896,-24.4653,8.65,0.16,-2.48,2.0
1758075349.19681,1758075349.17506,0.0,0.0,0.0,-76.54716,-5.4431,-20.85567,13.96,-0.34,-1.13,2.0
1758075349.19859,1758075349.18506,0.0,0.0,0.0,-69.27061,11.34457,-14.49583,13.96,-0.34,-1.13,2.0
1758075349.21476,1758075349.19506,0.0,0.0,0.0,-64.22858,-35.00772,-12.2613,13.98,-1.08,-0.25,2.0
1758075349.23254,1758075349.20506,0.0,0.0,0.0,-61.02001,-53.51426,-11.86023,10.19,-0.81,-2.33,2.0
1758075349.23422,1758075349.21506,0.0,0.0,0.0,-58.55629,-49.90463,-10.02676,10.19,-0.81,-2.33,2.0
1758075349.24996,1758075349.22506,0.0,0.0,0.0,-58.04062,-40.7946,-7.79223,11.74,-0.28,-2.28,2.0
1758075349.25262,1758075349.23506,0.0,0.0,0.0,-59.70221,-29.50733,-2.7502,11.74,-0.28,-2.28,2.0
1758075349.26964,1758075349.24506,0.0,0.0,0.0,-60.96271,-27.04361,1.43239,9.74,0.16,-1.24,2.0
1758075349.27482,1758075349.25506,0.0,0.0,0.0,-61.07731,-31.74186,4.64096,9.74,0.16,-1.24,2.0
1758075349.28979,1758075349.26506,0.0,0.0,0.0,-58.26981,-46.35228,6.13065,7.65,0.41,1.48,2.0
1758075349.295,1758075349.27506,0.0,0.0,0.0,-52.54023,-90.06896,-0.74485,6.77,-0.2,3.4,2.0
1758075349.30977,1758075349.28506,0.0,0.0,0.0,-49.61814,-117.97201,-11.97482,6.77,-0.2,3.4,2.0
1758075349.31297,1758075349.29506,0.0,0.0,0.0,-46.1231,-126.62368,-24.80907,10.4,-0.98,4.6,2.0
1758075349.32808,1758075349.30506,0.0,0.0,0.0,-42.34158,-120.37844,-40.10705,10.4,-0.98,4.6,2.0
1758075349.33484,1758075349.31506,0.0,0.0,0.0,-40.62271,-120.55033,-49.96192,12.99,-1.93,5.48,2.0
1758075349.34991,1758075349.32506,0.0,0.0,0.0,-43.37291,-120.55033,-57.92604,12.99,-1.93,5.48,2.0
1758075349.35527,1758075349.33506,0.0,0.0,0.0,-49.84733,-114.1905,-64.74423,10.37,-2.38,3.91,2.0
1758075349.36992,1758075349.34506,0.0,0.0,0.0,-61.07731,-95.22559,-66.46311,10.37,-2.38,3.91,2.0
1758075349.3721,1758075349.35506,0.0,0.0,0.0,-67.32255,-80.0995,-60.79083,9.68,-1.17,1.23,2.0
1758075349.38979,1758075349.36506,0.0,0.0,0.0,-69.90086,-61.02001,-47.49821,11.28,0.37,-0.31,2.0
1758075349.39207,1758075349.37506,0.0,0.0,0.0,-69.27061,-39.3622,-30.93972,11.28,0.37,-0.31,2.0
1758075349.40708,1758075349.38506,0.0,0.0,0.0,-60.04598,-9.05273,-3.66693,13.19,1.2,-0.96,2.0
1758075349.40878,1758075349.39506,0.0,0.0,0.0,-51.27972,10.19865,12.83425,13.19,1.2,-0.96,2.0
1758075349.42415,1758075349.40506,0.0,0.0,0.0,-43.20102,28.59059,25.55392,13.61,0.81,-1.63,2.0
1758075349.44011,1758075349.41506,0.0,0.0,0.0,-34.66395,44.40423,33.9764,13.61,0.81,-1.63,2.0
1758075349.44104,1758075349.42506,0.0,0.0,0.0,-24.17882,65.48907,38.21629,12.39,-0.53,-0.93,2.0
1758075349.45785,1758075349.43506,0.0,0.0,0.0,-17.99088,73.2813,36.84119,10.55,-1.71,-0.56,2.0
1758075349.46335,1758075349.44506,0.0,0.0,0.0,-12.2613,74.25533,31.97105,10.55,-1.71,-0.56,2.0
1758075349.47785,1758075349.45506,0.0,0.0,0.0,-7.04738,70.87489,25.8404,7.85,-2.6,-0.73,2.0
1758075349.48154,1758075349.46506,0.0,0.0,0.0,-0.22918,66.635,15.29797,7.85,-2.6,-0.73,2.0
1758075349.49721,1758075349.47506,0.0,0.0,0.0,4.29718,65.71826,9.33921,7.08,-2.97,-1.12,2.0
1758075349.49806,1758075349.48506,0.0,0.0,0.0,9.22462,65.03072,4.81285,7.08,-2.97,-1.12,2.0
1758075349.51319,1758075349.49506,0.0,0.0,0.0,13.5791,65.71826,1.20321,7.18,-2.64,-1.3,2.0
1758075349.52891,1758075349.50506,0.0,0.0,0.0,21.88699,68.86953,-0.74485,8.16,-1.83,-0.97,2.0
1758075349.53061,1758075349.51506,0.0,0.0,0.0,27.38738,70.41652,0.0573,8.16,-1.83,-0.97,2.0
1758075349.54513,1758075349.52506,0.0,0.0,0.0,33.17426,69.49979,2.00535,9.06,-1.22,-0.71,2.0
1758075349.5466,1758075349.53506,0.0,0.0,0.0,41.13837,62.39511,7.39116,9.06,-1.22,-0.71,2.0
1758075349.56382,1758075349.54506,0.0,0.0,0.0,47.26902,60.27517,12.83425,9.4,-1.09,-0.59,2.0
1758075349.57925,1758075349.55506,0.0,0.0,0.0,51.90998,62.33781,17.93358,9.4,-1.09,-0.59,2.0
1758075349.58014,1758075349.56506,0.0,0.0,0.0,54.66018,64.91612,22.34536,10.69,-1.28,-0.83,2.0
1758075349.59523,1758075349.57506,0.0,0.0,0.0,56.20716,62.85347,27.10091,10.69,-1.28,-0.83,2.0
1758075349.59615,1758075349.58506,0.0,0.0,0.0,56.32175,58.09792,28.36141,10.64,-1.34,-0.28,2.0
1758075349.61394,1758075349.59506,0.0,0.0,0.0,55.92068,51.73809,28.07493,10.25,-1.22,-0.7,2.0
1758075349.62993,1758075349.60506,0.0,0.0,0.0,55.11855,44.46153,26.69983,10.25,-1.22,-0.7,2.0
1758075349.63457,1758075349.61506,0.0,0.0,0.0,50.3057,25.55392,23.60586,9.78,-0.92,-0.93,2.0
1758075349.64997,1758075349.62506,0.0,0.0,0.0,46.63877,6.35983,19.88164,9.78,-0.92,-0.93,2.0
1758075349.65452,1758075349.63506,0.0,0.0,0.0,43.25832,-10.31324,15.58445,8.5,-0.63,-1.52,2.0
1758075349.66917,1758075349.64506,0.0,0.0,0.0,41.25296,-10.59972,10.59972,8.5,-0.63,-1.52,2.0
1758075349.67016,1758075349.65506,0.0,0.0,0.0,38.90384,-5.15662,5.90147,10.1,-0.31,-1.86,2.0
1758075349.6852,1758075349.66506,0.0,0.0,0.0,37.01308,5.50039,3.03668,11.44,-0.29,-1.49,2.0
1758075349.70366,1758075349.67506,0.0,0.0,0.0,34.14828,18.33465,1.43239,11.44,-0.29,-1.49,2.0
1758075349.70484,1758075349.68506,0.0,0.0,0.0,30.76784,9.68299,-5.72958,10.47,-0.18,-0.54,2.0
1758075349.72027,1758075349.69506,0.0,0.0,0.0,31.85646,-56.14987,-9.11003,10.47,-0.18,-0.54,2.0
1758075349.72284,1758075349.70506,0.0,0.0,0.0,34.32018,-104.04914,-4.18259,4.52,-0.43,-3.06,2.0
1758075349.7401,1758075349.71506,0.0,0.0,0.0,35.40879,-117.11258,4.1253,4.52,-0.43,-3.06,2.0
1758075349.74345,1758075349.72506,0.0,0.0,0.0,32.71589,-119.46171,12.89155,8.85,-1.59,0.48,2.0
1758075349.76008,1758075349.73506,0.0,0.0,0.0,26.69983,-147.70853,25.8404,10.66,0.24,5.16,2.0
1758075349.76266,1758075349.74506,0.0,0.0,0.0,18.62113,-168.73608,44.28964,10.66,0.24,5.16,2.0
1758075349.77799,1758075349.75506,0.0,0.0,0.0,11.45916,-165.75671,63.42643,17.33,4.97,6.55,2.0
1758075349.77925,1758075349.76506,0.0,0.0,0.0,4.52637,-141.17682,75.28666,17.33,4.97,6.55,2.0
1758075349.79404,1758075349.77506,0.0,0.0,0.0,3.20856,-133.21269,75.97421,16.74,5.12,1.54,2.0
1758075349.81006,1758075349.78506,0.0,0.0,0.0,4.35448,-123.47241,70.53111,16.74,5.12,1.54,2.0
1758075349.81129,1758075349.79506,0.0,0.0,0.0,9.68299,-110.86734,63.8275,9.69,0.84,3.33,2.0
1758075349.82711,1758075349.80506,0.0,0.0,0.0,21.48592,-77.63579,47.89928,8.55,0.84,0.97,2.0
1758075349.82915,1758075349.81506,0.0,0.0,0.0,29.67921,-55.06125,34.37747,8.55,-1.72,0.97,2.0
1758075349.8444,1758075349.82506,0.0,0.0,0.0,36.49741,-38.50277,17.76169,8.87,-3.22,0.14,2.0
1758075349.86034,1758075349.83506,0.0,0.0,0.0,41.88322,-22.00158,1.60428,8.87,-3.22,0.14,2.0
1758075349.86206,1758075349.84506,0.0,0.0,0.0,46.00851,9.85487,-16.61578,11.27,-3.33,-0.96,2.0
1758075349.87822,1758075349.85506,0.0,0.0,0.0,45.37826,36.6693,-24.12152,11.27,-3.33,-0.96,2.0
1758075349.88396,1758075349.86506,0.0,0.0,0.0,42.91454,63.59832,-27.44468,14.84,-1.44,-2.33,2.0
1758075349.90016,1758075349.87506,0.0,0.0,0.0,39.4768,86.80311,-27.67386,14.84,-1.44,-2.33,2.0
1758075349.90111,1758075349.88506,0.0,0.0,0.0,33.11696,108.28902,-25.21014,14.33,1.21,-2.04,2.0
1758075349.91718,1758075349.89506,0.0,0.0,0.0,29.10626,116.19585,-21.60051,10.89,2.27,-0.89,2.0
1758075349.91809,1758075349.90506,0.0,0.0,0.0,26.41335,121.69624,-16.73037,10.89,2.27,-0.89,2.0
1758075349.93467,1758075349.91506,0.0,0.0,0.0,24.23611,125.36317,-11.34457,8.33,1.78,-0.02,2.0
1758075349.95009,1758075349.92506,0.0,0.0,0.0,21.60051,127.36852,-2.34913,8.33,1.78,-0.02,2.0
1758075349.95528,1758075349.93506,0.0,0.0,0.0,19.99623,123.75889,3.95341,6.72,1.02,0.44,2.0
1758075349.97037,1758075349.94506,0.0,0.0,0.0,17.87628,114.64886,9.62569,6.72,1.02,0.44,2.0
1758075349.97208,1758075349.95506,0.0,0.0,0.0,13.17803,94.99641,16.38659,5.48,0.54,0.72,2.0
1758075349.98736,1758075349.96506,0.0,0.0,0.0,8.99544,82.33404,18.56383,5.93,0.56,0.78,2.0
1758075349.98912,1758075349.97506,0.0,0.0,0.0,3.60963,72.99483,18.44924,5.93,0.56,0.78,2.0
1758075350.0044,1758075349.98506,0.0,0.0,0.0,-2.97938,64.22858,14.78231,7.71,1.06,0.83,2.0
1758075350.02049,1758075349.99506,0.0,0.0,0.0,-14.83961,46.46688,4.46907,7.71,1.06,0.83,2.0
1758075350.02483,1758075350.00506,0.0,0.0,0.0,-22.63183,32.48671,-4.23989,8.39,1.79,0.49,2.0
1758075350.0403,1758075350.01506,0.0,0.0,0.0,-32.77319,27.78845,-14.32395,8.39,1.79,0.49,2.0
1758075350.04242,1758075350.02506,0.0,0.0,0.0,-41.25296,24.63719,-24.12152,9.25,2.11,-0.07,2.0
1758075350.05983,1758075350.03506,0.0,0.0,0.0,-52.02457,19.25138,-35.98175,9.5,1.77,-0.11,2.0
1758075350.06267,1758075350.04506,0.0,0.0,0.0,-56.89471,12.43318,-42.28429,9.5,1.77,-0.11,2.0
1758075350.07906,1758075350.05506,0.0,0.0,0.0,-59.87409,-1.14592,-46.81066,8.75,1.15,-1.35,2.0
1758075350.08021,1758075350.06506,0.0,0.0,0.0,-60.61894,-17.99088,-48.58683,8.75,1.15,-1.35,2.0
1758075350.09519,1758075350.07506,0.0,0.0,0.0,-57.29578,-40.50812,-46.52417,8.02,0.61,-2.39,2.0
1758075350.1004,1758075350.08506,0.0,0.0,0.0,-55.34772,-44.51882,-39.82057,8.02,0.61,-2.39,2.0
1758075350.12045,1758075350.09506,0.0,0.0,0.0,-51.6235,-23.49127,-37.81522,10.68,0.45,-2.45,2.0
1758075350.12455,1758075350.10506,0.0,0.0,0.0,-48.70141,6.58902,-34.32018,10.68,0.45,-2.45,2.0
1758075350.14049,1758075350.11506,0.0,0.0,0.0,-39.4768,12.71966,-26.01229,15.84,0.0,-1.54,2.0
1758075350.14376,1758075350.12506,0.0,0.0,0.0,-38.15899,-23.26209,-21.7151,10.59,0.13,-0.57,2.0
1758075350.16023,1758075350.13506,0.0,0.0,0.0,-35.75257,-41.02378,-17.87628,10.59,0.13,-0.57,2.0
1758075350.16388,1758075350.14506,0.0,0.0,0.0,-33.05967,-39.87786,-10.8862,13.02,0.6,-2.75,2.0
1758075350.17954,1758075350.15506,0.0,0.0,0.0,-33.34615,-27.78845,-4.92744,13.02,0.6,-2.75,2.0
1758075350.18073,1758075350.16506,0.0,0.0,0.0,-34.49206,-21.14215,1.3178,12.47,1.12,-1.31,2.0
1758075350.19927,1758075350.17506,0.0,0.0,0.0,-36.49741,-17.81899,6.99009,12.47,1.12,-1.31,2.0
1758075350.20067,1758075350.18506,0.0,0.0,0.0,-38.90384,-21.37133,14.20935,10.05,1.37,-0.36,2.0
1758075350.21529,1758075350.19506,0.0,0.0,0.0,-38.27358,-33.34615,16.90226,7.29,1.27,0.75,2.0
1758075350.21669,1758075350.20506,0.0,0.0,0.0,-35.58068,-52.25375,16.73037,7.29,1.27,0.75,2.0
1758075350.23255,1758075350.21506,0.0,0.0,0.0,-29.27814,-78.26604,11.97482,6.56,0.1,3.34,2.0
1758075350.24933,1758075350.22506,0.0,0.0,0.0,-20.3973,-122.55568,-5.21392,6.56,0.1,3.34,2.0
1758075350.25312,1758075350.23506,0.0,0.0,0.0,-15.46986,-135.50452,-20.97026,9.25,-1.63,5.23,2.0
1758075350.26997,1758075350.24506,0.0,0.0,0.0,-12.08941,-134.5305,-35.3515,9.25,-1.63,5.23,2.0
1758075350.27265,1758075350.25506,0.0,0.0,0.0,-10.8862,-131.72299,-47.09713,13.8,-2.98,5.68,2.0
1758075350.28851,1758075350.26506,0.0,0.0,0.0,-15.24068,-127.19663,-58.09792,11.89,-3.07,4.2,2.0
1758075350.28947,1758075350.27506,0.0,0.0,0.0,-21.7151,-118.43038,-62.39511,11.89,-3.07,4.2,2.0
1758075350.3044,1758075350.28506,0.0,0.0,0.0,-29.33544,-104.90858,-61.42108,10.7,-1.07,1.71,2.0
1758075350.32027,1758075350.29506,0.0,0.0,0.0,-36.15364,-88.63658,-55.6915,10.7,-1.07,1.71,2.0
1758075350.32257,1758075350.30506,0.0,0.0,0.0,-40.96649,-58.04062,-34.60666,11.57,0.83,-0.3,2.0
1758075350.33921,1758075350.31506,0.0,0.0,0.0,-39.53409,-32.6013,-17.24603,11.57,0.83,-0.3,2.0
1758075350.34011,1758075350.32506,0.0,0.0,0.0,-35.2369,-8.59437,-0.11459,13.48,1.52,-1.29,2.0
1758075350.35557,1758075350.33506,0.0,0.0,0.0,-27.78845,13.40721,20.62648,13.48,1.52,-1.29,2.0
1758075350.35732,1758075350.34506,0.0,0.0,0.0,-19.07949,39.24761,29.22085,13.03,0.95,-1.91,2.0
1758075350.37461,1758075350.35506,0.0,0.0,0.0,-14.49583,52.42564,33.86181,11.04,0.02,-1.02,2.0
1758075350.39036,1758075350.36506,0.0,0.0,0.0,-11.91752,63.13995,34.89313,11.04,0.02,-1.02,2.0
1758075350.39156,1758075350.37506,0.0,0.0,0.0,-7.50575,75.91692,30.02299,9.82,-0.6,-0.39,2.0
1758075350.40636,1758075350.38506,0.0,0.0,0.0,-5.09932,80.61517,24.23611,9.82,-0.6,-0.39,2.0
1758075350.40941,1758075350.39506,0.0,0.0,0.0,-2.23454,78.15145,17.6471,8.58,-1.26,0.16,2.0
1758075350.42433,1758075350.40506,0.0,0.0,0.0,0.0,71.90621,10.19865,8.58,-1.26,0.16,2.0
1758075350.44035,1758075350.41506,0.0,0.0,0.0,3.72423,62.68159,-1.43239,7.1,-1.95,-0.08,2.0
1758075350.45867,1758075350.42506,0.0,0.0,0.0,7.21927,58.04062,-7.10468,7.18,-2.35,-0.7,2.0
1758075350.45886,1758075350.43506,0.0,0.0,0.0,11.34457,55.7488,-11.17268,7.18,-2.35,-0.7,2.0
1758075350.45955,1758075350.44506,0.0,0.0,0.0,16.272,54.25911,-12.83425,7.83,-2.33,-0.9,2.0
1758075350.47461,1758075350.45506,0.0,0.0,0.0,24.57989,49.84733,-10.94349,7.83,-2.33,-0.9,2.0
1758075350.49036,1758075350.46506,0.0,0.0,0.0,30.82513,42.68536,-6.70361,8.15,-1.95,-0.59,2.0
1758075350.4947,1758075350.47506,0.0,0.0,0.0,38.27358,34.0337,1.20321,8.15,-1.95,-0.59,2.0
1758075350.51058,1758075350.48506,0.0,0.0,0.0,43.94586,31.79916,8.76626,8.64,-1.69,-0.78,2.0
1758075350.51322,1758075350.49506,0.0,0.0,0.0,52.884,36.15364,21.08485,10.34,-1.43,-0.95,2.0
1758075350.52861,1758075350.50506,0.0,0.0,0.0,56.32175,38.90384,27.44468,10.34,-1.43,-0.95,2.0
1758075350.52961,1758075350.51506,0.0,0.0,0.0,58.4417,40.33623,32.08564,10.87,-1.04,-0.29,2.0
1758075350.54459,1758075350.52506,0.0,0.0,0.0,59.18654,39.19032,34.26288,10.87,-1.04,-0.29,2.0
1758075350.56032,1758075350.53506,0.0,0.0,0.0,57.81144,33.34615,34.43476,10.48,-0.63,-0.7,2.0
1758075350.56159,1758075350.54506,0.0,0.0,0.0,56.03527,27.04361,32.88778,10.48,-0.63,-0.7,2.0
1758075350.57764,1758075350.55506,0.0,0.0,0.0,53.74345,16.84496,30.53865,9.87,-0.4,-0.85,2.0
1758075350.57934,1758075350.56506,0.0,0.0,0.0,49.79003,-0.45837,24.80907,9.87,-0.4,-0.85,2.0
1758075350.5944,1758075350.57506,0.0,0.0,0.0,47.32632,-15.98552,18.50654,8.49,-0.36,-1.42,2.0
1758075350.61061,1758075350.58506,0.0,0.0,0.0,47.95657,-7.04738,16.04282,10.42,-0.58,-1.41,2.0
1758075350.61199,1758075350.59506,0.0,0.0,0.0,48.35764,3.55234,13.46451,10.42,-0.58,-1.41,2.0
1758075350.62647,1758075350.60506,0.0,0.0,0.0,47.38361,33.17426,10.02676,12.49,-0.95,-0.51,2.0
1758075350.62764,1758075350.61506,0.0,0.0,0.0,46.98254,23.89234,2.7502,12.49,-0.95,-0.51,2.0
1758075350.64243,1758075350.62506,0.0,0.0,0.0,49.61814,-18.79302,3.89611,9.45,-1.33,0.21,2.0
1758075350.65973,1758075350.63506,0.0,0.0,0.0,53.39967,-68.01009,5.4431,9.45,-1.33,0.21,2.0
1758075350.66064,1758075350.64506,0.0,0.0,0.0,61.99404,-82.16215,16.73037,6.91,-2.4,-3.15,2.0
1758075350.67575,1758075350.65506,0.0,0.0,0.0,66.17663,-70.76029,19.36597,12.13,-3.27,-1.22,2.0
1758075350.67913,1758075350.66506,0.0,0.0,0.0,69.55708,-63.99939,19.19409,12.13,-3.27,-1.22,2.0
1758075350.69472,1758075350.67506,0.0,0.0,0.0,71.84892,-65.89015,18.22006,10.2,-2.92,-1.77,2.0
1758075350.7105,1758075350.68506,0.0,0.0,0.0,70.76029,-66.40582,15.06879,10.2,-2.92,-1.77,2.0
1758075350.71327,1758075350.69506,0.0,0.0,0.0,67.9528,-67.09336,11.45916,9.23,-2.17,-0.73,2.0
1758075350.72963,1758075350.70506,0.0,0.0,0.0,63.31184,-70.93218,6.8182,9.23,-2.17,-0.73,2.0
1758075350.73218,1758075350.71506,0.0,0.0,0.0,57.12389,-74.65641,3.55234,8.32,-0.68,0.01,2.0
1758075350.74751,1758075350.72506,0.0,0.0,0.0,46.35228,-86.91771,3.03668,9.73,1.92,0.95,2.0
1758075350.74943,1758075350.73506,0.0,0.0,0.0,39.01843,-107.2004,7.21927,9.73,1.92,0.95,2.0
1758075350.76478,1758075350.74506,0.0,0.0,0.0,35.2369,-124.21727,15.75634,10.17,4.07,1.38,2.0
1758075350.78065,1758075350.75506,0.0,0.0,0.0,32.54401,-127.8269,29.9084,10.17,4.07,1.38,2.0
1758075350.78176,1758075350.76506,0.0,0.0,0.0,29.39274,-110.81004,35.98175,13.78,4.11,0.52,2.0
1758075350.79856,1758075350.77506,0.0,0.0,0.0,30.30947,-99.29359,39.24761,13.78,4.11,0.52,2.0
1758075350.7995,1758075350.78506,0.0,0.0,0.0,34.0337,-87.60525,39.64868,12.46,1.79,1.93,2.0
1758075350.81473,1758075350.79506,0.0,0.0,0.0,43.83128,-60.04598,34.26288,12.46,1.79,1.93,2.0
1758075350.83053,1758075350.80506,0.0,0.0,0.0,52.76942,-32.20023,27.61657,10.05,-0.53,1.38,2.0
1758075350.83481,1758075350.81506,0.0,0.0,0.0,61.07731,-2.63561,19.07949,9.88,-1.95,-0.85,2.0
1758075350.85054,1758075350.82506,0.0,0.0,0.0,68.23928,22.00158,9.96947,9.88,-1.95,-0.85,2.0
1758075350.85434,1758075350.83506,0.0,0.0,0.0,74.59911,53.97263,-1.60428,10.46,-2.64,-1.73,2.0
1758075350.8698,1758075350.84506,0.0,0.0,0.0,75.63043,79.46925,-4.98473,10.46,-2.64,-1.73,2.0
1758075350.87097,1758075350.85506,0.0,0.0,0.0,72.42187,98.49145,-7.67763,14.54,-2.29,-2.29,2.0
1758075350.88583,1758075350.86506,0.0,0.0,0.0,67.78091,105.76801,-7.50575,14.54,-2.29,-2.29,2.0
1758075350.8867,1758075350.87506,0.0,0.0,0.0,59.53032,106.39826,-5.61499,14.22,-0.62,-1.95,2.0
1758075350.9048,1758075350.88506,0.0,0.0,0.0,54.08722,106.62745,-4.29718,12.91,1.57,-0.82,2.0
1758075350.92083,1758075350.89506,0.0,0.0,0.0,48.24305,106.97123,-3.32316,12.91,1.57,-0.82,2.0
1758075350.92175,1758075350.90506,0.0,0.0,0.0,41.42485,107.37229,-2.40642,11.4,3.08,-0.16,2.0
1758075350.93673,1758075350.91506,0.0,0.0,0.0,28.87707,107.94526,-2.86479,11.4,3.08,-0.16,2.0
1758075350.93777,1758075350.92506,0.0,0.0,0.0,19.13679,107.25771,-4.18259,9.02,3.53,0.06,2.0
1758075350.95379,1758075350.93506,0.0,0.0,0.0,7.10468,104.6794,-6.99009,9.02,3.53,0.06,2.0
1758075350.96962,1758075350.94506,0.0,0.0,0.0,-4.92744,100.32492,-11.34457,7.05,3.38,-0.08,2.0
1758075350.97112,1758075350.95506,0.0,0.0,0.0,-22.23076,86.40204,-20.22541,6.68,2.95,-0.33,2.0
1758075350.98562,1758075350.96506,0.0,0.0,0.0,-33.34615,75.34396,-25.15285,6.68,2.95,-0.33,2.0
1758075350.98685,1758075350.97506,0.0,0.0,0.0,-46.06581,68.29657,-34.60666,7.55,2.46,-0.05,2.0
1758075351.00476,1758075350.98506,0.0,0.0,0.0,-59.53032,61.02001,-44.748,7.55,2.46,-0.05,2.0
1758075351.02061,1758075350.99506,0.0,0.0,0.0,-66.80688,48.30034,-48.9879,8.5,1.81,-0.21,2.0
1758075351.02179,1758075351.00506,0.0,0.0,0.0,-72.36457,29.27814,-49.04519,8.5,1.81,-0.21,2.0
1758075351.03684,1758075351.01506,0.0,0.0,0.0,-75.05748,13.69369,-47.67009,7.96,1.26,-0.38,2.0
1758075351.05286,1758075351.02506,0.0,0.0,0.0,-77.57849,4.52637,-41.08107,7.96,1.26,-0.38,2.0
1758075351.05456,1758075351.03506,0.0,0.0,0.0,-78.38063,11.63104,-33.40344,9.36,0.69,-0.89,2.0
1758075351.06969,1758075351.04506,0.0,0.0,0.0,-78.03686,31.51268,-27.73116,11.8,0.29,0.05,2.0
1758075351.07078,1758075351.05506,0.0,0.0,0.0,-77.63579,44.23235,-22.51724,11.8,0.29,0.05,2.0
1758075351.08589,1758075351.06506,0.0,0.0,0.0,-75.57314,53.74345,-17.01685,10.83,-0.13,-0.02,2.0
1758075351.08705,1758075351.07506,0.0,0.0,0.0,-72.76565,51.79538,-12.204,10.83,-0.13,-0.02,2.0
1758075351.10488,1758075351.08506,0.0,0.0,0.0,-69.3279,26.41335,-10.19865,8.67,-0.31,-0.67,2.0
1758075351.12083,1758075351.09506,0.0,0.0,0.0,-68.58305,2.34913,-12.08941,8.67,-0.31,-0.67,2.0
1758075351.12427,1758075351.10506,0.0,0.0,0.0,-66.29122,-12.71966,-14.83961,7.06,-0.25,-1.8,2.0
1758075351.13986,1758075351.11506,0.0,0.0,0.0,-65.43179,-13.12073,-16.90226,9.54,0.0,-1.4,2.0
1758075351.14109,1758075351.12506,0.0,0.0,0.0,-66.17663,-6.24524,-18.10547,9.54,0.0,-1.4,2.0
1758075351.15665,1758075351.13506,0.0,0.0,0.0,-67.15066,0.34377,-19.07949,11.72,0.16,-0.11,2.0
1758075351.15766,1758075351.14506,0.0,0.0,0.0,-68.64035,7.16197,-18.90761,11.72,0.16,-0.11,2.0
1758075351.17288,1758075351.15506,0.0,0.0,0.0,-69.67168,10.19865,-18.27736,12.51,0.4,0.22,2.0
1758075351.18891,1758075351.16506,0.0,0.0,0.0,-70.47381,12.71966,-16.61578,12.51,0.4,0.22,2.0
1758075351.18983,1758075351.17506,0.0,0.0,0.0,-70.01544,12.77696,-12.71966,12.25,0.5,-0.04,2.0
1758075351.20465,1758075351.18506,0.0,0.0,0.0,-69.67168,9.4538,-9.74028,10.92,0.37,-0.43,2.0
1758075351.22096,1758075351.19506,0.0,0.0,0.0,-68.52576,5.72958,-6.47442,10.92,0.37,-0.43,2.0
1758075351.22377,1758075351.20506,0.0,0.0,0.0,-66.97877,0.40107,-3.38045,9.5,0.18,-0.41,2.0
1758075351.23897,1758075351.21506,0.0,0.0,0.0,-62.28051,-13.75099,-0.11459,9.5,0.18,-0.41,2.0
1758075351.24017,1758075351.22506,0.0,0.0,0.0,-56.89471,-24.00693,-0.22918,9.09,-0.43,0.88,2.0
1758075351.25476,1758075351.23506,0.0,0.0,0.0,-49.90463,-35.86716,-2.46372,9.09,-0.43,0.88,2.0
1758075351.27173,1758075351.24506,0.0,0.0,0.0,-41.48215,-52.884,-8.02141,10.93,-1.84,1.79,2.0
1758075351.27511,1758075351.25506,0.0,0.0,0.0,-29.9084,-73.10942,-20.11082,12.27,-1.84,1.65,2.0
1758075351.29153,1758075351.26506,0.0,0.0,0.0,-23.31938,-79.35466,-27.10091,12.27,-2.55,1.65,2.0
1758075351.29506,1758075351.27506,0.0,0.0,0.0,-16.95955,-86.91771,-31.62727,11.5,-2.04,2.17,2.0
1758075351.31179,1758075351.28506,0.0,0.0,0.0,-12.71966,-100.72599,-33.68992,11.5,-2.04,2.17,2.0
1758075351.31314,1758075351.29506,0.0,0.0,0.0,-9.33921,-121.18058,-34.14828,7.87,-0.79,2.46,2.0
1758075351.32804,1758075351.30506,0.0,0.0,0.0,-10.37054,-126.73827,-33.05967,7.87,-0.79,2.46,2.0
1758075351.3292,1758075351.31506,0.0,0.0,0.0,-14.83961,-124.96209,-30.19488,7.01,0.55,2.86,2.0
1758075351.34388,1758075351.32506,0.0,0.0,0.0,-21.14215,-121.52435,-25.8404,7.01,0.55,2.86,2.0
1758075351.35979,1758075351.33506,0.0,0.0,0.0,-33.11696,-107.54418,-19.70975,6.86,1.28,2.89,2.0
1758075351.36094,1758075351.34506,0.0,0.0,0.0,-41.65404,-91.27219,-15.29797,8.14,1.62,1.89,2.0
1758075351.37577,1758075351.35506,0.0,0.0,0.0,-49.15978,-72.99483,-10.25595,8.14,1.62,1.89,2.0
1758075351.37911,1758075351.36506,0.0,0.0,0.0,-54.60288,-53.05589,-5.09932,10.25,1.29,-0.28,2.0
1758075351.39447,1758075351.37506,0.0,0.0,0.0,-57.12389,-20.45459,1.48969,10.25,1.29,-0.28,2.0
1758075351.41105,1758075351.38506,0.0,0.0,0.0,-55.7488,0.68755,3.55234,13.22,0.38,-1.13,2.0
1758075351.41194,1758075351.39506,0.0,0.0,0.0,-53.17049,19.99623,3.89611,13.22,0.38,-1.13,2.0
1758075351.42707,1758075351.40506,0.0,0.0,0.0,-48.52953,46.1231,2.06265,14.04,-0.72,-1.65,2.0
1758075351.42879,1758075351.41506,0.0,0.0,0.0,-45.26366,61.30648,0.40107,13.1,-1.42,-1.37,2.0
1758075351.44407,1758075351.42506,0.0,0.0,0.0,-42.97184,70.81759,-1.3751,13.1,-1.42,-1.37,2.0
1758075351.4598,1758075351.43506,0.0,0.0,0.0,-41.02378,72.53646,-3.49504,10.71,-1.41,-0.81,2.0
1758075351.461,1758075351.44506,0.0,0.0,0.0,-38.44547,69.90086,-7.50575,10.71,-1.41,-0.81,2.0
1758075351.47911,1758075351.45506,0.0,0.0,0.0,-31.45539,65.14531,-8.70896,9.16,-1.27,-0.92,2.0
1758075351.49475,1758075351.46506,0.0,0.0,0.0,-29.8511,64.91612,-8.36518,9.16,-1.27,-0.92,2.0
1758075351.51184,1758075351.47506,0.0,0.0,0.0,-24.12152,65.08801,-5.4431,9.07,-1.16,-0.67,2.0
1758075351.51518,1758075351.48506,0.0,0.0,0.0,-19.36597,65.71826,-1.83346,9.07,-1.16,-0.67,2.0
1758075351.53111,1758075351.49506,0.0,0.0,0.0,-14.09476,64.80153,2.40642,8.78,-1.12,-0.31,2.0
1758075351.53316,1758075351.50506,0.0,0.0,0.0,-7.84952,63.02536,7.50575,8.78,-1.12,-0.31,2.0
1758075351.5481,1758075351.51506,0.0,0.0,0.0,2.7502,59.12925,16.10011,8.83,-1.37,-0.18,2.0
1758075351.54991,1758075351.52506,0.0,0.0,0.0,11.17268,52.02457,22.97561,8.83,-1.37,-0.18,2.0
1758075351.56492,1758075351.53506,0.0,0.0,0.0,19.19409,47.67009,28.64789,8.92,-1.88,-0.31,2.0
1758075351.56803,1758075351.54506,0.0,0.0,0.0,26.75713,44.9199,33.46074,8.92,-1.88,-0.31,2.0
1758075351.58414,1758075351.55506,0.0,0.0,0.0,36.21093,43.02913,37.01308,9.63,-2.24,-0.66,2.0
1758075351.60013,1758075351.56506,0.0,0.0,0.0,41.65404,41.13837,37.64333,9.59,-2.28,-0.55,2.0
1758075351.60134,1758075351.57506,0.0,0.0,0.0,45.89392,40.45082,36.61201,9.59,-2.28,-0.55,2.0
1758075351.61615,1758075351.58506,0.0,0.0,0.0,49.50356,41.59674,31.79916,9.43,-2.0,-1.05,2.0
1758075351.61738,1758075351.59506,0.0,0.0,0.0,50.76406,42.34158,27.44468,9.43,-2.0,-1.05,2.0
1758075351.63387,1758075351.60506,0.0,0.0,0.0,51.39432,37.98711,22.68913,9.07,-1.45,-1.05,2.0
1758075351.64996,1758075351.61506,0.0,0.0,0.0,51.27972,29.56462,17.58981,9.07,-1.45,-1.05,2.0
1758075351.65109,1758075351.62506,0.0,0.0,0.0,50.01921,15.75634,9.05273,8.23,-0.9,-1.05,2.0
1758075351.66593,1758075351.63506,0.0,0.0,0.0,50.82136,18.16276,3.89611,9.24,-0.56,-1.01,2.0
1758075351.66739,1758075351.64506,0.0,0.0,0.0,52.42564,28.64789,4.69825,9.24,-0.56,-1.01,2.0
1758075351.6851,1758075351.65506,0.0,0.0,0.0,50.76406,48.07116,1.66158,11.93,-0.61,-0.02,2.0
1758075351.70123,1758075351.66506,0.0,0.0,0.0,47.67009,56.14987,-5.90147,11.93,-0.61,-0.02,2.0
1758075351.70213,1758075351.67506,0.0,0.0,0.0,48.12846,14.09476,-4.0107,9.81,-0.54,1.15,2.0
1758075351.71722,1758075351.68506,0.0,0.0,0.0,49.38896,-39.19032,-1.3751,9.81,-0.54,1.15,2.0
1758075351.71888,1758075351.69506,0.0,0.0,0.0,52.08187,-65.2599,9.28192,6.55,-1.34,-2.11,2.0
1758075351.73508,1758075351.70505,0.0,0.0,0.0,54.02992,-60.79083,19.07949,11.46,-2.16,-0.35,2.0
1758075351.75119,1758075351.71505,0.0,0.0,0.0,54.431,-53.91533,22.97561,11.46,-2.16,-0.35,2.0
1758075351.75214,1758075351.72505,0.0,0.0,0.0,53.62885,-54.3164,24.23611,10.31,-2.12,-0.98,2.0
1758075351.76698,1758075351.73505,0.0,0.0,0.0,50.363,-59.70221,24.17882,10.31,-2.12,-0.98,2.0
1758075351.76857,1758075351.74505,0.0,0.0,0.0,39.64868,-70.18733,20.68378,9.14,-1.82,1.01,2.0
1758075351.7841,1758075351.75505,0.0,0.0,0.0,29.27814,-80.67246,18.9649,9.14,-1.82,1.01,2.0
1758075351.80023,1758075351.76505,0.0,0.0,0.0,17.58981,-94.02238,19.99623,10.41,0.17,2.46,2.0
1758075351.80144,1758075351.77505,0.0,0.0,0.0,5.84417,-109.66413,28.64789,10.41,0.17,2.46,2.0
1758075351.81711,1758075351.78505,0.0,0.0,0.0,-9.39651,-120.43572,36.6693,14.28,4.53,4.0,2.0
1758075351.8191,1758075351.79505,0.0,0.0,0.0,-16.3293,-119.63358,45.03448,17.11,5.78,2.46,2.0
1758075351.83436,1758075351.80505,0.0,0.0,0.0,-20.68378,-118.94605,48.12846,17.11,5.78,2.46,2.0
1758075351.84998,1758075351.81505,0.0,0.0,0.0,-20.85567,-117.85743,46.00851,12.2,1.79,2.02,2.0
1758075351.85126,1758075351.82505,0.0,0.0,0.0,-16.95955,-111.95596,39.64868,12.2,1.79,2.02,2.0
1758075351.86707,1758075351.83505,0.0,0.0,0.0,-10.25595,-102.33027,30.36677,8.22,-1.09,2.15,2.0
1758075351.87082,1758075351.84505,0.0,0.0,0.0,-1.66158,-87.94903,19.13679,8.22,-1.09,2.15,2.0
1758075351.88713,1758075351.85505,0.0,0.0,0.0,12.49048,-57.23849,0.40107,7.46,-2.08,1.6,2.0
1758075351.88802,1758075351.86505,0.0,0.0,0.0,21.7151,-35.3515,-10.65701,7.94,-2.71,1.11,2.0
1758075351.90412,1758075351.87505,0.0,0.0,0.0,29.9084,-14.78231,-18.62113,7.94,-2.71,1.11,2.0
1758075351.92003,1758075351.88505,0.0,0.0,0.0,36.03905,4.87014,-23.0329,9.16,-2.81,0.13,2.0
1758075351.92125,1758075351.89505,0.0,0.0,0.0,41.65404,40.45082,-22.97561,9.16,-2.81,0.13,2.0
1758075351.93633,1758075351.90505,0.0,0.0,0.0,41.36755,67.37984,-20.85567,13.33,-1.48,-1.24,2.0
1758075351.93725,1758075351.91505,0.0,0.0,0.0,39.76327,85.02695,-15.46986,13.33,-1.48,-1.24,2.0
1758075351.95556,1758075351.92505,0.0,0.0,0.0,36.95578,90.52733,-8.59437,15.05,1.0,-2.18,2.0
1758075351.97105,1758075351.93505,0.0,0.0,0.0,32.88778,91.78784,0.85944,12.69,1.57,-1.06,2.0
1758075351.97226,1758075351.94505,0.0,0.0,0.0,31.62727,95.22559,4.98473,12.69,1.57,-1.06,2.0
1758075351.98718,1758075351.95505,0.0,0.0,0.0,30.65324,98.03308,6.7609,10.45,0.68,-0.2,2.0
1758075351.98986,1758075351.96505,0.0,0.0,0.0,30.13758,98.66334,7.73493,10.45,0.68,-0.2,2.0
1758075352.00533,1758075351.97505,0.0,0.0,0.0,28.13223,94.25156,8.47978,8.2,0.47,0.29,2.0
1758075352.02134,1758075351.98505,0.0,0.0,0.0,24.92367,89.32412,7.84952,8.2,0.47,0.29,2.0
1758075352.02224,1758075351.99505,0.0,0.0,0.0,20.51189,84.11021,6.87549,7.26,0.83,0.49,2.0
1758075352.03793,1758075352.00505,0.0,0.0,0.0,11.11538,79.46925,3.20856,7.26,0.83,0.49,2.0
1758075352.04064,1758075352.01505,0.0,0.0,0.0,2.86479,68.98412,-1.43239,7.56,1.35,0.36,2.0
1758075352.05713,1758075352.02505,0.0,0.0,0.0,-6.47442,58.67088,-8.02141,7.77,1.81,0.47,2.0
1758075352.05847,1758075352.03505,0.0,0.0,0.0,-15.06879,44.23235,-12.60507,7.77,1.81,0.47,2.0
1758075352.07306,1758075352.04505,0.0,0.0,0.0,-30.82513,34.77854,-24.92367,8.22,2.17,0.38,2.0
1758075352.09009,1758075352.05505,0.0,0.0,0.0,-40.50812,28.41871,-31.11161,8.22,2.17,0.38,2.0
1758075352.09136,1758075352.06505,0.0,0.0,0.0,-48.70141,24.23611,-37.58603,8.73,2.37,0.29,2.0
1758075352.10607,1758075352.07505,0.0,0.0,0.0,-55.23313,21.7151,-42.05511,8.73,2.37,0.29,2.0
1758075352.10774,1758075352.08505,0.0,0.0,0.0,-61.70755,18.79302,-45.49285,9.3,2.16,-0.04,2.0
1758075352.12408,1758075352.09505,0.0,0.0,0.0,-64.17127,16.50119,-46.2377,9.5,1.51,-0.36,2.0
1758075352.14017,1758075352.10505,0.0,0.0,0.0,-64.74423,15.0115,-44.86259,9.5,1.51,-0.36,2.0
1758075352.14142,1758075352.11505,0.0,0.0,0.0,-63.65561,12.08941,-42.22699,9.48,0.73,-0.7,2.0
1758075352.15642,1758075352.12505,0.0,0.0,0.0,-60.79083,-0.57296,-37.52874,9.48,0.73,-0.7,2.0
1758075352.15735,1758075352.13505,0.0,0.0,0.0,-58.49899,-14.20935,-33.34615,8.74,0.22,-1.34,2.0
1758075352.17515,1758075352.14505,0.0,0.0,0.0,-55.57691,-15.35527,-26.12688,8.74,0.22,-1.34,2.0
1758075352.19456,1758075352.15505,0.0,0.0,0.0,-53.80074,19.36597,-27.38738,10.79,0.55,-1.63,2.0
1758075352.19631,1758075352.16505,0.0,0.0,0.0,-49.27437,43.14373,-17.53251,13.18,0.78,-0.16,2.0
1758075352.21146,1758075352.17505,0.0,0.0,0.0,-52.9986,6.47442,-19.76705,13.18,0.78,-0.16,2.0
1758075352.21236,1758075352.18505,0.0,0.0,0.0,-53.74345,-27.38738,-20.16812,7.74,1.68,-0.33,2.0
1758075352.22921,1758075352.19505,0.0,0.0,0.0,-54.88936,-34.77854,-22.28806,7.74,1.68,-0.33,2.0
1758075352.23011,1758075352.20505,0.0,0.0,0.0,-55.11855,-19.82434,-21.48592,11.85,2.08,-1.24,2.0
1758075352.24518,1758075352.21505,0.0,0.0,0.0,-55.7488,-14.83961,-18.9649,11.85,2.08,-1.24,2.0
1758075352.26147,1758075352.22505,0.0,0.0,0.0,-56.83742,-12.49048,-16.50119,10.89,2.01,0.04,2.0
1758075352.2624,1758075352.23505,0.0,0.0,0.0,-57.46767,-11.22997,-12.08941,10.89,2.01,0.04,2.0
1758075352.27908,1758075352.24505,0.0,0.0,0.0,-57.52497,-12.14671,-8.93814,9.85,1.78,0.56,2.0
1758075352.27999,1758075352.25505,0.0,0.0,0.0,-57.81144,-14.9542,-6.41713,8.61,1.32,-0.05,2.0
1758075352.29547,1758075352.26505,0.0,0.0,0.0,-57.46767,-23.26209,-4.58366,8.61,1.32,-0.05,2.0
1758075352.3115,1758075352.27505,0.0,0.0,0.0,-53.74345,-49.21708,-6.41713,7.65,0.22,1.95,2.0
1758075352.31285,1758075352.28505,0.0,0.0,0.0,-49.50356,-75.05748,-12.37589,7.65,0.22,1.95,2.0
1758075352.32749,1758075352.29505,0.0,0.0,0.0,-45.03448,-92.93376,-21.31403,8.95,-1.41,2.57,2.0
1758075352.32843,1758075352.30505,0.0,0.0,0.0,-39.4768,-96.94446,-29.50733,8.95,-1.41,2.57,2.0
1758075352.34324,1758075352.31505,0.0,0.0,0.0,-30.65324,-103.07512,-37.98711,13.76,-2.62,3.0,2.0
1758075352.35948,1758075352.32505,0.0,0.0,0.0,-27.04361,-112.35703,-41.71133,13.44,-2.7,2.7,2.0
1758075352.36084,1758075352.33505,0.0,0.0,0.0,-26.12688,-121.81084,-41.88322,13.44,-2.7,2.7,2.0
1758075352.3756,1758075352.34505,0.0,0.0,0.0,-28.76248,-129.77495,-40.33623,10.11,-0.84,2.07,2.0
1758075352.39155,1758075352.35505,0.0,0.0,0.0,-36.95578,-130.74898,-34.0337,10.11,-0.84,2.07,2.0
1758075352.39248,1758075352.36505,0.0,0.0,0.0,-44.17505,-125.0194,-27.1582,8.39,0.75,2.43,2.0
1758075352.40754,1758075352.37505,0.0,0.0,0.0,-52.884,-116.53963,-19.25138,8.39,0.75,2.43,2.0
1758075352.40873,1758075352.38505,0.0,0.0,0.0,-62.56699,-105.30964,-11.86023,8.15,1.05,2.24,2.0
1758075352.42436,1758075352.39505,0.0,0.0,0.0,-75.40125,-77.17742,0.11459,9.78,0.66,0.65,2.0
1758075352.44056,1758075352.40505,0.0,0.0,0.0,-82.39134,-57.23849,7.04738,9.78,0.66,0.65,2.0
1758075352.44148,1758075352.41505,0.0,0.0,0.0,-86.74582,-36.84119,12.37589,11.37,0.24,-1.22,2.0
1758075352.45661,1758075352.42505,0.0,0.0,0.0,-88.2355,-5.95876,16.55848,11.37,0.24,-1.22,2.0
1758075352.45749,1758075352.43505,0.0,0.0,0.0,-86.63122,13.40721,17.18874,13.08,-0.28,-1.71,2.0
1758075352.47411,1758075352.44505,0.0,0.0,0.0,-83.59455,31.62727,16.50119,13.08,-0.28,-1.71,2.0
1758075352.4903,1758075352.45505,0.0,0.0,0.0,-80.0995,48.9306,14.9542,13.25,-0.83,-1.65,2.0
1758075352.4915,1758075352.46505,0.0,0.0,0.0,-73.51049,71.67702,11.86023,13.25,-0.83,-1.65,2.0
1758075352.50631,1758075352.47505,0.0,0.0,0.0,-69.3279,78.89629,8.99544,12.24,-1.01,-1.15,2.0
1758075352.5075,1758075352.48505,0.0,0.0,0.0,-64.91612,80.27139,5.55769,10.08,-1.09,-0.61,2.0
1758075352.52461,1758075352.49505,0.0,0.0,0.0,-60.50434,78.03686,1.20321,10.08,-1.09,-0.61,2.0
1758075352.54058,1758075352.50505,0.0,0.0,0.0,-53.28508,73.3959,-5.09932,9.04,-1.76,-0.65,2.0
1758075352.54148,1758075352.51505,0.0,0.0,0.0,-47.49821,71.21866,-8.42248,9.04,-1.76,-0.65,2.0
1758075352.55656,1758075352.52505,0.0,0.0,0.0,-40.45082,71.21866,-10.08406,9.06,-2.28,-0.85,2.0
1758075352.55829,1758075352.53505,0.0,0.0,0.0,-32.37212,70.6457,-9.39651,9.06,-2.28,-0.85,2.0
1758075352.5736,1758075352.54505,0.0,0.0,0.0,-18.85031,70.30193,-5.15662,9.24,-2.5,-1.07,2.0
1758075352.58956,1758075352.55505,0.0,0.0,0.0,-9.05273,69.67168,0.40107,9.61,-2.48,-0.82,2.0
1758075352.59079,1758075352.56505,0.0,0.0,0.0,1.3751,66.17663,7.39116,9.61,-2.48,-0.82,2.0
1758075352.60547,1758075352.57505,0.0,0.0,0.0,11.74564,59.87409,14.83961,9.23,-2.48,-0.94,2.0
1758075352.60839,1758075352.58505,0.0,0.0,0.0,26.01229,54.02992,25.72581,9.23,-2.48,-0.94,2.0
1758075352.62459,1758075352.59505,0.0,0.0,0.0,33.51803,53.80074,30.30947,9.71,-2.55,-1.35,2.0
1758075352.64039,1758075352.60505,0.0,0.0,0.0,39.76327,55.86338,32.83048,9.71,-2.55,-1.35,2.0
1758075352.64149,1758075352.61505,0.0,0.0,0.0,44.40423,57.58226,32.54401,10.47,-2.41,-1.16,2.0
1758075352.65658,1758075352.62505,0.0,0.0,0.0,48.64412,54.94666,30.53865,10.0,-2.02,-1.31,2.0
1758075352.6576,1758075352.63505,0.0,0.0,0.0,50.01921,49.33167,27.44468,10.0,-2.02,-1.31,2.0
1758075352.67364,1758075352.64505,0.0,0.0,0.0,50.363,39.4195,23.54857,8.9,-1.43,-1.29,2.0
1758075352.68973,1758075352.65505,0.0,0.0,0.0,49.79003,18.56383,16.73037,8.9,-1.43,-1.29,2.0
1758075352.69059,1758075352.66505,0.0,0.0,0.0,48.01387,10.25595,11.00079,7.71,-0.8,-1.57,2.0
1758075352.70572,1758075352.67505,0.0,0.0,0.0,49.21708,9.62569,7.39116,7.71,-0.8,-1.57,2.0
1758075352.70764,1758075352.68505,0.0,0.0,0.0,50.93595,13.12073,5.95876,8.86,-0.48,-1.05,2.0
1758075352.72464,1758075352.69505,0.0,0.0,0.0,52.9986,26.75713,6.24524,9.82,-0.48,-0.37,2.0
1758075352.74072,1758075352.70505,0.0,0.0,0.0,52.42564,39.99245,4.23989,9.82,-0.56,-0.37,2.0
1758075352.74159,1758075352.71505,0.0,0.0,0.0,55.23313,20.05352,1.60428,8.57,-0.64,0.37,2.0
1758075352.75756,1758075352.72505,0.0,0.0,0.0,58.72818,-20.45459,-0.11459,8.57,-0.64,0.37,2.0
1758075352.76054,1758075352.73505,0.0,0.0,0.0,65.37449,-84.91235,8.93814,4.4,-1.28,-1.99,2.0
1758075352.77574,1758075352.74505,0.0,0.0,0.0,68.35387,-102.90323,17.13144,4.4,-1.28,-1.99,2.0
1758075352.79172,1758075352.75505,0.0,0.0,0.0,69.55708,-119.28982,26.24147,8.24,-2.76,1.52,2.0
1758075352.79265,1758075352.76505,0.0,0.0,0.0,68.01009,-134.5305,38.21629,8.24,-2.76,1.52,2.0
1758075352.80774,1758075352.77505,0.0,0.0,0.0,61.70755,-150.8598,61.76485,12.08,-1.49,4.75,2.0
1758075352.80866,1758075352.78505,0.0,0.0,0.0,55.00395,-145.30209,72.07809,18.67,3.52,3.81,2.0
1758075352.82374,1758075352.79505,0.0,0.0,0.0,47.67009,-134.18672,70.81759,18.67,3.52,3.81,2.0
1758075352.83982,1758075352.80505,0.0,0.0,0.0,42.05511,-133.84296,64.80153,15.85,3.51,-0.11,2.0
1758075352.84097,1758075352.81505,0.0,0.0,0.0,35.75257,-128.51443,44.17505,15.85,3.51,-0.11,2.0
1758075352.85574,1758075352.82505,0.0,0.0,0.0,36.95578,-122.89946,31.16891,10.2,0.21,0.27,2.0
1758075352.87175,1758075352.83505,0.0,0.0,0.0,40.04975,-110.81004,16.04282,10.2,0.21,0.27,2.0
1758075352.87346,1758075352.84505,0.0,0.0,0.0,49.27437,-94.36616,-3.09397,8.71,-1.26,0.32,2.0
1758075352.88852,1758075352.85505,0.0,0.0,0.0,55.86338,-83.65184,-13.17803,8.11,-1.63,0.85,2.0
1758075352.88975,1758075352.86505,0.0,0.0,0.0,62.05133,-69.90086,-19.76705,8.11,-1.63,0.85,2.0
1758075352.90477,1758075352.87505,0.0,0.0,0.0,67.32255,-52.25375,-22.74642,8.93,-1.33,-0.15,2.0
1758075352.92074,1758075352.88505,0.0,0.0,0.0,72.88023,-19.07949,-21.31403,8.93,-1.33,-0.15,2.0
1758075352.92174,1758075352.89505,0.0,0.0,0.0,73.91156,3.66693,-17.18874,10.62,-0.24,-1.24,2.0
1758075352.93665,1758075352.90505,0.0,0.0,0.0,72.53646,24.17882,-11.74564,10.62,-0.24,-1.24,2.0
1758075352.93773,1758075352.91505,0.0,0.0,0.0,69.15601,43.02913,-5.32851,11.48,1.46,-2.02,2.0
1758075352.95376,1758075352.92505,0.0,0.0,0.0,61.76485,60.44705,4.0107,11.05,2.43,-1.81,2.0
1758075352.96979,1758075352.93505,0.0,0.0,0.0,56.03527,64.80153,9.39651,11.05,2.43,-1.81,2.0
1758075352.97076,1758075352.94505,0.0,0.0,0.0,51.16513,65.66096,14.32395,9.74,1.91,-0.78,2.0
1758075352.9858,1758075352.95505,0.0,0.0,0.0,47.09713,66.34852,16.95955,9.74,1.91,-0.78,2.0
1758075353.00185,1758075352.96505,0.0,0.0,0.0,42.1124,60.67623,17.30333,9.74,1.31,0.29,2.0
1758075353.00228,1758075352.97505,0.0,0.0,0.0,39.76327,50.99325,15.98552,9.74,1.31,0.29,2.0
1758075353.01778,1758075352.98505,0.0,0.0,0.0,36.61201,38.44547,12.77696,9.26,1.23,0.73,2.0
1758075353.01951,1758075352.99505,0.0,0.0,0.0,32.83048,27.04361,8.36518,9.26,1.23,0.73,2.0
1758075353.03485,1758075353.00505,0.0,0.0,0.0,24.17882,13.5218,0.57296,9.28,1.5,0.7,2.0
1758075353.05082,1758075353.01505,0.0,0.0,0.0,16.10011,4.98473,-4.58366,9.39,1.92,0.11,2.0
1758075353.05122,1758075353.02505,0.0,0.0,0.0,7.67763,-6.70361,-9.11003,9.39,1.92,0.11,2.0
1758075353.06688,1758075353.03505,0.0,0.0,0.0,-8.99544,-8.70896,-17.53251,9.65,2.15,-0.45,2.0
1758075353.06802,1758075353.04505,0.0,0.0,0.0,-19.25138,-6.24524,-21.6578,9.65,2.15,-0.45,2.0
1758075353.08458,1758075353.05505,0.0,0.0,0.0,-28.87707,-1.08862,-26.01229,10.42,2.28,-0.55,2.0
1758075353.10083,1758075353.06505,0.0,0.0,0.0,-37.52874,0.0573,-29.10626,10.42,2.28,-0.55,2.0
1758075353.10125,1758075353.07505,0.0,0.0,0.0,-43.37291,0.40107,-28.93437,10.43,2.03,-0.56,2.0
1758075353.11685,1758075353.08505,0.0,0.0,0.0,-42.39888,6.13065,-25.61122,10.65,1.33,-0.36,2.0
1758075353.11776,1758075353.09505,0.0,0.0,0.0,-39.87786,13.34992,-24.12152,10.65,1.33,-0.36,2.0
1758075353.13265,1758075353.10505,0.0,0.0,0.0,-22.40265,37.18496,-16.55848,12.09,-1.33,0.69,2.0
1758075353.14865,1758075353.11505,0.0,0.0,0.0,-17.58981,14.61043,-13.69369,12.09,-1.33,0.69,2.0
1758075353.14978,1758075353.12505,0.0,0.0,0.0,-18.90761,-17.81899,-10.8862,8.2,-1.47,-1.18,2.0
1758075353.16469,1758075353.13505,0.0,0.0,0.0,-20.05352,-5.4431,-9.28192,8.2,-1.47,-1.18,2.0
1758075353.18066,1758075353.14505,0.0,0.0,0.0,-23.31938,18.9649,-9.85487,11.87,-0.06,-2.72,2.0
1758075353.18115,1758075353.15505,0.0,0.0,0.0,-27.33009,42.74266,-13.00614,12.88,0.82,0.47,2.0
1758075353.19668,1758075353.16505,0.0,0.0,0.0,-30.30947,39.13302,-13.98017,12.88,0.82,0.47,2.0
1758075353.19779,1758075353.17505,0.0,0.0,0.0,-30.99702,29.73651,-15.0115,9.29,1.73,0.1,2.0
1758075353.21424,1758075353.18505,0.0,0.0,0.0,-29.73651,23.66316,-15.06879,9.29,1.73,0.1,2.0
1758075353.22985,1758075353.19505,0.0,0.0,0.0,-26.52795,20.45459,-13.5218,9.23,1.58,-1.65,2.0
1758075353.23112,1758075353.20505,0.0,0.0,0.0,-23.94964,20.16812,-12.71966,9.23,1.58,-1.65,2.0
1758075353.24564,1758075353.21505,0.0,0.0,0.0,-21.48592,19.59516,-12.43318,9.36,0.88,-1.14,2.0
1758075353.26165,1758075353.22505,0.0,0.0,0.0,-19.53786,17.30333,-12.77696,9.36,0.88,-1.14,2.0
1758075353.26224,1758075353.23505,0.0,0.0,0.0,-17.47521,13.80828,-13.23533,9.36,0.25,-0.96,2.0
1758075353.27926,1758075353.24505,0.0,0.0,0.0,-16.21471,12.49048,-13.80828,9.69,0.0,-0.95,2.0
1758075353.28048,1758075353.25505,0.0,0.0,0.0,-15.41257,12.71966,-13.46451,9.69,0.0,-0.95,2.0
1758075353.2957,1758075353.26505,0.0,0.0,0.0,-13.75099,13.23533,-12.2613,10.15,0.03,-0.86,2.0
1758075353.29771,1758075353.27505,0.0,0.0,0.0,-12.83425,13.86558,-10.94349,10.15,0.03,-0.86,2.0
1758075353.31293,1758075353.28505,0.0,0.0,0.0,-11.22997,16.55848,-9.11003,10.26,0.21,-0.92,2.0
1758075353.32897,1758075353.29505,0.0,0.0,0.0,-9.28192,20.34,-6.8182,10.26,0.21,-0.92,2.0
1758075353.32986,1758075353.30505,0.0,0.0,0.0,-5.4431,25.26744,-2.7502,10.37,0.42,-1.15,2.0
1758075353.34495,1758075353.31505,0.0,0.0,0.0,-2.46372,27.38738,-0.11459,10.0,0.48,-1.1,2.0
1758075353.34591,1758075353.32505,0.0,0.0,0.0,0.0,29.27814,2.40642,10.0,0.48,-1.1,2.0
1758075353.36126,1758075353.33505,0.0,0.0,0.0,1.60428,31.28349,4.46907,9.92,0.37,-1.22,2.0
1758075353.37769,1758075353.34505,0.0,0.0,0.0,2.11994,33.80451,5.90147,9.92,0.37,-1.22,2.0
1758075353.37889,1758075353.35505,0.0,0.0,0.0,1.60428,35.3515,5.4431,10.69,0.24,-0.58,2.0
1758075353.3938,1758075353.36505,0.0,0.0,0.0,1.60428,37.47144,4.69825,10.69,0.24,-0.58,2.0
1758075353.40979,1758075353.37505,0.0,0.0,0.0,1.14592,39.19032,2.57831,12.37,0.1,0.13,2.0
1758075353.41094,1758075353.38505,0.0,0.0,0.0,2.11994,41.71133,-1.83346,13.38,0.36,0.3,2.0
1758075353.42591,1758075353.39505,0.0,0.0,0.0,3.55234,43.77398,-4.87014,13.38,0.36,0.3,2.0
1758075353.42946,1758075353.40505,0.0,0.0,0.0,5.50039,44.8053,-7.10468,12.72,0.69,-0.09,2.0
1758075353.44511,1758075353.41505,0.0,0.0,0.0,7.04738,43.31561,-8.65166,12.72,0.69,-0.09,2.0
1758075353.44675,1758075353.42505,0.0,0.0,0.0,8.42248,40.33623,-10.02676,10.67,0.96,-0.58,2.0
1758075353.46311,1758075353.43505,0.0,0.0,0.0,8.59437,39.53409,-9.5684,10.67,0.96,-0.58,2.0
1758075353.4788,1758075353.44505,0.0,0.0,0.0,7.84952,39.76327,-8.02141,9.42,1.16,-0.95,2.0
1758075353.47992,1758075353.45505,0.0,0.0,0.0,5.50039,39.01843,-4.46907,9.42,1.16,-0.95,2.0
1758075353.49505,1758075353.46505,0.0,0.0,0.0,2.92208,34.89313,-1.43239,8.52,1.28,-0.8,2.0
1758075353.49705,1758075353.47505,0.0,0.0,0.0,0.22918,33.00237,1.66158,8.09,1.35,-0.63,2.0
1758075353.51238,1758075353.48505,0.0,0.0,0.0,-2.7502,32.54401,4.64096,8.09,1.35,-0.63,2.0
1758075353.52809,1758075353.49505,0.0,0.0,0.0,-7.33386,31.62727,8.0787,8.62,1.32,-0.38,2.0
1758075353.52926,1758075353.50505,0.0,0.0,0.0,-9.74028,31.56997,9.22462,8.62,1.32,-0.38,2.0
1758075353.5441,1758075353.51505,0.0,0.0,0.0,-11.80293,32.20023,9.85487,9.38,1.18,0.13,2.0
1758075353.56009,1758075353.52505,0.0,0.0,0.0,-13.23533,30.99702,9.62569,9.38,1.18,0.13,2.0
1758075353.56128,1758075353.53505,0.0,0.0,0.0,-14.43854,24.80907,7.73493,9.95,0.88,0.6,2.0
1758075353.57584,1758075353.54505,0.0,0.0,0.0,-14.38124,21.02755,6.35983,10.06,0.46,1.23,2.0
1758075353.57739,1758075353.55505,0.0,0.0,0.0,-14.15206,17.53251,5.32851,10.06,0.46,1.23,2.0
1758075353.59243,1758075353.56505,0.0,0.0,0.0,-13.69369,13.5218,4.58366,10.09,0.4,1.61,2.0
1758075353.60809,1758075353.57505,0.0,0.0,0.0,-12.89155,7.21927,4.0107,10.09,0.4,1.61,2.0
1758075353.6098,1758075353.58505,0.0,0.0,0.0,-12.49048,1.94806,4.52637,9.65,0.58,1.1,2.0
1758075353.62493,1758075353.59505,0.0,0.0,0.0,-12.2613,-4.87014,5.90147,9.65,0.58,1.1,2.0
1758075353.62712,1758075353.60505,0.0,0.0,0.0,-12.49048,-12.54778,7.79223,8.71,0.49,1.13,2.0
1758075353.64412,1758075353.61505,0.0,0.0,0.0,-13.69369,-21.6578,11.00079,8.27,0.33,1.39,2.0
1758075353.6601,1758075353.62505,0.0,0.0,0.0,-15.06879,-25.38203,12.71966,8.27,0.33,1.39,2.0
1758075353.66295,1758075353.63505,0.0,0.0,0.0,-17.6471,-27.04361,13.5218,8.4,0.27,1.57,2.0
1758075353.67784,1758075353.64505,0.0,0.0,0.0,-20.68378,-26.69983,12.89155,8.4,0.27,1.57,2.0
1758075353.68061,1758075353.65505,0.0,0.0,0.0,-26.01229,-22.74642,10.94349,8.51,0.32,1.52,2.0
1758075353.69588,1758075353.66505,0.0,0.0,0.0,-29.22085,-18.79302,8.02141,8.51,0.32,1.52,2.0
1758075353.69977,1758075353.67505,0.0,0.0,0.0,-31.74186,-14.03747,4.35448,8.78,0.21,1.42,2.0
1758075353.71488,1758075353.68505,0.0,0.0,0.0,-33.86181,-5.21392,-1.20321,8.78,0.21,1.42,2.0
1758075353.71608,1758075353.69505,0.0,0.0,0.0,-34.0337,2.23454,-4.69825,9.57,-0.24,1.34,2.0
1758075353.73242,1758075353.70505,0.0,0.0,0.0,-33.17426,11.17268,-7.44845,10.71,-1.05,1.19,2.0
1758075353.7502,1758075353.71505,0.0,0.0,0.0,-31.56997,20.45459,-9.4538,10.71,-1.05,1.19,2.0
1758075353.75136,1758075353.72505,0.0,0.0,0.0,-27.73116,27.61657,-9.4538,11.05,-1.71,0.94,2.0
1758075353.76589,1758075353.73505,0.0,0.0,0.0,-24.98096,27.61657,-8.02141,11.05,-1.71,0.94,2.0
1758075353.76708,1758075353.74505,0.0,0.0,0.0,-22.40265,26.52795,-5.78687,10.26,-1.88,0.93,2.0
1758075353.78296,1758075353.75505,0.0,0.0,0.0,-19.76705,26.87172,-2.86479,10.26,-1.88,0.93,2.0
1758075353.79915,1758075353.76505,0.0,0.0,0.0,-16.10011,26.81443,2.23454,10.3,-1.66,0.74,2.0
1758075353.80007,1758075353.77505,0.0,0.0,0.0,-14.09476,25.8404,5.32851,9.94,-1.32,0.58,2.0
1758075353.81496,1758075353.78505,0.0,0.0,0.0,-12.49048,24.92367,8.02141,9.94,-1.32,0.58,2.0
1758075353.81653,1758075353.79505,0.0,0.0,0.0,-10.94349,24.63719,9.91217,9.76,-1.12,0.52,2.0
1758075353.83218,1758075353.80505,0.0,0.0,0.0,-9.68299,25.89769,10.71431,9.76,-1.12,0.52,2.0
1758075353.84815,1758075353.81505,0.0,0.0,0.0,-8.76626,27.38738,10.37054,9.94,-1.09,0.44,2.0
1758075353.84912,1758075353.82505,0.0,0.0,0.0,-8.136,30.59595,9.11003,9.94,-1.09,0.44,2.0
1758075353.86407,1758075353.83505,0.0,0.0,0.0,-7.21927,30.02299,7.84952,10.01,-1.12,0.51,2.0
1758075353.87996,1758075353.84505,0.0,0.0,0.0,-5.4431,24.80907,6.24524,9.3,-1.18,0.66,2.0
1758075353.88113,1758075353.85505,0.0,0.0,0.0,-2.6929,19.59516,6.13065,9.3,-1.18,0.66,2.0
1758075353.8978,1758075353.86505,0.0,0.0,0.0,0.74485,13.86558,6.47442,9.06,-1.55,0.36,2.0
1758075353.89903,1758075353.87505,0.0,0.0,0.0,7.96411,7.16197,8.93814,9.06,-1.55,0.36,2.0
1758075353.91441,1758075353.88505,0.0,0.0,0.0,13.5218,7.44845,10.59972,9.34,-2.21,0.29,2.0
1758075353.92994,1758075353.89505,0.0,0.0,0.0,19.82434,8.47978,12.204,9.34,-2.21,0.29,2.0
1758075353.93115,1758075353.90505,0.0,0.0,0.0,26.64254,8.30789,13.80828,9.68,-2.87,0.42,2.0
1758075353.94703,1758075353.91505,0.0,0.0,0.0,37.24226,6.13065,15.24068,9.68,-2.87,0.42,2.0
1758075353.94901,1758075353.92505,0.0,0.0,0.0,44.748,3.20856,15.87093,9.47,-3.19,0.35,2.0
1758075353.96392,1758075353.93505,0.0,0.0,0.0,51.6235,-3.20856,16.04282,9.13,-3.13,0.11,2.0
1758075353.98024,1758075353.94505,0.0,0.0,0.0,58.09792,-15.75634,15.46986,9.13,-3.13,0.11,2.0
1758075353.98117,1758075353.95505,0.0,0.0,0.0,66.80688,-27.2155,11.80293,8.53,-2.71,-0.62,2.0
1758075353.99705,1758075353.96505,0.0,0.0,0.0,74.31263,-13.80828,9.74028,8.53,-2.71,-0.62,2.0
1758075353.99962,1758075353.97505,0.0,0.0,0.0,81.5892,7.84952,10.48513,11.4,-2.28,-0.85,2.0
1758075354.01498,1758075353.98505,0.0,0.0,0.0,85.48531,26.01229,7.67763,11.4,-2.28,-0.85,2.0
1758075354.01644,1758075353.99505,0.0,0.0,0.0,95.1683,12.2613,3.03668,11.45,-1.83,0.12,2.0
1758075354.03201,1758075354.00505,0.0,0.0,0.0,98.43416,-29.22085,-1.43239,5.72,-1.6,-0.75,2.0
1758075354.04904,1758075354.01505,0.0,0.0,0.0,105.02316,-71.50513,5.32851,5.72,-1.6,-0.75,2.0
1758075354.05,1758075354.02505,0.0,0.0,0.0,109.14847,-83.88103,11.45916,8.29,-2.11,-2.35,2.0
1758075354.06504,1758075354.03505,0.0,0.0,0.0,111.55489,-72.88023,14.32395,8.29,-2.11,-2.35,2.0
1758075354.06625,1758075354.04505,0.0,0.0,0.0,105.30964,-63.25455,11.00079,10.84,-1.21,-0.41,2.0
1758075354.08512,1758075354.05505,0.0,0.0,0.0,94.19427,-60.33246,6.07335,10.84,-1.21,-0.41,2.0
1758075354.08685,1758075354.06505,0.0,0.0,0.0,88.52198,-68.86953,6.18794,9.45,1.46,1.97,2.0
1758075354.10335,1758075354.07505,0.0,0.0,0.0,82.67782,-80.67246,6.8182,9.5,-0.05,1.11,2.0
1758075354.11913,1758075354.08505,0.0,0.0,0.0,77.86497,-81.36001,8.93814,9.5,-0.05,1.11,2.0
1758075354.12026,1758075354.09505,0.0,0.0,0.0,72.70835,-86.34474,15.69904,13.66,1.58,3.67,2.0
1758075354.13537,1758075354.10505,0.0,0.0,0.0,63.54102,-89.20953,28.13223,13.66,1.58,3.67,2.0
1758075354.13628,1758075354.11505,0.0,0.0,0.0,58.90006,-83.93832,36.03905,16.42,3.22,3.37,2.0
1758075354.15438,1758075354.12505,0.0,0.0,0.0,56.03527,-72.42187,39.53409,16.42,3.22,3.37,2.0
1758075354.17011,1758075354.13505,0.0,0.0,0.0,55.40502,-58.67088,39.07573,13.97,2.28,0.74,2.0
1758075354.17164,1758075354.14505,0.0,0.0,0.0,59.70221,-37.12767,35.86716,9.99,2.28,0.49,2.0
1758075354.18607,1758075354.15505,0.0,0.0,0.0,64.22858,-20.22541,32.88778,9.99,0.36,0.49,2.0
1758075354.18916,1758075354.16505,0.0,0.0,0.0,68.92683,-3.55234,29.67921,9.1,-0.8,0.81,2.0
1758075354.20434,1758075354.17505,0.0,0.0,0.0,72.07809,11.63104,25.72581,9.1,-0.8,0.81,2.0
1758075354.22034,1758075354.18505,0.0,0.0,0.0,72.70835,31.97105,19.07949,9.45,-0.82,0.81,2.0
1758075354.22128,1758075354.19505,0.0,0.0,0.0,70.30193,46.98254,15.0115,9.45,-0.82,0.81,2.0
1758075354.23635,1758075354.20505,0.0,0.0,0.0,66.46311,58.67088,11.91752,11.09,0.38,0.3,2.0
1758075354.23803,1758075354.21505,0.0,0.0,0.0,61.65026,62.96807,9.62569,11.09,0.38,0.3,2.0
1758075354.25334,1758075354.22505,0.0,0.0,0.0,55.11855,65.83286,6.41713,11.53,1.73,0.27,2.0
1758075354.27032,1758075354.23505,0.0,0.0,0.0,52.42564,69.61437,4.18259,12.0,1.67,0.82,2.0
1758075354.27325,1758075354.24505,0.0,0.0,0.0,51.6235,72.88023,1.83346,12.0,1.67,0.82,2.0
1758075354.29009,1758075354.25505,0.0,0.0,0.0,52.42564,72.76565,0.17189,10.95,0.58,1.47,2.0
1758075354.29133,1758075354.26505,0.0,0.0,0.0,55.34772,65.2599,-1.60428,10.95,0.58,1.47,2.0
1758075354.30633,1758075354.27505,0.0,0.0,0.0,57.92604,59.24384,-1.71887,8.93,-0.24,1.61,2.0
1758075354.30732,1758075354.28505,0.0,0.0,0.0,60.27517,53.34238,-1.66158,8.93,-0.24,1.61,2.0
1758075354.32235,1758075354.29505,0.0,0.0,0.0,62.85347,46.35228,-0.97403,8.01,-0.48,1.47,2.0
1758075354.34022,1758075354.30505,0.0,0.0,0.0,64.40046,41.99781,1.03132,7.82,-0.28,1.44,2.0
1758075354.34116,1758075354.31505,0.0,0.0,0.0,64.85883,35.98175,3.09397,7.82,-0.28,1.44,2.0
1758075354.35926,1758075354.32505,0.0,0.0,0.0,63.77021,29.9084,4.18259,7.66,0.11,1.41,2.0
1758075354.36093,1758075354.33505,0.0,0.0,0.0,62.22322,19.76705,8.0787,7.66,0.11,1.41,2.0
1758075354.37958,1758075354.34505,0.0,0.0,0.0,59.41573,11.28727,8.0787,8.11,0.62,1.29,2.0
1758075354.38052,1758075354.35505,0.0,0.0,0.0,55.92068,4.46907,7.39116,8.11,0.62,1.29,2.0
1758075354.39643,1758075354.36505,0.0,0.0,0.0,52.02457,-3.95341,6.18794,8.85,1.39,0.78,2.0
1758075354.39736,1758075354.37505,0.0,0.0,0.0,43.02913,-9.85487,0.34377,9.34,1.97,0.65,2.0
1758075354.41459,1758075354.38505,0.0,0.0,0.0,37.18496,-8.59437,-3.95341,9.34,1.97,0.65,2.0
1758075354.4305,1758075354.39505,0.0,0.0,0.0,31.51268,-3.32316,-8.136,10.31,2.05,0.21,2.0
1758075354.43219,1758075354.40505,0.0,0.0,0.0,25.49662,2.6929,-11.91752,10.31,2.05,0.21,2.0
1758075354.44813,1758075354.41505,0.0,0.0,0.0,16.3293,10.48513,-15.87093,10.63,2.13,-0.03,2.0
1758075354.44917,1758075354.42505,0.0,0.0,0.0,10.54242,14.15206,-17.30333,10.63,2.13,-0.03,2.0
1758075354.46448,1758075354.43505,0.0,0.0,0.0,4.64096,14.78231,-18.10547,10.38,2.13,-0.01,2.0
1758075354.48053,1758075354.44505,0.0,0.0,0.0,-0.68755,12.08941,-17.76169,10.38,2.13,-0.01,2.0
1758075354.48418,1758075354.45505,0.0,0.0,0.0,-6.99009,-0.51566,-15.41257,9.72,2.04,-0.15,2.0
