timeStamp,timeStampAlign,roll,pitch,yaw,gyro_x,gyro_y,gyro_z,acc_x,acc_y,acc_z,flag_num
1758079458.85761,1758079458.8671,0.0,0.0,0.0,-4.98473,25.26744,-6.24524,8.74,1.39,0.75,2.0
1758079458.87344,1758079458.8771,0.0,0.0,0.0,-7.04738,23.0902,-6.13065,8.74,1.39,0.75,2.0
1758079458.87463,1758079458.8871,0.0,0.0,0.0,-9.4538,20.51189,-5.84417,8.67,1.53,0.96,2.0
1758079458.88944,1758079458.8971,0.0,0.0,0.0,-10.37054,18.79302,-5.84417,8.83,1.46,1.01,2.0
1758079458.89074,1758079458.9071,0.0,0.0,0.0,-11.17268,16.95955,-5.95876,8.83,1.46,1.01,2.0
1758079458.90569,1758079458.9171,0.0,0.0,0.0,-11.74564,14.49583,-5.95876,8.97,1.24,0.92,2.0
1758079458.92176,1758079458.9271,0.0,0.0,0.0,-11.63104,10.25595,-5.95876,8.97,1.24,0.92,2.0
1758079458.92264,1758079458.9371,0.0,0.0,0.0,-11.22997,8.76626,-5.50039,9.13,1.01,0.78,2.0
1758079458.93778,1758079458.9471,0.0,0.0,0.0,-10.94349,8.99544,-5.15662,9.13,1.01,0.78,2.0
1758079458.95347,1758079458.9571,0.0,0.0,0.0,-10.48513,10.19865,-4.87014,9.51,0.87,0.75,2.0
1758079458.95461,1758079458.9671,0.0,0.0,0.0,-9.4538,12.37589,-4.0107,9.72,0.86,0.76,2.0
1758079458.96981,1758079458.9771,0.0,0.0,0.0,-8.70896,14.38124,-3.26586,9.72,0.86,0.76,2.0
1758079458.97073,1758079458.9871,0.0,0.0,0.0,-8.136,15.12609,-2.63561,9.81,0.87,0.92,2.0
1758079458.98573,1758079458.9971,0.0,0.0,0.0,-7.73493,12.83425,-2.23454,9.81,0.87,0.92,2.0
1758079459.00143,1758079459.0071,0.0,0.0,0.0,-7.33386,8.99544,-2.00535,9.39,0.88,0.8,2.0
1758079459.00342,1758079459.0171,0.0,0.0,0.0,-7.50575,7.16197,-2.06265,9.39,0.88,0.8,2.0
1758079459.01873,1758079459.0271,0.0,0.0,0.0,-7.79223,5.09932,-2.23454,9.53,0.98,0.64,2.0
1758079459.01963,1758079459.0371,0.0,0.0,0.0,-8.36518,1.83346,-2.34913,9.53,0.98,0.64,2.0
1758079459.03573,1758079459.0471,0.0,0.0,0.0,-9.62569,-2.6929,-1.48969,9.42,1.15,0.48,2.0
1758079459.05173,1758079459.0571,0.0,0.0,0.0,-11.17268,-4.81285,-1.3178,9.61,1.42,0.5,2.0
1758079459.05302,1758079459.0671,0.0,0.0,0.0,-13.06344,-7.62034,-0.68755,9.61,1.42,0.5,2.0
1758079459.0677,1758079459.0771,0.0,0.0,0.0,-16.10011,-10.37054,-0.57296,9.69,1.64,0.34,2.0
1758079459.08368,1758079459.0871,0.0,0.0,0.0,-18.27736,-14.61043,-1.03132,9.69,1.64,0.34,2.0
1758079459.08474,1758079459.0971,0.0,0.0,0.0,-19.82434,-17.81899,-1.3178,9.74,1.77,0.36,2.0
1758079459.09977,1758079459.1071,0.0,0.0,0.0,-21.31403,-21.48592,-1.83346,9.74,1.77,0.36,2.0
1758079459.10102,1758079459.1171,0.0,0.0,0.0,-23.20479,-27.84575,-2.29183,9.7,1.81,0.15,2.0
1758079459.11557,1758079459.1271,0.0,0.0,0.0,-24.00693,-30.59595,-2.34913,9.83,1.75,-0.01,2.0
1758079459.13182,1758079459.1371,0.0,0.0,0.0,-24.75178,-31.51268,-2.29183,9.83,1.75,-0.01,2.0
1758079459.13274,1758079459.1471,0.0,0.0,0.0,-25.8404,-31.62727,-2.23454,10.14,1.66,-0.2,2.0
1758079459.14753,1758079459.1571,0.0,0.0,0.0,-26.52795,-33.00237,-1.60428,10.14,1.66,-0.2,2.0
1758079459.16353,1758079459.1671,0.0,0.0,0.0,-27.1582,-34.37747,-1.03132,10.15,1.66,-0.18,2.0
1758079459.16477,1758079459.1771,0.0,0.0,0.0,-27.38738,-34.09099,-0.40107,10.15,1.66,-0.18,2.0
1758079459.17949,1758079459.1871,0.0,0.0,0.0,-26.87172,-32.37212,0.22918,10.62,1.55,0.04,2.0
1758079459.18076,1758079459.1971,0.0,0.0,0.0,-24.86637,-18.79302,0.11459,12.31,1.26,0.9,2.0
1758079459.19552,1758079459.2071,0.0,0.0,0.0,-21.7151,-8.136,-0.68755,12.31,1.26,0.9,2.0
1758079459.21153,1758079459.2171,0.0,0.0,0.0,-17.47521,-21.88699,-1.03132,11.62,0.68,1.76,2.0
1758079459.21278,1758079459.2271,0.0,0.0,0.0,-17.13144,-43.94586,-5.50039,11.62,0.68,1.76,2.0
1758079459.22752,1758079459.2371,0.0,0.0,0.0,-13.17803,-61.24919,-10.54242,10.38,0.45,1.84,2.0
1758079459.24376,1758079459.2471,0.0,0.0,0.0,-9.91217,-57.75415,-12.08941,10.38,0.45,1.84,2.0
1758079459.24473,1758079459.2571,0.0,0.0,0.0,-6.18794,-47.09713,-11.28727,12.0,0.14,0.26,2.0
1758079459.25975,1758079459.2671,0.0,0.0,0.0,-2.57831,-38.78925,-7.33386,12.0,0.14,0.26,2.0
1758079459.27798,1758079459.2771,0.0,0.0,0.0,2.00535,-34.95043,-4.64096,11.34,0.13,0.46,2.0
1758079459.2783,1758079459.2871,0.0,0.0,0.0,4.23989,-35.69527,-2.29183,9.95,0.44,1.11,2.0
1758079459.29177,1758079459.2971,0.0,0.0,0.0,6.47442,-36.03905,0.22918,9.95,0.44,1.11,2.0
1758079459.29299,1758079459.3071,0.0,0.0,0.0,6.24524,-35.75257,0.97403,9.61,0.46,1.26,2.0
1758079459.30751,1758079459.3171,0.0,0.0,0.0,4.35448,-34.26288,0.17189,9.61,0.46,1.26,2.0
1758079459.32361,1758079459.3271,0.0,0.0,0.0,0.57296,-32.20023,-1.3751,9.53,0.45,2.31,2.0
1758079459.32474,1758079459.3371,0.0,0.0,0.0,-4.1253,-30.53865,-3.09397,9.53,0.45,2.31,2.0
1758079459.33985,1758079459.3471,0.0,0.0,0.0,-13.06344,-29.27814,-5.4431,9.26,0.53,3.33,2.0
1758079459.34104,1758079459.3571,0.0,0.0,0.0,-18.90761,-27.96034,-6.18794,9.36,0.57,2.83,2.0
1758079459.35555,1758079459.3671,0.0,0.0,0.0,-23.72045,-24.86637,-6.24524,9.36,0.57,2.83,2.0
1758079459.37153,1758079459.3771,0.0,0.0,0.0,-26.81443,-19.25138,-5.50039,10.53,0.53,1.79,2.0
1758079459.37305,1758079459.3871,0.0,0.0,0.0,-27.10091,-5.55769,-2.97938,10.53,0.53,1.79,2.0
1758079459.38755,1758079459.3971,0.0,0.0,0.0,-24.92367,4.29718,-0.80214,11.76,0.31,0.92,2.0
1758079459.40382,1758079459.4071,0.0,0.0,0.0,-21.25674,14.32395,1.3751,11.76,0.31,0.92,2.0
1758079459.40478,1758079459.4171,0.0,0.0,0.0,-16.90226,21.14215,3.03668,12.0,-0.06,0.61,2.0
1758079459.41978,1758079459.4271,0.0,0.0,0.0,-9.74028,35.2942,5.50039,11.73,-0.5,0.19,2.0
1758079459.42103,1758079459.4371,0.0,0.0,0.0,-4.92744,40.68,6.53172,11.73,-0.5,0.19,2.0
1758079459.43577,1758079459.4471,0.0,0.0,0.0,-0.68755,43.65939,7.10468,10.77,-0.93,0.06,2.0
1758079459.45155,1758079459.4571,0.0,0.0,0.0,3.03668,45.77933,6.8182,10.77,-0.93,0.06,2.0
1758079459.45353,1758079459.4671,0.0,0.0,0.0,7.50575,47.67009,5.78687,10.25,-1.13,0.03,2.0
1758079459.46859,1758079459.4771,0.0,0.0,0.0,9.91217,47.15443,4.64096,10.25,-1.13,0.03,2.0
1758079459.46974,1758079459.4871,0.0,0.0,0.0,12.08941,45.77933,3.60963,9.64,-0.98,0.23,2.0
1758079459.48587,1758079459.4971,0.0,0.0,0.0,14.38124,42.51347,2.57831,9.64,-0.98,0.23,2.0
1758079459.50159,1758079459.5071,0.0,0.0,0.0,15.69904,40.39353,2.40642,9.14,-0.62,0.29,2.0
1758079459.50269,1758079459.5171,0.0,0.0,0.0,16.84496,37.52874,2.63561,8.86,-0.26,0.44,2.0
1758079459.5175,1758079459.5271,0.0,0.0,0.0,17.58981,33.34615,3.26586,8.86,-0.26,0.44,2.0
1758079459.53352,1758079459.5371,0.0,0.0,0.0,18.62113,26.75713,5.09932,8.56,-0.05,0.57,2.0
1758079459.53472,1758079459.5471,0.0,0.0,0.0,19.53786,23.66316,6.47442,8.56,-0.05,0.57,2.0
1758079459.54954,1758079459.5571,0.0,0.0,0.0,19.82434,20.85567,7.21927,8.73,0.0,0.69,2.0
1758079459.55073,1758079459.5671,0.0,0.0,0.0,19.88164,18.22006,7.62034,8.73,0.0,0.69,2.0
1758079459.56586,1758079459.5771,0.0,0.0,0.0,19.53786,14.72501,7.39116,8.84,0.04,0.78,2.0
1758079459.58155,1758079459.5871,0.0,0.0,0.0,18.85031,11.22997,6.8182,9.0,0.15,0.79,2.0
1758079459.58273,1758079459.5971,0.0,0.0,0.0,17.58981,8.02141,5.90147,9.0,0.15,0.79,2.0
1758079459.59781,1758079459.6071,0.0,0.0,0.0,16.272,5.55769,4.87014,9.25,0.36,0.62,2.0
1758079459.61385,1758079459.6171,0.0,0.0,0.0,13.69369,3.66693,3.83882,9.25,0.36,0.62,2.0
1758079459.61474,1758079459.6271,0.0,0.0,0.0,11.97482,3.49504,3.09397,9.57,0.54,0.53,2.0
1758079459.62982,1758079459.6371,0.0,0.0,0.0,10.94349,4.98473,2.7502,9.57,0.54,0.53,2.0
1758079459.63074,1758079459.6471,0.0,0.0,0.0,9.91217,7.84952,2.40642,9.8,0.52,0.51,2.0
1758079459.64575,1758079459.6571,0.0,0.0,0.0,9.5684,14.15206,1.60428,9.94,0.33,0.36,2.0
1758079459.66186,1758079459.6671,0.0,0.0,0.0,9.96947,18.33465,1.03132,9.94,0.33,0.36,2.0
1758079459.66388,1758079459.6771,0.0,0.0,0.0,10.71431,22.00158,0.17189,9.84,0.12,0.2,2.0
1758079459.67869,1758079459.6871,0.0,0.0,0.0,12.71966,25.15285,-1.3178,9.84,0.12,0.2,2.0
1758079459.68,1758079459.6971,0.0,0.0,0.0,14.66772,28.36141,-2.11994,9.84,-0.03,0.09,2.0
1758079459.69596,1758079459.7071,0.0,0.0,0.0,16.61578,27.38738,-2.86479,9.84,-0.03,0.09,2.0
1758079459.71157,1758079459.7171,0.0,0.0,0.0,18.50654,25.61122,-3.32316,9.56,-0.21,0.13,2.0
1758079459.71277,1758079459.7271,0.0,0.0,0.0,21.25674,21.7724,-3.60963,9.56,-0.21,0.13,2.0
1758079459.72777,1758079459.7371,0.0,0.0,0.0,23.0329,17.24603,-3.20856,9.58,-0.37,0.28,2.0
1758079459.74357,1758079459.7471,0.0,0.0,0.0,24.92367,11.91752,-2.11994,9.45,-0.54,0.5,2.0
1758079459.74477,1758079459.7571,0.0,0.0,0.0,26.87172,4.98473,-0.57296,9.45,-0.54,0.5,2.0
1758079459.75983,1758079459.7671,0.0,0.0,0.0,30.30947,-5.27121,2.63561,9.22,-0.7,0.61,2.0
1758079459.76077,1758079459.7771,0.0,0.0,0.0,32.6013,-11.63104,5.09932,9.22,-0.7,0.61,2.0
1758079459.77558,1758079459.7871,0.0,0.0,0.0,34.60666,-17.24603,7.21927,9.17,-0.85,0.42,2.0
1758079459.7916,1758079459.7971,0.0,0.0,0.0,36.55471,-22.00158,9.39651,9.17,-0.85,0.42,2.0
1758079459.79367,1758079459.8071,0.0,0.0,0.0,39.24761,-32.77319,11.86023,9.18,-0.88,0.33,2.0
1758079459.80885,1758079459.8171,0.0,0.0,0.0,40.7946,-39.99245,12.49048,8.94,-0.76,0.09,2.0
1758079459.81018,1758079459.8271,0.0,0.0,0.0,42.1124,-43.83128,12.37589,8.94,-0.76,0.09,2.0
1758079459.82588,1758079459.8371,0.0,0.0,0.0,44.86259,-41.76862,12.54778,9.89,-0.59,-0.05,2.0
1758079459.84187,1758079459.8471,0.0,0.0,0.0,47.26902,-32.08564,11.45916,9.89,-0.59,-0.05,2.0
1758079459.84364,1758079459.8571,0.0,0.0,0.0,48.41494,-23.89234,11.11538,11.04,-0.41,0.68,2.0
1758079459.85862,1758079459.8671,0.0,0.0,0.0,48.52953,-15.98552,11.34457,11.04,-0.41,0.68,2.0
1758079459.86027,1758079459.8771,0.0,0.0,0.0,47.49821,-10.37054,11.91752,11.98,0.06,1.8,2.0
1758079459.87561,1758079459.8871,0.0,0.0,0.0,44.23235,-8.93814,12.71966,12.14,0.81,2.48,2.0
1758079459.89189,1758079459.8971,0.0,0.0,0.0,42.39888,-20.79837,14.72501,12.14,0.81,2.48,2.0
1758079459.8931,1758079459.9071,0.0,0.0,0.0,39.76327,-44.00316,16.55848,10.72,1.19,1.89,2.0
1758079459.90835,1758079459.9171,0.0,0.0,0.0,35.3515,-60.50434,19.76705,10.72,1.19,1.89,2.0
1758079459.90962,1758079459.9271,0.0,0.0,0.0,33.23156,-57.75415,22.86102,11.73,1.35,0.57,2.0
1758079459.92566,1758079459.9371,0.0,0.0,0.0,31.11161,-50.53488,22.97561,11.73,1.35,0.57,2.0
1758079459.94163,1758079459.9471,0.0,0.0,0.0,30.25217,-43.88857,21.25674,11.55,0.68,0.1,2.0
1758079459.94284,1758079459.9571,0.0,0.0,0.0,30.88243,-38.1017,15.64175,11.55,0.68,1.44,2.0
1758079459.95795,1758079459.9671,0.0,0.0,0.0,32.77319,-34.43476,10.71431,9.89,0.2,1.44,2.0
1758079459.95962,1758079459.9771,0.0,0.0,0.0,35.98175,-29.33544,5.84417,9.28,0.29,1.69,2.0
1758079459.97569,1758079459.9871,0.0,0.0,0.0,40.16434,-23.54857,1.94806,9.28,0.29,1.69,2.0
1758079459.99191,1758079459.9971,0.0,0.0,0.0,46.98254,-14.9542,-0.51566,9.24,0.65,1.76,2.0
1758079459.99399,1758079460.0071,0.0,0.0,0.0,51.79538,-9.22462,-0.68755,9.24,0.65,1.76,2.0
1758079460.00864,1758079460.0171,0.0,0.0,0.0,56.49364,-4.58366,0.57296,9.58,0.74,1.82,2.0
1758079460.00985,1758079460.0271,0.0,0.0,0.0,60.50434,1.14592,2.29183,9.58,0.74,1.82,2.0
1758079460.02592,1758079460.0371,0.0,0.0,0.0,66.11933,11.57375,4.81285,10.41,0.65,1.17,2.0
1758079460.04258,1758079460.0471,0.0,0.0,0.0,69.15601,19.48057,6.18794,11.38,0.64,0.75,2.0
1758079460.04384,1758079460.0571,0.0,0.0,0.0,70.93218,27.2155,6.58902,11.38,0.64,0.75,2.0
1758079460.05865,1758079460.0671,0.0,0.0,0.0,71.39055,35.12231,6.41713,11.79,0.77,0.6,2.0
1758079460.05985,1758079460.0771,0.0,0.0,0.0,69.95815,45.60744,4.23989,11.79,0.77,0.6,2.0
1758079460.07567,1758079460.0871,0.0,0.0,0.0,68.06739,49.56085,2.23454,11.49,1.13,0.42,2.0
1758079460.09167,1758079460.0971,0.0,0.0,0.0,65.89015,50.3057,0.45837,11.49,1.13,0.42,2.0
1758079460.09396,1758079460.1071,0.0,0.0,0.0,62.22322,50.53488,-1.77617,10.65,1.53,0.33,2.0
1758079460.10892,1758079460.1171,0.0,0.0,0.0,59.81679,51.10783,-2.29183,10.39,1.86,0.4,2.0
1758079460.10982,1758079460.1271,0.0,0.0,0.0,57.29578,51.5662,-2.92208,10.39,1.86,0.4,2.0
1758079460.12593,1758079460.1371,0.0,0.0,0.0,55.11855,51.85268,-3.03668,10.12,1.95,0.51,2.0
1758079460.1419,1758079460.1471,0.0,0.0,0.0,51.73809,48.30034,-2.46372,10.12,1.95,0.51,2.0
1758079460.1428,1758079460.1571,0.0,0.0,0.0,49.61814,44.86259,-2.34913,9.4,1.72,0.61,2.0
1758079460.15794,1758079460.1671,0.0,0.0,0.0,47.78468,42.1124,-1.60428,9.4,1.72,0.61,2.0
1758079460.17365,1758079460.1771,0.0,0.0,0.0,45.77933,39.4768,-0.68755,9.2,1.38,0.5,2.0
1758079460.17484,1758079460.1871,0.0,0.0,0.0,42.57077,35.69527,0.17189,9.11,1.15,0.54,2.0
1758079460.18964,1758079460.1971,0.0,0.0,0.0,40.39353,33.51803,0.68755,9.11,1.15,0.54,2.0
1758079460.19131,1758079460.2071,0.0,0.0,0.0,38.21629,31.85646,0.97403,9.06,1.12,0.7,2.0
1758079460.20591,1758079460.2171,0.0,0.0,0.0,36.15364,30.25217,0.85944,9.06,1.12,0.7,2.0
1758079460.2219,1758079460.2271,0.0,0.0,0.0,33.11696,27.33009,1.03132,8.98,1.25,0.89,2.0
1758079460.22286,1758079460.2371,0.0,0.0,0.0,31.51268,26.01229,1.08862,8.98,1.25,0.89,2.0
1758079460.2379,1758079460.2471,0.0,0.0,0.0,30.25217,24.00693,1.08862,8.97,1.4,0.91,2.0
1758079460.25392,1758079460.2571,0.0,0.0,0.0,29.27814,21.25674,1.20321,8.97,1.4,0.91,2.0
1758079460.25484,1758079460.2671,0.0,0.0,0.0,28.87707,17.58981,1.60428,8.85,1.51,0.9,2.0
1758079460.26992,1758079460.2771,0.0,0.0,0.0,29.04896,17.99088,1.94806,9.28,1.43,0.75,2.0
1758079460.27084,1758079460.2871,0.0,0.0,0.0,29.56462,17.87628,2.23454,9.28,1.43,0.75,2.0
1758079460.28593,1758079460.2971,0.0,0.0,0.0,30.82513,17.47521,2.7502,9.47,1.22,0.77,2.0
1758079460.30196,1758079460.3071,0.0,0.0,0.0,31.97105,18.22006,3.49504,9.47,1.22,0.77,2.0
1758079460.30286,1758079460.3171,0.0,0.0,0.0,32.83048,18.33465,4.0107,9.7,0.99,0.88,2.0
1758079460.31796,1758079460.3271,0.0,0.0,0.0,33.74722,16.73037,4.35448,9.7,0.99,0.88,2.0
1758079460.33397,1758079460.3371,0.0,0.0,0.0,34.37747,13.5791,5.15662,9.47,0.86,0.87,2.0
1758079460.33487,1758079460.3471,0.0,0.0,0.0,34.32018,11.80293,5.50039,9.43,0.94,0.83,2.0
1758079460.34993,1758079460.3571,0.0,0.0,0.0,33.9764,10.31324,5.50039,9.43,0.94,0.83,2.0
1758079460.35087,1758079460.3671,0.0,0.0,0.0,33.17426,8.25059,5.84417,9.33,1.15,0.79,2.0
1758079460.36607,1758079460.3771,0.0,0.0,0.0,31.97105,4.1253,6.53172,9.33,1.15,0.79,2.0
1758079460.38196,1758079460.3871,0.0,0.0,0.0,30.99702,0.85944,7.33386,9.24,1.36,0.82,2.0
1758079460.38329,1758079460.3971,0.0,0.0,0.0,29.62192,-1.3751,8.25059,9.24,1.36,0.82,2.0
1758079460.39797,1758079460.4071,0.0,0.0,0.0,28.13223,-2.97938,9.05273,9.43,1.48,0.8,2.0
1758079460.39999,1758079460.4171,0.0,0.0,0.0,25.21014,-5.27121,9.28192,9.53,1.56,0.76,2.0
1758079460.41594,1758079460.4271,0.0,0.0,0.0,22.97561,-7.62034,8.99544,9.53,1.56,0.76,2.0
1758079460.43171,1758079460.4371,0.0,0.0,0.0,20.79837,-9.11003,8.42248,9.41,1.62,0.73,2.0
1758079460.43685,1758079460.4471,0.0,0.0,0.0,18.73572,-10.65701,7.96411,9.41,1.62,0.73,2.0
1758079460.45171,1758079460.4571,0.0,0.0,0.0,16.21471,-12.83425,7.50575,9.47,1.63,0.56,2.0
1758079460.45481,1758079460.4671,0.0,0.0,0.0,14.61043,-14.03747,7.33386,9.47,1.63,0.56,2.0
1758079460.47001,1758079460.4771,0.0,0.0,0.0,13.5791,-14.78231,6.99009,9.5,1.59,0.44,2.0
1758079460.47205,1758079460.4871,0.0,0.0,0.0,13.12073,-15.46986,6.99009,9.5,1.59,0.44,2.0
1758079460.4867,1758079460.4971,0.0,0.0,0.0,12.37589,-14.20935,7.04738,9.63,1.45,0.33,2.0
1758079460.50351,1758079460.5071,0.0,0.0,0.0,12.43318,-12.83425,7.10468,9.85,1.27,0.27,2.0
1758079460.505,1758079460.5171,0.0,0.0,0.0,12.89155,-10.71431,7.10468,9.85,1.27,0.27,2.0
1758079460.51998,1758079460.5271,0.0,0.0,0.0,14.15206,-8.36518,7.04738,9.98,1.09,0.24,2.0
1758079460.5209,1758079460.5371,0.0,0.0,0.0,15.35527,-7.44845,7.21927,9.98,1.09,0.24,2.0
1758079460.53601,1758079460.5471,0.0,0.0,0.0,16.61578,-9.39651,7.62034,9.76,0.98,0.08,2.0
1758079460.55162,1758079460.5571,0.0,0.0,0.0,17.87628,-12.37589,10.08406,9.76,0.98,0.08,2.0
1758079460.55407,1758079460.5671,0.0,0.0,0.0,17.36062,-16.90226,7.96411,9.4,1.02,-0.1,2.0
1758079460.56905,1758079460.5771,0.0,0.0,0.0,16.50119,-13.00614,7.04738,9.98,1.28,-0.4,2.0
1758079460.57036,1758079460.5871,0.0,0.0,0.0,14.9542,-11.86023,5.55769,9.98,1.28,-0.4,2.0
1758079460.58605,1758079460.5971,0.0,0.0,0.0,14.09476,-16.73037,5.15662,9.63,1.51,0.19,2.0
1758079460.60212,1758079460.6071,0.0,0.0,0.0,14.20935,-18.9649,6.87549,9.63,1.51,0.19,2.0
1758079460.60376,1758079460.6171,0.0,0.0,0.0,15.69904,-18.50654,7.79223,10.63,1.27,0.57,2.0
1758079460.62005,1758079460.6271,0.0,0.0,0.0,17.01685,-22.11617,8.136,10.63,1.27,0.57,2.0
1758079460.62091,1758079460.6371,0.0,0.0,0.0,17.93358,-28.87707,8.136,11.37,0.9,1.33,2.0
1758079460.63605,1758079460.6471,0.0,0.0,0.0,19.70975,-39.76327,6.70361,11.92,0.6,2.04,2.0
1758079460.65187,1758079460.6571,0.0,0.0,0.0,20.51189,-44.748,5.09932,11.92,0.6,2.04,2.0
1758079460.65295,1758079460.6671,0.0,0.0,0.0,22.11617,-44.28964,4.64096,12.61,0.3,2.36,2.0
1758079460.66808,1758079460.6771,0.0,0.0,0.0,23.72045,-41.25296,4.52637,12.61,0.3,2.36,2.0
1758079460.684,1758079460.6871,0.0,0.0,0.0,26.06958,-37.01308,4.98473,11.69,0.19,2.59,2.0
1758079460.68538,1758079460.6971,0.0,0.0,0.0,26.81443,-36.61201,4.58366,11.69,0.19,2.59,2.0
1758079460.69988,1758079460.7071,0.0,0.0,0.0,26.24147,-37.47144,3.72423,9.69,0.33,2.88,2.0
1758079460.70119,1758079460.7171,0.0,0.0,0.0,22.91831,-36.26823,2.11994,9.69,0.33,2.88,2.0
1758079460.7158,1758079460.7271,0.0,0.0,0.0,19.25138,-34.60666,1.3751,8.94,0.7,2.58,2.0
1758079460.73219,1758079460.7371,0.0,0.0,0.0,14.9542,-31.74186,0.85944,9.62,1.1,2.23,2.0
1758079460.73327,1758079460.7471,0.0,0.0,0.0,10.94349,-26.81443,0.97403,9.62,1.1,2.23,2.0
1758079460.74783,1758079460.7571,0.0,0.0,0.0,7.16197,-16.84496,1.3178,11.1,1.17,1.79,2.0
1758079460.764,1758079460.7671,0.0,0.0,0.0,6.53172,-10.48513,1.94806,11.1,1.17,1.79,2.0
1758079460.76493,1758079460.7771,0.0,0.0,0.0,7.50575,-3.89611,2.29183,11.8,0.71,1.47,2.0
1758079460.78009,1758079460.7871,0.0,0.0,0.0,9.4538,2.57831,2.40642,11.8,0.71,1.47,2.0
1758079460.78092,1758079460.7971,0.0,0.0,0.0,14.32395,11.34457,3.26586,11.65,0.09,1.23,2.0
1758079460.79599,1758079460.8071,0.0,0.0,0.0,17.99088,16.90226,3.72423,10.82,-0.52,0.89,2.0
1758079460.81196,1758079460.8171,0.0,0.0,0.0,21.7151,21.7724,4.0107,10.82,-0.52,0.89,2.0
1758079460.81294,1758079460.8271,0.0,0.0,0.0,25.21014,25.61122,4.35448,10.05,-0.97,0.74,2.0
1758079460.82783,1758079460.8371,0.0,0.0,0.0,29.56462,30.19488,4.29718,10.05,-0.97,0.74,2.0
1758079460.84408,1758079460.8471,0.0,0.0,0.0,32.08564,32.14294,4.58366,9.54,-1.13,0.74,2.0
1758079460.84492,1758079460.8571,0.0,0.0,0.0,33.9764,33.80451,4.18259,9.54,-1.13,0.74,2.0
1758079460.86005,1758079460.8671,0.0,0.0,0.0,35.3515,34.43476,4.18259,9.26,-0.95,0.89,2.0
1758079460.86094,1758079460.8771,0.0,0.0,0.0,37.47144,32.83048,4.46907,8.98,-0.55,0.85,2.0
1758079460.87578,1758079460.8871,0.0,0.0,0.0,38.15899,30.65324,4.69825,8.98,-0.55,0.85,2.0
1758079460.89201,1758079460.8971,0.0,0.0,0.0,38.44547,28.01764,4.92744,9.01,-0.15,0.93,2.0
1758079460.89402,1758079460.9071,0.0,0.0,0.0,38.27358,25.43933,5.21392,9.01,-0.15,0.93,2.0
1758079460.9088,1758079460.9171,0.0,0.0,0.0,37.81522,21.14215,5.50039,9.23,0.2,1.03,2.0
1758079460.91026,1758079460.9271,0.0,0.0,0.0,37.35685,18.50654,5.95876,9.23,0.2,1.03,2.0
1758079460.92582,1758079460.9371,0.0,0.0,0.0,37.01308,15.64175,6.35983,9.44,0.38,1.11,2.0
1758079460.94182,1758079460.9471,0.0,0.0,0.0,36.03905,11.80293,7.10468,9.44,0.38,1.11,2.0
1758079460.94297,1758079460.9571,0.0,0.0,0.0,35.00772,8.42248,7.67763,9.43,0.4,0.97,2.0
1758079460.95783,1758079460.9671,0.0,0.0,0.0,33.51803,4.87014,7.84952,9.34,0.39,0.92,2.0
1758079460.97415,1758079460.9771,0.0,0.0,0.0,31.74186,1.66158,7.84952,9.34,0.39,0.92,2.0
1758079460.97498,1758079460.9871,0.0,0.0,0.0,28.59059,-2.00535,7.33386,9.5,0.47,0.84,2.0
1758079460.98983,1758079460.9971,0.0,0.0,0.0,26.35606,-5.21392,7.10468,9.5,0.47,0.84,2.0
1758079460.99101,1758079461.0071,0.0,0.0,0.0,24.23611,-6.7609,6.70361,9.52,0.6,0.7,2.0
1758079461.00607,1758079461.0171,0.0,0.0,0.0,21.88699,-6.8182,5.95876,9.52,0.6,0.7,2.0
1758079461.022,1758079461.0271,0.0,0.0,0.0,18.73572,-4.58366,4.98473,9.77,0.73,0.57,2.0
1758079461.02339,1758079461.0371,0.0,0.0,0.0,16.95955,-2.34913,4.18259,9.84,0.79,0.48,2.0
1758079461.03808,1758079461.0471,0.0,0.0,0.0,15.35527,0.17189,3.03668,9.84,0.79,0.48,2.0
1758079461.05378,1758079461.0571,0.0,0.0,0.0,14.09476,2.63561,2.00535,9.71,0.73,0.37,2.0
1758079461.05497,1758079461.0671,0.0,0.0,0.0,13.00614,6.35983,0.22918,9.71,0.73,0.37,2.0
1758079461.06985,1758079461.0771,0.0,0.0,0.0,12.43318,9.05273,-0.80214,9.64,0.56,0.19,2.0
1758079461.07102,1758079461.0871,0.0,0.0,0.0,12.08941,11.22997,-2.00535,9.64,0.56,0.19,2.0
1758079461.0861,1758079461.0971,0.0,0.0,0.0,11.97482,13.34992,-3.55234,9.67,0.28,0.21,2.0
1758079461.10209,1758079461.1071,0.0,0.0,0.0,11.74564,16.55848,-4.29718,9.73,0.05,0.36,2.0
1758079461.10302,1758079461.1171,0.0,0.0,0.0,11.51645,17.81899,-4.81285,9.73,0.05,0.36,2.0
1758079461.11815,1758079461.1271,0.0,0.0,0.0,11.34457,18.10547,-5.15662,9.69,-0.05,0.45,2.0
1758079461.13384,1758079461.1371,0.0,0.0,0.0,11.00079,17.36062,-5.50039,9.69,-0.05,0.45,2.0
1758079461.13504,1758079461.1471,0.0,0.0,0.0,11.22997,16.61578,-5.15662,9.59,-0.07,0.54,2.0
1758079461.14987,1758079461.1571,0.0,0.0,0.0,11.51645,14.72501,-4.81285,9.59,-0.07,0.54,2.0
1758079461.15103,1758079461.1671,0.0,0.0,0.0,12.14671,11.63104,-3.89611,9.54,-0.02,0.56,2.0
1758079461.16631,1758079461.1771,0.0,0.0,0.0,13.46451,5.95876,-2.46372,9.51,-0.02,0.48,2.0
1758079461.18188,1758079461.1871,0.0,0.0,0.0,14.78231,2.11994,-1.3178,9.51,0.01,0.48,2.0
1758079461.18303,1758079461.1971,0.0,0.0,0.0,16.3293,-1.03132,-0.45837,9.55,-0.04,0.32,2.0
1758079461.19787,1758079461.2071,0.0,0.0,0.0,17.81899,-3.55234,0.17189,9.55,-0.04,0.32,2.0
1758079461.2142,1758079461.2171,0.0,0.0,0.0,20.11082,-7.04738,0.85944,9.57,-0.17,0.16,2.0
1758079461.21505,1758079461.2271,0.0,0.0,0.0,21.48592,-10.48513,0.97403,9.57,-0.17,0.16,2.0
1758079461.23017,1758079461.2371,0.0,0.0,0.0,22.86102,-15.35527,0.68755,9.47,-0.31,0.0,2.0
1758079461.23103,1758079461.2471,0.0,0.0,0.0,23.60586,-19.76705,0.0,9.47,-0.31,0.0,2.0
1758079461.24584,1758079461.2571,0.0,0.0,0.0,24.57989,-21.7151,-0.97403,9.44,-0.39,-0.17,2.0
1758079461.26186,1758079461.2671,0.0,0.0,0.0,24.98096,-21.25674,-1.43239,9.99,-0.53,-0.2,2.0
1758079461.26307,1758079461.2771,0.0,0.0,0.0,25.8404,-16.10011,-1.20321,9.99,-0.53,-0.2,2.0
1758079461.27803,1758079461.2871,0.0,0.0,0.0,26.47065,-8.88085,-0.45837,10.58,-0.73,0.0,2.0
1758079461.29388,1758079461.2971,0.0,0.0,0.0,27.10091,4.0107,0.51566,10.58,-0.73,0.0,2.0
1758079461.29504,1758079461.3071,0.0,0.0,0.0,27.61657,8.99544,1.14592,10.67,-0.76,0.48,2.0
1758079461.31005,1758079461.3171,0.0,0.0,0.0,28.07493,9.96947,1.77617,10.67,-0.76,0.48,2.0
1758079461.31099,1758079461.3271,0.0,0.0,0.0,28.70519,0.17189,3.20856,10.26,-0.48,1.0,2.0
1758079461.32611,1758079461.3371,0.0,0.0,0.0,28.41871,-25.61122,6.7609,9.59,0.06,1.44,2.0
1758079461.34208,1758079461.3471,0.0,0.0,0.0,27.38738,-50.82136,11.97482,9.59,0.06,1.44,2.0
1758079461.34304,1758079461.3571,0.0,0.0,0.0,27.73116,-63.65561,21.14215,11.67,0.36,1.81,2.0
1758079461.35785,1758079461.3671,0.0,0.0,0.0,26.12688,-58.55629,28.13223,11.67,0.36,1.81,2.0
1758079461.37406,1758079461.3771,0.0,0.0,0.0,24.12152,-50.59217,28.30412,14.01,0.52,1.15,2.0
1758079461.37502,1758079461.3871,0.0,0.0,0.0,21.02755,-43.37291,23.60586,14.01,0.52,1.15,2.0
1758079461.39006,1758079461.3971,0.0,0.0,0.0,17.87628,-38.38818,17.30333,11.98,0.41,1.52,2.0
1758079461.39109,1758079461.4071,0.0,0.0,0.0,14.15206,-32.83048,8.76626,9.92,0.1,1.46,2.0
1758079461.40611,1758079461.4171,0.0,0.0,0.0,12.60507,-31.28349,0.80214,9.92,0.1,1.46,2.0
1758079461.4221,1758079461.4271,0.0,0.0,0.0,13.46451,-29.9084,-2.92208,8.67,0.13,0.77,2.0
1758079461.42303,1758079461.4371,0.0,0.0,0.0,14.72501,-26.01229,-7.39116,8.67,0.13,0.77,2.0
1758079461.43814,1758079461.4471,0.0,0.0,0.0,20.85567,-19.82434,-8.99544,8.94,0.2,1.52,2.0
1758079461.45415,1758079461.4571,0.0,0.0,0.0,26.47065,-17.53251,-8.36518,8.94,0.2,1.52,2.0
1758079461.45553,1758079461.4671,0.0,0.0,0.0,32.88778,-15.58445,-6.41713,9.08,0.19,2.52,2.0
1758079461.46989,1758079461.4771,0.0,0.0,0.0,39.4768,-13.06344,-2.86479,9.08,0.19,2.52,2.0
1758079461.47142,1758079461.4871,0.0,0.0,0.0,47.89928,-6.18794,2.6929,9.75,0.18,2.16,2.0
1758079461.48586,1758079461.4971,0.0,0.0,0.0,52.36834,0.22918,6.24524,10.89,0.39,1.45,2.0
1758079461.50211,1758079461.5071,0.0,0.0,0.0,55.00395,7.50575,8.36518,10.89,0.39,1.45,2.0
1758079461.50306,1758079461.5171,0.0,0.0,0.0,55.51962,16.50119,9.28192,11.68,0.8,0.84,2.0
1758079461.51785,1758079461.5271,0.0,0.0,0.0,53.68615,30.82513,8.0787,11.68,0.8,0.84,2.0
1758079461.5342,1758079461.5371,0.0,0.0,0.0,50.363,38.84654,5.55769,11.8,1.18,0.39,2.0
1758079461.53511,1758079461.5471,0.0,0.0,0.0,46.46688,42.34158,2.29183,11.8,1.18,0.39,2.0
1758079461.55028,1758079461.5571,0.0,0.0,0.0,40.27893,42.91454,-2.7502,10.93,1.45,0.34,2.0
1758079461.55113,1758079461.5671,0.0,0.0,0.0,36.7266,41.99781,-5.72958,10.6,1.67,0.4,2.0
1758079461.56612,1758079461.5771,0.0,0.0,0.0,33.34615,41.94051,-8.36518,10.6,1.67,0.4,2.0
1758079461.5819,1758079461.5871,0.0,0.0,0.0,30.48136,42.34158,-10.31324,10.53,1.81,0.68,2.0
1758079461.58313,1758079461.5971,0.0,0.0,0.0,27.04361,41.48215,-11.86023,10.53,1.81,0.68,2.0
1758079461.59795,1758079461.6071,0.0,0.0,0.0,25.15285,39.19032,-12.2613,9.8,1.76,0.96,2.0
1758079461.6139,1758079461.6171,0.0,0.0,0.0,23.26209,37.01308,-11.51645,9.8,1.76,0.96,2.0
1758079461.61512,1758079461.6271,0.0,0.0,0.0,21.14215,34.60666,-10.59972,9.06,1.63,0.98,2.0
1758079461.62992,1758079461.6371,0.0,0.0,0.0,17.81899,31.85646,-8.99544,8.68,1.47,0.73,2.0
1758079461.6311,1758079461.6471,0.0,0.0,0.0,15.35527,29.8511,-8.25059,8.68,1.47,0.73,2.0
1758079461.64602,1758079461.6571,0.0,0.0,0.0,12.43318,27.78845,-7.50575,8.49,1.34,0.79,2.0
1758079461.66195,1758079461.6671,0.0,0.0,0.0,9.33921,25.55392,-7.04738,8.49,1.34,0.79,2.0
1758079461.66311,1758079461.6771,0.0,0.0,0.0,4.87014,22.97561,-6.53172,8.51,1.32,0.89,2.0
1758079461.67791,1758079461.6871,0.0,0.0,0.0,2.34913,20.74107,-6.70361,8.51,1.32,0.89,2.0
1758079461.6939,1758079461.6971,0.0,0.0,0.0,-0.0573,17.93358,-6.35983,8.54,1.35,1.02,2.0
1758079461.69511,1758079461.7071,0.0,0.0,0.0,-2.06265,15.06879,-5.90147,8.54,1.35,1.02,2.0
1758079461.71001,1758079461.7171,0.0,0.0,0.0,-3.83882,11.11538,-5.55769,8.68,1.31,1.05,2.0
1758079461.71112,1758079461.7271,0.0,0.0,0.0,-4.1253,8.36518,-4.81285,9.01,1.16,0.97,2.0
1758079461.72595,1758079461.7371,0.0,0.0,0.0,-4.1253,6.53172,-3.95341,9.01,1.16,0.97,2.0
1758079461.742,1758079461.7471,0.0,0.0,0.0,-3.49504,4.52637,-2.86479,9.44,0.92,0.81,2.0
1758079461.74313,1758079461.7571,0.0,0.0,0.0,-2.7502,4.46907,-2.00535,9.44,0.92,0.81,2.0
1758079461.75806,1758079461.7671,0.0,0.0,0.0,-1.94806,6.13065,-1.43239,9.7,0.69,0.67,2.0
1758079461.77421,1758079461.7771,0.0,0.0,0.0,-0.80214,7.96411,-0.85944,9.7,0.69,0.67,2.0
1758079461.77514,1758079461.7871,0.0,0.0,0.0,0.97403,10.8862,-0.0573,9.9,0.49,0.66,2.0
1758079461.79022,1758079461.7971,0.0,0.0,0.0,2.00535,12.89155,0.57296,10.0,0.35,0.66,2.0
1758079461.79147,1758079461.8071,0.0,0.0,0.0,2.6929,14.20935,1.08862,10.0,0.35,0.66,2.0
1758079461.80593,1758079461.8171,0.0,0.0,0.0,3.09397,14.61043,1.48969,9.85,0.36,0.54,2.0
1758079461.8221,1758079461.8271,0.0,0.0,0.0,3.60963,14.32395,2.46372,9.85,0.36,0.54,2.0
1758079461.82396,1758079461.8371,0.0,0.0,0.0,3.60963,14.43854,2.97938,9.69,0.48,0.43,2.0
1758079461.83924,1758079461.8471,0.0,0.0,0.0,3.55234,13.86558,3.60963,9.69,0.48,0.43,2.0
1758079461.84016,1758079461.8571,0.0,0.0,0.0,3.26586,11.97482,4.29718,9.62,0.67,0.46,2.0
1758079461.85605,1758079461.86709,0.0,0.0,0.0,2.34913,8.25059,4.92744,9.54,0.94,0.52,2.0
1758079461.87226,1758079461.87709,0.0,0.0,0.0,1.14592,5.84417,5.15662,9.54,0.94,0.52,2.0
1758079461.87313,1758079461.88709,0.0,0.0,0.0,-0.17189,2.7502,4.98473,9.63,1.24,0.5,2.0
1758079461.8882,1758079461.89709,0.0,0.0,0.0,-2.06265,-0.45837,4.58366,9.63,1.24,0.5,2.0
1758079461.90421,1758079461.90709,0.0,0.0,0.0,-5.27121,-5.21392,3.66693,9.65,1.55,0.36,2.0
1758079461.90515,1758079461.91709,0.0,0.0,0.0,-7.84952,-8.70896,2.57831,9.65,1.55,0.36,2.0
1758079461.92021,1758079461.92709,0.0,0.0,0.0,-10.08406,-13.40721,1.3178,9.63,1.82,0.21,2.0
1758079461.92115,1758079461.93709,0.0,0.0,0.0,-13.23533,-22.34536,-0.11459,9.63,1.82,0.21,2.0
1758079461.93618,1758079461.94709,0.0,0.0,0.0,-15.29797,-27.1582,-0.97403,9.4,1.95,-0.06,2.0
1758079461.95223,1758079461.95709,0.0,0.0,0.0,-17.24603,-30.30947,-1.48969,9.64,1.87,-0.22,2.0
1758079461.95391,1758079461.96709,0.0,0.0,0.0,-19.48057,-32.20023,-2.11994,9.64,1.87,-0.22,2.0
1758079461.96895,1758079461.97709,0.0,0.0,0.0,-22.74642,-32.14294,-1.66158,9.92,1.63,-0.05,2.0
1758079461.97019,1758079461.98709,0.0,0.0,0.0,-24.29341,-32.08564,-1.48969,9.92,1.63,-0.05,2.0
1758079461.98623,1758079461.99709,0.0,0.0,0.0,-26.06958,-33.23156,-0.22918,9.99,1.44,0.04,2.0
1758079462.00221,1758079462.00709,0.0,0.0,0.0,-27.38738,-28.87707,0.40107,9.99,1.44,0.04,2.0
1758079462.00401,1758079462.01709,0.0,0.0,0.0,-27.50197,-14.49583,0.74485,11.25,1.35,0.73,2.0
1758079462.01895,1758079462.02709,0.0,0.0,0.0,-26.24147,-13.5218,1.3178,12.23,0.9,1.96,2.0
1758079462.02041,1758079462.03709,0.0,0.0,0.0,-24.00693,-35.06502,-0.40107,12.23,0.9,1.96,2.0
1758079462.03618,1758079462.04709,0.0,0.0,0.0,-22.11617,-54.431,-2.57831,10.83,0.53,2.37,2.0
1758079462.05325,1758079462.05709,0.0,0.0,0.0,-19.25138,-62.33781,-7.67763,10.83,0.53,2.37,2.0
1758079462.05436,1758079462.06709,0.0,0.0,0.0,-16.67307,-57.29578,-9.05273,12.91,0.1,1.14,2.0
1758079462.06895,1758079462.07709,0.0,0.0,0.0,-14.09476,-45.89392,-8.88085,12.91,0.1,1.14,2.0
1758079462.07007,1758079462.08709,0.0,0.0,0.0,-12.2613,-37.75792,-6.99009,12.71,-0.36,0.52,2.0
1758079462.086,1758079462.09709,0.0,0.0,0.0,-10.71431,-34.89313,-2.86479,10.67,-0.05,1.15,2.0
1758079462.10215,1758079462.10709,0.0,0.0,0.0,-10.19865,-35.06502,-0.57296,10.67,-0.05,1.15,2.0
1758079462.10389,1758079462.11709,0.0,0.0,0.0,-10.19865,-34.89313,0.51566,9.71,0.22,1.29,2.0
1758079462.11894,1758079462.12709,0.0,0.0,0.0,-12.43318,-33.9764,0.51566,9.71,0.22,1.29,2.0
1758079462.12019,1758079462.13709,0.0,0.0,0.0,-15.35527,-33.68992,-0.85944,9.18,0.45,1.85,2.0
1758079462.13618,1758079462.14709,0.0,0.0,0.0,-19.48057,-34.26288,-2.7502,9.18,0.45,1.85,2.0
1758079462.15196,1758079462.15709,0.0,0.0,0.0,-24.57989,-35.12231,-4.92744,8.48,0.7,2.91,2.0
1758079462.15397,1758079462.16709,0.0,0.0,0.0,-33.46074,-35.58068,-7.10468,8.48,0.7,2.91,2.0
1758079462.16895,1758079462.17709,0.0,0.0,0.0,-39.24761,-33.74722,-7.62034,8.47,0.84,2.72,2.0
1758079462.17045,1758079462.18709,0.0,0.0,0.0,-44.00316,-28.76248,-7.39116,9.61,0.7,1.95,2.0
1758079462.18623,1758079462.19709,0.0,0.0,0.0,-47.26902,-22.40265,-6.47442,9.61,0.7,1.95,2.0
1758079462.20231,1758079462.20709,0.0,0.0,0.0,-48.70141,-9.28192,-4.52637,10.94,0.24,1.16,2.0
1758079462.20502,1758079462.21709,0.0,0.0,0.0,-47.61279,0.0,-3.09397,10.94,0.24,1.16,2.0
1758079462.22027,1758079462.22709,0.0,0.0,0.0,-45.09178,9.22462,-1.77617,11.56,-0.37,0.69,2.0
1758079462.22192,1758079462.23709,0.0,0.0,0.0,-41.42485,18.16276,-0.80214,11.56,-0.37,0.69,2.0
1758079462.23727,1758079462.24709,0.0,0.0,0.0,-34.77854,29.67921,0.11459,11.36,-0.98,0.21,2.0
1758079462.25326,1758079462.25709,0.0,0.0,0.0,-30.13758,35.69527,0.51566,10.75,-1.27,-0.03,2.0
1758079462.25446,1758079462.26709,0.0,0.0,0.0,-25.61122,39.4768,0.51566,10.75,-1.27,-0.03,2.0
1758079462.26925,1758079462.27709,0.0,0.0,0.0,-21.6578,40.45082,0.57296,10.02,-1.17,0.03,2.0
1758079462.27023,1758079462.28709,0.0,0.0,0.0,-17.24603,41.99781,-0.74485,10.02,-1.17,0.03,2.0
1758079462.28626,1758079462.29709,0.0,0.0,0.0,-15.06879,41.13837,-1.71887,9.85,-0.88,0.14,2.0
1758079462.30216,1758079462.30709,0.0,0.0,0.0,-13.40721,39.19032,-2.29183,9.85,-0.88,0.14,2.0
1758079462.30321,1758079462.31709,0.0,0.0,0.0,-11.91752,37.12767,-2.6929,9.36,-0.61,0.34,2.0
1758079462.31823,1758079462.32709,0.0,0.0,0.0,-10.54242,33.17426,-2.57831,9.05,-0.42,0.53,2.0
1758079462.33433,1758079462.33709,0.0,0.0,0.0,-9.85487,29.73651,-2.11994,9.05,-0.42,0.53,2.0
1758079462.33522,1758079462.34709,0.0,0.0,0.0,-9.28192,25.61122,-1.3751,8.71,-0.35,0.58,2.0
1758079462.35023,1758079462.35709,0.0,0.0,0.0,-8.70896,21.02755,-0.51566,8.71,-0.35,0.58,2.0
1758079462.35122,1758079462.36709,0.0,0.0,0.0,-8.65166,18.10547,0.0573,8.71,-0.32,0.64,2.0
1758079462.36635,1758079462.37709,0.0,0.0,0.0,-8.99544,14.83961,0.85944,8.71,-0.32,0.64,2.0
1758079462.3822,1758079462.38709,0.0,0.0,0.0,-9.28192,12.2613,1.3751,8.82,-0.23,0.73,2.0
1758079462.38358,1758079462.39709,0.0,0.0,0.0,-10.37054,10.08406,1.43239,9.27,-0.23,0.68,2.0
1758079462.3983,1758079462.40709,0.0,0.0,0.0,-11.34457,9.5684,1.14592,9.27,-0.09,0.68,2.0
1758079462.41428,1758079462.41709,0.0,0.0,0.0,-12.49048,8.70896,0.22918,9.56,0.07,0.54,2.0
1758079462.41547,1758079462.42709,0.0,0.0,0.0,-13.46451,6.99009,-0.51566,9.56,0.07,0.54,2.0
1758079462.4303,1758079462.43709,0.0,0.0,0.0,-14.9542,4.98473,-2.11994,9.52,0.23,0.44,2.0
1758079462.43125,1758079462.44709,0.0,0.0,0.0,-15.58445,4.64096,-3.32316,9.52,0.23,0.44,2.0
1758079462.44625,1758079462.45709,0.0,0.0,0.0,-15.69904,4.98473,-4.23989,9.63,0.29,0.25,2.0
1758079462.46208,1758079462.46709,0.0,0.0,0.0,-15.87093,7.50575,-5.15662,9.63,0.29,0.25,2.0
1758079462.46401,1758079462.47709,0.0,0.0,0.0,-15.24068,14.32395,-6.53172,9.78,0.22,0.15,2.0
1758079462.47902,1758079462.48709,0.0,0.0,0.0,-14.43854,18.62113,-7.67763,9.72,0.07,0.17,2.0
1758079462.48024,1758079462.49709,0.0,0.0,0.0,-13.5218,23.20479,-8.76626,9.72,0.07,0.17,2.0
1758079462.4963,1758079462.50709,0.0,0.0,0.0,-12.14671,27.33009,-10.08406,9.62,-0.06,0.16,2.0
1758079462.51219,1758079462.51709,0.0,0.0,0.0,-9.74028,29.56462,-11.80293,9.62,-0.06,0.16,2.0
1758079462.51324,1758079462.52709,0.0,0.0,0.0,-8.36518,27.96034,-13.17803,9.28,-0.21,0.04,2.0
1758079462.52805,1758079462.53709,0.0,0.0,0.0,-6.70361,24.92367,-14.03747,9.28,-0.21,0.04,2.0
1758079462.54486,1758079462.54709,0.0,0.0,0.0,-4.35448,19.70975,-14.61043,9.13,-0.41,0.03,2.0
1758079462.54603,1758079462.55709,0.0,0.0,0.0,-2.29183,15.41257,-14.03747,9.28,-0.73,-0.1,2.0
1758079462.56136,1758079462.56709,0.0,0.0,0.0,0.0,11.17268,-12.49048,9.28,-0.73,-0.1,2.0
1758079462.56223,1758079462.57709,0.0,0.0,0.0,2.6929,5.95876,-10.25595,9.36,-1.16,-0.01,2.0
1758079462.57702,1758079462.58709,0.0,0.0,0.0,7.33386,-1.43239,-5.90147,9.36,-1.16,-0.01,2.0
1758079462.59413,1758079462.59709,0.0,0.0,0.0,10.48513,-6.99009,-2.57831,9.46,-1.47,0.12,2.0
1758079462.59503,1758079462.60709,0.0,0.0,0.0,13.46451,-12.89155,0.34377,9.46,-1.47,0.12,2.0
1758079462.61029,1758079462.61709,0.0,0.0,0.0,15.98552,-19.48057,2.92208,9.44,-1.43,0.03,2.0
1758079462.61122,1758079462.62709,0.0,0.0,0.0,19.25138,-33.23156,6.35983,9.23,-1.04,-0.09,2.0
1758079462.62635,1758079462.63709,0.0,0.0,0.0,20.51189,-40.10705,6.70361,9.23,-1.04,-0.09,2.0
1758079462.64226,1758079462.64709,0.0,0.0,0.0,20.97026,-40.68,6.70361,10.08,-0.44,-0.34,2.0
1758079462.6436,1758079462.65709,0.0,0.0,0.0,21.6578,-35.75257,7.16197,10.08,-0.44,-0.34,2.0
1758079462.65803,1758079462.66709,0.0,0.0,0.0,20.85567,-26.18417,5.32851,11.12,-0.05,-0.07,2.0
1758079462.67432,1758079462.67709,0.0,0.0,0.0,19.19409,-19.70975,3.55234,11.12,-0.05,-0.07,2.0
1758079462.67553,1758079462.68709,0.0,0.0,0.0,16.67307,-13.5218,1.3751,10.85,0.2,0.45,2.0
1758079462.69032,1758079462.69709,0.0,0.0,0.0,14.03747,-9.39651,-0.45837,10.85,0.2,0.45,2.0
1758079462.69128,1758079462.70709,0.0,0.0,0.0,9.68299,-9.33921,-2.29183,10.5,0.41,0.5,2.0
1758079462.70634,1758079462.71709,0.0,0.0,0.0,6.99009,-12.43318,-2.57831,10.08,0.62,0.42,2.0
1758079462.72201,1758079462.72709,0.0,0.0,0.0,4.46907,-30.93972,-0.80214,10.08,0.62,0.42,2.0
1758079462.72406,1758079462.73709,0.0,0.0,0.0,0.85944,-52.71212,6.18794,8.95,0.86,0.72,2.0
1758079462.73902,1758079462.74709,0.0,0.0,0.0,0.17189,-66.17663,14.9542,8.95,0.86,0.72,2.0
1758079462.74024,1758079462.75709,0.0,0.0,0.0,-0.51566,-62.68159,22.40265,12.31,0.53,1.27,2.0
1758079462.75612,1758079462.76709,0.0,0.0,0.0,-1.08862,-57.52497,27.96034,12.31,0.53,1.27,2.0
1758079462.77206,1758079462.77709,0.0,0.0,0.0,-3.38045,-47.32632,27.96034,14.23,0.51,1.89,2.0
1758079462.77325,1758079462.78709,0.0,0.0,0.0,-5.21392,-42.57077,23.49127,13.24,0.71,3.23,2.0
1758079462.78834,1758079462.79709,0.0,0.0,0.0,-6.13065,-40.04975,17.99088,13.24,0.71,3.23,2.0
1758079462.80441,1758079462.80709,0.0,0.0,0.0,-5.50039,-35.75257,13.06344,10.79,0.52,2.55,2.0
1758079462.80528,1758079462.81709,0.0,0.0,0.0,-1.08862,-26.01229,5.78687,10.79,0.52,2.55,2.0
1758079462.82033,1758079462.82709,0.0,0.0,0.0,3.83882,-20.79837,2.11994,9.52,0.32,2.61,2.0
1758079462.82153,1758079462.83709,0.0,0.0,0.0,9.74028,-15.69904,-0.17189,9.52,0.32,2.61,2.0
1758079462.83639,1758079462.84709,0.0,0.0,0.0,15.69904,-9.4538,-2.00535,9.48,0.25,2.41,2.0
1758079462.85233,1758079462.85709,0.0,0.0,0.0,23.26209,-0.40107,-2.00535,10.57,0.3,1.21,2.0
1758079462.85326,1758079462.86709,0.0,0.0,0.0,27.38738,11.63104,-0.57296,10.57,0.3,1.21,2.0
1758079462.86834,1758079462.87709,0.0,0.0,0.0,30.48136,25.15285,1.43239,12.0,0.3,0.48,2.0
1758079462.88436,1758079462.88709,0.0,0.0,0.0,32.48671,36.7266,3.89611,12.0,0.3,0.48,2.0
1758079462.88528,1758079462.89709,0.0,0.0,0.0,32.37212,49.96192,5.78687,11.41,0.4,0.38,2.0
1758079462.90035,1758079462.90709,0.0,0.0,0.0,30.65324,55.06125,5.27121,11.41,0.4,0.38,2.0
1758079462.90126,1758079462.91709,0.0,0.0,0.0,28.41871,56.26446,4.23989,10.16,0.81,0.45,2.0
1758079462.9164,1758079462.92709,0.0,0.0,0.0,24.00693,55.00395,1.03132,10.16,0.81,0.45,2.0
1758079462.93329,1758079462.93709,0.0,0.0,0.0,21.02755,53.62885,-1.20321,9.38,1.41,0.41,2.0
1758079462.93427,1758079462.94709,0.0,0.0,0.0,17.58981,52.13916,-4.52637,9.38,1.98,0.76,2.0
1758079462.94937,1758079462.95709,0.0,0.0,0.0,14.09476,49.67545,-7.39116,9.38,1.98,0.76,2.0
1758079462.95028,1758079462.96709,0.0,0.0,0.0,9.28192,42.85724,-9.91217,9.08,2.29,0.85,2.0
1758079462.96621,1758079462.97709,0.0,0.0,0.0,6.41713,38.1017,-10.8862,9.08,2.29,0.85,2.0
1758079462.98239,1758079462.98709,0.0,0.0,0.0,3.55234,33.00237,-10.8289,8.96,2.15,0.87,2.0
1758079462.98407,1758079462.99709,0.0,0.0,0.0,0.68755,28.01764,-10.71431,8.96,2.15,0.87,2.0
1758079462.99908,1758079463.00709,0.0,0.0,0.0,-3.49504,22.28806,-10.25595,9.0,1.65,0.6,2.0
1758079463.00071,1758079463.01709,0.0,0.0,0.0,-5.95876,19.07949,-9.68299,9.08,1.1,0.71,2.0
1758079463.01641,1758079463.02709,0.0,0.0,0.0,-8.30789,16.04282,-9.22462,9.08,1.1,0.71,2.0
1758079463.03235,1758079463.03709,0.0,0.0,0.0,-10.02676,13.80828,-8.47978,9.07,0.75,0.83,2.0
1758079463.0333,1758079463.04709,0.0,0.0,0.0,-11.97482,11.22997,-7.62034,9.07,0.75,0.83,2.0
1758079463.04805,1758079463.05709,0.0,0.0,0.0,-12.60507,9.5684,-7.04738,9.16,0.69,1.0,2.0
1758079463.0643,1758079463.06709,0.0,0.0,0.0,-12.83425,7.10468,-6.58902,9.16,0.69,1.0,2.0
1758079463.06529,1758079463.07709,0.0,0.0,0.0,-12.49048,3.38045,-6.07335,9.08,0.77,0.88,2.0
1758079463.08009,1758079463.08709,0.0,0.0,0.0,-11.28727,-1.14592,-4.92744,9.11,0.78,0.64,2.0
1758079463.0813,1758079463.09709,0.0,0.0,0.0,-10.19865,-1.60428,-4.35448,9.11,0.78,0.64,2.0
1758079463.09649,1758079463.10709,0.0,0.0,0.0,-9.05273,-0.85944,-3.89611,9.4,0.7,0.53,2.0
1758079463.11215,1758079463.11709,0.0,0.0,0.0,-7.50575,0.45837,-3.09397,9.4,0.7,0.53,2.0
1758079463.11341,1758079463.12709,0.0,0.0,0.0,-5.55769,3.26586,-2.29183,9.57,0.63,0.73,2.0
1758079463.12814,1758079463.13709,0.0,0.0,0.0,-4.69825,5.15662,-1.66158,9.57,0.63,0.73,2.0
1758079463.1444,1758079463.14709,0.0,0.0,0.0,-4.1253,5.90147,-1.14592,9.7,0.63,0.78,2.0
1758079463.14529,1758079463.15709,0.0,0.0,0.0,-4.29718,7.44845,-0.68755,9.7,0.63,0.78,2.0
1758079463.16014,1758079463.16709,0.0,0.0,0.0,-4.69825,8.136,-0.45837,9.69,0.68,0.63,2.0
1758079463.16133,1758079463.17709,0.0,0.0,0.0,-5.4431,7.62034,-0.22918,9.51,0.78,0.51,2.0
1758079463.17617,1758079463.18709,0.0,0.0,0.0,-6.47442,7.04738,-0.0573,9.51,0.78,0.51,2.0
1758079463.19228,1758079463.19709,0.0,0.0,0.0,-7.96411,4.23989,0.45837,9.38,0.96,0.46,2.0
1758079463.19412,1758079463.20709,0.0,0.0,0.0,-9.22462,2.06265,1.03132,9.38,0.96,0.46,2.0
1758079463.20944,1758079463.21709,0.0,0.0,0.0,-10.48513,0.0,1.83346,9.34,1.17,0.46,2.0
1758079463.21034,1758079463.22709,0.0,0.0,0.0,-12.08941,-2.29183,2.34913,9.34,1.17,0.46,2.0
1758079463.22643,1758079463.23709,0.0,0.0,0.0,-15.06879,-7.67763,2.7502,9.34,1.34,0.53,2.0
1758079463.24314,1758079463.24709,0.0,0.0,0.0,-17.36062,-10.8289,2.57831,9.21,1.44,0.39,2.0
1758079463.24434,1758079463.25709,0.0,0.0,0.0,-19.82434,-13.12073,2.06265,9.21,1.44,0.39,2.0
1758079463.25917,1758079463.26709,0.0,0.0,0.0,-21.88699,-16.61578,1.20321,9.35,1.49,0.17,2.0
1758079463.26036,1758079463.27709,0.0,0.0,0.0,-24.35071,-26.64254,0.22918,9.35,1.49,0.17,2.0
1758079463.27892,1758079463.28709,0.0,0.0,0.0,-25.72581,-33.40344,0.34377,9.04,1.42,-0.27,2.0
1758079463.28052,1758079463.29709,0.0,0.0,0.0,-26.98631,-38.21629,0.51566,9.04,1.42,-0.27,2.0
1758079463.29885,1758079463.30709,0.0,0.0,0.0,-28.07493,-40.68,0.85944,9.4,1.24,-0.56,2.0
1758079463.31439,1758079463.31709,0.0,0.0,0.0,-29.33544,-43.14373,1.83346,9.78,1.2,-0.54,2.0
1758079463.31579,1758079463.32709,0.0,0.0,0.0,-30.36677,-42.97184,2.86479,9.78,1.2,-0.54,2.0
1758079463.3304,1758079463.33709,0.0,0.0,0.0,-30.82513,-39.3622,3.89611,10.47,1.19,-0.09,2.0
1758079463.33175,1758079463.34709,0.0,0.0,0.0,-30.13758,-27.04361,4.23989,10.47,1.19,-0.09,2.0
1758079463.3464,1758079463.35709,0.0,0.0,0.0,-29.27814,-6.99009,3.83882,12.56,1.18,0.73,2.0
1758079463.36483,1758079463.36709,0.0,0.0,0.0,-26.98631,-13.46451,2.6929,12.56,1.18,0.73,2.0
1758079463.36626,1758079463.37709,0.0,0.0,0.0,-24.63719,-27.10091,0.11459,11.55,0.82,1.8,2.0
1758079463.38225,1758079463.38709,0.0,0.0,0.0,-20.11082,-43.60209,-5.90147,11.55,0.82,1.8,2.0
1758079463.38555,1758079463.39709,0.0,0.0,0.0,-16.95955,-41.94051,-9.4538,12.2,0.46,1.73,2.0
1758079463.40141,1758079463.40709,0.0,0.0,0.0,-13.00614,-30.88243,-10.94349,14.16,-0.31,0.5,2.0
1758079463.40237,1758079463.41709,0.0,0.0,0.0,-8.99544,-20.62648,-9.05273,14.16,-0.31,0.5,2.0
1758079463.41918,1758079463.42709,0.0,0.0,0.0,-3.55234,-15.06879,-1.3751,12.74,-0.81,1.09,2.0
1758079463.42038,1758079463.43709,0.0,0.0,0.0,-0.97403,-14.72501,3.89611,12.74,-0.81,1.09,2.0
1758079463.43612,1758079463.44709,0.0,0.0,0.0,0.74485,-15.12609,8.25059,11.09,-0.52,1.44,2.0
1758079463.45236,1758079463.45709,0.0,0.0,0.0,1.71887,-15.29797,10.54242,11.09,-0.52,1.44,2.0
1758079463.45414,1758079463.46709,0.0,0.0,0.0,1.20321,-16.67307,11.00079,10.46,0.06,1.27,2.0
1758079463.46947,1758079463.47709,0.0,0.0,0.0,-0.74485,-19.48057,9.5684,9.52,0.66,1.79,2.0
1758079463.47038,1758079463.48709,0.0,0.0,0.0,-4.46907,-23.37668,6.53172,9.52,0.66,1.79,2.0
1758079463.48653,1758079463.49709,0.0,0.0,0.0,-9.74028,-26.75713,2.63561,8.29,1.17,2.36,2.0
1758079463.50255,1758079463.50709,0.0,0.0,0.0,-19.99623,-30.30947,-3.32316,8.29,1.17,2.36,2.0
1758079463.5034,1758079463.51709,0.0,0.0,0.0,-27.38738,-30.88243,-6.58902,7.76,1.44,2.63,2.0
1758079463.51814,1758079463.52709,0.0,0.0,0.0,-34.77854,-30.65324,-8.99544,7.76,1.44,2.63,2.0
1758079463.53454,1758079463.53709,0.0,0.0,0.0,-43.83128,-28.64789,-9.68299,8.37,1.4,2.4,2.0
1758079463.53539,1758079463.54709,0.0,0.0,0.0,-47.61279,-22.11617,-8.42248,9.92,0.92,1.87,2.0
1758079463.55044,1758079463.55709,0.0,0.0,0.0,-49.15978,-16.55848,-6.24524,9.92,0.92,1.87,2.0
1758079463.55142,1758079463.56709,0.0,0.0,0.0,-48.41494,-9.22462,-3.38045,11.33,-0.05,1.15,2.0
1758079463.56621,1758079463.57709,0.0,0.0,0.0,-43.77398,3.95341,0.74485,11.33,-0.05,1.15,2.0
1758079463.5822,1758079463.58709,0.0,0.0,0.0,-38.73195,12.71966,3.09397,12.05,-1.24,0.49,2.0
1758079463.58339,1758079463.59709,0.0,0.0,0.0,-32.42941,21.48592,4.98473,12.05,-1.24,0.49,2.0
1758079463.59853,1758079463.60709,0.0,0.0,0.0,-25.38203,28.99167,6.35983,11.6,-2.09,0.02,2.0
1758079463.61447,1758079463.61709,0.0,0.0,0.0,-14.9542,37.24226,7.33386,10.48,-2.09,0.02,2.0
1758079463.61543,1758079463.62709,0.0,0.0,0.0,-8.76626,41.94051,7.50575,10.48,-2.16,0.02,2.0
1758079463.63065,1758079463.63709,0.0,0.0,0.0,-3.89611,44.11775,7.44845,9.75,-1.64,0.17,2.0
1758079463.63137,1758079463.64709,0.0,0.0,0.0,-0.0573,43.83128,6.53172,9.75,-1.64,0.17,2.0
1758079463.6464,1758079463.65709,0.0,0.0,0.0,3.20856,41.99781,4.35448,9.51,-0.96,0.28,2.0
1758079463.66219,1758079463.66709,0.0,0.0,0.0,3.95341,39.24761,3.09397,9.51,-0.96,0.28,2.0
1758079463.66339,1758079463.67709,0.0,0.0,0.0,4.1253,36.55471,2.11994,9.41,-0.44,0.28,2.0
1758079463.67821,1758079463.68709,0.0,0.0,0.0,3.38045,33.86181,1.71887,9.41,-0.44,0.28,2.0
1758079463.69446,1758079463.69709,0.0,0.0,0.0,1.83346,28.76248,2.06265,9.16,-0.13,0.27,2.0
1758079463.6954,1758079463.70709,0.0,0.0,0.0,0.74485,24.57989,2.63561,8.65,-0.04,0.32,2.0
1758079463.71054,1758079463.71709,0.0,0.0,0.0,-0.17189,21.60051,3.03668,8.65,-0.04,0.32,2.0
1758079463.71142,1758079463.72709,0.0,0.0,0.0,-1.03132,19.53786,3.38045,8.6,-0.08,0.37,2.0
1758079463.72647,1758079463.73709,0.0,0.0,0.0,-1.83346,17.18874,3.38045,8.6,-0.08,0.37,2.0
1758079463.74437,1758079463.74709,0.0,0.0,0.0,-2.11994,15.41257,3.55234,8.79,-0.1,0.5,2.0
1758079463.74523,1758079463.75709,0.0,0.0,0.0,-2.7502,14.15206,2.97938,8.79,-0.1,0.5,2.0
1758079463.76051,1758079463.76709,0.0,0.0,0.0,-3.60963,12.60507,2.57831,9.18,-0.03,0.63,2.0
1758079463.76143,1758079463.77709,0.0,0.0,0.0,-4.18259,12.89155,1.94806,9.63,0.02,0.56,2.0
1758079463.77652,1758079463.78709,0.0,0.0,0.0,-4.92744,13.40721,1.20321,9.63,0.02,0.56,2.0
1758079463.79354,1758079463.79709,0.0,0.0,0.0,-5.95876,12.89155,0.34377,9.73,0.13,0.4,2.0
1758079463.79442,1758079463.80709,0.0,0.0,0.0,-8.0787,11.45916,-1.20321,9.73,0.13,0.4,2.0
1758079463.80952,1758079463.81709,0.0,0.0,0.0,-9.96947,13.17803,-2.6929,9.78,0.28,0.39,2.0
1758079463.81042,1758079463.82709,0.0,0.0,0.0,-11.80293,16.84496,-4.18259,9.78,0.28,0.39,2.0
1758079463.82628,1758079463.83709,0.0,0.0,0.0,-13.5791,20.22541,-5.50039,10.1,0.44,0.36,2.0
1758079463.84254,1758079463.84709,0.0,0.0,0.0,-16.38659,24.86637,-7.79223,9.9,0.5,0.44,2.0
1758079463.84375,1758079463.85709,0.0,0.0,0.0,-17.99088,28.13223,-9.5684,9.9,0.5,0.44,2.0
1758079463.85824,1758079463.86709,0.0,0.0,0.0,-19.13679,30.82513,-11.00079,9.78,0.43,0.36,2.0
1758079463.87447,1758079463.87709,0.0,0.0,0.0,-19.99623,31.39809,-12.49048,9.78,0.43,0.36,2.0
1758079463.87537,1758079463.88709,0.0,0.0,0.0,-20.74107,29.10626,-14.66772,9.41,0.25,0.2,2.0
1758079463.89064,1758079463.89709,0.0,0.0,0.0,-20.85567,26.24147,-15.75634,9.41,0.25,0.2,2.0
1758079463.89227,1758079463.90709,0.0,0.0,0.0,-20.79837,22.40265,-16.10011,9.4,-0.01,0.29,2.0
1758079463.90724,1758079463.91709,0.0,0.0,0.0,-20.22541,17.76169,-15.75634,9.4,-0.01,0.29,2.0
1758079463.92325,1758079463.92709,0.0,0.0,0.0,-18.90761,9.22462,-13.5218,9.6,-0.4,0.42,2.0
1758079463.92476,1758079463.93709,0.0,0.0,0.0,-17.36062,2.97938,-11.17268,9.71,-0.82,0.62,2.0
1758079463.93923,1758079463.94709,0.0,0.0,0.0,-15.46986,-3.72423,-8.36518,9.71,-0.82,0.62,2.0
1758079463.94042,1758079463.95709,0.0,0.0,0.0,-12.77696,-13.06344,-4.0107,9.58,-1.05,0.48,2.0
1758079463.95733,1758079463.96709,0.0,0.0,0.0,-10.8289,-18.27736,-1.83346,9.58,-1.05,0.48,2.0
1758079463.97348,1758079463.97709,0.0,0.0,0.0,-8.59437,-23.60586,0.34377,9.55,-0.96,0.36,2.0
1758079463.97441,1758079463.98709,0.0,0.0,0.0,-7.10468,-29.9084,1.83346,9.55,-0.96,0.36,2.0
1758079463.98949,1758079463.99709,0.0,0.0,0.0,-4.87014,-33.40344,2.00535,9.59,-0.66,0.01,2.0
1758079463.99205,1758079464.00709,0.0,0.0,0.0,-3.49504,-27.73116,1.83346,10.56,-0.4,-0.16,2.0
1758079464.00849,1758079464.01709,0.0,0.0,0.0,-2.23454,-20.85567,0.97403,10.56,-0.4,-0.16,2.0
1758079464.02469,1758079464.02709,0.0,0.0,0.0,-0.97403,-14.49583,-0.57296,10.69,-0.34,-0.08,2.0
1758079464.02547,1758079464.03709,0.0,0.0,0.0,0.57296,-4.46907,-4.18259,10.69,-0.34,-0.08,2.0
1758079464.04048,1758079464.04709,0.0,0.0,0.0,1.43239,1.48969,-6.35983,10.31,-0.38,0.24,2.0
1758079464.04311,1758079464.05709,0.0,0.0,0.0,2.40642,4.98473,-8.36518,10.31,-0.38,0.24,2.0
1758079464.05845,1758079464.06709,0.0,0.0,0.0,3.49504,3.60963,-9.91217,10.21,-0.33,0.52,2.0
1758079464.07459,1758079464.07709,0.0,0.0,0.0,4.29718,-5.15662,-11.45916,10.11,-0.19,0.82,2.0
1758079464.07548,1758079464.08709,0.0,0.0,0.0,4.58366,-30.59595,-8.59437,10.11,-0.19,0.82,2.0
1758079464.09027,1758079464.09709,0.0,0.0,0.0,4.23989,-53.68615,-3.55234,9.67,-0.22,1.26,2.0
1758079464.09179,1758079464.10709,0.0,0.0,0.0,3.72423,-65.37449,5.15662,9.67,-0.22,1.26,2.0
1758079464.10964,1758079464.11709,0.0,0.0,0.0,1.60428,-54.3737,13.5218,13.4,-0.31,1.13,2.0
1758079464.11117,1758079464.12709,0.0,0.0,0.0,-0.22918,-46.1804,16.04282,13.4,-0.31,1.13,2.0
1758079464.1272,1758079464.13709,0.0,0.0,0.0,-2.34913,-42.1124,14.49583,13.05,0.1,1.47,2.0
1758079464.14354,1758079464.14709,0.0,0.0,0.0,-5.61499,-39.53409,7.62034,13.05,0.1,1.47,2.0
1758079464.14444,1758079464.15709,0.0,0.0,0.0,-7.44845,-35.98175,2.00535,10.81,0.51,2.19,2.0
1758079464.15956,1758079464.16709,0.0,0.0,0.0,-8.136,-32.71589,-3.09397,9.62,0.67,1.0,2.0
1758079464.16124,1758079464.17709,0.0,0.0,0.0,-7.96411,-29.62192,-7.33386,9.62,0.67,1.0,2.0
1758079464.18057,1758079464.18709,0.0,0.0,0.0,-4.0107,-27.10091,-10.48513,8.77,0.4,1.21,2.0
1758079464.18228,1758079464.19709,0.0,0.0,0.0,0.0573,-25.26744,-10.19865,8.77,0.4,1.21,2.0
1758079464.19756,1758079464.20709,0.0,0.0,0.0,5.32851,-24.57989,-8.47978,8.4,-0.13,2.16,2.0
1758079464.2146,1758079464.21709,0.0,0.0,0.0,10.94349,-23.66316,-5.27121,8.4,-0.13,2.16,2.0
1758079464.21714,1758079464.22709,0.0,0.0,0.0,19.07949,-19.59516,0.0573,8.81,-0.63,2.79,2.0
1758079464.23391,1758079464.23709,0.0,0.0,0.0,23.72045,-15.35527,4.1253,10.14,-0.73,2.35,2.0
1758079464.23623,1758079464.24709,0.0,0.0,0.0,27.61657,-10.31324,7.84952,10.14,-0.73,2.35,2.0
1758079464.25132,1758079464.25709,0.0,0.0,0.0,30.53865,-4.92744,10.31324,11.29,-0.27,1.77,2.0
1758079464.25411,1758079464.26709,0.0,0.0,0.0,31.85646,6.58902,11.28727,11.29,-0.27,1.77,2.0
1758079464.26964,1758079464.27709,0.0,0.0,0.0,30.93972,16.38659,9.5684,12.07,0.52,0.83,2.0
1758079464.28826,1758079464.28709,0.0,0.0,0.0,29.04896,27.10091,6.99009,12.07,0.52,0.83,2.0
1758079464.28848,1758079464.29709,0.0,0.0,0.0,26.18417,36.38282,3.09397,12.02,1.25,0.44,2.0
1758079464.30432,1758079464.30709,0.0,0.0,0.0,21.25674,42.51347,-3.03668,10.73,1.78,0.64,2.0
1758079464.30589,1758079464.31709,0.0,0.0,0.0,17.93358,43.02913,-6.41713,10.73,1.78,0.64,2.0
1758079464.32044,1758079464.32709,0.0,0.0,0.0,14.61043,43.77398,-9.05273,10.12,2.04,0.59,2.0
1758079464.3219,1758079464.33709,0.0,0.0,0.0,11.28727,43.54479,-11.63104,10.12,2.04,0.59,2.0
1758079464.33666,1758079464.34709,0.0,0.0,0.0,6.58902,43.20102,-12.08941,9.95,1.95,0.55,2.0
1758079464.35235,1758079464.35709,0.0,0.0,0.0,3.66693,42.22699,-12.204,9.95,1.95,0.55,2.0
1758079464.3551,1758079464.36709,0.0,0.0,0.0,0.85944,39.70598,-11.80293,9.5,1.52,0.57,2.0
1758079464.3706,1758079464.37709,0.0,0.0,0.0,-3.20856,35.2369,-10.71431,9.5,1.52,0.57,2.0
1758079464.3726,1758079464.38709,0.0,0.0,0.0,-5.90147,32.77319,-10.19865,9.07,1.11,0.48,2.0
1758079464.38729,1758079464.39709,0.0,0.0,0.0,-8.65166,30.88243,-9.62569,9.09,0.91,0.44,2.0
1758079464.40361,1758079464.40709,0.0,0.0,0.0,-11.34457,28.07493,-9.39651,9.09,0.91,0.44,2.0
1758079464.4048,1758079464.41709,0.0,0.0,0.0,-15.58445,23.66316,-9.39651,8.91,0.98,0.68,2.0
1758079464.41959,1758079464.42709,0.0,0.0,0.0,-18.27736,21.37133,-9.91217,8.91,0.98,0.68,2.0
1758079464.42155,1758079464.43709,0.0,0.0,0.0,-20.97026,19.25138,-10.08406,8.99,1.2,1.02,2.0
1758079464.43733,1758079464.44709,0.0,0.0,0.0,-23.54857,17.87628,-10.54242,8.99,1.2,1.02,2.0
1758079464.45362,1758079464.45709,0.0,0.0,0.0,-26.75713,14.66772,-11.11538,9.08,1.38,1.11,2.0
1758079464.45455,1758079464.46709,0.0,0.0,0.0,-28.41871,12.204,-11.17268,9.12,1.42,1.03,2.0
1758079464.4696,1758079464.47709,0.0,0.0,0.0,-29.9084,9.39651,-10.8862,9.12,1.42,1.03,2.0
1758079464.47131,1758079464.48709,0.0,0.0,0.0,-30.88243,6.99009,-10.65701,9.35,1.31,0.82,2.0
1758079464.48731,1758079464.49709,0.0,0.0,0.0,-31.56997,4.35448,-9.68299,9.35,1.31,0.82,2.0
1758079464.50332,1758079464.50709,0.0,0.0,0.0,-31.16891,3.26586,-8.99544,9.67,0.96,0.66,2.0
1758079464.5045,1758079464.51709,0.0,0.0,0.0,-30.48136,3.60963,-8.47978,9.67,0.96,0.66,2.0
1758079464.51931,1758079464.52709,0.0,0.0,0.0,-29.22085,5.27121,-7.84952,9.95,0.48,0.84,2.0
1758079464.52086,1758079464.53709,0.0,0.0,0.0,-26.75713,9.62569,-7.04738,10.1,0.11,0.89,2.0
1758079464.53659,1758079464.54709,0.0,0.0,0.0,-24.86637,12.14671,-6.41713,10.1,0.11,0.89,2.0
1758079464.55247,1758079464.55709,0.0,0.0,0.0,-22.97561,14.43854,-5.72958,9.89,0.0,0.96,2.0
1758079464.55435,1758079464.56709,0.0,0.0,0.0,-20.51189,16.90226,-4.46907,9.89,0.0,0.96,2.0
1758079464.56961,1758079464.57709,0.0,0.0,0.0,-19.19409,17.24603,-3.66693,9.71,0.13,0.87,2.0
1758079464.57054,1758079464.58709,0.0,0.0,0.0,-18.62113,17.24603,-3.32316,9.71,0.13,0.87,2.0
1758079464.58635,1758079464.59709,0.0,0.0,0.0,-17.99088,16.55848,-2.86479,9.53,0.41,0.74,2.0
1758079464.60232,1758079464.60709,0.0,0.0,0.0,-17.47521,14.61043,-2.23454,9.53,0.41,0.74,2.0
1758079464.60352,1758079464.61709,0.0,0.0,0.0,-17.47521,12.49048,-2.00535,9.35,0.67,0.56,2.0
1758079464.61864,1758079464.62709,0.0,0.0,0.0,-17.87628,10.54242,-1.43239,9.24,0.9,0.61,2.0
1758079464.63465,1758079464.63709,0.0,0.0,0.0,-18.33465,7.79223,-1.03132,9.24,0.9,0.61,2.0
1758079464.63554,1758079464.64709,0.0,0.0,0.0,-19.88164,2.29183,-0.45837,9.15,1.11,0.51,2.0
1758079464.65042,1758079464.65709,0.0,0.0,0.0,-21.37133,-1.20321,-0.17189,9.15,1.11,0.51,2.0
1758079464.65159,1758079464.66709,0.0,0.0,0.0,-23.0902,-4.81285,0.0,9.14,1.32,0.43,2.0
1758079464.66714,1758079464.67709,0.0,0.0,0.0,-25.26744,-7.84952,-0.22918,9.14,1.32,0.43,2.0
1758079464.68362,1758079464.68709,0.0,0.0,0.0,-28.07493,-14.03747,-0.85944,9.27,1.43,0.27,2.0
1758079464.68457,1758079464.69709,0.0,0.0,0.0,-29.73651,-20.22541,-1.3178,9.19,1.46,-0.01,2.0
1758079464.69936,1758079464.70709,0.0,0.0,0.0,-31.39809,-26.35606,-1.3178,9.19,1.46,-0.01,2.0
1758079464.70083,1758079464.71709,0.0,0.0,0.0,-32.77319,-31.62727,-1.3751,9.27,1.27,-0.3,2.0
1758079464.71672,1758079464.72709,0.0,0.0,0.0,-34.14828,-37.18496,-1.3178,9.27,1.27,-0.3,2.0
1758079464.73265,1758079464.73709,0.0,0.0,0.0,-35.40879,-39.64868,-0.85944,9.55,0.92,-0.51,2.0
1758079464.73438,1758079464.74709,0.0,0.0,0.0,-36.15364,-40.39353,0.0,9.55,0.92,-0.51,2.0
1758079464.74974,1758079464.75709,0.0,0.0,0.0,-37.35685,-39.4768,0.74485,9.9,0.84,-0.44,2.0
1758079464.75059,1758079464.76709,0.0,0.0,0.0,-37.98711,-26.06958,1.14592,10.71,0.83,-0.05,2.0
1758079464.76721,1758079464.77709,0.0,0.0,0.0,-39.4195,-14.83961,0.45837,10.71,0.83,-0.05,2.0
1758079464.7834,1758079464.78709,0.0,0.0,0.0,-39.82057,-12.49048,1.60428,10.36,0.82,0.04,2.0
1758079464.7849,1758079464.79709,0.0,0.0,0.0,-40.96649,-28.59059,0.57296,10.36,0.82,0.04,2.0
1758079464.79969,1758079464.80709,0.0,0.0,0.0,-40.85189,-39.76327,0.11459,9.25,1.0,0.56,2.0
1758079464.80059,1758079464.81709,0.0,0.0,0.0,-41.02378,-48.70141,-1.71887,9.25,1.0,0.56,2.0
1758079464.81668,1758079464.82709,0.0,0.0,0.0,-40.50812,-53.28508,-3.03668,10.63,0.91,0.29,2.0
1758079464.83268,1758079464.83709,0.0,0.0,0.0,-39.76327,-59.70221,-5.84417,11.69,0.91,0.56,2.0
1758079464.8344,1758079464.84709,0.0,0.0,0.0,-38.56006,-61.65026,-7.73493,11.69,0.72,0.56,2.0
1758079464.84966,1758079464.85709,0.0,0.0,0.0,-36.49741,-61.59297,-9.05273,12.51,0.57,1.48,2.0
1758079464.85062,1758079464.86709,0.0,0.0,0.0,-32.77319,-60.27517,-8.59437,12.51,0.57,1.48,2.0
1758079464.86646,1758079464.87709,0.0,0.0,0.0,-27.38738,-61.36378,-6.07335,11.68,0.13,1.73,2.0
1758079464.88237,1758079464.88709,0.0,0.0,0.0,-25.26744,-63.02536,-4.18259,11.68,0.13,1.73,2.0
1758079464.88358,1758079464.89709,0.0,0.0,0.0,-24.92367,-61.1346,-3.20856,9.54,-0.14,1.6,2.0
1758079464.89865,1758079464.90709,0.0,0.0,0.0,-26.87172,-57.86874,-3.09397,9.54,-0.14,1.6,2.0
1758079464.9146,1758079464.91709,0.0,0.0,0.0,-33.00237,-51.50891,-4.69825,8.92,0.0,2.14,2.0
1758079464.91559,1758079464.92709,0.0,0.0,0.0,-39.24761,-47.61279,-6.70361,9.23,0.49,3.2,2.0
1758079464.93053,1758079464.93709,0.0,0.0,0.0,-46.1231,-46.1804,-8.136,9.23,0.49,3.2,2.0
1758079464.93159,1758079464.94709,0.0,0.0,0.0,-53.28508,-44.00316,-9.28192,10.2,1.26,2.37,2.0
1758079464.9472,1758079464.95709,0.0,0.0,0.0,-62.91077,-33.51803,-9.11003,10.2,1.26,2.37,2.0
1758079464.96342,1758079464.96709,0.0,0.0,0.0,-67.60902,-22.05888,-8.25059,12.31,1.59,0.97,2.0
1758079464.96533,1758079464.97709,0.0,0.0,0.0,-70.53111,-8.59437,-6.8182,12.31,1.59,0.97,2.0
1758079464.98147,1758079464.98709,0.0,0.0,0.0,-71.79161,10.65701,-4.64096,13.34,1.11,-0.06,2.0
1758079464.98241,1758079464.99709,0.0,0.0,0.0,-70.47381,20.79837,-3.26586,12.52,0.19,-0.02,2.0
1758079464.99761,1758079465.00709,0.0,0.0,0.0,-67.55173,28.41871,-1.48969,12.52,0.19,-0.02,2.0
1758079465.01352,1758079465.01709,0.0,0.0,0.0,-63.42643,35.2369,0.0573,11.31,-0.67,-0.12,2.0
1758079465.01459,1758079465.02709,0.0,0.0,0.0,-56.37905,42.34158,2.06265,11.31,-0.67,-0.12,2.0
1758079465.02968,1758079465.03709,0.0,0.0,0.0,-51.6235,45.09178,2.40642,10.45,-1.29,-0.11,2.0
1758079465.03064,1758079465.04709,0.0,0.0,0.0,-47.26902,46.35228,2.29183,10.45,-1.29,-0.11,2.0
1758079465.04759,1758079465.05709,0.0,0.0,0.0,-43.02913,46.40959,2.06265,9.91,-1.33,0.02,2.0
1758079465.06369,1758079465.06709,0.0,0.0,0.0,-37.29956,42.51347,1.83346,9.25,-1.02,-0.04,2.0
1758079465.06501,1758079465.07709,0.0,0.0,0.0,-33.40344,38.38818,2.06265,9.25,-1.02,-0.04,2.0
1758079465.07945,1758079465.08709,0.0,0.0,0.0,-29.96569,34.49206,2.34913,8.78,-0.68,-0.11,2.0
1758079465.08301,1758079465.09709,0.0,0.0,0.0,-26.52795,31.51268,2.63561,8.78,-0.68,-0.11,2.0
1758079465.09938,1758079465.10709,0.0,0.0,0.0,-21.6578,28.59059,3.03668,8.62,-0.48,-0.05,2.0
1758079465.1009,1758079465.11709,0.0,0.0,0.0,-18.56383,26.75713,3.09397,8.62,-0.48,-0.05,2.0
1758079465.11641,1758079465.12709,0.0,0.0,0.0,-15.64175,24.63719,3.03668,8.36,-0.49,0.18,2.0
1758079465.13269,1758079465.13709,0.0,0.0,0.0,-13.06344,22.91831,3.03668,8.36,-0.49,0.18,2.0
1758079465.13388,1758079465.14709,0.0,0.0,0.0,-9.85487,20.11082,2.97938,8.43,-0.56,0.52,2.0
1758079465.14879,1758079465.15709,0.0,0.0,0.0,-8.30789,19.36597,2.6929,8.88,-0.45,0.57,2.0
1758079465.16443,1758079465.16709,0.0,0.0,0.0,-7.39116,18.27736,2.57831,8.88,-0.45,0.57,2.0
1758079465.16563,1758079465.17709,0.0,0.0,0.0,-6.8182,17.6471,2.34913,9.45,-0.15,0.58,2.0
1758079465.18244,1758079465.18709,0.0,0.0,0.0,-7.10468,17.36062,2.11994,9.45,-0.15,0.58,2.0
1758079465.18362,1758079465.19709,0.0,0.0,0.0,-8.0787,18.44924,2.00535,9.96,0.18,0.4,2.0
1758079465.19844,1758079465.20709,0.0,0.0,0.0,-9.62569,20.51189,1.43239,9.96,0.18,0.4,2.0
1758079465.21445,1758079465.21709,0.0,0.0,0.0,-12.37589,25.55392,-0.11459,10.41,0.48,0.21,2.0
1758079465.21721,1758079465.22709,0.0,0.0,0.0,-14.32395,29.04896,-1.20321,10.5,0.65,0.14,2.0
1758079465.2343,1758079465.23709,0.0,0.0,0.0,-16.21471,32.08564,-2.63561,10.5,0.65,0.14,2.0
1758079465.23524,1758079465.24709,0.0,0.0,0.0,-17.81899,33.11696,-3.95341,10.19,0.66,0.15,2.0
1758079465.2527,1758079465.25709,0.0,0.0,0.0,-19.70975,32.54401,-5.61499,10.19,0.66,0.15,2.0
1758079465.25466,1758079465.26709,0.0,0.0,0.0,-20.45459,30.82513,-6.70361,9.78,0.5,0.0,2.0
1758079465.26967,1758079465.27709,0.0,0.0,0.0,-20.3973,26.98631,-7.33386,9.78,0.5,0.0,2.0
1758079465.27176,1758079465.28709,0.0,0.0,0.0,-19.36597,22.34536,-7.33386,9.39,0.16,0.0,2.0
1758079465.28744,1758079465.29709,0.0,0.0,0.0,-16.21471,13.69369,-6.53172,9.24,-0.39,-0.1,2.0
1758079465.30344,1758079465.30709,0.0,0.0,0.0,-13.12073,8.59437,-4.98473,9.24,-0.39,-0.1,2.0
1758079465.30707,1758079465.31709,0.0,0.0,0.0,-9.4538,4.52637,-2.40642,9.46,-1.09,0.02,2.0
1758079465.32404,1758079465.32709,0.0,0.0,0.0,-5.50039,-0.80214,0.40107,9.46,-1.09,0.02,2.0
1758079465.32764,1758079465.33709,0.0,0.0,0.0,-0.0573,-11.00079,5.4431,9.12,-1.76,0.16,2.0
1758079465.34428,1758079465.34709,0.0,0.0,0.0,3.03668,-18.62113,8.59437,9.12,-1.76,0.16,2.0
1758079465.34522,1758079465.35709,0.0,0.0,0.0,6.47442,-27.78845,11.22997,8.91,-1.94,0.3,2.0
1758079465.36123,1758079465.36709,0.0,0.0,0.0,9.96947,-38.50277,13.23533,8.91,-1.94,0.3,2.0
1758079465.36243,1758079465.37709,0.0,0.0,0.0,12.77696,-43.25832,14.03747,8.83,-1.53,-0.15,2.0
1758079465.37771,1758079465.38709,0.0,0.0,0.0,15.06879,-38.90384,14.09476,10.23,-0.95,-0.1,2.0
1758079465.39359,1758079465.39709,0.0,0.0,0.0,17.36062,-32.77319,13.00614,10.23,-0.95,-0.1,2.0
1758079465.3946,1758079465.40709,0.0,0.0,0.0,19.53786,-20.74107,10.94349,10.73,-0.44,0.15,2.0
1758079465.40976,1758079465.41709,0.0,0.0,0.0,19.76705,-12.2613,9.74028,10.73,-0.44,0.15,2.0
1758079465.4106,1758079465.42709,0.0,0.0,0.0,18.56383,-6.41713,8.59437,11.43,0.0,1.21,2.0
1758079465.42728,1758079465.43709,0.0,0.0,0.0,16.272,-4.64096,7.67763,11.43,0.0,1.21,2.0
1758079465.44344,1758079465.44709,0.0,0.0,0.0,13.17803,-17.47521,7.04738,11.22,0.55,1.89,2.0
1758079465.44464,1758079465.45709,0.0,0.0,0.0,10.94349,-45.77933,8.99544,9.65,0.78,1.83,2.0
1758079465.45945,1758079465.46709,0.0,0.0,0.0,7.67763,-66.5204,10.94349,9.65,0.78,1.83,2.0
1758079465.46225,1758079465.47709,0.0,0.0,0.0,6.07335,-71.44785,17.13144,11.24,0.83,0.88,2.0
1758079465.47947,1758079465.48709,0.0,0.0,0.0,1.48969,-61.07731,20.74107,11.24,0.83,0.88,2.0
1758079465.48076,1758079465.49709,0.0,0.0,0.0,-0.97403,-56.89471,20.51189,12.3,0.97,0.36,2.0
1758079465.49678,1758079465.50709,0.0,0.0,0.0,-2.63561,-55.92068,18.22006,12.3,0.97,0.36,2.0
1758079465.51337,1758079465.51709,0.0,0.0,0.0,-3.32316,-54.02992,15.12609,10.41,0.66,1.79,2.0
1758079465.51452,1758079465.52709,0.0,0.0,0.0,-1.83346,-47.95657,9.5684,9.58,0.28,2.24,2.0
1758079465.52971,1758079465.53709,0.0,0.0,0.0,1.3751,-42.34158,6.41713,9.58,0.28,2.24,2.0
1758079465.53078,1758079465.54709,0.0,0.0,0.0,6.35983,-35.92446,3.83882,9.25,0.14,2.37,2.0
1758079465.54771,1758079465.55709,0.0,0.0,0.0,12.43318,-29.04896,1.94806,9.25,0.14,2.37,2.0
1758079465.56381,1758079465.56709,0.0,0.0,0.0,22.97561,-17.99088,1.43239,9.59,-0.11,2.21,2.0
1758079465.56504,1758079465.57709,0.0,0.0,0.0,29.96569,-11.34457,3.49504,9.59,-0.11,2.21,2.0
1758079465.5795,1758079465.58709,0.0,0.0,0.0,36.03905,-2.00535,5.61499,10.89,-0.36,1.46,2.0
1758079465.58101,1758079465.59709,0.0,0.0,0.0,43.31561,14.32395,8.30789,10.89,-0.36,1.46,2.0
1758079465.59657,1758079465.60709,0.0,0.0,0.0,45.83662,24.80907,9.05273,12.56,-0.27,0.89,2.0
1758079465.61273,1758079465.61709,0.0,0.0,0.0,46.52417,35.92446,8.70896,12.78,0.17,0.38,2.0
1758079465.61378,1758079465.62709,0.0,0.0,0.0,45.72203,46.81066,6.87549,12.78,0.17,0.38,2.0
1758079465.62851,1758079465.63709,0.0,0.0,0.0,42.39888,55.23313,3.09397,11.87,0.91,0.22,2.0
1758079465.64455,1758079465.64709,0.0,0.0,0.0,39.99245,57.58226,0.45837,11.87,0.91,0.22,2.0
1758079465.64576,1758079465.65709,0.0,0.0,0.0,37.58603,57.41038,-1.60428,10.56,1.54,0.21,2.0
1758079465.66132,1758079465.66709,0.0,0.0,0.0,35.58068,56.83742,-3.60963,10.56,1.54,0.21,2.0
1758079465.6649,1758079465.67709,0.0,0.0,0.0,32.77319,53.28508,-6.41713,9.99,1.85,0.32,2.0
1758079465.68142,1758079465.68709,0.0,0.0,0.0,31.2262,49.84733,-7.44845,9.36,1.8,0.47,2.0
1758079465.68254,1758079465.69709,0.0,0.0,0.0,29.67921,45.37826,-7.67763,9.36,1.8,0.47,2.0
1758079465.6978,1758079465.70709,0.0,0.0,0.0,27.78845,40.85189,-7.84952,8.79,1.43,0.75,2.0
1758079465.71476,1758079465.71709,0.0,0.0,0.0,23.94964,35.98175,-7.62034,8.79,1.43,0.75,2.0
1758079465.71576,1758079465.72709,0.0,0.0,0.0,21.14215,33.68992,-7.21927,8.53,1.15,0.67,2.0
1758079465.73161,1758079465.73709,0.0,0.0,0.0,18.16276,30.82513,-7.10468,8.53,1.15,0.67,2.0
1758079465.73334,1758079465.74709,0.0,0.0,0.0,15.35527,26.64254,-6.87549,8.29,1.05,0.68,2.0
1758079465.74858,1758079465.75709,0.0,0.0,0.0,11.34457,18.9649,-6.07335,8.07,1.07,0.65,2.0
1758079465.76489,1758079465.76709,0.0,0.0,0.0,8.76626,16.50119,-5.27121,8.07,1.07,0.65,2.0
1758079465.7653,1758079465.77709,0.0,0.0,0.0,6.47442,15.87093,-4.58366,8.66,1.16,0.66,2.0
1758079465.78162,1758079465.78709,0.0,0.0,0.0,2.97938,14.49583,-3.89611,8.66,1.16,0.66,2.0
1758079465.78494,1758079465.79709,0.0,0.0,0.0,1.20321,14.03747,-3.38045,9.0,1.2,0.8,2.0
1758079465.80158,1758079465.80709,0.0,0.0,0.0,-0.17189,13.46451,-3.26586,9.0,1.2,0.8,2.0
1758079465.80369,1758079465.81709,0.0,0.0,0.0,-1.08862,13.00614,-3.03668,9.43,1.1,0.91,2.0
1758079465.81881,1758079465.82709,0.0,0.0,0.0,-1.66158,14.15206,-3.32316,9.43,1.1,0.91,2.0
1758079465.8346,1758079465.83709,0.0,0.0,0.0,-1.3178,16.50119,-3.20856,9.78,0.88,0.65,2.0
1758079465.83529,1758079465.84709,0.0,0.0,0.0,-0.17189,18.44924,-3.26586,10.05,0.62,0.5,2.0
1758079465.85444,1758079465.85709,0.0,0.0,0.0,1.3751,20.16812,-3.09397,10.05,0.62,0.5,2.0
1758079465.85535,1758079465.86709,0.0,0.0,0.0,4.1253,22.23076,-2.6929,9.97,0.43,0.54,2.0
1758079465.87157,1758079465.87709,0.0,0.0,0.0,6.18794,22.91831,-2.23454,9.97,0.43,0.54,2.0
1758079465.87437,1758079465.88709,0.0,0.0,0.0,8.0787,22.00158,-1.66158,9.84,0.35,0.49,2.0
1758079465.88982,1758079465.89709,0.0,0.0,0.0,9.5684,19.82434,-0.97403,9.84,0.35,0.49,2.0
1758079465.89077,1758079465.90709,0.0,0.0,0.0,10.8289,14.66772,0.11459,9.54,0.41,0.41,2.0
1758079465.90734,1758079465.91709,0.0,0.0,0.0,10.65701,9.85487,0.40107,9.39,0.61,0.28,2.0
1758079465.9249,1758079465.92709,0.0,0.0,0.0,9.85487,4.98473,0.40107,9.39,0.61,0.28,2.0
1758079465.9253,1758079465.93709,0.0,0.0,0.0,8.0787,0.40107,0.45837,9.41,1.01,0.16,2.0
1758079465.94159,1758079465.94709,0.0,0.0,0.0,4.46907,-6.18794,0.17189,9.41,1.01,0.16,2.0
1758079465.94261,1758079465.95709,0.0,0.0,0.0,1.3751,-10.59972,-0.22918,9.32,1.49,0.17,2.0
1758079465.95912,1758079465.96709,0.0,0.0,0.0,-1.71887,-15.29797,-0.80214,9.32,1.49,0.17,2.0
1758079465.97479,1758079465.97709,0.0,0.0,0.0,-5.72958,-23.37668,-1.60428,9.06,1.89,0.08,2.0
1758079465.97611,1758079465.98709,0.0,0.0,0.0,-8.25059,-36.15364,-1.94806,8.61,2.01,-0.24,2.0
1758079465.99459,1758079465.99709,0.0,0.0,0.0,-9.96947,-42.39888,-2.34913,8.61,2.01,-0.24,2.0
1758079465.99532,1758079466.00709,0.0,0.0,0.0,-11.86023,-47.49821,-2.6929,8.97,1.86,-0.38,2.0
1758079466.01258,1758079466.01709,0.0,0.0,0.0,-15.12609,-47.61279,-2.7502,8.97,1.86,-0.38,2.0
1758079466.01416,1758079466.02709,0.0,0.0,0.0,-16.95955,-42.1124,-2.29183,9.83,1.83,-0.35,2.0
1758079466.02988,1758079466.03709,0.0,0.0,0.0,-18.22006,-26.52795,-1.66158,9.83,1.83,-0.35,2.0
1758079466.03077,1758079466.04709,0.0,0.0,0.0,-19.13679,-7.50575,-2.00535,11.73,1.71,0.73,2.0
1758079466.0476,1758079466.05709,0.0,0.0,0.0,-19.19409,-7.39116,-0.40107,10.42,1.71,1.12,2.0
1758079466.0686,1758079466.06709,0.0,0.0,0.0,-20.3973,-20.34,-2.06265,10.42,1.26,1.12,2.0
1758079466.06925,1758079466.07709,0.0,0.0,0.0,-19.48057,-26.75713,-2.7502,9.98,1.09,1.33,2.0
1758079466.07384,1758079466.08709,0.0,0.0,0.0,-17.87628,-28.01764,-3.89611,9.98,1.09,1.33,2.0
1758079466.08964,1758079466.09709,0.0,0.0,0.0,-13.40721,-27.2155,-4.29718,11.67,0.64,0.35,2.0
1758079466.09159,1758079466.10709,0.0,0.0,0.0,-10.19865,-27.73116,-4.64096,11.67,0.64,0.35,2.0
1758079466.10886,1758079466.11709,0.0,0.0,0.0,-7.50575,-27.78845,-4.81285,11.92,0.57,0.84,2.0
1758079466.12463,1758079466.12709,0.0,0.0,0.0,-4.81285,-27.1582,-4.1253,11.92,0.57,0.84,2.0
1758079466.12658,1758079466.13709,0.0,0.0,0.0,-1.08862,-27.96034,-2.63561,12.22,0.83,1.24,2.0
1758079466.14287,1758079466.14709,0.0,0.0,0.0,0.80214,-29.10626,-1.03132,11.73,0.6,1.27,2.0
1758079466.14381,1758079466.15709,0.0,0.0,0.0,2.23454,-30.53865,0.22918,11.73,0.6,1.27,2.0
1758079466.15887,1758079466.16709,0.0,0.0,0.0,2.97938,-31.51268,1.03132,10.97,0.32,1.01,2.0
1758079466.17495,1758079466.17709,0.0,0.0,0.0,2.7502,-32.6013,0.68755,10.97,0.32,1.01,2.0
1758079466.17533,1758079466.18709,0.0,0.0,0.0,1.03132,-35.00772,-0.0573,9.82,0.42,1.23,2.0
1758079466.19076,1758079466.19709,0.0,0.0,0.0,-2.06265,-37.81522,-1.20321,9.82,0.42,1.23,2.0
1758079466.19182,1758079466.20709,0.0,0.0,0.0,-10.02676,-41.36755,-3.83882,8.32,0.79,1.67,2.0
1758079466.20774,1758079466.21709,0.0,0.0,0.0,-16.95955,-42.91454,-5.72958,7.7,1.16,2.45,2.0
1758079466.22363,1758079466.22709,0.0,0.0,0.0,-24.4653,-44.28964,-7.79223,7.7,1.16,2.45,2.0
1758079466.2242,1758079466.23709,0.0,0.0,0.0,-31.62727,-44.57612,-9.39651,8.37,1.35,2.84,2.0
1758079466.23991,1758079466.24709,0.0,0.0,0.0,-40.16434,-41.88322,-10.31324,8.37,1.35,2.84,2.0
1758079466.24401,1758079466.25709,0.0,0.0,0.0,-43.54479,-36.95578,-9.91217,10.44,1.11,2.16,2.0
1758079466.25994,1758079466.26709,0.0,0.0,0.0,-44.23235,-29.04896,-8.59437,10.44,1.11,2.16,2.0
1758079466.26513,1758079466.27709,0.0,0.0,0.0,-42.62806,-18.9649,-6.53172,12.51,0.24,1.07,2.0
1758079466.27996,1758079466.28709,0.0,0.0,0.0,-36.84119,-3.55234,-2.6929,12.91,-0.78,0.0,2.0
1758079466.28194,1758079466.29709,0.0,0.0,0.0,-31.45539,6.35983,-0.34377,12.91,-0.78,0.0,2.0
1758079466.29692,1758079466.30709,0.0,0.0,0.0,-25.15285,15.87093,1.60428,12.13,-1.47,-0.35,2.0
1758079466.3137,1758079466.31709,0.0,0.0,0.0,-18.44924,24.35071,3.26586,12.13,-1.47,-0.35,2.0
1758079466.31655,1758079466.32709,0.0,0.0,0.0,-8.76626,35.98175,4.87014,11.02,-1.61,-0.41,2.0
1758079466.33188,1758079466.33709,0.0,0.0,0.0,-3.26586,39.99245,5.27121,11.02,-1.61,-0.41,2.0
1758079466.33395,1758079466.34709,0.0,0.0,0.0,1.20321,40.50812,5.09932,9.97,-1.34,-0.34,2.0
1758079466.3489,1758079466.35709,0.0,0.0,0.0,4.52637,39.70598,4.58366,9.97,-1.34,-0.34,2.0
1758079466.3649,1758079466.36709,0.0,0.0,0.0,7.33386,38.44547,3.72423,9.54,-0.86,-0.36,2.0
1758079466.36793,1758079466.37709,0.0,0.0,0.0,8.25059,37.24226,3.32316,9.34,-0.41,-0.42,2.0
1758079466.38391,1758079466.38709,0.0,0.0,0.0,8.88085,35.00772,3.32316,9.34,-0.41,-0.42,2.0
1758079466.38427,1758079466.39709,0.0,0.0,0.0,9.4538,30.99702,3.55234,8.82,-0.07,-0.22,2.0
1758079466.39994,1758079466.40709,0.0,0.0,0.0,10.02676,27.84575,4.1253,8.82,-0.07,-0.22,2.0
1758079466.40514,1758079466.41709,0.0,0.0,0.0,10.54242,24.63719,4.29718,8.42,0.07,-0.25,2.0
1758079466.41992,1758079466.42709,0.0,0.0,0.0,11.17268,22.00158,4.69825,8.42,0.07,-0.25,2.0
1758079466.42254,1758079466.43709,0.0,0.0,0.0,12.54778,20.34,4.87014,8.56,0.03,-0.12,2.0
1758079466.43844,1758079466.44709,0.0,0.0,0.0,13.69369,19.36597,4.98473,9.04,-0.06,0.06,2.0
1758079466.45463,1758079466.45709,0.0,0.0,0.0,14.72501,18.73572,4.81285,9.04,-0.06,0.06,2.0
1758079466.45525,1758079466.46709,0.0,0.0,0.0,15.24068,17.58981,4.23989,9.43,-0.04,0.2,2.0
1758079466.47377,1758079466.47709,0.0,0.0,0.0,15.41257,14.72501,3.49504,9.43,-0.04,0.2,2.0
1758079466.47466,1758079466.48709,0.0,0.0,0.0,15.0115,13.75099,2.92208,9.63,0.09,0.15,2.0
1758079466.48991,1758079466.49709,0.0,0.0,0.0,14.32395,14.83961,2.23454,9.63,0.09,0.15,2.0
1758079466.49196,1758079466.50709,0.0,0.0,0.0,13.34992,17.6471,1.60428,10.04,0.3,-0.16,2.0
1758079466.50934,1758079466.51709,0.0,0.0,0.0,11.22997,21.31403,0.40107,10.11,0.54,-0.17,2.0
1758079466.53912,1758079466.52709,0.0,0.0,0.0,9.68299,24.00693,-0.57296,10.11,0.54,-0.17,2.0
1758079466.53969,1758079466.53709,0.0,0.0,0.0,8.25059,27.73116,-1.48969,10.17,0.7,-0.04,2.0
1758079466.54492,1758079466.54709,0.0,0.0,0.0,6.58902,31.91375,-2.7502,10.17,0.7,-0.04,2.0
1758079466.54711,1758079466.55709,0.0,0.0,0.0,4.81285,34.89313,-4.0107,10.01,0.67,0.03,2.0
1758079466.56263,1758079466.56709,0.0,0.0,0.0,3.89611,34.14828,-5.09932,10.01,0.67,0.03,2.0
1758079466.5639,1758079466.57709,0.0,0.0,0.0,3.09397,32.20023,-5.84417,9.53,0.54,0.05,2.0
1758079466.57971,1758079466.58709,0.0,0.0,0.0,2.97938,28.99167,-6.53172,9.53,0.54,0.05,2.0
1758079466.58497,1758079466.59709,0.0,0.0,0.0,3.38045,24.4653,-6.58902,9.39,0.33,-0.16,2.0
1758079466.59994,1758079466.60709,0.0,0.0,0.0,4.58366,20.85567,-5.90147,9.55,0.0,-0.38,2.0
1758079466.60114,1758079466.61709,0.0,0.0,0.0,6.07335,15.64175,-4.87014,9.55,0.0,-0.38,2.0
1758079466.61598,1758079466.62709,0.0,0.0,0.0,8.93814,7.79223,-2.00535,9.58,-0.4,-0.3,2.0
1758079466.63196,1758079466.63709,0.0,0.0,0.0,10.94349,4.1253,-0.11459,9.58,-0.4,-0.3,2.0
1758079466.63367,1758079466.64709,0.0,0.0,0.0,13.40721,-0.40107,2.29183,9.72,-0.84,-0.04,2.0
1758079466.69888,1758079466.65709,0.0,0.0,0.0,15.92823,-6.13065,4.64096,9.72,-0.84,-0.04,2.0
1758079466.69979,1758079466.66709,0.0,0.0,0.0,19.07949,-17.18874,7.84952,9.34,-1.12,0.03,2.0
1758079466.70165,1758079466.67709,0.0,0.0,0.0,21.08485,-27.2155,9.5684,8.98,-1.06,-0.02,2.0
1758079466.70512,1758079466.68709,0.0,0.0,0.0,21.7151,-35.58068,10.02676,8.98,-1.06,-0.02,2.0
1758079466.71107,1758079466.69709,0.0,0.0,0.0,23.20479,-36.61201,10.94349,9.55,-0.74,-0.46,2.0
1758079466.71391,1758079466.70709,0.0,0.0,0.0,24.80907,-30.82513,10.94349,9.55,-0.74,-0.46,2.0
1758079466.71455,1758079466.71709,0.0,0.0,0.0,25.72581,-24.29341,10.8289,10.47,-0.4,-0.13,2.0
1758079466.71529,1758079466.72709,0.0,0.0,0.0,26.75713,-17.53251,10.02676,10.47,-0.4,-0.13,2.0
1758079466.73174,1758079466.73709,0.0,0.0,0.0,27.84575,-12.71966,8.70896,10.37,-0.24,0.38,2.0
1758079466.73376,1758079466.74709,0.0,0.0,0.0,28.87707,-10.8289,6.8182,10.56,0.03,1.15,2.0
1758079466.74969,1758079466.75709,0.0,0.0,0.0,28.30412,-10.02676,6.58902,10.56,0.03,1.15,2.0
1758079466.75077,1758079466.76709,0.0,0.0,0.0,27.84575,-16.90226,7.50575,11.48,0.41,1.7,2.0
1758079466.76753,1758079466.77709,0.0,0.0,0.0,26.24147,-33.63263,10.54242,11.48,0.41,1.7,2.0
1758079466.78434,1758079466.78709,0.0,0.0,0.0,25.72581,-61.24919,12.60507,10.75,0.6,1.12,2.0
1758079466.78714,1758079466.79709,0.0,0.0,0.0,24.12152,-62.33781,16.90226,10.75,0.6,1.12,2.0
1758079466.80272,1758079466.80709,0.0,0.0,0.0,21.14215,-59.35843,17.81899,12.31,0.57,0.6,2.0
1758079466.80392,1758079466.81709,0.0,0.0,0.0,18.56383,-57.81144,16.73037,12.31,0.57,0.6,2.0
1758079466.81982,1758079466.82709,0.0,0.0,0.0,17.6471,-57.12389,14.66772,10.36,0.5,0.27,2.0
1758079466.82509,1758079466.83709,0.0,0.0,0.0,17.53251,-55.23313,11.74564,8.97,0.38,1.99,2.0
1758079466.83998,1758079466.84709,0.0,0.0,0.0,19.36597,-52.82671,8.93814,8.97,0.38,1.99,2.0
1758079466.84092,1758079466.85709,0.0,0.0,0.0,24.98096,-45.37826,5.27121,8.9,0.28,2.06,2.0
1758079466.856,1758079466.86709,0.0,0.0,0.0,29.96569,-38.38818,3.72423,8.9,0.28,2.06,2.0
1758079466.87362,1758079466.87709,0.0,0.0,0.0,35.12231,-32.14294,3.38045,9.73,0.31,2.45,2.0
1758079466.87456,1758079466.88709,0.0,0.0,0.0,40.16434,-25.89769,3.95341,9.73,0.31,2.45,2.0
1758079466.88972,1758079466.89709,0.0,0.0,0.0,46.46688,-13.5218,5.15662,10.9,0.39,1.46,2.0
1758079466.91352,1758079466.90709,0.0,0.0,0.0,49.84733,-5.15662,5.72958,12.2,0.66,0.66,2.0
1758079466.91392,1758079466.91709,0.0,0.0,0.0,51.90998,4.23989,5.72958,12.2,0.66,0.66,2.0
1758079466.91507,1758079466.92709,0.0,0.0,0.0,52.48294,14.78231,4.64096,12.49,1.01,-0.2,2.0
1758079466.93083,1758079466.93709,0.0,0.0,0.0,50.87865,31.85646,1.71887,12.49,1.01,-0.2,2.0
1758079466.93348,1758079466.94709,0.0,0.0,0.0,48.24305,42.85724,-0.85944,12.02,1.31,-0.36,2.0
1758079466.94912,1758079466.95709,0.0,0.0,0.0,45.14908,49.33167,-3.66693,12.02,1.31,-0.36,2.0
1758079466.94993,1758079466.96709,0.0,0.0,0.0,41.88322,52.71212,-6.53172,10.88,1.5,-0.05,2.0
1758079466.96962,1758079466.97709,0.0,0.0,0.0,37.47144,53.39967,-9.05273,10.11,1.6,0.01,2.0
1758079466.96998,1758079466.98709,0.0,0.0,0.0,34.77854,53.17049,-10.02676,10.11,1.6,0.01,2.0
1758079466.99193,1758079466.99709,0.0,0.0,0.0,32.6013,53.91533,-10.37054,10.08,1.49,0.09,2.0
1758079466.99532,1758079467.00709,0.0,0.0,0.0,29.96569,53.91533,-11.11538,10.08,1.49,0.09,2.0
1758079467.01079,1758079467.01709,0.0,0.0,0.0,27.84575,52.54023,-11.28727,9.68,1.18,0.1,2.0
1758079467.01276,1758079467.02709,0.0,0.0,0.0,25.8404,50.363,-10.94349,9.68,1.18,0.1,2.0
1758079467.02782,1758079467.03709,0.0,0.0,0.0,23.66316,48.12846,-10.25595,9.12,0.96,0.3,2.0
1758079467.02948,1758079467.04709,0.0,0.0,0.0,20.34,43.60209,-8.76626,9.12,0.96,0.38,2.0
1758079467.04751,1758079467.05709,0.0,0.0,0.0,18.10547,40.10705,-7.44845,8.72,0.94,0.38,2.0
1758079467.04984,1758079467.06709,0.0,0.0,0.0,15.87093,36.49741,-6.35983,8.48,1.13,0.56,2.0
1758079467.08847,1758079467.07709,0.0,0.0,0.0,13.46451,33.46074,-5.09932,8.48,1.13,0.56,2.0
1758079467.08907,1758079467.08709,0.0,0.0,0.0,9.91217,29.56462,-3.89611,8.46,1.36,0.85,2.0
1758079467.09028,1758079467.09709,0.0,0.0,0.0,7.73493,26.47065,-3.26586,8.46,1.36,0.85,2.0
1758079467.09093,1758079467.10709,0.0,0.0,0.0,5.90147,21.7724,-2.97938,8.37,1.51,1.04,2.0
1758079467.1088,1758079467.11709,0.0,0.0,0.0,4.52637,15.58445,-2.40642,8.37,1.51,1.04,2.0
1758079467.11031,1758079467.12709,0.0,0.0,0.0,2.97938,7.73493,-1.60428,8.27,1.49,0.91,2.0
1758079467.12859,1758079467.13709,0.0,0.0,0.0,2.63561,3.95341,-1.03132,8.9,1.32,0.62,2.0
1758079467.12914,1758079467.14709,0.0,0.0,0.0,2.86479,1.3178,-0.34377,8.9,1.32,0.62,2.0
1758079467.14871,1758079467.15709,0.0,0.0,0.0,3.49504,0.45837,0.34377,9.56,0.95,0.54,2.0
1758079467.14911,1758079467.16709,0.0,0.0,0.0,5.4431,1.43239,1.20321,9.56,0.95,0.54,2.0
1758079467.1689,1758079467.17709,0.0,0.0,0.0,7.33386,2.40642,1.77617,10.05,0.54,0.72,2.0
1758079467.16939,1758079467.18709,0.0,0.0,0.0,9.05273,3.09397,2.11994,10.05,0.54,0.72,2.0
1758079467.18864,1758079467.19709,0.0,0.0,0.0,11.28727,3.38045,2.57831,10.05,0.29,0.69,2.0
1758079467.18913,1758079467.20709,0.0,0.0,0.0,12.49048,2.86479,2.97938,9.81,0.34,0.51,2.0
1758079467.20983,1758079467.21709,0.0,0.0,0.0,13.34992,1.71887,3.20856,9.81,0.34,0.51,2.0
1758079467.21413,1758079467.22709,0.0,0.0,0.0,13.40721,-0.11459,3.09397,9.52,0.64,0.33,2.0
1758079467.22984,1758079467.23709,0.0,0.0,0.0,12.54778,-3.32316,2.86479,9.52,0.64,0.33,2.0
1758079467.23613,1758079467.24709,0.0,0.0,0.0,11.57375,-5.84417,3.03668,9.47,1.1,0.15,2.0
1758079467.25429,1758079467.25709,0.0,0.0,0.0,9.91217,-8.25059,3.03668,9.47,1.1,0.15,2.0
1758079467.27965,1758079467.26709,0.0,0.0,0.0,7.84952,-11.00079,3.49504,9.56,1.61,0.06,2.0
1758079467.28459,1758079467.27709,0.0,0.0,0.0,3.49504,-15.06879,3.72423,9.74,1.61,0.04,2.0
1758079467.29027,1758079467.28709,0.0,0.0,0.0,-0.11459,-16.73037,3.20856,9.74,2.08,0.04,2.0
1758079467.29091,1758079467.29709,0.0,0.0,0.0,-4.18259,-17.76169,2.29183,9.98,2.39,-0.23,2.0
1758079467.29455,1758079467.30709,0.0,0.0,0.0,-8.25059,-18.44924,1.03132,9.98,2.39,-0.23,2.0
1758079467.31002,1758079467.31709,0.0,0.0,0.0,-14.61043,-19.88164,-1.08862,9.99,2.46,-0.36,2.0
1758079467.3118,1758079467.32709,0.0,0.0,0.0,-18.44924,-21.6578,-2.34913,9.99,2.46,-0.36,2.0
1758079467.33037,1758079467.33709,0.0,0.0,0.0,-21.94428,-24.29341,-3.20856,9.93,2.16,-0.53,2.0
1758079467.33285,1758079467.34709,0.0,0.0,0.0,-24.57989,-27.10091,-2.7502,9.93,2.16,-0.53,2.0
1758079467.3497,1758079467.35709,0.0,0.0,0.0,-27.73116,-28.13223,-1.03132,9.82,1.53,-0.74,2.0
1758079467.35375,1758079467.36709,0.0,0.0,0.0,-28.70519,-28.36141,0.11459,10.24,0.88,-0.48,2.0
1758079467.36885,1758079467.37709,0.0,0.0,0.0,-28.476,-29.04896,1.03132,10.24,0.88,-0.48,2.0
1758079467.37037,1758079467.38709,0.0,0.0,0.0,-27.04361,-33.86181,1.3751,10.65,0.54,0.13,2.0
1758079467.38886,1758079467.39709,0.0,0.0,0.0,-22.28806,-47.95657,0.34377,10.65,0.54,0.13,2.0
1758079467.39009,1758079467.40709,0.0,0.0,0.0,-17.30333,-54.77477,-0.80214,10.77,0.34,1.12,2.0
1758079467.40518,1758079467.41709,0.0,0.0,0.0,-12.54778,-58.21251,-2.00535,10.77,0.34,1.12,2.0
1758079467.41082,1758079467.42709,0.0,0.0,0.0,-5.55769,-58.49899,-3.38045,12.13,0.19,1.46,2.0
1758079467.43499,1758079467.43709,0.0,0.0,0.0,-2.29183,-62.33781,-3.60963,12.1,0.04,0.86,2.0
1758079467.43552,1758079467.44709,0.0,0.0,0.0,-0.85944,-70.53111,-4.35448,12.1,0.04,0.86,2.0
1758079467.45417,1758079467.45709,0.0,0.0,0.0,-0.57296,-73.73967,-3.55234,10.59,0.14,0.68,2.0
1758079467.45619,1758079467.46709,0.0,0.0,0.0,-4.0107,-61.76485,-4.35448,10.59,0.14,0.68,2.0
1758079467.47182,1758079467.47709,0.0,0.0,0.0,-8.65166,-49.56085,-5.72958,10.94,0.57,0.75,2.0
1758079467.47461,1758079467.48709,0.0,0.0,0.0,-14.49583,-44.11775,-6.70361,10.94,0.57,0.75,2.0
1758079467.48981,1758079467.49709,0.0,0.0,0.0,-20.79837,-42.74266,-7.79223,9.32,0.76,2.51,2.0
1758079467.49175,1758079467.50709,0.0,0.0,0.0,-30.02299,-42.1124,-8.136,8.66,0.95,2.91,2.0
1758079467.52503,1758079467.51709,0.0,0.0,0.0,-35.63798,-38.56006,-7.33386,8.66,0.95,2.91,2.0
1758079467.52909,1758079467.52709,0.0,0.0,0.0,-40.16434,-31.97105,-5.90147,10.14,0.9,1.7,2.0
1758079467.53137,1758079467.53709,0.0,0.0,0.0,-43.20102,-24.00693,-4.1253,10.14,0.9,1.7,2.0
1758079467.53334,1758079467.54709,0.0,0.0,0.0,-44.46153,-11.11538,-1.3178,11.47,0.42,0.89,2.0
1758079467.54908,1758079467.55709,0.0,0.0,0.0,-43.60209,-1.48969,0.17189,11.47,0.42,0.89,2.0
1758079467.55002,1758079467.56709,0.0,0.0,0.0,-41.94051,8.25059,1.3751,11.92,-0.15,0.15,2.0
1758079467.56521,1758079467.57709,0.0,0.0,0.0,-39.82057,18.33465,2.00535,11.92,-0.15,0.15,2.0
1758079467.58287,1758079467.58709,0.0,0.0,0.0,-36.15364,30.88243,2.57831,11.65,-0.53,-0.38,2.0
1758079467.58409,1758079467.59709,0.0,0.0,0.0,-33.46074,37.75792,2.63561,11.01,-0.83,-0.29,2.0
1758079467.5989,1758079467.60709,0.0,0.0,0.0,-30.53865,43.60209,2.46372,11.01,-0.83,-0.29,2.0
1758079467.60116,1758079467.61709,0.0,0.0,0.0,-26.06958,49.15978,2.63561,10.47,-0.91,-0.04,2.0
1758079467.62346,1758079467.62709,0.0,0.0,0.0,-23.54857,50.01921,2.86479,10.47,-0.91,-0.04,2.0
1758079467.62842,1758079467.63709,0.0,0.0,0.0,-21.48592,49.84733,3.03668,9.83,-0.84,-0.07,2.0
1758079467.6309,1758079467.64709,0.0,0.0,0.0,-19.76705,49.27437,3.20856,9.83,-0.84,-0.07,2.0
1758079467.66232,1758079467.65709,0.0,0.0,0.0,-17.58981,47.49821,3.38045,9.57,-0.65,-0.05,2.0
1758079467.66746,1758079467.66709,0.0,0.0,0.0,-15.98552,46.06581,3.38045,9.21,-0.45,-0.3,2.0
1758079467.66857,1758079467.67709,0.0,0.0,0.0,-13.86558,42.97184,3.60963,9.21,-0.45,-0.3,2.0
1758079467.66932,1758079467.68709,0.0,0.0,0.0,-11.57375,39.01843,3.66693,8.68,-0.38,-0.23,2.0
1758079467.68694,1758079467.69709,0.0,0.0,0.0,-7.44845,33.11696,3.49504,8.68,-0.38,-0.23,2.0
1758079467.68965,1758079467.70709,0.0,0.0,0.0,-4.64096,30.30947,3.09397,8.56,-0.5,-0.33,2.0
1758079467.70541,1758079467.71709,0.0,0.0,0.0,-2.11994,27.78845,2.57831,8.56,-0.5,-0.33,2.0
1758079467.72183,1758079467.72709,0.0,0.0,0.0,0.17189,24.92367,2.29183,8.71,-0.63,-0.04,2.0
1758079467.72461,1758079467.73709,0.0,0.0,0.0,2.46372,20.34,1.71887,8.88,-0.62,0.21,2.0
1758079467.74009,1758079467.74709,0.0,0.0,0.0,3.32316,17.24603,1.3178,8.88,-0.62,0.21,2.0
1758079467.7453,1758079467.75709,0.0,0.0,0.0,3.26586,15.64175,0.74485,9.34,-0.3,0.25,2.0
1758079467.75984,1758079467.76709,0.0,0.0,0.0,2.6929,13.75099,0.40107,9.34,-0.3,0.25,2.0
1758079467.76184,1758079467.77709,0.0,0.0,0.0,0.74485,11.28727,-0.0573,9.62,0.16,0.11,2.0
1758079467.77713,1758079467.78709,0.0,0.0,0.0,-1.08862,12.77696,-0.57296,9.62,0.16,0.11,2.0
1758079467.79451,1758079467.79709,0.0,0.0,0.0,-3.26586,16.61578,-1.3178,10.05,0.59,-0.1,2.0
1758079467.79892,1758079467.80709,0.0,0.0,0.0,-6.7609,21.14215,-2.6929,10.05,0.59,-0.1,2.0
1758079467.79947,1758079467.81709,0.0,0.0,0.0,-8.93814,26.01229,-3.95341,10.16,0.79,0.0,2.0
1758079467.81495,1758079467.82709,0.0,0.0,0.0,-10.8289,28.07493,-5.27121,9.86,0.76,0.07,2.0
1758079467.83217,1758079467.83709,0.0,0.0,0.0,-11.97482,29.27814,-6.58902,9.86,0.76,0.07,2.0
1758079467.83383,1758079467.84709,0.0,0.0,0.0,-13.00614,27.67386,-8.0787,9.59,0.46,-0.12,2.0
1758079467.84919,1758079467.85709,0.0,0.0,0.0,-13.12073,26.06958,-8.65166,9.59,0.46,-0.12,2.0
1758079467.85036,1758079467.86709,0.0,0.0,0.0,-12.54778,24.80907,-8.99544,9.5,0.07,-0.41,2.0
1758079467.86487,1758079467.87709,0.0,0.0,0.0,-11.74564,23.60586,-8.99544,9.5,0.07,-0.41,2.0
1758079467.88183,1758079467.88709,0.0,0.0,0.0,-9.91217,18.56383,-8.25059,9.67,-0.3,-0.39,2.0
1758079467.88312,1758079467.89709,0.0,0.0,0.0,-7.84952,13.75099,-7.21927,9.52,-0.73,-0.1,2.0
1758079467.89869,1758079467.90709,0.0,0.0,0.0,-5.78687,8.136,-5.78687,9.52,-0.73,-0.1,2.0
1758079467.90237,1758079467.91709,0.0,0.0,0.0,-3.49504,2.57831,-3.95341,9.66,-1.03,0.04,2.0
1758079467.91926,1758079467.92709,0.0,0.0,0.0,0.45837,-6.18794,-0.85944,9.66,-1.03,0.04,2.0
1758079467.92333,1758079467.93709,0.0,0.0,0.0,3.03668,-11.45916,1.3751,9.78,-1.16,0.02,2.0
1758079467.93894,1758079467.94709,0.0,0.0,0.0,5.72958,-15.75634,3.26586,9.78,-1.16,0.02,2.0
1758079467.94333,1758079467.95709,0.0,0.0,0.0,8.30789,-19.13679,4.92744,9.87,-1.04,-0.1,2.0
1758079467.95891,1758079467.96709,0.0,0.0,0.0,12.08941,-24.29341,6.53172,9.82,-0.8,-0.47,2.0
1758079467.96335,1758079467.97709,0.0,0.0,0.0,13.34992,-28.01764,6.7609,9.82,-0.8,-0.47,2.0
1758079467.97891,1758079467.98709,0.0,0.0,0.0,14.66772,-28.70519,5.95876,10.02,-0.56,-0.71,2.0
1758079467.98362,1758079467.99709,0.0,0.0,0.0,15.12609,-26.01229,3.26586,10.02,-0.56,-0.71,2.0
1758079467.99897,1758079468.00709,0.0,0.0,0.0,15.92823,-17.93358,1.77617,10.8,-0.36,-0.54,2.0
1758079468.00013,1758079468.01709,0.0,0.0,0.0,15.41257,-12.77696,0.74485,10.8,-0.36,-0.54,2.0
1758079468.01491,1758079468.02709,0.0,0.0,0.0,14.32395,-9.4538,0.0573,11.36,-0.01,0.2,2.0
1758079468.01964,1758079468.03709,0.0,0.0,0.0,9.05273,-6.13065,-0.11459,11.36,-0.01,0.2,2.0
1758079468.03492,1758079468.04709,0.0,0.0,0.0,4.58366,-7.10468,-0.68755,11.92,0.6,1.26,2.0
1758079468.05909,1758079468.05709,0.0,0.0,0.0,3.03668,-20.97026,1.14592,11.21,1.09,1.7,2.0
1758079468.06031,1758079468.06709,0.0,0.0,0.0,0.22918,-46.81066,3.09397,11.21,1.09,1.7,2.0
1758079468.06094,1758079468.07709,0.0,0.0,0.0,-4.29718,-64.51505,5.72958,9.65,0.94,0.32,2.0
1758079468.07693,1758079468.08709,0.0,0.0,0.0,-6.87549,-56.26446,8.59437,9.65,0.94,0.32,2.0
1758079468.07997,1758079468.09709,0.0,0.0,0.0,-8.47978,-47.89928,9.74028,11.64,0.56,-0.15,2.0
1758079468.10016,1758079468.10709,0.0,0.0,0.0,-9.11003,-43.02913,9.28192,11.64,0.56,-0.15,2.0
1758079468.10194,1758079468.11709,0.0,0.0,0.0,-7.62034,-41.13837,6.99009,9.87,0.07,0.69,2.0
1758079468.11878,1758079468.12709,0.0,0.0,0.0,-4.69825,-39.53409,5.21392,9.06,-0.22,2.87,2.0
1758079468.11977,1758079468.13709,0.0,0.0,0.0,-0.45837,-36.49741,3.49504,9.06,-0.22,2.87,2.0
1758079468.13896,1758079468.14709,0.0,0.0,0.0,4.46907,-32.71589,2.29183,9.39,-0.04,2.86,2.0
1758079468.14043,1758079468.15709,0.0,0.0,0.0,12.08941,-26.35606,2.40642,9.39,-0.04,2.86,2.0
1758079468.15499,1758079468.16709,0.0,0.0,0.0,16.84496,-21.25674,3.09397,10.53,0.18,3.17,2.0
1758079468.17207,1758079468.17709,0.0,0.0,0.0,20.97026,-14.49583,3.66693,10.53,0.18,3.17,2.0
1758079468.17447,1758079468.18709,0.0,0.0,0.0,24.17882,-8.42248,4.23989,11.79,0.41,1.72,2.0
1758079468.19019,1758079468.19709,0.0,0.0,0.0,26.69983,3.72423,3.20856,12.4,0.63,0.96,2.0
1758079468.19433,1758079468.20709,0.0,0.0,0.0,26.75713,14.38124,1.14592,12.4,0.63,0.96,2.0
1758079468.20997,1758079468.21709,0.0,0.0,0.0,26.01229,25.49662,-0.0573,12.32,0.81,0.02,2.0
1758079468.21117,1758079468.22709,0.0,0.0,0.0,23.31938,41.94051,-3.26586,12.32,0.81,0.02,2.0
1758079468.22754,1758079468.23709,0.0,0.0,0.0,20.97026,49.61814,-5.4431,11.47,1.07,0.21,2.0
1758079468.24292,1758079468.24709,0.0,0.0,0.0,18.44924,55.06125,-8.25059,11.47,1.07,0.21,2.0
1758079468.24426,1758079468.25709,0.0,0.0,0.0,16.272,56.952,-9.91217,10.31,1.48,0.31,2.0
1758079468.25897,1758079468.26709,0.0,0.0,0.0,13.06344,55.51962,-11.80293,10.31,1.48,0.18,2.0
1758079468.2618,1758079468.27709,0.0,0.0,0.0,11.28727,53.97263,-11.86023,9.5,1.74,0.18,2.0
1758079468.27901,1758079468.28709,0.0,0.0,0.0,9.39651,52.13916,-11.91752,9.17,1.65,0.0,2.0
1758079468.28202,1758079468.29709,0.0,0.0,0.0,7.50575,50.53488,-11.63104,9.17,1.65,0.0,2.0
1758079468.29758,1758079468.30709,0.0,0.0,0.0,4.0107,47.32632,-10.8289,8.88,1.27,-0.01,2.0
1758079468.29901,1758079468.31709,0.0,0.0,0.0,1.3178,44.8053,-10.54242,8.88,1.27,-0.01,2.0
1758079468.31497,1758079468.32709,0.0,0.0,0.0,-1.48969,42.74266,-10.02676,8.63,0.95,0.04,2.0
1758079468.33288,1758079468.33709,0.0,0.0,0.0,-4.46907,39.76327,-9.85487,8.63,0.95,0.04,2.0
1758079468.33396,1758079468.34709,0.0,0.0,0.0,-9.22462,34.77854,-9.68299,8.43,0.82,0.15,2.0
1758079468.34926,1758079468.35709,0.0,0.0,0.0,-12.37589,31.79916,-9.62569,8.34,0.93,0.34,2.0
1758079468.35019,1758079468.36709,0.0,0.0,0.0,-15.12609,29.39274,-9.5684,8.34,0.93,0.34,2.0
1758079468.36927,1758079468.37709,0.0,0.0,0.0,-17.81899,27.10091,-9.22462,8.44,1.13,0.54,2.0
1758079468.3702,1758079468.38709,0.0,0.0,0.0,-21.08485,24.23611,-8.70896,8.44,1.13,0.54,2.0
1758079468.38759,1758079468.39709,0.0,0.0,0.0,-22.74642,22.05888,-8.30789,8.65,1.3,0.74,2.0
1758079468.403,1758079468.40709,0.0,0.0,0.0,-23.72045,18.27736,-7.50575,8.65,1.3,0.74,2.0
1758079468.40466,1758079468.41709,0.0,0.0,0.0,-24.4653,15.12609,-6.35983,8.83,1.34,0.66,2.0
1758079468.41904,1758079468.42709,0.0,0.0,0.0,-23.94964,11.63104,-5.21392,9.28,1.08,0.51,2.0
1758079468.42206,1758079468.43709,0.0,0.0,0.0,-23.0902,9.5684,-4.35448,9.28,1.08,0.51,2.0
1758079468.43929,1758079468.44709,0.0,0.0,0.0,-21.42862,9.62569,-3.32316,9.52,0.64,0.4,2.0
1758079468.44045,1758079468.45709,0.0,0.0,0.0,-17.99088,12.37589,-2.00535,9.52,0.64,0.4,2.0
1758079468.45715,1758079468.46709,0.0,0.0,0.0,-15.64175,13.5218,-1.20321,9.68,0.22,0.51,2.0
1758079468.46466,1758079468.47709,0.0,0.0,0.0,-13.00614,13.98017,-0.34377,9.68,0.22,0.51,2.0
1758079468.4802,1758079468.48709,0.0,0.0,0.0,-10.65701,13.00614,0.45837,9.47,0.01,0.62,2.0
1758079468.48162,1758079468.49709,0.0,0.0,0.0,-8.30789,10.94349,1.3178,9.37,0.01,0.6,2.0
1758079468.49624,1758079468.50709,0.0,0.0,0.0,-7.44845,9.05273,1.3178,9.37,0.11,0.6,2.0
1758079468.51235,1758079468.51709,0.0,0.0,0.0,-7.21927,6.41713,1.43239,9.36,0.42,0.4,2.0
1758079468.51394,1758079468.52709,0.0,0.0,0.0,-7.33386,4.18259,1.20321,9.36,0.42,0.4,2.0
1758079468.52926,1758079468.53709,0.0,0.0,0.0,-8.02141,0.51566,1.66158,9.48,0.79,0.19,2.0
1758079468.53022,1758079468.54709,0.0,0.0,0.0,-8.76626,-2.00535,2.23454,9.48,0.79,0.19,2.0
1758079468.54629,1758079468.55709,0.0,0.0,0.0,-9.74028,-5.4431,3.03668,9.47,1.22,0.13,2.0
1758079468.56281,1758079468.56709,0.0,0.0,0.0,-11.28727,-8.88085,3.83882,9.47,1.22,0.13,2.0
1758079468.56434,1758079468.57709,0.0,0.0,0.0,-14.43854,-14.09476,3.66693,9.53,1.6,0.21,2.0
1758079468.57903,1758079468.58709,0.0,0.0,0.0,-16.84496,-17.76169,2.6929,9.73,1.85,0.13,2.0
1758079468.5805,1758079468.59709,0.0,0.0,0.0,-19.42327,-21.48592,1.48969,9.73,1.85,0.13,2.0
1758079468.5993,1758079468.60709,0.0,0.0,0.0,-21.7724,-25.26744,0.0,10.0,1.92,0.01,2.0
1758079468.6005,1758079468.61709,0.0,0.0,0.0,-25.26744,-32.08564,-1.08862,10.0,1.92,0.01,2.0
1758079468.61505,1758079468.62709,0.0,0.0,0.0,-27.38738,-37.01308,-1.94806,10.0,1.77,-0.05,2.0
1758079468.63127,1758079468.63709,0.0,0.0,0.0,-28.99167,-41.13837,-2.06265,10.0,1.77,-0.05,2.0
1758079468.63223,1758079468.64709,0.0,0.0,0.0,-31.74186,-43.20102,-2.34913,9.98,1.55,-0.45,2.0
1758079468.64932,1758079468.65709,0.0,0.0,0.0,-32.71589,-43.02913,-1.94806,10.16,1.38,-0.53,2.0
1758079468.65025,1758079468.66709,0.0,0.0,0.0,-33.74722,-42.28429,-1.83346,10.16,1.38,-0.53,2.0
1758079468.66632,1758079468.67709,0.0,0.0,0.0,-34.60666,-40.33623,-1.08862,10.42,1.09,-0.23,2.0
1758079468.68301,1758079468.68709,0.0,0.0,0.0,-34.77854,-35.63798,-0.22918,10.42,1.09,-0.23,2.0
1758079468.68421,1758079468.69709,0.0,0.0,0.0,-33.40344,-34.66395,0.45837,11.45,0.72,0.33,2.0
1758079468.69902,1758079468.70709,0.0,0.0,0.0,-31.91375,-36.32552,0.40107,11.45,0.72,0.33,2.0
1758079468.70029,1758079468.71709,0.0,0.0,0.0,-29.73651,-46.06581,-0.51566,11.79,0.34,1.39,2.0
1758079468.71505,1758079468.72709,0.0,0.0,0.0,-26.35606,-66.06203,-4.0107,11.69,0.2,1.62,2.0
1758079468.73106,1758079468.73709,0.0,0.0,0.0,-23.0902,-70.87489,-6.35983,11.69,0.2,1.62,2.0
1758079468.73234,1758079468.74709,0.0,0.0,0.0,-20.22541,-67.9528,-8.59437,12.93,0.08,1.52,2.0
1758079468.74896,1758079468.75709,0.0,0.0,0.0,-18.73572,-59.75951,-9.96947,12.93,0.08,1.52,2.0
1758079468.75024,1758079468.76709,0.0,0.0,0.0,-20.05352,-53.51426,-10.94349,11.8,0.11,2.0,2.0
1758079468.76529,1758079468.77709,0.0,0.0,0.0,-23.20479,-51.50891,-11.45916,11.8,0.11,2.0,2.0
1758079468.78289,1758079468.78709,0.0,0.0,0.0,-27.61657,-47.78468,-11.57375,9.83,0.3,3.38,2.0
1758079468.78964,1758079468.79709,0.0,0.0,0.0,-32.83048,-42.57077,-11.17268,9.83,0.3,3.38,2.0
1758079468.79134,1758079468.80709,0.0,0.0,0.0,-41.65404,-34.0337,-8.93814,10.0,0.57,3.45,2.0
1758079468.80831,1758079468.81709,0.0,0.0,0.0,-47.15443,-28.93437,-6.18794,10.72,0.94,2.75,2.0
1758079468.81005,1758079468.82709,0.0,0.0,0.0,-51.90998,-24.12152,-2.57831,10.72,0.94,2.75,2.0
1758079468.82749,1758079468.83709,0.0,0.0,0.0,-56.83742,-14.32395,2.34913,11.32,1.05,1.33,2.0
1758079468.84303,1758079468.84709,0.0,0.0,0.0,-57.75415,-4.29718,4.35448,11.32,1.05,1.33,2.0
1758079468.84855,1758079468.85709,0.0,0.0,0.0,-57.52497,7.67763,5.09932,11.98,0.75,0.54,2.0
1758079468.86303,1758079468.86709,0.0,0.0,0.0,-56.20716,18.79302,4.35448,11.98,0.75,0.54,2.0
1758079468.86425,1758079468.87709,0.0,0.0,0.0,-53.11319,32.37212,1.83346,11.68,0.12,0.34,2.0
1758079468.87946,1758079468.88709,0.0,0.0,0.0,-50.363,39.19032,0.0,10.72,-0.68,0.31,2.0
1758079468.88055,1758079468.89709,0.0,0.0,0.0,-47.38361,44.8053,-1.20321,10.72,-0.68,0.31,2.0
1758079468.89908,1758079468.90709,0.0,0.0,0.0,-44.40423,49.67545,-1.94806,9.98,-1.31,0.07,2.0
1758079468.90026,1758079468.91709,0.0,0.0,0.0,-39.4195,55.97798,-1.66158,9.98,-1.31,0.07,2.0
1758079468.91935,1758079468.92709,0.0,0.0,0.0,-36.32552,58.21251,-1.03132,9.53,-1.53,0.03,2.0
1758079468.92023,1758079468.93709,0.0,0.0,0.0,-33.68992,57.81144,-0.22918,9.53,-1.53,0.03,2.0
1758079468.93585,1758079468.94709,0.0,0.0,0.0,-31.39809,58.26981,0.22918,8.95,-1.26,0.12,2.0
1758079468.9539,1758079468.95709,0.0,0.0,0.0,-28.36141,58.55629,0.80214,8.79,-0.7,0.16,2.0
1758079468.95483,1758079468.96709,0.0,0.0,0.0,-26.52795,57.12389,1.60428,8.79,-0.7,0.16,2.0
1758079468.97025,1758079468.97709,0.0,0.0,0.0,-24.63719,55.6342,1.83346,8.4,-0.24,0.14,2.0
1758079468.97309,1758079468.98709,0.0,0.0,0.0,-22.63183,52.9986,1.77617,8.4,-0.24,0.14,2.0
1758079468.98806,1758079468.99709,0.0,0.0,0.0,-19.59516,46.06581,1.03132,8.12,0.0,0.32,2.0
1758079468.99082,1758079469.00709,0.0,0.0,0.0,-17.76169,40.62271,0.22918,8.12,0.0,0.32,2.0
1758079469.00704,1758079469.01709,0.0,0.0,0.0,-15.98552,35.12231,-0.0573,8.06,0.04,0.35,2.0
1758079469.02389,1758079469.02709,0.0,0.0,0.0,-13.40721,31.2262,-0.85944,8.06,0.04,0.35,2.0
1758079469.02778,1758079469.03709,0.0,0.0,0.0,-12.14671,25.43933,-1.43239,8.4,-0.2,0.41,2.0
1758079469.04469,1758079469.04709,0.0,0.0,0.0,-11.22997,21.6578,-2.00535,8.68,-0.44,0.56,2.0
1758079469.0491,1758079469.05709,0.0,0.0,0.0,-10.94349,18.90761,-2.57831,8.68,-0.44,0.56,2.0
1758079469.04965,1758079469.06709,0.0,0.0,0.0,-11.34457,14.20935,-3.38045,9.19,-0.45,0.76,2.0
1758079469.06901,1758079469.07709,0.0,0.0,0.0,-12.37589,10.8862,-3.72423,9.19,-0.45,0.76,2.0
1758079469.07199,1758079469.08709,0.0,0.0,0.0,-13.86558,9.91217,-4.23989,9.49,-0.17,0.58,2.0
1758079469.08976,1758079469.09709,0.0,0.0,0.0,-15.87093,11.45916,-4.98473,9.49,-0.17,0.58,2.0
1758079469.12026,1758079469.10709,0.0,0.0,0.0,-18.73572,15.12609,-6.47442,10.08,0.23,0.3,2.0
1758079469.12066,1758079469.11709,0.0,0.0,0.0,-20.62648,17.01685,-7.50575,10.04,0.6,0.11,2.0
1758079469.1237,1758079469.12709,0.0,0.0,0.0,-22.05888,18.62113,-8.47978,10.04,0.6,0.11,2.0
1758079469.1241,1758079469.13709,0.0,0.0,0.0,-23.0902,19.82434,-9.39651,9.86,0.73,0.11,2.0
1758079469.14116,1758079469.14709,0.0,0.0,0.0,-23.60586,20.16812,-10.59972,9.86,0.73,0.11,2.0
1758079469.14876,1758079469.15709,0.0,0.0,0.0,-22.97561,18.27736,-11.00079,9.58,0.52,0.06,2.0
1758079469.14914,1758079469.16709,0.0,0.0,0.0,-21.94428,15.64175,-11.00079,9.58,0.52,0.06,2.0
1758079469.16754,1758079469.17709,0.0,0.0,0.0,-20.62648,12.43318,-10.65701,9.43,0.0,0.07,2.0
1758079469.18311,1758079469.18709,0.0,0.0,0.0,-18.22006,8.25059,-9.85487,9.68,-0.59,0.04,2.0
1758079469.18428,1758079469.19709,0.0,0.0,0.0,-16.61578,4.18259,-9.28192,9.68,-0.59,0.04,2.0
1758079469.19932,1758079469.20709,0.0,0.0,0.0,-14.78231,-1.43239,-8.30789,9.67,-1.05,0.2,2.0
1758079469.20057,1758079469.21709,0.0,0.0,0.0,-13.06344,-7.73493,-6.24524,9.67,-1.05,0.2,2.0
1758079469.21909,1758079469.22709,0.0,0.0,0.0,-9.96947,-17.76169,-4.1253,9.72,-1.16,0.13,2.0
1758079469.22041,1758079469.23709,0.0,0.0,0.0,-7.62034,-23.31938,-1.3178,9.72,-1.16,0.13,2.0
1758079469.23514,1758079469.24709,0.0,0.0,0.0,-5.21392,-26.87172,1.03132,10.09,-1.07,-0.29,2.0
1758079469.2511,1758079469.25709,0.0,0.0,0.0,-1.60428,-29.10626,3.89611,10.09,-1.07,-0.29,2.0
1758079469.2523,1758079469.26709,0.0,0.0,0.0,1.20321,-30.48136,4.35448,10.47,-0.88,-0.56,2.0
1758079469.2692,1758079469.27709,0.0,0.0,0.0,4.23989,-32.08564,3.83882,10.17,-0.67,-0.67,2.0
1758079469.28768,1758079469.28709,0.0,0.0,0.0,6.18794,-33.74722,2.7502,10.17,-0.67,-0.67,2.0
1758079469.28858,1758079469.29709,0.0,0.0,0.0,7.67763,-35.69527,1.03132,9.76,-0.48,-0.49,2.0
1758079469.2898,1758079469.30709,0.0,0.0,0.0,7.79223,-33.86181,-0.34377,9.76,-0.48,-0.49,2.0
1758079469.30854,1758079469.31709,0.0,0.0,0.0,6.7609,-31.45539,-1.83346,10.38,-0.11,-0.03,2.0
1758079469.30976,1758079469.32709,0.0,0.0,0.0,4.52637,-34.14828,-2.7502,10.38,-0.11,-0.03,2.0
1758079469.32749,1758079469.33709,0.0,0.0,0.0,-0.97403,-48.41494,-0.51566,10.9,0.63,1.54,2.0
1758079469.3447,1758079469.34709,0.0,0.0,0.0,-5.50039,-55.40502,1.83346,11.58,1.18,3.44,2.0
1758079469.3491,1758079469.35709,0.0,0.0,0.0,-8.88085,-59.53032,5.78687,11.58,1.18,3.44,2.0
1758079469.35012,1758079469.36709,0.0,0.0,0.0,-11.34457,-60.10328,8.88085,12.6,1.23,2.89,2.0
1758079469.36796,1758079469.37709,0.0,0.0,0.0,-14.49583,-55.40502,11.97482,12.6,1.23,2.89,2.0
1758079469.36973,1758079469.38709,0.0,0.0,0.0,-14.32395,-49.61814,12.54778,11.92,0.8,3.58,2.0
1758079469.38913,1758079469.39709,0.0,0.0,0.0,-11.74564,-48.12846,12.54778,11.92,0.8,3.58,2.0
1758079469.39028,1758079469.40709,0.0,0.0,0.0,-8.136,-47.49821,10.25595,10.21,0.32,4.16,2.0
1758079469.40781,1758079469.41709,0.0,0.0,0.0,3.72423,-59.98868,7.67763,8.98,-0.16,3.8,2.0
1758079469.42336,1758079469.42709,0.0,0.0,0.0,12.83425,-61.42108,6.18794,8.98,-0.16,3.8,2.0
1758079469.42434,1758079469.43709,0.0,0.0,0.0,22.63183,-55.40502,5.27121,11.47,-0.69,1.97,2.0
1758079469.43914,1758079469.44709,0.0,0.0,0.0,35.00772,-30.02299,5.55769,11.47,-0.69,1.97,2.0
1758079469.44858,1758079469.45709,0.0,0.0,0.0,39.70598,-14.32395,4.81285,14.0,-0.71,1.07,2.0
1758079469.46418,1758079469.46709,0.0,0.0,0.0,42.22699,-1.43239,5.09932,14.0,-0.71,1.07,2.0
1758079469.46856,1758079469.47709,0.0,0.0,0.0,42.05511,11.80293,4.81285,12.87,-0.22,1.02,2.0
1758079469.48311,1758079469.48709,0.0,0.0,0.0,38.21629,30.48136,3.66693,12.87,-0.22,0.59,2.0
1758079469.48431,1758079469.49709,0.0,0.0,0.0,34.0337,40.45082,2.46372,11.5,0.47,0.59,2.0
1758079469.49913,1758079469.50709,0.0,0.0,0.0,29.22085,50.82136,0.74485,10.24,1.36,0.23,2.0
1758079469.5083,1758079469.51709,0.0,0.0,0.0,24.80907,58.26981,-0.40107,10.24,1.36,0.23,2.0
1758079469.52313,1758079469.52709,0.0,0.0,0.0,17.58981,66.00475,-3.60963,9.53,2.11,0.42,2.0
1758079469.5243,1758079469.53709,0.0,0.0,0.0,12.77696,68.98412,-5.55769,9.53,2.11,0.42,2.0
1758079469.53915,1758079469.54709,0.0,0.0,0.0,8.47978,70.53111,-7.50575,8.86,2.56,0.58,2.0
1758079469.54112,1758079469.55709,0.0,0.0,0.0,4.81285,70.58841,-8.76626,8.86,2.56,0.58,2.0
1758079469.55642,1758079469.56709,0.0,0.0,0.0,0.0573,68.41116,-10.31324,8.3,2.43,0.78,2.0
1758079469.5721,1758079469.57709,0.0,0.0,0.0,-2.29183,65.43179,-10.25595,8.11,2.02,0.99,2.0
1758079469.57523,1758079469.58709,0.0,0.0,0.0,-4.69825,62.05133,-10.54242,8.11,2.02,0.99,2.0
1758079469.59096,1758079469.59709,0.0,0.0,0.0,-6.99009,58.4417,-10.19865,8.13,1.54,1.06,2.0
1758079469.5939,1758079469.60709,0.0,0.0,0.0,-10.54242,50.363,-9.96947,8.13,1.54,1.06,2.0
1758079469.60941,1758079469.61709,0.0,0.0,0.0,-12.77696,45.43555,-9.5684,8.17,1.12,0.91,2.0
1758079469.61117,1758079469.62709,0.0,0.0,0.0,-15.12609,40.33623,-8.99544,8.17,1.12,0.91,2.0
1758079469.62781,1758079469.63709,0.0,0.0,0.0,-18.16276,34.0337,-8.136,8.4,0.87,0.9,2.0
1758079469.64316,1758079469.64709,0.0,0.0,0.0,-20.11082,23.89234,-7.50575,8.47,0.85,0.93,2.0
1758079469.6447,1758079469.65709,0.0,0.0,0.0,-22.00158,18.16276,-6.99009,8.47,0.85,0.93,2.0
1758079469.65919,1758079469.66709,0.0,0.0,0.0,-23.94964,13.75099,-6.7609,8.87,1.02,1.09,2.0
1758079469.6628,1758079469.67709,0.0,0.0,0.0,-26.47065,7.84952,-7.16197,8.87,1.02,1.09,2.0
1758079469.67897,1758079469.68709,0.0,0.0,0.0,-27.44468,5.50039,-7.67763,9.05,1.13,1.01,2.0
1758079469.68202,1758079469.69709,0.0,0.0,0.0,-27.67386,4.69825,-7.44845,9.05,1.13,1.01,2.0
1758079469.69916,1758079469.70709,0.0,0.0,0.0,-27.2155,4.69825,-7.33386,9.3,1.02,0.91,2.0
1758079469.70154,1758079469.71709,0.0,0.0,0.0,-25.7831,5.32851,-6.53172,9.3,0.73,0.75,2.0
1758079469.71881,1758079469.72709,0.0,0.0,0.0,-24.35071,6.07335,-5.78687,9.3,0.73,0.75,2.0
1758079469.72002,1758079469.73709,0.0,0.0,0.0,-22.91831,6.07335,-4.35448,9.26,0.42,0.73,2.0
1758079469.7392,1758079469.74709,0.0,0.0,0.0,-21.6578,6.18794,-3.20856,9.26,0.42,0.73,2.0
1758079469.74125,1758079469.75709,0.0,0.0,0.0,-20.16812,4.87014,-1.20321,9.26,0.22,0.61,2.0
1758079469.7565,1758079469.76709,0.0,0.0,0.0,-19.59516,3.32316,-0.11459,9.26,0.22,0.61,2.0
1758079469.76009,1758079469.77709,0.0,0.0,0.0,-19.42327,1.77617,0.57296,9.34,0.2,0.44,2.0
1758079469.77939,1758079469.78709,0.0,0.0,0.0,-19.36597,-0.17189,1.03132,9.34,0.2,0.44,2.0
1758079469.7821,1758079469.79709,0.0,0.0,0.0,-19.25138,-4.29718,1.83346,9.43,0.47,0.2,2.0
1758079469.79964,1758079469.80709,0.0,0.0,0.0,-19.59516,-8.136,2.46372,9.37,0.97,0.13,2.0
1758079469.80149,1758079469.81709,0.0,0.0,0.0,-20.62648,-12.83425,3.09397,9.37,0.97,0.13,2.0
1758079469.81651,1758079469.82709,0.0,0.0,0.0,-22.34536,-17.58981,2.97938,9.45,1.46,0.18,2.0
1758079469.83457,1758079469.83709,0.0,0.0,0.0,-26.01229,-26.01229,2.11994,9.45,1.46,0.18,2.0
1758079469.83608,1758079469.84709,0.0,0.0,0.0,-28.87707,-31.11161,0.68755,9.7,1.72,0.12,2.0
1758079469.85246,1758079469.85709,0.0,0.0,0.0,-31.62727,-36.15364,-0.74485,9.7,1.72,0.12,2.0
1758079469.85421,1758079469.86709,0.0,0.0,0.0,-35.63798,-44.9199,-2.46372,9.91,1.7,0.02,2.0
1758079469.86953,1758079469.87709,0.0,0.0,0.0,-37.92981,-51.5662,-2.6929,9.72,1.55,-0.16,2.0
1758079469.87113,1758079469.88709,0.0,0.0,0.0,-40.16434,-56.89471,-2.86479,9.72,1.55,-0.16,2.0
1758079469.88887,1758079469.89709,0.0,0.0,0.0,-42.51347,-59.47303,-3.03668,9.79,1.42,-0.54,2.0
1758079469.8897,1758079469.90709,0.0,0.0,0.0,-44.8053,-58.72818,-2.57831,9.79,1.42,-0.54,2.0
1758079469.90947,1758079469.91709,0.0,0.0,0.0,-45.20637,-55.92068,-2.23454,10.56,1.14,-0.32,2.0
1758079469.91159,1758079469.92709,0.0,0.0,0.0,-44.63341,-50.87865,-1.43239,10.56,1.14,-0.32,2.0
1758079469.92875,1758079469.93709,0.0,0.0,0.0,-42.34158,-45.49285,-0.68755,12.24,0.45,0.88,2.0
1758079469.92979,1758079469.94709,0.0,0.0,0.0,-36.7266,-46.46688,-1.03132,13.29,-0.58,2.37,2.0
1758079469.96519,1758079469.95709,0.0,0.0,0.0,-33.00237,-57.29578,-2.86479,13.29,-0.58,2.37,2.0
1758079469.96957,1758079469.96709,0.0,0.0,0.0,-28.24682,-69.38519,-5.4431,12.53,-1.08,2.22,2.0
1758079469.96997,1758079469.97709,0.0,0.0,0.0,-23.0329,-74.94289,-7.67763,12.53,-1.08,2.22,2.0
1758079469.9744,1758079469.98709,0.0,0.0,0.0,-16.3293,-66.17663,-9.5684,12.78,-0.65,1.63,2.0
1758079469.98952,1758079469.99709,0.0,0.0,0.0,-14.20935,-57.81144,-9.5684,12.78,-0.65,1.63,2.0
1758079469.9912,1758079470.00709,0.0,0.0,0.0,-15.87093,-54.02992,-9.33921,11.39,-0.08,2.63,2.0
1758079470.00698,1758079470.01709,0.0,0.0,0.0,-20.79837,-50.87865,-9.28192,11.39,-0.08,2.63,2.0
1758079470.02348,1758079470.02709,0.0,0.0,0.0,-31.56997,-42.05511,-8.65166,10.1,0.71,4.29,2.0
1758079470.02473,1758079470.03709,0.0,0.0,0.0,-39.4195,-34.66395,-7.33386,10.62,1.12,3.19,2.0
1758079470.03947,1758079470.04709,0.0,0.0,0.0,-46.52417,-26.41335,-4.87014,10.62,1.12,3.19,2.0
1758079470.04152,1758079470.05709,0.0,0.0,0.0,-54.60288,-13.75099,-0.85944,10.94,1.14,1.6,2.0
1758079470.05626,1758079470.06709,0.0,0.0,0.0,-57.86874,-5.09932,1.20321,10.94,1.14,1.6,2.0
1758079470.0735,1758079470.07709,0.0,0.0,0.0,-59.64491,4.1253,2.40642,11.22,0.92,1.1,2.0
1758079470.07442,1758079470.08709,0.0,0.0,0.0,-59.53032,13.69369,2.46372,11.22,0.92,1.1,2.0
1758079470.08952,1758079470.09709,0.0,0.0,0.0,-56.49364,25.8404,1.77617,11.34,0.52,1.45,2.0
1758079470.09289,1758079470.10709,0.0,0.0,0.0,-53.05589,32.54401,1.08862,10.68,-0.18,1.14,2.0
1758079470.1093,1758079470.11709,0.0,0.0,0.0,-49.33167,38.50277,0.34377,10.68,-0.18,1.14,2.0
1758079470.11373,1758079470.12709,0.0,0.0,0.0,-45.26366,42.74266,-0.40107,9.9,-1.04,0.65,2.0
1758079470.12904,1758079470.13709,0.0,0.0,0.0,-39.4195,46.98254,-1.14592,9.9,-1.04,0.65,2.0
1758079470.13021,1758079470.14709,0.0,0.0,0.0,-35.75257,48.58683,-1.48969,9.34,-1.63,0.4,2.0
1758079470.14941,1758079470.15709,0.0,0.0,0.0,-32.77319,49.67545,-2.00535,9.34,-1.63,0.4,2.0
1758079470.15409,1758079470.16709,0.0,0.0,0.0,-30.02299,50.47758,-2.29183,9.02,-1.75,0.53,2.0
1758079470.16926,1758079470.17709,0.0,0.0,0.0,-26.47065,49.21708,-2.86479,8.73,-1.4,0.56,2.0
1758079470.17391,1758079470.18709,0.0,0.0,0.0,-24.4653,49.27437,-3.20856,8.73,-1.4,0.56,2.0
1758079470.18927,1758079470.19709,0.0,0.0,0.0,-22.63183,47.78468,-3.55234,8.73,-0.67,0.67,2.0
1758079470.19445,1758079470.20709,0.0,0.0,0.0,-21.14215,45.60744,-3.60963,8.73,-0.67,0.67,2.0
1758079470.20947,1758079470.21709,0.0,0.0,0.0,-19.42327,41.99781,-3.89611,8.55,-0.03,0.74,2.0
1758079470.21329,1758079470.22709,0.0,0.0,0.0,-18.27736,38.15899,-3.72423,8.55,-0.03,0.74,2.0
1758079470.22901,1758079470.23709,0.0,0.0,0.0,-17.24603,34.37747,-3.55234,8.42,0.29,0.79,2.0
1758079470.23102,1758079470.24709,0.0,0.0,0.0,-15.69904,31.11161,-3.38045,8.42,0.29,0.79,2.0
1758079470.247,1758079470.25709,0.0,0.0,0.0,-14.83961,24.4653,-3.38045,8.62,0.27,0.81,2.0
1758079470.24975,1758079470.26709,0.0,0.0,0.0,-14.32395,19.70975,-3.26586,8.79,-0.01,0.7,2.0
1758079470.2693,1758079470.27709,0.0,0.0,0.0,-13.5791,16.38659,-3.60963,8.79,-0.01,0.7,2.0
1758079470.27366,1758079470.28709,0.0,0.0,0.0,-13.23533,12.71966,-4.0107,9.18,-0.3,0.54,2.0
1758079470.28923,1758079470.29709,0.0,0.0,0.0,-13.06344,11.45916,-4.18259,9.18,-0.3,0.54,2.0
1758079470.31927,1758079470.30709,0.0,0.0,0.0,-13.34992,12.54778,-4.81285,9.47,-0.42,0.51,2.0
1758079470.3239,1758079470.31709,0.0,0.0,0.0,-14.09476,15.06879,-5.61499,9.47,-0.42,0.51,2.0
1758079470.33024,1758079470.32709,0.0,0.0,0.0,-15.41257,19.59516,-7.79223,9.78,-0.28,0.62,2.0
1758079470.33452,1758079470.33709,0.0,0.0,0.0,-16.21471,21.6578,-9.39651,9.75,0.01,0.71,2.0
1758079470.33971,1758079470.34709,0.0,0.0,0.0,-16.95955,22.00158,-10.8862,9.75,0.01,0.71,2.0
1758079470.36481,1758079470.35709,0.0,0.0,0.0,-16.84496,22.05888,-11.80293,9.52,0.22,0.44,2.0
1758079470.36922,1758079470.36709,0.0,0.0,0.0,-15.92823,19.99623,-12.204,9.52,0.22,0.44,2.0
1758079470.36978,1758079470.37709,0.0,0.0,0.0,-14.61043,18.16276,-11.86023,9.42,0.14,0.11,2.0
1758079470.37135,1758079470.38709,0.0,0.0,0.0,-12.60507,15.87093,-11.00079,9.42,0.14,0.11,2.0
1758079470.38955,1758079470.39709,0.0,0.0,0.0,-10.08406,12.204,-9.68299,9.53,-0.28,0.16,2.0
1758079470.39372,1758079470.40709,0.0,0.0,0.0,-5.84417,4.52637,-6.58902,9.47,-0.95,0.24,2.0
1758079470.40959,1758079470.41709,0.0,0.0,0.0,-2.7502,-0.85944,-4.35448,9.47,-0.95,0.24,2.0
1758079470.41127,1758079470.42709,0.0,0.0,0.0,0.22918,-6.18794,-1.83346,9.65,-1.49,0.38,2.0
1758079470.42784,1758079470.43709,0.0,0.0,0.0,2.92208,-12.37589,1.43239,9.65,-1.49,0.38,2.0
1758079470.44324,1758079470.44709,0.0,0.0,0.0,5.84417,-27.50197,3.38045,9.61,-1.51,0.3,2.0
1758079470.4456,1758079470.45709,0.0,0.0,0.0,6.7609,-38.78925,4.64096,9.61,-1.51,0.3,2.0
1758079470.46054,1758079470.46709,0.0,0.0,0.0,8.02141,-43.37291,6.07335,9.62,-1.14,-0.14,2.0
1758079470.46809,1758079470.47709,0.0,0.0,0.0,8.88085,-40.68,7.84952,9.62,-1.14,-0.14,2.0
1758079470.48348,1758079470.48709,0.0,0.0,0.0,9.11003,-33.05967,8.136,10.95,-0.74,-0.51,2.0
1758079470.48447,1758079470.49709,0.0,0.0,0.0,9.33921,-25.72581,8.36518,11.19,-0.55,-0.22,2.0
1758079470.49933,1758079470.50709,0.0,0.0,0.0,9.33921,-21.7151,7.50575,11.19,-0.55,-0.22,2.0
1758079470.50443,1758079470.51709,0.0,0.0,0.0,7.96411,-19.82434,5.78687,10.63,-0.28,0.6,2.0
1758079470.51926,1758079470.52709,0.0,0.0,0.0,6.13065,-19.99623,5.32851,10.63,-0.28,0.6,2.0
1758079470.52478,1758079470.53709,0.0,0.0,0.0,4.23989,-22.28806,6.07335,11.17,0.18,1.24,2.0
1758079470.53926,1758079470.54709,0.0,0.0,0.0,1.48969,-30.30947,6.70361,11.17,0.18,1.24,2.0
1758079470.54531,1758079470.55709,0.0,0.0,0.0,-2.06265,-54.25911,9.4538,11.05,0.82,1.74,2.0
1758079470.56052,1758079470.56709,0.0,0.0,0.0,-5.09932,-67.26525,12.37589,10.26,1.05,2.11,2.0
1758079470.56821,1758079470.57709,0.0,0.0,0.0,-7.67763,-72.0208,15.69904,10.26,1.05,2.11,2.0
1758079470.58327,1758079470.58709,0.0,0.0,0.0,-9.5684,-71.10406,18.9649,11.12,0.97,1.78,2.0
1758079470.58447,1758079470.59709,0.0,0.0,0.0,-11.63104,-65.66096,20.62648,11.12,0.97,1.78,2.0
1758079470.59956,1758079470.60709,0.0,0.0,0.0,-11.80293,-61.87944,20.3973,10.84,0.83,2.44,2.0
1758079470.60162,1758079470.61709,0.0,0.0,0.0,-10.59972,-57.81144,19.07949,10.84,0.83,2.44,2.0
1758079470.61738,1758079470.62709,0.0,0.0,0.0,-7.33386,-52.36834,17.36062,10.31,0.81,3.85,2.0
1758079470.63336,1758079470.63709,0.0,0.0,0.0,0.11459,-41.94051,14.83961,10.48,0.9,3.62,2.0
1758079470.63453,1758079470.64709,0.0,0.0,0.0,5.95876,-33.51803,12.71966,10.48,0.9,3.62,2.0
1758079470.64958,1758079470.65709,0.0,0.0,0.0,12.204,-24.35071,9.85487,10.99,0.63,2.43,2.0
1758079470.65134,1758079470.66709,0.0,0.0,0.0,19.88164,-11.97482,4.64096,10.99,0.63,2.43,2.0
1758079470.66817,1758079470.67709,0.0,0.0,0.0,22.91831,-1.66158,1.48969,11.71,0.26,1.34,2.0
1758079470.68333,1758079470.68709,0.0,0.0,0.0,23.83505,9.74028,-1.08862,11.71,0.26,1.34,2.0
1758079470.68877,1758079470.69709,0.0,0.0,0.0,23.37668,22.63183,-3.20856,12.48,0.1,0.92,2.0
1758079470.70328,1758079470.70709,0.0,0.0,0.0,20.51189,40.50812,-4.98473,12.48,0.1,0.4,2.0
1758079470.70974,1758079470.71709,0.0,0.0,0.0,17.93358,52.02457,-5.4431,11.85,0.34,0.4,2.0
1758079470.7132,1758079470.72709,0.0,0.0,0.0,14.66772,60.61894,-6.53172,10.8,1.06,0.31,2.0
1758079470.7296,1758079470.73709,0.0,0.0,0.0,11.51645,65.71826,-7.50575,10.8,1.06,0.31,2.0
1758079470.73129,1758079470.74709,0.0,0.0,0.0,7.39116,67.03606,-8.0787,9.72,1.89,0.2,2.0
1758079470.75032,1758079470.75709,0.0,0.0,0.0,4.81285,67.15066,-8.136,9.72,1.89,0.2,2.0
1758079470.7547,1758079470.76709,0.0,0.0,0.0,2.46372,65.89015,-8.136,9.17,2.3,0.37,2.0
1758079470.7707,1758079470.77709,0.0,0.0,0.0,0.40107,63.42643,-8.42248,9.17,2.3,0.37,2.0
1758079470.77479,1758079470.78709,0.0,0.0,0.0,-2.06265,57.41038,-8.25059,8.45,2.2,0.53,2.0
1758079470.79366,1758079470.79709,0.0,0.0,0.0,-3.66693,53.68615,-8.47978,8.12,1.78,0.74,2.0
1758079470.79472,1758079470.80709,0.0,0.0,0.0,-5.21392,50.59217,-8.93814,8.12,1.78,0.74,2.0
1758079470.79959,1758079470.81709,0.0,0.0,0.0,-6.8182,47.26902,-9.22462,8.28,1.3,0.82,2.0
1758079470.81639,1758079470.82709,0.0,0.0,0.0,-9.68299,40.62271,-10.02676,8.28,1.3,0.82,2.0
1758079470.83467,1758079470.83709,0.0,0.0,0.0,-11.74564,35.98175,-10.54242,8.31,0.92,0.95,2.0
1758079470.8391,1758079470.84709,0.0,0.0,0.0,-13.86558,31.56997,-10.8862,8.31,0.92,0.95,2.0
1758079470.83974,1758079470.85709,0.0,0.0,0.0,-17.01685,27.10091,-11.00079,8.56,0.74,0.93,2.0
1758079470.85932,1758079470.86709,0.0,0.0,0.0,-18.9649,20.3973,-10.71431,8.66,0.73,1.0,2.0
1758079470.8608,1758079470.87709,0.0,0.0,0.0,-20.85567,15.87093,-10.25595,8.66,0.73,1.0,2.0
1758079470.88355,1758079470.88709,0.0,0.0,0.0,-22.34536,11.57375,-9.4538,8.79,0.84,0.98,2.0
1758079470.89416,1758079470.89709,0.0,0.0,0.0,-23.83505,7.50575,-8.0787,8.79,0.84,0.98,2.0
1758079470.89817,1758079470.90709,0.0,0.0,0.0,-24.12152,5.50039,-7.21927,9.06,0.87,0.83,2.0
1758079470.89991,1758079470.91709,0.0,0.0,0.0,-23.89234,5.15662,-6.18794,9.06,0.87,0.83,2.0
1758079470.91959,1758079470.92709,0.0,0.0,0.0,-22.97561,6.99009,-5.21392,9.36,0.79,0.62,2.0
1758079471.01328,1758079470.93709,0.0,0.0,0.0,-20.51189,10.02676,-3.72423,9.57,0.62,0.61,2.0
1758079471.01886,1758079470.94709,0.0,0.0,0.0,-18.44924,12.2613,-2.92208,9.57,0.62,0.61,2.0
1758079471.02258,1758079470.95709,0.0,0.0,0.0,-16.10011,13.80828,-2.00535,9.46,0.39,0.61,2.0
1758079471.02478,1758079470.96709,0.0,0.0,0.0,-14.09476,13.5218,-1.20321,9.46,0.39,0.61,2.0
1758079471.02974,1758079470.97709,0.0,0.0,0.0,-11.51645,12.2613,-0.40107,9.19,0.3,0.54,2.0
1758079471.03432,1758079470.98709,0.0,0.0,0.0,-10.31324,9.62569,-0.11459,9.19,0.3,0.54,2.0
1758079471.035,1758079470.99709,0.0,0.0,0.0,-9.68299,6.24524,0.0573,9.13,0.39,0.39,2.0
1758079471.03855,1758079471.00709,0.0,0.0,0.0,-9.68299,3.20856,0.22918,9.13,0.39,0.39,2.0
1758079471.03926,1758079471.01709,0.0,0.0,0.0,-11.00079,-2.57831,0.0573,9.36,0.69,0.28,2.0
1758079471.04435,1758079471.02709,0.0,0.0,0.0,-12.60507,-7.39116,-0.0573,9.23,1.18,0.24,2.0
1758079471.05039,1758079471.03709,0.0,0.0,0.0,-14.49583,-12.77696,-0.0573,9.23,1.18,0.24,2.0
1758079471.07425,1758079471.04709,0.0,0.0,0.0,-16.50119,-19.59516,-0.45837,9.07,1.63,0.16,2.0
1758079471.07502,1758079471.05709,0.0,0.0,0.0,-19.07949,-34.43476,-0.85944,9.07,1.63,0.16,2.0
1758079471.07618,1758079471.06709,0.0,0.0,0.0,-20.85567,-43.25832,-1.77617,8.94,1.8,-0.19,2.0
1758079471.07843,1758079471.07709,0.0,0.0,0.0,-22.34536,-49.50356,-2.92208,8.94,1.8,-0.19,2.0
1758079471.07995,1758079471.08709,0.0,0.0,0.0,-24.5226,-54.60288,-4.69825,9.64,1.63,-0.23,2.0
1758079471.08038,1758079471.09709,0.0,0.0,0.0,-26.52795,-55.11855,-4.52637,10.39,1.46,-0.18,2.0
1758079471.09634,1758079471.10709,0.0,0.0,0.0,-28.70519,-51.6235,-4.1253,10.39,1.46,-0.18,2.0
1758079471.1136,1758079471.11709,0.0,0.0,0.0,-30.76784,-45.14908,-3.32316,11.21,1.23,-0.15,2.0
1758079471.11459,1758079471.12709,0.0,0.0,0.0,-32.6013,-26.69983,-1.94806,11.21,1.23,-0.15,2.0
1758079471.12968,1758079471.13709,0.0,0.0,0.0,-33.46074,-18.50654,-1.20321,11.99,1.21,0.52,2.0
1758079471.13058,1758079471.14709,0.0,0.0,0.0,-32.54401,-20.22541,-0.85944,11.99,1.21,0.52,2.0
1758079471.14805,1758079471.15709,0.0,0.0,0.0,-30.53865,-30.99702,-2.34913,11.45,1.04,1.31,2.0
1758079471.16334,1758079471.16709,0.0,0.0,0.0,-25.72581,-50.363,-4.87014,11.55,0.55,1.73,2.0
1758079471.16889,1758079471.17709,0.0,0.0,0.0,-22.57454,-59.12925,-7.73493,11.55,0.55,1.73,2.0
1758079471.18419,1758079471.18709,0.0,0.0,0.0,-19.53786,-61.02001,-9.4538,12.73,-0.06,1.12,2.0
1758079471.18864,1758079471.19709,0.0,0.0,0.0,-16.3293,-53.11319,-10.71431,12.73,-0.06,1.12,2.0
1758079471.20447,1758079471.20709,0.0,0.0,0.0,-10.19865,-41.08107,-7.62034,13.34,-0.22,1.57,2.0
1758079471.20874,1758079471.21709,0.0,0.0,0.0,-6.99009,-36.61201,-3.95341,13.34,-0.22,1.57,2.0
1758079471.22366,1758079471.22709,0.0,0.0,0.0,-5.84417,-33.86181,-1.66158,11.24,-0.06,2.27,2.0
1758079471.22496,1758079471.23709,0.0,0.0,0.0,-7.33386,-32.77319,-0.40107,11.24,-0.06,2.27,2.0
1758079471.23976,1758079471.24709,0.0,0.0,0.0,-14.32395,-31.62727,-1.3178,9.81,0.44,2.54,2.0
1758079471.2406,1758079471.25709,0.0,0.0,0.0,-20.62648,-31.45539,-2.7502,9.05,0.85,3.63,2.0
1758079471.25703,1758079471.26709,0.0,0.0,0.0,-27.96034,-30.99702,-4.52637,9.05,0.85,3.63,2.0
1758079471.26489,1758079471.27709,0.0,0.0,0.0,-39.87786,-29.27814,-5.90147,9.16,1.35,3.1,2.0
1758079471.27973,1758079471.28709,0.0,0.0,0.0,-47.03984,-26.41335,-6.13065,9.16,1.35,3.1,2.0
1758079471.28483,1758079471.29709,0.0,0.0,0.0,-52.71212,-21.60051,-5.95876,10.15,1.75,2.14,2.0
1758079471.29936,1758079471.30709,0.0,0.0,0.0,-56.83742,-12.77696,-5.95876,10.15,1.75,2.14,2.0
1758079471.30465,1758079471.31709,0.0,0.0,0.0,-59.75951,2.7502,-6.24524,11.46,1.73,1.45,2.0
1758079471.31939,1758079471.32709,0.0,0.0,0.0,-59.12925,11.22997,-6.47442,11.7,1.17,1.36,2.0
1758079471.32497,1758079471.33709,0.0,0.0,0.0,-56.952,18.27736,-6.47442,11.7,1.17,1.36,2.0
1758079471.33941,1758079471.34709,0.0,0.0,0.0,-53.17049,25.21014,-5.72958,11.08,-0.01,1.0,2.0
1758079471.34468,1758079471.35709,0.0,0.0,0.0,-45.89392,33.80451,-3.66693,11.08,-0.01,1.0,2.0
1758079471.35968,1758079471.36709,0.0,0.0,0.0,-40.85189,38.56006,-2.23454,10.44,-1.37,0.42,2.0
1758079471.36057,1758079471.37709,0.0,0.0,0.0,-35.86716,42.68536,-0.74485,10.44,-1.37,0.42,2.0
1758079471.37653,1758079471.38709,0.0,0.0,0.0,-30.93972,46.46688,0.45837,10.0,-2.1,0.47,2.0
1758079471.37978,1758079471.39709,0.0,0.0,0.0,-24.75178,49.15978,1.71887,9.56,-1.92,0.52,2.0
1758079471.39898,1758079471.40709,0.0,0.0,0.0,-21.14215,49.21708,2.06265,9.56,-1.92,0.52,2.0
1758079471.40022,1758079471.41709,0.0,0.0,0.0,-18.33465,49.84733,2.46372,9.2,-1.15,0.58,2.0
1758079471.4198,1758079471.42709,0.0,0.0,0.0,-15.87093,50.3057,2.63561,9.2,-1.15,0.58,2.0
1758079471.42147,1758079471.43709,0.0,0.0,0.0,-13.17803,47.95657,2.23454,8.99,-0.27,0.63,2.0
1758079471.43673,1758079471.44709,0.0,0.0,0.0,-12.37589,45.60744,1.3178,8.99,-0.27,0.63,2.0
1758079471.45425,1758079471.45709,0.0,0.0,0.0,-11.57375,41.94051,1.14592,8.65,0.33,0.89,2.0
1758079471.45524,1758079471.46709,0.0,0.0,0.0,-11.17268,37.75792,0.57296,8.65,0.33,0.89,2.0
1758079471.47142,1758079471.47709,0.0,0.0,0.0,-11.11538,31.79916,0.0,8.34,0.53,0.92,2.0
1758079471.47454,1758079471.48709,0.0,0.0,0.0,-10.8862,27.33009,-0.11459,8.23,0.41,0.87,2.0
1758079471.48952,1758079471.49709,0.0,0.0,0.0,-10.65701,23.60586,-0.45837,8.23,0.41,0.87,2.0
1758079471.49065,1758079471.50709,0.0,0.0,0.0,-10.37054,19.42327,-0.57296,8.52,0.12,0.92,2.0
1758079471.50806,1758079471.51709,0.0,0.0,0.0,-9.91217,16.50119,-0.85944,8.52,0.12,0.92,2.0
1758079471.52341,1758079471.52709,0.0,0.0,0.0,-9.68299,12.71966,-0.97403,8.9,-0.14,0.76,2.0
1758079471.52489,1758079471.53709,0.0,0.0,0.0,-9.5684,9.33921,-1.08862,8.9,-0.14,0.76,2.0
1758079471.53971,1758079471.54709,0.0,0.0,0.0,-9.62569,6.13065,-1.3751,9.31,-0.28,0.58,2.0
1758079471.54464,1758079471.55709,0.0,0.0,0.0,-9.4538,6.18794,-1.3751,9.81,-0.22,0.36,2.0
1758079471.55945,1758079471.56709,0.0,0.0,0.0,-9.5684,8.93814,-1.71887,9.81,-0.22,0.36,2.0
1758079471.56065,1758079471.57709,0.0,0.0,0.0,-9.33921,14.03747,-2.57831,10.26,-0.04,0.35,2.0
1758079471.57734,1758079471.58709,0.0,0.0,0.0,-8.70896,21.6578,-4.46907,10.26,-0.04,0.35,2.0
1758079471.59377,1758079471.59709,0.0,0.0,0.0,-7.73493,25.7831,-5.72958,10.28,0.13,0.56,2.0
1758079471.59462,1758079471.60709,0.0,0.0,0.0,-5.90147,27.84575,-6.70361,10.28,0.13,0.56,2.0
1758079471.60974,1758079471.61709,0.0,0.0,0.0,-3.66693,27.1582,-6.58902,10.01,0.13,0.47,2.0
1758079471.6106,1758079471.62709,0.0,0.0,0.0,0.57296,19.82434,-5.55769,9.43,-0.18,0.2,2.0
1758079471.62704,1758079471.63709,0.0,0.0,0.0,3.95341,13.5791,-4.1253,9.43,-0.18,0.2,2.0
1758079471.64327,1758079471.64709,0.0,0.0,0.0,7.33386,7.84952,-2.00535,9.27,-0.74,-0.11,2.0
1758079471.64442,1758079471.65709,0.0,0.0,0.0,10.59972,2.29183,0.74485,9.27,-0.74,-0.11,2.0
1758079471.65972,1758079471.66709,0.0,0.0,0.0,14.61043,-11.63104,2.29183,8.98,-1.28,-0.12,2.0
1758079471.66063,1758079471.67709,0.0,0.0,0.0,15.98552,-24.92367,3.09397,8.98,-1.28,-0.12,2.0
1758079471.67641,1758079471.68709,0.0,0.0,0.0,17.93358,-33.05967,3.66693,8.64,-1.32,-0.26,2.0
1758079471.69355,1758079471.69709,0.0,0.0,0.0,20.05352,-35.2942,4.92744,8.64,-1.32,-0.26,2.0
1758079471.69443,1758079471.70709,0.0,0.0,0.0,21.42862,-26.01229,7.50575,9.98,-0.86,-0.22,2.0
1758079471.70975,1758079471.71709,0.0,0.0,0.0,22.40265,-15.0115,7.39116,11.06,-0.39,0.08,2.0
1758079471.71061,1758079471.72709,0.0,0.0,0.0,23.26209,-9.22462,6.13065,11.06,-0.39,0.08,2.0
1758079471.72861,1758079471.73709,0.0,0.0,0.0,23.94964,-16.50119,1.60428,9.81,0.23,0.68,2.0
1758079471.72988,1758079471.74709,0.0,0.0,0.0,25.21014,-32.20023,0.34377,9.81,0.23,0.68,2.0
1758079471.74708,1758079471.75709,0.0,0.0,0.0,27.44468,-50.47758,1.3751,8.42,0.36,0.35,2.0
1758079471.76253,1758079471.76709,0.0,0.0,0.0,27.2155,-61.07731,4.23989,8.42,0.36,0.35,2.0
1758079471.76371,1758079471.77709,0.0,0.0,0.0,25.43933,-64.57235,12.83425,10.84,0.28,0.48,2.0
1758079471.77853,1758079471.78709,0.0,0.0,0.0,22.34536,-68.64035,18.44924,12.8,0.46,2.02,2.0
1758079471.77994,1758079471.79709,0.0,0.0,0.0,18.62113,-70.87489,23.66316,12.8,0.46,2.02,2.0
1758079471.79656,1758079471.80709,0.0,0.0,0.0,14.61043,-68.23928,26.69983,13.34,0.98,3.58,2.0
1758079471.8126,1758079471.81709,0.0,0.0,0.0,6.53172,-58.49899,23.60586,13.34,0.98,3.58,2.0
1758079471.81476,1758079471.82709,0.0,0.0,0.0,2.06265,-56.89471,19.76705,12.19,1.55,2.84,2.0
1758079471.82954,1758079471.83709,0.0,0.0,0.0,-0.68755,-54.60288,16.3293,12.19,1.55,2.84,2.0
1758079471.83185,1758079471.84709,0.0,0.0,0.0,-1.08862,-48.64412,13.5218,10.13,1.53,3.73,2.0
1758079471.84753,1758079471.85709,0.0,0.0,0.0,3.49504,-40.7946,10.19865,9.46,1.19,3.51,2.0
1758079471.86376,1758079471.86709,0.0,0.0,0.0,8.93814,-36.7266,8.47978,9.46,1.19,3.51,2.0
1758079471.86503,1758079471.87709,0.0,0.0,0.0,15.12609,-29.10626,6.35983,9.93,0.64,2.61,2.0
1758079471.87975,1758079471.88709,0.0,0.0,0.0,24.92367,-16.61578,4.46907,9.93,0.64,2.61,2.0
