timeStamp,timeStampAlign,roll,pitch,yaw,gyro_x,gyro_y,gyro_z,acc_x,acc_y,acc_z,flag_num
1758088670.98289,1758088668.26268,0.0,0.0,0.0,-10.94349,49.15978,16.90226,15.09,-1.14,0.78,4.0
1758088670.98491,1758088668.27268,0.0,0.0,0.0,-6.18794,42.91454,15.12609,14.37,-2.08,0.97,4.0
1758088671.00039,1758088668.28268,0.0,0.0,0.0,-3.55234,31.51268,14.38124,14.37,-2.08,0.97,4.0
1758088671.00343,1758088668.29268,0.0,0.0,0.0,-0.51566,21.14215,14.32395,12.96,-1.79,1.4,4.0
1758088671.02038,1758088668.30268,0.0,0.0,0.0,2.97938,19.70975,12.204,12.96,-1.79,1.4,4.0
1758088671.02296,1758088668.31268,0.0,0.0,0.0,9.5684,38.21629,12.60507,12.62,-1.38,1.02,4.0
1758088671.04019,1758088668.32268,0.0,0.0,0.0,13.75099,46.81066,11.97482,11.25,-1.19,0.86,4.0
1758088671.04463,1758088668.33268,0.0,0.0,0.0,17.01685,43.88857,10.37054,11.25,-1.19,0.86,4.0
1758088671.06017,1758088668.34268,0.0,0.0,0.0,21.14215,29.33544,7.50575,7.75,-0.85,1.07,4.0
1758088671.06295,1758088668.35268,0.0,0.0,0.0,23.20479,20.16812,5.32851,7.75,-0.85,1.07,4.0
1758088671.08057,1758088668.36268,0.0,0.0,0.0,24.63719,13.5218,3.95341,7.27,-0.57,0.45,4.0
1758088671.08164,1758088668.37268,0.0,0.0,0.0,24.92367,8.93814,2.6929,7.27,-0.57,0.45,4.0
1758088671.09771,1758088668.38268,0.0,0.0,0.0,24.23611,5.72958,1.66158,7.6,-0.34,0.81,4.0
1758088671.11423,1758088668.39268,0.0,0.0,0.0,22.68913,5.55769,0.85944,7.8,-0.13,1.1,4.0
1758088671.11578,1758088668.40268,0.0,0.0,0.0,20.74107,5.95876,0.45837,7.8,-0.13,1.1,4.0
1758088671.13039,1758088668.41268,0.0,0.0,0.0,18.22006,6.18794,0.22918,7.54,0.15,1.0,4.0
1758088671.13162,1758088668.42268,0.0,0.0,0.0,14.43854,6.47442,0.51566,7.54,0.15,1.0,4.0
1758088671.14948,1758088668.43268,0.0,0.0,0.0,12.08941,6.47442,1.3178,7.11,0.26,0.8,4.0
1758088671.16571,1758088668.44268,0.0,0.0,0.0,9.96947,9.05273,2.40642,7.11,0.26,0.8,4.0
1758088671.16664,1758088668.45268,0.0,0.0,0.0,8.25059,13.5218,3.72423,7.1,0.23,0.47,4.0
1758088671.18168,1758088668.46268,0.0,0.0,0.0,5.55769,20.3973,6.7609,7.12,0.14,0.35,4.0
1758088671.18266,1758088668.47268,0.0,0.0,0.0,3.95341,23.20479,7.96411,7.12,0.14,0.35,4.0
1758088671.1976,1758088668.48268,0.0,0.0,0.0,3.66693,20.62648,11.80293,6.74,0.01,0.27,4.0
1758088671.2158,1758088668.49268,0.0,0.0,0.0,2.6929,16.04282,13.17803,6.74,0.01,0.27,4.0
1758088671.21692,1758088668.50268,0.0,0.0,0.0,1.08862,0.85944,18.33465,6.48,-0.02,-0.06,4.0
1758088671.23149,1758088668.51268,0.0,0.0,0.0,0.11459,-3.66693,22.63183,6.48,-0.02,-0.06,4.0
1758088671.23428,1758088668.52268,0.0,0.0,0.0,-1.14592,-2.57831,26.06958,7.73,-0.14,-0.3,4.0
1758088671.24951,1758088668.53268,0.0,0.0,0.0,-4.52637,-1.83346,29.67921,7.73,-0.14,-0.3,4.0
1758088671.26553,1758088668.54268,0.0,0.0,0.0,-6.99009,-4.69825,30.76784,8.67,-0.04,-0.14,4.0
1758088671.2676,1758088668.55268,0.0,0.0,0.0,-9.22462,-8.76626,30.65324,8.39,0.03,-0.06,4.0
1758088671.28358,1758088668.56268,0.0,0.0,0.0,-11.17268,-13.40721,29.33544,8.39,0.03,-0.06,4.0
1758088671.2845,1758088668.57268,0.0,0.0,0.0,-12.89155,-18.50654,24.29341,8.01,-0.07,0.0,4.0
1758088671.29947,1758088668.58268,0.0,0.0,0.0,-13.17803,-18.22006,19.48057,8.01,-0.07,0.0,4.0
1758088671.3158,1758088668.59268,0.0,0.0,0.0,-13.34992,-14.38124,14.03747,8.47,-0.16,0.02,4.0
1758088671.31621,1758088668.60268,0.0,0.0,0.0,-13.12073,-8.59437,8.59437,8.47,-0.16,0.02,4.0
1758088671.33333,1758088668.61268,0.0,0.0,0.0,-12.77696,-0.68755,2.57831,9.37,-0.23,0.04,4.0
1758088671.33453,1758088668.62268,0.0,0.0,0.0,-12.60507,1.48969,1.08862,9.87,-0.36,0.18,4.0
1758088671.34975,1758088668.63268,0.0,0.0,0.0,-12.60507,0.17189,1.48969,9.87,-0.36,0.18,4.0
1758088671.38963,1758088668.64268,0.0,0.0,0.0,-12.60507,-1.66158,3.49504,10.19,-0.54,0.03,4.0
1758088671.3901,1758088668.65268,0.0,0.0,0.0,-12.49048,-5.72958,8.65166,10.19,-0.54,0.03,4.0
1758088671.39307,1758088668.66268,0.0,0.0,0.0,-12.60507,-7.84952,12.49048,10.45,-0.87,-0.17,4.0
1758088671.39447,1758088668.67268,0.0,0.0,0.0,-12.2613,-8.70896,15.58445,10.45,-0.87,-0.17,4.0
1758088671.39555,1758088668.68268,0.0,0.0,0.0,-11.74564,-8.99544,17.93358,10.29,-1.25,-0.15,4.0
1758088671.41058,1758088668.69268,0.0,0.0,0.0,-10.48513,-8.0787,19.42327,10.0,-1.42,-0.47,4.0
1758088671.41333,1758088668.70268,0.0,0.0,0.0,-9.11003,-7.04738,18.79302,10.0,-1.42,-0.47,4.0
1758088671.42972,1758088668.71268,0.0,0.0,0.0,-7.62034,-6.41713,17.01685,10.03,-1.39,-0.7,4.0
1758088671.43402,1758088668.72268,0.0,0.0,0.0,-5.95876,-6.87549,12.43318,10.03,-1.39,-0.7,4.0
1758088671.45068,1758088668.73268,0.0,0.0,0.0,-3.26586,-9.91217,8.65166,9.84,-1.47,-0.57,4.0
1758088671.45477,1758088668.74268,0.0,0.0,0.0,-1.60428,-14.03747,4.81285,9.84,-1.47,-0.57,4.0
1758088671.47043,1758088668.75268,0.0,0.0,0.0,-0.11459,-18.73572,1.66158,9.33,-1.65,-0.37,4.0
1758088671.47397,1758088668.76268,0.0,0.0,0.0,1.08862,-23.89234,-1.3751,9.33,-1.65,-0.37,4.0
1758088671.48985,1758088668.77268,0.0,0.0,0.0,1.94806,-26.69983,-1.83346,8.66,-1.5,-0.36,4.0
1758088671.50588,1758088668.78268,0.0,0.0,0.0,2.11994,-30.02299,-1.83346,7.72,-1.08,-0.53,4.0
1758088671.50627,1758088668.79268,0.0,0.0,0.0,2.29183,-32.14294,-1.48969,7.72,-1.08,-0.53,4.0
1758088671.51646,1758088668.80268,0.0,0.0,0.0,1.03132,-30.88243,-1.43239,7.01,-0.63,-0.4,4.0
1758088671.55381,1758088668.81268,0.0,0.0,0.0,0.40107,-27.50197,-1.66158,7.01,-0.63,-0.4,4.0
1758088671.55468,1758088668.82268,0.0,0.0,0.0,-0.85944,-24.12152,-3.49504,6.59,-0.3,0.02,4.0
1758088671.55587,1758088668.83268,0.0,0.0,0.0,-2.06265,-24.4653,-5.55769,6.59,-0.3,0.02,4.0
1758088671.55734,1758088668.84268,0.0,0.0,0.0,-4.1253,-26.81443,-11.00079,6.46,-0.27,2.67,4.0
1758088671.5729,1758088668.85268,0.0,0.0,0.0,-6.87549,-28.41871,-15.35527,9.42,-0.45,5.1,4.0
1758088671.57461,1758088668.86268,0.0,0.0,0.0,-10.25595,-18.56383,-20.45459,9.42,-0.45,5.1,4.0
1758088671.58969,1758088668.87268,0.0,0.0,0.0,-10.65701,-11.91752,-27.96034,14.96,-0.78,6.21,4.0
1758088671.59081,1758088668.88268,0.0,0.0,0.0,-5.95876,-51.5662,-36.61201,14.96,-0.78,6.21,4.0
1758088671.60866,1758088668.89268,0.0,0.0,0.0,-9.05273,-97.05905,-43.65939,14.24,-3.79,5.31,4.0
1758088671.61275,1758088668.90268,0.0,0.0,0.0,-12.2613,-98.49145,-45.55015,14.24,-3.79,5.31,4.0
1758088671.62886,1758088668.91268,0.0,0.0,0.0,-13.17803,-69.15601,-42.51347,18.36,-4.98,-1.66,4.0
1758088671.63092,1758088668.92268,0.0,0.0,0.0,-13.00614,-20.62648,-34.26288,18.32,-2.19,-1.69,4.0
1758088671.6473,1758088668.93268,0.0,0.0,0.0,-10.8289,4.92744,-26.52795,18.32,-2.19,-1.69,4.0
1758088671.6499,1758088668.94268,0.0,0.0,0.0,-10.08406,17.53251,-19.19409,14.53,-0.58,0.56,4.0
1758088671.66526,1758088668.95268,0.0,0.0,0.0,-11.86023,22.51724,-10.19865,14.53,-0.58,0.56,4.0
1758088671.68071,1758088668.96268,0.0,0.0,0.0,-14.09476,29.96569,-7.33386,14.07,-0.16,0.73,4.0
1758088671.68696,1758088668.97268,0.0,0.0,0.0,-15.98552,40.33623,-7.84952,14.07,-0.16,0.73,4.0
1758088671.70279,1758088668.98268,0.0,0.0,0.0,-17.01685,47.61279,-9.96947,15.4,-0.84,0.1,4.0
1758088671.70448,1758088668.99268,0.0,0.0,0.0,-17.13144,54.25911,-14.66772,15.4,-0.84,0.1,4.0
1758088671.72002,1758088669.00268,0.0,0.0,0.0,-16.3293,56.78012,-17.24603,14.07,-1.6,0.19,4.0
1758088671.82098,1758088669.01268,0.0,0.0,0.0,-15.24068,58.3844,-18.73572,12.1,-2.24,-0.39,4.0
1758088671.82471,1758088669.02268,0.0,0.0,0.0,-13.06344,57.29578,-18.33465,12.1,-2.24,-0.39,4.0
1758088671.8289,1758088669.03268,0.0,0.0,0.0,-10.19865,51.79538,-16.55848,10.34,-2.38,-0.28,4.0
1758088671.83029,1758088669.04268,0.0,0.0,0.0,-8.136,45.83662,-14.43854,10.34,-2.38,-0.28,4.0
1758088671.83407,1758088669.05268,0.0,0.0,0.0,-6.35983,38.73195,-11.80293,8.92,-2.15,0.26,4.0
1758088671.83611,1758088669.06268,0.0,0.0,0.0,-6.35983,38.56006,-10.48513,8.92,-2.15,0.26,4.0
1758088671.83678,1758088669.07268,0.0,0.0,0.0,-1.3751,56.26446,-8.30789,8.53,-1.93,0.44,4.0
1758088671.84153,1758088669.08268,0.0,0.0,0.0,1.08862,70.93218,-5.50039,9.07,-1.74,0.32,4.0
1758088671.84261,1758088669.09268,0.0,0.0,0.0,2.6929,76.31798,-5.32851,9.07,-1.74,0.32,4.0
1758088671.85346,1758088669.10268,0.0,0.0,0.0,4.92744,59.87409,-4.0107,5.72,-1.37,1.35,4.0
1758088671.85403,1758088669.11268,0.0,0.0,0.0,6.99009,28.87707,-3.49504,5.72,-1.37,1.35,4.0
1758088671.85561,1758088669.12268,0.0,0.0,0.0,8.93814,24.80907,-2.6929,5.23,-1.21,0.05,4.0
1758088671.85828,1758088669.13268,0.0,0.0,0.0,11.17268,24.63719,-2.92208,5.23,-1.21,0.05,4.0
1758088671.85902,1758088669.14268,0.0,0.0,0.0,14.09476,20.22541,-4.18259,6.92,-1.2,-0.44,4.0
1758088671.86094,1758088669.15268,0.0,0.0,0.0,15.46986,8.88085,-5.09932,6.26,-0.97,0.27,4.0
1758088671.87802,1758088669.16268,0.0,0.0,0.0,16.61578,0.74485,-6.35983,6.26,-0.97,0.27,4.0
1758088671.88063,1758088669.17268,0.0,0.0,0.0,17.30333,-4.87014,-7.50575,6.35,-0.64,0.16,4.0
1758088671.90084,1758088669.18268,0.0,0.0,0.0,18.22006,-13.12073,-7.62034,6.35,-0.64,0.16,4.0
1758088671.93415,1758088669.19268,0.0,0.0,0.0,18.62113,-18.50654,-7.62034,6.87,-0.52,0.28,4.0
1758088671.93584,1758088669.20268,0.0,0.0,0.0,19.48057,-18.85031,-6.41713,6.87,-0.52,0.28,4.0
1758088671.93679,1758088669.21268,0.0,0.0,0.0,19.42327,-16.67307,-5.90147,8.28,-0.61,0.25,4.0
1758088671.9385,1758088669.22268,0.0,0.0,0.0,18.22006,-13.46451,-5.32851,8.92,-0.61,0.11,4.0
1758088671.95395,1758088669.23268,0.0,0.0,0.0,16.90226,-13.5218,-4.87014,8.92,-0.55,0.11,4.0
1758088671.95507,1758088669.24268,0.0,0.0,0.0,15.64175,-12.49048,-4.64096,9.03,-0.35,0.06,4.0
1758088671.97006,1758088669.25268,0.0,0.0,0.0,14.61043,-11.11538,-4.58366,9.03,-0.35,0.06,4.0
1758088671.97133,1758088669.26268,0.0,0.0,0.0,13.34992,-8.59437,-5.21392,9.63,-0.17,-0.17,4.0
1758088671.98967,1758088669.27268,0.0,0.0,0.0,12.54778,-7.16197,-6.35983,9.63,-0.17,-0.17,4.0
1758088672.02062,1758088669.28268,0.0,0.0,0.0,11.74564,-5.50039,-8.30789,10.07,-0.16,-0.22,4.0
1758088672.02288,1758088669.29268,0.0,0.0,0.0,10.8862,-3.38045,-10.59972,10.07,-0.16,-0.22,4.0
1758088672.02384,1758088669.30268,0.0,0.0,0.0,9.28192,-0.85944,-14.38124,10.55,-0.3,-0.26,4.0
1758088672.02561,1758088669.31268,0.0,0.0,0.0,8.02141,-0.57296,-16.84496,10.54,-0.55,-0.2,4.0
1758088672.0412,1758088669.32268,0.0,0.0,0.0,6.8182,0.45837,-18.73572,10.54,-0.55,-0.2,4.0
1758088672.04289,1758088669.33268,0.0,0.0,0.0,5.72958,2.34913,-19.99623,10.72,-0.67,-0.3,4.0
1758088672.05792,1758088669.34268,0.0,0.0,0.0,4.52637,5.09932,-20.74107,10.72,-0.67,-0.3,4.0
1758088672.0741,1758088669.35268,0.0,0.0,0.0,3.95341,7.16197,-20.68378,10.78,-0.63,-0.36,4.0
1758088672.07543,1758088669.36268,0.0,0.0,0.0,3.49504,10.37054,-20.3973,10.78,-0.63,-0.36,4.0
1758088672.08995,1758088669.37268,0.0,0.0,0.0,2.7502,15.92823,-19.36597,10.65,-0.44,-0.36,4.0
1758088672.09351,1758088669.38268,0.0,0.0,0.0,2.11994,17.36062,-18.44924,10.04,-0.29,-0.32,4.0
1758088672.11484,1758088669.39268,0.0,0.0,0.0,1.14592,16.21471,-17.47521,10.04,-0.29,-0.32,4.0
1758088672.14444,1758088669.40268,0.0,0.0,0.0,0.11459,13.23533,-16.272,9.35,-0.3,-0.18,4.0
1758088672.14592,1758088669.41268,0.0,0.0,0.0,-1.03132,7.67763,-14.15206,9.35,-0.3,-0.18,4.0
1758088672.15597,1758088669.42268,0.0,0.0,0.0,-2.23454,3.09397,-12.60507,8.8,-0.36,0.11,4.0
1758088672.15809,1758088669.43268,0.0,0.0,0.0,-2.6929,-0.34377,-11.28727,8.8,-0.36,0.11,4.0
1758088672.16494,1758088669.44268,0.0,0.0,0.0,-3.03668,-2.40642,-9.74028,8.22,-0.45,0.23,4.0
1758088672.17029,1758088669.45268,0.0,0.0,0.0,-2.7502,-8.42248,-8.136,7.34,-0.68,0.29,4.0
1758088672.4575,1758088669.46268,0.0,0.0,0.0,-2.46372,-14.03747,-7.10468,7.34,-0.68,0.29,4.0
1758088672.46367,1758088669.47268,0.0,0.0,0.0,-2.40642,-20.68378,-5.95876,6.29,-0.98,0.32,4.0
1758088672.4692,1758088669.48268,0.0,0.0,0.0,-2.23454,-27.2155,-4.87014,6.29,-0.98,0.32,4.0
1758088672.47723,1758088669.49268,0.0,0.0,0.0,-1.83346,-33.40344,-2.92208,5.69,-1.23,0.71,4.0
1758088672.47792,1758088669.50268,0.0,0.0,0.0,-0.57296,-29.56462,-1.43239,5.69,-1.23,0.71,4.0
1758088672.48062,1758088669.51268,0.0,0.0,0.0,0.57296,-30.76784,-0.0573,7.19,-1.31,3.17,4.0
1758088672.48218,1758088669.52268,0.0,0.0,0.0,4.92744,-44.28964,5.15662,7.19,-1.31,3.17,4.0
1758088672.48568,1758088669.53268,0.0,0.0,0.0,11.57375,-75.05748,11.97482,8.28,-1.64,6.2,4.0
1758088672.48927,1758088669.54268,0.0,0.0,0.0,15.29797,-76.89094,19.13679,14.68,-1.03,6.99,4.0
1758088672.48992,1758088669.55268,0.0,0.0,0.0,18.33465,-65.14531,28.64789,14.68,-1.03,6.99,4.0
1758088672.49055,1758088669.56268,0.0,0.0,0.0,18.22006,-51.79538,40.27893,21.31,1.21,5.24,4.0
1758088672.49503,1758088669.57268,0.0,0.0,0.0,18.33465,-35.98175,44.57612,21.31,1.21,5.24,4.0
1758088672.49559,1758088669.58268,0.0,0.0,0.0,19.19409,-25.55392,45.55015,18.05,2.5,0.26,4.0
1758088672.49769,1758088669.59268,0.0,0.0,0.0,15.98552,-10.08406,41.99781,18.05,2.5,0.26,4.0
1758088672.4983,1758088669.60268,0.0,0.0,0.0,15.69904,19.36597,34.60666,15.27,0.55,-0.41,4.0
1758088672.50055,1758088669.61268,0.0,0.0,0.0,14.32395,38.90384,27.44468,14.2,-0.77,1.4,4.0
1758088672.50099,1758088669.62268,0.0,0.0,0.0,13.5791,48.35764,20.34,14.2,-0.77,1.4,4.0
1758088672.50175,1758088669.63268,0.0,0.0,0.0,13.75099,47.72739,14.32395,12.64,-0.8,1.67,4.0
1758088672.50474,1758088669.64268,0.0,0.0,0.0,14.72501,42.34158,10.08406,12.64,-0.8,1.67,4.0
1758088672.50511,1758088669.65268,0.0,0.0,0.0,15.75634,40.7373,10.02676,13.67,-0.49,1.29,4.0
1758088672.50742,1758088669.66268,0.0,0.0,0.0,15.46986,39.87786,10.37054,13.67,-0.49,1.29,4.0
1758088672.50783,1758088669.67268,0.0,0.0,0.0,14.66772,40.7946,11.28727,13.74,0.2,1.24,4.0
1758088672.50893,1758088669.68268,0.0,0.0,0.0,13.80828,39.4195,12.204,11.77,0.56,0.75,4.0
1758088672.50975,1758088669.69268,0.0,0.0,0.0,11.91752,43.88857,10.48513,11.77,0.56,0.75,4.0
1758088672.51088,1758088669.70268,0.0,0.0,0.0,11.74564,54.88936,9.28192,10.83,0.21,0.57,4.0
1758088672.51704,1758088669.71268,0.0,0.0,0.0,11.28727,60.90542,7.79223,10.83,0.21,0.57,4.0
1758088672.51903,1758088669.72268,0.0,0.0,0.0,8.99544,52.19646,4.58366,8.57,0.19,1.19,4.0
1758088672.52,1758088669.73268,0.0,0.0,0.0,6.99009,41.25296,2.63561,8.57,0.19,1.19,4.0
1758088672.52727,1758088669.74268,0.0,0.0,0.0,4.64096,30.82513,0.85944,7.03,0.36,1.05,4.0
1758088672.529,1758088669.75268,0.0,0.0,0.0,1.94806,22.28806,-0.68755,7.03,0.36,1.05,4.0
1758088672.53978,1758088669.76268,0.0,0.0,0.0,-2.57831,11.34457,-1.14592,7.1,0.44,0.75,4.0
1758088672.54016,1758088669.77268,0.0,0.0,0.0,-5.50039,7.33386,-1.14592,7.17,0.54,0.79,4.0
1758088672.54329,1758088669.78268,0.0,0.0,0.0,-8.42248,4.1253,-1.03132,7.17,0.54,0.79,4.0
1758088672.55086,1758088669.79268,0.0,0.0,0.0,-12.77696,-1.08862,0.11459,6.87,0.66,0.66,4.0
1758088672.55389,1758088669.80268,0.0,0.0,0.0,-15.41257,-5.32851,1.3178,6.87,0.66,0.66,4.0
1758088672.55499,1758088669.81268,0.0,0.0,0.0,-17.93358,-9.62569,2.63561,6.35,0.78,0.67,4.0
1758088672.55576,1758088669.82268,0.0,0.0,0.0,-20.74107,-13.5218,4.18259,6.35,0.78,0.67,4.0
1758088672.55931,1758088669.83268,0.0,0.0,0.0,-24.92367,-18.79302,6.70361,6.17,0.84,0.48,4.0
1758088672.56084,1758088669.84268,0.0,0.0,0.0,-28.01764,-22.86102,8.59437,6.33,0.77,0.12,4.0
1758088672.5646,1758088669.85268,0.0,0.0,0.0,-30.82513,-26.35606,10.65701,6.33,0.77,0.12,4.0
1758088672.58025,1758088669.86268,0.0,0.0,0.0,-33.34615,-28.87707,12.71966,6.82,0.6,-0.14,4.0
1758088672.58916,1758088669.87268,0.0,0.0,0.0,-36.55471,-32.48671,15.29797,6.82,0.6,-0.14,4.0
1758088672.60652,1758088669.88268,0.0,0.0,0.0,-38.21629,-34.37747,16.50119,7.21,0.19,-0.09,4.0
1758088672.60772,1758088669.89268,0.0,0.0,0.0,-39.24761,-34.89313,17.13144,7.21,0.19,-0.09,4.0
1758088672.62321,1758088669.90268,0.0,0.0,0.0,-39.4195,-31.79916,17.01685,7.87,-0.26,0.0,4.0
1758088672.62524,1758088669.91268,0.0,0.0,0.0,-37.64333,-22.11617,16.61578,9.05,-0.72,0.03,4.0
1758088672.64046,1758088669.92268,0.0,0.0,0.0,-34.89313,-15.64175,15.46986,9.05,-0.72,0.03,4.0
1758088672.64143,1758088669.93268,0.0,0.0,0.0,-31.11161,-10.8289,14.20935,9.35,-1.28,0.01,4.0
1758088672.65669,1758088669.94268,0.0,0.0,0.0,-26.41335,-8.25059,12.2613,9.35,-1.28,0.01,4.0
1758088672.67454,1758088669.95268,0.0,0.0,0.0,-19.13679,-12.89155,9.91217,8.78,-1.73,-0.03,4.0
1758088672.67526,1758088669.96268,0.0,0.0,0.0,-14.03747,-19.25138,8.136,8.78,-1.73,-0.03,4.0
1758088672.69023,1758088669.97268,0.0,0.0,0.0,-9.11003,-25.26744,7.73493,8.42,-1.91,-0.14,4.0
1758088672.69148,1758088669.98268,0.0,0.0,0.0,-2.7502,-26.52795,8.76626,8.42,-1.91,-0.14,4.0
1758088672.70708,1758088669.99268,0.0,0.0,0.0,0.74485,-19.88164,10.65701,9.36,-1.89,-0.37,4.0
1758088672.72349,1758088670.00268,0.0,0.0,0.0,3.89611,-15.58445,12.89155,9.96,-1.74,-0.45,4.0
1758088672.72474,1758088670.01268,0.0,0.0,0.0,6.8182,-12.49048,15.0115,9.96,-1.74,-0.45,4.0
1758088672.74036,1758088670.02268,0.0,0.0,0.0,10.54242,-8.88085,17.30333,9.73,-1.52,-0.45,4.0
1758088672.74234,1758088670.03268,0.0,0.0,0.0,12.37589,-6.70361,17.81899,9.73,-1.52,-0.45,4.0
1758088672.75752,1758088670.04268,0.0,0.0,0.0,13.80828,-4.52637,17.87628,9.56,-1.33,-0.6,4.0
1758088672.76105,1758088670.05268,0.0,0.0,0.0,15.12609,-2.34913,17.01685,9.56,-1.33,-0.6,4.0
1758088672.77731,1758088670.06268,0.0,0.0,0.0,17.47521,-0.17189,14.9542,9.23,-1.04,-0.63,4.0
1758088672.79491,1758088670.07268,0.0,0.0,0.0,19.13679,-0.51566,12.83425,8.86,-0.82,-0.68,4.0
1758088672.7964,1758088670.08268,0.0,0.0,0.0,20.51189,-2.34913,10.59972,8.86,-0.82,-0.68,4.0
1758088672.81354,1758088670.09268,0.0,0.0,0.0,21.94428,-5.90147,8.30789,8.44,-0.57,-0.77,4.0
1758088672.81436,1758088670.10268,0.0,0.0,0.0,23.94964,-10.94349,5.15662,8.44,-0.57,-0.77,4.0
1758088672.82935,1758088670.11268,0.0,0.0,0.0,25.55392,-13.12073,3.49504,8.42,-0.35,-0.94,4.0
1758088672.83052,1758088670.12268,0.0,0.0,0.0,27.04361,-15.98552,2.40642,8.42,-0.35,-0.94,4.0
1758088672.84715,1758088670.13268,0.0,0.0,0.0,28.41871,-19.13679,1.71887,8.04,-0.42,-1.01,4.0
1758088672.86496,1758088670.14268,0.0,0.0,0.0,29.96569,-23.49127,0.11459,7.29,-0.67,-0.51,4.0
1758088672.87411,1758088670.15268,0.0,0.0,0.0,31.16891,-24.00693,-2.34913,7.29,-0.67,-0.51,4.0
1758088672.87558,1758088670.16268,0.0,0.0,0.0,32.14294,-24.63719,-6.70361,7.56,-0.87,2.05,4.0
1758088672.89319,1758088670.17268,0.0,0.0,0.0,33.86181,-25.7831,-13.86558,7.56,-0.87,2.05,4.0
1758088672.89415,1758088670.18268,0.0,0.0,0.0,32.37212,-39.13302,-18.27736,10.14,-1.33,5.15,4.0
1758088672.90939,1758088670.19268,0.0,0.0,0.0,29.73651,-52.48294,-22.40265,10.14,-1.33,5.15,4.0
1758088672.91058,1758088670.20268,0.0,0.0,0.0,27.04361,-62.22322,-24.86637,14.01,-1.55,5.83,4.0
1758088672.93577,1758088670.21268,0.0,0.0,0.0,20.74107,-55.23313,-29.04896,14.01,-1.55,5.83,4.0
1758088673.05295,1758088670.22268,0.0,0.0,0.0,16.50119,-41.36755,-31.28349,19.28,-2.51,3.59,4.0
1758088673.05434,1758088670.23268,0.0,0.0,0.0,12.204,-32.42941,-32.71589,19.0,-3.53,-0.21,4.0
1758088673.06111,1758088670.24268,0.0,0.0,0.0,7.33386,-17.18874,-34.09099,19.0,-3.53,-0.21,4.0
1758088673.06365,1758088670.25268,0.0,0.0,0.0,3.66693,23.0329,-32.54401,17.46,-1.91,-0.69,4.0
1758088673.06537,1758088670.26268,0.0,0.0,0.0,2.63561,48.70141,-30.82513,17.46,-1.91,-0.69,4.0
1758088673.06953,1758088670.27268,0.0,0.0,0.0,0.80214,60.90542,-29.22085,16.45,-0.14,0.97,4.0
1758088673.07068,1758088670.28268,0.0,0.0,0.0,-2.46372,59.12925,-27.73116,16.45,-0.14,0.97,4.0
1758088673.07423,1758088670.29268,0.0,0.0,0.0,-7.84952,56.66553,-24.63719,14.58,0.54,2.17,4.0
1758088673.07503,1758088670.30268,0.0,0.0,0.0,-10.19865,62.91077,-23.60586,15.49,-0.47,1.19,4.0
1758088673.0761,1758088670.31268,0.0,0.0,0.0,-11.91752,69.67168,-23.54857,15.49,-0.47,1.19,4.0
1758088673.07927,1758088670.32268,0.0,0.0,0.0,-13.12073,72.53646,-23.37668,13.74,-1.79,1.2,4.0
1758088673.08038,1758088670.33268,0.0,0.0,0.0,-13.06344,71.27596,-21.94428,13.74,-1.79,1.2,4.0
1758088673.08235,1758088670.34268,0.0,0.0,0.0,-12.14671,66.11933,-18.90761,11.3,-2.35,0.82,4.0
1758088673.0847,1758088670.35268,0.0,0.0,0.0,-11.22997,57.52497,-14.61043,11.3,-2.35,0.82,4.0
1758088673.08525,1758088670.36268,0.0,0.0,0.0,-10.37054,46.2377,-9.68299,9.34,-1.99,0.76,4.0
1758088673.09053,1758088670.37268,0.0,0.0,0.0,-7.67763,37.98711,-1.14592,8.6,-1.64,0.93,4.0
1758088673.09113,1758088670.38268,0.0,0.0,0.0,-4.35448,42.68536,3.09397,8.6,-1.64,0.93,4.0
1758088673.11044,1758088670.39268,0.0,0.0,0.0,-2.63561,61.02001,5.55769,9.29,-1.53,0.8,4.0
1758088673.11171,1758088670.40268,0.0,0.0,0.0,0.0,79.46925,6.58902,9.29,-1.53,0.8,4.0
1758088673.12819,1758088670.41268,0.0,0.0,0.0,2.11994,72.07809,7.39116,7.1,-1.32,1.2,4.0
1758088673.1448,1758088670.42268,0.0,0.0,0.0,5.27121,53.51426,8.47978,7.1,-1.32,1.2,4.0
1758088673.14568,1758088670.43268,0.0,0.0,0.0,7.67763,33.05967,8.65166,4.17,-1.18,0.55,4.0
1758088673.16056,1758088670.44268,0.0,0.0,0.0,10.65701,15.64175,7.10468,4.17,-1.18,-0.76,4.0
1758088673.1617,1758088670.45268,0.0,0.0,0.0,12.43318,12.204,5.50039,4.93,-1.1,-0.76,4.0
1758088673.17744,1758088670.46268,0.0,0.0,0.0,13.80828,9.39651,2.6929,5.92,-0.93,-0.36,4.0
1758088673.19354,1758088670.47268,0.0,0.0,0.0,14.83961,3.72423,-0.51566,5.92,-0.93,-0.36,4.0
1758088673.19502,1758088670.48268,0.0,0.0,0.0,16.50119,-8.02141,-6.07335,5.48,-0.8,-0.2,4.0
1758088673.20953,1758088670.49268,0.0,0.0,0.0,17.87628,-15.92823,-9.5684,5.48,-0.8,-0.2,4.0
1758088673.21098,1758088670.50268,0.0,0.0,0.0,19.07949,-23.72045,-13.06344,5.4,-0.83,-0.53,4.0
1758088673.23012,1758088670.51268,0.0,0.0,0.0,20.05352,-29.67921,-15.24068,5.4,-0.83,-0.53,4.0
1758088673.23451,1758088670.52268,0.0,0.0,0.0,20.85567,-38.15899,-17.93358,5.52,-0.92,-0.49,4.0
1758088673.29372,1758088670.53268,0.0,0.0,0.0,22.05888,-40.96649,-18.50654,6.18,-0.96,-0.25,4.0
1758088673.29488,1758088670.54268,0.0,0.0,0.0,23.0902,-41.25296,-18.50654,6.18,-0.96,-0.25,4.0
1758088673.29739,1758088670.55268,0.0,0.0,0.0,24.63719,-40.7373,-17.81899,7.74,-0.93,0.09,4.0
1758088673.29945,1758088670.56268,0.0,0.0,0.0,26.47065,-36.61201,-17.36062,7.74,-0.93,0.09,4.0
1758088673.29985,1758088670.57268,0.0,0.0,0.0,27.44468,-35.52338,-17.30333,9.05,-0.87,0.26,4.0
1758088673.30103,1758088670.58268,0.0,0.0,0.0,28.30412,-34.09099,-17.24603,9.05,-0.87,0.26,4.0
1758088673.30165,1758088670.59268,0.0,0.0,0.0,28.59059,-31.16891,-17.13144,9.53,-0.74,0.05,4.0
1758088673.3195,1758088670.60268,0.0,0.0,0.0,28.13223,-27.04361,-17.18874,9.87,-0.62,-0.18,4.0
1758088673.3348,1758088670.61268,0.0,0.0,0.0,27.2155,-25.26744,-17.30333,9.87,-0.62,-0.18,4.0
1758088673.39028,1758088670.62268,0.0,0.0,0.0,25.72581,-23.49127,-16.73037,9.99,-0.48,-0.11,4.0
1758088673.39138,1758088670.63268,0.0,0.0,0.0,22.28806,-20.62648,-15.12609,9.99,-0.48,-0.11,4.0
1758088673.39383,1758088670.64268,0.0,0.0,0.0,19.99623,-18.9649,-14.15206,10.1,-0.2,0.23,4.0
1758088673.39529,1758088670.65268,0.0,0.0,0.0,17.47521,-16.95955,-13.23533,10.1,-0.2,0.23,4.0
1758088673.4004,1758088670.66268,0.0,0.0,0.0,14.78231,-15.35527,-12.37589,10.04,0.24,0.38,4.0
1758088673.40072,1758088670.67268,0.0,0.0,0.0,10.71431,-15.87093,-11.97482,9.65,0.24,0.21,4.0
1758088673.40095,1758088670.68268,0.0,0.0,0.0,7.62034,-16.73037,-12.08941,9.65,0.48,0.21,4.0
1758088673.40293,1758088670.69268,0.0,0.0,0.0,4.23989,-16.95955,-12.2613,9.41,0.38,-0.09,4.0
1758088673.42128,1758088670.70268,0.0,0.0,0.0,0.68755,-16.38659,-12.37589,9.41,0.38,-0.09,4.0
1758088673.42428,1758088670.71268,0.0,0.0,0.0,-5.09932,-15.92823,-12.43318,9.29,0.17,-0.35,4.0
1758088673.43995,1758088670.72268,0.0,0.0,0.0,-9.11003,-15.46986,-12.37589,9.29,0.17,-0.35,4.0
1758088673.48445,1758088670.73268,0.0,0.0,0.0,-12.83425,-15.69904,-12.2613,8.81,0.0,-0.19,4.0
1758088673.48562,1758088670.74268,0.0,0.0,0.0,-16.10011,-17.93358,-12.14671,8.81,0.0,-0.19,4.0
1758088673.48672,1758088670.75268,0.0,0.0,0.0,-19.70975,-24.29341,-10.8289,7.63,-0.13,-0.02,4.0
1758088673.49074,1758088670.76268,0.0,0.0,0.0,-22.28806,-28.36141,-8.0787,6.78,-0.18,0.96,4.0
1758088673.49373,1758088670.77268,0.0,0.0,0.0,-24.5226,-28.99167,-4.35448,6.78,-0.18,0.96,4.0
1758088673.49522,1758088670.78268,0.0,0.0,0.0,-26.12688,-25.55392,2.57831,8.79,0.05,3.93,4.0
1758088673.50972,1758088670.79268,0.0,0.0,0.0,-26.64254,-26.06958,10.8862,8.79,0.05,3.93,4.0
1758088673.5109,1758088670.80268,0.0,0.0,0.0,-26.81443,-43.14373,16.73037,12.87,-0.05,7.21,4.0
1758088673.52877,1758088670.81268,0.0,0.0,0.0,-26.06958,-58.21251,25.89769,12.87,-0.05,7.21,4.0
1758088673.53076,1758088670.82268,0.0,0.0,0.0,-20.85567,-77.57849,40.62271,18.77,0.98,7.99,4.0
1758088673.54886,1758088670.83268,0.0,0.0,0.0,-13.17803,-82.04756,49.61814,18.77,2.52,0.97,4.0
1758088673.56479,1758088670.84268,0.0,0.0,0.0,-7.62034,-53.97263,51.6235,18.77,2.52,0.97,4.0
1758088673.56714,1758088670.85268,0.0,0.0,0.0,-4.98473,-11.11538,49.90463,18.56,0.23,-2.16,4.0
1758088673.58748,1758088670.86268,0.0,0.0,0.0,-6.7609,42.1124,39.4768,18.56,0.23,-2.16,4.0
1758088673.74602,1758088670.87268,0.0,0.0,0.0,-7.67763,58.55629,29.50733,14.41,-1.01,-0.4,4.0
1758088673.74932,1758088670.88268,0.0,0.0,0.0,-7.10468,69.55708,19.76705,14.41,-1.01,-0.4,4.0
1758088673.75577,1758088670.89268,0.0,0.0,0.0,-4.35448,73.96885,10.59972,13.62,-1.47,1.14,4.0
1758088673.78845,1758088670.90268,0.0,0.0,0.0,1.71887,72.65105,1.3178,16.11,-1.98,2.1,4.0
1758088673.79305,1758088670.91268,0.0,0.0,0.0,5.72958,77.17742,-0.22918,16.11,-1.98,2.1,4.0
1758088673.79532,1758088670.92268,0.0,0.0,0.0,8.76626,75.22936,0.40107,16.02,-1.05,1.24,4.0
1758088673.80184,1758088670.93268,0.0,0.0,0.0,9.4538,71.73432,2.46372,16.02,-1.05,1.24,4.0
1758088673.80563,1758088670.94268,0.0,0.0,0.0,9.91217,70.30193,4.92744,12.94,0.46,1.08,4.0
1758088673.83361,1758088670.95268,0.0,0.0,0.0,9.68299,80.0995,6.35983,12.94,0.46,1.08,4.0
1758088673.83605,1758088670.96268,0.0,0.0,0.0,11.28727,92.81918,7.44845,12.16,0.96,1.01,4.0
1758088673.8368,1758088670.97268,0.0,0.0,0.0,12.77696,94.19427,7.84952,12.16,0.96,1.01,4.0
1758088673.84044,1758088670.98268,0.0,0.0,0.0,13.06344,74.7137,7.10468,9.43,0.93,1.46,4.0
1758088673.84106,1758088670.99268,0.0,0.0,0.0,12.43318,56.32175,5.84417,6.89,0.79,1.45,4.0
1758088673.84615,1758088671.00268,0.0,0.0,0.0,11.74564,40.27893,4.87014,6.89,0.79,1.45,4.0
1758088673.84918,1758088671.01268,0.0,0.0,0.0,10.31324,28.59059,3.49504,6.71,0.53,0.85,4.0
1758088673.8539,1758088671.02268,0.0,0.0,0.0,9.05273,16.84496,2.57831,6.71,0.53,0.85,4.0
1758088673.85427,1758088671.03268,0.0,0.0,0.0,7.21927,11.17268,1.71887,6.72,0.27,0.9,4.0
1758088673.86124,1758088671.04268,0.0,0.0,0.0,5.32851,5.61499,1.14592,6.72,0.27,0.9,4.0
1758088673.86274,1758088671.05268,0.0,0.0,0.0,2.29183,-0.74485,0.85944,6.35,0.27,0.9,4.0
1758088673.86795,1758088671.06268,0.0,0.0,0.0,0.17189,-4.87014,1.60428,5.97,0.53,0.77,4.0
1758088673.95371,1758088671.07268,0.0,0.0,0.0,-1.94806,-8.93814,2.57831,5.97,0.53,0.77,4.0
1758088673.95621,1758088671.08268,0.0,0.0,0.0,-4.18259,-13.46451,4.18259,5.51,0.73,0.55,4.0
1758088673.96368,1758088671.09268,0.0,0.0,0.0,-7.84952,-21.7151,7.44845,5.51,0.73,0.55,4.0
1758088673.97004,1758088671.10268,0.0,0.0,0.0,-10.08406,-26.81443,10.02676,5.13,0.77,0.45,4.0
1758088674.0021,1758088671.11268,0.0,0.0,0.0,-12.49048,-30.99702,12.89155,5.13,0.77,0.45,4.0
1758088674.00588,1758088671.12268,0.0,0.0,0.0,-14.61043,-33.00237,15.75634,5.48,0.65,0.39,4.0
1758088674.13898,1758088671.13268,0.0,0.0,0.0,-17.36062,-34.60666,20.22541,6.53,0.32,0.56,4.0
1758088674.1398,1758088671.14268,0.0,0.0,0.0,-18.56383,-33.68992,23.0329,6.53,0.32,0.56,4.0
1758088674.14317,1758088671.15268,0.0,0.0,0.0,-18.85031,-30.19488,26.64254,8.09,-0.08,0.71,4.0
1758088674.14382,1758088671.16268,0.0,0.0,0.0,-18.10547,-26.24147,30.02299,8.09,-0.08,0.71,4.0
1758088674.14989,1758088671.17268,0.0,0.0,0.0,-15.12609,-23.94964,34.26288,8.74,-0.56,0.57,4.0
1758088674.15045,1758088671.18268,0.0,0.0,0.0,-12.54778,-23.31938,35.63798,8.74,-0.56,0.57,4.0
1758088674.1533,1758088671.19268,0.0,0.0,0.0,-9.4538,-21.94428,35.63798,8.62,-1.12,0.21,4.0
1758088674.15393,1758088671.20268,0.0,0.0,0.0,-5.27121,-20.22541,33.51803,8.62,-1.12,0.21,4.0
1758088674.15515,1758088671.21268,0.0,0.0,0.0,0.97403,-18.90761,30.82513,8.74,-1.57,0.12,4.0
1758088674.15579,1758088671.22268,0.0,0.0,0.0,5.4431,-18.33465,27.78845,8.81,-1.78,0.08,4.0
1758088674.15894,1758088671.23268,0.0,0.0,0.0,9.68299,-19.76705,24.00693,8.81,-1.78,0.08,4.0
1758088674.16005,1758088671.24268,0.0,0.0,0.0,15.06879,-21.42862,19.70975,9.08,-1.87,0.1,4.0
1758088674.16322,1758088671.25268,0.0,0.0,0.0,18.16276,-20.34,18.33465,9.08,-1.87,0.1,4.0
1758088674.16669,1758088671.26268,0.0,0.0,0.0,20.16812,-17.81899,18.56383,9.97,-1.78,-0.14,4.0
1758088674.17061,1758088671.27268,0.0,0.0,0.0,21.60051,-14.78231,19.99623,9.97,-1.78,-0.14,4.0
1758088674.1734,1758088671.28268,0.0,0.0,0.0,22.28806,-10.71431,23.26209,10.44,-1.47,-0.16,4.0
1758088674.17409,1758088671.29268,0.0,0.0,0.0,22.51724,-9.28192,25.43933,10.13,-1.12,-0.34,4.0
1758088674.17514,1758088671.30268,0.0,0.0,0.0,22.34536,-8.47978,27.1582,10.13,-1.12,-0.34,4.0
1758088674.17582,1758088671.31268,0.0,0.0,0.0,21.7724,-7.04738,27.78845,9.69,-0.84,-0.52,4.0
1758088674.17702,1758088671.32268,0.0,0.0,0.0,21.6578,-5.09932,27.1582,9.69,-0.84,-0.52,4.0
1758088674.18041,1758088671.33268,0.0,0.0,0.0,21.7724,-4.0107,25.38203,9.41,-0.71,-0.68,4.0
1758088674.18292,1758088671.34268,0.0,0.0,0.0,21.94428,-3.09397,22.68913,9.41,-0.71,-0.68,4.0
1758088674.18442,1758088671.35268,0.0,0.0,0.0,22.34536,-2.29183,19.59516,9.24,-0.79,-0.65,4.0
1758088674.18579,1758088671.36268,0.0,0.0,0.0,23.66316,-1.43239,14.38124,9.32,-1.04,-0.48,4.0
1758088674.18706,1758088671.37268,0.0,0.0,0.0,24.98096,-1.94806,11.11538,9.32,-1.04,-0.48,4.0
1758088674.18783,1758088671.38268,0.0,0.0,0.0,26.69983,-4.0107,8.25059,9.07,-1.37,-0.22,4.0
1758088674.18895,1758088671.39268,0.0,0.0,0.0,28.36141,-6.18794,5.90147,9.07,-1.37,-0.22,4.0
1758088674.18975,1758088671.40268,0.0,0.0,0.0,31.56997,-8.02141,4.1253,8.74,-1.66,-0.13,4.0
1758088674.19079,1758088671.41268,0.0,0.0,0.0,33.68992,-8.65166,3.55234,8.74,-1.66,-0.13,4.0
1758088674.19313,1758088671.42268,0.0,0.0,0.0,35.75257,-11.91752,2.97938,8.0,-1.59,0.08,4.0
1758088674.19505,1758088671.43268,0.0,0.0,0.0,38.44547,-19.53786,0.74485,8.0,-1.59,0.08,4.0
1758088674.19584,1758088671.44268,0.0,0.0,0.0,39.07573,-25.89769,-1.3751,6.75,-1.19,1.06,4.0
1758088674.19852,1758088671.45268,0.0,0.0,0.0,39.4768,-32.14294,-3.32316,7.17,-0.68,3.37,4.0
1758088674.19913,1758088671.46268,0.0,0.0,0.0,37.87251,-39.87786,-7.10468,7.17,-0.68,3.37,4.0
1758088674.2004,1758088671.47268,0.0,0.0,0.0,33.86181,-34.89313,-13.5218,10.97,-0.26,5.89,4.0
1758088674.201,1758088671.48268,0.0,0.0,0.0,30.36677,-23.60586,-20.97026,10.97,-0.26,5.89,4.0
1758088674.20392,1758088671.49268,0.0,0.0,0.0,28.30412,-15.29797,-27.44468,16.77,-1.37,7.14,4.0
1758088674.22101,1758088671.50268,0.0,0.0,0.0,24.92367,-55.51962,-37.29956,16.77,-1.37,7.14,4.0
1758088674.26499,1758088671.51268,0.0,0.0,0.0,21.02755,-93.62132,-46.1231,14.69,-3.93,5.79,4.0
1758088674.26997,1758088671.52268,0.0,0.0,0.0,21.42862,-70.53111,-45.89392,18.93,-4.56,-0.27,4.0
1758088674.27117,1758088671.53268,0.0,0.0,0.0,22.91831,-44.17505,-44.17505,18.93,-4.56,-0.27,4.0
1758088674.27314,1758088671.54268,0.0,0.0,0.0,23.72045,-22.00158,-40.7946,17.17,-2.02,-0.29,4.0
1758088674.27514,1758088671.55268,0.0,0.0,0.0,26.06958,14.66772,-33.17426,17.17,-2.02,-0.29,4.0
1758088674.27924,1758088671.56268,0.0,0.0,0.0,25.8404,34.43476,-28.476,16.1,0.1,1.2,4.0
1758088674.29543,1758088671.57268,0.0,0.0,0.0,24.86637,41.31026,-23.83505,16.1,0.1,1.2,4.0
1758088674.29745,1758088671.58268,0.0,0.0,0.0,23.20479,45.49285,-19.70975,14.77,0.84,1.39,4.0
1758088674.3156,1758088671.59268,0.0,0.0,0.0,20.22541,62.96807,-17.58981,14.28,0.03,0.43,4.0
1758088674.31687,1758088671.60268,0.0,0.0,0.0,18.27736,73.73967,-18.16276,14.28,0.03,0.43,4.0
1758088674.33407,1758088671.61268,0.0,0.0,0.0,16.73037,78.89629,-18.9649,12.51,-1.12,0.86,4.0
1758088674.33502,1758088671.62268,0.0,0.0,0.0,16.04282,76.83365,-19.13679,12.51,-1.12,0.86,4.0
1758088674.35016,1758088671.63268,0.0,0.0,0.0,16.38659,62.62429,-18.44924,10.39,-1.81,0.97,4.0
1758088674.35179,1758088671.64268,0.0,0.0,0.0,18.16276,49.33167,-15.41257,10.39,-1.81,0.97,4.0
1758088674.36949,1758088671.65268,0.0,0.0,0.0,20.11082,38.56006,-11.45916,9.59,-1.78,0.62,4.0
1758088674.38537,1758088671.66268,0.0,0.0,0.0,22.28806,35.40879,-6.99009,9.59,-1.78,0.62,4.0
1758088674.39469,1758088671.67268,0.0,0.0,0.0,27.84575,49.27437,-1.3178,9.55,-1.68,0.82,4.0
1758088674.39509,1758088671.68268,0.0,0.0,0.0,29.96569,73.91156,-0.40107,10.39,-1.49,0.49,4.0
1758088674.41472,1758088671.69268,0.0,0.0,0.0,31.97105,83.93832,1.60428,10.39,-1.49,0.49,4.0
1758088674.44082,1758088671.70268,0.0,0.0,0.0,37.29956,59.87409,6.18794,6.53,-1.2,1.75,4.0
1758088674.44461,1758088671.71268,0.0,0.0,0.0,39.4768,35.98175,8.0787,6.53,-1.2,1.75,4.0
1758088674.44884,1758088671.72268,0.0,0.0,0.0,41.88322,22.63183,10.8862,5.07,-1.21,0.69,4.0
1758088674.45042,1758088671.73268,0.0,0.0,0.0,44.63341,16.50119,13.23533,5.07,-1.21,0.69,4.0
1758088674.45461,1758088671.74268,0.0,0.0,0.0,47.78468,8.136,15.24068,6.65,-1.3,-0.01,4.0
1758088674.47054,1758088671.75268,0.0,0.0,0.0,49.38896,4.0107,15.41257,6.64,-1.15,0.53,4.0
1758088674.47312,1758088671.76268,0.0,0.0,0.0,50.82136,0.34377,14.9542,6.64,-1.15,0.53,4.0
1758088674.48929,1758088671.77268,0.0,0.0,0.0,52.42564,-4.92744,13.75099,6.42,-0.85,0.25,4.0
1758088674.50527,1758088671.78268,0.0,0.0,0.0,54.02992,-13.34992,11.17268,6.42,-0.85,0.25,4.0
1758088674.51051,1758088671.79268,0.0,0.0,0.0,54.77477,-20.16812,9.11003,6.01,-0.7,-0.04,4.0
1758088674.55526,1758088671.80268,0.0,0.0,0.0,55.34772,-26.47065,7.16197,6.01,-0.7,-0.04,4.0
1758088674.55728,1758088671.81268,0.0,0.0,0.0,55.40502,-32.20023,4.92744,5.94,-0.69,-0.11,4.0
1758088674.56008,1758088671.82268,0.0,0.0,0.0,54.88936,-40.7946,4.0107,6.06,-0.85,-0.07,4.0
1758088674.56474,1758088671.83268,0.0,0.0,0.0,54.3164,-46.06581,4.0107,6.06,-0.85,-0.07,4.0
1758088674.56513,1758088671.84268,0.0,0.0,0.0,53.51426,-48.64412,4.35448,6.49,-0.97,0.27,4.0
1758088674.56584,1758088671.85268,0.0,0.0,0.0,53.74345,-45.49285,5.55769,6.49,-0.97,0.27,4.0
1758088674.58504,1758088671.86268,0.0,0.0,0.0,54.14451,-40.45082,6.47442,7.58,-0.95,0.57,4.0
1758088674.58704,1758088671.87268,0.0,0.0,0.0,54.60288,-34.95043,7.04738,7.58,-0.95,0.57,4.0
1758088674.60238,1758088671.88268,0.0,0.0,0.0,54.88936,-29.39274,6.70361,8.14,-0.81,0.65,4.0
1758088674.60672,1758088671.89268,0.0,0.0,0.0,54.431,-22.63183,4.52637,8.14,-0.81,0.31,4.0
1758088674.62479,1758088671.90268,0.0,0.0,0.0,54.02992,-19.07949,2.6929,8.44,-0.69,0.31,4.0
1758088674.62595,1758088671.91268,0.0,0.0,0.0,53.51426,-15.46986,0.68755,9.14,-0.61,-0.05,4.0
1758088674.64332,1758088671.92268,0.0,0.0,0.0,52.48294,-13.69369,-1.77617,9.14,-0.61,-0.05,4.0
1758088674.64498,1758088671.93268,0.0,0.0,0.0,50.3057,-9.22462,-4.98473,9.9,-0.52,-0.13,4.0
1758088674.66038,1758088671.94268,0.0,0.0,0.0,48.52953,-8.0787,-6.47442,9.9,-0.52,-0.13,4.0
1758088674.66276,1758088671.95268,0.0,0.0,0.0,45.72203,-7.67763,-7.96411,10.43,-0.31,0.06,4.0
1758088674.6794,1758088671.96268,0.0,0.0,0.0,42.51347,-8.47978,-9.33921,10.43,-0.31,0.06,4.0
1758088674.69566,1758088671.97268,0.0,0.0,0.0,36.84119,-11.34457,-11.28727,10.68,-0.01,0.22,4.0
1758088674.69609,1758088671.98268,0.0,0.0,0.0,32.14294,-12.83425,-12.71966,10.67,0.25,0.18,4.0
1758088674.71396,1758088671.99268,0.0,0.0,0.0,27.33009,-14.43854,-13.75099,10.67,0.25,0.18,4.0
1758088674.7153,1758088672.00268,0.0,0.0,0.0,22.40265,-15.75634,-14.61043,10.21,0.45,0.11,4.0
