timeStamp,timeStampAlign,roll,pitch,yaw,gyro_x,gyro_y,gyro_z,acc_x,acc_y,acc_z,flag_num
1758077206.34101,1758077206.21493,0.0,0.0,0.0,-42.85724,6.41713,-6.53172,19.08,-2.09,3.12,3.0
1758077206.3462,1758077206.22493,0.0,0.0,0.0,-38.1017,10.8289,3.49504,15.89,-2.01,2.68,3.0
1758077206.3881,1758077206.23493,0.0,0.0,0.0,-39.01843,1.43239,9.68299,15.89,-2.01,2.68,3.0
1758077206.39318,1758077206.24493,0.0,0.0,0.0,-43.20102,-4.1253,14.72501,13.27,0.29,4.73,3.0
1758077206.39376,1758077206.25493,0.0,0.0,0.0,-52.76942,-5.90147,19.99623,13.27,0.29,4.73,3.0
1758077206.39584,1758077206.26493,0.0,0.0,0.0,-58.4417,-4.0107,20.62648,13.47,1.38,4.57,3.0
1758077206.39655,1758077206.27493,0.0,0.0,0.0,-62.56699,-4.69825,19.88164,13.47,1.38,4.57,3.0
1758077206.40167,1758077206.28493,0.0,0.0,0.0,-65.14531,-4.58366,18.16276,11.31,1.03,4.59,3.0
1758077206.41702,1758077206.29493,0.0,0.0,0.0,-66.46311,-2.11994,15.0115,9.36,0.44,4.25,3.0
1758077206.43536,1758077206.30493,0.0,0.0,0.0,-66.11933,0.57296,12.77696,9.36,0.44,4.25,3.0
1758077206.43655,1758077206.31493,0.0,0.0,0.0,-65.48907,2.46372,10.25595,8.18,-0.1,3.78,3.0
1758077206.45141,1758077206.32493,0.0,0.0,0.0,-64.91612,6.35983,7.39116,8.18,-0.1,3.78,3.0
1758077206.45344,1758077206.33493,0.0,0.0,0.0,-65.2026,7.96411,1.83346,7.92,-0.36,3.43,3.0
1758077206.46843,1758077206.34493,0.0,0.0,0.0,-64.85883,9.05273,-0.45837,7.92,-0.36,3.43,3.0
1758077206.4717,1758077206.35493,0.0,0.0,0.0,-64.85883,10.59972,-1.60428,8.06,-0.74,2.89,3.0
1758077206.48711,1758077206.36493,0.0,0.0,0.0,-64.11398,12.54778,-1.43239,8.06,-0.74,2.89,3.0
1758077206.49181,1758077206.37493,0.0,0.0,0.0,-62.33781,14.38124,0.34377,8.55,-1.28,2.73,3.0
1758077206.50747,1758077206.38493,0.0,0.0,0.0,-61.59297,16.272,1.83346,8.55,-1.74,2.7,3.0
1758077206.52444,1758077206.39493,0.0,0.0,0.0,-60.67623,19.36597,3.09397,8.55,-1.74,2.7,3.0
1758077206.52557,1758077206.40493,0.0,0.0,0.0,-59.64491,21.48592,4.58366,8.37,-1.71,2.41,3.0
1758077206.54093,1758077206.41493,0.0,0.0,0.0,-57.75415,21.60051,5.15662,8.37,-1.71,2.41,3.0
1758077206.54213,1758077206.42493,0.0,0.0,0.0,-56.83742,21.14215,5.21392,7.88,-1.4,2.34,3.0
1758077206.55923,1758077206.43493,0.0,0.0,0.0,-55.92068,21.94428,5.27121,7.88,-1.4,2.34,3.0
1758077206.56655,1758077206.44493,0.0,0.0,0.0,-54.08722,21.08485,4.46907,7.99,-1.11,2.09,3.0
1758077206.58221,1758077206.45493,0.0,0.0,0.0,-52.884,17.6471,3.26586,7.84,-0.77,2.4,3.0
1758077206.58731,1758077206.46493,0.0,0.0,0.0,-52.54023,14.15206,1.03132,7.84,-0.77,2.4,3.0
1758077206.60242,1758077206.47493,0.0,0.0,0.0,-52.82671,12.08941,-1.08862,8.15,-0.68,2.17,3.0
1758077206.60409,1758077206.48493,0.0,0.0,0.0,-53.80074,11.91752,-4.58366,8.15,-0.68,2.17,3.0
1758077206.61928,1758077206.49493,0.0,0.0,0.0,-54.77477,10.94349,-6.70361,8.36,-0.73,2.24,3.0
1758077206.62461,1758077206.50493,0.0,0.0,0.0,-55.40502,9.28192,-8.02141,8.36,-0.73,2.24,3.0
1758077206.63949,1758077206.51493,0.0,0.0,0.0,-55.92068,7.44845,-8.59437,8.04,-0.93,2.25,3.0
1758077206.64198,1758077206.52493,0.0,0.0,0.0,-55.97798,5.78687,-8.30789,7.9,-1.21,2.06,3.0
1758077206.66127,1758077206.53493,0.0,0.0,0.0,-55.6342,4.98473,-7.79223,7.9,-1.21,2.06,3.0
1758077206.66589,1758077206.54493,0.0,0.0,0.0,-55.29043,3.55234,-7.04738,7.74,-1.5,1.92,3.0
1758077206.68148,1758077206.55493,0.0,0.0,0.0,-54.48829,2.29183,-6.41713,7.74,-1.5,1.92,3.0
1758077206.68319,1758077206.56493,0.0,0.0,0.0,-52.65482,2.00535,-5.72958,7.83,-1.6,1.85,3.0
1758077206.70104,1758077206.57493,0.0,0.0,0.0,-51.22243,1.94806,-5.84417,7.83,-1.6,1.85,3.0
1758077206.70623,1758077206.58493,0.0,0.0,0.0,-49.50356,2.92208,-5.84417,8.02,-1.48,1.7,3.0
1758077206.72157,1758077206.59493,0.0,0.0,0.0,-47.49821,4.64096,-5.55769,8.02,-1.48,1.7,3.0
1758077206.72284,1758077206.60493,0.0,0.0,0.0,-43.54479,6.70361,-3.95341,8.3,-1.3,1.84,3.0
1758077206.73923,1758077206.61493,0.0,0.0,0.0,-40.62271,7.62034,-2.23454,8.29,-1.25,1.68,3.0
1758077206.74161,1758077206.62493,0.0,0.0,0.0,-37.64333,8.25059,-0.22918,8.29,-1.25,1.68,3.0
1758077206.76092,1758077206.63493,0.0,0.0,0.0,-33.86181,9.39651,2.57831,8.29,-1.33,1.56,3.0
1758077206.7626,1758077206.64493,0.0,0.0,0.0,-31.79916,10.02676,3.55234,8.29,-1.33,1.56,3.0
1758077206.77823,1758077206.65493,0.0,0.0,0.0,-30.36677,10.71431,3.89611,8.44,-1.49,1.54,3.0
1758077206.78194,1758077206.66493,0.0,0.0,0.0,-29.22085,11.57375,3.49504,8.44,-1.49,1.54,3.0
1758077206.80158,1758077206.67493,0.0,0.0,0.0,-28.70519,12.77696,2.23454,8.65,-1.37,1.36,3.0
1758077206.80563,1758077206.68493,0.0,0.0,0.0,-28.87707,14.09476,0.97403,8.94,-1.18,1.42,3.0
1758077206.82148,1758077206.69493,0.0,0.0,0.0,-28.93437,15.69904,-0.11459,8.94,-1.18,1.42,3.0
1758077206.82574,1758077206.70493,0.0,0.0,0.0,-28.76248,16.84496,-0.97403,9.23,-1.08,1.42,3.0
1758077206.84148,1758077206.71493,0.0,0.0,0.0,-27.78845,17.47521,-2.11994,9.23,-1.08,1.42,3.0
1758077206.84584,1758077206.72493,0.0,0.0,0.0,-26.81443,17.24603,-2.34913,9.32,-1.13,1.39,3.0
1758077206.86128,1758077206.73493,0.0,0.0,0.0,-25.43933,15.87093,-2.63561,9.32,-1.13,1.39,3.0
1758077206.86521,1758077206.74493,0.0,0.0,0.0,-23.72045,15.35527,-2.92208,9.23,-1.26,1.33,3.0
1758077206.88124,1758077206.75493,0.0,0.0,0.0,-20.85567,17.30333,-3.09397,9.57,-1.4,1.26,3.0
1758077206.8825,1758077206.76493,0.0,0.0,0.0,-18.85031,17.47521,-3.20856,9.57,-1.4,1.26,3.0
1758077206.89756,1758077206.77493,0.0,0.0,0.0,-17.24603,17.6471,-3.49504,9.67,-1.37,1.37,3.0
1758077206.91456,1758077206.78493,0.0,0.0,0.0,-15.69904,18.62113,-3.72423,9.67,-1.37,1.37,3.0
1758077206.91576,1758077206.79493,0.0,0.0,0.0,-13.80828,21.94428,-4.29718,10.16,-1.24,1.51,3.0
1758077206.93141,1758077206.80493,0.0,0.0,0.0,-12.08941,26.18417,-3.55234,10.16,-1.24,1.51,3.0
1758077206.93306,1758077206.81493,0.0,0.0,0.0,-10.37054,27.10091,-1.66158,10.74,-1.26,1.74,3.0
1758077206.95127,1758077206.82493,0.0,0.0,0.0,-8.136,23.66316,3.38045,10.74,-1.26,1.74,3.0
1758077206.95227,1758077206.83493,0.0,0.0,0.0,-4.1253,17.81899,7.96411,10.46,-1.52,2.17,3.0
1758077206.96942,1758077206.84493,0.0,0.0,0.0,-0.11459,14.61043,12.83425,11.01,-2.04,2.36,3.0
1758077206.98535,1758077206.85493,0.0,0.0,0.0,5.15662,10.19865,17.30333,11.01,-2.04,2.36,3.0
1758077206.9865,1758077206.86493,0.0,0.0,0.0,12.08941,-8.25059,21.08485,11.58,-2.74,3.58,3.0
1758077207.00164,1758077206.87493,0.0,0.0,0.0,16.95955,-42.39888,23.54857,11.58,-2.74,3.58,3.0
1758077207.00333,1758077206.88493,0.0,0.0,0.0,20.45459,-83.47996,29.27814,10.36,-3.42,6.86,3.0
1758077207.01833,1758077206.89493,0.0,0.0,0.0,15.98552,-78.43793,32.20023,10.36,-3.42,6.86,3.0
1758077207.02203,1758077206.90493,0.0,0.0,0.0,10.65701,-13.98017,32.48671,17.71,-2.84,5.23,3.0
1758077207.03763,1758077206.91493,0.0,0.0,0.0,6.13065,8.76626,26.47065,18.93,-2.2,3.27,3.0
1758077207.04178,1758077206.92493,0.0,0.0,0.0,1.94806,5.09932,15.58445,18.93,-2.2,3.27,3.0
1758077207.0606,1758077206.93493,0.0,0.0,0.0,0.0573,-1.43239,3.60963,11.56,-2.2,4.27,3.0
1758077207.06156,1758077206.94493,0.0,0.0,0.0,2.97938,-14.66772,-9.91217,11.56,-2.2,4.27,3.0
1758077207.08144,1758077206.95493,0.0,0.0,0.0,7.44845,-24.86637,-16.67307,10.72,-2.44,4.75,3.0
1758077207.08322,1758077206.96493,0.0,0.0,0.0,11.63104,-44.11775,-19.53786,10.72,-2.44,4.75,3.0
1758077207.10063,1758077206.97493,0.0,0.0,0.0,17.01685,-57.29578,-19.42327,9.26,-2.3,4.81,3.0
1758077207.10161,1758077206.98493,0.0,0.0,0.0,24.98096,-60.33246,-11.17268,10.1,-2.35,3.89,3.0
1758077207.11966,1758077206.99493,0.0,0.0,0.0,28.87707,-59.64491,-5.09932,10.1,-2.35,3.89,3.0
1758077207.1354,1758077207.00493,0.0,0.0,0.0,31.56997,-60.73353,0.40107,8.52,-2.02,3.65,3.0
1758077207.13662,1758077207.01493,0.0,0.0,0.0,32.83048,-61.70755,4.69825,8.52,-2.02,3.65,3.0
1758077207.15151,1758077207.02493,0.0,0.0,0.0,32.48671,-57.52497,8.65166,6.88,-1.56,3.17,3.0
1758077207.15263,1758077207.03493,0.0,0.0,0.0,30.65324,-51.79538,8.59437,6.88,-1.56,3.17,3.0
1758077207.16747,1758077207.04493,0.0,0.0,0.0,27.73116,-46.46688,7.10468,6.83,-0.73,2.62,3.0
1758077207.18348,1758077207.05493,0.0,0.0,0.0,22.97561,-34.89313,3.72423,6.83,-0.73,2.62,3.0
1758077207.18704,1758077207.06493,0.0,0.0,0.0,19.88164,-25.8404,1.66158,7.72,0.35,2.33,3.0
1758077207.20271,1758077207.07493,0.0,0.0,0.0,17.18874,-15.92823,0.0,9.12,1.1,1.59,3.0
1758077207.20601,1758077207.08493,0.0,0.0,0.0,14.49583,-6.7609,-1.71887,9.12,1.1,1.59,3.0
1758077207.22154,1758077207.09493,0.0,0.0,0.0,11.34457,4.87014,-3.49504,9.24,1.05,1.46,3.0
1758077207.22288,1758077207.10493,0.0,0.0,0.0,10.08406,12.71966,-4.64096,9.24,1.05,1.46,3.0
1758077207.23746,1758077207.11493,0.0,0.0,0.0,9.28192,20.3973,-5.84417,8.73,0.31,1.54,3.0
1758077207.25347,1758077207.12493,0.0,0.0,0.0,8.65166,26.75713,-7.04738,8.73,0.31,1.54,3.0
1758077207.25631,1758077207.13493,0.0,0.0,0.0,7.79223,31.85646,-10.25595,8.3,-0.38,1.77,3.0
1758077207.27174,1758077207.14493,0.0,0.0,0.0,7.10468,33.00237,-13.12073,8.2,-0.64,2.03,3.0
1758077207.27268,1758077207.15493,0.0,0.0,0.0,6.24524,34.09099,-16.50119,8.2,-0.64,2.03,3.0
1758077207.28774,1758077207.16493,0.0,0.0,0.0,5.50039,34.60666,-19.82434,8.48,-0.57,2.0,3.0
1758077207.30375,1758077207.17493,0.0,0.0,0.0,4.58366,31.74186,-23.60586,8.48,-0.57,2.0,3.0
1758077207.30577,1758077207.18493,0.0,0.0,0.0,4.35448,28.93437,-24.57989,8.42,-0.36,2.03,3.0
1758077207.32077,1758077207.19493,0.0,0.0,0.0,4.46907,26.01229,-24.63719,8.42,-0.36,2.03,3.0
1758077207.32166,1758077207.20493,0.0,0.0,0.0,4.69825,23.31938,-23.94964,8.38,-0.24,1.91,3.0
1758077207.33874,1758077207.21493,0.0,0.0,0.0,5.4431,18.62113,-20.79837,8.29,-0.33,1.88,3.0
1758077207.35479,1758077207.22493,0.0,0.0,0.0,6.41713,14.9542,-17.87628,8.29,-0.33,1.88,3.0
1758077207.35569,1758077207.23493,0.0,0.0,0.0,7.62034,11.97482,-14.38124,8.39,-0.56,1.95,3.0
1758077207.37048,1758077207.24493,0.0,0.0,0.0,8.88085,8.65166,-9.22462,8.39,-0.56,1.95,3.0
1758077207.37195,1758077207.25493,0.0,0.0,0.0,10.19865,4.35448,-7.67763,8.56,-0.72,2.16,3.0
1758077207.38779,1758077207.26493,0.0,0.0,0.0,10.54242,1.3751,-7.96411,8.56,-0.72,2.16,3.0
1758077207.40374,1758077207.27493,0.0,0.0,0.0,10.65701,-2.34913,-9.5684,8.49,-0.57,2.03,3.0
1758077207.40476,1758077207.28493,0.0,0.0,0.0,10.54242,-6.41713,-13.34992,8.49,-0.57,2.03,3.0
1758077207.41959,1758077207.29493,0.0,0.0,0.0,10.37054,-8.25059,-15.46986,8.47,-0.16,1.9,3.0
1758077207.43556,1758077207.30493,0.0,0.0,0.0,10.54242,-9.91217,-16.95955,8.57,0.11,1.65,3.0
1758077207.43723,1758077207.31493,0.0,0.0,0.0,10.59972,-10.54242,-17.53251,8.57,0.11,1.65,3.0
1758077207.45157,1758077207.32493,0.0,0.0,0.0,10.71431,-9.74028,-16.10011,8.83,0.06,1.6,3.0
1758077207.45275,1758077207.33493,0.0,0.0,0.0,10.8289,-8.30789,-13.98017,8.83,0.06,1.6,3.0
1758077207.46757,1758077207.34493,0.0,0.0,0.0,10.59972,-7.10468,-11.57375,9.09,-0.19,1.47,3.0
1758077207.48397,1758077207.35493,0.0,0.0,0.0,10.65701,-5.32851,-9.22462,9.09,-0.19,1.47,3.0
1758077207.48576,1758077207.36493,0.0,0.0,0.0,10.48513,-2.57831,-6.18794,9.41,-0.41,1.45,3.0
1758077207.50085,1758077207.37493,0.0,0.0,0.0,10.31324,-0.85944,-4.92744,9.58,-0.42,1.37,3.0
1758077207.50175,1758077207.38493,0.0,0.0,0.0,10.19865,0.80214,-4.64096,9.58,-0.42,1.37,3.0
1758077207.51787,1758077207.39493,0.0,0.0,0.0,9.74028,1.48969,-4.87014,9.47,-0.21,1.32,3.0
1758077207.5337,1758077207.40493,0.0,0.0,0.0,8.88085,3.49504,-5.50039,9.47,-0.21,1.32,3.0
1758077207.53556,1758077207.41493,0.0,0.0,0.0,8.136,4.29718,-5.90147,9.35,0.01,1.13,3.0
1758077207.55159,1758077207.42493,0.0,0.0,0.0,7.16197,4.69825,-5.61499,9.35,0.01,1.13,3.0
1758077207.5528,1758077207.43493,0.0,0.0,0.0,6.24524,5.55769,-5.09932,9.34,0.09,1.02,3.0
1758077207.56783,1758077207.44493,0.0,0.0,0.0,4.52637,6.70361,-3.60963,9.6,0.03,1.04,3.0
1758077207.58392,1758077207.45493,0.0,0.0,0.0,3.20856,10.54242,-2.29183,9.6,0.03,1.04,3.0
1758077207.58641,1758077207.46493,0.0,0.0,0.0,1.83346,16.84496,-1.14592,10.25,0.03,1.12,3.0
1758077207.60162,1758077207.47493,0.0,0.0,0.0,-0.22918,18.9649,-1.03132,10.25,0.03,1.12,3.0
1758077207.60471,1758077207.48493,0.0,0.0,0.0,-1.08862,13.98017,-1.83346,9.86,0.07,1.28,3.0
1758077207.62088,1758077207.49493,0.0,0.0,0.0,-2.7502,13.12073,-2.97938,9.86,0.07,1.28,3.0
1758077207.62187,1758077207.50493,0.0,0.0,0.0,-4.69825,13.69369,-6.35983,10.5,0.22,1.4,3.0
1758077207.64094,1758077207.51493,0.0,0.0,0.0,-7.21927,15.58445,-12.43318,10.5,0.22,1.4,3.0
1758077207.64181,1758077207.52493,0.0,0.0,0.0,-9.74028,15.75634,-17.18874,11.31,0.6,1.52,3.0
1758077207.65868,1758077207.53493,0.0,0.0,0.0,-12.71966,11.45916,-20.74107,11.37,0.92,1.94,3.0
1758077207.67492,1758077207.54493,0.0,0.0,0.0,-15.35527,-1.77617,-22.63183,11.37,0.92,1.94,3.0
1758077207.67585,1758077207.55493,0.0,0.0,0.0,-16.73037,-23.54857,-23.20479,10.81,0.91,2.96,3.0
1758077207.69094,1758077207.56493,0.0,0.0,0.0,-17.58981,-34.26288,-21.14215,10.81,0.91,2.96,3.0
1758077207.69214,1758077207.57493,0.0,0.0,0.0,-17.93358,-35.63798,-18.10547,12.05,0.56,4.18,3.0
1758077207.70902,1758077207.58493,0.0,0.0,0.0,-18.62113,-14.38124,-15.92823,12.05,0.56,4.18,3.0
1758077207.72496,1758077207.59493,0.0,0.0,0.0,-15.87093,7.16197,-16.84496,16.07,0.26,4.69,3.0
1758077207.72587,1758077207.60493,0.0,0.0,0.0,-14.72501,2.86479,-20.16812,13.92,-0.14,4.47,3.0
1758077207.74075,1758077207.61493,0.0,0.0,0.0,-14.49583,3.60963,-20.05352,13.92,-0.14,4.47,3.0
1758077207.74187,1758077207.62493,0.0,0.0,0.0,-13.98017,11.74564,-14.66772,13.69,0.47,2.6,3.0
1758077207.75802,1758077207.63493,0.0,0.0,0.0,-13.98017,25.61122,-2.86479,13.69,0.47,2.6,3.0
1758077207.77602,1758077207.64493,0.0,0.0,0.0,-15.58445,28.59059,5.21392,13.85,0.79,4.11,3.0
1758077207.77853,1758077207.65493,0.0,0.0,0.0,-18.16276,24.86637,11.28727,13.85,0.79,4.11,3.0
1758077207.79533,1758077207.66493,0.0,0.0,0.0,-22.74642,20.11082,16.95955,12.09,1.19,3.68,3.0
1758077207.79682,1758077207.67493,0.0,0.0,0.0,-25.89769,15.64175,17.99088,10.98,1.28,3.32,3.0
1758077207.81201,1758077207.68493,0.0,0.0,0.0,-28.70519,13.69369,17.6471,10.98,1.28,3.32,3.0
1758077207.81538,1758077207.69493,0.0,0.0,0.0,-31.2262,12.2613,15.98552,9.67,1.32,3.45,3.0
1758077207.83074,1758077207.70493,0.0,0.0,0.0,-34.14828,7.44845,12.43318,9.67,1.32,3.45,3.0
1758077207.83227,1758077207.71493,0.0,0.0,0.0,-35.98175,2.00535,9.22462,7.7,1.07,3.16,3.0
1758077207.84805,1758077207.72493,0.0,0.0,0.0,-38.27358,-3.72423,5.4431,7.7,1.07,3.16,3.0
1758077207.86502,1758077207.73493,0.0,0.0,0.0,-39.99245,-9.33921,2.11994,6.54,0.84,3.0,3.0
1758077207.86674,1758077207.74493,0.0,0.0,0.0,-41.59674,-17.13144,0.0,6.29,0.84,2.93,3.0
1758077207.88173,1758077207.75493,0.0,0.0,0.0,-41.65404,-20.79837,0.74485,6.29,0.5,2.93,3.0
1758077207.88297,1758077207.76493,0.0,0.0,0.0,-41.02378,-22.63183,2.23454,6.96,-0.31,2.98,3.0
1758077207.89966,1758077207.77493,0.0,0.0,0.0,-39.4768,-23.37668,3.89611,6.96,-0.31,2.98,3.0
1758077207.91478,1758077207.78493,0.0,0.0,0.0,-35.92446,-22.74642,5.55769,7.87,-1.38,2.8,3.0
1758077207.91633,1758077207.79493,0.0,0.0,0.0,-33.46074,-20.3973,5.72958,7.87,-1.38,2.8,3.0
1758077207.93108,1758077207.80493,0.0,0.0,0.0,-31.16891,-16.67307,5.27121,8.74,-2.14,2.48,3.0
1758077207.93202,1758077207.81493,0.0,0.0,0.0,-29.67921,-13.06344,4.35448,8.74,-2.14,2.48,3.0
1758077207.94808,1758077207.82493,0.0,0.0,0.0,-28.24682,-9.22462,3.20856,8.9,-1.83,2.24,3.0
1758077207.96409,1758077207.83493,0.0,0.0,0.0,-27.44468,-6.47442,2.46372,8.61,-0.89,2.1,3.0
1758077207.96529,1758077207.84493,0.0,0.0,0.0,-27.04361,-3.66693,2.23454,8.61,-0.89,2.1,3.0
1758077207.98011,1758077207.85493,0.0,0.0,0.0,-27.2155,-0.85944,2.63561,8.87,-0.33,2.31,3.0
1758077207.99611,1758077207.86493,0.0,0.0,0.0,-27.2155,4.46907,3.55234,8.87,-0.33,2.31,3.0
1758077207.99703,1758077207.87493,0.0,0.0,0.0,-27.38738,7.33386,4.23989,9.21,-0.23,2.29,3.0
1758077208.0121,1758077207.88493,0.0,0.0,0.0,-27.33009,9.5684,4.69825,9.21,-0.23,2.29,3.0
1758077208.01304,1758077207.89493,0.0,0.0,0.0,-27.33009,13.23533,5.90147,9.11,-0.43,2.37,3.0
1758077208.02813,1758077207.90493,0.0,0.0,0.0,-27.33009,15.0115,6.70361,9.08,-0.73,2.45,3.0
1758077208.04428,1758077207.91493,0.0,0.0,0.0,-27.67386,15.75634,7.84952,9.08,-0.73,2.45,3.0
1758077208.04507,1758077207.92493,0.0,0.0,0.0,-28.24682,16.3293,8.76626,8.88,-0.88,2.53,3.0
1758077208.06012,1758077207.93493,0.0,0.0,0.0,-29.50733,14.9542,9.85487,8.88,-0.88,2.53,3.0
1758077208.07624,1758077207.94493,0.0,0.0,0.0,-30.19488,12.83425,10.25595,8.55,-0.89,2.52,3.0
1758077208.07908,1758077207.95493,0.0,0.0,0.0,-30.82513,11.22997,10.48513,8.55,-0.89,2.52,3.0
1758077208.09403,1758077207.96493,0.0,0.0,0.0,-31.16891,10.02676,10.71431,8.47,-0.89,2.42,3.0
1758077208.09585,1758077207.97493,0.0,0.0,0.0,-31.39809,9.39651,10.71431,8.56,-0.93,2.22,3.0
1758077208.1111,1758077207.98493,0.0,0.0,0.0,-31.39809,8.59437,9.85487,8.56,-0.93,2.22,3.0
1758077208.11208,1758077207.99493,0.0,0.0,0.0,-30.99702,8.0787,9.22462,8.62,-1.0,2.2,3.0
1758077208.12827,1758077208.00493,0.0,0.0,0.0,-30.19488,8.02141,9.11003,8.62,-1.0,2.2,3.0
1758077208.14389,1758077208.01493,0.0,0.0,0.0,-28.13223,11.51645,8.42248,8.82,-1.1,2.12,3.0
1758077208.14507,1758077208.02493,0.0,0.0,0.0,-25.72581,6.18794,9.39651,8.82,-1.1,2.12,3.0
1758077208.1601,1758077208.03493,0.0,0.0,0.0,-24.23611,3.66693,10.54242,8.12,-1.26,2.02,3.0
1758077208.16186,1758077208.04493,0.0,0.0,0.0,-22.63183,5.32851,11.63104,8.12,-1.26,2.02,3.0
1758077208.18109,1758077208.05493,0.0,0.0,0.0,-21.60051,8.65166,12.2613,8.82,-1.46,1.91,3.0
1758077208.18632,1758077208.06493,0.0,0.0,0.0,-21.25674,9.85487,12.2613,8.76,-1.54,1.88,3.0
1758077208.20194,1758077208.07493,0.0,0.0,0.0,-20.85567,11.00079,11.51645,8.76,-1.54,1.88,3.0
1758077208.20339,1758077208.08493,0.0,0.0,0.0,-20.3973,12.54778,9.96947,8.86,-1.33,1.88,3.0
1758077208.22098,1758077208.09493,0.0,0.0,0.0,-19.82434,14.78231,8.42248,8.86,-1.33,1.88,3.0
1758077208.22519,1758077208.10493,0.0,0.0,0.0,-19.19409,16.38659,7.04738,9.14,-1.12,1.8,3.0
1758077208.24592,1758077208.11493,0.0,0.0,0.0,-18.44924,17.53251,5.4431,9.14,-1.12,1.8,3.0
1758077208.24704,1758077208.12493,0.0,0.0,0.0,-17.30333,17.47521,3.49504,9.21,-1.05,1.8,3.0
1758077208.26197,1758077208.13493,0.0,0.0,0.0,-16.50119,17.81899,2.63561,9.07,-1.07,1.73,3.0
1758077208.26316,1758077208.14493,0.0,0.0,0.0,-15.41257,18.50654,2.06265,9.07,-1.07,1.73,3.0
1758077208.2779,1758077208.15493,0.0,0.0,0.0,-14.61043,17.30333,1.77617,8.88,-1.16,1.74,3.0
1758077208.29575,1758077208.16493,0.0,0.0,0.0,-13.12073,13.12073,1.14592,8.88,-1.16,1.74,3.0
1758077208.29704,1758077208.17493,0.0,0.0,0.0,-11.80293,10.71431,0.68755,8.55,-1.3,1.62,3.0
1758077208.31231,1758077208.18493,0.0,0.0,0.0,-10.31324,8.65166,0.40107,8.55,-1.3,1.62,3.0
1758077208.31318,1758077208.19493,0.0,0.0,0.0,-8.76626,4.23989,-0.0573,8.65,-1.43,1.65,3.0
1758077208.32831,1758077208.20493,0.0,0.0,0.0,-6.53172,1.20321,-0.85944,8.88,-1.55,1.7,3.0
1758077208.33314,1758077208.21493,0.0,0.0,0.0,-4.18259,5.61499,-1.03132,8.88,-1.55,1.7,3.0
1758077208.35131,1758077208.22493,0.0,0.0,0.0,-1.66158,7.79223,-0.68755,9.45,-1.66,1.69,3.0
1758077208.35298,1758077208.23493,0.0,0.0,0.0,0.45837,5.21392,0.0573,9.45,-1.66,1.69,3.0
1758077208.36928,1758077208.24493,0.0,0.0,0.0,3.55234,-0.40107,1.66158,8.88,-1.65,1.7,3.0
1758077208.38535,1758077208.25493,0.0,0.0,0.0,5.84417,-3.38045,3.49504,8.88,-1.65,1.7,3.0
1758077208.41935,1758077208.26493,0.0,0.0,0.0,17.01685,-13.12073,15.41257,9.96,-1.99,1.6,3.0
1758077208.43633,1758077208.27493,0.0,0.0,0.0,19.99623,-13.5791,17.81899,9.96,-1.99,1.6,3.0
1758077208.4375,1758077208.28493,0.0,0.0,0.0,23.72045,-20.05352,19.25138,9.99,-2.14,1.5,3.0
1758077208.45206,1758077208.29493,0.0,0.0,0.0,25.26744,-23.26209,18.73572,9.99,-2.14,1.5,3.0
1758077208.45323,1758077208.30493,0.0,0.0,0.0,27.33009,-16.73037,16.95955,10.37,-2.16,1.45,3.0
1758077208.46833,1758077208.31493,0.0,0.0,0.0,29.27814,2.40642,14.72501,10.37,-2.16,1.45,3.0
1758077208.48432,1758077208.32493,0.0,0.0,0.0,32.14294,36.95578,11.80293,13.06,-2.2,1.94,3.0
1758077208.48525,1758077208.33493,0.0,0.0,0.0,34.60666,36.95578,10.08406,12.17,-2.22,3.82,3.0
1758077208.50015,1758077208.34493,0.0,0.0,0.0,28.87707,9.05273,3.49504,12.17,-2.22,3.82,3.0
1758077208.51636,1758077208.35493,0.0,0.0,0.0,28.07493,-41.59674,9.28192,7.97,-2.01,5.09,3.0
1758077208.51726,1758077208.36493,0.0,0.0,0.0,25.7831,-55.51962,28.93437,7.97,-2.01,5.09,3.0
1758077208.53236,1758077208.37493,0.0,0.0,0.0,22.91831,-23.66316,37.24226,16.93,-1.99,4.15,3.0
1758077208.53409,1758077208.38493,0.0,0.0,0.0,19.53786,-0.22918,40.33623,16.93,-1.99,4.15,3.0
1758077208.55012,1758077208.39493,0.0,0.0,0.0,15.29797,7.44845,36.03905,17.0,-1.72,3.16,3.0
1758077208.56605,1758077208.40493,0.0,0.0,0.0,10.94349,6.13065,22.91831,13.08,-1.95,3.67,3.0
1758077208.56754,1758077208.41493,0.0,0.0,0.0,9.5684,11.45916,10.31324,13.08,-1.95,3.67,3.0
1758077208.58208,1758077208.42493,0.0,0.0,0.0,11.57375,16.61578,-1.14592,12.93,-2.65,3.65,3.0
1758077208.5856,1758077208.43493,0.0,0.0,0.0,15.0115,16.90226,-12.14671,12.93,-2.65,3.65,3.0
1758077208.6011,1758077208.44493,0.0,0.0,0.0,22.74642,9.11003,-22.51724,11.62,-3.31,4.77,3.0
1758077208.6031,1758077208.45493,0.0,0.0,0.0,29.10626,2.40642,-24.57989,11.62,-3.31,4.77,3.0
1758077208.62036,1758077208.46493,0.0,0.0,0.0,35.63798,-3.09397,-23.83505,10.76,-3.48,4.74,3.0
1758077208.63641,1758077208.47493,0.0,0.0,0.0,43.94586,-7.67763,-18.56383,10.76,-3.48,4.74,3.0
1758077208.63733,1758077208.48493,0.0,0.0,0.0,47.89928,-14.32395,-13.75099,9.98,-3.08,3.96,3.0
1758077208.65225,1758077208.49493,0.0,0.0,0.0,50.53488,-18.90761,-8.36518,8.39,-2.13,3.54,3.0
1758077208.65604,1758077208.50493,0.0,0.0,0.0,52.48294,-24.12152,-2.11994,8.39,-2.13,3.54,3.0
1758077208.67138,1758077208.51493,0.0,0.0,0.0,53.97263,-30.99702,6.7609,7.1,-1.06,3.33,3.0
1758077208.67312,1758077208.52493,0.0,0.0,0.0,53.62885,-35.69527,11.86023,7.1,-1.06,3.33,3.0
1758077208.68987,1758077208.53493,0.0,0.0,0.0,52.02457,-38.1017,15.46986,6.95,-0.01,2.92,3.0
1758077208.70612,1758077208.54493,0.0,0.0,0.0,49.50356,-37.81522,17.47521,6.95,-0.01,2.92,3.0
1758077208.70738,1758077208.55493,0.0,0.0,0.0,44.11775,-34.66395,16.55848,7.84,0.82,2.69,3.0
1758077208.72611,1758077208.56493,0.0,0.0,0.0,39.99245,-31.85646,13.75099,8.04,0.98,2.58,3.0
1758077208.72768,1758077208.57493,0.0,0.0,0.0,35.69527,-28.41871,9.74028,8.04,0.98,2.58,3.0
1758077208.74246,1758077208.58493,0.0,0.0,0.0,31.39809,-24.57989,5.09932,7.73,0.49,2.55,3.0
1758077208.74412,1758077208.59493,0.0,0.0,0.0,25.61122,-18.50654,-2.29183,7.73,0.49,2.55,3.0
1758077208.76101,1758077208.60493,0.0,0.0,0.0,22.23076,-14.49583,-6.8182,7.42,0.03,2.58,3.0
1758077208.76267,1758077208.61493,0.0,0.0,0.0,19.07949,-10.19865,-10.37054,7.42,0.03,2.58,3.0
1758077208.77817,1758077208.62493,0.0,0.0,0.0,16.04282,-7.44845,-13.34992,7.68,0.04,2.56,3.0
1758077208.79645,1758077208.63493,0.0,0.0,0.0,11.74564,-5.90147,-17.47521,7.99,0.31,2.5,3.0
1758077208.80164,1758077208.64493,0.0,0.0,0.0,8.99544,-4.18259,-20.11082,7.99,0.31,2.5,3.0
1758077208.81647,1758077208.65493,0.0,0.0,0.0,7.10468,-1.48969,-22.51724,8.56,0.39,2.31,3.0
1758077208.82167,1758077208.66493,0.0,0.0,0.0,5.95876,0.0,-24.17882,8.56,0.39,2.31,3.0
1758077208.83652,1758077208.67493,0.0,0.0,0.0,5.61499,0.74485,-25.61122,8.65,0.11,2.29,3.0
1758077208.83821,1758077208.68493,0.0,0.0,0.0,6.35983,1.60428,-25.7831,8.65,0.11,2.29,3.0
1758077208.85421,1758077208.69493,0.0,0.0,0.0,7.84952,1.83346,-24.63719,8.78,-0.41,2.09,3.0
1758077208.85618,1758077208.70493,0.0,0.0,0.0,11.00079,2.6929,-21.25674,8.78,-0.41,2.09,3.0
1758077208.87118,1758077208.71493,0.0,0.0,0.0,12.89155,3.72423,-18.85031,8.8,-0.88,2.0,3.0
1758077208.8724,1758077208.72493,0.0,0.0,0.0,15.06879,5.78687,-16.55848,8.94,-1.06,2.01,3.0
1758077208.88852,1758077208.73493,0.0,0.0,0.0,16.50119,7.21927,-15.24068,8.94,-1.06,2.01,3.0
1758077208.90621,1758077208.74493,0.0,0.0,0.0,17.87628,7.96411,-14.09476,8.74,-0.82,1.89,3.0
1758077208.90743,1758077208.75493,0.0,0.0,0.0,18.33465,7.44845,-14.03747,8.74,-0.82,1.89,3.0
1758077208.92224,1758077208.76493,0.0,0.0,0.0,18.62113,6.35983,-14.15206,8.63,-0.38,1.89,3.0
1758077208.92343,1758077208.77493,0.0,0.0,0.0,18.50654,5.50039,-14.49583,8.63,-0.38,1.89,3.0
1758077208.93847,1758077208.78493,0.0,0.0,0.0,17.93358,4.58366,-14.66772,8.72,0.0,1.91,3.0
1758077208.9563,1758077208.79493,0.0,0.0,0.0,17.36062,4.0107,-14.38124,8.73,0.18,1.8,3.0
1758077208.96097,1758077208.80493,0.0,0.0,0.0,16.50119,4.52637,-13.75099,8.73,0.18,1.8,3.0
1758077208.97657,1758077208.81493,0.0,0.0,0.0,15.64175,4.87014,-12.43318,8.76,0.19,1.98,3.0
1758077208.97747,1758077208.82493,0.0,0.0,0.0,14.49583,4.98473,-10.71431,8.76,0.19,1.98,3.0
1758077208.99553,1758077208.83493,0.0,0.0,0.0,13.86558,4.98473,-9.91217,8.83,0.03,2.05,3.0
1758077208.99688,1758077208.84493,0.0,0.0,0.0,13.23533,4.81285,-9.74028,8.83,0.03,2.05,3.0
1758077209.01153,1758077208.85493,0.0,0.0,0.0,12.83425,4.18259,-9.74028,9.06,-0.14,2.07,3.0
1758077209.01279,1758077208.86493,0.0,0.0,0.0,12.43318,4.18259,-10.59972,9.24,-0.23,1.95,3.0
1758077209.02855,1758077208.87493,0.0,0.0,0.0,12.43318,3.38045,-11.22997,9.24,-0.23,1.95,3.0
1758077209.04454,1758077208.88493,0.0,0.0,0.0,12.49048,2.11994,-11.28727,9.16,-0.17,1.84,3.0
1758077209.04554,1758077208.89493,0.0,0.0,0.0,12.60507,1.83346,-10.71431,9.16,-0.17,1.84,3.0
1758077209.0606,1758077208.90493,0.0,0.0,0.0,12.77696,1.14592,-9.4538,9.21,-0.06,1.79,3.0
1758077209.07656,1758077208.91493,0.0,0.0,0.0,13.00614,1.08862,-7.67763,9.21,-0.06,1.79,3.0
1758077209.07745,1758077208.92493,0.0,0.0,0.0,12.83425,0.85944,-5.21392,9.21,-0.04,1.68,3.0
1758077209.09234,1758077208.93493,0.0,0.0,0.0,12.37589,1.66158,-3.03668,9.21,-0.04,1.68,3.0
1758077209.0935,1758077208.94493,0.0,0.0,0.0,11.51645,3.89611,-3.26586,9.34,-0.04,1.84,3.0
1758077209.10856,1758077208.95493,0.0,0.0,0.0,10.37054,3.95341,-4.18259,9.38,0.1,1.61,3.0
1758077209.12458,1758077208.96493,0.0,0.0,0.0,10.02676,0.0,-4.23989,9.38,0.1,1.61,3.0
1758077209.12555,1758077208.97493,0.0,0.0,0.0,6.99009,1.20321,-6.99009,9.16,0.28,1.42,3.0
1758077209.14058,1758077208.98493,0.0,0.0,0.0,5.32851,1.83346,-8.02141,9.16,0.28,1.42,3.0
1758077209.15641,1758077208.99493,0.0,0.0,0.0,3.66693,2.29183,-10.65701,9.32,0.45,1.33,3.0
1758077209.15754,1758077209.00493,0.0,0.0,0.0,1.20321,4.1253,-13.00614,9.32,0.45,1.33,3.0
1758077209.17259,1758077209.01493,0.0,0.0,0.0,-1.08862,3.83882,-17.99088,9.3,0.61,1.29,3.0
1758077209.17356,1758077209.02493,0.0,0.0,0.0,-2.46372,0.45837,-19.53786,9.18,0.73,1.22,3.0
1758077209.18858,1758077209.03493,0.0,0.0,0.0,-3.83882,-5.4431,-20.05352,9.18,0.73,1.22,3.0
1758077209.2052,1758077209.04493,0.0,0.0,0.0,-4.52637,-10.94349,-19.07949,8.91,0.56,0.95,3.0
1758077209.20634,1758077209.05493,0.0,0.0,0.0,-5.21392,-14.9542,-14.78231,8.91,0.56,0.95,3.0
1758077209.22136,1758077209.06493,0.0,0.0,0.0,-4.98473,-16.21471,-10.8289,9.43,0.31,1.03,3.0
1758077209.22284,1758077209.07493,0.0,0.0,0.0,-4.29718,-6.99009,-5.4431,9.43,0.31,1.03,3.0
1758077209.2384,1758077209.08493,0.0,0.0,0.0,-5.84417,14.78231,-4.23989,11.71,0.27,1.64,3.0
1758077209.25545,1758077209.09493,0.0,0.0,0.0,-8.136,25.43933,-8.47978,12.04,0.56,2.37,3.0
1758077209.2566,1758077209.10493,0.0,0.0,0.0,-9.39651,19.53786,-11.97482,12.04,0.56,2.37,3.0
1758077209.27166,1758077209.11493,0.0,0.0,0.0,-9.68299,9.22462,-16.67307,10.66,1.04,2.59,3.0
1758077209.2726,1758077209.12493,0.0,0.0,0.0,-7.62034,11.22997,-19.19409,10.66,1.04,2.59,3.0
1758077209.28844,1758077209.13493,0.0,0.0,0.0,-4.87014,14.15206,-18.27736,12.87,0.86,2.54,3.0
1758077209.30441,1758077209.14493,0.0,0.0,0.0,-2.57831,16.73037,-17.53251,12.87,0.86,2.54,3.0
1758077209.30564,1758077209.15493,0.0,0.0,0.0,-0.22918,20.45459,-16.67307,13.49,-0.02,3.64,3.0
1758077209.32038,1758077209.16493,0.0,0.0,0.0,3.72423,25.72581,-14.72501,13.49,-0.02,3.55,3.0
1758077209.33666,1758077209.17493,0.0,0.0,0.0,6.7609,30.53865,-12.60507,14.29,-0.84,3.55,3.0
1758077209.33766,1758077209.18493,0.0,0.0,0.0,9.91217,39.01843,-9.28192,15.27,-1.14,3.82,3.0
1758077209.3528,1758077209.19493,0.0,0.0,0.0,12.89155,45.49285,-4.64096,15.27,-1.14,3.82,3.0
1758077209.35359,1758077209.20493,0.0,0.0,0.0,16.84496,41.25296,4.69825,15.13,-0.48,4.48,3.0
1758077209.36872,1758077209.21493,0.0,0.0,0.0,18.33465,32.88778,11.97482,15.13,-0.48,4.48,3.0
1758077209.38555,1758077209.22493,0.0,0.0,0.0,18.10547,24.4653,18.90761,13.94,1.23,4.7,3.0
1758077209.38645,1758077209.23493,0.0,0.0,0.0,15.75634,14.9542,24.63719,13.94,1.23,4.7,3.0
1758077209.40146,1758077209.24493,0.0,0.0,0.0,10.02676,-0.0573,28.30412,13.06,2.46,5.25,3.0
1758077209.40344,1758077209.25493,0.0,0.0,0.0,4.98473,-8.65166,27.67386,11.57,2.5,5.07,3.0
1758077209.42072,1758077209.26493,0.0,0.0,0.0,-0.22918,-17.18874,25.8404,11.57,2.5,5.07,3.0
1758077209.43674,1758077209.27493,0.0,0.0,0.0,-5.72958,-25.61122,22.86102,9.67,2.08,4.78,3.0
1758077209.43763,1758077209.28493,0.0,0.0,0.0,-13.98017,-40.62271,17.93358,9.67,2.08,4.78,3.0
1758077209.45274,1758077209.29493,0.0,0.0,0.0,-19.25138,-52.02457,14.43854,7.84,1.73,4.1,3.0
1758077209.45363,1758077209.30493,0.0,0.0,0.0,-23.72045,-60.90542,10.71431,7.84,1.73,4.1,3.0
1758077209.46873,1758077209.31493,0.0,0.0,0.0,-27.96034,-63.77021,8.136,7.14,1.69,3.26,3.0
1758077209.48558,1758077209.32493,0.0,0.0,0.0,-27.84575,-62.16592,10.08406,7.12,1.16,3.73,3.0
1758077209.48645,1758077209.33493,0.0,0.0,0.0,-26.41335,-65.2599,13.5791,7.12,1.16,3.73,3.0
1758077209.50174,1758077209.34493,0.0,0.0,0.0,-25.26744,-67.43713,16.90226,6.14,0.05,3.53,3.0
1758077209.50296,1758077209.35493,0.0,0.0,0.0,-24.92367,-63.19725,20.79837,6.14,0.05,3.53,3.0
1758077209.51875,1758077209.36493,0.0,0.0,0.0,-25.89769,-59.70221,22.86102,7.4,-0.44,3.28,3.0
1758077209.53563,1758077209.37493,0.0,0.0,0.0,-27.33009,-54.60288,25.09555,7.4,-0.44,3.28,3.0
1758077209.5368,1758077209.38493,0.0,0.0,0.0,-29.62192,-47.49821,27.2155,8.44,-0.26,2.47,3.0
1758077209.55181,1758077209.39493,0.0,0.0,0.0,-33.86181,-36.03905,30.53865,9.0,-0.26,2.43,3.0
1758077209.55271,1758077209.40493,0.0,0.0,0.0,-36.7266,-28.30412,31.79916,9.0,0.12,2.43,3.0
1758077209.56975,1758077209.41493,0.0,0.0,0.0,-39.82057,-20.45459,31.85646,9.02,0.0,2.34,3.0
1758077209.58546,1758077209.42493,0.0,0.0,0.0,-42.62806,-13.00614,31.11161,9.02,0.0,2.34,3.0
1758077209.58618,1758077209.43493,0.0,0.0,0.0,-45.83662,-3.03668,29.04896,8.69,-0.21,2.19,3.0
1758077209.60162,1758077209.44493,0.0,0.0,0.0,-47.49821,2.29183,28.07493,8.69,-0.21,2.19,3.0
1758077209.60379,1758077209.45493,0.0,0.0,0.0,-49.38896,8.02141,26.87172,8.39,-0.19,2.23,3.0
1758077209.62135,1758077209.46493,0.0,0.0,0.0,-50.76406,13.69369,25.89769,8.39,-0.19,2.23,3.0
1758077209.62369,1758077209.47493,0.0,0.0,0.0,-52.36834,20.3973,23.72045,8.42,-0.4,2.04,3.0
1758077209.64055,1758077209.48493,0.0,0.0,0.0,-52.82671,24.29341,22.34536,8.21,-0.8,1.93,3.0
1758077209.65652,1758077209.49493,0.0,0.0,0.0,-52.76942,29.27814,20.68378,8.21,-0.8,1.93,3.0
1758077209.65709,1758077209.50493,0.0,0.0,0.0,-51.90998,33.11696,18.90761,8.25,-1.27,1.69,3.0
1758077209.66618,1758077209.51493,0.0,0.0,0.0,-50.363,36.95578,16.04282,8.25,-1.27,1.69,3.0
1758077209.68178,1758077209.52493,0.0,0.0,0.0,-49.27437,38.61736,14.61043,8.16,-1.64,1.48,3.0
1758077209.68356,1758077209.53493,0.0,0.0,0.0,-47.49821,38.61736,15.12609,8.16,-1.64,1.48,3.0
1758077209.7017,1758077209.54493,0.0,0.0,0.0,-44.51882,32.54401,17.87628,8.1,-1.88,1.76,3.0
1758077209.70677,1758077209.55493,0.0,0.0,0.0,-42.85724,30.59595,20.85567,7.71,-2.11,1.38,3.0
1758077209.72162,1758077209.56493,0.0,0.0,0.0,-41.13837,29.67921,23.37668,7.71,-2.11,1.38,3.0
1758077209.72546,1758077209.57493,0.0,0.0,0.0,-39.01843,28.41871,25.55392,7.64,-2.25,1.44,3.0
1758077209.74166,1758077209.58493,0.0,0.0,0.0,-35.69527,26.24147,26.98631,7.64,-2.25,1.44,3.0
1758077209.74512,1758077209.59493,0.0,0.0,0.0,-34.0337,21.08485,24.57989,7.48,-2.19,1.68,3.0
1758077209.76179,1758077209.60493,0.0,0.0,0.0,-36.15364,-36.21093,28.13223,7.48,-2.19,1.68,3.0
1758077209.76712,1758077209.61493,0.0,0.0,0.0,-35.12231,-81.87567,33.11696,3.74,-1.84,3.59,3.0
1758077209.78165,1758077209.62493,0.0,0.0,0.0,-26.47065,-95.0537,48.41494,8.55,-2.13,1.17,3.0
1758077209.78679,1758077209.63493,0.0,0.0,0.0,-23.66316,-93.7359,50.93595,8.55,-2.13,1.17,3.0
1758077209.80182,1758077209.64493,0.0,0.0,0.0,-23.60586,-109.32036,49.04519,7.93,-2.13,0.8,3.0
1758077209.80684,1758077209.65493,0.0,0.0,0.0,-23.94964,-123.12864,44.17505,7.93,-2.13,0.8,3.0
1758077209.8216,1758077209.66493,0.0,0.0,0.0,-22.97561,-116.71152,32.6013,7.27,-1.58,1.56,3.0
1758077209.83103,1758077209.67493,0.0,0.0,0.0,-22.40265,-104.39291,22.57454,7.27,-1.58,1.56,3.0
1758077209.83141,1758077209.68493,0.0,0.0,0.0,-21.7724,-91.78784,10.8862,8.58,-1.3,-0.63,3.0
1758077209.84717,1758077209.69493,0.0,0.0,0.0,-20.79837,-76.0315,-0.34377,8.58,-1.3,-0.63,3.0
1758077209.86263,1758077209.70493,0.0,0.0,0.0,-17.58981,-42.74266,-14.20935,9.45,-1.2,0.07,3.0
1758077209.86539,1758077209.71493,0.0,0.0,0.0,-14.61043,-20.05352,-19.88164,11.1,-1.67,-0.58,3.0
1758077209.88093,1758077209.72493,0.0,0.0,0.0,-10.71431,-1.14592,-22.05888,11.1,-1.67,-0.58,3.0
1758077209.88265,1758077209.73493,0.0,0.0,0.0,-3.72423,12.08941,-18.73572,10.81,-2.45,-0.57,3.0
1758077209.90054,1758077209.74493,0.0,0.0,0.0,1.08862,22.51724,-14.20935,10.81,-2.45,-0.57,3.0
1758077209.90143,1758077209.75493,0.0,0.0,0.0,6.24524,29.8511,-8.76626,10.01,-2.99,-0.34,3.0
1758077209.91837,1758077209.76493,0.0,0.0,0.0,10.8289,36.95578,-3.32316,10.01,-2.99,-0.34,3.0
1758077209.92119,1758077209.77493,0.0,0.0,0.0,17.01685,44.748,3.38045,9.72,-2.79,-0.25,3.0
1758077209.93629,1758077209.78493,0.0,0.0,0.0,20.51189,47.32632,6.87549,9.09,-2.41,0.03,3.0
1758077209.95167,1758077209.79493,0.0,0.0,0.0,23.54857,47.67009,9.96947,9.09,-2.41,0.03,3.0
1758077209.95364,1758077209.80493,0.0,0.0,0.0,26.69983,47.38361,13.12073,9.12,-2.33,0.19,3.0
1758077209.99157,1758077209.81493,0.0,0.0,0.0,32.14294,50.363,16.04282,9.12,-2.33,0.19,3.0
1758077210.00108,1758077209.82493,0.0,0.0,0.0,35.86716,49.84733,16.10011,9.91,-2.58,-0.27,3.0
1758077210.00144,1758077209.83493,0.0,0.0,0.0,38.44547,42.22699,15.75634,9.91,-2.58,-0.27,3.0
1758077210.00257,1758077209.84493,0.0,0.0,0.0,39.76327,29.8511,14.66772,9.18,-2.66,0.54,3.0
1758077210.0043,1758077209.85493,0.0,0.0,0.0,39.01843,13.75099,11.22997,9.0,-2.63,0.71,3.0
1758077210.02099,1758077209.86493,0.0,0.0,0.0,37.81522,14.66772,7.79223,9.0,-2.63,0.71,3.0
1758077210.02231,1758077209.87493,0.0,0.0,0.0,39.07573,30.59595,7.10468,10.93,-2.54,0.62,3.0
1758077210.03975,1758077209.88493,0.0,0.0,0.0,38.84654,44.00316,5.4431,10.93,-2.54,0.62,3.0
1758077210.04141,1758077209.89493,0.0,0.0,0.0,38.38818,43.77398,5.32851,10.34,-2.45,2.25,3.0
1758077210.05729,1758077209.90493,0.0,0.0,0.0,36.15364,37.18496,3.72423,10.34,-2.45,2.25,3.0
1758077210.07282,1758077209.91493,0.0,0.0,0.0,30.82513,13.40721,2.46372,8.59,-2.31,2.89,3.0
1758077210.07576,1758077209.92493,0.0,0.0,0.0,28.41871,-13.34992,10.08406,8.59,-2.31,2.89,3.0
1758077210.09069,1758077209.93493,0.0,0.0,0.0,21.88699,-6.99009,21.37133,8.72,-2.27,2.86,3.0
1758077210.09199,1758077209.94493,0.0,0.0,0.0,19.19409,4.18259,25.43933,12.74,-2.64,1.63,3.0
1758077210.11135,1758077209.95493,0.0,0.0,0.0,17.93358,-3.26586,27.38738,12.74,-2.64,1.63,3.0
1758077210.11199,1758077209.96493,0.0,0.0,0.0,15.92823,-16.50119,26.12688,9.25,-2.25,0.99,3.0
1758077210.12905,1758077209.97493,0.0,0.0,0.0,14.83961,-14.78231,24.29341,9.25,-2.25,0.99,3.0
1758077210.13077,1758077209.98493,0.0,0.0,0.0,13.98017,-9.39651,21.6578,9.77,-2.04,1.1,3.0
1758077210.14731,1758077209.99493,0.0,0.0,0.0,12.71966,-4.52637,18.73572,9.77,-2.04,1.1,3.0
1758077210.16305,1758077210.00493,0.0,0.0,0.0,10.54242,4.35448,13.5791,9.51,-1.93,1.13,3.0
1758077210.16581,1758077210.01493,0.0,0.0,0.0,8.99544,13.23533,10.71431,9.86,-1.89,1.16,3.0
1758077210.18108,1758077210.02493,0.0,0.0,0.0,7.73493,22.00158,8.70896,9.86,-1.89,1.16,3.0
1758077210.18196,1758077210.03493,0.0,0.0,0.0,6.70361,28.07493,8.25059,10.05,-1.9,0.84,3.0
1758077210.2011,1758077210.04493,0.0,0.0,0.0,6.47442,30.93972,9.5684,10.05,-1.9,0.84,3.0
1758077210.20385,1758077210.05493,0.0,0.0,0.0,7.04738,28.93437,11.86023,10.09,-1.99,0.95,3.0
1758077210.22582,1758077210.06493,0.0,0.0,0.0,5.61499,27.2155,12.49048,10.09,-1.99,0.95,3.0
1758077210.23251,1758077210.07493,0.0,0.0,0.0,6.7609,27.33009,15.29797,10.46,-2.33,1.0,3.0
1758077210.23635,1758077210.08493,0.0,0.0,0.0,7.21927,21.48592,16.84496,10.62,-2.71,1.18,3.0
1758077210.25184,1758077210.09493,0.0,0.0,0.0,7.21927,15.92823,16.90226,10.62,-2.71,1.18,3.0
1758077210.2562,1758077210.10493,0.0,0.0,0.0,6.99009,12.43318,15.98552,10.29,-2.99,1.19,3.0
1758077210.27209,1758077210.11493,0.0,0.0,0.0,6.70361,10.02676,13.86558,10.29,-2.99,1.19,3.0
1758077210.27301,1758077210.12493,0.0,0.0,0.0,6.58902,12.83425,9.85487,10.45,-3.19,0.73,3.0
1758077210.28865,1758077210.13493,0.0,0.0,0.0,6.58902,18.16276,6.24524,10.45,-3.19,0.73,3.0
1758077210.30559,1758077210.14493,0.0,0.0,0.0,6.53172,24.80907,3.32316,11.41,-3.3,0.5,3.0
1758077210.30679,1758077210.15493,0.0,0.0,0.0,7.04738,31.11161,0.11459,11.41,-3.3,0.5,3.0
1758077210.32194,1758077210.16493,0.0,0.0,0.0,8.30789,40.85189,0.11459,13.18,-3.39,0.67,3.0
1758077210.32302,1758077210.17493,0.0,0.0,0.0,10.54242,46.63877,1.71887,15.07,-3.84,1.37,3.0
1758077210.33859,1758077210.18493,0.0,0.0,0.0,13.75099,51.16513,4.64096,15.07,-3.84,1.37,3.0
1758077210.34143,1758077210.19493,0.0,0.0,0.0,19.48057,60.73353,10.54242,16.65,-4.63,2.13,3.0
1758077210.36087,1758077210.20493,0.0,0.0,0.0,23.26209,66.92148,15.12609,16.65,-4.63,2.13,3.0
1758077210.36267,1758077210.21493,0.0,0.0,0.0,26.12688,70.01544,19.48057,17.62,-5.42,2.87,3.0
1758077210.37788,1758077210.22493,0.0,0.0,0.0,28.36141,71.79161,23.31938,17.62,-5.42,2.87,3.0
1758077210.41985,1758077210.23493,0.0,0.0,0.0,30.36677,77.92226,26.47065,17.37,-5.92,3.71,3.0
1758077210.42099,1758077210.24493,0.0,0.0,0.0,31.97105,81.36001,26.52795,16.47,-5.68,4.37,3.0
1758077210.4216,1758077210.25493,0.0,0.0,0.0,33.46074,85.19884,27.1582,16.47,-5.68,4.37,3.0
1758077210.42519,1758077210.26493,0.0,0.0,0.0,35.40879,90.69922,27.61657,15.71,-5.78,4.88,3.0
1758077210.4259,1758077210.27493,0.0,0.0,0.0,39.64868,94.82452,25.09555,15.71,-5.78,4.88,3.0
1758077210.4427,1758077210.28493,0.0,0.0,0.0,43.31561,92.3035,22.51724,13.43,-5.34,5.8,3.0
1758077210.44621,1758077210.29493,0.0,0.0,0.0,47.49821,88.2355,20.45459,13.43,-5.34,5.8,3.0
1758077210.46267,1758077210.30493,0.0,0.0,0.0,50.93595,84.68317,16.84496,10.64,-4.99,5.4,3.0
1758077210.46708,1758077210.31493,0.0,0.0,0.0,57.18119,68.01009,12.83425,7.54,-4.35,5.42,3.0
1758077210.48307,1758077210.32493,0.0,0.0,0.0,61.53567,51.39432,10.71431,7.54,-4.35,5.42,3.0
1758077210.48771,1758077210.33493,0.0,0.0,0.0,65.37449,34.32018,8.93814,4.87,-3.26,4.96,3.0
1758077210.50299,1758077210.34493,0.0,0.0,0.0,68.98412,15.92823,8.0787,4.87,-3.26,4.96,3.0
1758077210.50572,1758077210.35493,0.0,0.0,0.0,73.45319,-14.20935,7.33386,3.2,-1.97,4.53,3.0
1758077210.52124,1758077210.36493,0.0,0.0,0.0,74.36993,-35.75257,6.07335,3.2,-1.97,4.53,3.0
1758077210.52253,1758077210.37493,0.0,0.0,0.0,73.91156,-52.884,5.27121,2.01,-0.96,4.63,3.0
1758077210.53698,1758077210.38493,0.0,0.0,0.0,70.30193,-70.81759,2.86479,2.01,-0.96,4.63,3.0
1758077210.55293,1758077210.39493,0.0,0.0,0.0,66.11933,-78.03686,2.11994,2.61,-0.4,4.48,3.0
1758077210.55587,1758077210.40493,0.0,0.0,0.0,61.07731,-80.27139,2.06265,4.36,0.19,5.03,3.0
1758077210.57177,1758077210.41493,0.0,0.0,0.0,56.32175,-78.38063,3.83882,4.36,0.19,5.03,3.0
1758077210.58195,1758077210.42493,0.0,0.0,0.0,49.33167,-74.65641,7.39116,6.16,0.5,4.86,3.0
1758077210.60123,1758077210.43493,0.0,0.0,0.0,45.09178,-72.42187,9.39651,6.16,0.5,4.86,3.0
1758077210.60242,1758077210.44493,0.0,0.0,0.0,41.42485,-68.35387,10.37054,6.43,0.24,4.82,3.0
1758077210.60305,1758077210.45493,0.0,0.0,0.0,38.1017,-63.25455,10.37054,6.43,0.24,4.82,3.0
1758077210.62107,1758077210.46493,0.0,0.0,0.0,34.0337,-57.92604,7.96411,6.48,0.03,4.45,3.0
1758077210.62488,1758077210.47493,0.0,0.0,0.0,31.74186,-54.66018,4.98473,6.63,0.33,4.43,3.0
1758077210.63999,1758077210.48493,0.0,0.0,0.0,29.73651,-51.16513,0.74485,6.63,0.33,4.43,3.0
1758077210.6412,1758077210.49493,0.0,0.0,0.0,27.96034,-47.61279,-3.89611,7.29,0.55,4.31,3.0
1758077210.6604,1758077210.50493,0.0,0.0,0.0,25.61122,-40.04975,-10.8289,7.29,0.55,4.31,3.0
1758077210.66158,1758077210.51493,0.0,0.0,0.0,24.63719,-34.32018,-14.9542,8.0,0.32,3.84,3.0
1758077210.67707,1758077210.52493,0.0,0.0,0.0,24.12152,-28.64789,-17.36062,8.0,0.32,3.84,3.0
1758077210.69328,1758077210.53493,0.0,0.0,0.0,23.66316,-23.54857,-18.22006,8.35,-0.24,3.59,3.0
1758077210.69614,1758077210.54493,0.0,0.0,0.0,24.5226,-17.13144,-17.30333,8.32,-0.83,3.51,3.0
1758077210.71133,1758077210.55493,0.0,0.0,0.0,25.55392,-13.34992,-15.69904,8.32,-0.83,3.51,3.0
1758077210.71302,1758077210.56493,0.0,0.0,0.0,26.47065,-10.19865,-13.5218,8.23,-1.27,3.43,3.0
1758077210.72811,1758077210.57493,0.0,0.0,0.0,28.30412,-7.84952,-9.96947,8.23,-1.27,3.43,3.0
1758077210.74599,1758077210.58493,0.0,0.0,0.0,29.33544,-3.60963,-7.79223,8.16,-1.44,3.43,3.0
1758077210.74702,1758077210.59493,0.0,0.0,0.0,30.30947,0.0573,-6.47442,8.16,-1.44,3.43,3.0
1758077210.76308,1758077210.60493,0.0,0.0,0.0,31.11161,3.32316,-6.07335,8.3,-1.31,3.33,3.0
1758077210.76506,1758077210.61493,0.0,0.0,0.0,31.74186,7.79223,-7.04738,8.3,-1.31,3.33,3.0
1758077210.78087,1758077210.62493,0.0,0.0,0.0,32.54401,10.08406,-8.88085,8.27,-1.0,3.29,3.0
1758077210.78204,1758077210.63493,0.0,0.0,0.0,32.54401,10.8289,-11.00079,8.19,-0.63,3.27,3.0
1758077210.80108,1758077210.64493,0.0,0.0,0.0,32.14294,10.71431,-13.46451,8.19,-0.63,3.27,3.0
1758077210.80305,1758077210.65493,0.0,0.0,0.0,30.53865,10.19865,-16.55848,8.17,-0.33,3.28,3.0
1758077210.82133,1758077210.66493,0.0,0.0,0.0,28.76248,11.22997,-19.19409,8.17,-0.33,3.28,3.0
1758077210.8236,1758077210.67493,0.0,0.0,0.0,26.75713,12.60507,-22.11617,8.49,-0.12,3.2,3.0
1758077210.84114,1758077210.68493,0.0,0.0,0.0,24.5226,12.60507,-25.8404,8.49,-0.12,3.2,3.0
1758077210.84236,1758077210.69493,0.0,0.0,0.0,21.02755,11.51645,-31.97105,8.33,0.09,3.05,3.0
1758077210.8572,1758077210.70493,0.0,0.0,0.0,18.27736,11.45916,-35.75257,8.46,0.19,3.03,3.0
1758077210.87342,1758077210.71493,0.0,0.0,0.0,15.75634,11.00079,-38.90384,8.46,0.19,3.03,3.0
1758077210.87428,1758077210.72493,0.0,0.0,0.0,13.06344,9.33921,-40.45082,8.43,0.17,2.74,3.0
1758077210.88938,1758077210.73493,0.0,0.0,0.0,9.5684,7.67763,-40.27893,8.43,0.17,2.74,3.0
1758077210.90512,1758077210.74493,0.0,0.0,0.0,8.0787,6.35983,-39.01843,8.56,-0.07,2.74,3.0
1758077210.9063,1758077210.75493,0.0,0.0,0.0,7.44845,4.92744,-36.61201,8.56,-0.07,2.74,3.0
1758077210.92137,1758077210.76493,0.0,0.0,0.0,7.62034,3.60963,-33.74722,8.73,-0.39,2.71,3.0
1758077210.92323,1758077210.77493,0.0,0.0,0.0,9.11003,1.20321,-28.36141,8.88,-0.51,2.83,3.0
1758077210.93903,1758077210.78493,0.0,0.0,0.0,10.48513,-0.11459,-25.15285,8.88,-0.51,2.83,3.0
1758077210.95521,1758077210.79493,0.0,0.0,0.0,11.91752,-1.83346,-22.51724,8.76,-0.45,2.68,3.0
1758077210.95633,1758077210.80493,0.0,0.0,0.0,13.5218,-5.78687,-19.76705,8.76,-0.45,2.68,3.0
1758077210.97115,1758077210.81493,0.0,0.0,0.0,14.09476,-9.33921,-18.62113,8.37,-0.17,2.56,3.0
1758077210.97401,1758077210.82493,0.0,0.0,0.0,14.15206,-13.23533,-18.10547,8.37,-0.17,2.56,3.0
1758077210.98944,1758077210.83493,0.0,0.0,0.0,13.40721,-16.04282,-17.87628,8.17,0.2,2.28,3.0
1758077210.99112,1758077210.84493,0.0,0.0,0.0,11.34457,-19.19409,-16.90226,8.17,0.2,2.02,3.0
1758077211.00733,1758077210.85493,0.0,0.0,0.0,9.33921,-20.11082,-15.41257,8.3,0.52,2.02,3.0
1758077211.02443,1758077210.86493,0.0,0.0,0.0,7.67763,-20.62648,-13.00614,8.44,0.56,1.93,3.0
1758077211.02708,1758077210.87493,0.0,0.0,0.0,5.90147,-18.90761,-9.96947,8.44,0.56,1.93,3.0
1758077211.0424,1758077210.88493,0.0,0.0,0.0,3.55234,-13.06344,-6.07335,8.91,0.36,2.14,3.0
1758077211.04336,1758077210.89493,0.0,0.0,0.0,1.60428,-9.5684,-5.4431,8.91,0.36,2.14,3.0
1758077211.05818,1758077210.90493,0.0,0.0,0.0,0.11459,-11.17268,-6.07335,9.25,0.3,2.47,3.0
1758077211.07514,1758077210.91493,0.0,0.0,0.0,-2.11994,-9.28192,-10.8289,9.25,0.3,2.47,3.0
1758077211.07668,1758077210.92493,0.0,0.0,0.0,-4.46907,-13.5218,-20.05352,9.07,0.49,2.42,3.0
1758077211.09118,1758077210.93493,0.0,0.0,0.0,-6.41713,-14.72501,-27.2155,9.3,0.64,2.11,3.0
1758077211.09239,1758077210.94493,0.0,0.0,0.0,-8.30789,-13.75099,-34.32018,9.3,0.64,2.11,3.0
1758077211.10717,1758077210.95493,0.0,0.0,0.0,-10.48513,-10.94349,-39.64868,10.48,0.65,2.3,3.0
1758077211.12348,1758077210.96493,0.0,0.0,0.0,-15.0115,-11.17268,-46.69606,10.48,0.65,2.3,3.0
1758077211.12436,1758077210.97493,0.0,0.0,0.0,-17.87628,-12.37589,-48.30034,10.75,0.84,2.43,3.0
1758077211.13952,1758077210.98493,0.0,0.0,0.0,-21.02755,-11.80293,-47.72739,10.75,0.84,2.43,3.0
1758077211.15527,1758077210.99493,0.0,0.0,0.0,-25.89769,-11.86023,-42.28429,11.33,1.1,2.54,3.0
1758077211.15641,1758077211.00493,0.0,0.0,0.0,-29.04896,-15.24068,-36.26823,11.75,1.42,3.0,3.0
1758077211.17145,1758077211.01493,0.0,0.0,0.0,-31.97105,-18.56383,-28.70519,11.75,1.42,3.0,3.0
1758077211.1727,1758077211.02493,0.0,0.0,0.0,-35.00772,-2.11994,-22.00158,13.56,1.67,4.67,3.0
1758077211.18721,1758077211.03493,0.0,0.0,0.0,-40.10705,22.63183,-13.00614,13.56,1.67,4.67,3.0
1758077211.20335,1758077211.04493,0.0,0.0,0.0,-39.64868,-11.74564,-14.66772,12.96,1.8,7.19,3.0
1758077211.20471,1758077211.05493,0.0,0.0,0.0,-37.35685,-29.62192,-20.22541,12.96,1.8,7.19,3.0
1758077211.21926,1758077211.06493,0.0,0.0,0.0,-36.49741,-15.64175,-27.96034,12.71,1.19,6.22,3.0
1758077211.22205,1758077211.07493,0.0,0.0,0.0,-32.37212,13.06344,-26.52795,16.46,1.19,3.17,3.0
1758077211.24085,1758077211.08493,0.0,0.0,0.0,-31.97105,11.80293,-20.34,16.46,0.97,3.17,3.0
1758077211.24267,1758077211.09493,0.0,0.0,0.0,-33.17426,10.8289,-12.2613,12.34,0.51,5.05,3.0
1758077211.26154,1758077211.10493,0.0,0.0,0.0,-35.98175,11.00079,-4.18259,12.34,0.51,5.05,3.0
1758077211.26649,1758077211.11493,0.0,0.0,0.0,-42.1124,10.48513,6.13065,11.04,0.89,4.93,3.0
1758077211.28156,1758077211.12493,0.0,0.0,0.0,-46.63877,5.84417,11.74564,11.04,0.89,4.93,3.0
1758077211.28675,1758077211.13493,0.0,0.0,0.0,-50.87865,-2.00535,15.98552,9.08,1.26,4.93,3.0
1758077211.30157,1758077211.14493,0.0,0.0,0.0,-54.48829,-10.48513,18.50654,9.08,1.26,4.93,3.0
1758077211.3057,1758077211.15493,0.0,0.0,0.0,-59.87409,-21.6578,17.81899,7.68,1.03,4.25,3.0
1758077211.32158,1758077211.16493,0.0,0.0,0.0,-62.62429,-26.01229,16.04282,7.19,0.59,3.78,3.0
1758077211.32363,1758077211.17493,0.0,0.0,0.0,-64.80153,-31.51268,13.12073,7.19,0.59,3.78,3.0
1758077211.33826,1758077211.18493,0.0,0.0,0.0,-66.46311,-37.29956,7.10468,6.7,0.21,3.75,3.0
1758077211.34187,1758077211.19493,0.0,0.0,0.0,-67.60902,-44.40423,2.97938,6.7,0.21,3.75,3.0
1758077211.36126,1758077211.20493,0.0,0.0,0.0,-67.43713,-46.98254,-0.57296,7.28,-0.24,3.58,3.0
1758077211.36658,1758077211.21493,0.0,0.0,0.0,-66.00475,-47.44091,-3.20856,7.28,-0.24,3.58,3.0
1758077211.38162,1758077211.22493,0.0,0.0,0.0,-61.42108,-45.89392,-3.38045,8.07,-0.73,3.67,3.0
1758077211.38247,1758077211.23493,0.0,0.0,0.0,-57.23849,-43.88857,-1.60428,8.26,-1.39,3.68,3.0
1758077211.39763,1758077211.24493,0.0,0.0,0.0,-52.54023,-40.16434,1.43239,8.26,-1.39,3.68,3.0
1758077211.4144,1758077211.25493,0.0,0.0,0.0,-48.75871,-36.55471,4.1253,8.2,-1.72,3.19,3.0
1758077211.4161,1758077211.26493,0.0,0.0,0.0,-45.03448,-30.30947,6.13065,8.2,-1.72,3.19,3.0
1758077211.43157,1758077211.27493,0.0,0.0,0.0,-44.11775,-24.35071,6.70361,8.42,-1.55,3.1,3.0
1758077211.43281,1758077211.28493,0.0,0.0,0.0,-44.00316,-17.87628,6.7609,8.42,-1.55,3.1,3.0
1758077211.44844,1758077211.29493,0.0,0.0,0.0,-44.23235,-11.86023,6.7609,8.95,-1.18,2.86,3.0
1758077211.46542,1758077211.30493,0.0,0.0,0.0,-45.09178,-3.38045,6.18794,9.09,-0.87,2.82,3.0
1758077211.46636,1758077211.31493,0.0,0.0,0.0,-45.43555,1.14592,5.84417,9.09,-0.87,2.82,3.0
1758077211.48137,1758077211.32493,0.0,0.0,0.0,-45.60744,6.13065,5.27121,9.03,-0.74,2.65,3.0
1758077211.48414,1758077211.33493,0.0,0.0,0.0,-45.60744,11.00079,4.92744,9.03,-0.74,2.65,3.0
1758077211.50067,1758077211.34493,0.0,0.0,0.0,-45.55015,17.53251,4.23989,8.9,-0.89,2.62,3.0
1758077211.50159,1758077211.35493,0.0,0.0,0.0,-45.55015,21.31403,3.83882,8.9,-0.89,2.62,3.0
1758077211.51836,1758077211.36493,0.0,0.0,0.0,-45.55015,23.37668,3.55234,8.54,-0.98,2.42,3.0
1758077211.53644,1758077211.37493,0.0,0.0,0.0,-45.43555,23.72045,3.49504,8.54,-0.98,2.42,3.0
1758077211.53851,1758077211.38493,0.0,0.0,0.0,-44.63341,23.0902,3.38045,8.04,-0.99,2.5,3.0
1758077211.5534,1758077211.39493,0.0,0.0,0.0,-43.88857,23.94964,3.38045,7.98,-1.13,2.19,3.0
1758077211.55459,1758077211.40493,0.0,0.0,0.0,-42.97184,25.61122,3.03668,7.98,-1.13,2.19,3.0
1758077211.56969,1758077211.41493,0.0,0.0,0.0,-41.36755,26.52795,2.57831,7.99,-1.24,2.19,3.0
1758077211.58542,1758077211.42493,0.0,0.0,0.0,-39.53409,26.12688,3.03668,7.99,-1.24,2.19,3.0
1758077211.5866,1758077211.43493,0.0,0.0,0.0,-37.29956,25.49662,4.29718,7.7,-1.37,2.21,3.0
1758077211.60176,1758077211.44493,0.0,0.0,0.0,-34.72124,24.98096,5.84417,7.7,-1.37,2.21,3.0
1758077211.60449,1758077211.45493,0.0,0.0,0.0,-31.51268,25.09555,7.73493,7.64,-1.61,2.09,3.0
1758077211.62132,1758077211.46493,0.0,0.0,0.0,-29.96569,24.75178,8.42248,7.59,-1.76,2.09,3.0
1758077211.62487,1758077211.47493,0.0,0.0,0.0,-28.87707,22.34536,8.42248,7.59,-1.76,2.09,3.0
1758077211.64131,1758077211.48493,0.0,0.0,0.0,-27.84575,20.45459,7.62034,7.51,-1.79,2.3,3.0
1758077211.64468,1758077211.49493,0.0,0.0,0.0,-26.52795,18.62113,5.15662,7.51,-1.79,2.3,3.0
1758077211.66109,1758077211.50493,0.0,0.0,0.0,-25.89769,17.58981,3.26586,8.01,-1.68,2.29,3.0
1758077211.66657,1758077211.51493,0.0,0.0,0.0,-25.15285,15.98552,0.85944,8.01,-1.68,2.29,3.0
1758077211.70594,1758077211.52493,0.0,0.0,0.0,-24.23611,15.29797,-1.3178,8.43,-1.54,2.38,3.0
1758077211.71141,1758077211.53493,0.0,0.0,0.0,-22.23076,15.29797,-4.1253,8.75,-1.42,2.39,3.0
1758077211.71192,1758077211.54493,0.0,0.0,0.0,-20.68378,15.24068,-5.15662,8.75,-1.42,2.39,3.0
1758077211.71375,1758077211.55493,0.0,0.0,0.0,-18.9649,14.32395,-5.78687,8.67,-1.38,2.32,3.0
1758077211.71618,1758077211.56493,0.0,0.0,0.0,-17.53251,12.89155,-5.55769,8.67,-1.38,2.32,3.0
1758077211.73574,1758077211.57493,0.0,0.0,0.0,-14.61043,9.68299,-4.52637,8.48,-1.5,2.36,3.0
1758077211.73665,1758077211.58493,0.0,0.0,0.0,-12.60507,7.44845,-3.55234,8.48,-1.5,2.36,3.0
1758077211.75573,1758077211.59493,0.0,0.0,0.0,-10.8862,4.29718,-2.92208,8.43,-1.63,2.25,3.0
1758077211.75666,1758077211.60493,0.0,0.0,0.0,-9.05273,2.40642,-2.40642,8.43,-1.63,2.25,3.0
1758077211.77573,1758077211.61493,0.0,0.0,0.0,-6.41713,0.74485,-2.92208,8.61,-1.67,2.15,3.0
1758077211.77667,1758077211.62493,0.0,0.0,0.0,-4.64096,3.38045,-3.89611,9.14,-1.65,2.09,3.0
1758077211.79549,1758077211.63493,0.0,0.0,0.0,-2.57831,10.31324,-4.64096,9.14,-1.65,2.09,3.0
1758077211.79676,1758077211.64493,0.0,0.0,0.0,0.74485,12.77696,-4.87014,9.78,-1.65,2.29,3.0
1758077211.81558,1758077211.65493,0.0,0.0,0.0,2.92208,5.84417,-3.95341,9.78,-1.65,2.29,3.0
1758077211.81668,1758077211.66493,0.0,0.0,0.0,5.50039,-1.03132,-2.40642,8.77,-1.7,2.48,3.0
1758077211.83578,1758077211.67493,0.0,0.0,0.0,7.84952,-6.07335,-0.0573,8.77,-1.7,2.48,3.0
1758077211.83667,1758077211.68493,0.0,0.0,0.0,12.43318,-11.57375,4.81285,9.22,-1.86,2.19,3.0
1758077211.85256,1758077211.69493,0.0,0.0,0.0,15.87093,-15.87093,8.88085,9.68,-2.11,2.42,3.0
1758077211.85368,1758077211.70493,0.0,0.0,0.0,19.25138,-20.3973,12.89155,9.68,-2.11,2.42,3.0
1758077211.86858,1758077211.71493,0.0,0.0,0.0,22.68913,-23.54857,16.95955,10.09,-2.27,2.41,3.0
1758077211.88578,1758077211.72493,0.0,0.0,0.0,27.73116,-30.82513,22.28806,10.09,-2.27,2.41,3.0
1758077211.88677,1758077211.73493,0.0,0.0,0.0,31.16891,-33.23156,23.49127,10.32,-2.21,2.26,3.0
1758077211.90175,1758077211.74493,0.0,0.0,0.0,32.88778,-33.17426,23.0902,10.32,-2.21,2.26,3.0
1758077211.90358,1758077211.75493,0.0,0.0,0.0,35.69527,-25.72581,22.97561,10.99,-2.08,2.24,3.0
1758077211.92179,1758077211.76493,0.0,0.0,0.0,38.90384,-2.29183,21.60051,12.82,-1.9,2.91,3.0
1758077211.92354,1758077211.77493,0.0,0.0,0.0,39.01843,14.43854,19.25138,12.82,-1.9,2.91,3.0
1758077211.93884,1758077211.78493,0.0,0.0,0.0,36.89849,16.73037,14.61043,12.55,-1.64,4.6,3.0
1758077211.95585,1758077211.79493,0.0,0.0,0.0,31.51268,-11.34457,13.06344,12.55,-1.64,4.6,3.0
1758077211.9568,1758077211.80493,0.0,0.0,0.0,28.70519,-74.25533,24.35071,8.64,-0.83,5.94,3.0
1758077211.97181,1758077211.81493,0.0,0.0,0.0,24.17882,-67.43713,36.89849,8.64,-0.83,5.94,3.0
1758077211.97377,1758077211.82493,0.0,0.0,0.0,19.76705,-34.66395,47.61279,17.28,-0.66,3.69,3.0
1758077211.99058,1758077211.83493,0.0,0.0,0.0,11.34457,-12.204,48.58683,17.28,-0.66,3.69,3.0
1758077211.99181,1758077211.84493,0.0,0.0,0.0,6.58902,-8.42248,42.68536,16.6,-1.23,2.65,3.0
1758077212.00781,1758077211.85493,0.0,0.0,0.0,2.6929,-3.89611,30.48136,11.93,-2.26,4.19,3.0
1758077212.02459,1758077211.86493,0.0,0.0,0.0,2.63561,-1.3178,16.04282,11.93,-2.26,4.19,3.0
1758077212.02735,1758077211.87493,0.0,0.0,0.0,6.99009,0.0573,-6.7609,11.47,-2.9,4.42,3.0
1758077212.04469,1758077211.88493,0.0,0.0,0.0,11.51645,-3.60963,-18.9649,11.47,-2.9,4.42,3.0
1758077212.04581,1758077211.89493,0.0,0.0,0.0,16.21471,-6.47442,-27.84575,11.23,-3.12,4.53,3.0
1758077212.06074,1758077211.90493,0.0,0.0,0.0,21.02755,-11.45916,-31.28349,11.23,-3.12,4.53,3.0
1758077212.06372,1758077211.91493,0.0,0.0,0.0,27.38738,-18.27736,-29.73651,9.74,-2.86,3.76,3.0
1758077212.07994,1758077211.92493,0.0,0.0,0.0,30.88243,-21.6578,-25.8404,8.44,-2.7,3.74,3.0
1758077212.09591,1758077211.93493,0.0,0.0,0.0,33.74722,-25.21014,-20.85567,8.44,-2.7,3.74,3.0
1758077212.09686,1758077211.94493,0.0,0.0,0.0,36.32552,-29.27814,-14.72501,7.16,-2.27,3.31,3.0
1758077212.11199,1758077211.95493,0.0,0.0,0.0,39.19032,-35.00772,-4.69825,7.16,-2.27,3.31,3.0
1758077212.11478,1758077211.96493,0.0,0.0,0.0,40.33623,-36.7266,1.03132,6.6,-1.45,2.77,3.0
1758077212.12967,1758077211.97493,0.0,0.0,0.0,40.68,-37.12767,5.84417,6.6,-1.45,2.77,3.0
1758077212.1459,1758077211.98493,0.0,0.0,0.0,40.04975,-35.75257,9.22462,7.16,-0.49,2.41,3.0
1758077212.14684,1758077211.99493,0.0,0.0,0.0,38.21629,-30.99702,10.8289,8.12,0.23,2.31,3.0
1758077212.16373,1758077212.00493,0.0,0.0,0.0,35.98175,-27.78845,9.68299,8.12,0.23,2.31,3.0
1758077212.16729,1758077212.01493,0.0,0.0,0.0,33.11696,-24.00693,7.10468,8.42,0.47,2.1,3.0
1758077212.18297,1758077212.02493,0.0,0.0,0.0,29.39274,-20.05352,0.68755,8.42,0.47,2.1,3.0
1758077212.18568,1758077212.03493,0.0,0.0,0.0,23.49127,-13.86558,-4.23989,8.43,0.3,2.06,3.0
1758077212.20091,1758077212.04493,0.0,0.0,0.0,19.59516,-10.48513,-9.62569,8.43,0.3,2.06,3.0
1758077212.20191,1758077212.05493,0.0,0.0,0.0,15.87093,-8.99544,-14.66772,8.25,0.04,2.14,3.0
1758077212.21794,1758077212.06493,0.0,0.0,0.0,10.37054,-8.70896,-21.60051,8.25,0.04,2.14,3.0
1758077212.22208,1758077212.07493,0.0,0.0,0.0,7.44845,-8.0787,-25.21014,8.24,-0.05,2.21,3.0
1758077212.23771,1758077212.08493,0.0,0.0,0.0,5.4431,-7.67763,-27.73116,8.78,-0.04,2.23,3.0
1758077212.25577,1758077212.09493,0.0,0.0,0.0,3.89611,-8.0787,-29.39274,8.78,-0.04,2.23,3.0
1758077212.25667,1758077212.10493,0.0,0.0,0.0,3.20856,-8.65166,-30.25217,8.89,-0.17,2.23,3.0
1758077212.27195,1758077212.11493,0.0,0.0,0.0,3.60963,-9.4538,-30.25217,8.89,-0.17,2.23,3.0
1758077212.2764,1758077212.12493,0.0,0.0,0.0,4.81285,-10.19865,-28.93437,8.96,-0.45,2.3,3.0
1758077212.29205,1758077212.13493,0.0,0.0,0.0,6.35983,-9.85487,-27.50197,8.96,-0.45,2.3,3.0
1758077212.29642,1758077212.14493,0.0,0.0,0.0,9.05273,-8.42248,-25.72581,9.17,-0.71,2.31,3.0
1758077212.31206,1758077212.15493,0.0,0.0,0.0,10.59972,-7.50575,-24.75178,9.08,-0.81,2.08,3.0
1758077212.31372,1758077212.16493,0.0,0.0,0.0,11.74564,-6.35983,-24.29341,9.08,-0.81,2.08,3.0
1758077212.33099,1758077212.17493,0.0,0.0,0.0,12.54778,-5.72958,-23.54857,9.0,-0.69,2.04,3.0
1758077212.33224,1758077212.18493,0.0,0.0,0.0,13.17803,-5.50039,-22.51724,9.0,-0.69,2.04,3.0
1758077212.34879,1758077212.19493,0.0,0.0,0.0,13.00614,-5.78687,-21.48592,8.97,-0.45,1.98,3.0
1758077212.36636,1758077212.20493,0.0,0.0,0.0,12.49048,-5.27121,-20.34,8.97,-0.45,1.98,3.0
1758077212.37002,1758077212.21493,0.0,0.0,0.0,11.51645,-4.35448,-19.07949,9.11,-0.11,1.93,3.0
1758077212.38501,1758077212.22493,0.0,0.0,0.0,9.91217,-2.29183,-17.01685,9.17,0.17,1.76,3.0
1758077212.38749,1758077212.23493,0.0,0.0,0.0,8.70896,-1.03132,-15.87093,9.17,0.17,1.76,3.0
1758077212.40354,1758077212.24493,0.0,0.0,0.0,7.73493,-0.0573,-14.83961,9.07,0.32,1.86,3.0
1758077212.4071,1758077212.25493,0.0,0.0,0.0,6.53172,0.85944,-14.32395,9.07,0.32,1.86,3.0
1758077212.42281,1758077212.26493,0.0,0.0,0.0,5.78687,2.06265,-14.49583,9.02,0.3,1.91,3.0
1758077212.42667,1758077212.27493,0.0,0.0,0.0,4.92744,2.63561,-15.29797,9.02,0.3,1.91,3.0
1758077212.44196,1758077212.28493,0.0,0.0,0.0,4.29718,3.38045,-16.3293,9.01,0.2,1.73,3.0
1758077212.44616,1758077212.29493,0.0,0.0,0.0,3.09397,4.23989,-18.22006,9.01,0.2,1.73,3.0
1758077212.4618,1758077212.30493,0.0,0.0,0.0,2.63561,5.09932,-19.07949,9.03,0.12,1.63,3.0
1758077212.46301,1758077212.31493,0.0,0.0,0.0,2.11994,5.78687,-19.70975,9.02,0.13,1.5,3.0
1758077212.47781,1758077212.32493,0.0,0.0,0.0,1.77617,6.18794,-19.53786,9.02,0.13,1.5,3.0
1758077212.4939,1758077212.33493,0.0,0.0,0.0,1.20321,7.50575,-17.6471,8.94,0.15,1.37,3.0
1758077212.49658,1758077212.34493,0.0,0.0,0.0,0.68755,7.62034,-15.64175,8.94,0.15,1.37,3.0
1758077212.51392,1758077212.35493,0.0,0.0,0.0,-0.0573,7.21927,-14.15206,8.93,0.2,1.48,3.0
1758077212.51537,1758077212.36493,0.0,0.0,0.0,-1.60428,7.04738,-14.32395,8.93,0.2,1.48,3.0
1758077212.53,1758077212.37493,0.0,0.0,0.0,-3.89611,3.20856,-13.23533,8.82,0.37,1.53,3.0
1758077212.54601,1758077212.38493,0.0,0.0,0.0,-7.21927,3.89611,-14.66772,8.95,0.7,1.35,3.0
1758077212.54703,1758077212.39493,0.0,0.0,0.0,-9.96947,3.20856,-14.78231,8.95,0.7,1.35,3.0
1758077212.56187,1758077212.40493,0.0,0.0,0.0,-13.00614,3.95341,-16.61578,9.18,1.02,1.33,3.0
1758077212.56307,1758077212.41493,0.0,0.0,0.0,-18.44924,4.35448,-20.51189,9.18,1.02,1.33,3.0
1758077212.57896,1758077212.42493,0.0,0.0,0.0,-22.11617,3.95341,-23.37668,9.16,1.26,1.26,3.0
