timeStamp,timeStampAlign,roll,pitch,yaw,gyro_x,gyro_y,gyro_z,acc_x,acc_y,acc_z,flag_num
1758075877.88644,1758075877.82182,0.0,0.0,0.0,-1.14592,-33.80451,6.8182,9.69,0.71,2.93,2.0
1758075877.89463,1758075877.83182,0.0,0.0,0.0,-2.11994,-37.24226,8.88085,9.63,0.42,3.22,2.0
1758075877.89624,1758075877.84182,0.0,0.0,0.0,-1.3178,-54.60288,9.96947,8.47,-0.19,3.23,2.0
1758075877.91409,1758075877.85182,0.0,0.0,0.0,-1.08862,-75.22936,11.57375,8.47,-0.19,3.23,2.0
1758075877.91691,1758075877.86182,0.0,0.0,0.0,-1.14592,-81.76109,11.28727,7.77,-0.89,2.68,2.0
1758075877.93257,1758075877.87182,0.0,0.0,0.0,-1.60428,-76.48987,9.91217,7.77,-0.89,2.68,2.0
1758075877.93617,1758075877.88182,0.0,0.0,0.0,-2.97938,-57.81144,7.50575,10.42,-1.06,2.25,2.0
1758075877.9516,1758075877.89182,0.0,0.0,0.0,-2.92208,-41.71133,7.16197,10.42,-1.06,2.25,2.0
1758075877.9678,1758075877.90182,0.0,0.0,0.0,-2.6929,-52.36834,4.35448,10.58,-0.8,2.52,2.0
1758075877.97063,1758075877.91182,0.0,0.0,0.0,-4.46907,-84.11021,-1.60428,10.58,-0.8,2.52,2.0
1758075877.98591,1758075877.92182,0.0,0.0,0.0,-3.32316,-97.7466,-3.49504,5.8,-0.57,2.18,2.0
1758075877.98681,1758075877.93182,0.0,0.0,0.0,-7.96411,-47.95657,-12.204,13.13,0.13,0.0,2.0
1758075878.0016,1758075877.94182,0.0,0.0,0.0,-17.53251,-9.39651,-12.89155,13.13,0.13,0.0,2.0
1758075878.01857,1758075877.95182,0.0,0.0,0.0,-23.49127,2.11994,-11.91752,14.54,1.15,2.18,2.0
1758075878.02058,1758075877.96182,0.0,0.0,0.0,-23.20479,-1.66158,-14.43854,14.54,1.15,2.18,2.0
1758075878.03619,1758075877.97182,0.0,0.0,0.0,-19.48057,2.63561,-14.83961,9.78,0.9,1.65,2.0
1758075878.0543,1758075877.98182,0.0,0.0,0.0,-14.72501,10.94349,-13.46451,9.78,0.9,1.65,2.0
1758075878.05454,1758075877.99182,0.0,0.0,0.0,-6.8182,22.97561,-8.70896,10.84,-0.25,0.77,2.0
1758075878.06785,1758075878.00182,0.0,0.0,0.0,-2.11994,29.8511,-5.32851,10.79,-1.03,1.12,2.0
1758075878.06881,1758075878.01182,0.0,0.0,0.0,1.60428,36.95578,-2.6929,10.79,-1.03,1.12,2.0
1758075878.08385,1758075878.02182,0.0,0.0,0.0,3.72423,44.17505,-0.68755,10.7,-1.0,0.94,2.0
1758075878.08559,1758075878.03182,0.0,0.0,0.0,3.55234,53.39967,0.45837,10.7,-1.0,0.94,2.0
1758075878.10249,1758075878.04182,0.0,0.0,0.0,1.71887,57.12389,0.22918,10.33,-0.53,0.78,2.0
1758075878.11857,1758075878.05182,0.0,0.0,0.0,-0.57296,58.3844,-0.22918,10.33,-0.53,0.78,2.0
1758075878.11976,1758075878.06182,0.0,0.0,0.0,-3.55234,56.83742,-1.3751,9.95,0.1,1.05,2.0
1758075878.13459,1758075878.07182,0.0,0.0,0.0,-7.67763,53.51426,-3.60963,9.71,0.7,1.03,2.0
1758075878.13604,1758075878.08182,0.0,0.0,0.0,-10.31324,51.73809,-5.50039,9.71,0.7,1.03,2.0
1758075878.15183,1758075878.09182,0.0,0.0,0.0,-11.91752,49.38896,-7.10468,9.42,0.88,1.28,2.0
1758075878.16799,1758075878.10182,0.0,0.0,0.0,-13.00614,44.9199,-8.36518,9.42,0.88,1.28,2.0
1758075878.16993,1758075878.11182,0.0,0.0,0.0,-13.46451,35.69527,-8.47978,8.63,0.65,1.41,2.0
1758075878.18545,1758075878.12182,0.0,0.0,0.0,-13.5218,29.39274,-7.84952,8.63,0.65,1.41,2.0
1758075878.18664,1758075878.13182,0.0,0.0,0.0,-13.5218,22.63183,-6.99009,8.19,0.12,1.38,2.0
1758075878.20205,1758075878.14182,0.0,0.0,0.0,-13.34992,15.75634,-5.78687,8.19,0.12,1.38,2.0
1758075878.21893,1758075878.15182,0.0,0.0,0.0,-13.00614,5.84417,-5.27121,8.03,-0.41,1.32,2.0
1758075878.2199,1758075878.16182,0.0,0.0,0.0,-12.2613,0.11459,-4.98473,8.35,-0.74,1.13,2.0
1758075878.23476,1758075878.17182,0.0,0.0,0.0,-11.00079,-5.27121,-4.87014,8.35,-0.74,1.13,2.0
1758075878.23671,1758075878.18182,0.0,0.0,0.0,-8.136,-6.87549,-5.4431,8.95,-0.79,0.76,2.0
1758075878.25542,1758075878.19182,0.0,0.0,0.0,-5.78687,-3.72423,-6.24524,8.95,-0.79,0.76,2.0
1758075878.25659,1758075878.20182,0.0,0.0,0.0,-3.32316,-0.40107,-6.53172,9.77,-0.64,0.47,2.0
1758075878.27203,1758075878.21182,0.0,0.0,0.0,-1.20321,3.49504,-6.99009,9.77,-0.64,0.47,2.0
1758075878.28891,1758075878.22182,0.0,0.0,0.0,1.77617,7.33386,-6.87549,10.0,-0.41,0.43,2.0
1758075878.29151,1758075878.23182,0.0,0.0,0.0,2.92208,9.28192,-6.35983,9.87,-0.16,0.45,2.0
1758075878.30674,1758075878.24182,0.0,0.0,0.0,3.49504,10.59972,-5.78687,9.87,-0.16,0.45,2.0
1758075878.30797,1758075878.25182,0.0,0.0,0.0,3.83882,10.71431,-5.15662,9.76,-0.04,0.49,2.0
1758075878.32276,1758075878.26182,0.0,0.0,0.0,3.95341,9.74028,-4.52637,9.76,-0.04,0.49,2.0
1758075878.33905,1758075878.27182,0.0,0.0,0.0,3.95341,9.05273,-4.46907,9.81,0.07,0.42,2.0
1758075878.33999,1758075878.28182,0.0,0.0,0.0,3.95341,8.65166,-4.92744,9.81,0.07,0.42,2.0
1758075878.35507,1758075878.29182,0.0,0.0,0.0,4.0107,7.79223,-5.50039,10.06,0.07,0.42,2.0
1758075878.35598,1758075878.30182,0.0,0.0,0.0,4.69825,5.95876,-6.8182,10.02,-0.08,0.41,2.0
1758075878.3721,1758075878.31182,0.0,0.0,0.0,5.32851,6.53172,-7.96411,10.02,-0.08,0.41,2.0
1758075878.38815,1758075878.32182,0.0,0.0,0.0,6.35983,7.84952,-8.88085,10.15,-0.29,0.64,2.0
1758075878.38923,1758075878.33182,0.0,0.0,0.0,7.73493,8.88085,-9.33921,10.15,-0.29,0.64,2.0
1758075878.40411,1758075878.34182,0.0,0.0,0.0,10.94349,4.81285,-9.05273,9.83,-0.59,0.93,2.0
1758075878.4059,1758075878.35182,0.0,0.0,0.0,13.75099,-0.17189,-8.02141,9.83,-0.59,0.93,2.0
1758075878.42186,1758075878.36182,0.0,0.0,0.0,16.84496,-4.1253,-6.41713,9.65,-0.91,1.11,2.0
1758075878.43784,1758075878.37182,0.0,0.0,0.0,21.6578,-9.33921,-4.23989,9.65,-0.91,1.11,2.0
1758075878.43984,1758075878.38182,0.0,0.0,0.0,25.21014,-13.98017,-3.09397,10.28,-0.84,1.6,2.0
1758075878.45515,1758075878.39182,0.0,0.0,0.0,28.41871,-25.55392,-1.20321,10.24,-0.51,2.43,2.0
1758075878.45607,1758075878.40182,0.0,0.0,0.0,29.33544,-41.48215,0.40107,10.24,-0.51,2.43,2.0
1758075878.47189,1758075878.41182,0.0,0.0,0.0,28.13223,-60.96271,3.95341,10.75,0.23,4.58,2.0
1758075878.48808,1758075878.42182,0.0,0.0,0.0,24.98096,-62.22322,7.21927,10.75,0.23,4.58,2.0
1758075878.48907,1758075878.43182,0.0,0.0,0.0,19.82434,-47.32632,11.28727,14.39,1.61,5.57,2.0
1758075878.50556,1758075878.44182,0.0,0.0,0.0,13.40721,-22.40265,14.38124,14.39,1.61,5.57,2.0
1758075878.50665,1758075878.45182,0.0,0.0,0.0,6.35983,-4.35448,13.75099,17.27,2.8,3.16,2.0
1758075878.52198,1758075878.46182,0.0,0.0,0.0,1.94806,-38.38818,10.31324,8.96,2.04,2.03,2.0
1758075878.53801,1758075878.47182,0.0,0.0,0.0,4.58366,-70.30193,5.21392,8.96,2.04,2.03,2.0
1758075878.53986,1758075878.48182,0.0,0.0,0.0,7.73493,-78.839,7.62034,6.52,0.16,1.01,2.0
1758075878.5552,1758075878.49182,0.0,0.0,0.0,7.50575,-47.67009,1.3178,6.52,0.16,1.01,2.0
1758075878.55635,1758075878.50182,0.0,0.0,0.0,12.08941,-34.72124,0.85944,10.84,-0.59,2.01,2.0
1758075878.57196,1758075878.51182,0.0,0.0,0.0,16.10011,-31.79916,1.3178,10.84,-0.59,2.01,2.0
1758075878.58822,1758075878.52182,0.0,0.0,0.0,18.79302,-26.47065,2.11994,9.0,-0.32,3.07,2.0
1758075878.58911,1758075878.53182,0.0,0.0,0.0,20.62648,-11.57375,3.55234,9.49,0.5,2.68,2.0
1758075878.60422,1758075878.54182,0.0,0.0,0.0,21.42862,-3.20856,4.69825,9.49,0.5,2.68,2.0
1758075878.60589,1758075878.55182,0.0,0.0,0.0,21.94428,3.55234,6.8182,9.0,1.49,2.35,2.0
1758075878.62201,1758075878.56182,0.0,0.0,0.0,22.51724,10.08406,9.85487,9.0,1.49,2.35,2.0
1758075878.63792,1758075878.57182,0.0,0.0,0.0,23.0329,22.23076,9.96947,9.31,1.84,2.14,2.0
1758075878.63941,1758075878.58182,0.0,0.0,0.0,23.37668,29.10626,10.65701,9.31,1.84,2.14,2.0
1758075878.65402,1758075878.59182,0.0,0.0,0.0,23.49127,36.89849,10.65701,9.79,1.76,1.74,2.0
1758075878.67032,1758075878.60182,0.0,0.0,0.0,23.54857,48.01387,9.85487,9.79,1.76,1.74,2.0
1758075878.67146,1758075878.61182,0.0,0.0,0.0,22.97561,54.48829,8.59437,10.38,1.55,1.85,2.0
1758075878.68621,1758075878.62182,0.0,0.0,0.0,23.31938,57.81144,5.78687,10.71,1.43,1.95,2.0
1758075878.68744,1758075878.63182,0.0,0.0,0.0,24.35071,57.75415,3.03668,10.71,1.43,1.95,2.0
1758075878.70187,1758075878.64182,0.0,0.0,0.0,24.17882,54.25911,0.68755,10.27,1.22,2.13,2.0
1758075878.71804,1758075878.65182,0.0,0.0,0.0,23.72045,52.13916,0.0573,10.27,1.22,2.13,2.0
1758075878.71978,1758075878.66182,0.0,0.0,0.0,22.91831,48.01387,0.17189,9.8,1.2,2.02,2.0
1758075878.73397,1758075878.67182,0.0,0.0,0.0,21.88699,44.23235,0.22918,9.8,1.2,2.02,2.0
1758075878.75002,1758075878.68182,0.0,0.0,0.0,19.25138,41.08107,2.06265,9.54,1.43,2.29,2.0
1758075878.75121,1758075878.69182,0.0,0.0,0.0,17.30333,34.77854,2.7502,9.05,1.69,2.32,2.0
1758075878.766,1758075878.70182,0.0,0.0,0.0,15.0115,27.73116,3.32316,9.05,1.69,2.32,2.0
1758075878.76724,1758075878.71182,0.0,0.0,0.0,12.77696,20.79837,3.32316,8.44,1.89,2.31,2.0
1758075878.782,1758075878.72182,0.0,0.0,0.0,8.88085,12.77696,2.06265,8.44,1.89,2.31,2.0
1758075878.79802,1758075878.73182,0.0,0.0,0.0,6.53172,9.4538,0.68755,8.39,2.02,2.14,2.0
1758075878.79929,1758075878.74182,0.0,0.0,0.0,4.52637,8.30789,-0.85944,8.39,2.02,2.14,2.0
1758075878.81411,1758075878.75182,0.0,0.0,0.0,2.92208,8.0787,-2.63561,8.77,2.01,2.12,2.0
1758075878.83008,1758075878.76182,0.0,0.0,0.0,0.68755,9.68299,-4.46907,8.93,1.82,1.91,2.0
1758075878.8313,1758075878.77182,0.0,0.0,0.0,-0.34377,11.80293,-4.87014,8.93,1.82,1.91,2.0
1758075878.84606,1758075878.78182,0.0,0.0,0.0,-1.3751,14.15206,-4.81285,9.15,1.54,1.7,2.0
1758075878.84734,1758075878.79182,0.0,0.0,0.0,-2.63561,18.79302,-3.26586,9.15,1.54,1.7,2.0
1758075878.86213,1758075878.80182,0.0,0.0,0.0,-3.09397,21.37133,-1.66158,9.32,1.3,1.47,2.0
1758075878.87971,1758075878.81182,0.0,0.0,0.0,-3.83882,23.66316,-0.17189,9.32,1.3,1.47,2.0
1758075878.88095,1758075878.82182,0.0,0.0,0.0,-4.52637,26.47065,1.3751,9.34,1.21,1.28,2.0
1758075878.89645,1758075878.83182,0.0,0.0,0.0,-5.55769,29.96569,4.0107,9.34,1.21,1.28,2.0
1758075878.89927,1758075878.84182,0.0,0.0,0.0,-6.18794,29.56462,5.78687,9.28,1.28,1.11,2.0
1758075878.91446,1758075878.85182,0.0,0.0,0.0,-6.87549,25.09555,7.39116,8.6,1.4,1.15,2.0
1758075878.93018,1758075878.86182,0.0,0.0,0.0,-8.30789,16.84496,8.65166,8.6,1.4,1.15,2.0
1758075878.93172,1758075878.87182,0.0,0.0,0.0,-11.74564,-1.77617,10.02676,7.68,1.4,1.26,2.0
1758075878.94725,1758075878.88182,0.0,0.0,0.0,-15.35527,-15.0115,10.31324,7.68,1.4,1.26,2.0
1758075878.94841,1758075878.89182,0.0,0.0,0.0,-19.53786,-27.44468,10.19865,7.39,1.46,1.17,2.0
1758075878.96346,1758075878.90182,0.0,0.0,0.0,-23.66316,-37.24226,9.39651,7.39,1.46,1.17,2.0
1758075878.97922,1758075878.91182,0.0,0.0,0.0,-29.96569,-45.37826,7.04738,7.87,1.7,1.19,2.0
1758075878.98033,1758075878.92182,0.0,0.0,0.0,-33.9764,-49.33167,4.81285,8.84,1.81,1.04,2.0
1758075878.99545,1758075878.93182,0.0,0.0,0.0,-36.89849,-59.35843,4.98473,8.84,1.81,1.04,2.0
1758075878.99637,1758075878.94182,0.0,0.0,0.0,-38.73195,-68.52576,5.15662,8.48,1.6,0.64,2.0
1758075879.01221,1758075878.95182,0.0,0.0,0.0,-40.85189,-75.57314,6.53172,8.48,1.6,0.64,2.0
1758075879.02846,1758075878.96182,0.0,0.0,0.0,-41.88322,-76.94823,7.04738,9.04,1.46,0.81,2.0
1758075879.02945,1758075878.97182,0.0,0.0,0.0,-43.88857,-67.26525,7.96411,9.04,1.46,0.81,2.0
1758075879.04453,1758075878.98182,0.0,0.0,0.0,-46.1231,-51.85268,7.67763,10.77,1.71,1.52,2.0
1758075879.06051,1758075878.99182,0.0,0.0,0.0,-44.8053,-30.76784,8.36518,11.85,1.76,3.08,2.0
1758075879.06146,1758075879.00182,0.0,0.0,0.0,-39.82057,-51.5662,9.05273,11.85,1.76,3.08,2.0
1758075879.07653,1758075879.01182,0.0,0.0,0.0,-39.82057,-92.81918,-1.20321,8.23,1.22,5.09,2.0
1758075879.07747,1758075879.02182,0.0,0.0,0.0,-36.6693,-116.42503,-20.62648,8.23,1.22,5.09,2.0
1758075879.09252,1758075879.03182,0.0,0.0,0.0,-35.00772,-106.68475,-32.25753,12.97,-0.38,2.96,2.0
1758075879.10864,1758075879.04182,0.0,0.0,0.0,-31.91375,-91.27219,-36.49741,12.97,-0.38,2.96,2.0
1758075879.11024,1758075879.05182,0.0,0.0,0.0,-27.10091,-78.20874,-34.09099,14.77,-1.43,2.87,2.0
1758075879.12541,1758075879.06182,0.0,0.0,0.0,-17.18874,-69.04142,-24.23611,11.27,-1.43,3.02,2.0
1758075879.12647,1758075879.07182,0.0,0.0,0.0,-12.204,-73.05212,-16.21471,11.27,-1.3,3.02,2.0
1758075879.14254,1758075879.08182,0.0,0.0,0.0,-10.37054,-74.25533,-8.76626,8.78,-0.11,1.5,2.0
1758075879.15857,1758075879.09182,0.0,0.0,0.0,-10.8862,-67.15066,-2.06265,8.78,-0.11,1.5,2.0
1758075879.15954,1758075879.10182,0.0,0.0,0.0,-15.06879,-51.6235,5.61499,10.11,0.8,0.8,2.0
1758075879.17434,1758075879.11182,0.0,0.0,0.0,-18.56383,-42.28429,7.67763,10.11,0.8,0.8,2.0
1758075879.19039,1758075879.12182,0.0,0.0,0.0,-22.05888,-31.97105,7.50575,10.29,1.17,0.95,2.0
1758075879.19155,1758075879.13182,0.0,0.0,0.0,-25.7831,-22.91831,4.98473,10.29,1.17,0.95,2.0
1758075879.20637,1758075879.14182,0.0,0.0,0.0,-31.45539,-8.88085,-3.26586,10.36,1.16,0.72,2.0
1758075879.20789,1758075879.15182,0.0,0.0,0.0,-34.14828,3.72423,-9.74028,10.8,0.91,0.6,2.0
1758075879.22263,1758075879.16182,0.0,0.0,0.0,-36.7266,12.08941,-16.95955,10.8,0.91,0.6,2.0
1758075879.23834,1758075879.17182,0.0,0.0,0.0,-37.92981,19.07949,-21.94428,10.51,0.58,0.54,2.0
1758075879.23953,1758075879.18182,0.0,0.0,0.0,-37.75792,30.65324,-27.2155,10.51,0.58,0.54,2.0
1758075879.25452,1758075879.19182,0.0,0.0,0.0,-35.92446,36.55471,-26.41335,10.97,0.03,0.63,2.0
1758075879.27067,1758075879.20182,0.0,0.0,0.0,-34.72124,42.05511,-25.72581,10.97,0.03,0.63,2.0
1758075879.27154,1758075879.21182,0.0,0.0,0.0,-31.85646,42.34158,-21.94428,11.06,-0.5,0.66,2.0
1758075879.28638,1758075879.22182,0.0,0.0,0.0,-29.8511,42.22699,-18.73572,10.79,-0.47,0.78,2.0
1758075879.2876,1758075879.23182,0.0,0.0,0.0,-28.76248,42.57077,-15.35527,10.79,-0.47,0.78,2.0
1758075879.30242,1758075879.24182,0.0,0.0,0.0,-27.04361,40.7373,-11.57375,10.75,-0.23,0.66,2.0
1758075879.31865,1758075879.25182,0.0,0.0,0.0,-25.15285,38.1017,-6.41713,10.75,-0.23,0.66,2.0
1758075879.31961,1758075879.26182,0.0,0.0,0.0,-23.31938,36.95578,-3.49504,10.22,-0.2,0.54,2.0
1758075879.33467,1758075879.27182,0.0,0.0,0.0,-21.37133,35.75257,-1.43239,10.22,-0.2,0.54,2.0
1758075879.35039,1758075879.28182,0.0,0.0,0.0,-19.25138,33.63263,0.0,9.62,-0.29,0.44,2.0
1758075879.35169,1758075879.29182,0.0,0.0,0.0,-16.3293,29.27814,0.74485,9.1,-0.26,0.47,2.0
1758075879.36645,1758075879.30182,0.0,0.0,0.0,-14.20935,27.10091,0.22918,9.1,-0.26,0.47,2.0
1758075879.36766,1758075879.31182,0.0,0.0,0.0,-12.08941,24.23611,-1.03132,8.88,-0.22,0.1,2.0
1758075879.38234,1758075879.32182,0.0,0.0,0.0,-9.91217,20.74107,-3.26586,8.88,-0.22,0.1,2.0
1758075879.39871,1758075879.33182,0.0,0.0,0.0,-6.35983,17.53251,-6.7609,8.55,-0.27,-0.16,2.0
1758075879.39965,1758075879.34182,0.0,0.0,0.0,-3.72423,19.70975,-9.33921,8.55,-0.27,-0.16,2.0
1758075879.41472,1758075879.35182,0.0,0.0,0.0,-0.80214,21.88699,-11.51645,8.83,-0.47,-0.28,2.0
1758075879.43076,1758075879.36182,0.0,0.0,0.0,2.46372,22.05888,-13.5218,8.83,-0.47,-0.28,2.0
1758075879.43168,1758075879.37182,0.0,0.0,0.0,9.74028,19.70975,-13.98017,8.48,-1.02,0.1,2.0
1758075879.44676,1758075879.38182,0.0,0.0,0.0,15.64175,16.04282,-12.14671,8.27,-1.74,0.14,2.0
1758075879.44771,1758075879.39182,0.0,0.0,0.0,21.88699,10.54242,-9.05273,8.27,-1.74,0.14,2.0
1758075879.46251,1758075879.40182,0.0,0.0,0.0,28.59059,3.55234,-2.23454,8.18,-2.11,-0.06,2.0
1758075879.47876,1758075879.41182,0.0,0.0,0.0,38.61736,-9.62569,2.92208,8.18,-2.11,-0.06,2.0
1758075879.47999,1758075879.42182,0.0,0.0,0.0,45.03448,-21.42862,8.42248,8.16,-1.89,-0.22,2.0
1758075879.49481,1758075879.43182,0.0,0.0,0.0,49.61814,-38.61736,12.204,8.16,-1.89,-0.22,2.0
1758075879.51084,1758075879.44182,0.0,0.0,0.0,54.14451,-43.31561,13.46451,8.01,-1.11,-0.27,2.0
1758075879.51171,1758075879.45182,0.0,0.0,0.0,55.6915,-28.59059,13.86558,11.0,-0.3,0.0,2.0
1758075879.52681,1758075879.46182,0.0,0.0,0.0,56.66553,-18.9649,14.9542,11.0,-0.3,0.0,2.0
1758075879.52781,1758075879.47182,0.0,0.0,0.0,56.37905,-9.39651,16.55848,11.56,0.31,1.73,2.0
1758075879.5425,1758075879.48182,0.0,0.0,0.0,52.54023,1.48969,14.66772,11.56,0.31,1.73,2.0
1758075879.55915,1758075879.49182,0.0,0.0,0.0,48.35764,2.29183,13.12073,11.67,1.18,2.46,2.0
1758075879.5598,1758075879.50182,0.0,0.0,0.0,42.74266,-2.57831,9.11003,11.67,1.18,2.46,2.0
1758075879.57482,1758075879.51182,0.0,0.0,0.0,39.64868,-47.26902,10.37054,9.99,2.31,2.97,2.0
1758075879.59087,1758075879.52182,0.0,0.0,0.0,36.15364,-110.52357,22.74642,7.96,2.61,2.46,2.0
1758075879.59222,1758075879.53182,0.0,0.0,0.0,31.91375,-106.28368,32.6013,7.96,2.61,2.46,2.0
1758075879.60661,1758075879.54182,0.0,0.0,0.0,25.72581,-82.50593,35.58068,14.81,3.09,1.55,2.0
1758075879.60808,1758075879.55182,0.0,0.0,0.0,22.63183,-69.3279,40.50812,14.81,3.09,1.55,2.0
1758075879.62259,1758075879.56182,0.0,0.0,0.0,17.93358,-54.77477,38.38818,12.6,2.8,1.78,2.0
1758075879.63886,1758075879.57182,0.0,0.0,0.0,13.80828,-43.77398,32.08564,12.6,2.8,1.78,2.0
1758075879.64007,1758075879.58182,0.0,0.0,0.0,9.74028,-38.27358,25.49662,10.85,1.42,0.84,2.0
1758075879.6549,1758075879.59182,0.0,0.0,0.0,4.58366,-34.14828,14.61043,10.85,1.42,0.84,2.0
1758075879.67059,1758075879.60182,0.0,0.0,0.0,0.22918,-37.87251,3.26586,8.85,0.5,0.43,2.0
1758075879.67182,1758075879.61182,0.0,0.0,0.0,-1.3751,-39.07573,-1.77617,8.96,0.28,0.68,2.0
1758075879.68694,1758075879.62182,0.0,0.0,0.0,-2.23454,-37.64333,-4.69825,8.96,0.28,0.68,2.0
1758075879.68782,1758075879.63182,0.0,0.0,0.0,-1.66158,-34.26288,-5.32851,11.02,0.63,0.55,2.0
1758075879.70264,1758075879.64182,0.0,0.0,0.0,0.22918,-31.28349,-2.92208,11.02,0.63,0.55,2.0
1758075879.71889,1758075879.65182,0.0,0.0,0.0,3.26586,-26.81443,1.3178,12.03,0.6,-0.03,2.0
1758075879.71986,1758075879.66182,0.0,0.0,0.0,7.04738,-22.28806,6.8182,12.03,0.6,-0.03,2.0
1758075879.73467,1758075879.67182,0.0,0.0,0.0,12.89155,-13.00614,14.61043,11.65,-0.09,-0.74,2.0
1758075879.75096,1758075879.68182,0.0,0.0,0.0,15.87093,-3.60963,18.10547,10.64,-0.88,-1.32,2.0
1758075879.75187,1758075879.69182,0.0,0.0,0.0,17.87628,7.39116,19.82434,10.64,-0.88,-1.32,2.0
1758075879.76664,1758075879.70182,0.0,0.0,0.0,18.73572,17.47521,19.07949,10.02,-1.09,-1.57,2.0
1758075879.76812,1758075879.71182,0.0,0.0,0.0,18.85031,29.27814,14.49583,10.02,-1.09,-1.57,2.0
1758075879.78271,1758075879.72182,0.0,0.0,0.0,18.22006,33.34615,10.8289,9.59,-0.8,-1.44,2.0
1758075879.79898,1758075879.73182,0.0,0.0,0.0,17.47521,34.77854,7.79223,9.59,-0.8,-1.44,2.0
1758075879.79993,1758075879.74182,0.0,0.0,0.0,15.87093,36.7266,3.72423,9.51,-0.32,-1.46,2.0
1758075879.81501,1758075879.75182,0.0,0.0,0.0,14.72501,40.04975,-1.03132,10.1,0.06,-1.41,2.0
1758075879.83072,1758075879.76182,0.0,0.0,0.0,14.43854,42.85724,-3.89611,10.1,0.06,-1.41,2.0
1758075879.83144,1758075879.77182,0.0,0.0,0.0,15.24068,44.40423,-5.90147,10.38,0.05,-1.28,2.0
1758075879.84705,1758075879.78182,0.0,0.0,0.0,16.50119,49.50356,-6.87549,10.38,0.05,-1.28,2.0
1758075879.84795,1758075879.79182,0.0,0.0,0.0,18.16276,58.15522,-9.28192,10.53,-0.28,-1.17,2.0
1758075879.86303,1758075879.80182,0.0,0.0,0.0,18.90761,65.08801,-10.8289,10.53,-0.28,-1.17,2.0
1758075879.87872,1758075879.81182,0.0,0.0,0.0,19.59516,69.61437,-12.43318,10.32,-0.33,-0.99,2.0
1758075879.88027,1758075879.82182,0.0,0.0,0.0,19.70975,72.47916,-14.38124,10.32,-0.33,-0.99,2.0
1758075879.89478,1758075879.83182,0.0,0.0,0.0,18.90761,70.53111,-15.06879,10.02,-0.28,-0.48,2.0
1758075879.91075,1758075879.84182,0.0,0.0,0.0,17.6471,61.30648,-14.61043,9.87,0.03,1.09,2.0
1758075879.91137,1758075879.85182,0.0,0.0,0.0,15.29797,45.09178,-11.63104,9.87,0.03,1.09,2.0
1758075879.92711,1758075879.86182,0.0,0.0,0.0,12.54778,21.31403,-1.03132,10.54,1.16,2.33,2.0
1758075879.92797,1758075879.87182,0.0,0.0,0.0,9.39651,20.22541,4.23989,10.54,1.16,2.33,2.0
1758075879.94287,1758075879.88182,0.0,0.0,0.0,6.18794,19.48057,7.96411,12.27,2.23,1.09,2.0
1758075879.95914,1758075879.89182,0.0,0.0,0.0,3.20856,17.36062,9.33921,12.27,2.23,1.09,2.0
1758075879.96002,1758075879.90182,0.0,0.0,0.0,-0.80214,12.83425,9.11003,10.08,2.03,0.86,2.0
1758075879.97513,1758075879.91182,0.0,0.0,0.0,-2.46372,12.49048,7.44845,8.55,0.75,0.68,2.0
1758075879.99087,1758075879.92182,0.0,0.0,0.0,-3.95341,11.57375,4.92744,8.55,0.75,0.68,2.0
1758075879.99148,1758075879.93182,0.0,0.0,0.0,-4.81285,12.77696,1.08862,8.59,-0.48,0.37,2.0
1758075880.00714,1758075879.94182,0.0,0.0,0.0,-4.98473,8.76626,-2.92208,8.59,-0.48,0.37,2.0
1758075880.00836,1758075879.95182,0.0,0.0,0.0,-4.29718,10.59972,-4.87014,9.23,-1.18,0.01,2.0
1758075880.02275,1758075879.96182,0.0,0.0,0.0,-3.32316,14.09476,-6.8182,9.23,-1.18,0.01,2.0
1758075880.03917,1758075879.97182,0.0,0.0,0.0,-1.77617,16.84496,-8.136,10.75,-1.22,-0.05,2.0
1758075880.0401,1758075879.98182,0.0,0.0,0.0,1.83346,20.68378,-9.4538,11.12,-1.01,-0.19,2.0
1758075880.05515,1758075879.99182,0.0,0.0,0.0,4.23989,24.35071,-10.31324,11.12,-1.01,-0.19,2.0
1758075880.05639,1758075880.00182,0.0,0.0,0.0,6.87549,27.04361,-11.28727,11.06,-0.83,0.22,2.0
1758075880.07151,1758075880.01182,0.0,0.0,0.0,9.91217,28.41871,-11.22997,11.06,-0.83,0.22,2.0
1758075880.08721,1758075880.02182,0.0,0.0,0.0,13.86558,31.16891,-9.85487,10.58,-0.69,0.37,2.0
1758075880.08815,1758075880.03182,0.0,0.0,0.0,15.46986,33.05967,-8.59437,10.58,-0.69,0.37,2.0
1758075880.10319,1758075880.04182,0.0,0.0,0.0,16.21471,34.09099,-6.7609,10.3,-0.54,0.64,2.0
1758075880.11918,1758075880.05182,0.0,0.0,0.0,15.64175,34.43476,-4.18259,10.3,-0.54,0.64,2.0
1758075880.12041,1758075880.06182,0.0,0.0,0.0,14.43854,33.11696,-2.57831,9.83,-0.21,0.77,2.0
1758075880.13493,1758075880.07182,0.0,0.0,0.0,12.49048,31.85646,-1.48969,9.7,0.25,1.13,2.0
1758075880.13647,1758075880.08182,0.0,0.0,0.0,9.74028,30.25217,-0.80214,9.7,0.25,1.13,2.0
1758075880.15148,1758075880.09182,0.0,0.0,0.0,4.64096,27.61657,-0.45837,9.87,0.72,1.23,2.0
1758075880.16692,1758075880.10182,0.0,0.0,0.0,1.03132,26.01229,-0.97403,9.87,0.72,1.23,2.0
1758075880.16815,1758075880.11182,0.0,0.0,0.0,-2.57831,24.57989,-1.83346,9.97,1.02,1.03,2.0
1758075880.18299,1758075880.12182,0.0,0.0,0.0,-5.95876,23.72045,-3.26586,9.97,1.02,1.03,2.0
1758075880.19925,1758075880.13182,0.0,0.0,0.0,-10.25595,23.0329,-5.61499,9.82,0.92,0.9,2.0
1758075880.20021,1758075880.14182,0.0,0.0,0.0,-12.43318,22.57454,-7.44845,9.53,0.62,1.01,2.0
1758075880.21528,1758075880.15182,0.0,0.0,0.0,-13.80828,21.02755,-9.05273,9.53,0.62,1.01,2.0
1758075880.21643,1758075880.16182,0.0,0.0,0.0,-14.49583,18.85031,-10.02676,9.29,0.33,1.24,2.0
1758075880.23155,1758075880.17182,0.0,0.0,0.0,-15.35527,17.87628,-10.8862,9.29,0.33,1.24,2.0
1758075880.24733,1758075880.18182,0.0,0.0,0.0,-15.75634,17.76169,-11.51645,9.51,0.23,1.49,2.0
1758075880.24824,1758075880.19182,0.0,0.0,0.0,-16.38659,16.3293,-12.204,9.51,0.23,1.49,2.0
1758075880.26313,1758075880.20182,0.0,0.0,0.0,-16.95955,13.17803,-12.77696,9.35,0.36,1.79,2.0
1758075880.27902,1758075880.21182,0.0,0.0,0.0,-17.6471,9.05273,-13.5218,9.27,0.59,2.06,2.0
1758075880.28049,1758075880.22182,0.0,0.0,0.0,-17.76169,7.21927,-13.86558,9.27,0.59,2.06,2.0
1758075880.29506,1758075880.23182,0.0,0.0,0.0,-17.58981,4.87014,-14.09476,9.38,0.83,1.98,2.0
1758075880.29625,1758075880.24182,0.0,0.0,0.0,-16.73037,1.3751,-13.12073,9.38,0.83,1.98,2.0
1758075880.31121,1758075880.25182,0.0,0.0,0.0,-14.20935,-4.0107,-11.80293,9.11,0.91,2.09,2.0
1758075880.32739,1758075880.26182,0.0,0.0,0.0,-12.37589,-7.04738,-9.91217,9.11,0.91,2.09,2.0
1758075880.32826,1758075880.27182,0.0,0.0,0.0,-9.91217,-9.28192,-7.84952,8.99,0.85,2.13,2.0
1758075880.34343,1758075880.28182,0.0,0.0,0.0,-5.50039,-12.83425,-4.29718,8.99,0.85,2.13,2.0
1758075880.35939,1758075880.29182,0.0,0.0,0.0,-2.11994,-14.66772,-2.11994,8.9,0.79,2.42,2.0
1758075880.36032,1758075880.30182,0.0,0.0,0.0,1.20321,-15.58445,0.0,8.92,0.79,2.37,2.0
1758075880.37543,1758075880.31182,0.0,0.0,0.0,4.23989,-15.92823,1.94806,8.92,0.79,2.37,2.0
1758075880.37631,1758075880.32182,0.0,0.0,0.0,7.04738,-14.43854,4.1253,9.1,1.01,2.12,2.0
1758075880.39121,1758075880.33182,0.0,0.0,0.0,7.84952,-11.91752,5.09932,9.1,1.01,2.12,2.0
1758075880.4074,1758075880.34182,0.0,0.0,0.0,7.44845,-8.25059,5.15662,9.53,1.48,1.8,2.0
1758075880.40838,1758075880.35182,0.0,0.0,0.0,6.13065,-3.83882,4.58366,9.53,1.48,1.8,2.0
1758075880.42305,1758075880.36182,0.0,0.0,0.0,2.6929,3.09397,3.32316,10.13,2.03,1.58,2.0
1758075880.43936,1758075880.37182,0.0,0.0,0.0,0.22918,7.10468,2.11994,10.52,2.43,1.66,2.0
1758075880.44039,1758075880.38182,0.0,0.0,0.0,-2.40642,10.8289,0.57296,10.52,2.43,1.66,2.0
1758075880.45538,1758075880.39182,0.0,0.0,0.0,-4.98473,14.43854,-1.3751,10.79,2.49,1.73,2.0
1758075880.45639,1758075880.40182,0.0,0.0,0.0,-8.136,18.9649,-4.46907,10.79,2.49,1.73,2.0
1758075880.47123,1758075880.41182,0.0,0.0,0.0,-9.91217,21.08485,-6.13065,10.7,2.27,1.76,2.0
1758075880.48721,1758075880.42182,0.0,0.0,0.0,-10.8289,24.00693,-8.36518,10.7,2.27,1.76,2.0
1758075880.48839,1758075880.43182,0.0,0.0,0.0,-11.28727,25.38203,-9.62569,10.36,2.06,1.84,2.0
1758075880.50329,1758075880.44182,0.0,0.0,0.0,-11.80293,26.18417,-11.17268,9.94,1.87,1.95,2.0
1758075880.5192,1758075880.45182,0.0,0.0,0.0,-11.91752,26.69983,-11.45916,9.94,1.87,1.95,2.0
1758075880.52045,1758075880.46182,0.0,0.0,0.0,-11.80293,26.81443,-11.34457,9.79,1.72,1.97,2.0
1758075880.53522,1758075880.47182,0.0,0.0,0.0,-11.34457,26.69983,-10.59972,9.79,1.72,1.97,2.0
1758075880.53642,1758075880.48182,0.0,0.0,0.0,-10.8289,27.1582,-9.96947,9.69,1.6,2.09,2.0
1758075880.55166,1758075880.49182,0.0,0.0,0.0,-10.54242,27.1582,-9.39651,9.69,1.6,2.09,2.0
1758075880.56754,1758075880.50182,0.0,0.0,0.0,-10.08406,27.44468,-8.76626,9.42,1.5,1.97,2.0
1758075880.56871,1758075880.51182,0.0,0.0,0.0,-9.85487,28.30412,-7.73493,9.42,1.5,1.97,2.0
1758075880.58355,1758075880.52182,0.0,0.0,0.0,-9.96947,28.476,-7.21927,9.25,1.47,1.96,2.0
1758075880.59957,1758075880.53182,0.0,0.0,0.0,-10.48513,27.73116,-6.47442,8.97,1.52,1.77,2.0
1758075880.6005,1758075880.54182,0.0,0.0,0.0,-10.8862,28.13223,-6.41713,8.97,1.52,1.77,2.0
1758075880.61557,1758075880.55182,0.0,0.0,0.0,-12.2613,29.04896,-5.90147,8.85,1.63,1.53,2.0
1758075880.61647,1758075880.56182,0.0,0.0,0.0,-13.40721,31.11161,-5.32851,8.85,1.63,1.53,2.0
1758075880.63132,1758075880.57182,0.0,0.0,0.0,-15.12609,32.77319,-4.81285,8.93,1.67,1.44,2.0
1758075880.64737,1758075880.58182,0.0,0.0,0.0,-16.67307,33.17426,-3.72423,8.93,1.67,1.44,2.0
1758075880.64851,1758075880.59182,0.0,0.0,0.0,-20.05352,31.39809,-1.94806,8.78,1.59,1.29,2.0
1758075880.66321,1758075880.60182,0.0,0.0,0.0,-22.11617,27.10091,-0.51566,8.29,1.54,1.12,2.0
1758075880.6796,1758075880.61182,0.0,0.0,0.0,-24.12152,19.70975,0.85944,8.29,1.54,1.12,2.0
1758075880.68057,1758075880.62182,0.0,0.0,0.0,-25.72581,9.4538,2.40642,7.58,1.55,1.02,2.0
1758075880.69538,1758075880.63182,0.0,0.0,0.0,-27.44468,-8.99544,4.92744,7.58,1.55,1.02,2.0
1758075880.69691,1758075880.64182,0.0,0.0,0.0,-28.36141,-21.48592,6.58902,7.24,1.4,0.9,2.0
1758075880.71137,1758075880.65182,0.0,0.0,0.0,-28.476,-33.63263,8.42248,7.24,1.4,0.9,2.0
1758075880.72743,1758075880.66182,0.0,0.0,0.0,-28.36141,-45.20637,10.59972,7.44,1.23,0.95,2.0
1758075880.72857,1758075880.67182,0.0,0.0,0.0,-28.70519,-55.23313,11.28727,8.65,1.15,1.71,2.0
1758075880.74343,1758075880.68182,0.0,0.0,0.0,-29.04896,-48.35764,12.08941,8.65,1.15,1.71,2.0
1758075880.74644,1758075880.69182,0.0,0.0,0.0,-29.50733,-34.49206,11.74564,11.67,1.01,2.29,2.0
1758075880.76267,1758075880.70182,0.0,0.0,0.0,-28.07493,-24.4653,12.43318,11.67,1.01,2.29,2.0
1758075880.77832,1758075880.71182,0.0,0.0,0.0,-24.98096,-29.39274,12.204,12.11,0.7,3.5,2.0
1758075880.78601,1758075880.72182,0.0,0.0,0.0,-21.37133,-41.88322,10.65701,12.11,0.7,3.5,2.0
1758075880.78659,1758075880.73182,0.0,0.0,0.0,-18.22006,-51.79538,7.16197,11.3,0.12,3.76,2.0
1758075880.80471,1758075880.74182,0.0,0.0,0.0,-13.69369,-57.12389,1.66158,11.3,0.12,3.14,2.0
1758075880.80559,1758075880.75182,0.0,0.0,0.0,-10.37054,-52.884,-1.3751,12.11,-0.1,3.14,2.0
1758075880.82271,1758075880.76182,0.0,0.0,0.0,-7.04738,-40.50812,-2.34913,12.56,0.34,3.35,2.0
1758075880.83875,1758075880.77182,0.0,0.0,0.0,-4.64096,-27.1582,-2.40642,12.56,0.34,3.35,2.0
1758075880.83989,1758075880.78182,0.0,0.0,0.0,-3.38045,-18.27736,-0.97403,11.2,0.71,3.47,2.0
1758075880.8547,1758075880.79182,0.0,0.0,0.0,-4.46907,-23.26209,-1.14592,11.2,0.71,3.47,2.0
1758075880.85569,1758075880.80182,0.0,0.0,0.0,-3.89611,-47.38361,1.3751,7.81,0.47,3.05,2.0
1758075880.87179,1758075880.81182,0.0,0.0,0.0,-1.60428,-73.62508,1.43239,7.81,0.47,3.05,2.0
1758075880.88748,1758075880.82182,0.0,0.0,0.0,-0.51566,-82.67782,8.136,4.71,-0.27,2.13,2.0
1758075880.88872,1758075880.83182,0.0,0.0,0.0,-0.80214,-67.37984,8.93814,9.52,-0.92,1.9,2.0
1758075880.90743,1758075880.84182,0.0,0.0,0.0,-1.43239,-57.41038,9.33921,9.52,-0.92,1.9,2.0
1758075880.91107,1758075880.85182,0.0,0.0,0.0,-1.08862,-51.27972,9.5684,10.14,-0.84,2.19,2.0
1758075880.92653,1758075880.86182,0.0,0.0,0.0,-1.03132,-40.45082,6.58902,10.14,-0.84,2.19,2.0
1758075880.92934,1758075880.87182,0.0,0.0,0.0,-0.57296,-25.26744,5.32851,11.05,-0.66,1.79,2.0
1758075880.94576,1758075880.88182,0.0,0.0,0.0,-0.68755,-13.98017,3.60963,11.05,-0.66,1.79,2.0
1758075880.94656,1758075880.89182,0.0,0.0,0.0,0.97403,-13.40721,0.45837,11.2,-0.55,1.48,2.0
1758075880.96178,1758075880.90182,0.0,0.0,0.0,2.57831,-18.9649,-1.66158,9.68,-0.57,1.38,2.0
1758075880.97779,1758075880.91182,0.0,0.0,0.0,3.60963,-22.86102,-4.0107,9.68,-0.57,1.38,2.0
1758075880.9788,1758075880.92182,0.0,0.0,0.0,4.87014,-18.90761,-4.58366,10.8,-0.47,0.91,2.0
1758075880.99382,1758075880.93182,0.0,0.0,0.0,6.18794,0.11459,-3.66693,10.8,-0.47,0.91,2.0
1758075881.00952,1758075880.94182,0.0,0.0,0.0,6.47442,10.48513,-1.83346,12.36,-0.26,0.76,2.0
1758075881.01075,1758075880.95182,0.0,0.0,0.0,6.99009,16.50119,-0.22918,12.36,-0.26,0.76,2.0
1758075881.02577,1758075880.96182,0.0,0.0,0.0,7.62034,17.99088,0.97403,11.16,-0.14,0.86,2.0
1758075881.02713,1758075880.97182,0.0,0.0,0.0,8.36518,19.70975,2.46372,10.34,-0.14,0.62,2.0
1758075881.04166,1758075880.98182,0.0,0.0,0.0,5.84417,40.27893,0.34377,10.34,-0.04,0.62,2.0
1758075881.05773,1758075880.99182,0.0,0.0,0.0,2.23454,64.85883,-2.40642,12.34,0.36,0.38,2.0
1758075881.05917,1758075881.00182,0.0,0.0,0.0,-1.20321,76.89094,-5.27121,12.34,0.36,0.38,2.0
1758075881.07367,1758075881.01182,0.0,0.0,0.0,-4.81285,70.53111,-8.88085,10.19,0.85,1.44,2.0
1758075881.0756,1758075881.02182,0.0,0.0,0.0,-6.18794,63.19725,-11.11538,10.19,0.85,1.44,2.0
1758075881.09188,1758075881.03182,0.0,0.0,0.0,-7.21927,57.46767,-13.40721,9.21,0.8,1.17,2.0
1758075881.10799,1758075881.04182,0.0,0.0,0.0,-7.96411,51.50891,-14.20935,9.21,0.8,1.17,2.0
1758075881.10912,1758075881.05182,0.0,0.0,0.0,-8.36518,45.20637,-14.32395,9.15,0.42,1.21,2.0
1758075881.12393,1758075881.06182,0.0,0.0,0.0,-7.84952,41.31026,-13.17803,9.01,0.01,1.65,2.0
1758075881.13964,1758075881.07182,0.0,0.0,0.0,-6.8182,36.89849,-11.86023,9.01,0.01,1.65,2.0
1758075881.14083,1758075881.08182,0.0,0.0,0.0,-5.72958,31.28349,-9.5684,8.43,-0.35,1.64,2.0
1758075881.15593,1758075881.09182,0.0,0.0,0.0,-4.1253,23.83505,-7.84952,8.43,-0.35,1.64,2.0
1758075881.15685,1758075881.10182,0.0,0.0,0.0,-2.92208,18.85031,-6.47442,8.15,-0.57,1.46,2.0
1758075881.17174,1758075881.11182,0.0,0.0,0.0,-1.60428,13.80828,-5.32851,8.15,-0.57,1.46,2.0
1758075881.18795,1758075881.12182,0.0,0.0,0.0,0.45837,9.74028,-5.27121,8.03,-0.59,1.0,2.0
1758075881.18884,1758075881.13182,0.0,0.0,0.0,1.43239,7.84952,-6.18794,8.46,-0.34,0.73,2.0
1758075881.20402,1758075881.14182,0.0,0.0,0.0,2.40642,4.92744,-7.73493,8.46,-0.34,0.73,2.0
1758075881.20674,1758075881.15182,0.0,0.0,0.0,3.26586,0.40107,-9.22462,8.34,-0.06,0.51,2.0
1758075881.22271,1758075881.16182,0.0,0.0,0.0,3.95341,-6.58902,-11.80293,8.34,-0.06,0.51,2.0
1758075881.23871,1758075881.17182,0.0,0.0,0.0,4.29718,-10.71431,-13.12073,8.45,0.01,0.33,2.0
1758075881.23992,1758075881.18182,0.0,0.0,0.0,4.64096,-13.75099,-13.98017,8.45,0.01,0.33,2.0
1758075881.25475,1758075881.19182,0.0,0.0,0.0,5.15662,-14.66772,-14.38124,8.85,0.09,-0.13,2.0
1758075881.25594,1758075881.20182,0.0,0.0,0.0,5.84417,-11.74564,-15.0115,9.35,0.2,-0.5,2.0
1758075881.27174,1758075881.21182,0.0,0.0,0.0,6.13065,-8.76626,-15.87093,9.35,0.2,-0.5,2.0
1758075881.28807,1758075881.22182,0.0,0.0,0.0,6.24524,-7.10468,-16.90226,9.5,0.06,0.18,2.0
1758075881.28897,1758075881.23182,0.0,0.0,0.0,6.7609,-5.61499,-17.93358,9.5,0.06,0.18,2.0
1758075881.30411,1758075881.24182,0.0,0.0,0.0,8.42248,-3.72423,-19.59516,9.97,-0.21,1.12,2.0
1758075881.30578,1758075881.25182,0.0,0.0,0.0,10.65701,-6.18794,-20.45459,9.97,-0.21,1.12,2.0
1758075881.32182,1758075881.26182,0.0,0.0,0.0,14.03747,-14.20935,-20.3973,10.56,-0.31,2.84,2.0
1758075881.33798,1758075881.27182,0.0,0.0,0.0,17.76169,-29.22085,-18.22006,10.56,-0.31,2.84,2.0
1758075881.33904,1758075881.28182,0.0,0.0,0.0,21.60051,-53.34238,-8.36518,11.37,0.2,5.86,2.0
1758075881.35392,1758075881.29182,0.0,0.0,0.0,21.7151,-61.65026,1.48969,14.11,2.04,4.87,2.0
1758075881.36996,1758075881.30182,0.0,0.0,0.0,19.70975,-61.99404,10.48513,14.11,2.04,4.87,2.0
1758075881.37128,1758075881.31182,0.0,0.0,0.0,13.5791,-57.18119,19.07949,14.67,2.57,2.34,2.0
1758075881.38587,1758075881.32182,0.0,0.0,0.0,8.88085,-50.87865,20.16812,14.67,2.57,2.34,2.0
1758075881.38731,1758075881.33182,0.0,0.0,0.0,5.50039,-47.89928,18.27736,12.04,1.41,2.43,2.0
1758075881.4018,1758075881.34182,0.0,0.0,0.0,2.97938,-41.76862,14.43854,12.04,1.41,2.43,2.0
1758075881.41783,1758075881.35182,0.0,0.0,0.0,1.48969,-28.59059,9.4538,10.88,0.39,2.98,2.0
1758075881.41898,1758075881.36182,0.0,0.0,0.0,1.48969,-16.50119,6.24524,11.09,0.43,3.2,2.0
1758075881.43384,1758075881.37182,0.0,0.0,0.0,2.63561,-6.47442,3.26586,11.09,0.43,3.2,2.0
1758075881.44993,1758075881.38182,0.0,0.0,0.0,7.16197,-15.29797,-0.40107,9.03,0.99,3.3,2.0
1758075881.45107,1758075881.39182,0.0,0.0,0.0,16.10011,-63.48372,-2.6929,9.03,0.99,3.3,2.0
1758075881.46596,1758075881.40182,0.0,0.0,0.0,22.57454,-65.66096,-3.95341,4.72,1.18,2.71,2.0
1758075881.46708,1758075881.41182,0.0,0.0,0.0,29.33544,-42.57077,-1.14592,4.72,1.18,2.71,2.0
1758075881.48198,1758075881.42182,0.0,0.0,0.0,33.80451,-22.00158,-1.48969,11.78,0.72,2.12,2.0
1758075881.49792,1758075881.43182,0.0,0.0,0.0,38.73195,-13.34992,5.15662,10.93,0.69,2.74,2.0
1758075881.49993,1758075881.44182,0.0,0.0,0.0,38.44547,-5.50039,8.02141,10.93,0.69,2.74,2.0
1758075881.51483,1758075881.45182,0.0,0.0,0.0,35.63798,8.42248,9.11003,10.87,1.13,1.35,2.0
1758075881.51605,1758075881.46182,0.0,0.0,0.0,31.62727,20.51189,8.99544,10.87,1.13,1.35,2.0
1758075881.5322,1758075881.47182,0.0,0.0,0.0,25.55392,34.43476,8.42248,10.28,1.99,0.89,2.0
1758075881.54823,1758075881.48182,0.0,0.0,0.0,21.31403,42.91454,7.73493,10.28,1.99,0.89,2.0
1758075881.54939,1758075881.49182,0.0,0.0,0.0,18.22006,48.01387,6.8182,9.76,2.26,0.96,2.0
1758075881.56426,1758075881.50182,0.0,0.0,0.0,15.87093,52.13916,5.15662,9.76,2.26,0.96,2.0
1758075881.58018,1758075881.51182,0.0,0.0,0.0,13.98017,54.94666,4.69825,9.25,2.26,0.91,2.0
1758075881.58145,1758075881.52182,0.0,0.0,0.0,13.80828,55.97798,4.92744,9.15,2.17,1.3,2.0
1758075881.59628,1758075881.53182,0.0,0.0,0.0,14.66772,55.92068,5.27121,9.15,2.17,1.3,2.0
1758075881.59717,1758075881.54182,0.0,0.0,0.0,17.47521,54.25911,5.32851,9.21,1.87,1.59,2.0
1758075881.61226,1758075881.55182,0.0,0.0,0.0,19.36597,52.9986,4.81285,9.21,1.87,1.59,2.0
1758075881.62819,1758075881.56182,0.0,0.0,0.0,20.97026,51.50891,4.46907,9.25,1.38,1.78,2.0
1758075881.62919,1758075881.57182,0.0,0.0,0.0,21.60051,48.01387,4.35448,9.25,1.38,1.78,2.0
1758075881.64427,1758075881.58182,0.0,0.0,0.0,20.3973,37.52874,4.98473,8.69,1.04,1.47,2.0
1758075881.66012,1758075881.59182,0.0,0.0,0.0,18.62113,29.56462,5.95876,8.03,1.01,1.31,2.0
1758075881.66146,1758075881.60182,0.0,0.0,0.0,16.84496,24.23611,6.41713,8.03,1.01,1.31,2.0
1758075881.67602,1758075881.61182,0.0,0.0,0.0,14.49583,17.47521,5.78687,8.11,1.24,1.43,2.0
1758075881.67721,1758075881.62182,0.0,0.0,0.0,10.8862,9.39651,4.52637,8.11,1.24,1.43,2.0
1758075881.69225,1758075881.63182,0.0,0.0,0.0,8.59437,6.58902,3.72423,8.47,1.61,1.57,2.0
1758075881.70914,1758075881.64182,0.0,0.0,0.0,6.24524,4.98473,2.92208,8.47,1.61,1.57,2.0
1758075881.71004,1758075881.65182,0.0,0.0,0.0,4.29718,4.18259,1.77617,9.04,1.89,1.54,2.0
1758075881.72535,1758075881.66182,0.0,0.0,0.0,2.92208,0.45837,1.94806,9.18,1.87,1.35,2.0
1758075881.72649,1758075881.67182,0.0,0.0,0.0,2.7502,-2.23454,3.55234,9.18,1.87,1.35,2.0
1758075881.74203,1758075881.68182,0.0,0.0,0.0,3.20856,-2.46372,5.4431,9.55,1.55,1.12,2.0
1758075881.75925,1758075881.69182,0.0,0.0,0.0,3.95341,-0.57296,8.136,9.55,1.55,1.12,2.0
1758075881.76102,1758075881.70182,0.0,0.0,0.0,4.52637,2.11994,12.2613,10.12,1.24,1.18,2.0
1758075881.77631,1758075881.71182,0.0,0.0,0.0,3.83882,4.35448,14.20935,10.12,1.24,1.18,2.0
1758075881.77727,1758075881.72182,0.0,0.0,0.0,2.7502,5.50039,14.61043,10.1,1.25,1.2,2.0
1758075881.79217,1758075881.73182,0.0,0.0,0.0,0.22918,3.89611,13.80828,10.1,1.25,1.2,2.0
1758075881.80836,1758075881.74182,0.0,0.0,0.0,-1.94806,-0.34377,12.49048,9.35,1.56,0.95,2.0
1758075881.80934,1758075881.75182,0.0,0.0,0.0,-4.18259,-4.0107,10.8289,8.8,1.91,0.77,2.0
1758075881.82442,1758075881.76182,0.0,0.0,0.0,-6.41713,-10.19865,9.28192,8.8,1.91,0.77,2.0
1758075881.84041,1758075881.77182,0.0,0.0,0.0,-8.88085,-25.61122,7.33386,8.19,2.14,0.57,2.0
1758075881.84135,1758075881.78182,0.0,0.0,0.0,-9.62569,-38.90384,5.55769,8.19,2.14,0.57,2.0
1758075881.85649,1758075881.79182,0.0,0.0,0.0,-10.19865,-47.44091,4.52637,7.64,2.03,0.42,2.0
1758075881.85737,1758075881.80182,0.0,0.0,0.0,-11.57375,-48.41494,4.29718,7.64,2.03,0.42,2.0
1758075881.87241,1758075881.81182,0.0,0.0,0.0,-12.60507,-22.23076,4.52637,9.52,1.93,0.28,2.0
1758075881.88842,1758075881.82182,0.0,0.0,0.0,-13.80828,-16.84496,4.64096,11.29,1.88,0.85,2.0
1758075881.88938,1758075881.83182,0.0,0.0,0.0,-16.272,-21.88699,4.35448,11.29,1.88,0.85,2.0
1758075881.90443,1758075881.84182,0.0,0.0,0.0,-17.53251,-27.10091,3.60963,9.62,1.71,0.96,2.0
1758075881.90618,1758075881.85182,0.0,0.0,0.0,-18.27736,-21.94428,3.89611,9.62,1.71,0.96,2.0
1758075881.92218,1758075881.86182,0.0,0.0,0.0,-17.99088,-13.69369,5.09932,10.43,1.43,0.36,2.0
1758075881.93904,1758075881.87182,0.0,0.0,0.0,-18.90761,-6.87549,6.47442,10.43,1.43,0.36,2.0
1758075881.94022,1758075881.88182,0.0,0.0,0.0,-20.62648,-2.34913,7.96411,9.94,1.73,0.13,2.0
1758075881.95541,1758075881.89182,0.0,0.0,0.0,-22.05888,1.94806,11.00079,9.81,2.3,0.88,2.0
1758075881.95636,1758075881.90182,0.0,0.0,0.0,-22.05888,-0.11459,11.91752,9.81,2.3,0.88,2.0
1758075881.97221,1758075881.91182,0.0,0.0,0.0,-20.74107,-8.76626,10.8289,10.65,2.14,3.25,2.0
1758075881.9885,1758075881.92182,0.0,0.0,0.0,-19.19409,-23.49127,5.90147,10.65,2.14,3.25,2.0
1758075881.98946,1758075881.93182,0.0,0.0,0.0,-14.09476,-34.37747,-5.27121,13.23,0.39,4.31,2.0
1758075882.00454,1758075881.94182,0.0,0.0,0.0,-7.62034,-30.30947,-11.74564,13.23,0.39,4.31,2.0
1758075882.02028,1758075881.95182,0.0,0.0,0.0,-0.11459,-24.17882,-15.87093,16.31,-1.71,2.91,2.0
1758075882.02146,1758075881.96182,0.0,0.0,0.0,8.88085,-19.07949,-14.09476,16.31,-1.71,2.91,2.0
1758075882.03623,1758075881.97182,0.0,0.0,0.0,12.2613,-21.08485,-10.02676,13.0,-1.57,1.79,2.0
1758075882.03748,1758075881.98182,0.0,0.0,0.0,14.49583,-25.72581,-3.66693,9.58,-0.17,0.84,2.0
1758075882.0534,1758075881.99182,0.0,0.0,0.0,14.09476,-26.81443,0.57296,9.58,-0.17,0.84,2.0
1758075882.06956,1758075882.00182,0.0,0.0,0.0,11.86023,-32.54401,6.13065,9.2,0.93,1.22,2.0
1758075882.07049,1758075882.01182,0.0,0.0,0.0,9.33921,-38.15899,7.79223,9.2,0.93,1.22,2.0
1758075882.0853,1758075882.02182,0.0,0.0,0.0,6.41713,-41.25296,7.96411,9.04,1.58,1.8,2.0
1758075882.08652,1758075882.03182,0.0,0.0,0.0,3.38045,-42.97184,6.8182,9.04,1.58,1.8,2.0
1758075882.10309,1758075882.04182,0.0,0.0,0.0,-1.03132,-46.81066,3.89611,9.28,1.6,2.42,2.0
1758075882.11934,1758075882.05182,0.0,0.0,0.0,-3.89611,-48.9306,1.43239,8.68,1.08,2.42,2.0
1758075882.12046,1758075882.06182,0.0,0.0,0.0,-6.99009,-50.2484,-1.03132,8.68,1.08,2.42,2.0
1758075882.13556,1758075882.07182,0.0,0.0,0.0,-10.02676,-50.76406,-3.38045,8.5,0.33,2.07,2.0
1758075882.13677,1758075882.08182,0.0,0.0,0.0,-14.38124,-49.61814,-6.7609,8.5,0.33,2.07,2.0
1758075882.15231,1758075882.09181,0.0,0.0,0.0,-17.18874,-46.1804,-8.70896,8.96,-0.31,1.63,2.0
1758075882.16857,1758075882.10181,0.0,0.0,0.0,-19.13679,-40.7946,-10.71431,8.96,-0.31,1.63,2.0
1758075882.16957,1758075882.11181,0.0,0.0,0.0,-20.22541,-34.32018,-12.71966,9.73,-0.69,1.05,2.0
1758075882.18464,1758075882.12181,0.0,0.0,0.0,-20.11082,-23.31938,-14.61043,10.26,-0.68,0.77,2.0
1758075882.20058,1758075882.13181,0.0,0.0,0.0,-18.50654,-15.29797,-15.06879,10.26,-0.68,0.77,2.0
1758075882.20159,1758075882.14181,0.0,0.0,0.0,-15.75634,-6.24524,-14.43854,10.74,-0.34,0.7,2.0
1758075882.21643,1758075882.15181,0.0,0.0,0.0,-10.02676,2.63561,-11.80293,10.74,-0.34,0.7,2.0
1758075882.21761,1758075882.16181,0.0,0.0,0.0,-6.13065,17.18874,-9.28192,11.09,-0.21,0.5,2.0
1758075882.23267,1758075882.17181,0.0,0.0,0.0,-3.09397,27.04361,-6.99009,11.09,-0.21,0.5,2.0
1758075882.24869,1758075882.18181,0.0,0.0,0.0,-0.85944,36.26823,-5.09932,11.25,-0.4,0.17,2.0
1758075882.25042,1758075882.19181,0.0,0.0,0.0,0.80214,47.61279,-3.72423,11.25,-0.4,0.17,2.0
1758075882.26578,1758075882.20181,0.0,0.0,0.0,0.85944,50.87865,-3.49504,10.81,-0.56,0.14,2.0
1758075882.26684,1758075882.21181,0.0,0.0,0.0,0.45837,54.431,-4.1253,10.21,-0.51,0.22,2.0
1758075882.28246,1758075882.22181,0.0,0.0,0.0,-0.51566,57.41038,-5.50039,10.21,-0.51,0.22,2.0
1758075882.29866,1758075882.23181,0.0,0.0,0.0,-1.77617,56.26446,-7.79223,9.9,-0.3,0.43,2.0
1758075882.29988,1758075882.24181,0.0,0.0,0.0,-2.06265,52.25375,-9.68299,9.9,-0.3,0.43,2.0
1758075882.31448,1758075882.25181,0.0,0.0,0.0,-1.60428,47.49821,-11.11538,9.23,-0.16,0.75,2.0
1758075882.33048,1758075882.26181,0.0,0.0,0.0,-0.74485,42.1124,-11.80293,9.23,-0.16,0.75,2.0
1758075882.33171,1758075882.27181,0.0,0.0,0.0,1.3751,31.85646,-11.00079,8.89,-0.21,0.8,2.0
1758075882.34647,1758075882.28181,0.0,0.0,0.0,3.03668,26.52795,-9.33921,8.65,-0.33,0.89,2.0
1758075882.3477,1758075882.29181,0.0,0.0,0.0,4.81285,24.23611,-6.99009,8.65,-0.33,0.89,2.0
1758075882.36254,1758075882.30181,0.0,0.0,0.0,6.24524,22.74642,-4.46907,9.0,-0.36,0.82,2.0
1758075882.37877,1758075882.31181,0.0,0.0,0.0,8.88085,17.93358,-0.97403,9.0,-0.36,0.82,2.0
1758075882.37974,1758075882.32181,0.0,0.0,0.0,11.11538,12.204,1.20321,8.79,-0.31,0.73,2.0
1758075882.39451,1758075882.33181,0.0,0.0,0.0,13.34992,9.28192,3.60963,8.79,-0.31,0.73,2.0
1758075882.4108,1758075882.34181,0.0,0.0,0.0,15.69904,10.08406,5.55769,9.1,-0.37,0.32,2.0
1758075882.41205,1758075882.35181,0.0,0.0,0.0,18.79302,14.43854,7.62034,9.77,-0.49,-0.03,2.0
1758075882.42682,1758075882.36181,0.0,0.0,0.0,21.08485,17.87628,8.59437,9.77,-0.49,-0.03,2.0
1758075882.42801,1758075882.37181,0.0,0.0,0.0,23.83505,20.22541,9.5684,9.96,-0.54,0.0,2.0
1758075882.44282,1758075882.38181,0.0,0.0,0.0,28.24682,20.97026,10.25595,9.96,-0.54,0.0,2.0
1758075882.45883,1758075882.39181,0.0,0.0,0.0,31.11161,20.11082,10.08406,9.67,-0.64,-0.42,2.0
1758075882.45993,1758075882.40181,0.0,0.0,0.0,33.68992,18.22006,9.5684,9.67,-0.64,-0.42,2.0
1758075882.47463,1758075882.41181,0.0,0.0,0.0,35.69527,14.83961,8.76626,9.42,-0.79,-0.5,2.0
1758075882.4906,1758075882.42181,0.0,0.0,0.0,37.01308,1.83346,7.16197,9.42,-0.79,-0.5,2.0
1758075882.49134,1758075882.43181,0.0,0.0,0.0,36.95578,-7.96411,4.64096,8.74,-0.85,-0.46,2.0
1758075882.50661,1758075882.44181,0.0,0.0,0.0,35.63798,-13.5791,1.3751,8.85,-0.55,-0.14,2.0
1758075882.5083,1758075882.45181,0.0,0.0,0.0,33.51803,-7.04738,-1.3178,8.85,-0.55,-0.14,2.0
1758075882.52267,1758075882.46181,0.0,0.0,0.0,30.76784,13.40721,-0.40107,11.02,0.13,0.56,2.0
1758075882.53894,1758075882.47181,0.0,0.0,0.0,28.24682,30.48136,-0.40107,11.02,0.13,0.56,2.0
1758075882.53983,1758075882.48181,0.0,0.0,0.0,26.01229,40.50812,-1.66158,11.74,0.63,1.09,2.0
1758075882.55464,1758075882.49181,0.0,0.0,0.0,24.00693,31.62727,-6.24524,11.74,0.63,1.09,2.0
1758075882.57066,1758075882.50181,0.0,0.0,0.0,26.64254,-25.15285,-4.58366,8.3,1.08,1.26,2.0
1758075882.57138,1758075882.51181,0.0,0.0,0.0,27.73116,-48.24305,0.51566,6.86,0.79,-0.45,2.0
1758075882.58662,1758075882.52181,0.0,0.0,0.0,24.63719,-43.4875,0.11459,6.86,0.79,-0.45,2.0
1758075882.58783,1758075882.53181,0.0,0.0,0.0,22.00158,-32.71589,3.95341,11.0,0.45,0.29,2.0
1758075882.60253,1758075882.54181,0.0,0.0,0.0,16.73037,-24.63719,4.92744,11.0,0.45,0.29,2.0
1758075882.61889,1758075882.55181,0.0,0.0,0.0,13.00614,-26.18417,5.55769,11.16,0.23,2.83,2.0
1758075882.62066,1758075882.56181,0.0,0.0,0.0,8.59437,-28.87707,4.29718,11.16,0.23,2.83,2.0
1758075882.63589,1758075882.57181,0.0,0.0,0.0,-0.34377,-36.03905,3.95341,11.93,0.68,3.64,2.0
1758075882.63687,1758075882.58181,0.0,0.0,0.0,-6.13065,-50.13381,6.7609,13.52,2.47,4.6,2.0
1758075882.65183,1758075882.59181,0.0,0.0,0.0,-12.71966,-45.26366,8.93814,13.52,2.47,4.6,2.0
1758075882.66774,1758075882.60181,0.0,0.0,0.0,-18.85031,-35.52338,11.00079,17.43,4.64,1.74,2.0
1758075882.66975,1758075882.61181,0.0,0.0,0.0,-26.01229,-23.26209,10.8289,17.43,4.64,1.74,2.0
1758075882.68498,1758075882.62181,0.0,0.0,0.0,-28.93437,-17.6471,7.44845,15.46,3.54,-0.12,2.0
1758075882.70123,1758075882.63181,0.0,0.0,0.0,-29.50733,-15.06879,3.32316,15.46,3.54,-0.12,2.0
1758075882.70175,1758075882.64181,0.0,0.0,0.0,-28.59059,-12.2613,-1.60428,10.89,0.48,-0.2,2.0
1758075882.71661,1758075882.65181,0.0,0.0,0.0,-22.63183,-12.49048,-6.13065,8.21,0.48,0.72,2.0
1758075882.71784,1758075882.66181,0.0,0.0,0.0,-16.50119,-11.86023,-7.10468,8.21,-1.64,0.72,2.0
1758075882.73302,1758075882.67181,0.0,0.0,0.0,-9.05273,-11.11538,-7.16197,7.21,-2.72,1.62,2.0
1758075882.74895,1758075882.68181,0.0,0.0,0.0,-1.08862,-12.60507,-5.27121,7.21,-2.72,1.62,2.0
1758075882.74996,1758075882.69181,0.0,0.0,0.0,9.96947,-14.49583,-1.48969,6.76,-2.53,2.75,2.0
1758075882.76583,1758075882.70181,0.0,0.0,0.0,16.67307,-15.35527,1.20321,6.76,-2.53,2.75,2.0
1758075882.76684,1758075882.71181,0.0,0.0,0.0,22.40265,-15.98552,4.23989,7.3,-1.15,3.06,2.0
1758075882.78193,1758075882.72181,0.0,0.0,0.0,27.33009,-14.9542,6.8182,7.3,-1.15,3.06,2.0
1758075882.79793,1758075882.73181,0.0,0.0,0.0,31.79916,-9.5684,9.62569,8.53,0.55,2.89,2.0
1758075882.79895,1758075882.74181,0.0,0.0,0.0,32.77319,-4.0107,10.71431,10.03,1.84,2.22,2.0
1758075882.81397,1758075882.75181,0.0,0.0,0.0,32.37212,3.38045,11.51645,10.03,1.84,2.22,2.0
1758075882.81497,1758075882.76181,0.0,0.0,0.0,30.65324,11.86023,11.17268,10.95,2.43,1.4,2.0
1758075882.83034,1758075882.77181,0.0,0.0,0.0,26.64254,25.61122,9.28192,10.95,2.43,1.4,2.0
1758075882.84585,1758075882.78181,0.0,0.0,0.0,23.26209,34.77854,6.99009,11.12,2.48,1.01,2.0
1758075882.84713,1758075882.79181,0.0,0.0,0.0,20.34,41.88322,4.46907,11.12,2.48,1.01,2.0
1758075882.86193,1758075882.80181,0.0,0.0,0.0,16.84496,48.24305,0.57296,10.97,2.39,1.1,2.0
1758075882.87788,1758075882.81181,0.0,0.0,0.0,15.41257,50.82136,-0.97403,10.74,2.08,1.21,2.0
1758075882.87901,1758075882.82181,0.0,0.0,0.0,14.38124,52.884,-1.94806,10.74,2.08,1.21,2.0
1758075882.89393,1758075882.83181,0.0,0.0,0.0,13.80828,54.60288,-1.77617,10.36,1.71,1.25,2.0
1758075882.8958,1758075882.84181,0.0,0.0,0.0,13.46451,54.02992,-0.51566,10.36,1.71,1.25,2.0
1758075882.91209,1758075882.85181,0.0,0.0,0.0,13.40721,51.79538,0.85944,9.48,1.48,1.29,2.0
1758075882.92789,1758075882.86181,0.0,0.0,0.0,13.17803,46.98254,2.00535,9.48,1.48,1.29,2.0
1758075882.92935,1758075882.87181,0.0,0.0,0.0,12.204,41.59674,2.6929,8.68,1.4,1.53,2.0
1758075882.94415,1758075882.88181,0.0,0.0,0.0,9.91217,33.40344,2.23454,8.32,1.43,1.49,2.0
1758075882.94509,1758075882.89181,0.0,0.0,0.0,7.96411,28.87707,1.03132,8.32,1.43,1.49,2.0
1758075882.96145,1758075882.90181,0.0,0.0,0.0,5.78687,26.18417,-0.57296,8.5,1.59,1.55,2.0
1758075882.97717,1758075882.91181,0.0,0.0,0.0,3.38045,24.75178,-2.40642,8.5,1.59,1.55,2.0
1758075882.97856,1758075882.92181,0.0,0.0,0.0,-0.22918,22.63183,-4.69825,8.73,1.82,1.42,2.0
1758075882.99296,1758075882.93181,0.0,0.0,0.0,-2.40642,21.94428,-5.78687,8.73,1.82,1.42,2.0
1758075883.00923,1758075882.94181,0.0,0.0,0.0,-4.52637,22.57454,-6.53172,8.9,2.02,1.37,2.0
1758075883.01058,1758075882.95181,0.0,0.0,0.0,-6.13065,21.7724,-6.24524,8.9,2.02,1.37,2.0
1758075883.02526,1758075882.96181,0.0,0.0,0.0,-7.67763,21.6578,-4.52637,9.0,2.02,1.2,2.0
1758075883.02613,1758075882.97181,0.0,0.0,0.0,-8.0787,23.0902,-3.09397,9.26,1.71,1.06,2.0
1758075883.0416,1758075882.98181,0.0,0.0,0.0,-8.42248,24.57989,-1.20321,9.26,1.71,1.06,2.0
1758075883.07305,1758075882.99181,0.0,0.0,0.0,-10.08406,18.73572,2.86479,9.09,1.07,0.53,2.0
1758075883.08928,1758075883.00181,0.0,0.0,0.0,-11.51645,13.17803,3.32316,9.09,1.07,0.53,2.0
1758075883.09063,1758075883.01181,0.0,0.0,0.0,-14.38124,2.97938,3.49504,8.67,1.15,0.48,2.0
1758075883.10503,1758075883.02181,0.0,0.0,0.0,-17.36062,-5.90147,2.6929,8.17,1.58,0.37,2.0
1758075883.10621,1758075883.03181,0.0,0.0,0.0,-20.68378,-16.272,1.3751,8.17,1.58,0.37,2.0
1758075883.12103,1758075883.04181,0.0,0.0,0.0,-23.89234,-27.10091,-0.22918,7.47,2.18,0.29,2.0
1758075883.13723,1758075883.05181,0.0,0.0,0.0,-26.35606,-49.67545,-4.0107,7.47,2.18,0.29,2.0
1758075883.13822,1758075883.06181,0.0,0.0,0.0,-26.47065,-71.56243,-6.8182,6.88,2.52,0.46,2.0
1758075883.15337,1758075883.07181,0.0,0.0,0.0,-26.69983,-90.75652,-8.99544,6.88,2.52,0.46,2.0
1758075883.16927,1758075883.08181,0.0,0.0,0.0,-29.39274,-98.43416,-8.136,6.83,2.17,0.24,2.0
1758075883.17058,1758075883.09181,0.0,0.0,0.0,-33.34615,-64.74423,-9.39651,11.24,2.09,0.51,2.0
1758075883.18536,1758075883.10181,0.0,0.0,0.0,-36.38282,-29.73651,-6.13065,11.24,2.09,0.51,2.0
1758075883.18652,1758075883.11181,0.0,0.0,0.0,-37.52874,-16.04282,-0.68755,12.43,1.99,1.65,2.0
1758075883.2013,1758075883.12181,0.0,0.0,0.0,-43.25832,-39.82057,-1.08862,12.43,1.99,1.65,2.0
1758075883.2172,1758075883.13181,0.0,0.0,0.0,-45.77933,-56.55093,1.77617,8.28,2.1,2.02,2.0
1758075883.21831,1758075883.14181,0.0,0.0,0.0,-46.46688,-56.20716,0.68755,8.28,2.1,2.02,2.0
1758075883.23312,1758075883.15181,0.0,0.0,0.0,-45.77933,-64.17127,-1.08862,11.67,2.16,2.52,2.0
1758075883.24926,1758075883.16181,0.0,0.0,0.0,-44.00316,-75.85962,-5.09932,11.67,2.16,2.52,2.0
1758075883.25022,1758075883.17181,0.0,0.0,0.0,-39.64868,-79.01089,-14.72501,13.14,0.96,4.6,2.0
1758075883.26509,1758075883.18181,0.0,0.0,0.0,-34.89313,-62.91077,-20.34,17.19,-0.74,2.87,2.0
1758075883.26634,1758075883.19181,0.0,0.0,0.0,-29.8511,-51.27972,-22.05888,17.19,-0.74,2.87,2.0
1758075883.28143,1758075883.20181,0.0,0.0,0.0,-23.66316,-55.6915,-15.46986,13.41,-0.98,2.2,2.0
1758075883.29743,1758075883.21181,0.0,0.0,0.0,-20.51189,-60.90542,-10.08406,13.41,-0.98,2.2,2.0
1758075883.29835,1758075883.22181,0.0,0.0,0.0,-20.62648,-58.55629,-5.78687,9.17,-0.11,1.8,2.0
1758075883.31313,1758075883.23181,0.0,0.0,0.0,-22.97561,-54.3737,-1.03132,9.17,-0.11,1.8,2.0
1758075883.32916,1758075883.24181,0.0,0.0,0.0,-29.33544,-50.47758,3.03668,8.59,0.65,1.35,2.0
1758075883.33036,1758075883.25181,0.0,0.0,0.0,-34.32018,-48.9879,2.6929,8.39,1.02,1.62,2.0
1758075883.34521,1758075883.26181,0.0,0.0,0.0,-39.07573,-44.28964,0.45837,8.39,1.02,1.62,2.0
1758075883.34665,1758075883.27181,0.0,0.0,0.0,-42.68536,-38.38818,-3.03668,9.78,0.79,1.31,2.0
1758075883.36115,1758075883.28181,0.0,0.0,0.0,-45.26366,-26.47065,-9.4538,9.78,0.79,1.31,2.0
1758075883.37732,1758075883.29181,0.0,0.0,0.0,-44.86259,-17.13144,-13.80828,10.95,-0.02,0.72,2.0
1758075883.37841,1758075883.30181,0.0,0.0,0.0,-42.85724,-6.53172,-17.18874,10.95,-0.02,0.72,2.0
1758075883.39325,1758075883.31181,0.0,0.0,0.0,-39.24761,4.87014,-18.79302,11.48,-1.1,0.42,2.0
1758075883.40928,1758075883.32181,0.0,0.0,0.0,-31.39809,19.48057,-18.9649,11.29,-1.67,0.44,2.0
1758075883.41041,1758075883.33181,0.0,0.0,0.0,-25.26744,28.30412,-17.6471,11.29,-1.67,0.44,2.0
1758075883.42526,1758075883.34181,0.0,0.0,0.0,-19.53786,36.49741,-15.24068,10.98,-1.59,0.52,2.0
1758075883.42644,1758075883.35181,0.0,0.0,0.0,-14.9542,44.17505,-12.2613,10.98,-1.59,0.52,2.0
1758075883.44155,1758075883.36181,0.0,0.0,0.0,-10.31324,53.68615,-7.67763,10.83,-1.16,0.44,2.0
1758075883.45759,1758075883.37181,0.0,0.0,0.0,-8.76626,58.15522,-5.61499,10.83,-1.16,0.44,2.0
1758075883.45888,1758075883.38181,0.0,0.0,0.0,-7.73493,59.64491,-4.58366,10.48,-0.6,0.46,2.0
1758075883.47358,1758075883.39181,0.0,0.0,0.0,-7.21927,60.27517,-4.64096,10.48,-0.6,0.46,2.0
1758075883.48949,1758075883.40181,0.0,0.0,0.0,-6.07335,58.84277,-5.15662,9.87,-0.28,0.52,2.0
1758075883.49081,1758075883.41181,0.0,0.0,0.0,-5.09932,56.952,-5.90147,9.34,-0.22,0.5,2.0
1758075883.50544,1758075883.42181,0.0,0.0,0.0,-3.72423,54.431,-6.35983,9.34,-0.22,0.5,2.0
1758075883.50648,1758075883.43181,0.0,0.0,0.0,-1.3178,48.9306,-6.07335,9.01,-0.28,0.71,2.0
1758075883.52124,1758075883.44181,0.0,0.0,0.0,0.51566,44.28964,-5.72958,9.01,-0.28,0.71,2.0
1758075883.53738,1758075883.45181,0.0,0.0,0.0,2.63561,40.7946,-5.50039,8.7,-0.37,0.57,2.0
1758075883.53852,1758075883.46181,0.0,0.0,0.0,4.64096,37.29956,-5.09932,8.7,-0.37,0.57,2.0
1758075883.55332,1758075883.47181,0.0,0.0,0.0,7.16197,30.36677,-5.27121,8.7,-0.39,0.61,2.0
1758075883.55527,1758075883.48181,0.0,0.0,0.0,8.70896,27.2155,-5.4431,8.88,-0.37,0.62,2.0
1758075883.57159,1758075883.49181,0.0,0.0,0.0,10.19865,24.4653,-5.61499,8.88,-0.37,0.62,2.0
1758075883.58755,1758075883.50181,0.0,0.0,0.0,11.57375,22.34536,-5.55769,9.36,-0.33,0.5,2.0
1758075883.58853,1758075883.51181,0.0,0.0,0.0,13.5218,19.59516,-5.27121,9.36,-0.33,0.5,2.0
1758075883.60361,1758075883.52181,0.0,0.0,0.0,14.72501,20.85567,-5.50039,9.67,-0.28,0.28,2.0
1758075883.61936,1758075883.53181,0.0,0.0,0.0,15.58445,23.49127,-5.72958,9.67,-0.28,0.28,2.0
1758075883.62057,1758075883.54181,0.0,0.0,0.0,16.10011,25.15285,-5.90147,10.16,-0.07,0.22,2.0
1758075883.63552,1758075883.55181,0.0,0.0,0.0,17.53251,24.5226,-6.35983,9.92,0.11,0.28,2.0
1758075883.63657,1758075883.56181,0.0,0.0,0.0,19.70975,22.97561,-5.90147,9.92,0.11,0.28,2.0
1758075883.65164,1758075883.57181,0.0,0.0,0.0,22.51724,21.42862,-4.35448,9.61,-0.03,0.18,2.0
1758075883.66768,1758075883.58181,0.0,0.0,0.0,25.55392,18.79302,-1.77617,9.61,-0.03,0.18,2.0
1758075883.66888,1758075883.59181,0.0,0.0,0.0,30.76784,13.86558,3.32316,9.23,-0.51,0.13,2.0
1758075883.6834,1758075883.60181,0.0,0.0,0.0,34.37747,11.28727,6.8182,9.23,-0.51,0.13,2.0
1758075883.69976,1758075883.61181,0.0,0.0,0.0,37.24226,8.70896,9.96947,9.32,-0.95,0.21,2.0
1758075883.70061,1758075883.62181,0.0,0.0,0.0,39.76327,2.11994,12.89155,9.32,-0.95,0.21,2.0
1758075883.71542,1758075883.63181,0.0,0.0,0.0,40.10705,-10.25595,12.89155,9.0,-1.07,0.11,2.0
1758075883.71665,1758075883.64181,0.0,0.0,0.0,39.82057,-14.78231,11.74564,9.16,-0.83,0.0,2.0
1758075883.73175,1758075883.65181,0.0,0.0,0.0,38.78925,-10.59972,8.47978,9.16,-0.83,0.0,2.0
1758075883.74776,1758075883.66181,0.0,0.0,0.0,38.78925,6.7609,8.36518,10.5,-0.45,-0.13,2.0
1758075883.74894,1758075883.67181,0.0,0.0,0.0,37.64333,22.68913,8.70896,10.5,-0.45,-0.13,2.0
1758075883.76347,1758075883.68181,0.0,0.0,0.0,35.92446,34.60666,7.04738,11.24,0.03,0.75,2.0
1758075883.77975,1758075883.69181,0.0,0.0,0.0,33.9764,35.58068,4.1253,11.24,0.03,0.75,2.0
1758075883.78092,1758075883.70181,0.0,0.0,0.0,33.63263,-5.90147,4.92744,9.59,0.47,1.66,2.0
1758075883.79561,1758075883.71181,0.0,0.0,0.0,34.37747,-29.27814,6.41713,7.1,0.55,1.1,2.0
1758075883.79666,1758075883.72181,0.0,0.0,0.0,32.25753,-44.23235,9.4538,7.1,0.55,1.1,2.0
1758075883.81165,1758075883.73181,0.0,0.0,0.0,28.24682,-49.38896,9.5684,10.02,0.91,3.09,2.0
1758075883.82773,1758075883.74181,0.0,0.0,0.0,23.89234,-70.18733,14.78231,10.02,0.91,3.09,2.0
1758075883.82867,1758075883.75181,0.0,0.0,0.0,21.31403,-75.17207,19.59516,11.64,2.26,5.76,2.0
1758075883.84375,1758075883.76181,0.0,0.0,0.0,17.6471,-69.90086,24.23611,11.64,2.26,5.76,2.0
1758075883.85973,1758075883.77181,0.0,0.0,0.0,12.60507,-55.6342,25.21014,16.21,3.95,3.34,2.0
1758075883.86094,1758075883.78181,0.0,0.0,0.0,5.95876,-41.94051,20.85567,14.21,2.9,0.66,2.0
1758075883.87545,1758075883.79181,0.0,0.0,0.0,2.63561,-41.08107,15.29797,14.21,2.9,0.66,2.0
1758075883.87677,1758075883.80181,0.0,0.0,0.0,-0.80214,-36.89849,7.16197,9.86,0.52,0.64,2.0
1758075883.89175,1758075883.81181,0.0,0.0,0.0,-2.7502,-33.17426,-3.95341,9.86,0.52,0.64,2.0
1758075883.90779,1758075883.82181,0.0,0.0,0.0,-2.6929,-30.19488,-9.33921,8.5,-0.46,1.35,2.0
1758075883.9088,1758075883.83181,0.0,0.0,0.0,0.17189,-29.62192,-11.91752,8.5,-0.46,1.35,2.0
1758075883.92347,1758075883.84181,0.0,0.0,0.0,5.21392,-26.41335,-11.63104,8.12,-0.4,1.87,2.0
1758075883.93975,1758075883.85181,0.0,0.0,0.0,15.58445,-18.33465,-6.70361,8.12,-0.4,1.87,2.0
1758075883.9408,1758075883.86181,0.0,0.0,0.0,22.97561,-13.5791,-1.71887,9.11,0.21,1.92,2.0
1758075883.95551,1758075883.87181,0.0,0.0,0.0,30.30947,-8.136,3.72423,9.73,1.03,1.6,2.0
1758075883.95678,1758075883.88181,0.0,0.0,0.0,36.49741,-0.45837,8.59437,9.73,1.03,1.6,2.0
1758075883.97185,1758075883.89181,0.0,0.0,0.0,41.88322,14.20935,14.43854,10.85,1.65,1.13,2.0
1758075883.98783,1758075883.90181,0.0,0.0,0.0,42.91454,24.57989,16.3293,10.85,1.65,1.13,2.0
1758075883.98908,1758075883.91181,0.0,0.0,0.0,42.39888,35.3515,17.47521,11.27,1.95,0.89,2.0
1758075884.00385,1758075883.92181,0.0,0.0,0.0,41.08107,44.86259,16.50119,11.27,1.95,0.89,2.0
1758075884.01989,1758075883.93181,0.0,0.0,0.0,38.44547,50.2484,14.78231,10.76,2.09,0.68,2.0
1758075884.0208,1758075883.94181,0.0,0.0,0.0,36.89849,51.6235,13.17803,9.82,2.2,0.64,2.0
1758075884.03569,1758075883.95181,0.0,0.0,0.0,35.52338,53.28508,11.74564,9.82,2.2,0.64,2.0
1758075884.03685,1758075883.96181,0.0,0.0,0.0,34.26288,54.02992,9.96947,10.23,2.27,0.81,2.0
1758075884.0515,1758075883.97181,0.0,0.0,0.0,31.85646,54.08722,8.30789,10.23,2.27,0.81,2.0
1758075884.06762,1758075883.98181,0.0,0.0,0.0,29.39274,51.85268,7.21927,10.31,2.33,1.05,2.0
1758075884.06889,1758075883.99181,0.0,0.0,0.0,26.75713,48.41494,6.41713,10.31,2.33,1.05,2.0
1758075884.08398,1758075884.00181,0.0,0.0,0.0,23.66316,44.51882,5.21392,9.86,2.37,1.02,2.0
1758075884.09991,1758075884.01181,0.0,0.0,0.0,19.88164,37.92981,3.38045,9.43,2.35,0.96,2.0
1758075884.10114,1758075884.02181,0.0,0.0,0.0,17.87628,33.74722,1.94806,9.43,2.35,0.96,2.0
1758075884.116,1758075884.03181,0.0,0.0,0.0,16.10011,29.9084,0.85944,9.2,2.21,1.26,2.0
1758075884.11689,1758075884.04181,0.0,0.0,0.0,12.83425,28.36141,-1.3178,9.2,2.21,1.26,2.0
1758075884.13173,1758075884.05181,0.0,0.0,0.0,10.71431,26.35606,-2.11994,9.01,2.08,1.31,2.0
1758075884.14799,1758075884.06181,0.0,0.0,0.0,8.65166,25.8404,-2.6929,9.01,2.08,1.31,2.0
1758075884.14891,1758075884.07181,0.0,0.0,0.0,7.16197,25.09555,-3.09397,8.86,1.94,1.47,2.0
1758075884.16367,1758075884.08181,0.0,0.0,0.0,5.90147,23.0329,-2.40642,8.86,1.94,1.47,2.0
1758075884.18003,1758075884.09181,0.0,0.0,0.0,5.61499,22.34536,-1.3178,8.81,1.76,1.45,2.0
1758075884.18089,1758075884.10181,0.0,0.0,0.0,5.27121,22.91831,0.0,9.27,1.67,1.46,2.0
1758075884.19577,1758075884.11181,0.0,0.0,0.0,4.64096,21.14215,0.74485,9.27,1.67,1.46,2.0
1758075884.19721,1758075884.12181,0.0,0.0,0.0,2.92208,16.55848,1.60428,9.26,1.73,1.29,2.0
1758075884.21174,1758075884.13181,0.0,0.0,0.0,1.3751,15.0115,1.94806,9.26,1.73,1.29,2.0
1758075884.22801,1758075884.14181,0.0,0.0,0.0,-0.0573,13.80828,2.34913,9.46,1.77,0.99,2.0
1758075884.22929,1758075884.15181,0.0,0.0,0.0,-2.00535,11.86023,2.11994,9.46,1.77,0.99,2.0
1758075884.24399,1758075884.16181,0.0,0.0,0.0,-5.32851,7.50575,2.29183,9.26,1.69,0.75,2.0
1758075884.26003,1758075884.17181,0.0,0.0,0.0,-8.02141,4.52637,2.40642,8.95,1.65,0.48,2.0
1758075884.26124,1758075884.18181,0.0,0.0,0.0,-10.8862,1.71887,2.06265,8.95,1.65,0.48,2.0
1758075884.27577,1758075884.19181,0.0,0.0,0.0,-13.75099,-3.38045,2.34913,8.56,1.72,0.2,2.0
1758075884.27699,1758075884.20181,0.0,0.0,0.0,-17.13144,-14.83961,3.95341,8.56,1.72,0.2,2.0
1758075884.29205,1758075884.21181,0.0,0.0,0.0,-18.56383,-26.69983,4.81285,7.82,1.81,0.07,2.0
1758075884.30808,1758075884.22181,0.0,0.0,0.0,-19.36597,-38.21629,5.55769,7.82,1.81,0.07,2.0
1758075884.309,1758075884.23181,0.0,0.0,0.0,-19.48057,-45.20637,6.13065,7.53,1.62,-0.11,2.0
1758075884.32385,1758075884.24181,0.0,0.0,0.0,-20.22541,-30.99702,5.72958,9.92,1.33,0.0,2.0
1758075884.34014,1758075884.25181,0.0,0.0,0.0,-20.62648,-1.60428,5.95876,9.92,1.33,0.0,2.0
1758075884.34105,1758075884.26181,0.0,0.0,0.0,-17.6471,-2.29183,8.59437,11.23,1.24,0.7,2.0
1758075884.35617,1758075884.27181,0.0,0.0,0.0,-22.57454,-19.25138,4.29718,11.23,1.24,0.7,2.0
1758075884.35703,1758075884.28181,0.0,0.0,0.0,-22.74642,-25.43933,3.20856,8.93,1.13,0.5,2.0
1758075884.37216,1758075884.29181,0.0,0.0,0.0,-22.91831,-28.87707,0.51566,8.93,1.13,0.5,2.0
1758075884.38787,1758075884.30181,0.0,0.0,0.0,-22.34536,-25.72581,-0.11459,9.56,1.01,-0.49,2.0
1758075884.38906,1758075884.31181,0.0,0.0,0.0,-22.91831,-12.71966,0.0,9.56,1.01,0.5,2.0
1758075884.404,1758075884.32181,0.0,0.0,0.0,-22.28806,-6.70361,2.00535,10.46,0.94,0.5,2.0
1758075884.42028,1758075884.33181,0.0,0.0,0.0,-20.51189,-5.78687,4.98473,9.56,1.12,0.89,2.0
1758075884.42104,1758075884.34181,0.0,0.0,0.0,-17.99088,-6.99009,7.73493,9.56,1.12,0.89,2.0
1758075884.43615,1758075884.35181,0.0,0.0,0.0,-14.38124,-10.54242,10.8289,9.38,1.26,2.04,2.0
1758075884.43709,1758075884.36181,0.0,0.0,0.0,-12.08941,-14.49583,12.08941,9.38,1.26,2.04,2.0
1758075884.4522,1758075884.37181,0.0,0.0,0.0,-9.33921,-23.31938,11.00079,10.01,1.35,3.32,2.0
1758075884.46817,1758075884.38181,0.0,0.0,0.0,-5.50039,-39.13302,7.10468,10.01,1.35,3.32,2.0
1758075884.46906,1758075884.39181,0.0,0.0,0.0,-0.34377,-58.90006,-5.4431,11.13,0.68,4.66,2.0
1758075884.48419,1758075884.40181,0.0,0.0,0.0,3.26586,-56.60823,-12.77696,14.51,-0.51,3.3,2.0
1758075884.49995,1758075884.41181,0.0,0.0,0.0,7.21927,-51.16513,-16.50119,14.51,-0.51,3.3,2.0
1758075884.50112,1758075884.42181,0.0,0.0,0.0,9.33921,-50.1911,-16.272,13.82,-0.57,1.9,2.0
1758075884.51593,1758075884.43181,0.0,0.0,0.0,9.11003,-54.77477,-8.30789,13.82,-0.57,1.9,2.0
1758075884.51708,1758075884.44181,0.0,0.0,0.0,7.62034,-60.27517,-0.40107,10.02,0.71,1.42,2.0
1758075884.53192,1758075884.45181,0.0,0.0,0.0,4.64096,-65.48907,7.79223,10.02,0.71,1.42,2.0
1758075884.54821,1758075884.46181,0.0,0.0,0.0,-2.11994,-67.37984,18.27736,8.07,1.96,1.28,2.0
1758075884.54911,1758075884.47181,0.0,0.0,0.0,-7.84952,-65.83286,22.51724,8.25,2.84,1.64,2.0
1758075884.56422,1758075884.48181,0.0,0.0,0.0,-14.03747,-64.17127,23.20479,8.25,2.84,1.64,2.0
1758075884.58003,1758075884.49181,0.0,0.0,0.0,-19.99623,-62.33781,20.45459,8.95,3.13,2.1,2.0
1758075884.58112,1758075884.50181,0.0,0.0,0.0,-30.48136,-56.37905,12.14671,8.95,3.13,2.1,2.0
1758075884.59631,1758075884.51181,0.0,0.0,0.0,-37.98711,-51.79538,5.50039,9.87,2.68,1.52,2.0
1758075884.59716,1758075884.52181,0.0,0.0,0.0,-45.77933,-44.63341,-1.43239,9.87,2.68,1.52,2.0
1758075884.61197,1758075884.53181,0.0,0.0,0.0,-52.48294,-34.60666,-8.02141,10.71,1.67,0.6,2.0
1758075884.62826,1758075884.54181,0.0,0.0,0.0,-59.01466,-18.27736,-15.92823,11.49,1.67,0.03,2.0
1758075884.62922,1758075884.55181,0.0,0.0,0.0,-59.07195,-6.18794,-17.99088,11.49,0.47,0.03,2.0
1758075884.64428,1758075884.56181,0.0,0.0,0.0,-56.83742,7.96411,-19.70975,11.97,-0.77,-0.04,2.0
1758075884.6603,1758075884.57181,0.0,0.0,0.0,-52.65482,19.13679,-19.59516,11.97,-0.77,-0.04,2.0
1758075884.66123,1758075884.58181,0.0,0.0,0.0,-42.97184,33.40344,-16.10011,11.52,-1.63,0.07,2.0
1758075884.67601,1758075884.59181,0.0,0.0,0.0,-36.49741,42.51347,-12.71966,11.52,-1.63,0.07,2.0
1758075884.67729,1758075884.60181,0.0,0.0,0.0,-30.88243,49.04519,-8.88085,11.25,-1.74,-0.06,2.0
1758075884.69232,1758075884.61181,0.0,0.0,0.0,-26.24147,52.9986,-5.95876,11.25,-1.74,-0.06,2.0
1758075884.70834,1758075884.62181,0.0,0.0,0.0,-20.97026,56.03527,-2.6929,10.76,-1.31,-0.09,2.0
1758075884.70924,1758075884.63181,0.0,0.0,0.0,-18.79302,57.75415,-1.71887,10.49,-0.82,0.09,2.0
1758075884.72436,1758075884.64181,0.0,0.0,0.0,-17.13144,57.18119,-1.14592,10.49,-0.82,0.09,2.0
1758075884.74038,1758075884.65181,0.0,0.0,0.0,-15.12609,55.92068,-1.66158,9.77,-0.7,0.2,2.0
1758075884.74127,1758075884.66181,0.0,0.0,0.0,-11.80293,52.42564,-2.46372,9.77,-0.7,0.2,2.0
1758075884.7561,1758075884.67181,0.0,0.0,0.0,-9.85487,48.64412,-3.32316,9.3,-0.75,0.64,2.0
1758075884.7573,1758075884.68181,0.0,0.0,0.0,-7.73493,44.00316,-4.18259,9.3,-0.75,0.64,2.0
1758075884.77243,1758075884.69181,0.0,0.0,0.0,-5.27121,34.77854,-4.98473,8.78,-0.67,0.63,2.0
1758075884.78811,1758075884.70181,0.0,0.0,0.0,-3.26586,30.99702,-4.29718,8.81,-0.61,0.81,2.0
1758075884.78931,1758075884.71181,0.0,0.0,0.0,-0.74485,26.69983,-1.77617,8.81,-0.61,0.81,2.0
1758075884.80425,1758075884.72181,0.0,0.0,0.0,1.83346,21.7724,2.46372,8.91,-0.69,0.73,2.0
1758075884.82048,1758075884.73181,0.0,0.0,0.0,5.95876,18.9649,10.8862,8.91,-0.69,0.73,2.0
1758075884.82135,1758075884.74181,0.0,0.0,0.0,8.99544,23.0902,16.61578,9.35,-0.93,0.54,2.0
1758075884.83642,1758075884.75181,0.0,0.0,0.0,12.204,30.53865,21.42862,9.35,-0.93,0.54,2.0
1758075884.83735,1758075884.76181,0.0,0.0,0.0,15.35527,37.01308,25.09555,9.9,-1.17,0.23,2.0
1758075884.85238,1758075884.77181,0.0,0.0,0.0,19.99623,43.77398,27.73116,9.8,-1.18,0.41,2.0
1758075884.86839,1758075884.78181,0.0,0.0,0.0,23.26209,45.43555,27.50197,9.8,-1.18,0.41,2.0
1758075884.86935,1758075884.79181,0.0,0.0,0.0,26.81443,45.14908,26.35606,9.69,-1.14,0.39,2.0
1758075884.88418,1758075884.80181,0.0,0.0,0.0,30.53865,43.54479,23.72045,9.69,-1.14,0.39,2.0
1758075884.90021,1758075884.81181,0.0,0.0,0.0,35.52338,34.77854,17.81899,9.51,-1.16,0.35,2.0
1758075884.90171,1758075884.82181,0.0,0.0,0.0,38.78925,27.1582,12.2613,9.51,-1.16,0.35,2.0
1758075884.91646,1758075884.83181,0.0,0.0,0.0,41.99781,19.59516,5.61499,9.1,-1.09,0.45,2.0
1758075884.91742,1758075884.84181,0.0,0.0,0.0,45.37826,21.94428,-0.97403,9.1,-1.09,0.45,2.0
1758075884.93251,1758075884.85181,0.0,0.0,0.0,51.73809,43.60209,-3.20856,10.1,-1.0,0.43,2.0
1758075884.94819,1758075884.86181,0.0,0.0,0.0,54.3737,59.12925,-5.27121,11.01,-1.05,0.82,2.0
1758075884.94939,1758075884.87181,0.0,0.0,0.0,56.20716,70.24463,-7.62034,11.01,-1.05,0.82,2.0
1758075884.96429,1758075884.88181,0.0,0.0,0.0,59.70221,58.55629,-10.48513,8.82,-0.87,1.8,2.0
1758075884.98021,1758075884.89181,0.0,0.0,0.0,65.2599,-5.50039,-2.57831,8.82,-0.87,1.8,2.0
1758075884.98141,1758075884.90181,0.0,0.0,0.0,68.64035,-28.01764,3.89611,5.55,-1.11,0.65,2.0
1758075884.99643,1758075884.91181,0.0,0.0,0.0,69.67168,-26.06958,9.96947,5.55,-1.11,0.65,2.0
1758075884.99744,1758075884.92181,0.0,0.0,0.0,68.29657,-18.90761,14.09476,9.93,-1.24,0.33,2.0
1758075885.01224,1758075884.93181,0.0,0.0,0.0,66.40582,-20.22541,17.18874,9.73,-0.27,1.28,2.0
1758075885.02851,1758075884.94181,0.0,0.0,0.0,62.56699,-20.62648,18.9649,9.73,-0.27,1.28,2.0
1758075885.02954,1758075884.95181,0.0,0.0,0.0,57.75415,-15.87093,18.9649,10.91,0.82,1.58,2.0
1758075885.04451,1758075884.96181,0.0,0.0,0.0,49.79003,-9.85487,16.50119,10.91,0.82,1.58,2.0
1758075885.04629,1758075884.97181,0.0,0.0,0.0,44.9199,-11.80293,13.46451,10.44,1.48,0.77,2.0
1758075885.06255,1758075884.98181,0.0,0.0,0.0,40.68,-15.87093,10.08406,10.44,1.48,0.77,2.0
1758075885.07826,1758075884.99181,0.0,0.0,0.0,36.49741,-17.36062,6.53172,9.06,1.58,0.93,2.0
1758075885.07945,1758075885.00181,0.0,0.0,0.0,29.96569,-17.76169,0.51566,9.25,1.22,1.06,2.0
1758075885.09423,1758075885.01181,0.0,0.0,0.0,25.72581,-23.0902,-3.32316,9.25,1.22,1.06,2.0
1758075885.11052,1758075885.02181,0.0,0.0,0.0,21.42862,-25.89769,-5.09932,9.4,0.84,2.48,2.0
1758075885.11152,1758075885.03181,0.0,0.0,0.0,15.92823,-22.74642,-8.136,9.4,0.84,2.48,2.0
1758075885.12666,1758075885.04181,0.0,0.0,0.0,6.53172,-18.73572,-11.51645,11.39,1.16,3.37,2.0
1758075885.12775,1758075885.05181,0.0,0.0,0.0,-0.85944,-22.28806,-11.63104,11.39,1.16,3.37,2.0
1758075885.14255,1758075885.06181,0.0,0.0,0.0,-8.0787,-32.08564,-8.88085,12.34,2.48,3.67,2.0
1758075885.15838,1758075885.07181,0.0,0.0,0.0,-13.80828,-37.35685,-2.86479,12.34,2.48,3.67,2.0
1758075885.15958,1758075885.08181,0.0,0.0,0.0,-22.05888,-26.81443,3.20856,13.79,3.49,3.31,2.0
1758075885.17437,1758075885.09181,0.0,0.0,0.0,-26.35606,-17.24603,4.58366,14.26,2.82,1.41,2.0
1758075885.19063,1758075885.10181,0.0,0.0,0.0,-29.62192,-10.08406,4.29718,14.26,2.82,1.41,2.0
1758075885.19186,1758075885.11181,0.0,0.0,0.0,-32.6013,-4.23989,0.80214,11.37,0.65,0.9,2.0
1758075885.20664,1758075885.12181,0.0,0.0,0.0,-34.43476,-0.80214,-2.92208,11.37,0.65,0.9,2.0
1758075885.20787,1758075885.13181,0.0,0.0,0.0,-35.3515,-0.11459,-7.10468,9.53,-1.03,0.49,2.0
1758075885.22272,1758075885.14181,0.0,0.0,0.0,-35.2369,-0.17189,-10.54242,9.53,-1.03,0.49,2.0
1758075885.23841,1758075885.15181,0.0,0.0,0.0,-32.48671,-1.66158,-13.69369,8.7,-1.65,0.75,2.0
1758075885.23965,1758075885.16181,0.0,0.0,0.0,-29.10626,-3.89611,-14.03747,8.51,-1.41,1.41,2.0
1758075885.25471,1758075885.17181,0.0,0.0,0.0,-24.92367,-6.70361,-12.83425,8.51,-1.41,1.41,2.0
1758075885.27033,1758075885.18181,0.0,0.0,0.0,-19.88164,-9.62569,-10.71431,8.42,-0.66,2.01,2.0
1758075885.27155,1758075885.19181,0.0,0.0,0.0,-12.14671,-12.71966,-6.07335,8.42,-0.66,2.01,2.0
1758075885.28643,1758075885.20181,0.0,0.0,0.0,-6.99009,-13.5218,-1.83346,8.55,0.21,2.43,2.0
1758075885.28764,1758075885.21181,0.0,0.0,0.0,-2.29183,-13.80828,2.29183,8.55,0.21,2.43,2.0
1758075885.30244,1758075885.22181,0.0,0.0,0.0,1.71887,-13.46451,6.24524,8.86,0.88,2.73,2.0
1758075885.31844,1758075885.23181,0.0,0.0,0.0,6.47442,-10.08406,10.54242,9.31,1.28,2.42,2.0
1758075885.31968,1758075885.24181,0.0,0.0,0.0,8.59437,-6.07335,12.2613,9.31,1.28,2.42,2.0
1758075885.33445,1758075885.25181,0.0,0.0,0.0,10.31324,-0.80214,12.71966,10.01,1.5,1.86,2.0
1758075885.3505,1758075885.26181,0.0,0.0,0.0,11.51645,6.41713,12.2613,10.01,1.5,1.86,2.0
1758075885.35124,1758075885.27181,0.0,0.0,0.0,11.45916,20.16812,9.74028,11.04,1.52,1.37,2.0
1758075885.36655,1758075885.28181,0.0,0.0,0.0,10.25595,29.33544,7.10468,11.04,1.52,1.37,2.0
1758075885.3677,1758075885.29181,0.0,0.0,0.0,8.25059,37.81522,3.95341,11.53,1.55,1.03,2.0
1758075885.38245,1758075885.30181,0.0,0.0,0.0,5.4431,43.54479,-0.57296,11.53,1.55,1.03,2.0
1758075885.39882,1758075885.31181,0.0,0.0,0.0,4.46907,45.60744,-3.09397,11.18,1.68,1.02,2.0
1758075885.4,1758075885.32181,0.0,0.0,0.0,4.0107,46.63877,-5.09932,10.64,1.62,0.99,2.0
1758075885.41483,1758075885.33181,0.0,0.0,0.0,3.49504,47.44091,-6.70361,10.64,1.62,0.99,2.0
1758075885.43061,1758075885.34181,0.0,0.0,0.0,2.46372,42.68536,-8.25059,10.09,1.48,0.89,2.0
1758075885.43112,1758075885.35181,0.0,0.0,0.0,1.77617,37.52874,-8.70896,10.09,1.48,0.89,2.0
1758075885.44683,1758075885.36181,0.0,0.0,0.0,0.40107,34.49206,-9.33921,9.27,1.51,0.88,2.0
1758075885.44809,1758075885.37181,0.0,0.0,0.0,-1.3751,32.83048,-9.91217,9.27,1.51,0.88,2.0
1758075885.46262,1758075885.38181,0.0,0.0,0.0,-3.95341,31.51268,-11.34457,9.37,1.65,0.98,2.0
1758075885.47882,1758075885.39181,0.0,0.0,0.0,-6.07335,32.20023,-11.17268,9.19,1.76,1.08,2.0
1758075885.47983,1758075885.40181,0.0,0.0,0.0,-8.93814,30.02299,-10.71431,9.19,1.76,1.08,2.0
1758075885.49458,1758075885.41181,0.0,0.0,0.0,-10.94349,27.04361,-9.68299,8.54,1.71,1.23,2.0
1758075885.51061,1758075885.42181,0.0,0.0,0.0,-14.20935,21.25674,-8.30789,8.54,1.71,1.23,2.0
1758075885.51117,1758075885.43181,0.0,0.0,0.0,-16.04282,16.95955,-7.62034,8.16,1.69,1.21,2.0
1758075885.52699,1758075885.44181,0.0,0.0,0.0,-17.36062,11.22997,-6.8182,8.16,1.69,1.21,2.0
1758075885.52829,1758075885.45181,0.0,0.0,0.0,-17.99088,4.64096,-6.24524,8.11,1.72,1.37,2.0
1758075885.54288,1758075885.46181,0.0,0.0,0.0,-19.07949,-2.46372,-6.18794,8.51,1.66,1.43,2.0
1758075885.55863,1758075885.47181,0.0,0.0,0.0,-20.51189,-2.46372,-7.10468,8.51,1.66,1.43,2.0
1758075885.55986,1758075885.48181,0.0,0.0,0.0,-22.05888,-1.48969,-8.0787,9.23,1.52,1.18,2.0
1758075885.57489,1758075885.49181,0.0,0.0,0.0,-24.35071,-2.34913,-9.22462,9.23,1.52,1.18,2.0
1758075885.57583,1758075885.50181,0.0,0.0,0.0,-28.01764,-9.62569,-9.68299,8.88,1.35,1.02,2.0
1758075885.5912,1758075885.51181,0.0,0.0,0.0,-31.11161,-14.72501,-9.74028,8.88,1.35,1.02,2.0
1758075885.60666,1758075885.52181,0.0,0.0,0.0,-34.26288,-18.22006,-9.33921,8.74,1.16,0.5,2.0
1758075885.60815,1758075885.53181,0.0,0.0,0.0,-39.19032,-21.94428,-8.47978,8.74,1.16,0.5,2.0
1758075885.62294,1758075885.54181,0.0,0.0,0.0,-42.22699,-27.2155,-7.67763,8.93,1.28,0.35,2.0
1758075885.63898,1758075885.55181,0.0,0.0,0.0,-43.94586,-40.27893,-5.21392,8.18,1.42,0.15,2.0
1758075885.64016,1758075885.56181,0.0,0.0,0.0,-44.40423,-55.00395,-3.38045,8.18,1.42,0.15,2.0
1758075885.65495,1758075885.57181,0.0,0.0,0.0,-44.17505,-76.0315,-0.97403,7.38,1.33,-0.33,2.0
1758075885.65614,1758075885.58181,0.0,0.0,0.0,-44.11775,-70.53111,1.48969,7.38,1.33,-0.33,2.0
1758075885.67127,1758075885.59181,0.0,0.0,0.0,-45.83662,-43.83128,-0.57296,10.34,1.49,0.11,2.0
1758075885.68664,1758075885.60181,0.0,0.0,0.0,-46.98254,-13.40721,1.94806,10.34,1.49,0.11,2.0
1758075885.68791,1758075885.61181,0.0,0.0,0.0,-47.09713,-6.7609,3.55234,13.4,1.55,0.93,2.0
1758075885.70299,1758075885.62181,0.0,0.0,0.0,-47.89928,-24.00693,0.74485,8.79,1.81,1.01,2.0
1758075885.71874,1758075885.63181,0.0,0.0,0.0,-47.38361,-34.43476,-2.40642,8.79,1.81,1.01,2.0
1758075885.72026,1758075885.64181,0.0,0.0,0.0,-46.1804,-38.27358,-4.98473,9.29,1.41,0.1,2.0
1758075885.73501,1758075885.65181,0.0,0.0,0.0,-44.40423,-37.24226,-8.65166,9.29,1.41,0.1,2.0
1758075885.73617,1758075885.66181,0.0,0.0,0.0,-42.34158,-34.09099,-9.5684,9.78,0.84,0.99,2.0
1758075885.75132,1758075885.67181,0.0,0.0,0.0,-39.64868,-30.82513,-8.65166,9.78,0.84,0.99,2.0
1758075885.76708,1758075885.68181,0.0,0.0,0.0,-36.95578,-27.50197,-5.50039,10.06,0.42,1.6,2.0
1758075885.76824,1758075885.69181,0.0,0.0,0.0,-32.54401,-26.06958,1.03132,10.38,0.24,2.08,2.0
1758075885.78278,1758075885.70181,0.0,0.0,0.0,-29.50733,-27.67386,4.46907,10.38,0.24,2.08,2.0
1758075885.79869,1758075885.71181,0.0,0.0,0.0,-25.55392,-31.74186,6.35983,11.43,0.0,3.5,2.0
1758075885.7999,1758075885.72181,0.0,0.0,0.0,-18.56383,-40.68,4.98473,11.43,0.0,3.5,2.0
1758075885.81506,1758075885.73181,0.0,0.0,0.0,-13.17803,-55.06125,0.11459,12.97,-0.43,4.49,2.0
1758075885.8159,1758075885.74181,0.0,0.0,0.0,-7.96411,-58.78547,-7.73493,12.97,-0.43,4.49,2.0
1758075885.83115,1758075885.75181,0.0,0.0,0.0,-2.11994,-54.02992,-12.89155,15.44,-0.66,3.04,2.0
1758075885.84717,1758075885.76181,0.0,0.0,0.0,3.09397,-54.14451,-16.38659,15.44,-0.66,3.04,2.0
1758075885.84804,1758075885.77181,0.0,0.0,0.0,3.09397,-57.18119,-14.9542,13.25,0.32,1.8,2.0
1758075885.86312,1758075885.78181,0.0,0.0,0.0,1.48969,-65.43179,-11.57375,9.25,1.56,1.46,2.0
1758075885.87898,1758075885.79181,0.0,0.0,0.0,-1.14592,-69.84356,-7.10468,9.25,1.56,1.46,2.0
1758075885.88026,1758075885.80181,0.0,0.0,0.0,-9.91217,-69.38519,-2.29183,8.67,2.03,1.84,2.0
1758075885.89486,1758075885.81181,0.0,0.0,0.0,-17.87628,-71.56243,-0.17189,8.67,2.03,1.84,2.0
1758075885.89631,1758075885.82181,0.0,0.0,0.0,-26.52795,-75.05748,0.0,8.13,2.18,2.24,2.0
1758075885.9109,1758075885.83181,0.0,0.0,0.0,-35.06502,-76.31798,-1.48969,8.13,2.18,2.24,2.0
1758075885.92681,1758075885.84181,0.0,0.0,0.0,-47.32632,-72.99483,-5.27121,8.6,2.08,2.55,2.0
1758075885.92804,1758075885.85181,0.0,0.0,0.0,-54.3737,-67.03606,-8.65166,9.49,1.72,1.94,2.0
1758075885.9433,1758075885.86181,0.0,0.0,0.0,-59.64491,-58.15522,-12.60507,9.49,1.72,1.94,2.0
1758075885.95913,1758075885.87181,0.0,0.0,0.0,-63.31184,-48.07116,-17.30333,10.04,0.94,1.37,2.0
1758075885.96008,1758075885.88181,0.0,0.0,0.0,-65.03072,-29.8511,-23.0329,10.04,0.94,1.37,2.0
1758075885.97518,1758075885.89181,0.0,0.0,0.0,-62.85347,-16.67307,-25.26744,10.8,-0.04,0.68,2.0
1758075885.97607,1758075885.90181,0.0,0.0,0.0,-57.18119,-4.69825,-25.49662,10.8,-0.04,0.68,2.0
1758075885.99117,1758075885.91181,0.0,0.0,0.0,-50.13381,9.39651,-23.60586,11.77,-1.08,0.39,2.0
1758075886.00717,1758075885.92181,0.0,0.0,0.0,-39.99245,33.40344,-17.18874,12.91,-1.48,-0.24,2.0
1758075886.00836,1758075885.93181,0.0,0.0,0.0,-34.77854,46.63877,-11.57375,12.91,-1.48,-0.24,2.0
1758075886.0229,1758075885.94181,0.0,0.0,0.0,-31.45539,54.08722,-6.87549,11.72,-1.2,-0.4,2.0
1758075886.03881,1758075885.95181,0.0,0.0,0.0,-29.39274,61.30648,-4.18259,11.72,-1.2,-0.4,2.0
1758075886.04005,1758075885.96181,0.0,0.0,0.0,-29.27814,66.80688,-4.0107,10.89,-0.56,-0.38,2.0
1758075886.05491,1758075885.97181,0.0,0.0,0.0,-29.73651,71.44785,-4.87014,10.89,-0.56,-0.38,2.0
1758075886.0564,1758075885.98181,0.0,0.0,0.0,-29.39274,75.91692,-5.55769,10.88,0.05,-0.36,2.0
1758075886.07097,1758075885.99181,0.0,0.0,0.0,-27.78845,81.70379,-7.84952,10.88,0.05,-0.36,2.0
1758075886.08716,1758075886.00181,0.0,0.0,0.0,-24.92367,83.53725,-9.68299,10.09,-0.02,-0.71,2.0
1758075886.08815,1758075886.01181,0.0,0.0,0.0,-20.97026,82.90699,-11.45916,8.99,-0.55,-0.48,2.0
1758075886.10329,1758075886.02181,0.0,0.0,0.0,-16.38659,81.5892,-13.12073,8.99,-0.55,-0.48,2.0
1758075886.11919,1758075886.03181,0.0,0.0,0.0,-10.02676,77.06283,-13.86558,8.52,-0.91,-0.21,2.0
1758075886.12011,1758075886.04181,0.0,0.0,0.0,-5.95876,72.76565,-13.46451,8.52,-0.91,-0.21,2.0
1758075886.13527,1758075886.05181,0.0,0.0,0.0,-2.7502,67.60902,-12.89155,8.47,-1.11,-0.02,2.0
1758075886.13619,1758075886.06181,0.0,0.0,0.0,0.17189,61.24919,-12.43318,8.47,-1.11,-0.02,2.0
1758075886.15104,1758075886.07181,0.0,0.0,0.0,4.81285,51.90998,-11.11538,8.42,-1.16,0.1,2.0
1758075886.16714,1758075886.08181,0.0,0.0,0.0,8.42248,44.40423,-9.74028,8.48,-1.14,0.22,2.0
1758075886.16848,1758075886.09181,0.0,0.0,0.0,11.91752,36.32552,-8.30789,8.48,-1.14,0.22,2.0
1758075886.18329,1758075886.10181,0.0,0.0,0.0,15.64175,30.30947,-6.53172,8.77,-0.99,0.26,2.0
1758075886.19905,1758075886.11181,0.0,0.0,0.0,20.45459,28.76248,-5.27121,8.77,-0.99,0.26,2.0
1758075886.20023,1758075886.12181,0.0,0.0,0.0,23.54857,26.87172,-4.29718,9.46,-0.78,0.07,2.0
1758075886.21512,1758075886.13181,0.0,0.0,0.0,26.81443,22.28806,-3.20856,9.46,-0.78,0.07,2.0
1758075886.21627,1758075886.14181,0.0,0.0,0.0,30.30947,15.98552,0.0,9.29,-0.55,0.53,2.0
1758075886.23137,1758075886.15181,0.0,0.0,0.0,36.15364,6.47442,3.49504,9.3,-0.67,0.4,2.0
1758075886.24732,1758075886.16181,0.0,0.0,0.0,39.99245,-0.0573,7.21927,9.3,-0.67,0.4,2.0
1758075886.24829,1758075886.17181,0.0,0.0,0.0,43.60209,-6.07335,11.80293,9.3,-0.95,0.03,2.0
1758075886.26311,1758075886.18181,0.0,0.0,0.0,48.12846,-12.08941,18.50654,9.3,-0.95,0.03,2.0
1758075886.27937,1758075886.19181,0.0,0.0,0.0,50.13381,-15.69904,22.11617,9.56,-1.07,-0.26,2.0
1758075886.28074,1758075886.20181,0.0,0.0,0.0,51.39432,-22.91831,24.00693,9.56,-1.07,-0.26,2.0
1758075886.29539,1758075886.21181,0.0,0.0,0.0,51.39432,-27.67386,23.31938,9.26,-0.9,-0.3,2.0
1758075886.29677,1758075886.22181,0.0,0.0,0.0,50.93595,-26.75713,18.85031,9.81,-0.9,-0.22,2.0
1758075886.31113,1758075886.23181,0.0,0.0,0.0,50.363,-18.56383,15.24068,9.81,-0.58,-0.22,2.0
1758075886.32701,1758075886.24181,0.0,0.0,0.0,50.99325,-14.09476,11.57375,10.21,-0.44,0.36,2.0
1758075886.32825,1758075886.25181,0.0,0.0,0.0,51.79538,-10.37054,8.88085,10.21,-0.44,0.36,2.0
1758075886.34343,1758075886.26181,0.0,0.0,0.0,49.79003,3.55234,3.60963,10.68,-0.21,1.59,2.0
1758075886.35979,1758075886.27181,0.0,0.0,0.0,47.89928,12.77696,-0.17189,10.68,-0.21,1.59,2.0
1758075886.36029,1758075886.28181,0.0,0.0,0.0,44.86259,12.43318,-5.61499,11.43,0.67,2.02,2.0
1758075886.37538,1758075886.29181,0.0,0.0,0.0,42.28429,-16.55848,-8.93814,11.43,0.67,2.02,2.0
1758075886.37646,1758075886.30181,0.0,0.0,0.0,41.76862,-116.25314,-3.26586,7.47,1.89,5.03,2.0
1758075886.39144,1758075886.31181,0.0,0.0,0.0,43.83128,-155.27158,19.07949,9.56,4.16,5.88,2.0
1758075886.40744,1758075886.32181,0.0,0.0,0.0,39.53409,-119.00334,27.10091,9.56,4.16,5.88,2.0
1758075886.4084,1758075886.33181,0.0,0.0,0.0,37.64333,-61.02001,33.00237,20.96,5.93,-2.3,2.0
1758075886.42322,1758075886.34181,0.0,0.0,0.0,32.37212,-14.49583,35.52338,20.96,5.93,-2.3,2.0
1758075886.43911,1758075886.35181,0.0,0.0,0.0,26.87172,-15.0115,33.17426,12.41,2.24,-0.5,2.0
1758075886.44034,1758075886.36181,0.0,0.0,0.0,20.05352,-18.16276,28.93437,12.41,2.24,-0.5,2.0
1758075886.45557,1758075886.37181,0.0,0.0,0.0,6.70361,-11.80293,16.55848,6.34,-0.42,1.6,2.0
1758075886.45692,1758075886.38181,0.0,0.0,0.0,-1.08862,-5.55769,9.85487,8.15,0.15,2.12,2.0
1758075886.47124,1758075886.39181,0.0,0.0,0.0,-7.10468,-4.29718,4.52637,8.15,0.15,2.12,2.0
1758075886.48752,1758075886.40181,0.0,0.0,0.0,-9.22462,-7.67763,2.34913,10.7,2.02,3.89,2.0
1758075886.48844,1758075886.41181,0.0,0.0,0.0,-10.37054,-9.22462,-1.48969,10.7,2.02,3.89,2.0
1758075886.50353,1758075886.42181,0.0,0.0,0.0,-9.4538,-9.33921,-4.52637,12.88,2.68,1.84,2.0
1758075886.51952,1758075886.43181,0.0,0.0,0.0,-7.73493,-9.39651,-6.53172,12.88,2.68,1.84,2.0
1758075886.52046,1758075886.44181,0.0,0.0,0.0,-4.92744,-7.62034,-7.21927,12.0,1.85,0.75,2.0
1758075886.53552,1758075886.45181,0.0,0.0,0.0,0.57296,-0.34377,-6.18794,10.83,0.61,0.82,2.0
1758075886.53645,1758075886.46181,0.0,0.0,0.0,4.64096,5.95876,-4.64096,10.83,0.61,0.82,2.0
1758075886.5513,1758075886.47181,0.0,0.0,0.0,9.11003,10.94349,-1.43239,9.75,0.14,0.63,2.0
1758075886.5674,1758075886.48181,0.0,0.0,0.0,13.23533,15.87093,2.40642,9.75,0.14,0.63,2.0
1758075886.56848,1758075886.49181,0.0,0.0,0.0,17.81899,23.94964,9.22462,9.2,0.1,0.42,2.0
1758075886.58363,1758075886.50181,0.0,0.0,0.0,19.88164,30.02299,13.69369,9.2,0.1,0.42,2.0
1758075886.59934,1758075886.51181,0.0,0.0,0.0,21.94428,34.43476,18.85031,9.41,0.39,0.55,2.0
1758075886.60054,1758075886.52181,0.0,0.0,0.0,22.68913,37.29956,22.11617,9.41,0.39,0.55,2.0
1758075886.61558,1758075886.53181,0.0,0.0,0.0,23.49127,44.23235,25.72581,9.2,0.95,0.67,2.0
1758075886.61652,1758075886.54181,0.0,0.0,0.0,22.97561,47.89928,25.72581,9.4,1.71,0.75,2.0
1758075886.63133,1758075886.55181,0.0,0.0,0.0,22.28806,50.01921,24.92367,9.4,1.71,0.75,2.0
1758075886.6476,1758075886.56181,0.0,0.0,0.0,21.88699,50.53488,21.7151,9.24,2.25,0.97,2.0
1758075886.6488,1758075886.57181,0.0,0.0,0.0,20.68378,51.39432,18.50654,9.24,2.25,0.97,2.0
1758075886.66358,1758075886.58181,0.0,0.0,0.0,19.53786,50.64947,14.72501,9.36,2.35,1.13,2.0
1758075886.67957,1758075886.59181,0.0,0.0,0.0,18.50654,47.44091,12.08941,9.36,2.35,1.13,2.0
1758075886.68082,1758075886.60181,0.0,0.0,0.0,16.38659,40.33623,8.36518,9.26,2.11,1.39,2.0
1758075886.69535,1758075886.61181,0.0,0.0,0.0,14.66772,35.98175,6.8182,9.55,1.59,1.44,2.0
1758075886.69658,1758075886.62181,0.0,0.0,0.0,12.77696,31.39809,4.69825,9.55,1.59,1.44,2.0
1758075886.71134,1758075886.63181,0.0,0.0,0.0,11.00079,26.47065,2.92208,9.7,1.32,1.38,2.0
1758075886.72767,1758075886.64181,0.0,0.0,0.0,8.02141,18.85031,0.80214,9.7,1.32,1.38,2.0
1758075886.72856,1758075886.65181,0.0,0.0,0.0,5.95876,15.92823,-0.45837,9.47,1.49,1.09,2.0
1758075886.74369,1758075886.66181,0.0,0.0,0.0,4.0107,14.66772,-1.71887,9.47,1.49,1.09,2.0
1758075886.75969,1758075886.67181,0.0,0.0,0.0,2.11994,14.32395,-3.09397,9.54,1.89,1.03,2.0
1758075886.76061,1758075886.68181,0.0,0.0,0.0,-0.57296,14.20935,-4.64096,9.36,2.13,0.81,2.0
1758075886.77569,1758075886.69181,0.0,0.0,0.0,-2.40642,15.75634,-5.21392,9.36,2.13,0.81,2.0
1758075886.7766,1758075886.70181,0.0,0.0,0.0,-3.95341,17.36062,-4.87014,9.17,2.08,0.68,2.0
1758075886.7917,1758075886.71181,0.0,0.0,0.0,-5.27121,18.44924,-3.66693,9.17,2.08,0.68,2.0
1758075886.80752,1758075886.72181,0.0,0.0,0.0,-7.16197,17.58981,-1.20321,8.68,1.78,0.68,2.0
1758075886.80901,1758075886.73181,0.0,0.0,0.0,-8.136,14.78231,0.97403,8.68,1.78,0.68,2.0
1758075886.82348,1758075886.74181,0.0,0.0,0.0,-9.28192,10.71431,3.38045,8.05,1.5,0.74,2.0
1758075886.83975,1758075886.75181,0.0,0.0,0.0,-10.65701,6.58902,5.4431,8.05,1.5,0.74,2.0
1758075886.84069,1758075886.76181,0.0,0.0,0.0,-13.46451,3.38045,7.73493,7.72,1.42,0.57,2.0
1758075886.85547,1758075886.77181,0.0,0.0,0.0,-15.35527,2.00535,9.05273,7.82,1.57,0.42,2.0
1758075886.85666,1758075886.78181,0.0,0.0,0.0,-17.36062,-0.17189,10.31324,7.82,1.57,0.42,2.0
1758075886.87176,1758075886.79181,0.0,0.0,0.0,-20.74107,-7.67763,11.80293,7.59,1.82,0.57,2.0
1758075886.88769,1758075886.80181,0.0,0.0,0.0,-23.54857,-14.83961,12.14671,7.59,1.82,0.57,2.0
1758075886.88869,1758075886.81181,0.0,0.0,0.0,-26.87172,-20.45459,11.45916,7.32,1.96,0.58,2.0
1758075886.9038,1758075886.82181,0.0,0.0,0.0,-30.48136,-25.7831,10.71431,7.32,1.96,0.58,2.0
1758075886.91958,1758075886.83181,0.0,0.0,0.0,-38.1017,-28.01764,5.95876,7.92,1.92,0.56,2.0
1758075886.92076,1758075886.84181,0.0,0.0,0.0,-43.94586,-30.02299,2.46372,8.41,1.91,0.74,2.0
1758075886.93562,1758075886.85181,0.0,0.0,0.0,-49.33167,-31.45539,-1.60428,8.41,1.91,0.74,2.0
1758075886.9368,1758075886.86181,0.0,0.0,0.0,-54.48829,-31.97105,-5.61499,8.66,2.0,0.3,2.0
1758075886.95185,1758075886.87181,0.0,0.0,0.0,-60.38975,-33.46074,-10.08406,8.66,2.0,0.3,2.0
1758075886.96784,1758075886.88181,0.0,0.0,0.0,-61.87944,-35.06502,-10.65701,9.02,1.86,0.2,2.0
1758075886.96884,1758075886.89181,0.0,0.0,0.0,-60.10328,-31.51268,-8.93814,9.02,1.86,0.2,2.0
1758075886.98385,1758075886.90181,0.0,0.0,0.0,-55.86338,-24.75178,-6.13065,9.99,1.02,0.11,2.0
1758075886.99979,1758075886.91181,0.0,0.0,0.0,-49.38896,-14.61043,-1.77617,11.16,0.13,0.2,2.0
1758075887.00084,1758075886.92181,0.0,0.0,0.0,-46.69606,-15.87093,-0.11459,11.16,0.13,0.2,2.0
1758075887.0156,1758075886.93181,0.0,0.0,0.0,-45.03448,-21.94428,1.60428,10.83,0.74,-0.13,2.0
1758075887.01683,1758075886.94181,0.0,0.0,0.0,-43.54479,-32.08564,3.49504,10.83,0.74,-0.13,2.0
1758075887.03186,1758075886.95181,0.0,0.0,0.0,-43.83128,-29.96569,6.7609,10.69,1.03,-0.14,2.0
1758075887.04793,1758075886.96181,0.0,0.0,0.0,-45.03448,-11.34457,6.7609,10.69,1.03,-0.14,2.0
1758075887.04909,1758075886.97181,0.0,0.0,0.0,-47.44091,2.97938,6.24524,13.25,0.86,0.56,2.0
1758075887.06363,1758075886.98181,0.0,0.0,0.0,-50.76406,5.55769,1.60428,13.25,0.86,0.56,2.0
1758075887.07987,1758075886.99181,0.0,0.0,0.0,-50.59217,-1.14592,-1.48969,11.69,0.72,1.91,2.0
1758075887.08079,1758075887.00181,0.0,0.0,0.0,-47.67009,0.40107,-3.95341,11.11,0.27,1.55,2.0
1758075887.0957,1758075887.01181,0.0,0.0,0.0,-43.25832,4.58366,-5.55769,11.11,0.27,1.55,2.0
1758075887.09686,1758075887.02181,0.0,0.0,0.0,-35.2942,0.34377,-8.02141,11.93,-0.19,3.26,2.0
1758075887.11193,1758075887.03181,0.0,0.0,0.0,-28.13223,-9.62569,-12.43318,11.93,-0.19,3.26,2.0
1758075887.12793,1758075887.04181,0.0,0.0,0.0,-19.59516,-13.98017,-18.73572,14.08,-2.01,6.3,2.0
1758075887.12883,1758075887.05181,0.0,0.0,0.0,-10.54242,-2.92208,-24.00693,14.08,-2.01,6.3,2.0
1758075887.14393,1758075887.06181,0.0,0.0,0.0,3.72423,26.52795,-23.54857,17.78,-4.12,2.79,2.0
1758075887.14564,1758075887.07181,0.0,0.0,0.0,11.63104,38.15899,-19.13679,14.51,-2.61,0.41,2.0
1758075887.16181,1758075887.08181,0.0,0.0,0.0,18.27736,45.60744,-11.97482,14.51,-2.61,0.41,2.0
1758075887.1778,1758075887.09181,0.0,0.0,0.0,22.86102,52.48294,-3.72423,10.39,0.02,-0.4,2.0
1758075887.17886,1758075887.10181,0.0,0.0,0.0,24.63719,59.35843,8.47978,10.39,0.02,-0.4,2.0
1758075887.19366,1758075887.11181,0.0,0.0,0.0,22.28806,60.73353,15.0115,9.61,1.42,-1.17,2.0
1758075887.1957,1758075887.12181,0.0,0.0,0.0,18.16276,60.90542,19.36597,9.61,1.42,-1.17,2.0
1758075887.21201,1758075887.13181,0.0,0.0,0.0,13.17803,59.87409,21.02755,10.35,1.98,-0.93,2.0
1758075887.22878,1758075887.14181,0.0,0.0,0.0,7.10468,61.24919,18.22006,11.24,1.94,-0.6,2.0
1758075887.22973,1758075887.15181,0.0,0.0,0.0,4.52637,63.59832,13.23533,11.24,1.94,-0.6,2.0
1758075887.24474,1758075887.16181,0.0,0.0,0.0,2.57831,65.2026,7.16197,11.1,1.36,-0.04,2.0
1758075887.2467,1758075887.17181,0.0,0.0,0.0,1.08862,64.91612,0.22918,11.1,1.36,-0.04,2.0
1758075887.2628,1758075887.18181,0.0,0.0,0.0,-0.80214,62.56699,-9.68299,9.82,0.72,0.42,2.0
1758075887.27901,1758075887.19181,0.0,0.0,0.0,-2.11994,61.30648,-14.38124,9.82,0.72,0.42,2.0
1758075887.27998,1758075887.20181,0.0,0.0,0.0,-3.09397,58.04062,-16.90226,8.81,0.42,0.75,2.0
1758075887.29475,1758075887.21181,0.0,0.0,0.0,-4.64096,56.03527,-16.50119,8.81,0.42,0.75,2.0
1758075887.29595,1758075887.22181,0.0,0.0,0.0,-5.72958,43.65939,-14.72501,7.75,0.34,1.15,2.0
1758075887.3121,1758075887.23181,0.0,0.0,0.0,-7.04738,35.98175,-11.63104,6.87,0.48,1.83,2.0
1758075887.32791,1758075887.24181,0.0,0.0,0.0,-7.73493,29.22085,-8.136,6.87,0.48,1.83,2.0
1758075887.32895,1758075887.25181,0.0,0.0,0.0,-8.42248,18.62113,-3.38045,7.28,0.48,2.7,2.0
1758075887.34411,1758075887.26181,0.0,0.0,0.0,-8.0787,11.51645,-1.3751,7.28,0.48,2.7,2.0
1758075887.35981,1758075887.27181,0.0,0.0,0.0,-6.8182,2.63561,0.17189,7.98,0.33,3.6,2.0
1758075887.361,1758075887.28181,0.0,0.0,0.0,-4.98473,-7.16197,1.03132,7.98,0.33,3.6,2.0
1758075887.37608,1758075887.29181,0.0,0.0,0.0,-2.34913,-22.68913,1.14592,8.45,0.13,4.1,2.0
1758075887.37713,1758075887.30181,0.0,0.0,0.0,-1.43239,-32.54401,0.68755,8.81,0.1,4.34,2.0
1758075887.3921,1758075887.31181,0.0,0.0,0.0,-1.77617,-45.20637,-0.34377,8.81,0.1,4.34,2.0
1758075887.4082,1758075887.32181,0.0,0.0,0.0,-3.38045,-58.3844,-1.48969,8.07,0.29,3.99,2.0
1758075887.4092,1758075887.33181,0.0,0.0,0.0,-7.67763,-74.14074,-3.20856,8.07,0.29,3.99,2.0
1758075887.42394,1758075887.34181,0.0,0.0,0.0,-11.91752,-80.27139,-5.50039,7.73,0.4,3.46,2.0
1758075887.42584,1758075887.35181,0.0,0.0,0.0,-17.47521,-84.2248,-8.47978,7.73,0.4,3.46,2.0
1758075887.44187,1758075887.36181,0.0,0.0,0.0,-23.31938,-85.08423,-12.08941,8.01,0.37,2.74,2.0
1758075887.45794,1758075887.37181,0.0,0.0,0.0,-31.85646,-81.93298,-17.53251,8.85,0.22,2.01,2.0
1758075887.4602,1758075887.38181,0.0,0.0,0.0,-37.01308,-76.83365,-20.51189,8.85,0.22,2.01,2.0
1758075887.47517,1758075887.39181,0.0,0.0,0.0,-40.85189,-68.69764,-23.0329,9.85,-0.26,1.93,2.0
1758075887.47633,1758075887.40181,0.0,0.0,0.0,-43.25832,-60.73353,-24.98096,9.85,-0.26,1.93,2.0
1758075887.49215,1758075887.41181,0.0,0.0,0.0,-43.60209,-48.24305,-24.57989,10.7,-0.89,2.08,2.0
1758075887.50894,1758075887.42181,0.0,0.0,0.0,-41.71133,-39.64868,-22.51724,10.7,-0.89,2.08,2.0
1758075887.5099,1758075887.43181,0.0,0.0,0.0,-38.78925,-31.45539,-19.59516,11.55,-1.31,1.74,2.0
1758075887.52516,1758075887.44181,0.0,0.0,0.0,-33.17426,-15.12609,-13.5218,11.55,-1.31,1.74,2.0
1758075887.52614,1758075887.45181,0.0,0.0,0.0,-29.50733,-3.60963,-9.62569,12.08,-1.56,0.96,2.0
1758075887.54193,1758075887.46181,0.0,0.0,0.0,-26.47065,8.42248,-6.70361,11.67,-1.43,0.32,2.0
1758075887.55805,1758075887.47181,0.0,0.0,0.0,-24.80907,20.79837,-5.09932,11.67,-1.43,0.32,2.0
1758075887.55915,1758075887.48181,0.0,0.0,0.0,-23.37668,37.35685,-5.21392,10.87,-1.13,0.09,2.0
1758075887.57398,1758075887.49181,0.0,0.0,0.0,-22.91831,46.35228,-6.87549,10.87,-1.13,0.09,2.0
1758075887.58998,1758075887.50181,0.0,0.0,0.0,-22.51724,52.76942,-8.70896,10.21,-0.98,0.06,2.0
1758075887.59189,1758075887.51181,0.0,0.0,0.0,-22.28806,54.3164,-11.34457,10.21,-0.98,0.06,2.0
1758075887.60728,1758075887.52181,0.0,0.0,0.0,-21.42862,55.11855,-15.24068,9.51,-0.77,0.2,2.0
1758075887.60855,1758075887.53181,0.0,0.0,0.0,-19.88164,56.20716,-16.84496,9.52,-0.82,0.23,2.0
1758075887.62326,1758075887.54181,0.0,0.0,0.0,-17.47521,57.23849,-17.87628,9.52,-0.82,0.23,2.0
1758075887.63927,1758075887.55181,0.0,0.0,0.0,-14.49583,57.0093,-17.99088,9.48,-1.1,0.25,2.0
1758075887.6402,1758075887.56181,0.0,0.0,0.0,-9.33921,54.3164,-18.16276,9.48,-1.1,0.25,2.0
1758075887.65534,1758075887.57181,0.0,0.0,0.0,-5.50039,51.6235,-17.99088,9.19,-1.43,0.52,2.0
1758075887.65614,1758075887.58181,0.0,0.0,0.0,-1.66158,48.64412,-18.85031,9.19,-1.43,0.52,2.0
1758075887.67232,1758075887.59181,0.0,0.0,0.0,2.00535,44.28964,-19.42327,8.89,-1.74,0.4,2.0
1758075887.68821,1758075887.60181,0.0,0.0,0.0,7.73493,39.19032,-20.34,8.54,-1.87,0.42,2.0
1758075887.68921,1758075887.61181,0.0,0.0,0.0,10.94349,36.84119,-21.14215,8.54,-1.87,0.42,2.0
1758075887.7043,1758075887.62181,0.0,0.0,0.0,13.69369,32.54401,-22.11617,8.19,-1.79,0.36,2.0
1758075887.70605,1758075887.63181,0.0,0.0,0.0,16.84496,25.72581,-23.31938,8.19,-1.79,0.36,2.0
1758075887.72205,1758075887.64181,0.0,0.0,0.0,18.50654,10.8289,-23.66316,7.4,-1.52,0.47,2.0
1758075887.73795,1758075887.65181,0.0,0.0,0.0,19.70975,0.0,-23.20479,7.4,-1.52,0.47,2.0
1758075887.73917,1758075887.66181,0.0,0.0,0.0,19.76705,-9.11003,-22.28806,7.21,-1.12,0.34,2.0
1758075887.75405,1758075887.67181,0.0,0.0,0.0,18.62113,-21.08485,-19.82434,7.21,-1.12,0.34,2.0
1758075887.77009,1758075887.68181,0.0,0.0,0.0,16.21471,-26.41335,-18.44924,7.59,-0.59,0.21,2.0
1758075887.77171,1758075887.69181,0.0,0.0,0.0,12.60507,-30.19488,-17.81899,8.1,-0.1,0.38,2.0
1758075887.78609,1758075887.70181,0.0,0.0,0.0,8.36518,-37.52874,-17.01685,8.1,-0.1,0.38,2.0
1758075887.78761,1758075887.71181,0.0,0.0,0.0,2.46372,-52.19646,-15.24068,8.2,0.24,2.15,2.0
1758075887.80239,1758075887.72181,0.0,0.0,0.0,0.0573,-71.84892,-12.08941,8.2,0.24,2.15,2.0
1758075887.81831,1758075887.73181,0.0,0.0,0.0,-1.03132,-100.6114,-0.97403,8.56,1.29,6.06,2.0
1758075887.81953,1758075887.74181,0.0,0.0,0.0,-2.40642,-111.32571,14.32395,8.56,1.29,6.06,2.0
1758075887.83409,1758075887.75181,0.0,0.0,0.0,-5.78687,-104.22102,32.37212,12.54,3.77,5.13,2.0
1758075887.85007,1758075887.76181,0.0,0.0,0.0,-7.21927,-105.48153,40.68,14.59,4.16,4.0,2.0
1758075887.85123,1758075887.77181,0.0,0.0,0.0,-8.93814,-107.2004,44.86259,14.59,4.16,4.0,2.0
1758075887.8661,1758075887.78181,0.0,0.0,0.0,-10.71431,-103.1897,43.65939,14.82,1.91,3.3,2.0
1758075887.86733,1758075887.79181,0.0,0.0,0.0,-11.80293,-94.99641,35.12231,14.82,1.91,3.3,2.0
1758075887.88237,1758075887.80181,0.0,0.0,0.0,-11.57375,-91.50137,26.87172,14.99,-0.16,2.89,2.0
1758075887.89837,1758075887.81181,0.0,0.0,0.0,-11.22997,-80.32869,18.73572,14.99,-0.16,2.89,2.0
1758075887.89963,1758075887.82181,0.0,0.0,0.0,-11.28727,-62.56699,10.19865,14.76,-0.47,2.62,2.0
1758075887.91414,1758075887.83181,0.0,0.0,0.0,-12.89155,-31.74186,5.95876,13.74,0.95,2.07,2.0
1758075887.93017,1758075887.84181,0.0,0.0,0.0,-11.00079,-25.72581,2.34913,13.74,0.95,2.07,2.0
1758075887.93135,1758075887.85181,0.0,0.0,0.0,-8.70896,-58.26981,2.6929,7.43,2.38,2.08,2.0
1758075887.94616,1758075887.86181,0.0,0.0,0.0,-3.20856,-97.40282,-2.23454,7.43,2.38,2.08,2.0
1758075887.94743,1758075887.87181,0.0,0.0,0.0,3.26586,-69.84356,2.11994,6.47,2.74,0.74,2.0
1758075887.96218,1758075887.88181,0.0,0.0,0.0,7.84952,-30.76784,2.40642,6.47,2.74,0.74,2.0
1758075887.97818,1758075887.89181,0.0,0.0,0.0,10.8289,-7.04738,1.08862,14.01,2.72,-0.01,2.0
1758075887.97941,1758075887.90181,0.0,0.0,0.0,9.91217,7.44845,3.49504,14.01,2.72,1.09,2.0
1758075887.99424,1758075887.91181,0.0,0.0,0.0,6.70361,18.10547,4.0107,9.88,2.25,1.09,2.0
1758075888.01042,1758075887.92181,0.0,0.0,0.0,1.71887,33.80451,3.60963,9.82,2.05,-0.11,2.0
1758075888.01171,1758075887.93181,0.0,0.0,0.0,-4.46907,48.52953,1.14592,9.82,2.05,-0.11,2.0
1758075888.02652,1758075887.94181,0.0,0.0,0.0,-13.69369,57.86874,-1.77617,9.11,2.02,-0.22,2.0
1758075888.02744,1758075887.95181,0.0,0.0,0.0,-18.10547,58.78547,-1.94806,9.11,2.02,-0.22,2.0
1758075888.04247,1758075887.96181,0.0,0.0,0.0,-21.25674,60.90542,-2.23454,8.03,1.89,0.11,2.0
1758075888.0608,1758075887.97181,0.0,0.0,0.0,-22.86102,63.77021,-2.23454,8.03,1.89,0.11,2.0
1758075888.06099,1758075887.98181,0.0,0.0,0.0,-23.60586,65.77556,-2.23454,8.7,1.85,0.05,2.0
1758075888.07425,1758075887.99181,0.0,0.0,0.0,-22.86102,63.99939,-2.40642,8.92,1.79,0.59,2.0
1758075888.0903,1758075888.00181,0.0,0.0,0.0,-21.48592,60.44705,-2.92208,8.92,1.79,0.59,2.0
1758075888.09143,1758075888.01181,0.0,0.0,0.0,-20.05352,55.6342,-3.60963,9.08,1.67,1.01,2.0
1758075888.10627,1758075888.02181,0.0,0.0,0.0,-18.22006,48.52953,-4.81285,9.08,1.67,1.01,2.0
1758075888.10771,1758075888.03181,0.0,0.0,0.0,-17.47521,43.88857,-5.21392,9.04,1.4,0.86,2.0
1758075888.12232,1758075888.04181,0.0,0.0,0.0,-17.18874,39.13302,-5.32851,9.04,1.4,0.86,2.0
1758075888.13846,1758075888.05181,0.0,0.0,0.0,-17.6471,34.95043,-4.46907,8.8,1.04,0.69,2.0
1758075888.1397,1758075888.06181,0.0,0.0,0.0,-18.56383,30.76784,-4.18259,8.86,0.93,0.68,2.0
1758075888.15457,1758075888.07181,0.0,0.0,0.0,-19.36597,25.61122,-3.66693,8.86,0.93,0.68,2.0
1758075888.17052,1758075888.08181,0.0,0.0,0.0,-19.88164,20.3973,-3.20856,8.64,1.09,0.63,2.0
1758075888.17093,1758075888.09181,0.0,0.0,0.0,-20.68378,18.33465,-2.63561,8.64,1.09,0.63,2.0
1758075888.18631,1758075888.10181,0.0,0.0,0.0,-21.37133,19.48057,-2.34913,9.41,1.28,0.62,2.0
1758075888.18748,1758075888.11181,0.0,0.0,0.0,-22.11617,21.02755,-2.46372,9.41,1.28,0.62,2.0
1758075888.20258,1758075888.12181,0.0,0.0,0.0,-22.57454,22.74642,-2.34913,9.77,1.44,0.48,2.0
1758075888.21852,1758075888.13181,0.0,0.0,0.0,-23.20479,25.8404,-1.60428,9.98,1.44,0.39,2.0
1758075888.21981,1758075888.14181,0.0,0.0,0.0,-23.60586,28.64789,-0.85944,9.98,1.45,0.39,2.0
1758075888.23458,1758075888.15181,0.0,0.0,0.0,-23.83505,31.11161,0.51566,10.08,1.33,-0.01,2.0
1758075888.25062,1758075888.16181,0.0,0.0,0.0,-24.29341,32.42941,2.06265,10.08,1.33,-0.01,2.0
1758075888.25104,1758075888.17181,0.0,0.0,0.0,-25.15285,33.63263,4.35448,9.79,1.17,-0.21,2.0
1758075888.26633,1758075888.18181,0.0,0.0,0.0,-25.61122,31.56997,6.13065,9.79,1.17,-0.21,2.0
1758075888.26753,1758075888.19181,0.0,0.0,0.0,-25.89769,29.50733,7.44845,9.34,1.04,-0.28,2.0
1758075888.28255,1758075888.20181,0.0,0.0,0.0,-26.24147,27.44468,8.99544,9.34,1.04,-0.28,2.0
1758075888.29859,1758075888.21181,0.0,0.0,0.0,-27.2155,20.3973,9.68299,9.1,1.05,0.0,2.0
1758075888.29995,1758075888.22181,0.0,0.0,0.0,-28.01764,13.86558,9.5684,8.65,1.21,0.49,2.0
1758075888.31507,1758075888.23181,0.0,0.0,0.0,-29.04896,5.55769,8.25059,8.65,1.21,0.49,2.0
1758075888.31631,1758075888.24181,0.0,0.0,0.0,-30.13758,-2.97938,4.92744,8.24,1.47,0.76,2.0
1758075888.33168,1758075888.25181,0.0,0.0,0.0,-30.93972,-21.6578,2.63561,8.24,1.47,0.76,2.0
1758075888.34766,1758075888.26181,0.0,0.0,0.0,-31.16891,-39.70598,1.14592,7.55,1.59,0.61,2.0
1758075888.34866,1758075888.27181,0.0,0.0,0.0,-30.99702,-54.77477,-0.0573,7.55,1.59,0.61,2.0
1758075888.3637,1758075888.28181,0.0,0.0,0.0,-33.11696,-66.97877,0.80214,7.16,1.63,0.16,2.0
1758075888.38085,1758075888.29181,0.0,0.0,0.0,-35.63798,-63.94209,4.98473,9.02,1.83,0.33,2.0
1758075888.38125,1758075888.30181,0.0,0.0,0.0,-39.19032,-43.60209,3.95341,9.02,1.83,0.33,2.0
1758075888.39645,1758075888.31181,0.0,0.0,0.0,-40.85189,-26.69983,7.39116,12.17,1.88,0.63,2.0
1758075888.39762,1758075888.32181,0.0,0.0,0.0,-43.88857,4.64096,9.91217,12.17,1.88,0.63,2.0
1758075888.4125,1758075888.33181,0.0,0.0,0.0,-40.10705,-13.12073,12.43318,12.36,1.54,1.36,2.0
1758075888.42925,1758075888.34181,0.0,0.0,0.0,-41.94051,-38.84654,8.42248,12.36,1.54,1.36,2.0
1758075888.43046,1758075888.35181,0.0,0.0,0.0,-40.68,-55.6915,8.02141,8.54,1.54,2.07,2.0
1758075888.44575,1758075888.36181,0.0,0.0,0.0,-37.18496,-80.95895,0.80214,11.05,1.26,3.37,2.0
1758075888.44666,1758075888.37181,0.0,0.0,0.0,-35.92446,-90.41274,-6.35983,11.05,1.26,3.37,2.0
1758075888.46168,1758075888.38181,0.0,0.0,0.0,-34.26288,-85.94368,-13.00614,14.51,-0.48,3.86,2.0
1758075888.47755,1758075888.39181,0.0,0.0,0.0,-31.45539,-69.67168,-16.61578,14.51,-0.48,3.86,2.0
1758075888.47948,1758075888.40181,0.0,0.0,0.0,-26.75713,-51.39432,-18.56383,15.26,-1.19,2.37,2.0
1758075888.49449,1758075888.41181,0.0,0.0,0.0,-24.35071,-57.46767,-17.18874,15.26,-1.19,2.37,2.0
1758075888.49593,1758075888.42181,0.0,0.0,0.0,-21.37133,-66.40582,-11.86023,10.0,-0.32,2.3,2.0
1758075888.51105,1758075888.43181,0.0,0.0,0.0,-21.48592,-63.31184,-9.96947,10.0,-0.32,2.3,2.0
1758075888.52681,1758075888.44181,0.0,0.0,0.0,-25.38203,-54.88936,-6.24524,10.16,0.33,2.07,2.0
1758075888.52771,1758075888.45181,0.0,0.0,0.0,-30.19488,-53.11319,-5.61499,10.68,0.96,2.09,2.0
1758075888.54278,1758075888.46181,0.0,0.0,0.0,-34.95043,-50.93595,-6.58902,10.68,0.96,2.09,2.0
1758075888.55854,1758075888.47181,0.0,0.0,0.0,-42.22699,-48.8733,-11.17268,10.79,1.37,2.43,2.0
1758075888.55981,1758075888.48181,0.0,0.0,0.0,-46.81066,-41.65404,-14.09476,10.79,1.37,2.43,2.0
1758075888.57456,1758075888.49181,0.0,0.0,0.0,-50.53488,-33.05967,-16.95955,10.95,1.02,1.22,2.0
1758075888.57583,1758075888.50181,0.0,0.0,0.0,-53.17049,-24.00693,-18.50654,10.95,1.02,1.22,2.0
1758075888.59105,1758075888.51181,0.0,0.0,0.0,-52.54023,-9.4538,-18.90761,10.82,0.11,0.76,2.0
1758075888.60685,1758075888.52181,0.0,0.0,0.0,-49.15978,1.71887,-18.44924,11.04,-0.95,0.55,2.0
1758075888.60785,1758075888.53181,0.0,0.0,0.0,-44.23235,12.37589,-17.6471,11.04,-0.95,0.55,2.0
1758075888.6229,1758075888.54181,0.0,0.0,0.0,-37.81522,20.62648,-16.90226,11.32,-1.79,0.37,2.0
1758075888.63865,1758075888.55181,0.0,0.0,0.0,-28.24682,33.34615,-13.23533,11.32,-1.79,0.37,2.0
1758075888.64008,1758075888.56181,0.0,0.0,0.0,-23.26209,43.65939,-9.91217,11.19,-1.66,0.13,2.0
1758075888.65491,1758075888.57181,0.0,0.0,0.0,-19.59516,52.42564,-6.24524,11.19,-1.66,0.13,2.0
1758075888.6558,1758075888.58181,0.0,0.0,0.0,-17.53251,59.12925,-3.20856,10.62,-1.01,0.03,2.0
1758075888.67116,1758075888.59181,0.0,0.0,0.0,-16.38659,71.21866,-2.29183,10.12,-0.25,0.07,2.0
1758075888.68664,1758075888.60181,0.0,0.0,0.0,-15.98552,74.42722,-2.6929,10.12,-0.25,0.07,2.0
1758075888.68781,1758075888.61181,0.0,0.0,0.0,-15.75634,74.14074,-3.03668,9.24,0.09,0.0,2.0
1758075888.70263,1758075888.62181,0.0,0.0,0.0,-16.272,77.4066,-4.0107,9.24,0.09,0.0,2.0
1758075888.71863,1758075888.63181,0.0,0.0,0.0,-17.58981,77.57849,-5.32851,9.48,0.24,0.21,2.0
1758075888.71982,1758075888.64181,0.0,0.0,0.0,-17.76169,73.73967,-6.18794,9.48,0.24,0.21,2.0
1758075888.7348,1758075888.65181,0.0,0.0,0.0,-17.24603,69.04142,-7.33386,8.51,0.29,0.24,2.0
1758075888.7358,1758075888.66181,0.0,0.0,0.0,-16.21471,63.77021,-7.73493,8.51,0.29,0.24,2.0
1758075888.75114,1758075888.67181,0.0,0.0,0.0,-14.78231,55.6342,-7.62034,7.97,0.23,0.3,2.0
1758075888.76689,1758075888.68181,0.0,0.0,0.0,-13.75099,49.56085,-6.99009,7.82,0.09,0.69,2.0
1758075888.76807,1758075888.69181,0.0,0.0,0.0,-12.77696,42.97184,-6.70361,7.82,0.09,0.69,2.0
1758075888.78291,1758075888.70181,0.0,0.0,0.0,-11.51645,32.6013,-6.41713,7.8,-0.15,0.73,2.0
1758075888.7989,1758075888.71181,0.0,0.0,0.0,-10.59972,26.41335,-6.18794,7.8,-0.15,0.73,2.0
1758075888.80014,1758075888.72181,0.0,0.0,0.0,-10.02676,20.79837,-6.13065,8.0,-0.41,0.72,2.0
1758075888.81465,1758075888.73181,0.0,0.0,0.0,-9.62569,15.29797,-5.90147,8.0,-0.41,0.72,2.0
1758075888.81586,1758075888.74181,0.0,0.0,0.0,-8.65166,12.83425,-6.35983,8.28,-0.5,0.51,2.0
1758075888.83063,1758075888.75181,0.0,0.0,0.0,-8.30789,14.03747,-6.87549,8.97,-0.35,0.21,2.0
1758075888.84693,1758075888.76181,0.0,0.0,0.0,-7.96411,14.32395,-7.79223,8.97,-0.35,0.21,2.0
1758075888.84789,1758075888.77181,0.0,0.0,0.0,-7.21927,13.80828,-8.65166,9.24,0.02,0.21,2.0
1758075888.86307,1758075888.78181,0.0,0.0,0.0,-5.50039,9.5684,-9.85487,9.24,0.02,0.21,2.0
1758075888.87871,1758075888.79181,0.0,0.0,0.0,-3.55234,4.58366,-9.74028,9.24,0.19,0.34,2.0
1758075888.87992,1758075888.80181,0.0,0.0,0.0,-1.03132,-2.57831,-8.59437,9.24,0.19,0.34,2.0
1758075888.8947,1758075888.81181,0.0,0.0,0.0,1.3751,-10.71431,-6.58902,9.12,-0.03,0.35,2.0
1758075888.89592,1758075888.82181,0.0,0.0,0.0,4.1253,-21.08485,-2.57831,9.48,-0.45,0.28,2.0
1758075888.91075,1758075888.83181,0.0,0.0,0.0,5.50039,-25.7831,0.74485,9.48,-0.45,0.28,2.0
1758075888.92672,1758075888.84181,0.0,0.0,0.0,6.7609,-28.87707,3.89611,10.11,-0.71,0.36,2.0
1758075888.92794,1758075888.85181,0.0,0.0,0.0,7.44845,-31.39809,6.70361,10.11,-0.71,0.36,2.0
1758075888.94264,1758075888.86181,0.0,0.0,0.0,7.10468,-35.86716,9.05273,10.21,-0.7,0.16,2.0
1758075888.95913,1758075888.87181,0.0,0.0,0.0,7.21927,-35.52338,9.91217,10.21,-0.7,0.16,2.0
1758075888.96025,1758075888.88181,0.0,0.0,0.0,6.8182,-30.19488,9.22462,10.5,-0.68,0.11,2.0
1758075888.97506,1758075888.89181,0.0,0.0,0.0,5.09932,-23.49127,6.07335,10.5,-0.68,0.11,2.0
1758075888.97622,1758075888.90181,0.0,0.0,0.0,3.72423,-11.17268,4.52637,10.78,-0.43,0.29,2.0
1758075888.99111,1758075888.91181,0.0,0.0,0.0,1.77617,-1.03132,1.48969,11.48,0.09,1.34,2.0
1758075889.00688,1758075888.92181,0.0,0.0,0.0,-0.11459,5.15662,-2.23454,11.48,0.09,1.34,2.0
1758075889.00799,1758075888.93181,0.0,0.0,0.0,-1.08862,0.57296,-5.95876,11.83,0.29,4.55,2.0
1758075889.02311,1758075888.94181,0.0,0.0,0.0,-0.51566,-28.59059,-8.136,11.83,0.29,4.55,2.0
1758075889.03921,1758075888.95181,0.0,0.0,0.0,2.40642,-86.05827,-0.40107,10.64,1.05,8.04,2.0
1758075889.04,1758075888.96181,0.0,0.0,0.0,9.22462,-123.30053,18.50654,10.64,1.05,8.04,2.0
1758075889.05512,1758075888.97181,0.0,0.0,0.0,7.44845,-83.59455,30.53865,12.92,2.86,2.34,2.0
1758075889.05603,1758075888.98181,0.0,0.0,0.0,2.92208,-58.4417,30.88243,16.38,2.4,-0.6,2.0
1758075889.07114,1758075888.99181,0.0,0.0,0.0,-2.29183,-54.3164,27.61657,16.38,2.4,-0.6,2.0
1758075889.08686,1758075889.00181,0.0,0.0,0.0,-7.33386,-51.22243,20.51189,10.28,0.5,1.52,2.0
1758075889.08803,1758075889.01181,0.0,0.0,0.0,-11.80293,-37.92981,11.57375,10.28,0.5,1.52,2.0
1758075889.10283,1758075889.02181,0.0,0.0,0.0,-14.43854,-31.56997,4.18259,9.67,-0.7,1.68,2.0
1758075889.11913,1758075889.03181,0.0,0.0,0.0,-12.54778,-27.78845,4.0107,9.67,-0.7,1.68,2.0
1758075889.12011,1758075889.04181,0.0,0.0,0.0,-10.19865,-25.61122,2.06265,8.88,-0.44,2.81,2.0
1758075889.1352,1758075889.05181,0.0,0.0,0.0,-2.63561,-19.82434,2.34913,9.14,0.39,2.55,2.0
1758075889.13635,1758075889.06181,0.0,0.0,0.0,2.92208,-13.17803,3.09397,9.14,0.39,2.55,2.0
1758075889.15091,1758075889.07181,0.0,0.0,0.0,8.65166,-7.21927,3.60963,9.82,1.33,2.22,2.0
1758075889.16718,1758075889.08181,0.0,0.0,0.0,14.38124,-1.94806,4.58366,9.82,1.33,2.22,2.0
1758075889.16807,1758075889.09181,0.0,0.0,0.0,20.16812,10.19865,7.04738,10.34,1.89,1.69,2.0
1758075889.18314,1758075889.10181,0.0,0.0,0.0,21.94428,19.48057,8.25059,10.34,1.89,1.69,2.0
1758075889.19912,1758075889.11181,0.0,0.0,0.0,22.00158,27.96034,8.88085,10.67,1.88,1.26,2.0
1758075889.20012,1758075889.12181,0.0,0.0,0.0,19.48057,40.33623,7.84952,10.67,1.88,1.26,2.0
1758075889.21512,1758075889.13181,0.0,0.0,0.0,16.61578,49.38896,5.84417,10.39,1.78,1.06,2.0
1758075889.21609,1758075889.14181,0.0,0.0,0.0,13.69369,55.23313,3.32316,10.32,1.55,0.82,2.0
1758075889.23114,1758075889.15181,0.0,0.0,0.0,10.54242,58.55629,1.03132,10.32,1.55,0.82,2.0
1758075889.24711,1758075889.16181,0.0,0.0,0.0,7.10468,61.24919,-1.60428,9.79,1.36,0.81,2.0
1758075889.2484,1758075889.17181,0.0,0.0,0.0,5.21392,63.42643,-2.29183,9.79,1.36,0.81,2.0
1758075889.26291,1758075889.18181,0.0,0.0,0.0,3.66693,64.40046,-2.29183,9.73,1.38,0.83,2.0
1758075889.27888,1758075889.19181,0.0,0.0,0.0,2.34913,61.87944,-1.43239,9.73,1.38,0.83,2.0
1758075889.28011,1758075889.20181,0.0,0.0,0.0,0.40107,58.21251,1.08862,9.39,1.59,0.88,2.0
1758075889.29514,1758075889.21181,0.0,0.0,0.0,-1.08862,55.29043,2.11994,9.41,1.7,0.91,2.0
1758075889.29612,1758075889.22181,0.0,0.0,0.0,-2.97938,50.53488,2.86479,9.41,1.7,0.91,2.0
1758075889.31123,1758075889.23181,0.0,0.0,0.0,-4.69825,44.40423,3.20856,8.71,1.7,0.59,2.0
1758075889.3272,1758075889.24181,0.0,0.0,0.0,-7.62034,40.10705,2.92208,8.71,1.7,0.59,2.0
1758075889.32816,1758075889.25181,0.0,0.0,0.0,-9.39651,39.13302,2.11994,8.83,1.58,0.75,2.0
1758075889.3432,1758075889.26181,0.0,0.0,0.0,-11.28727,36.89849,1.83346,8.83,1.58,0.75,2.0
1758075889.34578,1758075889.27181,0.0,0.0,0.0,-13.40721,35.92446,0.80214,8.58,1.45,0.57,2.0
1758075889.36193,1758075889.28181,0.0,0.0,0.0,-16.3293,35.40879,0.0,8.63,1.34,0.64,2.0
1758075889.37824,1758075889.29181,0.0,0.0,0.0,-17.47521,33.9764,-0.17189,8.63,1.34,0.64,2.0
1758075889.37942,1758075889.30181,0.0,0.0,0.0,-17.99088,30.76784,0.0,8.51,1.18,0.48,2.0
1758075889.39425,1758075889.31181,0.0,0.0,0.0,-17.6471,27.84575,1.71887,8.51,1.18,0.48,2.0
1758075889.39518,1758075889.32181,0.0,0.0,0.0,-16.84496,22.23076,3.26586,8.61,0.88,0.41,2.0
1758075889.41136,1758075889.33181,0.0,0.0,0.0,-15.87093,20.62648,4.69825,8.61,0.88,0.41,2.0
1758075889.42705,1758075889.34181,0.0,0.0,0.0,-14.38124,19.42327,7.33386,8.72,0.57,0.13,2.0
1758075889.42824,1758075889.35181,0.0,0.0,0.0,-11.91752,17.18874,11.17268,8.72,0.57,0.13,2.0
1758075889.44412,1758075889.36181,0.0,0.0,0.0,-10.48513,14.78231,13.75099,8.64,0.37,-0.02,2.0
1758075889.44504,1758075889.37181,0.0,0.0,0.0,-9.74028,11.63104,15.64175,8.47,0.37,0.23,2.0
1758075889.4611,1758075889.38181,0.0,0.0,0.0,-9.85487,3.26586,16.90226,8.47,0.37,0.23,2.0
1758075889.47708,1758075889.39181,0.0,0.0,0.0,-12.54778,-9.85487,15.69904,7.95,0.69,0.05,2.0
1758075889.47829,1758075889.40181,0.0,0.0,0.0,-15.87093,-19.70975,13.06344,7.95,0.69,0.05,2.0
1758075889.49335,1758075889.41181,0.0,0.0,0.0,-19.88164,-28.07493,9.11003,7.64,1.36,0.16,2.0
1758075889.50928,1758075889.42181,0.0,0.0,0.0,-23.26209,-40.16434,5.09932,7.64,1.36,0.16,2.0
1758075889.51057,1758075889.43181,0.0,0.0,0.0,-27.33009,-64.57235,1.77617,7.07,1.95,-0.04,2.0
1758075889.52532,1758075889.44181,0.0,0.0,0.0,-29.9084,-73.10942,1.3178,6.76,2.17,-0.15,2.0
1758075889.5263,1758075889.45181,0.0,0.0,0.0,-32.6013,-73.45319,2.57831,6.76,2.17,-0.15,2.0
1758075889.54118,1758075889.46181,0.0,0.0,0.0,-36.32552,-71.16136,4.1253,8.06,2.64,0.85,2.0
1758075889.5572,1758075889.47181,0.0,0.0,0.0,-43.77398,-82.62051,5.72958,8.06,2.64,0.85,2.0
1758075889.55831,1758075889.48181,0.0,0.0,0.0,-46.75336,-106.34097,0.51566,8.12,3.67,5.29,2.0
1758075889.57331,1758075889.49181,0.0,0.0,0.0,-50.2484,-133.0408,-9.74028,8.12,3.67,5.29,2.0
1758075889.58908,1758075889.50181,0.0,0.0,0.0,-50.87865,-142.32272,-22.28806,11.09,1.36,6.73,2.0
1758075889.5903,1758075889.51181,0.0,0.0,0.0,-48.35764,-125.99342,-39.53409,18.2,-2.52,4.52,2.0
1758075889.6054,1758075889.52181,0.0,0.0,0.0,-45.77933,-102.78864,-44.9199,18.2,-2.52,4.52,2.0
1758075889.60635,1758075889.53181,0.0,0.0,0.0,-41.36755,-96.94446,-45.72203,17.72,-2.6,3.53,2.0
1758075889.62115,1758075889.54181,0.0,0.0,0.0,-40.68,-109.66413,-45.43555,17.72,-2.6,3.53,2.0
1758075889.63717,1758075889.55181,0.0,0.0,0.0,-42.34158,-101.52813,-43.37291,12.42,-0.4,2.68,2.0
1758075889.63946,1758075889.56181,0.0,0.0,0.0,-43.77398,-87.77714,-36.49741,12.42,-0.4,2.68,2.0
1758075889.65437,1758075889.57181,0.0,0.0,0.0,-47.09713,-74.65641,-30.99702,13.14,0.5,0.6,2.0
1758075889.65536,1758075889.58181,0.0,0.0,0.0,-50.47758,-55.11855,-21.08485,13.14,0.5,0.6,2.0
1758075889.67118,1758075889.59181,0.0,0.0,0.0,-50.59217,-42.57077,-14.9542,12.7,0.12,0.98,2.0
1758075889.68723,1758075889.60181,0.0,0.0,0.0,-47.95657,-28.01764,-8.65166,12.17,-0.62,0.5,2.0
1758075889.68918,1758075889.61181,0.0,0.0,0.0,-43.88857,-13.75099,-2.86479,12.17,-0.62,0.5,2.0
1758075889.70522,1758075889.62181,0.0,0.0,0.0,-37.12767,8.02141,3.95341,11.39,-1.52,0.12,2.0
1758075889.70622,1758075889.63181,0.0,0.0,0.0,-33.63263,22.28806,7.10468,11.39,-1.52,0.12,2.0
1758075889.72149,1758075889.64181,0.0,0.0,0.0,-31.51268,35.40879,8.93814,10.46,-1.85,-0.13,2.0
1758075889.73731,1758075889.65181,0.0,0.0,0.0,-30.65324,46.63877,9.85487,10.46,-1.85,-0.13,2.0
1758075889.73922,1758075889.66181,0.0,0.0,0.0,-31.51268,61.36378,9.4538,10.09,-1.23,-0.17,2.0
1758075889.75452,1758075889.67181,0.0,0.0,0.0,-33.17426,69.90086,8.25059,10.21,-0.23,-0.3,2.0
1758075889.75545,1758075889.68181,0.0,0.0,0.0,-36.15364,75.05748,5.95876,10.21,-0.23,-0.3,2.0
1758075889.77152,1758075889.69181,0.0,0.0,0.0,-39.53409,77.29202,3.60963,9.59,0.58,-0.66,2.0
1758075889.78746,1758075889.70181,0.0,0.0,0.0,-45.49285,77.80767,-2.57831,9.59,0.58,-0.66,2.0
1758075889.78926,1758075889.71181,0.0,0.0,0.0,-49.27437,77.23472,-7.10468,9.05,0.87,-0.55,2.0
1758075889.80533,1758075889.72181,0.0,0.0,0.0,-52.65482,75.85962,-11.57375,9.05,0.87,-0.55,2.0
1758075889.80651,1758075889.73181,0.0,0.0,0.0,-55.06125,72.47916,-17.53251,8.8,0.9,-0.48,2.0
1758075889.82121,1758075889.74181,0.0,0.0,0.0,-57.41038,71.21866,-20.62648,8.8,0.57,-0.15,2.0
1758075889.83768,1758075889.75181,0.0,0.0,0.0,-57.41038,69.27061,-22.63183,8.8,0.57,-0.15,2.0
1758075889.83849,1758075889.76181,0.0,0.0,0.0,-55.86338,63.65561,-23.37668,8.17,-0.02,-0.25,2.0
1758075889.85363,1758075889.77181,0.0,0.0,0.0,-52.48294,50.76406,-22.40265,8.17,-0.02,-0.25,2.0
1758075889.86969,1758075889.78181,0.0,0.0,0.0,-49.67545,45.26366,-20.79837,7.83,-0.64,0.05,2.0
1758075889.8709,1758075889.79181,0.0,0.0,0.0,-46.63877,42.1124,-18.56383,7.83,-0.64,0.05,2.0
1758075889.8853,1758075889.80181,0.0,0.0,0.0,-43.88857,39.76327,-16.21471,8.52,-1.09,-0.07,2.0
1758075889.88684,1758075889.81181,0.0,0.0,0.0,-40.10705,36.32552,-13.23533,8.74,-1.09,0.1,2.0
1758075889.90134,1758075889.82181,0.0,0.0,0.0,-38.15899,33.80451,-11.57375,8.74,-1.18,0.1,2.0
1758075889.91763,1758075889.83181,0.0,0.0,0.0,-36.84119,29.62192,-11.11538,8.73,-0.9,0.08,2.0
1758075889.91852,1758075889.84181,0.0,0.0,0.0,-36.03905,24.75178,-11.28727,8.73,-0.9,0.08,2.0
1758075889.93525,1758075889.85181,0.0,0.0,0.0,-35.2942,16.61578,-13.34992,8.65,-0.49,-0.06,2.0
1758075889.93614,1758075889.86181,0.0,0.0,0.0,-35.12231,14.49583,-15.06879,8.65,-0.49,-0.06,2.0
1758075889.95161,1758075889.87181,0.0,0.0,0.0,-35.06502,13.80828,-17.58981,9.16,-0.17,-0.23,2.0
1758075889.96737,1758075889.88181,0.0,0.0,0.0,-34.43476,12.54778,-19.53786,9.16,-0.17,-0.23,2.0
1758075889.96857,1758075889.89181,0.0,0.0,0.0,-32.83048,8.65166,-21.88699,9.37,-0.06,0.15,2.0
1758075889.98339,1758075889.90181,0.0,0.0,0.0,-30.88243,4.69825,-21.60051,9.18,-0.31,0.39,2.0
1758075889.9857,1758075889.91181,0.0,0.0,0.0,-28.93437,0.85944,-19.82434,9.18,-0.31,0.39,2.0
1758075890.00156,1758075889.92181,0.0,0.0,0.0,-27.10091,-2.92208,-17.36062,9.16,-0.68,0.45,2.0
1758075890.01764,1758075889.93181,0.0,0.0,0.0,-23.94964,-7.79223,-14.03747,9.16,-0.68,0.45,2.0
1758075890.01862,1758075889.94181,0.0,0.0,0.0,-22.00158,-11.63104,-11.63104,9.31,-0.76,0.16,2.0
1758075890.03366,1758075889.95181,0.0,0.0,0.0,-20.34,-12.83425,-11.57375,9.31,-0.76,0.16,2.0
1758075890.04954,1758075889.96181,0.0,0.0,0.0,-16.73037,-11.91752,-12.89155,9.66,-1.05,-0.18,2.0
1758075890.0506,1758075889.97181,0.0,0.0,0.0,-13.69369,-8.25059,-13.34992,10.57,-1.47,-0.25,2.0
1758075890.06548,1758075889.98181,0.0,0.0,0.0,-11.00079,-3.83882,-14.72501,10.57,-1.47,-0.25,2.0
1758075890.06693,1758075889.99181,0.0,0.0,0.0,-8.70896,4.23989,-15.75634,11.72,-1.68,0.31,2.0
1758075890.08165,1758075890.00181,0.0,0.0,0.0,-5.84417,13.5218,-16.10011,11.72,-1.68,0.31,2.0
1758075890.09771,1758075890.01181,0.0,0.0,0.0,-4.52637,13.46451,-16.272,12.62,-1.66,2.59,2.0
1758075890.09869,1758075890.02181,0.0,0.0,0.0,-3.83882,8.30789,-14.43854,12.62,-1.66,2.59,2.0
1758075890.11364,1758075890.03181,0.0,0.0,0.0,-3.49504,-12.54778,-12.77696,13.58,-0.47,5.28,2.0
1758075890.1294,1758075890.04181,0.0,0.0,0.0,-4.1253,-80.44328,3.32316,11.85,2.28,4.69,2.0
1758075890.1306,1758075890.05181,0.0,0.0,0.0,-8.42248,-79.01089,12.37589,11.85,2.28,4.69,2.0
1758075890.14568,1758075890.06181,0.0,0.0,0.0,-13.69369,-52.48294,16.3293,16.8,2.86,-0.33,2.0
1758075890.14695,1758075890.07181,0.0,0.0,0.0,-19.48057,-38.50277,17.53251,16.8,2.86,-0.33,2.0
1758075890.16172,1758075890.08181,0.0,0.0,0.0,-23.66316,-41.02378,18.10547,12.32,0.87,0.73,2.0
1758075890.17879,1758075890.09181,0.0,0.0,0.0,-24.57989,-40.85189,15.41257,12.32,0.87,0.73,2.0
1758075890.17969,1758075890.10181,0.0,0.0,0.0,-24.80907,-36.49741,10.65701,10.37,-0.82,2.51,2.0
1758075890.19477,1758075890.11181,0.0,0.0,0.0,-22.51724,-33.51803,7.73493,10.37,-0.82,2.51,2.0
1758075890.19596,1758075890.12181,0.0,0.0,0.0,-15.87093,-30.93972,6.35983,10.18,-1.13,2.4,2.0
1758075890.21151,1758075890.13181,0.0,0.0,0.0,-9.74028,-31.39809,7.21927,9.36,-0.81,3.21,2.0
1758075890.22753,1758075890.14181,0.0,0.0,0.0,-3.03668,-32.48671,9.4538,9.36,-0.81,3.21,2.0
1758075890.22906,1758075890.15181,0.0,0.0,0.0,4.0107,-31.39809,12.43318,8.58,-0.1,2.79,2.0
1758075890.24355,1758075890.16181,0.0,0.0,0.0,14.61043,-26.24147,13.80828,8.58,-0.1,2.79,2.0
1758075890.24549,1758075890.17181,0.0,0.0,0.0,20.51189,-23.31938,14.32395,8.43,0.38,2.32,2.0
1758075890.2618,1758075890.18181,0.0,0.0,0.0,24.98096,-18.9649,13.69369,8.43,0.38,2.32,2.0
1758075890.27762,1758075890.19181,0.0,0.0,0.0,27.84575,-8.70896,13.5218,8.79,0.85,2.06,2.0
1758075890.27953,1758075890.20181,0.0,0.0,0.0,27.38738,-2.11994,12.71966,9.3,1.2,1.46,2.0
1758075890.29482,1758075890.21181,0.0,0.0,0.0,25.49662,4.98473,11.45916,9.3,1.2,1.46,2.0
1758075890.29582,1758075890.22181,0.0,0.0,0.0,22.51724,14.03747,10.19865,9.94,1.58,1.14,2.0
1758075890.31187,1758075890.23181,0.0,0.0,0.0,16.10011,27.1582,7.67763,9.94,1.58,1.14,2.0
1758075890.32786,1758075890.24181,0.0,0.0,0.0,11.63104,33.9764,6.35983,10.06,1.86,0.63,2.0
1758075890.32925,1758075890.25181,0.0,0.0,0.0,6.99009,39.70598,5.72958,10.06,1.86,0.63,2.0
1758075890.34392,1758075890.26181,0.0,0.0,0.0,2.6929,43.88857,5.95876,9.62,2.06,0.49,2.0
1758075890.3467,1758075890.27181,0.0,0.0,0.0,-2.6929,49.90463,6.07335,9.4,2.13,0.6,2.0
1758075890.36287,1758075890.28181,0.0,0.0,0.0,-5.90147,53.28508,6.24524,9.4,2.13,0.6,2.0
1758075890.37874,1758075890.29181,0.0,0.0,0.0,-8.36518,55.7488,5.95876,9.15,2.09,0.77,2.0
1758075890.37982,1758075890.30181,0.0,0.0,0.0,-10.48513,57.86874,5.95876,9.15,2.09,0.77,2.0
1758075890.39452,1758075890.31181,0.0,0.0,0.0,-12.60507,57.86874,4.98473,8.92,1.96,1.09,2.0
1758075890.39576,1758075890.32181,0.0,0.0,0.0,-14.09476,57.81144,4.1253,8.92,1.96,1.09,2.0
1758075890.41192,1758075890.33181,0.0,0.0,0.0,-15.87093,57.75415,2.00535,8.88,1.78,1.35,2.0
1758075890.42871,1758075890.34181,0.0,0.0,0.0,-17.13144,55.29043,0.22918,8.88,1.78,1.35,2.0
1758075890.42971,1758075890.35181,0.0,0.0,0.0,-19.07949,48.9306,-2.00535,8.6,1.57,1.51,2.0
1758075890.44499,1758075890.36181,0.0,0.0,0.0,-20.05352,45.89392,-3.32316,8.52,1.25,1.61,2.0
1758075890.44591,1758075890.37181,0.0,0.0,0.0,-20.97026,42.57077,-4.35448,8.52,1.25,1.61,2.0
1758075890.4617,1758075890.38181,0.0,0.0,0.0,-21.60051,38.15899,-5.27121,8.35,0.98,1.41,2.0
1758075890.47769,1758075890.39181,0.0,0.0,0.0,-21.37133,30.99702,-4.87014,8.35,0.98,1.41,2.0
1758075890.4792,1758075890.40181,0.0,0.0,0.0,-20.79837,26.24147,-4.58366,8.19,0.68,1.25,2.0
1758075890.49391,1758075890.41181,0.0,0.0,0.0,-20.11082,22.74642,-4.23989,8.19,0.68,1.25,2.0
1758075890.49647,1758075890.42181,0.0,0.0,0.0,-19.42327,21.94428,-3.83882,8.73,0.45,1.24,2.0
1758075890.51271,1758075890.43181,0.0,0.0,0.0,-19.53786,21.48592,-5.21392,9.45,0.37,0.99,2.0
1758075890.52965,1758075890.44181,0.0,0.0,0.0,-19.70975,19.99623,-5.95876,9.45,0.37,0.99,2.0
1758075890.53089,1758075890.45181,0.0,0.0,0.0,-20.05352,16.90226,-6.7609,9.55,0.52,0.48,2.0
1758075890.54573,1758075890.46181,0.0,0.0,0.0,-21.42862,12.43318,-7.73493,9.55,0.52,0.48,2.0
1758075890.54698,1758075890.47181,0.0,0.0,0.0,-23.26209,9.74028,-8.65166,9.6,0.77,0.11,2.0
1758075890.56255,1758075890.48181,0.0,0.0,0.0,-25.38203,4.81285,-9.39651,9.6,0.77,0.11,2.0
1758075890.57981,1758075890.49181,0.0,0.0,0.0,-27.50197,-7.62034,-9.62569,8.95,1.24,-0.43,2.0
1758075890.58096,1758075890.50181,0.0,0.0,0.0,-30.53865,-36.61201,-8.42248,6.78,1.76,-0.82,2.0
1758075890.59576,1758075890.51181,0.0,0.0,0.0,-31.74186,-58.4417,-6.87549,6.78,1.76,-0.82,2.0
1758075890.59725,1758075890.52181,0.0,0.0,0.0,-34.09099,-72.82294,-3.49504,6.4,2.12,-0.86,2.0
1758075890.6121,1758075890.53181,0.0,0.0,0.0,-39.01843,-62.39511,-4.92744,6.4,2.12,-0.86,2.0
1758075890.62807,1758075890.54181,0.0,0.0,0.0,-42.91454,-20.85567,-2.40642,11.19,2.38,0.34,2.0
1758075890.62898,1758075890.55181,0.0,0.0,0.0,-46.86795,-16.21471,-0.74485,11.19,2.38,0.34,2.0
1758075890.64402,1758075890.56181,0.0,0.0,0.0,-53.74345,-37.52874,-2.57831,11.04,2.6,1.82,2.0
1758075890.64583,1758075890.57181,0.0,0.0,0.0,-56.952,-54.60288,-2.7502,11.04,2.6,1.82,2.0
1758075890.66193,1758075890.58181,0.0,0.0,0.0,-65.37449,-62.28051,-2.29183,9.8,2.34,0.68,2.0
1758075890.67889,1758075890.59181,0.0,0.0,0.0,-69.21331,-59.41573,-0.0573,11.38,2.25,0.53,2.0
1758075890.67979,1758075890.60181,0.0,0.0,0.0,-70.76029,-62.33781,0.57296,11.38,2.25,0.53,2.0
1758075890.69597,1758075890.61181,0.0,0.0,0.0,-66.11933,-84.56858,-3.83882,11.28,1.58,4.45,2.0
1758075890.69706,1758075890.62181,0.0,0.0,0.0,-59.18654,-102.55945,-11.17268,11.28,1.58,4.45,2.0
1758075890.71211,1758075890.63181,0.0,0.0,0.0,-51.39432,-109.03387,-23.66316,13.2,-0.86,6.29,2.0
1758075890.72888,1758075890.64181,0.0,0.0,0.0,-42.22699,-95.68395,-35.2942,13.2,-0.86,6.29,2.0
1758075890.73064,1758075890.65181,0.0,0.0,0.0,-28.13223,-80.55787,-41.13837,18.49,-3.66,4.91,2.0
1758075890.74589,1758075890.66181,0.0,0.0,0.0,-21.14215,-82.50593,-37.92981,13.49,-2.81,3.5,2.0
1758075890.74815,1758075890.67181,0.0,0.0,0.0,-18.85031,-76.20339,-35.06502,13.49,-2.81,3.5,2.0
1758075890.76276,1758075890.68181,0.0,0.0,0.0,-19.53786,-67.72362,-29.33544,10.54,-0.06,2.82,2.0
1758075890.77894,1758075890.69181,0.0,0.0,0.0,-25.8404,-54.71747,-19.70975,10.54,-0.06,2.82,2.0
1758075890.78009,1758075890.70181,0.0,0.0,0.0,-31.85646,-48.41494,-13.86558,10.22,1.45,2.0,2.0
1758075890.79571,1758075890.71181,0.0,0.0,0.0,-38.15899,-41.99781,-10.19865,10.22,1.45,2.0,2.0
1758075890.79687,1758075890.72181,0.0,0.0,0.0,-43.77398,-33.17426,-8.36518,10.98,2.19,2.19,2.0
1758075890.81384,1758075890.73181,0.0,0.0,0.0,-48.35764,-17.87628,-8.76626,11.98,1.65,1.87,2.0
1758075890.81901,1758075890.74181,0.0,0.0,0.0,-47.89928,-6.13065,-10.08406,11.98,1.65,1.87,2.0
1758075890.83429,1758075890.75181,0.0,0.0,0.0,-45.55015,7.33386,-11.34457,11.8,0.05,1.26,2.0
1758075890.84994,1758075890.76181,0.0,0.0,0.0,-42.28429,19.88164,-11.86023,11.8,0.05,1.26,2.0
