timeStamp,timeStampAlign,roll,pitch,yaw,gyro_x,gyro_y,gyro_z,acc_x,acc_y,acc_z,flag_num
1758074503.0102,1758074502.87387,0.0,0.0,0.0,-33.46074,7.79223,4.1253,10.05,-0.89,1.65,2.0
1758074503.01187,1758074502.88387,0.0,0.0,0.0,-33.9764,7.44845,4.98473,9.71,-1.01,1.74,2.0
1758074503.0263,1758074502.89387,0.0,0.0,0.0,-34.14828,7.33386,5.90147,9.71,-1.01,1.74,2.0
1758074503.04469,1758074502.90387,0.0,0.0,0.0,-34.26288,6.47442,6.7609,9.6,-1.14,1.77,2.0
1758074503.04699,1758074502.91387,0.0,0.0,0.0,-34.37747,4.81285,7.21927,9.3,-1.17,1.86,2.0
1758074503.06357,1758074502.92387,0.0,0.0,0.0,-34.43476,3.89611,6.99009,9.3,-1.17,1.86,2.0
1758074503.06393,1758074502.93387,0.0,0.0,0.0,-35.00772,0.74485,6.7609,9.09,-1.05,1.84,2.0
1758074503.07967,1758074502.94387,0.0,0.0,0.0,-35.98175,-0.34377,6.47442,9.09,-1.05,1.84,2.0
1758074503.08206,1758074502.95387,0.0,0.0,0.0,-38.27358,-2.29183,6.58902,9.48,-0.84,2.18,2.0
1758074503.09859,1758074502.96387,0.0,0.0,0.0,-40.7373,-3.60963,6.53172,9.48,-0.84,2.18,2.0
1758074503.10063,1758074502.97387,0.0,0.0,0.0,-43.31561,-5.50039,6.70361,9.38,-0.64,2.27,2.0
1758074503.11664,1758074502.98387,0.0,0.0,0.0,-47.89928,-6.53172,7.04738,9.38,-0.64,2.27,2.0
1758074503.13338,1758074502.99387,0.0,0.0,0.0,-51.10783,-7.39116,7.44845,9.17,-0.68,2.21,2.0
1758074503.13498,1758074503.00387,0.0,0.0,0.0,-54.02992,-6.41713,7.73493,9.03,-1.05,1.68,2.0
1758074503.15038,1758074503.01387,0.0,0.0,0.0,-56.89471,-4.64096,7.39116,9.03,-1.05,1.68,2.0
1758074503.15184,1758074503.02387,0.0,0.0,0.0,-59.87409,0.40107,5.78687,9.33,-1.63,1.24,2.0
1758074503.16638,1758074503.03387,0.0,0.0,0.0,-60.44705,5.72958,3.55234,9.33,-1.63,1.24,2.0
1758074503.17143,1758074503.04387,0.0,0.0,0.0,-59.53032,13.06344,1.08862,10.51,-2.53,0.95,2.0
1758074503.18637,1758074503.05387,0.0,0.0,0.0,-57.29578,19.88164,-1.83346,10.51,-2.53,0.95,2.0
1758074503.20339,1758074503.06387,0.0,0.0,0.0,-50.3057,30.53865,-5.61499,11.69,-3.73,0.91,2.0
1758074503.20699,1758074503.07387,0.0,0.0,0.0,-43.37291,35.2369,-6.58902,11.78,-4.44,0.93,2.0
1758074503.20986,1758074503.08387,0.0,0.0,0.0,-35.92446,35.86716,-7.39116,11.78,-4.44,0.93,2.0
1758074503.22568,1758074503.09387,0.0,0.0,0.0,-27.78845,34.49206,-6.7609,10.44,-4.28,0.64,2.0
1758074503.2418,1758074503.10387,0.0,0.0,0.0,-15.58445,31.79916,-4.98473,10.44,-4.28,0.64,2.0
1758074503.24342,1758074503.11387,0.0,0.0,0.0,-8.25059,28.30412,-1.83346,9.96,-3.61,0.61,2.0
1758074503.25845,1758074503.12387,0.0,0.0,0.0,-2.46372,28.476,0.51566,9.96,-3.61,0.61,2.0
1758074503.26075,1758074503.13387,0.0,0.0,0.0,1.48969,29.39274,2.11994,10.22,-3.22,0.74,2.0
1758074503.27656,1758074503.14387,0.0,0.0,0.0,5.72958,26.47065,4.0107,9.34,-3.17,1.13,2.0
1758074503.29273,1758074503.15387,0.0,0.0,0.0,7.62034,22.51724,4.98473,9.34,-3.17,1.13,2.0
1758074503.29307,1758074503.16387,0.0,0.0,0.0,8.65166,18.56383,6.18794,8.52,-3.05,0.95,2.0
1758074503.3087,1758074503.17387,0.0,0.0,0.0,9.11003,14.32395,6.99009,8.52,-3.05,0.95,2.0
1758074503.30964,1758074503.18387,0.0,0.0,0.0,9.22462,9.91217,7.39116,8.31,-2.83,0.66,2.0
1758074503.32476,1758074503.19387,0.0,0.0,0.0,8.65166,9.11003,6.53172,8.31,-2.83,0.66,2.0
1758074503.34047,1758074503.20387,0.0,0.0,0.0,7.73493,9.85487,4.35448,8.64,-2.44,0.66,2.0
1758074503.34164,1758074503.21387,0.0,0.0,0.0,7.33386,14.20935,-0.11459,8.64,-2.44,0.66,2.0
1758074503.35768,1758074503.22387,0.0,0.0,0.0,7.62034,16.50119,-3.60963,9.04,-2.12,0.89,2.0
1758074503.35894,1758074503.23387,0.0,0.0,0.0,8.42248,17.93358,-7.04738,9.02,-2.07,0.97,2.0
1758074503.37404,1758074503.24387,0.0,0.0,0.0,9.91217,20.79837,-10.02676,9.02,-2.07,0.97,2.0
1758074503.39078,1758074503.25387,0.0,0.0,0.0,13.23533,26.87172,-13.06344,9.45,-2.38,1.07,2.0
1758074503.39169,1758074503.26387,0.0,0.0,0.0,15.92823,29.50733,-14.43854,9.45,-2.38,1.07,2.0
1758074503.40672,1758074503.27387,0.0,0.0,0.0,18.62113,30.93972,-15.46986,9.55,-2.86,1.17,2.0
1758074503.40797,1758074503.28387,0.0,0.0,0.0,21.08485,32.08564,-16.04282,9.55,-2.86,1.17,2.0
1758074503.42555,1758074503.29387,0.0,0.0,0.0,24.57989,33.46074,-16.67307,9.64,-3.08,1.47,2.0
1758074503.44156,1758074503.30387,0.0,0.0,0.0,26.52795,33.74722,-16.84496,9.71,-2.97,1.73,2.0
1758074503.44548,1758074503.31387,0.0,0.0,0.0,28.36141,32.6013,-16.67307,9.71,-2.97,1.73,2.0
1758074503.46082,1758074503.32387,0.0,0.0,0.0,30.13758,30.25217,-16.272,9.56,-2.66,1.96,2.0
1758074503.46166,1758074503.33387,0.0,0.0,0.0,33.63263,23.0329,-14.9542,9.56,-2.66,1.96,2.0
1758074503.47659,1758074503.34387,0.0,0.0,0.0,35.98175,17.36062,-14.15206,9.25,-2.42,1.77,2.0
1758074503.47774,1758074503.35387,0.0,0.0,0.0,38.61736,11.51645,-13.69369,9.25,-2.42,1.77,2.0
1758074503.49531,1758074503.36387,0.0,0.0,0.0,41.42485,5.90147,-13.5218,8.92,-2.36,1.49,2.0
1758074503.51085,1758074503.37387,0.0,0.0,0.0,46.1231,-2.86479,-13.5791,8.6,-2.42,1.46,2.0
1758074503.51202,1758074503.38387,0.0,0.0,0.0,48.8733,-9.4538,-13.40721,8.6,-2.42,1.46,2.0
1758074503.52683,1758074503.39387,0.0,0.0,0.0,51.45161,-16.50119,-12.89155,8.96,-2.41,2.15,2.0
1758074503.53042,1758074503.40387,0.0,0.0,0.0,53.62885,-22.97561,-11.28727,8.96,-2.41,2.15,2.0
1758074503.54679,1758074503.41387,0.0,0.0,0.0,53.68615,-30.36677,-10.08406,10.68,-1.8,3.09,2.0
1758074503.55089,1758074503.42387,0.0,0.0,0.0,51.73809,-33.9764,-8.99544,10.68,-1.8,3.09,2.0
1758074503.56684,1758074503.43387,0.0,0.0,0.0,47.78468,-37.75792,-8.65166,12.0,-0.76,2.98,2.0
1758074503.57145,1758074503.44387,0.0,0.0,0.0,40.16434,-28.99167,-10.71431,12.0,-0.76,2.98,2.0
1758074503.58689,1758074503.45387,0.0,0.0,0.0,34.37747,-18.56383,-12.71966,11.17,-0.44,1.75,2.0
1758074503.58893,1758074503.46387,0.0,0.0,0.0,29.62192,-3.66693,-13.40721,10.24,-0.64,1.18,2.0
1758074503.60633,1758074503.47387,0.0,0.0,0.0,25.26744,9.5684,-13.98017,10.24,-0.64,1.18,2.0
1758074503.6081,1758074503.48387,0.0,0.0,0.0,22.34536,9.96947,-17.13144,8.94,-1.02,2.16,2.0
1758074503.6258,1758074503.49387,0.0,0.0,0.0,19.88164,-8.88085,-17.30333,8.94,-1.02,2.16,2.0
1758074503.64222,1758074503.50387,0.0,0.0,0.0,18.9649,-13.86558,-15.35527,7.36,-1.01,2.85,2.0
1758074503.64282,1758074503.51387,0.0,0.0,0.0,18.62113,-7.62034,-14.20935,7.36,-1.01,2.85,2.0
1758074503.65774,1758074503.52387,0.0,0.0,0.0,20.16812,-2.29183,-12.49048,11.29,-1.07,2.87,2.0
1758074503.66065,1758074503.53387,0.0,0.0,0.0,21.7151,-4.52637,-11.22997,11.04,-0.79,3.29,2.0
1758074503.67593,1758074503.54387,0.0,0.0,0.0,23.0329,-4.58366,-9.68299,11.04,-0.79,3.29,2.0
1758074503.69193,1758074503.55387,0.0,0.0,0.0,24.00693,-0.85944,-8.59437,11.67,-0.79,3.97,2.0
1758074503.69308,1758074503.56387,0.0,0.0,0.0,24.57989,2.6929,-9.96947,11.67,-0.79,3.97,2.0
1758074503.70794,1758074503.57387,0.0,0.0,0.0,23.37668,1.43239,-11.51645,10.62,-0.65,3.33,2.0
1758074503.70976,1758074503.58387,0.0,0.0,0.0,21.7724,0.51566,-13.17803,10.62,-0.65,3.33,2.0
1758074503.72657,1758074503.59387,0.0,0.0,0.0,20.68378,1.48969,-15.41257,9.66,-0.39,4.04,2.0
1758074503.74195,1758074503.60387,0.0,0.0,0.0,21.31403,2.11994,-16.10011,9.16,-0.34,3.68,2.0
1758074503.74287,1758074503.61387,0.0,0.0,0.0,22.74642,1.71887,-16.3293,9.16,-0.34,3.68,2.0
1758074503.75775,1758074503.62387,0.0,0.0,0.0,24.92367,0.74485,-15.69904,8.96,-0.55,3.7,2.0
1758074503.75885,1758074503.63387,0.0,0.0,0.0,29.22085,-0.45837,-14.49583,8.96,-0.55,3.7,2.0
1758074503.77424,1758074503.64387,0.0,0.0,0.0,32.88778,-3.60963,-11.34457,9.28,-0.88,3.45,2.0
1758074503.78995,1758074503.65387,0.0,0.0,0.0,34.89313,-1.03132,-10.54242,9.28,-0.88,3.45,2.0
1758074503.79117,1758074503.66387,0.0,0.0,0.0,37.18496,-0.97403,-8.42248,10.12,-0.66,3.36,2.0
1758074503.80572,1758074503.67387,0.0,0.0,0.0,39.24761,-0.40107,-5.95876,10.12,-0.66,3.1,2.0
1758074503.8217,1758074503.68387,0.0,0.0,0.0,39.99245,0.40107,-4.81285,9.89,0.0,3.1,2.0
1758074503.82398,1758074503.69387,0.0,0.0,0.0,40.10705,2.29183,-4.58366,9.67,0.69,2.98,2.0
1758074503.83898,1758074503.70387,0.0,0.0,0.0,39.99245,3.95341,-4.52637,9.67,0.69,2.98,2.0
1758074503.84105,1758074503.71387,0.0,0.0,0.0,38.73195,6.47442,-5.32851,9.37,1.11,2.86,2.0
1758074503.85601,1758074503.72387,0.0,0.0,0.0,37.58603,8.30789,-5.90147,9.37,1.11,2.86,2.0
1758074503.87207,1758074503.73387,0.0,0.0,0.0,36.49741,9.11003,-6.24524,9.08,1.06,2.71,2.0
1758074503.87374,1758074503.74387,0.0,0.0,0.0,35.52338,10.31324,-6.41713,9.08,1.06,2.71,2.0
1758074503.88899,1758074503.75387,0.0,0.0,0.0,33.68992,12.204,-5.55769,8.84,0.91,2.53,2.0
1758074503.8904,1758074503.76387,0.0,0.0,0.0,32.37212,13.00614,-4.29718,8.9,0.9,2.37,2.0
1758074503.90502,1758074503.77387,0.0,0.0,0.0,30.99702,15.24068,-2.63561,8.9,0.9,2.37,2.0
1758074503.92101,1758074503.78387,0.0,0.0,0.0,29.39274,16.61578,-1.08862,9.15,1.02,2.42,2.0
1758074503.92234,1758074503.79387,0.0,0.0,0.0,26.69983,17.01685,1.20321,9.15,1.02,2.42,2.0
1758074503.9369,1758074503.80387,0.0,0.0,0.0,24.4653,17.53251,2.23454,9.02,1.1,2.59,2.0
1758074503.9388,1758074503.81387,0.0,0.0,0.0,21.7151,17.99088,2.06265,9.02,1.1,2.59,2.0
1758074503.95604,1758074503.82387,0.0,0.0,0.0,17.36062,17.6471,1.14592,8.91,1.13,2.5,2.0
1758074503.97208,1758074503.83387,0.0,0.0,0.0,14.49583,17.76169,0.57296,8.58,1.2,2.41,2.0
1758074503.97538,1758074503.84387,0.0,0.0,0.0,12.08941,16.90226,0.0573,8.58,1.2,2.41,2.0
1758074503.99097,1758074503.85387,0.0,0.0,0.0,9.96947,16.3293,-0.11459,8.17,1.18,2.41,2.0
1758074503.99225,1758074503.86387,0.0,0.0,0.0,7.21927,11.28727,0.68755,8.17,1.18,2.41,2.0
1758074504.0071,1758074503.87387,0.0,0.0,0.0,5.21392,7.04738,1.20321,7.71,1.16,2.51,2.0
1758074504.00971,1758074503.88387,0.0,0.0,0.0,3.26586,0.80214,3.03668,7.71,1.16,2.51,2.0
1758074504.0258,1758074503.89387,0.0,0.0,0.0,0.74485,-4.98473,5.21392,7.66,1.3,2.7,2.0
1758074504.04178,1758074503.90387,0.0,0.0,0.0,-4.46907,-14.49583,9.05273,8.2,1.59,2.88,2.0
1758074504.04571,1758074503.91387,0.0,0.0,0.0,-8.47978,-18.33465,11.63104,8.2,1.59,2.88,2.0
1758074504.06086,1758074503.92387,0.0,0.0,0.0,-13.75099,-20.85567,13.5218,9.19,1.95,3.05,2.0
1758074504.06208,1758074503.93387,0.0,0.0,0.0,-19.48057,-22.51724,14.09476,9.19,1.95,3.05,2.0
1758074504.07681,1758074503.94387,0.0,0.0,0.0,-28.24682,-19.59516,13.17803,9.77,2.0,2.9,2.0
1758074504.07916,1758074503.95387,0.0,0.0,0.0,-32.88778,-15.58445,11.86023,9.77,2.0,2.9,2.0
1758074504.09612,1758074503.96387,0.0,0.0,0.0,-36.6693,-12.08941,9.4538,10.05,1.37,2.48,2.0
1758074504.11211,1758074503.97387,0.0,0.0,0.0,-39.19032,-9.85487,7.10468,10.05,1.37,2.48,2.0
1758074504.11548,1758074503.98387,0.0,0.0,0.0,-41.36755,-7.04738,3.32316,9.78,0.46,2.05,2.0
1758074504.13085,1758074503.99387,0.0,0.0,0.0,-41.76862,-7.16197,1.83346,9.72,-0.05,1.93,2.0
1758074504.13207,1758074504.00387,0.0,0.0,0.0,-42.1124,-7.67763,0.97403,9.72,-0.05,1.93,2.0
1758074504.14717,1758074504.01387,0.0,0.0,0.0,-42.1124,-6.24524,1.3178,9.92,-0.11,1.87,2.0
1758074504.1483,1758074504.02387,0.0,0.0,0.0,-42.62806,-3.83882,2.11994,9.92,-0.11,1.87,2.0
1758074504.1652,1758074504.03387,0.0,0.0,0.0,-43.20102,-2.86479,3.49504,9.85,0.09,1.85,2.0
1758074504.18089,1758074504.04387,0.0,0.0,0.0,-44.11775,-3.83882,5.21392,9.85,0.09,1.85,2.0
1758074504.18379,1758074504.05387,0.0,0.0,0.0,-46.1804,-5.84417,7.04738,9.41,0.29,1.8,2.0
1758074504.20113,1758074504.06387,0.0,0.0,0.0,-48.64412,-7.79223,7.39116,9.3,0.44,1.7,2.0
1758074504.20206,1758074504.07387,0.0,0.0,0.0,-50.99325,-9.11003,6.7609,9.3,0.44,1.7,2.0
1758074504.21786,1758074504.08387,0.0,0.0,0.0,-53.91533,-11.00079,5.21392,9.35,0.57,1.65,2.0
1758074504.21904,1758074504.09387,0.0,0.0,0.0,-57.75415,-15.29797,2.11994,9.35,0.57,1.65,2.0
1758074504.23393,1758074504.10387,0.0,0.0,0.0,-59.53032,-22.40265,-0.68755,9.18,0.62,1.61,2.0
1758074504.25094,1758074504.11387,0.0,0.0,0.0,-60.38975,-34.37747,-0.45837,9.18,0.62,1.61,2.0
1758074504.25258,1758074504.12387,0.0,0.0,0.0,-60.16057,-38.61736,-2.23454,8.82,0.23,1.39,2.0
1758074504.26827,1758074504.13387,0.0,0.0,0.0,-59.35843,-41.76862,-1.48969,9.77,-0.08,0.86,2.0
1758074504.26914,1758074504.14387,0.0,0.0,0.0,-59.07195,-40.7946,-0.74485,9.77,-0.08,0.86,2.0
1758074504.28505,1758074504.15387,0.0,0.0,0.0,-58.78547,-32.71589,1.3178,10.54,-0.45,1.85,2.0
1758074504.30094,1758074504.16387,0.0,0.0,0.0,-58.90006,-8.65166,2.57831,10.54,-0.45,1.85,2.0
1758074504.30256,1758074504.17387,0.0,0.0,0.0,-60.38975,-13.75099,4.69825,10.81,-0.4,2.25,2.0
1758074504.31734,1758074504.18387,0.0,0.0,0.0,-65.08801,-20.97026,0.97403,10.81,-0.4,2.25,2.0
1758074504.31817,1758074504.19387,0.0,0.0,0.0,-67.9528,-29.50733,-0.11459,8.37,-0.09,2.17,2.0
1758074504.33398,1758074504.20387,0.0,0.0,0.0,-69.49979,-31.2262,-1.14592,8.37,-0.09,2.17,2.0
1758074504.35125,1758074504.21387,0.0,0.0,0.0,-70.81759,-23.26209,-0.17189,9.94,0.29,0.17,2.0
1758074504.35215,1758074504.22387,0.0,0.0,0.0,-70.6457,-15.58445,0.80214,10.64,0.03,1.02,2.0
1758074504.36832,1758074504.23387,0.0,0.0,0.0,-67.89551,-8.30789,2.92208,10.64,0.03,1.02,2.0
1758074504.37117,1758074504.24387,0.0,0.0,0.0,-61.24919,-1.83346,4.98473,10.03,-1.08,2.27,2.0
1758074504.38639,1758074504.25387,0.0,0.0,0.0,-56.20716,-1.3751,5.21392,10.03,-1.08,2.27,2.0
1758074504.40239,1758074504.26387,0.0,0.0,0.0,-51.90998,-3.20856,4.46907,9.54,-1.67,1.64,2.0
1758074504.40322,1758074504.27387,0.0,0.0,0.0,-49.21708,-5.72958,3.60963,9.54,-1.67,1.64,2.0
1758074504.41886,1758074504.28387,0.0,0.0,0.0,-48.9879,-8.99544,3.38045,9.69,-1.42,0.64,2.0
1758074504.42164,1758074504.29387,0.0,0.0,0.0,-50.47758,-11.63104,3.49504,9.91,-1.01,0.74,2.0
1758074504.4372,1758074504.30387,0.0,0.0,0.0,-52.54023,-14.20935,3.26586,9.91,-1.01,0.74,2.0
1758074504.43979,1758074504.31387,0.0,0.0,0.0,-54.88936,-15.69904,2.7502,10.13,-0.68,1.73,2.0
1758074504.45636,1758074504.32387,0.0,0.0,0.0,-58.15522,-12.77696,1.08862,10.13,-0.68,1.73,2.0
1758074504.47237,1758074504.33387,0.0,0.0,0.0,-59.41573,-8.02141,0.74485,10.91,-0.42,1.88,2.0
1758074504.47324,1758074504.34387,0.0,0.0,0.0,-59.98868,-6.18794,1.48969,10.91,-0.42,1.88,2.0
1758074504.48835,1758074504.35387,0.0,0.0,0.0,-60.61894,-8.59437,1.48969,10.79,-0.42,1.96,2.0
1758074504.49008,1758074504.36387,0.0,0.0,0.0,-61.24919,-10.8289,0.17189,10.68,-0.43,1.82,2.0
1758074504.50521,1758074504.37387,0.0,0.0,0.0,-61.36378,-7.50575,-0.51566,10.68,-0.43,1.82,2.0
1758074504.52137,1758074504.38387,0.0,0.0,0.0,-61.1346,-3.32316,-0.11459,11.54,-0.71,1.62,2.0
1758074504.52739,1758074504.39387,0.0,0.0,0.0,-61.76485,-0.74485,0.74485,11.54,-0.71,1.62,2.0
1758074504.5439,1758074504.40387,0.0,0.0,0.0,-63.48372,1.43239,2.46372,11.32,-1.07,2.06,2.0
1758074504.54679,1758074504.41387,0.0,0.0,0.0,-64.57235,2.92208,4.29718,11.32,-1.07,2.06,2.0
1758074504.56213,1758074504.42387,0.0,0.0,0.0,-65.54638,3.32316,6.24524,12.06,-1.52,2.44,2.0
1758074504.5637,1758074504.43387,0.0,0.0,0.0,-66.80688,2.34913,9.85487,12.06,-1.52,2.44,2.0
1758074504.57939,1758074504.44387,0.0,0.0,0.0,-67.72362,-3.60963,12.14671,12.39,-1.95,2.55,2.0
1758074504.5811,1758074504.45387,0.0,0.0,0.0,-68.69764,-11.74564,14.66772,10.99,-1.29,2.32,2.0
1758074504.59613,1758074504.46387,0.0,0.0,0.0,-70.41652,-22.86102,16.04282,10.99,-1.29,2.32,2.0
1758074504.6122,1758074504.47387,0.0,0.0,0.0,-74.7137,-39.13302,15.69904,9.22,-0.39,2.04,2.0
1758074504.61441,1758074504.48387,0.0,0.0,0.0,-78.43793,-45.83662,13.75099,9.22,-0.39,2.04,2.0
1758074504.62937,1758074504.49387,0.0,0.0,0.0,-82.04756,-46.46688,10.94349,8.85,0.28,1.39,2.0
1758074504.63062,1758074504.50387,0.0,0.0,0.0,-85.71449,-43.94586,7.96411,8.85,0.28,1.39,2.0
1758074504.64596,1758074504.51387,0.0,0.0,0.0,-90.87111,-40.33623,3.49504,8.41,0.49,1.52,2.0
1758074504.664,1758074504.52387,0.0,0.0,0.0,-93.90779,-39.01843,0.34377,6.85,-0.05,1.76,2.0
1758074504.66651,1758074504.53387,0.0,0.0,0.0,-95.97043,-35.75257,-2.63561,6.85,-0.05,1.76,2.0
1758074504.68211,1758074504.54387,0.0,0.0,0.0,-97.17365,-28.24682,-5.95876,7.41,-1.42,1.86,2.0
1758074504.68488,1758074504.55387,0.0,0.0,0.0,-95.91314,-12.71966,-9.68299,7.41,-1.42,1.86,2.0
1758074504.70103,1758074504.56387,0.0,0.0,0.0,-92.64729,-0.11459,-10.94349,10.16,-3.73,2.05,2.0
1758074504.70249,1758074504.57387,0.0,0.0,0.0,-87.26147,13.86558,-11.22997,10.16,-3.73,2.05,2.0
1758074504.72144,1758074504.58387,0.0,0.0,0.0,-80.32869,27.2155,-10.54242,12.72,-6.02,1.87,2.0
1758074504.72351,1758074504.59387,0.0,0.0,0.0,-66.11933,42.22699,-6.87549,12.47,-6.69,1.13,2.0
1758074504.74121,1758074504.60387,0.0,0.0,0.0,-55.06125,46.86795,-3.03668,12.47,-6.69,1.13,2.0
1758074504.75954,1758074504.61387,0.0,0.0,0.0,-44.86259,46.81066,0.34377,10.68,-5.67,0.36,2.0
1758074504.76117,1758074504.62387,0.0,0.0,0.0,-36.15364,45.77933,4.0107,10.68,-5.67,0.36,2.0
1758074504.76327,1758074504.63387,0.0,0.0,0.0,-24.63719,45.14908,4.92744,9.88,-3.84,0.16,2.0
1758074504.77928,1758074504.64387,0.0,0.0,0.0,-18.62113,43.14373,4.87014,9.88,-3.84,0.16,2.0
1758074504.78041,1758074504.65387,0.0,0.0,0.0,-14.32395,42.51347,5.27121,9.44,-2.63,-0.08,2.0
1758074504.79529,1758074504.66387,0.0,0.0,0.0,-11.57375,53.05589,3.72423,9.44,-2.63,-0.08,2.0
1758074504.81117,1758074504.67387,0.0,0.0,0.0,-11.17268,55.34772,2.6929,10.04,-2.32,0.38,2.0
1758074504.81241,1758074504.68387,0.0,0.0,0.0,-11.34457,52.82671,2.29183,8.42,-2.44,0.79,2.0
1758074504.82739,1758074504.69387,0.0,0.0,0.0,-11.97482,50.363,2.34913,8.42,-2.44,0.79,2.0
1758074504.82839,1758074504.70387,0.0,0.0,0.0,-13.40721,46.40959,2.97938,8.1,-2.66,0.84,2.0
1758074504.84451,1758074504.71387,0.0,0.0,0.0,-14.72501,42.57077,2.97938,8.1,-2.66,0.84,2.0
1758074504.8605,1758074504.72387,0.0,0.0,0.0,-16.21471,38.44547,2.34913,8.2,-2.8,0.35,2.0
1758074504.8622,1758074504.73387,0.0,0.0,0.0,-17.47521,34.26288,0.80214,8.2,-2.8,0.35,2.0
1758074504.87739,1758074504.74387,0.0,0.0,0.0,-17.6471,30.36677,-3.60963,8.61,-2.94,0.56,2.0
1758074504.87877,1758074504.75387,0.0,0.0,0.0,-15.98552,28.76248,-7.21927,9.1,-2.97,0.39,2.0
1758074504.89455,1758074504.76387,0.0,0.0,0.0,-12.83425,26.98631,-11.00079,9.1,-2.97,0.39,2.0
1758074504.91045,1758074504.77387,0.0,0.0,0.0,-8.136,24.75178,-14.03747,9.25,-3.16,0.71,2.0
1758074504.91226,1758074504.78387,0.0,0.0,0.0,0.97403,27.84575,-17.6471,9.25,-3.16,0.71,2.0
1758074504.93072,1758074504.79387,0.0,0.0,0.0,6.7609,32.14294,-19.42327,9.74,-3.57,0.63,2.0
1758074504.93199,1758074504.80387,0.0,0.0,0.0,12.204,36.84119,-20.85567,9.74,-3.57,0.63,2.0
1758074504.95043,1758074504.81387,0.0,0.0,0.0,16.73037,40.85189,-21.7724,9.69,-3.98,1.24,2.0
1758074504.95319,1758074504.82387,0.0,0.0,0.0,22.63183,42.34158,-21.7724,9.17,-3.89,1.78,2.0
1758074504.96908,1758074504.83387,0.0,0.0,0.0,25.8404,40.62271,-21.08485,9.17,-3.89,1.78,2.0
1758074504.97021,1758074504.84387,0.0,0.0,0.0,28.99167,38.56006,-19.59516,8.85,-3.24,1.78,2.0
1758074504.98525,1758074504.85387,0.0,0.0,0.0,33.00237,33.63263,-16.61578,8.85,-3.24,1.78,2.0
1758074505.00158,1758074504.86387,0.0,0.0,0.0,35.58068,28.87707,-14.78231,8.86,-2.63,1.77,2.0
1758074505.00271,1758074504.87387,0.0,0.0,0.0,37.58603,24.35071,-13.75099,8.86,-2.63,1.77,2.0
1758074505.01756,1758074504.88387,0.0,0.0,0.0,39.13302,19.76705,-13.5218,8.89,-2.54,1.67,2.0
1758074505.01927,1758074504.89387,0.0,0.0,0.0,41.08107,12.43318,-13.75099,8.89,-2.54,1.67,2.0
1758074505.03664,1758074504.90387,0.0,0.0,0.0,42.85724,7.39116,-13.75099,9.0,-2.71,1.73,2.0
1758074505.05347,1758074504.91387,0.0,0.0,0.0,44.46153,1.71887,-13.06344,9.0,-2.88,1.41,2.0
1758074505.05434,1758074504.92387,0.0,0.0,0.0,46.63877,-2.86479,-12.37589,9.0,-2.88,1.41,2.0
1758074505.06939,1758074504.93387,0.0,0.0,0.0,49.50356,-8.47978,-11.57375,9.18,-3.04,1.02,2.0
1758074505.07087,1758074504.94387,0.0,0.0,0.0,51.79538,-11.45916,-10.71431,9.18,-3.04,1.02,2.0
1758074505.08544,1758074504.95387,0.0,0.0,0.0,53.39967,-14.32395,-9.96947,9.7,-3.02,1.18,2.0
1758074505.10135,1758074504.96387,0.0,0.0,0.0,54.08722,-17.87628,-8.65166,9.7,-3.02,1.18,2.0
1758074505.10279,1758074504.97387,0.0,0.0,0.0,53.05589,-24.29341,-7.39116,10.73,-2.48,2.33,2.0
1758074505.11732,1758074504.98387,0.0,0.0,0.0,51.39432,-28.476,-6.58902,11.43,-1.42,2.93,2.0
1758074505.11849,1758074504.99387,0.0,0.0,0.0,48.07116,-31.62727,-7.04738,11.43,-1.42,2.93,2.0
1758074505.13547,1758074505.00387,0.0,0.0,0.0,43.77398,-34.77854,-7.21927,11.66,-0.46,3.12,2.0
1758074505.15164,1758074505.01387,0.0,0.0,0.0,35.63798,-34.60666,-7.39116,11.66,-0.46,3.12,2.0
1758074505.15275,1758074505.02387,0.0,0.0,0.0,28.59059,-22.23076,-6.8182,12.19,0.55,2.66,2.0
1758074505.16764,1758074505.03387,0.0,0.0,0.0,20.45459,-7.50575,-6.99009,12.19,0.55,2.66,2.0
1758074505.16854,1758074505.04387,0.0,0.0,0.0,9.68299,3.55234,-8.02141,12.05,0.93,3.13,2.0
1758074505.18541,1758074505.05387,0.0,0.0,0.0,4.18259,0.80214,-14.09476,7.77,0.12,2.61,2.0
1758074505.20219,1758074505.06387,0.0,0.0,0.0,2.97938,-24.5226,-13.23533,7.77,0.12,2.61,2.0
1758074505.20694,1758074505.07387,0.0,0.0,0.0,2.57831,-35.92446,-10.8289,5.45,-1.15,1.51,2.0
1758074505.22147,1758074505.08387,0.0,0.0,0.0,5.72958,-30.65324,-11.97482,5.45,-1.15,1.51,2.0
1758074505.22263,1758074505.09387,0.0,0.0,0.0,9.62569,-36.6693,-12.08941,7.75,-1.62,1.96,2.0
1758074505.23765,1758074505.10387,0.0,0.0,0.0,13.17803,-44.00316,-12.2613,7.75,-1.62,1.96,2.0
1758074505.23863,1758074505.11387,0.0,0.0,0.0,17.13144,-48.12846,-10.71431,8.06,-1.16,3.77,2.0
1758074505.25442,1758074505.12387,0.0,0.0,0.0,20.3973,-37.24226,-8.70896,11.62,-1.16,5.25,2.0
1758074505.27044,1758074505.13387,0.0,0.0,0.0,19.48057,-25.61122,-9.96947,11.62,-0.29,5.25,2.0
1758074505.2719,1758074505.14387,0.0,0.0,0.0,16.61578,-15.06879,-12.204,12.28,0.51,3.32,2.0
1758074505.28641,1758074505.15387,0.0,0.0,0.0,12.83425,-6.47442,-14.83961,12.28,0.51,3.32,2.0
1758074505.30329,1758074505.16387,0.0,0.0,0.0,7.73493,2.97938,-19.19409,10.87,0.25,3.18,2.0
1758074505.30681,1758074505.17387,0.0,0.0,0.0,5.90147,8.02141,-21.88699,10.87,0.25,3.18,2.0
1758074505.32353,1758074505.18387,0.0,0.0,0.0,5.78687,13.86558,-23.37668,10.19,-0.36,2.43,2.0
1758074505.3247,1758074505.19387,0.0,0.0,0.0,7.39116,18.16276,-24.00693,10.19,-0.36,2.43,2.0
1758074505.33974,1758074505.20387,0.0,0.0,0.0,12.14671,27.84575,-22.34536,10.82,-0.64,2.77,2.0
1758074505.34092,1758074505.21387,0.0,0.0,0.0,17.6471,31.74186,-20.05352,10.99,-0.53,2.71,2.0
1758074505.35573,1758074505.22387,0.0,0.0,0.0,23.0902,34.32018,-17.87628,10.99,-0.53,2.71,2.0
1758074505.37175,1758074505.23387,0.0,0.0,0.0,28.41871,35.2369,-16.10011,10.03,-0.16,2.39,2.0
1758074505.37266,1758074505.24387,0.0,0.0,0.0,35.86716,32.48671,-13.00614,10.03,-0.16,2.39,2.0
1758074505.38777,1758074505.25387,0.0,0.0,0.0,40.16434,31.51268,-11.74564,9.32,0.19,2.0,2.0
1758074505.38863,1758074505.26387,0.0,0.0,0.0,43.60209,28.07493,-9.85487,9.32,0.19,2.0,2.0
1758074505.40532,1758074505.27387,0.0,0.0,0.0,45.77933,23.49127,-9.5684,8.97,0.37,2.01,2.0
1758074505.42155,1758074505.28387,0.0,0.0,0.0,45.37826,20.22541,-9.74028,8.72,0.45,1.98,2.0
1758074505.42586,1758074505.29387,0.0,0.0,0.0,43.37291,16.90226,-10.37054,8.72,0.45,1.98,2.0
1758074505.4415,1758074505.30387,0.0,0.0,0.0,40.10705,13.40721,-11.11538,8.57,0.87,2.04,2.0
1758074505.44367,1758074505.31387,0.0,0.0,0.0,33.74722,7.84952,-11.74564,8.57,0.87,2.04,2.0
1758074505.45852,1758074505.32387,0.0,0.0,0.0,28.99167,6.13065,-11.34457,8.68,1.49,2.06,2.0
1758074505.46084,1758074505.33387,0.0,0.0,0.0,24.17882,6.18794,-11.11538,8.68,1.49,2.06,2.0
1758074505.47579,1758074505.34387,0.0,0.0,0.0,19.19409,6.18794,-10.59972,9.07,1.95,2.19,2.0
1758074505.49182,1758074505.35387,0.0,0.0,0.0,12.83425,4.87014,-10.02676,8.93,1.91,2.21,2.0
1758074505.49384,1758074505.36387,0.0,0.0,0.0,9.11003,4.23989,-9.74028,8.93,1.91,2.21,2.0
1758074505.50863,1758074505.37387,0.0,0.0,0.0,5.95876,3.95341,-9.28192,9.06,1.57,2.34,2.0
1758074505.50973,1758074505.38387,0.0,0.0,0.0,3.72423,3.72423,-8.99544,9.06,1.57,2.34,2.0
1758074505.52614,1758074505.39387,0.0,0.0,0.0,1.3178,2.86479,-8.30789,9.26,1.28,2.39,2.0
1758074505.5418,1758074505.40387,0.0,0.0,0.0,0.22918,2.86479,-7.50575,9.26,1.28,2.39,2.0
1758074505.54274,1758074505.41387,0.0,0.0,0.0,-0.22918,2.34913,-6.58902,9.46,1.06,2.56,2.0
1758074505.55777,1758074505.42387,0.0,0.0,0.0,-0.80214,2.40642,-5.4431,9.46,1.06,2.56,2.0
1758074505.559,1758074505.43387,0.0,0.0,0.0,-2.00535,3.09397,-3.60963,9.46,0.97,2.45,2.0
1758074505.57487,1758074505.44387,0.0,0.0,0.0,-3.03668,3.26586,-2.06265,9.32,1.03,2.32,2.0
1758074505.59057,1758074505.45387,0.0,0.0,0.0,-4.52637,3.03668,-1.03132,9.32,1.03,2.32,2.0
1758074505.59197,1758074505.46387,0.0,0.0,0.0,-7.50575,3.32316,0.34377,9.17,1.15,2.22,2.0
1758074505.60659,1758074505.47387,0.0,0.0,0.0,-9.74028,2.23454,1.20321,9.17,1.15,2.22,2.0
1758074505.62366,1758074505.48387,0.0,0.0,0.0,-12.49048,0.34377,2.00535,9.09,1.24,2.21,2.0
1758074505.62492,1758074505.49387,0.0,0.0,0.0,-15.87093,-1.43239,2.23454,9.09,1.24,2.21,2.0
1758074505.64068,1758074505.50387,0.0,0.0,0.0,-21.88699,-4.92744,1.3751,9.15,1.35,2.24,2.0
1758074505.64167,1758074505.51387,0.0,0.0,0.0,-26.18417,-8.25059,0.68755,9.09,1.6,2.13,2.0
1758074505.65702,1758074505.52387,0.0,0.0,0.0,-30.76784,-11.22997,-0.0573,9.09,1.6,2.13,2.0
1758074505.67297,1758074505.53387,0.0,0.0,0.0,-35.58068,-13.12073,-1.03132,9.26,1.81,2.18,2.0
1758074505.67648,1758074505.54387,0.0,0.0,0.0,-42.74266,-14.49583,-2.92208,9.26,1.81,2.18,2.0
1758074505.69201,1758074505.55387,0.0,0.0,0.0,-47.38361,-15.06879,-4.23989,9.47,1.74,2.0,2.0
1758074505.69447,1758074505.56387,0.0,0.0,0.0,-51.79538,-14.61043,-6.58902,9.47,1.74,2.0,2.0
1758074505.7099,1758074505.57387,0.0,0.0,0.0,-55.51962,-17.01685,-7.79223,9.51,1.55,1.95,2.0
1758074505.71114,1758074505.58387,0.0,0.0,0.0,-59.12925,-22.97561,-8.136,9.28,1.25,1.86,2.0
1758074505.72577,1758074505.59387,0.0,0.0,0.0,-60.61894,-23.26209,-8.25059,9.28,1.25,1.86,2.0
1758074505.74167,1758074505.60387,0.0,0.0,0.0,-60.73353,-22.28806,-7.44845,9.7,0.86,1.54,2.0
1758074505.74555,1758074505.61387,0.0,0.0,0.0,-61.07731,-20.34,-5.84417,9.7,0.86,1.54,2.0
1758074505.76068,1758074505.62387,0.0,0.0,0.0,-61.53567,-22.74642,-2.46372,9.67,0.64,1.63,2.0
1758074505.76186,1758074505.63387,0.0,0.0,0.0,-61.76485,-32.08564,-2.11994,9.67,0.64,1.63,2.0
1758074505.77695,1758074505.64387,0.0,0.0,0.0,-64.51505,-19.88164,-4.52637,9.67,0.71,1.79,2.0
1758074505.79295,1758074505.65387,0.0,0.0,0.0,-69.15601,-18.27736,-7.39116,9.67,0.71,1.79,2.0
1758074505.79387,1758074505.66387,0.0,0.0,0.0,-72.82294,-17.30333,-8.65166,10.45,0.85,1.57,2.0
1758074505.80894,1758074505.67387,0.0,0.0,0.0,-74.59911,-17.36062,-9.68299,9.86,0.92,2.21,2.0
1758074505.81031,1758074505.68387,0.0,0.0,0.0,-74.88559,-14.15206,-9.74028,9.86,0.92,2.21,2.0
1758074505.82498,1758074505.69387,0.0,0.0,0.0,-73.05212,-1.43239,-7.50575,10.24,0.7,1.47,2.0
1758074505.84195,1758074505.70387,0.0,0.0,0.0,-71.16136,6.47442,-5.09932,10.24,0.7,1.47,2.0
1758074505.84396,1758074505.71387,0.0,0.0,0.0,-69.21331,8.36518,-2.92208,10.36,0.03,1.58,2.0
1758074505.85873,1758074505.72387,0.0,0.0,0.0,-67.03606,5.84417,-1.66158,10.36,0.03,1.58,2.0
1758074505.85997,1758074505.73387,0.0,0.0,0.0,-63.42643,0.22918,-1.66158,9.63,-0.46,1.98,2.0
1758074505.87575,1758074505.74387,0.0,0.0,0.0,-60.73353,-1.60428,-2.34913,10.01,-0.59,1.5,2.0
1758074505.89199,1758074505.75387,0.0,0.0,0.0,-58.3844,-1.83346,-3.55234,10.01,-0.59,1.5,2.0
1758074505.89371,1758074505.76387,0.0,0.0,0.0,-56.60823,-2.11994,-4.81285,10.25,-0.4,1.72,2.0
1758074505.909,1758074505.77387,0.0,0.0,0.0,-54.48829,-2.34913,-6.18794,10.25,-0.4,1.72,2.0
1758074505.91032,1758074505.78387,0.0,0.0,0.0,-53.45696,-2.92208,-6.8182,9.93,-0.07,2.0,2.0
1758074505.92497,1758074505.79387,0.0,0.0,0.0,-52.9986,-3.09397,-7.96411,9.93,-0.07,2.0,2.0
1758074505.94102,1758074505.80387,0.0,0.0,0.0,-52.76942,-3.38045,-8.02141,9.8,0.18,1.96,2.0
1758074505.94196,1758074505.81387,0.0,0.0,0.0,-52.76942,-3.03668,-8.02141,9.86,0.3,1.77,2.0
1758074505.95702,1758074505.82387,0.0,0.0,0.0,-53.34238,-3.32316,-8.02141,9.86,0.3,1.77,2.0
1758074505.97306,1758074505.83387,0.0,0.0,0.0,-53.74345,-2.46372,-7.73493,9.92,0.26,1.66,2.0
1758074505.97398,1758074505.84387,0.0,0.0,0.0,-53.97263,-0.97403,-7.04738,9.92,0.26,1.66,2.0
1758074505.98904,1758074505.85387,0.0,0.0,0.0,-53.68615,1.66158,-6.24524,10.01,0.19,1.54,2.0
1758074505.98998,1758074505.86387,0.0,0.0,0.0,-53.11319,3.49504,-5.55769,10.01,0.19,1.54,2.0
1758074506.00508,1758074505.87387,0.0,0.0,0.0,-52.08187,4.98473,-4.81285,9.8,0.06,1.49,2.0
1758074506.02105,1758074505.88387,0.0,0.0,0.0,-50.01921,7.79223,-3.38045,9.8,0.06,1.49,2.0
1758074506.02205,1758074505.89387,0.0,0.0,0.0,-48.07116,9.22462,-2.11994,9.69,-0.08,1.48,2.0
1758074506.03682,1758074505.90387,0.0,0.0,0.0,-46.1231,10.54242,-0.51566,9.64,-0.27,1.4,2.0
1758074506.03962,1758074505.91387,0.0,0.0,0.0,-44.11775,12.08941,1.20321,9.64,-0.27,1.4,2.0
1758074506.05588,1758074505.92387,0.0,0.0,0.0,-40.62271,14.20935,4.35448,9.74,-0.46,1.38,2.0
1758074506.07211,1758074505.93387,0.0,0.0,0.0,-38.27358,15.06879,6.58902,9.74,-0.46,1.38,2.0
1758074506.07575,1758074505.94387,0.0,0.0,0.0,-36.21093,15.29797,8.70896,9.69,-0.69,1.3,2.0
1758074506.09112,1758074505.95387,0.0,0.0,0.0,-34.26288,15.06879,10.37054,9.69,-0.69,1.3,2.0
1758074506.09208,1758074505.96387,0.0,0.0,0.0,-31.79916,13.40721,12.08941,9.5,-0.82,1.29,2.0
1758074506.11436,1758074505.97387,0.0,0.0,0.0,-30.65324,11.51645,12.60507,9.32,-0.79,1.19,2.0
1758074506.1411,1758074505.98387,0.0,0.0,0.0,-29.9084,10.37054,13.00614,9.32,-0.79,1.19,2.0
1758074506.14448,1758074505.99387,0.0,0.0,0.0,-29.50733,10.25595,13.17803,9.48,-0.65,1.19,2.0
1758074506.15017,1758074506.00387,0.0,0.0,0.0,-29.22085,10.48513,13.98017,9.48,-0.65,1.19,2.0
1758074506.15111,1758074506.01387,0.0,0.0,0.0,-29.62192,10.25595,14.78231,9.49,-0.49,1.21,2.0
1758074506.15318,1758074506.02387,0.0,0.0,0.0,-30.13758,9.85487,15.98552,9.49,-0.49,1.21,2.0
1758074506.16819,1758074506.03387,0.0,0.0,0.0,-30.88243,8.93814,17.24603,9.28,-0.35,1.38,2.0
1758074506.1699,1758074506.04387,0.0,0.0,0.0,-31.91375,5.55769,19.42327,9.19,-0.38,1.43,2.0
1758074506.18591,1758074506.05387,0.0,0.0,0.0,-32.88778,2.29183,20.68378,9.19,-0.38,1.43,2.0
1758074506.20192,1758074506.06387,0.0,0.0,0.0,-34.09099,-1.60428,21.37133,9.38,-0.48,1.52,2.0
1758074506.20418,1758074506.07387,0.0,0.0,0.0,-35.00772,-3.83882,20.97026,9.38,-0.48,1.52,2.0
1758074506.21896,1758074506.08387,0.0,0.0,0.0,-34.32018,-7.10468,19.48057,10.78,-0.77,2.2,2.0
1758074506.2209,1758074506.09387,0.0,0.0,0.0,-32.42941,-9.74028,17.53251,10.78,-0.77,2.2,2.0
1758074506.23622,1758074506.10387,0.0,0.0,0.0,-30.25217,-15.0115,15.0115,12.6,-1.76,3.28,2.0
1758074506.25203,1758074506.11387,0.0,0.0,0.0,-25.7831,-28.30412,11.45916,12.6,-1.76,3.28,2.0
1758074506.25338,1758074506.12387,0.0,0.0,0.0,-22.63183,-37.75792,9.62569,12.72,-2.65,3.83,2.0
1758074506.26822,1758074506.13387,0.0,0.0,0.0,-19.53786,-45.09178,8.70896,11.78,-2.38,3.43,2.0
1758074506.26937,1758074506.14387,0.0,0.0,0.0,-16.73037,-47.95657,9.39651,11.78,-2.38,3.43,2.0
1758074506.28522,1758074506.15387,0.0,0.0,0.0,-13.34992,-45.77933,13.98017,10.87,-1.25,2.43,2.0
1758074506.30125,1758074506.16387,0.0,0.0,0.0,-11.86023,-43.02913,17.76169,10.87,-1.25,2.43,2.0
1758074506.30219,1758074506.17387,0.0,0.0,0.0,-11.63104,-40.33623,21.48592,8.97,-0.38,2.05,2.0
1758074506.3173,1758074506.18387,0.0,0.0,0.0,-12.49048,-37.29956,24.00693,8.97,-0.38,2.05,2.0
1758074506.31895,1758074506.19387,0.0,0.0,0.0,-16.04282,-30.76784,25.49662,7.39,-0.32,1.86,2.0
1758074506.3363,1758074506.20387,0.0,0.0,0.0,-19.25138,-25.49662,24.4653,7.17,-0.73,2.1,2.0
1758074506.35206,1758074506.21387,0.0,0.0,0.0,-22.63183,-19.13679,22.11617,7.17,-0.73,2.1,2.0
1758074506.35426,1758074506.22387,0.0,0.0,0.0,-25.8404,-11.28727,18.79302,8.4,-1.15,2.36,2.0
1758074506.36905,1758074506.23387,0.0,0.0,0.0,-29.39274,1.48969,13.23533,8.4,-1.15,2.36,2.0
1758074506.37058,1758074506.24387,0.0,0.0,0.0,-30.93972,8.42248,9.4538,10.2,-1.88,2.41,2.0
1758074506.38504,1758074506.25387,0.0,0.0,0.0,-30.65324,14.49583,6.35983,10.2,-1.88,2.41,2.0
1758074506.40127,1758074506.26387,0.0,0.0,0.0,-29.04896,19.99623,4.18259,11.38,-2.91,2.4,2.0
1758074506.40256,1758074506.27387,0.0,0.0,0.0,-23.20479,26.69983,3.55234,11.69,-3.78,1.88,2.0
1758074506.41785,1758074506.28387,0.0,0.0,0.0,-16.84496,30.36677,4.18259,11.69,-3.78,1.88,2.0
1758074506.42006,1758074506.29387,0.0,0.0,0.0,-9.96947,31.51268,5.90147,10.99,-4.09,1.55,2.0
1758074506.43632,1758074506.30387,0.0,0.0,0.0,1.14592,30.13758,10.02676,10.99,-4.09,1.55,2.0
1758074506.45203,1758074506.31387,0.0,0.0,0.0,8.36518,29.33544,13.06344,10.3,-3.89,1.29,2.0
1758074506.45322,1758074506.32387,0.0,0.0,0.0,14.03747,34.89313,15.69904,10.3,-3.89,1.29,2.0
1758074506.46812,1758074506.33387,0.0,0.0,0.0,18.22006,44.9199,16.38659,10.52,-3.24,0.92,2.0
1758074506.47003,1758074506.34387,0.0,0.0,0.0,22.57454,48.01387,16.50119,10.52,-3.24,1.39,2.0
1758074506.48585,1758074506.35387,0.0,0.0,0.0,23.94964,48.01387,15.12609,9.54,-2.76,1.39,2.0
1758074506.50204,1758074506.36387,0.0,0.0,0.0,24.98096,44.86259,14.32395,8.72,-2.31,1.46,2.0
1758074506.50324,1758074506.37387,0.0,0.0,0.0,25.43933,41.36755,14.03747,8.72,-2.31,1.46,2.0
1758074506.51809,1758074506.38387,0.0,0.0,0.0,25.61122,40.68,14.15206,8.93,-2.17,1.29,2.0
1758074506.5196,1758074506.39387,0.0,0.0,0.0,25.49662,39.82057,13.75099,8.93,-2.17,1.29,2.0
1758074506.53536,1758074506.40387,0.0,0.0,0.0,25.15285,37.35685,13.40721,8.99,-2.31,1.28,2.0
1758074506.55104,1758074506.41387,0.0,0.0,0.0,24.63719,34.14828,12.2613,8.99,-2.31,1.28,2.0
1758074506.55223,1758074506.42387,0.0,0.0,0.0,24.29341,28.24682,10.37054,8.69,-2.49,1.55,2.0
1758074506.56711,1758074506.43387,0.0,0.0,0.0,24.57989,24.23611,8.70896,8.66,-2.43,1.34,2.0
1758074506.58313,1758074506.44387,0.0,0.0,0.0,25.15285,21.7151,6.99009,8.66,-2.43,1.34,2.0
1758074506.58464,1758074506.45387,0.0,0.0,0.0,26.12688,20.3973,5.32851,8.94,-2.22,1.42,2.0
1758074506.59943,1758074506.46387,0.0,0.0,0.0,28.476,21.48592,3.03668,8.94,-2.22,1.42,2.0
1758074506.60056,1758074506.47387,0.0,0.0,0.0,30.65324,23.72045,1.66158,9.2,-2.13,1.56,2.0
1758074506.61538,1758074506.48387,0.0,0.0,0.0,33.00237,26.64254,0.85944,9.2,-2.13,1.56,2.0
1758074506.63136,1758074506.49387,0.0,0.0,0.0,36.61201,29.96569,-0.74485,9.38,-2.34,1.72,2.0
1758074506.63341,1758074506.50387,0.0,0.0,0.0,38.84654,32.08564,-1.77617,9.17,-2.68,1.76,2.0
1758074506.64824,1758074506.51387,0.0,0.0,0.0,41.25296,31.2262,-2.46372,9.17,-2.68,1.76,2.0
1758074506.64933,1758074506.52387,0.0,0.0,0.0,43.65939,29.33544,-3.26586,8.95,-2.85,1.53,2.0
1758074506.66547,1758074506.53387,0.0,0.0,0.0,47.32632,25.8404,-4.46907,8.95,-2.85,1.53,2.0
1758074506.6813,1758074506.54387,0.0,0.0,0.0,50.01921,23.26209,-4.87014,8.95,-2.84,1.34,2.0
1758074506.68233,1758074506.55387,0.0,0.0,0.0,52.48294,21.37133,-5.50039,8.95,-2.84,1.34,2.0
1758074506.69716,1758074506.56387,0.0,0.0,0.0,54.71747,19.19409,-5.84417,8.98,-2.67,1.4,2.0
1758074506.71316,1758074506.57387,0.0,0.0,0.0,56.952,14.20935,-5.90147,9.01,-2.67,1.63,2.0
1758074506.71387,1758074506.58387,0.0,0.0,0.0,58.49899,9.96947,-5.72958,9.01,-2.24,1.63,2.0
1758074506.73042,1758074506.59387,0.0,0.0,0.0,59.18654,7.10468,-6.70361,9.07,-1.74,1.53,2.0
1758074506.73161,1758074506.60387,0.0,0.0,0.0,60.27517,0.97403,-7.33386,9.07,-1.74,1.53,2.0
1758074506.7465,1758074506.61387,0.0,0.0,0.0,60.96271,-8.02141,-8.36518,8.92,-1.33,1.53,2.0
1758074506.76218,1758074506.62387,0.0,0.0,0.0,60.79083,-10.37054,-8.88085,8.92,-1.33,1.53,2.0
1758074506.7629,1758074506.63387,0.0,0.0,0.0,59.64491,-9.39651,-8.93814,10.23,-1.2,2.67,2.0
1758074506.77932,1758074506.64387,0.0,0.0,0.0,57.81144,-3.60963,-7.84952,10.23,-1.2,2.67,2.0
1758074506.78096,1758074506.65387,0.0,0.0,0.0,49.96192,9.22462,-4.92744,13.62,-0.56,5.24,2.0
1758074506.7964,1758074506.66387,0.0,0.0,0.0,42.57077,16.3293,-3.32316,15.81,1.05,6.49,2.0
1758074506.81242,1758074506.67387,0.0,0.0,0.0,34.09099,20.05352,-2.7502,15.81,1.05,6.49,2.0
1758074506.81284,1758074506.68387,0.0,0.0,0.0,26.41335,21.88699,-3.60963,13.31,1.39,5.14,2.0
1758074506.82924,1758074506.69387,0.0,0.0,0.0,18.27736,17.30333,-4.52637,13.31,1.39,5.14,2.0
1758074506.83046,1758074506.70387,0.0,0.0,0.0,14.9542,17.93358,-7.39116,9.63,0.17,3.5,2.0
1758074506.84544,1758074506.71387,0.0,0.0,0.0,13.75099,22.05888,-11.28727,9.63,0.17,3.5,2.0
1758074506.86147,1758074506.72387,0.0,0.0,0.0,16.272,15.06879,-16.272,7.69,-1.08,3.43,2.0
1758074506.86267,1758074506.73387,0.0,0.0,0.0,19.42327,9.28192,-20.22541,5.86,-1.73,4.32,2.0
1758074506.87749,1758074506.74387,0.0,0.0,0.0,22.91831,3.09397,-23.49127,5.86,-1.73,4.32,2.0
1758074506.89346,1758074506.75387,0.0,0.0,0.0,27.61657,-1.48969,-25.38203,6.92,-2.28,4.37,2.0
1758074506.89388,1758074506.76387,0.0,0.0,0.0,36.84119,-4.92744,-24.5226,6.92,-2.28,4.37,2.0
1758074506.91025,1758074506.77387,0.0,0.0,0.0,42.34158,-5.4431,-22.28806,9.09,-2.14,4.84,2.0
1758074506.91175,1758074506.78387,0.0,0.0,0.0,46.46688,-7.44845,-18.44924,9.09,-2.14,4.84,2.0
1758074506.92624,1758074506.79387,0.0,0.0,0.0,49.27437,-8.65166,-13.75099,10.15,-1.12,5.09,2.0
1758074506.94255,1758074506.80387,0.0,0.0,0.0,50.99325,-8.88085,-6.7609,10.11,-0.04,4.68,2.0
1758074506.94292,1758074506.81387,0.0,0.0,0.0,50.82136,-6.41713,-5.15662,10.11,-0.04,4.68,2.0
1758074506.96056,1758074506.82387,0.0,0.0,0.0,51.16513,-7.96411,-3.32316,8.88,0.66,4.14,2.0
1758074506.9615,1758074506.83387,0.0,0.0,0.0,51.16513,-8.36518,-2.57831,8.88,0.66,4.14,2.0
1758074506.97632,1758074506.84387,0.0,0.0,0.0,51.5662,-7.96411,-2.7502,8.57,0.91,4.0,2.0
1758074506.97745,1758074506.85387,0.0,0.0,0.0,52.08187,-8.25059,-3.95341,8.57,0.91,4.0,2.0
1758074506.99358,1758074506.86387,0.0,0.0,0.0,52.36834,-8.70896,-5.50039,8.69,0.78,3.92,2.0
1758074507.00934,1758074506.87387,0.0,0.0,0.0,52.82671,-9.68299,-7.16197,8.69,0.78,3.92,2.0
1758074507.01053,1758074506.88387,0.0,0.0,0.0,53.51426,-8.99544,-8.88085,8.75,0.54,3.78,2.0
1758074507.02528,1758074506.89387,0.0,0.0,0.0,54.02992,-7.73493,-9.22462,8.74,0.45,3.39,2.0
1758074507.04136,1758074506.90387,0.0,0.0,0.0,54.48829,-6.07335,-8.47978,8.74,0.45,3.39,2.0
1758074507.04286,1758074506.91387,0.0,0.0,0.0,55.6342,-4.1253,-6.07335,8.38,0.57,3.06,2.0
1758074507.05763,1758074506.92387,0.0,0.0,0.0,56.26446,-2.57831,-4.0107,8.38,0.57,3.06,2.0
1758074507.05964,1758074506.93387,0.0,0.0,0.0,56.89471,-1.3751,-1.3751,8.21,0.76,2.94,2.0
1758074507.07562,1758074506.94387,0.0,0.0,0.0,57.23849,-1.03132,1.43239,8.21,0.76,2.94,2.0
1758074507.09163,1758074506.95387,0.0,0.0,0.0,57.12389,0.40107,6.13065,8.26,0.9,2.92,2.0
1758074507.09298,1758074506.96387,0.0,0.0,0.0,56.66553,1.3178,9.39651,8.56,1.0,3.09,2.0
1758074507.10735,1758074506.97387,0.0,0.0,0.0,56.14987,1.60428,11.86023,8.56,1.0,3.09,2.0
1758074507.10856,1758074506.98387,0.0,0.0,0.0,55.6342,2.34913,14.20935,8.76,1.12,3.3,2.0
1758074507.12505,1758074506.99387,0.0,0.0,0.0,54.02992,1.48969,16.95955,8.76,1.12,3.3,2.0
1758074507.14064,1758074507.00387,0.0,0.0,0.0,52.71212,1.66158,17.6471,8.77,1.24,3.19,2.0
1758074507.14161,1758074507.01387,0.0,0.0,0.0,51.27972,0.68755,18.73572,8.77,1.24,3.19,2.0
1758074507.15669,1758074507.02387,0.0,0.0,0.0,49.56085,0.51566,19.19409,8.68,1.4,2.93,2.0
1758074507.15759,1758074507.03387,0.0,0.0,0.0,46.81066,-1.60428,20.34,8.62,1.63,2.79,2.0
1758074507.17459,1758074507.04387,0.0,0.0,0.0,44.17505,-2.97938,20.74107,8.62,1.63,2.79,2.0
1758074507.18942,1758074507.05387,0.0,0.0,0.0,41.42485,-3.95341,21.60051,8.75,1.85,2.67,2.0
1758074507.19099,1758074507.06387,0.0,0.0,0.0,38.1017,-4.87014,22.11617,8.75,1.85,2.67,2.0
1758074507.20544,1758074507.07387,0.0,0.0,0.0,33.17426,-3.83882,23.26209,8.85,1.97,2.55,2.0
1758074507.22168,1758074507.08387,0.0,0.0,0.0,29.56462,-2.6929,23.83505,8.85,1.97,2.55,2.0
1758074507.22294,1758074507.09387,0.0,0.0,0.0,25.55392,-0.80214,24.4653,8.87,1.95,2.55,2.0
1758074507.23764,1758074507.10387,0.0,0.0,0.0,21.7151,1.14592,25.43933,8.87,1.95,2.55,2.0
1758074507.23888,1758074507.11387,0.0,0.0,0.0,16.38659,4.0107,26.41335,8.74,1.81,2.36,2.0
1758074507.25397,1758074507.12387,0.0,0.0,0.0,12.83425,4.35448,27.04361,8.38,1.65,2.31,2.0
1758074507.26968,1758074507.13387,0.0,0.0,0.0,9.28192,2.92208,27.96034,8.38,1.65,2.31,2.0
1758074507.27091,1758074507.14387,0.0,0.0,0.0,3.89611,0.97403,29.10626,8.13,1.55,2.11,2.0
1758074507.28655,1758074507.15387,0.0,0.0,0.0,0.34377,0.0,30.25217,8.13,1.55,2.11,2.0
1758074507.28742,1758074507.16387,0.0,0.0,0.0,-3.03668,-0.97403,31.56997,8.17,1.52,2.05,2.0
1758074507.30479,1758074507.17387,0.0,0.0,0.0,-6.53172,-3.49504,32.83048,8.17,1.52,2.05,2.0
1758074507.3215,1758074507.18387,0.0,0.0,0.0,-11.80293,-8.99544,34.95043,7.89,1.59,2.03,2.0
1758074507.32268,1758074507.19387,0.0,0.0,0.0,-15.12609,-12.60507,36.21093,7.88,1.64,1.85,2.0
1758074507.33831,1758074507.20387,0.0,0.0,0.0,-18.56383,-16.67307,36.89849,7.88,1.64,1.85,2.0
1758074507.34058,1758074507.21387,0.0,0.0,0.0,-22.05888,-21.25674,37.35685,8.12,1.69,1.76,2.0
1758074507.35579,1758074507.22387,0.0,0.0,0.0,-27.1582,-26.75713,36.95578,8.12,1.69,1.76,2.0
1758074507.37182,1758074507.23387,0.0,0.0,0.0,-30.30947,-30.36677,36.03905,8.74,1.62,2.07,2.0
1758074507.37293,1758074507.24387,0.0,0.0,0.0,-33.23156,-34.26288,34.72124,8.74,1.62,2.07,2.0
1758074507.38779,1758074507.25387,0.0,0.0,0.0,-35.86716,-37.58603,32.77319,9.21,1.37,2.2,2.0
1758074507.38886,1758074507.26387,0.0,0.0,0.0,-38.73195,-41.02378,29.50733,9.69,0.86,2.13,2.0
1758074507.40571,1758074507.27387,0.0,0.0,0.0,-40.10705,-42.97184,27.33009,9.69,0.86,2.13,2.0
1758074507.42126,1758074507.28387,0.0,0.0,0.0,-41.36755,-44.11775,25.09555,9.95,0.22,1.95,2.0
1758074507.4236,1758074507.29387,0.0,0.0,0.0,-42.22699,-43.54479,23.31938,9.95,0.22,1.95,2.0
1758074507.43878,1758074507.30387,0.0,0.0,0.0,-44.63341,-42.85724,21.14215,10.26,-0.08,1.85,2.0
1758074507.43997,1758074507.31387,0.0,0.0,0.0,-46.75336,-42.97184,20.45459,10.26,-0.08,1.85,2.0
1758074507.45468,1758074507.32387,0.0,0.0,0.0,-50.2484,-52.48294,18.44924,9.86,0.15,1.74,2.0
1758074507.47079,1758074507.33387,0.0,0.0,0.0,-57.52497,-59.12925,15.92823,9.86,0.15,1.74,2.0
1758074507.4717,1758074507.34387,0.0,0.0,0.0,-62.62429,-59.12925,14.20935,9.18,0.84,1.23,2.0
1758074507.48651,1758074507.35387,0.0,0.0,0.0,-67.32255,-57.81144,12.49048,9.37,1.46,0.83,2.0
1758074507.48773,1758074507.36387,0.0,0.0,0.0,-71.44785,-57.63955,11.22997,9.37,1.46,0.83,2.0
1758074507.50384,1758074507.37387,0.0,0.0,0.0,-74.88559,-60.79083,9.96947,10.04,1.24,2.79,2.0
1758074507.52062,1758074507.38387,0.0,0.0,0.0,-73.10942,-61.70755,8.30789,10.04,1.24,2.79,2.0
1758074507.52158,1758074507.39387,0.0,0.0,0.0,-65.54638,-55.23313,4.52637,16.13,-1.21,6.35,2.0
1758074507.53685,1758074507.40387,0.0,0.0,0.0,-51.10783,-46.63877,0.74485,16.13,-1.21,6.35,2.0
1758074507.53776,1758074507.41387,0.0,0.0,0.0,-26.18417,-48.70141,-2.34913,22.82,-6.43,7.29,2.0
1758074507.55392,1758074507.42387,0.0,0.0,0.0,-12.54778,-58.3844,-2.63561,15.65,-7.65,5.04,2.0
1758074507.57086,1758074507.43387,0.0,0.0,0.0,-3.95341,-67.15066,-1.20321,15.65,-7.65,5.04,2.0
1758074507.57221,1758074507.44387,0.0,0.0,0.0,-0.0573,-68.58305,-0.68755,9.02,-4.53,1.57,2.0
1758074507.58684,1758074507.45387,0.0,0.0,0.0,0.85944,-59.07195,2.11994,9.02,-4.53,1.57,2.0
1758074507.58894,1758074507.46387,0.0,0.0,0.0,-0.34377,-49.56085,4.64096,6.75,-1.97,1.21,2.0
1758074507.60669,1758074507.47387,0.0,0.0,0.0,-2.86479,-44.00316,7.84952,6.75,-1.97,1.21,2.0
1758074507.62164,1758074507.48387,0.0,0.0,0.0,-5.84417,-40.04975,11.57375,4.84,-0.7,2.51,2.0
1758074507.63105,1758074507.49387,0.0,0.0,0.0,-10.08406,-24.63719,17.30333,6.37,-0.5,2.97,2.0
1758074507.63147,1758074507.50387,0.0,0.0,0.0,-12.08941,-8.30789,19.70975,6.37,-0.5,2.97,2.0
1758074507.64795,1758074507.51387,0.0,0.0,0.0,-12.43318,6.87549,20.45459,9.92,-1.3,2.67,2.0
1758074507.65047,1758074507.52387,0.0,0.0,0.0,-10.19865,19.70975,20.22541,9.92,-1.3,2.67,2.0
1758074507.66593,1758074507.53387,0.0,0.0,0.0,-7.84952,36.21093,18.9649,11.54,-2.4,1.74,2.0
1758074507.68194,1758074507.54387,0.0,0.0,0.0,-5.4431,41.13837,16.55848,11.54,-2.4,1.74,2.0
1758074507.68395,1758074507.55387,0.0,0.0,0.0,-3.03668,43.77398,13.40721,10.94,-3.54,0.86,2.0
1758074507.69882,1758074507.56387,0.0,0.0,0.0,1.43239,46.35228,8.42248,10.94,-3.54,0.86,2.0
1758074507.70009,1758074507.57387,0.0,0.0,0.0,4.52637,47.49821,6.41713,10.28,-4.28,0.6,2.0
1758074507.71571,1758074507.58387,0.0,0.0,0.0,7.44845,49.79003,6.13065,10.17,-4.13,0.83,2.0
1758074507.73167,1758074507.59387,0.0,0.0,0.0,9.91217,53.74345,6.18794,10.17,-4.13,0.83,2.0
1758074507.7337,1758074507.60387,0.0,0.0,0.0,13.06344,55.34772,6.99009,9.72,-3.46,1.17,2.0
1758074507.74898,1758074507.61387,0.0,0.0,0.0,15.12609,55.06125,7.44845,9.72,-3.46,1.17,2.0
1758074507.7499,1758074507.62387,0.0,0.0,0.0,17.24603,53.68615,7.79223,8.98,-2.92,1.31,2.0
1758074507.76499,1758074507.63387,0.0,0.0,0.0,19.25138,50.3057,7.79223,8.98,-2.92,1.31,2.0
1758074507.78106,1758074507.64387,0.0,0.0,0.0,21.60051,43.65939,6.53172,8.61,-2.59,1.43,2.0
1758074507.78295,1758074507.65387,0.0,0.0,0.0,22.74642,39.76327,4.98473,8.57,-2.4,1.51,2.0
1758074507.79793,1758074507.66387,0.0,0.0,0.0,23.89234,36.38282,3.89611,8.57,-2.4,1.51,2.0
1758074507.7989,1758074507.67387,0.0,0.0,0.0,25.61122,32.71589,3.32316,8.6,-2.39,1.53,2.0
1758074507.81475,1758074507.68387,0.0,0.0,0.0,28.87707,25.09555,3.26586,8.6,-2.39,1.53,2.0
1758074507.83122,1758074507.69387,0.0,0.0,0.0,31.39809,18.62113,3.83882,8.18,-2.61,1.51,2.0
1758074507.83197,1758074507.70387,0.0,0.0,0.0,33.40344,13.12073,4.23989,8.18,-2.61,1.51,2.0
1758074507.84703,1758074507.71387,0.0,0.0,0.0,35.12231,10.31324,3.83882,8.21,-2.97,1.56,2.0
1758074507.84824,1758074507.72387,0.0,0.0,0.0,38.15899,10.94349,3.26586,8.92,-3.19,1.7,2.0
1758074507.86497,1758074507.73387,0.0,0.0,0.0,39.82057,12.89155,2.40642,8.92,-3.19,1.7,2.0
1758074507.88106,1758074507.74387,0.0,0.0,0.0,41.71133,14.43854,1.20321,9.31,-3.01,1.86,2.0
1758074507.88198,1758074507.75387,0.0,0.0,0.0,43.94586,16.61578,-1.3178,9.31,-3.01,1.86,2.0
1758074507.89701,1758074507.76387,0.0,0.0,0.0,45.55015,19.76705,-3.55234,9.49,-2.57,1.76,2.0
1758074507.89792,1758074507.77387,0.0,0.0,0.0,47.38361,23.94964,-6.07335,9.49,-2.57,1.76,2.0
1758074507.91376,1758074507.78387,0.0,0.0,0.0,49.38896,27.73116,-8.25059,9.76,-2.38,1.59,2.0
1758074507.93107,1758074507.79387,0.0,0.0,0.0,52.02457,29.50733,-10.94349,9.76,-2.38,1.59,2.0
1758074507.93195,1758074507.80387,0.0,0.0,0.0,53.39967,30.48136,-12.204,9.31,-2.25,1.59,2.0
1758074507.94707,1758074507.81387,0.0,0.0,0.0,54.48829,32.14294,-13.23533,9.3,-2.17,1.56,2.0
1758074507.94798,1758074507.82387,0.0,0.0,0.0,55.57691,33.74722,-13.5218,9.3,-2.17,1.56,2.0
1758074507.96481,1758074507.83387,0.0,0.0,0.0,56.49364,32.54401,-13.46451,9.13,-1.97,1.65,2.0
1758074507.98107,1758074507.84387,0.0,0.0,0.0,57.23849,28.93437,-12.60507,9.13,-1.97,1.65,2.0
1758074507.98203,1758074507.85387,0.0,0.0,0.0,57.63955,25.49662,-11.57375,8.8,-1.75,1.88,2.0
1758074507.99692,1758074507.86387,0.0,0.0,0.0,58.09792,22.34536,-10.37054,8.8,-1.75,1.88,2.0
1758074508.00039,1758074507.87387,0.0,0.0,0.0,58.78547,17.24603,-8.99544,9.06,-1.64,1.69,2.0
1758074508.01612,1758074507.88387,0.0,0.0,0.0,59.41573,13.06344,-8.47978,9.1,-1.57,1.6,2.0
1758074508.03224,1758074507.89387,0.0,0.0,0.0,60.27517,9.68299,-8.59437,9.1,-1.57,1.6,2.0
1758074508.0333,1758074507.90387,0.0,0.0,0.0,61.59297,6.70361,-8.47978,9.23,-1.54,1.28,2.0
1758074508.04813,1758074507.91387,0.0,0.0,0.0,64.11398,2.86479,-8.76626,9.23,-1.54,1.28,2.0
1758074508.04985,1758074507.92387,0.0,0.0,0.0,66.34852,0.68755,-9.28192,9.22,-1.66,1.0,2.0
1758074508.06514,1758074507.93387,0.0,0.0,0.0,68.41116,-2.7502,-10.19865,9.22,-1.66,1.0,2.0
1758074508.08086,1758074507.94387,0.0,0.0,0.0,71.67702,-10.02676,-12.60507,9.2,-1.92,1.3,2.0
1758074508.08234,1758074507.95387,0.0,0.0,0.0,73.73967,-16.84496,-13.46451,10.01,-1.87,2.59,2.0
1758074508.09787,1758074507.96387,0.0,0.0,0.0,73.05212,-26.41335,-14.9542,10.01,-1.87,2.59,2.0
1758074508.09915,1758074507.97387,0.0,0.0,0.0,69.49979,-30.19488,-15.87093,12.06,-0.25,3.95,2.0
1758074508.11388,1758074507.98387,0.0,0.0,0.0,59.12925,-38.1017,-15.06879,12.06,-0.25,3.95,2.0
1758074508.13114,1758074507.99387,0.0,0.0,0.0,48.35764,-36.38282,-13.5791,14.37,2.17,6.29,2.0
1758074508.13214,1758074508.00387,0.0,0.0,0.0,36.95578,-20.34,-8.99544,14.37,2.17,6.29,2.0
1758074508.14824,1758074508.01387,0.0,0.0,0.0,24.98096,2.00535,-5.84417,16.45,3.83,6.05,2.0
1758074508.14939,1758074508.02387,0.0,0.0,0.0,9.11003,7.84952,-5.95876,11.47,1.98,5.3,2.0
1758074508.16492,1758074508.03387,0.0,0.0,0.0,1.14592,-7.84952,-14.61043,11.47,1.98,5.3,2.0
1758074508.18122,1758074508.04387,0.0,0.0,0.0,1.14592,-43.31561,-12.08941,4.29,-1.34,4.22,2.0
1758074508.18215,1758074508.05387,0.0,0.0,0.0,2.40642,-53.68615,-13.69369,4.29,-1.34,4.22,2.0
1758074508.20127,1758074508.06387,0.0,0.0,0.0,6.8182,-48.70141,-15.92823,7.37,-2.95,3.46,2.0
1758074508.20254,1758074508.07387,0.0,0.0,0.0,11.11538,-55.00395,-19.48057,7.37,-2.95,3.46,2.0
1758074508.21718,1758074508.08387,0.0,0.0,0.0,14.72501,-61.02001,-23.20479,7.83,-2.54,5.01,2.0
1758074508.21847,1758074508.09387,0.0,0.0,0.0,18.73572,-65.08801,-24.5226,7.83,-2.54,5.01,2.0
1758074508.2339,1758074508.10387,0.0,0.0,0.0,23.37668,-58.78547,-23.20479,9.66,-1.33,5.3,2.0
1758074508.25123,1758074508.11387,0.0,0.0,0.0,23.60586,-49.56085,-22.40265,10.72,0.32,3.37,2.0
1758074508.25235,1758074508.12387,0.0,0.0,0.0,21.94428,-38.50277,-21.88699,10.72,0.32,3.37,2.0
1758074508.2683,1758074508.13387,0.0,0.0,0.0,19.82434,-28.01764,-20.51189,9.8,1.61,3.15,2.0
1758074508.27075,1758074508.14387,0.0,0.0,0.0,17.18874,-14.61043,-18.79302,9.8,1.61,3.15,2.0
1758074508.28632,1758074508.15387,0.0,0.0,0.0,16.21471,-5.27121,-18.33465,8.89,1.71,3.06,2.0
1758074508.30195,1758074508.16387,0.0,0.0,0.0,16.95955,3.03668,-17.30333,8.89,1.71,3.06,2.0
1758074508.30317,1758074508.17387,0.0,0.0,0.0,19.13679,14.38124,-15.69904,8.73,1.14,2.47,2.0
1758074508.31795,1758074508.18387,0.0,0.0,0.0,21.31403,20.34,-13.98017,9.03,0.55,2.54,2.0
1758074508.31924,1758074508.19387,0.0,0.0,0.0,23.20479,25.61122,-11.57375,9.03,0.55,2.54,2.0
1758074508.33441,1758074508.20387,0.0,0.0,0.0,24.4653,27.84575,-10.25595,9.13,0.29,2.7,2.0
1758074508.35128,1758074508.21387,0.0,0.0,0.0,25.55392,26.24147,-8.47978,9.13,0.29,2.7,2.0
1758074508.35223,1758074508.22387,0.0,0.0,0.0,25.21014,23.60586,-7.04738,8.91,0.51,2.78,2.0
1758074508.36702,1758074508.23387,0.0,0.0,0.0,24.17882,21.94428,-5.61499,8.91,0.51,2.78,2.0
1758074508.36911,1758074508.24387,0.0,0.0,0.0,22.34536,21.48592,-4.98473,9.12,0.96,2.63,2.0
1758074508.38533,1758074508.25387,0.0,0.0,0.0,18.73572,19.82434,-4.0107,9.04,1.4,2.58,2.0
1758074508.40128,1758074508.26387,0.0,0.0,0.0,15.92823,17.18874,-3.83882,9.04,1.4,2.58,2.0
1758074508.40333,1758074508.27387,0.0,0.0,0.0,13.00614,15.35527,-3.60963,8.69,1.63,2.76,2.0
1758074508.41807,1758074508.28387,0.0,0.0,0.0,10.08406,12.77696,-3.20856,8.69,1.63,2.76,2.0
1758074508.41971,1758074508.29387,0.0,0.0,0.0,5.4431,9.4538,-2.92208,8.59,1.7,2.85,2.0
1758074508.43431,1758074508.30387,0.0,0.0,0.0,2.34913,8.25059,-2.46372,8.59,1.7,2.85,2.0
1758074508.4513,1758074508.31387,0.0,0.0,0.0,-0.40107,7.16197,-2.06265,8.82,1.71,2.92,2.0
1758074508.45303,1758074508.32387,0.0,0.0,0.0,-3.03668,6.70361,-1.3751,8.82,1.71,2.92,2.0
1758074508.46835,1758074508.33387,0.0,0.0,0.0,-6.53172,6.99009,-0.40107,9.03,1.58,3.03,2.0
1758074508.46927,1758074508.34387,0.0,0.0,0.0,-8.88085,7.50575,0.40107,9.15,1.36,2.98,2.0
1758074508.48432,1758074508.35387,0.0,0.0,0.0,-10.94349,7.67763,1.3751,9.15,1.36,2.98,2.0
1758074508.50007,1758074508.36387,0.0,0.0,0.0,-14.43854,4.18259,2.97938,8.92,1.2,2.81,2.0
1758074508.50129,1758074508.37387,0.0,0.0,0.0,-16.95955,-1.60428,3.49504,8.92,1.2,2.81,2.0
1758074508.51637,1758074508.38387,0.0,0.0,0.0,-19.88164,-8.36518,3.55234,8.48,1.25,2.63,2.0
1758074508.53239,1758074508.39387,0.0,0.0,0.0,-23.26209,-13.98017,2.86479,8.48,1.25,2.63,2.0
1758074508.53332,1758074508.40387,0.0,0.0,0.0,-28.07493,-15.98552,2.23454,8.75,1.47,2.34,2.0
1758074508.54837,1758074508.41387,0.0,0.0,0.0,-31.2262,-15.98552,1.77617,9.18,1.58,2.29,2.0
1758074508.54963,1758074508.42387,0.0,0.0,0.0,-34.43476,-16.67307,1.66158,9.18,1.58,2.29,2.0
1758074508.56436,1758074508.43387,0.0,0.0,0.0,-37.75792,-17.93358,1.43239,8.92,1.5,2.42,2.0
1758074508.5814,1758074508.44387,0.0,0.0,0.0,-42.34158,-18.85031,0.17189,8.92,1.5,2.42,2.0
1758074508.58343,1758074508.45387,0.0,0.0,0.0,-44.9199,-21.08485,-0.57296,8.8,1.32,2.07,2.0
1758074508.5993,1758074508.46387,0.0,0.0,0.0,-47.26902,-25.09555,-0.22918,8.8,1.32,2.07,2.0
1758074508.60041,1758074508.47387,0.0,0.0,0.0,-48.64412,-26.75713,0.0,8.82,1.04,1.83,2.0
1758074508.61537,1758074508.48387,0.0,0.0,0.0,-49.61814,-25.21014,1.48969,9.46,0.69,1.55,2.0
1758074508.63142,1758074508.49387,0.0,0.0,0.0,-50.76406,-23.20479,3.09397,9.46,0.69,1.55,2.0
1758074508.63342,1758074508.50387,0.0,0.0,0.0,-52.25375,-21.37133,4.64096,9.57,0.48,1.64,2.0
1758074508.64844,1758074508.51387,0.0,0.0,0.0,-50.363,-20.97026,8.93814,9.57,0.48,1.64,2.0
1758074508.64939,1758074508.52387,0.0,0.0,0.0,-58.55629,-11.57375,2.6929,10.0,0.63,1.84,2.0
1758074508.66505,1758074508.53387,0.0,0.0,0.0,-61.42108,-14.49583,0.97403,10.0,0.63,1.84,2.0
1758074508.68142,1758074508.54387,0.0,0.0,0.0,-63.77021,-16.04282,-2.00535,9.5,0.78,1.7,2.0
1758074508.68321,1758074508.55387,0.0,0.0,0.0,-63.02536,-15.46986,-2.97938,9.5,0.78,1.7,2.0
1758074508.69824,1758074508.56387,0.0,0.0,0.0,-60.90542,-18.27736,-2.11994,9.39,0.86,1.93,2.0
1758074508.69986,1758074508.57387,0.0,0.0,0.0,-58.78547,-14.03747,-1.08862,9.51,0.57,1.07,2.0
1758074508.71424,1758074508.58387,0.0,0.0,0.0,-55.97798,-8.36518,1.03132,9.51,0.57,1.07,2.0
1758074508.73151,1758074508.59387,0.0,0.0,0.0,-52.13916,-6.13065,3.66693,9.78,-0.13,1.66,2.0
1758074508.7327,1758074508.60387,0.0,0.0,0.0,-49.50356,-8.136,5.32851,9.78,-0.13,1.66,2.0
1758074508.74755,1758074508.61387,0.0,0.0,0.0,-46.63877,-10.59972,6.58902,9.28,-0.71,1.79,2.0
1758074508.74844,1758074508.62387,0.0,0.0,0.0,-44.17505,-13.00614,7.50575,9.28,-0.71,1.79,2.0
1758074508.76456,1758074508.63387,0.0,0.0,0.0,-41.13837,-15.98552,8.59437,9.56,-1.07,1.49,2.0
1758074508.78055,1758074508.64387,0.0,0.0,0.0,-39.70598,-17.99088,8.70896,9.89,-1.13,1.43,2.0
1758074508.78153,1758074508.65387,0.0,0.0,0.0,-38.50277,-18.79302,8.65166,9.89,-1.13,1.43,2.0
1758074508.79655,1758074508.66387,0.0,0.0,0.0,-37.92981,-19.13679,8.76626,10.16,-0.85,1.65,2.0
1758074508.81261,1758074508.67387,0.0,0.0,0.0,-37.87251,-16.90226,8.99544,10.16,-0.85,1.65,2.0
1758074508.81353,1758074508.68387,0.0,0.0,0.0,-38.50277,-14.83961,9.22462,10.36,-0.42,1.56,2.0
1758074508.82844,1758074508.69387,0.0,0.0,0.0,-39.53409,-13.12073,9.39651,10.36,-0.42,1.56,2.0
1758074508.82953,1758074508.70387,0.0,0.0,0.0,-40.7373,-11.57375,9.4538,10.36,-0.11,1.55,2.0
1758074508.84543,1758074508.71387,0.0,0.0,0.0,-42.1124,-7.84952,9.05273,10.5,0.12,1.57,2.0
1758074508.86164,1758074508.72387,0.0,0.0,0.0,-42.57077,-4.23989,8.42248,10.5,0.12,1.57,2.0
1758074508.8628,1758074508.73387,0.0,0.0,0.0,-42.39888,-1.14592,7.62034,10.6,0.21,1.7,2.0
1758074508.87764,1758074508.74387,0.0,0.0,0.0,-41.94051,0.40107,6.41713,10.6,0.21,1.7,2.0
1758074508.87879,1758074508.75387,0.0,0.0,0.0,-40.96649,1.66158,5.50039,10.16,0.11,1.69,2.0
1758074508.89465,1758074508.76387,0.0,0.0,0.0,-40.45082,2.63561,4.92744,10.16,0.11,1.69,2.0
1758074508.91055,1758074508.77387,0.0,0.0,0.0,-40.45082,2.97938,4.58366,9.88,-0.05,1.25,2.0
1758074508.91182,1758074508.78387,0.0,0.0,0.0,-41.42485,2.7502,4.18259,9.88,-0.05,1.25,2.0
1758074508.92634,1758074508.79387,0.0,0.0,0.0,-42.62806,3.09397,4.18259,9.61,-0.14,0.82,2.0
1758074508.94261,1758074508.80387,0.0,0.0,0.0,-44.40423,3.26586,4.23989,9.52,-0.09,0.6,2.0
1758074508.94546,1758074508.81387,0.0,0.0,0.0,-46.40959,3.32316,4.52637,9.52,-0.09,0.6,2.0
1758074508.96065,1758074508.82387,0.0,0.0,0.0,-49.38896,3.89611,6.13065,9.57,0.07,0.66,2.0
1758074508.96171,1758074508.83387,0.0,0.0,0.0,-51.27972,1.66158,7.39116,9.57,0.07,0.66,2.0
1758074508.97665,1758074508.84387,0.0,0.0,0.0,-53.34238,-3.49504,8.76626,9.5,0.19,1.05,2.0
1758074508.99266,1758074508.85387,0.0,0.0,0.0,-55.29043,-9.62569,9.28192,9.5,0.19,1.05,2.0
1758074508.99364,1758074508.86387,0.0,0.0,0.0,-58.4417,-17.13144,9.11003,9.54,0.14,1.5,2.0
1758074509.0084,1758074508.87387,0.0,0.0,0.0,-59.87409,-21.88699,8.25059,10.49,-0.16,2.17,2.0
1758074509.00966,1758074508.88387,0.0,0.0,0.0,-60.67623,-23.94964,6.18794,10.49,-0.16,2.17,2.0
1758074509.02464,1758074508.89387,0.0,0.0,0.0,-58.90006,-21.88699,3.55234,12.9,-1.29,3.32,2.0
1758074509.04054,1758074508.90387,0.0,0.0,0.0,-53.68615,-18.27736,-1.3178,12.9,-1.29,3.32,2.0
1758074509.04165,1758074508.91387,0.0,0.0,0.0,-48.24305,-17.47521,-2.92208,14.99,-2.93,4.43,2.0
1758074509.05673,1758074508.92387,0.0,0.0,0.0,-43.20102,-20.3973,-3.38045,14.99,-2.93,4.43,2.0
1758074509.07257,1758074508.93387,0.0,0.0,0.0,-39.07573,-24.80907,-1.66158,13.57,-3.41,3.69,2.0
1758074509.07366,1758074508.94387,0.0,0.0,0.0,-34.66395,-32.83048,5.15662,10.59,-1.99,1.84,2.0
1758074509.08873,1758074508.95387,0.0,0.0,0.0,-32.83048,-39.76327,10.71431,10.59,-1.99,1.84,2.0
1758074509.08969,1758074508.96387,0.0,0.0,0.0,-31.85646,-46.63877,15.87093,7.99,-0.39,1.08,2.0
1758074509.10525,1758074508.97387,0.0,0.0,0.0,-32.48671,-52.48294,21.60051,7.99,-0.39,1.08,2.0
1758074509.12179,1758074508.98387,0.0,0.0,0.0,-34.49206,-56.78012,23.54857,7.09,0.23,1.35,2.0
1758074509.12289,1758074508.99387,0.0,0.0,0.0,-37.52874,-55.7488,23.60586,7.09,0.23,1.35,2.0
1758074509.13771,1758074509.00387,0.0,0.0,0.0,-41.25296,-52.08187,22.28806,7.16,0.09,1.71,2.0
1758074509.14051,1758074509.01387,0.0,0.0,0.0,-48.70141,-42.57077,16.55848,7.16,0.09,1.71,2.0
1758074509.15676,1758074509.02387,0.0,0.0,0.0,-53.74345,-34.49206,11.28727,7.4,-0.43,2.2,2.0
1758074509.1727,1758074509.03387,0.0,0.0,0.0,-58.26981,-25.15285,4.69825,8.38,-1.16,2.4,2.0
1758074509.17448,1758074509.04387,0.0,0.0,0.0,-61.36378,-13.12073,0.45837,8.38,-1.16,2.4,2.0
1758074509.18978,1758074509.05387,0.0,0.0,0.0,-63.54102,13.75099,-5.90147,11.53,-2.22,1.91,2.0
1758074509.19095,1758074509.06387,0.0,0.0,0.0,-62.5097,31.39809,-8.59437,11.53,-2.22,1.91,2.0
1758074509.20547,1758074509.07387,0.0,0.0,0.0,-58.72818,46.00851,-8.59437,13.3,-3.56,1.17,2.0
1758074509.22175,1758074509.08387,0.0,0.0,0.0,-53.34238,50.363,-7.33386,13.3,-3.56,1.17,2.0
1758074509.22299,1758074509.09387,0.0,0.0,0.0,-44.51882,49.04519,-4.98473,11.88,-4.37,0.83,2.0
1758074509.23851,1758074509.10387,0.0,0.0,0.0,-37.24226,49.67545,-3.38045,11.25,-4.31,0.22,2.0
1758074509.23981,1758074509.11387,0.0,0.0,0.0,-30.19488,52.02457,-1.60428,11.25,-4.31,0.22,2.0
1758074509.25477,1758074509.12387,0.0,0.0,0.0,-23.31938,53.68615,0.0,10.93,-3.35,-0.19,2.0
1758074509.27082,1758074509.13387,0.0,0.0,0.0,-14.38124,53.28508,1.83346,10.93,-3.35,-0.19,2.0
1758074509.27202,1758074509.14387,0.0,0.0,0.0,-8.93814,53.74345,2.63561,9.75,-2.46,0.34,2.0
1758074509.28688,1758074509.15387,0.0,0.0,0.0,-4.46907,54.25911,3.32316,9.75,-2.46,0.34,2.0
1758074509.30275,1758074509.16387,0.0,0.0,0.0,-1.03132,55.57691,5.90147,9.06,-2.21,0.44,2.0
1758074509.30486,1758074509.17387,0.0,0.0,0.0,1.83346,58.55629,7.44845,8.66,-2.26,1.05,2.0
1758074509.32008,1758074509.18387,0.0,0.0,0.0,2.97938,55.23313,8.76626,8.66,-2.26,1.05,2.0
1758074509.32076,1758074509.19387,0.0,0.0,0.0,3.38045,50.363,9.5684,7.78,-2.44,1.14,2.0
1758074509.33589,1758074509.20387,0.0,0.0,0.0,3.03668,44.748,9.68299,7.78,-2.44,1.14,2.0
1758074509.3518,1758074509.21387,0.0,0.0,0.0,2.23454,41.31026,8.70896,8.42,-2.51,0.98,2.0
1758074509.35303,1758074509.22387,0.0,0.0,0.0,1.20321,37.64333,6.99009,8.42,-2.51,0.98,2.0
1758074509.36757,1758074509.23387,0.0,0.0,0.0,0.11459,34.60666,4.52637,8.93,-2.34,0.65,2.0
1758074509.36871,1758074509.24387,0.0,0.0,0.0,-1.14592,31.16891,-0.22918,9.29,-2.34,0.89,2.0
1758074509.38539,1758074509.25387,0.0,0.0,0.0,-0.97403,29.33544,-3.20856,9.29,-2.08,0.89,2.0
1758074509.40187,1758074509.26387,0.0,0.0,0.0,0.0,27.33009,-5.95876,9.38,-1.96,1.09,2.0
1758074509.40306,1758074509.27387,0.0,0.0,0.0,1.60428,23.60586,-8.0787,9.38,-1.96,1.09,2.0
1758074509.41789,1758074509.28387,0.0,0.0,0.0,6.58902,25.61122,-9.62569,9.52,-2.3,1.36,2.0
1758074509.41902,1758074509.29387,0.0,0.0,0.0,11.22997,30.93972,-10.08406,9.52,-2.3,1.36,2.0
1758074509.43537,1758074509.30387,0.0,0.0,0.0,16.21471,36.6693,-10.31324,10.13,-2.94,1.24,2.0
1758074509.45194,1758074509.31387,0.0,0.0,0.0,21.31403,41.48215,-9.85487,10.13,-2.94,1.24,2.0
1758074509.45307,1758074509.32387,0.0,0.0,0.0,29.33544,46.46688,-7.84952,9.82,-3.2,1.6,2.0
1758074509.46795,1758074509.33387,0.0,0.0,0.0,34.66395,47.44091,-5.61499,9.41,-2.99,1.45,2.0
1758074509.46905,1758074509.34387,0.0,0.0,0.0,39.64868,47.44091,-2.92208,9.41,-2.99,1.45,2.0
1758074509.48494,1758074509.35387,0.0,0.0,0.0,44.51882,46.75336,-0.34377,9.21,-2.87,1.33,2.0
1758074509.50071,1758074509.36387,0.0,0.0,0.0,50.363,44.51882,2.40642,9.21,-2.87,1.33,2.0
1758074509.50193,1758074509.37387,0.0,0.0,0.0,53.51426,40.68,3.95341,9.1,-2.87,1.35,2.0
1758074509.51666,1758074509.38387,0.0,0.0,0.0,55.40502,30.25217,3.95341,9.1,-2.87,1.35,2.0
1758074509.53276,1758074509.39387,0.0,0.0,0.0,56.26446,14.66772,1.43239,8.3,-2.66,1.33,2.0
1758074509.53389,1758074509.40387,0.0,0.0,0.0,57.63955,16.50119,-2.86479,9.1,-2.35,0.46,2.0
1758074509.54871,1758074509.41387,0.0,0.0,0.0,60.33246,26.64254,-2.23454,9.1,-2.35,0.46,2.0
1758074509.5507,1758074509.42387,0.0,0.0,0.0,62.33781,38.90384,-4.23989,10.64,-2.05,0.93,2.0
1758074509.56581,1758074509.43387,0.0,0.0,0.0,64.40046,47.09713,-7.84952,10.64,-2.05,0.93,2.0
1758074509.58198,1758074509.44387,0.0,0.0,0.0,66.74959,36.89849,-10.65701,8.75,-1.77,2.02,2.0
1758074509.5833,1758074509.45387,0.0,0.0,0.0,64.80153,12.83425,-16.73037,8.75,-1.77,2.02,2.0
1758074509.59791,1758074509.46387,0.0,0.0,0.0,70.53111,-18.10547,-9.33921,6.38,-1.45,1.47,2.0
1758074509.59919,1758074509.47387,0.0,0.0,0.0,74.7137,-31.74186,-6.13065,9.09,-1.61,-0.26,2.0
1758074509.6147,1758074509.48387,0.0,0.0,0.0,78.15145,-36.32552,-2.6929,9.09,-1.61,-0.26,2.0
1758074509.63091,1758074509.49387,0.0,0.0,0.0,80.61517,-36.61201,-0.57296,10.15,-1.77,-0.13,2.0
1758074509.63192,1758074509.50387,0.0,0.0,0.0,82.56322,-35.3515,2.11994,10.15,-1.77,-0.13,2.0
1758074509.64707,1758074509.51387,0.0,0.0,0.0,80.78706,-27.61657,0.68755,11.36,-1.73,3.54,2.0
1758074509.66302,1758074509.52387,0.0,0.0,0.0,76.1461,-30.59595,-2.11994,11.36,-1.73,3.54,2.0
1758074509.66418,1758074509.53387,0.0,0.0,0.0,68.98412,-36.03905,-3.38045,11.46,-0.73,4.47,2.0
1758074509.67902,1758074509.54387,0.0,0.0,0.0,58.72818,-37.12767,-2.63561,11.46,-0.73,4.47,2.0
1758074509.68072,1758074509.55387,0.0,0.0,0.0,40.39353,-31.56997,0.40107,13.24,0.84,5.1,2.0
1758074509.6958,1758074509.56387,0.0,0.0,0.0,26.47065,-25.8404,2.23454,13.7,2.19,3.49,2.0
1758074509.71205,1758074509.57387,0.0,0.0,0.0,13.12073,-19.48057,4.18259,13.7,2.19,3.49,2.0
1758074509.71291,1758074509.58387,0.0,0.0,0.0,-3.95341,-12.43318,6.47442,13.03,3.32,3.42,2.0
1758074509.72778,1758074509.59387,0.0,0.0,0.0,-11.74564,-3.38045,6.70361,13.03,3.32,3.42,2.0
1758074509.72932,1758074509.60387,0.0,0.0,0.0,-16.21471,-0.68755,4.35448,11.5,2.94,3.44,2.0
1758074509.74485,1758074509.61387,0.0,0.0,0.0,-17.53251,-2.6929,2.46372,11.5,2.94,3.44,2.0
1758074509.76328,1758074509.62387,0.0,0.0,0.0,-14.66772,-5.21392,-8.59437,8.78,0.23,3.7,2.0
1758074509.76344,1758074509.63387,0.0,0.0,0.0,-11.28727,-10.71431,-15.98552,6.57,-1.93,4.31,2.0
1758074509.77708,1758074509.64387,0.0,0.0,0.0,-5.90147,-16.61578,-22.05888,6.57,-1.93,4.31,2.0
1758074509.79312,1758074509.65387,0.0,0.0,0.0,0.68755,-21.31403,-25.89769,6.58,-2.87,5.09,2.0
1758074509.79437,1758074509.66387,0.0,0.0,0.0,12.37589,-27.10091,-27.50197,6.58,-2.87,5.09,2.0
1758074509.80908,1758074509.67387,0.0,0.0,0.0,18.9649,-26.98631,-24.63719,8.54,-3.08,5.19,2.0
1758074509.81005,1758074509.68387,0.0,0.0,0.0,23.37668,-25.89769,-21.37133,8.54,-3.08,5.19,2.0
1758074509.82518,1758074509.69387,0.0,0.0,0.0,27.33009,-23.60586,-16.90226,10.86,-1.74,4.91,2.0
1758074509.84116,1758074509.70387,0.0,0.0,0.0,31.51268,-17.6471,-10.71431,10.94,-0.25,4.02,2.0
1758074509.84212,1758074509.71387,0.0,0.0,0.0,32.88778,-12.2613,-8.25059,10.94,-0.25,4.02,2.0
1758074509.85797,1758074509.72387,0.0,0.0,0.0,33.51803,-7.62034,-6.53172,9.96,0.8,3.69,2.0
1758074509.85907,1758074509.73387,0.0,0.0,0.0,33.40344,-4.18259,-6.47442,9.96,0.8,3.69,2.0
1758074509.87597,1758074509.74387,0.0,0.0,0.0,32.08564,1.48969,-8.02141,9.17,1.38,3.51,2.0
1758074509.89217,1758074509.75387,0.0,0.0,0.0,30.53865,5.4431,-9.74028,9.17,1.38,3.51,2.0
1758074509.89312,1758074509.76387,0.0,0.0,0.0,28.41871,8.136,-11.91752,8.91,1.31,3.1,2.0
1758074509.90822,1758074509.77387,0.0,0.0,0.0,26.01229,10.8862,-14.43854,8.91,1.31,3.1,2.0
1758074509.90912,1758074509.78387,0.0,0.0,0.0,21.02755,16.90226,-15.41257,8.62,1.07,2.71,2.0
1758074509.92516,1758074509.79387,0.0,0.0,0.0,17.76169,16.04282,-15.92823,8.35,1.08,2.67,2.0
1758074509.9412,1758074509.80387,0.0,0.0,0.0,14.49583,13.69369,-15.06879,8.35,1.08,2.67,2.0
1758074509.94214,1758074509.81387,0.0,0.0,0.0,10.37054,12.54778,-13.23533,8.34,1.24,2.64,2.0
1758074509.95721,1758074509.82387,0.0,0.0,0.0,8.0787,12.08941,-11.97482,8.34,1.24,2.64,2.0
1758074509.97319,1758074509.83387,0.0,0.0,0.0,6.41713,12.77696,-9.85487,8.77,1.31,2.36,2.0
1758074509.97415,1758074509.84387,0.0,0.0,0.0,4.87014,13.00614,-7.96411,8.77,1.31,2.36,2.0
1758074509.99003,1758074509.85387,0.0,0.0,0.0,3.26586,13.17803,-5.21392,8.94,1.34,2.57,2.0
1758074509.99093,1758074509.86387,0.0,0.0,0.0,2.86479,13.5791,-3.09397,8.94,1.31,2.65,2.0
1758074510.00593,1758074509.87387,0.0,0.0,0.0,2.46372,13.5791,-1.94806,8.94,1.31,2.65,2.0
1758074510.02193,1758074509.88387,0.0,0.0,0.0,2.40642,13.5218,-0.68755,8.77,1.17,2.81,2.0
1758074510.02262,1758074509.89387,0.0,0.0,0.0,2.23454,13.46451,0.45837,8.77,1.17,2.81,2.0
1758074510.03922,1758074509.90387,0.0,0.0,0.0,2.06265,14.15206,1.03132,8.92,0.97,2.9,2.0
1758074510.0404,1758074509.91387,0.0,0.0,0.0,1.66158,14.38124,1.20321,8.92,0.97,2.9,2.0
1758074510.05523,1758074509.92387,0.0,0.0,0.0,1.20321,13.40721,1.77617,9.1,0.77,2.95,2.0
1758074510.07124,1758074509.93387,0.0,0.0,0.0,-0.34377,8.65166,2.63561,8.98,0.67,2.93,2.0
1758074510.07242,1758074509.94387,0.0,0.0,0.0,-2.40642,2.6929,2.92208,8.98,0.67,2.93,2.0
1758074510.08728,1758074509.95387,0.0,0.0,0.0,-5.4431,-4.1253,3.32316,8.83,0.79,2.63,2.0
1758074510.10321,1758074509.96387,0.0,0.0,0.0,-9.22462,-10.19865,3.03668,8.83,0.79,2.63,2.0
1758074510.10378,1758074509.97387,0.0,0.0,0.0,-15.35527,-12.2613,2.97938,9.21,1.14,2.29,2.0
1758074510.12003,1758074509.98387,0.0,0.0,0.0,-19.36597,-11.86023,2.7502,9.21,1.14,2.29,2.0
1758074510.12123,1758074509.99387,0.0,0.0,0.0,-22.91831,-13.06344,2.6929,9.41,1.39,2.48,2.0
1758074510.13606,1758074510.00387,0.0,0.0,0.0,-27.50197,-15.24068,2.7502,9.41,1.39,2.48,2.0
1758074510.15204,1758074510.01387,0.0,0.0,0.0,-30.36677,-18.90761,2.40642,8.95,1.31,2.62,2.0
1758074510.15359,1758074510.02387,0.0,0.0,0.0,-32.77319,-19.76705,2.29183,8.97,1.12,2.22,2.0
1758074510.16986,1758074510.03387,0.0,0.0,0.0,-34.37747,-21.7724,1.83346,8.97,1.12,2.22,2.0
1758074510.17108,1758074510.04387,0.0,0.0,0.0,-36.49741,-24.35071,1.3178,8.94,0.98,1.7,2.0
1758074510.18608,1758074510.05387,0.0,0.0,0.0,-36.89849,-27.84575,1.60428,8.94,0.98,1.7,2.0
1758074510.20204,1758074510.06387,0.0,0.0,0.0,-36.89849,-29.73651,2.29183,8.71,0.72,1.49,2.0
1758074510.20269,1758074510.07387,0.0,0.0,0.0,-36.26823,-29.67921,3.83882,8.71,0.72,1.49,2.0
1758074510.21808,1758074510.08387,0.0,0.0,0.0,-34.49206,-28.476,6.8182,9.02,0.58,1.31,2.0
1758074510.22004,1758074510.09387,0.0,0.0,0.0,-34.89313,-26.75713,8.93814,9.1,0.38,1.47,2.0
1758074510.23535,1758074510.10387,0.0,0.0,0.0,-32.42941,-21.14215,13.5218,9.1,0.38,1.47,2.0
1758074510.25129,1758074510.11387,0.0,0.0,0.0,-38.78925,-16.50119,8.99544,9.69,0.68,1.89,2.0
1758074510.25257,1758074510.12387,0.0,0.0,0.0,-45.26366,-17.76169,6.99009,9.69,0.68,1.89,2.0
1758074510.26716,1758074510.13387,0.0,0.0,0.0,-49.56085,-15.75634,3.66693,9.02,1.0,1.72,2.0
1758074510.26972,1758074510.14387,0.0,0.0,0.0,-51.16513,-13.17803,3.26586,9.02,1.0,1.72,2.0
1758074510.28541,1758074510.15387,0.0,0.0,0.0,-52.08187,-14.32395,4.52637,9.02,1.32,1.56,2.0
1758074510.30143,1758074510.16387,0.0,0.0,0.0,-51.73809,-9.11003,7.50575,9.24,1.02,0.99,2.0
1758074510.30347,1758074510.17387,0.0,0.0,0.0,-50.76406,-4.0107,9.96947,9.24,1.02,0.99,2.0
1758074510.31814,1758074510.18387,0.0,0.0,0.0,-48.9879,-2.00535,12.49048,9.6,0.32,1.22,2.0
1758074510.32009,1758074510.19387,0.0,0.0,0.0,-46.98254,-3.49504,16.10011,9.6,0.32,1.22,2.0
1758074510.3354,1758074510.20387,0.0,0.0,0.0,-43.54479,-8.30789,17.99088,9.36,-0.4,1.35,2.0
1758074510.35145,1758074510.21387,0.0,0.0,0.0,-41.36755,-11.17268,19.19409,9.36,-0.4,1.35,2.0
1758074510.35279,1758074510.22387,0.0,0.0,0.0,-39.3622,-14.38124,19.99623,9.78,-0.93,1.12,2.0
1758074510.36743,1758074510.23387,0.0,0.0,0.0,-36.95578,-16.90226,19.76705,9.78,-0.93,1.12,2.0
1758074510.36835,1758074510.24387,0.0,0.0,0.0,-35.86716,-18.10547,19.59516,10.03,-1.12,1.0,2.0
1758074510.38375,1758074510.25387,0.0,0.0,0.0,-34.95043,-17.76169,19.07949,9.97,-1.06,1.37,2.0
1758074510.39924,1758074510.26387,0.0,0.0,0.0,-34.72124,-17.36062,18.33465,9.97,-1.06,1.37,2.0
1758074510.40095,1758074510.27387,0.0,0.0,0.0,-35.06502,-15.58445,17.47521,9.9,-0.73,1.39,2.0
1758074510.4155,1758074510.28387,0.0,0.0,0.0,-35.63798,-13.80828,16.95955,9.9,-0.73,1.39,2.0
1758074510.43151,1758074510.29387,0.0,0.0,0.0,-36.32552,-12.60507,16.55848,10.09,-0.32,1.5,2.0
1758074510.43274,1758074510.30387,0.0,0.0,0.0,-36.61201,-11.45916,16.10011,10.09,-0.32,1.5,2.0
1758074510.44748,1758074510.31387,0.0,0.0,0.0,-37.18496,-9.05273,15.35527,10.34,0.17,1.46,2.0
1758074510.44838,1758074510.32387,0.0,0.0,0.0,-37.47144,-7.50575,14.72501,10.46,0.54,1.5,2.0
1758074510.46373,1758074510.33387,0.0,0.0,0.0,-38.21629,-6.41713,14.03747,10.46,0.54,1.5,2.0
1758074510.47948,1758074510.34387,0.0,0.0,0.0,-38.90384,-7.33386,13.40721,10.2,0.56,1.21,2.0
1758074510.48069,1758074510.35387,0.0,0.0,0.0,-40.7373,-15.58445,12.08941,10.2,0.56,1.21,2.0
1758074510.49547,1758074510.36387,0.0,0.0,0.0,-42.57077,-22.97561,10.59972,9.34,0.41,1.35,2.0
1758074510.51134,1758074510.37387,0.0,0.0,0.0,-45.03448,-28.87707,8.36518,9.34,0.41,1.35,2.0
1758074510.51241,1758074510.38387,0.0,0.0,0.0,-47.67009,-34.43476,6.13065,9.53,0.24,1.63,2.0
1758074510.52735,1758074510.39387,0.0,0.0,0.0,-49.27437,-39.53409,1.14592,11.46,-0.71,2.93,2.0
1758074510.52841,1758074510.40387,0.0,0.0,0.0,-47.38361,-38.78925,-2.40642,11.46,-0.71,2.93,2.0
1758074510.54533,1758074510.41387,0.0,0.0,0.0,-43.37291,-37.47144,-5.4431,14.92,-2.72,4.81,2.0
1758074510.56128,1758074510.42387,0.0,0.0,0.0,-35.12231,-41.02378,-6.07335,14.92,-2.72,4.81,2.0
1758074510.563,1758074510.43387,0.0,0.0,0.0,-29.8511,-48.9306,-4.18259,14.47,-4.0,4.88,2.0
1758074510.58176,1758074510.44387,0.0,0.0,0.0,-25.89769,-58.84277,-1.20321,14.47,-4.0,4.88,2.0
1758074510.58716,1758074510.45387,0.0,0.0,0.0,-21.14215,-68.35387,2.63561,11.92,-3.57,3.26,2.0
1758074510.58977,1758074510.46387,0.0,0.0,0.0,-16.95955,-75.80232,6.24524,11.92,-3.57,3.26,2.0
1758074510.60531,1758074510.47387,0.0,0.0,0.0,-14.66772,-72.88023,8.136,10.12,-1.97,1.65,2.0
1758074510.60918,1758074510.48387,0.0,0.0,0.0,-13.40721,-67.60902,9.4538,8.74,-0.85,1.6,2.0
1758074510.62428,1758074510.49387,0.0,0.0,0.0,-10.54242,-55.00395,6.99009,8.74,-0.85,1.6,2.0
1758074510.64055,1758074510.50387,0.0,0.0,0.0,-12.71966,-52.13916,9.74028,6.98,-0.79,1.5,2.0
1758074510.64147,1758074510.51387,0.0,0.0,0.0,-15.24068,-38.1017,8.36518,6.98,-0.79,1.5,2.0
1758074510.65653,1758074510.52387,0.0,0.0,0.0,-17.18874,-22.23076,8.93814,8.0,-1.53,2.6,2.0
1758074510.65854,1758074510.53387,0.0,0.0,0.0,-18.9649,-6.7609,8.88085,8.0,-1.53,2.6,2.0
1758074510.67526,1758074510.54387,0.0,0.0,0.0,-20.79837,19.88164,7.73493,8.75,-2.6,0.95,2.0
1758074510.69164,1758074510.55387,0.0,0.0,0.0,-21.02755,35.92446,6.58902,10.78,-3.53,1.62,2.0
1758074510.69278,1758074510.56387,0.0,0.0,0.0,-19.70975,45.89392,5.84417,10.78,-3.53,1.62,2.0
1758074510.70969,1758074510.57387,0.0,0.0,0.0,-18.27736,50.2484,5.09932,11.06,-3.79,1.02,2.0
1758074510.71087,1758074510.58387,0.0,0.0,0.0,-15.87093,52.36834,3.72423,11.06,-3.79,1.02,2.0
1758074510.72632,1758074510.59387,0.0,0.0,0.0,-14.32395,52.02457,2.86479,11.44,-3.52,1.07,2.0
1758074510.72943,1758074510.60387,0.0,0.0,0.0,-12.2613,53.68615,2.34913,11.44,-3.52,1.07,2.0
1758074510.74534,1758074510.61387,0.0,0.0,0.0,-8.70896,55.7488,1.66158,11.54,-2.97,0.42,2.0
1758074510.76166,1758074510.62387,0.0,0.0,0.0,-5.61499,58.90006,1.43239,10.57,-2.54,0.45,2.0
1758074510.76447,1758074510.63387,0.0,0.0,0.0,-1.43239,60.67623,1.77617,10.57,-2.54,0.45,2.0
1758074510.7816,1758074510.64387,0.0,0.0,0.0,3.26586,60.96271,3.26586,9.61,-2.52,0.69,2.0
1758074510.78437,1758074510.65387,0.0,0.0,0.0,10.54242,61.24919,6.58902,9.61,-2.52,0.69,2.0
1758074510.80166,1758074510.66387,0.0,0.0,0.0,14.38124,60.61894,8.59437,8.98,-2.59,1.01,2.0
1758074510.80452,1758074510.67387,0.0,0.0,0.0,17.30333,58.72818,9.85487,8.98,-2.59,1.01,2.0
1758074510.8217,1758074510.68387,0.0,0.0,0.0,18.73572,56.26446,10.25595,8.22,-2.59,1.16,2.0
1758074510.82578,1758074510.69387,0.0,0.0,0.0,18.50654,50.99325,9.05273,7.95,-2.59,1.2,2.0
1758074510.84142,1758074510.70387,0.0,0.0,0.0,16.95955,45.89392,7.62034,7.95,-2.39,1.2,2.0
1758074510.84301,1758074510.71387,0.0,0.0,0.0,14.72501,38.61736,5.61499,8.01,-2.05,1.15,2.0
1758074510.85978,1758074510.72387,0.0,0.0,0.0,12.08941,31.51268,3.49504,8.01,-2.05,1.15,2.0
1758074510.86129,1758074510.73387,0.0,0.0,0.0,8.76626,24.23611,0.22918,8.74,-2.05,1.06,2.0
1758074510.87639,1758074510.74387,0.0,0.0,0.0,8.02141,20.85567,-1.3178,8.74,-2.05,1.06,2.0
1758074510.87762,1758074510.75387,0.0,0.0,0.0,8.25059,19.07949,-2.11994,9.62,-2.38,1.3,2.0
1758074510.89366,1758074510.76387,0.0,0.0,0.0,9.62569,20.62648,-2.97938,9.62,-2.38,1.3,2.0
1758074510.90965,1758074510.77387,0.0,0.0,0.0,13.5218,25.26744,-4.0107,9.98,-2.77,1.54,2.0
1758074510.91064,1758074510.78387,0.0,0.0,0.0,16.84496,28.13223,-4.92744,9.87,-2.97,1.6,2.0
1758074510.9257,1758074510.79387,0.0,0.0,0.0,19.99623,30.30947,-5.95876,9.87,-2.97,1.6,2.0
1758074510.94144,1758074510.80387,0.0,0.0,0.0,23.20479,31.56997,-7.73493,9.6,-2.79,1.54,2.0
1758074510.94289,1758074510.81387,0.0,0.0,0.0,27.1582,35.2942,-8.93814,9.6,-2.79,1.54,2.0
1758074510.95745,1758074510.82387,0.0,0.0,0.0,30.02299,37.92981,-9.68299,9.78,-2.43,1.55,2.0
1758074510.95895,1758074510.83387,0.0,0.0,0.0,33.46074,39.4195,-9.5684,9.78,-2.43,1.55,2.0
1758074510.97348,1758074510.84387,0.0,0.0,0.0,38.90384,40.16434,-7.50575,9.69,-2.26,1.79,2.0
1758074510.98971,1758074510.85387,0.0,0.0,0.0,43.02913,40.27893,-4.81285,9.5,-2.49,1.77,2.0
1758074510.99092,1758074510.86387,0.0,0.0,0.0,46.86795,40.10705,-2.00535,9.5,-2.49,1.77,2.0
1758074511.00649,1758074510.87387,0.0,0.0,0.0,50.93595,38.21629,1.3751,9.06,-2.89,1.77,2.0
1758074511.00778,1758074510.88387,0.0,0.0,0.0,56.20716,35.52338,5.27121,9.06,-2.89,1.77,2.0
1758074511.0247,1758074510.89387,0.0,0.0,0.0,59.64491,32.6013,6.8182,8.81,-3.04,1.44,2.0
1758074511.04048,1758074510.90387,0.0,0.0,0.0,62.22322,22.91831,7.33386,8.81,-3.04,1.44,2.0
1758074511.04166,1758074510.91387,0.0,0.0,0.0,62.91077,13.17803,5.32851,8.11,-2.83,1.2,2.0
1758074511.05673,1758074510.92387,0.0,0.0,0.0,62.16592,-0.34377,0.40107,8.3,-2.51,0.55,2.0
1758074511.05764,1758074510.93387,0.0,0.0,0.0,62.28051,7.96411,-2.06265,8.3,-2.51,0.55,2.0
1758074511.07346,1758074510.94387,0.0,0.0,0.0,63.65561,22.23076,-2.97938,10.97,-2.12,0.67,2.0
1758074511.09051,1758074510.95387,0.0,0.0,0.0,63.88479,31.91375,-7.16197,10.97,-2.12,0.67,2.0
1758074511.09188,1758074510.96387,0.0,0.0,0.0,63.25455,32.48671,-14.09476,9.28,-1.85,1.72,2.0
1758074511.10679,1758074510.97387,0.0,0.0,0.0,65.2026,22.05888,-18.33465,9.28,-1.85,1.72,2.0
1758074511.10795,1758074510.98387,0.0,0.0,0.0,66.34852,-6.35983,-20.11082,6.96,-1.7,1.87,2.0
1758074511.12376,1758074510.99387,0.0,0.0,0.0,70.18733,-24.98096,-15.12609,6.96,-1.7,1.87,2.0
1758074511.14057,1758074511.00387,0.0,0.0,0.0,75.05748,-26.98631,-14.32395,8.19,-1.74,-0.17,2.0
1758074511.14155,1758074511.01387,0.0,0.0,0.0,78.7244,-25.21014,-12.2613,10.56,-2.01,-0.05,2.0
1758074511.15677,1758074511.02387,0.0,0.0,0.0,80.90164,-22.68913,-11.22997,10.56,-2.01,-0.05,2.0
1758074511.15778,1758074511.03387,0.0,0.0,0.0,79.98491,-23.94964,-10.31324,11.18,-1.58,3.28,2.0
1758074511.17483,1758074511.04387,0.0,0.0,0.0,75.57314,-31.51268,-8.47978,11.18,-1.58,3.28,2.0
1758074511.19079,1758074511.05387,0.0,0.0,0.0,67.37984,-37.81522,-5.4431,12.54,-0.22,6.52,2.0
1758074511.19204,1758074511.06387,0.0,0.0,0.0,56.14987,-40.85189,-0.57296,12.54,-0.22,6.52,2.0
1758074511.20657,1758074511.07387,0.0,0.0,0.0,34.77854,-34.95043,5.27121,14.17,1.38,6.29,2.0
1758074511.20805,1758074511.08387,0.0,0.0,0.0,19.70975,-30.30947,7.73493,13.74,2.6,4.18,2.0
1758074511.2239,1758074511.09387,0.0,0.0,0.0,5.95876,-26.75713,8.59437,13.74,2.6,4.18,2.0
1758074511.23984,1758074511.10387,0.0,0.0,0.0,-4.87014,-22.97561,7.33386,11.44,2.44,2.31,2.0
1758074511.24084,1758074511.11387,0.0,0.0,0.0,-15.41257,-18.27736,1.94806,11.44,2.44,2.31,2.0
1758074511.25591,1758074511.12387,0.0,0.0,0.0,-18.33465,-17.53251,-3.60963,8.52,1.46,2.73,2.0
1758074511.2719,1758074511.13387,0.0,0.0,0.0,-18.79302,-21.60051,-10.8862,8.52,1.46,2.73,2.0
1758074511.27281,1758074511.14387,0.0,0.0,0.0,-16.67307,-23.54857,-17.47521,5.97,-0.16,3.53,2.0
1758074511.28795,1758074511.15387,0.0,0.0,0.0,-11.34457,-28.76248,-25.26744,6.24,-1.1,4.79,2.0
1758074511.28885,1758074511.16387,0.0,0.0,0.0,-6.18794,-30.53865,-28.64789,6.24,-1.1,4.79,2.0
1758074511.30397,1758074511.17387,0.0,0.0,0.0,-1.14592,-28.93437,-29.9084,8.88,-0.98,4.88,2.0
1758074511.31965,1758074511.18387,0.0,0.0,0.0,3.38045,-26.87172,-30.13758,8.88,-0.98,4.88,2.0
1758074511.32084,1758074511.19387,0.0,0.0,0.0,9.05273,-22.28806,-27.04361,11.56,-0.72,4.81,2.0
1758074511.33608,1758074511.20387,0.0,0.0,0.0,11.74564,-18.85031,-23.31938,11.56,-0.72,4.81,2.0
1758074511.35196,1758074511.21387,0.0,0.0,0.0,14.32395,-15.64175,-19.48057,11.97,-0.44,4.4,2.0
1758074511.35286,1758074511.22387,0.0,0.0,0.0,16.73037,-11.45916,-15.12609,11.97,-0.44,4.4,2.0
1758074511.36795,1758074511.23387,0.0,0.0,0.0,20.85567,-4.81285,-13.34992,10.25,-0.19,3.67,2.0
1758074511.36902,1758074511.24387,0.0,0.0,0.0,23.60586,-0.57296,-12.43318,9.06,0.22,3.32,2.0
1758074511.38398,1758074511.25387,0.0,0.0,0.0,26.24147,3.09397,-12.08941,9.06,0.22,3.32,2.0
1758074511.40079,1758074511.26387,0.0,0.0,0.0,28.93437,8.88085,-12.77696,8.9,0.74,3.17,2.0
1758074511.40224,1758074511.27387,0.0,0.0,0.0,29.73651,12.71966,-13.69369,8.9,0.74,3.17,2.0
1758074511.41699,1758074511.28387,0.0,0.0,0.0,30.02299,15.29797,-14.66772,8.85,1.09,2.83,2.0
1758074511.41836,1758074511.29387,0.0,0.0,0.0,29.33544,15.0115,-15.58445,8.85,1.09,2.83,2.0
1758074511.43368,1758074511.30387,0.0,0.0,0.0,26.81443,12.89155,-16.10011,8.31,1.29,2.55,2.0
1758074511.45087,1758074511.31387,0.0,0.0,0.0,24.17882,11.57375,-16.21471,8.36,1.56,2.44,2.0
1758074511.45184,1758074511.32387,0.0,0.0,0.0,21.02755,11.17268,-15.29797,8.36,1.56,2.44,2.0
1758074511.46699,1758074511.33387,0.0,0.0,0.0,17.53251,11.97482,-14.66772,8.85,1.76,2.32,2.0
1758074511.46818,1758074511.34387,0.0,0.0,0.0,12.77696,12.49048,-12.37589,8.85,1.76,2.32,2.0
1758074511.48399,1758074511.35387,0.0,0.0,0.0,9.85487,12.49048,-11.00079,8.88,1.74,2.45,2.0
1758074511.50001,1758074511.36387,0.0,0.0,0.0,7.39116,12.83425,-8.99544,8.88,1.74,2.45,2.0
1758074511.50124,1758074511.37387,0.0,0.0,0.0,5.32851,12.49048,-7.21927,8.9,1.62,2.54,2.0
1758074511.51602,1758074511.38387,0.0,0.0,0.0,2.86479,11.63104,-4.64096,8.93,1.51,2.61,2.0
1758074511.53208,1758074511.39387,0.0,0.0,0.0,1.60428,10.8289,-3.09397,8.93,1.51,2.61,2.0
1758074511.53377,1758074511.40387,0.0,0.0,0.0,0.57296,10.48513,-2.46372,9.07,1.38,2.67,2.0
1758074511.54903,1758074511.41387,0.0,0.0,0.0,-0.22918,10.31324,-1.66158,9.07,1.38,2.67,2.0
1758074511.54996,1758074511.42387,0.0,0.0,0.0,-1.43239,10.25595,-1.3178,9.2,1.25,2.82,2.0
1758074511.56507,1758074511.43387,0.0,0.0,0.0,-2.46372,9.96947,-1.14592,9.2,1.25,2.82,2.0
1758074511.58104,1758074511.44387,0.0,0.0,0.0,-3.72423,9.4538,-0.97403,9.15,1.15,2.86,2.0
1758074511.5824,1758074511.45387,0.0,0.0,0.0,-5.90147,8.76626,-0.34377,9.15,1.15,2.86,2.0
1758074511.59676,1758074511.46387,0.0,0.0,0.0,-7.73493,6.87549,0.40107,9.07,1.13,2.84,2.0
1758074511.59829,1758074511.47387,0.0,0.0,0.0,-10.08406,2.92208,1.3178,8.8,1.23,2.75,2.0
1758074511.61373,1758074511.48387,0.0,0.0,0.0,-13.00614,-4.1253,1.83346,8.8,1.23,2.75,2.0
1758074511.62994,1758074511.49387,0.0,0.0,0.0,-18.44924,-13.06344,1.83346,8.53,1.47,2.56,2.0
1758074511.63134,1758074511.50387,0.0,0.0,0.0,-22.11617,-14.61043,2.06265,8.53,1.47,2.56,2.0
1758074511.64582,1758074511.51387,0.0,0.0,0.0,-25.89769,-16.21471,1.60428,9.09,1.75,2.18,2.0
1758074511.66287,1758074511.52387,0.0,0.0,0.0,-29.62192,-17.24603,1.20321,9.09,1.75,2.18,2.0
1758074511.66624,1758074511.53387,0.0,0.0,0.0,-35.2369,-18.22006,0.45837,9.03,1.79,2.35,2.0
1758074511.68181,1758074511.54387,0.0,0.0,0.0,-38.78925,-19.19409,-0.40107,9.02,1.57,2.33,2.0
1758074511.68625,1758074511.55387,0.0,0.0,0.0,-41.94051,-21.25674,-0.85944,9.02,1.57,2.33,2.0
1758074511.70189,1758074511.56387,0.0,0.0,0.0,-44.748,-21.60051,-1.71887,9.1,1.36,2.03,2.0
1758074511.70646,1758074511.57387,0.0,0.0,0.0,-47.44091,-25.89769,-2.40642,9.1,1.36,2.03,2.0
1758074511.72529,1758074511.58387,0.0,0.0,0.0,-48.52953,-30.19488,-1.71887,9.09,1.16,1.83,2.0
1758074511.72649,1758074511.59387,0.0,0.0,0.0,-48.41494,-31.51268,-0.74485,9.09,1.16,1.83,2.0
1758074511.74362,1758074511.60387,0.0,0.0,0.0,-47.03984,-32.37212,0.80214,9.48,0.81,1.59,2.0
1758074511.74463,1758074511.61387,0.0,0.0,0.0,-45.09178,-32.48671,3.49504,9.69,0.57,1.34,2.0
1758074511.76095,1758074511.62387,0.0,0.0,0.0,-44.63341,-32.20023,4.87014,9.69,0.57,1.34,2.0
1758074511.76298,1758074511.63387,0.0,0.0,0.0,-42.22699,-28.93437,9.91217,9.91,0.56,1.76,2.0
1758074511.77868,1758074511.64387,0.0,0.0,0.0,-46.69606,-24.23611,4.69825,9.91,0.56,1.76,2.0
1758074511.78175,1758074511.65387,0.0,0.0,0.0,-49.38896,-24.98096,3.03668,9.73,0.81,1.84,2.0
1758074511.79711,1758074511.66387,0.0,0.0,0.0,-51.6235,-25.38203,-0.0573,9.73,0.81,1.84,2.0
1758074511.79881,1758074511.67387,0.0,0.0,0.0,-51.90998,-25.89769,-1.08862,9.15,1.24,1.87,2.0
1758074511.81618,1758074511.68387,0.0,0.0,0.0,-51.22243,-24.92367,-1.48969,9.15,1.24,1.87,2.0
1758074511.8322,1758074511.69387,0.0,0.0,0.0,-49.96192,-20.45459,-0.45837,9.29,1.1,1.56,2.0
1758074511.83339,1758074511.70387,0.0,0.0,0.0,-48.30034,-14.78231,1.08862,10.0,0.4,1.38,2.0
1758074511.84819,1758074511.71387,0.0,0.0,0.0,-46.1231,-9.05273,2.92208,10.0,0.4,1.38,2.0
1758074511.84942,1758074511.72387,0.0,0.0,0.0,-42.05511,-5.21392,4.98473,10.06,-0.29,1.68,2.0
1758074511.86495,1758074511.73387,0.0,0.0,0.0,-38.78925,-5.32851,5.72958,10.06,-0.29,1.68,2.0
1758074511.88301,1758074511.74387,0.0,0.0,0.0,-35.52338,-5.4431,6.13065,9.92,-0.73,1.49,2.0
1758074511.88708,1758074511.75387,0.0,0.0,0.0,-32.14294,-5.72958,6.24524,9.92,-0.73,1.49,2.0
1758074511.90299,1758074511.76387,0.0,0.0,0.0,-27.96034,-6.7609,6.18794,10.13,-0.82,1.07,2.0
1758074511.90632,1758074511.77387,0.0,0.0,0.0,-26.24147,-8.02141,5.95876,9.99,-0.64,1.21,2.0
1758074511.92191,1758074511.78387,0.0,0.0,0.0,-24.98096,-8.70896,5.84417,9.99,-0.64,1.21,2.0
1758074511.92313,1758074511.79387,0.0,0.0,0.0,-24.63719,-8.47978,5.78687,9.99,-0.32,1.3,2.0
1758074511.93794,1758074511.80387,0.0,0.0,0.0,-25.21014,-7.39116,5.95876,9.99,-0.32,1.3,2.0
1758074511.93912,1758074511.81387,0.0,0.0,0.0,-26.35606,-6.87549,6.13065,10.1,0.12,1.35,2.0
1758074511.95395,1758074511.82387,0.0,0.0,0.0,-27.84575,-6.24524,6.35983,10.1,0.12,1.35,2.0
1758074511.96996,1758074511.83387,0.0,0.0,0.0,-29.10626,-5.55769,6.47442,10.14,0.61,1.32,2.0
1758074511.97116,1758074511.84387,0.0,0.0,0.0,-30.82513,-3.83882,6.7609,10.12,0.9,1.27,2.0
1758074511.98596,1758074511.85387,0.0,0.0,0.0,-31.62727,-3.49504,6.70361,10.12,0.9,1.27,2.0
1758074512.00203,1758074511.86387,0.0,0.0,0.0,-32.42941,-3.20856,6.58902,9.86,0.79,1.2,2.0
1758074512.00312,1758074511.87387,0.0,0.0,0.0,-33.46074,-3.03668,6.41713,9.86,0.79,1.2,2.0
1758074512.01795,1758074511.88387,0.0,0.0,0.0,-34.09099,-3.49504,6.35983,9.55,0.51,1.02,2.0
1758074512.0211,1758074511.89387,0.0,0.0,0.0,-34.77854,-4.0107,6.35983,9.55,0.51,1.02,2.0
1758074512.03601,1758074511.90387,0.0,0.0,0.0,-35.58068,-4.87014,6.13065,9.36,0.19,0.87,2.0
1758074512.05199,1758074511.91387,0.0,0.0,0.0,-36.49741,-5.72958,6.13065,9.36,0.19,0.79,2.0
1758074512.05399,1758074511.92387,0.0,0.0,0.0,-37.01308,-5.50039,6.18794,9.36,0.03,0.79,2.0
1758074512.06924,1758074511.93387,0.0,0.0,0.0,-37.64333,-4.92744,6.18794,9.5,0.07,0.82,2.0
1758074512.07019,1758074511.94387,0.0,0.0,0.0,-37.87251,-3.83882,6.70361,9.5,0.07,0.82,2.0
1758074512.08523,1758074511.95387,0.0,0.0,0.0,-38.15899,-2.6929,7.44845,9.62,0.18,0.82,2.0
1758074512.10127,1758074511.96387,0.0,0.0,0.0,-38.15899,-2.34913,8.25059,9.62,0.18,0.82,2.0
1758074512.10316,1758074511.97387,0.0,0.0,0.0,-38.21629,-1.66158,8.65166,9.62,0.22,0.72,2.0
1758074512.11888,1758074511.98387,0.0,0.0,0.0,-37.81522,0.68755,9.28192,9.62,0.22,0.72,2.0
1758074512.1217,1758074511.99387,0.0,0.0,0.0,-35.69527,3.20856,11.11538,10.16,0.01,0.78,2.0
1758074512.1372,1758074512.00387,0.0,0.0,0.0,-34.14828,-0.57296,12.37589,10.18,-0.38,1.08,2.0
1758074512.13933,1758074512.01387,0.0,0.0,0.0,-33.00237,-5.61499,13.23533,10.18,-0.38,1.08,2.0
1758074512.15636,1758074512.02387,0.0,0.0,0.0,-31.28349,-10.8862,13.75099,10.25,-0.55,1.42,2.0
1758074512.17235,1758074512.03387,0.0,0.0,0.0,-28.87707,-15.92823,11.86023,10.25,-0.55,1.42,2.0
1758074512.17436,1758074512.04387,0.0,0.0,0.0,-25.38203,-12.89155,9.85487,11.99,-1.07,2.49,2.0
1758074512.19105,1758074512.05387,0.0,0.0,0.0,-19.99623,-7.16197,7.33386,11.99,-1.07,2.49,2.0
1758074512.22509,1758074512.06387,0.0,0.0,0.0,-9.68299,-0.80214,3.32316,14.99,-2.39,3.8,2.0
1758074512.22546,1758074512.07387,0.0,0.0,0.0,-2.46372,4.0107,2.34913,15.55,-3.57,4.11,2.0
1758074512.22666,1758074512.08387,0.0,0.0,0.0,2.92208,2.46372,3.49504,15.55,-3.57,4.11,2.0
1758074512.22915,1758074512.09387,0.0,0.0,0.0,6.18794,-0.45837,6.35983,12.61,-2.86,2.68,2.0
1758074512.23166,1758074512.10387,0.0,0.0,0.0,7.33386,-7.21927,14.09476,12.61,-2.86,2.68,2.0
1758074512.24918,1758074512.11387,0.0,0.0,0.0,6.47442,-14.32395,19.36597,9.45,-0.7,1.64,2.0
1758074512.25013,1758074512.12387,0.0,0.0,0.0,4.69825,-22.97561,24.17882,9.45,-0.7,1.64,2.0
1758074512.2661,1758074512.13387,0.0,0.0,0.0,1.83346,-31.39809,27.1582,7.46,0.54,1.39,2.0
1758074512.28213,1758074512.14387,0.0,0.0,0.0,-3.66693,-42.91454,28.99167,6.76,0.54,1.38,2.0
1758074512.2841,1758074512.15387,0.0,0.0,0.0,-8.42248,-47.78468,28.07493,6.76,0.8,1.38,2.0
1758074512.29948,1758074512.16387,0.0,0.0,0.0,-14.20935,-50.53488,25.55392,6.73,0.48,1.78,2.0
1758074512.30168,1758074512.17387,0.0,0.0,0.0,-20.3973,-51.85268,22.23076,6.73,0.48,1.78,2.0
1758074512.3163,1758074512.18387,0.0,0.0,0.0,-30.82513,-51.27972,15.69904,6.87,-0.11,2.47,2.0
1758074512.33243,1758074512.19387,0.0,0.0,0.0,-37.58603,-48.07116,11.00079,6.87,-0.11,2.47,2.0
1758074512.33336,1758074512.20387,0.0,0.0,0.0,-43.60209,-41.99781,6.8182,8.04,-0.74,2.86,2.0
1758074512.34926,1758074512.21387,0.0,0.0,0.0,-48.30034,-33.34615,3.20856,8.04,-0.74,2.86,2.0
1758074512.35016,1758074512.22387,0.0,0.0,0.0,-51.39432,-15.12609,-0.17189,10.46,-1.49,2.98,2.0
1758074512.36543,1758074512.23387,0.0,0.0,0.0,-49.56085,2.06265,-1.94806,12.8,-2.68,2.17,2.0
1758074512.3812,1758074512.24387,0.0,0.0,0.0,-45.60744,16.38659,-2.00535,12.8,-2.68,2.17,2.0
1758074512.3834,1758074512.25387,0.0,0.0,0.0,-39.01843,34.43476,-0.80214,13.02,-3.95,0.99,2.0
1758074512.40119,1758074512.26387,0.0,0.0,0.0,-26.69983,43.60209,0.80214,13.02,-3.95,0.99,2.0
1758074512.40319,1758074512.27387,0.0,0.0,0.0,-18.73572,42.68536,2.29183,10.98,-4.46,0.73,2.0
1758074512.42149,1758074512.28387,0.0,0.0,0.0,-10.94349,41.99781,2.86479,10.98,-4.46,0.73,2.0
1758074512.42641,1758074512.29387,0.0,0.0,0.0,0.0573,40.39353,3.89611,10.17,-3.9,0.66,2.0
1758074512.44148,1758074512.30387,0.0,0.0,0.0,5.27121,39.24761,3.95341,9.78,-2.69,0.27,2.0
1758074512.44238,1758074512.31387,0.0,0.0,0.0,10.31324,40.50812,4.81285,9.78,-2.69,0.27,2.0
1758074512.45906,1758074512.32387,0.0,0.0,0.0,14.15206,42.22699,5.55769,9.75,-1.97,0.67,2.0
1758074512.46193,1758074512.33387,0.0,0.0,0.0,17.87628,41.59674,6.53172,9.75,-1.97,0.67,2.0
1758074512.4775,1758074512.34387,0.0,0.0,0.0,19.76705,39.87786,8.36518,8.88,-1.8,0.9,2.0
1758074512.47915,1758074512.35387,0.0,0.0,0.0,20.74107,40.85189,10.02676,8.88,-1.8,0.9,2.0
1758074512.49646,1758074512.36387,0.0,0.0,0.0,21.25674,41.25296,11.63104,8.93,-1.94,1.15,2.0
1758074512.51251,1758074512.37387,0.0,0.0,0.0,21.25674,40.10705,12.60507,8.86,-2.16,0.83,2.0
1758074512.51342,1758074512.38387,0.0,0.0,0.0,20.62648,39.13302,11.97482,8.86,-2.16,0.83,2.0
1758074512.52932,1758074512.39387,0.0,0.0,0.0,19.88164,37.98711,10.37054,9.22,-2.24,0.55,2.0
1758074512.53023,1758074512.40387,0.0,0.0,0.0,19.19409,36.26823,8.136,9.22,-2.24,0.55,2.0
1758074512.54557,1758074512.41387,0.0,0.0,0.0,18.33465,32.14294,3.95341,9.4,-2.13,0.4,2.0
1758074512.56149,1758074512.42387,0.0,0.0,0.0,18.16276,30.65324,0.97403,9.4,-2.13,0.4,2.0
1758074512.56273,1758074512.43387,0.0,0.0,0.0,18.44924,29.39274,-1.3178,9.58,-1.98,0.63,2.0
1758074512.57729,1758074512.44387,0.0,0.0,0.0,19.53786,27.44468,-2.97938,9.58,-1.98,0.63,2.0
1758074512.57871,1758074512.45387,0.0,0.0,0.0,22.40265,23.0329,-4.23989,9.44,-1.97,0.89,2.0
1758074512.59452,1758074512.46387,0.0,0.0,0.0,25.21014,19.82434,-4.29718,9.31,-2.24,1.01,2.0
1758074512.61056,1758074512.47387,0.0,0.0,0.0,28.99167,20.34,-4.18259,9.31,-2.24,1.01,2.0
1758074512.61174,1758074512.48387,0.0,0.0,0.0,34.14828,25.72581,-4.52637,9.7,-2.56,0.56,2.0
1758074512.62653,1758074512.49387,0.0,0.0,0.0,37.24226,29.9084,-5.32851,9.7,-2.56,0.56,2.0
1758074512.64474,1758074512.50387,0.0,0.0,0.0,39.64868,33.63263,-6.53172,9.43,-2.61,0.56,2.0
1758074512.65094,1758074512.51387,0.0,0.0,0.0,41.88322,36.15364,-8.02141,9.43,-2.61,0.56,2.0
1758074512.65132,1758074512.52387,0.0,0.0,0.0,44.748,38.21629,-10.59972,9.08,-2.26,0.73,2.0
1758074512.66889,1758074512.53387,0.0,0.0,0.0,47.15443,40.7946,-11.97482,9.34,-1.9,0.94,2.0
1758074512.67043,1758074512.54387,0.0,0.0,0.0,50.13381,44.17505,-12.204,9.34,-1.9,0.94,2.0
1758074512.68615,1758074512.55387,0.0,0.0,0.0,53.28508,47.38361,-11.63104,9.84,-1.8,1.37,2.0
1758074512.70336,1758074512.56387,0.0,0.0,0.0,58.4417,48.75871,-8.76626,9.84,-1.8,1.37,2.0
1758074512.70433,1758074512.57387,0.0,0.0,0.0,62.33781,47.67009,-5.72958,9.55,-1.8,1.62,2.0
1758074512.71964,1758074512.58387,0.0,0.0,0.0,66.11933,45.37826,-2.40642,9.55,-1.8,1.62,2.0
1758074512.72128,1758074512.59387,0.0,0.0,0.0,69.3279,41.99781,0.40107,9.35,-1.82,1.21,2.0
1758074512.7367,1758074512.60387,0.0,0.0,0.0,72.99483,35.3515,2.46372,9.35,-1.9,0.64,2.0
1758074512.75397,1758074512.61387,0.0,0.0,0.0,74.65641,31.11161,2.40642,9.35,-1.9,0.64,2.0
1758074512.75571,1758074512.62387,0.0,0.0,0.0,75.40125,22.63183,0.74485,9.16,-1.9,0.51,2.0
1758074512.77037,1758074512.63387,0.0,0.0,0.0,74.7137,8.99544,-3.03668,9.16,-1.9,0.51,2.0
1758074512.77163,1758074512.64387,0.0,0.0,0.0,72.13539,-5.84417,-8.36518,8.56,-1.52,-0.02,2.0
1758074512.78637,1758074512.65387,0.0,0.0,0.0,71.10406,-5.78687,-13.06344,8.56,-1.52,-0.02,2.0
1758074512.78996,1758074512.66387,0.0,0.0,0.0,70.76029,0.97403,-16.04282,9.92,-1.04,-0.26,2.0
1758074512.80567,1758074512.67387,0.0,0.0,0.0,70.30193,6.41713,-15.58445,9.92,-1.04,-0.26,2.0
1758074512.82165,1758074512.68387,0.0,0.0,0.0,68.69764,6.8182,-16.272,10.47,-0.62,1.59,2.0
1758074512.82265,1758074512.69387,0.0,0.0,0.0,66.17663,2.7502,-14.83961,10.76,0.26,3.86,2.0
1758074512.83767,1758074512.70387,0.0,0.0,0.0,61.53567,1.66158,-13.40721,10.76,0.26,3.86,2.0
1758074512.8389,1758074512.71387,0.0,0.0,0.0,48.70141,2.11994,-10.08406,13.1,2.24,6.08,2.0
1758074512.8567,1758074512.72387,0.0,0.0,0.0,36.61201,-8.70896,-6.7609,13.1,2.24,6.08,2.0
1758074512.87319,1758074512.73387,0.0,0.0,0.0,19.42327,-28.93437,-7.44845,13.3,4.71,8.72,2.0
1758074512.87469,1758074512.74387,0.0,0.0,0.0,9.5684,-58.72818,-1.66158,13.3,4.71,8.72,2.0
1758074512.8894,1758074512.75387,0.0,0.0,0.0,-6.7609,-69.61437,0.22918,11.33,4.26,6.06,2.0
1758074512.89066,1758074512.76386,0.0,0.0,0.0,-12.43318,-70.58841,1.43239,11.61,0.09,4.52,2.0
1758074512.90568,1758074512.77386,0.0,0.0,0.0,-13.69369,-63.48372,-0.0573,11.61,0.09,4.52,2.0
1758074512.92158,1758074512.78386,0.0,0.0,0.0,-13.00614,-63.19725,-3.60963,8.31,-2.76,5.09,2.0
1758074512.92293,1758074512.79386,0.0,0.0,0.0,-8.30789,-65.2026,-8.93814,8.31,-2.76,5.09,2.0
1758074512.93856,1758074512.80386,0.0,0.0,0.0,-2.97938,-65.2599,-12.49048,6.36,-3.42,5.57,2.0
1758074512.94057,1758074512.81386,0.0,0.0,0.0,2.92208,-61.87944,-16.3293,6.36,-3.42,5.57,2.0
1758074512.9557,1758074512.82386,0.0,0.0,0.0,8.93814,-54.3164,-20.22541,8.38,-2.69,4.77,2.0
1758074512.97175,1758074512.83386,0.0,0.0,0.0,15.41257,-36.89849,-24.12152,10.45,-0.72,3.51,2.0
1758074512.97294,1758074512.84386,0.0,0.0,0.0,18.50654,-24.98096,-24.29341,10.45,-0.72,3.51,2.0
1758074512.9875,1758074512.85386,0.0,0.0,0.0,20.3973,-14.03747,-23.66316,10.33,1.15,3.2,2.0
1758074512.99026,1758074512.86386,0.0,0.0,0.0,22.23076,-4.69825,-21.25674,10.33,1.15,3.2,2.0
1758074513.00682,1758074512.87386,0.0,0.0,0.0,24.63719,9.28192,-15.75634,9.85,1.36,3.16,2.0
1758074513.01016,1758074512.88386,0.0,0.0,0.0,26.47065,17.93358,-11.63104,9.85,1.36,3.16,2.0
1758074513.02574,1758074512.89386,0.0,0.0,0.0,28.59059,26.12688,-7.67763,9.43,0.77,2.94,2.0
1758074513.04178,1758074512.90386,0.0,0.0,0.0,31.85646,34.09099,-2.46372,9.43,0.77,2.94,2.0
1758074513.04588,1758074512.91386,0.0,0.0,0.0,33.86181,37.98711,-0.74485,8.87,0.27,2.94,2.0
1758074513.06147,1758074512.92386,0.0,0.0,0.0,35.98175,38.27358,0.57296,8.68,0.15,2.93,2.0
1758074513.06268,1758074512.93386,0.0,0.0,0.0,37.58603,37.12767,1.77617,8.68,0.15,2.93,2.0
1758074513.07861,1758074512.94386,0.0,0.0,0.0,38.44547,32.54401,2.6929,8.67,0.28,2.83,2.0
1758074513.08109,1758074512.95386,0.0,0.0,0.0,37.52874,29.96569,2.63561,8.67,0.28,2.83,2.0
1758074513.09683,1758074512.96386,0.0,0.0,0.0,35.63798,26.69983,2.57831,8.79,0.68,2.83,2.0
1758074513.1152,1758074512.97386,0.0,0.0,0.0,32.54401,22.97561,2.23454,8.79,0.68,2.83,2.0
1758074513.11636,1758074512.98386,0.0,0.0,0.0,26.98631,18.79302,2.00535,8.61,1.28,2.86,2.0
1758074513.1318,1758074512.99386,0.0,0.0,0.0,22.97561,15.35527,2.00535,8.55,1.76,2.88,2.0
1758074513.13297,1758074513.00386,0.0,0.0,0.0,19.53786,12.37589,2.7502,8.55,1.76,2.88,2.0
1758074513.14783,1758074513.01386,0.0,0.0,0.0,16.55848,10.59972,3.66693,8.59,1.82,2.99,2.0
1758074513.14958,1758074513.02386,0.0,0.0,0.0,13.34992,9.74028,4.52637,8.59,1.82,2.99,2.0
1758074513.16566,1758074513.03386,0.0,0.0,0.0,12.08941,9.5684,4.98473,8.67,1.52,3.12,2.0
1758074513.18178,1758074513.04386,0.0,0.0,0.0,11.34457,9.4538,5.50039,8.67,1.52,3.12,2.0
1758074513.18314,1758074513.05386,0.0,0.0,0.0,10.94349,10.8862,5.72958,8.77,1.09,3.11,2.0
1758074513.19783,1758074513.06386,0.0,0.0,0.0,10.48513,11.22997,7.10468,8.92,0.74,2.95,2.0
1758074513.20056,1758074513.07386,0.0,0.0,0.0,9.91217,11.74564,7.96411,8.92,0.74,2.95,2.0
1758074513.2169,1758074513.08386,0.0,0.0,0.0,9.11003,11.86023,8.88085,8.98,0.71,2.81,2.0
1758074513.23269,1758074513.09386,0.0,0.0,0.0,7.73493,11.17268,10.94349,8.98,0.71,2.81,2.0
1758074513.23537,1758074513.10386,0.0,0.0,0.0,6.35983,8.59437,12.60507,8.84,0.87,2.72,2.0
1758074513.25093,1758074513.11386,0.0,0.0,0.0,4.35448,6.07335,14.15206,8.84,0.87,2.72,2.0
1758074513.25184,1758074513.12386,0.0,0.0,0.0,2.00535,2.86479,15.87093,8.69,1.09,2.7,2.0
1758074513.26694,1758074513.13386,0.0,0.0,0.0,-2.00535,-1.08862,17.87628,8.69,1.09,2.7,2.0
1758074513.28268,1758074513.14386,0.0,0.0,0.0,-5.32851,-4.46907,18.79302,8.73,1.27,2.6,2.0
1758074513.2862,1758074513.15386,0.0,0.0,0.0,-8.99544,-7.39116,19.13679,8.79,1.39,2.56,2.0
1758074513.3017,1758074513.16386,0.0,0.0,0.0,-13.40721,-5.72958,18.56383,8.79,1.39,2.56,2.0
1758074513.3044,1758074513.17386,0.0,0.0,0.0,-19.42327,-4.23989,17.58981,9.14,1.46,2.48,2.0
1758074513.32054,1758074513.18386,0.0,0.0,0.0,-23.20479,-5.78687,16.55848,9.14,1.46,2.48,2.0
1758074513.32164,1758074513.19386,0.0,0.0,0.0,-26.81443,-8.42248,15.58445,8.67,1.27,2.48,2.0
1758074513.3369,1758074513.20386,0.0,0.0,0.0,-30.13758,-11.63104,15.06879,8.67,1.27,2.48,2.0
1758074513.3537,1758074513.21386,0.0,0.0,0.0,-34.09099,-18.16276,13.46451,8.67,1.03,2.33,2.0
1758074513.355,1758074513.22386,0.0,0.0,0.0,-36.6693,-20.74107,12.49048,8.86,0.93,2.1,2.0
1758074513.37082,1758074513.23386,0.0,0.0,0.0,-38.56006,-24.92367,10.8862,8.86,0.93,2.1,2.0
1758074513.37196,1758074513.24386,0.0,0.0,0.0,-39.64868,-34.09099,10.08406,8.66,0.83,1.92,2.0
1758074513.38701,1758074513.25386,0.0,0.0,0.0,-39.3622,-45.20637,9.96947,8.66,0.83,1.92,2.0
1758074513.3895,1758074513.26386,0.0,0.0,0.0,-37.75792,-48.9879,10.8289,8.83,0.45,1.42,2.0
1758074513.40572,1758074513.27386,0.0,0.0,0.0,-36.38282,-50.87865,11.80293,8.83,0.45,1.42,2.0
1758074513.42177,1758074513.28386,0.0,0.0,0.0,-35.40879,-46.00851,15.98552,9.46,0.0,1.12,2.0
1758074513.42642,1758074513.29386,0.0,0.0,0.0,-33.9764,-14.43854,16.272,11.19,-0.12,1.96,2.0
1758074513.44172,1758074513.30386,0.0,0.0,0.0,-35.06502,-27.84575,14.72501,11.19,-0.12,1.96,2.0
1758074513.44616,1758074513.31386,0.0,0.0,0.0,-37.01308,-38.61736,11.91752,7.76,0.0,2.35,2.0
1758074513.46192,1758074513.32386,0.0,0.0,0.0,-38.78925,-43.94586,8.88085,7.76,0.0,2.35,2.0
1758074513.46491,1758074513.33386,0.0,0.0,0.0,-38.1017,-41.13837,9.68299,9.42,0.35,1.17,2.0
1758074513.48002,1758074513.34386,0.0,0.0,0.0,-37.18496,-35.12231,11.00079,9.42,0.35,1.17,2.0
1758074513.48094,1758074513.35386,0.0,0.0,0.0,-36.38282,-29.73651,12.71966,9.97,0.26,0.67,2.0
1758074513.4961,1758074513.36386,0.0,0.0,0.0,-34.26288,-20.34,16.38659,9.97,0.26,1.68,2.0
1758074513.51204,1758074513.37386,0.0,0.0,0.0,-32.6013,-15.92823,18.62113,9.93,-0.25,1.68,2.0
1758074513.51569,1758074513.38386,0.0,0.0,0.0,-30.99702,-13.23533,20.16812,9.67,-0.77,1.65,2.0
1758074513.53105,1758074513.39386,0.0,0.0,0.0,-29.04896,-12.77696,20.79837,9.67,-0.77,1.65,2.0
1758074513.53224,1758074513.40386,0.0,0.0,0.0,-26.81443,-14.72501,20.34,9.62,-1.09,1.44,2.0
1758074513.54709,1758074513.41386,0.0,0.0,0.0,-25.8404,-17.13144,19.36597,9.62,-1.09,1.44,2.0
1758074513.5631,1758074513.42386,0.0,0.0,0.0,-25.38203,-19.07949,18.10547,9.69,-1.08,0.98,2.0
1758074513.56466,1758074513.43386,0.0,0.0,0.0,-25.61122,-20.62648,16.50119,9.69,-1.08,0.98,2.0
1758074513.58196,1758074513.44386,0.0,0.0,0.0,-27.2155,-23.26209,14.15206,9.78,-0.76,0.87,2.0
1758074513.58355,1758074513.45386,0.0,0.0,0.0,-29.22085,-24.23611,12.83425,9.73,-0.08,0.95,2.0
1758074513.6018,1758074513.46386,0.0,0.0,0.0,-30.88243,-23.49127,11.57375,9.73,-0.08,0.95,2.0
1758074513.60255,1758074513.47386,0.0,0.0,0.0,-32.54401,-21.31403,10.48513,10.13,0.54,0.88,2.0
1758074513.61785,1758074513.48386,0.0,0.0,0.0,-34.89313,-16.95955,9.05273,10.13,0.54,0.88,2.0
1758074513.61981,1758074513.49386,0.0,0.0,0.0,-36.55471,-12.83425,8.136,10.35,0.8,0.88,2.0
1758074513.63591,1758074513.50386,0.0,0.0,0.0,-38.27358,-8.136,7.21927,10.35,0.8,0.88,2.0
1758074513.65315,1758074513.51386,0.0,0.0,0.0,-40.7373,-2.57831,7.50575,10.63,0.65,0.77,2.0
1758074513.65355,1758074513.52386,0.0,0.0,0.0,-41.42485,-1.03132,8.59437,10.59,0.19,0.85,2.0
1758074513.66999,1758074513.53386,0.0,0.0,0.0,-42.05511,-6.99009,9.11003,10.59,0.19,0.85,2.0
1758074513.67101,1758074513.54386,0.0,0.0,0.0,-42.39888,-14.72501,9.22462,9.99,-0.13,1.6,2.0
1758074513.6858,1758074513.55386,0.0,0.0,0.0,-43.94586,-24.98096,10.08406,9.99,-0.13,1.6,2.0
1758074513.70197,1758074513.56386,0.0,0.0,0.0,-44.8053,-31.97105,10.19865,10.89,-0.56,2.23,2.0
1758074513.70241,1758074513.57386,0.0,0.0,0.0,-43.83128,-35.00772,9.39651,10.89,-0.56,2.23,2.0
1758074513.71871,1758074513.58386,0.0,0.0,0.0,-40.45082,-33.63263,7.79223,13.99,-2.04,3.44,2.0
1758074513.71998,1758074513.59386,0.0,0.0,0.0,-31.85646,-33.11696,6.47442,16.63,-4.08,4.43,2.0
1758074513.73498,1758074513.60386,0.0,0.0,0.0,-25.55392,-39.82057,6.99009,16.63,-4.08,4.43,2.0
1758074513.75096,1758074513.61386,0.0,0.0,0.0,-20.45459,-51.16513,7.84952,13.54,-4.31,3.7,2.0
1758074513.75235,1758074513.62386,0.0,0.0,0.0,-16.95955,-63.88479,9.28192,13.54,-4.31,3.7,2.0
1758074513.76719,1758074513.63386,0.0,0.0,0.0,-13.75099,-79.41196,9.85487,9.58,-2.38,1.87,2.0
1758074513.76955,1758074513.64386,0.0,0.0,0.0,-12.89155,-80.1568,8.76626,9.58,-2.38,1.87,2.0
1758074513.78517,1758074513.65386,0.0,0.0,0.0,-13.5791,-76.94823,6.8182,7.84,-0.8,1.23,2.0
1758074513.80122,1758074513.66386,0.0,0.0,0.0,-15.98552,-73.10942,4.23989,7.84,-0.8,1.23,2.0
1758074513.80216,1758074513.67386,0.0,0.0,0.0,-21.94428,-64.51505,0.45837,6.03,-0.41,1.96,2.0
1758074513.8173,1758074513.68386,0.0,0.0,0.0,-26.69983,-54.14451,-1.66158,6.01,-0.69,2.73,2.0
1758074513.81974,1758074513.69386,0.0,0.0,0.0,-31.28349,-40.85189,-3.26586,6.01,-0.69,2.73,2.0
1758074513.83499,1758074513.70386,0.0,0.0,0.0,-34.95043,-24.75178,-3.03668,8.82,-1.65,2.47,2.0
1758074513.85117,1758074513.71386,0.0,0.0,0.0,-36.6693,3.32316,-2.00535,8.82,-1.65,2.47,2.0
1758074513.85234,1758074513.72386,0.0,0.0,0.0,-34.95043,22.51724,-0.0573,12.27,-3.23,1.81,2.0
1758074513.86726,1758074513.73386,0.0,0.0,0.0,-31.2262,40.16434,2.34913,12.27,-3.23,1.81,2.0
1758074513.86904,1758074513.74386,0.0,0.0,0.0,-24.5226,54.3737,4.92744,13.4,-4.41,0.4,2.0
1758074513.88526,1758074513.75386,0.0,0.0,0.0,-19.48057,57.46767,6.41713,11.65,-4.38,0.3,2.0
1758074513.90134,1758074513.76386,0.0,0.0,0.0,-15.0115,58.04062,6.7609,11.65,-4.38,0.3,2.0
1758074513.9033,1758074513.77386,0.0,0.0,0.0,-10.54242,60.44705,6.99009,10.64,-3.49,0.02,2.0
1758074513.91801,1758074513.78386,0.0,0.0,0.0,-4.46907,66.5204,6.47442,10.64,-3.49,0.02,2.0
1758074513.91924,1758074513.79386,0.0,0.0,0.0,-0.57296,69.27061,5.50039,10.39,-2.61,0.06,2.0
1758074513.93403,1758074513.80386,0.0,0.0,0.0,2.92208,70.13004,4.64096,10.39,-2.61,0.06,2.0
1758074513.95135,1758074513.81386,0.0,0.0,0.0,6.18794,71.84892,5.15662,9.48,-2.14,0.17,2.0
1758074513.95305,1758074513.82386,0.0,0.0,0.0,10.65701,76.66176,6.99009,9.5,-2.1,0.76,2.0
1758074513.96821,1758074513.83386,0.0,0.0,0.0,13.12073,74.771,8.59437,9.5,-2.1,0.76,2.0
1758074513.97127,1758074513.84386,0.0,0.0,0.0,15.06879,71.21866,9.91217,8.51,-2.34,1.1,2.0
1758074513.98633,1758074513.85386,0.0,0.0,0.0,16.3293,67.9528,10.94349,8.51,-2.34,1.1,2.0
1758074513.98749,1758074513.86386,0.0,0.0,0.0,16.95955,61.59297,10.8289,8.54,-2.58,1.14,2.0
1758074514.0026,1758074513.87386,0.0,0.0,0.0,16.84496,55.6915,9.85487,8.54,-2.58,1.14,2.0
1758074514.01809,1758074513.88386,0.0,0.0,0.0,16.50119,48.9879,8.136,8.59,-2.71,0.74,2.0
1758074514.01922,1758074513.89386,0.0,0.0,0.0,16.50119,42.34158,5.95876,8.59,-2.71,0.74,2.0
1758074514.03405,1758074513.90386,0.0,0.0,0.0,18.62113,30.48136,2.11994,8.73,-2.73,0.62,2.0
1758074514.05003,1758074513.91386,0.0,0.0,0.0,21.25674,22.63183,-0.34377,8.62,-2.79,0.53,2.0
1758074514.05121,1758074513.92386,0.0,0.0,0.0,24.92367,20.97026,-2.40642,8.62,-2.79,0.53,2.0
1758074514.06605,1758074513.93386,0.0,0.0,0.0,30.82513,27.04361,-4.46907,9.35,-2.95,0.72,2.0
1758074514.06721,1758074513.94386,0.0,0.0,0.0,34.14828,30.82513,-5.50039,9.35,-2.95,0.72,2.0
1758074514.08359,1758074513.95386,0.0,0.0,0.0,36.89849,33.40344,-6.35983,9.12,-2.87,1.23,2.0
1758074514.09924,1758074513.96386,0.0,0.0,0.0,39.24761,35.12231,-7.04738,9.12,-2.87,1.23,2.0
1758074514.10023,1758074513.97386,0.0,0.0,0.0,42.74266,37.24226,-6.8182,9.04,-2.69,1.65,2.0
1758074514.11567,1758074513.98386,0.0,0.0,0.0,46.1804,36.55471,-5.32851,9.39,-2.69,1.74,2.0
1758074514.13137,1758074513.99386,0.0,0.0,0.0,50.47758,34.89313,-2.86479,9.39,-2.69,1.74,2.0
1758074514.13398,1758074514.00386,0.0,0.0,0.0,55.57691,33.51803,0.68755,9.86,-2.93,1.78,2.0
1758074514.14942,1758074514.01386,0.0,0.0,0.0,63.31184,30.53865,6.41713,9.86,-2.93,1.78,2.0
1758074514.15141,1758074514.02386,0.0,0.0,0.0,67.9528,28.41871,9.39651,9.72,-3.16,1.53,2.0
1758074514.16618,1758074514.03386,0.0,0.0,0.0,71.73432,26.24147,11.11538,9.72,-3.16,1.53,2.0
1758074514.16787,1758074514.04386,0.0,0.0,0.0,74.42722,23.26209,11.97482,9.35,-3.11,1.72,2.0
1758074514.18517,1758074514.05386,0.0,0.0,0.0,76.60446,9.5684,10.65701,8.49,-2.68,1.06,2.0
1758074514.20149,1758074514.06386,0.0,0.0,0.0,75.57314,2.00535,6.18794,8.49,-2.68,1.06,2.0
1758074514.20238,1758074514.07386,0.0,0.0,0.0,75.51585,-5.21392,3.89611,8.74,-2.25,0.39,2.0
1758074514.21746,1758074514.08386,0.0,0.0,0.0,75.63043,3.20856,1.3751,8.74,-2.25,0.39,2.0
1758074514.21837,1758074514.09386,0.0,0.0,0.0,77.75038,27.44468,-0.68755,11.36,-1.9,0.47,2.0
1758074514.23379,1758074514.10386,0.0,0.0,0.0,78.03686,35.52338,-2.7502,11.36,-1.9,0.47,2.0
1758074514.25021,1758074514.11386,0.0,0.0,0.0,78.15145,32.88778,-6.24524,9.4,-1.77,2.09,2.0
1758074514.25176,1758074514.12386,0.0,0.0,0.0,78.55252,21.31403,-10.31324,9.4,-1.77,2.09,2.0
1758074514.26617,1758074514.13386,0.0,0.0,0.0,84.68317,-15.29797,-4.98473,6.97,-1.77,1.3,2.0
1758074514.26751,1758074514.14386,0.0,0.0,0.0,89.15224,-18.50654,-4.98473,8.88,-2.02,-0.33,2.0
1758074514.28349,1758074514.15386,0.0,0.0,0.0,94.36616,-22.28806,-3.49504,8.88,-2.02,-0.33,2.0
1758074514.3003,1758074514.16386,0.0,0.0,0.0,101.24165,-22.68913,-3.32316,10.0,-2.49,-0.22,2.0
1758074514.30124,1758074514.17386,0.0,0.0,0.0,104.73669,-19.36597,-1.71887,10.0,-2.49,-0.22,2.0
1758074514.31623,1758074514.18386,0.0,0.0,0.0,106.34097,-12.60507,-3.09397,10.87,-2.89,2.59,2.0
1758074514.31743,1758074514.19386,0.0,0.0,0.0,106.16908,-13.23533,-5.21392,10.87,-2.89,2.59,2.0
1758074514.33356,1758074514.20386,0.0,0.0,0.0,102.33027,-25.61122,-5.78687,10.12,-2.4,3.47,2.0
1758074514.34956,1758074514.21386,0.0,0.0,0.0,96.65798,-31.11161,-2.57831,10.86,-0.69,4.61,2.0
1758074514.35074,1758074514.22386,0.0,0.0,0.0,88.69387,-31.16891,2.46372,10.86,-0.69,4.61,2.0
1758074514.36556,1758074514.23386,0.0,0.0,0.0,78.20874,-27.73116,7.73493,12.93,1.46,4.05,2.0
1758074514.38161,1758074514.24386,0.0,0.0,0.0,59.35843,-20.16812,15.0115,12.93,1.46,4.05,2.0
1758074514.38572,1758074514.25386,0.0,0.0,0.0,46.1804,-15.06879,18.85031,12.98,3.26,3.49,2.0
1758074514.4016,1758074514.26386,0.0,0.0,0.0,34.32018,-10.8862,20.85567,12.98,3.26,3.49,2.0
1758074514.40411,1758074514.27386,0.0,0.0,0.0,25.21014,-8.25059,20.79837,11.88,3.65,3.13,2.0
1758074514.42158,1758074514.28386,0.0,0.0,0.0,17.01685,-5.95876,15.24068,9.96,2.36,3.09,2.0
1758074514.42438,1758074514.29386,0.0,0.0,0.0,15.29797,-8.0787,9.91217,9.96,2.36,3.09,2.0
1758074514.43962,1758074514.30386,0.0,0.0,0.0,15.69904,-5.32851,-0.34377,8.46,-0.48,3.38,2.0
1758074514.4413,1758074514.31386,0.0,0.0,0.0,18.62113,-8.76626,-11.57375,8.46,-0.48,3.38,2.0
1758074514.45629,1758074514.32386,0.0,0.0,0.0,23.54857,-14.43854,-18.22006,7.32,-2.12,3.88,2.0
1758074514.45922,1758074514.33386,0.0,0.0,0.0,29.50733,-17.47521,-22.00158,7.32,-2.12,3.88,2.0
1758074514.47559,1758074514.34386,0.0,0.0,0.0,36.89849,-23.72045,-22.28806,7.7,-2.46,4.33,2.0
1758074514.4916,1758074514.35386,0.0,0.0,0.0,46.52417,-21.60051,-19.25138,7.7,-2.46,4.33,2.0
1758074514.49362,1758074514.36386,0.0,0.0,0.0,52.884,-25.09555,-14.03747,9.65,-1.8,4.63,2.0
1758074514.50937,1758074514.37386,0.0,0.0,0.0,57.52497,-25.89769,-9.05273,10.9,-0.65,4.51,2.0
1758074514.51112,1758074514.38386,0.0,0.0,0.0,60.79083,-24.92367,-3.20856,10.9,-0.65,4.51,2.0
1758074514.52654,1758074514.39386,0.0,0.0,0.0,63.48372,-18.9649,1.77617,11.16,0.05,4.21,2.0
1758074514.52791,1758074514.40386,0.0,0.0,0.0,63.99939,-14.09476,3.09397,11.16,0.05,4.21,2.0
1758074514.54517,1758074514.41386,0.0,0.0,0.0,64.17127,-10.19865,3.60963,9.71,0.48,3.27,2.0
1758074514.56166,1758074514.42386,0.0,0.0,0.0,63.59832,-5.55769,2.29183,9.71,0.48,3.27,2.0
1758074514.56286,1758074514.43386,0.0,0.0,0.0,62.22322,0.68755,-0.80214,9.01,0.95,2.98,2.0
1758074514.57772,1758074514.44386,0.0,0.0,0.0,60.38975,5.4431,-3.95341,9.05,1.32,2.63,2.0
1758074514.58124,1758074514.45386,0.0,0.0,0.0,57.46767,8.99544,-7.73493,9.05,1.32,2.63,2.0
1758074514.59666,1758074514.46386,0.0,0.0,0.0,54.71747,10.65701,-11.22997,8.8,1.49,2.35,2.0
1758074514.59842,1758074514.47386,0.0,0.0,0.0,50.59217,13.12073,-14.32395,8.8,1.49,2.35,2.0
1758074514.6157,1758074514.48386,0.0,0.0,0.0,47.78468,14.66772,-14.32395,8.85,1.49,2.07,2.0
1758074514.63147,1758074514.49386,0.0,0.0,0.0,45.72203,18.79302,-13.5218,8.85,1.49,2.07,2.0
1758074514.63292,1758074514.50386,0.0,0.0,0.0,44.23235,19.99623,-10.71431,9.11,1.37,1.91,2.0
1758074514.64981,1758074514.51386,0.0,0.0,0.0,42.97184,21.6578,-5.72958,8.74,1.23,2.0,2.0
1758074514.65107,1758074514.52386,0.0,0.0,0.0,42.68536,21.7151,-1.60428,8.74,1.23,2.0,2.0
1758074514.66671,1758074514.53386,0.0,0.0,0.0,42.85724,22.05888,2.06265,8.57,1.18,2.25,2.0
1758074514.66804,1758074514.54386,0.0,0.0,0.0,43.25832,22.00158,7.21927,8.57,1.18,2.25,2.0
1758074514.68523,1758074514.55386,0.0,0.0,0.0,43.37291,20.3973,9.74028,8.61,1.24,2.42,2.0
1758074514.70167,1758074514.56386,0.0,0.0,0.0,42.97184,19.19409,11.34457,8.61,1.24,2.42,2.0
1758074514.70294,1758074514.57386,0.0,0.0,0.0,42.34158,18.33465,12.204,8.7,1.26,2.39,2.0
1758074514.7175,1758074514.58386,0.0,0.0,0.0,39.87786,17.36062,12.37589,8.7,1.26,2.39,2.0
1758074514.7206,1758074514.59386,0.0,0.0,0.0,37.52874,16.67307,12.14671,8.92,1.31,2.5,2.0
1758074514.73551,1758074514.60386,0.0,0.0,0.0,34.26288,14.03747,11.97482,8.94,1.45,2.46,2.0
1758074514.75175,1758074514.61386,0.0,0.0,0.0,30.02299,9.74028,11.91752,8.94,1.45,2.46,2.0
1758074514.78375,1758074514.62386,0.0,0.0,0.0,3.83882,-4.18259,8.76626,9.33,1.71,2.38,2.0
1758074514.79978,1758074514.63386,0.0,0.0,0.0,-4.64096,-3.66693,7.10468,9.7,1.8,2.36,2.0
1758074514.80087,1758074514.64386,0.0,0.0,0.0,-9.62569,-4.0107,6.18794,9.38,1.72,2.37,2.0
1758074514.8158,1758074514.65386,0.0,0.0,0.0,-13.80828,-4.52637,5.78687,9.38,1.72,2.37,2.0
1758074514.83182,1758074514.66386,0.0,0.0,0.0,-17.53251,-5.72958,5.09932,9.1,1.63,2.0,2.0
1758074514.83298,1758074514.67386,0.0,0.0,0.0,-21.25674,-10.54242,5.27121,9.1,1.63,2.0,2.0
1758074514.84749,1758074514.68386,0.0,0.0,0.0,-22.63183,-15.41257,6.47442,8.67,1.43,1.66,2.0
1758074514.8495,1758074514.69386,0.0,0.0,0.0,-23.20479,-19.19409,7.84952,8.67,1.43,1.66,2.0
1758074514.86487,1758074514.70386,0.0,0.0,0.0,-23.0902,-23.0902,10.08406,8.55,1.04,1.3,2.0
1758074514.88084,1758074514.71386,0.0,0.0,0.0,-24.4653,-27.61657,12.43318,8.68,0.82,1.15,2.0
1758074514.88174,1758074514.72386,0.0,0.0,0.0,-26.18417,-24.23611,13.80828,8.68,0.82,1.15,2.0
1758074514.89685,1758074514.73386,0.0,0.0,0.0,-27.44468,-7.44845,16.21471,10.18,0.71,1.4,2.0
1758074514.89771,1758074514.74386,0.0,0.0,0.0,-32.6013,18.50654,19.70975,10.18,0.71,1.4,2.0
1758074514.91383,1758074514.75386,0.0,0.0,0.0,-37.47144,-2.57831,16.38659,8.91,0.96,2.02,2.0
1758074514.92962,1758074514.76386,0.0,0.0,0.0,-41.02378,-13.34992,15.24068,8.91,0.96,2.02,2.0
1758074514.93079,1758074514.77386,0.0,0.0,0.0,-45.89392,-23.83505,12.60507,7.62,1.24,2.15,2.0
1758074514.94564,1758074514.78386,0.0,0.0,0.0,-49.27437,-26.69983,11.63104,9.37,1.24,-0.04,2.0
1758074514.96183,1758074514.79386,0.0,0.0,0.0,-50.93595,-23.0902,13.12073,9.37,1.26,-0.04,2.0
1758074514.96303,1758074514.80386,0.0,0.0,0.0,-52.71212,-17.53251,13.80828,10.03,0.87,0.54,2.0
1758074514.97859,1758074514.81386,0.0,0.0,0.0,-54.14451,-13.34992,15.29797,10.03,0.87,0.54,2.0
1758074514.98039,1758074514.82386,0.0,0.0,0.0,-55.6342,-9.4538,16.95955,9.51,0.2,1.82,2.0
1758074514.99556,1758074514.83386,0.0,0.0,0.0,-55.57691,-8.30789,17.58981,9.51,0.2,1.82,2.0
1758074515.0116,1758074514.84386,0.0,0.0,0.0,-54.77477,-8.59437,18.27736,9.38,-0.41,2.14,2.0
1758074515.01477,1758074514.85386,0.0,0.0,0.0,-53.28508,-10.94349,18.79302,9.38,-0.41,2.14,2.0
1758074515.02996,1758074514.86386,0.0,0.0,0.0,-50.47758,-17.24603,18.33465,9.5,-0.87,1.75,2.0
1758074515.03163,1758074514.87386,0.0,0.0,0.0,-48.70141,-20.68378,17.30333,9.97,-1.19,1.58,2.0
1758074515.04696,1758074514.88386,0.0,0.0,0.0,-47.26902,-22.23076,15.87093,9.97,-1.19,1.58,2.0
1758074515.04939,1758074514.89386,0.0,0.0,0.0,-46.1231,-23.60586,14.38124,10.45,-1.3,1.89,2.0
1758074515.06603,1758074514.90386,0.0,0.0,0.0,-45.72203,-24.17882,11.00079,10.45,-1.3,1.89,2.0
1758074515.08199,1758074514.91386,0.0,0.0,0.0,-45.72203,-22.00158,8.65166,10.36,-0.94,2.36,2.0
1758074515.08365,1758074514.92386,0.0,0.0,0.0,-45.55015,-17.13144,6.47442,10.36,-0.94,2.36,2.0
1758074515.09894,1758074514.93386,0.0,0.0,0.0,-45.43555,-8.36518,4.18259,10.58,-0.33,2.2,2.0
1758074515.10101,1758074514.94386,0.0,0.0,0.0,-45.72203,-3.66693,3.66693,10.14,0.11,1.86,2.0
1758074515.11599,1758074514.95386,0.0,0.0,0.0,-45.83662,-2.63561,4.29718,10.14,0.11,1.86,2.0
1758074515.13197,1758074514.96386,0.0,0.0,0.0,-46.46688,-5.32851,5.90147,9.23,0.08,1.48,2.0
1758074515.13364,1758074514.97386,0.0,0.0,0.0,-47.95657,-13.23533,8.59437,9.23,0.08,1.48,2.0
1758074515.14898,1758074514.98386,0.0,0.0,0.0,-49.61814,-18.79302,10.19865,9.17,0.05,1.44,2.0
1758074515.15031,1758074514.99386,0.0,0.0,0.0,-51.85268,-25.43933,11.57375,9.17,0.05,1.44,2.0
1758074515.16506,1758074515.00386,0.0,0.0,0.0,-53.51426,-32.83048,11.57375,10.2,-0.11,1.98,2.0
1758074515.18207,1758074515.01386,0.0,0.0,0.0,-53.11319,-39.24761,10.59972,13.46,-1.12,3.33,2.0
1758074515.18398,1758074515.02386,0.0,0.0,0.0,-50.93595,-43.25832,10.54242,13.46,-1.12,3.33,2.0
1758074515.20208,1758074515.03386,0.0,0.0,0.0,-48.01387,-51.10783,10.59972,15.33,-1.87,4.39,2.0
1758074515.20638,1758074515.04386,0.0,0.0,0.0,-45.77933,-62.79618,11.00079,15.33,-1.87,4.39,2.0
1758074515.22204,1758074515.05386,0.0,0.0,0.0,-44.748,-85.77179,11.00079,12.74,-1.28,3.97,2.0
1758074515.22371,1758074515.06386,0.0,0.0,0.0,-46.06581,-94.99641,9.11003,12.74,-1.28,3.97,2.0
1758074515.23901,1758074515.07386,0.0,0.0,0.0,-47.38361,-94.02238,7.50575,9.9,-0.29,2.5,2.0
1758074515.24102,1758074515.08386,0.0,0.0,0.0,-49.38896,-88.35009,5.84417,9.9,-0.29,2.5,2.0
1758074515.25581,1758074515.09386,0.0,0.0,0.0,-52.08187,-82.56322,2.7502,8.02,-0.07,1.78,2.0
1758074515.27176,1758074515.10386,0.0,0.0,0.0,-53.91533,-75.63043,1.60428,6.33,-0.6,2.73,2.0
1758074515.27378,1758074515.11386,0.0,0.0,0.0,-54.77477,-62.79618,0.97403,6.33,-0.6,2.73,2.0
1758074515.28908,1758074515.12386,0.0,0.0,0.0,-53.39967,-47.09713,1.60428,8.38,-1.98,2.83,2.0
1758074515.29044,1758074515.13386,0.0,0.0,0.0,-49.61814,-25.15285,2.40642,8.38,-1.98,2.83,2.0
1758074515.30506,1758074515.14386,0.0,0.0,0.0,-43.37291,-11.51645,4.0107,11.26,-3.95,2.46,2.0
1758074515.32109,1758074515.15386,0.0,0.0,0.0,-35.3515,4.92744,5.61499,11.26,-3.95,2.46,2.0
1758074515.32311,1758074515.16386,0.0,0.0,0.0,-22.28806,30.76784,7.16197,12.99,-5.17,0.63,2.0
1758074515.33891,1758074515.17386,0.0,0.0,0.0,-13.86558,39.3622,7.33386,11.89,-4.9,-0.59,2.0
1758074515.33973,1758074515.18386,0.0,0.0,0.0,-7.16197,43.02913,5.90147,11.89,-4.9,-0.59,2.0
1758074515.35507,1758074515.19386,0.0,0.0,0.0,-1.77617,46.86795,3.55234,10.04,-3.51,-0.7,2.0
1758074515.37104,1758074515.20386,0.0,0.0,0.0,3.72423,53.74345,0.74485,10.04,-3.51,-0.7,2.0
1758074515.37227,1758074515.21386,0.0,0.0,0.0,5.61499,60.79083,-0.74485,10.13,-2.3,-0.84,2.0
1758074515.38821,1758074515.22386,0.0,0.0,0.0,6.13065,68.41116,-2.23454,10.13,-2.3,-0.84,2.0
1758074515.38905,1758074515.23386,0.0,0.0,0.0,5.78687,73.62508,-3.09397,10.13,-1.85,-0.25,2.0
1758074515.40415,1758074515.24386,0.0,0.0,0.0,4.69825,77.29202,-3.09397,9.09,-1.93,0.57,2.0
1758074515.42008,1758074515.25386,0.0,0.0,0.0,3.83882,77.52119,-2.6929,9.09,-1.93,0.57,2.0
1758074515.42105,1758074515.26386,0.0,0.0,0.0,2.7502,75.63043,-2.34913,8.59,-2.07,0.9,2.0
1758074515.43616,1758074515.27386,0.0,0.0,0.0,1.3178,73.3386,-2.7502,8.59,-2.07,0.9,2.0
1758074515.45202,1758074515.28386,0.0,0.0,0.0,-0.74485,73.2813,-4.52637,8.93,-2.03,0.75,2.0
1758074515.45386,1758074515.29386,0.0,0.0,0.0,-1.60428,74.7137,-6.07335,8.93,-2.03,0.75,2.0
1758074515.46892,1758074515.30386,0.0,0.0,0.0,-1.83346,73.62508,-8.02141,9.47,-1.84,0.4,2.0
1758074515.47008,1758074515.31386,0.0,0.0,0.0,-1.08862,69.78626,-10.59972,9.47,-1.84,0.4,2.0
1758074515.48515,1758074515.32386,0.0,0.0,0.0,1.94806,59.12925,-12.54778,8.84,-1.78,0.67,2.0
1758074515.50121,1758074515.33386,0.0,0.0,0.0,4.81285,50.64947,-14.09476,8.32,-2.02,0.89,2.0
1758074515.50207,1758074515.34386,0.0,0.0,0.0,7.67763,42.57077,-15.64175,8.32,-2.02,0.89,2.0
1758074515.51717,1758074515.35386,0.0,0.0,0.0,12.71966,35.3515,-17.24603,8.55,-2.64,1.02,2.0
1758074515.51816,1758074515.36386,0.0,0.0,0.0,15.46986,38.90384,-18.62113,8.55,-2.64,1.02,2.0
1758074515.53397,1758074515.37386,0.0,0.0,0.0,18.10547,44.17505,-20.22541,9.65,-3.34,1.01,2.0
1758074515.55121,1758074515.38386,0.0,0.0,0.0,20.68378,46.1804,-22.11617,9.65,-3.34,1.01,2.0
1758074515.5521,1758074515.39386,0.0,0.0,0.0,23.72045,43.25832,-25.15285,9.23,-3.31,1.71,2.0
1758074515.5672,1758074515.40386,0.0,0.0,0.0,26.35606,39.53409,-26.64254,8.62,-2.46,1.72,2.0
1758074515.56929,1758074515.41386,0.0,0.0,0.0,30.13758,35.92446,-26.75713,8.62,-2.46,1.72,2.0
1758074515.58518,1758074515.42386,0.0,0.0,0.0,34.77854,30.48136,-25.15285,8.79,-1.92,1.31,2.0
1758074515.60111,1758074515.43386,0.0,0.0,0.0,43.02913,20.45459,-20.97026,8.79,-1.92,1.31,2.0
1758074515.60215,1758074515.44386,0.0,0.0,0.0,48.75871,14.61043,-17.87628,8.83,-2.27,0.91,2.0
1758074515.61695,1758074515.45386,0.0,0.0,0.0,53.91533,9.68299,-15.24068,8.83,-2.27,0.91,2.0
1758074515.61905,1758074515.46386,0.0,0.0,0.0,58.55629,5.72958,-13.34992,9.23,-2.97,0.73,2.0
1758074515.6361,1758074515.47386,0.0,0.0,0.0,63.88479,1.94806,-12.54778,9.74,-3.39,0.1,2.0
1758074515.652,1758074515.48386,0.0,0.0,0.0,66.17663,-0.97403,-13.75099,9.74,-3.39,0.1,2.0
1758074515.65347,1758074515.49386,0.0,0.0,0.0,67.55173,-8.93814,-15.92823,9.61,-3.35,0.56,2.0
1758074515.66928,1758074515.50386,0.0,0.0,0.0,67.72362,-17.13144,-18.56383,9.61,-3.35,0.56,2.0
1758074515.67056,1758074515.51386,0.0,0.0,0.0,66.06203,-25.61122,-22.05888,10.28,-2.5,1.52,2.0
1758074515.68576,1758074515.52386,0.0,0.0,0.0,63.13995,-24.86637,-23.26209,10.28,-2.5,1.52,2.0
1758074515.70546,1758074515.53386,0.0,0.0,0.0,58.72818,-25.55392,-22.86102,12.86,0.04,3.84,2.0
1758074515.70985,1758074515.54386,0.0,0.0,0.0,46.69606,-27.2155,-19.13679,12.86,0.04,3.84,2.0
1758074515.71124,1758074515.55386,0.0,0.0,0.0,35.06502,-21.31403,-16.04282,13.89,3.48,6.56,2.0
1758074515.72962,1758074515.56386,0.0,0.0,0.0,20.85567,-8.30789,-14.43854,14.69,5.25,6.22,2.0
1758074515.73089,1758074515.57386,0.0,0.0,0.0,6.99009,-4.69825,-15.29797,14.69,5.25,6.22,2.0
1758074515.74602,1758074515.58386,0.0,0.0,0.0,-7.84952,-43.25832,-20.11082,9.56,3.04,5.18,2.0
1758074515.76379,1758074515.59386,0.0,0.0,0.0,-6.47442,-80.0995,-17.18874,9.56,3.04,5.18,2.0
1758074515.76885,1758074515.60386,0.0,0.0,0.0,-5.32851,-86.51663,-17.36062,5.01,-0.95,3.76,2.0
1758074515.76941,1758074515.61386,0.0,0.0,0.0,-3.38045,-82.21945,-15.87093,5.01,-0.95,3.76,2.0
1758074515.78501,1758074515.62386,0.0,0.0,0.0,0.40107,-76.31798,-16.90226,9.24,-2.84,3.58,2.0
1758074515.80127,1758074515.63386,0.0,0.0,0.0,2.92208,-76.43258,-17.87628,9.16,-2.28,4.44,2.0
1758074515.80337,1758074515.64386,0.0,0.0,0.0,5.27121,-70.30193,-19.36597,9.16,-2.28,4.44,2.0
1758074515.81805,1758074515.65386,0.0,0.0,0.0,7.84952,-60.33246,-21.02755,10.63,-0.52,4.37,2.0
1758074515.81956,1758074515.66386,0.0,0.0,0.0,10.8289,-44.748,-24.75178,10.63,-0.52,4.37,2.0
1758074515.83511,1758074515.67386,0.0,0.0,0.0,12.71966,-34.26288,-26.64254,10.06,1.51,2.38,2.0
1758074515.85133,1758074515.68386,0.0,0.0,0.0,15.0115,-23.54857,-27.33009,10.06,1.51,2.38,2.0
1758074515.85327,1758074515.69386,0.0,0.0,0.0,17.76169,-12.89155,-27.73116,9.51,2.25,2.15,2.0
1758074515.86891,1758074515.70386,0.0,0.0,0.0,22.40265,2.6929,-26.69983,9.18,1.52,1.72,2.0
1758074515.87006,1758074515.71386,0.0,0.0,0.0,26.06958,12.60507,-24.29341,9.18,1.52,1.72,2.0
1758074515.88596,1758074515.72386,0.0,0.0,0.0,29.04896,22.28806,-21.31403,9.18,0.67,1.82,2.0
1758074515.90212,1758074515.73386,0.0,0.0,0.0,31.97105,29.56462,-14.83961,9.18,0.67,1.82,2.0
1758074515.90403,1758074515.74386,0.0,0.0,0.0,32.88778,35.06502,-11.22997,9.03,0.45,2.02,2.0
1758074515.91927,1758074515.75386,0.0,0.0,0.0,31.62727,33.46074,-8.93814,9.03,0.45,2.02,2.0
1758074515.92025,1758074515.76386,0.0,0.0,0.0,29.22085,33.05967,-6.99009,8.68,0.97,2.11,2.0
1758074515.93536,1758074515.77386,0.0,0.0,0.0,23.66316,35.00772,-6.07335,8.68,0.97,2.11,2.0
1758074515.95108,1758074515.78386,0.0,0.0,0.0,19.36597,34.60666,-5.90147,9.43,1.89,2.18,2.0
1758074515.95394,1758074515.79386,0.0,0.0,0.0,14.43854,33.40344,-6.07335,9.13,2.55,2.07,2.0
1758074515.96939,1758074515.80386,0.0,0.0,0.0,9.85487,31.45539,-6.24524,9.13,2.55,2.07,2.0
1758074515.97141,1758074515.81386,0.0,0.0,0.0,3.60963,27.2155,-7.44845,8.73,2.58,2.22,2.0
