timeStamp,timeStampAlign,roll,pitch,yaw,gyro_x,gyro_y,gyro_z,acc_x,acc_y,acc_z,flag_num
1758074616.24339,1758074615.99377,0.0,0.0,0.0,19.42327,-10.8289,-15.29797,9.03,0.47,5.8,6.0
1758074616.24541,1758074616.00377,0.0,0.0,0.0,18.50654,-9.68299,-12.89155,8.66,0.22,5.81,6.0
1758074616.2604,1758074616.01377,0.0,0.0,0.0,17.47521,-8.93814,-12.08941,8.66,0.22,5.81,6.0
1758074616.27866,1758074616.02377,0.0,0.0,0.0,16.50119,-8.59437,-13.12073,8.43,-0.2,5.32,6.0
1758074616.28054,1758074616.03377,0.0,0.0,0.0,15.41257,-7.79223,-16.21471,8.43,-0.2,5.32,6.0
1758074616.29543,1758074616.04377,0.0,0.0,0.0,15.87093,-7.10468,-18.44924,8.41,-0.29,5.32,6.0
1758074616.30012,1758074616.05377,0.0,0.0,0.0,17.18874,-6.41713,-20.45459,8.41,-0.29,5.32,6.0
1758074616.3157,1758074616.06377,0.0,0.0,0.0,19.42327,-5.55769,-22.28806,8.52,-0.32,5.21,6.0
1758074616.31745,1758074616.07377,0.0,0.0,0.0,24.23611,-3.72423,-23.31938,8.58,-0.42,5.04,6.0
1758074616.33245,1758074616.08377,0.0,0.0,0.0,28.01764,-2.29183,-22.91831,8.58,-0.42,5.04,6.0
1758074616.33599,1758074616.09377,0.0,0.0,0.0,31.85646,-0.85944,-21.42862,8.45,-0.48,4.54,6.0
1758074616.3515,1758074616.10377,0.0,0.0,0.0,37.01308,2.00535,-17.53251,8.45,-0.48,4.54,6.0
1758074616.36989,1758074616.11377,0.0,0.0,0.0,39.19032,2.40642,-14.09476,8.25,-0.35,4.28,6.0
1758074616.3711,1758074616.12377,0.0,0.0,0.0,41.08107,2.46372,-10.8289,8.25,-0.35,4.28,6.0
1758074616.38969,1758074616.13377,0.0,0.0,0.0,42.34158,2.86479,-7.62034,7.83,0.03,4.16,6.0
1758074616.39093,1758074616.14377,0.0,0.0,0.0,43.02913,2.92208,-3.38045,7.83,0.03,4.16,6.0
1758074616.40839,1758074616.15377,0.0,0.0,0.0,42.62806,2.92208,-1.48969,7.75,0.49,4.14,6.0
1758074616.4101,1758074616.16377,0.0,0.0,0.0,41.99781,2.92208,-0.17189,7.71,0.78,4.0,6.0
1758074616.4258,1758074616.17377,0.0,0.0,0.0,40.85189,2.29183,0.97403,7.71,0.78,4.0,6.0
1758074616.42676,1758074616.18377,0.0,0.0,0.0,38.50277,0.45837,0.97403,7.57,0.83,4.0,6.0
1758074616.4452,1758074616.19377,0.0,0.0,0.0,36.95578,-1.48969,1.43239,7.57,0.83,4.0,6.0
1758074616.44709,1758074616.20377,0.0,0.0,0.0,35.3515,-3.89611,1.71887,7.49,0.83,3.89,6.0
1758074616.46385,1758074616.21377,0.0,0.0,0.0,33.40344,-6.87549,1.60428,7.49,0.83,3.89,6.0
1758074616.46478,1758074616.22377,0.0,0.0,0.0,28.70519,-8.42248,0.34377,7.49,0.9,3.68,6.0
1758074616.47993,1758074616.23377,0.0,0.0,0.0,25.72581,-9.22462,-0.22918,7.68,1.32,3.55,6.0
1758074616.49558,1758074616.24377,0.0,0.0,0.0,22.28806,-9.68299,-1.43239,7.68,1.32,3.55,6.0
1758074616.49707,1758074616.25377,0.0,0.0,0.0,18.9649,-10.19865,-2.29183,7.63,1.74,3.54,6.0
1758074616.51347,1758074616.26377,0.0,0.0,0.0,14.49583,-11.11538,-2.63561,7.63,1.74,3.54,6.0
1758074616.51598,1758074616.27377,0.0,0.0,0.0,12.204,-11.57375,-2.29183,7.64,1.78,3.43,6.0
1758074616.53269,1758074616.28377,0.0,0.0,0.0,10.37054,-11.17268,-1.3751,7.64,1.78,3.43,6.0
1758074616.5347,1758074616.29377,0.0,0.0,0.0,8.99544,-11.11538,1.03132,7.84,1.51,3.31,6.0
1758074616.55526,1758074616.30377,0.0,0.0,0.0,7.33386,-11.11538,2.57831,7.99,1.07,3.2,6.0
1758074616.55621,1758074616.31377,0.0,0.0,0.0,6.24524,-11.34457,3.89611,7.99,1.07,3.2,6.0
1758074616.57401,1758074616.32377,0.0,0.0,0.0,4.87014,-11.45916,5.15662,8.15,0.75,3.13,6.0
1758074616.57632,1758074616.33377,0.0,0.0,0.0,2.34913,-11.45916,6.07335,8.15,0.75,3.13,6.0
1758074616.59596,1758074616.34377,0.0,0.0,0.0,0.51566,-11.11538,6.41713,8.14,0.77,3.05,6.0
1758074616.59708,1758074616.35377,0.0,0.0,0.0,-1.43239,-10.48513,6.24524,8.14,0.77,3.05,6.0
1758074616.61601,1758074616.36377,0.0,0.0,0.0,-3.66693,-11.28727,6.24524,8.13,0.96,3.06,6.0
1758074616.67604,1758074616.37377,0.0,0.0,0.0,-6.8182,-11.45916,5.55769,8.34,0.96,3.06,6.0
1758074616.7043,1758074616.38377,0.0,0.0,0.0,-9.62569,-11.34457,5.32851,8.34,1.05,3.06,6.0
1758074616.73096,1758074616.39377,0.0,0.0,0.0,-12.204,-10.02676,5.09932,8.75,1.06,3.05,6.0
1758074616.7357,1758074616.40377,0.0,0.0,0.0,-15.06879,-8.02141,5.50039,8.75,1.06,3.05,6.0
1758074616.7408,1758074616.41377,0.0,0.0,0.0,-19.82434,-1.83346,6.47442,9.12,1.05,3.11,6.0
1758074616.74248,1758074616.42377,0.0,0.0,0.0,-23.26209,2.63561,6.07335,9.12,1.05,3.11,6.0
1758074616.7458,1758074616.43377,0.0,0.0,0.0,-26.24147,2.40642,5.90147,9.04,1.06,3.32,6.0
1758074616.75046,1758074616.44377,0.0,0.0,0.0,-29.50733,0.68755,4.18259,9.04,1.06,3.32,6.0
1758074616.75121,1758074616.45377,0.0,0.0,0.0,-33.00237,-6.47442,2.86479,8.47,1.2,3.22,6.0
1758074616.75553,1758074616.46377,0.0,0.0,0.0,-35.00772,-10.65701,1.60428,8.67,1.46,2.84,6.0
1758074616.75632,1758074616.47377,0.0,0.0,0.0,-37.12767,-13.69369,0.11459,8.67,1.46,2.84,6.0
1758074616.76064,1758074616.48377,0.0,0.0,0.0,-38.61736,-16.90226,-1.3178,9.04,1.57,2.72,6.0
1758074616.76497,1758074616.49377,0.0,0.0,0.0,-40.27893,-23.49127,-4.52637,9.04,1.57,2.72,6.0
1758074616.76969,1758074616.50377,0.0,0.0,0.0,-40.39353,-33.11696,-5.21392,8.89,1.26,2.8,6.0
1758074616.77023,1758074616.51377,0.0,0.0,0.0,-39.70598,-39.53409,-6.47442,8.89,1.26,2.8,6.0
1758074616.77468,1758074616.52377,0.0,0.0,0.0,-37.47144,-43.60209,-5.84417,9.16,0.77,2.39,6.0
1758074616.77571,1758074616.53377,0.0,0.0,0.0,-35.98175,-42.85724,-5.72958,10.01,0.16,1.96,6.0
1758074616.79079,1758074616.54377,0.0,0.0,0.0,-34.09099,-34.37747,-1.60428,10.01,0.16,1.96,6.0
1758074616.81015,1758074616.55377,0.0,0.0,0.0,-34.0337,-6.58902,-1.60428,12.14,0.21,3.0,6.0
1758074616.81135,1758074616.56377,0.0,0.0,0.0,-36.38282,-20.97026,-3.09397,12.14,0.21,3.0,6.0
1758074616.82842,1758074616.57377,0.0,0.0,0.0,-37.75792,-24.00693,-3.60963,9.4,0.43,3.72,6.0
1758074616.83071,1758074616.58377,0.0,0.0,0.0,-38.90384,-26.24147,-5.4431,9.4,0.43,3.72,6.0
1758074616.84582,1758074616.59377,0.0,0.0,0.0,-38.50277,-22.51724,-4.87014,10.69,1.07,2.82,6.0
1758074616.85033,1758074616.60377,0.0,0.0,0.0,-37.47144,-13.40721,-4.18259,11.6,1.31,2.15,6.0
1758074616.86585,1758074616.61377,0.0,0.0,0.0,-37.01308,-3.66693,-2.92208,11.6,1.31,2.15,6.0
1758074616.87026,1758074616.62377,0.0,0.0,0.0,-36.49741,7.39116,-0.45837,12.29,1.07,3.0,6.0
1758074616.88587,1758074616.63377,0.0,0.0,0.0,-35.52338,16.10011,2.29183,12.29,1.07,3.0,6.0
1758074616.89025,1758074616.64377,0.0,0.0,0.0,-34.09099,25.38203,6.87549,11.96,0.49,3.1,6.0
1758074616.90589,1758074616.65377,0.0,0.0,0.0,-33.40344,27.84575,9.4538,11.96,0.49,3.1,6.0
1758074616.91027,1758074616.66377,0.0,0.0,0.0,-32.6013,26.64254,11.17268,11.69,-0.09,2.81,6.0
1758074616.926,1758074616.67377,0.0,0.0,0.0,-31.79916,22.63183,12.54778,11.69,-0.09,2.81,6.0
1758074616.93061,1758074616.68377,0.0,0.0,0.0,-30.25217,15.12609,13.46451,11.5,-0.29,2.63,6.0
1758074616.94592,1758074616.69377,0.0,0.0,0.0,-29.33544,10.02676,13.23533,11.58,-0.21,2.6,6.0
1758074616.95077,1758074616.70377,0.0,0.0,0.0,-28.93437,4.92744,12.54778,11.58,-0.21,2.6,6.0
1758074616.96649,1758074616.71377,0.0,0.0,0.0,-28.93437,-1.3178,10.94349,11.28,-0.06,3.1,6.0
1758074616.97031,1758074616.72377,0.0,0.0,0.0,-30.02299,-13.00614,9.62569,11.28,-0.06,3.1,6.0
1758074616.9863,1758074616.73377,0.0,0.0,0.0,-30.76784,-20.68378,8.36518,10.84,0.15,3.87,6.0
1758074616.99037,1758074616.74377,0.0,0.0,0.0,-30.76784,-26.06958,6.24524,10.84,0.15,3.87,6.0
1758074617.00629,1758074616.75377,0.0,0.0,0.0,-28.24682,-27.10091,3.49504,11.65,-0.22,4.66,6.0
1758074617.01115,1758074616.76377,0.0,0.0,0.0,-24.57989,-25.43933,2.06265,12.94,-1.2,5.88,6.0
1758074617.02603,1758074616.77377,0.0,0.0,0.0,-20.22541,-23.37668,1.48969,12.94,-1.2,5.88,6.0
1758074617.03038,1758074616.78377,0.0,0.0,0.0,-16.61578,-22.74642,1.03132,11.95,-2.01,4.58,6.0
1758074617.04604,1758074616.79377,0.0,0.0,0.0,-14.38124,-31.2262,3.66693,11.95,-2.01,4.58,6.0
1758074617.05042,1758074616.80377,0.0,0.0,0.0,-15.87093,-47.32632,5.90147,7.71,-1.22,3.15,6.0
1758074617.06604,1758074616.81377,0.0,0.0,0.0,-19.36597,-63.19725,7.62034,7.71,-1.22,3.15,6.0
1758074617.07443,1758074616.82377,0.0,0.0,0.0,-24.23611,-71.27596,9.22462,5.13,0.18,2.01,6.0
1758074617.07501,1758074616.83377,0.0,0.0,0.0,-32.20023,-72.42187,11.80293,6.01,1.08,1.84,6.0
1758074617.09131,1758074616.84377,0.0,0.0,0.0,-37.75792,-72.88023,13.12073,6.01,1.08,1.84,6.0
1758074617.09576,1758074616.85377,0.0,0.0,0.0,-42.85724,-75.68773,13.5791,5.6,1.13,3.07,6.0
1758074617.11119,1758074616.86377,0.0,0.0,0.0,-47.38361,-78.15145,13.23533,5.6,1.13,3.07,6.0
1758074617.11528,1758074616.87377,0.0,0.0,0.0,-52.02457,-77.92226,11.74564,6.51,0.19,4.15,6.0
1758074617.13007,1758074616.88377,0.0,0.0,0.0,-52.884,-74.36993,9.62569,6.51,0.19,4.15,6.0
1758074617.14634,1758074616.89377,0.0,0.0,0.0,-52.13916,-67.9528,6.99009,8.85,-1.51,4.12,6.0
1758074617.14973,1758074616.90377,0.0,0.0,0.0,-49.90463,-61.1346,3.72423,8.85,-1.51,4.12,6.0
1758074617.166,1758074616.91377,0.0,0.0,0.0,-44.40423,-48.41494,-0.22918,10.62,-2.96,4.34,6.0
1758074617.1703,1758074616.92377,0.0,0.0,0.0,-40.7373,-41.65404,-1.83346,10.58,-3.16,3.95,6.0
1758074617.18512,1758074616.93377,0.0,0.0,0.0,-37.01308,-30.65324,-2.7502,10.58,-3.16,3.95,6.0
1758074617.18742,1758074616.94377,0.0,0.0,0.0,-31.2262,-12.2613,-0.57296,10.07,-2.51,3.45,6.0
1758074617.20242,1758074616.95377,0.0,0.0,0.0,-27.33009,-0.68755,1.83346,10.07,-2.51,3.45,6.0
1758074617.20476,1758074616.96377,0.0,0.0,0.0,-24.17882,11.63104,5.15662,9.32,-2.13,3.12,6.0
1758074617.22044,1758074616.97377,0.0,0.0,0.0,-21.37133,22.91831,8.76626,9.32,-2.13,3.12,6.0
1758074617.23646,1758074616.98377,0.0,0.0,0.0,-17.76169,33.34615,13.75099,9.16,-2.08,3.09,6.0
1758074617.23737,1758074616.99377,0.0,0.0,0.0,-16.10011,33.86181,15.24068,8.4,-1.98,2.71,6.0
1758074617.25543,1758074617.00377,0.0,0.0,0.0,-15.58445,33.34615,15.0115,8.4,-1.98,2.71,6.0
1758074617.25663,1758074617.01377,0.0,0.0,0.0,-15.46986,34.26288,14.61043,9.11,-1.93,2.46,6.0
1758074617.27149,1758074617.02377,0.0,0.0,0.0,-17.18874,39.70598,12.54778,9.11,-1.93,2.46,6.0
1758074617.27237,1758074617.03377,0.0,0.0,0.0,-19.36597,41.88322,10.59972,9.93,-2.06,2.06,6.0
1758074617.29051,1758074617.04377,0.0,0.0,0.0,-22.00158,41.71133,9.11003,9.93,-2.06,2.06,6.0
1758074617.30885,1758074617.05377,0.0,0.0,0.0,-24.98096,41.59674,7.67763,9.1,-2.08,2.19,6.0
1758074617.31101,1758074617.06377,0.0,0.0,0.0,-28.64789,43.31561,6.53172,8.91,-2.04,2.24,6.0
1758074617.33052,1758074617.07377,0.0,0.0,0.0,-30.53865,44.23235,6.24524,8.91,-2.04,2.24,6.0
1758074617.33172,1758074617.08377,0.0,0.0,0.0,-31.39809,43.88857,6.24524,8.84,-2.02,2.19,6.0
1758074617.34893,1758074617.09377,0.0,0.0,0.0,-31.45539,41.65404,6.24524,8.84,-2.02,2.19,6.0
1758074617.35068,1758074617.10377,0.0,0.0,0.0,-29.04896,39.4195,6.99009,8.88,-2.07,2.19,6.0
1758074617.37027,1758074617.11377,0.0,0.0,0.0,-25.8404,38.73195,8.0787,8.88,-2.07,2.19,6.0
1758074617.37397,1758074617.12377,0.0,0.0,0.0,-21.94428,37.58603,9.33921,9.24,-2.4,2.03,6.0
1758074617.37445,1758074617.13377,0.0,0.0,0.0,-17.30333,37.81522,10.71431,9.24,-2.4,2.03,6.0
1758074617.39055,1758074617.14377,0.0,0.0,0.0,-10.37054,37.35685,10.8862,9.29,-3.0,2.0,6.0
1758074617.40898,1758074617.15377,0.0,0.0,0.0,-5.95876,35.63798,10.71431,8.95,-3.32,1.96,6.0
1758074617.41068,1758074617.16377,0.0,0.0,0.0,-2.00535,34.60666,10.02676,8.95,-3.32,1.96,6.0
1758074617.43054,1758074617.17377,0.0,0.0,0.0,3.09397,33.23156,8.25059,8.93,-3.21,1.75,6.0
1758074617.43259,1758074617.18377,0.0,0.0,0.0,6.13065,33.34615,6.58902,8.93,-3.21,1.75,6.0
1758074617.43291,1758074617.19377,0.0,0.0,0.0,8.59437,33.00237,5.21392,8.96,-2.93,1.57,6.0
1758074617.45075,1758074617.20377,0.0,0.0,0.0,10.8862,32.25753,3.60963,8.96,-2.93,1.57,6.0
1758074617.47031,1758074617.21377,0.0,0.0,0.0,14.03747,30.93972,1.48969,8.81,-2.64,1.66,6.0
1758074617.47259,1758074617.22377,0.0,0.0,0.0,16.04282,29.62192,0.57296,8.73,-2.43,1.58,6.0
1758074617.47293,1758074617.23377,0.0,0.0,0.0,18.16276,27.61657,0.22918,8.73,-2.43,1.58,6.0
1758074617.49158,1758074617.24377,0.0,0.0,0.0,20.62648,25.26744,0.22918,8.62,-2.42,1.55,6.0
1758074617.49603,1758074617.25377,0.0,0.0,0.0,24.63719,22.28806,1.20321,8.62,-2.42,1.55,6.0
1758074617.51452,1758074617.26377,0.0,0.0,0.0,27.33009,20.51189,2.06265,8.72,-2.4,1.39,6.0
1758074617.51572,1758074617.27377,0.0,0.0,0.0,30.13758,18.85031,2.57831,8.72,-2.4,1.39,6.0
1758074617.53137,1758074617.28377,0.0,0.0,0.0,33.00237,16.3293,3.09397,8.89,-2.39,1.47,6.0
1758074617.5344,1758074617.29377,0.0,0.0,0.0,37.18496,13.40721,3.60963,9.15,-2.41,1.48,6.0
1758074617.55038,1758074617.30377,0.0,0.0,0.0,39.82057,13.46451,3.38045,9.15,-2.41,1.48,6.0
1758074617.56661,1758074617.31377,0.0,0.0,0.0,42.05511,14.49583,2.92208,9.65,-2.3,1.27,6.0
1758074617.57036,1758074617.32377,0.0,0.0,0.0,44.11775,16.61578,1.94806,9.65,-2.3,1.27,6.0
1758074617.58568,1758074617.33377,0.0,0.0,0.0,46.63877,23.26209,0.0573,10.0,-2.06,1.2,6.0
1758074617.58905,1758074617.34377,0.0,0.0,0.0,48.58683,28.87707,-0.85944,10.0,-2.06,1.2,6.0
1758074617.60448,1758074617.35377,0.0,0.0,0.0,50.64947,34.89313,-1.77617,10.39,-1.83,1.38,6.0
1758074617.60568,1758074617.36377,0.0,0.0,0.0,53.28508,41.59674,-3.66693,10.39,-1.83,1.38,6.0
1758074617.62072,1758074617.37377,0.0,0.0,0.0,54.66018,39.76327,-4.87014,10.89,-1.76,2.44,6.0
1758074617.63672,1758074617.38377,0.0,0.0,0.0,55.86338,35.58068,-4.18259,11.76,-1.64,5.83,6.0
1758074617.63855,1758074617.39377,0.0,0.0,0.0,54.25911,28.476,-2.7502,11.76,-1.64,5.83,6.0
1758074617.6537,1758074617.40377,0.0,0.0,0.0,46.52417,19.59516,0.0573,13.82,0.56,7.39,6.0
1758074617.65576,1758074617.41377,0.0,0.0,0.0,38.15899,12.2613,1.66158,13.82,0.56,7.39,6.0
1758074617.67081,1758074617.42377,0.0,0.0,0.0,27.73116,17.58981,0.40107,14.19,1.77,6.1,6.0
1758074617.67291,1758074617.43377,0.0,0.0,0.0,17.18874,23.20479,-3.03668,14.19,1.77,6.1,6.0
1758074617.68875,1758074617.44377,0.0,0.0,0.0,5.32851,29.62192,-7.84952,13.12,1.14,3.61,6.0
1758074617.7048,1758074617.45377,0.0,0.0,0.0,0.57296,30.65324,-11.22997,9.34,-0.03,5.95,6.0
1758074617.70568,1758074617.46377,0.0,0.0,0.0,-1.83346,29.39274,-15.75634,9.34,-0.03,5.95,6.0
1758074617.72078,1758074617.47377,0.0,0.0,0.0,-1.94806,28.93437,-21.25674,6.45,-2.56,6.63,6.0
1758074617.73815,1758074617.48377,0.0,0.0,0.0,1.66158,16.73037,-28.70519,6.45,-2.56,6.63,6.0
1758074617.74011,1758074617.49377,0.0,0.0,0.0,3.95341,0.57296,-32.14294,5.24,-3.8,6.52,6.0
1758074617.75548,1758074617.50377,0.0,0.0,0.0,7.96411,-11.34457,-33.11696,5.24,-3.8,6.52,6.0
1758074617.75671,1758074617.51377,0.0,0.0,0.0,11.97482,-24.23611,-30.99702,6.56,-3.28,5.58,6.0
1758074617.77263,1758074617.52377,0.0,0.0,0.0,16.10011,-28.76248,-24.23611,9.04,-0.86,5.84,6.0
1758074617.7751,1758074617.53377,0.0,0.0,0.0,16.50119,-29.10626,-19.13679,9.04,-0.86,5.84,6.0
1758074617.79057,1758074617.54377,0.0,0.0,0.0,15.92823,-29.73651,-13.23533,9.55,1.27,6.7,6.0
1758074617.80844,1758074617.55377,0.0,0.0,0.0,14.78231,-29.10626,-7.79223,9.55,1.27,6.7,6.0
1758074617.81014,1758074617.56377,0.0,0.0,0.0,14.09476,-26.98631,-8.0787,9.19,1.23,6.46,6.0
1758074617.8256,1758074617.57377,0.0,0.0,0.0,13.40721,-25.72581,-11.00079,9.19,1.23,6.46,6.0
1758074617.82716,1758074617.58377,0.0,0.0,0.0,13.06344,-25.49662,-14.9542,8.38,-0.01,5.64,6.0
1758074617.84239,1758074617.59377,0.0,0.0,0.0,13.46451,-25.38203,-21.08485,8.38,-0.01,5.64,6.0
1758074617.84677,1758074617.60377,0.0,0.0,0.0,15.06879,-25.61122,-23.94964,8.2,-0.77,5.54,6.0
1758074617.86443,1758074617.61377,0.0,0.0,0.0,17.13144,-24.98096,-25.15285,8.39,-1.02,5.13,6.0
1758074617.86641,1758074617.62376,0.0,0.0,0.0,19.82434,-23.26209,-24.5226,8.39,-1.02,5.13,6.0
1758074617.88261,1758074617.63376,0.0,0.0,0.0,24.80907,-20.45459,-20.51189,8.87,-0.91,4.94,6.0
1758074617.8852,1758074617.64376,0.0,0.0,0.0,28.41871,-18.73572,-16.61578,8.87,-0.91,4.94,6.0
1758074617.90099,1758074617.65376,0.0,0.0,0.0,31.97105,-15.98552,-12.204,9.03,-0.65,4.56,6.0
1758074617.90263,1758074617.66376,0.0,0.0,0.0,35.75257,-12.49048,-7.67763,9.03,-0.65,4.56,6.0
1758074617.92071,1758074617.67376,0.0,0.0,0.0,40.27893,-6.53172,-2.34913,9.02,-0.39,4.4,6.0
1758074617.93674,1758074617.68376,0.0,0.0,0.0,43.02913,-2.63561,0.40107,8.61,-0.14,4.37,6.0
1758074617.94023,1758074617.69376,0.0,0.0,0.0,45.26366,0.0573,1.77617,8.61,-0.14,4.37,6.0
1758074617.95593,1758074617.70376,0.0,0.0,0.0,47.26902,2.57831,2.06265,8.17,0.0,4.27,6.0
1758074617.95712,1758074617.71376,0.0,0.0,0.0,49.27437,5.4431,1.94806,8.17,0.0,4.27,6.0
1758074617.97294,1758074617.72376,0.0,0.0,0.0,50.47758,6.8182,1.77617,8.08,0.05,4.04,6.0
1758074617.97476,1758074617.73376,0.0,0.0,0.0,51.16513,7.79223,1.83346,8.08,0.05,4.04,6.0
1758074617.99099,1758074617.74376,0.0,0.0,0.0,51.6235,7.44845,2.06265,7.98,0.14,3.78,6.0
1758074617.99264,1758074617.75376,0.0,0.0,0.0,51.73809,7.50575,3.32316,8.03,0.31,3.76,6.0
1758074618.00969,1758074617.76376,0.0,0.0,0.0,51.45161,7.04738,5.09932,8.03,0.31,3.76,6.0
1758074618.02594,1758074617.77376,0.0,0.0,0.0,50.363,5.4431,6.58902,7.94,0.46,3.7,6.0
1758074618.02803,1758074617.78376,0.0,0.0,0.0,48.58683,2.86479,9.85487,7.94,0.46,3.7,6.0
1758074618.04371,1758074617.79376,0.0,0.0,0.0,46.06581,3.72423,10.65701,7.98,0.75,3.52,6.0
1758074618.06197,1758074617.80376,0.0,0.0,0.0,43.20102,3.49504,11.57375,7.98,0.75,3.52,6.0
1758074618.06212,1758074617.81376,0.0,0.0,0.0,39.87786,1.43239,11.45916,7.97,1.23,3.59,6.0
1758074618.076,1758074617.82376,0.0,0.0,0.0,33.11696,-1.20321,9.28192,7.97,1.23,3.59,6.0
1758074618.07876,1758074617.83376,0.0,0.0,0.0,28.99167,-2.6929,8.36518,7.62,1.74,3.37,6.0
1758074618.0956,1758074617.84376,0.0,0.0,0.0,25.21014,-4.64096,7.50575,7.7,1.96,3.25,6.0
1758074618.09855,1758074617.85376,0.0,0.0,0.0,22.00158,-6.70361,7.16197,7.7,1.96,3.25,6.0
1758074618.11571,1758074617.86376,0.0,0.0,0.0,18.56383,-9.4538,7.67763,7.77,1.72,2.97,6.0
1758074618.11822,1758074617.87376,0.0,0.0,0.0,17.13144,-10.25595,8.36518,7.77,1.72,2.97,6.0
1758074618.13379,1758074617.88376,0.0,0.0,0.0,16.21471,-11.34457,9.33921,8.0,1.19,2.9,6.0
1758074618.13618,1758074617.89376,0.0,0.0,0.0,15.46986,-12.08941,10.37054,8.0,1.19,2.9,6.0
1758074618.15103,1758074617.90376,0.0,0.0,0.0,14.43854,-13.69369,11.45916,8.28,0.72,2.96,6.0
1758074618.15278,1758074617.91376,0.0,0.0,0.0,13.17803,-14.15206,12.14671,8.62,0.5,3.04,6.0
1758074618.16994,1758074617.92376,0.0,0.0,0.0,11.51645,-14.9542,12.37589,8.62,0.5,3.04,6.0
1758074618.18847,1758074617.93376,0.0,0.0,0.0,9.22462,-15.58445,12.49048,8.74,0.55,3.14,6.0
1758074618.19076,1758074617.94376,0.0,0.0,0.0,5.15662,-15.41257,12.204,8.74,0.55,3.14,6.0
1758074618.20596,1758074617.95376,0.0,0.0,0.0,2.11994,-15.58445,11.86023,8.78,0.78,2.91,6.0
1758074618.21023,1758074617.96376,0.0,0.0,0.0,-0.45837,-15.24068,11.51645,8.78,0.78,2.91,6.0
1758074618.22592,1758074617.97376,0.0,0.0,0.0,-4.18259,-14.49583,11.28727,8.77,1.03,2.7,6.0
1758074618.23019,1758074617.98376,0.0,0.0,0.0,-5.90147,-12.71966,10.71431,8.81,1.13,2.46,6.0
1758074618.2459,1758074617.99376,0.0,0.0,0.0,-7.16197,-12.14671,10.59972,8.81,1.13,2.46,6.0
1758074618.25022,1758074618.00376,0.0,0.0,0.0,-8.36518,-9.5684,10.37054,8.84,1.05,2.6,6.0
1758074618.26589,1758074618.01376,0.0,0.0,0.0,-9.74028,-1.60428,10.59972,8.84,1.05,2.6,6.0
1758074618.27028,1758074618.02376,0.0,0.0,0.0,-10.59972,3.49504,11.28727,9.35,0.91,2.97,6.0
1758074618.28587,1758074618.03376,0.0,0.0,0.0,-12.77696,8.99544,8.99544,9.35,0.91,2.97,6.0
1758074618.29029,1758074618.04376,0.0,0.0,0.0,-14.61043,8.65166,7.96411,9.22,0.81,3.26,6.0
1758074618.30597,1758074618.05376,0.0,0.0,0.0,-18.16276,5.4431,5.55769,8.77,0.81,3.16,6.0
1758074618.3122,1758074618.06376,0.0,0.0,0.0,-20.62648,3.03668,3.66693,8.77,0.67,3.16,6.0
1758074618.33009,1758074618.07376,0.0,0.0,0.0,-22.28806,-0.40107,2.57831,9.05,0.69,2.85,6.0
1758074618.33136,1758074618.08376,0.0,0.0,0.0,-24.00693,-4.87014,1.3178,9.05,0.69,2.85,6.0
1758074618.35016,1758074618.09376,0.0,0.0,0.0,-25.61122,-11.80293,0.57296,9.4,0.8,2.8,6.0
1758074618.35174,1758074618.10376,0.0,0.0,0.0,-26.64254,-16.67307,-0.34377,9.4,0.8,2.8,6.0
1758074618.3552,1758074618.11376,0.0,0.0,0.0,-26.24147,-24.12152,0.40107,9.57,0.68,3.04,6.0
1758074618.37123,1758074618.12376,0.0,0.0,0.0,-25.49662,-28.41871,0.97403,9.57,0.68,3.04,6.0
1758074618.37568,1758074618.13376,0.0,0.0,0.0,-23.26209,-30.59595,1.94806,9.84,0.46,2.53,6.0
1758074618.39483,1758074618.14376,0.0,0.0,0.0,-21.37133,-30.02299,2.40642,10.12,0.14,2.09,6.0
1758074618.40011,1758074618.15376,0.0,0.0,0.0,-18.44924,-26.01229,3.89611,10.12,0.14,2.09,6.0
1758074618.46572,1758074618.16376,0.0,0.0,0.0,-16.95955,-11.11538,5.4431,11.07,0.14,2.43,6.0
1758074618.47003,1758074618.17376,0.0,0.0,0.0,-17.58981,-10.02676,2.97938,11.07,0.14,2.43,6.0
1758074618.47494,1758074618.18376,0.0,0.0,0.0,-18.22006,-13.34992,1.77617,9.84,0.23,3.01,6.0
1758074618.47613,1758074618.19376,0.0,0.0,0.0,-20.11082,-18.56383,1.03132,9.84,0.23,3.01,6.0
1758074618.48139,1758074618.20376,0.0,0.0,0.0,-21.7151,-16.84496,0.17189,10.07,0.74,2.42,6.0
1758074618.48983,1758074618.21376,0.0,0.0,0.0,-22.11617,-14.20935,0.80214,10.12,1.03,1.5,6.0
1758074618.4904,1758074618.22376,0.0,0.0,0.0,-22.68913,-8.47978,1.71887,10.12,1.03,1.5,6.0
1758074618.49114,1758074618.23376,0.0,0.0,0.0,-23.54857,-1.60428,3.09397,10.07,1.06,1.66,6.0
1758074618.49495,1758074618.24376,0.0,0.0,0.0,-24.86637,9.5684,6.53172,10.07,1.06,1.66,6.0
1758074618.49535,1758074618.25376,0.0,0.0,0.0,-25.55392,13.34992,8.76626,10.19,0.86,2.62,6.0
1758074618.51117,1758074618.26376,0.0,0.0,0.0,-26.01229,14.03747,10.8862,10.19,0.86,2.62,6.0
1758074618.5306,1758074618.27376,0.0,0.0,0.0,-26.35606,13.12073,12.43318,10.13,0.49,2.8,6.0
1758074618.53224,1758074618.28376,0.0,0.0,0.0,-26.69983,9.91217,14.03747,10.67,0.19,2.35,6.0
1758074618.54791,1758074618.29376,0.0,0.0,0.0,-27.10091,7.67763,14.20935,10.67,0.19,2.35,6.0
1758074618.55097,1758074618.30376,0.0,0.0,0.0,-27.50197,5.78687,14.32395,11.08,0.11,2.08,6.0
1758074618.56641,1758074618.31376,0.0,0.0,0.0,-28.30412,5.21392,13.75099,11.08,0.11,2.08,6.0
1758074618.56973,1758074618.32376,0.0,0.0,0.0,-29.33544,6.87549,14.43854,11.24,0.16,2.31,6.0
1758074618.5852,1758074618.33376,0.0,0.0,0.0,-29.50733,1.03132,15.46986,11.24,0.16,2.31,6.0
1758074618.58959,1758074618.34376,0.0,0.0,0.0,-30.25217,-11.97482,15.64175,10.25,0.09,2.94,6.0
1758074618.60539,1758074618.35376,0.0,0.0,0.0,-31.85646,-25.38203,13.86558,10.25,0.09,2.94,6.0
1758074618.60978,1758074618.36376,0.0,0.0,0.0,-33.9764,-28.476,10.37054,10.33,0.04,3.5,6.0
1758074618.6254,1758074618.37376,0.0,0.0,0.0,-33.40344,-24.98096,9.62569,12.64,-0.28,3.3,6.0
1758074618.62978,1758074618.38376,0.0,0.0,0.0,-32.48671,-23.54857,8.70896,12.64,-0.28,3.3,6.0
1758074618.64515,1758074618.39376,0.0,0.0,0.0,-28.59059,-20.51189,7.73493,12.8,-1.03,4.91,6.0
1758074618.64973,1758074618.40376,0.0,0.0,0.0,-24.35071,-15.12609,7.62034,12.8,-1.03,4.91,6.0
1758074618.66521,1758074618.41376,0.0,0.0,0.0,-19.19409,-11.45916,8.0787,13.8,-2.25,5.09,6.0
1758074618.67066,1758074618.42376,0.0,0.0,0.0,-14.66772,-11.28727,9.33921,13.8,-2.25,5.09,6.0
1758074618.67446,1758074618.43376,0.0,0.0,0.0,-11.34457,-26.41335,13.46451,12.04,-2.83,3.91,6.0
1758074618.69019,1758074618.44376,0.0,0.0,0.0,-12.43318,-47.61279,16.04282,6.88,-1.67,3.11,6.0
1758074618.70885,1758074618.45376,0.0,0.0,0.0,-15.41257,-66.34852,17.24603,6.88,-1.67,3.11,6.0
1758074618.7106,1758074618.46376,0.0,0.0,0.0,-19.13679,-75.40125,17.76169,5.8,-0.18,2.43,6.0
1758074618.72889,1758074618.47376,0.0,0.0,0.0,-24.86637,-78.43793,17.53251,5.8,-0.18,2.43,6.0
1758074618.73092,1758074618.48376,0.0,0.0,0.0,-29.50733,-80.67246,16.55848,5.93,0.44,2.19,6.0
1758074618.74653,1758074618.49376,0.0,0.0,0.0,-34.77854,-83.25077,14.66772,5.93,0.44,2.19,6.0
1758074618.75065,1758074618.50376,0.0,0.0,0.0,-40.27893,-84.45398,12.43318,5.46,0.7,3.34,6.0
1758074618.76623,1758074618.51376,0.0,0.0,0.0,-46.98254,-80.0995,8.25059,7.03,0.33,3.49,6.0
1758074618.76899,1758074618.52376,0.0,0.0,0.0,-50.3057,-76.31798,5.27121,7.03,0.33,3.49,6.0
1758074618.78453,1758074618.53376,0.0,0.0,0.0,-51.85268,-69.78626,2.40642,9.22,-1.01,3.85,6.0
1758074618.78544,1758074618.54376,0.0,0.0,0.0,-50.76406,-61.99404,0.17189,9.22,-1.01,3.85,6.0
1758074618.8005,1758074618.55376,0.0,0.0,0.0,-46.46688,-49.21708,-2.00535,10.95,-2.81,3.96,6.0
1758074618.81792,1758074618.56376,0.0,0.0,0.0,-41.59674,-39.4195,-2.92208,10.95,-2.81,3.96,6.0
1758074618.82579,1758074618.57376,0.0,0.0,0.0,-35.92446,-27.50197,-3.32316,11.01,-4.1,3.35,6.0
1758074618.82619,1758074618.58376,0.0,0.0,0.0,-29.67921,-13.75099,-1.83346,11.01,-4.1,3.35,6.0
1758074618.85029,1758074618.59376,0.0,0.0,0.0,-19.36597,3.66693,3.09397,10.22,-4.18,2.59,6.0
1758074618.85497,1758074618.60376,0.0,0.0,0.0,-12.2613,16.84496,6.7609,9.84,-3.44,2.76,6.0
1758074618.85535,1758074618.61376,0.0,0.0,0.0,-5.15662,27.61657,10.48513,9.84,-3.44,2.76,6.0
1758074618.87558,1758074618.62376,0.0,0.0,0.0,4.23989,33.51803,14.15206,9.2,-2.64,2.19,6.0
1758074618.87978,1758074618.63376,0.0,0.0,0.0,8.99544,35.69527,14.83961,9.2,-2.64,2.19,6.0
1758074618.89562,1758074618.64376,0.0,0.0,0.0,12.77696,37.64333,14.66772,9.16,-2.24,1.93,6.0
1758074618.89737,1758074618.65376,0.0,0.0,0.0,15.35527,36.32552,14.83961,9.16,-2.24,1.93,6.0
1758074618.91583,1758074618.66376,0.0,0.0,0.0,16.38659,39.13302,14.78231,9.38,-2.35,1.76,6.0
1758074618.91829,1758074618.67376,0.0,0.0,0.0,15.58445,40.33623,14.61043,9.84,-2.51,2.02,6.0
1758074618.93571,1758074618.68376,0.0,0.0,0.0,13.86558,39.82057,14.72501,9.84,-2.51,2.02,6.0
1758074618.94076,1758074618.69376,0.0,0.0,0.0,11.28727,38.78925,14.9542,9.25,-2.43,2.12,6.0
1758074618.95538,1758074618.70376,0.0,0.0,0.0,7.44845,37.47144,15.46986,9.25,-2.43,2.12,6.0
1758074618.96057,1758074618.71376,0.0,0.0,0.0,4.98473,36.03905,15.46986,9.02,-2.29,2.07,6.0
1758074619.04518,1758074618.72376,0.0,0.0,0.0,3.60963,33.74722,15.41257,9.02,-2.29,2.07,6.0
1758074619.0501,1758074618.73376,0.0,0.0,0.0,3.38045,31.2262,15.24068,8.9,-2.19,1.95,6.0
1758074619.05072,1758074618.74376,0.0,0.0,0.0,5.61499,25.26744,15.69904,8.86,-2.28,1.82,6.0
1758074619.05545,1758074618.75376,0.0,0.0,0.0,8.42248,20.85567,15.98552,8.86,-2.28,1.82,6.0
1758074619.05578,1758074618.76376,0.0,0.0,0.0,11.57375,17.01685,16.04282,8.87,-2.59,1.62,6.0
1758074619.06343,1758074618.77376,0.0,0.0,0.0,15.0115,15.87093,15.46986,8.87,-2.59,1.62,6.0
1758074619.06597,1758074618.78376,0.0,0.0,0.0,20.45459,18.85031,14.72501,9.36,-2.82,1.69,6.0
1758074619.07072,1758074618.79376,0.0,0.0,0.0,24.00693,20.85567,14.03747,9.36,-2.82,1.69,6.0
1758074619.07254,1758074618.80376,0.0,0.0,0.0,26.87172,22.51724,13.5218,9.35,-2.82,1.83,6.0
1758074619.07578,1758074618.81376,0.0,0.0,0.0,30.25217,23.20479,12.89155,9.35,-2.82,1.83,6.0
1758074619.08008,1758074618.82376,0.0,0.0,0.0,32.08564,23.0329,12.71966,9.24,-2.65,1.89,6.0
1758074619.08037,1758074618.83376,0.0,0.0,0.0,33.23156,21.88699,12.54778,9.24,-2.48,1.78,6.0
1758074619.08489,1758074618.84376,0.0,0.0,0.0,33.80451,20.74107,12.37589,9.24,-2.48,1.78,6.0
1758074619.10057,1758074618.85376,0.0,0.0,0.0,34.26288,18.85031,11.86023,9.34,-2.31,1.74,6.0
1758074619.11654,1758074618.86376,0.0,0.0,0.0,34.14828,18.22006,11.28727,9.34,-2.31,1.74,6.0
1758074619.1209,1758074618.87376,0.0,0.0,0.0,33.63263,17.6471,10.59972,9.41,-2.08,1.7,6.0
1758074619.13838,1758074618.88376,0.0,0.0,0.0,33.23156,16.61578,9.85487,9.41,-2.08,1.7,6.0
1758074619.1409,1758074618.89376,0.0,0.0,0.0,32.54401,15.06879,8.59437,9.34,-1.9,1.73,6.0
1758074619.15032,1758074618.90376,0.0,0.0,0.0,32.54401,14.9542,7.84952,9.36,-1.9,1.7,6.0
1758074619.16994,1758074618.91376,0.0,0.0,0.0,32.83048,16.10011,7.21927,9.36,-1.9,1.7,6.0
1758074619.17096,1758074618.92376,0.0,0.0,0.0,33.51803,18.27736,6.35983,9.48,-1.97,1.63,6.0
1758074619.17503,1758074618.93376,0.0,0.0,0.0,35.00772,22.68913,4.69825,9.48,-1.97,1.63,6.0
1758074619.19087,1758074618.94376,0.0,0.0,0.0,36.7266,26.64254,3.26586,9.42,-2.1,1.6,6.0
1758074619.19605,1758074618.95376,0.0,0.0,0.0,39.07573,31.16891,2.34913,9.42,-2.1,1.6,6.0
1758074619.25217,1758074618.96376,0.0,0.0,0.0,41.99781,35.00772,1.83346,9.43,-2.3,1.76,6.0
1758074619.2743,1758074618.97376,0.0,0.0,0.0,47.38361,38.73195,2.29183,9.37,-2.47,1.95,6.0
1758074619.27596,1758074618.98376,0.0,0.0,0.0,51.39432,40.68,3.72423,9.37,-2.47,1.95,6.0
1758074619.27882,1758074618.99376,0.0,0.0,0.0,55.40502,42.34158,5.61499,9.45,-2.49,2.01,6.0
1758074619.28031,1758074619.00376,0.0,0.0,0.0,59.41573,42.74266,8.02141,9.45,-2.49,2.01,6.0
1758074619.28464,1758074619.01376,0.0,0.0,0.0,64.62964,41.99781,10.94349,9.26,-2.4,1.84,6.0
1758074619.28582,1758074619.02376,0.0,0.0,0.0,67.66632,40.62271,12.49048,9.26,-2.4,1.84,6.0
1758074619.29091,1758074619.03376,0.0,0.0,0.0,69.95815,38.21629,13.23533,9.01,-2.2,1.73,6.0
1758074619.29252,1758074619.04376,0.0,0.0,0.0,72.07809,27.44468,12.60507,9.01,-2.2,1.73,6.0
1758074619.2945,1758074619.05376,0.0,0.0,0.0,71.79161,14.9542,10.71431,8.39,-1.86,1.36,6.0
1758074619.31088,1758074619.06376,0.0,0.0,0.0,71.67702,4.98473,7.16197,8.11,-1.38,0.77,6.0
1758074619.32929,1758074619.07376,0.0,0.0,0.0,70.6457,22.28806,3.38045,8.11,-1.38,0.77,6.0
1758074619.33341,1758074619.08376,0.0,0.0,0.0,72.47916,53.17049,-0.51566,11.38,-1.52,0.56,6.0
1758074619.33405,1758074619.09376,0.0,0.0,0.0,72.88023,61.59297,-4.29718,11.38,-1.52,0.56,6.0
1758074619.35046,1758074619.10376,0.0,0.0,0.0,73.68237,48.07116,-9.96947,8.98,-1.37,2.66,6.0
1758074619.36934,1758074619.11376,0.0,0.0,0.0,70.41652,9.4538,-7.39116,8.98,-1.37,2.66,6.0
1758074619.37106,1758074619.12376,0.0,0.0,0.0,66.29122,-19.42327,-3.38045,7.49,-1.03,3.92,6.0
1758074619.4057,1758074619.13376,0.0,0.0,0.0,62.28051,-31.74186,2.97938,12.35,-0.53,4.21,6.0
1758074619.41065,1758074619.14376,0.0,0.0,0.0,55.00395,-36.7266,7.44845,12.35,-0.53,4.21,6.0
1758074619.41231,1758074619.15376,0.0,0.0,0.0,45.09178,-36.95578,14.43854,14.56,1.05,6.87,6.0
1758074619.41594,1758074619.16376,0.0,0.0,0.0,24.86637,-23.54857,18.27736,14.56,1.05,6.87,6.0
1758074619.42054,1758074619.17376,0.0,0.0,0.0,9.91217,-16.21471,17.76169,14.58,2.67,8.34,6.0
1758074619.43602,1758074619.18376,0.0,0.0,0.0,-4.92744,-9.85487,13.12073,14.58,2.67,8.34,6.0
1758074619.43852,1758074619.19376,0.0,0.0,0.0,-16.50119,-5.15662,7.39116,11.97,3.22,5.51,6.0
1758074619.45404,1758074619.20376,0.0,0.0,0.0,-26.41335,-0.68755,-5.27121,8.96,1.85,4.47,6.0
1758074619.45521,1758074619.21376,0.0,0.0,0.0,-28.07493,2.7502,-14.09476,8.96,1.85,4.47,6.0
1758074619.46988,1758074619.22376,0.0,0.0,0.0,-26.18417,5.27121,-21.60051,6.85,-0.77,5.0,6.0
1758074619.48573,1758074619.23376,0.0,0.0,0.0,-18.44924,7.10468,-30.25217,6.85,-0.77,5.0,6.0
1758074619.4885,1758074619.24376,0.0,0.0,0.0,-10.8862,8.42248,-33.00237,6.8,-3.24,5.87,6.0
1758074619.50568,1758074619.25376,0.0,0.0,0.0,-2.57831,11.22997,-33.00237,6.8,-3.24,5.87,6.0
1758074619.50977,1758074619.26376,0.0,0.0,0.0,4.87014,15.06879,-30.82513,8.9,-4.82,5.62,6.0
1758074619.52564,1758074619.27376,0.0,0.0,0.0,12.54778,21.88699,-24.4653,8.9,-4.82,5.62,6.0
1758074619.52998,1758074619.28376,0.0,0.0,0.0,14.83961,24.57989,-18.85031,10.68,-4.25,5.74,6.0
1758074619.54571,1758074619.29376,0.0,0.0,0.0,15.87093,25.55392,-12.60507,10.18,-1.7,6.27,6.0
1758074619.55077,1758074619.30376,0.0,0.0,0.0,15.64175,26.98631,-8.42248,10.18,-1.7,6.27,6.0
1758074619.60998,1758074619.31376,0.0,0.0,0.0,15.12609,27.44468,-5.09932,9.07,0.19,6.2,6.0
1758074619.7837,1758074619.32376,0.0,0.0,0.0,15.29797,26.69983,-5.50039,9.07,0.19,6.2,6.0
1758074619.8041,1758074619.33376,0.0,0.0,0.0,16.10011,23.89234,-7.62034,7.93,0.78,5.76,6.0
1758074619.81034,1758074619.34376,0.0,0.0,0.0,17.30333,19.88164,-11.00079,7.93,0.78,5.76,6.0
1758074619.81065,1758074619.35376,0.0,0.0,0.0,20.05352,14.83961,-16.10011,7.2,0.3,5.26,6.0
1758074619.81437,1758074619.36376,0.0,0.0,0.0,22.51724,11.34457,-18.9649,7.27,-0.46,4.9,6.0
1758074619.81494,1758074619.37376,0.0,0.0,0.0,25.09555,7.16197,-20.85567,7.27,-0.46,4.9,6.0
1758074619.81579,1758074619.38376,0.0,0.0,0.0,27.61657,3.26586,-21.48592,7.29,-1.08,4.7,6.0
1758074619.81682,1758074619.39376,0.0,0.0,0.0,30.93972,-1.60428,-20.16812,7.29,-1.08,4.7,6.0
1758074619.81758,1758074619.40376,0.0,0.0,0.0,33.00237,-4.46907,-17.93358,7.61,-1.2,4.58,6.0
1758074619.81948,1758074619.41376,0.0,0.0,0.0,34.43476,-7.04738,-15.29797,7.61,-1.2,4.58,6.0
1758074619.82106,1758074619.42376,0.0,0.0,0.0,35.92446,-9.91217,-11.74564,7.73,-0.95,4.45,6.0
1758074619.8248,1758074619.43376,0.0,0.0,0.0,37.47144,-14.66772,-5.90147,7.64,-0.57,4.61,6.0
1758074619.82522,1758074619.44376,0.0,0.0,0.0,38.61736,-18.33465,-2.11994,7.64,-0.57,4.61,6.0
1758074619.82993,1758074619.45376,0.0,0.0,0.0,39.70598,-20.79837,0.34377,7.43,-0.28,4.42,6.0
1758074619.8303,1758074619.46376,0.0,0.0,0.0,41.25296,-25.49662,3.72423,7.43,-0.28,4.42,6.0
1758074619.83242,1758074619.47376,0.0,0.0,0.0,41.99781,-28.07493,5.4431,7.29,0.0,4.25,6.0
1758074619.83288,1758074619.48376,0.0,0.0,0.0,42.39888,-30.13758,7.04738,7.29,0.0,4.25,6.0
1758074619.83732,1758074619.49376,0.0,0.0,0.0,42.05511,-30.76784,8.47978,7.62,0.34,4.33,6.0
1758074619.83991,1758074619.50376,0.0,0.0,0.0,40.62271,-29.04896,8.70896,7.62,0.34,4.33,6.0
1758074619.8408,1758074619.51376,0.0,0.0,0.0,39.07573,-27.78845,8.76626,8.06,0.69,4.19,6.0
1758074619.85023,1758074619.52376,0.0,0.0,0.0,36.84119,-25.61122,8.65166,8.24,1.01,4.18,6.0
1758074619.85091,1758074619.53376,0.0,0.0,0.0,34.49206,-23.89234,8.30789,8.24,1.01,4.18,6.0
1758074619.85598,1758074619.54376,0.0,0.0,0.0,30.53865,-20.05352,6.87549,8.38,1.13,4.01,6.0
1758074619.85765,1758074619.55376,0.0,0.0,0.0,27.44468,-17.58981,5.32851,8.38,1.13,4.01,6.0
1758074619.86034,1758074619.56376,0.0,0.0,0.0,24.57989,-15.87093,4.35448,8.29,1.07,3.91,6.0
1758074619.86145,1758074619.57376,0.0,0.0,0.0,22.40265,-13.75099,3.03668,8.29,1.07,3.91,6.0
1758074619.86376,1758074619.58376,0.0,0.0,0.0,20.3973,-11.17268,2.97938,8.24,0.89,3.69,6.0
1758074619.86452,1758074619.59376,0.0,0.0,0.0,19.82434,-9.4538,3.32316,8.13,0.62,3.44,6.0
1758074619.8697,1758074619.60376,0.0,0.0,0.0,19.59516,-7.96411,4.0107,8.13,0.62,3.44,6.0
1758074619.87022,1758074619.61376,0.0,0.0,0.0,20.45459,-5.72958,4.92744,8.11,0.45,3.35,6.0
1758074619.87224,1758074619.62376,0.0,0.0,0.0,21.14215,-5.21392,6.7609,8.11,0.45,3.35,6.0
1758074619.87287,1758074619.63376,0.0,0.0,0.0,20.85567,-6.53172,8.99544,8.07,0.69,3.77,6.0
1758074619.8902,1758074619.64376,0.0,0.0,0.0,20.34,-7.79223,11.80293,8.07,0.69,3.77,6.0
1758074619.90636,1758074619.65376,0.0,0.0,0.0,16.90226,-10.08406,16.73037,8.69,1.21,4.49,6.0
1758074619.90963,1758074619.66376,0.0,0.0,0.0,12.83425,-11.17268,19.76705,9.23,1.48,4.21,6.0
1758074619.92537,1758074619.67376,0.0,0.0,0.0,7.84952,-9.28192,21.6578,9.23,1.48,4.21,6.0
1758074619.92736,1758074619.68376,0.0,0.0,0.0,2.23454,-6.41713,22.05888,9.32,1.25,3.79,6.0
1758074619.94317,1758074619.69376,0.0,0.0,0.0,-5.90147,-3.89611,20.68378,9.32,1.25,3.79,6.0
1758074619.95046,1758074619.70376,0.0,0.0,0.0,-10.48513,-1.66158,18.85031,9.0,0.91,3.32,6.0
