timeStamp,timeStampAlign,roll,pitch,yaw,gyro_x,gyro_y,gyro_z,acc_x,acc_y,acc_z,flag_num
1758086637.40189,1758086637.31432,0.0,0.0,0.0,-7.04738,-10.08406,-9.11003,9.78,-1.07,0.99,4.0
1758086637.40707,1758086637.32432,0.0,0.0,0.0,-8.02141,-9.85487,-9.74028,9.78,-1.07,0.95,4.0
1758086637.42194,1758086637.33432,0.0,0.0,0.0,-8.42248,-9.39651,-10.19865,9.74,-1.14,0.95,4.0
1758086637.42389,1758086637.34432,0.0,0.0,0.0,-8.70896,-9.05273,-10.48513,9.72,-1.24,0.97,4.0
1758086637.43998,1758086637.35432,0.0,0.0,0.0,-8.93814,-8.136,-10.65701,9.72,-1.24,0.97,4.0
1758086637.4562,1758086637.36432,0.0,0.0,0.0,-8.88085,-7.10468,-10.8862,9.69,-1.33,0.92,4.0
1758086637.45716,1758086637.37432,0.0,0.0,0.0,-8.76626,-6.35983,-10.8862,9.69,-1.33,0.92,4.0
1758086637.47216,1758086637.38432,0.0,0.0,0.0,-8.65166,-5.15662,-10.94349,9.71,-1.37,0.86,4.0
1758086637.4739,1758086637.39432,0.0,0.0,0.0,-8.47978,-4.52637,-10.94349,9.71,-1.37,0.86,4.0
1758086637.48924,1758086637.40432,0.0,0.0,0.0,-8.36518,-3.66693,-10.94349,9.69,-1.33,0.78,4.0
1758086637.50637,1758086637.41432,0.0,0.0,0.0,-8.59437,-3.03668,-10.94349,9.65,-1.29,0.7,4.0
1758086637.5075,1758086637.42432,0.0,0.0,0.0,-8.70896,-2.57831,-11.00079,9.65,-1.29,0.7,4.0
1758086637.522,1758086637.43432,0.0,0.0,0.0,-9.05273,-2.46372,-11.17268,9.58,-1.28,0.62,4.0
1758086637.5251,1758086637.44432,0.0,0.0,0.0,-9.62569,-2.57831,-11.28727,9.58,-1.28,0.62,4.0
1758086637.5767,1758086637.45432,0.0,0.0,0.0,-10.08406,-2.46372,-11.57375,9.59,-1.29,0.54,4.0
1758086637.58388,1758086637.46432,0.0,0.0,0.0,-10.37054,-2.86479,-11.63104,9.59,-1.29,0.54,4.0
1758086637.58421,1758086637.47432,0.0,0.0,0.0,-10.94349,-3.26586,-12.08941,9.57,-1.34,0.49,4.0
1758086637.58694,1758086637.48432,0.0,0.0,0.0,-11.22997,-3.66693,-12.43318,9.43,-1.38,0.44,4.0
1758086637.58757,1758086637.49432,0.0,0.0,0.0,-11.17268,-3.89611,-12.49048,9.43,-1.38,0.44,4.0
1758086637.59232,1758086637.50432,0.0,0.0,0.0,-11.00079,-3.95341,-12.49048,9.13,-1.4,0.34,4.0
1758086637.5927,1758086637.51432,0.0,0.0,0.0,-10.65701,-3.83882,-12.14671,9.13,-1.4,0.34,4.0
1758086637.60422,1758086637.52432,0.0,0.0,0.0,-10.31324,-3.83882,-11.91752,8.82,-1.39,0.25,4.0
1758086637.6218,1758086637.53432,0.0,0.0,0.0,-9.96947,-3.60963,-11.74564,8.82,-1.39,0.25,4.0
1758086637.62285,1758086637.54432,0.0,0.0,0.0,-9.4538,-3.66693,-11.51645,8.48,-1.4,0.18,4.0
1758086637.63991,1758086637.55432,0.0,0.0,0.0,-9.22462,-3.89611,-11.22997,8.17,-1.41,0.18,4.0
1758086637.68689,1758086637.56432,0.0,0.0,0.0,-8.99544,-3.89611,-11.00079,8.17,-1.41,0.18,4.0
1758086637.69254,1758086637.57432,0.0,0.0,0.0,-9.05273,-3.95341,-10.8862,8.04,-1.47,0.07,4.0
1758086637.69391,1758086637.58432,0.0,0.0,0.0,-9.05273,-4.69825,-10.48513,8.04,-1.47,0.07,4.0
1758086637.69597,1758086637.59432,0.0,0.0,0.0,-9.33921,-5.72958,-9.85487,7.81,-1.54,-0.07,4.0
1758086637.69659,1758086637.60432,0.0,0.0,0.0,-9.85487,-7.04738,-9.28192,7.81,-1.54,-0.07,4.0
1758086637.70026,1758086637.61432,0.0,0.0,0.0,-10.25595,-9.11003,-8.47978,7.41,-1.53,-0.11,4.0
1758086637.71536,1758086637.62432,0.0,0.0,0.0,-10.71431,-11.28727,-7.96411,7.41,-1.53,-0.11,4.0
1758086637.72057,1758086637.63432,0.0,0.0,0.0,-11.22997,-14.32395,-6.58902,6.99,-1.46,-0.14,4.0
1758086637.73542,1758086637.64432,0.0,0.0,0.0,-11.51645,-16.95955,-5.61499,6.63,-1.31,-0.17,4.0
1758086637.74183,1758086637.65432,0.0,0.0,0.0,-11.57375,-20.45459,-4.1253,6.63,-1.31,-0.17,4.0
1758086637.74518,1758086637.66432,0.0,0.0,0.0,-11.45916,-24.4653,-0.74485,6.86,-0.91,0.47,4.0
1758086637.77401,1758086637.67432,0.0,0.0,0.0,-10.94349,-32.08564,2.00535,6.86,-0.91,0.47,4.0
1758086637.77694,1758086637.68432,0.0,0.0,0.0,-10.94349,-36.6693,5.32851,9.15,-0.28,1.59,4.0
1758086637.77939,1758086637.69432,0.0,0.0,0.0,-11.11538,-36.95578,8.88085,9.15,-0.28,1.59,4.0
1758086637.79508,1758086637.70432,0.0,0.0,0.0,-13.06344,-30.48136,13.17803,13.24,0.34,2.57,4.0
1758086637.79798,1758086637.71432,0.0,0.0,0.0,-15.64175,-26.98631,14.15206,15.89,1.1,2.72,4.0
1758086637.81541,1758086637.72432,0.0,0.0,0.0,-18.79302,-24.92367,13.00614,15.89,1.1,2.72,4.0
1758086637.81746,1758086637.73432,0.0,0.0,0.0,-22.05888,-22.63183,10.19865,14.26,1.61,2.15,4.0
1758086637.83246,1758086637.74432,0.0,0.0,0.0,-26.75713,-12.43318,3.83882,14.26,1.61,2.15,4.0
1758086637.83339,1758086637.75432,0.0,0.0,0.0,-29.39274,-4.23989,-0.17189,11.96,1.47,0.84,4.0
1758086637.84927,1758086637.76432,0.0,0.0,0.0,-31.39809,3.09397,-3.26586,11.96,1.47,0.84,4.0
1758086637.86545,1758086637.77432,0.0,0.0,0.0,-32.83048,10.19865,-4.92744,11.34,1.4,1.27,4.0
1758086637.86641,1758086637.78432,0.0,0.0,0.0,-34.60666,23.83505,-3.72423,14.7,1.6,2.87,4.0
1758086637.88145,1758086637.79432,0.0,0.0,0.0,-35.86716,30.65324,-1.08862,14.7,1.6,2.87,4.0
1758086637.88244,1758086637.80432,0.0,0.0,0.0,-38.1017,33.34615,1.71887,17.54,1.63,2.97,4.0
1758086637.90027,1758086637.81432,0.0,0.0,0.0,-40.04975,32.37212,4.0107,17.54,1.63,2.97,4.0
1758086637.9028,1758086637.82432,0.0,0.0,0.0,-42.97184,26.47065,4.0107,15.32,0.55,1.81,4.0
1758086637.92008,1758086637.83432,0.0,0.0,0.0,-42.57077,17.93358,2.29183,15.32,0.55,1.81,4.0
1758086637.93544,1758086637.84432,0.0,0.0,0.0,-41.99781,6.99009,0.22918,11.58,-0.98,0.27,4.0
1758086637.93675,1758086637.85432,0.0,0.0,0.0,-39.53409,1.66158,-2.34913,11.58,-0.98,0.27,4.0
1758086637.9515,1758086637.86432,0.0,0.0,0.0,-33.00237,4.46907,-5.72958,10.04,-2.01,0.16,4.0
1758086637.95433,1758086637.87432,0.0,0.0,0.0,-27.61657,10.25595,-7.10468,9.76,-2.45,0.5,4.0
1758086637.96947,1758086637.88432,0.0,0.0,0.0,-20.74107,13.23533,-7.62034,9.76,-2.45,0.5,4.0
1758086637.98547,1758086637.89432,0.0,0.0,0.0,-9.4538,9.62569,-6.70361,8.81,-2.46,1.22,4.0
1758086637.98642,1758086637.90432,0.0,0.0,0.0,-2.11994,6.07335,-5.90147,8.81,-2.46,1.22,4.0
1758086638.00246,1758086637.91432,0.0,0.0,0.0,4.29718,3.03668,-5.50039,8.55,-2.08,0.78,4.0
1758086638.00487,1758086637.92432,0.0,0.0,0.0,9.62569,0.0,-5.15662,8.55,-2.08,0.78,4.0
1758086638.02155,1758086637.93432,0.0,0.0,0.0,15.0115,-3.09397,-4.87014,8.58,-1.49,0.65,4.0
1758086638.02296,1758086637.94432,0.0,0.0,0.0,17.13144,-2.46372,-4.69825,8.75,-0.9,0.91,4.0
1758086638.04015,1758086637.95432,0.0,0.0,0.0,17.99088,0.0573,-4.64096,8.75,-0.9,0.91,4.0
1758086638.05557,1758086637.96432,0.0,0.0,0.0,17.87628,2.92208,-4.52637,9.09,-0.39,1.02,4.0
1758086638.05727,1758086637.97432,0.0,0.0,0.0,16.38659,4.81285,-4.23989,9.09,-0.39,1.02,4.0
1758086638.07399,1758086637.98432,0.0,0.0,0.0,14.9542,3.89611,-4.1253,9.05,-0.03,0.97,4.0
1758086638.07598,1758086637.99432,0.0,0.0,0.0,13.12073,3.49504,-4.1253,9.05,-0.03,0.97,4.0
1758086638.0924,1758086638.00432,0.0,0.0,0.0,11.22997,3.38045,-4.1253,9.27,0.21,0.7,4.0
1758086638.09412,1758086638.01432,0.0,0.0,0.0,8.47978,2.34913,-3.89611,9.33,0.37,0.59,4.0
1758086638.11156,1758086638.02432,0.0,0.0,0.0,6.99009,0.40107,-3.49504,9.33,0.37,0.59,4.0
1758086638.11762,1758086638.03432,0.0,0.0,0.0,5.90147,-2.63561,-3.32316,9.1,0.39,0.6,4.0
1758086638.12289,1758086638.04432,0.0,0.0,0.0,5.15662,-5.50039,-3.38045,9.1,0.39,0.6,4.0
1758086638.14236,1758086638.05432,0.0,0.0,0.0,4.81285,-4.64096,-3.09397,9.28,0.26,0.42,4.0
1758086638.14674,1758086638.06432,0.0,0.0,0.0,4.92744,-2.40642,-2.97938,9.28,0.26,0.42,4.0
1758086638.18736,1758086638.07432,0.0,0.0,0.0,5.55769,0.11459,-2.29183,9.39,0.08,0.47,4.0
1758086638.19539,1758086638.08432,0.0,0.0,0.0,7.39116,2.11994,-0.80214,9.39,0.08,0.47,4.0
1758086638.19691,1758086638.09432,0.0,0.0,0.0,8.76626,3.72423,0.0,9.11,-0.19,0.61,4.0
1758086638.20467,1758086638.10432,0.0,0.0,0.0,9.74028,4.1253,1.03132,8.85,-0.44,0.45,4.0
1758086638.22926,1758086638.11432,0.0,0.0,0.0,10.37054,3.95341,1.48969,8.85,-0.44,0.45,4.0
1758086638.23156,1758086638.12432,0.0,0.0,0.0,10.54242,3.03668,2.86479,8.77,-0.45,0.13,4.0
1758086638.23188,1758086638.13432,0.0,0.0,0.0,9.96947,2.11994,3.66693,8.77,-0.45,0.13,4.0
1758086638.23302,1758086638.14432,0.0,0.0,0.0,9.33921,1.60428,4.81285,8.77,-0.25,0.01,4.0
1758086638.23459,1758086638.15432,0.0,0.0,0.0,8.65166,0.57296,6.18794,8.77,-0.25,0.01,4.0
1758086638.25152,1758086638.16432,0.0,0.0,0.0,7.44845,-1.03132,8.02141,8.77,-0.03,0.0,4.0
1758086638.2526,1758086638.17432,0.0,0.0,0.0,6.53172,-2.63561,9.22462,8.71,0.09,0.07,4.0
1758086638.26948,1758086638.18432,0.0,0.0,0.0,5.21392,-3.95341,9.96947,8.71,0.09,0.07,4.0
1758086638.28726,1758086638.19432,0.0,0.0,0.0,4.23989,-5.15662,10.37054,8.79,0.16,0.02,4.0
1758086638.29248,1758086638.20432,0.0,0.0,0.0,2.23454,-7.33386,10.48513,8.79,0.16,0.02,4.0
1758086638.29363,1758086638.21432,0.0,0.0,0.0,1.08862,-9.05273,10.37054,8.93,0.23,0.17,4.0
1758086638.30968,1758086638.22432,0.0,0.0,0.0,0.22918,-9.85487,9.96947,8.93,0.23,0.17,4.0
1758086638.32669,1758086638.23432,0.0,0.0,0.0,-0.34377,-9.62569,9.62569,9.26,0.3,0.2,4.0
1758086638.32789,1758086638.24432,0.0,0.0,0.0,-0.68755,-8.47978,8.65166,9.58,0.34,0.08,4.0
1758086638.3427,1758086638.25432,0.0,0.0,0.0,-0.68755,-7.84952,8.36518,9.58,0.34,0.08,4.0
1758086638.34391,1758086638.26432,0.0,0.0,0.0,-0.57296,-7.33386,7.84952,9.59,0.33,-0.04,4.0
1758086638.36037,1758086638.27432,0.0,0.0,0.0,-0.34377,-7.39116,7.16197,9.59,0.33,-0.04,4.0
1758086638.3757,1758086638.28432,0.0,0.0,0.0,-0.11459,-7.96411,6.8182,9.47,0.2,-0.16,4.0
1758086638.37692,1758086638.29432,0.0,0.0,0.0,0.0,-8.42248,6.53172,9.47,0.2,-0.16,4.0
1758086638.39183,1758086638.30432,0.0,0.0,0.0,0.0573,-9.22462,6.24524,9.33,0.01,-0.25,4.0
1758086638.39269,1758086638.31432,0.0,0.0,0.0,0.22918,-10.54242,5.90147,9.33,0.01,-0.25,4.0
1758086638.43691,1758086638.32432,0.0,0.0,0.0,0.68755,-12.2613,5.72958,9.32,-0.14,-0.16,4.0
1758086638.44179,1758086638.33432,0.0,0.0,0.0,1.03132,-13.46451,5.55769,9.34,-0.2,-0.08,4.0
1758086638.44237,1758086638.34432,0.0,0.0,0.0,1.60428,-13.80828,5.32851,9.34,-0.2,-0.08,4.0
1758086638.44705,1758086638.35432,0.0,0.0,0.0,2.63561,-12.60507,4.92744,9.44,-0.08,0.0,4.0
1758086638.4474,1758086638.36432,0.0,0.0,0.0,3.49504,-11.28727,4.69825,9.44,-0.08,0.0,4.0
1758086638.46457,1758086638.37432,0.0,0.0,0.0,4.35448,-9.4538,4.52637,9.3,0.08,-0.28,4.0
1758086638.46558,1758086638.38432,0.0,0.0,0.0,5.21392,-7.21927,4.35448,9.3,0.08,-0.28,4.0
1758086638.4806,1758086638.39432,0.0,0.0,0.0,6.53172,-6.18794,3.89611,8.95,0.1,-0.56,4.0
1758086638.48281,1758086638.40432,0.0,0.0,0.0,7.39116,-6.7609,3.49504,8.25,0.02,-0.85,4.0
1758086638.49971,1758086638.41432,0.0,0.0,0.0,7.96411,-7.84952,2.97938,8.25,0.02,-0.85,4.0
1758086638.51559,1758086638.42432,0.0,0.0,0.0,8.47978,-10.08406,2.46372,7.69,-0.25,-0.65,4.0
1758086638.5478,1758086638.43432,0.0,0.0,0.0,9.68299,-19.19409,1.03132,7.69,-0.25,-0.65,4.0
1758086638.54811,1758086638.44432,0.0,0.0,0.0,10.37054,-28.24682,-0.45837,7.79,-0.92,0.64,4.0
1758086638.56895,1758086638.45432,0.0,0.0,0.0,10.8289,-37.64333,-2.86479,7.79,-0.92,0.64,4.0
1758086638.5701,1758086638.46432,0.0,0.0,0.0,11.22997,-44.51882,-6.58902,9.77,-1.48,1.36,4.0
1758086638.57134,1758086638.47432,0.0,0.0,0.0,13.12073,-47.03984,-7.67763,12.27,-1.5,1.83,4.0
1758086638.57198,1758086638.48432,0.0,0.0,0.0,15.46986,-44.63341,-7.79223,12.27,-1.5,1.83,4.0
1758086638.57276,1758086638.49432,0.0,0.0,0.0,18.73572,-39.13302,-6.41713,13.79,-1.74,2.13,4.0
1758086638.58991,1758086638.50432,0.0,0.0,0.0,22.74642,-28.01764,-1.83346,13.79,-1.74,2.13,4.0
1758086638.60662,1758086638.51432,0.0,0.0,0.0,23.49127,-22.34536,1.3178,14.2,-2.29,1.81,4.0
1758086638.60779,1758086638.52432,0.0,0.0,0.0,23.0902,-15.98552,4.23989,14.2,-2.29,1.81,4.0
1758086638.62262,1758086638.53432,0.0,0.0,0.0,22.97561,-8.99544,5.55769,14.48,-2.83,2.23,4.0
1758086638.64067,1758086638.54432,0.0,0.0,0.0,22.34536,-5.61499,3.49504,14.48,-2.83,1.91,4.0
1758086638.64167,1758086638.55432,0.0,0.0,0.0,21.08485,-6.13065,0.11459,15.4,-2.92,1.91,4.0
1758086638.65693,1758086638.56432,0.0,0.0,0.0,19.76705,-1.48969,-2.97938,15.06,-1.64,0.81,4.0
1758086638.65785,1758086638.57432,0.0,0.0,0.0,20.11082,10.48513,-3.89611,15.06,-1.64,0.81,4.0
1758086638.67493,1758086638.58432,0.0,0.0,0.0,22.23076,29.73651,-2.40642,14.13,-0.39,0.45,4.0
1758086638.68062,1758086638.59432,0.0,0.0,0.0,24.29341,36.84119,0.0573,14.13,-0.39,0.45,4.0
1758086638.69646,1758086638.60432,0.0,0.0,0.0,25.43933,38.56006,2.40642,12.28,-0.45,1.12,4.0
1758086638.69765,1758086638.61432,0.0,0.0,0.0,24.98096,36.49741,4.58366,12.28,-0.45,1.12,4.0
1758086638.71559,1758086638.62432,0.0,0.0,0.0,20.97026,32.83048,6.58902,11.5,-0.8,0.82,4.0
1758086638.71742,1758086638.63432,0.0,0.0,0.0,16.61578,32.37212,5.95876,11.47,-0.69,0.53,4.0
1758086638.73516,1758086638.64432,0.0,0.0,0.0,11.86023,32.77319,5.90147,11.47,-0.69,0.53,4.0
1758086638.7423,1758086638.65432,0.0,0.0,0.0,6.70361,33.17426,4.64096,10.87,-0.13,0.64,4.0
1758086638.74287,1758086638.66432,0.0,0.0,0.0,0.45837,31.74186,4.18259,10.87,-0.13,0.64,4.0
1758086638.76051,1758086638.67432,0.0,0.0,0.0,-3.38045,29.04896,3.26586,10.0,0.15,1.13,4.0
1758086638.77762,1758086638.68432,0.0,0.0,0.0,-6.70361,25.26744,2.86479,10.0,0.15,1.13,4.0
1758086638.78094,1758086638.69432,0.0,0.0,0.0,-10.19865,19.88164,1.60428,9.21,0.12,1.19,4.0
1758086638.79578,1758086638.70432,0.0,0.0,0.0,-11.63104,17.6471,1.03132,8.98,-0.23,1.0,4.0
1758086638.79719,1758086638.71432,0.0,0.0,0.0,-12.204,16.67307,0.34377,8.98,-0.23,1.0,4.0
1758086638.81184,1758086638.72432,0.0,0.0,0.0,-12.14671,15.46986,-0.0573,8.82,-0.65,1.02,4.0
1758086638.8129,1758086638.73432,0.0,0.0,0.0,-11.28727,13.75099,-0.45837,8.82,-0.65,1.02,4.0
1758086638.82881,1758086638.74432,0.0,0.0,0.0,-10.65701,12.14671,-0.74485,8.56,-1.01,1.12,4.0
1758086638.84722,1758086638.75432,0.0,0.0,0.0,-9.96947,9.85487,-0.85944,8.56,-1.01,1.12,4.0
1758086638.84913,1758086638.76432,0.0,0.0,0.0,-9.22462,7.04738,-0.85944,8.33,-1.31,0.82,4.0
1758086638.86502,1758086638.77432,0.0,0.0,0.0,-8.25059,4.52637,-1.14592,8.3,-1.52,0.51,4.0
1758086638.86753,1758086638.78432,0.0,0.0,0.0,-7.67763,4.18259,-1.43239,8.3,-1.52,0.51,4.0
1758086638.8848,1758086638.79432,0.0,0.0,0.0,-6.99009,3.95341,-1.43239,8.37,-1.57,0.42,4.0
1758086638.88753,1758086638.80432,0.0,0.0,0.0,-6.13065,4.69825,-1.14592,8.37,-1.57,0.42,4.0
1758086638.92469,1758086638.81432,0.0,0.0,0.0,-4.29718,11.63104,-0.80214,8.7,-1.54,0.45,4.0
1758086638.92758,1758086638.82432,0.0,0.0,0.0,-4.29718,20.45459,-1.77617,8.7,-1.54,0.45,4.0
1758086638.93397,1758086638.83432,0.0,0.0,0.0,-3.26586,27.33009,-1.71887,9.2,-1.49,0.4,4.0
1758086638.93492,1758086638.84432,0.0,0.0,0.0,-2.86479,28.87707,-1.83346,9.2,-1.49,0.4,4.0
1758086638.93728,1758086638.85432,0.0,0.0,0.0,-2.7502,23.66316,-1.20321,8.58,-1.38,0.69,4.0
1758086638.95386,1758086638.86432,0.0,0.0,0.0,-2.97938,15.41257,-1.60428,8.04,-1.28,0.24,4.0
1758086638.96067,1758086638.87432,0.0,0.0,0.0,-3.60963,11.17268,-2.34913,8.04,-1.28,0.24,4.0
1758086638.97662,1758086638.88432,0.0,0.0,0.0,-3.60963,10.19865,-3.49504,8.74,-1.2,-0.4,4.0
1758086638.97779,1758086638.89432,0.0,0.0,0.0,-2.92208,7.10468,-3.83882,8.74,-1.2,-0.4,4.0
1758086638.99578,1758086638.90432,0.0,0.0,0.0,-1.94806,2.11994,-4.1253,8.69,-1.19,-0.11,4.0
1758086638.99703,1758086638.91432,0.0,0.0,0.0,-1.43239,-2.23454,-4.98473,8.69,-1.19,-0.11,4.0
1758086639.01184,1758086638.92432,0.0,0.0,0.0,-1.60428,-7.79223,-7.39116,8.81,-1.13,0.06,4.0
1758086639.013,1758086638.93432,0.0,0.0,0.0,-0.80214,-7.62034,-8.93814,9.2,-0.96,-0.16,4.0
1758086639.03212,1758086638.94432,0.0,0.0,0.0,0.0,0.45837,-8.47978,9.2,-0.96,-0.16,4.0
1758086639.03303,1758086638.95432,0.0,0.0,0.0,1.71887,7.50575,-8.65166,10.12,-1.05,0.54,4.0
1758086639.05399,1758086638.96432,0.0,0.0,0.0,2.7502,7.33386,-10.19865,10.12,-1.05,0.54,4.0
1758086639.05698,1758086638.97432,0.0,0.0,0.0,2.11994,2.23454,-11.28727,8.94,-0.96,0.95,4.0
1758086639.0721,1758086638.98432,0.0,0.0,0.0,1.3751,-3.26586,-11.63104,8.94,-0.96,0.95,4.0
1758086639.08809,1758086638.99432,0.0,0.0,0.0,0.57296,-8.42248,-12.14671,8.91,-0.89,0.44,4.0
1758086639.09,1758086639.00432,0.0,0.0,0.0,-0.22918,-13.80828,-11.97482,9.09,-0.91,-0.28,4.0
1758086639.10592,1758086639.01432,0.0,0.0,0.0,-1.43239,-14.83961,-11.74564,9.09,-0.91,-0.28,4.0
1758086639.10712,1758086639.02432,0.0,0.0,0.0,-2.11994,-17.81899,-11.63104,9.21,-0.99,0.31,4.0
1758086639.12197,1758086639.03432,0.0,0.0,0.0,-2.6929,-22.68913,-11.22997,9.21,-0.99,0.31,4.0
1758086639.12337,1758086639.04432,0.0,0.0,0.0,-3.03668,-23.20479,-10.8289,9.12,-1.11,0.28,4.0
1758086639.14018,1758086639.05432,0.0,0.0,0.0,-2.7502,-20.11082,-10.31324,9.12,-1.11,0.28,4.0
1758086639.15621,1758086639.06432,0.0,0.0,0.0,-2.57831,-17.76169,-10.25595,9.41,-1.3,0.33,4.0
1758086639.15735,1758086639.07432,0.0,0.0,0.0,-1.71887,-17.6471,-9.68299,9.41,-1.3,0.33,4.0
1758086639.19628,1758086639.08432,0.0,0.0,0.0,-0.57296,-18.33465,-9.22462,8.6,-1.49,0.29,4.0
1758086639.19816,1758086639.09432,0.0,0.0,0.0,0.40107,-18.62113,-8.47978,8.13,-1.67,0.17,4.0
1758086639.20021,1758086639.10432,0.0,0.0,0.0,1.60428,-17.99088,-8.02141,8.13,-1.67,0.17,4.0
1758086639.2016,1758086639.11432,0.0,0.0,0.0,3.60963,-17.93358,-6.87549,7.95,-1.83,-0.1,4.0
1758086639.21697,1758086639.12432,0.0,0.0,0.0,4.98473,-17.53251,-6.41713,7.95,-1.83,-0.1,4.0
1758086639.21813,1758086639.13432,0.0,0.0,0.0,6.35983,-17.87628,-5.78687,7.76,-1.91,-0.08,4.0
1758086639.237,1758086639.14432,0.0,0.0,0.0,7.39116,-17.6471,-5.21392,7.76,-1.91,-0.08,4.0
1758086639.23771,1758086639.15432,0.0,0.0,0.0,8.99544,-17.24603,-4.23989,7.43,-1.87,-0.17,4.0
1758086639.25313,1758086639.16432,0.0,0.0,0.0,10.54242,-16.55848,-3.72423,6.97,-1.87,-0.25,4.0
1758086639.25493,1758086639.17432,0.0,0.0,0.0,11.51645,-17.99088,-2.97938,6.97,-1.87,-0.25,4.0
1758086639.27002,1758086639.18432,0.0,0.0,0.0,11.80293,-18.85031,-2.00535,6.25,-1.71,-0.37,4.0
1758086639.2873,1758086639.19432,0.0,0.0,0.0,11.97482,-22.57454,1.3178,6.25,-1.71,-0.37,4.0
1758086639.28764,1758086639.20432,0.0,0.0,0.0,11.63104,-25.15285,4.52637,5.84,-1.43,-0.01,4.0
1758086639.30727,1758086639.21432,0.0,0.0,0.0,10.48513,-28.64789,9.22462,5.84,-1.43,-0.01,4.0
1758086639.30765,1758086639.22432,0.0,0.0,0.0,8.36518,-32.42941,14.43854,7.21,-0.82,1.84,4.0
1758086639.32728,1758086639.23432,0.0,0.0,0.0,5.55769,-33.46074,24.5226,13.16,0.27,3.85,4.0
1758086639.32767,1758086639.24432,0.0,0.0,0.0,3.26586,-30.82513,30.02299,13.16,0.27,3.85,4.0
1758086639.33502,1758086639.25432,0.0,0.0,0.0,-1.3178,-24.4653,31.62727,18.9,2.14,3.57,4.0
1758086639.35208,1758086639.26432,0.0,0.0,0.0,-6.87549,-19.82434,29.73651,18.9,2.14,3.57,4.0
1758086639.3573,1758086639.27432,0.0,0.0,0.0,-14.83961,-12.49048,21.88699,16.91,3.12,2.23,4.0
1758086639.3761,1758086639.28432,0.0,0.0,0.0,-18.9649,0.34377,14.9542,16.91,3.12,2.23,4.0
1758086639.37732,1758086639.29432,0.0,0.0,0.0,-21.88699,11.11538,8.30789,13.81,2.39,0.77,4.0
1758086639.39207,1758086639.30432,0.0,0.0,0.0,-24.98096,21.60051,3.03668,13.81,2.39,0.77,4.0
1758086639.39732,1758086639.31432,0.0,0.0,0.0,-26.81443,25.72581,3.72423,13.17,1.89,1.19,4.0
1758086639.41209,1758086639.32432,0.0,0.0,0.0,-29.10626,28.476,5.15662,16.08,1.71,1.72,4.0
1758086639.44178,1758086639.33432,0.0,0.0,0.0,-31.74186,30.30947,7.67763,16.08,1.71,1.72,4.0
1758086639.44263,1758086639.34432,0.0,0.0,0.0,-35.63798,32.14294,10.8862,17.53,0.79,1.56,4.0
1758086639.44393,1758086639.35432,0.0,0.0,0.0,-38.15899,33.40344,11.28727,17.53,0.79,1.56,4.0
1758086639.44778,1758086639.36432,0.0,0.0,0.0,-39.76327,35.00772,10.02676,15.31,-0.66,1.01,4.0
1758086639.46313,1758086639.37432,0.0,0.0,0.0,-40.04975,35.63798,7.96411,15.31,-0.66,1.01,4.0
1758086639.4651,1758086639.38432,0.0,0.0,0.0,-37.12767,34.43476,4.52637,12.47,-1.36,0.9,4.0
1758086639.4801,1758086639.39432,0.0,0.0,0.0,-32.88778,31.16891,2.86479,10.55,-1.63,0.44,4.0
1758086639.49735,1758086639.40431,0.0,0.0,0.0,-26.87172,26.98631,2.97938,10.55,-1.63,0.44,4.0
1758086639.49772,1758086639.41431,0.0,0.0,0.0,-20.3973,25.89769,3.26586,9.71,-1.91,0.16,4.0
1758086639.51317,1758086639.42431,0.0,0.0,0.0,-9.5684,25.49662,4.23989,9.71,-1.91,0.16,4.0
1758086639.51767,1758086639.43431,0.0,0.0,0.0,-2.86479,24.5226,4.52637,9.18,-1.96,0.58,4.0
1758086639.53316,1758086639.44431,0.0,0.0,0.0,2.86479,21.6578,3.95341,9.18,-1.96,0.58,4.0
1758086639.53831,1758086639.45431,0.0,0.0,0.0,7.10468,20.05352,3.32316,8.37,-1.59,1.05,4.0
1758086639.55546,1758086639.46431,0.0,0.0,0.0,10.59972,18.56383,1.3751,8.23,-0.94,1.39,4.0
1758086639.55797,1758086639.47431,0.0,0.0,0.0,11.51645,16.21471,-0.22918,8.23,-0.94,1.39,4.0
1758086639.57441,1758086639.48431,0.0,0.0,0.0,11.22997,13.12073,-1.71887,7.77,-0.27,1.38,4.0
1758086639.58188,1758086639.49431,0.0,0.0,0.0,9.85487,9.85487,-3.49504,7.77,-0.27,1.38,4.0
1758086639.58232,1758086639.50431,0.0,0.0,0.0,8.65166,5.50039,-4.46907,7.77,0.12,1.29,4.0
1758086639.71774,1758086639.51431,0.0,0.0,0.0,7.10468,3.09397,-5.21392,7.77,0.12,1.29,4.0
1758086639.72099,1758086639.52431,0.0,0.0,0.0,5.78687,1.20321,-5.50039,8.22,0.27,1.05,4.0
1758086639.72228,1758086639.53431,0.0,0.0,0.0,3.72423,-1.94806,-5.4431,8.22,0.27,1.05,4.0
1758086639.72265,1758086639.54431,0.0,0.0,0.0,2.57831,-1.71887,-4.64096,8.71,0.27,1.01,4.0
1758086639.72621,1758086639.55431,0.0,0.0,0.0,1.14592,-0.57296,-3.72423,9.18,0.13,0.91,4.0
1758086639.72683,1758086639.56431,0.0,0.0,0.0,-0.0573,1.60428,-3.03668,9.18,0.13,0.91,4.0
1758086639.72808,1758086639.57431,0.0,0.0,0.0,-3.09397,2.6929,-3.26586,9.24,-0.09,1.06,4.0
1758086639.72871,1758086639.58431,0.0,0.0,0.0,-5.27121,2.86479,-4.0107,9.24,-0.09,1.06,4.0
1758086639.72995,1758086639.59431,0.0,0.0,0.0,-7.73493,2.29183,-5.55769,9.05,-0.14,0.92,4.0
1758086639.73137,1758086639.60431,0.0,0.0,0.0,-10.02676,2.23454,-7.67763,9.05,-0.14,0.92,4.0
1758086639.73341,1758086639.61431,0.0,0.0,0.0,-14.15206,1.83346,-11.97482,9.01,0.1,0.63,4.0
1758086639.73406,1758086639.62431,0.0,0.0,0.0,-15.12609,-6.53172,-12.71966,8.45,0.3,0.07,4.0
1758086639.73479,1758086639.63431,0.0,0.0,0.0,-15.41257,-12.14671,-11.63104,8.45,0.3,0.07,4.0
1758086639.73671,1758086639.64431,0.0,0.0,0.0,-15.0115,-17.18874,-8.47978,8.23,-0.01,-0.44,4.0
1758086639.73747,1758086639.65431,0.0,0.0,0.0,-16.21471,-21.25674,-0.0573,8.23,-0.01,-0.44,4.0
1758086639.75634,1758086639.66431,0.0,0.0,0.0,-14.9542,-11.45916,-2.46372,8.46,-0.22,-0.08,4.0
1758086639.75803,1758086639.67431,0.0,0.0,0.0,-22.11617,-6.99009,-3.60963,8.46,-0.22,-0.08,4.0
1758086639.77408,1758086639.68431,0.0,0.0,0.0,-27.10091,-9.05273,-5.55769,8.77,-0.13,-0.08,4.0
1758086639.77774,1758086639.69431,0.0,0.0,0.0,-31.28349,-18.50654,-8.0787,7.96,0.16,1.89,4.0
1758086639.79685,1758086639.70431,0.0,0.0,0.0,-30.25217,-20.16812,-8.59437,7.96,0.16,1.89,4.0
1758086639.82704,1758086639.71431,0.0,0.0,0.0,-27.2155,-21.14215,-7.10468,8.78,-0.08,-0.95,4.0
1758086639.82904,1758086639.72431,0.0,0.0,0.0,-20.97026,-20.51189,-1.77617,8.78,-0.08,-0.95,4.0
1758086639.83213,1758086639.73431,0.0,0.0,0.0,-17.36062,-16.90226,1.83346,9.14,-0.78,-0.91,4.0
1758086639.83256,1758086639.74431,0.0,0.0,0.0,-14.03747,-15.29797,5.09932,9.14,-0.78,-0.91,4.0
1758086639.83366,1758086639.75431,0.0,0.0,0.0,-10.8862,-16.73037,6.99009,9.16,-1.15,-0.17,4.0
1758086639.84961,1758086639.76431,0.0,0.0,0.0,-6.35983,-20.97026,7.16197,9.13,-1.15,0.14,4.0
1758086639.85244,1758086639.77431,0.0,0.0,0.0,-3.66693,-23.66316,5.84417,9.13,-1.04,0.14,4.0
1758086639.87059,1758086639.78431,0.0,0.0,0.0,-0.80214,-26.01229,3.72423,9.64,-0.7,-0.27,4.0
1758086639.87391,1758086639.79431,0.0,0.0,0.0,1.66158,-28.30412,1.43239,9.64,-0.7,-0.27,4.0
1758086639.88966,1758086639.80431,0.0,0.0,0.0,4.1253,-32.08564,-1.71887,9.88,-0.28,-0.2,4.0
1758086639.90565,1758086639.81431,0.0,0.0,0.0,4.92744,-34.60666,-3.20856,9.88,-0.28,-0.2,4.0
1758086639.90689,1758086639.82431,0.0,0.0,0.0,5.32851,-36.26823,-3.83882,10.03,0.03,-0.11,4.0
1758086639.92139,1758086639.83431,0.0,0.0,0.0,5.4431,-34.89313,-3.60963,10.03,0.03,-0.11,4.0
1758086639.92302,1758086639.84431,0.0,0.0,0.0,5.15662,-29.22085,-2.63561,10.44,0.21,-0.4,4.0
1758086639.93742,1758086639.85431,0.0,0.0,0.0,4.92744,-24.63719,-2.00535,10.4,0.32,-0.56,4.0
1758086639.95574,1758086639.86431,0.0,0.0,0.0,4.87014,-20.79837,-1.43239,10.4,0.32,-0.56,4.0
1758086639.95799,1758086639.87431,0.0,0.0,0.0,5.27121,-16.73037,-1.3751,9.98,0.32,-0.49,4.0
1758086639.97705,1758086639.88431,0.0,0.0,0.0,6.53172,-12.14671,-1.66158,9.98,0.32,-0.49,4.0
1758086639.98461,1758086639.89431,0.0,0.0,0.0,7.73493,-10.31324,-2.00535,9.62,0.3,-0.49,4.0
1758086640.014,1758086639.90431,0.0,0.0,0.0,9.05273,-9.74028,-2.7502,9.62,0.3,-0.49,4.0
1758086640.01606,1758086639.91431,0.0,0.0,0.0,10.8862,-9.85487,-3.83882,9.13,0.32,-0.58,4.0
1758086640.01658,1758086639.92431,0.0,0.0,0.0,12.43318,-7.96411,-3.95341,8.88,0.34,-0.79,4.0
1758086640.01777,1758086639.93431,0.0,0.0,0.0,14.15206,-5.55769,-3.83882,8.88,0.34,-0.79,4.0
1758086640.03524,1758086639.94431,0.0,0.0,0.0,15.69904,-5.32851,-3.66693,8.33,0.36,-0.8,4.0
1758086640.03796,1758086639.95431,0.0,0.0,0.0,18.16276,-8.70896,-3.95341,8.33,0.36,-0.8,4.0
1758086640.05575,1758086639.96431,0.0,0.0,0.0,19.53786,-12.60507,-5.4431,7.69,0.23,-0.44,4.0
1758086640.05666,1758086639.97431,0.0,0.0,0.0,21.14215,-18.50654,-8.42248,7.69,0.23,-0.44,4.0
1758086640.07172,1758086639.98431,0.0,0.0,0.0,22.51724,-24.29341,-12.77696,8.58,-0.65,0.64,4.0
1758086640.09021,1758086639.99431,0.0,0.0,0.0,23.94964,-29.10626,-20.34,12.1,-1.81,1.48,4.0
1758086640.09369,1758086640.00431,0.0,0.0,0.0,25.15285,-29.62192,-23.60586,12.1,-1.81,1.48,4.0
1758086640.09485,1758086640.01431,0.0,0.0,0.0,26.64254,-27.10091,-24.00693,14.45,-2.05,1.65,4.0
1758086640.11157,1758086640.02431,0.0,0.0,0.0,28.24682,-22.97561,-21.14215,14.45,-2.05,1.65,4.0
1758086640.11266,1758086640.03431,0.0,0.0,0.0,31.11161,-16.272,-12.204,14.09,-1.81,1.34,4.0
1758086640.12776,1758086640.04431,0.0,0.0,0.0,32.14294,-15.69904,-6.24524,14.09,-1.81,1.34,4.0
1758086640.1438,1758086640.05431,0.0,0.0,0.0,31.51268,-13.40721,-2.63561,13.01,-1.98,0.07,4.0
1758086640.14478,1758086640.06431,0.0,0.0,0.0,31.11161,-9.11003,-0.22918,13.01,-1.98,0.07,4.0
1758086640.15977,1758086640.07431,0.0,0.0,0.0,30.19488,-1.20321,0.40107,12.96,-1.73,-0.53,4.0
1758086640.16158,1758086640.08431,0.0,0.0,0.0,30.30947,5.21392,-0.0573,12.32,-1.19,0.18,4.0
1758086640.17781,1758086640.09431,0.0,0.0,0.0,31.16891,11.97482,-0.74485,12.32,-1.19,0.18,4.0
1758086640.19553,1758086640.10431,0.0,0.0,0.0,34.49206,18.73572,-0.74485,12.98,-1.42,1.47,4.0
1758086640.19755,1758086640.11431,0.0,0.0,0.0,37.24226,27.96034,0.17189,12.98,-1.42,1.47,4.0
1758086640.21279,1758086640.12431,0.0,0.0,0.0,39.4195,33.63263,1.83346,14.39,-2.14,1.24,4.0
1758086640.21768,1758086640.13431,0.0,0.0,0.0,40.68,39.53409,4.23989,14.39,-2.14,1.24,4.0
1758086640.23289,1758086640.14431,0.0,0.0,0.0,41.42485,46.46688,9.28192,14.41,-2.15,0.68,4.0
1758086640.23456,1758086640.15431,0.0,0.0,0.0,41.65404,50.87865,13.12073,13.14,-1.78,0.43,4.0
1758086640.25287,1758086640.16431,0.0,0.0,0.0,41.13837,59.07195,15.46986,13.14,-1.78,0.43,4.0
1758086640.25457,1758086640.17431,0.0,0.0,0.0,39.53409,65.71826,17.81899,12.3,-1.27,0.83,4.0
1758086640.26966,1758086640.18431,0.0,0.0,0.0,34.60666,64.17127,19.59516,12.3,-1.27,0.83,4.0
1758086640.27265,1758086640.19431,0.0,0.0,0.0,31.16891,57.81144,16.84496,10.3,-0.67,0.97,4.0
1758086640.28888,1758086640.20431,0.0,0.0,0.0,30.88243,43.60209,17.24603,10.3,-0.67,0.97,4.0
1758086640.30639,1758086640.21431,0.0,0.0,0.0,29.62192,40.04975,18.44924,8.57,-0.35,0.27,4.0
1758086640.30791,1758086640.22431,0.0,0.0,0.0,28.87707,41.42485,19.25138,9.6,-0.4,0.68,4.0
1758086640.32283,1758086640.23431,0.0,0.0,0.0,29.27814,35.06502,22.40265,9.6,-0.4,0.68,4.0
1758086640.32641,1758086640.24431,0.0,0.0,0.0,28.70519,26.18417,23.0902,8.24,-0.68,1.03,4.0
1758086640.34291,1758086640.25431,0.0,0.0,0.0,26.64254,19.19409,22.28806,8.24,-0.68,1.03,4.0
1758086640.34456,1758086640.26431,0.0,0.0,0.0,22.34536,9.11003,20.51189,7.95,-0.81,0.91,4.0
1758086640.35989,1758086640.27431,0.0,0.0,0.0,18.9649,3.89611,18.79302,7.95,-0.81,0.91,4.0
1758086640.3759,1758086640.28431,0.0,0.0,0.0,15.92823,2.11994,16.84496,7.8,-0.76,0.58,4.0
1758086640.37712,1758086640.29431,0.0,0.0,0.0,13.17803,3.60963,14.09476,7.8,-0.76,0.58,4.0
1758086640.39179,1758086640.30431,0.0,0.0,0.0,10.37054,4.35448,12.43318,8.1,-0.74,0.82,4.0
1758086640.39365,1758086640.31431,0.0,0.0,0.0,9.22462,4.18259,11.00079,8.28,-0.91,0.99,4.0
1758086640.41146,1758086640.32431,0.0,0.0,0.0,8.47978,4.0107,9.74028,8.28,-0.91,0.99,4.0
1758086640.4127,1758086640.33431,0.0,0.0,0.0,8.99544,5.32851,8.70896,8.99,-1.29,0.9,4.0
1758086640.42889,1758086640.34431,0.0,0.0,0.0,10.8862,6.07335,9.28192,8.99,-1.29,0.9,4.0
1758086640.44493,1758086640.35431,0.0,0.0,0.0,13.17803,6.13065,10.02676,9.51,-1.77,0.66,4.0
1758086640.44771,1758086640.36431,0.0,0.0,0.0,15.98552,6.13065,11.00079,9.51,-1.77,0.66,4.0
1758086640.46265,1758086640.37431,0.0,0.0,0.0,20.51189,6.13065,12.49048,9.64,-2.25,0.73,4.0
1758086640.46466,1758086640.38431,0.0,0.0,0.0,23.72045,6.07335,13.40721,9.59,-2.6,0.66,4.0
1758086640.47973,1758086640.39431,0.0,0.0,0.0,26.69983,6.7609,14.03747,9.59,-2.6,0.66,4.0
1758086640.49574,1758086640.40431,0.0,0.0,0.0,29.27814,7.84952,14.09476,9.49,-2.67,0.69,4.0
1758086640.49693,1758086640.41431,0.0,0.0,0.0,32.08564,9.28192,13.75099,9.49,-2.67,0.69,4.0
1758086640.51199,1758086640.42431,0.0,0.0,0.0,33.11696,9.91217,13.17803,9.28,-2.42,0.65,4.0
1758086640.5131,1758086640.43431,0.0,0.0,0.0,33.51803,10.08406,12.60507,9.28,-2.42,0.65,4.0
1758086640.52798,1758086640.44431,0.0,0.0,0.0,33.46074,10.25595,11.97482,9.02,-1.97,0.55,4.0
1758086640.54402,1758086640.45431,0.0,0.0,0.0,32.6013,9.11003,10.8862,8.68,-1.53,0.47,4.0
1758086640.54493,1758086640.46431,0.0,0.0,0.0,31.74186,7.21927,10.19865,8.68,-1.53,0.47,4.0
1758086640.55998,1758086640.47431,0.0,0.0,0.0,30.65324,4.81285,9.33921,8.34,-1.23,0.51,4.0
1758086640.57573,1758086640.48431,0.0,0.0,0.0,29.27814,2.11994,8.42248,8.34,-1.23,0.51,4.0
1758086640.57694,1758086640.49431,0.0,0.0,0.0,27.1582,-0.51566,6.70361,8.31,-1.09,0.55,4.0
1758086640.59835,1758086640.50431,0.0,0.0,0.0,25.49662,-2.11994,5.55769,8.31,-1.09,0.55,4.0
1758086640.60168,1758086640.51431,0.0,0.0,0.0,23.94964,-4.64096,4.23989,8.44,-1.05,0.71,4.0
1758086640.60232,1758086640.52431,0.0,0.0,0.0,21.14215,-8.93814,1.77617,8.44,-1.05,0.71,4.0
1758086640.62177,1758086640.53431,0.0,0.0,0.0,19.59516,-12.2613,0.0573,8.33,-0.99,0.93,4.0
1758086640.62345,1758086640.54431,0.0,0.0,0.0,18.27736,-15.24068,-1.66158,8.36,-0.88,1.0,4.0
1758086640.63905,1758086640.55431,0.0,0.0,0.0,17.18874,-17.36062,-3.03668,8.36,-0.88,1.0,4.0
1758086640.6561,1758086640.56431,0.0,0.0,0.0,15.58445,-21.02755,-4.87014,8.54,-0.81,1.11,4.0
1758086640.65744,1758086640.57431,0.0,0.0,0.0,14.09476,-21.25674,-6.35983,8.54,-0.81,1.11,4.0
1758086640.67208,1758086640.58431,0.0,0.0,0.0,12.204,-19.99623,-7.39116,8.93,-0.78,0.81,4.0
1758086640.67303,1758086640.59431,0.0,0.0,0.0,9.74028,-17.99088,-8.25059,8.93,-0.78,0.81,4.0
1758086640.6919,1758086640.60431,0.0,0.0,0.0,5.21392,-13.69369,-9.68299,9.27,-0.79,0.68,4.0
1758086640.69386,1758086640.61431,0.0,0.0,0.0,1.94806,-11.34457,-10.59972,9.31,-0.81,0.56,4.0
1758086640.7091,1758086640.62431,0.0,0.0,0.0,-1.14592,-9.39651,-11.91752,9.31,-0.81,0.56,4.0
1758086640.72692,1758086640.63431,0.0,0.0,0.0,-3.32316,-7.21927,-12.71966,9.19,-0.97,0.46,4.0
1758086640.72787,1758086640.64431,0.0,0.0,0.0,-5.27121,-2.11994,-14.09476,9.19,-0.97,0.46,4.0
1758086640.74286,1758086640.65431,0.0,0.0,0.0,-6.41713,1.77617,-15.41257,9.22,-1.23,0.41,4.0
1758086640.74406,1758086640.66431,0.0,0.0,0.0,-7.16197,3.72423,-17.53251,9.22,-1.23,0.41,4.0
1758086640.76013,1758086640.67431,0.0,0.0,0.0,-7.39116,3.55234,-18.79302,8.76,-1.51,0.2,4.0
1758086640.77618,1758086640.68431,0.0,0.0,0.0,-7.04738,4.23989,-19.88164,8.49,-1.84,0.21,4.0
1758086640.77735,1758086640.69431,0.0,0.0,0.0,-6.7609,6.18794,-19.76705,8.49,-1.84,0.21,4.0
1758086640.79215,1758086640.70431,0.0,0.0,0.0,-6.18794,7.04738,-19.07949,8.39,-2.1,0.45,4.0
1758086640.79306,1758086640.71431,0.0,0.0,0.0,-5.55769,6.35983,-17.24603,8.39,-2.1,0.45,4.0
1758086640.81215,1758086640.72431,0.0,0.0,0.0,-5.21392,4.81285,-15.12609,8.01,-2.25,0.54,4.0
1758086640.81794,1758086640.73431,0.0,0.0,0.0,-5.50039,4.87014,-13.5218,8.01,-2.25,0.54,4.0
1758086640.8376,1758086640.74431,0.0,0.0,0.0,-5.95876,3.66693,-11.17268,8.18,-2.2,0.47,4.0
1758086640.84094,1758086640.75431,0.0,0.0,0.0,-8.136,2.06265,-7.50575,8.18,-2.2,0.47,4.0
1758086640.85697,1758086640.76431,0.0,0.0,0.0,-11.57375,0.80214,-7.21927,8.08,-1.8,0.39,4.0
1758086640.86274,1758086640.77431,0.0,0.0,0.0,-15.69904,-2.46372,-7.10468,7.61,-1.12,0.31,4.0
1758086640.86758,1758086640.78431,0.0,0.0,0.0,-19.76705,-6.13065,-7.10468,7.61,-1.12,0.31,4.0
1758086640.88498,1758086640.79431,0.0,0.0,0.0,-25.55392,-13.46451,-4.58366,7.25,-0.4,0.19,4.0
1758086640.89038,1758086640.80431,0.0,0.0,0.0,-32.71589,-13.17803,-5.55769,7.25,-0.4,0.19,4.0
1758086640.89231,1758086640.81431,0.0,0.0,0.0,-39.07573,-17.18874,-2.46372,8.79,1.0,1.91,4.0
1758086640.91157,1758086640.82431,0.0,0.0,0.0,-46.81066,-19.48057,0.51566,8.79,1.0,1.91,4.0
1758086640.91259,1758086640.83431,0.0,0.0,0.0,-60.33246,-17.87628,2.23454,14.19,3.25,3.64,4.0
1758086640.93396,1758086640.84431,0.0,0.0,0.0,-70.47381,-14.49583,0.22918,20.17,4.22,3.23,4.0
1758086640.93735,1758086640.85431,0.0,0.0,0.0,-80.90164,-7.62034,-3.20856,20.17,4.22,3.23,4.0
1758086640.95377,1758086640.86431,0.0,0.0,0.0,-87.54795,-1.03132,-5.15662,18.6,2.26,3.36,4.0
1758086640.95734,1758086640.87431,0.0,0.0,0.0,-96.5434,-12.37589,-8.25059,18.6,2.26,3.36,4.0
1758086641.041,1758086640.88431,0.0,0.0,0.0,-99.75195,-30.65324,-11.28727,11.86,0.22,0.99,4.0
1758086641.04793,1758086640.89431,0.0,0.0,0.0,-100.15303,-48.52953,-11.74564,11.86,0.22,0.99,4.0
1758086641.05242,1758086640.90431,0.0,0.0,0.0,-99.29359,-52.9986,-10.19865,9.24,-0.56,-1.34,4.0
1758086641.0542,1758086640.91431,0.0,0.0,0.0,-98.49145,-0.68755,-14.49583,12.44,-0.21,-2.2,4.0
1758086641.05587,1758086640.92431,0.0,0.0,0.0,-98.49145,19.42327,-15.98552,12.44,-0.21,-2.2,4.0
1758086641.05684,1758086640.93431,0.0,0.0,0.0,-98.49145,23.54857,-20.22541,8.8,0.28,2.31,4.0
1758086641.05746,1758086640.94431,0.0,0.0,0.0,-93.62132,7.79223,-22.34536,8.8,0.28,2.31,4.0
1758086641.05819,1758086640.95431,0.0,0.0,0.0,-86.51663,-0.22918,-21.08485,7.89,1.03,3.4,4.0
1758086641.06165,1758086640.96431,0.0,0.0,0.0,-78.15145,-4.87014,-17.53251,7.89,1.03,3.4,4.0
1758086641.06244,1758086640.97431,0.0,0.0,0.0,-68.58305,-6.53172,-12.77696,12.09,0.41,0.67,4.0
1758086641.06362,1758086640.98431,0.0,0.0,0.0,-53.34238,-9.5684,-6.47442,14.52,0.41,-0.33,4.0
1758086641.08032,1758086640.99431,0.0,0.0,0.0,-44.86259,-13.23533,-4.52637,14.52,-0.88,-0.33,4.0
1758086641.09602,1758086641.00431,0.0,0.0,0.0,-38.73195,-17.76169,-4.46907,12.87,-2.05,0.82,4.0
1758086641.10123,1758086641.01431,0.0,0.0,0.0,-34.60666,-19.25138,-5.90147,12.87,-2.05,0.82,4.0
1758086641.12432,1758086641.02431,0.0,0.0,0.0,-30.93972,-17.87628,-9.11003,11.02,-2.97,1.18,4.0
1758086641.13585,1758086641.03431,0.0,0.0,0.0,-29.9084,-14.61043,-11.45916,11.02,-2.97,1.18,4.0
1758086641.14047,1758086641.04431,0.0,0.0,0.0,-29.10626,-9.96947,-13.06344,9.61,-2.9,1.0,4.0
1758086641.14298,1758086641.05431,0.0,0.0,0.0,-27.84575,-6.99009,-14.38124,9.61,-2.9,1.0,4.0
1758086641.14951,1758086641.06431,0.0,0.0,0.0,-24.35071,-7.44845,-15.35527,8.75,-2.2,0.94,4.0
1758086641.15792,1758086641.07431,0.0,0.0,0.0,-20.74107,-9.33921,-16.3293,8.8,-1.56,1.01,4.0
1758086641.16947,1758086641.08431,0.0,0.0,0.0,-16.21471,-10.08406,-17.01685,8.8,-1.56,1.01,4.0
1758086641.18614,1758086641.09431,0.0,0.0,0.0,-10.31324,-8.136,-16.95955,10.24,-1.18,0.78,4.0
1758086641.37015,1758086641.10431,0.0,0.0,0.0,-0.85944,-3.83882,-16.73037,10.24,-1.18,0.78,4.0
1758086641.37074,1758086641.11431,0.0,0.0,0.0,5.27121,0.45837,-15.98552,11.3,-0.97,0.81,4.0
1758086641.37431,1758086641.12431,0.0,0.0,0.0,10.8862,5.55769,-14.72501,11.3,-0.97,0.81,4.0
1758086641.37665,1758086641.13431,0.0,0.0,0.0,18.44924,11.97482,-12.08941,11.56,-0.86,0.95,4.0
1758086641.3778,1758086641.14431,0.0,0.0,0.0,22.11617,15.0115,-9.85487,10.9,-0.9,0.78,4.0
1758086641.38171,1758086641.15431,0.0,0.0,0.0,24.92367,16.95955,-7.62034,10.9,-0.9,0.78,4.0
1758086641.38288,1758086641.16431,0.0,0.0,0.0,26.98631,18.27736,-5.61499,10.14,-1.13,0.65,4.0
1758086641.38394,1758086641.17431,0.0,0.0,0.0,28.87707,17.76169,-2.97938,10.14,-1.13,0.65,4.0
1758086641.38426,1758086641.18431,0.0,0.0,0.0,29.62192,15.75634,-1.83346,9.64,-1.28,0.64,4.0
1758086641.38616,1758086641.19431,0.0,0.0,0.0,30.13758,14.09476,-1.08862,9.64,-1.28,0.64,4.0
1758086641.38812,1758086641.20431,0.0,0.0,0.0,30.19488,12.54778,-1.14592,9.62,-0.95,0.65,4.0
1758086641.38963,1758086641.21431,0.0,0.0,0.0,30.13758,10.94349,-1.94806,9.59,-0.33,0.56,4.0
1758086641.39038,1758086641.22431,0.0,0.0,0.0,29.96569,9.5684,-2.6929,9.59,-0.33,0.56,4.0
1758086641.39789,1758086641.23431,0.0,0.0,0.0,29.73651,7.21927,-3.49504,9.46,0.22,0.52,4.0
1758086641.40126,1758086641.24431,0.0,0.0,0.0,29.56462,6.8182,-4.1253,9.46,0.22,0.52,4.0
1758086641.40318,1758086641.25431,0.0,0.0,0.0,29.50733,8.30789,-4.18259,9.63,0.6,0.42,4.0
1758086641.40357,1758086641.26431,0.0,0.0,0.0,29.33544,8.76626,-3.66693,9.63,0.6,0.42,4.0
1758086641.40639,1758086641.27431,0.0,0.0,0.0,29.22085,9.05273,-2.86479,9.45,0.72,0.42,4.0
1758086641.40703,1758086641.28431,0.0,0.0,0.0,29.04896,9.85487,-1.77617,9.45,0.72,0.42,4.0
1758086641.40909,1758086641.29431,0.0,0.0,0.0,28.59059,10.37054,0.40107,9.5,0.55,0.48,4.0
1758086641.40996,1758086641.30431,0.0,0.0,0.0,28.59059,10.37054,2.11994,9.5,0.27,0.54,4.0
1758086641.41257,1758086641.31431,0.0,0.0,0.0,28.476,10.25595,3.95341,9.5,0.27,0.54,4.0
1758086641.41436,1758086641.32431,0.0,0.0,0.0,28.30412,11.34457,6.47442,9.48,0.02,0.47,4.0
1758086641.41591,1758086641.33431,0.0,0.0,0.0,28.59059,12.43318,8.25059,9.48,0.02,0.47,4.0
1758086641.43154,1758086641.34431,0.0,0.0,0.0,29.10626,12.71966,9.4538,9.35,-0.05,0.39,4.0
1758086641.43244,1758086641.35431,0.0,0.0,0.0,29.50733,11.80293,10.48513,9.35,-0.05,0.39,4.0
1758086641.45137,1758086641.36431,0.0,0.0,0.0,29.33544,10.8862,11.63104,9.01,0.04,0.29,4.0
1758086641.4525,1758086641.37431,0.0,0.0,0.0,28.93437,10.71431,12.60507,9.16,0.16,0.19,4.0
1758086641.47235,1758086641.38431,0.0,0.0,0.0,28.30412,10.31324,13.23533,9.16,0.16,0.19,4.0
1758086641.47347,1758086641.39431,0.0,0.0,0.0,27.10091,9.74028,14.09476,9.22,0.22,0.09,4.0
1758086641.48855,1758086641.40431,0.0,0.0,0.0,25.15285,9.33921,15.0115,9.22,0.22,0.09,4.0
1758086641.50553,1758086641.41431,0.0,0.0,0.0,23.37668,8.02141,15.92823,9.29,0.35,0.04,4.0
1758086641.50688,1758086641.42431,0.0,0.0,0.0,21.37133,5.72958,16.55848,9.29,0.35,0.04,4.0
1758086641.5216,1758086641.43431,0.0,0.0,0.0,19.13679,3.95341,16.90226,9.2,0.62,-0.03,4.0
1758086641.52252,1758086641.44431,0.0,0.0,0.0,15.41257,2.63561,17.13144,9.31,0.96,0.02,4.0
1758086641.54039,1758086641.45431,0.0,0.0,0.0,13.00614,2.7502,17.01685,9.31,0.96,0.02,4.0
1758086641.55658,1758086641.46431,0.0,0.0,0.0,11.00079,3.38045,17.30333,9.45,1.15,0.23,4.0
1758086641.55761,1758086641.47431,0.0,0.0,0.0,8.99544,4.23989,17.13144,9.45,1.15,0.23,4.0
1758086641.57257,1758086641.48431,0.0,0.0,0.0,6.35983,4.87014,17.30333,9.5,1.09,0.41,4.0
1758086641.57358,1758086641.49431,0.0,0.0,0.0,4.81285,4.98473,17.13144,9.5,1.09,0.41,4.0
1758086641.63545,1758086641.50431,0.0,0.0,0.0,2.86479,5.09932,17.01685,9.47,0.88,0.31,4.0
1758086641.64141,1758086641.51431,0.0,0.0,0.0,-0.85944,5.61499,16.61578,9.47,0.88,0.31,4.0
1758086641.64387,1758086641.52431,0.0,0.0,0.0,-3.38045,7.67763,16.38659,9.42,0.69,0.24,4.0
1758086641.64491,1758086641.53431,0.0,0.0,0.0,-5.90147,9.62569,16.21471,9.32,0.57,0.14,4.0
1758086641.64633,1758086641.54431,0.0,0.0,0.0,-8.30789,9.39651,15.75634,9.32,0.57,0.14,4.0
1758086641.64839,1758086641.55431,0.0,0.0,0.0,-11.45916,9.05273,15.12609,8.91,0.46,0.12,4.0
1758086641.65139,1758086641.56431,0.0,0.0,0.0,-13.06344,8.59437,14.43854,8.91,0.46,0.12,4.0
1758086641.65508,1758086641.57431,0.0,0.0,0.0,-14.43854,7.50575,14.09476,8.88,0.37,0.08,4.0
1758086641.7213,1758086641.58431,0.0,0.0,0.0,-15.29797,6.8182,13.80828,8.88,0.37,0.08,4.0
1758086641.73144,1758086641.59431,0.0,0.0,0.0,-15.98552,5.32851,13.5791,9.0,0.21,0.06,4.0
1758086641.73183,1758086641.60431,0.0,0.0,0.0,-16.272,3.20856,13.5791,9.1,0.01,-0.02,4.0
1758086641.73664,1758086641.61431,0.0,0.0,0.0,-16.272,0.34377,13.80828,9.1,0.01,-0.02,4.0
1758086641.73767,1758086641.62431,0.0,0.0,0.0,-16.04282,-1.48969,13.75099,9.2,-0.17,-0.12,4.0
1758086641.74219,1758086641.63431,0.0,0.0,0.0,-15.69904,-2.92208,14.15206,9.2,-0.17,-0.12,4.0
1758086641.74674,1758086641.64431,0.0,0.0,0.0,-15.41257,-4.46907,14.20935,9.39,-0.34,-0.06,4.0
1758086641.74954,1758086641.65431,0.0,0.0,0.0,-14.72501,-5.15662,13.69369,9.39,-0.34,-0.06,4.0
1758086641.75262,1758086641.66431,0.0,0.0,0.0,-14.09476,-5.21392,13.17803,9.43,-0.47,0.1,4.0
1758086641.76159,1758086641.67431,0.0,0.0,0.0,-12.37589,-5.32851,11.51645,9.56,-0.58,0.11,4.0
1758086641.76243,1758086641.68431,0.0,0.0,0.0,-11.11538,-5.21392,9.33921,9.56,-0.58,0.11,4.0
1758086641.78115,1758086641.69431,0.0,0.0,0.0,-9.28192,-6.24524,7.10468,9.56,-0.6,0.03,4.0
1758086641.78709,1758086641.70431,0.0,0.0,0.0,-7.33386,-7.16197,4.1253,9.56,-0.6,0.03,4.0
1758086641.80275,1758086641.71431,0.0,0.0,0.0,-4.35448,-6.7609,3.09397,9.48,-0.64,-0.25,4.0
1758086641.80717,1758086641.72431,0.0,0.0,0.0,-2.46372,-5.27121,2.57831,9.48,-0.64,-0.25,4.0
1758086641.82276,1758086641.73431,0.0,0.0,0.0,-0.74485,-3.83882,2.11994,9.22,-0.72,-0.33,4.0
1758086641.82447,1758086641.74431,0.0,0.0,0.0,2.29183,-3.26586,1.83346,9.22,-0.72,-0.33,4.0
1758086641.84059,1758086641.75431,0.0,0.0,0.0,4.29718,-3.38045,1.71887,8.79,-0.78,-0.53,4.0
1758086641.85684,1758086641.76431,0.0,0.0,0.0,6.41713,-4.35448,1.3178,8.69,-1.05,-0.35,4.0
1758086641.8577,1758086641.77431,0.0,0.0,0.0,8.65166,-8.30789,0.22918,8.69,-1.05,-0.35,4.0
1758086641.87678,1758086641.78431,0.0,0.0,0.0,12.14671,-18.50654,-2.63561,8.85,-1.72,0.77,4.0
1758086641.87771,1758086641.79431,0.0,0.0,0.0,14.49583,-25.49662,-5.21392,8.85,-1.72,0.77,4.0
1758086641.8927,1758086641.80431,0.0,0.0,0.0,16.95955,-30.65324,-7.73493,10.29,-2.28,1.75,4.0
1758086641.89767,1758086641.81431,0.0,0.0,0.0,20.34,-33.00237,-9.39651,10.29,-2.28,1.75,4.0
1758086641.91251,1758086641.82431,0.0,0.0,0.0,26.75713,-28.476,-9.62569,11.93,-2.21,1.76,4.0
1758086641.91465,1758086641.83431,0.0,0.0,0.0,32.25753,-24.12152,-8.30789,12.55,-2.17,1.73,4.0
1758086641.93077,1758086641.84431,0.0,0.0,0.0,37.52874,-21.6578,-6.47442,12.55,-2.17,1.73,4.0
1758086641.94979,1758086641.85431,0.0,0.0,0.0,41.65404,-19.13679,-4.52637,12.09,-2.65,1.28,4.0
1758086642.04062,1758086641.86431,0.0,0.0,0.0,44.748,-13.86558,-1.43239,12.09,-2.65,1.28,4.0
1758086642.04124,1758086641.87431,0.0,0.0,0.0,45.60744,-9.4538,0.40107,12.09,-2.8,0.99,4.0
1758086642.04285,1758086641.88431,0.0,0.0,0.0,46.1804,-5.50039,1.71887,12.09,-2.8,0.99,4.0
1758086642.04643,1758086641.89431,0.0,0.0,0.0,46.63877,-4.81285,2.23454,12.12,-2.83,1.63,4.0
1758086642.04787,1758086641.90431,0.0,0.0,0.0,47.15443,-8.59437,0.57296,12.67,-3.0,2.75,4.0
1758086642.04936,1758086641.91431,0.0,0.0,0.0,47.61279,-10.54242,-0.85944,12.67,-3.0,2.75,4.0
1758086642.05233,1758086641.92431,0.0,0.0,0.0,48.01387,-10.59972,-1.71887,14.05,-2.65,2.4,4.0
1758086642.05448,1758086641.93431,0.0,0.0,0.0,49.15978,-12.83425,-0.40107,14.05,-2.65,2.4,4.0
1758086642.05483,1758086641.94431,0.0,0.0,0.0,49.27437,-13.17803,2.06265,13.21,-1.81,1.89,4.0
1758086642.05674,1758086641.95431,0.0,0.0,0.0,49.27437,-10.08406,4.64096,13.21,-1.81,1.89,4.0
1758086642.0575,1758086641.96431,0.0,0.0,0.0,49.33167,-7.44845,7.33386,11.89,-1.45,1.59,4.0
1758086642.06022,1758086641.97431,0.0,0.0,0.0,48.9306,-10.19865,10.8289,11.89,-1.45,1.44,4.0
1758086642.07592,1758086641.98431,0.0,0.0,0.0,47.49821,-12.08941,12.43318,10.29,-1.58,1.44,4.0
1758086642.07686,1758086641.99431,0.0,0.0,0.0,45.43555,-13.46451,13.06344,9.96,-1.51,1.13,4.0
1758086642.09192,1758086642.00431,0.0,0.0,0.0,42.85724,-17.24603,13.5218,9.96,-1.51,1.13,4.0
1758086642.09281,1758086642.01431,0.0,0.0,0.0,38.21629,-16.38659,12.14671,9.9,-1.13,1.06,4.0
1758086642.11188,1758086642.02431,0.0,0.0,0.0,34.95043,-10.8862,10.48513,9.9,-1.13,1.06,4.0
1758086642.11283,1758086642.03431,0.0,0.0,0.0,31.79916,-3.83882,9.74028,10.36,-0.61,1.52,4.0
1758086642.12894,1758086642.04431,0.0,0.0,0.0,28.93437,1.14592,8.93814,10.36,-0.61,1.52,4.0
1758086642.14567,1758086642.05431,0.0,0.0,0.0,24.98096,4.0107,7.67763,10.02,-0.39,1.8,4.0
1758086642.14764,1758086642.06431,0.0,0.0,0.0,22.11617,4.69825,6.47442,9.75,-0.45,1.6,4.0
1758086642.16267,1758086642.07431,0.0,0.0,0.0,19.36597,5.72958,5.4431,9.75,-0.45,1.6,4.0
1758086642.16703,1758086642.08431,0.0,0.0,0.0,17.47521,6.70361,4.81285,9.69,-0.65,0.9,4.0
1758086642.18298,1758086642.09431,0.0,0.0,0.0,15.24068,7.67763,3.89611,9.69,-0.65,0.9,4.0
1758086642.18551,1758086642.10431,0.0,0.0,0.0,14.72501,8.47978,4.0107,9.58,-0.92,0.96,4.0
1758086642.2007,1758086642.11431,0.0,0.0,0.0,14.61043,9.91217,4.18259,9.58,-0.92,0.96,4.0
1758086642.20273,1758086642.12431,0.0,0.0,0.0,15.41257,11.28727,4.69825,9.7,-1.22,1.07,4.0
1758086642.21872,1758086642.13431,0.0,0.0,0.0,16.04282,13.23533,5.27121,9.76,-1.45,0.86,4.0
1758086642.23597,1758086642.14431,0.0,0.0,0.0,16.67307,13.17803,5.72958,9.76,-1.45,0.86,4.0
1758086642.23691,1758086642.15431,0.0,0.0,0.0,17.13144,11.63104,6.24524,9.58,-1.52,0.7,4.0
1758086642.25199,1758086642.16431,0.0,0.0,0.0,17.76169,7.73493,6.99009,9.58,-1.52,0.7,4.0
1758086642.25292,1758086642.17431,0.0,0.0,0.0,18.10547,4.87014,7.10468,9.39,-1.51,0.47,4.0
1758086642.26968,1758086642.18431,0.0,0.0,0.0,18.16276,2.34913,7.33386,9.39,-1.51,0.47,4.0
1758086642.28676,1758086642.19431,0.0,0.0,0.0,18.10547,1.14592,7.21927,9.45,-1.39,0.38,4.0
1758086642.28795,1758086642.20431,0.0,0.0,0.0,17.47521,1.77617,6.99009,9.67,-1.39,0.45,4.0
1758086642.30382,1758086642.21431,0.0,0.0,0.0,17.01685,3.72423,6.87549,9.67,-1.21,0.45,4.0
1758086642.30495,1758086642.22431,0.0,0.0,0.0,16.55848,5.55769,6.70361,9.88,-1.05,0.52,4.0
1758086642.32005,1758086642.23431,0.0,0.0,0.0,15.92823,6.7609,6.58902,9.88,-1.05,0.52,4.0
1758086642.33582,1758086642.24431,0.0,0.0,0.0,14.49583,7.21927,6.35983,9.86,-0.95,0.45,4.0
1758086642.33697,1758086642.25431,0.0,0.0,0.0,13.40721,5.32851,5.95876,9.86,-0.95,0.45,4.0
1758086642.35172,1758086642.26431,0.0,0.0,0.0,11.80293,2.86479,5.50039,9.66,-0.88,0.31,4.0
1758086642.35307,1758086642.27431,0.0,0.0,0.0,9.91217,0.11459,5.32851,9.66,-0.88,0.31,4.0
1758086642.37181,1758086642.28431,0.0,0.0,0.0,7.10468,1.94806,4.18259,9.6,-0.81,0.2,4.0
1758086642.373,1758086642.29431,0.0,0.0,0.0,4.23989,6.41713,2.92208,9.87,-0.75,0.2,4.0
1758086642.39209,1758086642.30431,0.0,0.0,0.0,1.48969,10.08406,1.71887,9.87,-0.75,0.2,4.0
1758086642.393,1758086642.31431,0.0,0.0,0.0,-0.68755,9.5684,0.17189,9.41,-0.69,0.68,4.0
1758086642.41168,1758086642.32431,0.0,0.0,0.0,-3.03668,4.58366,-0.11459,9.41,-0.69,0.68,4.0
1758086642.42711,1758086642.33431,0.0,0.0,0.0,-4.29718,3.95341,-0.51566,9.07,-0.76,0.17,4.0
1758086642.42752,1758086642.34431,0.0,0.0,0.0,-5.21392,4.64096,-0.74485,9.07,-0.76,0.17,4.0
1758086642.44313,1758086642.35431,0.0,0.0,0.0,-6.24524,3.38045,-1.03132,9.24,-0.94,0.06,4.0
1758086642.44487,1758086642.36431,0.0,0.0,0.0,-6.58902,1.94806,-1.48969,8.74,-1.12,0.31,4.0
1758086642.46012,1758086642.37431,0.0,0.0,0.0,-6.99009,-0.11459,-2.06265,8.74,-1.12,0.31,4.0
1758086642.47616,1758086642.38431,0.0,0.0,0.0,-7.10468,-3.09397,-2.6929,8.46,-1.21,0.4,4.0
1758086642.47655,1758086642.39431,0.0,0.0,0.0,-7.10468,-6.35983,-3.95341,8.46,-1.21,0.4,4.0
1758086642.4921,1758086642.40431,0.0,0.0,0.0,-7.10468,-7.96411,-4.58366,8.42,-1.24,0.23,4.0
1758086642.49306,1758086642.41431,0.0,0.0,0.0,-6.99009,-8.93814,-5.27121,8.42,-1.24,0.23,4.0
1758086642.50918,1758086642.42431,0.0,0.0,0.0,-7.04738,-10.25595,-5.72958,8.48,-1.22,0.27,4.0
1758086642.52598,1758086642.43431,0.0,0.0,0.0,-7.67763,-11.80293,-6.35983,8.62,-1.17,0.33,4.0
1758086642.52795,1758086642.44431,0.0,0.0,0.0,-8.25059,-12.43318,-6.7609,8.62,-1.17,0.33,4.0
1758086642.54288,1758086642.45431,0.0,0.0,0.0,-8.88085,-12.77696,-7.21927,8.93,-1.1,0.29,4.0
1758086642.54414,1758086642.46431,0.0,0.0,0.0,-9.4538,-12.2613,-7.79223,8.93,-1.1,0.29,4.0
1758086642.55893,1758086642.47431,0.0,0.0,0.0,-10.8289,-11.51645,-8.65166,9.15,-1.0,0.28,4.0
1758086642.57699,1758086642.48431,0.0,0.0,0.0,-11.63104,-10.8289,-9.22462,9.15,-1.0,0.28,4.0
1758086642.57732,1758086642.49431,0.0,0.0,0.0,-12.71966,-9.85487,-9.74028,9.19,-0.91,0.33,4.0
1758086642.59402,1758086642.50431,0.0,0.0,0.0,-13.86558,-8.65166,-10.37054,9.19,-0.91,0.33,4.0
1758086642.5951,1758086642.51431,0.0,0.0,0.0,-15.75634,-6.18794,-11.45916,9.16,-0.95,0.34,4.0
1758086642.60997,1758086642.52431,0.0,0.0,0.0,-17.01685,-4.46907,-11.86023,9.27,-1.17,0.28,4.0
1758086642.62079,1758086642.53431,0.0,0.0,0.0,-17.99088,-3.09397,-12.43318,9.27,-1.17,0.28,4.0
1758086642.63779,1758086642.54431,0.0,0.0,0.0,-19.82434,-0.85944,-13.46451,9.65,-1.37,0.23,4.0
1758086642.63998,1758086642.55431,0.0,0.0,0.0,-20.79837,0.40107,-14.03747,9.65,-1.37,0.23,4.0
1758086642.65604,1758086642.56431,0.0,0.0,0.0,-21.7151,0.57296,-14.43854,10.04,-1.46,0.13,4.0
1758086642.65658,1758086642.57431,0.0,0.0,0.0,-22.28806,0.45837,-14.72501,10.04,-1.46,0.13,4.0
1758086642.67487,1758086642.58431,0.0,0.0,0.0,-23.20479,0.45837,-14.78231,10.14,-1.47,0.04,4.0
1758086642.69189,1758086642.59431,0.0,0.0,0.0,-23.49127,0.74485,-14.49583,10.16,-1.43,0.08,4.0
1758086642.69292,1758086642.60431,0.0,0.0,0.0,-23.94964,1.08862,-13.86558,10.16,-1.43,0.08,4.0
1758086642.69354,1758086642.61431,0.0,0.0,0.0,-24.23611,0.80214,-13.23533,9.82,-1.41,0.27,4.0
1758086642.70988,1758086642.62431,0.0,0.0,0.0,-24.80907,0.57296,-12.14671,9.82,-1.41,0.27,4.0
1758086642.71112,1758086642.63431,0.0,0.0,0.0,-25.38203,0.97403,-11.51645,9.42,-1.44,0.32,4.0
1758086642.72652,1758086642.64431,0.0,0.0,0.0,-25.61122,1.60428,-11.00079,9.42,-1.44,0.32,4.0
1758086642.7419,1758086642.65431,0.0,0.0,0.0,-26.06958,2.06265,-10.65701,9.14,-1.52,0.09,4.0
1758086642.74396,1758086642.66431,0.0,0.0,0.0,-26.47065,2.92208,-10.48513,8.79,-1.58,-0.08,4.0
1758086642.76007,1758086642.67431,0.0,0.0,0.0,-26.81443,3.60963,-10.31324,8.79,-1.58,-0.08,4.0
1758086642.76106,1758086642.68431,0.0,0.0,0.0,-26.98631,3.95341,-10.19865,8.41,-1.59,-0.22,4.0
1758086642.77665,1758086642.69431,0.0,0.0,0.0,-27.1582,4.18259,-10.08406,8.41,-1.59,-0.22,4.0
1758086642.79234,1758086642.70431,0.0,0.0,0.0,-27.50197,4.29718,-9.33921,7.98,-1.56,-0.17,4.0
1758086642.79407,1758086642.71431,0.0,0.0,0.0,-28.13223,3.20856,-8.88085,7.98,-1.56,-0.17,4.0
1758086642.80992,1758086642.72431,0.0,0.0,0.0,-28.87707,1.08862,-7.84952,7.46,-1.51,-0.21,4.0
1758086642.81215,1758086642.73431,0.0,0.0,0.0,-30.19488,-2.40642,-6.41713,7.46,-1.51,-0.21,4.0
1758086642.82766,1758086642.74431,0.0,0.0,0.0,-31.16891,-7.39116,-5.4431,6.87,-1.49,-0.28,4.0
1758086642.84337,1758086642.75431,0.0,0.0,0.0,-31.79916,-9.4538,-4.35448,6.52,-1.52,-0.43,4.0
1758086642.84773,1758086642.76431,0.0,0.0,0.0,-31.97105,-10.8289,-3.26586,6.52,-1.52,-0.43,4.0
1758086642.86316,1758086642.77431,0.0,0.0,0.0,-30.99702,-11.22997,-1.3178,6.55,-1.45,-0.32,4.0
1758086642.89035,1758086642.78431,0.0,0.0,0.0,-29.73651,-12.37589,0.34377,6.55,-1.45,-0.32,4.0
1758086642.89071,1758086642.79431,0.0,0.0,0.0,-27.96034,-15.0115,2.92208,7.65,-1.0,1.08,4.0
1758086642.89265,1758086642.80431,0.0,0.0,0.0,-25.7831,-17.81899,6.18794,7.65,-1.0,1.08,4.0
1758086642.89409,1758086642.81431,0.0,0.0,0.0,-22.91831,-17.58981,11.91752,11.44,-0.47,2.94,4.0
1758086642.9136,1758086642.82431,0.0,0.0,0.0,-22.68913,-14.9542,14.83961,16.34,0.21,3.45,4.0
1758086642.95611,1758086642.83431,0.0,0.0,0.0,-24.4653,-10.31324,15.98552,16.34,0.21,3.45,4.0
1758086642.95699,1758086642.84431,0.0,0.0,0.0,-27.84575,-6.47442,15.58445,16.46,1.06,2.61,4.0
1758086642.96029,1758086642.85431,0.0,0.0,0.0,-35.00772,1.94806,12.43318,16.46,1.06,2.61,4.0
1758086642.96121,1758086642.86431,0.0,0.0,0.0,-40.04975,10.71431,9.33921,13.16,1.25,1.0,4.0
1758086642.96245,1758086642.87431,0.0,0.0,0.0,-44.00316,18.79302,5.72958,13.16,1.25,1.0,4.0
1758086642.96277,1758086642.88431,0.0,0.0,0.0,-46.81066,24.80907,2.00535,11.6,1.17,0.39,4.0
1758086642.98125,1758086642.89431,0.0,0.0,0.0,-48.9879,30.88243,-1.43239,11.84,1.06,1.11,4.0
1758086642.98268,1758086642.90431,0.0,0.0,0.0,-49.33167,31.97105,-2.34913,11.84,1.06,1.11,4.0
1758086642.99751,1758086642.91431,0.0,0.0,0.0,-48.35764,29.33544,-2.23454,12.83,0.62,1.3,4.0
1758086643.01434,1758086642.92431,0.0,0.0,0.0,-47.38361,24.63719,-1.77617,12.83,0.62,1.3,4.0
1758086643.01708,1758086642.93431,0.0,0.0,0.0,-42.68536,15.46986,-0.85944,13.69,-0.19,1.53,4.0
1758086643.03324,1758086642.94431,0.0,0.0,0.0,-38.61736,9.96947,0.22918,13.69,-0.19,1.53,4.0
1758086643.0398,1758086642.95431,0.0,0.0,0.0,-34.89313,6.70361,0.22918,13.97,-1.09,1.6,4.0
1758086643.05549,1758086642.96431,0.0,0.0,0.0,-27.2155,9.11003,0.22918,13.97,-1.09,1.6,4.0
1758086643.05669,1758086642.97431,0.0,0.0,0.0,-22.00158,11.86023,-0.22918,13.63,-1.96,1.29,4.0
1758086643.07249,1758086642.98431,0.0,0.0,0.0,-16.61578,12.08941,-0.68755,11.99,-2.62,1.0,4.0
1758086643.07347,1758086642.99431,0.0,0.0,0.0,-11.22997,10.94349,-1.20321,11.99,-2.62,1.0,4.0
1758086643.08846,1758086643.00431,0.0,0.0,0.0,-3.95341,8.99544,-1.60428,10.51,-2.89,0.63,4.0
1758086643.10607,1758086643.01431,0.0,0.0,0.0,0.22918,7.21927,-1.66158,10.51,-2.89,0.63,4.0
1758086643.10728,1758086643.02431,0.0,0.0,0.0,4.35448,5.50039,-0.85944,9.73,-2.74,0.27,4.0
1758086643.12228,1758086643.03431,0.0,0.0,0.0,7.84952,3.03668,-0.11459,9.73,-2.74,0.27,4.0
1758086643.14095,1758086643.04431,0.0,0.0,0.0,11.97482,-1.77617,0.68755,9.19,-2.17,0.6,4.0
1758086643.14354,1758086643.05431,0.0,0.0,0.0,14.03747,-2.6929,0.68755,9.16,-1.34,0.74,4.0
1758086643.1444,1758086643.06431,0.0,0.0,0.0,15.64175,-2.97938,0.51566,9.16,-1.34,0.74,4.0
1758086643.1773,1758086643.07431,0.0,0.0,0.0,16.84496,-2.6929,0.0573,9.26,-0.59,0.93,4.0
1758086643.18246,1758086643.08431,0.0,0.0,0.0,18.16276,-0.22918,-1.3178,9.26,-0.59,0.93,4.0
1758086643.18308,1758086643.09431,0.0,0.0,0.0,18.79302,1.94806,-2.6929,9.38,-0.16,0.96,4.0
1758086643.18462,1758086643.10431,0.0,0.0,0.0,19.42327,4.35448,-3.89611,9.38,-0.16,0.96,4.0
1758086643.19956,1758086643.11431,0.0,0.0,0.0,19.76705,6.7609,-6.07335,9.38,-0.1,0.83,4.0
1758086643.20239,1758086643.12431,0.0,0.0,0.0,21.25674,9.22462,-7.33386,9.32,-0.38,0.68,4.0
1758086643.22081,1758086643.13431,0.0,0.0,0.0,22.11617,9.68299,-8.47978,9.32,-0.38,0.68,4.0
1758086643.22257,1758086643.14431,0.0,0.0,0.0,23.20479,9.11003,-8.93814,9.21,-0.67,0.54,4.0
1758086643.23762,1758086643.15431,0.0,0.0,0.0,24.75178,9.33921,-8.76626,9.21,-0.67,0.54,4.0
1758086643.25367,1758086643.16431,0.0,0.0,0.0,25.72581,9.22462,-8.30789,9.41,-0.85,0.5,4.0
1758086643.25532,1758086643.17431,0.0,0.0,0.0,26.52795,7.84952,-7.50575,9.41,-0.85,0.5,4.0
1758086643.27196,1758086643.18431,0.0,0.0,0.0,27.33009,5.55769,-6.47442,9.3,-0.94,0.54,4.0
1758086643.27741,1758086643.19431,0.0,0.0,0.0,28.41871,2.40642,-4.64096,9.3,-0.94,0.43,4.0
1758086643.29267,1758086643.20431,0.0,0.0,0.0,29.04896,1.14592,-3.49504,9.34,-0.95,0.43,4.0
1758086643.29769,1758086643.21431,0.0,0.0,0.0,29.67921,1.48969,-2.29183,9.51,-0.91,0.22,4.0
1758086643.318,1758086643.22431,0.0,0.0,0.0,30.36677,3.66693,-1.3178,9.51,-0.91,0.22,4.0
1758086643.386,1758086643.23431,0.0,0.0,0.0,31.74186,7.10468,0.0,9.5,-0.86,0.25,4.0
1758086643.38766,1758086643.24431,0.0,0.0,0.0,32.54401,8.88085,0.80214,9.5,-0.86,0.25,4.0
1758086643.39292,1758086643.25431,0.0,0.0,0.0,33.74722,9.62569,1.83346,9.3,-0.81,0.42,4.0
1758086643.39746,1758086643.26431,0.0,0.0,0.0,34.72124,8.99544,2.6929,9.3,-0.81,0.42,4.0
1758086643.40031,1758086643.27431,0.0,0.0,0.0,35.98175,7.50575,4.23989,9.29,-0.8,0.36,4.0
1758086643.40061,1758086643.28431,0.0,0.0,0.0,36.55471,6.07335,5.32851,9.46,-0.81,0.12,4.0
1758086643.4026,1758086643.29431,0.0,0.0,0.0,36.84119,4.81285,5.95876,9.46,-0.81,0.12,4.0
1758086643.40642,1758086643.30431,0.0,0.0,0.0,37.35685,4.0107,7.84952,9.65,-0.82,0.03,4.0
1758086643.40718,1758086643.31431,0.0,0.0,0.0,37.52874,1.20321,9.74028,9.65,-0.82,0.03,4.0
1758086643.4116,1758086643.32431,0.0,0.0,0.0,37.18496,-1.3178,10.8862,9.69,-0.82,0.26,4.0
1758086643.41228,1758086643.33431,0.0,0.0,0.0,36.7266,-3.26586,11.57375,9.69,-0.82,0.26,4.0
1758086643.42925,1758086643.34431,0.0,0.0,0.0,35.75257,-4.52637,12.83425,9.83,-0.78,0.14,4.0
1758086643.43203,1758086643.35431,0.0,0.0,0.0,35.06502,-6.35983,13.5218,9.86,-0.62,0.15,4.0
1758086643.46198,1758086643.36431,0.0,0.0,0.0,34.0337,-7.21927,14.03747,9.86,-0.62,0.15,4.0
1758086643.46675,1758086643.37431,0.0,0.0,0.0,32.83048,-7.39116,14.43854,9.8,-0.42,0.16,4.0
1758086643.46795,1758086643.38431,0.0,0.0,0.0,30.36677,-1.20321,14.38124,9.8,-0.42,0.16,4.0
1758086643.47298,1758086643.39431,0.0,0.0,0.0,29.50733,7.16197,14.15206,10.25,-0.31,0.35,4.0
1758086643.49189,1758086643.40431,0.0,0.0,0.0,28.07493,11.17268,13.98017,10.25,-0.31,0.35,4.0
1758086643.49321,1758086643.41431,0.0,0.0,0.0,28.476,13.12073,15.35527,9.99,-0.31,0.5,4.0
1758086643.51014,1758086643.42431,0.0,0.0,0.0,24.92367,-8.65166,12.37589,8.34,-0.15,0.82,4.0
1758086643.53031,1758086643.43431,0.0,0.0,0.0,21.7151,-18.79302,9.22462,8.34,-0.15,0.82,4.0
1758086643.53304,1758086643.44431,0.0,0.0,0.0,19.82434,-19.53786,7.96411,9.54,0.34,-0.69,4.0
1758086643.53642,1758086643.45431,0.0,0.0,0.0,18.16276,-19.13679,6.8182,9.54,0.34,-0.69,4.0
1758086643.55415,1758086643.46431,0.0,0.0,0.0,17.87628,-21.7724,6.35983,9.17,0.44,-0.27,4.0
1758086643.56258,1758086643.47431,0.0,0.0,0.0,18.27736,-21.94428,6.24524,9.17,0.44,-0.27,4.0
1758086643.58912,1758086643.48431,0.0,0.0,0.0,18.9649,-19.82434,6.18794,8.83,0.17,-0.22,4.0
1758086643.59168,1758086643.49431,0.0,0.0,0.0,19.53786,-17.58981,6.41713,8.83,0.17,-0.22,4.0
1758086643.59231,1758086643.50431,0.0,0.0,0.0,20.05352,-15.58445,6.99009,9.09,-0.21,0.05,4.0
1758086643.59749,1758086643.51431,0.0,0.0,0.0,20.34,-14.43854,7.39116,9.02,-0.49,0.07,4.0
1758086643.61264,1758086643.52431,0.0,0.0,0.0,20.85567,-14.15206,8.02141,9.02,-0.49,0.07,4.0
1758086643.61462,1758086643.53431,0.0,0.0,0.0,22.23076,-14.9542,8.30789,8.78,-0.54,-0.1,4.0
1758086643.62962,1758086643.54431,0.0,0.0,0.0,23.31938,-16.73037,8.136,8.78,-0.54,-0.1,4.0
1758086643.63232,1758086643.55431,0.0,0.0,0.0,24.4653,-17.6471,7.67763,8.51,-0.4,-0.33,4.0
1758086643.6479,1758086643.56431,0.0,0.0,0.0,25.09555,-18.33465,7.10468,8.51,-0.4,-0.33,4.0
1758086643.66365,1758086643.57431,0.0,0.0,0.0,26.06958,-19.07949,6.07335,8.37,-0.18,-0.37,4.0
1758086643.66752,1758086643.58431,0.0,0.0,0.0,26.18417,-18.90761,5.15662,8.34,-0.01,-0.38,4.0
1758086643.68292,1758086643.59431,0.0,0.0,0.0,26.47065,-18.73572,4.35448,8.34,-0.01,-0.38,4.0
1758086643.68496,1758086643.60431,0.0,0.0,0.0,26.12688,-18.10547,3.32316,8.46,0.08,-0.5,4.0
1758086643.72671,1758086643.61431,0.0,0.0,0.0,25.72581,-16.21471,2.11994,8.46,0.08,-0.5,4.0
1758086643.72921,1758086643.62431,0.0,0.0,0.0,25.55392,-14.83961,1.3178,8.59,0.11,-0.83,4.0
1758086643.72975,1758086643.63431,0.0,0.0,0.0,25.7831,-13.5791,0.74485,8.59,0.11,-0.83,4.0
1758086643.73773,1758086643.64431,0.0,0.0,0.0,26.12688,-13.5218,-0.11459,8.5,0.09,-1.05,4.0
1758086643.73808,1758086643.65431,0.0,0.0,0.0,27.33009,-13.17803,-1.14592,8.19,0.06,-1.08,4.0
1758086643.74276,1758086643.66431,0.0,0.0,0.0,28.13223,-14.78231,-1.48969,8.19,0.06,-1.08,4.0
1758086643.93771,1758086643.67431,0.0,0.0,0.0,29.04896,-15.06879,-2.06265,7.78,0.02,-1.14,4.0
1758086643.94047,1758086643.68431,0.0,0.0,0.0,29.9084,-16.67307,-2.46372,7.78,0.02,-1.14,4.0
1758086643.94114,1758086643.69431,0.0,0.0,0.0,30.93972,-22.23076,-3.83882,7.29,-0.11,-0.84,4.0
1758086643.94266,1758086643.70431,0.0,0.0,0.0,31.45539,-29.33544,-5.78687,7.29,-0.11,-0.84,4.0
1758086643.94298,1758086643.71431,0.0,0.0,0.0,31.97105,-38.84654,-8.76626,7.33,-0.75,0.21,4.0
1758086643.9466,1758086643.72431,0.0,0.0,0.0,32.20023,-47.44091,-14.32395,7.33,-0.75,0.21,4.0
1758086643.94758,1758086643.73431,0.0,0.0,0.0,33.46074,-48.12846,-17.24603,9.58,-1.62,1.06,4.0
1758086643.94794,1758086643.74431,0.0,0.0,0.0,36.95578,-42.68536,-18.90761,13.97,-2.79,2.02,4.0
1758086643.94912,1758086643.75431,0.0,0.0,0.0,43.20102,-37.81522,-19.36597,13.97,-2.79,2.02,4.0
1758086643.94988,1758086643.76431,0.0,0.0,0.0,54.71747,-33.80451,-16.55848,17.33,-4.14,2.45,4.0
1758086643.95099,1758086643.77431,0.0,0.0,0.0,62.22322,-32.08564,-12.60507,17.33,-4.14,2.45,4.0
1758086643.95213,1758086643.78431,0.0,0.0,0.0,69.04142,-27.73116,-8.0787,17.55,-4.13,0.82,4.0
1758086643.95288,1758086643.79431,0.0,0.0,0.0,75.00018,-22.11617,-2.92208,17.55,-4.13,0.82,4.0
1758086643.95368,1758086643.80431,0.0,0.0,0.0,80.04221,-18.85031,0.97403,15.37,-3.14,-0.01,4.0
1758086643.95484,1758086643.81431,0.0,0.0,0.0,81.5319,-20.05352,0.97403,14.06,-2.25,0.3,4.0
1758086643.95538,1758086643.82431,0.0,0.0,0.0,81.5892,-19.70975,-0.68755,14.06,-2.25,0.3,4.0
1758086643.95659,1758086643.83431,0.0,0.0,0.0,81.07353,-17.30333,-2.97938,13.79,-0.66,-0.14,4.0
1758086643.95722,1758086643.84431,0.0,0.0,0.0,79.46925,-12.08941,-5.90147,13.79,-0.66,-0.14,4.0
1758086643.95847,1758086643.85431,0.0,0.0,0.0,77.92226,-6.7609,-6.70361,12.47,0.51,-0.31,4.0
1758086643.95989,1758086643.86431,0.0,0.0,0.0,75.57314,-0.97403,-6.7609,12.47,0.51,-0.31,4.0
1758086643.96113,1758086643.87431,0.0,0.0,0.0,72.53646,4.35448,-6.13065,11.31,0.27,-0.05,4.0
1758086643.96175,1758086643.88431,0.0,0.0,0.0,65.43179,7.73493,-4.64096,10.3,-0.06,0.17,4.0
1758086643.978,1758086643.89431,0.0,0.0,0.0,59.41573,8.93814,-4.23989,10.3,-0.06,0.17,4.0
1758086643.99398,1758086643.90431,0.0,0.0,0.0,52.36834,11.57375,-3.95341,10.33,0.01,0.58,4.0
1758086643.99499,1758086643.91431,0.0,0.0,0.0,45.37826,13.12073,-3.26586,10.33,0.01,0.58,4.0
1758086644.01146,1758086643.92431,0.0,0.0,0.0,35.12231,12.204,-1.43239,10.46,0.31,0.93,4.0
1758086644.01257,1758086643.93431,0.0,0.0,0.0,28.76248,9.68299,-0.17189,10.46,0.31,0.93,4.0
1758086644.02807,1758086643.94431,0.0,0.0,0.0,23.0902,7.44845,0.74485,10.33,0.61,0.97,4.0
1758086644.04389,1758086643.95431,0.0,0.0,0.0,16.95955,4.69825,1.71887,10.33,0.61,0.97,4.0
1758086644.04586,1758086643.96431,0.0,0.0,0.0,14.09476,2.7502,1.60428,10.23,0.62,0.66,4.0
1758086644.06113,1758086643.97431,0.0,0.0,0.0,12.14671,0.51566,1.03132,9.77,0.32,0.71,4.0
1758086644.06209,1758086643.98431,0.0,0.0,0.0,10.8289,-0.51566,0.40107,9.77,0.32,0.71,4.0
1758086644.07785,1758086643.99431,0.0,0.0,0.0,10.31324,-0.57296,-0.68755,9.62,-0.14,0.74,4.0
1758086644.09386,1758086644.00431,0.0,0.0,0.0,10.8862,0.11459,-1.43239,9.62,-0.14,0.74,4.0
1758086644.09509,1758086644.01431,0.0,0.0,0.0,12.204,2.23454,-2.06265,9.63,-0.68,0.5,4.0
1758086644.11106,1758086644.02431,0.0,0.0,0.0,14.61043,4.69825,-2.00535,9.63,-0.68,0.5,4.0
1758086644.11208,1758086644.03431,0.0,0.0,0.0,20.05352,7.67763,-0.97403,9.86,-1.29,0.51,4.0
1758086644.12819,1758086644.04431,0.0,0.0,0.0,24.35071,7.33386,0.34377,9.75,-1.93,0.34,4.0
1758086644.14416,1758086644.05431,0.0,0.0,0.0,28.87707,7.73493,1.48969,9.75,-1.93,0.34,4.0
1758086644.14534,1758086644.06431,0.0,0.0,0.0,33.17426,8.88085,2.7502,10.0,-2.31,-0.05,4.0
1758086644.16119,1758086644.07431,0.0,0.0,0.0,39.24761,10.8289,4.98473,10.0,-2.31,-0.05,4.0
1758086644.16211,1758086644.08431,0.0,0.0,0.0,42.68536,14.03747,6.13065,10.04,-2.3,-0.48,4.0
1758086644.17794,1758086644.09431,0.0,0.0,0.0,45.55015,16.95955,6.99009,10.04,-2.3,-0.48,4.0
1758086644.19396,1758086644.10431,0.0,0.0,0.0,47.72739,19.19409,7.50575,9.97,-2.05,-0.57,4.0
1758086644.19765,1758086644.11431,0.0,0.0,0.0,50.01921,21.7151,8.0787,9.72,-1.77,-0.64,4.0
1758086644.21297,1758086644.12431,0.0,0.0,0.0,51.27972,23.94964,8.36518,9.72,-1.77,-0.64,4.0
1758086644.21415,1758086644.13431,0.0,0.0,0.0,52.08187,26.52795,8.47978,9.72,-1.47,-0.72,4.0
1758086644.22915,1758086644.14431,0.0,0.0,0.0,52.82671,29.04896,8.65166,9.72,-1.47,-0.72,4.0
1758086644.24657,1758086644.15431,0.0,0.0,0.0,52.884,32.20023,8.36518,9.65,-1.23,-0.66,4.0
1758086644.24804,1758086644.16431,0.0,0.0,0.0,52.76942,32.83048,7.79223,9.65,-1.23,-0.66,4.0
1758086644.26319,1758086644.17431,0.0,0.0,0.0,52.25375,31.62727,6.8182,9.45,-0.98,-0.61,4.0
1758086644.26667,1758086644.18431,0.0,0.0,0.0,51.39432,30.25217,5.32851,9.45,-0.98,-0.61,4.0
1758086644.28233,1758086644.19431,0.0,0.0,0.0,50.59217,29.8511,4.52637,9.3,-0.76,-0.7,4.0
1758086644.28428,1758086644.20431,0.0,0.0,0.0,49.84733,30.19488,2.6929,9.35,-0.71,-0.77,4.0
1758086644.30238,1758086644.21431,0.0,0.0,0.0,50.76406,41.71133,2.46372,9.35,-0.71,-0.77,4.0
1758086644.34871,1758086644.22431,0.0,0.0,0.0,52.76942,67.9528,3.60963,11.0,-1.01,-0.27,4.0
1758086644.34904,1758086644.23431,0.0,0.0,0.0,55.6342,74.42722,2.00535,11.0,-1.01,-0.27,4.0
1758086644.35352,1758086644.24431,0.0,0.0,0.0,59.70221,62.22322,1.08862,9.45,-1.46,1.01,4.0
1758086644.35763,1758086644.25431,0.0,0.0,0.0,63.25455,33.74722,2.00535,9.45,-1.46,1.01,4.0
1758086644.35934,1758086644.26431,0.0,0.0,0.0,68.58305,11.51645,8.136,6.98,-1.91,-0.15,4.0
1758086644.36168,1758086644.27431,0.0,0.0,0.0,71.67702,9.5684,10.08406,10.01,-2.66,-1.89,4.0
1758086644.36278,1758086644.28431,0.0,0.0,0.0,74.7137,5.55769,10.65701,10.01,-2.66,-1.89,4.0
1758086644.38086,1758086644.29431,0.0,0.0,0.0,76.60446,0.34377,9.4538,8.72,-2.46,-1.51,4.0
1758086644.382,1758086644.30431,0.0,0.0,0.0,77.29202,-3.20856,6.53172,8.72,-2.46,-1.51,4.0
1758086644.39805,1758086644.31431,0.0,0.0,0.0,77.06283,-4.23989,4.98473,8.96,-1.59,0.05,4.0
1758086644.41535,1758086644.32431,0.0,0.0,0.0,76.20339,-5.84417,2.97938,8.96,-1.59,0.05,4.0
1758086644.41653,1758086644.33431,0.0,0.0,0.0,75.68773,-7.39116,0.0,9.37,-0.87,-0.34,4.0
1758086644.43135,1758086644.34431,0.0,0.0,0.0,73.45319,-8.30789,-1.66158,9.96,-0.46,-0.2,4.0
1758086644.43255,1758086644.35431,0.0,0.0,0.0,71.39055,-7.84952,-2.63561,9.96,-0.46,-0.2,4.0
1758086644.44836,1758086644.36431,0.0,0.0,0.0,69.04142,-5.84417,-2.92208,10.67,-0.2,0.3,4.0
1758086644.46411,1758086644.37431,0.0,0.0,0.0,66.5204,-3.66693,-1.66158,10.67,-0.2,0.3,4.0
1758086644.46606,1758086644.38431,0.0,0.0,0.0,65.2599,-2.57831,-0.51566,11.24,-0.43,0.86,4.0
1758086644.48141,1758086644.39431,0.0,0.0,0.0,64.45775,-2.34913,1.14592,11.24,-0.43,0.86,4.0
1758086644.48272,1758086644.40431,0.0,0.0,0.0,62.85347,-4.23989,3.09397,11.54,-0.55,1.18,4.0
1758086644.4981,1758086644.41431,0.0,0.0,0.0,59.87409,-9.74028,5.84417,11.54,-0.55,1.4,4.0
1758086644.51516,1758086644.42431,0.0,0.0,0.0,57.12389,-13.5218,7.67763,11.35,-0.5,1.4,4.0
1758086644.5166,1758086644.43431,0.0,0.0,0.0,54.3164,-16.50119,9.74028,11.44,-0.42,1.29,4.0
1758086644.53198,1758086644.44431,0.0,0.0,0.0,50.87865,-18.73572,11.22997,11.44,-0.42,1.29,4.0
1758086644.53399,1758086644.45431,0.0,0.0,0.0,45.77933,-19.42327,12.204,11.72,-0.32,1.45,4.0
1758086644.54923,1758086644.46431,0.0,0.0,0.0,41.71133,-18.79302,11.91752,11.72,-0.32,1.45,4.0
1758086644.56594,1758086644.47431,0.0,0.0,0.0,37.75792,-18.44924,10.8862,11.95,-0.1,1.7,4.0
1758086644.56739,1758086644.48431,0.0,0.0,0.0,33.80451,-16.84496,9.33921,11.95,-0.1,1.7,4.0
1758086644.58216,1758086644.49431,0.0,0.0,0.0,29.10626,-14.61043,6.35983,11.7,0.21,1.82,4.0
1758086644.58366,1758086644.50431,0.0,0.0,0.0,27.96034,-14.20935,4.87014,10.59,0.28,1.62,4.0
1758086644.59819,1758086644.51431,0.0,0.0,0.0,27.96034,-14.61043,3.95341,10.59,0.28,1.62,4.0
1758086644.61418,1758086644.52431,0.0,0.0,0.0,29.27814,-16.10011,3.95341,9.58,-0.13,1.36,4.0
1758086644.61692,1758086644.53431,0.0,0.0,0.0,31.97105,-20.97026,4.23989,9.58,-0.13,1.36,4.0
1758086644.63246,1758086644.54431,0.0,0.0,0.0,34.09099,-25.09555,4.29718,8.79,-0.5,1.3,4.0
1758086644.63343,1758086644.55431,0.0,0.0,0.0,36.49741,-29.22085,4.46907,8.79,-0.5,1.3,4.0
1758086644.64844,1758086644.56431,0.0,0.0,0.0,40.04975,-34.37747,4.58366,8.3,-0.63,1.57,4.0
1758086644.66444,1758086644.57431,0.0,0.0,0.0,42.57077,-37.81522,4.46907,8.11,-0.5,2.02,4.0
1758086644.66622,1758086644.58431,0.0,0.0,0.0,45.20637,-40.7946,4.52637,8.11,-0.5,2.02,4.0
1758086644.68151,1758086644.59431,0.0,0.0,0.0,47.95657,-42.74266,4.69825,8.47,-0.23,2.13,4.0
1758086644.68285,1758086644.60431,0.0,0.0,0.0,51.85268,-41.65404,4.92744,8.47,-0.23,2.13,4.0
1758086644.69822,1758086644.61431,0.0,0.0,0.0,54.25911,-39.4768,5.27121,9.36,0.01,1.81,4.0
1758086644.71633,1758086644.62431,0.0,0.0,0.0,56.26446,-36.32552,5.32851,9.36,0.01,1.81,4.0
1758086644.71729,1758086644.63431,0.0,0.0,0.0,57.75415,-31.91375,5.27121,10.09,0.23,1.63,4.0
1758086644.73252,1758086644.64431,0.0,0.0,0.0,58.3844,-23.60586,4.46907,10.66,0.31,1.35,4.0
1758086644.73345,1758086644.65431,0.0,0.0,0.0,57.81144,-17.6471,3.20856,10.66,0.31,1.35,4.0
1758086644.74854,1758086644.66431,0.0,0.0,0.0,56.83742,-11.51645,2.00535,10.93,0.43,1.18,4.0
1758086644.7661,1758086644.67431,0.0,0.0,0.0,55.40502,-3.95341,0.0573,10.93,0.43,1.18,4.0
1758086644.76775,1758086644.68431,0.0,0.0,0.0,53.68615,6.47442,-2.92208,11.09,0.6,1.16,4.0
1758086644.78231,1758086644.69431,0.0,0.0,0.0,53.17049,10.54242,-4.64096,11.09,0.6,1.16,4.0
1758086644.78385,1758086644.70431,0.0,0.0,0.0,53.62885,12.83425,-5.61499,10.65,0.68,0.92,4.0
1758086644.80065,1758086644.71431,0.0,0.0,0.0,54.66018,14.61043,-5.95876,10.65,0.68,0.92,4.0
1758086644.81643,1758086644.72431,0.0,0.0,0.0,56.83742,19.36597,-5.50039,10.69,0.5,0.5,4.0
1758086644.81751,1758086644.73431,0.0,0.0,0.0,58.21251,22.00158,-5.09932,10.81,0.25,0.56,4.0
1758086644.83237,1758086644.74431,0.0,0.0,0.0,59.64491,23.54857,-4.52637,10.81,0.25,0.56,4.0
1758086644.83354,1758086644.75431,0.0,0.0,0.0,61.53567,24.17882,-3.66693,10.34,0.01,0.7,4.0
1758086644.84841,1758086644.76431,0.0,0.0,0.0,62.39511,25.43933,-3.38045,10.34,0.01,0.7,4.0
1758086644.86437,1758086644.77431,0.0,0.0,0.0,63.02536,25.72581,-3.32316,10.09,-0.14,0.68,4.0
1758086644.86672,1758086644.78431,0.0,0.0,0.0,63.54102,25.15285,-3.32316,10.09,-0.14,0.68,4.0
1758086644.88166,1758086644.79431,0.0,0.0,0.0,63.88479,25.38203,-3.26586,9.79,-0.11,0.66,4.0
1758086644.88303,1758086644.80431,0.0,0.0,0.0,63.65561,25.49662,-3.03668,9.74,0.1,0.74,4.0
1758086644.89864,1758086644.81431,0.0,0.0,0.0,63.25455,24.80907,-2.86479,9.74,0.1,0.74,4.0
1758086644.91792,1758086644.82431,0.0,0.0,0.0,62.62429,23.31938,-2.40642,9.49,0.44,0.82,4.0
1758086644.92141,1758086644.83431,0.0,0.0,0.0,60.61894,21.14215,-1.14592,9.49,0.44,0.82,4.0
1758086644.93666,1758086644.84431,0.0,0.0,0.0,58.84277,19.82434,-0.34377,9.35,0.85,0.79,4.0
1758086644.93763,1758086644.85431,0.0,0.0,0.0,56.83742,18.9649,0.40107,9.35,0.85,0.79,4.0
1758086644.9527,1758086644.86431,0.0,0.0,0.0,54.60288,17.76169,1.08862,9.24,1.19,0.8,4.0
1758086644.95362,1758086644.87431,0.0,0.0,0.0,50.99325,15.35527,1.60428,9.25,1.4,0.86,4.0
1758086644.96872,1758086644.88431,0.0,0.0,0.0,48.41494,14.09476,1.71887,9.25,1.4,0.86,4.0
1758086644.98474,1758086644.89431,0.0,0.0,0.0,45.77933,12.49048,1.60428,9.48,1.49,0.94,4.0
1758086644.98752,1758086644.90431,0.0,0.0,0.0,43.02913,10.94349,1.48969,9.48,1.49,0.94,4.0
1758086645.0027,1758086644.91431,0.0,0.0,0.0,38.56006,8.47978,0.97403,9.68,1.47,0.93,4.0
1758086645.00367,1758086644.92431,0.0,0.0,0.0,35.58068,8.65166,0.51566,9.68,1.47,0.93,4.0
1758086645.01873,1758086644.93431,0.0,0.0,0.0,32.71589,9.74028,0.45837,9.92,1.35,0.83,4.0
1758086645.03572,1758086644.94431,0.0,0.0,0.0,30.13758,10.8862,1.08862,9.92,1.35,0.83,4.0
1758086645.03708,1758086644.95431,0.0,0.0,0.0,26.69983,11.34457,1.83346,9.88,1.1,0.8,4.0
1758086645.05172,1758086644.96431,0.0,0.0,0.0,24.5226,11.45916,2.63561,9.7,0.83,0.72,4.0
1758086645.05292,1758086644.97431,0.0,0.0,0.0,22.34536,11.80293,3.66693,9.7,0.83,0.72,4.0
1758086645.06973,1758086644.98431,0.0,0.0,0.0,19.42327,12.37589,4.98473,9.72,0.63,0.62,4.0
1758086645.08814,1758086644.99431,0.0,0.0,0.0,17.47521,12.60507,5.90147,9.72,0.63,0.62,4.0
1758086645.08833,1758086645.00431,0.0,0.0,0.0,15.69904,12.83425,6.70361,9.72,0.53,0.67,4.0
1758086645.10272,1758086645.01431,0.0,0.0,0.0,14.09476,12.89155,7.39116,9.72,0.53,0.67,4.0
1758086645.10397,1758086645.02431,0.0,0.0,0.0,11.91752,12.37589,8.02141,9.71,0.52,0.75,4.0
1758086645.11878,1758086645.03431,0.0,0.0,0.0,10.54242,11.97482,8.42248,9.65,0.54,0.73,4.0
1758086645.13581,1758086645.04431,0.0,0.0,0.0,9.05273,12.37589,8.59437,9.65,0.54,0.73,4.0
1758086645.13671,1758086645.05431,0.0,0.0,0.0,8.02141,13.06344,8.99544,9.66,0.52,0.65,4.0
1758086645.15154,1758086645.06431,0.0,0.0,0.0,6.70361,13.23533,9.4538,9.66,0.52,0.65,4.0
1758086645.15274,1758086645.07431,0.0,0.0,0.0,5.90147,12.37589,9.85487,9.5,0.47,0.66,4.0
1758086645.16855,1758086645.08431,0.0,0.0,0.0,5.21392,10.59972,10.08406,9.5,0.47,0.66,4.0
1758086645.18616,1758086645.09431,0.0,0.0,0.0,5.09932,9.4538,10.71431,9.45,0.37,0.69,4.0
1758086645.18738,1758086645.10431,0.0,0.0,0.0,4.64096,7.39116,11.57375,9.68,0.25,0.73,4.0
1758086645.20279,1758086645.11431,0.0,0.0,0.0,4.69825,5.55769,12.14671,9.68,0.25,0.73,4.0
1758086645.20724,1758086645.12431,0.0,0.0,0.0,4.81285,3.66693,12.54778,9.92,0.07,0.86,4.0
1758086645.22261,1758086645.13431,0.0,0.0,0.0,5.09932,1.60428,12.37589,9.92,0.07,0.86,4.0
1758086645.22617,1758086645.14431,0.0,0.0,0.0,6.07335,-1.71887,11.45916,10.33,-0.2,1.19,4.0
1758086645.24195,1758086645.15431,0.0,0.0,0.0,6.99009,-4.81285,10.08406,10.33,-0.2,1.19,4.0
1758086645.24303,1758086645.16431,0.0,0.0,0.0,8.36518,-8.30789,8.36518,10.84,-0.46,1.79,4.0
1758086645.26015,1758086645.17431,0.0,0.0,0.0,11.11538,-14.20935,5.84417,10.84,-0.46,1.79,4.0
1758086645.26425,1758086645.18431,0.0,0.0,0.0,13.17803,-17.6471,4.58366,11.14,-0.6,2.02,4.0
1758086645.28428,1758086645.19431,0.0,0.0,0.0,15.46986,-20.05352,3.60963,10.84,-0.75,1.49,4.0
1758086645.29416,1758086645.20431,0.0,0.0,0.0,17.87628,-20.62648,3.32316,10.84,-0.75,1.49,4.0
1758086645.36723,1758086645.21431,0.0,0.0,0.0,21.48592,-19.48057,4.18259,10.01,-0.84,1.23,4.0
1758086645.37593,1758086645.22431,0.0,0.0,0.0,23.0329,-16.55848,5.72958,10.01,-0.84,1.23,4.0
1758086645.3977,1758086645.23431,0.0,0.0,0.0,24.75178,-8.47978,7.84952,9.4,-0.72,1.08,4.0
1758086645.4028,1758086645.24431,0.0,0.0,0.0,26.18417,-1.14592,10.37054,9.4,-0.72,1.08,4.0
1758086645.41166,1758086645.25431,0.0,0.0,0.0,27.44468,3.83882,13.75099,9.26,-0.54,1.51,4.0
1758086645.4138,1758086645.26431,0.0,0.0,0.0,27.73116,3.72423,15.64175,9.02,-0.2,1.88,4.0
1758086645.42365,1758086645.27431,0.0,0.0,0.0,27.50197,2.06265,16.84496,9.02,-0.2,1.88,4.0
1758086645.4432,1758086645.28431,0.0,0.0,0.0,26.75713,-0.80214,17.58981,9.57,0.16,1.72,4.0
1758086645.45046,1758086645.29431,0.0,0.0,0.0,25.49662,-4.35448,17.53251,9.57,0.16,1.72,4.0
1758086645.45217,1758086645.30431,0.0,0.0,0.0,24.4653,-5.32851,16.73037,10.36,0.47,1.95,4.0
1758086645.45305,1758086645.31431,0.0,0.0,0.0,23.20479,-6.53172,15.75634,10.36,0.47,1.95,4.0
1758086645.45372,1758086645.32431,0.0,0.0,0.0,21.94428,-7.44845,14.61043,10.69,0.58,2.37,4.0
1758086645.45501,1758086645.33431,0.0,0.0,0.0,19.19409,-9.4538,12.77696,10.41,0.48,2.58,4.0
1758086645.4553,1758086645.34431,0.0,0.0,0.0,16.84496,-10.65701,11.51645,10.41,0.48,2.58,4.0
1758086645.45743,1758086645.35431,0.0,0.0,0.0,14.32395,-12.204,10.71431,9.9,0.2,2.43,4.0
1758086645.45805,1758086645.36431,0.0,0.0,0.0,9.96947,-13.46451,9.85487,9.9,0.2,2.43,4.0
1758086645.46085,1758086645.37431,0.0,0.0,0.0,7.39116,-16.55848,9.62569,9.5,-0.07,2.38,4.0
1758086645.46451,1758086645.38431,0.0,0.0,0.0,5.55769,-21.7151,9.11003,9.5,-0.07,2.38,4.0
1758086645.48181,1758086645.39431,0.0,0.0,0.0,3.38045,-29.22085,9.05273,8.91,-0.33,2.32,4.0
1758086645.48441,1758086645.40431,0.0,0.0,0.0,1.77617,-36.61201,10.54242,8.91,-0.33,2.32,4.0
1758086645.5028,1758086645.41431,0.0,0.0,0.0,0.80214,-37.12767,11.45916,8.99,-0.6,2.18,4.0
1758086645.5292,1758086645.42431,0.0,0.0,0.0,-0.57296,-36.89849,11.51645,9.43,-0.8,2.16,4.0
1758086645.53103,1758086645.43431,0.0,0.0,0.0,-2.29183,-36.26823,10.8862,9.43,-0.8,2.16,4.0
1758086645.53396,1758086645.44431,0.0,0.0,0.0,-5.27121,-34.26288,9.74028,9.4,-0.86,2.49,4.0
1758086645.53767,1758086645.45431,0.0,0.0,0.0,-7.33386,-31.62727,8.76626,9.4,-0.86,2.49,4.0
1758086645.5557,1758086645.46431,0.0,0.0,0.0,-8.93814,-27.61657,7.96411,9.76,-0.75,2.22,4.0
1758086645.55761,1758086645.47431,0.0,0.0,0.0,-9.39651,-20.74107,7.73493,9.76,-0.75,2.22,4.0
1758086645.57398,1758086645.48431,0.0,0.0,0.0,-11.34457,-12.77696,7.79223,10.38,-0.7,2.06,4.0
1758086645.57586,1758086645.49431,0.0,0.0,0.0,-11.74564,-8.88085,8.42248,10.46,-0.85,2.05,4.0
1758086645.5911,1758086645.50431,0.0,0.0,0.0,-12.83425,-6.41713,8.36518,10.46,-0.85,2.05,4.0
1758086645.59365,1758086645.51431,0.0,0.0,0.0,-13.06344,-3.03668,8.99544,10.64,-0.97,1.7,4.0
1758086645.60912,1758086645.52431,0.0,0.0,0.0,-14.15206,0.51566,8.76626,10.64,-0.97,1.7,4.0
1758086645.6252,1758086645.53431,0.0,0.0,0.0,-15.0115,2.7502,8.0787,10.64,-1.04,1.44,4.0
1758086645.62682,1758086645.54431,0.0,0.0,0.0,-15.75634,6.24524,7.39116,10.64,-1.04,1.44,4.0
1758086645.66407,1758086645.55431,0.0,0.0,0.0,-16.272,10.54242,6.87549,10.67,-1.09,1.32,4.0
1758086645.66816,1758086645.56431,0.0,0.0,0.0,-16.90226,14.83961,6.8182,10.4,-1.21,1.39,4.0
1758086645.67228,1758086645.57431,0.0,0.0,0.0,-17.18874,16.90226,6.70361,10.4,-1.21,1.39,4.0
1758086645.67601,1758086645.58431,0.0,0.0,0.0,-17.36062,17.93358,6.7609,10.05,-1.35,1.3,4.0
1758086645.6773,1758086645.59431,0.0,0.0,0.0,-17.58981,18.79302,6.99009,10.05,-1.35,1.3,4.0
1758086645.69291,1758086645.60431,0.0,0.0,0.0,-17.6471,18.79302,6.99009,9.77,-1.46,1.15,4.0
1758086645.69481,1758086645.61431,0.0,0.0,0.0,-17.36062,19.07949,7.10468,9.77,-1.46,1.15,4.0
1758086645.71002,1758086645.62431,0.0,0.0,0.0,-16.95955,19.42327,7.04738,9.6,-1.63,1.1,4.0
1758086645.71137,1758086645.63431,0.0,0.0,0.0,-15.87093,20.11082,6.87549,9.45,-1.63,1.17,4.0
1758086645.72648,1758086645.64431,0.0,0.0,0.0,-14.72501,19.53786,6.70361,9.45,-1.83,1.17,4.0
1758086645.742,1758086645.65431,0.0,0.0,0.0,-13.06344,17.53251,6.41713,9.1,-2.05,1.2,4.0
1758086645.7431,1758086645.66431,0.0,0.0,0.0,-11.45916,15.29797,6.07335,9.1,-2.05,1.2,4.0
1758086645.7579,1758086645.67431,0.0,0.0,0.0,-8.42248,11.97482,5.32851,8.93,-2.24,1.09,4.0
1758086645.77406,1758086645.68431,0.0,0.0,0.0,-5.95876,9.91217,5.09932,8.93,-2.24,1.09,4.0
1758086645.77777,1758086645.69431,0.0,0.0,0.0,-3.72423,8.36518,4.52637,8.92,-2.36,1.06,4.0
1758086645.79371,1758086645.70431,0.0,0.0,0.0,-1.14592,6.18794,4.29718,8.92,-2.36,1.06,4.0
1758086645.82766,1758086645.71431,0.0,0.0,0.0,1.94806,3.60963,3.83882,8.96,-2.35,1.22,4.0
1758086645.82903,1758086645.72431,0.0,0.0,0.0,3.95341,2.00535,3.26586,9.13,-2.28,1.28,4.0
1758086645.83726,1758086645.73431,0.0,0.0,0.0,5.72958,1.03132,2.97938,9.13,-2.28,1.28,4.0
1758086645.86116,1758086645.74431,0.0,0.0,0.0,7.21927,0.45837,2.46372,9.36,-2.12,1.29,4.0
1758086645.86236,1758086645.75431,0.0,0.0,0.0,8.70896,0.22918,2.06265,9.36,-2.12,1.29,4.0
1758086645.86267,1758086645.76431,0.0,0.0,0.0,9.4538,0.11459,1.77617,9.49,-1.92,1.33,4.0
1758086645.86412,1758086645.77431,0.0,0.0,0.0,10.08406,0.0573,1.48969,9.49,-1.92,1.33,4.0
1758086645.86703,1758086645.78431,0.0,0.0,0.0,10.37054,-0.0573,1.08862,9.58,-1.77,1.3,4.0
1758086645.88322,1758086645.79431,0.0,0.0,0.0,10.54242,-0.40107,0.57296,9.6,-1.68,1.2,4.0
1758086645.88692,1758086645.80431,0.0,0.0,0.0,10.65701,-1.08862,0.34377,9.6,-1.68,1.2,4.0
1758086645.902,1758086645.81431,0.0,0.0,0.0,10.59972,-2.06265,-0.0573,9.57,-1.66,1.08,4.0
1758086645.90396,1758086645.82431,0.0,0.0,0.0,10.54242,-3.72423,-0.57296,9.57,-1.66,1.08,4.0
1758086645.91999,1758086645.83431,0.0,0.0,0.0,10.48513,-4.69825,-0.80214,9.57,-1.61,1.08,4.0
1758086645.92104,1758086645.84431,0.0,0.0,0.0,10.37054,-5.21392,-1.08862,9.57,-1.61,1.08,4.0
1758086646.18667,1758086645.85431,0.0,0.0,0.0,10.31324,-6.07335,-1.20321,9.58,-1.57,1.05,4.0
1758086646.1873,1758086645.86431,0.0,0.0,0.0,10.25595,-6.7609,-1.08862,9.53,-1.51,1.07,4.0
1758086646.18928,1758086645.87431,0.0,0.0,0.0,10.25595,-6.87549,-1.03132,9.53,-1.51,1.07,4.0
1758086646.22116,1758086645.88431,0.0,0.0,0.0,10.31324,-6.8182,-0.80214,9.58,-1.49,1.01,4.0
1758086646.22155,1758086645.89431,0.0,0.0,0.0,10.31324,-6.53172,-0.51566,9.58,-1.49,1.01,4.0
1758086646.22359,1758086645.90431,0.0,0.0,0.0,10.19865,-6.53172,-0.17189,9.6,-1.47,0.97,4.0
1758086646.22553,1758086645.91431,0.0,0.0,0.0,9.96947,-6.87549,0.11459,9.6,-1.47,0.97,4.0
1758086646.27125,1758086645.92431,0.0,0.0,0.0,9.68299,-7.50575,0.22918,9.59,-1.44,0.95,4.0
1758086646.27323,1758086645.93431,0.0,0.0,0.0,9.28192,-8.136,0.57296,9.59,-1.44,0.95,4.0
1758086646.27635,1758086645.94431,0.0,0.0,0.0,8.65166,-8.99544,0.51566,9.57,-1.41,0.94,4.0
1758086646.27803,1758086645.95431,0.0,0.0,0.0,8.136,-8.42248,0.45837,9.65,-1.4,0.9,4.0
1758086646.28137,1758086645.96431,0.0,0.0,0.0,7.79223,-7.62034,0.22918,9.65,-1.4,0.9,4.0
1758086646.28204,1758086645.97431,0.0,0.0,0.0,7.50575,-7.62034,0.0573,9.55,-1.34,0.94,4.0
1758086646.28649,1758086645.98431,0.0,0.0,0.0,7.16197,-7.33386,-0.22918,9.55,-1.34,0.94,4.0
1758086646.28709,1758086645.99431,0.0,0.0,0.0,6.87549,-7.39116,-0.22918,9.37,-1.29,0.97,4.0
1758086646.28916,1758086646.00431,0.0,0.0,0.0,6.7609,-7.10468,-0.34377,9.37,-1.29,0.97,4.0
1758086646.2915,1758086646.01431,0.0,0.0,0.0,6.18794,-5.32851,-0.40107,9.38,-1.29,0.96,4.0
1758086646.29207,1758086646.02431,0.0,0.0,0.0,5.90147,-4.69825,-0.68755,9.44,-1.35,0.96,4.0
1758086646.29797,1758086646.03431,0.0,0.0,0.0,5.4431,-4.35448,-0.57296,9.44,-1.35,0.96,4.0
1758086646.29992,1758086646.04431,0.0,0.0,0.0,4.92744,-3.66693,-0.80214,9.54,-1.44,0.88,4.0
1758086646.30299,1758086646.05431,0.0,0.0,0.0,4.58366,-1.66158,-0.85944,9.54,-1.44,0.88,4.0
1758086646.3063,1758086646.06431,0.0,0.0,0.0,4.69825,-0.57296,-0.74485,9.75,-1.53,0.77,4.0
1758086646.30772,1758086646.07431,0.0,0.0,0.0,4.87014,-0.34377,-0.57296,9.75,-1.53,0.77,4.0
1758086646.30807,1758086646.08431,0.0,0.0,0.0,5.32851,-0.51566,-0.57296,9.79,-1.61,0.81,4.0
1758086646.31038,1758086646.09431,0.0,0.0,0.0,6.41713,-2.06265,-0.45837,9.87,-1.68,0.68,4.0
1758086646.31143,1758086646.10431,0.0,0.0,0.0,7.16197,-3.95341,-0.68755,9.87,-1.68,0.68,4.0
1758086646.31264,1758086646.11431,0.0,0.0,0.0,7.84952,-6.47442,-0.97403,9.83,-1.68,0.48,4.0
1758086646.31595,1758086646.12431,0.0,0.0,0.0,8.02141,-9.22462,-1.60428,9.83,-1.68,0.48,4.0
1758086646.31767,1758086646.13431,0.0,0.0,0.0,7.84952,-11.28727,-2.23454,9.81,-1.53,0.37,4.0
1758086646.31832,1758086646.14431,0.0,0.0,0.0,7.96411,-10.59972,-2.23454,9.81,-1.53,0.37,4.0
1758086646.3219,1758086646.15431,0.0,0.0,0.0,7.96411,-10.8289,-2.6929,9.97,-1.45,0.47,4.0
1758086646.32258,1758086646.16431,0.0,0.0,0.0,7.62034,-11.57375,-3.09397,9.97,-1.45,0.47,4.0
1758086646.32651,1758086646.17431,0.0,0.0,0.0,7.33386,-11.74564,-3.55234,9.94,-1.4,0.76,4.0
1758086646.32784,1758086646.18431,0.0,0.0,0.0,7.04738,-11.34457,-3.89611,10.05,-1.37,0.64,4.0
1758086646.33022,1758086646.19431,0.0,0.0,0.0,6.70361,-11.00079,-4.18259,10.05,-1.37,0.64,4.0
1758086646.33196,1758086646.20431,0.0,0.0,0.0,6.18794,-10.19865,-4.69825,9.95,-1.37,0.6,4.0
1758086646.33267,1758086646.21431,0.0,0.0,0.0,5.95876,-9.28192,-5.15662,9.95,-1.37,0.6,4.0
1758086646.3354,1758086646.22431,0.0,0.0,0.0,5.95876,-8.36518,-5.50039,9.85,-1.4,0.57,4.0
1758086646.33614,1758086646.23431,0.0,0.0,0.0,6.07335,-7.21927,-5.78687,9.85,-1.4,0.57,4.0
1758086646.33725,1758086646.24431,0.0,0.0,0.0,6.24524,-5.55769,-5.78687,9.73,-1.46,0.55,4.0
1758086646.33976,1758086646.25431,0.0,0.0,0.0,6.41713,-4.29718,-5.72958,9.62,-1.54,0.49,4.0
1758086646.3811,1758086646.26431,0.0,0.0,0.0,6.87549,-3.26586,-5.50039,9.62,-1.54,0.49,4.0
1758086646.39258,1758086646.27431,0.0,0.0,0.0,7.21927,-2.6929,-5.32851,9.4,-1.63,0.54,4.0
1758086646.39618,1758086646.28431,0.0,0.0,0.0,7.79223,-2.23454,-5.32851,9.4,-1.63,0.54,4.0
1758086646.40092,1758086646.29431,0.0,0.0,0.0,8.02141,-2.23454,-5.32851,9.18,-1.7,0.57,4.0
1758086646.40124,1758086646.30431,0.0,0.0,0.0,8.0787,-1.71887,-5.4431,9.18,-1.7,0.57,4.0
1758086646.40408,1758086646.31431,0.0,0.0,0.0,8.02141,-0.97403,-5.55769,9.14,-1.7,0.52,4.0
1758086646.40648,1758086646.32431,0.0,0.0,0.0,8.02141,-0.80214,-5.78687,9.06,-1.63,0.41,4.0
1758086646.42229,1758086646.33431,0.0,0.0,0.0,7.73493,-0.97403,-5.90147,9.06,-1.63,0.41,4.0
1758086646.4235,1758086646.34431,0.0,0.0,0.0,7.39116,-0.85944,-6.18794,8.96,-1.53,0.33,4.0
1758086646.4383,1758086646.35431,0.0,0.0,0.0,6.87549,-1.3751,-6.8182,8.96,-1.53,0.33,4.0
1758086646.45645,1758086646.36431,0.0,0.0,0.0,6.24524,-1.3751,-7.33386,8.9,-1.41,0.22,4.0
1758086646.45734,1758086646.37431,0.0,0.0,0.0,5.61499,-1.48969,-7.62034,8.9,-1.41,0.22,4.0
1758086646.47262,1758086646.38431,0.0,0.0,0.0,4.92744,-1.71887,-8.02141,8.87,-1.3,0.2,4.0
1758086646.47434,1758086646.39431,0.0,0.0,0.0,3.60963,-1.3178,-8.36518,8.87,-1.3,0.2,4.0
1758086646.49162,1758086646.40431,0.0,0.0,0.0,2.6929,-0.80214,-8.70896,8.94,-1.24,0.1,4.0
1758086646.49334,1758086646.41431,0.0,0.0,0.0,1.66158,-0.40107,-8.99544,9.03,-1.21,-0.06,4.0
1758086646.5086,1758086646.42431,0.0,0.0,0.0,0.45837,-0.0573,-9.33921,9.03,-1.21,-0.06,4.0
1758086646.52468,1758086646.43431,0.0,0.0,0.0,-1.20321,0.22918,-10.19865,9.07,-1.16,-0.17,4.0
1758086646.52642,1758086646.44431,0.0,0.0,0.0,-2.34913,0.40107,-10.59972,9.07,-1.16,-0.17,4.0
1758086646.54167,1758086646.45431,0.0,0.0,0.0,-3.66693,0.40107,-11.22997,9.06,-1.12,-0.22,4.0
1758086646.54335,1758086646.46431,0.0,0.0,0.0,-4.64096,0.68755,-11.86023,9.06,-1.12,-0.22,4.0
1758086646.55866,1758086646.47431,0.0,0.0,0.0,-6.41713,1.14592,-12.77696,8.98,-1.14,-0.29,4.0
1758086646.57466,1758086646.48431,0.0,0.0,0.0,-7.73493,1.77617,-13.17803,8.93,-1.19,-0.39,4.0
1758086646.57563,1758086646.49431,0.0,0.0,0.0,-9.11003,2.46372,-13.5791,8.93,-1.19,-0.39,4.0
1758086646.5907,1758086646.50431,0.0,0.0,0.0,-10.59972,2.40642,-13.80828,8.73,-1.3,-0.4,4.0
1758086646.59164,1758086646.51431,0.0,0.0,0.0,-12.89155,1.77617,-14.09476,8.73,-1.3,-0.4,4.0
1758086646.60743,1758086646.52431,0.0,0.0,0.0,-14.43854,1.14592,-14.03747,8.36,-1.38,-0.53,4.0
1758086646.62345,1758086646.53431,0.0,0.0,0.0,-15.98552,0.0,-13.98017,8.36,-1.38,-0.53,4.0
1758086646.62486,1758086646.54431,0.0,0.0,0.0,-16.95955,-2.6929,-13.34992,7.71,-1.42,-0.25,4.0
1758086646.63975,1758086646.55431,0.0,0.0,0.0,-18.27736,-7.79223,-12.37589,6.83,-1.46,-0.15,4.0
1758086646.64153,1758086646.56431,0.0,0.0,0.0,-18.73572,-11.22997,-11.57375,6.83,-1.46,-0.15,4.0
1758086646.65745,1758086646.57431,0.0,0.0,0.0,-18.90761,-14.78231,-10.65701,6.2,-1.62,-0.2,4.0
1758086646.67371,1758086646.58431,0.0,0.0,0.0,-18.27736,-20.74107,-9.4538,6.2,-1.62,-0.2,4.0
1758086646.67468,1758086646.59431,0.0,0.0,0.0,-17.76169,-24.98096,-8.59437,5.66,-1.66,-0.84,4.0
1758086646.69084,1758086646.60431,0.0,0.0,0.0,-16.84496,-28.87707,-7.04738,5.66,-1.66,-0.84,4.0
1758086646.69172,1758086646.61431,0.0,0.0,0.0,-15.92823,-32.83048,-4.92744,5.62,-1.2,-0.93,4.0
1758086646.70775,1758086646.62431,0.0,0.0,0.0,-13.17803,-41.25296,0.22918,5.62,-1.2,-0.93,4.0
1758086646.72472,1758086646.63431,0.0,0.0,0.0,-10.48513,-44.9199,4.46907,7.63,-0.58,0.92,4.0
1758086646.74173,1758086646.64431,0.0,0.0,0.0,-8.76626,-43.20102,8.136,13.05,-0.22,2.64,4.0
1758086646.74212,1758086646.65431,0.0,0.0,0.0,-8.47978,-38.44547,9.91217,13.05,-0.22,2.64,4.0
1758086646.74333,1758086646.66431,0.0,0.0,0.0,-11.45916,-31.16891,9.62569,17.62,0.95,4.36,4.0
1758086646.75876,1758086646.67431,0.0,0.0,0.0,-15.29797,-26.06958,8.0787,17.62,0.95,4.36,4.0
1758086646.76208,1758086646.68431,0.0,0.0,0.0,-20.11082,-17.36062,5.90147,17.22,2.52,3.65,4.0
1758086646.78195,1758086646.69431,0.0,0.0,0.0,-25.49662,-5.4431,2.57831,17.22,2.52,3.65,4.0
1758086646.78711,1758086646.70431,0.0,0.0,0.0,-33.23156,9.91217,-2.57831,14.93,2.87,2.08,4.0
1758086646.8028,1758086646.71431,0.0,0.0,0.0,-37.81522,15.58445,-4.92744,13.97,2.64,2.29,4.0
1758086646.80619,1758086646.72431,0.0,0.0,0.0,-41.71133,21.6578,-5.72958,13.97,2.64,2.29,4.0
1758086646.82179,1758086646.73431,0.0,0.0,0.0,-44.46153,25.89769,-5.21392,16.32,2.16,3.03,4.0
1758086646.82304,1758086646.74431,0.0,0.0,0.0,-46.06581,24.5226,-3.83882,16.32,2.16,3.03,4.0
1758086646.83779,1758086646.75431,0.0,0.0,0.0,-46.1231,18.44924,-2.6929,16.86,0.91,2.37,4.0
1758086646.85484,1758086646.76431,0.0,0.0,0.0,-44.00316,13.98017,-2.7502,16.86,0.91,2.37,4.0
1758086646.85599,1758086646.77431,0.0,0.0,0.0,-40.96649,13.00614,-4.35448,15.13,-0.71,1.0,4.0
1758086646.87058,1758086646.78431,0.0,0.0,0.0,-38.1017,19.88164,-5.32851,12.93,-1.85,0.09,4.0
1758086646.87176,1758086646.79431,0.0,0.0,0.0,-35.06502,22.86102,-6.07335,12.93,-1.85,0.09,4.0
1758086646.88793,1758086646.80431,0.0,0.0,0.0,-31.16891,23.94964,-5.90147,10.34,-2.35,0.78,4.0
1758086646.90394,1758086646.81431,0.0,0.0,0.0,-24.29341,23.54857,-4.1253,10.34,-2.35,0.78,4.0
1758086646.90505,1758086646.82431,0.0,0.0,0.0,-19.07949,21.42862,-2.46372,9.23,-2.44,0.69,4.0
1758086646.91967,1758086646.83431,0.0,0.0,0.0,-13.86558,18.44924,-0.74485,9.23,-2.44,0.69,4.0
1758086646.93586,1758086646.84431,0.0,0.0,0.0,-8.93814,15.35527,0.68755,8.67,-2.13,0.42,4.0
1758086646.9368,1758086646.85431,0.0,0.0,0.0,-2.63561,12.08941,1.66158,8.5,-2.13,0.39,4.0
1758086646.95166,1758086646.86431,0.0,0.0,0.0,0.85944,10.71431,1.83346,8.5,-1.54,0.39,4.0
1758086646.95281,1758086646.87431,0.0,0.0,0.0,3.49504,10.31324,1.48969,8.61,-0.88,0.75,4.0
1758086646.96794,1758086646.88431,0.0,0.0,0.0,5.61499,10.8862,0.74485,8.61,-0.88,0.75,4.0
1758086646.97223,1758086646.89431,0.0,0.0,0.0,7.44845,13.46451,-0.85944,8.94,-0.29,0.99,4.0
1758086646.98789,1758086646.90431,0.0,0.0,0.0,7.73493,16.272,-2.46372,8.94,-0.29,0.99,4.0
1758086647.00478,1758086646.91431,0.0,0.0,0.0,7.73493,18.44924,-3.89611,9.32,0.18,1.03,4.0
1758086647.00739,1758086646.92431,0.0,0.0,0.0,6.99009,20.68378,-5.09932,9.32,0.18,1.03,4.0
1758086647.02263,1758086646.93431,0.0,0.0,0.0,4.98473,23.0329,-6.47442,9.63,0.44,0.96,4.0
1758086647.02467,1758086646.94431,0.0,0.0,0.0,3.38045,24.92367,-6.99009,9.83,0.5,0.89,4.0
1758086647.03991,1758086646.95431,0.0,0.0,0.0,1.77617,25.09555,-7.44845,9.83,0.5,0.89,4.0
1758086647.05667,1758086646.96431,0.0,0.0,0.0,0.85944,23.37668,-7.50575,9.65,0.31,0.71,4.0
1758086647.06244,1758086646.97431,0.0,0.0,0.0,-0.68755,18.9649,-7.84952,9.65,0.31,0.71,4.0
1758086647.06976,1758086646.98431,0.0,0.0,0.0,-0.97403,13.40721,-7.84952,9.41,0.02,0.62,4.0
1758086647.24068,1758086646.99431,0.0,0.0,0.0,-1.03132,9.68299,-7.62034,9.41,0.02,0.62,4.0
1758086647.24964,1758086647.00431,0.0,0.0,0.0,-0.74485,8.136,-7.16197,9.48,-0.32,0.41,4.0
1758086647.25206,1758086647.01431,0.0,0.0,0.0,-0.22918,8.36518,-6.58902,9.52,-0.6,0.57,4.0
1758086647.25306,1758086647.02431,0.0,0.0,0.0,0.68755,8.136,-5.95876,9.52,-0.6,0.57,4.0
1758086647.26123,1758086647.03431,0.0,0.0,0.0,1.83346,8.36518,-5.09932,9.31,-0.74,0.79,4.0
1758086647.2621,1758086647.04431,0.0,0.0,0.0,4.1253,8.02141,-3.32316,9.31,-0.74,0.79,4.0
1758086647.26462,1758086647.05431,0.0,0.0,0.0,5.78687,7.67763,-2.00535,9.3,-0.78,0.79,4.0
1758086647.26496,1758086647.06431,0.0,0.0,0.0,7.21927,6.7609,-0.85944,9.3,-0.78,0.79,4.0
1758086647.26774,1758086647.07431,0.0,0.0,0.0,8.59437,6.35983,0.22918,9.18,-0.73,0.62,4.0
1758086647.26937,1758086647.08431,0.0,0.0,0.0,10.31324,4.29718,1.60428,8.99,-0.58,0.56,4.0
1758086647.27203,1758086647.09431,0.0,0.0,0.0,11.28727,2.00535,2.40642,8.99,-0.58,0.56,4.0
1758086647.27277,1758086647.10431,0.0,0.0,0.0,11.74564,-0.57296,2.92208,8.79,-0.45,0.51,4.0
1758086647.27468,1758086647.11431,0.0,0.0,0.0,12.14671,-2.97938,3.72423,8.79,-0.45,0.51,4.0
1758086647.27544,1758086647.12431,0.0,0.0,0.0,12.14671,-5.27121,4.69825,8.87,-0.33,0.46,4.0
1758086647.27664,1758086647.13431,0.0,0.0,0.0,12.204,-6.58902,5.50039,8.87,-0.33,0.46,4.0
1758086647.2772,1758086647.14431,0.0,0.0,0.0,11.86023,-8.30789,6.24524,8.84,-0.23,0.49,4.0
1758086647.27922,1758086647.15431,0.0,0.0,0.0,11.34457,-9.5684,6.87549,8.84,-0.23,0.49,4.0
1758086647.27983,1758086647.16431,0.0,0.0,0.0,10.54242,-11.91752,7.62034,8.69,-0.16,0.48,4.0
1758086647.2811,1758086647.17431,0.0,0.0,0.0,9.96947,-13.12073,7.79223,8.66,-0.19,0.41,4.0
1758086647.28167,1758086647.18431,0.0,0.0,0.0,9.4538,-14.61043,8.136,8.66,-0.19,0.41,4.0
1758086647.28298,1758086647.19431,0.0,0.0,0.0,8.76626,-17.36062,7.96411,8.66,-0.25,0.4,4.0
1758086647.28598,1758086647.20431,0.0,0.0,0.0,7.79223,-16.95955,9.11003,8.66,-0.25,0.4,4.0
1758086647.30183,1758086647.21431,0.0,0.0,0.0,5.78687,-8.65166,8.02141,9.18,-0.25,0.4,4.0
1758086647.30312,1758086647.22431,0.0,0.0,0.0,6.18794,-0.74485,8.65166,9.18,-0.25,0.4,4.0
1758086647.31784,1758086647.23431,0.0,0.0,0.0,2.86479,-16.90226,6.35983,9.11,-0.34,0.65,4.0
1758086647.33469,1758086647.24431,0.0,0.0,0.0,0.17189,-21.7151,5.09932,8.71,-0.03,0.69,4.0
1758086647.34142,1758086647.25431,0.0,0.0,0.0,-2.23454,-20.51189,3.49504,8.71,-0.03,0.69,4.0
1758086647.34258,1758086647.26431,0.0,0.0,0.0,-3.72423,-19.82434,3.26586,9.92,0.14,0.23,4.0
1758086647.35788,1758086647.27431,0.0,0.0,0.0,-2.29183,-21.37133,4.29718,9.92,0.14,0.23,4.0
1758086647.36301,1758086647.28431,0.0,0.0,0.0,-0.22918,-21.02755,5.55769,9.43,-0.09,-0.12,4.0
1758086647.38182,1758086647.29431,0.0,0.0,0.0,2.63561,-18.73572,7.33386,9.43,-0.09,-0.12,4.0
1758086647.41199,1758086647.30431,0.0,0.0,0.0,5.84417,-17.01685,9.22462,9.62,-0.62,0.1,4.0
1758086647.41236,1758086647.31431,0.0,0.0,0.0,10.8862,-16.3293,11.97482,9.18,-1.14,0.11,4.0
1758086647.41362,1758086647.32431,0.0,0.0,0.0,14.09476,-16.84496,13.34992,9.18,-1.14,0.11,4.0
1758086647.41424,1758086647.33431,0.0,0.0,0.0,16.84496,-18.16276,14.15206,8.77,-1.33,0.12,4.0
1758086647.43071,1758086647.34431,0.0,0.0,0.0,18.9649,-19.76705,14.38124,8.77,-1.33,0.12,4.0
1758086647.43189,1758086647.35431,0.0,0.0,0.0,21.48592,-22.11617,13.46451,8.49,-1.07,-0.11,4.0
1758086647.44796,1758086647.36431,0.0,0.0,0.0,22.57454,-24.00693,12.204,8.49,-1.07,-0.11,4.0
1758086647.46388,1758086647.37431,0.0,0.0,0.0,23.20479,-26.47065,10.54242,8.3,-0.58,-0.11,4.0
1758086647.46673,1758086647.38431,0.0,0.0,0.0,23.49127,-28.36141,8.36518,8.3,-0.58,-0.11,4.0
1758086647.48188,1758086647.39431,0.0,0.0,0.0,23.20479,-29.22085,7.10468,8.28,-0.18,-0.2,4.0
1758086647.4839,1758086647.40431,0.0,0.0,0.0,22.74642,-28.13223,6.35983,8.44,0.01,-0.41,4.0
1758086647.49993,1758086647.41431,0.0,0.0,0.0,22.34536,-26.18417,5.95876,8.44,0.01,-0.41,4.0
1758086647.51768,1758086647.42431,0.0,0.0,0.0,21.31403,-24.00693,6.13065,8.57,0.05,-0.54,4.0
1758086647.52112,1758086647.43431,0.0,0.0,0.0,20.68378,-22.91831,6.24524,8.57,0.05,-0.54,4.0
1758086647.53678,1758086647.44431,0.0,0.0,0.0,20.22541,-21.08485,6.35983,8.51,0.03,-0.62,4.0
1758086647.5383,1758086647.45431,0.0,0.0,0.0,20.3973,-20.05352,6.07335,8.51,0.03,-0.62,4.0
1758086647.55459,1758086647.46431,0.0,0.0,0.0,21.25674,-19.76705,5.27121,8.39,0.06,-0.56,4.0
1758086647.55735,1758086647.47431,0.0,0.0,0.0,22.51724,-20.16812,4.58366,8.13,0.08,-0.6,4.0
1758086647.57315,1758086647.48431,0.0,0.0,0.0,23.83505,-20.74107,3.89611,8.13,0.08,-0.6,4.0
1758086647.57731,1758086647.49431,0.0,0.0,0.0,24.92367,-21.88699,3.09397,7.85,0.06,-0.91,4.0
1758086647.59326,1758086647.50431,0.0,0.0,0.0,26.98631,-24.75178,0.68755,7.85,0.06,-0.91,4.0
1758086647.65936,1758086647.51431,0.0,0.0,0.0,28.13223,-28.76248,-2.57831,7.96,-0.51,-0.27,4.0
1758086647.65995,1758086647.52431,0.0,0.0,0.0,28.76248,-34.09099,-6.87549,7.96,-0.51,-0.27,4.0
1758086647.66285,1758086647.53431,0.0,0.0,0.0,29.04896,-38.78925,-11.51645,9.73,-1.67,1.17,4.0
1758086647.66343,1758086647.54431,0.0,0.0,0.0,30.48136,-34.37747,-16.04282,13.1,-2.25,1.53,4.0
1758086647.66467,1758086647.55431,0.0,0.0,0.0,34.66395,-25.09555,-14.83961,13.1,-2.25,1.53,4.0
1758086647.6661,1758086647.56431,0.0,0.0,0.0,40.85189,-18.56383,-10.94349,15.09,-2.66,1.7,4.0
1758086647.66964,1758086647.57431,0.0,0.0,0.0,47.72739,-15.98552,-2.11994,15.09,-2.66,1.7,4.0
1758086647.67153,1758086647.58431,0.0,0.0,0.0,55.29043,-13.75099,3.09397,14.87,-3.35,1.63,4.0
1758086647.67397,1758086647.59431,0.0,0.0,0.0,57.86874,-12.71966,6.70361,14.87,-3.35,1.63,4.0
1758086647.69187,1758086647.60431,0.0,0.0,0.0,58.4417,-12.37589,7.21927,15.85,-4.14,1.58,4.0
1758086647.69303,1758086647.61431,0.0,0.0,0.0,56.20716,-8.70896,3.89611,15.85,-4.14,1.58,4.0
1758086647.70912,1758086647.62431,0.0,0.0,0.0,54.14451,-2.86479,1.43239,17.91,-4.02,0.89,4.0
1758086647.72602,1758086647.63431,0.0,0.0,0.0,53.45696,4.52637,0.68755,16.93,-1.98,-0.06,4.0
1758086647.72703,1758086647.64431,0.0,0.0,0.0,55.00395,16.10011,2.06265,16.93,-1.98,-0.06,4.0
1758086647.74212,1758086647.65431,0.0,0.0,0.0,59.64491,32.37212,5.50039,13.92,-0.06,0.33,4.0
1758086647.74354,1758086647.66431,0.0,0.0,0.0,61.59297,38.44547,7.21927,13.92,-0.06,0.33,4.0
1758086647.75807,1758086647.67431,0.0,0.0,0.0,61.70755,41.88322,8.65166,11.97,0.01,0.26,4.0
1758086647.77438,1758086647.68431,0.0,0.0,0.0,59.75951,43.14373,9.28192,11.97,0.01,0.26,4.0
1758086647.77561,1758086647.69431,0.0,0.0,0.0,52.02457,40.27893,7.84952,11.58,-0.36,0.39,4.0
1758086647.79037,1758086647.70431,0.0,0.0,0.0,44.11775,38.73195,6.24524,11.27,-0.27,0.24,4.0
1758086647.80639,1758086647.71431,0.0,0.0,0.0,34.89313,37.35685,4.92744,11.27,-0.27,0.24,4.0
1758086647.80763,1758086647.72431,0.0,0.0,0.0,25.61122,35.58068,3.83882,10.67,0.32,0.78,4.0
1758086647.82217,1758086647.73431,0.0,0.0,0.0,13.34992,31.97105,3.26586,10.67,0.32,0.78,4.0
1758086647.82337,1758086647.74431,0.0,0.0,0.0,6.58902,29.50733,3.20856,9.84,0.9,1.13,4.0
1758086647.83818,1758086647.75431,0.0,0.0,0.0,1.60428,28.07493,2.29183,9.84,0.9,1.13,4.0
1758086647.85419,1758086647.76431,0.0,0.0,0.0,-2.6929,22.74642,2.34913,9.2,1.11,1.01,4.0
1758086647.85609,1758086647.77431,0.0,0.0,0.0,-6.13065,16.61578,1.83346,8.62,0.64,0.89,4.0
1758086647.87141,1758086647.78431,0.0,0.0,0.0,-6.41713,12.83425,1.94806,8.62,0.64,0.89,4.0
1758086647.87238,1758086647.79431,0.0,0.0,0.0,-4.92744,9.11003,2.86479,8.51,-0.3,0.7,4.0
1758086647.88992,1758086647.80431,0.0,0.0,0.0,-0.97403,9.74028,5.09932,8.51,-0.3,0.7,4.0
1758086647.9062,1758086647.81431,0.0,0.0,0.0,2.40642,11.57375,6.53172,8.97,-1.45,0.79,4.0
1758086647.9074,1758086647.82431,0.0,0.0,0.0,5.84417,13.23533,7.96411,8.97,-1.45,0.79,4.0
1758086647.9222,1758086647.83431,0.0,0.0,0.0,8.76626,15.41257,8.76626,9.14,-2.27,0.98,4.0
1758086647.92582,1758086647.84431,0.0,0.0,0.0,12.54778,19.48057,9.85487,9.14,-2.27,1.18,4.0
1758086647.9412,1758086647.85431,0.0,0.0,0.0,13.86558,22.68913,9.74028,9.37,-2.38,1.18,4.0
1758086647.94643,1758086647.86431,0.0,0.0,0.0,14.49583,23.89234,9.62569,9.18,-1.97,0.89,4.0
1758086647.96222,1758086647.87431,0.0,0.0,0.0,13.5791,24.80907,9.5684,9.18,-1.97,0.89,4.0
1758086647.96666,1758086647.88431,0.0,0.0,0.0,11.45916,30.02299,8.76626,9.04,-1.42,0.7,4.0
1758086647.98224,1758086647.89431,0.0,0.0,0.0,11.11538,47.44091,7.39116,9.04,-1.42,0.7,4.0
1758086647.98364,1758086647.90431,0.0,0.0,0.0,14.15206,46.1804,7.10468,10.0,-1.32,0.72,4.0
1758086647.99986,1758086647.91431,0.0,0.0,0.0,19.25138,30.82513,10.8289,10.0,-1.32,0.72,4.0
1758086648.01638,1758086647.92431,0.0,0.0,0.0,25.8404,20.05352,19.48057,7.95,-1.69,0.99,4.0
1758086648.02119,1758086647.93431,0.0,0.0,0.0,28.70519,23.31938,23.31938,10.56,-2.34,1.12,4.0
1758086648.06125,1758086647.94431,0.0,0.0,0.0,30.48136,25.15285,25.43933,10.56,-2.34,1.12,4.0
1758086648.0622,1758086647.95431,0.0,0.0,0.0,31.11161,26.75713,24.98096,10.06,-2.48,-0.38,4.0
1758086648.06283,1758086647.96431,0.0,0.0,0.0,28.64789,27.67386,20.16812,10.06,-2.48,-0.38,4.0
1758086648.06503,1758086647.97431,0.0,0.0,0.0,25.7831,26.01229,15.69904,9.01,-2.01,1.05,4.0
1758086648.06666,1758086647.98431,0.0,0.0,0.0,22.05888,23.60586,10.71431,9.01,-2.01,1.05,4.0
1758086648.08219,1758086647.99431,0.0,0.0,0.0,16.61578,21.7151,4.0107,8.4,-1.1,0.55,4.0
1758086648.08341,1758086648.00431,0.0,0.0,0.0,13.98017,18.16276,1.83346,8.54,-0.37,0.8,4.0
1758086648.09848,1758086648.01431,0.0,0.0,0.0,11.74564,15.0115,0.45837,8.54,-0.37,0.8,4.0
1758086648.11615,1758086648.02431,0.0,0.0,0.0,10.48513,11.34457,0.17189,8.63,-0.19,0.79,4.0
1758086648.11753,1758086648.03431,0.0,0.0,0.0,9.68299,6.47442,0.97403,8.63,-0.19,0.79,4.0
1758086648.13262,1758086648.04431,0.0,0.0,0.0,9.62569,3.49504,1.48969,8.71,-0.6,0.82,4.0
1758086648.13506,1758086648.05431,0.0,0.0,0.0,9.5684,-0.68755,2.23454,8.71,-0.6,0.82,4.0
1758086648.15157,1758086648.06431,0.0,0.0,0.0,9.5684,-6.35983,2.63561,8.49,-1.32,0.85,4.0
1758086648.15278,1758086648.07431,0.0,0.0,0.0,9.85487,-12.54778,2.7502,8.52,-1.96,0.94,4.0
1758086648.17064,1758086648.08431,0.0,0.0,0.0,9.91217,-16.67307,2.06265,8.52,-1.96,0.94,4.0
1758086648.17388,1758086648.09431,0.0,0.0,0.0,9.91217,-21.02755,0.80214,8.57,-2.25,0.99,4.0
1758086648.18934,1758086648.10431,0.0,0.0,0.0,9.91217,-24.98096,-0.40107,8.57,-2.25,0.99,4.0
1758086648.20612,1758086648.11431,0.0,0.0,0.0,9.68299,-28.07493,-1.66158,8.76,-2.1,0.99,4.0
1758086648.20998,1758086648.12431,0.0,0.0,0.0,9.91217,-28.93437,-2.06265,8.76,-2.1,0.99,4.0
1758086648.24592,1758086648.13431,0.0,0.0,0.0,10.31324,-28.13223,-2.29183,9.05,-1.73,1.24,4.0
1758086648.24706,1758086648.14431,0.0,0.0,0.0,10.65701,-26.52795,-2.00535,9.05,-1.73,1.24,4.0
1758086648.24804,1758086648.15431,0.0,0.0,0.0,10.37054,-24.17882,-2.11994,9.46,-1.35,1.48,4.0
1758086648.24979,1758086648.16431,0.0,0.0,0.0,9.62569,-22.51724,-2.57831,9.73,-1.08,1.61,4.0
1758086648.26645,1758086648.17431,0.0,0.0,0.0,8.25059,-20.3973,-2.7502,9.73,-1.08,1.61,4.0
1758086648.26925,1758086648.18431,0.0,0.0,0.0,6.35983,-17.99088,-3.32316,10.13,-0.98,1.54,4.0
1758086648.28445,1758086648.19431,0.0,0.0,0.0,2.23454,-12.60507,-4.46907,10.13,-0.98,1.54,4.0
1758086648.28717,1758086648.20431,0.0,0.0,0.0,-0.80214,-9.4538,-5.72958,10.39,-1.06,1.4,4.0
1758086648.30264,1758086648.21431,0.0,0.0,0.0,-4.0107,-7.33386,-7.16197,10.39,-1.06,1.4,4.0
1758086648.30468,1758086648.22431,0.0,0.0,0.0,-8.59437,-4.29718,-9.68299,10.29,-1.26,1.26,4.0
1758086648.3197,1758086648.23431,0.0,0.0,0.0,-10.71431,-2.7502,-11.17268,10.09,-1.44,1.25,4.0
1758086648.33728,1758086648.24431,0.0,0.0,0.0,-12.08941,-1.60428,-12.204,10.09,-1.44,1.25,4.0
1758086648.34016,1758086648.25431,0.0,0.0,0.0,-12.60507,-0.40107,-12.60507,9.76,-1.61,1.11,4.0
1758086648.35625,1758086648.26431,0.0,0.0,0.0,-12.49048,0.51566,-13.34992,9.76,-1.61,1.11,4.0
1758086648.35742,1758086648.27431,0.0,0.0,0.0,-11.91752,2.06265,-13.17803,9.35,-1.77,0.82,4.0
1758086648.37271,1758086648.28431,0.0,0.0,0.0,-10.8289,3.49504,-12.54778,9.35,-1.77,0.82,4.0
1758086648.37471,1758086648.29431,0.0,0.0,0.0,-9.62569,4.18259,-11.63104,8.84,-1.89,0.86,4.0
1758086648.38951,1758086648.30431,0.0,0.0,0.0,-9.33921,6.53172,-12.08941,8.34,-1.86,1.17,4.0
1758086648.40653,1758086648.31431,0.0,0.0,0.0,-9.74028,7.21927,-12.83425,8.34,-1.86,1.17,4.0
1758086648.40783,1758086648.32431,0.0,0.0,0.0,-10.54242,6.13065,-14.09476,7.77,-1.63,0.88,4.0
1758086648.4225,1758086648.33431,0.0,0.0,0.0,-11.63104,4.29718,-15.41257,7.77,-1.63,0.88,4.0
1758086648.42393,1758086648.34431,0.0,0.0,0.0,-12.71966,2.63561,-16.38659,7.56,-1.46,0.63,4.0
1758086648.43884,1758086648.35431,0.0,0.0,0.0,-13.23533,3.03668,-16.73037,7.56,-1.46,0.63,4.0
1758086648.45655,1758086648.36431,0.0,0.0,0.0,-13.17803,3.03668,-16.50119,7.76,-1.46,0.4,4.0
1758086648.45749,1758086648.37431,0.0,0.0,0.0,-12.83425,2.97938,-15.24068,7.76,-1.46,0.4,4.0
1758086648.47276,1758086648.38431,0.0,0.0,0.0,-12.49048,4.18259,-14.38124,7.65,-1.57,0.5,4.0
1758086648.47448,1758086648.39431,0.0,0.0,0.0,-11.91752,4.81285,-13.46451,7.76,-1.7,0.63,4.0
1758086648.48953,1758086648.40431,0.0,0.0,0.0,-11.74564,6.87549,-12.89155,7.76,-1.7,0.63,4.0
1758086648.50631,1758086648.41431,0.0,0.0,0.0,-11.63104,9.5684,-13.12073,7.93,-1.8,0.53,4.0
1758086648.50757,1758086648.42431,0.0,0.0,0.0,-11.97482,10.19865,-13.69369,7.93,-1.8,0.53,4.0
1758086648.52249,1758086648.43431,0.0,0.0,0.0,-12.37589,9.68299,-14.61043,7.77,-1.81,0.54,4.0
1758086648.528,1758086648.44431,0.0,0.0,0.0,-12.54778,9.33921,-15.24068,7.77,-1.81,0.54,4.0
1758086648.57174,1758086648.45431,0.0,0.0,0.0,-13.12073,3.89611,-16.272,7.68,-1.8,0.27,4.0
1758086648.57371,1758086648.46431,0.0,0.0,0.0,-13.80828,-1.43239,-16.04282,7.35,-1.73,0.12,4.0
1758086648.57658,1758086648.47431,0.0,0.0,0.0,-15.98552,-4.58366,-16.61578,7.35,-1.73,0.12,4.0
1758086648.57768,1758086648.48431,0.0,0.0,0.0,-18.56383,-6.70361,-16.50119,7.55,-1.46,0.04,4.0
1758086648.57833,1758086648.49431,0.0,0.0,0.0,-23.54857,-14.38124,-14.61043,7.55,-1.46,0.04,4.0
1758086648.59566,1758086648.50431,0.0,0.0,0.0,-29.73651,-18.22006,-14.03747,7.76,-0.64,0.85,4.0
1758086648.59629,1758086648.51431,0.0,0.0,0.0,-36.6693,-24.17882,-11.28727,7.76,-0.64,0.85,4.0
1758086648.61202,1758086648.52431,0.0,0.0,0.0,-44.23235,-27.10091,-8.59437,11.06,1.06,2.87,4.0
1758086648.61365,1758086648.53431,0.0,0.0,0.0,-57.92604,-24.75178,-6.47442,16.54,2.66,2.33,4.0
1758086648.63196,1758086648.54431,0.0,0.0,0.0,-66.40582,-20.68378,-5.55769,16.54,2.66,2.33,4.0
1758086648.63366,1758086648.55431,0.0,0.0,0.0,-72.65105,-13.06344,-4.92744,17.6,2.86,3.54,4.0
1758086648.65195,1758086648.56431,0.0,0.0,0.0,-75.80232,-10.02676,-4.1253,17.6,2.86,3.54,4.0
1758086648.6528,1758086648.57431,0.0,0.0,0.0,-76.94823,-16.84496,-5.84417,13.66,1.86,2.4,4.0
1758086648.67059,1758086648.58431,0.0,0.0,0.0,-75.97421,-26.47065,-9.11003,13.66,1.86,2.4,4.0
1758086648.67709,1758086648.59431,0.0,0.0,0.0,-74.02615,-36.38282,-11.28727,11.67,1.0,0.66,4.0
1758086648.69266,1758086648.60431,0.0,0.0,0.0,-70.47381,-41.48215,-13.17803,11.67,1.0,0.66,4.0
1758086648.69466,1758086648.61431,0.0,0.0,0.0,-67.78091,-6.58902,-15.92823,12.8,0.43,-0.53,4.0
1758086648.70993,1758086648.62431,0.0,0.0,0.0,-69.78626,14.78231,-19.25138,15.15,0.35,0.87,4.0
1758086648.72693,1758086648.63431,0.0,0.0,0.0,-69.15601,23.26209,-20.74107,15.15,0.35,0.87,4.0
1758086648.7273,1758086648.64431,0.0,0.0,0.0,-69.90086,15.41257,-22.11617,12.53,0.58,4.24,4.0
1758086648.74296,1758086648.65431,0.0,0.0,0.0,-69.38519,10.71431,-20.45459,12.53,0.58,4.24,4.0
1758086648.74745,1758086648.66431,0.0,0.0,0.0,-67.55173,7.21927,-17.81899,13.55,0.53,2.52,4.0
1758086648.76294,1758086648.67431,0.0,0.0,0.0,-63.88479,2.63561,-14.49583,13.55,0.53,2.52,4.0
1758086648.76627,1758086648.68431,0.0,0.0,0.0,-54.77477,-0.40107,-9.68299,13.55,-0.27,0.09,4.0
1758086648.78201,1758086648.69431,0.0,0.0,0.0,-48.64412,-1.08862,-7.62034,12.15,-1.39,0.42,4.0
1758086648.78307,1758086648.70431,0.0,0.0,0.0,-43.4875,-2.29183,-7.16197,12.15,-1.39,0.42,4.0
1758086648.79772,1758086648.71431,0.0,0.0,0.0,-38.78925,-2.6929,-7.39116,10.6,-2.33,1.35,4.0
1758086648.81474,1758086648.72431,0.0,0.0,0.0,-33.00237,-2.11994,-8.65166,10.6,-2.33,1.35,4.0
1758086648.81593,1758086648.73431,0.0,0.0,0.0,-29.33544,-2.46372,-9.4538,9.82,-2.59,1.73,4.0
1758086648.83107,1758086648.74431,0.0,0.0,0.0,-25.89769,-2.86479,-10.25595,9.82,-2.59,1.73,4.0
1758086648.83194,1758086648.75431,0.0,0.0,0.0,-22.74642,-3.26586,-10.8289,9.15,-1.97,1.26,4.0
1758086648.84733,1758086648.76431,0.0,0.0,0.0,-18.50654,-4.0107,-11.22997,8.76,-0.9,0.96,4.0
1758086648.86474,1758086648.77431,0.0,0.0,0.0,-15.75634,-3.95341,-11.51645,8.76,-0.9,0.96,4.0
1758086648.86945,1758086648.78431,0.0,0.0,0.0,-13.46451,-3.66693,-12.204,8.62,-0.04,0.68,4.0
1758086648.88633,1758086648.79431,0.0,0.0,0.0,-10.71431,-2.92208,-13.23533,8.62,-0.04,0.68,4.0
1758086648.88763,1758086648.80431,0.0,0.0,0.0,-9.62569,-1.08862,-13.86558,8.75,0.4,0.66,4.0
1758086648.90303,1758086648.81431,0.0,0.0,0.0,-8.76626,1.08862,-13.98017,8.75,0.4,0.66,4.0
1758086648.90397,1758086648.82431,0.0,0.0,0.0,-8.25059,3.83882,-13.46451,9.31,0.52,0.64,4.0
1758086648.92303,1758086648.83431,0.0,0.0,0.0,-8.0787,9.5684,-11.00079,9.31,0.52,0.64,4.0
1758086648.92663,1758086648.84431,0.0,0.0,0.0,-8.136,12.43318,-8.42248,9.95,0.4,0.65,4.0
1758086648.94444,1758086648.85431,0.0,0.0,0.0,-7.96411,13.75099,-5.72958,10.03,0.02,0.75,4.0
1758086648.99597,1758086648.86431,0.0,0.0,0.0,-7.39116,13.5791,-3.38045,10.03,0.02,0.75,4.0
1758086648.99628,1758086648.87431,0.0,0.0,0.0,-5.90147,12.37589,-0.97403,9.83,-0.46,0.6,4.0
1758086648.99763,1758086648.88431,0.0,0.0,0.0,-4.46907,10.65701,-0.40107,9.83,-0.46,0.6,4.0
1758086648.99984,1758086648.89431,0.0,0.0,0.0,-2.63561,8.36518,-0.34377,9.64,-0.75,0.43,4.0
1758086649.00138,1758086648.90431,0.0,0.0,0.0,-0.80214,5.50039,-0.80214,9.64,-0.75,0.43,4.0
1758086649.00243,1758086648.91431,0.0,0.0,0.0,2.29183,2.86479,-2.06265,9.55,-0.74,0.38,4.0
1758086649.00434,1758086648.92431,0.0,0.0,0.0,4.98473,3.20856,-2.6929,9.86,-0.62,0.33,4.0
1758086649.02083,1758086648.93431,0.0,0.0,0.0,8.136,4.52637,-2.57831,9.86,-0.62,0.33,4.0
1758086649.02243,1758086648.94431,0.0,0.0,0.0,11.28727,5.78687,-2.06265,9.95,-0.6,0.58,4.0
1758086649.0374,1758086648.95431,0.0,0.0,0.0,15.98552,7.96411,-0.0573,9.95,-0.6,0.58,4.0
1758086649.10101,1758086648.96431,0.0,0.0,0.0,18.85031,8.59437,1.66158,9.77,-0.69,0.63,4.0
1758086649.10198,1758086648.97431,0.0,0.0,0.0,21.48592,8.93814,3.83882,9.77,-0.69,0.63,4.0
1758086649.10597,1758086648.98431,0.0,0.0,0.0,23.54857,9.22462,7.33386,9.47,-0.78,0.59,4.0
1758086649.14186,1758086648.99431,0.0,0.0,0.0,25.8404,8.25059,9.39651,9.22,-0.79,0.53,4.0
1758086649.14319,1758086649.00431,0.0,0.0,0.0,26.87172,7.39116,10.65701,9.22,-0.79,0.53,4.0
1758086649.14417,1758086649.01431,0.0,0.0,0.0,27.61657,6.8182,11.51645,9.27,-0.55,0.68,4.0
1758086649.14756,1758086649.02431,0.0,0.0,0.0,27.61657,5.61499,11.86023,9.27,-0.55,0.68,4.0
1758086649.14791,1758086649.03431,0.0,0.0,0.0,26.87172,4.58366,11.97482,9.24,-0.18,0.67,4.0
1758086649.14902,1758086649.04431,0.0,0.0,0.0,25.7831,3.38045,11.86023,9.24,-0.18,0.67,4.0
1758086649.15182,1758086649.05431,0.0,0.0,0.0,24.17882,2.06265,12.08941,9.1,0.11,0.56,4.0
1758086649.15682,1758086649.06431,0.0,0.0,0.0,20.97026,0.85944,12.71966,9.1,0.11,0.43,4.0
1758086649.15716,1758086649.07431,0.0,0.0,0.0,18.85031,0.34377,13.17803,9.05,0.32,0.43,4.0
1758086649.17517,1758086649.08431,0.0,0.0,0.0,16.90226,0.0573,14.03747,9.0,0.39,0.39,4.0
1758086649.17634,1758086649.09431,0.0,0.0,0.0,14.9542,-0.40107,14.83961,9.0,0.39,0.39,4.0
1758086649.19197,1758086649.10431,0.0,0.0,0.0,12.14671,-1.48969,15.92823,8.8,0.29,0.29,4.0
1758086649.19483,1758086649.11431,0.0,0.0,0.0,10.31324,-1.77617,16.50119,8.8,0.29,0.29,4.0
1758086649.21101,1758086649.12431,0.0,0.0,0.0,8.25059,-0.68755,16.90226,8.68,0.14,0.22,4.0
1758086649.21343,1758086649.13431,0.0,0.0,0.0,6.58902,0.57296,17.93358,8.68,0.14,0.22,4.0
1758086649.22983,1758086649.14431,0.0,0.0,0.0,4.23989,-1.77617,18.33465,8.51,-0.06,0.3,4.0
1758086649.23281,1758086649.15431,0.0,0.0,0.0,3.09397,-3.95341,17.93358,8.24,-0.23,0.64,4.0
1758086649.25202,1758086649.16431,0.0,0.0,0.0,2.23454,-5.50039,17.53251,8.24,-0.23,0.64,4.0
1758086649.26044,1758086649.17431,0.0,0.0,0.0,1.71887,-6.18794,17.13144,8.74,-0.38,0.46,4.0
1758086649.27494,1758086649.18431,0.0,0.0,0.0,1.3751,-5.90147,15.98552,8.74,-0.38,0.46,4.0
1758086649.31069,1758086649.19431,0.0,0.0,0.0,1.3751,-7.16197,15.41257,9.3,-0.41,0.22,4.0
1758086649.31127,1758086649.20431,0.0,0.0,0.0,1.48969,-9.33921,15.0115,9.3,-0.41,0.22,4.0
1758086649.31246,1758086649.21431,0.0,0.0,0.0,1.3751,-11.80293,15.0115,9.42,-0.32,0.14,4.0
1758086649.31551,1758086649.22431,0.0,0.0,0.0,1.03132,-12.2613,15.35527,9.66,-0.25,0.09,4.0
1758086649.31759,1758086649.23431,0.0,0.0,0.0,0.0,-12.204,15.58445,9.66,-0.25,0.09,4.0
1758086649.33326,1758086649.24431,0.0,0.0,0.0,-0.97403,-11.97482,15.98552,9.56,-0.34,0.39,4.0
1758086649.33457,1758086649.25431,0.0,0.0,0.0,-2.6929,-12.49048,15.06879,9.56,-0.34,0.39,4.0
1758086649.34925,1758086649.26431,0.0,0.0,0.0,-3.89611,-12.89155,13.80828,9.29,-0.33,0.43,4.0
1758086649.36593,1758086649.27431,0.0,0.0,0.0,-4.69825,-12.204,12.43318,9.29,-0.33,0.43,4.0
1758086649.367,1758086649.28431,0.0,0.0,0.0,-5.32851,-10.59972,10.71431,9.43,-0.33,0.25,4.0
1758086649.38205,1758086649.29431,0.0,0.0,0.0,-5.55769,-7.10468,8.25059,9.69,-0.39,0.21,4.0
1758086649.38427,1758086649.30431,0.0,0.0,0.0,-5.4431,-5.09932,7.33386,9.69,-0.39,0.21,4.0
1758086649.4,1758086649.31431,0.0,0.0,0.0,-4.81285,-2.34913,7.16197,10.13,-0.63,0.18,4.0
1758086649.40103,1758086649.32431,0.0,0.0,0.0,-3.89611,1.20321,7.33386,10.13,-0.63,0.18,4.0
1758086649.41734,1758086649.33431,0.0,0.0,0.0,-2.00535,4.35448,7.62034,10.43,-0.89,0.24,4.0
1758086649.43332,1758086649.34431,0.0,0.0,0.0,-0.22918,4.87014,8.136,10.43,-0.89,0.24,4.0
1758086649.43465,1758086649.35431,0.0,0.0,0.0,1.3751,5.15662,7.96411,10.04,-0.95,0.0,4.0
1758086649.44931,1758086649.36431,0.0,0.0,0.0,3.03668,5.61499,7.33386,10.04,-0.95,0.0,4.0
1758086649.45303,1758086649.37431,0.0,0.0,0.0,5.61499,4.64096,5.78687,9.58,-0.83,-0.11,4.0
1758086649.46835,1758086649.38431,0.0,0.0,0.0,7.16197,3.26586,4.69825,9.06,-0.75,-0.2,4.0
1758086649.4843,1758086649.39431,0.0,0.0,0.0,8.30789,1.3751,3.55234,9.06,-0.75,-0.2,4.0
1758086649.48683,1758086649.40431,0.0,0.0,0.0,9.85487,-0.51566,2.46372,8.79,-0.74,-0.35,4.0
1758086649.50207,1758086649.41431,0.0,0.0,0.0,10.94349,-2.6929,2.06265,8.79,-0.74,-0.35,4.0
1758086649.50519,1758086649.42431,0.0,0.0,0.0,11.51645,-3.55234,1.77617,8.51,-0.78,-0.69,4.0
1758086649.52036,1758086649.43431,0.0,0.0,0.0,12.60507,-4.46907,1.66158,8.51,-0.78,-0.69,4.0
1758086649.52683,1758086649.44431,0.0,0.0,0.0,13.86558,-7.62034,1.03132,8.07,-0.86,-0.86,4.0
1758086649.54418,1758086649.45431,0.0,0.0,0.0,14.9542,-11.57375,-0.17189,7.63,-1.16,-0.33,4.0
1758086649.5467,1758086649.46431,0.0,0.0,0.0,16.272,-17.36062,-3.03668,7.63,-1.16,-0.33,4.0
1758086649.5623,1758086649.47431,0.0,0.0,0.0,18.10547,-24.17882,-6.47442,8.39,-1.87,0.65,4.0
1758086649.5644,1758086649.48431,0.0,0.0,0.0,20.85567,-33.80451,-11.74564,8.39,-1.87,0.65,4.0
1758086649.62126,1758086649.49431,0.0,0.0,0.0,23.0902,-37.35685,-14.15206,10.33,-2.09,1.21,4.0
1758086649.62423,1758086649.50431,0.0,0.0,0.0,26.24147,-36.38282,-14.83961,10.33,-2.09,1.21,4.0
1758086649.6261,1758086649.51431,0.0,0.0,0.0,30.53865,-33.68992,-13.23533,12.07,-1.73,1.3,4.0
1758086649.62734,1758086649.52431,0.0,0.0,0.0,37.75792,-31.16891,-8.0787,12.23,-2.03,2.07,4.0
1758086649.62834,1758086649.53431,0.0,0.0,0.0,41.31026,-28.64789,-4.29718,12.23,-2.03,2.07,4.0
1758086649.63,1758086649.54431,0.0,0.0,0.0,43.83128,-25.7831,-0.74485,12.57,-2.96,2.0,4.0
1758086649.64607,1758086649.55431,0.0,0.0,0.0,45.77933,-22.91831,2.00535,12.57,-2.96,2.0,4.0
1758086649.64909,1758086649.56431,0.0,0.0,0.0,47.67009,-18.56383,3.89611,12.79,-3.32,2.09,4.0
1758086649.66527,1758086649.57431,0.0,0.0,0.0,48.75871,-15.35527,3.83882,12.79,-3.32,2.09,4.0
1758086649.66777,1758086649.58431,0.0,0.0,0.0,49.79003,-11.74564,2.92208,13.26,-3.02,2.14,4.0
1758086649.68672,1758086649.59431,0.0,0.0,0.0,50.2484,-7.62034,1.20321,13.26,-3.02,2.14,4.0
1758086649.68789,1758086649.60431,0.0,0.0,0.0,50.59217,-0.68755,0.74485,14.23,-2.26,1.97,4.0
1758086649.70402,1758086649.61431,0.0,0.0,0.0,50.3057,5.27121,1.3178,14.48,-1.2,1.62,4.0
1758086649.70759,1758086649.62431,0.0,0.0,0.0,49.61814,9.22462,3.32316,14.48,-1.2,1.62,4.0
1758086649.72668,1758086649.63431,0.0,0.0,0.0,49.21708,1.03132,7.39116,12.89,-0.39,1.37,4.0
1758086649.72789,1758086649.64431,0.0,0.0,0.0,48.07116,-6.18794,11.51645,12.89,-0.39,1.37,4.0
1758086649.74432,1758086649.65431,0.0,0.0,0.0,44.51882,-9.33921,12.89155,11.55,-0.23,0.54,4.0
1758086649.74603,1758086649.66431,0.0,0.0,0.0,40.27893,-8.47978,14.66772,11.55,-0.23,0.54,4.0
1758086649.76127,1758086649.67431,0.0,0.0,0.0,31.28349,-0.57296,14.61043,11.79,-0.16,0.35,4.0
1758086649.76285,1758086649.68431,0.0,0.0,0.0,24.75178,4.29718,14.09476,11.51,0.18,1.14,4.0
1758086649.77749,1758086649.69431,0.0,0.0,0.0,17.81899,6.7609,13.06344,11.51,0.18,1.14,4.0
1758086649.79606,1758086649.70431,0.0,0.0,0.0,11.63104,8.02141,12.204,10.69,0.44,1.61,4.0
1758086649.79998,1758086649.71431,0.0,0.0,0.0,3.32316,9.85487,10.71431,10.69,0.44,1.61,4.0
1758086649.81553,1758086649.72431,0.0,0.0,0.0,-1.14592,11.11538,9.33921,10.27,0.45,1.18,4.0
1758086649.81673,1758086649.73431,0.0,0.0,0.0,-4.23989,12.37589,8.36518,10.27,0.45,1.18,4.0
1758086649.83157,1758086649.74431,0.0,0.0,0.0,-6.58902,13.46451,7.33386,9.82,0.16,0.95,4.0
1758086649.83275,1758086649.75431,0.0,0.0,0.0,-8.136,14.49583,5.78687,9.38,-0.28,1.01,4.0
1758086649.84763,1758086649.76431,0.0,0.0,0.0,-8.65166,14.66772,5.27121,9.38,-0.28,1.01,4.0
1758086649.86593,1758086649.77431,0.0,0.0,0.0,-8.99544,14.32395,5.15662,9.16,-0.7,1.07,4.0
1758086649.86833,1758086649.78431,0.0,0.0,0.0,-8.88085,14.03747,5.27121,9.16,-0.7,1.07,4.0
1758086649.88431,1758086649.79431,0.0,0.0,0.0,-8.02141,13.5791,5.78687,9.1,-1.07,0.87,4.0
1758086649.88688,1758086649.80431,0.0,0.0,0.0,-7.10468,12.83425,6.07335,9.1,-1.07,0.87,4.0
1758086649.90234,1758086649.81431,0.0,0.0,0.0,-6.13065,12.204,6.24524,9.14,-1.41,0.88,4.0
1758086649.90428,1758086649.82431,0.0,0.0,0.0,-4.35448,11.11538,6.24524,9.14,-1.41,0.88,4.0
1758086649.91959,1758086649.83431,0.0,0.0,0.0,-3.26586,10.59972,6.41713,9.3,-1.69,0.87,4.0
1758086649.9372,1758086649.84431,0.0,0.0,0.0,-1.94806,9.85487,6.35983,9.36,-1.82,0.83,4.0
1758086649.94003,1758086649.85431,0.0,0.0,0.0,-0.80214,9.39651,6.35983,9.36,-1.82,0.83,4.0
1758086649.95539,1758086649.86431,0.0,0.0,0.0,0.85944,9.33921,6.07335,9.26,-1.82,0.72,4.0
1758086649.9566,1758086649.87431,0.0,0.0,0.0,1.94806,9.91217,5.72958,9.26,-1.82,0.72,4.0
1758086649.97167,1758086649.88431,0.0,0.0,0.0,2.40642,10.59972,5.27121,9.18,-1.73,0.59,4.0
1758086649.97287,1758086649.8943,0.0,0.0,0.0,3.26586,12.43318,5.15662,9.18,-1.73,0.59,4.0
1758086649.98762,1758086649.9043,0.0,0.0,0.0,3.89611,14.03747,4.46907,9.25,-1.58,0.6,4.0
1758086650.00678,1758086649.9143,0.0,0.0,0.0,3.89611,13.86558,3.03668,9.12,-1.38,0.62,4.0
1758086650.00876,1758086649.9243,0.0,0.0,0.0,2.92208,13.5218,1.94806,9.12,-1.38,0.62,4.0
1758086650.0237,1758086649.9343,0.0,0.0,0.0,1.77617,14.49583,0.57296,9.23,-1.1,0.42,4.0
1758086650.02728,1758086649.9443,0.0,0.0,0.0,-0.11459,15.69904,-0.34377,9.23,-1.1,0.42,4.0
1758086650.0426,1758086649.9543,0.0,0.0,0.0,-0.74485,15.29797,-0.34377,9.12,-0.93,0.53,4.0
1758086650.04471,1758086649.9643,0.0,0.0,0.0,-1.60428,15.0115,-0.11459,9.12,-0.93,0.53,4.0
1758086650.05972,1758086649.9743,0.0,0.0,0.0,-2.86479,14.32395,-0.0573,8.97,-0.95,0.54,4.0
1758086650.0614,1758086649.9843,0.0,0.0,0.0,-5.27121,8.136,-0.22918,8.75,-1.0,0.65,4.0
1758086650.07772,1758086649.9943,0.0,0.0,0.0,-7.04738,4.29718,-0.22918,8.75,-1.0,0.65,4.0
1758086650.09606,1758086650.0043,0.0,0.0,0.0,-8.93814,0.11459,-0.45837,8.9,-1.05,0.22,4.0
1758086650.09751,1758086650.0143,0.0,0.0,0.0,-12.54778,0.17189,-3.66693,8.9,-1.05,0.22,4.0
1758086650.1823,1758086650.0243,0.0,0.0,0.0,-13.46451,12.08941,-2.97938,9.81,-1.05,0.14,4.0
1758086650.18588,1758086650.0343,0.0,0.0,0.0,-13.40721,18.9649,-3.49504,9.81,-1.05,0.14,4.0
1758086650.18741,1758086650.0443,0.0,0.0,0.0,-13.86558,19.25138,-5.15662,9.93,-1.22,0.87,4.0
1758086650.18931,1758086650.0543,0.0,0.0,0.0,-14.83961,11.45916,-7.16197,9.93,-1.22,0.87,4.0
1758086650.19074,1758086650.0643,0.0,0.0,0.0,-15.35527,5.27121,-8.47978,9.01,-1.13,1.18,4.0
1758086650.19277,1758086650.0743,0.0,0.0,0.0,-15.64175,-0.11459,-8.99544,9.13,-1.02,0.21,4.0
1758086650.1934,1758086650.0843,0.0,0.0,0.0,-15.46986,-4.92744,-9.4538,9.13,-1.02,0.21,4.0
1758086650.19478,1758086650.0943,0.0,0.0,0.0,-15.41257,-10.71431,-9.91217,9.0,-1.09,-0.11,4.0
1758086650.19598,1758086650.1043,0.0,0.0,0.0,-15.35527,-13.12073,-10.37054,9.0,-1.09,-0.11,4.0
1758086650.19666,1758086650.1143,0.0,0.0,0.0,-15.06879,-13.86558,-10.8862,9.14,-1.27,0.32,4.0
1758086650.21257,1758086650.1243,0.0,0.0,0.0,-14.15206,-15.06879,-11.34457,9.14,-1.27,0.32,4.0
1758086650.21564,1758086650.1343,0.0,0.0,0.0,-12.71966,-14.15206,-12.37589,9.4,-1.5,0.35,4.0
1758086650.23163,1758086650.1443,0.0,0.0,0.0,-11.63104,-13.06344,-12.37589,9.59,-1.68,0.42,4.0
1758086650.23256,1758086650.1543,0.0,0.0,0.0,-10.31324,-11.97482,-12.43318,9.59,-1.68,0.42,4.0
1758086650.2478,1758086650.1643,0.0,0.0,0.0,-8.99544,-12.89155,-12.43318,9.36,-1.84,0.32,4.0
1758086650.26382,1758086650.1743,0.0,0.0,0.0,-7.16197,-14.20935,-11.80293,9.36,-1.84,0.32,4.0
1758086650.26641,1758086650.1843,0.0,0.0,0.0,-5.50039,-15.35527,-10.71431,9.32,-2.02,0.12,4.0
1758086650.28168,1758086650.1943,0.0,0.0,0.0,-3.09397,-16.3293,-10.08406,9.32,-2.02,0.12,4.0
1758086650.28437,1758086650.2043,0.0,0.0,0.0,-1.14592,-16.67307,-8.76626,9.47,-2.23,-0.06,4.0
1758086650.29987,1758086650.2143,0.0,0.0,0.0,1.60428,-17.47521,-8.59437,9.56,-2.31,0.03,4.0
1758086650.31591,1758086650.2243,0.0,0.0,0.0,3.03668,-18.33465,-7.96411,9.56,-2.31,0.03,4.0
1758086650.3211,1758086650.2343,0.0,0.0,0.0,4.1253,-18.50654,-7.44845,9.67,-2.19,0.33,4.0
1758086650.33565,1758086650.2443,0.0,0.0,0.0,4.58366,-17.76169,-7.04738,9.67,-2.19,0.33,4.0
1758086650.33742,1758086650.2543,0.0,0.0,0.0,4.46907,-16.38659,-7.16197,9.74,-1.93,0.41,4.0
1758086650.35194,1758086650.2643,0.0,0.0,0.0,4.58366,-14.9542,-7.10468,9.74,-1.93,0.41,4.0
1758086650.35603,1758086650.2743,0.0,0.0,0.0,4.35448,-12.89155,-7.16197,9.52,-1.64,0.34,4.0
1758086650.37198,1758086650.2843,0.0,0.0,0.0,3.72423,-10.19865,-7.62034,9.23,-1.64,0.23,4.0
1758086650.37635,1758086650.2943,0.0,0.0,0.0,3.66693,-10.65701,-7.16197,9.23,-1.52,0.23,4.0
1758086650.39194,1758086650.3043,0.0,0.0,0.0,3.20856,-9.74028,-7.44845,8.91,-1.52,0.24,4.0
