timeStamp,timeStampAlign,roll,pitch,yaw,gyro_x,gyro_y,gyro_z,acc_x,acc_y,acc_z,flag_num
1758076054.01743,1758076054.03119,0.0,0.0,0.0,46.63877,-18.56383,4.18259,11.12,-0.62,1.53,2.0
1758076054.03356,1758076054.04119,0.0,0.0,0.0,50.3057,-39.82057,8.136,11.12,-0.62,1.53,2.0
1758076054.03473,1758076054.05119,0.0,0.0,0.0,51.16513,-48.41494,11.34457,10.44,-0.97,1.25,2.0
1758076054.04956,1758076054.06119,0.0,0.0,0.0,51.10783,-47.72739,16.50119,10.44,-0.97,1.25,2.0
1758076054.0507,1758076054.07119,0.0,0.0,0.0,49.38896,-47.32632,24.29341,13.14,-0.88,2.0,2.0
1758076054.06614,1758076054.08119,0.0,0.0,0.0,46.69606,-46.35228,29.8511,12.93,-0.33,2.58,2.0
1758076054.08159,1758076054.09119,0.0,0.0,0.0,42.62806,-43.25832,35.58068,12.93,-0.33,2.58,2.0
1758076054.08277,1758076054.10119,0.0,0.0,0.0,37.87251,-39.70598,39.70598,12.98,0.65,2.32,2.0
1758076054.09755,1758076054.11119,0.0,0.0,0.0,30.82513,-33.11696,40.68,12.98,0.65,2.32,2.0
1758076054.11357,1758076054.12119,0.0,0.0,0.0,26.98631,-28.76248,38.1017,10.82,1.37,1.05,2.0
1758076054.11472,1758076054.13119,0.0,0.0,0.0,24.00693,-26.01229,33.86181,10.82,1.37,1.05,2.0
1758076054.12955,1758076054.14119,0.0,0.0,0.0,22.57454,-24.98096,27.1582,8.48,0.86,1.5,2.0
1758076054.13105,1758076054.15119,0.0,0.0,0.0,23.72045,-21.08485,22.74642,7.5,-0.09,2.27,2.0
1758076054.1463,1758076054.16119,0.0,0.0,0.0,26.87172,-19.42327,19.99623,7.5,-0.09,2.27,2.0
1758076054.16171,1758076054.17119,0.0,0.0,0.0,32.08564,-18.90761,18.62113,7.31,-0.95,3.32,2.0
1758076054.16303,1758076054.18119,0.0,0.0,0.0,40.50812,-17.58981,18.73572,7.31,-0.95,3.32,2.0
1758076054.17749,1758076054.19119,0.0,0.0,0.0,46.1804,-13.12073,20.45459,8.41,-1.32,4.04,2.0
1758076054.19377,1758076054.20119,0.0,0.0,0.0,50.99325,-7.33386,23.26209,8.41,-1.32,4.04,2.0
1758076054.19476,1758076054.21119,0.0,0.0,0.0,54.14451,-0.80214,26.06958,10.3,-1.05,3.72,2.0
1758076054.20962,1758076054.22119,0.0,0.0,0.0,56.14987,11.28727,28.64789,10.3,-1.05,2.63,2.0
1758076054.21103,1758076054.23119,0.0,0.0,0.0,55.86338,21.02755,28.64789,11.37,-0.09,2.63,2.0
1758076054.22611,1758076054.24119,0.0,0.0,0.0,54.25911,30.48136,27.38738,11.9,1.11,1.43,2.0
1758076054.24179,1758076054.25119,0.0,0.0,0.0,51.39432,39.13302,24.98096,11.9,1.11,1.43,2.0
1758076054.24274,1758076054.26119,0.0,0.0,0.0,45.72203,48.52953,19.42327,11.66,1.94,1.34,2.0
1758076054.2578,1758076054.27119,0.0,0.0,0.0,41.42485,52.25375,14.78231,11.66,1.94,1.34,2.0
1758076054.27375,1758076054.28119,0.0,0.0,0.0,36.84119,54.66018,9.5684,10.93,2.0,1.58,2.0
1758076054.27585,1758076054.29119,0.0,0.0,0.0,32.77319,54.48829,4.81285,10.93,2.0,1.58,2.0
1758076054.2908,1758076054.30119,0.0,0.0,0.0,27.33009,54.14451,-1.83346,10.08,1.55,1.75,2.0
1758076054.29175,1758076054.31119,0.0,0.0,0.0,24.23611,53.05589,-4.46907,9.69,1.05,1.87,2.0
1758076054.30657,1758076054.32119,0.0,0.0,0.0,20.97026,48.9879,-6.70361,9.69,1.05,1.87,2.0
1758076054.32254,1758076054.33119,0.0,0.0,0.0,17.6471,44.00316,-8.25059,8.92,0.9,1.95,2.0
1758076054.32374,1758076054.34119,0.0,0.0,0.0,12.2613,35.98175,-9.62569,8.92,0.9,1.95,2.0
1758076054.33845,1758076054.35119,0.0,0.0,0.0,8.65166,31.2262,-9.5684,8.35,1.01,1.78,2.0
1758076054.33982,1758076054.36119,0.0,0.0,0.0,4.87014,27.67386,-9.22462,8.35,1.01,1.78,2.0
1758076054.35606,1758076054.37119,0.0,0.0,0.0,-0.0573,23.72045,-7.96411,8.06,1.19,1.62,2.0
1758076054.37181,1758076054.38119,0.0,0.0,0.0,-2.34913,21.60051,-6.58902,7.99,1.13,1.61,2.0
1758076054.37283,1758076054.39119,0.0,0.0,0.0,-3.95341,20.22541,-4.92744,7.99,1.13,1.61,2.0
1758076054.38782,1758076054.40119,0.0,0.0,0.0,-5.15662,18.90761,-3.09397,8.3,0.76,1.61,2.0
1758076054.40384,1758076054.41119,0.0,0.0,0.0,-6.8182,18.16276,-0.74485,8.3,0.76,1.61,2.0
1758076054.40501,1758076054.42119,0.0,0.0,0.0,-7.62034,18.44924,0.22918,8.85,0.58,1.27,2.0
1758076054.41986,1758076054.43119,0.0,0.0,0.0,-8.42248,19.82434,0.80214,8.85,0.58,1.27,2.0
1758076054.42103,1758076054.44119,0.0,0.0,0.0,-8.93814,18.90761,0.57296,9.38,0.49,1.16,2.0
1758076054.43612,1758076054.45119,0.0,0.0,0.0,-9.68299,16.21471,0.0,9.45,0.57,1.03,2.0
1758076054.45155,1758076054.46119,0.0,0.0,0.0,-10.8862,14.43854,-0.80214,9.45,0.57,1.03,2.0
1758076054.45276,1758076054.47119,0.0,0.0,0.0,-12.43318,14.49583,-0.85944,9.76,0.64,0.72,2.0
1758076054.46766,1758076054.48119,0.0,0.0,0.0,-13.98017,15.98552,-1.14592,9.76,0.64,0.72,2.0
1758076054.48382,1758076054.49119,0.0,0.0,0.0,-16.84496,16.04282,-0.80214,9.9,0.85,0.68,2.0
1758076054.48472,1758076054.50119,0.0,0.0,0.0,-19.19409,13.86558,-0.22918,9.9,0.85,0.68,2.0
1758076054.49977,1758076054.51119,0.0,0.0,0.0,-22.23076,11.57375,0.0,9.54,0.94,1.06,2.0
1758076054.50076,1758076054.52119,0.0,0.0,0.0,-26.41335,6.99009,-0.80214,9.54,0.94,1.06,2.0
1758076054.51601,1758076054.53119,0.0,0.0,0.0,-33.34615,-9.11003,-1.77617,9.15,0.98,1.26,2.0
1758076054.53178,1758076054.54119,0.0,0.0,0.0,-39.64868,-18.85031,-3.83882,8.45,1.19,1.14,2.0
1758076054.53304,1758076054.55119,0.0,0.0,0.0,-45.89392,-27.96034,-5.32851,8.45,1.19,1.14,2.0
1758076054.54782,1758076054.56119,0.0,0.0,0.0,-55.86338,-35.2942,-8.99544,8.48,1.41,1.37,2.0
1758076054.56392,1758076054.57119,0.0,0.0,0.0,-62.05133,-47.67009,-11.91752,8.48,1.41,1.37,2.0
1758076054.56505,1758076054.58119,0.0,0.0,0.0,-67.55173,-60.16057,-14.09476,8.46,1.58,1.11,2.0
1758076054.57969,1758076054.59119,0.0,0.0,0.0,-71.27596,-67.32255,-16.3293,8.46,1.58,1.11,2.0
1758076054.58073,1758076054.60119,0.0,0.0,0.0,-76.94823,-64.51505,-17.18874,8.85,1.35,0.95,2.0
1758076054.59622,1758076054.61119,0.0,0.0,0.0,-79.92762,-58.04062,-16.84496,10.48,1.38,0.34,2.0
1758076054.61159,1758076054.62119,0.0,0.0,0.0,-83.25077,-48.70141,-16.73037,10.48,1.38,0.34,2.0
1758076054.61274,1758076054.63119,0.0,0.0,0.0,-85.77179,-37.29956,-15.75634,11.31,1.39,0.54,2.0
1758076054.6279,1758076054.64119,0.0,0.0,0.0,-88.06361,-29.39274,-15.69904,11.31,1.39,0.54,2.0
1758076054.64379,1758076054.65119,0.0,0.0,0.0,-90.69922,-28.64789,-16.73037,11.12,1.29,0.28,2.0
1758076054.64469,1758076054.66119,0.0,0.0,0.0,-91.55866,-31.28349,-17.58981,11.12,1.29,0.28,2.0
1758076054.65981,1758076054.67119,0.0,0.0,0.0,-90.41274,-36.61201,-18.90761,11.07,1.06,0.77,2.0
1758076054.66099,1758076054.68119,0.0,0.0,0.0,-85.48531,-42.51347,-21.60051,11.87,0.27,1.52,2.0
1758076054.67606,1758076054.69119,0.0,0.0,0.0,-80.72976,-49.04519,-24.23611,11.87,0.27,1.52,2.0
1758076054.69158,1758076054.70119,0.0,0.0,0.0,-76.0315,-59.35843,-28.30412,12.02,-0.77,2.54,2.0
1758076054.69321,1758076054.71119,0.0,0.0,0.0,-70.87489,-67.55173,-32.83048,12.02,-0.77,2.54,2.0
1758076054.70752,1758076054.72119,0.0,0.0,0.0,-63.48372,-67.43713,-39.07573,12.24,-1.63,2.24,2.0
1758076054.7235,1758076054.73119,0.0,0.0,0.0,-58.67088,-63.99939,-41.76862,12.24,-1.63,2.24,2.0
1758076054.72468,1758076054.74119,0.0,0.0,0.0,-54.14451,-62.79618,-43.20102,11.65,-1.97,1.95,2.0
1758076054.73949,1758076054.75119,0.0,0.0,0.0,-50.82136,-62.96807,-43.65939,11.65,-1.97,1.95,2.0
1758076054.74069,1758076054.76119,0.0,0.0,0.0,-49.21708,-57.12389,-41.31026,9.99,-1.41,2.3,2.0
1758076054.75608,1758076054.77119,0.0,0.0,0.0,-50.13381,-52.08187,-38.44547,9.52,-0.53,1.87,2.0
1758076054.77179,1758076054.78119,0.0,0.0,0.0,-53.17049,-47.49821,-36.21093,9.52,-0.53,1.87,2.0
1758076054.77294,1758076054.79119,0.0,0.0,0.0,-60.96271,-38.21629,-31.97105,9.39,0.16,2.41,2.0
1758076054.78779,1758076054.80119,0.0,0.0,0.0,-67.66632,-31.16891,-29.22085,9.39,0.16,2.41,2.0
1758076054.80357,1758076054.81119,0.0,0.0,0.0,-74.7137,-22.00158,-26.47065,9.98,0.55,2.04,2.0
1758076054.80522,1758076054.82119,0.0,0.0,0.0,-80.72976,-12.71966,-23.60586,9.98,0.55,2.04,2.0
1758076054.81964,1758076054.83119,0.0,0.0,0.0,-85.19884,1.66158,-19.07949,11.46,0.28,1.58,2.0
1758076054.82103,1758076054.84119,0.0,0.0,0.0,-85.02695,13.17803,-16.84496,12.77,-0.55,0.82,2.0
1758076054.83612,1758076054.85119,0.0,0.0,0.0,-82.39134,26.75713,-15.06879,12.77,-0.55,0.82,2.0
1758076054.85156,1758076054.86119,0.0,0.0,0.0,-78.20874,39.53409,-14.09476,13.15,-1.33,0.01,2.0
1758076054.8527,1758076054.87119,0.0,0.0,0.0,-70.24463,52.25375,-14.83961,13.15,-1.33,0.01,2.0
1758076054.86755,1758076054.88119,0.0,0.0,0.0,-64.91612,53.68615,-14.83961,11.39,-1.95,0.29,2.0
1758076054.88382,1758076054.89119,0.0,0.0,0.0,-59.98868,58.09792,-14.49583,11.39,-1.95,0.29,2.0
1758076054.88472,1758076054.90119,0.0,0.0,0.0,-54.14451,59.18654,-12.77696,10.48,-2.37,0.27,2.0
1758076054.89976,1758076054.91119,0.0,0.0,0.0,-47.15443,56.83742,-9.96947,9.93,-2.2,0.79,2.0
1758076054.90074,1758076054.92119,0.0,0.0,0.0,-43.25832,55.00395,-7.79223,9.93,-2.2,0.79,2.0
1758076054.91609,1758076054.93119,0.0,0.0,0.0,-39.24761,52.54023,-5.4431,9.69,-1.85,0.95,2.0
1758076054.93179,1758076054.94118,0.0,0.0,0.0,-35.3515,49.90463,-2.97938,9.69,-1.85,0.95,2.0
1758076054.9335,1758076054.95118,0.0,0.0,0.0,-29.22085,44.00316,0.34377,9.19,-1.55,0.87,2.0
1758076054.94856,1758076054.96118,0.0,0.0,0.0,-24.92367,39.70598,2.7502,9.19,-1.55,0.87,2.0
1758076054.94969,1758076054.97118,0.0,0.0,0.0,-20.74107,34.66395,5.27121,8.64,-1.59,0.83,2.0
1758076054.96611,1758076054.98118,0.0,0.0,0.0,-14.72501,29.27814,8.25059,8.64,-1.59,0.83,2.0
1758076054.98144,1758076054.99118,0.0,0.0,0.0,-11.28727,25.72581,9.5684,8.36,-1.55,0.66,2.0
1758076054.98263,1758076055.00118,0.0,0.0,0.0,-8.25059,25.26744,10.54242,8.65,-1.37,0.59,2.0
1758076054.99776,1758076055.01118,0.0,0.0,0.0,-5.78687,24.23611,10.54242,8.65,-1.37,0.59,2.0
1758076055.01378,1758076055.02118,0.0,0.0,0.0,-3.09397,20.16812,9.28192,8.54,-0.99,0.82,2.0
1758076055.01476,1758076055.03118,0.0,0.0,0.0,-1.77617,18.56383,7.16197,8.54,-0.99,0.82,2.0
1758076055.02978,1758076055.04118,0.0,0.0,0.0,-1.03132,17.53251,4.87014,8.8,-0.57,0.74,2.0
1758076055.03074,1758076055.05118,0.0,0.0,0.0,-0.68755,15.75634,2.34913,8.8,-0.57,0.74,2.0
1758076055.04606,1758076055.06118,0.0,0.0,0.0,-0.57296,14.66772,-1.66158,9.02,-0.31,0.62,2.0
1758076055.06156,1758076055.07118,0.0,0.0,0.0,-0.80214,16.95955,-4.1253,9.39,-0.15,0.36,2.0
1758076055.06314,1758076055.08118,0.0,0.0,0.0,-1.08862,20.97026,-6.13065,9.39,-0.15,0.36,2.0
1758076055.07771,1758076055.09118,0.0,0.0,0.0,-1.03132,26.41335,-7.50575,9.72,-0.16,0.39,2.0
1758076055.09355,1758076055.10118,0.0,0.0,0.0,0.0573,32.20023,-7.39116,9.72,-0.16,0.39,2.0
1758076055.09469,1758076055.11118,0.0,0.0,0.0,2.00535,31.51268,-6.13065,9.53,-0.38,0.57,2.0
1758076055.10947,1758076055.12118,0.0,0.0,0.0,4.64096,29.67921,-4.35448,9.53,-0.38,0.57,2.0
1758076055.11069,1758076055.13118,0.0,0.0,0.0,8.02141,28.36141,-2.00535,9.36,-0.68,0.46,2.0
1758076055.12606,1758076055.14118,0.0,0.0,0.0,14.66772,24.12152,1.83346,9.5,-1.03,0.19,2.0
1758076055.14174,1758076055.15118,0.0,0.0,0.0,19.70975,19.42327,4.0107,9.5,-1.03,0.19,2.0
1758076055.14273,1758076055.16118,0.0,0.0,0.0,25.43933,14.78231,5.78687,9.48,-1.24,0.09,2.0
1758076055.15773,1758076055.17118,0.0,0.0,0.0,30.65324,5.95876,6.87549,9.48,-1.24,0.09,2.0
1758076055.17357,1758076055.18118,0.0,0.0,0.0,36.21093,-13.12073,6.18794,8.75,-1.12,-0.18,2.0
1758076055.17503,1758076055.19118,0.0,0.0,0.0,38.50277,-22.28806,4.18259,8.75,-1.12,-0.18,2.0
1758076055.18954,1758076055.20118,0.0,0.0,0.0,40.10705,-11.34457,2.6929,9.15,-0.67,-0.41,2.0
1758076055.19101,1758076055.21118,0.0,0.0,0.0,41.76862,13.06344,0.17189,9.15,-0.67,-0.41,2.0
1758076055.20585,1758076055.22118,0.0,0.0,0.0,40.16434,31.91375,0.85944,11.44,-0.03,0.67,2.0
1758076055.22158,1758076055.23118,0.0,0.0,0.0,37.87251,36.15364,0.0573,10.73,0.55,1.62,2.0
1758076055.22274,1758076055.24118,0.0,0.0,0.0,38.44547,15.06879,1.08862,10.73,0.55,1.62,2.0
1758076055.23784,1758076055.25118,0.0,0.0,0.0,33.80451,-35.2942,4.58366,6.33,0.45,0.51,2.0
1758076055.25376,1758076055.26118,0.0,0.0,0.0,33.17426,-47.38361,9.05273,6.33,0.45,0.51,2.0
1758076055.25465,1758076055.27118,0.0,0.0,0.0,32.77319,-42.39888,13.34992,9.16,0.02,-0.47,2.0
1758076055.26978,1758076055.28118,0.0,0.0,0.0,32.77319,-32.48671,15.92823,9.16,0.02,-0.47,2.0
1758076055.27069,1758076055.29118,0.0,0.0,0.0,34.26288,-18.33465,18.9649,11.22,-0.38,0.0,2.0
1758076055.28583,1758076055.30118,0.0,0.0,0.0,34.95043,-13.06344,19.25138,11.42,-0.81,0.66,2.0
1758076055.30156,1758076055.31118,0.0,0.0,0.0,35.2369,-7.79223,18.27736,11.42,-0.81,0.66,2.0
1758076055.30299,1758076055.32118,0.0,0.0,0.0,34.77854,-1.94806,15.46986,11.8,-0.88,1.29,2.0
1758076055.31762,1758076055.33118,0.0,0.0,0.0,33.51803,4.0107,11.45916,11.8,-0.88,1.29,2.0
1758076055.33354,1758076055.34118,0.0,0.0,0.0,32.54401,3.66693,9.96947,11.92,-0.51,2.12,2.0
1758076055.33471,1758076055.35118,0.0,0.0,0.0,31.45539,0.0573,10.48513,11.92,-0.51,2.12,2.0
1758076055.34939,1758076055.36118,0.0,0.0,0.0,30.65324,-4.35448,13.86558,11.89,-0.19,3.17,2.0
1758076055.35063,1758076055.37118,0.0,0.0,0.0,29.62192,-13.5791,23.0902,12.46,-0.15,4.43,2.0
1758076055.36589,1758076055.38118,0.0,0.0,0.0,28.41871,-20.51189,30.65324,12.46,-0.15,4.43,2.0
1758076055.38156,1758076055.39118,0.0,0.0,0.0,27.44468,-24.57989,37.47144,13.61,0.43,4.36,2.0
1758076055.38267,1758076055.40118,0.0,0.0,0.0,26.47065,-25.8404,40.27893,13.61,0.43,4.36,2.0
1758076055.39774,1758076055.41118,0.0,0.0,0.0,26.81443,-26.81443,37.47144,12.95,0.86,2.75,2.0
1758076055.41375,1758076055.42118,0.0,0.0,0.0,27.2155,-24.29341,30.82513,12.95,0.86,2.75,2.0
1758076055.41499,1758076055.43118,0.0,0.0,0.0,28.476,-22.11617,22.51724,10.68,0.09,1.62,2.0
1758076055.4297,1758076055.44118,0.0,0.0,0.0,31.91375,-20.45459,8.70896,10.68,0.09,1.62,2.0
1758076055.43099,1758076055.45118,0.0,0.0,0.0,35.69527,-18.79302,0.80214,8.43,-1.01,1.42,2.0
1758076055.44605,1758076055.46118,0.0,0.0,0.0,41.13837,-16.21471,-4.23989,7.73,-1.75,1.82,2.0
1758076055.46152,1758076055.47118,0.0,0.0,0.0,48.12846,-13.69369,-6.07335,7.73,-1.75,1.82,2.0
1758076055.46263,1758076055.48118,0.0,0.0,0.0,58.15522,-11.91752,-2.63561,7.78,-1.98,2.57,2.0
1758076055.47756,1758076055.49118,0.0,0.0,0.0,63.54102,-9.85487,2.63561,7.78,-1.98,2.57,2.0
1758076055.49385,1758076055.50118,0.0,0.0,0.0,67.60902,-4.81285,9.5684,8.44,-1.36,2.78,2.0
1758076055.49475,1758076055.51118,0.0,0.0,0.0,70.6457,2.00535,17.36062,8.44,-1.36,2.78,2.0
1758076055.50954,1758076055.52118,0.0,0.0,0.0,72.99483,8.70896,29.22085,9.34,-0.52,2.85,2.0
1758076055.51069,1758076055.53118,0.0,0.0,0.0,72.0208,12.60507,33.40344,9.77,0.45,2.48,2.0
1758076055.52606,1758076055.54118,0.0,0.0,0.0,68.98412,20.16812,34.77854,9.77,0.45,2.48,2.0
1758076055.54155,1758076055.55118,0.0,0.0,0.0,64.91612,28.64789,33.23156,11.13,1.75,1.56,2.0
1758076055.54301,1758076055.56118,0.0,0.0,0.0,56.952,39.87786,26.81443,11.13,1.75,1.56,2.0
1758076055.55757,1758076055.57118,0.0,0.0,0.0,50.99325,45.83662,19.42327,11.2,2.73,1.25,2.0
1758076055.57359,1758076055.58118,0.0,0.0,0.0,45.14908,47.89928,11.97482,11.2,2.73,1.25,2.0
1758076055.57504,1758076055.59118,0.0,0.0,0.0,36.55471,46.69606,1.20321,10.24,2.89,1.46,2.0
1758076055.58957,1758076055.60118,0.0,0.0,0.0,31.39809,43.83128,-3.66693,9.53,2.4,1.59,2.0
1758076055.59098,1758076055.61118,0.0,0.0,0.0,26.98631,41.88322,-7.10468,9.53,2.4,1.59,2.0
1758076055.60581,1758076055.62118,0.0,0.0,0.0,22.91831,39.07573,-9.11003,9.43,1.72,1.71,2.0
1758076055.6218,1758076055.63118,0.0,0.0,0.0,17.93358,34.60666,-9.22462,9.43,1.72,1.71,2.0
1758076055.62272,1758076055.64118,0.0,0.0,0.0,14.83961,30.13758,-8.47978,9.3,1.18,1.75,2.0
1758076055.63776,1758076055.65118,0.0,0.0,0.0,11.74564,25.89769,-7.96411,9.3,1.18,1.75,2.0
1758076055.6535,1758076055.66118,0.0,0.0,0.0,8.88085,22.57454,-7.44845,8.95,0.96,1.7,2.0
1758076055.65469,1758076055.67118,0.0,0.0,0.0,4.52637,19.48057,-7.16197,8.67,0.96,1.67,2.0
1758076055.66977,1758076055.68118,0.0,0.0,0.0,1.71887,18.56383,-7.44845,8.67,1.02,1.67,2.0
1758076055.67069,1758076055.69118,0.0,0.0,0.0,-0.80214,18.33465,-8.02141,8.51,1.21,1.75,2.0
1758076055.686,1758076055.70118,0.0,0.0,0.0,-3.09397,17.13144,-8.25059,8.51,1.21,1.75,2.0
1758076055.70159,1758076055.71118,0.0,0.0,0.0,-5.90147,12.83425,-8.0787,8.32,1.29,1.74,2.0
1758076055.70262,1758076055.72118,0.0,0.0,0.0,-7.39116,10.25595,-7.50575,8.32,1.29,1.74,2.0
1758076055.71756,1758076055.73118,0.0,0.0,0.0,-8.30789,7.73493,-5.84417,8.52,1.12,1.78,2.0
1758076055.7339,1758076055.74118,0.0,0.0,0.0,-9.05273,5.15662,-3.89611,8.52,1.12,1.78,2.0
1758076055.73467,1758076055.75118,0.0,0.0,0.0,-10.08406,2.92208,-1.3178,8.88,0.84,1.71,2.0
1758076055.74979,1758076055.76118,0.0,0.0,0.0,-10.48513,4.81285,0.0573,9.27,0.58,1.54,2.0
1758076055.75072,1758076055.77118,0.0,0.0,0.0,-10.8862,7.04738,1.43239,9.27,0.58,1.54,2.0
1758076055.76586,1758076055.78118,0.0,0.0,0.0,-11.51645,9.05273,2.57831,9.4,0.5,1.33,2.0
1758076055.78173,1758076055.79118,0.0,0.0,0.0,-13.69369,11.51645,2.86479,9.4,0.5,1.33,2.0
1758076055.78298,1758076055.80118,0.0,0.0,0.0,-15.87093,11.00079,2.06265,9.44,0.71,1.25,2.0
1758076055.79775,1758076055.81118,0.0,0.0,0.0,-18.85031,7.21927,0.68755,9.44,0.71,1.25,2.0
1758076055.81375,1758076055.82118,0.0,0.0,0.0,-24.00693,-2.29183,-1.48969,8.89,1.07,1.02,2.0
1758076055.81496,1758076055.83118,0.0,0.0,0.0,-27.73116,-7.73493,-2.7502,8.71,1.29,0.78,2.0
1758076055.82954,1758076055.84118,0.0,0.0,0.0,-31.45539,-13.00614,-4.0107,8.71,1.29,0.78,2.0
1758076055.83071,1758076055.85118,0.0,0.0,0.0,-35.52338,-19.36597,-5.21392,8.65,1.33,0.59,2.0
1758076055.84546,1758076055.86118,0.0,0.0,0.0,-40.7373,-36.26823,-5.27121,8.65,1.33,0.59,2.0
1758076055.8616,1758076055.87118,0.0,0.0,0.0,-42.97184,-45.77933,-5.90147,8.16,0.9,0.47,2.0
1758076055.86306,1758076055.88118,0.0,0.0,0.0,-45.37826,-51.85268,-5.72958,8.16,0.9,0.47,2.0
1758076055.87753,1758076055.89118,0.0,0.0,0.0,-47.78468,-51.6235,-5.27121,8.95,0.53,0.39,2.0
1758076055.89374,1758076055.90118,0.0,0.0,0.0,-53.28508,-22.74642,-4.0107,11.64,0.6,1.0,2.0
1758076055.89475,1758076055.91118,0.0,0.0,0.0,-56.60823,-18.16276,-2.23454,11.64,0.6,1.0,2.0
1758076055.90973,1758076055.92118,0.0,0.0,0.0,-63.8275,-27.50197,-8.0787,9.78,0.8,1.41,2.0
1758076055.9108,1758076055.93118,0.0,0.0,0.0,-66.5204,-34.14828,-9.5684,9.78,0.8,1.41,2.0
1758076055.926,1758076055.94118,0.0,0.0,0.0,-71.10406,-36.6693,-14.09476,9.73,1.08,0.97,2.0
1758076055.94172,1758076055.95118,0.0,0.0,0.0,-73.62508,-28.07493,-16.10011,9.73,1.08,0.97,2.0
1758076055.94301,1758076055.96118,0.0,0.0,0.0,-75.28666,-18.50654,-17.53251,11.36,1.13,0.86,2.0
1758076055.95845,1758076055.97118,0.0,0.0,0.0,-76.43258,-10.48513,-17.87628,11.36,1.13,0.86,2.0
1758076055.95975,1758076055.98118,0.0,0.0,0.0,-76.60446,1.3751,-16.73037,11.69,0.88,0.99,2.0
1758076055.97577,1758076055.99118,0.0,0.0,0.0,-75.51585,7.16197,-15.69904,12.0,0.32,1.33,2.0
1758076055.99181,1758076056.00118,0.0,0.0,0.0,-73.91156,9.5684,-14.9542,12.0,0.32,1.33,2.0
1758076055.99274,1758076056.01118,0.0,0.0,0.0,-69.21331,9.11003,-15.41257,12.06,-0.33,1.75,2.0
1758076056.00787,1758076056.02118,0.0,0.0,0.0,-64.45775,1.03132,-17.13144,12.06,-0.33,1.75,2.0
1758076056.0238,1758076056.03118,0.0,0.0,0.0,-59.01466,-7.96411,-19.70975,12.02,-0.79,2.29,2.0
1758076056.02491,1758076056.04118,0.0,0.0,0.0,-53.39967,-16.61578,-23.0329,12.02,-0.79,2.29,2.0
1758076056.03976,1758076056.05118,0.0,0.0,0.0,-45.03448,-25.15285,-29.10626,12.18,-0.93,2.05,2.0
1758076056.04075,1758076056.06118,0.0,0.0,0.0,-40.62271,-28.87707,-33.23156,12.6,-0.85,2.2,2.0
1758076056.05608,1758076056.07118,0.0,0.0,0.0,-37.47144,-29.56462,-35.92446,12.6,-0.85,2.2,2.0
1758076056.07183,1758076056.08118,0.0,0.0,0.0,-35.75257,-29.10626,-36.32552,11.9,-0.52,1.99,2.0
1758076056.073,1758076056.09118,0.0,0.0,0.0,-35.40879,-29.96569,-32.20023,11.9,-0.52,1.99,2.0
1758076056.08781,1758076056.10118,0.0,0.0,0.0,-36.61201,-31.91375,-27.1582,9.74,0.23,1.43,2.0
1758076056.10369,1758076056.11118,0.0,0.0,0.0,-38.21629,-34.72124,-22.23076,9.74,0.23,1.43,2.0
1758076056.10474,1758076056.12118,0.0,0.0,0.0,-40.50812,-36.49741,-17.18874,8.27,0.9,1.53,2.0
1758076056.11963,1758076056.13118,0.0,0.0,0.0,-45.77933,-37.01308,-11.28727,7.99,1.19,1.82,2.0
1758076056.12076,1758076056.14118,0.0,0.0,0.0,-50.1911,-37.64333,-9.11003,7.99,1.19,1.82,2.0
1758076056.15131,1758076056.15118,0.0,0.0,0.0,-55.40502,-37.81522,-8.59437,8.03,1.24,2.54,2.0
1758076056.15159,1758076056.16118,0.0,0.0,0.0,-60.73353,-37.24226,-9.68299,8.03,1.24,2.54,2.0
1758076056.15271,1758076056.17118,0.0,0.0,0.0,-68.41116,-33.9764,-14.66772,8.74,1.1,3.3,2.0
1758076056.16778,1758076056.18118,0.0,0.0,0.0,-72.53646,-31.11161,-18.62113,8.74,1.1,3.3,2.0
1758076056.18352,1758076056.19118,0.0,0.0,0.0,-75.68773,-27.61657,-22.86102,9.72,0.69,3.35,2.0
1758076056.18501,1758076056.20118,0.0,0.0,0.0,-78.09415,-23.0329,-27.10091,9.72,0.69,3.35,2.0
1758076056.19952,1758076056.21118,0.0,0.0,0.0,-78.43793,-13.06344,-27.78845,10.81,-0.1,2.61,2.0
1758076056.20073,1758076056.22118,0.0,0.0,0.0,-76.89094,-4.46907,-26.69983,11.78,-1.04,1.6,2.0
1758076056.21581,1758076056.23118,0.0,0.0,0.0,-74.25533,5.09932,-23.66316,11.78,-1.04,1.6,2.0
1758076056.23181,1758076056.24118,0.0,0.0,0.0,-69.04142,19.07949,-16.84496,11.83,-1.64,0.95,2.0
1758076056.23276,1758076056.25118,0.0,0.0,0.0,-64.62964,26.41335,-10.8289,11.83,-1.64,0.95,2.0
1758076056.24752,1758076056.26118,0.0,0.0,0.0,-59.81679,32.42941,-4.29718,11.05,-1.79,0.96,2.0
1758076056.26347,1758076056.27118,0.0,0.0,0.0,-55.00395,36.49741,2.11994,11.05,-1.79,0.96,2.0
1758076056.26476,1758076056.28118,0.0,0.0,0.0,-48.41494,38.38818,9.4538,10.32,-1.73,0.97,2.0
1758076056.27957,1758076056.29118,0.0,0.0,0.0,-44.748,40.62271,12.71966,10.2,-1.49,0.82,2.0
1758076056.28076,1758076056.30118,0.0,0.0,0.0,-41.59674,43.94586,14.49583,10.2,-1.49,0.82,2.0
1758076056.29554,1758076056.31118,0.0,0.0,0.0,-38.90384,46.86795,15.46986,10.23,-1.05,0.78,2.0
1758076056.31163,1758076056.32118,0.0,0.0,0.0,-35.40879,48.64412,15.64175,10.23,-1.05,0.78,2.0
1758076056.31277,1758076056.33118,0.0,0.0,0.0,-33.40344,47.67009,14.72501,9.47,-0.69,0.73,2.0
1758076056.32782,1758076056.34118,0.0,0.0,0.0,-30.99702,53.05589,13.34992,9.47,-0.69,0.73,2.0
1758076056.34382,1758076056.35118,0.0,0.0,0.0,-30.88243,50.01921,8.30789,9.05,-0.42,0.72,2.0
1758076056.34476,1758076056.36118,0.0,0.0,0.0,-29.04896,40.27893,3.32316,7.75,-0.28,1.15,2.0
1758076056.35958,1758076056.37118,0.0,0.0,0.0,-27.44468,39.76327,-0.17189,7.75,-0.28,1.15,2.0
1758076056.3607,1758076056.38118,0.0,0.0,0.0,-25.43933,32.08564,0.22918,8.11,-0.47,1.13,2.0
1758076056.37541,1758076056.39118,0.0,0.0,0.0,-24.57989,29.62192,-0.17189,8.11,-0.47,1.13,2.0
1758076056.39144,1758076056.40118,0.0,0.0,0.0,-22.11617,25.09555,0.74485,8.6,-0.76,1.17,2.0
1758076056.39267,1758076056.41118,0.0,0.0,0.0,-19.88164,23.83505,1.71887,8.6,-0.76,1.17,2.0
1758076056.40742,1758076056.42118,0.0,0.0,0.0,-16.95955,24.17882,2.86479,8.77,-1.23,0.68,2.0
1758076056.42343,1758076056.43118,0.0,0.0,0.0,-12.71966,22.00158,3.60963,8.77,-1.23,0.68,2.0
1758076056.42546,1758076056.44118,0.0,0.0,0.0,-9.74028,18.50654,3.32316,8.7,-1.34,0.72,2.0
1758076056.44051,1758076056.45118,0.0,0.0,0.0,-6.70361,15.46986,2.57831,8.49,-1.23,0.74,2.0
1758076056.44166,1758076056.46118,0.0,0.0,0.0,-3.60963,15.35527,1.14592,8.49,-1.23,0.74,2.0
1758076056.45663,1758076056.47118,0.0,0.0,0.0,0.68755,17.6471,-1.3751,9.07,-1.15,0.43,2.0
1758076056.47272,1758076056.48118,0.0,0.0,0.0,3.49504,19.19409,-3.38045,9.07,-1.15,0.43,2.0
1758076056.47376,1758076056.49118,0.0,0.0,0.0,6.53172,18.85031,-5.21392,9.23,-1.19,0.49,2.0
1758076056.48852,1758076056.50118,0.0,0.0,0.0,9.91217,17.18874,-6.8182,9.23,-1.19,0.49,2.0
1758076056.48974,1758076056.51118,0.0,0.0,0.0,15.06879,12.71966,-8.42248,9.02,-1.18,0.35,2.0
1758076056.50559,1758076056.52118,0.0,0.0,0.0,18.79302,8.42248,-8.70896,8.97,-1.13,0.32,2.0
1758076056.52182,1758076056.53118,0.0,0.0,0.0,22.68913,3.09397,-8.42248,8.97,-1.13,0.32,2.0
1758076056.52276,1758076056.54118,0.0,0.0,0.0,26.69983,-3.20856,-7.50575,9.06,-1.19,0.47,2.0
1758076056.53758,1758076056.55118,0.0,0.0,0.0,32.71589,-11.97482,-4.64096,9.06,-1.19,0.47,2.0
1758076056.5536,1758076056.56118,0.0,0.0,0.0,36.55471,-17.47521,-2.00535,9.46,-1.25,0.77,2.0
1758076056.55478,1758076056.57118,0.0,0.0,0.0,40.39353,-22.97561,1.08862,9.46,-1.25,0.77,2.0
1758076056.56984,1758076056.58118,0.0,0.0,0.0,44.11775,-30.65324,4.29718,9.72,-1.25,1.06,2.0
1758076056.57076,1758076056.59118,0.0,0.0,0.0,47.78468,-47.09713,7.50575,9.48,-1.19,0.88,2.0
1758076056.58577,1758076056.60118,0.0,0.0,0.0,50.01921,-50.2484,8.65166,9.48,-1.19,0.88,2.0
1758076056.60185,1758076056.61118,0.0,0.0,0.0,51.90998,-43.02913,7.84952,11.4,-1.15,0.78,2.0
1758076056.60277,1758076056.62118,0.0,0.0,0.0,52.884,-24.17882,6.7609,11.4,-1.15,0.78,2.0
1758076056.61809,1758076056.63118,0.0,0.0,0.0,52.76942,10.71431,3.66693,13.79,-1.04,1.78,2.0
1758076056.63362,1758076056.64118,0.0,0.0,0.0,51.10783,19.82434,2.06265,13.79,-1.04,1.78,2.0
1758076056.63472,1758076056.65118,0.0,0.0,0.0,51.39432,10.25595,-2.23454,13.13,-0.73,3.11,2.0
1758076056.64957,1758076056.66118,0.0,0.0,0.0,51.73809,-33.80451,1.3178,13.13,-0.73,3.11,2.0
1758076056.65073,1758076056.67118,0.0,0.0,0.0,49.84733,-48.35764,5.4431,10.21,-0.3,2.57,2.0
1758076056.66557,1758076056.68118,0.0,0.0,0.0,49.33167,-53.91533,12.2613,12.83,0.05,2.52,2.0
1758076056.682,1758076056.69118,0.0,0.0,0.0,49.56085,-50.82136,17.6471,12.83,0.05,2.52,2.0
1758076056.68276,1758076056.70118,0.0,0.0,0.0,50.3057,-38.38818,24.5226,13.47,-0.14,2.18,2.0
1758076056.69783,1758076056.71118,0.0,0.0,0.0,50.47758,-31.56997,28.36141,13.47,-0.14,2.18,2.0
1758076056.71361,1758076056.72118,0.0,0.0,0.0,49.79003,-26.69983,30.48136,12.8,-0.12,2.36,2.0
1758076056.71504,1758076056.73118,0.0,0.0,0.0,49.15978,-21.7724,30.30947,12.8,-0.12,2.36,2.0
1758076056.72946,1758076056.74118,0.0,0.0,0.0,52.82671,-12.37589,27.50197,11.1,-0.23,1.64,2.0
1758076056.73066,1758076056.75118,0.0,0.0,0.0,58.4417,-9.5684,25.21014,9.56,-1.33,2.31,2.0
1758076056.74578,1758076056.76118,0.0,0.0,0.0,63.88479,-11.74564,23.26209,9.56,-1.33,2.31,2.0
1758076056.76165,1758076056.77118,0.0,0.0,0.0,68.41116,-11.11538,21.60051,8.72,-1.55,2.48,2.0
1758076056.76277,1758076056.78118,0.0,0.0,0.0,74.94289,-11.00079,23.60586,8.72,-1.55,2.48,2.0
1758076056.77785,1758076056.79118,0.0,0.0,0.0,78.20874,-10.65701,26.24147,8.52,-0.72,2.54,2.0
1758076056.79377,1758076056.80118,0.0,0.0,0.0,81.01624,-5.78687,33.11696,8.52,-0.72,2.54,2.0
1758076056.79473,1758076056.81118,0.0,0.0,0.0,81.41731,-5.4431,40.7373,8.2,0.3,3.34,2.0
1758076056.80983,1758076056.82118,0.0,0.0,0.0,80.90164,-2.29183,48.35764,8.06,1.4,3.38,2.0
1758076056.81071,1758076056.83118,0.0,0.0,0.0,77.23472,-1.3178,49.04519,8.06,1.4,3.38,2.0
1758076056.82571,1758076056.84118,0.0,0.0,0.0,72.99483,5.09932,48.9879,9.37,2.71,2.8,2.0
1758076056.8416,1758076056.85118,0.0,0.0,0.0,64.91612,18.90761,42.68536,9.37,2.71,2.8,2.0
1758076056.84274,1758076056.86118,0.0,0.0,0.0,58.90006,25.49662,35.98175,10.59,3.42,1.61,2.0
1758076056.8576,1758076056.87118,0.0,0.0,0.0,52.13916,30.76784,28.30412,10.59,3.42,1.61,2.0
1758076056.87353,1758076056.88118,0.0,0.0,0.0,45.77933,35.2369,20.34,10.35,2.91,1.67,2.0
1758076056.87553,1758076056.89118,0.0,0.0,0.0,36.38282,40.7946,8.93814,10.35,2.91,1.52,2.0
1758076056.8905,1758076056.90118,0.0,0.0,0.0,30.82513,43.60209,2.23454,10.08,2.08,1.52,2.0
1758076056.89201,1758076056.91118,0.0,0.0,0.0,25.89769,46.2377,-2.86479,9.94,1.6,1.69,2.0
1758076056.90655,1758076056.92118,0.0,0.0,0.0,22.00158,47.49821,-6.58902,9.94,1.6,1.69,2.0
1758076056.92255,1758076056.93118,0.0,0.0,0.0,17.30333,49.04519,-9.28192,9.71,1.44,1.8,2.0
1758076056.92447,1758076056.94118,0.0,0.0,0.0,14.9542,48.24305,-9.39651,9.71,1.44,1.8,2.0
1758076056.93975,1758076056.95118,0.0,0.0,0.0,12.71966,46.46688,-8.70896,9.29,1.33,1.84,2.0
1758076056.94073,1758076056.96118,0.0,0.0,0.0,10.54242,43.60209,-7.50575,9.29,1.33,1.84,2.0
1758076056.95579,1758076056.97118,0.0,0.0,0.0,7.10468,38.15899,-5.78687,8.85,1.17,1.93,2.0
1758076056.97183,1758076056.98118,0.0,0.0,0.0,4.18259,34.89313,-4.81285,8.49,1.04,1.87,2.0
1758076056.9736,1758076056.99118,0.0,0.0,0.0,0.97403,31.97105,-4.23989,8.49,1.04,1.87,2.0
1758076056.9888,1758076057.00118,0.0,0.0,0.0,-2.29183,27.44468,-4.52637,8.34,1.05,1.68,2.0
1758076056.98971,1758076057.01118,0.0,0.0,0.0,-6.99009,18.62113,-5.32851,8.34,1.05,1.68,2.0
1758076057.00558,1758076057.02118,0.0,0.0,0.0,-9.96947,13.06344,-6.41713,8.2,1.13,1.6,2.0
1758076057.02207,1758076057.03118,0.0,0.0,0.0,-12.83425,7.73493,-7.16197,8.2,1.13,1.6,2.0
1758076057.02355,1758076057.04118,0.0,0.0,0.0,-17.13144,2.06265,-8.30789,8.4,1.21,1.48,2.0
1758076057.03887,1758076057.05118,0.0,0.0,0.0,-19.70975,-4.46907,-8.59437,8.68,1.22,1.31,2.0
1758076057.03971,1758076057.06118,0.0,0.0,0.0,-22.28806,-7.73493,-8.42248,8.68,1.22,1.31,2.0
1758076057.05543,1758076057.07118,0.0,0.0,0.0,-24.75178,-8.30789,-7.96411,9.05,1.1,1.2,2.0
1758076057.07188,1758076057.08118,0.0,0.0,0.0,-28.30412,-7.04738,-6.41713,9.05,1.1,1.2,2.0
1758076057.07272,1758076057.09118,0.0,0.0,0.0,-30.76784,-6.87549,-5.09932,9.32,0.96,1.06,2.0
1758076057.08754,1758076057.10118,0.0,0.0,0.0,-33.46074,-7.67763,-3.95341,9.32,0.96,1.06,2.0
1758076057.10381,1758076057.11118,0.0,0.0,0.0,-36.32552,-8.47978,-3.26586,9.26,0.93,0.88,2.0
1758076057.10473,1758076057.12118,0.0,0.0,0.0,-40.7946,-9.33921,-3.26586,9.31,0.97,0.71,2.0
1758076057.11983,1758076057.13118,0.0,0.0,0.0,-44.28964,-9.85487,-3.66693,9.31,0.97,0.71,2.0
1758076057.12119,1758076057.14118,0.0,0.0,0.0,-48.01387,-10.37054,-4.58366,9.51,1.01,0.64,2.0
1758076057.13559,1758076057.15118,0.0,0.0,0.0,-51.85268,-10.59972,-5.90147,9.51,1.01,0.64,2.0
1758076057.15178,1758076057.16118,0.0,0.0,0.0,-56.78012,-12.89155,-6.99009,9.77,0.96,0.79,2.0
1758076057.15302,1758076057.17118,0.0,0.0,0.0,-60.10328,-12.83425,-9.39651,9.77,0.96,0.79,2.0
1758076057.16782,1758076057.18118,0.0,0.0,0.0,-62.05133,-15.58445,-10.94349,9.74,0.6,1.14,2.0
1758076057.18357,1758076057.19118,0.0,0.0,0.0,-63.19725,-17.87628,-12.89155,9.74,0.6,1.14,2.0
1758076057.18471,1758076057.20118,0.0,0.0,0.0,-65.66096,-21.88699,-15.41257,9.78,0.18,1.09,2.0
1758076057.19947,1758076057.21118,0.0,0.0,0.0,-68.12468,-25.61122,-17.18874,9.67,0.47,0.64,2.0
1758076057.20073,1758076057.22118,0.0,0.0,0.0,-71.21866,-31.2262,-18.22006,9.67,0.47,0.64,2.0
1758076057.21584,1758076057.23118,0.0,0.0,0.0,-75.00018,-36.7266,-18.62113,9.32,0.71,0.17,2.0
1758076057.23154,1758076057.24118,0.0,0.0,0.0,-79.81302,-33.9764,-19.25138,9.32,0.71,0.17,2.0
1758076057.23301,1758076057.25118,0.0,0.0,0.0,-82.50593,-29.50733,-18.44924,10.32,0.92,0.35,2.0
1758076057.24758,1758076057.26118,0.0,0.0,0.0,-86.17285,-22.57454,-18.16276,10.32,0.92,0.35,2.0
1758076057.26355,1758076057.27118,0.0,0.0,0.0,-90.24085,-14.38124,-17.81899,10.99,1.02,0.34,2.0
1758076057.26509,1758076057.28118,0.0,0.0,0.0,-91.84514,-16.3293,-17.6471,10.89,0.95,0.67,2.0
1758076057.2806,1758076057.29118,0.0,0.0,0.0,-92.81918,-25.7831,-18.33465,10.89,0.95,0.67,2.0
1758076057.28156,1758076057.30118,0.0,0.0,0.0,-92.07432,-30.30947,-17.81899,11.17,0.94,1.36,2.0
1758076057.29679,1758076057.31118,0.0,0.0,0.0,-90.47005,-24.57989,-20.79837,11.17,0.94,1.36,2.0
1758076057.31252,1758076057.32118,0.0,0.0,0.0,-88.06361,-28.41871,-24.86637,13.92,0.22,2.04,2.0
1758076057.31369,1758076057.33118,0.0,0.0,0.0,-84.11021,-39.3622,-29.50733,13.92,0.22,2.04,2.0
1758076057.32849,1758076057.34118,0.0,0.0,0.0,-79.01089,-49.21708,-34.60666,12.79,-0.63,3.02,2.0
1758076057.32968,1758076057.35118,0.0,0.0,0.0,-69.38519,-51.90998,-40.16434,12.63,-1.6,2.3,2.0
1758076057.34576,1758076057.36118,0.0,0.0,0.0,-61.87944,-48.9306,-40.85189,12.63,-1.6,2.3,2.0
1758076057.36163,1758076057.37118,0.0,0.0,0.0,-54.48829,-46.98254,-39.82057,11.83,-2.55,1.79,2.0
1758076057.36275,1758076057.38118,0.0,0.0,0.0,-47.26902,-45.14908,-37.01308,11.83,-2.55,1.79,2.0
1758076057.37785,1758076057.39118,0.0,0.0,0.0,-38.50277,-40.62271,-31.2262,10.62,-2.29,1.69,2.0
1758076057.39354,1758076057.40118,0.0,0.0,0.0,-35.2942,-38.56006,-27.10091,10.62,-2.29,1.69,2.0
1758076057.39471,1758076057.41118,0.0,0.0,0.0,-34.72124,-38.15899,-23.66316,9.41,-0.84,1.86,2.0
1758076057.40956,1758076057.42118,0.0,0.0,0.0,-36.38282,-38.50277,-20.97026,9.41,-0.84,1.86,2.0
1758076057.4112,1758076057.43118,0.0,0.0,0.0,-43.60209,-34.66395,-19.76705,8.61,0.4,2.68,2.0
1758076057.42555,1758076057.44118,0.0,0.0,0.0,-50.82136,-31.97105,-21.25674,9.11,1.22,3.24,2.0
1758076057.44153,1758076057.45118,0.0,0.0,0.0,-58.26981,-30.53865,-22.51724,9.11,1.22,3.24,2.0
1758076057.44271,1758076057.46118,0.0,0.0,0.0,-68.86953,-24.86637,-24.17882,9.37,1.55,3.08,2.0
1758076057.45851,1758076057.47118,0.0,0.0,0.0,-79.81302,-18.50654,-29.62192,9.37,1.55,3.08,2.0
1758076057.45974,1758076057.48118,0.0,0.0,0.0,-76.89094,-20.74107,-22.28806,10.19,1.13,2.07,2.0
1758076057.47553,1758076057.49118,0.0,0.0,0.0,-77.4639,-7.33386,-19.13679,10.19,1.13,2.07,2.0
1758076057.49152,1758076057.50118,0.0,0.0,0.0,-75.63043,12.71966,-12.14671,12.28,-0.25,0.77,2.0
1758076057.49297,1758076057.51118,0.0,0.0,0.0,-72.76565,19.48057,-8.65166,11.69,-1.23,0.44,2.0
1758076057.50793,1758076057.52118,0.0,0.0,0.0,-69.61437,25.38203,-6.13065,11.69,-1.23,0.44,2.0
1758076057.52381,1758076057.53118,0.0,0.0,0.0,-65.14531,28.76248,-3.55234,10.51,-1.59,0.73,2.0
1758076057.52479,1758076057.54118,0.0,0.0,0.0,-58.84277,34.43476,-0.85944,10.51,-1.59,0.73,2.0
1758076057.53984,1758076057.55118,0.0,0.0,0.0,-54.71747,38.78925,0.68755,10.16,-1.67,0.63,2.0
1758076057.54103,1758076057.56118,0.0,0.0,0.0,-50.99325,43.65939,1.83346,10.16,-1.67,0.63,2.0
1758076057.55577,1758076057.57118,0.0,0.0,0.0,-47.32632,48.75871,3.09397,10.14,-1.65,0.67,2.0
1758076057.57154,1758076057.58118,0.0,0.0,0.0,-42.05511,55.97798,4.92744,9.96,-1.5,0.62,2.0
1758076057.57275,1758076057.59118,0.0,0.0,0.0,-38.84654,59.07195,5.95876,9.96,-1.5,0.62,2.0
1758076057.58795,1758076057.60118,0.0,0.0,0.0,-35.75257,60.16057,7.10468,9.24,-1.29,0.53,2.0
1758076057.6036,1758076057.61118,0.0,0.0,0.0,-33.46074,60.44705,7.73493,9.24,-1.29,0.53,2.0
1758076057.60471,1758076057.62118,0.0,0.0,0.0,-30.25217,59.12925,7.79223,8.72,-1.0,0.72,2.0
1758076057.61954,1758076057.63118,0.0,0.0,0.0,-28.36141,56.32175,7.73493,8.72,-1.0,0.72,2.0
1758076057.62078,1758076057.64118,0.0,0.0,0.0,-26.52795,51.5662,7.62034,8.26,-0.72,0.84,2.0
1758076057.63589,1758076057.65118,0.0,0.0,0.0,-24.17882,46.75336,7.04738,8.26,-0.72,0.84,2.0
1758076057.65177,1758076057.66118,0.0,0.0,0.0,-22.86102,41.08107,6.18794,7.94,-0.57,0.69,2.0
1758076057.65272,1758076057.67118,0.0,0.0,0.0,-21.94428,36.6693,4.81285,7.89,-0.53,0.59,2.0
1758076057.6678,1758076057.68118,0.0,0.0,0.0,-21.02755,31.85646,3.20856,7.89,-0.53,0.59,2.0
1758076057.68383,1758076057.69118,0.0,0.0,0.0,-19.99623,21.7724,-1.3751,7.78,-0.54,0.64,2.0
1758076057.685,1758076057.70118,0.0,0.0,0.0,-19.25138,17.87628,-4.35448,7.78,-0.54,0.64,2.0
1758076057.69997,1758076057.71118,0.0,0.0,0.0,-18.50654,12.204,-7.33386,8.18,-0.62,0.69,2.0
1758076057.70075,1758076057.72118,0.0,0.0,0.0,-16.95955,8.42248,-9.5684,8.18,-0.62,0.69,2.0
1758076057.71552,1758076057.73118,0.0,0.0,0.0,-14.78231,8.02141,-13.12073,8.4,-0.75,0.29,2.0
1758076057.73143,1758076057.74118,0.0,0.0,0.0,-13.23533,7.96411,-15.58445,8.98,-0.84,0.38,2.0
1758076057.73358,1758076057.75118,0.0,0.0,0.0,-11.00079,7.73493,-17.30333,8.98,-0.84,0.38,2.0
1758076057.7488,1758076057.76118,0.0,0.0,0.0,-8.02141,7.33386,-18.10547,9.42,-1.0,0.51,2.0
1758076057.74972,1758076057.77118,0.0,0.0,0.0,-1.3751,5.95876,-15.98552,9.42,-1.0,0.51,2.0
1758076057.76584,1758076057.78118,0.0,0.0,0.0,4.52637,3.66693,-12.08941,9.89,-1.37,0.53,2.0
1758076057.78161,1758076057.79118,0.0,0.0,0.0,11.22997,-0.34377,-7.16197,9.89,-1.37,0.53,2.0
1758076057.78386,1758076057.80118,0.0,0.0,0.0,17.36062,-5.90147,-2.46372,9.92,-1.78,0.36,2.0
1758076057.79883,1758076057.81118,0.0,0.0,0.0,24.63719,-13.5791,2.34913,9.79,-1.66,0.65,2.0
1758076057.79977,1758076057.82118,0.0,0.0,0.0,27.44468,-15.12609,3.95341,9.79,-1.66,0.65,2.0
1758076057.81588,1758076057.83118,0.0,0.0,0.0,28.99167,-15.92823,4.98473,10.04,-0.78,1.27,2.0
1758076057.83154,1758076057.84118,0.0,0.0,0.0,31.45539,-17.99088,7.73493,10.04,-0.78,1.27,2.0
1758076057.83278,1758076057.85118,0.0,0.0,0.0,36.38282,-21.08485,8.93814,10.21,-0.68,0.45,2.0
1758076057.84753,1758076057.86118,0.0,0.0,0.0,39.82057,-20.79837,8.70896,10.21,-0.68,0.45,2.0
1758076057.86388,1758076057.87118,0.0,0.0,0.0,44.51882,-17.36062,8.59437,10.5,-1.01,0.15,2.0
1758076057.8648,1758076057.88118,0.0,0.0,0.0,50.3057,-2.86479,7.21927,10.5,-1.01,0.15,2.0
1758076057.87983,1758076057.89118,0.0,0.0,0.0,54.08722,6.58902,6.07335,11.87,-1.49,0.62,2.0
1758076057.88121,1758076057.90118,0.0,0.0,0.0,57.63955,12.54778,3.72423,12.23,-2.04,1.0,2.0
1758076057.8956,1758076057.91118,0.0,0.0,0.0,61.36378,9.96947,3.66693,12.23,-2.04,1.0,2.0
1758076057.91157,1758076057.92118,0.0,0.0,0.0,63.42643,-12.54778,3.20856,11.13,-2.26,1.84,2.0
1758076057.9136,1758076057.93118,0.0,0.0,0.0,62.96807,-26.87172,5.72958,11.13,-2.26,1.84,2.0
1758076057.92889,1758076057.94118,0.0,0.0,0.0,60.33246,-37.47144,10.08406,11.79,-1.4,2.35,2.0
1758076057.92975,1758076057.95118,0.0,0.0,0.0,57.63955,-44.28964,16.67307,11.79,-1.4,2.35,2.0
1758076057.94584,1758076057.96118,0.0,0.0,0.0,52.13916,-50.1911,28.41871,13.27,-0.15,3.04,2.0
1758076057.9616,1758076057.97118,0.0,0.0,0.0,47.32632,-47.61279,35.06502,13.68,1.31,2.7,2.0
1758076057.9635,1758076057.98118,0.0,0.0,0.0,41.65404,-42.62806,39.70598,13.68,1.31,2.7,2.0
1758076057.97856,1758076057.99118,0.0,0.0,0.0,35.92446,-37.64333,41.59674,12.43,2.27,2.22,2.0
1758076057.97975,1758076058.00118,0.0,0.0,0.0,28.30412,-31.51268,39.99245,12.43,2.27,2.22,2.0
1758076057.99574,1758076058.01118,0.0,0.0,0.0,24.86637,-29.22085,38.38818,10.17,2.39,2.0,2.0
1758076058.0118,1758076058.02118,0.0,0.0,0.0,22.34536,-23.89234,34.26288,10.17,2.39,2.0,2.0
1758076058.01368,1758076058.03118,0.0,0.0,0.0,21.48592,-19.25138,29.27814,8.71,1.42,2.3,2.0
1758076058.02878,1758076058.04118,0.0,0.0,0.0,24.4653,-16.90226,22.23076,7.36,0.13,3.4,2.0
1758076058.02973,1758076058.05118,0.0,0.0,0.0,28.76248,-17.30333,19.07949,7.36,0.13,3.4,2.0
1758076058.04566,1758076058.06118,0.0,0.0,0.0,34.0337,-15.24068,16.67307,7.88,-0.6,4.0,2.0
1758076058.06159,1758076058.07118,0.0,0.0,0.0,41.42485,-10.65701,15.98552,7.88,-0.6,4.0,2.0
1758076058.06369,1758076058.08118,0.0,0.0,0.0,45.37826,-2.11994,16.67307,9.7,-0.74,3.79,2.0
1758076058.07843,1758076058.09118,0.0,0.0,0.0,47.49821,3.55234,17.76169,9.7,-0.74,3.79,2.0
1758076058.07966,1758076058.10118,0.0,0.0,0.0,48.07116,10.8289,18.62113,10.75,-0.24,3.14,2.0
1758076058.09583,1758076058.11118,0.0,0.0,0.0,46.06581,26.01229,18.56383,10.75,-0.24,3.14,2.0
1758076058.11154,1758076058.12118,0.0,0.0,0.0,43.20102,35.86716,18.10547,11.59,0.73,2.09,2.0
1758076058.11355,1758076058.13118,0.0,0.0,0.0,39.07573,44.00316,16.55848,11.35,1.62,1.7,2.0
1758076058.12877,1758076058.14118,0.0,0.0,0.0,34.0337,50.82136,13.86558,11.35,1.62,1.7,2.0
1758076058.12973,1758076058.15118,0.0,0.0,0.0,26.69983,56.60823,8.42248,10.39,2.03,1.74,2.0
1758076058.14558,1758076058.16118,0.0,0.0,0.0,22.63183,58.15522,4.87014,10.39,2.03,1.74,2.0
1758076058.16157,1758076058.17118,0.0,0.0,0.0,18.79302,58.72818,1.20321,9.27,1.91,1.97,2.0
1758076058.16358,1758076058.18118,0.0,0.0,0.0,15.24068,59.70221,-2.11994,9.27,1.91,1.97,2.0
1758076058.17852,1758076058.19118,0.0,0.0,0.0,11.51645,60.27517,-5.72958,8.85,1.58,2.18,2.0
1758076058.17971,1758076058.20118,0.0,0.0,0.0,9.28192,58.84277,-7.33386,8.58,1.32,2.35,2.0
1758076058.19579,1758076058.21118,0.0,0.0,0.0,6.87549,55.40502,-8.25059,8.58,1.32,2.35,2.0
1758076058.21164,1758076058.22118,0.0,0.0,0.0,4.52637,49.96192,-9.39651,8.35,1.09,2.32,2.0
1758076058.21384,1758076058.23118,0.0,0.0,0.0,0.57296,42.85724,-10.71431,8.35,1.09,2.32,2.0
1758076058.22845,1758076058.24118,0.0,0.0,0.0,-2.06265,39.01843,-11.45916,8.35,1.05,2.09,2.0
1758076058.22967,1758076058.25118,0.0,0.0,0.0,-4.69825,35.75257,-11.74564,8.35,1.05,2.09,2.0
1758076058.24562,1758076058.26118,0.0,0.0,0.0,-7.39116,32.88778,-11.34457,8.23,1.05,1.96,2.0
1758076058.26164,1758076058.27118,0.0,0.0,0.0,-10.02676,26.35606,-10.8862,7.98,0.96,1.97,2.0
1758076058.26379,1758076058.28118,0.0,0.0,0.0,-11.17268,21.31403,-10.02676,7.98,0.96,1.97,2.0
1758076058.2786,1758076058.29118,0.0,0.0,0.0,-11.86023,15.29797,-8.76626,7.95,0.73,1.94,2.0
1758076058.27975,1758076058.30118,0.0,0.0,0.0,-11.97482,6.8182,-6.07335,7.95,0.73,1.94,2.0
1758076058.29557,1758076058.31118,0.0,0.0,0.0,-11.57375,1.94806,-4.0107,8.21,0.53,1.8,2.0
1758076058.31162,1758076058.32118,0.0,0.0,0.0,-11.22997,-2.34913,-2.00535,8.21,0.53,1.8,2.0
1758076058.31277,1758076058.33118,0.0,0.0,0.0,-11.00079,-6.35983,-0.40107,8.63,0.43,1.64,2.0
1758076058.32784,1758076058.34118,0.0,0.0,0.0,-11.28727,-6.87549,1.43239,9.1,0.43,1.22,2.0
1758076058.34384,1758076058.35118,0.0,0.0,0.0,-11.11538,-5.95876,2.7502,9.1,0.45,1.22,2.0
1758076058.34477,1758076058.36118,0.0,0.0,0.0,-11.34457,-6.07335,3.72423,9.12,0.54,1.13,2.0
1758076058.35988,1758076058.37118,0.0,0.0,0.0,-11.97482,-6.53172,4.69825,9.12,0.54,1.13,2.0
1758076058.36077,1758076058.38118,0.0,0.0,0.0,-13.75099,-8.47978,6.07335,9.06,0.62,1.16,2.0
1758076058.37584,1758076058.39118,0.0,0.0,0.0,-15.92823,-9.62569,6.58902,9.06,0.62,1.16,2.0
1758076058.39183,1758076058.40118,0.0,0.0,0.0,-19.07949,-12.60507,6.13065,9.23,0.65,1.32,2.0
1758076058.39471,1758076058.41118,0.0,0.0,0.0,-22.23076,-14.83961,6.13065,9.23,0.65,1.32,2.0
1758076058.40955,1758076058.42118,0.0,0.0,0.0,-29.10626,-17.53251,3.20856,9.31,0.66,1.32,2.0
1758076058.41069,1758076058.43118,0.0,0.0,0.0,-34.43476,-19.19409,0.40107,9.4,0.9,1.42,2.0
1758076058.42549,1758076058.44118,0.0,0.0,0.0,-40.04975,-22.05888,-2.97938,9.4,0.9,1.42,2.0
1758076058.44167,1758076058.45118,0.0,0.0,0.0,-46.00851,-29.10626,-5.50039,9.2,1.43,1.16,2.0
1758076058.44276,1758076058.46118,0.0,0.0,0.0,-54.14451,-46.2377,-7.39116,9.2,1.43,1.16,2.0
1758076058.45882,1758076058.47118,0.0,0.0,0.0,-57.92604,-50.99325,-9.4538,8.9,1.37,1.06,2.0
1758076058.45973,1758076058.48118,0.0,0.0,0.0,-61.07731,-51.90998,-9.4538,8.9,1.37,1.06,2.0
1758076058.4758,1758076058.49118,0.0,0.0,0.0,-67.9528,-44.86259,-10.02676,10.22,1.07,0.67,2.0
1758076058.49173,1758076058.50118,0.0,0.0,0.0,-72.13539,-37.47144,-9.96947,11.19,0.85,0.61,2.0
1758076058.49356,1758076058.51118,0.0,0.0,0.0,-75.85962,-26.81443,-9.33921,11.19,0.85,0.61,2.0
1758076058.50878,1758076058.52118,0.0,0.0,0.0,-78.839,-15.92823,-8.99544,11.71,0.67,0.39,2.0
1758076058.50973,1758076058.53118,0.0,0.0,0.0,-82.33404,-20.62648,-9.4538,11.71,0.67,0.39,2.0
1758076058.52561,1758076058.54118,0.0,0.0,0.0,-83.25077,-26.81443,-11.63104,10.46,0.56,0.59,2.0
1758076058.54158,1758076058.55118,0.0,0.0,0.0,-82.62051,-30.76784,-14.15206,10.46,0.56,0.59,2.0
1758076058.54351,1758076058.56118,0.0,0.0,0.0,-81.24542,-32.54401,-17.87628,10.93,0.45,0.85,2.0
1758076058.5584,1758076058.57118,0.0,0.0,0.0,-76.54716,-28.36141,-23.54857,12.43,-0.11,1.62,2.0
1758076058.55965,1758076058.58118,0.0,0.0,0.0,-71.27596,-29.73651,-28.07493,12.43,-0.11,1.62,2.0
1758076058.57579,1758076058.59118,0.0,0.0,0.0,-64.80153,-33.86181,-33.34615,12.76,-0.98,3.05,2.0
1758076058.59176,1758076058.60118,0.0,0.0,0.0,-57.81144,-35.69527,-38.38818,12.76,-0.98,3.05,2.0
1758076058.59366,1758076058.61118,0.0,0.0,0.0,-45.89392,-33.74722,-42.34158,12.85,-1.86,2.77,2.0
1758076058.60858,1758076058.62118,0.0,0.0,0.0,-38.27358,-33.63263,-42.74266,12.85,-1.86,2.77,2.0
1758076058.60975,1758076058.63118,0.0,0.0,0.0,-31.39809,-33.74722,-41.25296,11.43,-2.45,2.39,2.0
1758076058.62556,1758076058.64118,0.0,0.0,0.0,-25.43933,-34.49206,-37.35685,11.43,-2.45,2.39,2.0
1758076058.64159,1758076058.65118,0.0,0.0,0.0,-19.13679,-37.35685,-29.8511,9.46,-1.89,2.19,2.0
1758076058.64383,1758076058.66118,0.0,0.0,0.0,-17.58981,-38.61736,-26.12688,8.59,-0.67,2.5,2.0
1758076058.65857,1758076058.67118,0.0,0.0,0.0,-18.27736,-37.81522,-22.97561,8.59,-0.67,2.5,2.0
1758076058.65975,1758076058.68118,0.0,0.0,0.0,-24.23611,-36.38282,-19.53786,8.95,0.54,3.23,2.0
1758076058.67541,1758076058.69118,0.0,0.0,0.0,-31.39809,-35.06502,-19.19409,8.95,0.54,3.23,2.0
1758076058.6918,1758076058.70118,0.0,0.0,0.0,-39.70598,-34.66395,-20.16812,9.51,1.56,3.75,2.0
1758076058.69272,1758076058.71118,0.0,0.0,0.0,-48.52953,-32.88778,-20.79837,9.51,1.56,3.75,2.0
1758076058.7079,1758076058.72118,0.0,0.0,0.0,-61.30648,-27.73116,-22.57454,10.41,2.05,3.59,2.0
1758076058.72379,1758076058.73118,0.0,0.0,0.0,-69.84356,-20.62648,-23.26209,11.24,1.68,2.92,2.0
1758076058.72474,1758076058.74118,0.0,0.0,0.0,-74.25533,-14.32395,-21.94428,11.24,1.68,2.92,2.0
1758076058.73986,1758076058.75118,0.0,0.0,0.0,-76.77635,-8.76626,-20.62648,11.38,0.55,1.82,2.0
1758076058.74176,1758076058.76118,0.0,0.0,0.0,-76.26069,4.58366,-17.18874,11.38,0.55,1.82,2.0
1758076058.75676,1758076058.77118,0.0,0.0,0.0,-74.02615,13.5791,-13.80828,11.83,-0.75,1.03,2.0
1758076058.77249,1758076058.78118,0.0,0.0,0.0,-70.76029,21.7151,-9.91217,11.83,-0.75,1.03,2.0
1758076058.77371,1758076058.79118,0.0,0.0,0.0,-66.40582,28.76248,-5.95876,11.32,-1.6,1.07,2.0
1758076058.78841,1758076058.80118,0.0,0.0,0.0,-58.3844,37.52874,0.0573,10.65,-2.03,0.96,2.0
1758076058.79045,1758076058.81118,0.0,0.0,0.0,-52.42564,42.91454,3.32316,10.65,-2.03,0.96,2.0
1758076058.80653,1758076058.82118,0.0,0.0,0.0,-46.35228,48.07116,5.90147,10.26,-2.19,0.9,2.0
1758076058.82254,1758076058.83118,0.0,0.0,0.0,-40.7373,54.08722,8.0787,10.26,-2.19,0.9,2.0
1758076058.82451,1758076058.84118,0.0,0.0,0.0,-33.23156,57.58226,9.74028,9.87,-2.04,0.99,2.0
1758076058.83958,1758076058.85118,0.0,0.0,0.0,-29.22085,57.92604,9.96947,9.87,-2.04,0.99,2.0
1758076058.84078,1758076058.86118,0.0,0.0,0.0,-25.7831,58.09792,9.68299,9.08,-1.63,1.09,2.0
1758076058.85579,1758076058.87118,0.0,0.0,0.0,-22.63183,57.41038,8.25059,9.08,-1.63,1.09,2.0
1758076058.87262,1758076058.88118,0.0,0.0,0.0,-18.50654,53.91533,7.21927,8.68,-1.24,1.18,2.0
1758076058.87355,1758076058.89118,0.0,0.0,0.0,-16.04282,49.90463,6.18794,8.31,-0.93,1.35,2.0
1758076058.88881,1758076058.90118,0.0,0.0,0.0,-13.75099,45.43555,5.32851,8.31,-0.93,1.35,2.0
1758076058.88968,1758076058.91118,0.0,0.0,0.0,-10.19865,40.16434,4.81285,8.31,-0.82,1.2,2.0
1758076058.90561,1758076058.92118,0.0,0.0,0.0,-7.79223,38.15899,4.52637,8.31,-0.82,1.2,2.0
1758076058.92154,1758076058.93118,0.0,0.0,0.0,-5.21392,34.89313,4.52637,8.49,-0.89,1.17,2.0
1758076058.92345,1758076058.94118,0.0,0.0,0.0,-2.63561,30.36677,4.52637,8.49,-0.89,1.17,2.0
1758076058.93882,1758076058.95118,0.0,0.0,0.0,0.97403,23.20479,3.32316,8.24,-1.02,1.12,2.0
1758076058.93974,1758076058.96118,0.0,0.0,0.0,3.26586,18.56383,1.83346,8.16,-1.1,0.99,2.0
1758076058.95577,1758076058.97118,0.0,0.0,0.0,5.84417,13.98017,0.11459,8.16,-1.1,0.99,2.0
1758076058.97153,1758076058.98118,0.0,0.0,0.0,8.70896,9.22462,-1.3751,8.14,-1.14,0.81,2.0
1758076058.97273,1758076058.99118,0.0,0.0,0.0,13.86558,6.47442,-4.23989,8.14,-1.14,0.81,2.0
1758076058.98753,1758076059.00118,0.0,0.0,0.0,17.6471,8.42248,-5.95876,8.66,-1.21,0.54,2.0
1758076059.00385,1758076059.01118,0.0,0.0,0.0,21.88699,11.11538,-7.21927,8.66,-1.21,0.54,2.0
1758076059.00469,1758076059.02118,0.0,0.0,0.0,26.69983,12.83425,-7.39116,9.2,-1.33,0.54,2.0
1758076059.01978,1758076059.03118,0.0,0.0,0.0,35.3515,10.71431,-4.92744,9.08,-1.55,0.49,2.0
1758076059.02102,1758076059.04118,0.0,0.0,0.0,41.71133,5.61499,-2.23454,9.08,-1.55,0.49,2.0
1758076059.03558,1758076059.05118,0.0,0.0,0.0,47.72739,-0.11459,0.40107,8.82,-1.77,0.06,2.0
1758076059.05159,1758076059.06118,0.0,0.0,0.0,53.34238,-7.16197,2.92208,8.82,-1.77,0.06,2.0
1758076059.05271,1758076059.07118,0.0,0.0,0.0,61.07731,-17.01685,6.53172,9.04,-1.76,0.12,2.0
1758076059.06784,1758076059.08118,0.0,0.0,0.0,65.43179,-22.68913,8.76626,9.04,-1.76,0.12,2.0
1758076059.08376,1758076059.09118,0.0,0.0,0.0,68.98412,-31.74186,10.48513,9.49,-1.5,0.17,2.0
1758076059.08475,1758076059.10118,0.0,0.0,0.0,72.53646,-42.91454,10.71431,9.49,-1.5,0.17,2.0
1758076059.09988,1758076059.11118,0.0,0.0,0.0,75.28666,-43.20102,10.25595,9.33,-1.01,0.08,2.0
1758076059.10073,1758076059.12118,0.0,0.0,0.0,77.92226,-32.14294,9.22462,10.78,-0.76,0.09,2.0
1758076059.11551,1758076059.13118,0.0,0.0,0.0,81.24542,-17.87628,10.48513,10.78,-0.76,0.09,2.0
1758076059.13177,1758076059.14118,0.0,0.0,0.0,84.1675,3.09397,9.05273,11.74,-0.8,0.85,2.0
1758076059.13268,1758076059.15118,0.0,0.0,0.0,84.39669,8.93814,8.30789,11.74,-0.8,0.85,2.0
1758076059.14777,1758076059.16118,0.0,0.0,0.0,86.91771,-0.11459,7.67763,10.76,-0.9,1.69,2.0
1758076059.16355,1758076059.17118,0.0,0.0,0.0,87.37608,-25.09555,7.84952,10.76,-0.9,1.69,2.0
1758076059.16473,1758076059.18118,0.0,0.0,0.0,83.30807,-53.05589,9.96947,9.07,-0.66,2.08,2.0
1758076059.17984,1758076059.19118,0.0,0.0,0.0,80.32869,-60.38975,15.29797,12.12,0.54,3.38,2.0
1758076059.18074,1758076059.20118,0.0,0.0,0.0,75.57314,-56.66553,17.24603,12.12,0.54,3.38,2.0
1758076059.19573,1758076059.21118,0.0,0.0,0.0,71.90621,-55.40502,21.31403,14.25,1.74,3.31,2.0
1758076059.21152,1758076059.22118,0.0,0.0,0.0,67.60902,-46.1231,27.96034,14.25,1.74,3.31,2.0
1758076059.21358,1758076059.23118,0.0,0.0,0.0,64.45775,-37.24226,31.85646,14.48,2.12,2.43,2.0
1758076059.22869,1758076059.24118,0.0,0.0,0.0,60.79083,-29.73651,35.00772,14.48,2.12,2.43,2.0
1758076059.22962,1758076059.25118,0.0,0.0,0.0,56.78012,-21.37133,35.98175,13.3,1.9,2.28,2.0
1758076059.24555,1758076059.26118,0.0,0.0,0.0,50.87865,-8.136,32.54401,11.27,1.16,1.86,2.0
1758076059.26157,1758076059.27118,0.0,0.0,0.0,48.30034,-5.32851,28.36141,11.27,1.16,1.86,2.0
1758076059.26385,1758076059.28118,0.0,0.0,0.0,48.07116,-6.8182,24.75178,9.03,0.41,2.53,2.0
1758076059.27896,1758076059.29118,0.0,0.0,0.0,49.67545,-5.72958,19.88164,9.03,0.41,2.53,2.0
1758076059.28013,1758076059.30118,0.0,0.0,0.0,55.6915,-6.47442,19.59516,8.94,-0.1,2.92,2.0
1758076059.2958,1758076059.31118,0.0,0.0,0.0,60.67623,-6.53172,20.79837,8.94,-0.1,2.92,2.0
1758076059.31155,1758076059.32118,0.0,0.0,0.0,66.06203,-5.21392,23.0902,9.39,-0.17,3.27,2.0
1758076059.31275,1758076059.33118,0.0,0.0,0.0,73.51049,-2.23454,28.36141,9.39,-0.17,3.27,2.0
1758076059.32782,1758076059.34118,0.0,0.0,0.0,77.4639,1.94806,31.85646,9.72,0.07,3.2,2.0
1758076059.34382,1758076059.35118,0.0,0.0,0.0,79.69843,7.10468,33.80451,9.94,0.66,2.83,2.0
1758076059.34488,1758076059.36118,0.0,0.0,0.0,80.55787,11.91752,34.26288,9.94,0.66,2.83,2.0
1758076059.35981,1758076059.37118,0.0,0.0,0.0,78.7244,19.70975,31.85646,9.97,1.5,2.24,2.0
1758076059.361,1758076059.38118,0.0,0.0,0.0,76.31798,24.98096,28.36141,9.97,1.5,2.24,2.0
1758076059.37585,1758076059.39118,0.0,0.0,0.0,72.88023,30.36677,23.49127,10.1,2.1,1.76,2.0
1758076059.39176,1758076059.40118,0.0,0.0,0.0,69.55708,34.26288,17.87628,10.1,2.1,1.76,2.0
1758076059.39274,1758076059.41118,0.0,0.0,0.0,63.94209,39.01843,9.05273,9.85,2.29,1.61,2.0
1758076059.40766,1758076059.42118,0.0,0.0,0.0,60.10328,42.34158,3.66693,9.75,2.2,1.77,2.0
1758076059.42353,1758076059.43118,0.0,0.0,0.0,56.20716,44.28964,-0.68755,9.75,2.2,1.77,2.0
1758076059.42555,1758076059.44118,0.0,0.0,0.0,52.9986,44.46153,-3.60963,9.49,1.96,1.81,2.0
1758076059.44074,1758076059.45118,0.0,0.0,0.0,49.04519,43.54479,-4.69825,9.49,1.96,1.81,2.0
1758076059.44169,1758076059.46118,0.0,0.0,0.0,47.03984,42.39888,-3.89611,9.33,1.6,1.74,2.0
1758076059.45782,1758076059.47118,0.0,0.0,0.0,45.49285,41.13837,-2.11994,9.33,1.6,1.74,2.0
1758076059.4738,1758076059.48118,0.0,0.0,0.0,44.17505,37.98711,0.45837,9.14,1.19,1.58,2.0
1758076059.475,1758076059.49118,0.0,0.0,0.0,42.39888,30.30947,3.83882,8.62,0.89,1.4,2.0
1758076059.48982,1758076059.50118,0.0,0.0,0.0,40.96649,26.87172,5.61499,8.62,0.89,1.4,2.0
1758076059.49069,1758076059.51118,0.0,0.0,0.0,39.4768,25.49662,6.70361,8.86,0.81,1.22,2.0
1758076059.50576,1758076059.52118,0.0,0.0,0.0,36.7266,25.21014,6.87549,8.86,0.81,1.22,2.0
1758076059.52165,1758076059.53118,0.0,0.0,0.0,34.89313,25.61122,6.47442,9.09,1.01,1.29,2.0
1758076059.5235,1758076059.54118,0.0,0.0,0.0,32.77319,25.89769,5.95876,9.09,1.01,1.29,2.0
1758076059.5388,1758076059.55118,0.0,0.0,0.0,30.53865,25.49662,5.78687,9.19,1.29,1.42,2.0
1758076059.5397,1758076059.56118,0.0,0.0,0.0,27.1582,23.72045,5.84417,9.19,1.29,1.33,2.0
1758076059.55552,1758076059.57118,0.0,0.0,0.0,24.80907,21.37133,6.47442,9.12,1.47,1.33,2.0
1758076059.57153,1758076059.58118,0.0,0.0,0.0,22.86102,18.85031,7.79223,9.05,1.48,1.16,2.0
1758076059.57354,1758076059.59118,0.0,0.0,0.0,20.34,17.36062,8.93814,9.05,1.48,1.16,2.0
1758076059.58877,1758076059.60118,0.0,0.0,0.0,16.73037,14.49583,10.37054,9.19,1.41,1.13,2.0
1758076059.58966,1758076059.61118,0.0,0.0,0.0,14.15206,13.98017,10.94349,9.19,1.41,1.13,2.0
1758076059.6055,1758076059.62118,0.0,0.0,0.0,11.80293,15.0115,11.63104,9.3,1.39,0.84,2.0
1758076059.62156,1758076059.63118,0.0,0.0,0.0,9.28192,16.3293,12.2613,9.3,1.39,0.84,2.0
1758076059.62351,1758076059.64118,0.0,0.0,0.0,4.58366,16.50119,12.37589,9.45,1.36,1.0,2.0
1758076059.63853,1758076059.65118,0.0,0.0,0.0,0.97403,11.51645,11.17268,9.08,1.37,1.14,2.0
1758076059.63969,1758076059.66118,0.0,0.0,0.0,-2.97938,3.72423,9.74028,9.08,1.37,1.14,2.0
1758076059.65578,1758076059.67118,0.0,0.0,0.0,-8.59437,-2.40642,7.16197,8.64,1.49,0.85,2.0
1758076059.67177,1758076059.68118,0.0,0.0,0.0,-17.24603,-11.11538,3.49504,8.64,1.49,0.85,2.0
1758076059.67356,1758076059.69118,0.0,0.0,0.0,-23.37668,-15.41257,0.51566,8.84,1.74,0.87,2.0
1758076059.68853,1758076059.70118,0.0,0.0,0.0,-29.50733,-20.74107,-2.06265,8.84,1.74,0.87,2.0
1758076059.68994,1758076059.71118,0.0,0.0,0.0,-37.12767,-30.53865,-5.15662,8.82,2.03,1.01,2.0
1758076059.7055,1758076059.72118,0.0,0.0,0.0,-40.68,-51.27972,-6.53172,8.11,1.85,0.99,2.0
1758076059.72177,1758076059.73118,0.0,0.0,0.0,-43.77398,-63.42643,-7.62034,8.11,1.85,0.99,2.0
1758076059.72295,1758076059.74118,0.0,0.0,0.0,-45.03448,-71.67702,-8.59437,8.72,1.47,0.56,2.0
1758076059.73853,1758076059.75118,0.0,0.0,0.0,-47.67009,-67.37984,-8.99544,8.72,1.47,0.56,2.0
1758076059.73969,1758076059.76118,0.0,0.0,0.0,-48.9879,-39.76327,-9.85487,11.02,1.32,0.83,2.0
1758076059.75543,1758076059.77118,0.0,0.0,0.0,-50.76406,-11.86023,-8.25059,11.02,1.32,0.83,2.0
1758076059.7718,1758076059.78118,0.0,0.0,0.0,-51.45161,-21.14215,-9.05273,12.36,1.19,1.08,2.0
1758076059.77273,1758076059.79118,0.0,0.0,0.0,-54.08722,-43.60209,-13.12073,8.35,1.19,1.38,2.0
1758076059.78779,1758076059.80118,0.0,0.0,0.0,-55.57691,-43.83128,-14.9542,8.35,1.58,1.38,2.0
1758076059.8039,1758076059.81118,0.0,0.0,0.0,-56.37905,-37.58603,-17.81899,11.0,1.79,0.66,2.0
1758076059.8047,1758076059.82118,0.0,0.0,0.0,-55.86338,-28.01764,-18.62113,11.0,1.79,0.66,2.0
1758076059.81955,1758076059.83118,0.0,0.0,0.0,-52.884,-17.47521,-19.25138,11.87,1.43,1.74,2.0
1758076059.821,1758076059.84118,0.0,0.0,0.0,-49.67545,-15.41257,-18.9649,11.87,1.43,1.74,2.0
1758076059.83554,1758076059.85118,0.0,0.0,0.0,-45.72203,-15.64175,-19.36597,11.77,0.55,2.54,2.0
1758076059.85179,1758076059.86118,0.0,0.0,0.0,-41.48215,-15.64175,-20.05352,11.77,0.55,2.54,2.0
1758076059.85356,1758076059.87118,0.0,0.0,0.0,-35.63798,-15.46986,-20.3973,11.98,-0.14,2.52,2.0
1758076059.86849,1758076059.88118,0.0,0.0,0.0,-30.93972,-14.61043,-19.53786,12.28,-0.74,2.39,2.0
1758076059.86969,1758076059.89118,0.0,0.0,0.0,-25.7831,-15.0115,-17.47521,12.28,-0.74,2.39,2.0
1758076059.88548,1758076059.90118,0.0,0.0,0.0,-21.02755,-16.61578,-12.204,11.65,-0.99,2.13,2.0
1758076059.90176,1758076059.91118,0.0,0.0,0.0,-15.41257,-19.59516,-7.84952,11.65,-0.99,2.13,2.0
1758076059.90315,1758076059.92118,0.0,0.0,0.0,-13.34992,-22.00158,-3.38045,10.09,-0.49,1.35,2.0
1758076059.91779,1758076059.93118,0.0,0.0,0.0,-12.83425,-23.66316,0.68755,10.09,-0.49,1.35,2.0
1758076059.93377,1758076059.94118,0.0,0.0,0.0,-15.24068,-25.15285,4.23989,9.01,0.3,1.18,2.0
1758076059.93472,1758076059.95118,0.0,0.0,0.0,-18.79302,-26.35606,4.35448,8.8,1.1,1.55,2.0
1758076059.94954,1758076059.96118,0.0,0.0,0.0,-23.26209,-28.76248,2.6929,8.8,1.1,1.55,2.0
1758076059.95074,1758076059.97118,0.0,0.0,0.0,-28.24682,-31.56997,-0.74485,8.83,1.66,2.22,2.0
1758076059.96575,1758076059.98118,0.0,0.0,0.0,-36.6693,-34.49206,-8.70896,8.83,1.66,2.22,2.0
1758076059.98181,1758076059.99118,0.0,0.0,0.0,-42.34158,-35.2942,-14.49583,9.08,1.72,2.67,2.0
1758076059.98274,1758076060.00118,0.0,0.0,0.0,-47.89928,-35.98175,-20.16812,9.08,1.72,2.67,2.0
1758076059.9978,1758076060.01118,0.0,0.0,0.0,-52.884,-36.38282,-24.92367,9.11,1.26,2.67,2.0
1758076060.0135,1758076060.02118,0.0,0.0,0.0,-58.90006,-34.60666,-29.27814,9.56,0.36,2.42,2.0
1758076060.0147,1758076060.03118,0.0,0.0,0.0,-61.30648,-31.2262,-30.30947,9.56,0.36,2.42,2.0
1758076060.02957,1758076060.04118,0.0,0.0,0.0,-62.62429,-26.24147,-29.62192,10.67,-0.7,1.86,2.0
1758076060.03076,1758076060.05118,0.0,0.0,0.0,-62.39511,-20.74107,-27.33009,10.67,-0.7,1.86,2.0
1758076060.04543,1758076060.06118,0.0,0.0,0.0,-60.04598,-11.34457,-21.7151,11.35,-1.58,1.29,2.0
1758076060.06156,1758076060.07118,0.0,0.0,0.0,-56.78012,-3.83882,-17.13144,11.35,-1.58,1.29,2.0
1758076060.06304,1758076060.08118,0.0,0.0,0.0,-52.08187,3.66693,-11.91752,11.67,-1.99,0.86,2.0
1758076060.07784,1758076060.09118,0.0,0.0,0.0,-45.89392,10.19865,-6.47442,11.67,-1.99,0.86,2.0
1758076060.09385,1758076060.10118,0.0,0.0,0.0,-35.40879,19.76705,1.60428,11.53,-2.06,0.73,2.0
1758076060.09478,1758076060.11118,0.0,0.0,0.0,-28.07493,26.24147,6.18794,11.23,-2.08,0.46,2.0
1758076060.10987,1758076060.12118,0.0,0.0,0.0,-21.02755,32.08564,10.19865,11.23,-2.08,0.46,2.0
1758076060.11102,1758076060.13118,0.0,0.0,0.0,-12.2613,36.26823,14.03747,10.52,-1.99,0.54,2.0
1758076060.12583,1758076060.14118,0.0,0.0,0.0,-7.62034,38.50277,15.0115,10.52,-1.99,0.54,2.0
1758076060.14186,1758076060.15118,0.0,0.0,0.0,-3.72423,40.96649,14.83961,9.91,-1.67,0.64,2.0
1758076060.14384,1758076060.16118,0.0,0.0,0.0,-0.74485,42.05511,13.80828,9.91,-1.67,0.64,2.0
1758076060.15881,1758076060.17118,0.0,0.0,0.0,2.86479,39.4768,11.34457,9.37,-1.27,0.77,2.0
1758076060.15973,1758076060.18118,0.0,0.0,0.0,4.98473,35.63798,9.62569,8.75,-0.93,0.95,2.0
1758076060.17556,1758076060.19118,0.0,0.0,0.0,6.87549,31.79916,8.02141,8.75,-0.93,0.95,2.0
1758076060.19149,1758076060.20118,0.0,0.0,0.0,8.59437,29.33544,6.8182,8.72,-0.71,0.9,2.0
1758076060.19348,1758076060.21118,0.0,0.0,0.0,11.17268,27.73116,5.61499,8.72,-0.71,0.9,2.0
1758076060.20876,1758076060.22118,0.0,0.0,0.0,13.06344,27.04361,5.27121,8.86,-0.63,0.99,2.0
1758076060.20967,1758076060.23118,0.0,0.0,0.0,15.12609,26.52795,5.09932,8.86,-0.63,0.99,2.0
1758076060.22579,1758076060.24118,0.0,0.0,0.0,17.24603,25.43933,4.64096,8.86,-0.66,0.96,2.0
1758076060.24177,1758076060.25118,0.0,0.0,0.0,20.51189,23.37668,4.0107,8.81,-0.74,0.83,2.0
1758076060.24272,1758076060.26118,0.0,0.0,0.0,22.74642,21.08485,3.38045,8.81,-0.74,0.83,2.0
1758076060.25848,1758076060.27118,0.0,0.0,0.0,25.09555,17.93358,2.57831,8.72,-0.88,0.6,2.0
1758076060.25969,1758076060.28118,0.0,0.0,0.0,27.33009,14.32395,1.43239,8.72,-0.88,0.6,2.0
1758076060.27576,1758076060.29118,0.0,0.0,0.0,31.51268,13.75099,-0.11459,8.92,-1.01,0.44,2.0
1758076060.2918,1758076060.30118,0.0,0.0,0.0,34.89313,17.6471,-0.74485,8.92,-1.01,0.44,2.0
1758076060.29272,1758076060.31118,0.0,0.0,0.0,38.44547,19.99623,-0.80214,9.73,-1.14,0.33,2.0
1758076060.30747,1758076060.32118,0.0,0.0,0.0,44.57612,17.99088,-0.22918,9.73,-1.14,0.33,2.0
1758076060.32343,1758076060.33118,0.0,0.0,0.0,48.75871,11.51645,0.57296,9.47,-1.17,0.36,2.0
1758076060.32468,1758076060.34118,0.0,0.0,0.0,53.17049,6.87549,1.94806,9.58,-1.14,0.17,2.0
1758076060.33972,1758076060.35118,0.0,0.0,0.0,57.52497,2.29183,3.60963,9.58,-1.14,0.17,2.0
1758076060.3407,1758076060.36118,0.0,0.0,0.0,64.11398,-5.4431,6.13065,9.74,-1.09,0.05,2.0
1758076060.3555,1758076060.37118,0.0,0.0,0.0,68.29657,-11.17268,7.73493,9.74,-1.09,0.05,2.0
1758076060.37178,1758076060.38118,0.0,0.0,0.0,71.84892,-18.44924,9.4538,9.7,-0.9,0.35,2.0
1758076060.37296,1758076060.39118,0.0,0.0,0.0,74.36993,-28.76248,10.48513,9.7,-0.9,0.35,2.0
1758076060.38759,1758076060.40118,0.0,0.0,0.0,76.77635,-38.38818,12.14671,9.32,-0.53,0.41,2.0
1758076060.40372,1758076060.41118,0.0,0.0,0.0,79.01089,-36.49741,11.86023,9.96,-0.24,0.3,2.0
1758076060.40473,1758076060.42118,0.0,0.0,0.0,81.5892,-19.19409,12.71966,9.96,-0.24,0.3,2.0
1758076060.41979,1758076060.43118,0.0,0.0,0.0,84.79775,5.72958,12.83425,12.59,-0.4,0.71,2.0
1758076060.42097,1758076060.44118,0.0,0.0,0.0,90.18356,18.44924,13.98017,12.59,-0.4,0.71,2.0
1758076060.43551,1758076060.45118,0.0,0.0,0.0,93.44942,-3.32316,14.15206,10.1,-0.9,1.04,2.0
1758076060.4518,1758076060.46118,0.0,0.0,0.0,98.54874,-31.2262,16.21471,10.1,-0.9,1.04,2.0
1758076060.45271,1758076060.47118,0.0,0.0,0.0,103.47618,-52.54023,21.31403,7.35,-1.45,-0.04,2.0
1758076060.46755,1758076060.48118,0.0,0.0,0.0,109.66413,-48.64412,29.04896,11.3,-1.89,-0.27,2.0
1758076060.4837,1758076060.49118,0.0,0.0,0.0,112.41433,-34.66395,31.16891,11.3,-1.89,-0.27,2.0
1758076060.48507,1758076060.50118,0.0,0.0,0.0,114.53426,-23.26209,32.42941,12.34,-1.58,-0.03,2.0
1758076060.49954,1758076060.51118,0.0,0.0,0.0,115.3364,-16.04282,31.11161,12.34,-1.58,-0.03,2.0
1758076060.50072,1758076060.52118,0.0,0.0,0.0,113.73213,-8.59437,27.73116,11.91,-0.84,1.16,2.0
1758076060.51574,1758076060.53118,0.0,0.0,0.0,110.81004,-6.87549,25.72581,11.91,-0.84,1.16,2.0
1758076060.53185,1758076060.54118,0.0,0.0,0.0,107.02851,-8.0787,24.75178,11.81,0.35,1.14,2.0
1758076060.53277,1758076060.55118,0.0,0.0,0.0,100.6114,-6.58902,24.63719,11.81,0.35,1.14,2.0
1758076060.54757,1758076060.56118,0.0,0.0,0.0,95.56937,-5.78687,25.26744,12.12,1.49,1.36,2.0
1758076060.56385,1758076060.57118,0.0,0.0,0.0,89.78249,-5.61499,27.04361,12.42,2.15,1.8,2.0
1758076060.56475,1758076060.58118,0.0,0.0,0.0,83.53725,-4.35448,28.76248,12.42,2.15,1.8,2.0
1758076060.57976,1758076060.59118,0.0,0.0,0.0,75.05748,-0.97403,30.19488,12.36,2.2,1.32,2.0
1758076060.58102,1758076060.60118,0.0,0.0,0.0,70.47381,2.46372,28.476,12.36,2.2,1.32,2.0
1758076060.59563,1758076060.61118,0.0,0.0,0.0,66.5204,5.55769,24.63719,10.96,1.26,0.73,2.0
1758076060.61189,1758076060.62118,0.0,0.0,0.0,63.59832,8.59437,19.25138,10.96,1.26,0.73,2.0
1758076060.61301,1758076060.63118,0.0,0.0,0.0,60.50434,11.57375,9.68299,9.42,0.03,0.69,2.0
1758076060.62746,1758076060.64118,0.0,0.0,0.0,59.75951,10.65701,3.95341,8.56,-0.63,0.97,2.0
1758076060.64372,1758076060.65118,0.0,0.0,0.0,60.16057,10.31324,-0.0573,8.56,-0.63,0.97,2.0
1758076060.64474,1758076060.66118,0.0,0.0,0.0,61.1346,9.96947,-2.00535,8.76,-0.75,1.47,2.0
1758076060.65989,1758076060.67118,0.0,0.0,0.0,63.59832,8.25059,-1.66158,8.76,-0.75,1.47,2.0
1758076060.66074,1758076060.68118,0.0,0.0,0.0,65.37449,6.87549,1.03132,9.12,-0.45,2.15,2.0
1758076060.67554,1758076060.69118,0.0,0.0,0.0,67.15066,5.27121,4.92744,9.12,-0.45,2.15,2.0
1758076060.69181,1758076060.70118,0.0,0.0,0.0,69.3279,3.95341,10.25595,9.54,-0.05,2.71,2.0
1758076060.69274,1758076060.71118,0.0,0.0,0.0,72.88023,2.63561,18.50654,9.68,0.3,2.73,2.0
1758076060.70778,1758076060.72118,0.0,0.0,0.0,75.51585,2.46372,23.60586,9.68,0.3,2.73,2.0
1758076060.72376,1758076060.73118,0.0,0.0,0.0,78.20874,3.38045,27.50197,9.52,0.53,2.47,2.0
1758076060.72471,1758076060.74118,0.0,0.0,0.0,81.30271,5.72958,31.11161,9.52,0.53,2.47,2.0
1758076060.73981,1758076060.75118,0.0,0.0,0.0,82.62051,12.204,31.51268,9.6,0.75,2.19,2.0
1758076060.74077,1758076060.76118,0.0,0.0,0.0,83.25077,17.13144,30.53865,9.6,0.75,2.19,2.0
1758076060.75581,1758076060.77118,0.0,0.0,0.0,82.67782,22.57454,27.50197,10.01,1.11,1.87,2.0
1758076060.77154,1758076060.78118,0.0,0.0,0.0,79.98491,31.91375,21.14215,10.01,1.11,1.87,2.0
1758076060.77297,1758076060.79118,0.0,0.0,0.0,77.4066,38.21629,16.04282,10.66,1.53,1.44,2.0
1758076060.78789,1758076060.80118,0.0,0.0,0.0,74.08345,42.97184,10.48513,10.92,1.83,1.12,2.0
1758076060.80356,1758076060.81118,0.0,0.0,0.0,70.58841,44.11775,6.07335,10.92,1.83,1.12,2.0
1758076060.80476,1758076060.82118,0.0,0.0,0.0,65.37449,43.83128,1.08862,10.42,1.84,1.01,2.0
1758076060.81981,1758076060.83118,0.0,0.0,0.0,62.05133,44.40423,-0.74485,10.42,1.84,1.01,2.0
1758076060.82099,1758076060.84118,0.0,0.0,0.0,58.90006,44.40423,-1.48969,10.23,1.6,1.04,2.0
1758076060.83579,1758076060.85118,0.0,0.0,0.0,56.32175,42.91454,-1.3751,10.23,1.6,1.04,2.0
1758076060.85157,1758076060.86118,0.0,0.0,0.0,53.28508,36.55471,-0.45837,9.72,1.3,1.2,2.0
1758076060.8531,1758076060.87118,0.0,0.0,0.0,51.5662,30.53865,-0.0573,9.09,1.02,1.4,2.0
1758076060.86785,1758076060.88118,0.0,0.0,0.0,49.79003,25.61122,0.17189,9.09,1.02,1.4,2.0
1758076060.88379,1758076060.89118,0.0,0.0,0.0,48.07116,22.74642,-0.0573,8.96,0.94,1.28,2.0
1758076060.88474,1758076060.90118,0.0,0.0,0.0,44.86259,20.97026,-1.20321,8.96,0.94,1.28,2.0
1758076060.8996,1758076060.91118,0.0,0.0,0.0,42.39888,20.51189,-2.40642,8.96,1.1,1.28,2.0
1758076060.90073,1758076060.92118,0.0,0.0,0.0,39.82057,21.14215,-3.38045,8.96,1.1,1.28,2.0
1758076060.91579,1758076060.93118,0.0,0.0,0.0,36.95578,21.6578,-4.52637,9.1,1.35,1.4,2.0
1758076060.93187,1758076060.94118,0.0,0.0,0.0,32.83048,20.68378,-4.64096,9.08,1.52,1.4,2.0
1758076060.9327,1758076060.95118,0.0,0.0,0.0,30.30947,19.59516,-3.55234,9.08,1.52,1.4,2.0
1758076060.94785,1758076060.96118,0.0,0.0,0.0,27.50197,18.9649,-2.06265,9.18,1.5,1.33,2.0
1758076060.96386,1758076060.97118,0.0,0.0,0.0,23.66316,19.48057,0.68755,9.18,1.5,1.33,2.0
1758076060.9647,1758076060.98118,0.0,0.0,0.0,21.08485,18.79302,2.57831,9.26,1.38,1.26,2.0
1758076060.97987,1758076060.99118,0.0,0.0,0.0,18.85031,16.95955,4.1253,9.26,1.38,1.26,2.0
1758076060.98111,1758076061.00118,0.0,0.0,0.0,16.21471,17.13144,5.4431,9.12,1.3,1.17,2.0
1758076060.99562,1758076061.01118,0.0,0.0,0.0,11.86023,17.81899,6.41713,9.12,1.3,1.06,2.0
1758076061.01171,1758076061.02118,0.0,0.0,0.0,8.65166,13.98017,6.18794,9.32,1.34,1.06,2.0
1758076061.0136,1758076061.03118,0.0,0.0,0.0,5.50039,5.72958,6.70361,8.73,1.52,0.94,2.0
1758076061.02849,1758076061.04118,0.0,0.0,0.0,0.85944,-0.22918,5.72958,8.73,1.52,0.94,2.0
1758076061.02978,1758076061.05118,0.0,0.0,0.0,-6.18794,-8.88085,4.52637,8.82,1.76,0.94,2.0
1758076061.04559,1758076061.06118,0.0,0.0,0.0,-11.28727,-14.09476,3.03668,8.82,1.76,0.94,2.0
1758076061.06159,1758076061.07118,0.0,0.0,0.0,-16.61578,-17.87628,1.14592,8.96,1.9,0.81,2.0
1758076061.0639,1758076061.08118,0.0,0.0,0.0,-21.88699,-21.25674,-0.97403,8.96,1.9,0.81,2.0
1758076061.07855,1758076061.09118,0.0,0.0,0.0,-28.70519,-26.87172,-4.0107,9.04,1.88,0.77,2.0
1758076061.07967,1758076061.10118,0.0,0.0,0.0,-32.6013,-34.09099,-6.35983,8.73,1.75,0.65,2.0
1758076061.09583,1758076061.11118,0.0,0.0,0.0,-35.2942,-42.51347,-8.0787,8.73,1.75,0.65,2.0
1758076061.11159,1758076061.12118,0.0,0.0,0.0,-35.92446,-46.1804,-8.88085,8.82,1.25,0.48,2.0
1758076061.11281,1758076061.13118,0.0,0.0,0.0,-36.15364,-46.81066,-9.22462,8.82,1.25,0.48,2.0
1758076061.12787,1758076061.14118,0.0,0.0,0.0,-35.92446,-46.1804,-7.79223,9.74,0.84,0.25,2.0
1758076061.14359,1758076061.15118,0.0,0.0,0.0,-36.6693,-56.14987,-7.96411,9.74,0.84,0.25,2.0
1758076061.15458,1758076061.16118,0.0,0.0,0.0,-41.36755,-44.51882,-10.71431,9.41,0.84,0.47,2.0
1758076061.15949,1758076061.17118,0.0,0.0,0.0,-43.31561,-36.26823,-11.57375,11.17,1.04,0.67,2.0
1758076061.16078,1758076061.18118,0.0,0.0,0.0,-44.8053,-33.46074,-13.75099,11.17,1.04,0.67,2.0
1758076061.17547,1758076061.19118,0.0,0.0,0.0,-44.57612,-37.47144,-17.36062,10.91,1.34,2.63,2.0
1758076061.19192,1758076061.20118,0.0,0.0,0.0,-39.64868,-35.92446,-22.63183,10.91,1.34,2.63,2.0
1758076061.19276,1758076061.21118,0.0,0.0,0.0,-34.89313,-34.26288,-26.24147,12.91,0.97,3.9,2.0
1758076061.20769,1758076061.22118,0.0,0.0,0.0,-29.96569,-30.25217,-28.93437,12.91,0.97,3.9,2.0
1758076061.22384,1758076061.23118,0.0,0.0,0.0,-24.5226,-22.63183,-29.73651,13.47,0.0,3.46,2.0
1758076061.22498,1758076061.24118,0.0,0.0,0.0,-18.27736,-13.86558,-27.78845,11.95,-0.81,2.23,2.0
1758076061.23977,1758076061.25118,0.0,0.0,0.0,-15.12609,-12.49048,-24.23611,11.95,-0.81,2.23,2.0
1758076061.2408,1758076061.26118,0.0,0.0,0.0,-13.17803,-13.86558,-18.85031,9.63,-0.63,1.99,2.0
1758076061.2558,1758076061.27118,0.0,0.0,0.0,-12.2613,-16.50119,-12.43318,9.63,-0.63,1.99,2.0
1758076061.27239,1758076061.28118,0.0,0.0,0.0,-13.69369,-16.21471,-2.6929,9.26,0.36,1.54,2.0
1758076061.27357,1758076061.29118,0.0,0.0,0.0,-16.55848,-14.15206,1.94806,9.26,0.36,1.54,2.0
1758076061.28853,1758076061.30118,0.0,0.0,0.0,-20.45459,-13.5791,4.52637,9.82,1.34,1.75,2.0
1758076061.28973,1758076061.31118,0.0,0.0,0.0,-25.09555,-14.61043,4.69825,9.82,1.34,1.75,2.0
1758076061.30583,1758076061.32118,0.0,0.0,0.0,-32.37212,-16.95955,0.85944,9.55,1.96,2.39,2.0
1758076061.32183,1758076061.33118,0.0,0.0,0.0,-36.7266,-19.48057,-4.23989,9.14,1.85,2.84,2.0
1758076061.32355,1758076061.34118,0.0,0.0,0.0,-40.33623,-20.74107,-10.08406,9.14,1.85,2.84,2.0
1758076061.33856,1758076061.35118,0.0,0.0,0.0,-44.51882,-20.16812,-18.16276,8.95,1.02,3.09,2.0
1758076061.33973,1758076061.36118,0.0,0.0,0.0,-46.1804,-17.24603,-21.7724,8.95,1.02,3.09,2.0
1758076061.35581,1758076061.37118,0.0,0.0,0.0,-47.03984,-14.09476,-23.66316,9.24,-0.16,2.81,2.0
1758076061.37183,1758076061.38118,0.0,0.0,0.0,-46.98254,-9.33921,-23.94964,9.24,-0.16,2.81,2.0
1758076061.37303,1758076061.39118,0.0,0.0,0.0,-44.8053,-1.03132,-21.25674,10.3,-1.18,2.49,2.0
1758076061.3878,1758076061.40118,0.0,0.0,0.0,-42.34158,4.29718,-17.87628,11.16,-1.69,1.81,2.0
1758076061.40362,1758076061.41118,0.0,0.0,0.0,-39.01843,9.74028,-13.5218,11.16,-1.69,1.81,2.0
1758076061.40475,1758076061.42118,0.0,0.0,0.0,-34.72124,16.04282,-8.42248,11.6,-1.72,1.24,2.0
1758076061.41986,1758076061.43118,0.0,0.0,0.0,-27.1582,24.98096,-0.34377,11.6,-1.72,1.24,2.0
1758076061.42103,1758076061.44118,0.0,0.0,0.0,-21.7151,28.70519,5.09932,11.61,-1.59,0.89,2.0
1758076061.43594,1758076061.45118,0.0,0.0,0.0,-16.73037,29.67921,9.68299,11.61,-1.59,0.89,2.0
1758076061.45185,1758076061.46118,0.0,0.0,0.0,-12.37589,30.02299,13.40721,10.93,-1.48,0.81,2.0
1758076061.45354,1758076061.47118,0.0,0.0,0.0,-7.10468,32.25753,16.90226,10.55,-1.31,0.82,2.0
1758076061.46876,1758076061.48118,0.0,0.0,0.0,-4.87014,33.17426,17.93358,10.55,-1.31,0.82,2.0
1758076061.46975,1758076061.49118,0.0,0.0,0.0,-3.20856,31.79916,18.27736,9.91,-0.99,0.9,2.0
1758076061.4858,1758076061.50118,0.0,0.0,0.0,-1.3178,29.8511,18.10547,9.91,-0.99,0.9,2.0
1758076061.50185,1758076061.51118,0.0,0.0,0.0,1.3178,28.70519,17.24603,9.56,-0.89,1.15,2.0
1758076061.50302,1758076061.52118,0.0,0.0,0.0,2.92208,27.61657,16.38659,9.56,-0.89,1.15,2.0
1758076061.51758,1758076061.53118,0.0,0.0,0.0,4.29718,27.1582,15.35527,9.37,-0.57,1.05,2.0
1758076061.53353,1758076061.54118,0.0,0.0,0.0,5.95876,27.1582,14.66772,9.37,-0.57,1.05,2.0
1758076061.53469,1758076061.55118,0.0,0.0,0.0,9.33921,26.01229,13.86558,9.21,-0.41,1.28,2.0
1758076061.54982,1758076061.56118,0.0,0.0,0.0,10.8862,22.05888,13.23533,8.65,-0.41,1.44,2.0
1758076061.55103,1758076061.57118,0.0,0.0,0.0,12.2613,18.90761,12.2613,8.65,-0.41,1.44,2.0
1758076061.56565,1758076061.58118,0.0,0.0,0.0,14.38124,13.86558,10.8862,8.56,-0.47,1.33,2.0
1758076061.58179,1758076061.59118,0.0,0.0,0.0,15.41257,9.85487,9.5684,8.56,-0.47,1.33,2.0
1758076061.58358,1758076061.60118,0.0,0.0,0.0,16.90226,5.95876,9.05273,8.45,-0.65,1.25,2.0
1758076061.59855,1758076061.61118,0.0,0.0,0.0,18.50654,5.72958,8.02141,8.45,-0.65,1.25,2.0
1758076061.60003,1758076061.62118,0.0,0.0,0.0,20.79837,9.11003,6.24524,8.84,-0.86,0.94,2.0
1758076061.61584,1758076061.63118,0.0,0.0,0.0,22.68913,11.74564,5.15662,9.15,-0.93,0.84,2.0
1758076061.63162,1758076061.64118,0.0,0.0,0.0,24.86637,13.75099,3.95341,9.15,-0.93,0.84,2.0
1758076061.63389,1758076061.65118,0.0,0.0,0.0,27.38738,15.87093,2.92208,9.32,-0.91,0.67,2.0
1758076061.64883,1758076061.66118,0.0,0.0,0.0,32.25753,20.11082,2.7502,9.32,-0.91,0.67,2.0
1758076061.64973,1758076061.67118,0.0,0.0,0.0,36.03905,18.85031,3.89611,9.69,-0.95,0.59,2.0
1758076061.66557,1758076061.68118,0.0,0.0,0.0,39.99245,14.49583,6.13065,9.69,-0.95,0.59,2.0
1758076061.68147,1758076061.69118,0.0,0.0,0.0,43.94586,8.76626,8.36518,9.3,-1.03,0.38,2.0
1758076061.68308,1758076061.70118,0.0,0.0,0.0,49.27437,0.80214,11.22997,9.37,-1.01,0.33,2.0
1758076061.69759,1758076061.71118,0.0,0.0,0.0,52.02457,-4.52637,12.43318,9.37,-1.01,0.33,2.0
1758076061.71381,1758076061.72118,0.0,0.0,0.0,53.62885,-8.88085,12.37589,9.41,-0.46,0.6,2.0
1758076061.71483,1758076061.73118,0.0,0.0,0.0,53.51426,-13.00614,11.80293,9.41,-0.46,0.6,2.0
1758076061.72982,1758076061.74118,0.0,0.0,0.0,52.9986,-24.5226,11.00079,9.54,0.21,1.16,2.0
1758076061.73085,1758076061.75118,0.0,0.0,0.0,52.25375,-33.05967,9.5684,9.54,0.21,1.16,2.0
1758076061.74582,1758076061.76118,0.0,0.0,0.0,51.73809,-40.16434,8.25059,9.16,0.28,0.5,2.0
1758076061.76158,1758076061.77118,0.0,0.0,0.0,52.19646,-40.39353,5.61499,9.16,0.28,0.5,2.0
1758076061.76353,1758076061.78118,0.0,0.0,0.0,53.39967,-22.97561,5.4431,10.14,0.24,0.5,2.0
1758076061.77852,1758076061.79118,0.0,0.0,0.0,54.3164,-4.92744,6.13065,11.98,-0.06,1.16,2.0
1758076061.77973,1758076061.80118,0.0,0.0,0.0,54.77477,6.24524,6.70361,11.98,-0.06,1.16,2.0
1758076061.79554,1758076061.81118,0.0,0.0,0.0,57.18119,2.92208,7.21927,10.46,-0.41,1.35,2.0
1758076061.8115,1758076061.82118,0.0,0.0,0.0,57.0093,-17.36062,3.38045,10.46,-0.41,1.35,2.0
1758076061.81355,1758076061.83118,0.0,0.0,0.0,60.44705,-45.26366,6.41713,7.24,-0.75,0.74,2.0
1758076061.82855,1758076061.84118,0.0,0.0,0.0,62.96807,-55.00395,8.42248,7.24,-0.75,0.74,2.0
1758076061.82975,1758076061.85118,0.0,0.0,0.0,65.54638,-49.79003,12.204,9.3,-1.24,1.05,2.0
1758076061.84556,1758076061.86118,0.0,0.0,0.0,66.11933,-46.1804,15.12609,11.79,-0.84,2.27,2.0
1758076061.86161,1758076061.87118,0.0,0.0,0.0,66.17663,-43.31561,19.53786,11.79,-0.84,2.27,2.0
1758076061.86434,1758076061.88118,0.0,0.0,0.0,66.11933,-37.81522,23.83505,13.61,-0.31,3.1,2.0
1758076061.87981,1758076061.89118,0.0,0.0,0.0,63.42643,-25.49662,27.67386,13.61,-0.31,3.1,2.0
1758076061.88086,1758076061.90118,0.0,0.0,0.0,59.98868,-18.85031,27.84575,14.06,0.77,1.91,2.0
1758076061.89587,1758076061.91118,0.0,0.0,0.0,55.6915,-13.98017,26.64254,14.06,0.77,1.91,2.0
1758076061.91338,1758076061.92118,0.0,0.0,0.0,51.27972,-10.54242,22.97561,12.03,1.53,0.95,2.0
1758076061.91487,1758076061.93118,0.0,0.0,0.0,46.35228,-8.0787,15.69904,9.73,0.98,1.08,2.0
1758076061.92985,1758076061.94118,0.0,0.0,0.0,44.63341,-7.10468,10.59972,9.73,0.98,1.08,2.0
1758076061.93194,1758076061.95118,0.0,0.0,0.0,44.28964,-6.18794,7.04738,8.86,0.02,1.75,2.0
1758076061.94762,1758076061.96118,0.0,0.0,0.0,45.43555,-5.72958,4.81285,8.86,0.02,1.75,2.0
1758076061.9502,1758076061.97118,0.0,0.0,0.0,48.58683,-5.15662,5.55769,8.91,-0.72,2.37,2.0
1758076061.96562,1758076061.98118,0.0,0.0,0.0,51.39432,-4.1253,7.33386,8.91,-0.72,2.37,2.0
1758076062.00051,1758076061.99118,0.0,0.0,0.0,54.08722,-2.06265,11.11538,9.06,-0.99,2.62,2.0
1758076062.00249,1758076062.00118,0.0,0.0,0.0,58.15522,2.29183,17.93358,9.06,-0.99,2.62,2.0
1758076062.0055,1758076062.01118,0.0,0.0,0.0,60.73353,5.72958,23.20479,9.21,-0.76,2.6,2.0
1758076062.00758,1758076062.02118,0.0,0.0,0.0,62.62429,9.96947,28.07493,9.41,-0.04,2.38,2.0
1758076062.02359,1758076062.03118,0.0,0.0,0.0,63.65561,14.78231,32.25753,9.41,-0.04,2.38,2.0
1758076062.02457,1758076062.04118,0.0,0.0,0.0,63.13995,23.0329,35.58068,10.12,0.89,2.15,2.0
1758076062.04065,1758076062.05118,0.0,0.0,0.0,61.70755,28.64789,35.40879,10.12,0.89,2.15,2.0
1758076062.04563,1758076062.06118,0.0,0.0,0.0,59.81679,33.80451,33.68992,10.81,1.64,1.76,2.0
1758076062.06082,1758076062.07118,0.0,0.0,0.0,57.29578,38.56006,30.76784,10.81,1.64,1.76,2.0
1758076062.06502,1758076062.08118,0.0,0.0,0.0,52.82671,44.86259,23.94964,11.22,1.84,1.5,2.0
1758076062.08081,1758076062.09118,0.0,0.0,0.0,49.33167,46.98254,18.22006,11.15,1.47,1.62,2.0
1758076062.08411,1758076062.10118,0.0,0.0,0.0,46.1231,46.35228,12.71966,11.15,1.47,1.62,2.0
1758076062.10044,1758076062.11118,0.0,0.0,0.0,43.4875,44.86259,7.21927,10.57,0.87,1.75,2.0
1758076062.10159,1758076062.12118,0.0,0.0,0.0,40.33623,41.31026,0.51566,10.57,0.87,1.75,2.0
1758076062.11985,1758076062.13118,0.0,0.0,0.0,38.73195,37.12767,-3.03668,10.16,0.41,1.86,2.0
1758076062.12185,1758076062.14118,0.0,0.0,0.0,36.89849,33.51803,-5.4431,10.16,0.41,1.86,2.0
1758076062.13684,1758076062.15118,0.0,0.0,0.0,35.2369,31.62727,-6.58902,9.6,0.25,1.67,2.0
1758076062.15283,1758076062.16118,0.0,0.0,0.0,32.14294,30.59595,-6.70361,9.29,0.47,1.36,2.0
1758076062.15619,1758076062.17118,0.0,0.0,0.0,29.96569,30.25217,-5.55769,9.29,0.47,1.36,2.0
1758076062.17186,1758076062.18118,0.0,0.0,0.0,26.87172,31.62727,-4.87014,8.95,0.84,1.27,2.0
1758076062.17552,1758076062.19118,0.0,0.0,0.0,22.63183,32.25753,-3.20856,8.95,0.84,1.27,2.0
1758076062.19083,1758076062.20118,0.0,0.0,0.0,20.22541,30.36677,-2.00535,8.63,1.05,1.25,2.0
1758076062.19202,1758076062.21118,0.0,0.0,0.0,18.27736,26.81443,-0.51566,8.63,1.05,1.25,2.0
1758076062.20684,1758076062.22118,0.0,0.0,0.0,16.73037,23.31938,1.43239,8.26,1.02,1.19,2.0
1758076062.22368,1758076062.23118,0.0,0.0,0.0,14.83961,18.27736,4.69825,8.26,1.02,1.19,2.0
1758076062.22483,1758076062.24118,0.0,0.0,0.0,13.69369,14.78231,6.70361,8.41,0.88,1.32,2.0
1758076062.24067,1758076062.25118,0.0,0.0,0.0,11.57375,11.22997,8.65166,8.51,0.72,1.37,2.0
1758076062.24158,1758076062.26118,0.0,0.0,0.0,9.62569,8.0787,9.68299,8.51,0.72,1.37,2.0
1758076062.25662,1758076062.27118,0.0,0.0,0.0,6.13065,9.96947,10.8289,8.88,0.84,1.04,2.0
1758076062.27284,1758076062.28118,0.0,0.0,0.0,3.38045,10.94349,11.17268,8.88,0.84,1.04,2.0
1758076062.27454,1758076062.29118,0.0,0.0,0.0,0.57296,10.19865,10.48513,9.14,1.05,1.01,2.0
1758076062.28954,1758076062.30118,0.0,0.0,0.0,-2.29183,9.91217,10.37054,9.14,1.05,1.01,2.0
1758076062.29084,1758076062.31118,0.0,0.0,0.0,-7.33386,8.25059,8.88085,9.26,1.23,0.99,2.0
1758076062.30584,1758076062.32118,0.0,0.0,0.0,-11.00079,2.63561,7.33386,9.3,1.33,1.08,2.0
1758076062.32185,1758076062.33118,0.0,0.0,0.0,-15.58445,-3.60963,5.4431,9.3,1.33,1.08,2.0
1758076062.32366,1758076062.34118,0.0,0.0,0.0,-20.16812,-11.45916,3.60963,8.95,1.41,0.74,2.0
1758076062.33859,1758076062.35118,0.0,0.0,0.0,-27.10091,-21.42862,1.94806,8.95,1.41,0.74,2.0
1758076062.33977,1758076062.36118,0.0,0.0,0.0,-31.62727,-27.10091,0.57296,9.02,1.35,0.62,2.0
1758076062.35564,1758076062.37118,0.0,0.0,0.0,-35.86716,-31.28349,-0.85944,9.02,1.35,0.62,2.0
1758076062.37148,1758076062.38118,0.0,0.0,0.0,-41.08107,-35.86716,-3.95341,9.09,1.29,0.42,2.0
1758076062.37349,1758076062.39118,0.0,0.0,0.0,-43.83128,-47.26902,-5.61499,8.84,1.13,0.2,2.0
1758076062.38883,1758076062.40118,0.0,0.0,0.0,-45.26366,-53.91533,-7.67763,8.84,1.13,0.2,2.0
1758076062.38977,1758076062.41118,0.0,0.0,0.0,-45.83662,-55.23313,-8.47978,9.15,0.73,-0.07,2.0
1758076062.40586,1758076062.42118,0.0,0.0,0.0,-46.69606,-52.48294,-9.4538,9.15,0.73,-0.07,2.0
1758076062.42155,1758076062.43118,0.0,0.0,0.0,-47.95657,-46.1231,-9.68299,10.18,0.61,0.14,2.0
1758076062.42356,1758076062.44118,0.0,0.0,0.0,-48.75871,-42.28429,-9.22462,10.18,0.61,0.14,2.0
1758076062.43852,1758076062.45118,0.0,0.0,0.0,-51.39432,-41.25296,-11.57375,10.63,0.73,0.82,2.0
1758076062.43976,1758076062.46118,0.0,0.0,0.0,-54.3164,-41.08107,-16.61578,10.92,0.73,1.49,2.0
1758076062.45743,1758076062.47118,0.0,0.0,0.0,-54.77477,-44.00316,-21.08485,10.92,0.84,1.49,2.0
1758076062.4746,1758076062.48118,0.0,0.0,0.0,-54.25911,-47.95657,-26.12688,11.46,0.74,2.72,2.0
1758076062.47555,1758076062.49118,0.0,0.0,0.0,-52.19646,-51.16513,-33.17426,11.46,0.74,2.72,2.0
1758076062.49056,1758076062.50118,0.0,0.0,0.0,-48.70141,-46.81066,-43.4875,12.75,0.13,3.91,2.0
1758076062.49816,1758076062.51118,0.0,0.0,0.0,-45.77933,-38.73195,-48.70141,12.75,0.13,3.91,2.0
1758076062.51358,1758076062.52118,0.0,0.0,0.0,-41.76862,-32.08564,-51.10783,13.3,-0.89,3.15,2.0
1758076062.51503,1758076062.53118,0.0,0.0,0.0,-37.75792,-29.10626,-50.2484,13.3,-0.89,3.15,2.0
1758076062.52979,1758076062.54118,0.0,0.0,0.0,-30.36677,-31.91375,-44.51882,11.41,-1.93,2.61,2.0
1758076062.53082,1758076062.55118,0.0,0.0,0.0,-26.06958,-34.0337,-38.44547,9.25,-1.57,1.77,2.0
1758076062.54576,1758076062.56118,0.0,0.0,0.0,-23.31938,-30.65324,-32.14294,9.25,-1.57,1.77,2.0
1758076062.56278,1758076062.57118,0.0,0.0,0.0,-23.0902,-24.29341,-25.89769,9.56,-0.41,1.58,2.0
1758076062.56531,1758076062.58118,0.0,0.0,0.0,-27.2155,-20.85567,-19.76705,9.56,-0.41,1.58,2.0
1758076062.5808,1758076062.59118,0.0,0.0,0.0,-32.20023,-18.22006,-17.30333,9.73,0.67,2.24,2.0
1758076062.58498,1758076062.60118,0.0,0.0,0.0,-38.78925,-14.32395,-17.18874,9.73,0.67,2.24,2.0
1758076062.6006,1758076062.61118,0.0,0.0,0.0,-48.75871,-11.00079,-18.56383,10.63,1.28,2.45,2.0
1758076062.60336,1758076062.62118,0.0,0.0,0.0,-54.431,-9.85487,-20.05352,10.83,0.93,2.46,2.0
1758076062.61864,1758076062.63118,0.0,0.0,0.0,-58.78547,-6.47442,-21.02755,10.83,0.93,2.46,2.0
1758076062.62137,1758076062.64118,0.0,0.0,0.0,-61.36378,0.0,-20.51189,11.68,-0.05,1.92,2.0
1758076062.63889,1758076062.65118,0.0,0.0,0.0,-61.93674,10.8289,-17.87628,11.68,-0.05,1.92,2.0
1758076062.63971,1758076062.66118,0.0,0.0,0.0,-61.02001,19.76705,-15.46986,12.12,-1.08,1.39,2.0
1758076062.65571,1758076062.67118,0.0,0.0,0.0,-58.84277,26.64254,-12.43318,12.12,-1.08,1.39,2.0
1758076062.67256,1758076062.68118,0.0,0.0,0.0,-57.0093,28.99167,-10.48513,11.44,-1.54,1.2,2.0
1758076062.67534,1758076062.69118,0.0,0.0,0.0,-52.19646,33.11696,-5.78687,10.76,-1.65,1.02,2.0
1758076062.69044,1758076062.70118,0.0,0.0,0.0,-48.41494,36.21093,-2.46372,10.76,-1.65,1.02,2.0
1758076062.69176,1758076062.71118,0.0,0.0,0.0,-44.51882,39.4768,1.20321,10.83,-1.58,0.96,2.0
1758076062.70658,1758076062.72118,0.0,0.0,0.0,-40.45082,43.4875,4.98473,10.83,-1.58,0.96,2.0
1758076062.72285,1758076062.73118,0.0,0.0,0.0,-34.77854,48.07116,9.74028,10.68,-1.54,1.01,2.0
1758076062.72533,1758076062.74118,0.0,0.0,0.0,-31.2262,50.1911,11.97482,10.68,-1.54,1.01,2.0
1758076062.74085,1758076062.75118,0.0,0.0,0.0,-28.70519,52.08187,12.71966,9.85,-1.52,0.81,2.0
1758076062.74373,1758076062.76118,0.0,0.0,0.0,-26.69983,52.25375,12.83425,9.85,-1.52,0.81,2.0
1758076062.75882,1758076062.77118,0.0,0.0,0.0,-24.00693,50.53488,11.11538,8.98,-1.41,0.94,2.0
1758076062.75985,1758076062.78118,0.0,0.0,0.0,-22.34536,46.81066,9.68299,8.16,-1.23,1.02,2.0
1758076062.77586,1758076062.79118,0.0,0.0,0.0,-20.68378,42.22699,7.67763,8.16,-1.23,1.02,2.0
1758076062.79185,1758076062.80118,0.0,0.0,0.0,-18.62113,37.92981,5.15662,7.88,-1.1,1.19,2.0
1758076062.79277,1758076062.81118,0.0,0.0,0.0,-17.18874,32.42941,3.72423,7.88,-1.1,1.19,2.0
1758076062.80743,1758076062.82118,0.0,0.0,0.0,-15.46986,28.99167,2.7502,8.06,-0.98,1.15,2.0
1758076062.82358,1758076062.83118,0.0,0.0,0.0,-14.09476,24.98096,1.66158,8.06,-0.98,1.15,2.0
1758076062.82508,1758076062.84118,0.0,0.0,0.0,-12.49048,16.84496,-1.08862,8.15,-0.77,1.09,2.0
1758076062.83954,1758076062.85118,0.0,0.0,0.0,-11.57375,13.86558,-3.38045,8.36,-0.5,0.96,2.0
1758076062.84161,1758076062.86118,0.0,0.0,0.0,-11.17268,10.02676,-5.4431,8.36,-0.5,0.96,2.0
1758076062.85685,1758076062.87118,0.0,0.0,0.0,-10.31324,7.33386,-6.99009,8.58,-0.36,0.76,2.0
1758076062.87389,1758076062.88118,0.0,0.0,0.0,-9.22462,9.91217,-9.4538,8.58,-0.36,0.76,2.0
1758076062.8752,1758076062.89118,0.0,0.0,0.0,-8.36518,12.83425,-11.28727,9.18,-0.39,0.58,2.0
1758076062.88982,1758076062.90118,0.0,0.0,0.0,-7.04738,15.41257,-13.12073,9.18,-0.39,0.58,2.0
1758076062.89158,1758076062.91118,0.0,0.0,0.0,-5.32851,17.87628,-14.78231,9.43,-0.56,0.58,2.0
1758076062.90689,1758076062.92118,0.0,0.0,0.0,-1.83346,20.05352,-16.67307,9.65,-0.85,0.46,2.0
1758076062.9102,1758076062.93118,0.0,0.0,0.0,1.66158,19.76705,-17.18874,9.65,-0.85,0.46,2.0
1758076062.92694,1758076062.94118,0.0,0.0,0.0,5.72958,18.44924,-16.61578,9.76,-1.19,0.33,2.0
1758076062.93023,1758076062.95118,0.0,0.0,0.0,10.19865,17.01685,-15.29797,9.76,-1.19,0.33,2.0
1758076062.94925,1758076062.96118,0.0,0.0,0.0,17.36062,14.09476,-12.43318,9.97,-1.46,0.46,2.0
1758076062.95021,1758076062.97118,0.0,0.0,0.0,22.57454,10.37054,-10.02676,9.97,-1.46,0.46,2.0
1758076062.96585,1758076062.98118,0.0,0.0,0.0,28.24682,5.78687,-7.62034,9.85,-1.5,0.87,2.0
1758076062.97242,1758076062.99118,0.0,0.0,0.0,34.14828,1.20321,-2.57831,9.85,-1.5,0.87,2.0
1758076062.98,1758076063.00118,0.0,0.0,0.0,42.91454,-3.49504,1.08862,9.79,-1.3,1.14,2.0
1758076062.99856,1758076063.01118,0.0,0.0,0.0,47.26902,-7.79223,3.72423,9.68,-0.99,1.18,2.0
1758076062.99985,1758076063.02118,0.0,0.0,0.0,50.93595,-13.17803,6.13065,9.68,-0.99,1.18,2.0
1758076063.01766,1758076063.03118,0.0,0.0,0.0,53.91533,-17.76169,7.33386,9.4,-0.55,1.39,2.0
1758076063.03355,1758076063.04118,0.0,0.0,0.0,54.60288,-17.87628,7.21927,9.4,-0.55,1.39,2.0
1758076063.03486,1758076063.05118,0.0,0.0,0.0,56.03527,-19.13679,8.02141,10.0,-0.13,1.16,2.0
1758076063.04982,1758076063.06118,0.0,0.0,0.0,58.90006,-19.59516,9.33921,10.0,-0.13,1.16,2.0
1758076063.05188,1758076063.07118,0.0,0.0,0.0,63.59832,-21.02755,12.204,10.57,-1.01,0.73,2.0
1758076063.06924,1758076063.08118,0.0,0.0,0.0,65.89015,-21.7724,14.49583,11.16,-1.59,1.63,2.0
1758076063.07464,1758076063.09118,0.0,0.0,0.0,66.97877,-21.7151,17.47521,11.16,-1.59,1.63,2.0
1758076063.08983,1758076063.10118,0.0,0.0,0.0,66.92148,-22.86102,19.76705,11.96,-1.2,2.85,2.0
1758076063.09191,1758076063.11118,0.0,0.0,0.0,65.08801,-18.79302,23.83505,11.96,-1.2,2.85,2.0
1758076063.11043,1758076063.12118,0.0,0.0,0.0,62.79618,-15.58445,28.07493,13.41,-0.52,4.0,2.0
1758076063.11537,1758076063.13118,0.0,0.0,0.0,59.01466,-15.92823,31.16891,13.41,-0.52,4.0,2.0
1758076063.11989,1758076063.14118,0.0,0.0,0.0,54.77477,-24.23611,33.86181,13.66,0.6,4.04,2.0
1758076063.13883,1758076063.15118,0.0,0.0,0.0,51.10783,-31.11161,35.92446,11.13,1.38,1.78,2.0
1758076063.13986,1758076063.16118,0.0,0.0,0.0,48.01387,-33.34615,35.2942,11.13,1.38,1.78,2.0
1758076063.15562,1758076063.17118,0.0,0.0,0.0,47.09713,-37.35685,38.15899,10.11,1.13,1.8,2.0
1758076063.17187,1758076063.18118,0.0,0.0,0.0,46.52417,-35.63798,39.01843,10.11,1.13,1.8,2.0
1758076063.17598,1758076063.19118,0.0,0.0,0.0,46.86795,-28.99167,37.12767,10.01,0.31,2.03,2.0
1758076063.19179,1758076063.20118,0.0,0.0,0.0,47.89928,-27.38738,34.49206,10.01,0.31,2.03,2.0
1758076063.19758,1758076063.21118,0.0,0.0,0.0,48.64412,-26.52795,30.93972,8.93,-0.5,3.01,2.0
1758076063.2126,1758076063.22118,0.0,0.0,0.0,48.75871,-23.31938,26.01229,8.93,-0.5,3.01,2.0
1758076063.21535,1758076063.23118,0.0,0.0,0.0,49.15978,-21.25674,23.54857,8.96,-0.44,3.55,2.0
1758076063.23084,1758076063.24118,0.0,0.0,0.0,49.90463,-20.16812,22.11617,8.94,0.22,3.69,2.0
1758076063.2321,1758076063.25118,0.0,0.0,0.0,51.27972,-18.79302,21.7151,8.94,0.22,3.69,2.0
1758076063.24896,1758076063.26118,0.0,0.0,0.0,53.80074,-15.69904,21.94428,9.04,0.91,3.31,2.0
1758076063.25486,1758076063.27118,0.0,0.0,0.0,55.6915,-11.28727,22.11617,9.04,0.91,3.31,2.0
1758076063.27085,1758076063.28118,0.0,0.0,0.0,56.89471,-5.55769,21.37133,9.7,1.2,2.63,2.0
1758076063.27498,1758076063.29118,0.0,0.0,0.0,57.0093,0.45837,20.11082,9.7,1.2,2.63,2.0
1758076063.2908,1758076063.30118,0.0,0.0,0.0,55.7488,10.8862,16.38659,10.24,1.28,2.0,2.0
1758076063.29501,1758076063.31118,0.0,0.0,0.0,53.97263,17.93358,12.2613,10.39,1.32,1.48,2.0
1758076063.31059,1758076063.32118,0.0,0.0,0.0,52.02457,24.80907,8.136,10.39,1.32,1.48,2.0
1758076063.31183,1758076063.33118,0.0,0.0,0.0,49.84733,30.99702,3.03668,10.19,1.39,1.35,2.0
1758076063.32685,1758076063.34118,0.0,0.0,0.0,46.81066,35.2942,-2.92208,10.19,1.39,1.35,2.0
1758076063.34438,1758076063.35118,0.0,0.0,0.0,45.37826,37.29956,-5.4431,9.63,1.45,1.4,2.0
1758076063.34537,1758076063.36118,0.0,0.0,0.0,44.57612,37.12767,-5.27121,9.63,1.45,1.4,2.0
1758076063.36058,1758076063.37118,0.0,0.0,0.0,43.14373,36.84119,-5.09932,9.62,1.4,1.41,2.0
1758076063.3618,1758076063.38118,0.0,0.0,0.0,41.08107,37.35685,-3.55234,9.84,1.25,1.29,2.0
1758076063.37766,1758076063.39118,0.0,0.0,0.0,39.76327,39.07573,-1.20321,9.84,1.25,1.29,2.0
1758076063.39359,1758076063.40118,0.0,0.0,0.0,38.27358,39.13302,1.66158,9.85,1.06,1.29,2.0
1758076063.39483,1758076063.41118,0.0,0.0,0.0,35.58068,36.21093,4.58366,9.85,1.06,1.29,2.0
1758076063.40962,1758076063.42118,0.0,0.0,0.0,33.40344,34.26288,5.78687,9.44,0.92,1.37,2.0
1758076063.41166,1758076063.43118,0.0,0.0,0.0,30.99702,34.95043,6.13065,9.44,0.92,1.37,2.0
1758076063.42991,1758076063.44118,0.0,0.0,0.0,28.99167,34.72124,5.95876,9.45,0.98,1.4,2.0
1758076063.43126,1758076063.45118,0.0,0.0,0.0,25.15285,35.06502,4.46907,9.45,0.98,1.4,2.0
1758076063.44751,1758076063.46118,0.0,0.0,0.0,22.91831,35.12231,3.26586,9.12,1.14,1.54,2.0
1758076063.46387,1758076063.47118,0.0,0.0,0.0,20.85567,34.26288,2.23454,8.93,1.28,1.75,2.0
1758076063.46509,1758076063.48118,0.0,0.0,0.0,19.48057,31.74186,2.29183,8.93,1.28,1.75,2.0
1758076063.47988,1758076063.49118,0.0,0.0,0.0,17.99088,25.49662,3.20856,8.64,1.2,1.73,2.0
1758076063.48158,1758076063.50118,0.0,0.0,0.0,17.47521,22.05888,4.69825,8.64,1.2,1.73,2.0
1758076063.4976,1758076063.51118,0.0,0.0,0.0,17.18874,18.33465,6.47442,8.73,0.91,1.76,2.0
1758076063.51384,1758076063.52118,0.0,0.0,0.0,16.67307,15.12609,8.0787,8.73,0.91,1.76,2.0
1758076063.51509,1758076063.53118,0.0,0.0,0.0,15.24068,11.97482,9.4538,8.9,0.66,1.54,2.0
1758076063.52988,1758076063.54118,0.0,0.0,0.0,13.5791,12.54778,10.08406,9.17,0.76,1.1,2.0
1758076063.5311,1758076063.55118,0.0,0.0,0.0,11.51645,13.00614,10.65701,9.17,0.76,1.1,2.0
1758076063.54561,1758076063.56118,0.0,0.0,0.0,8.65166,13.06344,11.28727,9.14,1.09,0.96,2.0
1758076063.56167,1758076063.57118,0.0,0.0,0.0,3.32316,9.62569,11.22997,9.14,1.09,0.96,2.0
1758076063.56359,1758076063.58118,0.0,0.0,0.0,-0.57296,7.44845,11.28727,8.81,1.38,0.86,2.0
1758076063.57861,1758076063.59118,0.0,0.0,0.0,-4.98473,5.32851,10.8289,8.81,1.38,0.86,2.0
1758076063.58018,1758076063.60118,0.0,0.0,0.0,-9.39651,1.60428,10.48513,8.78,1.4,0.79,2.0
1758076063.59737,1758076063.61118,0.0,0.0,0.0,-16.67307,-5.09932,10.19865,8.68,1.29,0.84,2.0
1758076063.61387,1758076063.62118,0.0,0.0,0.0,-21.7151,-10.02676,9.39651,8.68,1.29,0.84,2.0
1758076063.61485,1758076063.63118,0.0,0.0,0.0,-26.35606,-15.92823,9.05273,8.9,1.19,0.95,2.0
1758076063.62993,1758076063.64118,0.0,0.0,0.0,-34.32018,-21.42862,6.18794,8.9,1.19,0.95,2.0
1758076063.63157,1758076063.65118,0.0,0.0,0.0,-39.4768,-25.49662,4.46907,9.1,1.33,1.1,2.0
1758076063.64963,1758076063.66118,0.0,0.0,0.0,-44.51882,-29.73651,1.71887,9.1,1.33,1.1,2.0
1758076063.6506,1758076063.67118,0.0,0.0,0.0,-48.9306,-33.51803,-1.08862,9.13,1.59,0.9,2.0
1758076063.6656,1758076063.68118,0.0,0.0,0.0,-54.25911,-37.52874,-5.55769,9.13,1.59,0.82,2.0
1758076063.68184,1758076063.69118,0.0,0.0,0.0,-56.83742,-40.39353,-8.76626,9.41,1.87,0.82,2.0
1758076063.68383,1758076063.70118,0.0,0.0,0.0,-58.55629,-45.20637,-11.97482,9.52,1.99,1.43,2.0
1758076063.69979,1758076063.71118,0.0,0.0,0.0,-59.24384,-50.47758,-15.87093,9.52,1.99,1.43,2.0
1758076063.70113,1758076063.72118,0.0,0.0,0.0,-58.09792,-57.58226,-22.63183,10.17,1.45,2.74,2.0
1758076063.71562,1758076063.73118,0.0,0.0,0.0,-56.26446,-62.39511,-28.01764,10.17,1.45,2.74,2.0
1758076063.73149,1758076063.74118,0.0,0.0,0.0,-54.02992,-64.57235,-33.40344,11.29,0.58,4.1,2.0
1758076063.73277,1758076063.75118,0.0,0.0,0.0,-51.22243,-64.22858,-38.1017,11.29,0.58,4.1,2.0
1758076063.74787,1758076063.76118,0.0,0.0,0.0,-47.32632,-63.59832,-42.22699,13.3,-0.7,4.4,2.0
1758076063.76359,1758076063.77118,0.0,0.0,0.0,-43.65939,-69.84356,-42.1124,13.28,-1.79,3.26,2.0
1758076063.7648,1758076063.78118,0.0,0.0,0.0,-41.76862,-75.91692,-40.10705,13.28,-1.79,3.26,2.0
1758076063.77991,1758076063.79118,0.0,0.0,0.0,-38.90384,-78.20874,-35.52338,12.12,-1.38,1.77,2.0
1758076063.78109,1758076063.80118,0.0,0.0,0.0,-37.64333,-53.28508,-27.67386,12.12,-1.38,1.77,2.0
1758076063.79584,1758076063.81118,0.0,0.0,0.0,-39.99245,-39.19032,-25.7831,13.99,-0.31,1.87,2.0
1758076063.81161,1758076063.82118,0.0,0.0,0.0,-42.74266,-31.74186,-24.4653,13.99,-0.31,1.87,2.0
1758076063.81281,1758076063.83118,0.0,0.0,0.0,-46.52417,-34.43476,-24.00693,11.95,0.39,3.12,2.0
1758076063.82779,1758076063.84118,0.0,0.0,0.0,-48.12846,-35.98175,-23.0902,9.31,0.52,2.82,2.0
1758076063.8299,1758076063.85118,0.0,0.0,0.0,-49.27437,-29.96569,-21.7724,9.31,0.52,2.82,2.0
1758076063.84583,1758076063.86118,0.0,0.0,0.0,-50.13381,-23.60586,-19.25138,9.5,-0.22,2.03,2.0
1758076063.86362,1758076063.87118,0.0,0.0,0.0,-50.01921,-14.72501,-14.43854,9.5,-0.22,2.03,2.0
1758076063.86461,1758076063.88118,0.0,0.0,0.0,-49.33167,-7.62034,-10.8862,9.79,-1.13,2.02,2.0
1758076063.87961,1758076063.89118,0.0,0.0,0.0,-47.89928,-0.57296,-7.39116,9.79,-1.13,2.02,2.0
1758076063.88086,1758076063.90118,0.0,0.0,0.0,-45.83662,6.7609,-4.1253,10.34,-1.47,1.28,2.0
1758076063.89588,1758076063.91118,0.0,0.0,0.0,-42.05511,17.47521,-0.40107,10.4,-1.47,0.94,2.0
1758076063.91288,1758076063.92118,0.0,0.0,0.0,-40.96649,22.00158,-0.45837,10.4,-1.35,0.94,2.0
1758076063.91463,1758076063.93118,0.0,0.0,0.0,-38.50277,23.66316,0.0573,9.89,-1.02,1.05,2.0
1758076063.92974,1758076063.94118,0.0,0.0,0.0,-35.92446,26.75713,0.74485,9.89,-1.02,1.05,2.0
1758076063.93086,1758076063.95118,0.0,0.0,0.0,-32.42941,31.97105,1.94806,10.04,-0.99,0.71,2.0
1758076063.9464,1758076063.96118,0.0,0.0,0.0,-31.16891,35.12231,2.46372,10.04,-0.99,0.71,2.0
1758076063.95001,1758076063.97118,0.0,0.0,0.0,-29.8511,38.1017,3.20856,9.86,-1.16,0.73,2.0
1758076063.96676,1758076063.98118,0.0,0.0,0.0,-28.64789,40.62271,3.60963,9.86,-1.16,0.73,2.0
1758076063.97101,1758076063.99118,0.0,0.0,0.0,-27.38738,43.14373,3.95341,9.45,-1.16,0.85,2.0
1758076063.98646,1758076064.00118,0.0,0.0,0.0,-26.64254,43.54479,3.60963,9.02,-1.02,0.9,2.0
1758076064.00388,1758076064.01118,0.0,0.0,0.0,-25.89769,42.51347,3.49504,9.02,-1.02,0.9,2.0
1758076064.00565,1758076064.02118,0.0,0.0,0.0,-25.15285,40.33623,3.49504,8.74,-0.88,1.02,2.0
1758076064.02062,1758076064.03118,0.0,0.0,0.0,-23.60586,36.61201,3.66693,8.74,-0.88,1.02,2.0
1758076064.02452,1758076064.04118,0.0,0.0,0.0,-22.57454,33.68992,3.89611,8.79,-0.75,1.01,2.0
1758076064.0399,1758076064.05118,0.0,0.0,0.0,-21.7151,30.36677,3.55234,8.79,-0.75,1.01,2.0
1758076064.04161,1758076064.06118,0.0,0.0,0.0,-20.97026,27.38738,2.29183,8.77,-0.61,0.91,2.0
1758076064.0574,1758076064.07118,0.0,0.0,0.0,-20.34,25.49662,1.20321,8.86,-0.46,0.88,2.0
1758076064.07391,1758076064.08118,0.0,0.0,0.0,-19.70975,23.0329,0.0,8.86,-0.46,0.88,2.0
1758076064.07511,1758076064.09118,0.0,0.0,0.0,-19.36597,18.85031,-2.00535,8.77,-0.37,0.68,2.0
1758076064.08961,1758076064.10118,0.0,0.0,0.0,-18.22006,16.21471,-4.81285,8.77,-0.37,0.68,2.0
1758076064.0949,1758076064.11118,0.0,0.0,0.0,-17.30333,17.24603,-6.53172,9.18,-0.36,0.5,2.0
1758076064.10956,1758076064.12118,0.0,0.0,0.0,-16.10011,20.05352,-8.30789,9.18,-0.36,0.5,2.0
1758076064.11159,1758076064.13118,0.0,0.0,0.0,-15.24068,24.00693,-10.25595,9.6,-0.43,0.13,2.0
1758076064.12825,1758076064.14118,0.0,0.0,0.0,-13.17803,28.24682,-13.23533,9.57,-0.43,0.26,2.0
1758076064.13112,1758076064.15118,0.0,0.0,0.0,-11.28727,29.56462,-15.24068,9.57,-0.43,0.26,2.0
1758076064.14963,1758076064.16118,0.0,0.0,0.0,-9.11003,30.25217,-16.67307,9.34,-0.49,0.14,2.0
1758076064.15162,1758076064.17118,0.0,0.0,0.0,-6.35983,30.36677,-17.47521,9.34,-0.49,0.14,2.0
1758076064.16689,1758076064.18118,0.0,0.0,0.0,-1.14592,28.36141,-17.24603,9.31,-0.74,0.22,2.0
1758076064.18432,1758076064.19118,0.0,0.0,0.0,2.57831,26.52795,-16.272,9.31,-0.74,0.22,2.0
1758076064.1854,1758076064.20118,0.0,0.0,0.0,6.70361,23.37668,-14.9542,9.58,-1.11,0.56,2.0
1758076064.20084,1758076064.21118,0.0,0.0,0.0,11.11538,19.76705,-13.06344,9.58,-1.11,0.56,2.0
1758076064.20294,1758076064.22118,0.0,0.0,0.0,18.44924,13.5218,-9.33921,9.84,-1.34,0.85,2.0
1758076064.21886,1758076064.23118,0.0,0.0,0.0,23.94964,8.136,-5.90147,9.84,-1.34,1.04,2.0
1758076064.22056,1758076064.24118,0.0,0.0,0.0,29.67921,0.85944,-2.11994,9.84,-1.34,1.04,2.0
1758076064.23741,1758076064.25118,0.0,0.0,0.0,38.21629,-9.85487,3.20856,9.49,-1.09,0.96,2.0
1758076064.2537,1758076064.26118,0.0,0.0,0.0,43.83128,-15.58445,6.47442,9.49,-1.09,0.96,2.0
1758076064.25551,1758076064.27118,0.0,0.0,0.0,48.75871,-20.05352,8.99544,9.58,-0.87,0.93,2.0
1758076064.27085,1758076064.28118,0.0,0.0,0.0,52.82671,-24.23611,10.8862,9.58,-0.87,0.93,2.0
1758076064.27184,1758076064.29118,0.0,0.0,0.0,55.7488,-24.63719,12.14671,9.59,-0.82,0.78,2.0
1758076064.28656,1758076064.30118,0.0,0.0,0.0,52.08187,-19.70975,10.71431,10.25,-0.16,1.32,2.0
1758076064.3037,1758076064.31118,0.0,0.0,0.0,48.52953,-13.23533,9.91217,10.25,-0.16,1.32,2.0
1758076064.30455,1758076064.32118,0.0,0.0,0.0,48.07116,-9.28192,8.65166,10.76,-0.1,0.74,2.0
1758076064.31974,1758076064.33118,0.0,0.0,0.0,49.90463,-6.70361,6.8182,10.76,-0.1,0.74,2.0
1758076064.32083,1758076064.34118,0.0,0.0,0.0,51.16513,-1.48969,5.55769,10.71,-0.83,0.17,2.0
1758076064.33583,1758076064.35118,0.0,0.0,0.0,52.71212,4.23989,4.81285,10.71,-0.83,0.17,2.0
1758076064.35283,1758076064.36118,0.0,0.0,0.0,54.02992,11.51645,3.49504,11.43,-1.07,1.22,2.0
1758076064.35383,1758076064.37118,0.0,0.0,0.0,55.29043,7.33386,1.43239,11.0,-1.03,2.1,2.0
1758076064.36968,1758076064.38118,0.0,0.0,0.0,56.55093,-15.98552,2.92208,11.0,-1.03,2.1,2.0
1758076064.37057,1758076064.39118,0.0,0.0,0.0,56.952,-40.45082,9.11003,9.8,-0.9,3.03,2.0
1758076064.3858,1758076064.40118,0.0,0.0,0.0,54.3737,-48.30034,13.46451,9.8,-0.9,3.03,2.0
1758076064.40332,1758076064.41118,0.0,0.0,0.0,48.9879,-48.35764,24.00693,13.57,-0.21,3.32,2.0
1758076064.40451,1758076064.42118,0.0,0.0,0.0,43.54479,-46.06581,30.36677,13.57,-0.21,3.32,2.0
1758076064.4199,1758076064.43118,0.0,0.0,0.0,36.89849,-40.68,34.43476,14.17,0.79,3.4,2.0
1758076064.42159,1758076064.44118,0.0,0.0,0.0,26.52795,-34.43476,35.2942,14.17,0.79,3.4,2.0
1758076064.43938,1758076064.45118,0.0,0.0,0.0,20.22541,-30.76784,32.48671,12.32,1.73,2.54,2.0
1758076064.44061,1758076064.46118,0.0,0.0,0.0,14.83961,-30.19488,29.04896,9.26,1.84,1.93,2.0
1758076064.4556,1758076064.47118,0.0,0.0,0.0,10.8862,-26.81443,24.29341,9.26,1.84,1.93,2.0
1758076064.47162,1758076064.48118,0.0,0.0,0.0,8.76626,-19.48057,16.38659,8.13,1.03,2.16,2.0
1758076064.47441,1758076064.49118,0.0,0.0,0.0,9.91217,-16.67307,12.49048,8.13,1.03,2.16,2.0
1758076064.48985,1758076064.50118,0.0,0.0,0.0,12.49048,-14.9542,10.37054,7.32,0.07,2.79,2.0
1758076064.49198,1758076064.51118,0.0,0.0,0.0,15.69904,-14.72501,10.31324,7.32,0.07,2.79,2.0
1758076064.50737,1758076064.52118,0.0,0.0,0.0,21.02755,-13.17803,13.00614,7.59,-0.68,3.45,2.0
1758076064.52348,1758076064.53118,0.0,0.0,0.0,23.83505,-11.00079,15.58445,8.75,-0.96,3.49,2.0
1758076064.52476,1758076064.54118,0.0,0.0,0.0,25.7831,-6.87549,18.44924,8.75,-0.96,3.49,2.0
1758076064.54047,1758076064.55118,0.0,0.0,0.0,26.12688,-0.51566,20.22541,10.17,-0.33,2.95,2.0
1758076064.5416,1758076064.56118,0.0,0.0,0.0,23.26209,12.14671,21.37133,10.17,-0.33,2.95,2.0
1758076064.55892,1758076064.57118,0.0,0.0,0.0,19.99623,20.3973,20.74107,11.35,0.95,2.3,2.0
1758076064.56053,1758076064.58118,0.0,0.0,0.0,16.21471,27.50197,18.85031,11.35,0.95,2.3,2.0
1758076064.5768,1758076064.59118,0.0,0.0,0.0,11.91752,33.9764,15.69904,11.24,1.99,1.92,2.0
1758076064.59259,1758076064.60118,0.0,0.0,0.0,5.72958,40.96649,8.36518,10.42,2.11,1.84,2.0
1758076064.59457,1758076064.61118,0.0,0.0,0.0,2.11994,43.20102,3.20856,10.42,2.11,1.84,2.0
1758076064.60984,1758076064.62118,0.0,0.0,0.0,-0.80214,43.60209,-1.43239,9.6,1.6,1.79,2.0
1758076064.61084,1758076064.63118,0.0,0.0,0.0,-3.60963,43.94586,-4.98473,9.6,1.6,1.79,2.0
1758076064.62583,1758076064.64118,0.0,0.0,0.0,-7.04738,44.8053,-8.47978,9.59,1.06,2.16,2.0
1758076064.64167,1758076064.65118,0.0,0.0,0.0,-9.39651,45.72203,-9.68299,9.59,1.06,2.16,2.0
1758076064.64386,1758076064.66118,0.0,0.0,0.0,-11.86023,45.20637,-10.08406,9.77,0.83,2.13,2.0
1758076064.65882,1758076064.67118,0.0,0.0,0.0,-15.41257,41.02378,-9.62569,9.77,0.83,2.13,2.0
1758076064.66009,1758076064.68118,0.0,0.0,0.0,-18.50654,36.32552,-10.48513,9.43,0.77,2.1,2.0
1758076064.67587,1758076064.69118,0.0,0.0,0.0,-21.42862,32.48671,-10.54242,9.02,0.85,1.72,2.0
1758076064.69185,1758076064.70118,0.0,0.0,0.0,-24.86637,29.10626,-11.51645,9.02,0.85,1.72,2.0
1758076064.69283,1758076064.71118,0.0,0.0,0.0,-29.8511,26.81443,-13.69369,8.95,1.1,1.52,2.0
1758076064.70753,1758076064.72118,0.0,0.0,0.0,-32.88778,26.06958,-15.06879,8.95,1.1,1.52,2.0
1758076064.72364,1758076064.73118,0.0,0.0,0.0,-36.49741,25.09555,-16.61578,8.9,1.24,1.68,2.0
1758076064.72483,1758076064.74118,0.0,0.0,0.0,-39.64868,21.6578,-17.36062,8.9,1.24,1.68,2.0
1758076064.73983,1758076064.75118,0.0,0.0,0.0,-43.60209,15.75634,-16.90226,8.53,1.21,1.74,2.0
1758076064.74157,1758076064.76118,0.0,0.0,0.0,-45.20637,13.40721,-15.46986,8.59,0.93,1.67,2.0
1758076064.75766,1758076064.77118,0.0,0.0,0.0,-45.09178,11.34457,-12.89155,8.59,0.93,1.67,2.0
1758076064.77384,1758076064.78118,0.0,0.0,0.0,-44.28964,9.85487,-10.54242,8.75,0.28,1.86,2.0
1758076064.77483,1758076064.79118,0.0,0.0,0.0,-42.97184,10.54242,-5.72958,8.75,0.28,1.86,2.0
1758076064.78983,1758076064.80118,0.0,0.0,0.0,-42.39888,7.73493,-4.18259,9.14,-0.2,1.46,2.0
1758076064.79085,1758076064.81118,0.0,0.0,0.0,-43.4875,7.73493,-4.23989,9.14,-0.2,1.46,2.0
1758076064.80584,1758076064.82118,0.0,0.0,0.0,-45.09178,9.74028,-4.29718,9.56,0.47,1.08,2.0
1758076064.82197,1758076064.83118,0.0,0.0,0.0,-49.15978,11.34457,-6.53172,9.88,1.04,1.14,2.0
1758076064.8236,1758076064.84118,0.0,0.0,0.0,-53.28508,8.99544,-9.68299,9.88,1.04,1.14,2.0
1758076064.83859,1758076064.85118,0.0,0.0,0.0,-57.63955,1.77617,-11.91752,9.26,1.31,1.16,2.0
1758076064.83985,1758076064.86118,0.0,0.0,0.0,-66.11933,-5.32851,-16.50119,9.26,1.31,1.16,2.0
1758076064.8559,1758076064.87118,0.0,0.0,0.0,-72.13539,-18.50654,-18.85031,8.62,1.32,0.89,2.0
1758076064.87161,1758076064.88118,0.0,0.0,0.0,-77.63579,-25.43933,-20.62648,8.62,1.32,0.89,2.0
1758076064.87317,1758076064.89118,0.0,0.0,0.0,-83.19347,-32.48671,-23.26209,8.61,1.3,0.77,2.0
1758076064.8876,1758076064.90118,0.0,0.0,0.0,-89.83979,-49.61814,-26.06958,8.61,1.3,0.77,2.0
1758076064.90362,1758076064.91118,0.0,0.0,0.0,-92.76187,-58.21251,-27.33009,8.33,1.08,0.6,2.0
1758076064.90483,1758076064.92118,0.0,0.0,0.0,-95.0537,-60.27517,-28.07493,9.04,0.87,0.43,2.0
1758076064.91979,1758076064.93118,0.0,0.0,0.0,-97.17365,-56.14987,-28.59059,9.04,0.87,0.43,2.0
1758076064.92194,1758076064.94118,0.0,0.0,0.0,-99.35089,-47.44091,-27.38738,10.26,0.79,0.28,2.0
1758076064.93744,1758076064.95118,0.0,0.0,0.0,-100.95516,-44.28964,-27.10091,10.26,0.79,0.28,2.0
1758076064.95381,1758076064.96118,0.0,0.0,0.0,-101.52813,-47.03984,-25.8404,9.97,0.72,0.72,2.0
1758076064.95474,1758076064.97118,0.0,0.0,0.0,-102.78864,-46.2377,-26.81443,9.97,0.72,0.72,2.0
1758076064.96963,1758076064.98118,0.0,0.0,0.0,-105.13776,-39.24761,-25.7831,9.97,0.8,0.48,2.0
1758076064.97085,1758076064.99118,0.0,0.0,0.0,-107.08582,-39.87786,-26.24147,10.94,0.7,1.26,2.0
1758076064.98572,1758076065.00118,0.0,0.0,0.0,-107.315,-43.83128,-26.81443,10.94,0.7,1.26,2.0
1758076065.00183,1758076065.01118,0.0,0.0,0.0,-105.9399,-51.73809,-28.13223,11.12,0.02,2.63,2.0
1758076065.0039,1758076065.02118,0.0,0.0,0.0,-102.61675,-66.06203,-32.54401,11.12,0.02,2.63,2.0
1758076065.01886,1758076065.03118,0.0,0.0,0.0,-98.83522,-71.21866,-37.35685,12.1,-0.95,3.43,2.0
1758076065.01988,1758076065.04118,0.0,0.0,0.0,-93.27753,-67.66632,-42.57077,12.1,-0.95,3.43,2.0
1758076065.03689,1758076065.05118,0.0,0.0,0.0,-85.42801,-57.52497,-47.03984,14.18,-2.21,2.71,2.0
1758076065.05288,1758076065.06118,0.0,0.0,0.0,-73.05212,-45.89392,-46.1231,12.89,-2.94,1.82,2.0
1758076065.05385,1758076065.07118,0.0,0.0,0.0,-67.15066,-41.76862,-43.54479,12.89,-2.94,1.82,2.0
1758076065.06877,1758076065.08118,0.0,0.0,0.0,-63.77021,-38.61736,-39.01843,10.25,-1.79,1.65,2.0
1758076065.06982,1758076065.09118,0.0,0.0,0.0,-63.54102,-31.45539,-29.27814,10.25,-1.79,1.65,2.0
1758076065.08583,1758076065.10118,0.0,0.0,0.0,-67.26525,-25.61122,-23.31938,9.63,-0.31,1.62,2.0
1758076065.10363,1758076065.11118,0.0,0.0,0.0,-73.45319,-18.9649,-19.13679,9.63,-0.31,1.62,2.0
1758076065.10459,1758076065.12118,0.0,0.0,0.0,-80.32869,-11.86023,-16.95955,10.07,0.64,1.85,2.0
1758076065.11993,1758076065.13118,0.0,0.0,0.0,-90.47005,-2.40642,-17.81899,10.07,0.64,1.93,2.0
1758076065.12086,1758076065.14118,0.0,0.0,0.0,-95.1683,1.20321,-19.07949,10.89,0.78,1.93,2.0
1758076065.13587,1758076065.15118,0.0,0.0,0.0,-97.17365,5.32851,-19.76705,11.57,0.0,1.45,2.0
1758076065.15187,1758076065.16118,0.0,0.0,0.0,-96.77258,13.34992,-19.70975,11.57,0.0,1.45,2.0
1758076065.15478,1758076065.17118,0.0,0.0,0.0,-92.76187,26.75713,-16.84496,12.28,-1.1,0.74,2.0
1758076065.16963,1758076065.18118,0.0,0.0,0.0,-88.69387,34.43476,-13.80828,12.28,-1.1,0.74,2.0
1758076065.17199,1758076065.19118,0.0,0.0,0.0,-84.79775,38.78925,-10.25595,11.3,-1.79,0.38,2.0
1758076065.18659,1758076065.20118,0.0,0.0,0.0,-81.36001,40.68,-6.18794,11.3,-1.79,0.38,2.0
1758076065.20287,1758076065.21118,0.0,0.0,0.0,-77.52119,42.51347,-0.74485,10.22,-2.02,0.49,2.0
1758076065.2046,1758076065.22118,0.0,0.0,0.0,-75.68773,43.83128,2.00535,10.13,-1.83,0.73,2.0
1758076065.21987,1758076065.23118,0.0,0.0,0.0,-74.25533,44.748,4.1253,10.13,-1.83,0.73,2.0
1758076065.22082,1758076065.24118,0.0,0.0,0.0,-72.99483,46.06581,5.61499,10.03,-1.4,0.84,2.0
1758076065.23588,1758076065.25118,0.0,0.0,0.0,-72.0208,48.41494,6.70361,10.03,-1.4,0.84,2.0
1758076065.25386,1758076065.26118,0.0,0.0,0.0,-71.39055,47.89928,6.24524,9.64,-1.01,0.7,2.0
1758076065.25508,1758076065.27118,0.0,0.0,0.0,-70.58841,45.72203,5.4431,9.64,-1.01,0.7,2.0
1758076065.26961,1758076065.28118,0.0,0.0,0.0,-68.98412,41.36755,3.32316,8.88,-0.76,0.77,2.0
1758076065.27188,1758076065.29118,0.0,0.0,0.0,-67.43713,39.13302,2.23454,8.5,-0.69,0.82,2.0
1758076065.28683,1758076065.30118,0.0,0.0,0.0,-65.71826,36.03905,0.85944,8.5,-0.69,0.82,2.0
1758076065.30374,1758076065.31118,0.0,0.0,0.0,-63.88479,31.56997,-0.51566,8.08,-0.8,0.78,2.0
1758076065.30456,1758076065.32118,0.0,0.0,0.0,-61.65026,23.72045,-3.26586,8.08,-0.8,0.78,2.0
1758076065.31979,1758076065.33118,0.0,0.0,0.0,-60.33246,19.07949,-5.27121,7.9,-0.86,0.62,2.0
1758076065.32239,1758076065.34118,0.0,0.0,0.0,-59.18654,14.61043,-7.44845,7.9,-0.86,0.62,2.0
1758076065.33767,1758076065.35118,0.0,0.0,0.0,-58.26981,9.62569,-10.19865,8.07,-0.85,0.35,2.0
1758076065.35381,1758076065.36118,0.0,0.0,0.0,-56.78012,5.27121,-13.69369,8.42,-0.73,0.3,2.0
1758076065.35482,1758076065.37118,0.0,0.0,0.0,-55.34772,3.09397,-15.35527,8.42,-0.73,0.3,2.0
1758076065.36984,1758076065.38118,0.0,0.0,0.0,-53.80074,4.69825,-16.73037,8.88,-0.7,0.11,2.0
1758076065.37517,1758076065.39118,0.0,0.0,0.0,-52.13916,9.05273,-17.93358,8.88,-0.7,0.11,2.0
1758076065.38981,1758076065.40118,0.0,0.0,0.0,-49.50356,17.30333,-19.13679,9.53,-0.72,0.06,2.0
1758076065.39158,1758076065.41118,0.0,0.0,0.0,-47.44091,21.88699,-19.59516,9.53,-0.72,0.06,2.0
1758076065.40841,1758076065.42118,0.0,0.0,0.0,-45.14908,25.15285,-19.99623,9.52,-0.86,-0.09,2.0
1758076065.4128,1758076065.43117,0.0,0.0,0.0,-42.62806,27.33009,-20.05352,9.52,-0.86,-0.09,2.0
1758076065.42962,1758076065.44117,0.0,0.0,0.0,-37.87251,27.84575,-19.59516,9.41,-1.1,-0.13,2.0
1758076065.43486,1758076065.45117,0.0,0.0,0.0,-33.9764,27.50197,-18.79302,9.38,-1.45,-0.15,2.0
1758076065.44949,1758076065.46117,0.0,0.0,0.0,-28.99167,23.89234,-17.47521,9.38,-1.45,-0.15,2.0
1758076065.45485,1758076065.47117,0.0,0.0,0.0,-23.60586,17.47521,-15.06879,9.18,-1.75,0.11,2.0
1758076065.46982,1758076065.48117,0.0,0.0,0.0,-15.0115,8.47978,-13.40721,9.18,-1.75,0.11,2.0
1758076065.47512,1758076065.49117,0.0,0.0,0.0,-9.05273,2.63561,-11.28727,9.44,-1.95,0.32,2.0
1758076065.48961,1758076065.50117,0.0,0.0,0.0,-3.32316,-3.09397,-8.65166,9.44,-1.95,0.32,2.0
1758076065.49162,1758076065.51117,0.0,0.0,0.0,4.23989,-11.74564,-5.21392,9.69,-1.89,0.75,2.0
1758076065.50658,1758076065.52117,0.0,0.0,0.0,8.59437,-17.01685,-2.23454,10.11,-1.59,0.99,2.0
1758076065.52386,1758076065.53117,0.0,0.0,0.0,11.86023,-22.63183,-0.57296,10.11,-1.59,0.99,2.0
1758076065.52485,1758076065.54117,0.0,0.0,0.0,15.35527,-24.80907,0.80214,10.25,-1.3,0.79,2.0
1758076065.53987,1758076065.55117,0.0,0.0,0.0,20.79837,-20.3973,1.71887,10.25,-1.3,0.79,2.0
1758076065.54113,1758076065.56117,0.0,0.0,0.0,24.29341,-12.77696,2.6929,11.4,-1.44,0.73,2.0
1758076065.55586,1758076065.57117,0.0,0.0,0.0,28.01764,-2.00535,2.23454,11.4,-1.44,0.73,2.0
1758076065.57282,1758076065.58117,0.0,0.0,0.0,30.93972,10.37054,3.03668,12.62,-1.93,0.84,2.0
1758076065.57541,1758076065.59117,0.0,0.0,0.0,33.51803,20.45459,2.29183,13.08,-2.37,1.76,2.0
1758076065.59086,1758076065.60117,0.0,0.0,0.0,35.63798,3.60963,1.20321,13.08,-2.37,1.76,2.0
1758076065.5926,1758076065.61117,0.0,0.0,0.0,36.26823,-20.05352,0.0,10.7,-1.83,2.01,2.0
1758076065.60981,1758076065.62117,0.0,0.0,0.0,35.86716,-35.98175,4.46907,10.7,-1.83,2.01,2.0
1758076065.61078,1758076065.63117,0.0,0.0,0.0,31.39809,-37.64333,8.30789,12.89,-0.85,1.58,2.0
1758076065.62566,1758076065.64117,0.0,0.0,0.0,29.22085,-39.3622,13.06344,12.89,-0.85,1.58,2.0
1758076065.64184,1758076065.65117,0.0,0.0,0.0,26.98631,-40.7946,17.93358,12.8,-0.1,1.9,2.0
1758076065.64354,1758076065.66117,0.0,0.0,0.0,23.89234,-39.99245,22.11617,12.8,-0.1,1.9,2.0
1758076065.65858,1758076065.67117,0.0,0.0,0.0,18.10547,-37.35685,26.81443,12.37,0.5,2.58,2.0
1758076065.65984,1758076065.68117,0.0,0.0,0.0,14.15206,-34.32018,27.78845,11.45,1.13,2.64,2.0
1758076065.67776,1758076065.69117,0.0,0.0,0.0,10.65701,-30.59595,27.50197,11.45,1.13,2.64,2.0
1758076065.6936,1758076065.70117,0.0,0.0,0.0,6.70361,-26.87172,27.04361,9.91,1.28,2.81,2.0
1758076065.69486,1758076065.71117,0.0,0.0,0.0,5.55769,-24.17882,26.98631,9.91,1.28,2.81,2.0
1758076065.70998,1758076065.72117,0.0,0.0,0.0,6.18794,-22.23076,26.75713,8.38,0.7,3.43,2.0
1758076065.71169,1758076065.73117,0.0,0.0,0.0,8.88085,-22.00158,26.18417,8.38,0.7,3.43,2.0
1758076065.72661,1758076065.74117,0.0,0.0,0.0,14.9542,-21.60051,25.55392,7.1,-0.01,3.48,2.0
1758076065.74405,1758076065.75117,0.0,0.0,0.0,19.19409,-19.13679,25.21014,7.64,-0.49,3.95,2.0
1758076065.74536,1758076065.76117,0.0,0.0,0.0,22.97561,-15.35527,24.98096,7.64,-0.49,3.95,2.0
1758076065.7606,1758076065.77117,0.0,0.0,0.0,25.61122,-10.59972,24.5226,9.28,-0.54,3.6,2.0
1758076065.76185,1758076065.78117,0.0,0.0,0.0,26.87172,-0.68755,23.0902,9.28,-0.54,3.6,2.0
1758076065.77767,1758076065.79117,0.0,0.0,0.0,26.35606,7.44845,21.14215,10.89,-0.05,2.8,2.0
1758076065.79384,1758076065.80117,0.0,0.0,0.0,24.35071,15.35527,18.44924,10.89,-0.05,2.8,2.0
1758076065.79483,1758076065.81117,0.0,0.0,0.0,21.42862,22.91831,15.12609,11.38,0.73,1.95,2.0
1758076065.80992,1758076065.82117,0.0,0.0,0.0,15.69904,32.25753,8.93814,10.81,1.37,1.74,2.0
1758076065.81168,1758076065.83117,0.0,0.0,0.0,11.74564,38.61736,4.52637,10.81,1.37,1.74,2.0
1758076065.82678,1758076065.84117,0.0,0.0,0.0,7.73493,43.54479,0.40107,10.09,1.78,1.96,2.0
1758076065.84255,1758076065.85117,0.0,0.0,0.0,3.83882,46.63877,-3.20856,10.09,1.78,1.96,2.0
1758076065.84494,1758076065.86117,0.0,0.0,0.0,-1.14592,48.9879,-7.04738,9.32,1.74,2.07,2.0
1758076065.85986,1758076065.87117,0.0,0.0,0.0,-3.20856,53.80074,-8.136,9.32,1.74,2.07,2.0
1758076065.86318,1758076065.88117,0.0,0.0,0.0,-4.92744,54.48829,-8.30789,9.33,1.24,2.13,2.0
1758076065.87856,1758076065.89117,0.0,0.0,0.0,-7.04738,51.5662,-7.84952,9.33,1.24,2.13,2.0
1758076065.87988,1758076065.90117,0.0,0.0,0.0,-8.42248,46.46688,-8.02141,8.53,0.73,2.06,2.0
1758076065.89586,1758076065.91117,0.0,0.0,0.0,-10.02676,43.02913,-8.47978,8.61,0.49,2.03,2.0
1758076065.91164,1758076065.92117,0.0,0.0,0.0,-11.80293,39.4768,-9.33921,8.61,0.49,2.03,2.0
1758076065.91366,1758076065.93117,0.0,0.0,0.0,-14.38124,35.52338,-10.54242,8.42,0.55,1.74,2.0
1758076065.92963,1758076065.94117,0.0,0.0,0.0,-15.75634,32.14294,-10.71431,8.42,0.55,1.74,2.0
1758076065.93084,1758076065.95117,0.0,0.0,0.0,-16.95955,27.78845,-10.54242,8.23,0.61,1.84,2.0
1758076065.9466,1758076065.96117,0.0,0.0,0.0,-17.6471,23.37668,-9.74028,8.23,0.61,1.84,2.0
1758076065.96282,1758076065.97117,0.0,0.0,0.0,-18.44924,16.04282,-7.96411,8.2,0.6,1.7,2.0
1758076065.96461,1758076065.98117,0.0,0.0,0.0,-18.73572,11.11538,-6.41713,8.27,0.54,1.62,2.0
1758076065.97959,1758076065.99117,0.0,0.0,0.0,-18.62113,6.47442,-4.64096,8.27,0.54,1.62,2.0
1758076065.98194,1758076066.00117,0.0,0.0,0.0,-18.44924,2.57831,-2.97938,8.42,0.47,1.4,2.0
1758076065.99856,1758076066.01117,0.0,0.0,0.0,-18.33465,-1.48969,-0.51566,8.42,0.47,1.4,2.0
1758076065.99978,1758076066.02117,0.0,0.0,0.0,-18.73572,-1.77617,-0.0573,8.73,0.44,1.26,2.0
1758076066.01579,1758076066.03117,0.0,0.0,0.0,-19.36597,0.0573,0.80214,8.73,0.44,1.26,2.0
1758076066.03166,1758076066.04117,0.0,0.0,0.0,-20.34,1.03132,1.20321,9.34,0.53,1.27,2.0
1758076066.03356,1758076066.05117,0.0,0.0,0.0,-23.89234,2.34913,-0.34377,9.43,0.84,1.17,2.0
1758076066.04956,1758076066.06117,0.0,0.0,0.0,-26.87172,-0.57296,-1.71887,9.43,0.84,1.17,2.0
1758076066.0508,1758076066.07117,0.0,0.0,0.0,-30.19488,-4.87014,-3.32316,8.98,1.17,0.87,2.0
1758076066.0658,1758076066.08117,0.0,0.0,0.0,-33.51803,-8.88085,-4.98473,8.98,1.17,0.87,2.0
1758076066.08189,1758076066.09117,0.0,0.0,0.0,-39.07573,-14.43854,-5.90147,8.92,1.35,0.75,2.0
1758076066.0839,1758076066.10117,0.0,0.0,0.0,-42.51347,-20.45459,-6.7609,8.92,1.35,0.75,2.0
1758076066.09854,1758076066.11117,0.0,0.0,0.0,-45.89392,-31.39809,-7.39116,8.7,1.46,0.56,2.0
1758076066.10051,1758076066.12117,0.0,0.0,0.0,-49.67545,-46.86795,-8.99544,8.7,1.46,0.56,2.0
1758076066.11736,1758076066.13117,0.0,0.0,0.0,-52.19646,-53.68615,-9.68299,8.32,1.18,0.46,2.0
1758076066.13365,1758076066.14117,0.0,0.0,0.0,-55.23313,-55.06125,-10.19865,9.35,0.85,0.26,2.0
1758076066.1666,1758076066.15117,0.0,0.0,0.0,-75.80232,-31.85646,-14.61043,11.27,0.95,0.81,2.0
1758076066.18364,1758076066.16117,0.0,0.0,0.0,-79.01089,-35.06502,-16.38659,11.27,0.95,0.81,2.0
1758076066.18458,1758076066.17117,0.0,0.0,0.0,-83.53725,-31.97105,-19.25138,10.82,1.2,0.67,2.0
1758076066.19991,1758076066.18117,0.0,0.0,0.0,-85.37071,-26.52795,-20.62648,12.0,1.25,0.75,2.0
1758076066.20158,1758076066.19117,0.0,0.0,0.0,-85.6572,-20.79837,-21.08485,12.0,1.25,0.75,2.0
1758076066.21989,1758076066.20117,0.0,0.0,0.0,-83.82372,-18.16276,-21.08485,12.58,0.66,1.79,2.0
1758076066.22162,1758076066.21117,0.0,0.0,0.0,-77.23472,-23.31938,-24.12152,12.58,0.66,1.79,2.0
1758076066.23777,1758076066.22117,0.0,0.0,0.0,-70.47381,-33.80451,-28.476,12.36,-0.42,3.19,2.0
1758076066.25364,1758076066.23117,0.0,0.0,0.0,-62.85347,-43.65939,-33.80451,12.36,-0.42,3.19,2.0
1758076066.25478,1758076066.24117,0.0,0.0,0.0,-54.3737,-49.27437,-38.90384,12.29,-1.58,3.32,2.0
1758076066.26964,1758076066.25117,0.0,0.0,0.0,-41.94051,-48.9879,-45.03448,12.71,-2.94,2.83,2.0
1758076066.27478,1758076066.26117,0.0,0.0,0.0,-35.06502,-44.748,-46.63877,12.71,-2.94,2.83,2.0
1758076066.28965,1758076066.27117,0.0,0.0,0.0,-29.96569,-41.42485,-45.72203,11.6,-3.3,2.21,2.0
1758076066.29194,1758076066.28117,0.0,0.0,0.0,-27.44468,-40.85189,-40.7946,11.6,-3.3,2.21,2.0
1758076066.30965,1758076066.29117,0.0,0.0,0.0,-28.93437,-41.94051,-36.61201,9.27,-1.54,2.52,2.0
1758076066.31084,1758076066.30117,0.0,0.0,0.0,-33.40344,-42.91454,-33.40344,9.27,-1.54,2.52,2.0
1758076066.32557,1758076066.31117,0.0,0.0,0.0,-39.82057,-41.71133,-30.36677,8.85,0.16,3.43,2.0
1758076066.34327,1758076066.32117,0.0,0.0,0.0,-52.42564,-39.76327,-27.73116,8.85,0.16,3.43,2.0
1758076066.34435,1758076066.33117,0.0,0.0,0.0,-61.07731,-39.01843,-26.52795,9.52,1.52,3.81,2.0
1758076066.35975,1758076066.34117,0.0,0.0,0.0,-68.86953,-36.84119,-25.8404,10.35,1.96,3.29,2.0
1758076066.36162,1758076066.35117,0.0,0.0,0.0,-74.7137,-32.37212,-24.4653,10.35,1.96,3.29,2.0
1758076066.37759,1758076066.36117,0.0,0.0,0.0,-78.15145,-22.57454,-21.08485,11.38,1.17,2.38,2.0
1758076066.37952,1758076066.37117,0.0,0.0,0.0,-77.80767,-13.98017,-18.10547,11.38,1.17,2.38,2.0
1758076066.39584,1758076066.38117,0.0,0.0,0.0,-75.91692,-6.24524,-14.61043,11.61,-0.25,1.4,2.0
1758076066.41365,1758076066.39117,0.0,0.0,0.0,-73.05212,0.57296,-10.8862,11.61,-0.25,1.4,2.0
1758076066.41452,1758076066.40117,0.0,0.0,0.0,-68.06739,7.84952,-5.72958,10.86,-1.41,0.94,2.0
1758076066.42955,1758076066.41117,0.0,0.0,0.0,-63.8275,10.37054,-1.66158,9.82,-1.86,0.9,2.0
1758076066.43172,1758076066.42117,0.0,0.0,0.0,-61.02001,14.66772,1.3178,9.82,-1.86,0.9,2.0
1758076066.44728,1758076066.43117,0.0,0.0,0.0,-57.92604,19.59516,4.52637,9.69,-1.83,0.91,2.0
1758076066.46362,1758076066.44117,0.0,0.0,0.0,-53.51426,27.2155,7.79223,9.69,-1.83,0.91,2.0
1758076066.46538,1758076066.45117,0.0,0.0,0.0,-50.3057,32.42941,9.28192,9.51,-1.44,0.75,2.0
1758076066.47956,1758076066.46117,0.0,0.0,0.0,-47.15443,37.81522,9.74028,9.51,-1.44,0.75,2.0
1758076066.48178,1758076066.47117,0.0,0.0,0.0,-44.46153,43.20102,8.99544,9.29,-1.14,0.57,2.0
1758076066.4974,1758076066.48117,0.0,0.0,0.0,-40.7373,49.38896,7.79223,8.96,-0.91,0.63,2.0
1758076066.51377,1758076066.49117,0.0,0.0,0.0,-39.07573,50.59217,6.24524,8.96,-0.91,0.63,2.0
1758076066.51482,1758076066.50117,0.0,0.0,0.0,-37.35685,50.3057,4.69825,8.54,-0.63,0.69,2.0
1758076066.52961,1758076066.51117,0.0,0.0,0.0,-35.69527,47.03984,2.40642,8.54,-0.63,0.69,2.0
1758076066.53155,1758076066.52117,0.0,0.0,0.0,-34.95043,44.46153,0.97403,8.28,-0.52,0.68,2.0
1758076066.54655,1758076066.53117,0.0,0.0,0.0,-34.37747,42.28429,-0.11459,8.28,-0.52,0.68,2.0
1758076066.56312,1758076066.54117,0.0,0.0,0.0,-33.46074,41.02378,-1.03132,8.45,-0.39,0.65,2.0
1758076066.5653,1758076066.55117,0.0,0.0,0.0,-32.20023,39.07573,-2.6929,8.73,-0.39,0.56,2.0
1758076066.58079,1758076066.56117,0.0,0.0,0.0,-31.16891,37.98711,-4.35448,8.73,-0.38,0.56,2.0
1758076066.58175,1758076066.57117,0.0,0.0,0.0,-30.13758,37.75792,-6.24524,9.06,-0.41,0.52,2.0
1758076066.59885,1758076066.58117,0.0,0.0,0.0,-28.76248,36.32552,-8.0787,9.06,-0.41,0.52,2.0
1758076066.60002,1758076066.59117,0.0,0.0,0.0,-26.52795,32.54401,-10.71431,8.97,-0.49,0.23,2.0
1758076066.61581,1758076066.60117,0.0,0.0,0.0,-24.75178,29.27814,-12.08941,8.97,-0.49,0.23,2.0
1758076066.63152,1758076066.61117,0.0,0.0,0.0,-22.68913,25.49662,-13.00614,8.81,-0.62,0.15,2.0
1758076066.63434,1758076066.62117,0.0,0.0,0.0,-19.99623,23.89234,-13.69369,8.81,-0.62,0.15,2.0
1758076066.64962,1758076066.63117,0.0,0.0,0.0,-15.41257,24.29341,-15.29797,8.98,-0.84,-0.13,2.0
1758076066.65157,1758076066.64117,0.0,0.0,0.0,-12.14671,24.12152,-16.67307,9.14,-1.11,-0.16,2.0
1758076066.66756,1758076066.65117,0.0,0.0,0.0,-8.02141,22.68913,-17.87628,9.14,-1.11,-0.16,2.0
1758076066.68381,1758076066.66117,0.0,0.0,0.0,-2.92208,19.82434,-17.87628,9.13,-1.45,0.23,2.0
1758076066.68514,1758076066.67117,0.0,0.0,0.0,6.24524,13.06344,-15.69904,9.13,-1.45,0.23,2.0
1758076066.69978,1758076066.68117,0.0,0.0,0.0,13.98017,6.58902,-12.37589,9.23,-1.9,0.4,2.0
1758076066.70186,1758076066.69117,0.0,0.0,0.0,22.40265,-0.80214,-8.30789,9.23,-1.9,0.4,2.0
1758076066.71762,1758076066.70117,0.0,0.0,0.0,34.95043,-9.68299,-1.66158,9.31,-2.33,0.35,2.0
1758076066.73365,1758076066.71117,0.0,0.0,0.0,43.20102,-14.03747,2.63561,9.9,-2.25,0.75,2.0
1758076066.73503,1758076066.72117,0.0,0.0,0.0,50.76406,-17.99088,6.24524,9.9,-2.25,0.75,2.0
1758076066.74955,1758076066.73117,0.0,0.0,0.0,57.29578,-20.74107,9.62569,10.45,-1.71,1.0,2.0
1758076066.75147,1758076066.74117,0.0,0.0,0.0,62.39511,-21.88699,11.00079,10.45,-1.71,1.0,2.0
1758076066.76866,1758076066.75117,0.0,0.0,0.0,60.79083,-12.49048,8.25059,10.79,-0.69,1.36,2.0
1758076066.76969,1758076066.76117,0.0,0.0,0.0,59.47303,-0.97403,5.09932,10.79,-0.69,1.36,2.0
1758076066.78557,1758076066.77117,0.0,0.0,0.0,60.27517,2.06265,3.03668,12.02,0.1,0.99,2.0
1758076066.80159,1758076066.78117,0.0,0.0,0.0,62.33781,2.63561,1.43239,12.02,-1.05,-0.02,2.0
1758076066.80386,1758076066.79117,0.0,0.0,0.0,62.39511,3.66693,1.08862,12.02,-1.05,-0.02,2.0
1758076066.81883,1758076066.80117,0.0,0.0,0.0,61.24919,5.50039,1.3178,12.63,-1.46,0.67,2.0
1758076066.82086,1758076066.81117,0.0,0.0,0.0,59.98868,5.4431,1.43239,12.63,-1.46,0.67,2.0
1758076066.83683,1758076066.82117,0.0,0.0,0.0,58.04062,-8.59437,5.15662,12.2,-1.09,1.9,2.0
1758076066.85257,1758076066.83117,0.0,0.0,0.0,54.71747,-22.05888,9.74028,12.2,-1.09,1.9,2.0
1758076066.85527,1758076066.84117,0.0,0.0,0.0,50.87865,-33.23156,17.36062,11.55,-0.12,2.58,2.0
1758076066.87055,1758076066.85117,0.0,0.0,0.0,46.81066,-41.48215,25.72581,11.55,-0.12,2.58,2.0
1758076066.87172,1758076066.86117,0.0,0.0,0.0,40.85189,-48.52953,37.47144,12.08,0.74,3.12,2.0
1758076066.8865,1758076066.87117,0.0,0.0,0.0,36.38282,-48.30034,43.77398,12.13,1.97,2.43,2.0
1758076066.90359,1758076066.88117,0.0,0.0,0.0,31.79916,-46.00851,47.44091,12.13,1.97,2.43,2.0
1758076066.90456,1758076066.89117,0.0,0.0,0.0,23.94964,-44.23235,47.49821,11.05,2.48,2.91,2.0
1758076066.91983,1758076066.90117,0.0,0.0,0.0,18.27736,-47.78468,46.00851,11.05,2.48,2.91,2.0
1758076066.921,1758076066.91117,0.0,0.0,0.0,13.69369,-50.99325,46.2377,9.24,2.34,4.17,2.0
1758076066.93578,1758076066.92117,0.0,0.0,0.0,10.02676,-46.46688,44.63341,9.24,2.34,4.17,2.0
1758076066.95157,1758076066.93117,0.0,0.0,0.0,7.62034,-38.50277,40.39353,9.23,1.76,3.83,2.0
