timeStamp,timeStampAlign,roll,pitch,yaw,gyro_x,gyro_y,gyro_z,acc_x,acc_y,acc_z,flag_num
1758078189.52397,1758078176.21092,0.0,0.0,0.0,-15.29797,-8.59437,-5.84417,9.46,1.66,1.17,3.0
1758078189.52519,1758078176.22092,0.0,0.0,0.0,-17.93358,-6.87549,-6.87549,9.64,1.67,1.02,3.0
1758078189.54,1758078176.23092,0.0,0.0,0.0,-19.76705,-4.35448,-7.39116,10.01,1.73,1.1,3.0
1758078189.55704,1758078176.24092,0.0,0.0,0.0,-22.05888,-2.40642,-8.25059,10.01,1.73,1.1,3.0
1758078189.55799,1758078176.25092,0.0,0.0,0.0,-24.17882,-1.20321,-9.11003,9.69,1.82,1.41,3.0
1758078189.57296,1758078176.26092,0.0,0.0,0.0,-27.67386,-0.80214,-10.48513,9.69,1.82,1.41,3.0
1758078189.5742,1758078176.27092,0.0,0.0,0.0,-30.53865,-0.0573,-13.00614,9.49,1.95,1.38,3.0
1758078189.58903,1758078176.28092,0.0,0.0,0.0,-32.08564,-2.11994,-14.09476,9.49,1.95,1.38,3.0
1758078189.60528,1758078176.29092,0.0,0.0,0.0,-32.83048,-5.90147,-14.78231,9.17,2.02,1.14,3.0
1758078189.60646,1758078176.30092,0.0,0.0,0.0,-33.68992,-7.16197,-12.89155,9.18,1.8,0.54,3.0
1758078189.62101,1758078176.31092,0.0,0.0,0.0,-33.86181,-11.51645,-12.54778,9.18,1.8,0.54,3.0
1758078189.6222,1758078176.32092,0.0,0.0,0.0,-33.63263,-19.25138,-10.65701,8.81,1.21,0.46,3.0
1758078189.63855,1758078176.33092,0.0,0.0,0.0,-33.74722,-28.01764,-7.10468,8.81,1.21,0.46,3.0
1758078189.65427,1758078176.34092,0.0,0.0,0.0,-35.2942,-1.94806,-8.70896,10.61,1.13,0.86,3.0
1758078189.65525,1758078176.35092,0.0,0.0,0.0,-37.92981,14.32395,-10.59972,10.61,1.13,0.86,3.0
1758078189.67007,1758078176.36092,0.0,0.0,0.0,-39.64868,16.04282,-11.22997,11.6,1.33,0.86,3.0
1758078189.68606,1758078176.37092,0.0,0.0,0.0,-42.34158,4.23989,-13.34992,11.6,1.33,0.86,3.0
1758078189.68724,1758078176.38092,0.0,0.0,0.0,-42.62806,3.09397,-14.61043,9.08,1.87,2.45,3.0
1758078189.7021,1758078176.39092,0.0,0.0,0.0,-41.99781,-0.80214,-15.06879,9.89,2.22,1.36,3.0
1758078189.70435,1758078176.40092,0.0,0.0,0.0,-40.85189,-3.83882,-14.9542,9.89,2.22,1.36,3.0
1758078189.71905,1758078176.41092,0.0,0.0,0.0,-38.61736,-3.38045,-14.20935,9.81,1.84,0.29,3.0
1758078189.73509,1758078176.42092,0.0,0.0,0.0,-37.29956,-3.09397,-14.38124,9.81,1.84,0.29,3.0
1758078189.73624,1758078176.43092,0.0,0.0,0.0,-35.69527,-3.03668,-14.61043,9.84,1.17,0.9,3.0
1758078189.75105,1758078176.44092,0.0,0.0,0.0,-34.09099,-1.66158,-15.12609,9.84,1.17,0.9,3.0
1758078189.75224,1758078176.45092,0.0,0.0,0.0,-31.51268,2.46372,-15.35527,10.13,0.79,1.19,3.0
1758078189.76807,1758078176.46092,0.0,0.0,0.0,-30.36677,6.99009,-15.0115,10.69,0.79,1.37,3.0
1758078189.78434,1758078176.47092,0.0,0.0,0.0,-29.67921,11.00079,-14.15206,10.69,0.79,1.37,3.0
1758078189.78524,1758078176.48092,0.0,0.0,0.0,-29.56462,14.9542,-13.17803,10.81,1.17,1.17,3.0
1758078189.80037,1758078176.49092,0.0,0.0,0.0,-30.36677,21.6578,-12.60507,10.81,1.17,1.17,3.0
1758078189.81698,1758078176.50092,0.0,0.0,0.0,-31.62727,26.52795,-12.204,11.04,1.86,1.27,3.0
1758078189.81799,1758078176.51092,0.0,0.0,0.0,-32.08564,28.87707,-12.08941,11.04,1.86,1.27,3.0
1758078189.8334,1758078176.52092,0.0,0.0,0.0,-32.88778,30.53865,-13.12073,10.89,2.35,1.15,3.0
1758078189.83427,1758078176.53092,0.0,0.0,0.0,-33.9764,31.16891,-14.09476,10.83,2.54,1.52,3.0
1758078189.84906,1758078176.54092,0.0,0.0,0.0,-34.09099,30.30947,-15.98552,10.83,2.54,1.52,3.0
1758078189.86541,1758078176.55092,0.0,0.0,0.0,-34.0337,29.04896,-18.27736,10.71,2.5,1.42,3.0
1758078189.86632,1758078176.56092,0.0,0.0,0.0,-33.34615,26.52795,-21.14215,10.71,2.5,1.42,3.0
1758078189.88123,1758078176.57092,0.0,0.0,0.0,-32.42941,24.63719,-22.57454,10.52,2.58,1.35,3.0
1758078189.88388,1758078176.58092,0.0,0.0,0.0,-31.74186,22.68913,-23.60586,10.52,2.58,1.35,3.0
1758078189.90117,1758078176.59092,0.0,0.0,0.0,-30.82513,20.79837,-24.29341,10.37,2.47,1.0,3.0
1758078189.90204,1758078176.60092,0.0,0.0,0.0,-29.67921,19.53786,-24.63719,10.37,2.47,0.93,3.0
1758078189.91812,1758078176.61092,0.0,0.0,0.0,-29.04896,18.9649,-24.35071,10.33,2.17,0.93,3.0
1758078189.93436,1758078176.62092,0.0,0.0,0.0,-28.59059,19.42327,-23.83505,10.39,1.81,0.99,3.0
1758078189.93572,1758078176.63092,0.0,0.0,0.0,-28.13223,20.34,-22.97561,10.39,1.81,0.99,3.0
1758078189.95095,1758078176.64092,0.0,0.0,0.0,-27.50197,21.25674,-20.97026,10.55,1.56,1.43,3.0
1758078189.9521,1758078176.65092,0.0,0.0,0.0,-27.04361,21.6578,-19.48057,10.55,1.56,1.43,3.0
1758078189.9681,1758078176.66092,0.0,0.0,0.0,-26.52795,22.34536,-17.76169,10.65,1.46,1.93,3.0
1758078189.98443,1758078176.67092,0.0,0.0,0.0,-26.06958,23.37668,-15.87093,10.65,1.46,1.93,3.0
1758078189.9853,1758078176.68092,0.0,0.0,0.0,-25.09555,25.38203,-12.71966,10.95,1.52,2.19,3.0
1758078190.00082,1758078176.69092,0.0,0.0,0.0,-24.5226,26.47065,-10.8289,11.34,1.71,2.29,3.0
1758078190.00373,1758078176.70092,0.0,0.0,0.0,-23.83505,28.24682,-8.99544,11.34,1.71,2.29,3.0
1758078190.0191,1758078176.71092,0.0,0.0,0.0,-22.68913,29.10626,-7.44845,11.93,2.02,2.57,3.0
1758078190.03672,1758078176.72092,0.0,0.0,0.0,-21.14215,29.50733,-5.4431,11.93,2.02,2.57,3.0
1758078190.03873,1758078176.73092,0.0,0.0,0.0,-20.16812,29.67921,-3.95341,12.52,2.36,2.87,3.0
1758078190.05443,1758078176.74092,0.0,0.0,0.0,-19.25138,29.39274,-2.97938,12.52,2.36,2.87,3.0
1758078190.05537,1758078176.75092,0.0,0.0,0.0,-18.9649,27.10091,-2.34913,13.19,2.62,3.16,3.0
1758078190.0709,1758078176.76092,0.0,0.0,0.0,-19.42327,26.64254,-2.00535,13.36,2.87,3.86,3.0
1758078190.07368,1758078176.77092,0.0,0.0,0.0,-19.88164,25.72581,-1.20321,13.36,2.87,3.86,3.0
1758078190.08941,1758078176.78092,0.0,0.0,0.0,-21.37133,24.29341,-0.80214,12.96,3.03,4.34,3.0
1758078190.10623,1758078176.79092,0.0,0.0,0.0,-23.94964,19.88164,-0.51566,12.96,3.03,4.34,3.0
1758078190.10873,1758078176.80092,0.0,0.0,0.0,-26.06958,16.10011,-0.45837,12.2,2.99,4.47,3.0
1758078190.1242,1758078176.81092,0.0,0.0,0.0,-28.36141,11.57375,-0.40107,12.2,2.99,4.47,3.0
1758078190.12538,1758078176.82092,0.0,0.0,0.0,-31.11161,6.8182,-0.68755,11.04,2.74,4.14,3.0
1758078190.1402,1758078176.83092,0.0,0.0,0.0,-35.12231,1.43239,-1.14592,9.74,2.35,3.57,3.0
1758078190.15621,1758078176.84092,0.0,0.0,0.0,-37.98711,-1.94806,-1.43239,9.74,2.35,3.57,3.0
1758078190.15768,1758078176.85092,0.0,0.0,0.0,-40.7946,-5.84417,-2.00535,8.51,2.05,3.1,3.0
1758078190.17331,1758078176.86092,0.0,0.0,0.0,-43.31561,-9.96947,-2.40642,8.51,2.05,3.1,3.0
1758078190.17496,1758078176.87092,0.0,0.0,0.0,-46.35228,-17.76169,-2.7502,7.44,1.85,2.9,3.0
1758078190.19054,1758078176.88092,0.0,0.0,0.0,-47.67009,-23.54857,-2.7502,7.44,1.85,2.9,3.0
1758078190.20701,1758078176.89092,0.0,0.0,0.0,-48.07116,-29.96569,-2.34913,6.64,1.46,2.86,3.0
1758078190.20821,1758078176.90092,0.0,0.0,0.0,-48.01387,-36.03905,-1.83346,6.64,1.46,2.86,3.0
1758078190.22427,1758078176.91092,0.0,0.0,0.0,-46.98254,-44.63341,-0.40107,6.19,0.84,2.82,3.0
1758078190.22518,1758078176.92092,0.0,0.0,0.0,-45.77933,-49.67545,0.85944,6.24,0.19,2.68,3.0
1758078190.24046,1758078176.93092,0.0,0.0,0.0,-44.23235,-52.54023,2.29183,6.24,0.19,2.68,3.0
1758078190.2572,1758078176.94092,0.0,0.0,0.0,-42.22699,-53.51426,4.18259,6.89,-0.12,2.57,3.0
1758078190.25819,1758078176.95092,0.0,0.0,0.0,-40.96649,-52.9986,5.21392,6.89,-0.12,2.57,3.0
1758078190.2743,1758078176.96092,0.0,0.0,0.0,-40.04975,-51.73809,5.61499,7.38,-0.06,2.48,3.0
1758078190.27518,1758078176.97092,0.0,0.0,0.0,-39.24761,-50.01921,5.72958,7.38,-0.06,2.48,3.0
1758078190.29427,1758078176.98092,0.0,0.0,0.0,-38.50277,-46.35228,5.4431,7.7,0.23,2.56,3.0
1758078190.29713,1758078176.99092,0.0,0.0,0.0,-38.44547,-42.74266,5.27121,7.95,0.6,2.5,3.0
1758078190.31222,1758078177.00092,0.0,0.0,0.0,-38.38818,-39.64868,5.32851,7.95,0.6,2.5,3.0
1758078190.31457,1758078177.01092,0.0,0.0,0.0,-38.1017,-35.86716,5.55769,8.04,0.77,2.6,3.0
1758078190.32951,1758078177.02092,0.0,0.0,0.0,-37.98711,-28.70519,6.24524,8.04,0.77,2.6,3.0
1758078190.34656,1758078177.03092,0.0,0.0,0.0,-37.64333,-22.63183,6.35983,8.4,0.57,2.58,3.0
1758078190.34932,1758078177.04092,0.0,0.0,0.0,-36.7266,-15.87093,6.24524,8.4,0.57,2.58,3.0
1758078190.36473,1758078177.05092,0.0,0.0,0.0,-35.69527,-9.39651,6.07335,8.72,0.13,2.44,3.0
1758078190.37149,1758078177.06092,0.0,0.0,0.0,-33.05967,-2.11994,4.69825,8.75,-0.13,2.35,3.0
1758078190.3863,1758078177.07092,0.0,0.0,0.0,-30.76784,1.66158,3.95341,8.75,-0.13,2.35,3.0
1758078190.39073,1758078177.08092,0.0,0.0,0.0,-28.24682,5.27121,3.20856,8.94,-0.06,2.24,3.0
1758078190.40655,1758078177.09092,0.0,0.0,0.0,-25.7831,8.59437,2.46372,8.94,-0.06,2.24,3.0
1758078190.40942,1758078177.10092,0.0,0.0,0.0,-22.40265,12.60507,1.66158,9.18,0.18,2.3,3.0
1758078190.42454,1758078177.11092,0.0,0.0,0.0,-20.22541,14.20935,1.20321,9.18,0.18,2.3,3.0
1758078190.42544,1758078177.12092,0.0,0.0,0.0,-18.44924,15.12609,0.97403,9.29,0.45,2.59,3.0
1758078190.44054,1758078177.13092,0.0,0.0,0.0,-16.95955,16.38659,0.51566,9.29,0.45,2.59,3.0
1758078190.44384,1758078177.14092,0.0,0.0,0.0,-15.46986,18.44924,-0.22918,9.37,0.57,2.76,3.0
1758078190.45927,1758078177.15092,0.0,0.0,0.0,-14.61043,18.79302,-0.40107,9.26,0.57,2.96,3.0
1758078190.47527,1758078177.16092,0.0,0.0,0.0,-13.80828,17.76169,-0.22918,9.26,0.57,2.96,3.0
1758078190.47883,1758078177.17092,0.0,0.0,0.0,-12.08941,13.06344,0.74485,8.81,0.37,2.88,3.0
1758078190.49462,1758078177.18092,0.0,0.0,0.0,-11.00079,10.8289,1.3751,8.81,0.37,2.88,3.0
1758078190.49658,1758078177.19092,0.0,0.0,0.0,-10.19865,10.25595,1.83346,8.79,0.01,2.52,3.0
1758078190.5113,1758078177.20092,0.0,0.0,0.0,-9.39651,8.93814,2.23454,8.79,0.01,2.52,3.0
1758078190.51292,1758078177.21092,0.0,0.0,0.0,-8.47978,6.7609,2.06265,8.73,-0.14,2.34,3.0
1758078190.52935,1758078177.22092,0.0,0.0,0.0,-7.96411,5.27121,1.94806,8.63,0.01,2.27,3.0
1758078190.54529,1758078177.23092,0.0,0.0,0.0,-7.10468,3.66693,1.14592,8.63,0.01,2.27,3.0
1758078190.54657,1758078177.24092,0.0,0.0,0.0,-6.24524,1.43239,0.22918,8.6,0.16,2.19,3.0
1758078190.5616,1758078177.25092,0.0,0.0,0.0,-5.15662,-1.14592,-1.3751,8.6,0.16,2.19,3.0
1758078190.5633,1758078177.26092,0.0,0.0,0.0,-4.18259,-2.46372,-2.00535,8.76,0.24,2.08,3.0
1758078190.57931,1758078177.27092,0.0,0.0,0.0,-3.09397,-1.03132,-2.7502,8.76,0.24,2.08,3.0
1758078190.59829,1758078177.28092,0.0,0.0,0.0,-2.46372,1.20321,-3.32316,9.16,0.23,2.03,3.0
1758078190.59998,1758078177.29092,0.0,0.0,0.0,-1.60428,4.29718,-3.95341,9.17,0.16,2.45,3.0
1758078190.61566,1758078177.30092,0.0,0.0,0.0,-0.97403,6.87549,-4.0107,9.17,0.16,2.45,3.0
1758078190.61731,1758078177.31092,0.0,0.0,0.0,-0.11459,8.47978,-3.89611,9.21,0.12,2.72,3.0
1758078190.63234,1758078177.32092,0.0,0.0,0.0,0.74485,9.33921,-3.83882,9.21,0.12,2.72,3.0
1758078190.63354,1758078177.33092,0.0,0.0,0.0,2.86479,9.4538,-2.86479,9.24,0.04,2.8,3.0
1758078190.64829,1758078177.34092,0.0,0.0,0.0,4.46907,8.93814,-2.29183,9.24,0.04,2.8,3.0
1758078190.66441,1758078177.35092,0.0,0.0,0.0,5.95876,7.04738,-1.77617,9.29,-0.04,2.56,3.0
1758078190.66561,1758078177.36092,0.0,0.0,0.0,7.96411,3.32316,-1.14592,9.29,-0.04,2.56,3.0
1758078190.68035,1758078177.37092,0.0,0.0,0.0,9.62569,-4.35448,-0.57296,9.07,-0.13,2.59,3.0
1758078190.69678,1758078177.38092,0.0,0.0,0.0,11.45916,-10.59972,-0.17189,8.86,-0.23,2.52,3.0
1758078190.69762,1758078177.39092,0.0,0.0,0.0,13.75099,-17.24603,0.74485,8.86,-0.23,2.52,3.0
1758078190.71268,1758078177.40092,0.0,0.0,0.0,17.47521,-25.7831,2.97938,8.85,-0.44,2.39,3.0
1758078190.7136,1758078177.41092,0.0,0.0,0.0,20.68378,-29.33544,5.27121,8.85,-0.44,2.39,3.0
1758078190.72941,1758078177.42092,0.0,0.0,0.0,23.54857,-31.28349,7.50575,9.17,-0.69,2.11,3.0
1758078190.74569,1758078177.43092,0.0,0.0,0.0,26.24147,-31.51268,9.68299,9.17,-0.69,2.11,3.0
1758078190.74819,1758078177.44092,0.0,0.0,0.0,30.53865,-30.19488,13.06344,9.46,-0.83,1.99,3.0
1758078190.76342,1758078177.45092,0.0,0.0,0.0,33.00237,-28.01764,14.83961,9.45,-0.76,1.86,3.0
1758078190.76492,1758078177.46092,0.0,0.0,0.0,35.00772,-27.10091,16.61578,9.45,-0.76,1.86,3.0
1758078190.77941,1758078177.47092,0.0,0.0,0.0,37.12767,-26.87172,17.76169,9.5,-0.44,2.05,3.0
1758078190.78284,1758078177.48092,0.0,0.0,0.0,38.56006,-25.61122,19.42327,9.5,-0.44,2.05,3.0
1758078190.79844,1758078177.49092,0.0,0.0,0.0,38.38818,-22.40265,19.59516,10.65,0.11,2.42,3.0
1758078190.81447,1758078177.50092,0.0,0.0,0.0,37.18496,-17.36062,19.07949,10.65,0.11,2.42,3.0
1758078190.81718,1758078177.51092,0.0,0.0,0.0,34.66395,-12.37589,18.73572,11.82,1.0,3.44,3.0
1758078190.83275,1758078177.52092,0.0,0.0,0.0,32.20023,-17.76169,13.5791,10.71,1.63,3.74,3.0
1758078190.83408,1758078177.53092,0.0,0.0,0.0,33.63263,-41.88322,15.29797,10.71,1.63,3.74,3.0
1758078190.84874,1758078177.54092,0.0,0.0,0.0,33.86181,-46.98254,16.3293,9.13,1.58,2.39,3.0
1758078190.86473,1758078177.55092,0.0,0.0,0.0,35.40879,-37.75792,20.05352,9.13,1.58,2.39,3.0
1758078190.86568,1758078177.56092,0.0,0.0,0.0,36.32552,-21.25674,18.85031,11.01,0.79,1.02,3.0
1758078190.88051,1758078177.57092,0.0,0.0,0.0,35.92446,-14.9542,18.33465,11.01,0.79,1.02,3.0
1758078190.89676,1758078177.58092,0.0,0.0,0.0,33.40344,-9.62569,14.78231,9.41,0.5,1.51,3.0
1758078190.89713,1758078177.59092,0.0,0.0,0.0,27.78845,3.49504,8.70896,9.41,0.5,1.51,3.0
1758078190.91245,1758078177.60092,0.0,0.0,0.0,24.12152,9.22462,4.29718,9.86,0.88,2.59,3.0
1758078190.91364,1758078177.61092,0.0,0.0,0.0,20.97026,11.17268,0.45837,9.89,1.79,2.29,3.0
1758078190.92869,1758078177.62092,0.0,0.0,0.0,18.33465,11.22997,-2.23454,9.89,1.79,2.29,3.0
1758078190.94454,1758078177.63092,0.0,0.0,0.0,15.12609,12.77696,-4.58366,9.83,2.33,2.09,3.0
1758078190.94919,1758078177.64092,0.0,0.0,0.0,13.40721,13.00614,-5.32851,9.83,2.33,2.09,3.0
1758078190.96476,1758078177.65092,0.0,0.0,0.0,12.54778,12.71966,-4.92744,9.58,2.03,1.8,3.0
1758078190.9687,1758078177.66092,0.0,0.0,0.0,12.08941,12.60507,-4.29718,9.58,2.03,1.8,3.0
1758078190.98345,1758078177.67092,0.0,0.0,0.0,13.12073,11.80293,-2.86479,9.41,1.2,2.08,3.0
1758078190.98475,1758078177.68092,0.0,0.0,0.0,14.83961,10.25595,-2.06265,9.46,0.43,2.14,3.0
1758078190.99976,1758078177.69092,0.0,0.0,0.0,17.13144,9.91217,-1.60428,9.46,0.43,2.14,3.0
1758078191.01677,1758078177.70092,0.0,0.0,0.0,19.99623,9.4538,-1.14592,9.66,0.09,1.91,3.0
1758078191.01724,1758078177.71092,0.0,0.0,0.0,24.63719,9.33921,-0.80214,9.66,0.09,1.91,3.0
1758078191.03254,1758078177.72092,0.0,0.0,0.0,28.01764,11.74564,0.74485,9.55,0.26,1.79,3.0
1758078191.03457,1758078177.73092,0.0,0.0,0.0,30.53865,11.57375,2.34913,9.55,0.26,1.79,3.0
1758078191.04947,1758078177.74092,0.0,0.0,0.0,32.37212,11.17268,3.49504,9.23,0.57,1.88,3.0
1758078191.06654,1758078177.75092,0.0,0.0,0.0,33.34615,12.71966,4.58366,9.78,1.16,1.76,3.0
1758078191.06705,1758078177.76092,0.0,0.0,0.0,33.11696,12.60507,4.81285,9.78,1.16,1.76,3.0
1758078191.08386,1758078177.77092,0.0,0.0,0.0,32.77319,11.57375,5.09932,10.13,1.65,1.76,3.0
1758078191.0847,1758078177.78092,0.0,0.0,0.0,31.85646,9.74028,4.69825,10.13,1.65,1.76,3.0
1758078191.09974,1758078177.79092,0.0,0.0,0.0,31.2262,8.93814,4.46907,10.4,1.84,1.66,3.0
1758078191.10288,1758078177.80092,0.0,0.0,0.0,30.25217,9.22462,3.83882,10.4,1.84,1.66,3.0
1758078191.11877,1758078177.81092,0.0,0.0,0.0,28.76248,9.62569,2.92208,10.25,1.88,1.53,3.0
1758078191.1346,1758078177.82092,0.0,0.0,0.0,25.38203,6.87549,0.0,10.25,1.88,1.53,3.0
1758078191.13762,1758078177.83092,0.0,0.0,0.0,22.68913,2.57831,-2.06265,9.68,1.97,1.66,3.0
1758078191.15441,1758078177.84092,0.0,0.0,0.0,19.88164,-0.57296,-4.23989,9.41,2.21,1.3,3.0
1758078191.15615,1758078177.85092,0.0,0.0,0.0,17.47521,-3.03668,-5.78687,9.41,2.21,1.3,3.0
1758078191.17423,1758078177.86092,0.0,0.0,0.0,13.80828,-3.60963,-8.47978,9.63,2.34,1.15,3.0
1758078191.17561,1758078177.87092,0.0,0.0,0.0,11.97482,-4.35448,-9.62569,9.63,2.34,1.15,3.0
1758078191.19323,1758078177.88092,0.0,0.0,0.0,10.54242,-5.55769,-10.71431,9.5,2.09,1.23,3.0
1758078191.19415,1758078177.89092,0.0,0.0,0.0,9.68299,-7.16197,-11.22997,9.5,2.09,1.23,3.0
1758078191.20995,1758078177.90092,0.0,0.0,0.0,8.93814,-8.42248,-11.28727,9.46,1.74,1.17,3.0
1758078191.21152,1758078177.91092,0.0,0.0,0.0,8.93814,-8.65166,-11.17268,9.56,1.38,1.13,3.0
1758078191.22877,1758078177.92092,0.0,0.0,0.0,9.39651,-9.33921,-10.71431,9.56,1.38,1.13,3.0
1758078191.24472,1758078177.93092,0.0,0.0,0.0,10.25595,-10.37054,-9.85487,9.43,1.07,1.1,3.0
1758078191.24903,1758078177.94092,0.0,0.0,0.0,11.86023,-9.5684,-8.30789,9.43,1.07,1.1,3.0
1758078191.26495,1758078177.95092,0.0,0.0,0.0,12.77696,-9.05273,-7.16197,9.56,0.89,1.21,3.0
1758078191.26678,1758078177.96092,0.0,0.0,0.0,13.69369,-8.88085,-5.90147,9.56,0.89,1.21,3.0
1758078191.28424,1758078177.97092,0.0,0.0,0.0,14.38124,-7.16197,-4.81285,9.56,0.93,1.25,3.0
1758078191.28517,1758078177.98092,0.0,0.0,0.0,14.49583,-6.41713,-4.18259,9.6,1.19,1.38,3.0
1758078191.30096,1758078177.99092,0.0,0.0,0.0,14.61043,-6.87549,-3.49504,9.6,1.19,1.38,3.0
1758078191.30177,1758078178.00092,0.0,0.0,0.0,14.15206,-6.41713,-3.26586,9.6,1.45,1.28,3.0
1758078191.3172,1758078178.01092,0.0,0.0,0.0,13.17803,-4.87014,-2.29183,9.6,1.45,1.28,3.0
1758078191.33365,1758078178.02092,0.0,0.0,0.0,12.08941,-4.87014,-2.11994,9.72,1.74,1.25,3.0
1758078191.33463,1758078178.03092,0.0,0.0,0.0,10.02676,-8.0787,-2.29183,9.72,1.74,1.25,3.0
1758078191.35042,1758078178.04092,0.0,0.0,0.0,8.136,-12.89155,-2.40642,9.38,2.02,1.35,3.0
1758078191.35404,1758078178.05092,0.0,0.0,0.0,4.1253,-13.5791,-3.66693,9.74,2.02,1.17,3.0
1758078191.37044,1758078178.06092,0.0,0.0,0.0,1.48969,-11.17268,-4.35448,9.74,2.28,1.17,3.0
1758078191.37398,1758078178.07092,0.0,0.0,0.0,-0.97403,-7.44845,-4.81285,10.09,2.32,1.2,3.0
1758078191.38989,1758078178.08092,0.0,0.0,0.0,-3.60963,-4.46907,-5.72958,10.09,2.32,1.2,3.0
1758078191.39083,1758078178.09092,0.0,0.0,0.0,-7.84952,-1.77617,-7.33386,9.86,2.29,1.47,3.0
1758078191.40621,1758078178.10092,0.0,0.0,0.0,-10.54242,-0.51566,-8.99544,9.86,2.29,1.47,3.0
1758078191.42266,1758078178.11092,0.0,0.0,0.0,-13.5218,0.85944,-11.86023,9.81,2.36,1.4,3.0
1758078191.42362,1758078178.12092,0.0,0.0,0.0,-15.58445,0.40107,-14.20935,9.81,2.36,1.4,3.0
1758078191.43898,1758078178.13092,0.0,0.0,0.0,-17.58981,-0.85944,-15.69904,9.64,2.59,1.12,3.0
1758078191.45498,1758078178.14092,0.0,0.0,0.0,-17.36062,-1.14592,-15.75634,9.55,2.44,0.58,3.0
1758078191.45701,1758078178.15092,0.0,0.0,0.0,-16.55848,-4.69825,-14.09476,9.55,2.44,0.58,3.0
1758078191.4717,1758078178.16092,0.0,0.0,0.0,-17.87628,-15.29797,-14.61043,8.75,1.9,0.73,3.0
1758078191.47289,1758078178.17092,0.0,0.0,0.0,-18.50654,-23.54857,-10.48513,8.75,1.9,0.73,3.0
1758078191.48878,1758078178.18092,0.0,0.0,0.0,-21.02755,5.4431,-15.75634,10.75,2.01,0.54,3.0
1758078191.505,1758078178.19092,0.0,0.0,0.0,-24.5226,17.13144,-17.76169,10.75,2.01,0.54,3.0
1758078191.50595,1758078178.20092,0.0,0.0,0.0,-29.62192,12.08941,-19.82434,10.96,2.13,0.88,3.0
1758078191.52098,1758078178.21092,0.0,0.0,0.0,-32.6013,10.65701,-20.85567,9.31,2.53,2.55,3.0
1758078191.52289,1758078178.22092,0.0,0.0,0.0,-33.86181,9.22462,-20.68378,9.31,2.53,2.55,3.0
1758078191.53994,1758078178.23092,0.0,0.0,0.0,-35.12231,5.90147,-19.13679,9.57,2.62,1.01,3.0
1758078191.54248,1758078178.24092,0.0,0.0,0.0,-35.52338,5.27121,-14.32395,9.57,2.62,1.01,3.0
1758078191.55867,1758078178.25092,0.0,0.0,0.0,-35.40879,7.10468,-10.8862,9.85,2.05,0.19,3.0
1758078191.57475,1758078178.26092,0.0,0.0,0.0,-35.00772,8.76626,-7.39116,9.85,2.05,0.19,3.0
1758078191.577,1758078178.27092,0.0,0.0,0.0,-34.49206,10.19865,-4.46907,9.97,1.18,0.58,3.0
1758078191.59258,1758078178.28092,0.0,0.0,0.0,-33.11696,6.7609,-1.66158,9.92,0.71,1.57,3.0
1758078191.59451,1758078178.29092,0.0,0.0,0.0,-31.97105,1.71887,-1.48969,9.92,0.71,1.57,3.0
1758078191.61086,1758078178.30092,0.0,0.0,0.0,-30.76784,-3.26586,-2.34913,10.15,1.08,2.22,3.0
1758078191.61438,1758078178.31092,0.0,0.0,0.0,-29.33544,-5.90147,-4.1253,10.15,1.08,2.22,3.0
1758078191.62981,1758078178.32092,0.0,0.0,0.0,-27.78845,-4.81285,-7.04738,10.85,1.89,2.16,3.0
1758078191.63145,1758078178.33092,0.0,0.0,0.0,-26.75713,-2.00535,-8.25059,10.85,1.89,2.16,3.0
1758078191.64699,1758078178.34092,0.0,0.0,0.0,-26.64254,1.60428,-8.99544,11.11,2.37,1.78,3.0
1758078191.66402,1758078178.35092,0.0,0.0,0.0,-27.04361,5.09932,-9.05273,11.11,2.37,1.78,3.0
1758078191.66495,1758078178.36092,0.0,0.0,0.0,-28.30412,9.74028,-8.42248,11.2,2.41,1.65,3.0
1758078191.68078,1758078178.37092,0.0,0.0,0.0,-28.99167,13.40721,-7.67763,11.48,2.28,1.86,3.0
1758078191.68417,1758078178.38092,0.0,0.0,0.0,-29.22085,15.64175,-6.99009,11.48,2.28,1.86,3.0
1758078191.70004,1758078178.39092,0.0,0.0,0.0,-29.04896,15.75634,-6.07335,11.49,2.1,1.93,3.0
1758078191.70173,1758078178.40092,0.0,0.0,0.0,-28.476,14.83961,-6.07335,11.49,2.1,1.93,3.0
1758078191.71775,1758078178.41092,0.0,0.0,0.0,-27.44468,14.78231,-6.35983,11.97,1.98,2.07,3.0
1758078191.73409,1758078178.42092,0.0,0.0,0.0,-26.06958,15.98552,-6.8182,11.97,1.98,2.07,3.0
1758078191.73699,1758078178.43092,0.0,0.0,0.0,-23.54857,17.81899,-7.67763,12.95,2.07,2.31,3.0
1758078191.75414,1758078178.44092,0.0,0.0,0.0,-21.6578,19.76705,-8.30789,13.75,2.37,2.86,3.0
1758078191.757,1758078178.45092,0.0,0.0,0.0,-20.45459,21.60051,-8.70896,13.75,2.37,2.86,3.0
1758078191.77208,1758078178.46092,0.0,0.0,0.0,-19.59516,24.5226,-9.05273,14.24,2.76,3.09,3.0
1758078191.77299,1758078178.47092,0.0,0.0,0.0,-19.59516,28.41871,-8.88085,14.24,2.76,3.09,3.0
1758078191.7887,1758078178.48092,0.0,0.0,0.0,-20.68378,28.93437,-8.42248,14.17,3.11,3.37,3.0
1758078191.80514,1758078178.49092,0.0,0.0,0.0,-22.23076,26.98631,-7.79223,14.17,3.11,3.37,3.0
1758078191.80677,1758078178.50092,0.0,0.0,0.0,-24.00693,24.35071,-6.8182,13.38,3.25,3.51,3.0
1758078191.8221,1758078178.51092,0.0,0.0,0.0,-27.04361,20.85567,-5.55769,12.53,2.96,3.3,3.0
1758078191.82415,1758078178.52092,0.0,0.0,0.0,-29.39274,18.90761,-5.21392,12.53,2.96,3.3,3.0
1758078191.83884,1758078178.53092,0.0,0.0,0.0,-31.85646,16.73037,-4.98473,11.37,2.46,3.09,3.0
1758078191.85485,1758078178.54092,0.0,0.0,0.0,-34.26288,14.61043,-4.98473,11.37,2.46,3.09,3.0
1758078191.85694,1758078178.55092,0.0,0.0,0.0,-37.52874,11.11538,-5.21392,9.94,2.1,2.61,3.0
1758078191.87342,1758078178.56092,0.0,0.0,0.0,-39.64868,7.79223,-5.61499,9.94,2.1,2.61,3.0
1758078191.87462,1758078178.57092,0.0,0.0,0.0,-41.36755,3.89611,-6.18794,8.42,1.87,2.25,3.0
1758078191.89142,1758078178.58092,0.0,0.0,0.0,-42.74266,-0.51566,-6.8182,8.42,1.87,2.25,3.0
1758078191.8942,1758078178.59092,0.0,0.0,0.0,-43.65939,-8.70896,-6.87549,7.2,1.61,2.05,3.0
1758078191.9114,1758078178.60092,0.0,0.0,0.0,-43.37291,-14.72501,-6.87549,6.29,1.23,2.03,3.0
1758078191.91419,1758078178.61092,0.0,0.0,0.0,-42.39888,-19.59516,-6.53172,6.29,1.23,2.03,3.0
1758078191.93144,1758078178.62092,0.0,0.0,0.0,-40.27893,-26.12688,-6.07335,6.01,0.61,2.0,3.0
1758078191.93418,1758078178.63092,0.0,0.0,0.0,-38.38818,-29.96569,-5.72958,6.01,0.61,2.0,3.0
1758078191.95013,1758078178.64092,0.0,0.0,0.0,-36.21093,-33.05967,-4.98473,6.06,0.01,2.21,3.0
1758078191.95181,1758078178.65092,0.0,0.0,0.0,-33.68992,-35.58068,-4.23989,6.06,0.01,2.21,3.0
1758078191.96691,1758078178.66092,0.0,0.0,0.0,-30.13758,-38.44547,-2.92208,6.59,-0.2,2.31,3.0
1758078191.98426,1758078178.67092,0.0,0.0,0.0,-28.07493,-38.38818,-2.29183,7.31,-0.07,2.28,3.0
1758078191.98587,1758078178.68092,0.0,0.0,0.0,-26.24147,-36.38282,-1.71887,7.31,-0.07,2.28,3.0
1758078192.00112,1758078178.69092,0.0,0.0,0.0,-25.21014,-33.9764,-1.08862,7.9,0.18,2.29,3.0
1758078192.00287,1758078178.70092,0.0,0.0,0.0,-24.29341,-30.02299,0.51566,7.9,0.18,2.29,3.0
1758078192.01784,1758078178.71092,0.0,0.0,0.0,-24.12152,-27.10091,2.00535,8.22,0.46,2.44,3.0
1758078192.03386,1758078178.72092,0.0,0.0,0.0,-24.00693,-23.89234,3.49504,8.22,0.46,2.44,3.0
1758078192.03701,1758078178.73092,0.0,0.0,0.0,-24.12152,-19.76705,4.81285,8.83,0.6,2.68,3.0
1758078192.05185,1758078178.74092,0.0,0.0,0.0,-24.80907,-12.43318,6.18794,9.4,0.67,2.69,3.0
1758078192.05814,1758078178.75092,0.0,0.0,0.0,-25.26744,-7.04738,6.24524,9.4,0.67,2.69,3.0
1758078192.07292,1758078178.76092,0.0,0.0,0.0,-25.55392,-2.29183,6.41713,9.55,0.76,2.59,3.0
1758078192.07401,1758078178.77092,0.0,0.0,0.0,-25.8404,1.94806,6.13065,9.55,0.76,2.59,3.0
1758078192.08916,1758078178.78092,0.0,0.0,0.0,-25.89769,6.7609,5.27121,9.32,0.83,2.51,3.0
1758078192.10492,1758078178.79092,0.0,0.0,0.0,-25.8404,10.19865,4.46907,9.32,0.83,2.51,3.0
1758078192.10688,1758078178.80092,0.0,0.0,0.0,-25.26744,12.71966,3.83882,9.37,0.83,2.33,3.0
1758078192.12385,1758078178.81092,0.0,0.0,0.0,-24.57989,16.61578,2.86479,9.37,0.83,2.33,3.0
1758078192.12495,1758078178.82092,0.0,0.0,0.0,-23.94964,19.36597,2.00535,9.47,0.78,2.44,3.0
1758078192.14015,1758078178.83092,0.0,0.0,0.0,-23.26209,21.7724,1.60428,9.49,0.75,2.63,3.0
1758078192.1586,1758078178.84092,0.0,0.0,0.0,-22.86102,23.31938,1.03132,9.49,0.75,2.63,3.0
1758078192.1588,1758078178.85092,0.0,0.0,0.0,-22.34536,24.12152,0.51566,9.23,0.78,2.75,3.0
1758078192.17318,1758078178.86092,0.0,0.0,0.0,-21.48592,23.72045,0.68755,9.23,0.78,2.75,3.0
1758078192.17429,1758078178.87092,0.0,0.0,0.0,-20.16812,22.28806,1.43239,8.95,0.67,2.79,3.0
1758078192.18932,1758078178.88092,0.0,0.0,0.0,-18.73572,19.99623,2.40642,8.95,0.67,2.79,3.0
1758078192.2091,1758078178.89092,0.0,0.0,0.0,-16.3293,17.47521,4.1253,8.69,0.32,2.44,3.0
1758078192.211,1758078178.90092,0.0,0.0,0.0,-14.72501,16.73037,4.81285,8.72,-0.13,2.28,3.0
1758078192.21424,1758078178.91092,0.0,0.0,0.0,-13.00614,15.35527,5.55769,8.72,-0.13,2.28,3.0
1758078192.23103,1758078178.92092,0.0,0.0,0.0,-11.28727,13.12073,5.90147,8.38,-0.41,2.22,3.0
1758078192.23305,1758078178.93092,0.0,0.0,0.0,-8.59437,10.8289,5.78687,8.38,-0.41,2.22,3.0
1758078192.24873,1758078178.94092,0.0,0.0,0.0,-6.53172,8.30789,5.50039,8.33,-0.35,2.14,3.0
1758078192.26498,1758078178.95092,0.0,0.0,0.0,-4.64096,5.78687,4.69825,8.33,-0.35,2.14,3.0
1758078192.26702,1758078178.96092,0.0,0.0,0.0,-2.57831,3.72423,3.95341,8.27,-0.05,1.95,3.0
1758078192.28422,1758078178.97092,0.0,0.0,0.0,0.57296,1.66158,2.6929,8.47,0.2,1.84,3.0
1758078192.28675,1758078178.98092,0.0,0.0,0.0,2.7502,2.86479,1.66158,8.47,0.2,1.84,3.0
1758078192.30215,1758078178.99092,0.0,0.0,0.0,4.46907,5.27121,0.45837,8.83,0.29,1.86,3.0
1758078192.3043,1758078179.00092,0.0,0.0,0.0,5.90147,8.93814,-0.80214,8.83,0.29,1.86,3.0
1758078192.31892,1758078179.01092,0.0,0.0,0.0,7.44845,12.43318,-1.66158,8.89,0.33,2.41,3.0
1758078192.32094,1758078179.02092,0.0,0.0,0.0,8.42248,14.72501,-2.23454,8.89,0.33,2.41,3.0
1758078192.33831,1758078179.03092,0.0,0.0,0.0,9.68299,16.10011,-1.77617,8.96,0.27,2.67,3.0
1758078192.35896,1758078179.04092,0.0,0.0,0.0,11.17268,11.28727,-1.43239,8.96,0.27,2.67,3.0
1758078192.36026,1758078179.05092,0.0,0.0,0.0,12.2613,6.87549,-1.60428,8.75,0.05,2.6,3.0
1758078192.47374,1758078179.06092,0.0,0.0,0.0,13.46451,2.46372,-1.43239,8.97,-0.21,2.24,3.0
1758078192.47763,1758078179.07092,0.0,0.0,0.0,15.24068,-2.97938,-1.14592,8.97,-0.21,2.24,3.0
1758078192.47873,1758078179.08092,0.0,0.0,0.0,19.13679,-12.2613,0.0,8.89,-0.41,2.17,3.0
1758078192.48109,1758078179.09092,0.0,0.0,0.0,23.0902,-19.42327,1.14592,8.89,-0.41,2.17,3.0
1758078192.48152,1758078179.10092,0.0,0.0,0.0,26.98631,-25.7831,2.63561,8.67,-0.68,2.08,3.0
1758078192.48355,1758078179.11092,0.0,0.0,0.0,31.16891,-30.36677,4.58366,8.67,-0.68,2.08,3.0
1758078192.484,1758078179.12092,0.0,0.0,0.0,38.50277,-33.63263,7.44845,8.9,-1.07,1.68,3.0
1758078192.48506,1758078179.13092,0.0,0.0,0.0,44.17505,-33.00237,9.62569,9.54,-1.26,1.53,3.0
1758078192.48914,1758078179.14092,0.0,0.0,0.0,49.50356,-30.99702,11.34457,9.54,-1.26,1.53,3.0
1758078192.48989,1758078179.15092,0.0,0.0,0.0,54.3164,-29.10626,13.17803,10.11,-0.91,2.04,3.0
1758078192.4934,1758078179.16092,0.0,0.0,0.0,59.53032,-25.72581,14.49583,10.11,-0.91,2.04,3.0
1758078192.49412,1758078179.17092,0.0,0.0,0.0,61.70755,-25.38203,15.06879,10.59,-0.23,2.6,3.0
1758078192.49845,1758078179.18092,0.0,0.0,0.0,62.91077,-25.21014,16.3293,10.59,-0.23,2.6,3.0
1758078192.49919,1758078179.19092,0.0,0.0,0.0,62.68159,-26.41335,17.93358,10.98,0.67,3.2,3.0
1758078192.51822,1758078179.20092,0.0,0.0,0.0,58.84277,-24.63719,19.48057,11.94,1.64,3.88,3.0
1758078192.51939,1758078179.21092,0.0,0.0,0.0,54.25911,-18.9649,19.36597,11.94,1.64,3.88,3.0
1758078192.5377,1758078179.22092,0.0,0.0,0.0,48.9306,-15.69904,17.93358,12.06,2.46,4.43,3.0
1758078192.53872,1758078179.23092,0.0,0.0,0.0,41.94051,-33.34615,14.09476,12.06,2.46,4.43,3.0
1758078192.55437,1758078179.24092,0.0,0.0,0.0,43.14373,-48.9306,13.69369,8.44,2.9,3.28,3.0
1758078192.55795,1758078179.25092,0.0,0.0,0.0,44.8053,-41.94051,12.60507,8.44,2.9,3.28,3.0
1758078192.57382,1758078179.26092,0.0,0.0,0.0,44.46153,-29.04896,11.74564,10.32,2.32,1.04,3.0
1758078192.57662,1758078179.27092,0.0,0.0,0.0,44.46153,-22.28806,8.99544,10.32,2.32,1.44,3.0
1758078192.5929,1758078179.28092,0.0,0.0,0.0,43.4875,-19.53786,6.7609,9.46,2.03,1.44,3.0
1758078192.59407,1758078179.29092,0.0,0.0,0.0,41.71133,-13.06344,2.6929,9.35,1.73,2.88,3.0
1758078192.60936,1758078179.30092,0.0,0.0,0.0,39.76327,-8.76626,-0.51566,9.35,1.73,2.88,3.0
1758078192.61346,1758078179.31092,0.0,0.0,0.0,37.58603,-3.72423,-4.64096,9.32,2.02,2.56,3.0
1758078192.62936,1758078179.32092,0.0,0.0,0.0,36.49741,2.6929,-5.72958,9.32,2.02,2.56,3.0
1758078192.63349,1758078179.33092,0.0,0.0,0.0,35.63798,8.36518,-4.64096,9.59,2.49,2.0,3.0
1758078192.64923,1758078179.34092,0.0,0.0,0.0,34.32018,11.45916,-3.26586,9.59,2.49,2.0,3.0
1758078192.66626,1758078179.35092,0.0,0.0,0.0,32.37212,15.35527,-0.85944,9.33,2.47,1.48,3.0
1758078192.66882,1758078179.36092,0.0,0.0,0.0,31.28349,18.73572,0.34377,10.05,1.88,1.65,3.0
1758078192.68444,1758078179.37092,0.0,0.0,0.0,30.99702,23.0329,1.3178,10.05,1.88,1.65,3.0
1758078192.68528,1758078179.38092,0.0,0.0,0.0,31.79916,27.78845,2.23454,10.36,1.3,1.46,3.0
1758078192.70116,1758078179.39092,0.0,0.0,0.0,34.43476,33.46074,3.09397,10.36,1.3,1.46,3.0
1758078192.70373,1758078179.40092,0.0,0.0,0.0,36.32552,37.35685,3.83882,10.16,1.0,1.29,3.0
1758078192.71909,1758078179.41092,0.0,0.0,0.0,38.21629,39.76327,4.52637,10.16,1.0,1.29,3.0
1758078192.73913,1758078179.42092,0.0,0.0,0.0,41.31026,38.84654,5.72958,9.89,1.06,1.18,3.0
1758078192.79447,1758078179.43092,0.0,0.0,0.0,42.57077,33.9764,6.47442,9.6,1.33,1.4,3.0
1758078192.79693,1758078179.44092,0.0,0.0,0.0,42.97184,29.8511,6.41713,9.6,1.33,1.4,3.0
1758078192.7979,1758078179.45092,0.0,0.0,0.0,42.28429,24.29341,5.78687,9.66,1.77,1.59,3.0
1758078192.79851,1758078179.46092,0.0,0.0,0.0,39.70598,12.2613,4.23989,9.66,1.77,1.59,3.0
1758078192.80059,1758078179.47092,0.0,0.0,0.0,37.12767,6.7609,2.6929,9.31,2.33,1.5,3.0
1758078192.80387,1758078179.48092,0.0,0.0,0.0,34.09099,3.49504,1.20321,9.31,2.33,1.5,3.0
1758078192.8043,1758078179.49092,0.0,0.0,0.0,30.59595,1.48969,-0.40107,9.32,2.81,1.68,3.0
1758078192.80858,1758078179.50092,0.0,0.0,0.0,25.72581,-1.60428,-2.7502,8.96,2.81,1.63,3.0
1758078192.82449,1758078179.51092,0.0,0.0,0.0,23.0902,-3.38045,-4.1253,8.96,2.99,1.63,3.0
1758078192.82958,1758078179.52092,0.0,0.0,0.0,20.85567,-3.83882,-5.15662,9.0,2.8,1.6,3.0
1758078192.84446,1758078179.53092,0.0,0.0,0.0,19.25138,-3.55234,-5.95876,9.0,2.8,1.6,3.0
1758078192.84863,1758078179.54092,0.0,0.0,0.0,18.10547,-3.66693,-6.35983,9.2,2.24,1.44,3.0
1758078192.86434,1758078179.55092,0.0,0.0,0.0,17.99088,-3.20856,-5.90147,9.2,2.24,1.44,3.0
1758078192.86704,1758078179.56092,0.0,0.0,0.0,18.33465,-2.00535,-4.92744,9.45,1.72,1.44,3.0
1758078192.88302,1758078179.57092,0.0,0.0,0.0,18.90761,-0.40107,-3.95341,9.45,1.72,1.44,3.0
1758078192.88427,1758078179.58092,0.0,0.0,0.0,20.34,1.66158,-2.46372,9.52,1.39,1.46,3.0
1758078192.89969,1758078179.59092,0.0,0.0,0.0,21.02755,4.1253,-1.48969,9.58,1.3,1.4,3.0
1758078192.90117,1758078179.60092,0.0,0.0,0.0,21.6578,5.95876,-0.45837,9.58,1.3,1.4,3.0
1758078192.91828,1758078179.61092,0.0,0.0,0.0,21.94428,8.0787,0.34377,9.72,1.5,1.51,3.0
1758078192.93453,1758078179.62092,0.0,0.0,0.0,21.6578,9.91217,0.97403,9.72,1.5,1.51,3.0
1758078192.93785,1758078179.63092,0.0,0.0,0.0,20.85567,9.68299,1.3178,9.79,1.81,1.53,3.0
1758078192.95324,1758078179.64092,0.0,0.0,0.0,19.88164,7.84952,1.60428,9.79,1.81,1.53,3.0
1758078192.9579,1758078179.65092,0.0,0.0,0.0,18.16276,2.29183,2.46372,9.49,2.12,1.3,3.0
1758078192.97884,1758078179.66092,0.0,0.0,0.0,15.69904,0.57296,2.34913,9.39,2.36,1.22,3.0
1758078193.00577,1758078179.67092,0.0,0.0,0.0,12.204,1.94806,1.48969,9.39,2.36,1.22,3.0
1758078193.00615,1758078179.68092,0.0,0.0,0.0,9.5684,3.49504,0.17189,9.53,2.64,1.23,3.0
1758078193.00965,1758078179.69092,0.0,0.0,0.0,4.81285,6.13065,-0.85944,9.53,2.64,1.23,3.0
1758078193.01021,1758078179.70092,0.0,0.0,0.0,1.03132,8.30789,-2.57831,9.55,2.9,1.7,3.0
1758078193.01259,1758078179.71092,0.0,0.0,0.0,-1.20321,8.88085,-3.83882,9.55,2.9,1.7,3.0
1758078193.02934,1758078179.72092,0.0,0.0,0.0,-4.52637,10.54242,-6.35983,9.49,2.99,1.66,3.0
1758078193.04568,1758078179.73092,0.0,0.0,0.0,-7.67763,7.10468,-9.91217,9.09,2.95,1.37,3.0
1758078193.04647,1758078179.74092,0.0,0.0,0.0,-9.33921,4.58366,-10.08406,9.09,2.95,1.37,3.0
1758078193.06158,1758078179.75092,0.0,0.0,0.0,-10.8862,2.40642,-9.28192,8.98,2.68,0.72,3.0
1758078193.06441,1758078179.76092,0.0,0.0,0.0,-11.91752,-0.17189,-7.16197,8.98,2.68,0.72,3.0
1758078193.07925,1758078179.77092,0.0,0.0,0.0,-14.61043,-16.04282,-4.92744,8.59,2.03,0.81,3.0
1758078193.09692,1758078179.78092,0.0,0.0,0.0,-17.18874,-13.46451,-1.3751,8.59,2.03,0.81,3.0
1758078193.0989,1758078179.79092,0.0,0.0,0.0,-21.88699,12.2613,-7.04738,10.62,2.06,0.84,3.0
1758078193.11462,1758078179.80092,0.0,0.0,0.0,-25.89769,17.58981,-8.47978,10.62,2.06,0.84,3.0
1758078193.11946,1758078179.81092,0.0,0.0,0.0,-30.36677,14.49583,-8.76626,10.4,2.25,1.52,3.0
1758078193.13714,1758078179.82092,0.0,0.0,0.0,-34.0337,13.80828,-9.68299,9.65,2.75,2.83,3.0
1758078193.13811,1758078179.83092,0.0,0.0,0.0,-36.32552,12.89155,-9.33921,9.65,2.75,2.83,3.0
1758078193.15425,1758078179.84092,0.0,0.0,0.0,-37.12767,12.43318,-6.07335,10.25,2.82,1.28,3.0
1758078193.15769,1758078179.85092,0.0,0.0,0.0,-36.49741,8.99544,-3.32316,10.25,2.82,1.28,3.0
1758078193.17434,1758078179.86092,0.0,0.0,0.0,-35.52338,7.39116,-0.85944,10.43,2.18,0.95,3.0
1758078193.17931,1758078179.87092,0.0,0.0,0.0,-33.80451,4.46907,0.85944,10.43,2.18,0.95,3.0
1758078193.19436,1758078179.88092,0.0,0.0,0.0,-30.88243,2.86479,1.08862,10.79,1.28,1.79,3.0
1758078193.19789,1758078179.89092,0.0,0.0,0.0,-27.61657,7.73493,0.45837,12.54,0.69,3.26,3.0
1758078193.23392,1758078179.90092,0.0,0.0,0.0,-22.57454,14.15206,0.17189,12.54,0.69,3.26,3.0
1758078193.23959,1758078179.91092,0.0,0.0,0.0,-17.01685,18.56383,0.34377,13.61,0.64,3.92,3.0
1758078193.24136,1758078179.92092,0.0,0.0,0.0,-8.65166,21.7724,1.03132,13.61,0.64,3.92,3.0
1758078193.24538,1758078179.93092,0.0,0.0,0.0,-3.83882,24.17882,1.83346,13.97,1.07,3.47,3.0
1758078193.24852,1758078179.94092,0.0,0.0,0.0,-0.45837,26.18417,2.46372,13.97,1.07,3.47,3.0
1758078193.26438,1758078179.95092,0.0,0.0,0.0,0.85944,27.33009,2.92208,14.38,1.87,2.7,3.0
1758078193.26561,1758078179.96092,0.0,0.0,0.0,-0.0573,27.44468,3.32316,14.23,2.8,2.75,3.0
1758078193.28044,1758078179.97092,0.0,0.0,0.0,-2.29183,24.92367,3.49504,14.23,2.8,2.75,3.0
1758078193.28162,1758078179.98092,0.0,0.0,0.0,-5.55769,20.85567,3.20856,13.74,3.54,3.5,3.0
1758078193.29836,1758078179.99092,0.0,0.0,0.0,-9.68299,16.84496,2.63561,13.74,3.54,3.5,3.0
1758078193.31462,1758078180.00092,0.0,0.0,0.0,-16.84496,13.5218,1.3751,13.26,3.93,4.22,3.0
1758078193.31875,1758078180.01092,0.0,0.0,0.0,-21.08485,12.60507,0.22918,13.26,3.93,4.22,3.0
1758078193.33439,1758078180.02092,0.0,0.0,0.0,-25.21014,11.74564,-0.68755,12.21,3.66,4.3,3.0
1758078193.33798,1758078180.03092,0.0,0.0,0.0,-28.64789,10.54242,-1.60428,12.21,3.66,4.3,3.0
1758078193.35365,1758078180.04092,0.0,0.0,0.0,-32.42941,6.70361,-1.48969,10.66,3.09,4.0,3.0
1758078193.35461,1758078180.05092,0.0,0.0,0.0,-34.60666,2.86479,-1.3751,9.01,2.59,3.05,3.0
1758078193.36946,1758078180.06092,0.0,0.0,0.0,-36.32552,-1.71887,-0.85944,9.01,2.59,3.05,3.0
1758078193.37496,1758078180.07092,0.0,0.0,0.0,-39.01843,-10.31324,-0.11459,7.45,1.94,2.2,3.0
1758078193.39272,1758078180.08092,0.0,0.0,0.0,-40.27893,-17.87628,0.85944,7.45,1.94,2.2,3.0
1758078193.39469,1758078180.09092,0.0,0.0,0.0,-41.25296,-26.41335,2.00535,5.91,1.21,1.97,3.0
1758078193.4097,1758078180.10092,0.0,0.0,0.0,-41.59674,-34.37747,3.60963,5.91,1.21,1.97,3.0
1758078193.4146,1758078180.11092,0.0,0.0,0.0,-41.48215,-44.8053,6.18794,5.2,0.53,2.09,3.0
1758078193.42968,1758078180.12092,0.0,0.0,0.0,-41.02378,-48.75871,7.84952,5.86,0.06,2.37,3.0
1758078193.43406,1758078180.13092,0.0,0.0,0.0,-40.68,-50.99325,8.88085,5.86,0.06,2.37,3.0
1758078193.44968,1758078180.14092,0.0,0.0,0.0,-40.27893,-52.25375,9.28192,7.29,0.06,2.77,3.0
1758078193.45218,1758078180.15092,0.0,0.0,0.0,-39.53409,-51.6235,8.88085,7.29,0.06,2.77,3.0
1758078193.4684,1758078180.16092,0.0,0.0,0.0,-39.01843,-49.90463,8.02141,8.43,0.23,3.0,3.0
1758078193.48436,1758078180.17092,0.0,0.0,0.0,-39.19032,-46.86795,7.04738,8.43,0.23,3.0,3.0
1758078193.48832,1758078180.18092,0.0,0.0,0.0,-39.24761,-42.39888,6.13065,9.1,0.53,2.97,3.0
1758078193.5286,1758078180.19092,0.0,0.0,0.0,-40.10705,-35.2942,5.4431,9.19,0.84,2.87,3.0
1758078193.53015,1758078180.20092,0.0,0.0,0.0,-40.68,-30.25217,5.72958,9.19,0.84,2.87,3.0
1758078193.53061,1758078180.21092,0.0,0.0,0.0,-41.02378,-24.75178,6.41713,9.07,0.87,2.79,3.0
1758078193.53348,1758078180.22092,0.0,0.0,0.0,-41.31026,-18.73572,7.50575,9.07,0.87,2.79,3.0
1758078193.53387,1758078180.23092,0.0,0.0,0.0,-40.96649,-9.96947,8.70896,9.08,0.54,2.48,3.0
1758078193.54972,1758078180.24092,0.0,0.0,0.0,-40.7946,-3.83882,9.22462,9.08,0.54,2.48,3.0
1758078193.55411,1758078180.25092,0.0,0.0,0.0,-40.62271,2.29183,9.11003,9.32,0.08,2.45,3.0
1758078193.56949,1758078180.26092,0.0,0.0,0.0,-40.04975,9.74028,9.33921,9.32,0.08,2.45,3.0
1758078193.57144,1758078180.27092,0.0,0.0,0.0,-39.64868,13.23533,9.39651,9.36,0.0,2.41,3.0
1758078193.58822,1758078180.28092,0.0,0.0,0.0,-39.07573,16.67307,9.4538,9.36,0.09,2.49,3.0
1758078193.60478,1758078180.29092,0.0,0.0,0.0,-38.56006,19.88164,9.22462,9.36,0.09,2.49,3.0
1758078193.60644,1758078180.30092,0.0,0.0,0.0,-37.75792,23.26209,8.30789,9.41,0.17,2.51,3.0
1758078193.62347,1758078180.31092,0.0,0.0,0.0,-36.84119,24.86637,7.44845,9.41,0.17,2.51,3.0
1758078193.62574,1758078180.32092,0.0,0.0,0.0,-35.98175,25.21014,6.41713,9.25,0.22,2.66,3.0
1758078193.64078,1758078180.33092,0.0,0.0,0.0,-34.77854,23.89234,5.72958,9.25,0.22,2.66,3.0
1758078193.64436,1758078180.34092,0.0,0.0,0.0,-32.37212,20.74107,5.95876,8.81,0.17,2.67,3.0
1758078193.65946,1758078180.35092,0.0,0.0,0.0,-30.13758,18.79302,6.87549,8.61,-0.12,2.41,3.0
1758078193.66258,1758078180.36092,0.0,0.0,0.0,-28.07493,17.6471,7.79223,8.61,-0.12,2.41,3.0
1758078193.67873,1758078180.37092,0.0,0.0,0.0,-26.01229,16.38659,8.88085,8.62,-0.59,2.32,3.0
1758078193.69483,1758078180.38092,0.0,0.0,0.0,-23.0329,14.66772,9.33921,8.62,-0.59,2.32,3.0
1758078193.69725,1758078180.39092,0.0,0.0,0.0,-21.31403,12.89155,9.22462,8.52,-0.87,2.35,3.0
1758078193.71251,1758078180.40092,0.0,0.0,0.0,-19.70975,10.02676,8.88085,8.52,-0.87,2.35,3.0
1758078193.71444,1758078180.41092,0.0,0.0,0.0,-18.33465,7.33386,8.42248,8.34,-0.8,2.36,3.0
1758078193.72949,1758078180.42092,0.0,0.0,0.0,-16.61578,2.92208,7.84952,8.31,-0.55,2.15,3.0
1758078193.73152,1758078180.43092,0.0,0.0,0.0,-15.92823,0.0573,7.67763,8.31,-0.55,2.15,3.0
1758078193.74781,1758078180.44092,0.0,0.0,0.0,-15.41257,-2.00535,7.62034,8.5,-0.29,2.21,3.0
1758078193.7645,1758078180.45092,0.0,0.0,0.0,-15.12609,-3.66693,7.62034,8.5,-0.29,2.21,3.0
1758078193.76832,1758078180.46092,0.0,0.0,0.0,-14.78231,-5.09932,7.73493,8.75,-0.11,2.31,3.0
1758078193.78383,1758078180.47092,0.0,0.0,0.0,-14.49583,-5.55769,7.62034,8.75,-0.11,2.31,3.0
1758078193.78474,1758078180.48092,0.0,0.0,0.0,-13.98017,-5.61499,7.79223,8.92,-0.11,2.33,3.0
1758078193.79973,1758078180.49092,0.0,0.0,0.0,-12.49048,-4.64096,8.88085,8.92,-0.11,2.33,3.0
1758078193.80313,1758078180.50092,0.0,0.0,0.0,-10.31324,-5.21392,10.8862,9.09,-0.33,2.41,3.0
1758078193.81864,1758078180.51092,0.0,0.0,0.0,-7.84952,-5.90147,13.06344,9.08,-0.69,2.3,3.0
1758078193.83461,1758078180.52092,0.0,0.0,0.0,-5.27121,-5.95876,14.83961,9.08,-0.69,2.3,3.0
1758078193.83736,1758078180.53092,0.0,0.0,0.0,-1.3751,-4.58366,16.55848,9.32,-1.01,1.88,3.0
1758078193.85256,1758078180.54092,0.0,0.0,0.0,1.48969,-3.72423,16.73037,9.32,-1.01,1.88,3.0
1758078193.85377,1758078180.55092,0.0,0.0,0.0,4.29718,-2.40642,17.18874,9.29,-1.22,1.91,3.0
1758078193.86858,1758078180.56092,0.0,0.0,0.0,6.99009,0.11459,17.58981,9.29,-1.22,1.91,3.0
1758078193.88466,1758078180.57092,0.0,0.0,0.0,10.37054,3.66693,18.22006,9.3,-1.28,1.76,3.0
1758078193.88573,1758078180.58092,0.0,0.0,0.0,13.12073,5.95876,18.56383,9.18,-1.18,1.81,3.0
1758078193.90096,1758078180.59092,0.0,0.0,0.0,14.9542,7.04738,19.48057,9.18,-1.18,1.81,3.0
1758078193.90259,1758078180.60092,0.0,0.0,0.0,15.92823,8.0787,20.3973,9.12,-1.02,1.63,3.0
1758078193.92073,1758078180.61092,0.0,0.0,0.0,17.01685,9.74028,21.48592,9.12,-1.02,1.63,3.0
1758078193.92204,1758078180.62092,0.0,0.0,0.0,17.6471,9.62569,20.45459,9.09,-0.8,1.45,3.0
1758078193.93898,1758078180.63092,0.0,0.0,0.0,18.9649,12.49048,19.59516,9.09,-0.8,1.45,3.0
1758078193.95466,1758078180.64092,0.0,0.0,0.0,18.90761,22.51724,17.81899,9.62,-0.65,1.27,3.0
1758078193.95744,1758078180.65092,0.0,0.0,0.0,21.60051,42.85724,15.75634,10.65,-0.56,1.73,3.0
1758078193.97285,1758078180.66092,0.0,0.0,0.0,21.7151,37.64333,13.69369,10.65,-0.56,1.73,3.0
1758078193.97378,1758078180.67092,0.0,0.0,0.0,24.5226,20.45459,14.83961,8.03,-0.45,2.28,3.0
1758078193.98896,1758078180.68092,0.0,0.0,0.0,29.33544,6.47442,19.76705,8.03,-0.45,2.28,3.0
1758078194.00463,1758078180.69092,0.0,0.0,0.0,31.39809,3.66693,21.94428,10.49,-1.0,2.53,3.0
1758078194.00579,1758078180.70092,0.0,0.0,0.0,31.56997,-1.43239,23.26209,10.49,-1.0,2.53,3.0
1758078194.02088,1758078180.71092,0.0,0.0,0.0,31.85646,-7.16197,23.72045,10.54,-1.4,1.21,3.0
1758078194.02184,1758078180.72092,0.0,0.0,0.0,30.76784,-8.59437,22.68913,10.54,-1.4,2.47,3.0
1758078194.03989,1758078180.73092,0.0,0.0,0.0,29.67921,-3.72423,20.51189,10.19,-1.29,2.47,3.0
1758078194.05669,1758078180.74092,0.0,0.0,0.0,28.476,2.11994,17.87628,10.51,-0.68,3.03,3.0
1758078194.05793,1758078180.75092,0.0,0.0,0.0,26.41335,7.50575,14.61043,10.51,-0.68,3.03,3.0
1758078194.07451,1758078180.76092,0.0,0.0,0.0,21.88699,14.38124,10.59972,10.75,0.37,3.78,3.0
1758078194.07775,1758078180.77092,0.0,0.0,0.0,18.10547,16.73037,8.42248,10.75,0.37,3.78,3.0
1758078194.09338,1758078180.78092,0.0,0.0,0.0,14.09476,17.99088,6.35983,11.27,1.27,4.48,3.0
1758078194.09698,1758078180.79092,0.0,0.0,0.0,10.02676,18.9649,4.46907,11.27,1.27,4.48,3.0
1758078194.1137,1758078180.80092,0.0,0.0,0.0,4.64096,21.94428,1.71887,11.82,1.59,3.49,3.0
1758078194.11464,1758078180.81092,0.0,0.0,0.0,2.40642,23.89234,-0.17189,12.36,0.91,2.9,3.0
1758078194.13041,1758078180.82092,0.0,0.0,0.0,1.3178,25.26744,-2.06265,12.36,0.91,2.9,3.0
1758078194.1349,1758078180.83092,0.0,0.0,0.0,1.03132,25.8404,-4.0107,12.2,-0.36,2.89,3.0
1758078194.14991,1758078180.84092,0.0,0.0,0.0,2.11994,24.63719,-6.07335,12.2,-0.36,2.89,3.0
1758078194.16683,1758078180.85092,0.0,0.0,0.0,3.38045,26.01229,-6.53172,12.23,-1.32,3.2,3.0
1758078194.16846,1758078180.86092,0.0,0.0,0.0,4.87014,27.96034,-7.04738,12.23,-1.32,3.2,3.0
1758078194.18367,1758078180.87092,0.0,0.0,0.0,7.79223,30.93972,-6.24524,12.86,-1.92,3.54,3.0
1758078194.18483,1758078180.88092,0.0,0.0,0.0,9.91217,35.12231,-5.32851,13.11,-2.15,4.08,3.0
1758078194.20189,1758078180.89092,0.0,0.0,0.0,12.37589,36.89849,-4.52637,13.11,-2.15,4.08,3.0
1758078194.2044,1758078180.90092,0.0,0.0,0.0,15.12609,37.58603,-3.83882,12.74,-2.01,4.44,3.0
1758078194.22367,1758078180.91092,0.0,0.0,0.0,19.82434,35.92446,-2.63561,12.74,-2.01,4.44,3.0
1758078194.22486,1758078180.92092,0.0,0.0,0.0,23.54857,34.32018,-2.29183,11.93,-1.63,4.48,3.0
1758078194.24168,1758078180.93092,0.0,0.0,0.0,27.44468,31.74186,-2.11994,11.93,-1.63,4.48,3.0
1758078194.24442,1758078180.94092,0.0,0.0,0.0,31.51268,28.01764,-2.23454,10.73,-1.21,4.33,3.0
1758078194.25995,1758078180.95092,0.0,0.0,0.0,37.47144,20.3973,-2.57831,9.15,-0.84,4.12,3.0
1758078194.26167,1758078180.96092,0.0,0.0,0.0,41.25296,15.29797,-2.7502,9.15,-0.84,4.12,3.0
1758078194.2777,1758078180.97092,0.0,0.0,0.0,44.748,9.74028,-2.86479,7.81,-0.62,3.7,3.0
1758078194.294,1758078180.98092,0.0,0.0,0.0,47.78468,3.66693,-2.63561,7.81,-0.62,3.7,3.0
1758078194.29768,1758078180.99092,0.0,0.0,0.0,50.76406,-8.25059,-1.77617,6.5,-0.5,3.43,3.0
1758078194.31313,1758078181.00092,0.0,0.0,0.0,51.5662,-18.22006,-1.14592,6.5,-0.5,3.43,3.0
1758078194.31387,1758078181.01092,0.0,0.0,0.0,51.50891,-28.99167,-0.74485,5.59,-0.14,3.42,3.0
1758078194.32881,1758078181.02092,0.0,0.0,0.0,50.3057,-38.61736,-0.74485,5.59,-0.14,3.42,3.0
1758078194.34493,1758078181.03092,0.0,0.0,0.0,47.32632,-47.49821,-1.3178,5.92,0.48,3.55,3.0
1758078194.3459,1758078181.04092,0.0,0.0,0.0,44.86259,-53.28508,-1.14592,6.81,1.08,3.54,3.0
1758078194.36103,1758078181.05092,0.0,0.0,0.0,41.99781,-57.52497,-1.08862,6.81,1.08,3.54,3.0
1758078194.36191,1758078181.06092,0.0,0.0,0.0,39.01843,-58.67088,0.34377,7.51,1.51,3.7,3.0
1758078194.38006,1758078181.07092,0.0,0.0,0.0,34.89313,-59.24384,1.94806,7.51,1.51,3.7,3.0
1758078194.3829,1758078181.08092,0.0,0.0,0.0,32.54401,-58.90006,3.49504,7.85,1.63,3.94,3.0
1758078194.39894,1758078181.09092,0.0,0.0,0.0,30.48136,-57.41038,4.92744,7.85,1.63,3.94,3.0
1758078194.41838,1758078181.10092,0.0,0.0,0.0,27.78845,-51.5662,5.78687,8.0,1.38,3.55,3.0
1758078194.41933,1758078181.11092,0.0,0.0,0.0,27.2155,-45.60744,7.33386,8.15,0.93,3.11,3.0
1758078194.43743,1758078181.12092,0.0,0.0,0.0,25.72581,-43.02913,6.24524,8.15,0.93,3.11,3.0
1758078194.43947,1758078181.13092,0.0,0.0,0.0,24.75178,-37.29956,4.69825,7.93,0.7,2.78,3.0
1758078194.45827,1758078181.14092,0.0,0.0,0.0,23.31938,-28.07493,1.08862,7.93,0.7,2.78,3.0
1758078194.45916,1758078181.15092,0.0,0.0,0.0,22.57454,-22.34536,-1.3751,8.08,0.85,2.63,3.0
1758078194.47748,1758078181.16092,0.0,0.0,0.0,22.11617,-17.13144,-3.95341,8.08,0.85,2.63,3.0
1758078194.47918,1758078181.17092,0.0,0.0,0.0,21.60051,-11.97482,-6.47442,8.12,1.2,2.88,3.0
1758078194.49826,1758078181.18092,0.0,0.0,0.0,21.14215,-4.1253,-9.96947,8.61,1.49,3.05,3.0
1758078194.49917,1758078181.19092,0.0,0.0,0.0,21.25674,0.85944,-11.91752,8.61,1.49,3.05,3.0
1758078194.51801,1758078181.20092,0.0,0.0,0.0,21.25674,4.87014,-13.5218,9.05,1.44,3.04,3.0
1758078194.51917,1758078181.21092,0.0,0.0,0.0,21.25674,7.79223,-14.78231,9.05,1.44,3.04,3.0
1758078194.53719,1758078181.22092,0.0,0.0,0.0,21.25674,10.65701,-15.92823,9.19,1.22,2.91,3.0
1758078194.53838,1758078181.23092,0.0,0.0,0.0,21.14215,12.43318,-16.21471,9.19,1.22,2.91,3.0
1758078194.55411,1758078181.24092,0.0,0.0,0.0,20.97026,13.46451,-16.73037,9.2,1.07,2.77,3.0
1758078194.55671,1758078181.25092,0.0,0.0,0.0,20.34,13.46451,-17.13144,9.2,1.07,2.77,3.0
1758078194.57369,1758078181.26092,0.0,0.0,0.0,19.53786,13.00614,-17.24603,8.98,0.95,2.67,3.0
1758078194.57729,1758078181.27092,0.0,0.0,0.0,18.85031,13.46451,-17.01685,9.19,1.03,2.81,3.0
1758078194.59208,1758078181.28092,0.0,0.0,0.0,18.27736,14.61043,-16.50119,9.19,1.03,2.81,3.0
1758078194.59301,1758078181.29092,0.0,0.0,0.0,17.13144,13.12073,-15.98552,9.29,1.09,2.71,3.0
1758078194.60854,1758078181.30092,0.0,0.0,0.0,16.04282,11.51645,-15.75634,9.29,1.09,2.71,3.0
1758078194.62501,1758078181.31092,0.0,0.0,0.0,15.35527,10.65701,-15.64175,9.23,1.22,2.85,3.0
1758078194.62693,1758078181.32092,0.0,0.0,0.0,14.49583,10.8862,-15.69904,9.23,1.22,2.85,3.0
1758078194.64407,1758078181.33092,0.0,0.0,0.0,13.40721,10.31324,-15.46986,9.57,1.39,2.78,3.0
1758078194.64615,1758078181.34092,0.0,0.0,0.0,12.77696,8.136,-15.24068,9.54,1.54,2.86,3.0
1758078194.66408,1758078181.35092,0.0,0.0,0.0,12.71966,4.18259,-14.66772,9.54,1.54,2.86,3.0
1758078194.66578,1758078181.36092,0.0,0.0,0.0,12.77696,-0.11459,-13.69369,9.44,1.47,2.69,3.0
1758078194.74661,1758078181.37092,0.0,0.0,0.0,13.17803,-4.29718,-11.57375,9.44,1.47,2.69,3.0
1758078194.75422,1758078181.38092,0.0,0.0,0.0,13.86558,-5.95876,-9.85487,9.7,1.18,2.46,3.0
1758078194.75466,1758078181.39092,0.0,0.0,0.0,14.43854,-7.39116,-8.0787,9.7,1.18,2.46,3.0
1758078194.7574,1758078181.40092,0.0,0.0,0.0,15.0115,-8.47978,-6.47442,9.66,0.85,2.29,3.0
1758078194.75846,1758078181.41092,0.0,0.0,0.0,15.75634,-9.39651,-4.58366,9.56,0.72,2.41,3.0
1758078194.75927,1758078181.42092,0.0,0.0,0.0,16.04282,-9.62569,-3.60963,9.56,0.72,2.41,3.0
1758078194.75988,1758078181.43092,0.0,0.0,0.0,16.272,-9.4538,-3.03668,9.64,0.9,2.44,3.0
1758078194.76327,1758078181.44092,0.0,0.0,0.0,16.10011,-9.22462,-2.86479,9.64,0.9,2.44,3.0
1758078194.76842,1758078181.45092,0.0,0.0,0.0,16.04282,-8.42248,-2.63561,9.57,1.21,2.4,3.0
1758078194.76883,1758078181.46092,0.0,0.0,0.0,15.64175,-7.84952,-2.57831,9.57,1.21,2.4,3.0
1758078194.7849,1758078181.47092,0.0,0.0,0.0,14.78231,-6.58902,-3.49504,9.37,1.42,2.33,3.0
1758078194.7888,1758078181.48092,0.0,0.0,0.0,12.71966,-4.81285,-6.35983,9.37,1.42,2.33,3.0
1758078194.80423,1758078181.49092,0.0,0.0,0.0,11.45916,-4.29718,-7.50575,9.25,1.63,2.32,3.0
1758078194.84915,1758078181.50092,0.0,0.0,0.0,8.93814,-3.60963,-10.65701,8.96,1.91,1.97,3.0
1758078194.85007,1758078181.51092,0.0,0.0,0.0,6.7609,-4.58366,-11.74564,8.96,1.91,1.97,3.0
1758078194.85106,1758078181.52092,0.0,0.0,0.0,4.46907,-6.18794,-13.34992,8.9,2.02,2.16,3.0
1758078194.85173,1758078181.53092,0.0,0.0,0.0,2.63561,-6.35983,-14.03747,8.9,2.02,2.16,3.0
1758078194.85293,1758078181.54092,0.0,0.0,0.0,0.17189,-5.84417,-14.78231,9.05,1.98,1.75,3.0
1758078194.85358,1758078181.55092,0.0,0.0,0.0,-1.43239,-6.47442,-16.04282,9.05,1.98,1.75,3.0
1758078194.86918,1758078181.56092,0.0,0.0,0.0,-4.23989,-6.99009,-17.18874,8.92,1.99,1.58,3.0
1758078194.87408,1758078181.57092,0.0,0.0,0.0,-6.13065,-9.85487,-17.6471,8.89,2.12,1.76,3.0
1758078194.89223,1758078181.58092,0.0,0.0,0.0,-7.21927,-15.87093,-17.01685,8.89,2.12,1.76,3.0
1758078194.89311,1758078181.59092,0.0,0.0,0.0,-8.36518,-20.16812,-15.87093,8.62,2.05,1.3,3.0
1758078194.90899,1758078181.60092,0.0,0.0,0.0,-9.11003,-22.28806,-13.00614,8.62,2.05,1.3,3.0
1758078194.91737,1758078181.61092,0.0,0.0,0.0,-9.85487,-22.00158,-10.31324,9.12,1.43,1.31,3.0
1758078194.93315,1758078181.62092,0.0,0.0,0.0,-10.37054,-22.97561,-6.99009,9.12,1.43,1.31,3.0
1758078194.93413,1758078181.63092,0.0,0.0,0.0,-9.96947,-20.11082,-5.27121,9.5,0.99,1.75,3.0
1758078194.94923,1758078181.64092,0.0,0.0,0.0,-14.49583,-5.15662,-10.48513,10.99,1.36,2.21,3.0
1758078194.95443,1758078181.65092,0.0,0.0,0.0,-16.84496,-7.96411,-11.34457,10.99,1.36,2.21,3.0
1758078194.97226,1758078181.66092,0.0,0.0,0.0,-18.79302,-9.74028,-12.14671,9.88,2.03,2.91,3.0
1758078194.97561,1758078181.67092,0.0,0.0,0.0,-20.74107,-3.60963,-12.2613,9.88,2.03,2.91,3.0
1758078194.99092,1758078181.68092,0.0,0.0,0.0,-22.63183,-1.77617,-13.5218,10.57,2.59,2.14,3.0
1758078194.99215,1758078181.69092,0.0,0.0,0.0,-23.0902,-2.11994,-13.17803,10.57,2.59,2.14,3.0
1758078195.00903,1758078181.70092,0.0,0.0,0.0,-23.37668,-0.34377,-12.77696,10.34,2.73,1.92,3.0
1758078195.02577,1758078181.71092,0.0,0.0,0.0,-23.54857,5.15662,-11.97482,10.34,2.73,1.92,3.0
1758078195.02735,1758078181.72092,0.0,0.0,0.0,-23.83505,11.00079,-11.80293,11.53,2.19,1.95,3.0
1758078195.04423,1758078181.73092,0.0,0.0,0.0,-23.66316,14.78231,-11.51645,12.62,1.49,2.75,3.0
1758078195.04604,1758078181.74092,0.0,0.0,0.0,-22.97561,17.53251,-11.34457,12.62,1.49,2.75,3.0
1758078195.06123,1758078181.75092,0.0,0.0,0.0,-20.68378,20.3973,-10.71431,13.17,1.13,3.55,3.0
1758078195.06217,1758078181.76092,0.0,0.0,0.0,-18.56383,24.23611,-9.85487,13.17,1.13,3.55,3.0
1758078195.07825,1758078181.77092,0.0,0.0,0.0,-15.58445,30.02299,-8.36518,14.01,1.07,3.54,3.0
1758078195.09426,1758078181.78092,0.0,0.0,0.0,-12.49048,34.72124,-6.24524,14.01,1.07,3.54,3.0
1758078195.09711,1758078181.79092,0.0,0.0,0.0,-7.79223,39.19032,-2.00535,14.35,1.29,3.3,3.0
1758078195.11196,1758078181.80092,0.0,0.0,0.0,-5.55769,40.62271,0.74485,14.26,1.71,3.41,3.0
1758078195.11315,1758078181.81092,0.0,0.0,0.0,-4.46907,40.96649,3.83882,14.26,1.71,3.41,3.0
1758078195.12798,1758078181.82092,0.0,0.0,0.0,-5.21392,39.24761,6.47442,13.64,2.43,3.9,3.0
1758078195.14425,1758078181.83092,0.0,0.0,0.0,-8.93814,32.14294,9.05273,13.64,2.43,3.9,3.0
1758078195.14553,1758078181.84092,0.0,0.0,0.0,-12.60507,24.63719,9.68299,12.29,2.72,4.42,3.0
1758078195.16079,1758078181.85092,0.0,0.0,0.0,-16.90226,18.50654,9.62569,12.29,2.72,4.42,3.0
1758078195.16387,1758078181.86092,0.0,0.0,0.0,-21.42862,13.17803,8.88085,10.94,2.81,4.46,3.0
1758078195.17902,1758078181.87092,0.0,0.0,0.0,-27.61657,4.87014,7.44845,9.36,2.86,3.91,3.0
1758078195.19761,1758078181.88092,0.0,0.0,0.0,-30.82513,-1.83346,6.47442,9.36,2.86,3.91,3.0
1758078195.19861,1758078181.89092,0.0,0.0,0.0,-33.00237,-10.54242,5.50039,7.59,2.68,3.45,3.0
1758078195.21429,1758078181.90092,0.0,0.0,0.0,-35.2369,-20.05352,4.87014,7.59,2.68,3.45,3.0
1758078195.21757,1758078181.91092,0.0,0.0,0.0,-36.21093,-35.92446,4.58366,6.51,2.25,2.66,3.0
1758078195.2332,1758078181.92092,0.0,0.0,0.0,-36.89849,-46.1231,4.52637,6.51,2.25,2.66,3.0
1758078195.2369,1758078181.93092,0.0,0.0,0.0,-37.18496,-55.23313,4.35448,6.12,1.5,2.31,3.0
1758078195.25222,1758078181.94092,0.0,0.0,0.0,-36.32552,-65.2026,4.58366,6.12,1.5,2.31,3.0
1758078195.25366,1758078181.95092,0.0,0.0,0.0,-34.72124,-69.49979,4.92744,6.24,0.57,2.27,3.0
1758078195.26809,1758078181.96092,0.0,0.0,0.0,-32.14294,-72.88023,5.61499,6.51,-0.1,2.58,3.0
1758078195.2843,1758078181.97092,0.0,0.0,0.0,-28.76248,-74.65641,6.47442,6.51,-0.1,2.58,3.0
1758078195.28523,1758078181.98092,0.0,0.0,0.0,-23.31938,-73.3959,7.21927,7.06,-0.22,2.53,3.0
1758078195.3011,1758078181.99092,0.0,0.0,0.0,-19.36597,-70.6457,7.79223,7.06,-0.22,2.53,3.0
1758078195.3048,1758078182.00092,0.0,0.0,0.0,-15.64175,-66.635,7.96411,7.75,0.0,2.34,3.0
1758078195.32141,1758078182.01092,0.0,0.0,0.0,-12.43318,-61.65026,8.36518,7.75,0.0,2.34,3.0
1758078195.3246,1758078182.02092,0.0,0.0,0.0,-8.36518,-52.65482,8.88085,8.43,0.28,2.35,3.0
1758078195.34115,1758078182.03092,0.0,0.0,0.0,-6.47442,-45.60744,9.28192,9.11,0.56,2.37,3.0
1758078195.34289,1758078182.04092,0.0,0.0,0.0,-5.4431,-37.52874,9.39651,9.11,0.56,2.37,3.0
1758078195.3593,1758078182.05092,0.0,0.0,0.0,-4.46907,-29.39274,9.85487,9.42,0.83,2.12,3.0
1758078195.37723,1758078182.06092,0.0,0.0,0.0,-4.64096,-18.44924,9.68299,9.42,0.83,2.12,3.0
1758078195.3789,1758078182.07092,0.0,0.0,0.0,-5.21392,-10.94349,9.62569,9.28,1.06,1.91,3.0
1758078195.39405,1758078182.08092,0.0,0.0,0.0,-5.95876,-3.89611,9.62569,9.28,1.06,1.91,3.0
1758078195.39931,1758078182.09092,0.0,0.0,0.0,-7.16197,2.57831,9.85487,9.33,1.09,1.8,3.0
1758078195.41433,1758078182.10092,0.0,0.0,0.0,-9.11003,10.8289,9.85487,9.37,0.96,1.86,3.0
1758078195.41877,1758078182.11092,0.0,0.0,0.0,-10.31324,15.92823,10.19865,9.37,0.96,1.86,3.0
1758078195.43439,1758078182.12092,0.0,0.0,0.0,-11.91752,20.74107,9.96947,9.51,0.83,1.9,3.0
1758078195.43969,1758078182.13092,0.0,0.0,0.0,-13.98017,26.01229,10.02676,9.51,0.83,1.9,3.0
1758078195.45439,1758078182.14092,0.0,0.0,0.0,-15.41257,28.07493,9.85487,9.34,0.83,1.98,3.0
1758078195.45802,1758078182.15092,0.0,0.0,0.0,-16.38659,29.96569,9.22462,9.34,0.83,1.98,3.0
1758078195.4734,1758078182.16092,0.0,0.0,0.0,-16.38659,29.39274,9.4538,9.14,0.88,2.02,3.0
1758078195.47431,1758078182.17092,0.0,0.0,0.0,-15.92823,23.54857,9.85487,9.14,0.88,1.99,3.0
1758078195.48939,1758078182.18092,0.0,0.0,0.0,-15.12609,20.22541,10.37054,8.7,0.78,1.99,3.0
1758078195.49436,1758078182.19092,0.0,0.0,0.0,-14.38124,19.25138,11.11538,8.98,0.46,1.81,3.0
1758078195.51319,1758078182.20092,0.0,0.0,0.0,-13.46451,19.48057,11.74564,8.98,0.46,1.81,3.0
1758078195.51706,1758078182.21092,0.0,0.0,0.0,-12.08941,19.48057,12.60507,9.03,0.07,1.74,3.0
1758078195.53454,1758078182.22092,0.0,0.0,0.0,-11.34457,19.25138,13.5791,9.03,0.07,1.74,3.0
1758078195.56027,1758078182.23092,0.0,0.0,0.0,-10.59972,17.87628,14.38124,8.75,-0.25,1.89,3.0
1758078195.562,1758078182.24092,0.0,0.0,0.0,-9.5684,15.98552,14.9542,8.75,-0.25,1.89,3.0
1758078195.56447,1758078182.25092,0.0,0.0,0.0,-8.59437,12.37589,15.29797,8.66,-0.3,1.67,3.0
1758078195.56515,1758078182.26092,0.0,0.0,0.0,-8.02141,10.8289,15.0115,8.96,-0.1,1.8,3.0
1758078195.58221,1758078182.27092,0.0,0.0,0.0,-7.67763,8.47978,14.38124,8.96,-0.1,1.8,3.0
1758078195.58346,1758078182.28092,0.0,0.0,0.0,-7.50575,5.15662,13.69369,8.9,0.26,1.64,3.0
1758078195.59834,1758078182.29092,0.0,0.0,0.0,-7.04738,1.14592,12.204,8.9,0.26,1.64,3.0
1758078195.61452,1758078182.30092,0.0,0.0,0.0,-7.10468,-1.03132,11.28727,8.98,0.53,1.84,3.0
1758078195.61619,1758078182.31092,0.0,0.0,0.0,-6.7609,-3.32316,10.59972,8.98,0.53,1.84,3.0
1758078195.63325,1758078182.32092,0.0,0.0,0.0,-6.87549,-6.13065,9.62569,9.05,0.65,1.65,3.0
1758078195.63419,1758078182.33092,0.0,0.0,0.0,-7.44845,-7.16197,8.76626,9.25,0.62,1.78,3.0
1758078195.64946,1758078182.34092,0.0,0.0,0.0,-7.79223,-8.0787,8.42248,9.25,0.62,1.78,3.0
1758078195.66653,1758078182.35092,0.0,0.0,0.0,-7.73493,-7.62034,8.93814,9.48,0.41,1.87,3.0
1758078195.66812,1758078182.36092,0.0,0.0,0.0,-6.70361,-0.74485,10.08406,9.48,0.41,1.87,3.0
1758078195.68448,1758078182.37092,0.0,0.0,0.0,-5.78687,1.3178,11.22997,9.85,0.01,1.88,3.0
1758078195.68703,1758078182.38092,0.0,0.0,0.0,-4.64096,2.6929,12.49048,9.85,0.01,1.88,3.0
1758078195.70451,1758078182.39092,0.0,0.0,0.0,-3.55234,4.35448,13.5218,9.52,-0.28,1.82,3.0
1758078195.70706,1758078182.40092,0.0,0.0,0.0,-1.60428,7.10468,15.12609,9.65,-0.37,1.67,3.0
1758078195.72445,1758078182.41092,0.0,0.0,0.0,0.17189,8.42248,16.10011,9.65,-0.37,1.67,3.0
1758078195.72739,1758078182.42092,0.0,0.0,0.0,2.11994,9.62569,17.13144,9.55,-0.42,1.22,3.0
1758078195.74254,1758078182.43092,0.0,0.0,0.0,4.35448,8.76626,17.99088,9.55,-0.42,1.22,3.0
1758078195.74455,1758078182.44092,0.0,0.0,0.0,8.88085,5.4431,19.13679,9.33,-0.55,1.29,3.0
1758078195.75952,1758078182.45092,0.0,0.0,0.0,10.37054,2.46372,20.11082,9.33,-0.55,1.29,3.0
1758078195.7765,1758078182.46092,0.0,0.0,0.0,12.08941,-2.6929,20.16812,9.31,-0.67,0.99,3.0
1758078195.77818,1758078182.47092,0.0,0.0,0.0,12.37589,-4.23989,18.79302,9.31,-0.67,0.99,3.0
1758078195.79454,1758078182.48092,0.0,0.0,0.0,14.66772,13.12073,16.38659,9.83,-0.54,0.88,3.0
1758078195.79735,1758078182.49092,0.0,0.0,0.0,17.01685,31.62727,16.04282,11.52,-0.37,1.25,3.0
1758078195.81411,1758078182.50092,0.0,0.0,0.0,19.36597,44.51882,14.61043,11.52,-0.37,1.25,3.0
1758078195.81699,1758078182.51092,0.0,0.0,0.0,22.51724,42.28429,11.86023,9.96,-0.19,2.67,3.0
1758078195.83244,1758078182.52092,0.0,0.0,0.0,23.0902,13.75099,11.34457,9.96,-0.19,2.67,3.0
1758078195.83346,1758078182.53092,0.0,0.0,0.0,25.26744,-7.39116,12.71966,8.7,-0.3,3.02,3.0
1758078195.84856,1758078182.54092,0.0,0.0,0.0,25.26744,-17.81899,14.20935,8.7,-0.3,3.02,3.0
1758078195.86454,1758078182.55092,0.0,0.0,0.0,26.35606,-24.12152,20.45459,12.09,-0.58,2.56,3.0
1758078195.86583,1758078182.56092,0.0,0.0,0.0,26.64254,-20.22541,23.72045,13.61,-0.62,2.32,3.0
1758078195.88049,1758078182.57092,0.0,0.0,0.0,24.12152,-9.28192,24.4653,13.61,-0.62,2.32,3.0
1758078195.8963,1758078182.58092,0.0,0.0,0.0,22.05888,2.86479,24.98096,13.91,-0.21,4.24,3.0
1758078195.89682,1758078182.59092,0.0,0.0,0.0,17.87628,15.24068,22.11617,13.91,-0.21,4.24,3.0
1758078195.91222,1758078182.60092,0.0,0.0,0.0,13.80828,23.20479,17.18874,13.36,0.73,4.26,3.0
1758078195.91396,1758078182.61092,0.0,0.0,0.0,10.59972,31.16891,12.43318,13.36,0.73,4.26,3.0
1758078195.92824,1758078182.62092,0.0,0.0,0.0,7.73493,37.98711,6.53172,13.9,1.47,3.78,3.0
1758078195.94427,1758078182.63092,0.0,0.0,0.0,5.90147,41.13837,-1.48969,13.88,1.4,3.48,3.0
1758078195.94661,1758078182.64092,0.0,0.0,0.0,6.58902,39.3622,-5.90147,13.88,1.4,3.48,3.0
1758078195.96154,1758078182.65092,0.0,0.0,0.0,8.36518,35.75257,-8.76626,13.47,0.22,4.22,3.0
1758078195.96367,1758078182.66092,0.0,0.0,0.0,10.65701,32.48671,-10.65701,13.47,0.22,4.22,3.0
1758078195.97861,1758078182.67092,0.0,0.0,0.0,14.9542,26.18417,-10.8289,12.95,-0.9,4.09,3.0
1758078195.99467,1758078182.68092,0.0,0.0,0.0,18.16276,22.57454,-8.99544,12.95,-0.9,4.09,3.0
1758078195.99551,1758078182.69092,0.0,0.0,0.0,21.7151,19.88164,-6.13065,12.19,-1.56,3.83,3.0
1758078196.01291,1758078182.70092,0.0,0.0,0.0,25.38203,19.82434,-2.97938,12.19,-1.56,3.83,3.0
1758078196.01499,1758078182.71092,0.0,0.0,0.0,30.53865,18.33465,1.71887,11.16,-1.75,3.73,3.0
1758078196.03063,1758078182.72092,0.0,0.0,0.0,33.68992,14.83961,4.69825,9.22,-1.36,3.51,3.0
1758078196.04662,1758078182.73092,0.0,0.0,0.0,36.38282,10.02676,7.16197,9.22,-1.36,3.51,3.0
1758078196.04706,1758078182.74092,0.0,0.0,0.0,39.4195,1.43239,10.48513,7.43,-0.86,3.13,3.0
1758078196.06259,1758078182.75092,0.0,0.0,0.0,41.08107,-5.61499,11.97482,7.43,-0.86,3.13,3.0
1758078196.06384,1758078182.76092,0.0,0.0,0.0,41.99781,-14.49583,13.00614,5.92,-0.5,2.64,3.0
1758078196.07864,1758078182.77092,0.0,0.0,0.0,42.97184,-23.66316,13.06344,5.92,-0.5,2.64,3.0
1758078196.09469,1758078182.78092,0.0,0.0,0.0,43.65939,-34.32018,11.91752,4.98,-0.25,2.53,3.0
1758078196.09742,1758078182.79092,0.0,0.0,0.0,44.00316,-40.04975,10.65701,5.11,0.16,2.77,3.0
1758078196.11257,1758078182.80092,0.0,0.0,0.0,44.11775,-46.1231,9.22462,5.11,0.16,2.77,3.0
1758078196.11683,1758078182.81092,0.0,0.0,0.0,43.88857,-51.22243,7.62034,5.42,0.67,3.1,3.0
1758078196.13265,1758078182.82092,0.0,0.0,0.0,42.74266,-55.11855,5.61499,5.42,0.67,3.1,3.0
1758078196.13432,1758078182.83092,0.0,0.0,0.0,41.88322,-55.6342,4.81285,6.25,1.08,2.83,3.0
1758078196.14962,1758078182.84092,0.0,0.0,0.0,40.27893,-55.29043,4.52637,6.25,1.08,2.83,3.0
1758078196.15375,1758078182.85092,0.0,0.0,0.0,38.73195,-53.74345,4.35448,6.84,1.2,2.36,3.0
1758078196.16945,1758078182.86092,0.0,0.0,0.0,35.75257,-49.21708,4.52637,7.33,1.05,2.18,3.0
1758078196.17372,1758078182.87092,0.0,0.0,0.0,33.86181,-45.77933,4.58366,7.33,1.05,2.18,3.0
1758078196.18935,1758078182.88092,0.0,0.0,0.0,31.79916,-41.42485,3.95341,7.78,0.78,2.23,3.0
1758078196.19161,1758078182.89092,0.0,0.0,0.0,29.56462,-35.86716,3.03668,7.78,0.78,2.23,3.0
1758078196.20964,1758078182.90092,0.0,0.0,0.0,26.69983,-25.8404,0.68755,8.56,0.7,2.34,3.0
1758078196.21175,1758078182.91092,0.0,0.0,0.0,25.26744,-19.07949,-1.3178,8.56,0.7,2.34,3.0
1758078196.22867,1758078182.92092,0.0,0.0,0.0,24.17882,-11.91752,-3.60963,9.12,0.76,2.25,3.0
1758078196.24467,1758078182.93092,0.0,0.0,0.0,23.26209,-4.64096,-6.7609,9.12,0.76,2.25,3.0
1758078196.24603,1758078182.94092,0.0,0.0,0.0,22.97561,4.92744,-8.70896,9.33,0.73,2.19,3.0
1758078196.26066,1758078182.95092,0.0,0.0,0.0,23.0902,10.94349,-10.31324,9.46,0.6,2.24,3.0
1758078196.2616,1758078182.96092,0.0,0.0,0.0,23.20479,16.04282,-11.28727,9.46,0.6,2.24,3.0
1758078196.27693,1758078182.97092,0.0,0.0,0.0,24.23611,24.29341,-12.77696,9.74,0.43,2.45,3.0
1758078196.29241,1758078182.98092,0.0,0.0,0.0,25.21014,28.99167,-13.5218,9.74,0.43,2.45,3.0
1758078196.29534,1758078182.99092,0.0,0.0,0.0,26.75713,30.13758,-13.86558,9.91,0.29,2.53,3.0
1758078196.31284,1758078183.00092,0.0,0.0,0.0,28.24682,29.39274,-14.09476,9.91,0.29,2.53,3.0
1758078196.31362,1758078183.01092,0.0,0.0,0.0,30.82513,27.38738,-13.5218,9.6,0.26,2.6,3.0
1758078196.32868,1758078183.02092,0.0,0.0,0.0,32.54401,26.52795,-12.60507,9.66,0.3,2.44,3.0
1758078196.34468,1758078183.03092,0.0,0.0,0.0,33.9764,23.89234,-11.80293,9.66,0.3,2.44,3.0
1758078196.34727,1758078183.04092,0.0,0.0,0.0,35.12231,20.34,-11.00079,9.35,0.46,2.4,3.0
1758078196.36323,1758078183.05092,0.0,0.0,0.0,35.98175,15.06879,-10.48513,9.35,0.46,2.4,3.0
1758078196.36444,1758078183.06092,0.0,0.0,0.0,35.92446,13.5218,-10.31324,9.15,0.73,2.36,3.0
1758078196.37965,1758078183.07092,0.0,0.0,0.0,35.3515,13.5218,-10.08406,9.15,0.73,2.36,3.0
1758078196.38255,1758078183.08092,0.0,0.0,0.0,34.60666,13.5791,-9.96947,9.19,1.04,2.28,3.0
1758078196.39866,1758078183.09092,0.0,0.0,0.0,33.46074,10.02676,-9.22462,8.79,1.22,2.23,3.0
1758078196.40043,1758078183.10092,0.0,0.0,0.0,32.83048,5.61499,-8.136,8.79,1.22,2.23,3.0
1758078196.41791,1758078183.11092,0.0,0.0,0.0,32.20023,1.14592,-6.87549,8.55,1.21,2.03,3.0
1758078196.43431,1758078183.12092,0.0,0.0,0.0,31.56997,-2.29183,-4.64096,8.55,1.21,2.03,3.0
1758078196.43698,1758078183.13092,0.0,0.0,0.0,30.36677,-5.61499,-3.32316,8.86,1.15,1.75,3.0
1758078196.45245,1758078183.14092,0.0,0.0,0.0,29.50733,-6.53172,-2.11994,8.86,1.15,1.75,3.0
1758078196.45931,1758078183.15092,0.0,0.0,0.0,28.36141,-7.04738,-1.03132,9.14,1.08,1.69,3.0
1758078196.49826,1758078183.16092,0.0,0.0,0.0,26.75713,-7.16197,0.0,9.14,1.08,1.69,3.0
1758078196.49962,1758078183.17092,0.0,0.0,0.0,25.8404,-5.78687,0.22918,9.36,1.07,1.86,3.0
1758078196.5,1758078183.18092,0.0,0.0,0.0,24.80907,-4.0107,0.51566,9.65,1.16,1.87,3.0
1758078196.50262,1758078183.19092,0.0,0.0,0.0,23.83505,-2.29183,0.22918,9.65,1.16,1.87,3.0
1758078196.50362,1758078183.20092,0.0,0.0,0.0,22.11617,-0.57296,-0.74485,9.59,1.26,1.83,3.0
1758078196.51948,1758078183.21092,0.0,0.0,0.0,21.14215,0.57296,-1.08862,9.59,1.26,1.83,3.0
1758078196.52309,1758078183.22092,0.0,0.0,0.0,20.16812,1.60428,-1.66158,9.51,1.34,1.76,3.0
1758078196.5387,1758078183.23092,0.0,0.0,0.0,18.90761,3.03668,-2.23454,9.51,1.34,1.76,3.0
1758078196.55471,1758078183.24092,0.0,0.0,0.0,17.30333,1.08862,-4.23989,9.51,1.37,1.83,3.0
1758078196.55728,1758078183.25092,0.0,0.0,0.0,15.87093,-0.51566,-4.81285,9.22,1.47,1.6,3.0
1758078196.57278,1758078183.26092,0.0,0.0,0.0,13.23533,0.74485,-7.16197,9.22,1.47,1.6,3.0
1758078196.57718,1758078183.27092,0.0,0.0,0.0,11.22997,0.22918,-7.67763,9.4,1.61,1.69,3.0
1758078196.5928,1758078183.28092,0.0,0.0,0.0,7.79223,-0.34377,-8.99544,9.4,1.61,1.69,3.0
1758078196.59698,1758078183.29092,0.0,0.0,0.0,5.21392,-0.57296,-9.85487,9.36,1.62,1.53,3.0
1758078196.61363,1758078183.30092,0.0,0.0,0.0,2.57831,0.0573,-10.65701,9.36,1.62,1.53,3.0
1758078196.61933,1758078183.31092,0.0,0.0,0.0,-0.51566,0.97403,-11.34457,9.53,1.63,1.49,3.0
1758078196.63472,1758078183.32092,0.0,0.0,0.0,-4.69825,0.57296,-13.06344,9.52,1.66,1.27,3.0
1758078196.63809,1758078183.33092,0.0,0.0,0.0,-7.62034,-2.11994,-13.46451,9.52,1.66,1.27,3.0
1758078196.65381,1758078183.34092,0.0,0.0,0.0,-9.96947,-6.13065,-13.00614,9.25,1.7,0.99,3.0
1758078196.65666,1758078183.35092,0.0,0.0,0.0,-13.17803,-8.42248,-11.51645,9.25,1.7,0.99,3.0
1758078196.67421,1758078183.36092,0.0,0.0,0.0,-14.72501,-9.68299,-9.91217,9.36,1.43,0.48,3.0
1758078196.67711,1758078183.37092,0.0,0.0,0.0,-16.95955,-11.45916,-8.59437,9.36,1.43,0.48,3.0
1758078196.69183,1758078183.38092,0.0,0.0,0.0,-19.13679,-11.63104,-8.02141,9.64,1.16,0.87,3.0
1758078196.69269,1758078183.39092,0.0,0.0,0.0,-20.05352,5.27121,-8.136,9.64,1.16,0.87,3.0
1758078196.70781,1758078183.40092,0.0,0.0,0.0,-22.11617,10.94349,-9.28192,11.33,1.17,1.47,3.0
1758078196.72348,1758078183.41092,0.0,0.0,0.0,-22.63183,4.98473,-10.71431,10.82,1.68,2.16,3.0
1758078196.72474,1758078183.42092,0.0,0.0,0.0,-24.23611,-6.99009,-15.06879,10.82,1.68,2.16,3.0
1758078196.7396,1758078183.43092,0.0,0.0,0.0,-24.4653,-5.95876,-20.79837,11.01,2.33,3.33,3.0
1758078196.74075,1758078183.44092,0.0,0.0,0.0,-24.12152,0.40107,-22.63183,11.01,2.33,3.33,3.0
1758078196.75693,1758078183.45092,0.0,0.0,0.0,-22.57454,7.84952,-22.34536,12.66,2.34,1.65,3.0
1758078196.7737,1758078183.46092,0.0,0.0,0.0,-20.97026,12.83425,-21.60051,12.66,2.34,1.65,3.0
1758078196.7746,1758078183.47092,0.0,0.0,0.0,-17.6471,16.95955,-19.99623,12.77,1.61,2.82,3.0
1758078196.81743,1758078183.48092,0.0,0.0,0.0,-15.12609,21.7151,-18.62113,13.73,0.65,4.05,3.0
1758078196.83973,1758078183.49092,0.0,0.0,0.0,-12.71966,29.62192,-17.6471,13.73,0.65,4.05,3.0
1758078196.84034,1758078183.50092,0.0,0.0,0.0,-9.5684,37.87251,-16.61578,15.39,0.06,4.15,3.0
1758078196.8451,1758078183.51092,0.0,0.0,0.0,-4.81285,45.09178,-14.15206,15.39,0.06,4.15,3.0
1758078196.84619,1758078183.52092,0.0,0.0,0.0,-2.40642,44.86259,-11.45916,15.17,0.66,4.37,3.0
1758078196.84938,1758078183.53092,0.0,0.0,0.0,-1.08862,40.27893,-7.84952,15.17,0.66,4.37,3.0
1758078196.84975,1758078183.54092,0.0,0.0,0.0,-1.14592,33.68992,-2.92208,14.1,1.95,4.17,3.0
1758078196.85089,1758078183.55092,0.0,0.0,0.0,-4.29718,24.98096,-0.34377,13.44,2.94,4.05,3.0
1758078196.86698,1758078183.56092,0.0,0.0,0.0,-8.136,20.85567,0.68755,13.44,2.94,4.05,3.0
1758078196.88369,1758078183.57092,0.0,0.0,0.0,-12.71966,17.53251,0.85944,12.45,3.28,4.44,3.0
1758078196.88484,1758078183.58092,0.0,0.0,0.0,-19.53786,10.54242,0.11459,12.45,3.28,4.44,3.0
1758078196.89966,1758078183.59092,0.0,0.0,0.0,-23.83505,3.66693,-1.03132,10.75,3.3,4.57,3.0
1758078196.90083,1758078183.60092,0.0,0.0,0.0,-27.73116,-4.98473,-2.7502,10.75,3.3,4.57,3.0
1758078196.91694,1758078183.61092,0.0,0.0,0.0,-30.82513,-14.20935,-4.69825,8.82,2.95,3.88,3.0
1758078196.93296,1758078183.62092,0.0,0.0,0.0,-35.3515,-25.26744,-8.0787,7.27,2.95,2.86,3.0
1758078196.93386,1758078183.63092,0.0,0.0,0.0,-37.98711,-33.34615,-10.08406,7.27,2.35,2.86,3.0
1758078196.94897,1758078183.64092,0.0,0.0,0.0,-40.50812,-41.99781,-11.63104,5.76,1.9,2.5,3.0
1758078196.9647,1758078183.65092,0.0,0.0,0.0,-42.68536,-50.47758,-12.14671,5.76,1.9,2.5,3.0
1758078196.96786,1758078183.66092,0.0,0.0,0.0,-45.20637,-60.16057,-11.86023,5.1,1.48,2.39,3.0
1758078196.98397,1758078183.67092,0.0,0.0,0.0,-46.1804,-65.89015,-10.71431,5.1,1.48,2.39,3.0
1758078196.98488,1758078183.68092,0.0,0.0,0.0,-46.52417,-69.3279,-9.4538,5.37,0.79,2.44,3.0
1758078197.00169,1758078183.69092,0.0,0.0,0.0,-46.06581,-71.16136,-8.02141,5.37,0.79,2.44,3.0
1758078197.00372,1758078183.70092,0.0,0.0,0.0,-44.23235,-69.61437,-6.13065,6.38,-0.04,2.61,3.0
1758078197.01865,1758078183.71092,0.0,0.0,0.0,-42.22699,-66.69229,-4.92744,7.59,-0.67,2.64,3.0
1758078197.03468,1758078183.72092,0.0,0.0,0.0,-40.04975,-62.39511,-3.60963,7.59,-0.67,2.64,3.0
1758078197.03908,1758078183.73092,0.0,0.0,0.0,-37.87251,-56.952,-2.23454,8.48,-0.69,2.64,3.0
1758078197.05477,1758078183.74092,0.0,0.0,0.0,-35.00772,-47.67009,-0.11459,8.48,-0.69,2.64,3.0
1758078197.05937,1758078183.75092,0.0,0.0,0.0,-33.11696,-41.36755,1.3178,8.81,-0.12,2.56,3.0
1758078197.07501,1758078183.76092,0.0,0.0,0.0,-31.39809,-34.77854,2.7502,8.81,-0.12,2.56,3.0
1758078197.07703,1758078183.77092,0.0,0.0,0.0,-28.99167,-22.63183,4.46907,8.88,0.37,2.25,3.0
1758078197.09171,1758078183.78092,0.0,0.0,0.0,-27.67386,-13.75099,4.98473,9.19,0.39,1.96,3.0
1758078197.09327,1758078183.79092,0.0,0.0,0.0,-26.75713,-5.21392,5.09932,9.19,0.39,1.96,3.0
1758078197.10878,1758078183.80092,0.0,0.0,0.0,-26.01229,3.20856,4.81285,9.45,0.3,1.9,3.0
1758078197.12496,1758078183.81092,0.0,0.0,0.0,-26.01229,14.20935,4.18259,9.45,0.3,1.9,3.0
1758078197.12587,1758078183.82092,0.0,0.0,0.0,-26.24147,20.68378,3.72423,9.46,0.42,1.98,3.0
1758078197.14071,1758078183.83092,0.0,0.0,0.0,-26.64254,26.52795,3.49504,9.46,0.42,1.98,3.0
1758078197.17294,1758078183.84092,0.0,0.0,0.0,-28.76248,40.50812,3.60963,9.49,0.69,2.06,3.0
1758078197.17391,1758078183.85092,0.0,0.0,0.0,-29.27814,40.04975,3.95341,9.13,0.72,2.29,3.0
1758078197.1893,1758078183.86092,0.0,0.0,0.0,-29.39274,36.89849,4.29718,9.13,0.72,2.29,3.0
1758078197.20498,1758078183.87092,0.0,0.0,0.0,-29.62192,31.45539,5.61499,8.73,0.68,2.3,3.0
1758078197.20595,1758078183.88092,0.0,0.0,0.0,-29.56462,29.8511,6.47442,8.73,0.68,2.3,3.0
1758078197.22105,1758078183.89092,0.0,0.0,0.0,-29.27814,29.27814,7.39116,8.99,0.43,2.08,3.0
1758078197.22392,1758078183.90092,0.0,0.0,0.0,-29.10626,28.476,7.84952,8.99,0.43,2.08,3.0
1758078197.23875,1758078183.91092,0.0,0.0,0.0,-29.22085,24.98096,8.25059,8.72,0.21,2.15,3.0
1758078197.25583,1758078183.92092,0.0,0.0,0.0,-29.10626,23.60586,8.136,8.36,0.16,2.3,3.0
1758078197.25761,1758078183.93092,0.0,0.0,0.0,-29.10626,21.37133,7.73493,8.36,0.16,2.3,3.0
1758078197.27363,1758078183.94092,0.0,0.0,0.0,-29.39274,18.56383,6.35983,8.12,0.26,2.11,3.0
1758078197.27589,1758078183.95092,0.0,0.0,0.0,-29.67921,15.06879,4.98473,8.12,0.26,2.11,3.0
1758078197.29362,1758078183.96092,0.0,0.0,0.0,-29.96569,12.37589,3.32316,8.08,0.38,2.04,3.0
1758078197.29457,1758078183.97092,0.0,0.0,0.0,-29.96569,8.99544,2.00535,8.08,0.38,2.04,3.0
1758078197.30987,1758078183.98092,0.0,0.0,0.0,-29.9084,4.52637,0.17189,8.0,0.46,2.05,3.0
1758078197.31212,1758078183.99092,0.0,0.0,0.0,-29.62192,2.11994,-0.45837,8.33,0.45,2.09,3.0
1758078197.32864,1758078184.00092,0.0,0.0,0.0,-29.04896,-0.17189,-0.97403,8.33,0.45,2.09,3.0
1758078197.35196,1758078184.01092,0.0,0.0,0.0,-28.59059,-1.48969,-1.08862,8.66,0.34,2.12,3.0
1758078197.37407,1758078184.02092,0.0,0.0,0.0,-27.67386,-2.6929,-0.97403,8.66,0.34,2.12,3.0
1758078197.3747,1758078184.03092,0.0,0.0,0.0,-26.98631,-3.09397,-0.57296,9.0,0.22,2.12,3.0
1758078197.37762,1758078184.04092,0.0,0.0,0.0,-26.01229,-3.89611,-0.40107,9.0,0.22,2.12,3.0
1758078197.3793,1758078184.05092,0.0,0.0,0.0,-25.09555,-3.55234,-0.17189,9.24,0.12,2.01,3.0
1758078197.39495,1758078184.06092,0.0,0.0,0.0,-22.91831,0.57296,0.80214,9.93,0.01,2.02,3.0
1758078197.39712,1758078184.07092,0.0,0.0,0.0,-21.14215,6.53172,1.60428,9.93,0.01,2.02,3.0
1758078197.41293,1758078184.08092,0.0,0.0,0.0,-19.07949,10.25595,2.63561,10.37,-0.14,1.88,3.0
1758078197.41384,1758078184.09092,0.0,0.0,0.0,-17.30333,13.69369,3.26586,10.37,-0.14,1.88,3.0
1758078197.4291,1758078184.10092,0.0,0.0,0.0,-14.78231,19.07949,4.0107,10.6,-0.16,2.18,3.0
1758078197.431,1758078184.11092,0.0,0.0,0.0,-13.00614,22.28806,4.81285,10.6,-0.16,2.18,3.0
1758078197.44908,1758078184.12092,0.0,0.0,0.0,-11.17268,25.09555,6.07335,11.12,-0.12,2.12,3.0
1758078197.46507,1758078184.13092,0.0,0.0,0.0,-8.88085,28.13223,8.0787,11.12,-0.12,2.12,3.0
1758078197.46632,1758078184.14092,0.0,0.0,0.0,-7.04738,34.14828,9.68299,11.59,-0.1,2.11,3.0
1758078197.48107,1758078184.15092,0.0,0.0,0.0,-6.47442,36.26823,10.48513,11.86,-0.13,2.21,3.0
1758078197.48366,1758078184.16092,0.0,0.0,0.0,-5.61499,32.08564,11.34457,11.86,-0.13,2.21,3.0
1758078197.49903,1758078184.17092,0.0,0.0,0.0,-6.70361,9.11003,8.93814,10.64,-0.17,2.71,3.0
1758078197.51488,1758078184.18092,0.0,0.0,0.0,-5.55769,11.80293,7.62034,10.64,-0.17,2.71,3.0
1758078197.51684,1758078184.19092,0.0,0.0,0.0,-5.09932,31.11161,7.21927,13.27,-0.27,3.2,3.0
1758078197.53209,1758078184.20092,0.0,0.0,0.0,-6.18794,42.28429,6.58902,13.27,-0.27,3.2,3.0
1758078197.53304,1758078184.21092,0.0,0.0,0.0,-12.60507,16.21471,5.72958,14.33,0.42,7.11,3.0
1758078197.54786,1758078184.22092,0.0,0.0,0.0,-13.86558,-2.63561,9.74028,12.16,0.92,7.06,3.0
1758078197.56388,1758078184.23092,0.0,0.0,0.0,-16.67307,-7.33386,10.37054,12.16,0.92,7.06,3.0
1758078197.56507,1758078184.24092,0.0,0.0,0.0,-18.62113,1.20321,12.37589,15.19,0.66,3.97,3.0
1758078197.58006,1758078184.25092,0.0,0.0,0.0,-18.62113,10.54242,9.11003,15.19,0.66,3.97,3.0
1758078197.5813,1758078184.26092,0.0,0.0,0.0,-17.13144,9.5684,4.29718,12.77,-0.17,4.25,3.0
1758078197.59813,1758078184.27092,0.0,0.0,0.0,-14.49583,6.41713,-0.97403,12.77,-0.17,4.25,3.0
1758078197.61418,1758078184.28092,0.0,0.0,0.0,-10.65701,6.41713,-5.09932,11.29,-0.86,5.47,3.0
1758078197.61669,1758078184.29092,0.0,0.0,0.0,-4.0107,12.60507,-11.17268,11.72,-0.8,4.43,3.0
1758078197.63214,1758078184.30092,0.0,0.0,0.0,1.03132,13.75099,-13.69369,11.72,-0.8,4.43,3.0
1758078197.63475,1758078184.31092,0.0,0.0,0.0,6.41713,13.5791,-13.80828,9.91,-0.85,3.72,3.0
1758078197.65191,1758078184.32092,0.0,0.0,0.0,11.34457,12.08941,-12.60507,9.91,-0.85,3.72,3.0
1758078197.65465,1758078184.33092,0.0,0.0,0.0,18.16276,5.27121,-7.96411,8.02,-1.01,3.45,3.0
1758078197.67318,1758078184.34092,0.0,0.0,0.0,21.94428,0.40107,-4.29718,8.02,-1.01,3.45,3.0
1758078197.67438,1758078184.35092,0.0,0.0,0.0,24.86637,-5.90147,-0.34377,6.58,-1.01,2.82,3.0
1758078197.6892,1758078184.36092,0.0,0.0,0.0,28.30412,-13.5791,4.23989,6.58,-1.01,2.82,3.0
1758078197.70497,1758078184.37092,0.0,0.0,0.0,30.02299,-25.49662,5.90147,5.57,-1.01,2.87,3.0
1758078197.70614,1758078184.38092,0.0,0.0,0.0,31.74186,-32.42941,6.53172,5.24,-0.82,2.72,3.0
1758078197.72093,1758078184.39092,0.0,0.0,0.0,32.77319,-38.1017,6.41713,5.24,-0.82,2.72,3.0
1758078197.72294,1758078184.40092,0.0,0.0,0.0,33.74722,-43.25832,5.15662,5.49,-0.16,2.81,3.0
1758078197.73891,1758078184.41092,0.0,0.0,0.0,34.0337,-45.37826,4.18259,5.49,-0.16,2.81,3.0
1758078197.75492,1758078184.42092,0.0,0.0,0.0,33.46074,-46.52417,3.03668,5.94,0.88,2.7,3.0
1758078197.7561,1758078184.43092,0.0,0.0,0.0,32.77319,-46.69606,2.57831,5.94,0.88,2.7,3.0
1758078197.77302,1758078184.44092,0.0,0.0,0.0,30.59595,-44.63341,1.43239,6.48,1.83,2.7,3.0
1758078197.77392,1758078184.45092,0.0,0.0,0.0,28.87707,-42.28429,0.80214,7.11,2.19,2.61,3.0
1758078197.78921,1758078184.46092,0.0,0.0,0.0,26.81443,-39.19032,0.22918,7.11,2.19,2.61,3.0
1758078197.80522,1758078184.47092,0.0,0.0,0.0,24.63719,-35.86716,-0.34377,7.67,1.86,2.72,3.0
1758078197.80854,1758078184.48092,0.0,0.0,0.0,21.7151,-28.87707,-2.23454,7.67,1.86,2.72,3.0
1758078197.82419,1758078184.49092,0.0,0.0,0.0,20.16812,-23.31938,-3.72423,8.26,1.27,2.62,3.0
1758078197.82537,1758078184.50092,0.0,0.0,0.0,19.07949,-17.76169,-5.55769,8.26,1.27,2.62,3.0
1758078197.84077,1758078184.51092,0.0,0.0,0.0,18.27736,-12.2613,-7.50575,8.74,0.87,2.58,3.0
1758078197.84393,1758078184.52092,0.0,0.0,0.0,18.22006,-4.46907,-10.19865,9.16,0.71,2.67,3.0
1758078197.85897,1758078184.53092,0.0,0.0,0.0,18.73572,-0.0573,-11.80293,9.16,0.71,2.67,3.0
1758078197.87528,1758078184.54092,0.0,0.0,0.0,19.70975,4.23989,-13.34992,9.41,0.67,2.79,3.0
1758078197.8765,1758078184.55092,0.0,0.0,0.0,21.08485,6.99009,-14.72501,9.41,0.67,2.79,3.0
1758078197.89097,1758078184.56092,0.0,0.0,0.0,23.72045,9.62569,-15.06879,9.44,0.67,2.89,3.0
1758078197.89332,1758078184.57092,0.0,0.0,0.0,26.01229,10.8862,-15.12609,9.44,0.67,2.89,3.0
1758078197.90827,1758078184.58092,0.0,0.0,0.0,28.07493,9.62569,-15.12609,9.51,0.68,2.88,3.0
1758078197.92426,1758078184.59092,0.0,0.0,0.0,30.99702,5.72958,-14.66772,9.51,0.68,2.88,3.0
1758078197.92599,1758078184.60092,0.0,0.0,0.0,32.54401,3.72423,-14.09476,9.28,0.64,2.82,3.0
1758078197.94107,1758078184.61092,0.0,0.0,0.0,33.74722,0.57296,-13.12073,9.17,0.64,2.69,3.0
1758078197.9422,1758078184.62092,0.0,0.0,0.0,34.49206,-3.38045,-12.204,9.17,0.64,2.69,3.0
1758078197.95721,1758078184.63092,0.0,0.0,0.0,34.77854,-9.68299,-10.31324,8.86,0.72,2.53,3.0
1758078197.97427,1758078184.64092,0.0,0.0,0.0,34.32018,-13.46451,-9.11003,8.86,0.72,2.53,3.0
1758078197.97566,1758078184.65092,0.0,0.0,0.0,33.46074,-16.50119,-7.67763,8.8,0.84,2.36,3.0
1758078197.9933,1758078184.66092,0.0,0.0,0.0,31.91375,-17.99088,-6.41713,8.8,0.84,2.36,3.0
1758078197.99423,1758078184.67092,0.0,0.0,0.0,28.59059,-18.62113,-5.4431,8.98,1.1,2.28,3.0
1758078198.00925,1758078184.68092,0.0,0.0,0.0,25.7831,-19.70975,-5.09932,8.93,1.56,2.28,3.0
1758078198.02528,1758078184.69092,0.0,0.0,0.0,22.97561,-21.02755,-5.21392,8.93,1.56,2.28,3.0
1758078198.02858,1758078184.70092,0.0,0.0,0.0,20.3973,-21.94428,-5.50039,8.83,1.91,2.0,3.0
1758078198.04417,1758078184.71092,0.0,0.0,0.0,17.18874,-22.86102,-5.84417,8.83,1.91,2.0,3.0
1758078198.04695,1758078184.72092,0.0,0.0,0.0,15.41257,-23.83505,-6.18794,8.8,1.92,1.76,3.0
1758078198.06428,1758078184.73092,0.0,0.0,0.0,14.09476,-23.72045,-6.35983,8.8,1.92,1.76,3.0
1758078198.06546,1758078184.74092,0.0,0.0,0.0,13.06344,-22.57454,-6.70361,8.85,1.64,1.6,3.0
1758078198.08111,1758078184.75092,0.0,0.0,0.0,12.14671,-19.82434,-6.70361,9.01,1.35,1.51,3.0
1758078198.08289,1758078184.76092,0.0,0.0,0.0,11.86023,-16.55848,-6.53172,9.01,1.35,1.51,3.0
1758078198.09833,1758078184.77092,0.0,0.0,0.0,11.86023,-13.23533,-6.24524,9.18,1.17,1.51,3.0
1758078198.1143,1758078184.78092,0.0,0.0,0.0,12.37589,-7.21927,-6.07335,9.18,1.17,1.51,3.0
1758078198.11715,1758078184.79092,0.0,0.0,0.0,12.83425,-2.29183,-5.72958,9.36,1.03,1.52,3.0
1758078198.13234,1758078184.80092,0.0,0.0,0.0,13.23533,3.09397,-5.50039,9.36,1.03,1.52,3.0
1758078198.13324,1758078184.81092,0.0,0.0,0.0,13.75099,7.84952,-5.50039,9.48,0.99,1.51,3.0
1758078198.14807,1758078184.82092,0.0,0.0,0.0,14.72501,14.20935,-5.55769,9.48,0.99,1.51,3.0
1758078198.16444,1758078184.83092,0.0,0.0,0.0,15.12609,18.56383,-5.72958,9.39,1.05,1.47,3.0
1758078198.1668,1758078184.84092,0.0,0.0,0.0,15.58445,20.45459,-6.24524,9.29,1.16,1.39,3.0
1758078198.18392,1758078184.85092,0.0,0.0,0.0,15.58445,20.97026,-6.07335,9.29,1.16,1.39,3.0
1758078198.18485,1758078184.86092,0.0,0.0,0.0,15.12609,18.44924,-5.15662,9.12,1.29,1.27,3.0
1758078198.2011,1758078184.87092,0.0,0.0,0.0,14.20935,14.03747,-4.52637,9.12,1.29,1.27,3.0
1758078198.20479,1758078184.88092,0.0,0.0,0.0,12.49048,9.74028,-4.18259,9.08,1.43,1.36,3.0
1758078198.22118,1758078184.89092,0.0,0.0,0.0,10.48513,6.99009,-4.58366,9.08,1.43,1.36,3.0
1758078198.2221,1758078184.90092,0.0,0.0,0.0,6.99009,4.23989,-3.72423,9.44,1.67,1.35,3.0
1758078198.23745,1758078184.91092,0.0,0.0,0.0,2.97938,6.18794,-4.69825,9.53,1.86,1.24,3.0
1758078198.25421,1758078184.92092,0.0,0.0,0.0,-0.17189,6.18794,-5.21392,9.53,1.86,1.24,3.0
1758078198.25703,1758078184.93092,0.0,0.0,0.0,-3.83882,4.98473,-6.13065,9.3,1.96,1.57,3.0
1758078198.27243,1758078184.94092,0.0,0.0,0.0,-8.88085,2.7502,-8.30789,9.3,1.96,1.57,3.0
1758078198.27334,1758078184.95092,0.0,0.0,0.0,-12.54778,1.20321,-9.5684,9.25,2.05,1.24,3.0
1758078198.28851,1758078184.96092,0.0,0.0,0.0,-15.46986,-1.3751,-11.11538,9.25,2.05,1.24,3.0
1758078198.30438,1758078184.97092,0.0,0.0,0.0,-17.36062,-8.02141,-11.45916,9.18,2.1,1.0,3.0
1758078198.30571,1758078184.98092,0.0,0.0,0.0,-20.79837,-15.0115,-11.86023,9.2,1.92,0.67,3.0
1758078198.32122,1758078184.99092,0.0,0.0,0.0,-22.40265,-14.78231,-11.86023,9.2,1.92,0.67,3.0
1758078198.32377,1758078185.00092,0.0,0.0,0.0,-24.4653,-12.43318,-10.48513,10.2,1.65,0.69,3.0
1758078198.33918,1758078185.01092,0.0,0.0,0.0,-27.44468,-5.95876,-8.93814,10.2,1.65,0.69,3.0
1758078198.35517,1758078185.02092,0.0,0.0,0.0,-30.36677,8.47978,-12.2613,11.71,1.8,1.38,3.0
1758078198.35638,1758078185.03092,0.0,0.0,0.0,-33.11696,17.81899,-13.40721,11.71,1.8,1.38,3.0
1758078198.37114,1758078185.04092,0.0,0.0,0.0,-35.00772,18.16276,-15.64175,13.11,2.28,2.02,3.0
1758078198.37268,1758078185.05092,0.0,0.0,0.0,-35.52338,13.12073,-16.10011,12.45,2.28,2.41,3.0
1758078198.38717,1758078185.06092,0.0,0.0,0.0,-34.60666,-1.20321,-17.87628,12.45,2.86,2.41,3.0
1758078198.40314,1758078185.07092,0.0,0.0,0.0,-34.0337,-10.25595,-21.08485,12.32,3.17,2.06,3.0
1758078198.40435,1758078185.08092,0.0,0.0,0.0,-33.46074,-5.21392,-23.94964,12.32,3.17,2.06,3.0
1758078198.42058,1758078185.09092,0.0,0.0,0.0,-32.37212,8.99544,-25.72581,14.64,2.74,2.04,3.0
1758078198.42216,1758078185.10092,0.0,0.0,0.0,-31.74186,19.07949,-25.49662,14.64,2.74,2.04,3.0
1758078198.43743,1758078185.11092,0.0,0.0,0.0,-29.96569,28.70519,-23.0902,14.78,1.67,2.64,3.0
1758078198.4533,1758078185.12092,0.0,0.0,0.0,-27.67386,32.83048,-19.53786,14.78,1.67,2.64,3.0
1758078198.45436,1758078185.13092,0.0,0.0,0.0,-24.35071,33.9764,-13.12073,15.05,0.79,3.65,3.0
1758078198.46919,1758078185.14092,0.0,0.0,0.0,-23.0329,35.75257,-9.5684,15.78,0.7,3.23,3.0
1758078198.47222,1758078185.15092,0.0,0.0,0.0,-22.51724,40.7946,-5.4431,15.78,0.7,3.23,3.0
1758078198.48847,1758078185.16092,0.0,0.0,0.0,-22.68913,43.14373,-0.74485,15.28,1.89,3.34,3.0
1758078198.50444,1758078185.17092,0.0,0.0,0.0,-25.55392,31.85646,3.38045,15.28,1.89,3.34,3.0
1758078198.50656,1758078185.18092,0.0,0.0,0.0,-28.36141,22.63183,3.89611,12.23,2.79,4.09,3.0
1758078198.52148,1758078185.19092,0.0,0.0,0.0,-31.79916,16.73037,2.92208,12.23,2.79,4.09,3.0
1758078198.52436,1758078185.20092,0.0,0.0,0.0,-36.49741,12.43318,-0.34377,11.19,3.05,3.72,3.0
1758078198.53918,1758078185.21092,0.0,0.0,0.0,-39.24761,8.25059,-3.09397,9.29,3.08,3.83,3.0
1758078198.54125,1758078185.22092,0.0,0.0,0.0,-41.88322,0.45837,-5.90147,9.29,3.08,3.83,3.0
1758078198.55855,1758078185.23092,0.0,0.0,0.0,-44.28964,-9.33921,-8.47978,6.71,2.92,3.88,3.0
1758078198.57421,1758078185.24092,0.0,0.0,0.0,-47.03984,-27.67386,-10.65701,6.71,2.92,3.88,3.0
1758078198.59808,1758078185.25092,0.0,0.0,0.0,-48.35764,-40.45082,-10.71431,5.15,2.51,3.28,3.0
1758078198.59846,1758078185.26092,0.0,0.0,0.0,-49.27437,-52.42564,-9.33921,5.15,2.51,3.28,3.0
1758078198.59961,1758078185.27092,0.0,0.0,0.0,-50.01921,-61.24919,-7.16197,4.93,1.77,2.57,3.0
1758078198.61715,1758078185.28092,0.0,0.0,0.0,-49.67545,-69.04142,-3.32316,5.96,0.72,2.64,3.0
1758078198.61886,1758078185.29092,0.0,0.0,0.0,-49.21708,-70.24463,-1.3751,5.96,0.72,2.64,3.0
1758078198.63444,1758078185.30092,0.0,0.0,0.0,-48.07116,-69.38519,-0.0573,7.17,-0.05,2.79,3.0
1758078198.63545,1758078185.31092,0.0,0.0,0.0,-47.03984,-67.60902,0.51566,7.17,-0.05,2.79,3.0
1758078198.65125,1758078185.32092,0.0,0.0,0.0,-45.26366,-62.96807,0.85944,7.8,-0.04,2.87,3.0
1758078198.65247,1758078185.33092,0.0,0.0,0.0,-44.51882,-58.4417,1.08862,7.8,-0.04,2.87,3.0
1758078198.66722,1758078185.34092,0.0,0.0,0.0,-43.94586,-53.11319,1.43239,8.2,0.59,2.81,3.0
1758078198.6833,1758078185.35092,0.0,0.0,0.0,-43.54479,-47.38361,1.71887,8.2,0.59,2.81,3.0
1758078198.68481,1758078185.36092,0.0,0.0,0.0,-43.25832,-38.27358,2.7502,8.43,1.12,2.59,3.0
1758078198.69927,1758078185.37092,0.0,0.0,0.0,-42.91454,-31.51268,3.60963,8.57,1.2,2.09,3.0
1758078198.71604,1758078185.38092,0.0,0.0,0.0,-42.51347,-24.23611,4.29718,8.57,1.2,2.09,3.0
1758078198.71731,1758078185.39092,0.0,0.0,0.0,-42.22699,-16.67307,4.92744,8.84,0.9,1.83,3.0
1758078198.73258,1758078185.40092,0.0,0.0,0.0,-42.22699,-6.41713,5.21392,8.84,0.9,1.83,3.0
1758078198.73373,1758078185.41092,0.0,0.0,0.0,-42.34158,0.0573,5.15662,8.92,0.52,1.91,3.0
1758078198.74859,1758078185.42092,0.0,0.0,0.0,-42.1124,5.61499,4.98473,8.92,0.52,1.91,3.0
1758078198.76437,1758078185.43092,0.0,0.0,0.0,-41.65404,11.86023,4.29718,8.89,0.52,2.02,3.0
1758078198.7655,1758078185.44092,0.0,0.0,0.0,-41.48215,14.32395,3.60963,8.81,0.71,2.16,3.0
1758078198.7803,1758078185.45092,0.0,0.0,0.0,-41.48215,15.75634,2.46372,8.81,0.71,2.16,3.0
1758078198.78266,1758078185.46092,0.0,0.0,0.0,-41.65404,16.38659,1.71887,8.7,0.9,2.19,3.0
1758078198.79831,1758078185.47092,0.0,0.0,0.0,-42.1124,15.92823,0.17189,8.7,0.9,2.19,3.0
1758078198.81427,1758078185.48092,0.0,0.0,0.0,-43.4875,14.15206,-0.45837,8.51,0.87,2.29,3.0
1758078198.81711,1758078185.49092,0.0,0.0,0.0,-44.00316,11.74564,-0.40107,8.51,0.87,2.29,3.0
1758078198.83237,1758078185.50092,0.0,0.0,0.0,-44.17505,10.08406,-0.0573,8.43,0.66,2.06,3.0
1758078198.83361,1758078185.51092,0.0,0.0,0.0,-43.77398,9.28192,0.51566,8.75,0.53,2.44,3.0
1758078198.84831,1758078185.52092,0.0,0.0,0.0,-43.31561,8.30789,0.51566,8.75,0.53,2.44,3.0
1758078198.86438,1758078185.53092,0.0,0.0,0.0,-42.51347,7.39116,0.57296,8.71,0.39,2.23,3.0
1758078198.86609,1758078185.54092,0.0,0.0,0.0,-41.36755,7.10468,0.80214,8.71,0.39,2.23,3.0
1758078198.88034,1758078185.55092,0.0,0.0,0.0,-39.24761,5.61499,1.3178,8.57,0.14,2.28,3.0
1758078198.88194,1758078185.56092,0.0,0.0,0.0,-37.81522,3.09397,1.60428,8.57,0.14,2.28,3.0
1758078198.89864,1758078185.57092,0.0,0.0,0.0,-36.49741,0.22918,2.06265,8.31,-0.02,2.12,3.0
1758078198.93853,1758078185.58092,0.0,0.0,0.0,-35.2942,-2.29183,1.83346,8.31,-0.02,2.12,3.0
1758078198.93974,1758078185.59092,0.0,0.0,0.0,-34.26288,-6.7609,1.08862,8.43,0.05,2.11,3.0
1758078198.94125,1758078185.60092,0.0,0.0,0.0,-33.9764,-9.62569,0.11459,8.36,0.41,1.8,3.0
1758078198.94291,1758078185.61092,0.0,0.0,0.0,-33.86181,-11.51645,-1.08862,8.36,0.41,1.8,3.0
1758078198.9436,1758078185.62092,0.0,0.0,0.0,-34.0337,-13.46451,-3.03668,8.42,0.76,1.57,3.0
1758078198.95963,1758078185.63092,0.0,0.0,0.0,-34.0337,-14.38124,-4.23989,8.42,0.76,1.57,3.0
1758078198.96134,1758078185.64092,0.0,0.0,0.0,-34.0337,-14.49583,-5.4431,8.49,0.88,1.39,3.0
1758078198.97861,1758078185.65092,0.0,0.0,0.0,-33.86181,-13.23533,-6.18794,8.49,0.88,1.39,3.0
1758078198.99466,1758078185.66092,0.0,0.0,0.0,-33.46074,-11.11538,-7.16197,8.8,0.8,1.31,3.0
1758078198.99745,1758078185.67092,0.0,0.0,0.0,-33.23156,-8.59437,-7.73493,8.99,0.61,1.18,3.0
1758078199.01242,1758078185.68092,0.0,0.0,0.0,-32.6013,-5.90147,-8.136,8.99,0.61,1.18,3.0
1758078199.0147,1758078185.69092,0.0,0.0,0.0,-31.97105,-2.46372,-8.59437,9.25,0.35,1.18,3.0
1758078199.02972,1758078185.70092,0.0,0.0,0.0,-30.48136,4.23989,-9.28192,9.25,0.35,1.18,3.0
1758078199.0332,1758078185.71092,0.0,0.0,0.0,-29.62192,7.96411,-9.62569,9.61,0.1,1.07,3.0
1758078199.04869,1758078185.72092,0.0,0.0,0.0,-28.36141,13.06344,-9.91217,9.61,0.1,1.07,3.0
1758078199.06464,1758078185.73092,0.0,0.0,0.0,-27.10091,19.53786,-10.59972,9.81,0.09,0.95,3.0
1758078199.06599,1758078185.74092,0.0,0.0,0.0,-24.92367,28.07493,-11.74564,9.75,0.26,0.82,3.0
1758078199.08069,1758078185.75092,0.0,0.0,0.0,-22.74642,32.54401,-11.45916,9.75,0.26,0.82,3.0
1758078199.08397,1758078185.76092,0.0,0.0,0.0,-20.34,31.2262,-10.65701,9.14,0.31,1.12,3.0
1758078199.0997,1758078185.77092,0.0,0.0,0.0,-17.6471,25.8404,-9.39651,9.14,0.31,1.12,3.0
1758078199.10222,1758078185.78092,0.0,0.0,0.0,-12.77696,17.24603,-6.53172,8.63,-0.06,0.93,3.0
1758078199.11838,1758078185.79092,0.0,0.0,0.0,-9.22462,12.14671,-3.83882,8.63,-0.06,0.93,3.0
1758078199.13445,1758078185.80092,0.0,0.0,0.0,-5.27121,7.50575,-0.97403,8.89,-0.78,0.5,3.0
1758078199.13562,1758078185.81092,0.0,0.0,0.0,-0.22918,3.32316,3.72423,8.89,-0.78,0.5,3.0
1758078199.15246,1758078185.82092,0.0,0.0,0.0,2.92208,-2.11994,6.70361,8.77,-1.3,0.08,3.0
1758078199.15524,1758078185.83092,0.0,0.0,0.0,5.4431,-6.70361,8.70896,8.67,-1.4,0.1,3.0
1758078199.17045,1758078185.84092,0.0,0.0,0.0,6.87549,-13.34992,9.11003,8.67,-1.4,0.1,3.0
1758078199.17482,1758078185.85092,0.0,0.0,0.0,6.70361,-17.53251,6.7609,8.78,-1.13,-0.1,3.0
