timeStamp,timeStampAlign,roll,pitch,yaw,gyro_x,gyro_y,gyro_z,acc_x,acc_y,acc_z,flag_num
1758091119.12831,1758091100.82621,0.0,0.0,0.0,-26.98631,-13.98017,-2.86479,10.31,-0.29,0.67,2.0
1758091119.12955,1758091100.83621,0.0,0.0,0.0,-26.41335,-23.89234,-6.47442,10.29,-0.5,0.8,2.0
1758091119.14467,1758091100.84621,0.0,0.0,0.0,-25.8404,-32.88778,-9.85487,11.31,-0.51,1.29,2.0
1758091119.14706,1758091100.85621,0.0,0.0,0.0,-24.75178,-32.6013,-12.49048,11.31,-0.51,1.29,2.0
1758091119.16232,1758091100.86621,0.0,0.0,0.0,-23.20479,-30.25217,-14.43854,12.23,-0.65,1.81,2.0
1758091119.1783,1758091100.87621,0.0,0.0,0.0,-20.34,-27.04361,-14.83961,12.23,-0.65,1.81,2.0
1758091119.18035,1758091100.88621,0.0,0.0,0.0,-18.56383,-28.07493,-13.69369,11.18,-0.54,2.14,2.0
1758091119.19537,1758091100.89621,0.0,0.0,0.0,-17.30333,-32.14294,-11.63104,11.18,-0.54,2.14,2.0
1758091119.19769,1758091100.90621,0.0,0.0,0.0,-16.90226,-37.98711,-9.33921,9.43,-0.29,1.94,2.0
1758091119.21363,1758091100.91621,0.0,0.0,0.0,-17.24603,-45.43555,-6.70361,8.84,-0.29,1.89,2.0
1758091119.23014,1758091100.92621,0.0,0.0,0.0,-18.62113,-48.12846,-5.84417,8.84,-0.08,1.89,2.0
1758091119.23215,1758091100.93621,0.0,0.0,0.0,-20.74107,-48.30034,-5.95876,9.16,0.01,2.31,2.0
1758091119.2473,1758091100.94621,0.0,0.0,0.0,-23.60586,-47.95657,-6.8182,9.16,0.01,2.31,2.0
1758091119.24856,1758091100.95621,0.0,0.0,0.0,-28.64789,-46.81066,-9.4538,9.3,0.04,3.03,2.0
1758091119.26358,1758091100.96621,0.0,0.0,0.0,-32.14294,-45.49285,-11.74564,9.3,0.04,3.03,2.0
1758091119.2812,1758091100.97621,0.0,0.0,0.0,-35.2942,-44.748,-14.32395,9.36,0.03,3.15,2.0
1758091119.28312,1758091100.98621,0.0,0.0,0.0,-37.75792,-42.51347,-16.90226,9.36,0.03,3.15,2.0
1758091119.29831,1758091100.99621,0.0,0.0,0.0,-40.16434,-35.69527,-19.07949,9.64,0.0,2.81,2.0
1758091119.30038,1758091101.00621,0.0,0.0,0.0,-40.96649,-29.22085,-18.79302,10.13,-0.07,2.1,2.0
1758091119.3171,1758091101.01621,0.0,0.0,0.0,-40.96649,-21.60051,-17.47521,10.13,-0.07,2.1,2.0
1758091119.31815,1758091101.02621,0.0,0.0,0.0,-40.39353,-13.17803,-15.0115,10.46,-0.33,1.71,2.0
1758091119.33336,1758091101.03621,0.0,0.0,0.0,-39.3622,0.0573,-10.37054,10.46,-0.33,1.71,2.0
1758091119.34947,1758091101.04621,0.0,0.0,0.0,-38.56006,8.47978,-7.79223,10.48,-0.81,1.38,2.0
1758091119.3537,1758091101.05621,0.0,0.0,0.0,-37.64333,15.75634,-5.32851,10.48,-0.81,1.38,2.0
1758091119.36953,1758091101.06621,0.0,0.0,0.0,-36.26823,25.7831,-2.86479,10.35,-1.28,1.14,2.0
1758091119.37057,1758091101.07621,0.0,0.0,0.0,-35.12231,31.97105,-1.66158,10.37,-1.44,0.92,2.0
1758091119.3854,1758091101.08621,0.0,0.0,0.0,-34.43476,38.38818,-1.03132,10.37,-1.44,0.92,2.0
1758091119.38657,1758091101.09621,0.0,0.0,0.0,-33.68992,43.60209,-0.74485,10.15,-1.23,0.81,2.0
1758091119.40238,1758091101.10621,0.0,0.0,0.0,-32.6013,47.38361,-1.3751,10.15,-1.23,0.81,2.0
1758091119.41865,1758091101.11621,0.0,0.0,0.0,-31.74186,50.13381,-2.00535,9.52,-0.81,0.69,2.0
1758091119.42046,1758091101.12621,0.0,0.0,0.0,-31.16891,51.6235,-2.97938,9.52,-0.81,0.69,2.0
1758091119.43558,1758091101.13621,0.0,0.0,0.0,-30.53865,50.47758,-4.23989,9.03,-0.56,0.74,2.0
1758091119.4375,1758091101.14621,0.0,0.0,0.0,-28.99167,48.30034,-5.61499,8.49,-0.68,1.07,2.0
1758091119.45367,1758091101.15621,0.0,0.0,0.0,-27.1582,48.35764,-5.84417,8.49,-0.68,1.07,2.0
1758091119.4702,1758091101.16621,0.0,0.0,0.0,-24.75178,46.52417,-5.32851,8.41,-1.07,1.28,2.0
1758091119.47299,1758091101.17621,0.0,0.0,0.0,-22.11617,43.37291,-4.18259,8.41,-1.07,1.28,2.0
1758091119.48867,1758091101.18621,0.0,0.0,0.0,-18.22006,39.87786,-1.83346,8.37,-1.46,1.12,2.0
1758091119.48964,1758091101.19621,0.0,0.0,0.0,-15.69904,39.19032,-0.22918,8.37,-1.46,1.12,2.0
1758091119.50467,1758091101.20621,0.0,0.0,0.0,-13.23533,37.52874,1.08862,8.94,-1.57,0.84,2.0
1758091119.50719,1758091101.21621,0.0,0.0,0.0,-11.11538,35.63798,2.06265,8.94,-1.57,0.84,2.0
1758091119.5232,1758091101.22621,0.0,0.0,0.0,-8.0787,34.32018,2.6929,9.06,-1.48,0.65,2.0
1758091119.54178,1758091101.23621,0.0,0.0,0.0,-6.53172,33.63263,2.46372,9.36,-1.26,0.57,2.0
1758091119.5438,1758091101.24621,0.0,0.0,0.0,-5.27121,33.05967,2.06265,9.36,-1.26,0.57,2.0
1758091119.54686,1758091101.25621,0.0,0.0,0.0,-4.35448,31.56997,0.97403,9.49,-0.97,0.49,2.0
1758091119.56239,1758091101.26621,0.0,0.0,0.0,-4.0107,28.13223,0.11459,9.49,-0.97,0.49,2.0
1758091119.5787,1758091101.27621,0.0,0.0,0.0,-4.1253,22.63183,-1.14592,9.29,-0.66,0.5,2.0
1758091119.57962,1758091101.28621,0.0,0.0,0.0,-4.46907,19.13679,-3.20856,9.29,-0.66,0.5,2.0
1758091119.59547,1758091101.29621,0.0,0.0,0.0,-5.84417,18.9649,-6.8182,8.94,-0.43,0.35,2.0
1758091119.59726,1758091101.30621,0.0,0.0,0.0,-6.99009,18.50654,-9.05273,8.84,-0.38,0.49,2.0
1758091119.61348,1758091101.31621,0.0,0.0,0.0,-8.02141,16.272,-10.8862,8.84,-0.38,0.49,2.0
1758091119.63074,1758091101.32621,0.0,0.0,0.0,-8.30789,12.49048,-11.51645,8.57,-0.56,0.82,2.0
1758091119.63323,1758091101.33621,0.0,0.0,0.0,-8.42248,5.4431,-10.8289,8.57,-0.56,0.82,2.0
1758091119.64863,1758091101.34621,0.0,0.0,0.0,-7.73493,-0.57296,-9.4538,9.05,-0.96,1.01,2.0
1758091119.64966,1758091101.35621,0.0,0.0,0.0,-6.35983,-8.02141,-6.7609,9.05,-0.96,1.01,2.0
1758091119.66601,1758091101.36621,0.0,0.0,0.0,-4.35448,-16.3293,-3.89611,9.67,-1.39,1.05,2.0
1758091119.66715,1758091101.37621,0.0,0.0,0.0,-0.45837,-30.53865,2.29183,10.46,-1.67,0.64,2.0
1758091119.68291,1758091101.38621,0.0,0.0,0.0,2.86479,-38.78925,7.96411,10.46,-1.67,0.64,2.0
1758091119.69874,1758091101.39621,0.0,0.0,0.0,5.90147,-46.40959,12.77696,11.14,-1.86,0.23,2.0
1758091119.70375,1758091101.40621,0.0,0.0,0.0,8.93814,-49.27437,17.53251,11.14,-1.86,0.23,2.0
1758091119.71976,1758091101.41621,0.0,0.0,0.0,11.97482,-51.39432,22.00158,11.71,-1.86,-0.33,2.0
1758091119.72063,1758091101.42621,0.0,0.0,0.0,12.89155,-49.38896,24.5226,11.71,-1.86,-0.33,2.0
1758091119.73547,1758091101.43621,0.0,0.0,0.0,12.89155,-44.17505,25.61122,12.41,-1.66,-0.07,2.0
1758091119.73663,1758091101.44621,0.0,0.0,0.0,11.86023,-35.2942,25.26744,12.41,-1.66,-0.07,2.0
1758091119.75359,1758091101.45621,0.0,0.0,0.0,9.33921,-33.17426,24.35071,12.88,-1.29,0.6,2.0
1758091119.76974,1758091101.46621,0.0,0.0,0.0,7.67763,-35.63798,24.57989,12.08,-1.01,1.79,2.0
1758091119.77306,1758091101.47621,0.0,0.0,0.0,6.41713,-35.86716,25.89769,12.08,-1.01,1.79,2.0
1758091119.78875,1758091101.48621,0.0,0.0,0.0,3.32316,-29.33544,30.36677,13.58,-0.69,3.55,2.0
1758091119.79049,1758091101.49621,0.0,0.0,0.0,1.20321,-28.41871,33.34615,13.58,-0.69,3.55,2.0
1758091119.80751,1758091101.50621,0.0,0.0,0.0,4.29718,-53.80074,42.62806,13.62,0.15,4.97,2.0
1758091119.80869,1758091101.51621,0.0,0.0,0.0,4.46907,-84.2248,43.88857,13.62,0.15,4.97,2.0
1758091119.82354,1758091101.52621,0.0,0.0,0.0,7.96411,-93.04835,47.61279,8.63,0.15,3.94,2.0
1758091119.84118,1758091101.53621,0.0,0.0,0.0,10.65701,-72.65105,47.78468,10.37,-0.65,2.59,2.0
1758091119.84307,1758091101.54621,0.0,0.0,0.0,12.60507,-52.25375,41.65404,10.37,-0.65,2.59,2.0
1758091119.8585,1758091101.55621,0.0,0.0,0.0,17.53251,-44.51882,38.78925,8.36,-1.44,3.57,2.0
1758091119.85994,1758091101.56621,0.0,0.0,0.0,24.92367,-42.05511,30.53865,8.36,-1.44,3.57,2.0
1758091119.87614,1758091101.57621,0.0,0.0,0.0,30.48136,-35.12231,25.72581,7.29,-2.02,4.07,2.0
1758091119.87731,1758091101.58621,0.0,0.0,0.0,34.95043,-23.89234,20.74107,7.29,-2.02,4.07,2.0
1758091119.89254,1758091101.59621,0.0,0.0,0.0,37.81522,-13.23533,15.64175,9.89,-1.56,2.81,2.0
1758091119.90852,1758091101.60621,0.0,0.0,0.0,38.84654,1.43239,9.5684,11.52,-0.26,2.58,2.0
1758091119.90967,1758091101.61621,0.0,0.0,0.0,38.38818,11.74564,6.87549,11.52,-0.26,2.58,2.0
1758091119.92846,1758091101.62621,0.0,0.0,0.0,37.35685,21.6578,4.87014,11.73,0.68,1.57,2.0
1758091119.93179,1758091101.63621,0.0,0.0,0.0,35.86716,31.16891,2.97938,11.73,0.68,1.57,2.0
1758091119.94788,1758091101.64621,0.0,0.0,0.0,33.74722,43.4875,0.17189,10.85,0.78,1.33,2.0
1758091119.94872,1758091101.65621,0.0,0.0,0.0,32.54401,48.64412,-0.68755,10.85,0.78,1.33,2.0
1758091119.96379,1758091101.66621,0.0,0.0,0.0,31.16891,52.54023,-2.23454,9.69,0.42,1.72,2.0
1758091119.97953,1758091101.67621,0.0,0.0,0.0,29.04896,56.55093,-3.49504,9.69,0.42,1.72,2.0
1758091119.98069,1758091101.68621,0.0,0.0,0.0,27.44468,58.26981,-4.46907,9.06,0.2,1.87,2.0
1758091119.99536,1758091101.69621,0.0,0.0,0.0,26.01229,58.4417,-4.58366,8.87,0.26,2.0,2.0
1758091119.99822,1758091101.70621,0.0,0.0,0.0,24.12152,58.09792,-5.61499,8.87,0.26,2.0,2.0
1758091120.01349,1758091101.71621,0.0,0.0,0.0,21.08485,54.3737,-6.70361,8.77,0.4,1.87,2.0
1758091120.02948,1758091101.72621,0.0,0.0,0.0,19.48057,49.50356,-7.33386,8.77,0.4,1.87,2.0
1758091120.03064,1758091101.73621,0.0,0.0,0.0,17.13144,43.60209,-8.136,8.56,0.43,1.69,2.0
1758091120.04541,1758091101.74621,0.0,0.0,0.0,14.61043,37.52874,-9.11003,8.56,0.43,1.69,2.0
1758091120.04663,1758091101.75621,0.0,0.0,0.0,10.65701,25.61122,-9.28192,8.38,0.43,1.38,2.0
1758091120.06241,1758091101.76621,0.0,0.0,0.0,7.96411,17.13144,-9.4538,8.14,0.36,1.23,2.0
1758091120.0788,1758091101.77621,0.0,0.0,0.0,4.98473,9.33921,-9.22462,8.14,0.36,1.23,2.0
1758091120.08057,1758091101.78621,0.0,0.0,0.0,2.06265,1.77617,-8.76626,8.11,0.33,1.35,2.0
1758091120.09887,1758091101.79621,0.0,0.0,0.0,-2.11994,-8.99544,-8.47978,8.11,0.33,1.35,2.0
1758091120.10055,1758091101.80621,0.0,0.0,0.0,-4.69825,-13.69369,-7.79223,8.03,0.29,1.25,2.0
1758091120.11583,1758091101.81621,0.0,0.0,0.0,-7.04738,-17.58981,-6.70361,8.03,0.29,1.25,2.0
1758091120.11759,1758091101.82621,0.0,0.0,0.0,-8.99544,-18.22006,-5.15662,8.06,0.22,1.17,2.0
1758091120.13381,1758091101.83621,0.0,0.0,0.0,-11.34457,-15.98552,-1.83346,8.11,0.07,1.05,2.0
1758091120.14979,1758091101.84621,0.0,0.0,0.0,-12.204,-13.34992,0.80214,8.11,0.07,1.05,2.0
1758091120.15307,1758091101.85621,0.0,0.0,0.0,-13.5218,-10.25595,2.97938,8.33,-0.1,1.16,2.0
1758091120.16851,1758091101.86621,0.0,0.0,0.0,-15.46986,-6.7609,5.72958,8.33,-0.1,1.16,2.0
1758091120.17052,1758091101.87621,0.0,0.0,0.0,-16.50119,-4.23989,6.87549,8.7,-0.13,0.97,2.0
1758091120.18564,1758091101.88621,0.0,0.0,0.0,-17.87628,-2.97938,6.70361,8.7,-0.13,0.97,2.0
1758091120.18835,1758091101.89621,0.0,0.0,0.0,-19.36597,-2.00535,6.41713,9.05,-0.08,0.74,2.0
1758091120.20619,1758091101.90621,0.0,0.0,0.0,-21.7151,-3.60963,4.81285,9.05,-0.08,0.74,2.0
1758091120.2089,1758091101.91621,0.0,0.0,0.0,-24.00693,-5.15662,2.7502,9.41,0.05,0.44,2.0
1758091120.22755,1758091101.92621,0.0,0.0,0.0,-26.47065,-7.16197,1.14592,10.0,0.13,0.43,2.0
1758091120.23221,1758091101.93621,0.0,0.0,0.0,-29.04896,-9.62569,-1.3178,10.0,0.13,0.43,2.0
1758091120.24778,1758091101.94621,0.0,0.0,0.0,-31.97105,-12.54778,-4.18259,10.67,-0.09,0.1,2.0
1758091120.25304,1758091101.95621,0.0,0.0,0.0,-32.6013,-15.75634,-5.78687,10.67,-0.09,0.1,2.0
1758091120.26857,1758091101.96621,0.0,0.0,0.0,-32.54401,-17.93358,-7.04738,10.88,-0.74,-0.2,2.0
1758091120.27303,1758091101.97621,0.0,0.0,0.0,-31.51268,-18.27736,-7.21927,10.88,-0.74,-0.2,2.0
1758091120.28762,1758091101.98621,0.0,0.0,0.0,-29.22085,-15.98552,-6.35983,11.16,-1.39,-0.74,2.0
1758091120.28876,1758091101.99621,0.0,0.0,0.0,-27.38738,-10.08406,-5.21392,11.87,-1.68,-0.92,2.0
1758091120.30363,1758091102.00621,0.0,0.0,0.0,-25.49662,-1.83346,-4.0107,11.87,-1.68,-0.92,2.0
1758091120.30716,1758091102.01621,0.0,0.0,0.0,-24.5226,6.58902,-3.66693,12.79,-1.39,-0.59,2.0
1758091120.32255,1758091102.02621,0.0,0.0,0.0,-24.98096,13.23533,-5.4431,12.79,-1.39,-0.59,2.0
1758091120.33855,1758091102.03621,0.0,0.0,0.0,-25.55392,11.28727,-7.50575,12.78,-0.53,-0.41,2.0
1758091120.34375,1758091102.04621,0.0,0.0,0.0,-26.06958,3.72423,-8.99544,12.78,-0.53,-0.41,2.0
1758091120.35861,1758091102.05621,0.0,0.0,0.0,-26.75713,-7.84952,-10.08406,11.79,0.16,0.4,2.0
1758091120.36373,1758091102.06621,0.0,0.0,0.0,-28.01764,-30.02299,-11.74564,11.12,0.6,1.99,2.0
1758091120.36766,1758091102.07621,0.0,0.0,0.0,-28.13223,-49.79003,-13.12073,11.12,0.6,1.99,2.0
1758091120.38378,1758091102.08621,0.0,0.0,0.0,-27.38738,-69.90086,-16.55848,11.07,0.19,3.31,2.0
1758091120.38796,1758091102.09621,0.0,0.0,0.0,-25.09555,-89.15224,-23.49127,11.07,0.19,3.31,2.0
1758091120.40365,1758091102.10621,0.0,0.0,0.0,-23.37668,-94.65263,-27.33009,12.49,-0.74,3.69,2.0
1758091120.42053,1758091102.11621,0.0,0.0,0.0,-21.14215,-90.58463,-28.70519,12.49,-0.74,3.69,2.0
1758091120.42578,1758091102.12621,0.0,0.0,0.0,-20.79837,-84.11021,-29.8511,12.32,-1.05,4.27,2.0
1758091120.44062,1758091102.13621,0.0,0.0,0.0,-22.68913,-65.77556,-28.64789,12.32,-1.05,3.92,2.0
1758091120.44658,1758091102.14621,0.0,0.0,0.0,-23.83505,-56.89471,-26.64254,11.18,-0.72,3.92,2.0
1758091120.44725,1758091102.15621,0.0,0.0,0.0,-25.55392,-60.73353,-26.01229,9.39,-0.21,3.59,2.0
1758091120.46285,1758091102.16621,0.0,0.0,0.0,-26.75713,-68.29657,-26.52795,9.39,-0.21,3.59,2.0
1758091120.47886,1758091102.17621,0.0,0.0,0.0,-26.81443,-72.88023,-27.96034,9.31,-0.11,3.07,2.0
1758091120.48061,1758091102.18621,0.0,0.0,0.0,-24.92367,-59.64491,-25.21014,9.31,-0.11,3.07,2.0
1758091120.49585,1758091102.19621,0.0,0.0,0.0,-24.57989,-32.37212,-24.00693,12.72,-0.27,1.96,2.0
1758091120.49774,1758091102.20621,0.0,0.0,0.0,-24.92367,-10.54242,-22.91831,12.72,-0.27,1.96,2.0
1758091120.51386,1758091102.21621,0.0,0.0,0.0,-20.3973,1.94806,-18.90761,13.29,-0.6,1.65,2.0
1758091120.53087,1758091102.22621,0.0,0.0,0.0,-16.38659,9.22462,-17.53251,10.38,-1.38,1.85,2.0
1758091120.53263,1758091102.23621,0.0,0.0,0.0,-11.17268,20.3973,-14.83961,10.38,-1.38,1.85,2.0
1758091120.54764,1758091102.24621,0.0,0.0,0.0,-6.13065,31.62727,-11.74564,10.09,-1.99,0.63,2.0
1758091120.54882,1758091102.25621,0.0,0.0,0.0,1.43239,44.00316,-5.95876,10.09,-1.99,0.63,2.0
1758091120.56378,1758091102.26621,0.0,0.0,0.0,6.53172,49.27437,-2.29183,9.12,-2.5,0.9,2.0
1758091120.5809,1758091102.27621,0.0,0.0,0.0,11.22997,54.02992,1.3178,9.12,-2.5,0.9,2.0
1758091120.58182,1758091102.28621,0.0,0.0,0.0,15.46986,57.75415,5.90147,8.44,-2.46,0.52,2.0
1758091120.59777,1758091102.29621,0.0,0.0,0.0,17.36062,64.11398,8.02141,8.23,-2.0,0.42,2.0
1758091120.59865,1758091102.30621,0.0,0.0,0.0,18.44924,64.85883,9.39651,8.23,-2.0,0.42,2.0
1758091120.61365,1758091102.31621,0.0,0.0,0.0,19.36597,65.08801,10.08406,7.66,-1.41,0.58,2.0
1758091120.6297,1758091102.32621,0.0,0.0,0.0,20.45459,63.48372,9.91217,7.66,-1.41,0.58,2.0
1758091120.63115,1758091102.33621,0.0,0.0,0.0,20.62648,61.07731,8.76626,7.67,-0.9,0.78,2.0
1758091120.64568,1758091102.34621,0.0,0.0,0.0,21.42862,59.01466,8.30789,7.67,-0.9,0.78,2.0
1758091120.64713,1758091102.35621,0.0,0.0,0.0,22.51724,55.06125,7.67763,7.82,-0.52,0.86,2.0
1758091120.66293,1758091102.36621,0.0,0.0,0.0,24.29341,47.78468,7.21927,7.82,-0.46,0.88,2.0
1758091120.67893,1758091102.37621,0.0,0.0,0.0,26.12688,43.83128,7.73493,7.82,-0.46,0.88,2.0
1758091120.6838,1758091102.38621,0.0,0.0,0.0,27.78845,36.95578,8.0787,7.87,-0.57,1.03,2.0
1758091120.70064,1758091102.39621,0.0,0.0,0.0,29.33544,30.48136,8.65166,7.87,-0.57,1.03,2.0
1758091120.70337,1758091102.40621,0.0,0.0,0.0,31.56997,20.79837,9.05273,7.87,-0.7,0.92,2.0
1758091120.71893,1758091102.41621,0.0,0.0,0.0,32.77319,16.10011,9.28192,7.87,-0.7,0.92,2.0
1758091120.72064,1758091102.42621,0.0,0.0,0.0,33.51803,11.17268,9.11003,7.91,-0.68,0.79,2.0
1758091120.73566,1758091102.43621,0.0,0.0,0.0,34.72124,7.79223,9.11003,7.91,-0.68,0.79,2.0
1758091120.73844,1758091102.44621,0.0,0.0,0.0,35.3515,10.65701,7.44845,8.17,-0.49,0.61,2.0
1758091120.75868,1758091102.45621,0.0,0.0,0.0,34.32018,14.78231,5.84417,9.02,-0.08,0.34,2.0
1758091120.76066,1758091102.46621,0.0,0.0,0.0,32.83048,18.16276,4.18259,9.02,-0.08,0.34,2.0
1758091120.77568,1758091102.47621,0.0,0.0,0.0,30.65324,18.44924,2.23454,8.96,0.22,0.44,2.0
1758091120.77851,1758091102.48621,0.0,0.0,0.0,27.33009,13.69369,1.08862,8.96,0.22,0.44,2.0
1758091120.78786,1758091102.49621,0.0,0.0,0.0,24.92367,10.8862,1.43239,9.08,0.14,0.22,2.0
1758091120.80366,1758091102.50621,0.0,0.0,0.0,22.28806,7.21927,2.6929,9.08,0.14,0.22,2.0
1758091120.82336,1758091102.51621,0.0,0.0,0.0,18.33465,-1.03132,5.27121,9.86,-0.13,0.13,2.0
1758091120.82607,1758091102.52621,0.0,0.0,0.0,16.272,-9.5684,7.33386,10.01,-0.37,0.25,2.0
1758091120.84302,1758091102.53621,0.0,0.0,0.0,14.66772,-18.22006,10.19865,10.01,-0.37,0.25,2.0
1758091120.84421,1758091102.54621,0.0,0.0,0.0,13.12073,-25.8404,12.77696,10.31,-0.39,-0.05,2.0
1758091120.86002,1758091102.55621,0.0,0.0,0.0,12.37589,-34.14828,16.3293,10.31,-0.39,-0.05,2.0
1758091120.86088,1758091102.56621,0.0,0.0,0.0,12.89155,-36.84119,17.47521,10.75,-0.39,-0.54,2.0
1758091120.8773,1758091102.57621,0.0,0.0,0.0,14.09476,-36.03905,17.93358,10.75,-0.39,-0.54,2.0
1758091120.8785,1758091102.58621,0.0,0.0,0.0,15.87093,-32.77319,17.93358,11.42,-0.84,-1.07,2.0
1758091120.89394,1758091102.59621,0.0,0.0,0.0,19.13679,-25.7831,17.76169,12.15,-1.75,-1.12,2.0
1758091120.91094,1758091102.60621,0.0,0.0,0.0,21.6578,-20.62648,18.33465,12.15,-1.75,-1.12,2.0
1758091120.91353,1758091102.61621,0.0,0.0,0.0,24.35071,-14.32395,19.88164,12.83,-2.6,-0.72,2.0
1758091120.92872,1758091102.62621,0.0,0.0,0.0,27.04361,-9.33921,21.14215,12.83,-2.6,-0.72,2.0
1758091120.9299,1758091102.63621,0.0,0.0,0.0,30.48136,-10.8289,20.68378,12.06,-2.1,-0.18,2.0
1758091120.94468,1758091102.64621,0.0,0.0,0.0,33.40344,-21.37133,19.07949,12.06,-2.1,-0.18,2.0
1758091120.94698,1758091102.65621,0.0,0.0,0.0,37.24226,-35.92446,17.81899,9.31,-1.77,0.88,2.0
1758091120.96378,1758091102.66621,0.0,0.0,0.0,41.42485,-50.1911,19.76705,9.31,-1.77,0.88,2.0
1758091120.97969,1758091102.67621,0.0,0.0,0.0,44.748,-62.96807,28.59059,9.84,-2.15,2.62,2.0
1758091120.98332,1758091102.68621,0.0,0.0,0.0,44.46153,-61.30648,39.19032,13.98,-1.35,5.9,2.0
1758091120.99894,1758091102.69621,0.0,0.0,0.0,43.65939,-53.80074,50.64947,13.98,-1.35,5.9,2.0
1758091120.99996,1758091102.70621,0.0,0.0,0.0,41.59674,-67.15066,62.16592,12.95,1.18,6.01,2.0
1758091121.01472,1758091102.71621,0.0,0.0,0.0,40.85189,-84.68317,62.91077,12.95,1.18,6.01,2.0
1758091121.03073,1758091102.72621,0.0,0.0,0.0,39.4768,-97.11635,59.53032,6.03,2.26,4.11,2.0
1758091121.03285,1758091102.73621,0.0,0.0,0.0,40.39353,-81.30271,55.40502,6.03,2.26,4.11,2.0
1758091121.04797,1758091102.74621,0.0,0.0,0.0,42.39888,-43.88857,44.86259,8.93,0.99,2.41,2.0
1758091121.04895,1758091102.75621,0.0,0.0,0.0,45.26366,-27.78845,37.87251,11.44,-0.65,3.16,2.0
1758091121.06497,1758091102.76621,0.0,0.0,0.0,44.86259,-23.66316,26.47065,11.44,-0.65,3.16,2.0
1758091121.08193,1758091102.77621,0.0,0.0,0.0,41.94051,-16.90226,15.35527,11.42,-1.16,3.18,2.0
1758091121.08354,1758091102.78621,0.0,0.0,0.0,33.40344,6.35983,-0.80214,11.42,-1.16,3.18,2.0
1758091121.0987,1758091102.79621,0.0,0.0,0.0,26.75713,24.17882,-9.62569,13.65,-0.33,0.73,2.0
1758091121.09994,1758091102.80621,0.0,0.0,0.0,20.3973,37.52874,-15.46986,13.65,-0.33,0.73,2.0
1758091121.11854,1758091102.81621,0.0,0.0,0.0,14.9542,45.55015,-18.33465,12.44,0.85,0.66,2.0
1758091121.12134,1758091102.82621,0.0,0.0,0.0,8.65166,55.97798,-19.42327,10.74,1.32,0.81,2.0
1758091121.13704,1758091102.83621,0.0,0.0,0.0,5.27121,63.8275,-18.44924,10.74,1.32,0.81,2.0
1758091121.13795,1758091102.84621,0.0,0.0,0.0,2.46372,69.49979,-16.50119,10.0,1.11,0.85,2.0
1758091121.15277,1758091102.85621,0.0,0.0,0.0,0.85944,71.16136,-14.38124,10.0,1.11,0.85,2.0
1758091121.16896,1758091102.86621,0.0,0.0,0.0,-0.85944,73.68237,-11.34457,9.3,0.76,1.32,2.0
1758091121.17079,1758091102.87621,0.0,0.0,0.0,-1.83346,73.79697,-10.59972,9.3,0.76,1.32,2.0
1758091121.18572,1758091102.88621,0.0,0.0,0.0,-2.63561,71.73432,-10.02676,9.05,0.39,1.48,2.0
1758091121.18718,1758091102.89621,0.0,0.0,0.0,-3.55234,67.15066,-11.11538,9.05,0.39,1.48,2.0
1758091121.20303,1758091102.90621,0.0,0.0,0.0,-3.89611,57.92604,-11.91752,8.45,0.14,1.29,2.0
1758091121.21877,1758091102.91621,0.0,0.0,0.0,-4.81285,50.87865,-13.86558,7.9,-0.04,1.19,2.0
1758091121.22001,1758091102.92621,0.0,0.0,0.0,-5.55769,43.02913,-15.0115,7.9,-0.04,1.19,2.0
1758091121.23477,1758091102.93621,0.0,0.0,0.0,-7.04738,29.9084,-16.61578,7.46,-0.19,1.15,2.0
1758091121.25077,1758091102.94621,0.0,0.0,0.0,-8.70896,21.94428,-17.18874,7.46,-0.19,1.15,2.0
1758091121.25358,1758091102.95621,0.0,0.0,0.0,-10.71431,13.69369,-17.53251,7.34,-0.16,1.31,2.0
1758091121.26871,1758091102.96621,0.0,0.0,0.0,-12.83425,6.18794,-18.22006,7.34,-0.16,1.31,2.0
1758091121.26999,1758091102.97621,0.0,0.0,0.0,-15.92823,-0.68755,-17.13144,7.38,-0.04,1.05,2.0
1758091121.28506,1758091102.98621,0.0,0.0,0.0,-17.81899,-1.14592,-14.9542,7.97,-0.06,1.15,2.0
1758091121.3011,1758091102.99621,0.0,0.0,0.0,-19.42327,-0.68755,-12.2613,7.97,-0.06,1.15,2.0
1758091121.30246,1758091103.00621,0.0,0.0,0.0,-20.68378,-0.17189,-8.88085,8.06,-0.12,1.19,2.0
1758091121.31786,1758091103.01621,0.0,0.0,0.0,-22.68913,-0.97403,-3.32316,8.06,-0.12,1.19,2.0
1758091121.3188,1758091103.02621,0.0,0.0,0.0,-24.23611,-1.66158,-0.17189,7.94,-0.09,1.21,2.0
1758091121.33377,1758091103.03621,0.0,0.0,0.0,-26.12688,-4.98473,1.94806,7.94,-0.09,1.21,2.0
1758091121.35002,1758091103.04621,0.0,0.0,0.0,-28.30412,-6.41713,2.11994,8.16,-0.04,0.77,2.0
1758091121.35263,1758091103.05621,0.0,0.0,0.0,-31.28349,-7.04738,0.80214,9.4,-0.2,0.37,2.0
1758091121.36809,1758091103.06621,0.0,0.0,0.0,-32.48671,-8.136,-0.85944,9.4,-0.2,0.37,2.0
1758091121.36929,1758091103.07621,0.0,0.0,0.0,-33.74722,-8.93814,-3.26586,10.13,-0.61,0.21,2.0
1758091121.38392,1758091103.08621,0.0,0.0,0.0,-34.77854,-10.8862,-6.70361,10.13,-0.61,0.21,2.0
1758091121.40007,1758091103.09621,0.0,0.0,0.0,-35.3515,-14.72501,-8.76626,10.62,-1.19,-0.05,2.0
1758091121.40099,1758091103.10621,0.0,0.0,0.0,-35.40879,-16.67307,-10.37054,10.62,-1.19,-0.05,2.0
1758091121.41611,1758091103.11621,0.0,0.0,0.0,-34.72124,-17.53251,-11.45916,11.17,-1.61,-0.15,2.0
1758091121.41782,1758091103.12621,0.0,0.0,0.0,-32.83048,-16.84496,-12.204,11.17,-1.61,-0.15,2.0
1758091121.43383,1758091103.13621,0.0,0.0,0.0,-30.88243,-15.98552,-11.91752,11.49,-1.77,-0.44,2.0
1758091121.4501,1758091103.14621,0.0,0.0,0.0,-28.36141,-14.66772,-10.94349,11.51,-1.66,-0.82,2.0
1758091121.45103,1758091103.15621,0.0,0.0,0.0,-25.89769,-13.34992,-9.5684,11.51,-1.66,-0.82,2.0
1758091121.4671,1758091103.16621,0.0,0.0,0.0,-22.00158,-12.37589,-7.79223,11.37,-1.3,-1.12,2.0
1758091121.46801,1758091103.17621,0.0,0.0,0.0,-19.99623,-13.80828,-6.53172,11.37,-1.3,-1.12,2.0
1758091121.48284,1758091103.18621,0.0,0.0,0.0,-19.25138,-14.83961,-6.13065,11.01,-0.74,-1.48,2.0
1758091121.49886,1758091103.19621,0.0,0.0,0.0,-19.13679,-15.41257,-6.13065,11.01,-0.74,-1.48,2.0
1758091121.50008,1758091103.20621,0.0,0.0,0.0,-21.02755,-15.35527,-6.41713,11.12,-0.12,-1.57,2.0
1758091121.51792,1758091103.21621,0.0,0.0,0.0,-22.00158,-18.62113,-7.50575,11.18,0.09,-0.52,2.0
1758091121.51957,1758091103.22621,0.0,0.0,0.0,-23.60586,-25.72581,-8.30789,11.18,0.09,-0.52,2.0
1758091121.53664,1758091103.23621,0.0,0.0,0.0,-25.38203,-35.69527,-9.33921,10.39,-0.05,1.07,2.0
1758091121.53765,1758091103.24621,0.0,0.0,0.0,-27.67386,-41.13837,-12.43318,10.39,-0.05,1.07,2.0
1758091121.55312,1758091103.25621,0.0,0.0,0.0,-29.33544,-49.61814,-15.75634,11.36,0.1,2.8,2.0
1758091121.5691,1758091103.26621,0.0,0.0,0.0,-29.73651,-71.16136,-21.25674,11.36,0.1,2.8,2.0
1758091121.57004,1758091103.27621,0.0,0.0,0.0,-30.93972,-85.37071,-28.87707,11.03,0.16,4.43,2.0
1758091121.58505,1758091103.28621,0.0,0.0,0.0,-32.20023,-90.12627,-38.38818,11.78,-0.42,4.99,2.0
1758091121.58842,1758091103.29621,0.0,0.0,0.0,-32.42941,-81.24542,-41.42485,11.78,-0.42,4.99,2.0
1758091121.60385,1758091103.30621,0.0,0.0,0.0,-32.83048,-71.44785,-41.94051,11.34,-0.26,4.31,2.0
1758091121.61998,1758091103.31621,0.0,0.0,0.0,-33.86181,-63.88479,-39.07573,11.34,-0.26,4.31,2.0
1758091121.62107,1758091103.32621,0.0,0.0,0.0,-34.95043,-51.5662,-35.00772,9.73,-0.08,3.64,2.0
1758091121.63583,1758091103.33621,0.0,0.0,0.0,-36.38282,-44.00316,-31.91375,9.73,-0.08,3.64,2.0
1758091121.63787,1758091103.34621,0.0,0.0,0.0,-36.95578,-38.1017,-28.13223,10.84,-0.5,2.56,2.0
1758091121.65384,1758091103.35621,0.0,0.0,0.0,-34.09099,-23.54857,-19.25138,10.84,-0.5,2.56,2.0
1758091121.67253,1758091103.36621,0.0,0.0,0.0,-30.65324,-12.2613,-13.5218,12.58,-1.18,1.4,2.0
1758091121.67351,1758091103.37621,0.0,0.0,0.0,-26.64254,-1.3751,-8.76626,12.69,-1.76,0.35,2.0
1758091121.68912,1758091103.38621,0.0,0.0,0.0,-22.23076,12.43318,-6.53172,12.69,-1.76,0.35,2.0
1758091121.69012,1758091103.39621,0.0,0.0,0.0,-16.10011,26.81443,-4.98473,11.78,-1.96,0.53,2.0
1758091121.70822,1758091103.40621,0.0,0.0,0.0,-11.57375,33.63263,-4.58366,11.78,-1.96,0.53,2.0
1758091121.70987,1758091103.41621,0.0,0.0,0.0,-7.21927,39.19032,-3.83882,10.19,-1.97,0.66,2.0
1758091121.72585,1758091103.42621,0.0,0.0,0.0,-2.97938,42.39888,-2.11994,10.19,-1.97,0.66,2.0
1758091121.72721,1758091103.43621,0.0,0.0,0.0,2.46372,48.70141,1.83346,9.33,-2.02,0.43,2.0
1758091121.74294,1758091103.44621,0.0,0.0,0.0,4.98473,51.27972,4.64096,8.98,-1.92,0.44,2.0
1758091121.75893,1758091103.45621,0.0,0.0,0.0,7.44845,53.97263,7.67763,8.98,-1.92,0.44,2.0
1758091121.76015,1758091103.46621,0.0,0.0,0.0,9.28192,55.23313,10.08406,8.58,-1.65,0.33,2.0
1758091121.77495,1758091103.47621,0.0,0.0,0.0,11.22997,55.06125,12.2613,8.58,-1.65,0.33,2.0
1758091121.79249,1758091103.48621,0.0,0.0,0.0,12.2613,54.25911,12.77696,8.13,-1.32,0.29,2.0
1758091121.7937,1758091103.49621,0.0,0.0,0.0,13.34992,53.28508,12.49048,8.13,-1.32,0.29,2.0
1758091121.80913,1758091103.50621,0.0,0.0,0.0,14.66772,50.53488,11.51645,7.77,-0.99,0.42,2.0
1758091121.81252,1758091103.51621,0.0,0.0,0.0,17.99088,46.75336,10.65701,7.74,-0.84,0.52,2.0
1758091121.82792,1758091103.52621,0.0,0.0,0.0,20.51189,44.00316,9.62569,7.74,-0.84,0.52,2.0
1758091121.83265,1758091103.53621,0.0,0.0,0.0,23.37668,40.50812,9.39651,7.89,-0.81,0.56,2.0
1758091121.84817,1758091103.54621,0.0,0.0,0.0,27.50197,33.23156,8.88085,7.89,-0.81,0.56,2.0
1758091121.84993,1758091103.55621,0.0,0.0,0.0,29.73651,29.33544,8.93814,7.93,-0.78,0.58,2.0
1758091121.86608,1758091103.56621,0.0,0.0,0.0,31.51268,25.21014,8.65166,7.93,-0.78,0.58,2.0
1758091121.86728,1758091103.57621,0.0,0.0,0.0,32.77319,22.00158,8.88085,8.11,-0.73,0.49,2.0
1758091121.88293,1758091103.58621,0.0,0.0,0.0,33.86181,17.81899,8.65166,8.09,-0.73,0.23,2.0
1758091121.8989,1758091103.59621,0.0,0.0,0.0,33.68992,18.9649,7.39116,8.09,-0.59,0.23,2.0
1758091121.90256,1758091103.60621,0.0,0.0,0.0,33.00237,22.51724,6.13065,8.45,-0.31,-0.03,2.0
1758091121.91795,1758091103.61621,0.0,0.0,0.0,31.62727,25.21014,4.18259,8.45,-0.31,-0.03,2.0
1758091121.92346,1758091103.62621,0.0,0.0,0.0,30.48136,24.35071,2.57831,8.51,-0.15,0.27,2.0
1758091121.93798,1758091103.63621,0.0,0.0,0.0,30.25217,19.88164,2.6929,8.51,-0.15,0.27,2.0
1758091121.93996,1758091103.64621,0.0,0.0,0.0,30.53865,10.71431,4.0107,8.58,-0.36,0.24,2.0
1758091121.95521,1758091103.65621,0.0,0.0,0.0,30.82513,-0.0573,6.07335,8.58,-0.36,0.24,2.0
1758091121.97118,1758091103.66621,0.0,0.0,0.0,31.11161,-17.81899,10.19865,8.85,-0.77,-0.34,2.0
1758091121.97294,1758091103.67621,0.0,0.0,0.0,30.48136,-33.46074,13.46451,9.13,-0.95,-0.41,2.0
1758091121.98823,1758091103.68621,0.0,0.0,0.0,30.36677,-55.40502,19.53786,9.13,-0.95,-0.41,2.0
1758091121.99238,1758091103.69621,0.0,0.0,0.0,28.76248,-76.66176,24.57989,9.36,-0.71,-0.77,2.0
1758091122.00787,1758091103.70621,0.0,0.0,0.0,26.52795,-55.29043,28.30412,9.36,-0.71,-0.77,2.0
1758091122.01228,1758091103.71621,0.0,0.0,0.0,25.55392,-36.7266,28.93437,13.13,-0.28,-0.76,2.0
1758091122.02822,1758091103.72621,0.0,0.0,0.0,23.94964,-17.53251,26.87172,13.13,-0.28,-0.76,2.0
1758091122.03003,1758091103.73621,0.0,0.0,0.0,24.57989,-8.76626,20.34,12.78,0.03,-0.82,2.0
1758091122.046,1758091103.74621,0.0,0.0,0.0,24.00693,-25.61122,17.18874,9.65,-0.58,-1.42,2.0
1758091122.047,1758091103.75621,0.0,0.0,0.0,28.01764,-46.69606,15.75634,9.65,-0.58,-1.42,2.0
1758091122.06724,1758091103.76621,0.0,0.0,0.0,30.93972,-42.97184,15.35527,10.72,-1.89,-2.54,2.0
1758091122.06834,1758091103.77621,0.0,0.0,0.0,33.51803,-22.51724,14.61043,10.72,-1.89,-2.54,2.0
1758091122.08639,1758091103.78621,0.0,0.0,0.0,35.63798,-11.00079,14.66772,13.16,-2.53,-1.47,2.0
1758091122.08996,1758091103.79621,0.0,0.0,0.0,36.89849,-6.8182,15.24068,13.16,-2.53,-1.47,2.0
1758091122.12877,1758091103.80621,0.0,0.0,0.0,37.98711,-11.97482,15.35527,11.29,-2.26,0.59,2.0
1758091122.13367,1758091103.81621,0.0,0.0,0.0,39.76327,-34.66395,18.44924,9.25,-2.74,2.46,2.0
1758091122.13508,1758091103.82621,0.0,0.0,0.0,42.74266,-60.10328,25.49662,9.25,-2.74,2.46,2.0
1758091122.1371,1758091103.83621,0.0,0.0,0.0,45.83662,-76.60446,37.47144,11.56,-2.2,4.44,2.0
1758091122.13774,1758091103.84621,0.0,0.0,0.0,47.44091,-77.80767,51.5662,11.56,-2.2,4.44,2.0
1758091122.15388,1758091103.85621,0.0,0.0,0.0,45.49285,-62.68159,65.83286,15.06,0.79,5.15,2.0
1758091122.17284,1758091103.86621,0.0,0.0,0.0,42.22699,-51.5662,68.75494,15.06,0.79,5.15,2.0
1758091122.17324,1758091103.87621,0.0,0.0,0.0,37.52874,-40.7373,66.635,11.2,2.96,4.24,2.0
1758091122.18926,1758091103.88621,0.0,0.0,0.0,33.46074,-28.36141,61.76485,11.2,2.96,4.24,2.0
1758091122.1926,1758091103.89621,0.0,0.0,0.0,29.8511,-7.96411,49.67545,8.73,2.05,3.16,2.0
1758091122.20799,1758091103.90621,0.0,0.0,0.0,28.41871,1.48969,38.27358,9.23,0.38,2.86,2.0
1758091122.20999,1758091103.91621,0.0,0.0,0.0,26.01229,10.37054,24.4653,9.23,0.38,2.86,2.0
1758091122.27052,1758091103.92621,0.0,0.0,0.0,21.37133,20.3973,5.21392,11.83,-0.91,2.57,2.0
1758091122.27247,1758091103.93621,0.0,0.0,0.0,17.76169,39.01843,-4.29718,11.83,-0.91,2.57,2.0
1758091122.2731,1758091103.94621,0.0,0.0,0.0,14.38124,50.1911,-11.00079,13.92,-1.28,0.99,2.0
1758091122.27438,1758091103.95621,0.0,0.0,0.0,11.51645,59.64491,-16.10011,13.92,-1.28,0.99,2.0
1758091122.27493,1758091103.96621,0.0,0.0,0.0,9.39651,65.2599,-19.07949,12.74,-0.73,0.61,2.0
1758091122.27784,1758091103.97621,0.0,0.0,0.0,8.76626,66.46311,-19.19409,10.43,0.05,0.56,2.0
1758091122.2784,1758091103.98621,0.0,0.0,0.0,8.25059,67.9528,-17.93358,10.43,0.05,0.56,2.0
1758091122.30104,1758091103.99621,0.0,0.0,0.0,7.96411,69.04142,-16.38659,9.64,0.33,0.81,2.0
1758091122.30181,1758091104.00621,0.0,0.0,0.0,7.04738,69.49979,-14.15206,9.64,0.33,0.81,2.0
1758091122.31783,1758091104.01621,0.0,0.0,0.0,6.47442,65.66096,-12.37589,8.99,0.19,1.07,2.0
1758091122.31909,1758091104.02621,0.0,0.0,0.0,5.55769,60.79083,-12.60507,8.99,0.19,1.07,2.0
1758091122.33802,1758091104.03621,0.0,0.0,0.0,4.52637,55.97798,-13.69369,8.3,0.15,1.19,2.0
1758091122.3404,1758091104.04621,0.0,0.0,0.0,2.46372,46.1231,-16.67307,8.02,0.11,1.14,2.0
1758091122.35609,1758091104.05621,0.0,0.0,0.0,0.80214,38.61736,-18.73572,8.02,0.11,1.14,2.0
1758091122.35803,1758091104.06621,0.0,0.0,0.0,-0.74485,30.30947,-20.3973,7.69,0.02,1.24,2.0
1758091122.37802,1758091104.07621,0.0,0.0,0.0,-3.03668,22.05888,-21.37133,7.69,0.02,1.24,2.0
1758091122.3801,1758091104.08621,0.0,0.0,0.0,-7.44845,12.08941,-21.37133,7.53,-0.04,1.38,2.0
1758091122.39685,1758091104.09621,0.0,0.0,0.0,-10.59972,5.78687,-20.45459,7.53,-0.04,1.38,2.0
1758091122.39785,1758091104.10621,0.0,0.0,0.0,-13.69369,0.34377,-19.70975,7.37,-0.06,1.17,2.0
1758091122.41319,1758091104.11621,0.0,0.0,0.0,-16.10011,-2.7502,-17.18874,7.37,-0.06,1.17,2.0
1758091122.43134,1758091104.12621,0.0,0.0,0.0,-19.07949,-0.51566,-15.35527,7.82,-0.18,1.14,2.0
1758091122.43265,1758091104.13621,0.0,0.0,0.0,-20.16812,3.60963,-13.00614,8.5,-0.39,0.96,2.0
1758091122.4481,1758091104.14621,0.0,0.0,0.0,-20.68378,7.39116,-10.37054,8.5,-0.39,0.96,2.0
1758091122.45138,1758091104.15621,0.0,0.0,0.0,-21.02755,10.48513,-6.07335,8.51,-0.52,0.85,2.0
1758091122.46604,1758091104.16621,0.0,0.0,0.0,-21.7724,9.85487,-4.1253,8.51,-0.52,0.85,2.0
1758091122.46727,1758091104.17621,0.0,0.0,0.0,-22.68913,4.58366,-2.57831,8.48,-0.54,1.01,2.0
1758091122.48336,1758091104.18621,0.0,0.0,0.0,-25.15285,-2.57831,-3.26586,8.48,-0.54,1.01,2.0
1758091122.49945,1758091104.19621,0.0,0.0,0.0,-29.33544,-18.50654,-4.92744,8.16,-0.33,0.34,2.0
1758091122.5003,1758091104.20621,0.0,0.0,0.0,-32.20023,-27.1582,-6.99009,8.65,-0.21,-0.22,2.0
1758091122.51511,1758091104.21621,0.0,0.0,0.0,-34.77854,-34.26288,-9.74028,8.65,-0.21,-0.22,2.0
1758091122.53137,1758091104.22621,0.0,0.0,0.0,-36.89849,-41.31026,-14.20935,9.58,-0.27,-0.22,2.0
1758091122.53328,1758091104.23621,0.0,0.0,0.0,-37.18496,-61.07731,-19.88164,9.58,-0.27,-0.22,2.0
1758091122.54912,1758091104.24621,0.0,0.0,0.0,-35.58068,-73.51049,-24.23611,9.26,-0.68,-0.94,2.0
1758091122.55109,1758091104.25621,0.0,0.0,0.0,-33.80451,-78.26604,-24.63719,9.26,-0.68,-0.94,2.0
1758091122.56709,1758091104.26621,0.0,0.0,0.0,-33.68992,-68.75494,-23.89234,10.88,-1.08,-0.99,2.0
1758091122.56826,1758091104.27621,0.0,0.0,0.0,-31.79916,-32.20023,-17.99088,13.91,-1.49,-0.96,2.0
1758091122.58335,1758091104.28621,0.0,0.0,0.0,-32.54401,-24.63719,-17.53251,13.91,-1.49,-0.96,2.0
1758091122.59943,1758091104.29621,0.0,0.0,0.0,-33.80451,-23.0329,-17.01685,11.52,-1.32,-0.95,2.0
1758091122.60271,1758091104.30621,0.0,0.0,0.0,-31.45539,-19.70975,-14.66772,11.52,-1.32,-0.95,2.0
1758091122.61808,1758091104.31621,0.0,0.0,0.0,-30.02299,-6.7609,-12.43318,11.45,-1.01,-1.57,2.0
1758091122.61928,1758091104.32621,0.0,0.0,0.0,-28.01764,2.86479,-10.65701,11.45,-1.01,-1.57,2.0
1758091122.63443,1758091104.33621,0.0,0.0,0.0,-25.8404,7.62034,-8.99544,11.96,-0.99,-1.4,2.0
1758091122.64998,1758091104.34621,0.0,0.0,0.0,-21.25674,6.18794,-7.33386,11.96,-0.99,-1.4,2.0
1758091122.65306,1758091104.35621,0.0,0.0,0.0,-18.73572,-0.74485,-8.02141,11.31,-0.96,-0.04,2.0
1758091122.66918,1758091104.36621,0.0,0.0,0.0,-15.98552,-13.46451,-9.85487,10.81,-0.79,0.88,2.0
1758091122.67031,1758091104.37621,0.0,0.0,0.0,-13.86558,-27.2155,-14.09476,10.81,-0.79,0.88,2.0
1758091122.68592,1758091104.38621,0.0,0.0,0.0,-10.08406,-42.22699,-23.0902,11.53,-0.63,2.14,2.0
1758091122.68709,1758091104.39621,0.0,0.0,0.0,-7.73493,-52.13916,-30.53865,11.53,-0.63,2.14,2.0
1758091122.70212,1758091104.40621,0.0,0.0,0.0,-5.78687,-57.92604,-37.52874,12.97,-0.87,4.33,2.0
1758091122.72146,1758091104.41621,0.0,0.0,0.0,-4.0107,-58.3844,-41.99781,12.97,-0.87,4.33,2.0
1758091122.72428,1758091104.42621,0.0,0.0,0.0,-2.6929,-53.39967,-42.22699,13.0,-1.37,5.03,2.0
1758091122.74153,1758091104.43621,0.0,0.0,0.0,-3.83882,-48.41494,-39.70598,10.39,-0.74,4.34,2.0
1758091122.74353,1758091104.44621,0.0,0.0,0.0,-6.58902,-42.51347,-35.86716,10.39,-0.74,4.34,2.0
1758091122.76017,1758091104.45621,0.0,0.0,0.0,-10.48513,-35.98175,-31.62727,9.38,0.14,2.95,2.0
1758091122.76114,1758091104.46621,0.0,0.0,0.0,-17.18874,-25.72581,-25.55392,9.38,0.14,2.95,2.0
1758091122.77614,1758091104.47621,0.0,0.0,0.0,-20.74107,-19.88164,-21.42862,10.46,0.57,2.39,2.0
1758091122.77734,1758091104.48621,0.0,0.0,0.0,-22.40265,-13.69369,-17.24603,10.46,0.57,2.39,2.0
1758091122.79213,1758091104.49621,0.0,0.0,0.0,-22.05888,-6.07335,-13.40721,12.12,0.26,1.8,2.0
1758091122.80822,1758091104.50621,0.0,0.0,0.0,-18.44924,7.04738,-8.88085,12.5,-0.5,0.9,2.0
1758091122.80934,1758091104.51621,0.0,0.0,0.0,-14.83961,16.04282,-7.16197,12.5,-0.5,0.9,2.0
1758091122.82439,1758091104.52621,0.0,0.0,0.0,-11.17268,24.17882,-6.07335,11.31,-1.33,0.83,2.0
1758091122.84014,1758091104.53621,0.0,0.0,0.0,-5.84417,30.82513,-4.0107,11.31,-1.33,0.83,2.0
1758091122.84224,1758091104.54621,0.0,0.0,0.0,-2.92208,38.73195,-2.46372,9.71,-1.87,0.61,2.0
1758091122.85813,1758091104.55621,0.0,0.0,0.0,-0.57296,42.22699,-0.57296,9.71,-1.87,0.61,2.0
1758091122.85937,1758091104.56621,0.0,0.0,0.0,1.3178,45.77933,1.3751,8.68,-2.01,0.43,2.0
1758091122.87408,1758091104.57621,0.0,0.0,0.0,3.55234,48.12846,3.66693,8.68,-2.01,0.43,2.0
1758091122.87767,1758091104.58621,0.0,0.0,0.0,5.21392,47.72739,4.58366,8.19,-1.83,0.6,2.0
1758091122.89319,1758091104.59621,0.0,0.0,0.0,6.87549,46.81066,5.09932,7.82,-1.44,0.72,2.0
1758091122.90987,1758091104.60621,0.0,0.0,0.0,8.25059,45.43555,4.46907,7.82,-1.44,0.72,2.0
1758091122.91221,1758091104.61621,0.0,0.0,0.0,11.34457,45.37826,3.89611,7.85,-1.07,0.91,2.0
1758091122.92744,1758091104.62621,0.0,0.0,0.0,13.80828,43.4875,3.32316,7.85,-1.07,0.91,2.0
1758091122.92866,1758091104.63621,0.0,0.0,0.0,16.73037,41.99781,3.55234,7.77,-0.87,0.95,2.0
1758091122.94317,1758091104.64621,0.0,0.0,0.0,19.59516,39.87786,4.0107,7.77,-0.87,0.95,2.0
1758091122.96024,1758091104.65621,0.0,0.0,0.0,22.91831,34.72124,5.55769,7.77,-0.76,0.65,2.0
1758091122.96118,1758091104.66621,0.0,0.0,0.0,24.00693,30.93972,6.07335,7.77,-0.65,0.28,2.0
1758091122.97798,1758091104.67621,0.0,0.0,0.0,24.5226,27.73116,6.47442,7.77,-0.65,0.28,2.0
1758091122.98016,1758091104.68621,0.0,0.0,0.0,24.23611,24.29341,6.41713,8.3,-0.36,0.33,2.0
1758091122.99623,1758091104.69621,0.0,0.0,0.0,23.66316,18.79302,5.72958,8.3,-0.36,0.33,2.0
1758091122.99908,1758091104.70621,0.0,0.0,0.0,23.54857,18.56383,5.09932,8.74,-0.14,0.23,2.0
1758091123.01525,1758091104.71621,0.0,0.0,0.0,23.26209,23.31938,3.89611,8.74,-0.14,0.23,2.0
1758091123.01644,1758091104.72621,0.0,0.0,0.0,22.74642,29.39274,2.34913,9.73,-0.11,0.01,2.0
1758091123.03256,1758091104.73621,0.0,0.0,0.0,22.11617,32.25753,1.60428,9.4,-0.23,0.04,2.0
1758091123.04835,1758091104.74621,0.0,0.0,0.0,22.00158,29.73651,0.80214,9.4,-0.23,0.04,2.0
1758091123.0494,1758091104.75621,0.0,0.0,0.0,22.28806,26.47065,0.68755,8.99,-0.5,-0.3,2.0
1758091123.06573,1758091104.76621,0.0,0.0,0.0,22.51724,17.36062,0.22918,8.99,-0.5,-0.3,2.0
1758091123.06698,1758091104.77621,0.0,0.0,0.0,22.28806,3.26586,0.51566,8.79,-0.82,-0.7,2.0
1758091123.0835,1758091104.78621,0.0,0.0,0.0,21.37133,-11.17268,-0.0573,8.79,-0.82,-0.7,2.0
1758091123.1,1758091104.79621,0.0,0.0,0.0,20.97026,-17.99088,1.3178,8.64,-0.97,-1.1,2.0
1758091123.10121,1758091104.80621,0.0,0.0,0.0,21.02755,-5.90147,7.04738,8.64,-0.97,-0.24,2.0
1758091123.11618,1758091104.81621,0.0,0.0,0.0,19.82434,9.33921,10.59972,11.26,-1.03,-0.24,2.0
1758091123.11822,1758091104.82621,0.0,0.0,0.0,18.50654,23.94964,13.46451,12.71,-0.82,0.8,2.0
1758091123.13344,1758091104.83621,0.0,0.0,0.0,17.53251,17.24603,13.80828,12.71,-0.82,0.8,2.0
1758091123.15,1758091104.84621,0.0,0.0,0.0,22.34536,-33.00237,15.87093,8.55,-1.0,1.03,2.0
1758091123.1539,1758091104.85621,0.0,0.0,0.0,27.78845,-57.29578,23.60586,8.55,-1.0,1.03,2.0
1758091123.16997,1758091104.86621,0.0,0.0,0.0,26.06958,-52.36834,27.38738,9.29,-1.29,-0.85,2.0
1758091123.17282,1758091104.87621,0.0,0.0,0.0,25.7831,-33.51803,27.67386,9.29,-1.29,-0.85,2.0
1758091123.18882,1758091104.88621,0.0,0.0,0.0,25.7831,-18.44924,25.43933,12.49,-0.78,-0.8,2.0
1758091123.19121,1758091104.89621,0.0,0.0,0.0,26.12688,-15.69904,22.51724,10.44,-1.01,-0.51,2.0
1758091123.20725,1758091104.90621,0.0,0.0,0.0,25.15285,-10.94349,18.85031,10.44,-1.01,-0.51,2.0
1758091123.20842,1758091104.91621,0.0,0.0,0.0,23.66316,-6.35983,15.69904,10.71,-2.01,-0.12,2.0
1758091123.2235,1758091104.92621,0.0,0.0,0.0,21.08485,-3.66693,13.06344,10.71,-2.01,-0.12,2.0
1758091123.24028,1758091104.93621,0.0,0.0,0.0,19.13679,-6.47442,13.23533,11.21,-1.86,-0.5,2.0
1758091123.24317,1758091104.94621,0.0,0.0,0.0,17.24603,-15.98552,15.69904,11.21,-1.86,-0.5,2.0
1758091123.25825,1758091104.95621,0.0,0.0,0.0,16.73037,-29.04896,20.3973,10.96,-1.58,1.56,2.0
1758091123.26135,1758091104.96621,0.0,0.0,0.0,20.97026,-55.92068,25.15285,9.86,-1.14,2.01,2.0
1758091123.27625,1758091104.97621,0.0,0.0,0.0,24.80907,-65.2599,30.19488,9.86,-1.14,2.01,2.0
1758091123.2775,1758091104.98621,0.0,0.0,0.0,27.33009,-67.09336,36.03905,10.91,-0.35,2.43,2.0
1758091123.29213,1758091104.99621,0.0,0.0,0.0,26.06958,-69.04142,44.28964,10.91,-0.35,2.43,2.0
1758091123.30828,1758091105.00621,0.0,0.0,0.0,23.0902,-69.84356,49.84733,11.9,0.4,4.49,2.0
1758091123.30948,1758091105.01621,0.0,0.0,0.0,19.99623,-69.78626,55.00395,11.9,0.4,4.49,2.0
1758091123.32587,1758091105.02621,0.0,0.0,0.0,17.81899,-65.43179,58.4417,11.16,1.48,3.62,2.0
1758091123.32732,1758091105.03621,0.0,0.0,0.0,16.67307,-51.45161,58.55629,9.71,1.75,2.54,2.0
1758091123.34328,1758091105.04621,0.0,0.0,0.0,17.99088,-37.64333,56.14987,9.71,1.75,2.54,2.0
1758091123.36009,1758091105.05621,0.0,0.0,0.0,20.05352,-20.34,51.10783,9.67,0.92,2.16,2.0
1758091123.36334,1758091105.06621,0.0,0.0,0.0,23.26209,-5.4431,44.28964,9.67,0.92,2.16,2.0
1758091123.37829,1758091105.07621,0.0,0.0,0.0,27.04361,11.74564,29.8511,10.19,-0.48,2.25,2.0
1758091123.3795,1758091105.08621,0.0,0.0,0.0,27.44468,21.94428,18.85031,10.19,-0.48,2.25,2.0
1758091123.39429,1758091105.0962,0.0,0.0,0.0,26.35606,33.46074,8.70896,11.62,-1.75,1.81,2.0
1758091123.39787,1758091105.1062,0.0,0.0,0.0,24.57989,43.31561,1.43239,11.62,-1.75,1.81,2.0
1758091123.41345,1758091105.1162,0.0,0.0,0.0,20.51189,56.89471,-6.07335,12.76,-2.1,0.89,2.0
1758091123.41849,1758091105.1262,0.0,0.0,0.0,17.99088,62.62429,-8.42248,12.07,-1.14,1.25,2.0
1758091123.43831,1758091105.1362,0.0,0.0,0.0,15.24068,62.62429,-9.85487,12.07,-1.14,1.25,2.0
1758091123.44024,1758091105.1462,0.0,0.0,0.0,13.00614,60.27517,-8.36518,9.93,0.32,1.13,2.0
1758091123.45545,1758091105.1562,0.0,0.0,0.0,9.33921,55.29043,-5.84417,9.93,0.32,1.13,2.0
1758091123.45803,1758091105.1662,0.0,0.0,0.0,6.24524,47.78468,-4.23989,8.93,1.28,1.29,2.0
1758091123.47353,1758091105.1762,0.0,0.0,0.0,2.86479,40.50812,-3.60963,8.93,1.28,1.29,2.0
1758091123.49013,1758091105.1862,0.0,0.0,0.0,-2.29183,31.51268,-4.23989,8.4,1.69,1.11,2.0
1758091123.49232,1758091105.1962,0.0,0.0,0.0,-5.95876,25.72581,-6.47442,8.62,1.68,1.11,2.0
1758091123.50736,1758091105.2062,0.0,0.0,0.0,-9.74028,20.45459,-8.88085,8.62,1.68,1.11,2.0
1758091123.50854,1758091105.2162,0.0,0.0,0.0,-13.40721,14.9542,-12.14671,8.95,1.09,0.95,2.0
1758091123.5232,1758091105.2262,0.0,0.0,0.0,-19.07949,9.91217,-17.24603,8.95,1.09,0.95,2.0
1758091123.54039,1758091105.2362,0.0,0.0,0.0,-22.40265,9.5684,-20.11082,9.36,0.3,0.96,2.0
1758091123.54291,1758091105.2462,0.0,0.0,0.0,-25.49662,10.48513,-22.63183,9.36,0.3,0.96,2.0
1758091123.55836,1758091105.2562,0.0,0.0,0.0,-27.33009,10.94349,-23.49127,9.48,-0.47,0.74,2.0
1758091123.55955,1758091105.2662,0.0,0.0,0.0,-29.62192,14.38124,-23.94964,9.35,-0.93,0.7,2.0
1758091123.57861,1758091105.2762,0.0,0.0,0.0,-30.25217,12.14671,-23.20479,9.35,-0.93,0.7,2.0
1758091123.58301,1758091105.2862,0.0,0.0,0.0,-30.59595,12.83425,-23.31938,8.96,-1.02,0.6,2.0
1758091123.59836,1758091105.2962,0.0,0.0,0.0,-29.96569,16.272,-21.42862,8.96,-1.02,0.6,2.0
1758091123.6003,1758091105.3062,0.0,0.0,0.0,-28.36141,22.97561,-17.87628,9.14,-0.9,0.44,2.0
1758091123.61648,1758091105.3162,0.0,0.0,0.0,-27.1582,25.61122,-15.06879,9.14,-0.9,0.44,2.0
1758091123.61809,1758091105.3262,0.0,0.0,0.0,-25.43933,24.5226,-11.91752,8.48,-0.66,0.6,2.0
1758091123.63338,1758091105.3362,0.0,0.0,0.0,-24.23611,19.59516,-9.22462,8.48,-0.66,0.6,2.0
1758091123.63609,1758091105.3462,0.0,0.0,0.0,-23.94964,11.00079,-5.90147,7.93,-0.36,0.74,2.0
1758091123.65337,1758091105.3562,0.0,0.0,0.0,-24.63719,6.35983,-4.58366,8.55,-0.09,0.38,2.0
1758091123.65572,1758091105.3662,0.0,0.0,0.0,-26.35606,2.00535,-4.35448,8.55,-0.09,0.38,2.0
1758091123.67263,1758091105.3762,0.0,0.0,0.0,-28.64789,-10.8862,-6.41713,8.87,0.0,-0.03,2.0
1758091123.68864,1758091105.3862,0.0,0.0,0.0,-29.33544,-22.86102,-8.136,8.87,0.0,-0.03,2.0
1758091123.69307,1758091105.3962,0.0,0.0,0.0,-28.76248,-35.98175,-10.37054,8.33,-0.23,-0.26,2.0
1758091123.70842,1758091105.4062,0.0,0.0,0.0,-29.39274,-41.99781,-10.54242,8.33,-0.23,-0.26,2.0
1758091123.7122,1758091105.4162,0.0,0.0,0.0,-31.2262,-24.75178,-9.91217,9.59,-0.5,0.19,2.0
1758091123.72757,1758091105.4262,0.0,0.0,0.0,-30.93972,-23.37668,-8.59437,11.44,-0.95,1.04,2.0
1758091123.72858,1758091105.4362,0.0,0.0,0.0,-35.52338,-27.33009,-11.11538,11.44,-0.95,1.04,2.0
1758091123.74362,1758091105.4462,0.0,0.0,0.0,-36.61201,-33.46074,-14.61043,10.17,-0.86,-0.21,2.0
1758091123.75941,1758091105.4562,0.0,0.0,0.0,-35.63798,-34.66395,-18.85031,10.17,-0.86,-0.21,2.0
1758091123.76058,1758091105.4662,0.0,0.0,0.0,-34.37747,-19.88164,-19.82434,11.33,-0.9,-0.5,2.0
1758091123.77748,1758091105.4762,0.0,0.0,0.0,-33.46074,-0.57296,-18.9649,11.33,-0.9,-0.5,2.0
1758091123.77837,1758091105.4862,0.0,0.0,0.0,-31.56997,11.91752,-15.87093,12.84,-1.21,-1.92,2.0
1758091123.79339,1758091105.4962,0.0,0.0,0.0,-27.78845,17.58981,-9.91217,11.26,-1.3,-1.53,2.0
1758091123.81017,1758091105.5062,0.0,0.0,0.0,-24.80907,19.53786,-6.53172,11.26,-1.3,-1.53,2.0
1758091123.81242,1758091105.5162,0.0,0.0,0.0,-21.7151,23.20479,-3.83882,11.44,-1.25,-1.4,2.0
1758091123.82728,1758091105.5262,0.0,0.0,0.0,-18.56383,23.60586,-2.57831,11.44,-1.25,-1.4,2.0
1758091123.82849,1758091105.5362,0.0,0.0,0.0,-13.46451,15.46986,-2.23454,11.17,-1.26,-0.33,2.0
1758091123.8437,1758091105.5462,0.0,0.0,0.0,-10.59972,3.55234,-3.26586,11.17,-1.26,-0.33,2.0
1758091123.84537,1758091105.5562,0.0,0.0,0.0,-8.30789,-10.8289,-4.87014,10.28,-1.25,0.8,2.0
1758091123.86212,1758091105.5662,0.0,0.0,0.0,-6.07335,-28.01764,-11.17268,10.28,-1.25,0.8,2.0
1758091123.87837,1758091105.5762,0.0,0.0,0.0,-4.1253,-47.44091,-17.01685,10.24,-0.95,1.69,2.0
1758091123.88354,1758091105.5862,0.0,0.0,0.0,-1.3751,-55.06125,-23.0902,11.99,-0.75,2.84,2.0
1758091123.89837,1758091105.5962,0.0,0.0,0.0,1.77617,-59.70221,-27.38738,11.99,-0.75,2.84,2.0
1758091123.89984,1758091105.6062,0.0,0.0,0.0,5.09932,-63.77021,-29.22085,12.14,-0.83,3.7,2.0
1758091123.91462,1758091105.6162,0.0,0.0,0.0,5.72958,-63.59832,-27.2155,12.14,-0.83,3.7,2.0
1758091123.91588,1758091105.6262,0.0,0.0,0.0,5.09932,-61.53567,-24.5226,10.21,-0.29,3.47,2.0
1758091123.93221,1758091105.6362,0.0,0.0,0.0,2.63561,-58.15522,-21.7151,10.21,-0.29,3.47,2.0
1758091123.94863,1758091105.6462,0.0,0.0,0.0,-3.72423,-48.9879,-18.56383,9.0,0.57,3.22,2.0
1758091123.94952,1758091105.6562,0.0,0.0,0.0,-9.39651,-42.05511,-16.73037,9.25,0.97,2.67,2.0
1758091123.96441,1758091105.6662,0.0,0.0,0.0,-15.0115,-36.84119,-15.12609,9.25,0.97,2.67,2.0
1758091123.96637,1758091105.6762,0.0,0.0,0.0,-18.85031,-32.77319,-13.5791,10.36,0.48,2.4,2.0
1758091123.98267,1758091105.6862,0.0,0.0,0.0,-20.11082,-21.6578,-12.37589,10.36,0.48,2.4,2.0
1758091123.9986,1758091105.6962,0.0,0.0,0.0,-17.87628,-11.17268,-11.51645,12.04,-0.61,1.4,2.0
1758091123.99962,1758091105.7062,0.0,0.0,0.0,-14.20935,-0.51566,-11.22997,12.04,-0.61,1.4,2.0
1758091124.01469,1758091105.7162,0.0,0.0,0.0,-9.85487,9.28192,-11.11538,12.1,-1.59,0.84,2.0
1758091124.01583,1758091105.7262,0.0,0.0,0.0,-2.34913,21.14215,-10.19865,10.85,-2.12,0.73,2.0
1758091124.03237,1758091105.7362,0.0,0.0,0.0,2.29183,27.50197,-8.99544,10.85,-2.12,0.73,2.0
1758091124.04836,1758091105.7462,0.0,0.0,0.0,6.58902,32.77319,-7.33386,9.81,-2.1,0.45,2.0
1758091124.0496,1758091105.7562,0.0,0.0,0.0,10.48513,37.87251,-3.32316,9.81,-2.1,0.45,2.0
1758091124.06428,1758091105.7662,0.0,0.0,0.0,14.9542,43.77398,-0.45837,9.26,-1.84,0.41,2.0
1758091124.06553,1758091105.7762,0.0,0.0,0.0,17.01685,45.60744,1.71887,9.26,-1.84,0.41,2.0
1758091124.08241,1758091105.7862,0.0,0.0,0.0,19.13679,45.89392,3.55234,8.87,-1.57,0.68,2.0
1758091124.09862,1758091105.7962,0.0,0.0,0.0,21.48592,45.37826,5.21392,8.87,-1.57,0.68,2.0
1758091124.09955,1758091105.8062,0.0,0.0,0.0,22.63183,43.88857,4.81285,8.64,-1.35,0.82,2.0
1758091124.11439,1758091105.8162,0.0,0.0,0.0,23.72045,43.4875,4.0107,8.68,-1.15,0.97,2.0
1758091124.11678,1758091105.8262,0.0,0.0,0.0,26.01229,44.40423,3.89611,8.68,-1.15,0.97,2.0
1758091124.13241,1758091105.8362,0.0,0.0,0.0,29.73651,39.70598,3.89611,8.54,-1.09,0.9,2.0
1758091124.14867,1758091105.8462,0.0,0.0,0.0,32.25753,33.80451,3.83882,8.54,-1.09,0.9,2.0
1758091124.14965,1758091105.8562,0.0,0.0,0.0,34.49206,29.04896,4.1253,7.87,-1.11,0.39,2.0
1758091124.16464,1758091105.8662,0.0,0.0,0.0,36.21093,25.7831,4.64096,7.87,-1.11,0.39,2.0
1758091124.16562,1758091105.8762,0.0,0.0,0.0,38.73195,19.25138,5.55769,8.26,-1.03,0.2,2.0
1758091124.18155,1758091105.8862,0.0,0.0,0.0,40.16434,14.66772,6.24524,8.52,-0.84,0.11,2.0
1758091124.19744,1758091105.8962,0.0,0.0,0.0,41.76862,15.24068,6.87549,8.52,-0.84,0.11,2.0
1758091124.19862,1758091105.9062,0.0,0.0,0.0,43.20102,20.85567,7.67763,9.84,-0.68,0.01,2.0
1758091124.2135,1758091105.9162,0.0,0.0,0.0,43.60209,30.65324,7.62034,9.84,-0.68,0.01,2.0
1758091124.22951,1758091105.9262,0.0,0.0,0.0,43.54479,33.51803,7.50575,10.16,-0.57,0.0,2.0
1758091124.23064,1758091105.9362,0.0,0.0,0.0,43.25832,34.95043,6.58902,10.16,-0.57,0.0,2.0
1758091124.24578,1758091105.9462,0.0,0.0,0.0,42.91454,34.66395,5.72958,9.58,-0.49,-0.07,2.0
1758091124.24689,1758091105.9562,0.0,0.0,0.0,42.28429,30.30947,4.52637,8.99,-0.42,-0.45,2.0
1758091124.26331,1758091105.9662,0.0,0.0,0.0,41.76862,21.88699,4.23989,8.99,-0.42,-0.45,2.0
1758091124.27878,1758091105.9762,0.0,0.0,0.0,40.85189,8.36518,4.29718,7.9,-0.41,-0.58,2.0
1758091124.27963,1758091105.9862,0.0,0.0,0.0,40.7373,-4.18259,3.38045,7.9,-0.41,-0.58,2.0
1758091124.29449,1758091105.9962,0.0,0.0,0.0,41.36755,-6.53172,5.4431,8.5,-0.62,-0.75,2.0
1758091124.29564,1758091106.0062,0.0,0.0,0.0,41.99781,0.0,9.96947,8.5,-0.62,-0.75,2.0
1758091124.31353,1758091106.0162,0.0,0.0,0.0,40.96649,14.32395,11.57375,10.99,-1.24,0.21,2.0
1758091124.32415,1758091106.0262,0.0,0.0,0.0,40.7946,26.41335,14.61043,10.99,-1.24,0.21,2.0
1758091124.32891,1758091106.0362,0.0,0.0,0.0,42.91454,-0.34377,15.92823,11.47,-1.49,1.13,2.0
1758091124.34551,1758091106.0462,0.0,0.0,0.0,46.81066,-40.39353,16.272,6.73,-1.55,-0.27,2.0
1758091124.34666,1758091106.0562,0.0,0.0,0.0,51.10783,-70.13004,23.83505,6.73,-1.55,-0.27,2.0
1758091124.36184,1758091106.0662,0.0,0.0,0.0,51.27972,-61.02001,28.70519,10.21,-1.88,-1.21,2.0
1758091124.37753,1758091106.0762,0.0,0.0,0.0,50.3057,-46.1231,27.73116,10.21,-1.88,-1.21,2.0
1758091124.37975,1758091106.0862,0.0,0.0,0.0,49.96192,-37.47144,26.47065,12.03,-1.23,-0.84,2.0
1758091124.39773,1758091106.0962,0.0,0.0,0.0,48.9879,-33.46074,23.94964,12.03,-1.23,-0.84,2.0
1758091124.39977,1758091106.1062,0.0,0.0,0.0,44.11775,-25.61122,19.88164,11.08,-0.99,0.27,2.0
1758091124.41753,1758091106.1162,0.0,0.0,0.0,39.3622,-23.49127,17.76169,11.34,-0.87,-0.3,2.0
1758091124.42133,1758091106.1262,0.0,0.0,0.0,33.9764,-24.98096,15.92823,11.34,-0.87,-0.3,2.0
1758091124.43721,1758091106.1362,0.0,0.0,0.0,28.87707,-29.33544,15.35527,11.11,-0.6,0.32,2.0
1758091124.43844,1758091106.1462,0.0,0.0,0.0,23.66316,-33.68992,17.93358,11.11,-0.6,0.32,2.0
1758091124.45726,1758091106.1562,0.0,0.0,0.0,21.02755,-35.98175,19.42327,11.98,-0.35,1.34,2.0
1758091124.45929,1758091106.1662,0.0,0.0,0.0,21.6578,-44.86259,25.09555,11.98,-0.35,1.34,2.0
1758091124.47452,1758091106.1762,0.0,0.0,0.0,20.85567,-50.87865,34.43476,11.81,0.13,2.29,2.0
1758091124.47729,1758091106.1862,0.0,0.0,0.0,16.84496,-52.36834,41.76862,13.04,0.51,3.17,2.0
1758091124.4936,1758091106.1962,0.0,0.0,0.0,12.08941,-50.13381,47.95657,13.04,0.51,3.17,2.0
1758091124.49785,1758091106.2062,0.0,0.0,0.0,8.02141,-50.3057,52.36834,11.83,1.21,2.76,2.0
1758091124.51379,1758091106.2162,0.0,0.0,0.0,4.1253,-46.06581,54.02992,11.83,1.21,2.76,2.0
1758091124.52979,1758091106.2262,0.0,0.0,0.0,4.23989,-39.53409,52.36834,9.16,1.14,2.65,2.0
1758091124.53097,1758091106.2362,0.0,0.0,0.0,5.72958,-29.96569,47.95657,9.16,1.14,2.65,2.0
1758091124.54584,1758091106.2462,0.0,0.0,0.0,8.42248,-18.50654,41.76862,8.34,0.73,2.61,2.0
1758091124.54671,1758091106.2562,0.0,0.0,0.0,14.20935,-0.68755,30.65324,8.89,0.73,2.74,2.0
1758091124.56139,1758091106.2662,0.0,0.0,0.0,18.16276,10.71431,22.57454,8.89,0.24,2.74,2.0
1758091124.57788,1758091106.2762,0.0,0.0,0.0,20.3973,19.25138,14.20935,10.2,-0.3,2.53,2.0
1758091124.5787,1758091106.2862,0.0,0.0,0.0,20.74107,26.24147,7.16197,10.2,-0.3,2.53,2.0
1758091124.59374,1758091106.2962,0.0,0.0,0.0,17.87628,37.58603,-0.0573,11.87,-0.63,1.91,2.0
1758091124.60959,1758091106.3062,0.0,0.0,0.0,14.72501,46.1231,-2.57831,11.87,-0.63,1.91,2.0
1758091124.61075,1758091106.3162,0.0,0.0,0.0,11.00079,52.82671,-4.23989,12.72,-0.46,1.36,2.0
1758091124.62552,1758091106.3262,0.0,0.0,0.0,7.33386,55.06125,-4.87014,12.72,-0.46,1.36,2.0
1758091124.62696,1758091106.3362,0.0,0.0,0.0,2.34913,52.71212,-4.52637,11.07,0.17,1.35,2.0
1758091124.64153,1758091106.3462,0.0,0.0,0.0,-0.34377,50.01921,-3.95341,9.72,0.85,1.28,2.0
1758091124.65875,1758091106.3562,0.0,0.0,0.0,-2.63561,47.26902,-3.20856,9.72,0.85,1.28,2.0
1758091124.66051,1758091106.3662,0.0,0.0,0.0,-4.87014,44.11775,-3.03668,9.28,1.45,1.09,2.0
1758091124.67544,1758091106.3762,0.0,0.0,0.0,-8.36518,36.32552,-3.89611,9.28,1.45,1.09,2.0
1758091124.67664,1758091106.3862,0.0,0.0,0.0,-10.59972,30.25217,-5.32851,8.98,1.64,1.04,2.0
1758091124.69234,1758091106.3962,0.0,0.0,0.0,-12.89155,24.86637,-7.84952,8.98,1.64,1.04,2.0
1758091124.70855,1758091106.4062,0.0,0.0,0.0,-16.55848,18.90761,-12.2613,9.17,1.23,0.88,2.0
1758091124.71211,1758091106.4162,0.0,0.0,0.0,-18.62113,15.46986,-15.46986,9.38,0.41,0.91,2.0
1758091124.72755,1758091106.4262,0.0,0.0,0.0,-21.08485,12.71966,-19.42327,9.38,0.41,0.91,2.0
1758091124.72876,1758091106.4362,0.0,0.0,0.0,-23.54857,10.94349,-22.40265,9.19,-0.37,1.01,2.0
1758091124.74375,1758091106.4462,0.0,0.0,0.0,-26.47065,7.04738,-25.8404,9.19,-0.37,1.01,2.0
1758091124.75955,1758091106.4562,0.0,0.0,0.0,-28.13223,2.97938,-26.98631,8.75,-0.77,0.94,2.0
1758091124.76105,1758091106.4662,0.0,0.0,0.0,-29.96569,1.03132,-27.67386,8.75,-0.77,0.94,2.0
1758091124.77554,1758091106.4762,0.0,0.0,0.0,-30.99702,2.57831,-26.52795,8.64,-0.69,0.8,2.0
1758091124.77829,1758091106.4862,0.0,0.0,0.0,-30.82513,6.99009,-22.97561,8.97,-0.61,0.8,2.0
1758091124.79345,1758091106.4962,0.0,0.0,0.0,-30.30947,8.76626,-19.70975,8.97,-0.61,0.8,2.0
1758091124.79823,1758091106.5062,0.0,0.0,0.0,-29.50733,9.96947,-16.272,8.9,-0.53,0.87,2.0
1758091124.81359,1758091106.5162,0.0,0.0,0.0,-28.59059,13.00614,-12.43318,8.9,-0.53,0.87,2.0
1758091124.82962,1758091106.5262,0.0,0.0,0.0,-28.01764,14.32395,-6.8182,9.2,-0.48,0.68,2.0
1758091124.83079,1758091106.5362,0.0,0.0,0.0,-28.59059,14.43854,-4.64096,9.2,-0.48,0.68,2.0
1758091124.84582,1758091106.5462,0.0,0.0,0.0,-29.96569,13.17803,-3.89611,9.17,-0.32,0.47,2.0
1758091124.84789,1758091106.5562,0.0,0.0,0.0,-31.85646,11.11538,-3.83882,9.17,-0.32,0.47,2.0
1758091124.86283,1758091106.5662,0.0,0.0,0.0,-35.12231,4.52637,-5.50039,9.17,-0.08,0.02,2.0
1758091124.8786,1758091106.5762,0.0,0.0,0.0,-37.35685,-2.11994,-6.7609,8.98,-0.06,-0.49,2.0
1758091124.88214,1758091106.5862,0.0,0.0,0.0,-38.73195,-7.96411,-8.136,8.98,-0.06,-0.49,2.0
1758091124.89753,1758091106.5962,0.0,0.0,0.0,-40.7946,-13.06344,-8.47978,9.32,-0.13,-0.31,2.0
1758091124.89876,1758091106.6062,0.0,0.0,0.0,-42.39888,-8.36518,-6.87549,9.32,-0.13,-0.31,2.0
1758091124.91359,1758091106.6162,0.0,0.0,0.0,-44.28964,-2.97938,-6.58902,10.69,-0.31,0.19,2.0
1758091124.92959,1758091106.6262,0.0,0.0,0.0,-48.07116,-1.48969,-9.91217,10.69,-0.31,0.19,2.0
1758091124.93077,1758091106.6362,0.0,0.0,0.0,-49.84733,-7.84952,-14.32395,10.54,-0.13,0.25,2.0
1758091124.94546,1758091106.6462,0.0,0.0,0.0,-49.56085,-18.22006,-17.53251,9.75,0.05,-0.02,2.0
1758091124.9467,1758091106.6562,0.0,0.0,0.0,-48.30034,-21.7151,-19.82434,9.75,0.05,-0.02,2.0
1758091124.96184,1758091106.6662,0.0,0.0,0.0,-47.15443,-12.2613,-20.51189,11.47,0.02,-0.33,2.0
1758091124.97857,1758091106.6762,0.0,0.0,0.0,-44.86259,6.53172,-16.67307,11.47,0.02,-0.33,2.0
1758091124.98058,1758091106.6862,0.0,0.0,0.0,-42.97184,11.22997,-12.89155,11.53,-0.23,-0.41,2.0
1758091124.99558,1758091106.6962,0.0,0.0,0.0,-40.68,14.38124,-9.05273,11.53,-0.23,-0.41,2.0
1758091124.9977,1758091106.7062,0.0,0.0,0.0,-38.38818,19.25138,-5.72958,10.39,-0.59,-0.47,2.0
1758091125.01282,1758091106.7162,0.0,0.0,0.0,-34.77854,25.15285,-2.46372,10.67,-0.85,-0.41,2.0
1758091125.02888,1758091106.7262,0.0,0.0,0.0,-31.85646,24.00693,-1.60428,10.67,-0.85,-0.41,2.0
1758091125.03225,1758091106.7362,0.0,0.0,0.0,-27.84575,21.25674,-2.11994,10.82,-0.92,0.16,2.0
1758091125.04762,1758091106.7462,0.0,0.0,0.0,-23.66316,17.53251,-3.55234,10.82,-0.92,0.16,2.0
1758091125.04882,1758091106.7562,0.0,0.0,0.0,-17.53251,5.84417,-7.84952,11.27,-0.82,0.72,2.0
1758091125.06379,1758091106.7662,0.0,0.0,0.0,-14.20935,-4.18259,-11.86023,11.27,-0.82,0.72,2.0
1758091125.07985,1758091106.7762,0.0,0.0,0.0,-11.80293,-12.77696,-16.90226,11.29,-0.62,0.67,2.0
1758091125.08084,1758091106.7862,0.0,0.0,0.0,-10.31324,-17.87628,-24.23611,11.29,-0.62,0.67,2.0
1758091125.09592,1758091106.7962,0.0,0.0,0.0,-8.93814,-21.88699,-27.84575,11.91,-0.66,0.93,2.0
1758091125.09763,1758091106.8062,0.0,0.0,0.0,-7.62034,-23.72045,-30.65324,11.96,-0.75,1.59,2.0
1758091125.11307,1758091106.8162,0.0,0.0,0.0,-7.04738,-23.60586,-31.56997,11.96,-0.75,1.59,2.0
1758091125.12887,1758091106.8262,0.0,0.0,0.0,-5.4431,-26.41335,-28.24682,11.16,-0.95,1.98,2.0
1758091125.13057,1758091106.8362,0.0,0.0,0.0,-3.66693,-32.14294,-24.23611,11.16,-0.95,1.98,2.0
1758091125.14566,1758091106.8462,0.0,0.0,0.0,-0.97403,-39.3622,-19.82434,9.43,-0.89,1.83,2.0
1758091125.14681,1758091106.8562,0.0,0.0,0.0,2.00535,-45.09178,-16.55848,9.43,-0.89,1.83,2.0
1758091125.16193,1758091106.8662,0.0,0.0,0.0,6.47442,-47.03984,-12.77696,8.69,-0.77,2.13,2.0
1758091125.17792,1758091106.8762,0.0,0.0,0.0,8.0787,-46.06581,-12.2613,8.64,-1.03,2.59,2.0
1758091125.18234,1758091106.8862,0.0,0.0,0.0,8.136,-44.51882,-12.43318,8.64,-1.03,2.59,2.0
1758091125.19788,1758091106.8962,0.0,0.0,0.0,6.53172,-43.37291,-13.69369,8.38,-1.1,3.26,2.0
1758091125.1988,1758091106.9062,0.0,0.0,0.0,2.97938,-39.87786,-16.21471,8.38,-1.1,3.26,2.0
1758091125.21362,1758091106.9162,0.0,0.0,0.0,0.0,-36.03905,-17.30333,8.97,-0.71,2.66,2.0
1758091125.21721,1758091106.9262,0.0,0.0,0.0,-2.29183,-32.08564,-17.99088,8.97,-0.71,2.66,2.0
1758091125.23284,1758091106.9362,0.0,0.0,0.0,-3.83882,-26.41335,-17.47521,10.2,-0.28,2.09,2.0
1758091125.24863,1758091106.9462,0.0,0.0,0.0,-3.55234,-12.2613,-15.06879,11.61,-0.31,1.33,2.0
1758091125.25054,1758091106.9562,0.0,0.0,0.0,-2.06265,-0.17189,-12.77696,11.61,-0.31,1.33,2.0
1758091125.26599,1758091106.9662,0.0,0.0,0.0,0.22918,12.43318,-10.08406,11.94,-0.87,0.72,2.0
1758091125.26687,1758091106.9762,0.0,0.0,0.0,2.46372,23.83505,-7.50575,11.94,-0.87,0.72,2.0
1758091125.2819,1758091106.9862,0.0,0.0,0.0,6.18794,37.58603,-3.55234,11.14,-1.57,0.57,2.0
1758091125.29892,1758091106.9962,0.0,0.0,0.0,8.30789,44.748,-1.20321,11.14,-1.57,0.57,2.0
1758091125.30061,1758091107.0062,0.0,0.0,0.0,10.65701,50.82136,1.14592,10.51,-1.94,0.54,2.0
1758091125.31663,1758091107.0162,0.0,0.0,0.0,13.40721,56.55093,3.32316,10.51,-1.94,0.54,2.0
1758091125.31851,1758091107.0262,0.0,0.0,0.0,14.9542,55.97798,4.0107,10.08,-1.88,0.71,2.0
1758091125.33388,1758091107.0362,0.0,0.0,0.0,16.50119,53.62885,3.89611,9.32,-1.55,1.07,2.0
1758091125.33806,1758091107.0462,0.0,0.0,0.0,18.27736,50.1911,3.26586,9.32,-1.55,1.07,2.0
1758091125.3537,1758091107.0562,0.0,0.0,0.0,21.14215,43.83128,2.6929,8.88,-1.23,1.33,2.0
1758091125.3565,1758091107.0662,0.0,0.0,0.0,22.97561,39.4195,2.57831,8.88,-1.23,1.33,2.0
1758091125.37341,1758091107.0762,0.0,0.0,0.0,24.98096,34.66395,3.38045,8.38,-1.05,1.16,2.0
1758091125.38968,1758091107.0862,0.0,0.0,0.0,27.2155,27.73116,5.09932,8.38,-1.05,1.16,2.0
1758091125.39244,1758091107.0962,0.0,0.0,0.0,30.02299,19.48057,7.73493,7.8,-1.06,0.78,2.0
1758091125.40782,1758091107.1062,0.0,0.0,0.0,31.85646,15.0115,9.85487,7.99,-1.07,0.51,2.0
1758091125.40885,1758091107.1162,0.0,0.0,0.0,33.86181,11.00079,11.51645,7.99,-1.07,0.51,2.0
1758091125.42363,1758091107.1262,0.0,0.0,0.0,35.92446,7.79223,13.00614,8.54,-1.11,0.45,2.0
1758091125.4399,1758091107.1362,0.0,0.0,0.0,38.73195,9.96947,13.75099,8.54,-1.11,0.45,2.0
1758091125.44112,1758091107.1462,0.0,0.0,0.0,40.39353,17.81899,13.5791,9.81,-1.06,0.13,2.0
1758091125.45566,1758091107.1562,0.0,0.0,0.0,41.42485,24.35071,13.00614,9.81,-1.06,0.13,2.0
1758091125.45801,1758091107.1662,0.0,0.0,0.0,42.1124,29.56462,11.74564,10.32,-0.87,0.22,2.0
1758091125.47265,1758091107.1762,0.0,0.0,0.0,42.57077,33.34615,9.11003,9.77,-0.62,0.14,2.0
1758091125.48868,1758091107.1862,0.0,0.0,0.0,41.88322,31.45539,7.21927,9.77,-0.62,0.14,2.0
1758091125.49065,1758091107.1962,0.0,0.0,0.0,40.50812,26.35606,4.69825,8.96,-0.33,-0.15,2.0
1758091125.50567,1758091107.2062,0.0,0.0,0.0,38.50277,22.68913,0.68755,8.96,-0.33,-0.15,2.0
1758091125.50691,1758091107.2162,0.0,0.0,0.0,38.56006,31.28349,-0.57296,9.27,-0.21,-0.39,2.0
1758091125.52168,1758091107.2262,0.0,0.0,0.0,39.01843,40.68,1.14592,9.27,-0.21,-0.39,2.0
1758091125.53768,1758091107.2362,0.0,0.0,0.0,39.01843,53.17049,2.06265,10.37,-0.49,0.1,2.0
1758091125.53914,1758091107.2462,0.0,0.0,0.0,38.84654,65.54638,4.18259,10.37,-0.49,0.1,2.0
1758091125.5538,1758091107.2562,0.0,0.0,0.0,38.27358,62.39511,4.23989,10.53,-0.76,0.77,2.0
1758091125.56998,1758091107.2662,0.0,0.0,0.0,37.98711,26.87172,5.27121,7.61,-1.28,0.93,2.0
1758091125.5709,1758091107.2762,0.0,0.0,0.0,43.83128,-18.85031,10.37054,7.61,-1.28,0.93,2.0
1758091125.58569,1758091107.2862,0.0,0.0,0.0,45.20637,-53.68615,24.35071,7.28,-2.06,-0.77,2.0
1758091125.58718,1758091107.2962,0.0,0.0,0.0,45.20637,-51.16513,31.74186,7.28,-2.06,-0.77,2.0
1758091125.60176,1758091107.3062,0.0,0.0,0.0,43.02913,-44.46153,35.92446,11.52,-1.91,1.41,2.0
1758091125.61768,1758091107.3162,0.0,0.0,0.0,42.39888,-40.16434,37.24226,11.52,-1.91,1.41,2.0
1758091125.61892,1758091107.3262,0.0,0.0,0.0,40.10705,-33.46074,34.0337,10.99,-1.04,1.62,2.0
1758091125.63571,1758091107.3362,0.0,0.0,0.0,36.38282,-29.27814,30.30947,10.47,0.02,0.45,2.0
1758091125.63874,1758091107.3462,0.0,0.0,0.0,31.56997,-23.60586,26.47065,10.47,0.02,0.45,2.0
1758091125.65527,1758091107.3562,0.0,0.0,0.0,25.09555,-17.6471,20.62648,10.31,0.85,-0.86,2.0
1758091125.65752,1758091107.3662,0.0,0.0,0.0,17.6471,-13.17803,15.35527,10.31,0.85,-0.86,2.0
1758091125.67259,1758091107.3762,0.0,0.0,0.0,14.43854,-12.43318,13.69369,10.61,0.55,-0.16,2.0
1758091125.6891,1758091107.3862,0.0,0.0,0.0,13.12073,-12.08941,14.03747,10.61,0.55,-0.16,2.0
1758091125.68989,1758091107.3962,0.0,0.0,0.0,13.75099,-14.72501,17.36062,11.55,-0.62,0.7,2.0
1758091125.70473,1758091107.4062,0.0,0.0,0.0,16.67307,-21.7724,20.74107,11.73,-1.82,1.59,2.0
1758091125.70591,1758091107.4162,0.0,0.0,0.0,19.48057,-34.43476,26.01229,11.73,-1.82,1.59,2.0
1758091125.722,1758091107.4262,0.0,0.0,0.0,22.34536,-43.4875,33.34615,11.75,-2.29,2.56,2.0
1758091125.73771,1758091107.4362,0.0,0.0,0.0,23.20479,-43.4875,44.40423,11.75,-2.29,2.56,2.0
1758091125.73889,1758091107.4462,0.0,0.0,0.0,21.60051,-41.02378,50.2484,13.83,-1.28,3.25,2.0
1758091125.7549,1758091107.4562,0.0,0.0,0.0,19.13679,-40.27893,53.74345,13.83,-1.28,3.25,2.0
1758091125.75591,1758091107.4662,0.0,0.0,0.0,16.90226,-44.17505,54.08722,11.6,0.38,2.9,2.0
1758091125.77255,1758091107.4762,0.0,0.0,0.0,14.83961,-46.1231,49.79003,11.6,0.38,2.7,2.0
1758091125.7888,1758091107.4862,0.0,0.0,0.0,15.29797,-44.00316,44.86259,7.87,0.94,2.7,2.0
1758091125.78987,1758091107.4962,0.0,0.0,0.0,17.47521,-38.78925,38.73195,7.04,0.63,2.78,2.0
1758091125.80472,1758091107.5062,0.0,0.0,0.0,21.42862,-31.51268,32.08564,7.04,0.63,2.78,2.0
1758091125.80676,1758091107.5162,0.0,0.0,0.0,29.50733,-19.48057,22.11617,7.97,-0.05,3.2,2.0
1758091125.82304,1758091107.5262,0.0,0.0,0.0,35.12231,-11.97482,15.87093,7.97,-0.05,3.2,2.0
1758091125.8396,1758091107.5362,0.0,0.0,0.0,40.10705,-5.95876,10.25595,9.36,-0.77,2.87,2.0
1758091125.8434,1758091107.5462,0.0,0.0,0.0,43.37291,-1.08862,5.84417,9.36,-0.77,2.87,2.0
1758091125.85871,1758091107.5562,0.0,0.0,0.0,43.88857,8.70896,1.83346,11.06,-1.16,2.44,2.0
1758091125.85991,1758091107.5662,0.0,0.0,0.0,42.28429,18.56383,0.80214,12.57,-0.88,1.7,2.0
1758091125.87499,1758091107.5762,0.0,0.0,0.0,39.70598,29.96569,0.0573,12.57,-0.88,1.7,2.0
1758091125.87594,1758091107.5862,0.0,0.0,0.0,36.49741,36.84119,-0.17189,12.08,-0.25,1.25,2.0
1758091125.89278,1758091107.5962,0.0,0.0,0.0,31.79916,40.04975,-0.68755,12.08,-0.25,1.25,2.0
1758091125.90861,1758091107.6062,0.0,0.0,0.0,29.04896,39.4195,-0.0573,10.3,0.38,1.17,2.0
1758091125.90986,1758091107.6162,0.0,0.0,0.0,26.18417,38.61736,-1.3751,10.3,0.38,1.17,2.0
1758091125.92483,1758091107.6262,0.0,0.0,0.0,23.20479,37.35685,-2.63561,9.68,0.88,1.21,2.0
1758091125.92595,1758091107.6362,0.0,0.0,0.0,21.02755,30.88243,-4.23989,9.31,1.1,1.22,2.0
1758091125.94174,1758091107.6462,0.0,0.0,0.0,18.9649,24.57989,-6.13065,9.31,1.1,1.22,2.0
1758091125.95782,1758091107.6562,0.0,0.0,0.0,16.67307,19.36597,-8.59437,9.13,1.01,1.07,2.0
1758091125.95898,1758091107.6662,0.0,0.0,0.0,13.34992,14.09476,-12.2613,9.13,1.01,1.07,2.0
1758091125.97617,1758091107.6762,0.0,0.0,0.0,10.8289,10.37054,-14.43854,9.26,0.47,0.89,2.0
1758091125.97738,1758091107.6862,0.0,0.0,0.0,7.67763,7.16197,-16.55848,9.26,0.47,0.89,2.0
1758091125.99305,1758091107.6962,0.0,0.0,0.0,4.98473,5.95876,-17.81899,9.09,-0.02,0.81,2.0
1758091126.0089,1758091107.7062,0.0,0.0,0.0,1.03132,5.90147,-19.53786,9.07,-0.16,0.65,2.0
1758091126.01002,1758091107.7162,0.0,0.0,0.0,-0.57296,6.87549,-20.05352,9.07,-0.16,0.65,2.0
1758091126.02472,1758091107.7262,0.0,0.0,0.0,-1.14592,6.18794,-20.11082,8.88,-0.15,0.8,2.0
1758091126.02791,1758091107.7362,0.0,0.0,0.0,-1.43239,6.07335,-19.07949,8.88,-0.15,0.8,2.0
1758091126.04398,1758091107.7462,0.0,0.0,0.0,-0.45837,3.09397,-15.69904,8.73,-0.25,0.74,2.0
1758091126.06009,1758091107.7562,0.0,0.0,0.0,0.0,1.77617,-13.00614,8.73,-0.25,0.74,2.0
1758091126.06128,1758091107.7662,0.0,0.0,0.0,0.45837,4.58366,-10.19865,8.81,-0.44,0.65,2.0
1758091126.0772,1758091107.7762,0.0,0.0,0.0,0.80214,9.05273,-7.39116,8.81,-0.44,0.65,2.0
1758091126.07799,1758091107.7862,0.0,0.0,0.0,0.68755,13.75099,-4.23989,9.12,-0.52,0.6,2.0
1758091126.09309,1758091107.7962,0.0,0.0,0.0,0.0573,14.78231,-3.26586,8.83,-0.37,0.71,2.0
1758091126.10885,1758091107.8062,0.0,0.0,0.0,-1.3178,12.49048,-3.72423,8.83,-0.37,0.71,2.0
1758091126.11,1758091107.8162,0.0,0.0,0.0,-2.86479,8.36518,-5.95876,8.56,-0.11,0.45,2.0
1758091126.12509,1758091107.8262,0.0,0.0,0.0,-5.61499,-1.14592,-8.136,8.56,-0.11,0.45,2.0
1758091126.126,1758091107.8362,0.0,0.0,0.0,-7.62034,-9.85487,-9.91217,8.78,0.16,0.04,2.0
1758091126.14258,1758091107.8462,0.0,0.0,0.0,-8.76626,-21.08485,-11.17268,8.78,0.16,0.04,2.0
1758091126.15887,1758091107.8562,0.0,0.0,0.0,-11.63104,-37.29956,-12.37589,8.89,0.2,-0.37,2.0
1758091126.16,1758091107.8662,0.0,0.0,0.0,-12.83425,-37.87251,-12.14671,10.25,0.29,-0.41,2.0
1758091126.1748,1758091107.8762,0.0,0.0,0.0,-14.38124,-31.62727,-9.4538,10.25,0.29,-0.41,2.0
1758091126.17603,1758091107.8862,0.0,0.0,0.0,-15.64175,-31.74186,-8.59437,11.4,0.44,-0.24,2.0
1758091126.19206,1758091107.8962,0.0,0.0,0.0,-19.88164,-29.33544,-11.63104,11.4,0.44,-0.24,2.0
1758091126.20793,1758091107.9062,0.0,0.0,0.0,-20.68378,-31.97105,-14.43854,10.95,0.68,-0.61,2.0
1758091126.20903,1758091107.9162,0.0,0.0,0.0,-20.22541,-32.6013,-16.38659,10.95,0.68,-0.61,2.0
1758091126.22385,1758091107.9262,0.0,0.0,0.0,-18.44924,-20.68378,-15.58445,11.24,0.47,-0.9,2.0
1758091126.22662,1758091107.9362,0.0,0.0,0.0,-15.06879,-1.3751,-10.31324,12.24,-0.29,-0.62,2.0
1758091126.24281,1758091107.9462,0.0,0.0,0.0,-11.91752,1.60428,-5.32851,12.24,-0.29,-0.62,2.0
1758091126.25873,1758091107.9562,0.0,0.0,0.0,-8.76626,1.03132,-1.43239,10.7,-0.81,-0.28,2.0
1758091126.25994,1758091107.9662,0.0,0.0,0.0,-4.87014,-0.51566,1.60428,10.7,-0.81,-0.28,2.0
1758091126.27561,1758091107.9762,0.0,0.0,0.0,0.74485,-10.02676,2.34913,10.49,-1.2,0.83,2.0
1758091126.27762,1758091107.9862,0.0,0.0,0.0,4.92744,-22.28806,0.34377,10.49,-1.2,0.83,2.0
1758091126.29311,1758091107.9962,0.0,0.0,0.0,8.99544,-37.92981,-4.52637,10.4,-1.2,2.06,2.0
1758091126.30886,1758091108.0062,0.0,0.0,0.0,12.60507,-50.13381,-11.34457,10.4,-1.2,2.06,2.0
1758091126.31093,1758091108.0162,0.0,0.0,0.0,16.50119,-56.32175,-21.37133,11.79,-1.16,2.7,2.0
1758091126.32585,1758091108.0262,0.0,0.0,0.0,18.33465,-55.6915,-24.86637,12.79,-1.03,2.68,2.0
1758091126.32705,1758091108.0362,0.0,0.0,0.0,19.82434,-53.34238,-25.49662,12.79,-1.03,2.68,2.0
1758091126.34265,1758091108.0462,0.0,0.0,0.0,19.36597,-48.30034,-22.63183,11.4,-0.24,3.03,2.0
1758091126.35884,1758091108.0562,0.0,0.0,0.0,16.50119,-46.1231,-20.05352,11.4,-0.24,3.03,2.0
1758091126.36002,1758091108.0662,0.0,0.0,0.0,11.74564,-43.77398,-17.99088,9.86,0.52,2.94,2.0
1758091126.37471,1758091108.0762,0.0,0.0,0.0,5.90147,-40.7946,-17.36062,9.86,0.52,2.94,2.0
1758091126.37596,1758091108.0862,0.0,0.0,0.0,-3.83882,-34.95043,-18.85031,9.59,0.92,2.77,2.0
1758091126.39214,1758091108.0962,0.0,0.0,0.0,-9.5684,-31.45539,-20.45459,10.09,0.88,2.46,2.0
1758091126.40885,1758091108.1062,0.0,0.0,0.0,-14.20935,-27.50197,-21.02755,10.09,0.88,2.46,2.0
1758091126.41004,1758091108.1162,0.0,0.0,0.0,-17.36062,-22.28806,-20.11082,10.7,0.24,2.17,2.0
1758091126.42566,1758091108.1262,0.0,0.0,0.0,-18.27736,-12.14671,-17.18874,10.7,0.24,2.17,2.0
1758091126.42687,1758091108.1362,0.0,0.0,0.0,-16.38659,-2.57831,-14.61043,11.23,-0.79,1.61,2.0
1758091126.4429,1758091108.1462,0.0,0.0,0.0,-13.06344,6.70361,-11.80293,11.23,-0.79,1.61,2.0
1758091126.45883,1758091108.1562,0.0,0.0,0.0,-8.76626,14.78231,-8.88085,11.36,-1.9,1.2,2.0
1758091126.46007,1758091108.1662,0.0,0.0,0.0,-1.3178,24.63719,-4.23989,10.59,-2.67,0.8,2.0
1758091126.47484,1758091108.1762,0.0,0.0,0.0,3.38045,29.73651,-1.20321,10.59,-2.67,0.8,2.0
1758091126.47647,1758091108.1862,0.0,0.0,0.0,7.62034,34.14828,1.03132,9.74,-2.74,0.54,2.0
1758091126.4918,1758091108.1962,0.0,0.0,0.0,11.22997,37.52874,2.86479,9.74,-2.74,0.54,2.0
1758091126.50814,1758091108.2062,0.0,0.0,0.0,15.98552,41.02378,4.87014,9.16,-2.21,0.51,2.0
1758091126.50984,1758091108.2162,0.0,0.0,0.0,18.85031,42.68536,5.90147,9.16,-2.21,0.51,2.0
1758091126.52567,1758091108.2262,0.0,0.0,0.0,21.02755,42.85724,6.70361,8.78,-1.61,0.33,2.0
1758091126.52688,1758091108.2362,0.0,0.0,0.0,22.86102,44.28964,7.04738,8.78,-1.61,0.33,2.0
1758091126.54186,1758091108.2462,0.0,0.0,0.0,23.37668,43.83128,7.50575,8.7,-1.09,0.31,2.0
1758091126.55787,1758091108.2562,0.0,0.0,0.0,24.00693,43.88857,7.84952,8.65,-0.8,0.47,2.0
1758091126.5599,1758091108.2662,0.0,0.0,0.0,24.4653,40.68,8.47978,8.65,-0.8,0.47,2.0
1758091126.57486,1758091108.2762,0.0,0.0,0.0,24.12152,35.52338,8.42248,8.26,-0.73,0.48,2.0
1758091126.57609,1758091108.2862,0.0,0.0,0.0,23.31938,33.63263,8.136,8.26,-0.73,0.48,2.0
1758091126.5919,1758091108.2962,0.0,0.0,0.0,21.88699,30.59595,6.7609,8.62,-0.59,0.56,2.0
1758091126.60886,1758091108.3062,0.0,0.0,0.0,20.79837,27.61657,5.4431,8.62,-0.59,0.56,2.0
1758091126.61009,1758091108.3162,0.0,0.0,0.0,19.07949,23.20479,2.34913,8.66,-0.43,0.66,2.0
1758091126.62478,1758091108.3262,0.0,0.0,0.0,18.90761,22.97561,0.80214,8.9,-0.39,0.62,2.0
1758091126.6268,1758091108.3362,0.0,0.0,0.0,19.70975,23.0329,0.0,8.9,-0.39,0.62,2.0
1758091126.64202,1758091108.3462,0.0,0.0,0.0,20.11082,23.83505,-0.57296,8.96,-0.56,0.42,2.0
1758091126.65801,1758091108.3562,0.0,0.0,0.0,20.11082,22.68913,-1.48969,8.96,-0.56,0.42,2.0
1758091126.65992,1758091108.3662,0.0,0.0,0.0,19.88164,20.34,-2.63561,8.69,-0.78,0.05,2.0
1758091126.67489,1758091108.3762,0.0,0.0,0.0,19.70975,18.16276,-4.23989,8.69,-0.78,0.05,2.0
1758091126.6762,1758091108.3862,0.0,0.0,0.0,20.22541,16.90226,-5.61499,8.58,-1.06,-0.42,2.0
1758091126.6919,1758091108.3962,0.0,0.0,0.0,22.51724,12.14671,-6.58902,8.42,-1.58,-0.71,2.0
1758091126.7082,1758091108.4062,0.0,0.0,0.0,25.09555,4.29718,-5.78687,8.42,-1.58,-0.71,2.0
1758091126.70953,1758091108.4162,0.0,0.0,0.0,27.61657,-11.74564,-4.0107,7.87,-2.06,-0.62,2.0
1758091126.72406,1758091108.4262,0.0,0.0,0.0,30.30947,-27.84575,-0.68755,7.87,-2.06,-0.62,2.0
1758091126.73993,1758091108.4362,0.0,0.0,0.0,36.21093,-20.34,4.23989,9.75,-2.31,-0.9,2.0
1758091126.74186,1758091108.4462,0.0,0.0,0.0,39.4768,-10.54242,8.93814,9.75,-2.31,-0.9,2.0
1758091126.7572,1758091108.4562,0.0,0.0,0.0,42.34158,4.29718,13.46451,12.64,-2.29,-0.07,2.0
1758091126.75813,1758091108.4662,0.0,0.0,0.0,45.26366,10.48513,20.22541,12.64,-2.29,-0.07,2.0
1758091126.77294,1758091108.4762,0.0,0.0,0.0,48.9306,-4.29718,21.14215,12.4,-2.3,0.39,2.0
1758091126.78893,1758091108.4862,0.0,0.0,0.0,53.34238,-32.83048,23.54857,8.54,-2.27,-0.72,2.0
1758091126.79042,1758091108.4962,0.0,0.0,0.0,55.51962,-51.5662,27.38738,8.54,-2.27,-0.72,2.0
1758091126.80517,1758091108.5062,0.0,0.0,0.0,54.3164,-42.34158,29.39274,10.83,-2.59,-1.52,2.0
1758091126.80611,1758091108.5162,0.0,0.0,0.0,53.28508,-30.59595,29.22085,10.83,-2.59,-1.52,2.0
1758091126.82193,1758091108.5262,0.0,0.0,0.0,51.6235,-28.36141,26.87172,11.89,-2.4,-0.02,2.0
1758091126.8392,1758091108.5362,0.0,0.0,0.0,48.52953,-27.1582,24.63719,11.89,-2.4,-0.02,2.0
1758091126.84174,1758091108.5462,0.0,0.0,0.0,40.33623,-24.5226,21.37133,10.76,-1.59,0.54,2.0
1758091126.85683,1758091108.5562,0.0,0.0,0.0,33.9764,-31.2262,20.51189,10.01,-0.01,0.75,2.0
1758091126.85816,1758091108.5662,0.0,0.0,0.0,28.36141,-41.65404,22.40265,10.01,-0.01,0.75,2.0
1758091126.87319,1758091108.5762,0.0,0.0,0.0,22.86102,-46.1231,24.80907,10.44,0.98,1.93,2.0
1758091126.88997,1758091108.5862,0.0,0.0,0.0,17.76169,-50.1911,33.63263,10.44,0.98,1.93,2.0
1758091126.89094,1758091108.5962,0.0,0.0,0.0,13.5791,-50.59217,41.31026,12.77,1.89,3.38,2.0
1758091126.90599,1758091108.6062,0.0,0.0,0.0,7.96411,-48.07116,48.64412,12.77,1.89,3.38,2.0
1758091126.90745,1758091108.6162,0.0,0.0,0.0,2.57831,-44.57612,54.94666,13.8,2.13,4.04,2.0
1758091126.92198,1758091108.6262,0.0,0.0,0.0,-2.7502,-40.04975,60.61894,11.11,1.75,3.22,2.0
1758091126.93791,1758091108.6362,0.0,0.0,0.0,-3.20856,-32.37212,60.96271,11.11,1.75,3.22,2.0
1758091126.94024,1758091108.6462,0.0,0.0,0.0,-1.94806,-20.62648,57.46767,9.21,0.61,2.68,2.0
1758091126.95585,1758091108.6562,0.0,0.0,0.0,3.66693,-10.08406,48.64412,9.21,0.61,2.68,2.0
1758091126.95772,1758091108.6662,0.0,0.0,0.0,9.22462,5.27121,40.62271,8.87,-0.43,3.0,2.0
1758091126.97309,1758091108.6762,0.0,0.0,0.0,15.58445,16.50119,31.79916,8.87,-0.43,3.0,2.0
1758091126.98904,1758091108.6862,0.0,0.0,0.0,20.68378,25.21014,22.23076,10.38,-0.93,2.58,2.0
1758091126.99042,1758091108.6962,0.0,0.0,0.0,25.61122,35.2369,8.65166,10.38,-0.93,2.58,2.0
1758091127.00498,1758091108.7062,0.0,0.0,0.0,26.69983,42.1124,1.3178,11.67,-0.87,1.6,2.0
1758091127.00619,1758091108.7162,0.0,0.0,0.0,26.52795,49.50356,-3.72423,12.28,-0.69,0.95,2.0
1758091127.022,1758091108.7262,0.0,0.0,0.0,25.61122,56.37905,-6.53172,12.28,-0.69,0.95,2.0
1758091127.03806,1758091108.7362,0.0,0.0,0.0,22.00158,60.73353,-7.50575,11.08,-0.3,1.4,2.0
1758091127.04024,1758091108.7462,0.0,0.0,0.0,18.62113,61.59297,-6.7609,11.08,-0.3,1.4,2.0
1758091127.05528,1758091108.7562,0.0,0.0,0.0,14.78231,59.35843,-5.15662,9.39,0.55,2.0,2.0
1758091127.05617,1758091108.7662,0.0,0.0,0.0,10.54242,55.23313,-3.55234,9.39,0.55,2.0,2.0
1758091127.07226,1758091108.7762,0.0,0.0,0.0,3.72423,44.748,-0.97403,8.34,1.45,2.09,2.0
1758091127.08789,1758091108.7862,0.0,0.0,0.0,-1.08862,36.7266,-0.34377,8.03,1.97,1.9,2.0
1758091127.08992,1758091108.7962,0.0,0.0,0.0,-6.07335,29.22085,-0.57296,8.03,1.97,1.9,2.0
1758091127.10609,1758091108.8062,0.0,0.0,0.0,-10.94349,22.91831,-1.83346,8.32,1.79,1.62,2.0
1758091127.10698,1758091108.8162,0.0,0.0,0.0,-17.13144,13.06344,-5.32851,8.32,1.79,1.62,2.0
1758091127.12201,1758091108.8262,0.0,0.0,0.0,-20.85567,7.04738,-8.25059,8.66,1.12,1.42,2.0
1758091127.13929,1758091108.8362,0.0,0.0,0.0,-24.4653,3.20856,-11.86023,8.66,1.12,1.42,2.0
1758091127.14024,1758091108.8462,0.0,0.0,0.0,-27.10091,2.34913,-17.01685,9.52,0.38,1.24,2.0
1758091127.15529,1758091108.8562,0.0,0.0,0.0,-29.73651,1.03132,-20.34,10.09,-0.29,0.8,2.0
1758091127.15696,1758091108.8662,0.0,0.0,0.0,-30.13758,0.17189,-21.7724,10.09,-0.29,0.8,2.0
1758091127.17231,1758091108.8762,0.0,0.0,0.0,-30.36677,-1.43239,-22.97561,10.1,-0.78,0.85,2.0
1758091127.18827,1758091108.8862,0.0,0.0,0.0,-30.36677,3.26586,-22.05888,10.1,-0.78,0.85,2.0
1758091127.18923,1758091108.8962,0.0,0.0,0.0,-30.02299,7.96411,-20.22541,10.37,-0.95,0.66,2.0
1758091127.20395,1758091108.9062,0.0,0.0,0.0,-29.39274,12.2613,-17.6471,10.37,-0.95,0.66,2.0
1758091127.22009,1758091108.9162,0.0,0.0,0.0,-28.476,16.272,-15.24068,9.92,-0.94,0.81,2.0
1758091127.22282,1758091108.9262,0.0,0.0,0.0,-27.38738,19.13679,-11.22997,9.08,-0.94,0.62,2.0
1758091127.23806,1758091108.9362,0.0,0.0,0.0,-26.98631,17.30333,-8.70896,9.08,-0.83,0.62,2.0
1758091127.23925,1758091108.9462,0.0,0.0,0.0,-27.33009,13.75099,-6.99009,8.33,-0.58,0.62,2.0
1758091127.25433,1758091108.9562,0.0,0.0,0.0,-28.24682,8.99544,-5.32851,8.33,-0.58,0.62,2.0
1758091127.27038,1758091108.9662,0.0,0.0,0.0,-30.48136,0.45837,-4.23989,8.32,-0.26,0.45,2.0
1758091127.27205,1758091108.9762,0.0,0.0,0.0,-32.42941,-7.21927,-4.46907,8.32,-0.26,0.45,2.0
1758091127.28711,1758091108.9862,0.0,0.0,0.0,-33.74722,-15.35527,-4.92744,8.18,-0.04,0.24,2.0
1758091127.28849,1758091108.9962,0.0,0.0,0.0,-34.89313,-23.31938,-6.18794,8.18,-0.04,0.24,2.0
1758091127.30327,1758091109.0062,0.0,0.0,0.0,-36.21093,-36.21093,-8.76626,7.95,0.0,0.22,2.0
1758091127.31904,1758091109.0162,0.0,0.0,0.0,-36.61201,-35.86716,-9.62569,8.79,-0.22,0.31,2.0
1758091127.32108,1758091109.0262,0.0,0.0,0.0,-37.81522,-21.08485,-8.59437,8.79,-0.22,0.31,2.0
1758091127.3373,1758091109.0362,0.0,0.0,0.0,-38.38818,-20.45459,-7.73493,10.68,-0.43,0.8,2.0
1758091127.33832,1758091109.0462,0.0,0.0,0.0,-42.74266,-21.6578,-11.97482,10.68,-0.43,0.8,2.0
1758091127.3531,1758091109.0562,0.0,0.0,0.0,-43.77398,-25.43933,-14.09476,10.2,-0.24,0.0,2.0
1758091127.35662,1758091109.0662,0.0,0.0,0.0,-43.4875,-31.39809,-16.272,10.2,-0.24,0.0,2.0
1758091127.37237,1758091109.0762,0.0,0.0,0.0,-42.1124,-21.37133,-17.6471,10.13,-0.14,-0.19,2.0
1758091127.38829,1758091109.0862,0.0,0.0,0.0,-40.96649,-5.55769,-16.67307,12.4,-0.33,-0.56,2.0
1758091127.38928,1758091109.0962,0.0,0.0,0.0,-39.3622,4.92744,-13.98017,12.4,-0.33,-0.56,2.0
1758091127.4041,1758091109.1062,0.0,0.0,0.0,-36.61201,8.88085,-10.8862,11.19,-0.84,-0.78,2.0
1758091127.42038,1758091109.1162,0.0,0.0,0.0,-31.85646,12.77696,-6.58902,11.19,-0.84,-0.78,2.0
1758091127.42129,1758091109.1262,0.0,0.0,0.0,-28.30412,18.44924,-3.95341,10.92,-1.31,-1.19,2.0
1758091127.43601,1758091109.1362,0.0,0.0,0.0,-24.80907,23.37668,-2.40642,10.92,-1.31,-1.19,2.0
1758091127.43723,1758091109.1462,0.0,0.0,0.0,-21.08485,24.98096,-1.03132,11.67,-1.39,-1.01,2.0
1758091127.45228,1758091109.1562,0.0,0.0,0.0,-15.0115,23.31938,-0.97403,11.69,-1.21,-0.27,2.0
1758091127.46809,1758091109.1662,0.0,0.0,0.0,-10.71431,17.99088,-1.71887,11.69,-1.21,-0.27,2.0
1758091127.46932,1758091109.1762,0.0,0.0,0.0,-6.87549,8.65166,-3.89611,11.33,-0.87,0.3,2.0
1758091127.48441,1758091109.1862,0.0,0.0,0.0,-3.38045,-3.26586,-7.67763,11.33,-0.87,0.3,2.0
1758091127.50033,1758091109.1962,0.0,0.0,0.0,0.57296,-20.74107,-14.9542,11.07,-0.61,0.81,2.0
1758091127.50134,1758091109.2062,0.0,0.0,0.0,2.40642,-30.36677,-20.45459,11.07,-0.61,0.81,2.0
1758091127.51625,1758091109.2162,0.0,0.0,0.0,3.72423,-37.47144,-25.43933,11.35,-0.69,1.54,2.0
1758091127.51971,1758091109.2262,0.0,0.0,0.0,5.21392,-42.39888,-29.27814,11.35,-0.69,1.54,2.0
1758091127.53542,1758091109.2362,0.0,0.0,0.0,8.25059,-47.78468,-32.37212,11.77,-0.96,2.42,2.0
1758091127.5374,1758091109.2462,0.0,0.0,0.0,10.48513,-52.54023,-32.14294,10.81,-1.0,2.92,2.0
1758091127.55323,1758091109.2562,0.0,0.0,0.0,12.2613,-57.29578,-30.36677,10.81,-1.0,2.92,2.0
1758091127.57104,1758091109.2662,0.0,0.0,0.0,13.5218,-61.42108,-25.38203,8.85,-0.57,2.81,2.0
1758091127.57269,1758091109.2762,0.0,0.0,0.0,13.06344,-64.62964,-21.88699,8.85,-0.57,2.81,2.0
1758091127.58837,1758091109.2862,0.0,0.0,0.0,11.34457,-61.76485,-19.48057,8.03,-0.11,2.78,2.0
1758091127.59089,1758091109.2962,0.0,0.0,0.0,8.93814,-55.92068,-18.27736,8.03,-0.11,2.78,2.0
1758091127.60821,1758091109.3062,0.0,0.0,0.0,4.64096,-44.86259,-18.22006,8.73,0.13,2.96,2.0
1758091127.60933,1758091109.3162,0.0,0.0,0.0,2.00535,-37.35685,-17.6471,9.42,0.0,2.54,2.0
1758091127.62572,1758091109.3262,0.0,0.0,0.0,0.51566,-30.82513,-16.73037,9.42,0.0,2.54,2.0
1758091127.62692,1758091109.3362,0.0,0.0,0.0,0.57296,-23.89234,-15.64175,10.08,-0.54,1.87,2.0
1758091127.64324,1758091109.3462,0.0,0.0,0.0,4.18259,-10.54242,-13.69369,10.08,-0.54,1.87,2.0
1758091127.65995,1758091109.3562,0.0,0.0,0.0,8.70896,0.17189,-12.71966,11.2,-1.35,1.21,2.0
1758091127.66113,1758091109.3662,0.0,0.0,0.0,14.61043,10.65701,-11.45916,11.2,-1.35,1.21,2.0
1758091127.67786,1758091109.3762,0.0,0.0,0.0,21.31403,19.76705,-10.02676,11.48,-2.07,0.87,2.0
1758091127.6792,1758091109.3862,0.0,0.0,0.0,32.37212,30.59595,-6.47442,10.81,-2.59,1.01,2.0
1758091127.69816,1758091109.3962,0.0,0.0,0.0,39.24761,36.15364,-3.20856,10.81,-2.59,1.01,2.0
1758091127.70024,1758091109.4062,0.0,0.0,0.0,45.60744,39.24761,0.68755,9.95,-2.82,0.97,2.0
1758091127.71596,1758091109.4162,0.0,0.0,0.0,50.87865,39.70598,4.69825,9.95,-2.82,0.97,2.0
1758091127.71872,1758091109.4262,0.0,0.0,0.0,56.14987,35.98175,9.28192,9.2,-2.66,0.77,2.0
1758091127.73521,1758091109.4362,0.0,0.0,0.0,58.09792,33.11696,10.94349,9.2,-2.66,0.77,2.0
1758091127.73653,1758091109.4462,0.0,0.0,0.0,59.75951,30.88243,11.80293,9.28,-2.05,0.43,2.0
1758091127.75322,1758091109.4562,0.0,0.0,0.0,61.1346,28.13223,12.43318,9.28,-2.05,0.43,2.0
1758091127.76996,1758091109.4662,0.0,0.0,0.0,63.42643,28.36141,12.49048,9.54,-1.39,0.06,2.0
