timeStamp,timeStampAlign,roll,pitch,yaw,gyro_x,gyro_y,gyro_z,acc_x,acc_y,acc_z,flag_num
1758078209.54655,1758078196.21091,0.0,0.0,0.0,-33.05967,-10.8289,-4.1253,8.85,1.23,4.19,3.0
1758078209.5478,1758078196.22091,0.0,0.0,0.0,-35.69527,-17.58981,-3.89611,8.85,1.23,4.19,3.0
1758078209.56369,1758078196.23091,0.0,0.0,0.0,-40.39353,-28.13223,-4.1253,8.08,1.91,4.38,3.0
1758078209.5673,1758078196.24091,0.0,0.0,0.0,-43.83128,-36.89849,-4.23989,8.08,1.91,4.38,3.0
1758078209.58287,1758078196.25091,0.0,0.0,0.0,-47.03984,-45.26366,-4.35448,7.71,2.41,4.47,3.0
1758078209.58412,1758078196.26091,0.0,0.0,0.0,-50.01921,-52.48294,-4.58366,7.71,2.41,4.47,3.0
1758078209.59867,1758078196.27091,0.0,0.0,0.0,-53.80074,-60.50434,-5.32851,8.08,2.13,4.23,3.0
1758078209.60023,1758078196.28091,0.0,0.0,0.0,-56.03527,-62.96807,-5.95876,8.49,1.48,3.98,3.0
1758078209.61526,1758078196.29091,0.0,0.0,0.0,-57.92604,-63.42643,-6.24524,8.49,1.48,3.98,3.0
1758078209.63076,1758078196.30091,0.0,0.0,0.0,-59.64491,-62.33781,-6.24524,8.46,1.09,3.8,3.0
1758078209.63195,1758078196.31091,0.0,0.0,0.0,-62.16592,-58.90006,-5.32851,8.46,1.09,3.8,3.0
1758078209.647,1758078196.32091,0.0,0.0,0.0,-63.8275,-55.06125,-4.23989,8.37,1.12,3.38,3.0
1758078209.663,1758078196.33091,0.0,0.0,0.0,-65.71826,-48.9879,-3.03668,8.37,1.12,3.38,3.0
1758078209.66419,1758078196.34091,0.0,0.0,0.0,-66.97877,-43.83128,-1.3178,8.58,1.31,2.88,3.0
1758078209.67887,1758078196.35091,0.0,0.0,0.0,-69.78626,-35.2942,-0.22918,8.55,1.31,2.66,3.0
1758078209.67996,1758078196.36091,0.0,0.0,0.0,-71.04677,-26.81443,-0.0573,8.55,1.31,2.66,3.0
1758078209.69718,1758078196.37091,0.0,0.0,0.0,-72.30728,-19.88164,-0.57296,8.69,1.05,2.25,3.0
1758078209.71296,1758078196.38091,0.0,0.0,0.0,-72.99483,-9.74028,-1.48969,8.69,1.05,2.25,3.0
1758078209.71475,1758078196.39091,0.0,0.0,0.0,-72.82294,-2.00535,-1.94806,8.49,0.75,1.86,3.0
1758078209.73008,1758078196.40091,0.0,0.0,0.0,-72.0208,5.95876,-2.34913,8.49,0.75,1.86,3.0
1758078209.73414,1758078196.41091,0.0,0.0,0.0,-70.81759,14.03747,-2.40642,8.53,0.46,1.53,3.0
1758078209.75005,1758078196.42091,0.0,0.0,0.0,-68.06739,25.72581,-2.7502,8.53,0.46,1.57,3.0
1758078209.75096,1758078196.43091,0.0,0.0,0.0,-66.29122,32.25753,-2.92208,8.58,0.26,1.57,3.0
1758078209.76634,1758078196.44091,0.0,0.0,0.0,-64.28587,38.56006,-3.49504,8.52,0.27,1.78,3.0
1758078209.78212,1758078196.45091,0.0,0.0,0.0,-62.33781,43.25832,-3.83882,8.52,0.27,1.78,3.0
1758078209.78343,1758078196.46091,0.0,0.0,0.0,-59.75951,49.21708,-5.15662,8.54,0.44,1.86,3.0
1758078209.79804,1758078196.47091,0.0,0.0,0.0,-58.49899,50.3057,-6.35983,8.54,0.44,1.86,3.0
1758078209.8138,1758078196.48091,0.0,0.0,0.0,-57.0093,48.58683,-7.16197,8.38,0.65,1.9,3.0
1758078209.81499,1758078196.49091,0.0,0.0,0.0,-55.6342,45.49285,-7.50575,8.38,0.65,1.9,3.0
1758078209.83209,1758078196.50091,0.0,0.0,0.0,-54.3164,39.82057,-8.136,8.36,0.7,1.97,3.0
1758078209.83302,1758078196.51091,0.0,0.0,0.0,-53.34238,35.75257,-8.25059,8.44,0.52,1.92,3.0
1758078209.84811,1758078196.52091,0.0,0.0,0.0,-52.54023,33.68992,-8.0787,8.44,0.52,1.92,3.0
1758078209.8638,1758078196.53091,0.0,0.0,0.0,-51.45161,31.85646,-7.84952,8.76,0.2,1.96,3.0
1758078209.86502,1758078196.54091,0.0,0.0,0.0,-49.84733,29.73651,-7.39116,8.76,0.2,1.96,3.0
1758078209.88006,1758078196.55091,0.0,0.0,0.0,-48.9306,26.35606,-6.99009,8.68,-0.08,1.98,3.0
1758078209.88102,1758078196.56091,0.0,0.0,0.0,-47.78468,22.74642,-6.13065,8.68,-0.08,1.98,3.0
1758078209.8965,1758078196.57091,0.0,0.0,0.0,-45.49285,19.76705,-4.46907,8.73,-0.37,1.98,3.0
1758078209.91416,1758078196.58091,0.0,0.0,0.0,-43.65939,17.01685,-3.09397,9.23,-0.63,1.81,3.0
1758078209.91508,1758078196.59091,0.0,0.0,0.0,-41.94051,16.61578,-1.71887,9.23,-0.63,1.81,3.0
1758078209.93095,1758078196.60091,0.0,0.0,0.0,-39.82057,16.10011,-0.45837,9.56,-0.81,1.96,3.0
1758078209.934,1758078196.61091,0.0,0.0,0.0,-36.89849,16.38659,1.14592,9.56,-0.81,1.96,3.0
1758078209.9489,1758078196.62091,0.0,0.0,0.0,-34.72124,16.73037,2.00535,9.63,-0.73,2.05,3.0
1758078209.95037,1758078196.63091,0.0,0.0,0.0,-32.6013,16.90226,2.34913,9.63,-0.73,2.05,3.0
1758078209.96691,1758078196.64091,0.0,0.0,0.0,-30.59595,16.90226,2.46372,9.62,-0.47,1.88,3.0
1758078209.98417,1758078196.65091,0.0,0.0,0.0,-27.38738,15.98552,2.40642,9.72,-0.47,1.67,3.0
1758078209.98508,1758078196.66091,0.0,0.0,0.0,-25.55392,15.98552,2.00535,9.72,-0.23,1.67,3.0
1758078210.0002,1758078196.67091,0.0,0.0,0.0,-23.66316,16.3293,1.60428,10.03,-0.16,1.7,3.0
1758078210.00153,1758078196.68091,0.0,0.0,0.0,-22.00158,16.95955,1.20321,10.03,-0.16,1.7,3.0
1758078210.01625,1758078196.69091,0.0,0.0,0.0,-19.53786,24.17882,-0.11459,10.54,-0.21,2.02,3.0
1758078210.0332,1758078196.70091,0.0,0.0,0.0,-17.93358,30.02299,-0.68755,10.54,-0.21,2.02,3.0
1758078210.03441,1758078196.71091,0.0,0.0,0.0,-16.50119,31.74186,-1.08862,11.01,-0.32,2.67,3.0
1758078210.04921,1758078196.72091,0.0,0.0,0.0,-15.06879,29.33544,-1.03132,11.01,-0.32,2.67,3.0
1758078210.05015,1758078196.73091,0.0,0.0,0.0,-12.77696,18.85031,2.06265,10.7,-0.48,3.56,3.0
1758078210.06657,1758078196.74091,0.0,0.0,0.0,-10.65701,12.37589,6.70361,11.39,-0.83,3.79,3.0
1758078210.083,1758078196.75091,0.0,0.0,0.0,-8.70896,8.70896,12.54778,11.39,-0.83,3.79,3.0
1758078210.0841,1758078196.76091,0.0,0.0,0.0,-6.8182,7.10468,21.88699,12.55,-1.26,3.55,3.0
1758078210.09893,1758078196.77091,0.0,0.0,0.0,-5.32851,2.46372,26.35606,12.55,-1.26,3.55,3.0
1758078210.10052,1758078196.78091,0.0,0.0,0.0,-4.35448,-3.55234,30.02299,12.44,-1.35,4.74,3.0
1758078210.11626,1758078196.7909,0.0,0.0,0.0,-4.92744,-8.99544,31.16891,12.44,-1.35,4.74,3.0
1758078210.13306,1758078196.8009,0.0,0.0,0.0,-3.66693,-2.7502,30.19488,12.17,-0.9,4.94,3.0
1758078210.1342,1758078196.8109,0.0,0.0,0.0,-1.66158,5.50039,28.64789,12.63,-0.26,4.45,3.0
1758078210.14928,1758078196.8209,0.0,0.0,0.0,0.22918,21.42862,25.89769,12.63,-0.26,4.45,3.0
1758078210.15015,1758078196.8309,0.0,0.0,0.0,2.06265,35.12231,21.08485,12.59,0.09,4.9,3.0
1758078210.16698,1758078196.8409,0.0,0.0,0.0,8.65166,28.70519,12.89155,12.59,0.09,4.9,3.0
1758078210.1833,1758078196.8509,0.0,0.0,0.0,11.34457,7.50575,6.07335,10.09,0.07,5.42,3.0
1758078210.18448,1758078196.8609,0.0,0.0,0.0,15.87093,-6.35983,3.95341,10.09,0.07,5.42,3.0
1758078210.19898,1758078196.8709,0.0,0.0,0.0,21.42862,-16.38659,4.52637,10.78,-0.38,3.83,3.0
1758078210.20013,1758078196.8809,0.0,0.0,0.0,27.50197,-11.86023,3.89611,11.12,-0.96,2.84,3.0
1758078210.21626,1758078196.8909,0.0,0.0,0.0,31.39809,-7.50575,6.13065,11.12,-0.96,2.84,3.0
1758078210.23226,1758078196.9009,0.0,0.0,0.0,34.89313,-5.32851,7.16197,9.24,-1.31,4.15,3.0
1758078210.23363,1758078196.9109,0.0,0.0,0.0,37.98711,-4.64096,8.25059,9.24,-1.31,4.15,3.0
1758078210.24829,1758078196.9209,0.0,0.0,0.0,42.22699,-6.24524,9.28192,7.66,-1.03,4.01,3.0
1758078210.26429,1758078196.9309,0.0,0.0,0.0,44.57612,-6.7609,9.74028,7.66,-1.03,4.01,3.0
1758078210.26547,1758078196.9409,0.0,0.0,0.0,46.2377,-8.88085,10.37054,6.87,-0.44,3.31,3.0
1758078210.28033,1758078196.9509,0.0,0.0,0.0,47.72739,-14.09476,10.59972,6.87,-0.44,3.31,3.0
1758078210.28122,1758078196.9609,0.0,0.0,0.0,48.8733,-24.12152,10.19865,5.61,0.11,2.86,3.0
1758078210.29829,1758078196.9709,0.0,0.0,0.0,49.50356,-28.87707,9.85487,5.15,0.59,2.91,3.0
1758078210.31416,1758078196.9809,0.0,0.0,0.0,49.84733,-32.14294,9.5684,5.15,0.59,2.91,3.0
1758078210.31524,1758078196.9909,0.0,0.0,0.0,50.2484,-35.06502,9.33921,5.64,1.12,3.17,3.0
1758078210.33005,1758078197.0009,0.0,0.0,0.0,50.47758,-38.61736,9.4538,5.64,1.12,3.17,3.0
1758078210.33119,1758078197.0109,0.0,0.0,0.0,50.59217,-40.68,9.91217,6.37,1.47,3.32,3.0
1758078210.34619,1758078197.0209,0.0,0.0,0.0,50.2484,-41.94051,10.31324,6.37,1.47,3.32,3.0
1758078210.36295,1758078197.0309,0.0,0.0,0.0,48.8733,-39.53409,11.22997,7.14,1.57,3.18,3.0
1758078210.36409,1758078197.0409,0.0,0.0,0.0,47.32632,-36.03905,11.22997,7.92,1.49,2.85,3.0
1758078210.37909,1758078197.0509,0.0,0.0,0.0,45.43555,-32.14294,11.17268,7.92,1.49,2.85,3.0
1758078210.38135,1758078197.0609,0.0,0.0,0.0,43.02913,-28.13223,10.25595,8.39,1.48,2.95,3.0
1758078210.39741,1758078197.0709,0.0,0.0,0.0,39.24761,-21.42862,8.36518,8.39,1.48,2.95,3.0
1758078210.41312,1758078197.0809,0.0,0.0,0.0,36.49741,-15.75634,6.70361,8.87,1.57,2.99,3.0
1758078210.41428,1758078197.0909,0.0,0.0,0.0,33.74722,-9.85487,4.92744,8.87,1.57,2.99,3.0
1758078210.42934,1758078197.1009,0.0,0.0,0.0,31.39809,-4.23989,3.26586,9.29,1.69,2.87,3.0
1758078210.43105,1758078197.1109,0.0,0.0,0.0,28.30412,2.00535,0.0573,9.42,1.72,2.96,3.0
1758078210.44706,1758078197.1209,0.0,0.0,0.0,26.75713,5.27121,-2.00535,9.42,1.72,2.96,3.0
1758078210.46312,1758078197.1309,0.0,0.0,0.0,25.89769,7.39116,-3.60963,9.55,1.6,3.09,3.0
1758078210.46428,1758078197.1409,0.0,0.0,0.0,25.43933,9.5684,-5.4431,9.55,1.6,3.09,3.0
1758078210.47907,1758078197.1509,0.0,0.0,0.0,25.72581,13.23533,-7.33386,9.69,1.36,3.06,3.0
1758078210.48136,1758078197.1609,0.0,0.0,0.0,26.41335,14.43854,-7.96411,9.69,1.36,3.06,3.0
1758078210.4981,1758078197.1709,0.0,0.0,0.0,27.38738,14.38124,-8.65166,9.51,1.02,3.05,3.0
1758078210.51441,1758078197.1809,0.0,0.0,0.0,28.476,13.46451,-8.99544,9.51,1.02,3.05,3.0
1758078210.51535,1758078197.1909,0.0,0.0,0.0,29.96569,11.17268,-8.59437,9.2,0.8,2.94,3.0
1758078210.53046,1758078197.2009,0.0,0.0,0.0,30.76784,9.28192,-8.136,9.11,0.8,2.8,3.0
1758078210.53331,1758078197.2109,0.0,0.0,0.0,31.39809,6.41713,-7.44845,9.11,0.8,2.8,3.0
1758078210.54846,1758078197.2209,0.0,0.0,0.0,31.74186,2.34913,-5.50039,8.95,0.86,2.68,3.0
1758078210.56444,1758078197.2309,0.0,0.0,0.0,31.45539,0.34377,-4.35448,8.95,0.86,2.68,3.0
1758078210.56563,1758078197.2409,0.0,0.0,0.0,30.59595,-0.51566,-3.38045,8.98,1.03,2.59,3.0
1758078210.58045,1758078197.2509,0.0,0.0,0.0,29.56462,-2.57831,-2.46372,8.98,1.03,2.59,3.0
1758078210.58167,1758078197.2609,0.0,0.0,0.0,27.44468,-4.81285,-1.71887,8.8,1.28,2.49,3.0
1758078210.59647,1758078197.2709,0.0,0.0,0.0,26.12688,-6.53172,-1.14592,8.66,1.51,2.47,3.0
1758078210.61248,1758078197.2809,0.0,0.0,0.0,24.98096,-8.25059,-0.45837,8.66,1.51,2.47,3.0
1758078210.61365,1758078197.2909,0.0,0.0,0.0,23.72045,-10.19865,-0.0573,8.55,1.55,2.29,3.0
1758078210.62846,1758078197.3009,0.0,0.0,0.0,22.28806,-11.97482,0.68755,8.55,1.55,2.29,3.0
1758078210.64448,1758078197.3109,0.0,0.0,0.0,21.31403,-12.37589,1.20321,8.61,1.46,2.06,3.0
1758078210.64583,1758078197.3209,0.0,0.0,0.0,20.22541,-12.54778,1.71887,8.61,1.46,2.06,3.0
1758078210.66048,1758078197.3309,0.0,0.0,0.0,19.13679,-11.91752,2.11994,8.79,1.41,2.07,3.0
1758078210.66143,1758078197.3409,0.0,0.0,0.0,17.47521,-9.74028,2.34913,9.16,1.45,2.18,3.0
1758078210.67625,1758078197.3509,0.0,0.0,0.0,16.3293,-7.67763,2.34913,9.16,1.45,2.18,3.0
1758078210.69343,1758078197.3609,0.0,0.0,0.0,15.06879,-5.27121,2.29183,9.43,1.45,2.14,3.0
1758078210.69443,1758078197.3709,0.0,0.0,0.0,14.09476,-2.6929,2.29183,9.43,1.45,2.14,3.0
1758078210.70935,1758078197.3809,0.0,0.0,0.0,12.83425,0.68755,2.00535,9.48,1.42,1.98,3.0
1758078210.71041,1758078197.3909,0.0,0.0,0.0,12.08941,2.06265,1.94806,9.48,1.42,1.98,3.0
1758078210.72647,1758078197.4009,0.0,0.0,0.0,11.17268,3.38045,1.3751,9.46,1.38,1.9,3.0
1758078210.74253,1758078197.4109,0.0,0.0,0.0,10.25595,4.58366,1.3751,9.46,1.38,1.9,3.0
1758078210.74343,1758078197.4209,0.0,0.0,0.0,9.62569,6.13065,1.3178,9.54,1.35,1.86,3.0
1758078210.75829,1758078197.4309,0.0,0.0,0.0,9.05273,6.87549,1.71887,9.65,1.33,1.7,3.0
1758078210.77457,1758078197.4409,0.0,0.0,0.0,8.65166,7.44845,2.23454,9.65,1.33,1.7,3.0
1758078210.77545,1758078197.4509,0.0,0.0,0.0,6.8182,10.71431,1.48969,9.84,1.31,1.76,3.0
1758078210.79035,1758078197.4609,0.0,0.0,0.0,5.72958,10.94349,1.03132,9.84,1.31,1.76,3.0
1758078210.79144,1758078197.4709,0.0,0.0,0.0,4.46907,10.25595,0.85944,9.91,1.39,1.87,3.0
1758078210.80656,1758078197.4809,0.0,0.0,0.0,2.34913,10.25595,-0.57296,9.91,1.39,1.87,3.0
1758078210.82351,1758078197.4909,0.0,0.0,0.0,-0.51566,8.30789,-1.77617,10.09,1.69,2.0,3.0
1758078210.82471,1758078197.5009,0.0,0.0,0.0,-2.86479,6.87549,-3.26586,10.37,2.04,2.03,3.0
1758078210.83922,1758078197.5109,0.0,0.0,0.0,-5.4431,5.72958,-4.35448,10.37,2.04,2.03,3.0
1758078210.84045,1758078197.5209,0.0,0.0,0.0,-8.47978,5.95876,-6.35983,10.54,2.28,1.78,3.0
1758078210.85655,1758078197.5309,0.0,0.0,0.0,-12.60507,2.57831,-9.11003,10.54,2.28,1.78,3.0
1758078210.87255,1758078197.5409,0.0,0.0,0.0,-15.24068,-6.47442,-10.37054,10.2,2.42,1.91,3.0
1758078210.87374,1758078197.5509,0.0,0.0,0.0,-17.01685,-18.10547,-10.37054,10.2,2.42,1.91,3.0
1758078210.88856,1758078197.5609,0.0,0.0,0.0,-18.62113,-27.84575,-11.22997,9.74,2.38,1.6,3.0
1758078210.90477,1758078197.5709,0.0,0.0,0.0,-20.22541,-33.34615,-9.68299,10.93,1.95,1.65,3.0
1758078210.9055,1758078197.5809,0.0,0.0,0.0,-21.25674,-28.41871,-9.05273,10.93,1.95,1.65,3.0
1758078210.92057,1758078197.5909,0.0,0.0,0.0,-23.26209,-9.05273,-11.17268,13.65,1.7,2.83,3.0
1758078210.92158,1758078197.6009,0.0,0.0,0.0,-23.72045,4.87014,-12.60507,13.65,1.7,2.83,3.0
1758078210.93632,1758078197.6109,0.0,0.0,0.0,-22.23076,4.46907,-12.2613,13.09,1.69,4.59,3.0
1758078210.95231,1758078197.6209,0.0,0.0,0.0,-21.42862,-3.20856,-14.20935,13.09,1.69,4.59,3.0
1758078210.95357,1758078197.6309,0.0,0.0,0.0,-20.05352,-7.96411,-16.04282,12.07,2.1,4.53,3.0
1758078210.96909,1758078197.6409,0.0,0.0,0.0,-16.90226,-0.80214,-15.24068,12.07,2.1,4.53,3.0
1758078210.97031,1758078197.6509,0.0,0.0,0.0,-15.69904,5.95876,-13.00614,13.43,2.21,3.11,3.0
1758078210.98629,1758078197.6609,0.0,0.0,0.0,-15.75634,7.16197,-9.96947,12.33,1.65,2.98,3.0
1758078211.00314,1758078197.6709,0.0,0.0,0.0,-17.01685,6.58902,-6.87549,12.33,1.65,2.98,3.0
1758078211.00433,1758078197.6809,0.0,0.0,0.0,-19.99623,8.25059,-1.60428,11.58,1.08,3.92,3.0
1758078211.01933,1758078197.6909,0.0,0.0,0.0,-22.40265,8.47978,1.71887,11.58,1.08,3.92,3.0
1758078211.02054,1758078197.7009,0.0,0.0,0.0,-24.92367,5.27121,4.58366,11.45,0.92,3.82,3.0
1758078211.03631,1758078197.7109,0.0,0.0,0.0,-27.67386,1.03132,6.35983,11.45,0.92,3.82,3.0
1758078211.05247,1758078197.7209,0.0,0.0,0.0,-31.97105,-7.50575,7.10468,10.41,1.14,3.84,3.0
1758078211.05356,1758078197.7309,0.0,0.0,0.0,-34.95043,-14.66772,6.87549,9.12,1.45,3.57,3.0
1758078211.06865,1758078197.7409,0.0,0.0,0.0,-38.15899,-21.37133,6.13065,9.12,1.45,3.57,3.0
1758078211.08446,1758078197.7509,0.0,0.0,0.0,-41.31026,-28.07493,4.92744,8.09,1.62,3.44,3.0
1758078211.08641,1758078197.7609,0.0,0.0,0.0,-45.83662,-37.29956,2.6929,8.09,1.62,3.44,3.0
1758078211.10163,1758078197.7709,0.0,0.0,0.0,-48.35764,-42.39888,1.20321,7.67,1.49,3.4,3.0
1758078211.10256,1758078197.7809,0.0,0.0,0.0,-49.96192,-47.09713,-0.11459,7.67,1.49,3.4,3.0
1758078211.11738,1758078197.7909,0.0,0.0,0.0,-50.99325,-50.13381,-1.43239,7.75,1.03,3.23,3.0
1758078211.13371,1758078197.8009,0.0,0.0,0.0,-50.53488,-51.5662,-2.63561,8.11,0.43,2.93,3.0
1758078211.13462,1758078197.8109,0.0,0.0,0.0,-49.27437,-50.53488,-2.7502,8.11,0.43,2.93,3.0
1758078211.14945,1758078197.8209,0.0,0.0,0.0,-47.67009,-47.61279,-2.7502,8.54,-0.13,2.81,3.0
1758078211.15061,1758078197.8309,0.0,0.0,0.0,-44.51882,-41.08107,-2.34913,8.54,-0.13,2.81,3.0
1758078211.1667,1758078197.8409,0.0,0.0,0.0,-42.22699,-35.92446,-1.48969,8.89,-0.51,2.77,3.0
1758078211.18273,1758078197.8509,0.0,0.0,0.0,-39.82057,-30.53865,-0.57296,8.89,-0.51,2.77,3.0
1758078211.18392,1758078197.8609,0.0,0.0,0.0,-37.81522,-24.92367,0.22918,9.04,-0.57,2.65,3.0
1758078211.19875,1758078197.8709,0.0,0.0,0.0,-34.95043,-17.24603,1.60428,9.04,-0.57,2.38,3.0
1758078211.2148,1758078197.8809,0.0,0.0,0.0,-33.11696,-11.97482,2.34913,8.97,-0.41,2.38,3.0
1758078211.21564,1758078197.8909,0.0,0.0,0.0,-31.51268,-5.90147,2.57831,8.95,-0.27,2.2,3.0
1758078211.23066,1758078197.9009,0.0,0.0,0.0,-29.73651,0.40107,2.40642,8.95,-0.27,2.2,3.0
1758078211.23164,1758078197.9109,0.0,0.0,0.0,-27.67386,9.28192,1.83346,9.06,-0.16,2.07,3.0
1758078211.24678,1758078197.9209,0.0,0.0,0.0,-26.69983,14.32395,1.3751,9.06,-0.16,2.07,3.0
1758078211.26247,1758078197.9309,0.0,0.0,0.0,-25.72581,18.73572,0.85944,9.19,0.0,2.17,3.0
1758078211.26398,1758078197.9409,0.0,0.0,0.0,-25.26744,21.88699,0.40107,9.19,0.0,2.17,3.0
1758078211.27871,1758078197.9509,0.0,0.0,0.0,-24.86637,24.80907,0.0573,9.22,0.17,2.19,3.0
1758078211.2947,1758078197.9609,0.0,0.0,0.0,-25.09555,26.75713,-0.0573,9.19,0.31,2.2,3.0
1758078211.29607,1758078197.9709,0.0,0.0,0.0,-25.61122,27.78845,-0.22918,9.19,0.31,2.2,3.0
1758078211.31075,1758078197.9809,0.0,0.0,0.0,-26.18417,28.36141,-0.45837,9.02,0.33,2.17,3.0
1758078211.31207,1758078197.9909,0.0,0.0,0.0,-26.98631,28.01764,-1.14592,9.02,0.33,2.17,3.0
1758078211.32749,1758078198.0009,0.0,0.0,0.0,-27.33009,26.81443,-2.00535,8.84,0.31,2.29,3.0
1758078211.34345,1758078198.0109,0.0,0.0,0.0,-27.44468,26.18417,-2.23454,8.84,0.31,2.29,3.0
1758078211.34472,1758078198.0209,0.0,0.0,0.0,-27.33009,25.89769,-1.71887,8.79,0.22,2.33,3.0
1758078211.3595,1758078198.0309,0.0,0.0,0.0,-27.2155,24.4653,-1.03132,8.64,0.06,2.38,3.0
1758078211.36101,1758078198.0409,0.0,0.0,0.0,-26.75713,23.20479,0.17189,8.64,0.06,2.38,3.0
1758078211.37701,1758078198.0509,0.0,0.0,0.0,-26.52795,20.97026,1.14592,8.42,-0.11,2.23,3.0
1758078211.39288,1758078198.0609,0.0,0.0,0.0,-26.35606,17.87628,2.06265,8.42,-0.11,2.23,3.0
1758078211.39373,1758078198.0709,0.0,0.0,0.0,-26.18417,15.98552,2.11994,8.34,-0.22,2.08,3.0
1758078211.4088,1758078198.0809,0.0,0.0,0.0,-25.89769,14.32395,1.71887,8.34,-0.22,2.08,3.0
1758078211.42483,1758078198.0909,0.0,0.0,0.0,-25.8404,12.14671,0.85944,8.28,-0.17,1.94,3.0
1758078211.42599,1758078198.1009,0.0,0.0,0.0,-25.55392,8.70896,-0.40107,8.18,-0.17,1.9,3.0
1758078211.44085,1758078198.1109,0.0,0.0,0.0,-25.43933,6.24524,-1.3751,8.18,0.0,1.9,3.0
1758078211.44292,1758078198.1209,0.0,0.0,0.0,-25.09555,4.23989,-1.94806,8.25,0.18,1.89,3.0
1758078211.45785,1758078198.1309,0.0,0.0,0.0,-24.92367,2.46372,-2.29183,8.25,0.18,1.89,3.0
1758078211.47386,1758078198.1409,0.0,0.0,0.0,-24.63719,0.22918,-2.46372,8.55,0.19,1.99,3.0
1758078211.47477,1758078198.1509,0.0,0.0,0.0,-24.4653,-0.34377,-2.23454,8.55,0.19,1.99,3.0
1758078211.48986,1758078198.1609,0.0,0.0,0.0,-23.72045,-0.80214,-1.77617,9.0,-0.03,2.1,3.0
1758078211.49078,1758078198.1709,0.0,0.0,0.0,-23.20479,-0.97403,-1.66158,9.0,-0.03,2.1,3.0
1758078211.50896,1758078198.1809,0.0,0.0,0.0,-21.7724,-0.51566,-1.03132,9.38,-0.28,2.05,3.0
1758078211.52492,1758078198.1909,0.0,0.0,0.0,-20.79837,-0.80214,-0.74485,9.6,-0.43,1.92,3.0
1758078211.5258,1758078198.2009,0.0,0.0,0.0,-19.70975,-0.97403,-0.40107,9.6,-0.43,1.92,3.0
1758078211.54195,1758078198.2109,0.0,0.0,0.0,-18.44924,-0.74485,0.68755,9.86,-0.37,1.68,3.0
1758078211.54277,1758078198.2209,0.0,0.0,0.0,-16.67307,3.72423,1.3178,9.86,-0.37,1.68,3.0
1758078211.55763,1758078198.2309,0.0,0.0,0.0,-15.41257,6.99009,1.94806,10.35,-0.25,1.53,3.0
1758078211.57369,1758078198.2409,0.0,0.0,0.0,-14.20935,9.22462,2.23454,10.35,-0.25,1.53,3.0
1758078211.57481,1758078198.2509,0.0,0.0,0.0,-12.54778,14.66772,2.63561,10.53,-0.22,1.74,3.0
1758078211.58996,1758078198.2609,0.0,0.0,0.0,-10.8289,18.50654,3.38045,11.13,-0.35,2.16,3.0
1758078211.59082,1758078198.2709,0.0,0.0,0.0,-8.93814,21.7724,4.92744,11.13,-0.35,2.16,3.0
1758078211.60948,1758078198.2809,0.0,0.0,0.0,-6.58902,24.86637,6.99009,11.58,-0.67,2.26,3.0
1758078211.61398,1758078198.2909,0.0,0.0,0.0,-2.46372,27.78845,10.8862,11.58,-0.67,2.26,3.0
1758078211.62999,1758078198.3009,0.0,0.0,0.0,0.45837,27.1582,14.15206,11.85,-1.05,2.59,3.0
1758078211.63082,1758078198.3109,0.0,0.0,0.0,3.09397,24.23611,16.55848,11.85,-1.05,2.59,3.0
1758078211.64664,1758078198.3209,0.0,0.0,0.0,6.07335,11.51645,18.22006,11.89,-1.37,2.83,3.0
1758078211.66266,1758078198.3309,0.0,0.0,0.0,8.136,6.13065,17.6471,12.79,-1.17,3.02,3.0
1758078211.66414,1758078198.3409,0.0,0.0,0.0,10.59972,21.94428,18.33465,12.79,-1.17,3.02,3.0
1758078211.67889,1758078198.3509,0.0,0.0,0.0,11.74564,39.4195,17.81899,15.38,-0.76,4.38,3.0
1758078211.69477,1758078198.3609,0.0,0.0,0.0,12.60507,48.58683,16.272,15.38,-0.76,4.38,3.0
1758078211.69615,1758078198.3709,0.0,0.0,0.0,11.00079,34.26288,8.93814,12.62,-0.2,5.64,3.0
1758078211.71063,1758078198.3809,0.0,0.0,0.0,12.43318,7.04738,8.93814,12.62,-0.2,5.64,3.0
1758078211.713,1758078198.3909,0.0,0.0,0.0,13.17803,1.03132,7.67763,11.72,0.03,5.03,3.0
1758078211.72796,1758078198.4009,0.0,0.0,0.0,15.41257,-0.51566,7.73493,11.72,0.03,5.03,3.0
1758078211.74369,1758078198.4109,0.0,0.0,0.0,18.33465,7.21927,5.55769,14.16,-0.09,2.16,3.0
1758078211.74514,1758078198.4209,0.0,0.0,0.0,20.97026,9.33921,4.69825,12.38,-0.6,3.99,3.0
1758078211.76326,1758078198.4309,0.0,0.0,0.0,23.60586,8.65166,2.7502,12.38,-0.6,3.99,3.0
1758078211.7645,1758078198.4409,0.0,0.0,0.0,28.36141,6.13065,-0.34377,10.51,-0.79,4.96,3.0
1758078211.77997,1758078198.4509,0.0,0.0,0.0,31.62727,2.11994,-1.43239,10.51,-0.79,4.96,3.0
1758078211.78167,1758078198.4609,0.0,0.0,0.0,35.12231,1.60428,-1.77617,9.54,-0.59,3.91,3.0
1758078211.79892,1758078198.4709,0.0,0.0,0.0,38.56006,1.66158,-2.11994,9.54,-0.59,3.91,3.0
1758078211.81479,1758078198.4809,0.0,0.0,0.0,43.65939,-0.97403,-1.3178,8.24,-0.41,3.07,3.0
1758078211.81672,1758078198.4909,0.0,0.0,0.0,46.81066,-6.99009,-0.0573,6.25,-0.36,2.87,3.0
1758078211.83249,1758078198.5009,0.0,0.0,0.0,49.50356,-15.24068,1.3178,6.25,-0.36,2.87,3.0
1758078211.84587,1758078198.5109,0.0,0.0,0.0,51.6235,-24.23611,2.7502,5.11,-0.36,2.87,3.0
1758078211.84888,1758078198.5209,0.0,0.0,0.0,54.02992,-36.21093,4.46907,5.11,-0.36,2.87,3.0
1758078211.8507,1758078198.5309,0.0,0.0,0.0,54.77477,-42.62806,4.81285,5.18,-0.26,2.78,3.0
1758078211.8669,1758078198.5409,0.0,0.0,0.0,54.94666,-48.07116,4.58366,5.18,-0.26,2.78,3.0
1758078211.88293,1758078198.5509,0.0,0.0,0.0,54.25911,-51.27972,4.18259,5.7,0.12,2.89,3.0
1758078211.88396,1758078198.5609,0.0,0.0,0.0,52.48294,-53.34238,3.38045,6.54,0.77,3.0,3.0
1758078211.89874,1758078198.5709,0.0,0.0,0.0,50.76406,-52.08187,3.26586,6.54,0.77,3.0,3.0
1758078211.91486,1758078198.5809,0.0,0.0,0.0,48.24305,-49.67545,3.49504,7.31,1.42,2.82,3.0
1758078211.91753,1758078198.5909,0.0,0.0,0.0,45.72203,-46.52417,4.0107,7.31,1.42,2.82,3.0
1758078211.93306,1758078198.6009,0.0,0.0,0.0,41.59674,-40.27893,4.64096,7.77,1.75,2.8,3.0
1758078211.93479,1758078198.6109,0.0,0.0,0.0,38.90384,-35.58068,4.69825,7.77,1.75,2.8,3.0
1758078211.94977,1758078198.6209,0.0,0.0,0.0,35.75257,-29.73651,4.58366,8.15,1.69,2.61,3.0
1758078211.95098,1758078198.6309,0.0,0.0,0.0,33.00237,-22.91831,3.55234,8.15,1.69,2.61,3.0
1758078211.96702,1758078198.6409,0.0,0.0,0.0,28.59059,-12.49048,2.63561,8.74,1.49,2.61,3.0
1758078211.98405,1758078198.6509,0.0,0.0,0.0,26.06958,-5.55769,1.20321,9.16,1.28,2.6,3.0
1758078211.985,1758078198.6609,0.0,0.0,0.0,23.60586,1.14592,-0.11459,9.16,1.28,2.6,3.0
1758078212.00088,1758078198.6709,0.0,0.0,0.0,21.31403,10.54242,-2.6929,9.51,1.16,2.69,3.0
1758078212.00179,1758078198.6809,0.0,0.0,0.0,20.22541,16.272,-4.35448,9.51,1.16,2.69,3.0
1758078212.01785,1758078198.6909,0.0,0.0,0.0,20.22541,20.97026,-5.84417,9.49,1.04,2.7,3.0
1758078212.0341,1758078198.7009,0.0,0.0,0.0,20.3973,24.00693,-7.04738,9.49,1.04,2.7,3.0
1758078212.03503,1758078198.7109,0.0,0.0,0.0,21.25674,28.13223,-8.30789,9.22,0.94,2.78,3.0
1758078212.05008,1758078198.7209,0.0,0.0,0.0,22.34536,31.11161,-8.76626,9.34,0.88,2.79,3.0
1758078212.05102,1758078198.7309,0.0,0.0,0.0,23.54857,33.17426,-8.88085,9.34,0.88,2.79,3.0
1758078212.06695,1758078198.7409,0.0,0.0,0.0,24.86637,34.37747,-8.76626,9.22,0.77,2.76,3.0
1758078212.08291,1758078198.7509,0.0,0.0,0.0,26.41335,32.25753,-8.30789,9.22,0.77,2.76,3.0
1758078212.08406,1758078198.7609,0.0,0.0,0.0,27.10091,31.11161,-7.79223,8.95,0.73,2.74,3.0
1758078212.09881,1758078198.7709,0.0,0.0,0.0,27.61657,28.87707,-7.16197,8.95,0.73,2.74,3.0
1758078212.11492,1758078198.7809,0.0,0.0,0.0,27.78845,24.35071,-6.07335,8.85,0.83,2.69,3.0
1758078212.11608,1758078198.7909,0.0,0.0,0.0,27.33009,16.61578,-4.35448,8.64,0.98,2.65,3.0
1758078212.13086,1758078198.8009,0.0,0.0,0.0,26.35606,11.57375,-3.32316,8.64,0.98,2.65,3.0
1758078212.13362,1758078198.8109,0.0,0.0,0.0,25.09555,6.7609,-2.46372,8.64,1.19,2.53,3.0
1758078212.14886,1758078198.8209,0.0,0.0,0.0,23.37668,3.09397,-2.00535,8.64,1.19,2.53,3.0
1758078212.16519,1758078198.8309,0.0,0.0,0.0,20.85567,-2.57831,-1.3178,8.65,1.38,2.29,3.0
1758078212.16609,1758078198.8409,0.0,0.0,0.0,19.19409,-6.53172,-0.74485,8.65,1.38,2.29,3.0
1758078212.18116,1758078198.8509,0.0,0.0,0.0,17.6471,-10.54242,-0.17189,8.53,1.46,2.28,3.0
1758078212.18209,1758078198.8609,0.0,0.0,0.0,15.46986,-13.69369,0.74485,8.53,1.46,2.28,3.0
1758078212.19799,1758078198.8709,0.0,0.0,0.0,14.20935,-17.6471,1.43239,8.68,1.43,2.17,3.0
1758078212.21418,1758078198.8809,0.0,0.0,0.0,13.23533,-19.07949,1.48969,8.96,1.28,2.1,3.0
1758078212.21553,1758078198.8909,0.0,0.0,0.0,12.49048,-19.42327,1.48969,8.96,1.28,2.1,3.0
1758078212.23257,1758078198.9009,0.0,0.0,0.0,11.51645,-19.59516,1.20321,9.16,1.14,2.21,3.0
1758078212.2335,1758078198.9109,0.0,0.0,0.0,10.8862,-18.56383,1.03132,9.16,1.14,2.21,3.0
1758078212.24897,1758078198.9209,0.0,0.0,0.0,10.54242,-17.01685,0.74485,9.36,1.13,2.22,3.0
1758078212.26496,1758078198.9309,0.0,0.0,0.0,10.19865,-14.78231,0.34377,9.36,1.13,2.22,3.0
1758078212.26643,1758078198.9409,0.0,0.0,0.0,9.91217,-9.74028,0.0573,9.62,1.18,2.06,3.0
1758078212.28123,1758078198.9509,0.0,0.0,0.0,9.62569,-5.78687,0.0,9.75,1.21,1.84,3.0
1758078212.28371,1758078198.9609,0.0,0.0,0.0,9.39651,-2.29183,-0.40107,9.75,1.21,1.84,3.0
1758078212.29907,1758078198.9709,0.0,0.0,0.0,9.05273,0.97403,-0.74485,9.72,1.16,1.85,3.0
1758078212.31497,1758078198.9809,0.0,0.0,0.0,8.76626,5.72958,-1.03132,9.72,1.16,1.85,3.0
1758078212.31784,1758078198.9909,0.0,0.0,0.0,8.65166,8.30789,-0.51566,9.8,1.14,1.88,3.0
1758078212.3331,1758078199.0009,0.0,0.0,0.0,8.25059,9.74028,-0.22918,9.8,1.14,1.88,3.0
1758078212.33413,1758078199.0109,0.0,0.0,0.0,7.67763,10.8289,-0.0573,9.82,1.16,1.86,3.0
1758078212.34899,1758078199.0209,0.0,0.0,0.0,6.35983,8.02141,-0.45837,9.65,1.22,1.85,3.0
1758078212.36686,1758078199.0309,0.0,0.0,0.0,5.4431,5.61499,0.0573,9.65,1.22,1.85,3.0
1758078212.36774,1758078199.0409,0.0,0.0,0.0,3.32316,7.84952,-0.40107,10.01,1.33,1.64,3.0
1758078212.38299,1758078199.0509,0.0,0.0,0.0,1.3751,9.22462,-1.20321,10.01,1.33,1.64,3.0
1758078212.38417,1758078199.0609,0.0,0.0,0.0,-2.63561,9.91217,-2.06265,10.21,1.56,1.99,3.0
1758078212.39898,1758078199.0709,0.0,0.0,0.0,-5.90147,10.37054,-3.38045,10.21,1.56,1.99,3.0
1758078212.41495,1758078199.0809,0.0,0.0,0.0,-9.39651,10.54242,-4.69825,10.34,1.88,2.08,3.0
1758078212.41728,1758078199.0909,0.0,0.0,0.0,-15.06879,7.39116,-7.04738,10.34,1.88,2.08,3.0
1758078212.43304,1758078199.1009,0.0,0.0,0.0,-17.36062,-1.43239,-7.67763,10.26,2.17,2.17,3.0
1758078212.43476,1758078199.1109,0.0,0.0,0.0,-19.76705,-13.86558,-6.87549,9.51,2.21,1.81,3.0
1758078212.45281,1758078199.1209,0.0,0.0,0.0,-21.25674,-24.98096,-7.33386,9.51,2.21,1.81,3.0
1758078212.45482,1758078199.1309,0.0,0.0,0.0,-24.57989,-31.62727,-6.18794,9.63,1.82,1.38,3.0
1758078212.47082,1758078199.1409,0.0,0.0,0.0,-24.63719,-28.24682,-3.83882,9.63,1.82,1.38,3.0
1758078212.47353,1758078199.1509,0.0,0.0,0.0,-28.13223,-14.20935,-8.59437,11.88,1.55,2.36,3.0
1758078212.4893,1758078199.1609,0.0,0.0,0.0,-30.36677,-1.71887,-10.8289,11.88,1.55,2.36,3.0
1758078212.50532,1758078199.1709,0.0,0.0,0.0,-29.8511,0.22918,-11.22997,13.32,1.43,4.15,3.0
1758078212.50622,1758078199.1809,0.0,0.0,0.0,-28.99167,-7.79223,-12.2613,11.96,1.87,4.38,3.0
1758078212.52266,1758078199.1909,0.0,0.0,0.0,-27.44468,-12.49048,-13.40721,11.96,1.87,4.38,3.0
1758078212.52382,1758078199.2009,0.0,0.0,0.0,-25.8404,-5.50039,-13.98017,13.24,1.96,3.19,3.0
1758078212.53904,1758078199.2109,0.0,0.0,0.0,-23.0902,7.10468,-11.63104,13.24,1.96,3.19,3.0
1758078212.55503,1758078199.2209,0.0,0.0,0.0,-22.28806,10.19865,-9.5684,12.8,1.35,2.72,3.0
1758078212.55998,1758078199.2309,0.0,0.0,0.0,-21.88699,11.45916,-7.62034,12.8,1.35,2.72,3.0
1758078212.57533,1758078199.2409,0.0,0.0,0.0,-21.48592,14.03747,-5.27121,11.95,0.79,3.51,3.0
1758078212.57977,1758078199.2509,0.0,0.0,0.0,-22.05888,13.75099,-2.11994,12.34,0.7,3.41,3.0
1758078212.59529,1758078199.2609,0.0,0.0,0.0,-22.51724,11.11538,-0.45837,12.34,0.7,3.41,3.0
1758078212.60024,1758078199.2709,0.0,0.0,0.0,-22.86102,8.30789,0.57296,12.02,1.0,3.59,3.0
1758078212.61507,1758078199.2809,0.0,0.0,0.0,-23.49127,3.09397,1.66158,12.02,1.0,3.59,3.0
1758078212.61789,1758078199.2909,0.0,0.0,0.0,-24.57989,-1.94806,1.3178,10.81,1.41,3.49,3.0
1758078212.63342,1758078199.3009,0.0,0.0,0.0,-26.01229,-8.70896,0.68755,10.81,1.41,3.49,3.0
1758078212.63429,1758078199.3109,0.0,0.0,0.0,-28.13223,-14.72501,-0.40107,9.0,1.65,3.45,3.0
1758078212.64942,1758078199.3209,0.0,0.0,0.0,-31.79916,-23.60586,-2.23454,9.0,1.65,3.45,3.0
1758078212.65279,1758078199.3309,0.0,0.0,0.0,-34.43476,-30.19488,-2.92208,8.18,1.76,3.35,3.0
1758078212.68049,1758078199.3409,0.0,0.0,0.0,-36.84119,-35.63798,-3.09397,7.8,1.66,3.4,3.0
1758078212.68383,1758078199.3509,0.0,0.0,0.0,-38.90384,-40.16434,-3.09397,7.8,1.66,3.4,3.0
1758078212.68481,1758078199.3609,0.0,0.0,0.0,-41.71133,-45.60744,-2.40642,7.82,1.27,3.43,3.0
1758078212.70216,1758078199.3709,0.0,0.0,0.0,-42.91454,-48.01387,-2.00535,7.82,1.27,3.43,3.0
1758078212.70334,1758078199.3809,0.0,0.0,0.0,-43.83128,-49.84733,-1.66158,7.9,0.7,3.44,3.0
1758078212.71819,1758078199.3909,0.0,0.0,0.0,-44.11775,-50.53488,-1.3178,7.9,0.7,3.44,3.0
1758078212.73438,1758078199.4009,0.0,0.0,0.0,-43.60209,-48.9306,-0.68755,8.23,0.28,3.21,3.0
1758078212.73536,1758078199.4109,0.0,0.0,0.0,-42.85724,-46.35228,-0.17189,8.68,0.06,2.84,3.0
1758078212.75137,1758078199.4209,0.0,0.0,0.0,-41.48215,-42.68536,0.45837,8.68,0.06,2.84,3.0
1758078212.75317,1758078199.4309,0.0,0.0,0.0,-40.39353,-36.6693,0.97403,9.13,0.04,2.68,3.0
1758078212.76835,1758078199.4409,0.0,0.0,0.0,-38.44547,-26.87172,1.71887,9.13,0.04,2.68,3.0
1758078212.78438,1758078199.4509,0.0,0.0,0.0,-36.84119,-21.02755,2.11994,9.37,0.09,2.65,3.0
1758078212.78575,1758078199.4609,0.0,0.0,0.0,-35.40879,-13.34992,2.34913,9.37,0.09,2.65,3.0
1758078212.80139,1758078199.4709,0.0,0.0,0.0,-32.88778,-5.27121,2.92208,9.56,0.1,2.29,3.0
1758078212.80313,1758078199.4809,0.0,0.0,0.0,-31.2262,3.49504,3.09397,9.28,-0.03,2.08,3.0
1758078212.81893,1758078199.4909,0.0,0.0,0.0,-29.39274,9.11003,3.20856,9.28,-0.03,2.08,3.0
1758078212.83517,1758078199.5009,0.0,0.0,0.0,-28.07493,14.78231,3.32316,9.19,-0.14,1.93,3.0
1758078212.83795,1758078199.5109,0.0,0.0,0.0,-25.49662,21.60051,3.09397,9.19,-0.14,1.93,3.0
1758078212.85346,1758078199.5209,0.0,0.0,0.0,-24.12152,25.8404,3.49504,9.2,-0.13,1.93,3.0
1758078212.85436,1758078199.5309,0.0,0.0,0.0,-23.0329,28.93437,3.60963,9.2,-0.13,1.93,3.0
1758078212.87176,1758078199.5409,0.0,0.0,0.0,-22.23076,30.93972,3.72423,9.28,0.03,2.01,3.0
1758078212.87462,1758078199.5509,0.0,0.0,0.0,-20.79837,32.77319,3.55234,9.15,0.03,1.95,3.0
1758078212.89028,1758078199.5609,0.0,0.0,0.0,-20.05352,33.46074,3.55234,9.15,0.16,1.95,3.0
1758078212.89138,1758078199.5709,0.0,0.0,0.0,-19.36597,33.05967,3.38045,8.86,0.21,2.04,3.0
1758078212.90819,1758078199.5809,0.0,0.0,0.0,-18.85031,31.39809,2.86479,8.86,0.21,2.04,3.0
1758078212.92445,1758078199.5909,0.0,0.0,0.0,-18.56383,27.10091,1.77617,8.36,0.18,2.14,3.0
1758078212.92654,1758078199.6009,0.0,0.0,0.0,-18.10547,24.63719,1.60428,8.36,0.18,2.14,3.0
1758078212.94154,1758078199.6109,0.0,0.0,0.0,-17.53251,22.28806,2.00535,8.24,-0.01,2.18,3.0
1758078212.94321,1758078199.6209,0.0,0.0,0.0,-16.90226,18.90761,2.86479,8.24,-0.01,2.18,3.0
1758078212.95899,1758078199.6309,0.0,0.0,0.0,-16.21471,13.5218,4.52637,8.06,-0.27,2.14,3.0
1758078212.97708,1758078199.6409,0.0,0.0,0.0,-15.75634,10.8289,5.55769,8.08,-0.49,2.14,3.0
1758078212.97965,1758078199.6509,0.0,0.0,0.0,-15.41257,7.44845,6.47442,8.08,-0.49,2.14,3.0
1758078212.99709,1758078199.6609,0.0,0.0,0.0,-15.0115,3.49504,6.70361,7.97,-0.46,2.06,3.0
1758078213.00366,1758078199.6709,0.0,0.0,0.0,-14.61043,-1.71887,6.47442,7.97,-0.46,2.06,3.0
1758078213.00698,1758078199.6809,0.0,0.0,0.0,-13.98017,-4.58366,5.90147,8.08,-0.3,1.99,3.0
1758078213.06801,1758078199.6909,0.0,0.0,0.0,-13.40721,-7.39116,5.4431,8.08,-0.3,1.99,3.0
1758078213.06918,1758078199.7009,0.0,0.0,0.0,-12.37589,-10.08406,4.81285,8.26,-0.06,1.86,3.0
1758078213.07405,1758078199.7109,0.0,0.0,0.0,-11.45916,-10.65701,4.29718,8.62,0.07,1.83,3.0
1758078213.07502,1758078199.7209,0.0,0.0,0.0,-10.54242,-10.59972,4.0107,8.62,0.07,1.83,3.0
1758078213.07757,1758078199.7309,0.0,0.0,0.0,-9.62569,-9.74028,4.1253,8.96,0.05,1.85,3.0
1758078213.07852,1758078199.7409,0.0,0.0,0.0,-8.25059,-8.25059,4.23989,8.96,0.05,1.85,3.0
1758078213.07912,1758078199.7509,0.0,0.0,0.0,-7.50575,-6.99009,4.46907,9.27,-0.08,1.87,3.0
1758078213.09547,1758078199.7609,0.0,0.0,0.0,-6.87549,-6.35983,4.81285,9.27,-0.08,1.87,3.0
1758078213.09765,1758078199.7709,0.0,0.0,0.0,-6.47442,-5.4431,5.15662,9.45,-0.2,1.77,3.0
1758078213.11253,1758078199.7809,0.0,0.0,0.0,-5.61499,-4.35448,5.50039,9.62,-0.28,1.63,3.0
1758078213.11512,1758078199.7909,0.0,0.0,0.0,-5.4431,-4.1253,5.61499,9.62,-0.28,1.63,3.0
1758078213.13255,1758078199.8009,0.0,0.0,0.0,-5.09932,-3.89611,5.72958,9.79,-0.17,1.53,3.0
1758078213.13422,1758078199.8109,0.0,0.0,0.0,-4.64096,-1.3751,5.61499,9.79,-0.17,1.53,3.0
1758078213.15228,1758078199.8209,0.0,0.0,0.0,-4.18259,7.96411,5.27121,10.37,-0.05,1.56,3.0
1758078213.15437,1758078199.8309,0.0,0.0,0.0,-3.20856,13.5791,5.32851,10.37,-0.05,1.56,3.0
1758078213.17228,1758078199.8409,0.0,0.0,0.0,-2.63561,16.73037,5.50039,10.5,-0.04,1.75,3.0
1758078213.17352,1758078199.8509,0.0,0.0,0.0,-1.94806,19.70975,5.78687,10.5,-0.04,1.75,3.0
1758078213.18833,1758078199.8609,0.0,0.0,0.0,-0.40107,24.98096,7.33386,10.71,-0.09,1.9,3.0
1758078213.20466,1758078199.8709,0.0,0.0,0.0,1.20321,27.67386,9.11003,11.14,-0.27,1.88,3.0
1758078213.20822,1758078199.8809,0.0,0.0,0.0,3.32316,30.13758,11.34457,11.14,-0.27,1.88,3.0
1758078213.22337,1758078199.8909,0.0,0.0,0.0,6.18794,32.48671,15.29797,11.52,-0.58,2.13,3.0
1758078213.22489,1758078199.9009,0.0,0.0,0.0,8.136,33.46074,17.18874,11.52,-0.58,2.13,3.0
1758078213.23928,1758078199.9109,0.0,0.0,0.0,10.08406,28.41871,18.33465,11.73,-0.88,2.45,3.0
1758078213.24398,1758078199.9209,0.0,0.0,0.0,10.71431,14.72501,17.24603,11.73,-0.88,2.45,3.0
1758078213.25929,1758078199.9309,0.0,0.0,0.0,12.83425,6.13065,14.66772,10.92,-1.0,2.83,3.0
1758078213.26254,1758078199.9409,0.0,0.0,0.0,14.66772,25.38203,12.89155,14.49,-0.86,3.14,3.0
1758078213.27867,1758078199.9509,0.0,0.0,0.0,15.87093,43.20102,11.11538,14.49,-0.86,3.14,3.0
1758078213.2957,1758078199.9609,0.0,0.0,0.0,17.53251,43.37291,9.5684,14.26,-0.07,6.27,3.0
1758078213.29728,1758078199.9709,0.0,0.0,0.0,17.30333,6.47442,7.50575,14.26,-0.07,6.27,3.0
1758078213.31237,1758078199.9809,0.0,0.0,0.0,16.55848,-2.00535,6.35983,12.93,0.57,5.7,3.0
1758078213.31435,1758078199.9909,0.0,0.0,0.0,17.76169,-3.20856,8.136,12.93,0.57,5.7,3.0
1758078213.33043,1758078200.0009,0.0,0.0,0.0,18.79302,3.83882,7.50575,16.0,0.5,2.53,3.0
1758078213.33399,1758078200.0109,0.0,0.0,0.0,21.25674,13.34992,4.29718,13.77,-0.35,3.63,3.0
1758078213.34979,1758078200.0209,0.0,0.0,0.0,23.60586,16.38659,1.3178,13.77,-0.35,3.63,3.0
1758078213.35227,1758078200.0309,0.0,0.0,0.0,26.81443,17.18874,-1.71887,11.88,-0.99,4.73,3.0
1758078213.36872,1758078200.0409,0.0,0.0,0.0,30.48136,16.95955,-4.18259,11.88,-0.99,4.73,3.0
1758078213.38449,1758078200.0509,0.0,0.0,0.0,36.61201,17.47521,-5.55769,10.94,-0.87,3.45,3.0
1758078213.38517,1758078200.0609,0.0,0.0,0.0,40.68,16.50119,-4.98473,10.94,-0.87,3.45,3.0
1758078213.40322,1758078200.0709,0.0,0.0,0.0,44.51882,11.86023,-3.95341,9.08,-0.96,2.93,3.0
1758078213.4049,1758078200.0809,0.0,0.0,0.0,47.03984,5.90147,-0.85944,9.08,-0.96,2.93,3.0
1758078213.41945,1758078200.0909,0.0,0.0,0.0,49.67545,-1.20321,1.3751,6.82,-0.96,2.62,3.0
1758078213.43546,1758078200.1009,0.0,0.0,0.0,50.76406,-8.76626,3.83882,5.48,-0.73,2.51,3.0
1758078213.4372,1758078200.1109,0.0,0.0,0.0,51.39432,-17.99088,5.78687,5.48,-0.73,2.51,3.0
1758078213.45271,1758078200.1209,0.0,0.0,0.0,51.10783,-31.45539,7.79223,4.61,-0.53,2.46,3.0
1758078213.45366,1758078200.1309,0.0,0.0,0.0,50.363,-38.50277,8.25059,4.61,-0.53,2.46,3.0
1758078213.46846,1758078200.1409,0.0,0.0,0.0,49.67545,-43.77398,8.30789,5.14,0.0,2.66,3.0
1758078213.48544,1758078200.1509,0.0,0.0,0.0,48.41494,-47.26902,7.79223,5.14,0.0,2.66,3.0
1758078213.48602,1758078200.1609,0.0,0.0,0.0,46.00851,-49.84733,6.70361,6.09,0.78,2.87,3.0
1758078213.50226,1758078200.1709,0.0,0.0,0.0,43.94586,-50.13381,5.72958,6.84,1.46,2.93,3.0
1758078213.50383,1758078200.1809,0.0,0.0,0.0,41.76862,-48.9306,4.98473,6.84,1.46,2.93,3.0
1758078213.51851,1758078200.1909,0.0,0.0,0.0,39.3622,-46.75336,3.89611,7.34,1.76,2.76,3.0
1758078213.53549,1758078200.2009,0.0,0.0,0.0,35.75257,-43.88857,2.6929,7.34,1.76,2.76,3.0
1758078213.53602,1758078200.2109,0.0,0.0,0.0,33.40344,-40.7373,1.66158,7.55,1.6,2.62,3.0
1758078213.55273,1758078200.2209,0.0,0.0,0.0,31.39809,-36.89849,0.68755,7.55,1.6,2.62,3.0
1758078213.55366,1758078200.2309,0.0,0.0,0.0,29.73651,-32.48671,-0.45837,8.04,1.17,2.57,3.0
1758078213.56871,1758078200.2409,0.0,0.0,0.0,27.61657,-24.4653,-2.34913,8.57,0.85,2.4,3.0
1758078213.58547,1758078200.2509,0.0,0.0,0.0,26.69983,-18.33465,-3.72423,8.57,0.85,2.4,3.0
1758078213.58608,1758078200.2609,0.0,0.0,0.0,26.41335,-12.60507,-4.81285,8.96,0.7,2.36,3.0
1758078213.60351,1758078200.2709,0.0,0.0,0.0,26.52795,-7.10468,-5.72958,8.96,0.7,2.36,3.0
1758078213.605,1758078200.2809,0.0,0.0,0.0,27.44468,0.0573,-6.87549,9.0,0.62,2.4,3.0
1758078213.6195,1758078200.2909,0.0,0.0,0.0,28.13223,4.81285,-7.62034,9.0,0.62,2.4,3.0
1758078213.62231,1758078200.3009,0.0,0.0,0.0,29.39274,8.93814,-7.50575,9.17,0.64,2.43,3.0
1758078213.6442,1758078200.3109,0.0,0.0,0.0,31.11161,12.43318,-7.21927,9.17,0.64,2.43,3.0
1758078213.64904,1758078200.3209,0.0,0.0,0.0,32.25753,15.64175,-6.58902,9.2,0.66,2.51,3.0
1758078213.64996,1758078200.3309,0.0,0.0,0.0,33.34615,17.53251,-5.72958,9.2,0.65,2.57,3.0
1758078213.67363,1758078200.3409,0.0,0.0,0.0,34.0337,18.44924,-4.64096,9.2,0.65,2.57,3.0
1758078213.67459,1758078200.3509,0.0,0.0,0.0,34.37747,17.99088,-2.7502,9.07,0.67,2.55,3.0
1758078213.69153,1758078200.3609,0.0,0.0,0.0,33.9764,16.95955,-1.71887,9.07,0.67,2.55,3.0
1758078213.69357,1758078200.3709,0.0,0.0,0.0,33.17426,15.24068,-0.45837,8.94,0.77,2.64,3.0
1758078213.70881,1758078200.3809,0.0,0.0,0.0,31.85646,12.43318,0.45837,8.94,0.77,2.64,3.0
1758078213.70973,1758078200.3909,0.0,0.0,0.0,28.476,9.05273,1.03132,8.82,1.01,2.76,3.0
1758078213.72509,1758078200.4009,0.0,0.0,0.0,25.89769,6.53172,0.74485,8.85,1.35,2.62,3.0
1758078213.74094,1758078200.4109,0.0,0.0,0.0,22.97561,2.97938,-0.17189,8.85,1.35,2.62,3.0
1758078213.74174,1758078200.4209,0.0,0.0,0.0,20.34,-1.08862,-0.85944,8.53,1.64,2.36,3.0
1758078213.75662,1758078200.4309,0.0,0.0,0.0,16.73037,-5.21392,-1.3751,8.53,1.64,2.36,3.0
1758078213.7729,1758078200.4409,0.0,0.0,0.0,14.9542,-7.67763,-1.3751,8.6,1.72,2.14,3.0
1758078213.77377,1758078200.4509,0.0,0.0,0.0,13.12073,-9.74028,-1.3751,8.6,1.72,2.14,3.0
1758078213.78888,1758078200.4609,0.0,0.0,0.0,11.57375,-10.37054,-1.08862,8.69,1.59,1.95,3.0
1758078213.78977,1758078200.4709,0.0,0.0,0.0,9.68299,-10.71431,-0.34377,8.98,1.33,1.95,3.0
1758078213.80522,1758078200.4809,0.0,0.0,0.0,8.65166,-9.91217,0.0,8.98,1.33,1.95,3.0
1758078213.82086,1758078200.4909,0.0,0.0,0.0,7.84952,-8.42248,0.0573,9.38,1.12,1.95,3.0
1758078213.8245,1758078200.5009,0.0,0.0,0.0,6.99009,-5.4431,0.0573,9.38,1.12,1.95,3.0
1758078213.83993,1758078200.5109,0.0,0.0,0.0,5.95876,-0.51566,-0.34377,9.84,1.02,1.98,3.0
1758078213.84351,1758078200.5209,0.0,0.0,0.0,5.50039,2.06265,-0.74485,9.84,1.02,1.98,3.0
1758078213.85894,1758078200.5309,0.0,0.0,0.0,5.27121,4.81285,-1.3751,9.87,1.03,1.94,3.0
1758078213.86412,1758078200.5409,0.0,0.0,0.0,5.15662,8.02141,-2.23454,9.87,1.03,1.94,3.0
1758078213.88069,1758078200.5509,0.0,0.0,0.0,5.21392,10.71431,-2.57831,9.78,1.04,1.8,3.0
1758078213.88421,1758078200.5609,0.0,0.0,0.0,5.27121,14.61043,-3.03668,9.88,0.99,1.63,3.0
1758078213.8998,1758078200.5709,0.0,0.0,0.0,5.61499,17.30333,-3.26586,9.88,0.99,1.63,3.0
1758078213.90085,1758078200.5809,0.0,0.0,0.0,6.13065,19.76705,-2.86479,9.79,0.92,1.63,3.0
1758078213.91866,1758078200.5909,0.0,0.0,0.0,6.13065,20.79837,-2.11994,9.79,0.92,1.63,3.0
1758078213.93377,1758078200.6009,0.0,0.0,0.0,5.61499,19.42327,-1.66158,9.87,0.92,1.75,3.0
1758078213.93757,1758078200.6109,0.0,0.0,0.0,4.92744,15.06879,-0.85944,9.87,0.92,1.75,3.0
1758078213.9537,1758078200.6209,0.0,0.0,0.0,2.97938,8.93814,0.0573,9.69,1.01,1.75,3.0
1758078213.95469,1758078200.6309,0.0,0.0,0.0,-0.17189,11.45916,-0.34377,10.23,1.19,1.65,3.0
1758078213.97246,1758078200.6409,0.0,0.0,0.0,-2.6929,12.77696,-1.03132,10.23,1.19,1.65,3.0
1758078213.97407,1758078200.6509,0.0,0.0,0.0,-5.61499,13.80828,-1.94806,10.07,1.44,1.82,3.0
1758078213.98888,1758078200.6609,0.0,0.0,0.0,-10.8862,14.43854,-4.46907,10.07,1.44,1.82,3.0
1758078213.99061,1758078200.6709,0.0,0.0,0.0,-14.20935,14.03747,-6.41713,10.1,1.67,2.13,3.0
1758078214.00698,1758078200.6809,0.0,0.0,0.0,-17.87628,13.06344,-8.59437,10.1,1.67,2.13,3.0
1758078214.02369,1758078200.6909,0.0,0.0,0.0,-20.51189,9.62569,-10.48513,10.23,1.88,1.98,3.0
1758078214.02924,1758078200.7009,0.0,0.0,0.0,-24.00693,-3.72423,-11.63104,9.74,2.01,1.56,3.0
1758078214.04377,1758078200.7109,0.0,0.0,0.0,-25.43933,-15.92823,-11.57375,9.74,2.01,1.56,3.0
1758078214.04687,1758078200.7209,0.0,0.0,0.0,-26.75713,-23.89234,-12.2613,9.32,1.82,0.96,3.0
1758078214.06202,1758078200.7309,0.0,0.0,0.0,-28.24682,-34.66395,-10.8289,9.32,1.82,0.96,3.0
1758078214.06404,1758078200.7409,0.0,0.0,0.0,-28.93437,-31.28349,-12.2613,10.43,1.54,1.76,3.0
1758078214.07874,1758078200.7509,0.0,0.0,0.0,-32.83048,-9.91217,-17.81899,10.43,1.54,1.76,3.0
1758078214.084,1758078200.7609,0.0,0.0,0.0,-34.09099,5.27121,-20.11082,14.55,1.33,3.54,3.0
1758078214.10009,1758078200.7709,0.0,0.0,0.0,-33.23156,4.98473,-20.51189,14.55,1.33,3.54,3.0
1758078214.10262,1758078200.7809,0.0,0.0,0.0,-32.25753,-4.98473,-22.23076,12.85,1.4,4.91,3.0
1758078214.11779,1758078200.7909,0.0,0.0,0.0,-30.30947,-7.33386,-22.91831,12.54,1.98,4.01,3.0
1758078214.13378,1758078200.8009,0.0,0.0,0.0,-27.96034,1.3751,-22.05888,12.54,1.98,4.01,3.0
1758078214.13496,1758078200.8109,0.0,0.0,0.0,-24.5226,13.46451,-17.81899,13.98,1.74,2.24,3.0
1758078214.14976,1758078200.8209,0.0,0.0,0.0,-22.68913,17.24603,-14.43854,13.98,1.74,2.24,3.0
1758078214.15413,1758078200.8309,0.0,0.0,0.0,-21.25674,19.70975,-11.34457,12.81,0.93,2.97,3.0
1758078214.16979,1758078200.8409,0.0,0.0,0.0,-20.22541,20.16812,-8.70896,12.81,0.93,2.97,3.0
1758078214.17096,1758078200.8509,0.0,0.0,0.0,-19.70975,18.56383,-4.98473,12.68,0.44,3.67,3.0
1758078214.186,1758078200.8609,0.0,0.0,0.0,-19.76705,15.87093,-3.09397,12.28,0.47,3.58,3.0
1758078214.20292,1758078200.8709,0.0,0.0,0.0,-20.05352,11.45916,-2.00535,12.28,0.47,3.58,3.0
1758078214.20399,1758078200.8809,0.0,0.0,0.0,-20.51189,6.24524,-1.48969,10.85,0.9,3.48,3.0
1758078214.21878,1758078200.8909,0.0,0.0,0.0,-22.34536,-1.66158,-2.29183,10.85,0.9,3.48,3.0
1758078214.22,1758078200.9009,0.0,0.0,0.0,-24.29341,-8.88085,-3.26586,9.15,1.4,3.49,3.0
1758078214.23681,1758078200.9109,0.0,0.0,0.0,-26.69983,-16.61578,-4.58366,9.15,1.4,3.49,3.0
1758078214.25279,1758078200.9209,0.0,0.0,0.0,-29.50733,-24.23611,-6.13065,7.81,1.75,3.51,3.0
1758078214.25483,1758078200.9309,0.0,0.0,0.0,-33.9764,-36.7266,-6.7609,7.26,1.81,3.36,3.0
1758078214.27284,1758078200.9409,0.0,0.0,0.0,-36.49741,-44.748,-6.70361,7.26,1.81,3.36,3.0
1758078214.27428,1758078200.9509,0.0,0.0,0.0,-38.90384,-50.13381,-6.41713,7.3,1.45,3.19,3.0
1758078214.28881,1758078200.9609,0.0,0.0,0.0,-41.59674,-56.55093,-5.90147,7.3,1.45,3.19,3.0
1758078214.2908,1758078200.9709,0.0,0.0,0.0,-42.68536,-60.38975,-5.32851,7.55,0.76,3.32,3.0
1758078214.30784,1758078200.9809,0.0,0.0,0.0,-43.20102,-61.87944,-4.87014,7.55,0.76,3.32,3.0
1758078214.32411,1758078200.9909,0.0,0.0,0.0,-43.14373,-61.99404,-4.52637,8.11,0.05,3.4,3.0
1758078214.32614,1758078201.0009,0.0,0.0,0.0,-42.22699,-58.4417,-3.95341,8.79,0.05,3.02,3.0
1758078214.34212,1758078201.0109,0.0,0.0,0.0,-41.88322,-53.45696,-3.72423,8.79,-0.19,3.02,3.0
1758078214.34385,1758078201.0209,0.0,0.0,0.0,-41.25296,-48.12846,-3.66693,9.22,0.0,2.74,3.0
1758078214.35889,1758078201.0309,0.0,0.0,0.0,-40.7373,-42.57077,-3.20856,9.22,0.0,2.74,3.0
1758078214.36006,1758078201.0409,0.0,0.0,0.0,-39.70598,-32.42941,-2.57831,9.25,0.35,2.48,3.0
1758078214.37703,1758078201.0509,0.0,0.0,0.0,-38.84654,-24.92367,-2.23454,9.25,0.35,2.48,3.0
1758078214.39408,1758078201.0609,0.0,0.0,0.0,-37.81522,-17.30333,-1.83346,9.26,0.53,2.11,3.0
1758078214.39502,1758078201.0709,0.0,0.0,0.0,-36.38282,-10.02676,-1.43239,9.26,0.53,2.11,3.0
1758078214.41272,1758078201.0809,0.0,0.0,0.0,-34.14828,1.60428,-1.03132,9.16,0.35,1.89,3.0
1758078214.41391,1758078201.0909,0.0,0.0,0.0,-32.88778,9.62569,-0.51566,9.23,0.05,1.7,3.0
1758078214.42917,1758078201.1009,0.0,0.0,0.0,-31.45539,17.30333,-0.0573,9.23,0.05,1.7,3.0
1758078214.43012,1758078201.1109,0.0,0.0,0.0,-30.36677,24.17882,0.51566,9.27,-0.05,1.74,3.0
1758078214.44675,1758078201.1209,0.0,0.0,0.0,-29.27814,32.77319,1.3178,9.27,-0.05,1.74,3.0
1758078214.46292,1758078201.1309,0.0,0.0,0.0,-28.76248,37.35685,1.66158,9.25,0.16,1.77,3.0
1758078214.46413,1758078201.1409,0.0,0.0,0.0,-28.13223,41.02378,1.60428,9.25,0.16,1.77,3.0
1758078214.47897,1758078201.1509,0.0,0.0,0.0,-27.2155,45.03448,1.14592,9.17,0.28,1.82,3.0
1758078214.48016,1758078201.1609,0.0,0.0,0.0,-26.69983,44.748,1.03132,8.86,0.33,1.98,3.0
1758078214.49707,1758078201.1709,0.0,0.0,0.0,-26.18417,41.76862,0.80214,8.86,0.33,1.98,3.0
1758078214.51405,1758078201.1809,0.0,0.0,0.0,-25.72581,38.44547,0.97403,8.44,0.31,2.05,3.0
1758078214.51758,1758078201.1909,0.0,0.0,0.0,-25.15285,35.3515,1.08862,8.44,0.31,2.05,3.0
1758078214.53295,1758078201.2009,0.0,0.0,0.0,-24.86637,34.0337,1.3751,8.62,0.16,2.05,3.0
1758078214.53414,1758078201.2109,0.0,0.0,0.0,-24.57989,33.74722,1.60428,8.62,0.16,2.05,3.0
1758078214.54924,1758078201.2209,0.0,0.0,0.0,-24.4653,33.34615,1.48969,8.48,0.01,2.13,3.0
1758078214.55441,1758078201.2309,0.0,0.0,0.0,-24.57989,30.93972,1.66158,8.17,0.06,2.28,3.0
1758078214.5708,1758078201.2409,0.0,0.0,0.0,-24.4653,28.87707,1.43239,8.17,0.06,2.28,3.0
1758078214.57365,1758078201.2509,0.0,0.0,0.0,-24.4653,26.47065,1.03132,8.08,0.12,2.14,3.0
1758078214.58918,1758078201.2609,0.0,0.0,0.0,-24.63719,24.35071,0.68755,8.08,0.12,2.14,3.0
1758078214.5904,1758078201.2709,0.0,0.0,0.0,-24.17882,22.40265,0.0,8.38,0.13,2.04,3.0
1758078214.60599,1758078201.2809,0.0,0.0,0.0,-23.72045,20.05352,-0.51566,8.38,0.13,2.04,3.0
1758078214.62227,1758078201.2909,0.0,0.0,0.0,-23.37668,16.90226,-1.03132,8.44,0.09,2.0,3.0
1758078214.62319,1758078201.3009,0.0,0.0,0.0,-22.68913,13.80828,-1.43239,8.44,0.09,2.0,3.0
1758078214.63827,1758078201.3109,0.0,0.0,0.0,-21.48592,11.22997,-1.71887,8.64,0.03,1.91,3.0
1758078214.6543,1758078201.3209,0.0,0.0,0.0,-20.45459,10.08406,-1.71887,8.96,-0.08,1.78,3.0
1758078214.65524,1758078201.3309,0.0,0.0,0.0,-19.42327,7.50575,-1.66158,8.96,-0.08,1.78,3.0
1758078214.67093,1758078201.3409,0.0,0.0,0.0,-17.99088,4.87014,-1.3178,8.98,-0.21,1.83,3.0
1758078214.67357,1758078201.3509,0.0,0.0,0.0,-17.24603,2.97938,-0.68755,8.98,-0.21,1.83,3.0
1758078214.68926,1758078201.3609,0.0,0.0,0.0,-16.67307,1.14592,0.0573,9.42,-0.28,1.87,3.0
1758078214.69022,1758078201.3709,0.0,0.0,0.0,-16.04282,-0.51566,1.08862,9.42,-0.28,1.87,3.0
1758078214.70834,1758078201.3809,0.0,0.0,0.0,-14.83961,4.81285,3.09397,9.8,-0.32,1.92,3.0
1758078214.72435,1758078201.3909,0.0,0.0,0.0,-14.20935,7.21927,4.52637,10.42,-0.3,2.08,3.0
1758078214.72632,1758078201.4009,0.0,0.0,0.0,-13.69369,8.93814,6.13065,10.42,-0.3,2.08,3.0
1758078214.74413,1758078201.4109,0.0,0.0,0.0,-13.06344,11.57375,7.84952,10.64,-0.24,2.48,3.0
1758078214.74552,1758078201.4209,0.0,0.0,0.0,-11.51645,16.21471,10.8289,10.64,-0.24,2.48,3.0
1758078214.76037,1758078201.4309,0.0,0.0,0.0,-9.4538,19.82434,13.23533,11.28,-0.35,2.65,3.0
1758078214.76423,1758078201.4409,0.0,0.0,0.0,-6.99009,23.60586,15.98552,11.28,-0.35,2.65,3.0
1758078214.77907,1758078201.4509,0.0,0.0,0.0,-3.89611,27.67386,18.33465,12.03,-0.63,2.59,3.0
1758078214.78214,1758078201.4609,0.0,0.0,0.0,0.68755,29.62192,20.79837,12.43,-1.0,2.89,3.0
1758078214.79805,1758078201.4709,0.0,0.0,0.0,4.29718,20.79837,21.14215,12.43,-1.0,2.89,3.0
1758078214.81429,1758078201.4809,0.0,0.0,0.0,8.136,6.7609,20.16812,11.7,-1.29,3.49,3.0
1758078214.81643,1758078201.4909,0.0,0.0,0.0,11.00079,12.204,17.81899,11.7,-1.29,3.49,3.0
1758078214.83136,1758078201.5009,0.0,0.0,0.0,15.92823,44.28964,15.46986,15.79,-1.21,4.03,3.0
1758078214.8338,1758078201.5109,0.0,0.0,0.0,18.90761,52.54023,13.23533,15.79,-1.21,4.03,3.0
1758078214.84922,1758078201.5209,0.0,0.0,0.0,17.13144,43.77398,6.24524,14.68,-0.45,6.57,3.0
1758078214.85185,1758078201.5309,0.0,0.0,0.0,22.51724,12.14671,8.136,14.68,-0.45,6.57,3.0
1758078214.86846,1758078201.5409,0.0,0.0,0.0,26.41335,0.97403,8.02141,12.43,0.11,6.84,3.0
1758078214.88443,1758078201.5509,0.0,0.0,0.0,28.41871,10.59972,7.73493,15.84,0.25,3.37,3.0
1758078214.88692,1758078201.5609,0.0,0.0,0.0,30.93972,16.84496,6.24524,15.84,0.25,3.37,3.0
1758078214.90211,1758078201.5709,0.0,0.0,0.0,34.60666,15.35527,2.97938,12.78,-0.1,4.63,3.0
1758078214.9033,1758078201.5809,0.0,0.0,0.0,36.89849,13.75099,0.34377,12.78,-0.1,4.63,3.0
1758078214.91832,1758078201.5909,0.0,0.0,0.0,38.90384,12.08941,-2.46372,10.55,-0.41,5.61,3.0
1758078214.93416,1758078201.6009,0.0,0.0,0.0,40.7373,10.19865,-4.0107,10.55,-0.41,5.61,3.0
1758078214.93561,1758078201.6109,0.0,0.0,0.0,43.31561,8.88085,-5.32851,9.5,-0.34,4.3,3.0
1758078214.95271,1758078201.6209,0.0,0.0,0.0,45.43555,7.04738,-4.46907,7.86,-0.41,3.52,3.0
1758078214.95472,1758078201.6309,0.0,0.0,0.0,47.26902,1.77617,-3.03668,7.86,-0.41,3.52,3.0
1758078214.97209,1758078201.6409,0.0,0.0,0.0,48.64412,-6.13065,-1.14592,5.7,-0.44,3.09,3.0
1758078214.97458,1758078201.6509,0.0,0.0,0.0,50.47758,-21.25674,1.66158,5.7,-0.44,3.09,3.0
1758078214.99053,1758078201.6609,0.0,0.0,0.0,51.39432,-30.93972,3.60963,4.53,-0.35,2.94,3.0
1758078214.99328,1758078201.6709,0.0,0.0,0.0,52.08187,-39.07573,5.27121,4.53,-0.35,2.94,3.0
1758078215.00844,1758078201.6809,0.0,0.0,0.0,52.82671,-45.09178,6.99009,4.72,-0.08,2.68,3.0
1758078215.02452,1758078201.6909,0.0,0.0,0.0,53.39967,-51.16513,8.88085,5.38,0.31,2.88,3.0
1758078215.02567,1758078201.7009,0.0,0.0,0.0,53.34238,-53.68615,9.85487,5.38,0.31,2.88,3.0
1758078215.04048,1758078201.7109,0.0,0.0,0.0,52.48294,-53.97263,10.37054,6.08,0.77,2.96,3.0
1758078215.04142,1758078201.7209,0.0,0.0,0.0,51.50891,-53.05589,10.94349,6.08,0.77,2.96,3.0
1758078215.05898,1758078201.7309,0.0,0.0,0.0,49.15978,-50.13381,11.11538,6.72,1.25,2.8,3.0
1758078215.06131,1758078201.7409,0.0,0.0,0.0,46.86795,-46.52417,10.94349,6.72,1.25,2.8,3.0
1758078215.07881,1758078201.7509,0.0,0.0,0.0,44.8053,-43.02913,10.48513,7.28,1.58,2.88,3.0
1758078215.09415,1758078201.7609,0.0,0.0,0.0,41.25296,-39.3622,8.65166,7.28,1.58,2.88,3.0
1758078215.0973,1758078201.7709,0.0,0.0,0.0,38.84654,-32.83048,7.04738,7.67,1.75,2.85,3.0
1758078215.11248,1758078201.7809,0.0,0.0,0.0,36.61201,-26.75713,4.87014,8.23,1.8,2.8,3.0
1758078215.11341,1758078201.7909,0.0,0.0,0.0,34.60666,-20.22541,2.40642,8.23,1.8,2.8,3.0
1758078215.12847,1758078201.8009,0.0,0.0,0.0,31.79916,-11.74564,-1.94806,8.45,1.75,2.77,3.0
1758078215.14448,1758078201.8109,0.0,0.0,0.0,30.02299,-5.55769,-5.32851,8.45,1.75,2.77,3.0
1758078215.1457,1758078201.8209,0.0,0.0,0.0,29.22085,0.57296,-8.36518,8.55,1.6,2.75,3.0
1758078215.16052,1758078201.8309,0.0,0.0,0.0,28.476,5.90147,-11.28727,8.55,1.6,2.75,3.0
1758078215.16305,1758078201.8409,0.0,0.0,0.0,28.07493,13.69369,-14.49583,8.56,1.39,2.75,3.0
1758078215.17854,1758078201.8509,0.0,0.0,0.0,28.13223,17.53251,-16.21471,8.59,1.24,2.77,3.0
1758078215.19459,1758078201.8609,0.0,0.0,0.0,28.70519,20.85567,-17.01685,8.59,1.24,2.77,3.0
1758078215.19739,1758078201.8709,0.0,0.0,0.0,29.50733,23.72045,-17.24603,8.73,1.14,2.84,3.0
1758078215.21258,1758078201.8809,0.0,0.0,0.0,30.48136,25.8404,-16.55848,8.73,1.14,2.84,3.0
1758078215.21369,1758078201.8909,0.0,0.0,0.0,31.11161,25.55392,-16.04282,8.72,1.08,2.89,3.0
1758078215.22855,1758078201.9009,0.0,0.0,0.0,31.45539,24.80907,-14.83961,8.72,1.08,2.89,3.0
1758078215.24452,1758078201.9109,0.0,0.0,0.0,31.39809,23.60586,-13.5791,8.73,1.16,2.88,3.0
1758078215.24864,1758078201.9209,0.0,0.0,0.0,30.48136,21.02755,-11.22997,8.76,1.31,2.81,3.0
1758078215.26433,1758078201.9309,0.0,0.0,0.0,29.33544,19.48057,-9.4538,8.76,1.31,2.81,3.0
1758078215.26628,1758078201.9409,0.0,0.0,0.0,27.61657,17.58981,-8.02141,8.76,1.48,2.8,3.0
1758078215.28288,1758078201.9509,0.0,0.0,0.0,25.55392,15.12609,-6.35983,8.76,1.48,2.8,3.0
1758078215.28434,1758078201.9609,0.0,0.0,0.0,21.60051,11.51645,-5.61499,8.58,1.66,2.81,3.0
1758078215.29965,1758078201.9709,0.0,0.0,0.0,18.73572,9.4538,-5.4431,8.58,1.66,2.81,3.0
1758078215.30124,1758078201.9809,0.0,0.0,0.0,16.21471,5.78687,-5.15662,8.53,1.85,2.69,3.0
1758078215.31831,1758078201.9909,0.0,0.0,0.0,12.77696,-0.80214,-4.23989,8.53,1.85,2.69,3.0
1758078215.33445,1758078202.0009,0.0,0.0,0.0,10.71431,-3.95341,-3.60963,8.45,1.94,2.67,3.0
1758078215.33862,1758078202.0109,0.0,0.0,0.0,8.99544,-6.7609,-2.97938,8.83,1.89,2.54,3.0
1758078215.35462,1758078202.0209,0.0,0.0,0.0,7.50575,-9.28192,-2.34913,8.83,1.89,2.54,3.0
1758078215.36036,1758078202.0309,0.0,0.0,0.0,5.95876,-12.08941,-2.11994,8.98,1.76,2.42,3.0
1758078215.36093,1758078202.0409,0.0,0.0,0.0,5.15662,-12.60507,-1.83346,8.98,1.76,2.42,3.0
1758078215.37861,1758078202.0509,0.0,0.0,0.0,4.58366,-13.23533,-2.00535,9.24,1.67,2.48,3.0
1758078215.42004,1758078202.0609,0.0,0.0,0.0,4.23989,-13.23533,-1.94806,9.24,1.67,2.48,3.0
1758078215.42238,1758078202.0709,0.0,0.0,0.0,3.95341,-11.80293,-2.00535,9.43,1.57,2.42,3.0
1758078215.42349,1758078202.0809,0.0,0.0,0.0,3.66693,-9.62569,-2.40642,9.66,1.44,2.34,3.0
1758078215.42471,1758078202.0909,0.0,0.0,0.0,3.83882,-7.79223,-2.46372,9.66,1.44,2.34,3.0
1758078215.42535,1758078202.1009,0.0,0.0,0.0,3.72423,-5.27121,-2.63561,9.64,1.33,2.19,3.0
1758078215.44315,1758078202.1109,0.0,0.0,0.0,3.49504,-2.34913,-2.7502,9.64,1.33,2.19,3.0
1758078215.44472,1758078202.1209,0.0,0.0,0.0,3.32316,-0.51566,-2.34913,9.59,1.3,2.08,3.0
1758078215.45936,1758078202.1309,0.0,0.0,0.0,3.09397,1.48969,-2.00535,9.59,1.3,2.08,3.0
1758078215.46135,1758078202.1409,0.0,0.0,0.0,2.46372,3.03668,-1.14592,9.67,1.33,1.93,3.0
1758078215.47863,1758078202.1509,0.0,0.0,0.0,1.43239,6.13065,1.03132,9.8,1.34,1.89,3.0
1758078215.49471,1758078202.1609,0.0,0.0,0.0,-0.17189,8.25059,0.97403,9.8,1.34,1.89,3.0
1758078215.49641,1758078202.1709,0.0,0.0,0.0,-1.83346,8.47978,1.3751,9.72,1.46,2.02,3.0
1758078215.51325,1758078202.1809,0.0,0.0,0.0,-4.58366,6.24524,2.40642,9.72,1.46,2.02,3.0
1758078215.51417,1758078202.1909,0.0,0.0,0.0,-7.50575,8.93814,1.77617,9.81,1.62,2.01,3.0
1758078215.52967,1758078202.2009,0.0,0.0,0.0,-10.25595,8.70896,1.14592,9.81,1.62,2.01,3.0
1758078215.53064,1758078202.2109,0.0,0.0,0.0,-13.40721,7.96411,0.11459,9.88,1.82,2.33,3.0
1758078215.54668,1758078202.2209,0.0,0.0,0.0,-18.85031,7.10468,-1.71887,9.88,1.82,2.33,3.0
1758078215.56368,1758078202.2309,0.0,0.0,0.0,-22.74642,7.33386,-3.55234,10.08,2.09,2.35,3.0
1758078215.56502,1758078202.2409,0.0,0.0,0.0,-27.1582,6.70361,-5.21392,10.37,2.31,2.4,3.0
1758078215.57966,1758078202.2509,0.0,0.0,0.0,-29.67921,2.23454,-6.47442,10.37,2.31,2.4,3.0
1758078215.58097,1758078202.2609,0.0,0.0,0.0,-34.14828,-8.25059,-5.84417,10.22,2.38,2.36,3.0
1758078215.5977,1758078202.2709,0.0,0.0,0.0,-36.95578,-14.78231,-4.0107,10.22,2.38,2.36,3.0
1758078215.61444,1758078202.2809,0.0,0.0,0.0,-39.64868,-25.38203,-3.55234,10.35,2.05,1.7,3.0
1758078215.61753,1758078202.2909,0.0,0.0,0.0,-42.28429,-31.51268,-0.68755,10.35,2.05,1.7,3.0
1758078215.63354,1758078202.3009,0.0,0.0,0.0,-41.88322,-24.5226,-0.51566,11.25,1.7,2.46,3.0
1758078215.63441,1758078202.3109,0.0,0.0,0.0,-43.37291,-15.64175,-6.35983,14.69,1.27,4.93,3.0
1758078215.64977,1758078202.3209,0.0,0.0,0.0,-40.45082,-4.23989,-7.96411,14.69,1.27,4.93,3.0
1758078215.65062,1758078202.3309,0.0,0.0,0.0,-36.26823,-3.72423,-9.39651,14.68,1.35,5.75,3.0
1758078215.66832,1758078202.3409,0.0,0.0,0.0,-30.88243,-6.47442,-12.37589,14.68,1.35,5.75,3.0
1758078215.68364,1758078202.3509,0.0,0.0,0.0,-27.61657,1.48969,-12.60507,14.11,1.65,4.13,3.0
1758078215.68466,1758078202.3609,0.0,0.0,0.0,-24.92367,9.62569,-10.31324,14.11,1.65,4.13,3.0
1758078215.70078,1758078202.3709,0.0,0.0,0.0,-23.94964,10.94349,-4.52637,13.73,1.64,2.6,3.0
1758078215.70244,1758078202.3809,0.0,0.0,0.0,-24.35071,8.99544,-0.57296,11.62,1.06,3.58,3.0
1758078215.71905,1758078202.3909,0.0,0.0,0.0,-25.09555,9.33921,2.86479,11.62,1.06,3.58,3.0
1758078215.72349,1758078202.4009,0.0,0.0,0.0,-26.12688,10.25595,5.61499,11.12,0.67,3.82,3.0
1758078215.73949,1758078202.4109,0.0,0.0,0.0,-27.33009,5.84417,7.50575,11.12,0.67,3.82,3.0
1758078215.74223,1758078202.4209,0.0,0.0,0.0,-27.50197,-1.14592,7.67763,9.34,0.85,3.83,3.0
1758078215.75881,1758078202.4309,0.0,0.0,0.0,-27.67386,-9.11003,7.67763,9.34,0.85,3.83,3.0
1758078215.77483,1758078202.4409,0.0,0.0,0.0,-27.50197,-17.13144,7.50575,7.71,1.38,3.38,3.0
1758078215.77933,1758078202.4509,0.0,0.0,0.0,-28.24682,-28.30412,6.87549,6.9,1.38,2.96,3.0
1758078215.7949,1758078202.4609,0.0,0.0,0.0,-29.27814,-36.26823,6.13065,6.9,1.75,2.96,3.0
1758078215.79737,1758078202.4709,0.0,0.0,0.0,-30.76784,-45.20637,5.09932,6.65,1.87,3.18,3.0
1758078215.81259,1758078202.4809,0.0,0.0,0.0,-32.25753,-52.71212,3.83882,6.65,1.87,3.18,3.0
1758078215.81458,1758078202.4909,0.0,0.0,0.0,-34.49206,-61.70755,2.63561,7.22,1.71,3.14,3.0
1758078215.83037,1758078202.5009,0.0,0.0,0.0,-35.98175,-65.2026,1.66158,7.22,1.71,3.14,3.0
1758078215.83478,1758078202.5109,0.0,0.0,0.0,-36.84119,-66.5204,1.20321,7.84,1.24,2.95,3.0
1758078215.85064,1758078202.5209,0.0,0.0,0.0,-37.75792,-65.54638,0.68755,7.84,1.24,2.95,3.0
1758078215.8547,1758078202.5309,0.0,0.0,0.0,-38.38818,-61.53567,1.03132,8.34,0.72,2.88,3.0
1758078215.87151,1758078202.5409,0.0,0.0,0.0,-38.84654,-56.26446,2.00535,8.88,0.44,2.88,3.0
1758078215.87322,1758078202.5509,0.0,0.0,0.0,-39.07573,-50.64947,3.20856,8.88,0.44,2.88,3.0
1758078215.9154,1758078202.5609,0.0,0.0,0.0,-39.13302,-44.8053,4.29718,9.24,0.32,2.67,3.0
1758078215.91831,1758078202.5709,0.0,0.0,0.0,-38.21629,-34.66395,6.70361,9.24,0.32,2.67,3.0
1758078215.91884,1758078202.5809,0.0,0.0,0.0,-37.52874,-27.2155,7.62034,9.41,0.22,2.3,3.0
1758078215.92366,1758078202.5909,0.0,0.0,0.0,-36.61201,-20.3973,8.36518,9.41,0.22,2.3,3.0
1758078215.92409,1758078202.6009,0.0,0.0,0.0,-34.43476,-10.8862,8.88085,9.23,0.1,1.98,3.0
1758078215.93963,1758078202.6109,0.0,0.0,0.0,-32.77319,-4.46907,8.70896,9.27,-0.01,1.93,3.0
1758078215.94083,1758078202.6209,0.0,0.0,0.0,-30.48136,2.00535,8.30789,9.27,-0.01,1.93,3.0
1758078215.959,1758078202.6309,0.0,0.0,0.0,-28.87707,8.42248,7.79223,9.45,-0.01,1.76,3.0
1758078215.97501,1758078202.6409,0.0,0.0,0.0,-26.18417,17.58981,7.21927,9.45,-0.01,1.76,3.0
1758078215.97746,1758078202.6509,0.0,0.0,0.0,-24.86637,22.86102,6.99009,9.52,0.08,1.86,3.0
1758078215.99293,1758078202.6609,0.0,0.0,0.0,-23.83505,26.75713,6.99009,9.52,0.08,1.86,3.0
1758078215.99378,1758078202.6709,0.0,0.0,0.0,-23.31938,29.73651,6.87549,9.43,0.25,1.92,3.0
1758078216.00892,1758078202.6809,0.0,0.0,0.0,-22.91831,32.20023,6.8182,9.26,0.33,1.95,3.0
1758078216.02491,1758078202.6909,0.0,0.0,0.0,-22.97561,33.11696,6.53172,9.26,0.33,1.95,3.0
1758078216.02604,1758078202.7009,0.0,0.0,0.0,-23.26209,34.0337,5.90147,9.09,0.32,2.0,3.0
1758078216.0417,1758078202.7109,0.0,0.0,0.0,-23.49127,32.6013,5.27121,9.09,0.32,2.0,3.0
1758078216.04419,1758078202.7209,0.0,0.0,0.0,-23.49127,28.59059,4.69825,8.72,0.26,2.21,3.0
1758078216.05963,1758078202.7309,0.0,0.0,0.0,-22.91831,26.35606,5.09932,8.72,0.26,2.21,3.0
1758078216.06245,1758078202.7409,0.0,0.0,0.0,-22.34536,23.26209,5.78687,8.74,0.1,2.12,3.0
1758078216.07788,1758078202.7509,0.0,0.0,0.0,-22.00158,20.68378,6.70361,8.74,0.1,2.12,3.0
1758078216.09395,1758078202.7609,0.0,0.0,0.0,-21.42862,16.55848,7.50575,8.63,-0.15,1.91,3.0
1758078216.09679,1758078202.7709,0.0,0.0,0.0,-21.37133,12.83425,7.79223,8.38,-0.33,1.96,3.0
1758078216.11168,1758078202.7809,0.0,0.0,0.0,-21.37133,8.76626,7.73493,8.38,-0.33,1.96,3.0
1758078216.11315,1758078202.7909,0.0,0.0,0.0,-21.37133,4.98473,7.16197,8.25,-0.27,1.9,3.0
1758078216.12877,1758078202.8009,0.0,0.0,0.0,-21.31403,-0.57296,6.47442,8.25,-0.27,1.9,3.0
1758078216.14501,1758078202.8109,0.0,0.0,0.0,-21.25674,-4.0107,5.72958,8.2,-0.03,1.72,3.0
1758078216.14831,1758078202.8209,0.0,0.0,0.0,-21.08485,-6.58902,4.64096,8.2,-0.03,1.72,3.0
1758078216.16372,1758078202.8309,0.0,0.0,0.0,-20.62648,-8.136,3.32316,8.28,0.14,1.67,3.0
1758078216.16653,1758078202.8409,0.0,0.0,0.0,-20.3973,-8.30789,2.57831,8.62,0.21,1.64,3.0
1758078216.182,1758078202.8509,0.0,0.0,0.0,-19.99623,-7.62034,2.23454,8.62,0.21,1.64,3.0
1758078216.18334,1758078202.8609,0.0,0.0,0.0,-19.70975,-6.35983,2.00535,9.02,0.16,1.88,3.0
