timeStamp,timeStampAlign,roll,pitch,yaw,gyro_x,gyro_y,gyro_z,acc_x,acc_y,acc_z,flag_num
1758088677.01976,1758088674.30268,0.0,0.0,0.0,19.36597,-19.48057,-8.30789,8.67,-0.4,0.83,4.0
1758088677.02101,1758088674.31268,0.0,0.0,0.0,18.62113,-20.79837,-8.36518,8.67,-0.4,0.83,4.0
1758088677.03874,1758088674.32268,0.0,0.0,0.0,18.10547,-21.94428,-8.59437,9.09,-0.2,0.99,4.0
1758088677.05478,1758088674.33268,0.0,0.0,0.0,16.90226,-23.54857,-9.91217,9.09,-0.2,0.99,4.0
1758088677.05595,1758088674.34268,0.0,0.0,0.0,16.21471,-24.35071,-11.11538,9.7,-0.04,1.09,4.0
1758088677.07079,1758088674.35268,0.0,0.0,0.0,15.75634,-25.38203,-12.49048,10.01,0.02,1.09,4.0
1758088677.09775,1758088674.36268,0.0,0.0,0.0,15.35527,-25.26744,-14.09476,10.01,0.02,1.09,4.0
1758088677.09915,1758088674.37268,0.0,0.0,0.0,15.06879,-23.83505,-15.92823,10.13,0.0,0.91,4.0
1758088677.10039,1758088674.38268,0.0,0.0,0.0,14.72501,-22.86102,-16.61578,10.13,0.0,0.91,4.0
1758088677.10099,1758088674.39268,0.0,0.0,0.0,14.09476,-21.7151,-16.61578,9.88,-0.04,0.69,4.0
1758088677.14172,1758088674.40268,0.0,0.0,0.0,13.5218,-20.34,-15.98552,9.88,-0.04,0.69,4.0
1758088677.14297,1758088674.41268,0.0,0.0,0.0,12.37589,-18.62113,-14.15206,9.83,0.0,0.56,4.0
1758088677.14434,1758088674.42268,0.0,0.0,0.0,11.34457,-17.81899,-12.54778,9.84,0.0,0.66,4.0
1758088677.14563,1758088674.43268,0.0,0.0,0.0,10.54242,-16.95955,-11.45916,9.84,0.0,0.66,4.0
1758088677.16109,1758088674.44268,0.0,0.0,0.0,9.68299,-15.92823,-10.48513,9.95,-0.03,0.61,4.0
1758088677.1621,1758088674.45268,0.0,0.0,0.0,8.30789,-14.9542,-9.74028,9.95,-0.03,0.61,4.0
1758088677.17948,1758088674.46268,0.0,0.0,0.0,7.44845,-13.69369,-9.5684,9.76,-0.02,0.45,4.0
1758088677.19514,1758088674.47268,0.0,0.0,0.0,6.7609,-13.17803,-9.68299,9.76,-0.02,0.45,4.0
1758088677.19631,1758088674.48268,0.0,0.0,0.0,5.95876,-13.12073,-9.62569,9.33,0.06,0.28,4.0
1758088677.21511,1758088674.49268,0.0,0.0,0.0,4.92744,-13.06344,-9.74028,9.06,0.1,0.13,4.0
1758088677.21641,1758088674.50268,0.0,0.0,0.0,4.23989,-13.75099,-9.85487,9.06,0.1,0.13,4.0
1758088677.23293,1758088674.51268,0.0,0.0,0.0,3.03668,-14.61043,-10.02676,8.94,0.06,-0.01,4.0
1758088677.2339,1758088674.52268,0.0,0.0,0.0,0.45837,-16.50119,-10.48513,8.94,0.06,-0.01,4.0
1758088677.24974,1758088674.53268,0.0,0.0,0.0,-0.97403,-18.79302,-10.31324,8.73,0.16,-0.07,4.0
1758088677.25329,1758088674.54268,0.0,0.0,0.0,-2.57831,-20.68378,-9.85487,8.73,0.16,-0.07,4.0
1758088677.27098,1758088674.55268,0.0,0.0,0.0,-4.46907,-23.26209,-9.28192,8.54,0.32,-0.17,4.0
1758088677.27477,1758088674.56268,0.0,0.0,0.0,-7.33386,-26.47065,-7.73493,8.54,0.32,-0.17,4.0
1758088677.28999,1758088674.57268,0.0,0.0,0.0,-9.28192,-28.07493,-6.13065,8.1,0.36,-0.13,4.0
1758088677.31891,1758088674.58268,0.0,0.0,0.0,-11.51645,-29.22085,-4.29718,7.71,0.29,-0.14,4.0
1758088677.32398,1758088674.59268,0.0,0.0,0.0,-13.75099,-29.73651,-2.34913,7.71,0.29,-0.14,4.0
1758088677.32524,1758088674.60268,0.0,0.0,0.0,-16.55848,-26.52795,0.45837,7.22,0.07,0.01,4.0
1758088677.32778,1758088674.61268,0.0,0.0,0.0,-17.99088,-24.17882,2.7502,7.22,0.07,0.01,4.0
1758088677.36889,1758088674.62268,0.0,0.0,0.0,-18.85031,-23.0329,5.09932,7.52,-0.09,1.57,4.0
1758088677.3709,1758088674.63268,0.0,0.0,0.0,-18.50654,-29.04896,7.84952,7.52,-0.09,1.57,4.0
1758088677.37184,1758088674.64268,0.0,0.0,0.0,-15.35527,-43.4875,10.94349,8.64,-0.18,3.04,4.0
1758088677.37432,1758088674.65268,0.0,0.0,0.0,-14.03747,-44.46153,11.86023,13.47,-0.04,5.55,4.0
1758088677.37501,1758088674.66268,0.0,0.0,0.0,-13.06344,-40.7946,15.06879,13.47,-0.04,5.55,4.0
1758088677.39126,1758088674.67268,0.0,0.0,0.0,-12.49048,-30.88243,19.25138,21.92,1.51,6.59,4.0
1758088677.39303,1758088674.68268,0.0,0.0,0.0,-11.51645,-24.75178,23.66316,21.92,1.51,6.59,4.0
1758088677.40901,1758088674.69268,0.0,0.0,0.0,-7.39116,-33.9764,26.12688,20.05,2.31,1.01,4.0
1758088677.42502,1758088674.70268,0.0,0.0,0.0,-7.39116,-21.37133,22.05888,20.05,2.31,1.01,4.0
1758088677.42618,1758088674.71268,0.0,0.0,0.0,-6.53172,4.0107,17.24603,16.48,-1.23,0.06,4.0
1758088677.44128,1758088674.72268,0.0,0.0,0.0,-3.95341,39.87786,11.63104,15.54,-2.6,1.16,4.0
1758088677.44378,1758088674.73268,0.0,0.0,0.0,-0.97403,53.51426,6.41713,15.54,-2.6,1.16,4.0
1758088677.45928,1758088674.74268,0.0,0.0,0.0,2.97938,55.92068,1.48969,14.82,-1.56,1.93,4.0
1758088677.47527,1758088674.75268,0.0,0.0,0.0,8.76626,43.77398,-3.60963,14.82,-1.56,1.93,4.0
1758088677.47735,1758088674.76268,0.0,0.0,0.0,12.204,36.49741,-3.66693,15.52,-0.38,2.37,4.0
1758088677.49308,1758088674.77268,0.0,0.0,0.0,13.75099,34.0337,-1.66158,15.52,-0.38,2.37,4.0
1758088677.49444,1758088674.78268,0.0,0.0,0.0,14.43854,33.23156,1.14592,14.48,0.58,1.34,4.0
1758088677.50985,1758088674.79268,0.0,0.0,0.0,16.3293,37.64333,4.52637,11.84,0.58,0.83,4.0
1758088677.51104,1758088674.80268,0.0,0.0,0.0,16.55848,45.49285,4.98473,11.84,0.79,0.83,4.0
1758088677.5281,1758088674.81268,0.0,0.0,0.0,17.36062,55.23313,5.32851,9.91,0.53,0.98,4.0
1758088677.54533,1758088674.82268,0.0,0.0,0.0,18.16276,59.07195,5.09932,9.91,0.53,0.98,4.0
1758088677.57584,1758088674.83268,0.0,0.0,0.0,17.81899,50.99325,4.18259,7.08,0.46,1.44,4.0
1758088677.57624,1758088674.84268,0.0,0.0,0.0,16.73037,42.39888,3.20856,7.08,0.46,1.44,4.0
1758088677.58409,1758088674.85268,0.0,0.0,0.0,15.87093,34.37747,2.34913,5.62,0.33,1.19,4.0
1758088677.5845,1758088674.86268,0.0,0.0,0.0,14.43854,28.93437,1.66158,5.62,0.33,1.19,4.0
1758088677.58673,1758088674.87268,0.0,0.0,0.0,12.2613,25.38203,1.03132,5.73,0.11,0.69,4.0
1758088677.60211,1758088674.88268,0.0,0.0,0.0,10.48513,23.0902,0.80214,6.12,0.12,0.53,4.0
1758088677.60332,1758088674.89268,0.0,0.0,0.0,8.65166,19.36597,1.3751,6.12,0.12,0.53,4.0
1758088677.61807,1758088674.90268,0.0,0.0,0.0,6.58902,14.83961,2.06265,6.23,0.4,0.47,4.0
1758088677.63509,1758088674.91268,0.0,0.0,0.0,3.60963,11.51645,4.29718,6.23,0.4,0.47,4.0
1758088677.63711,1758088674.92268,0.0,0.0,0.0,1.3178,10.8862,6.18794,6.89,0.78,0.43,4.0
1758088677.65299,1758088674.93268,0.0,0.0,0.0,-1.3178,8.99544,8.70896,6.89,0.78,0.43,4.0
1758088677.65462,1758088674.94268,0.0,0.0,0.0,-5.84417,4.58366,13.5218,7.16,1.06,0.64,4.0
1758088677.66941,1758088674.95268,0.0,0.0,0.0,-9.28192,1.14592,17.24603,7.2,1.11,0.67,4.0
1758088677.68538,1758088674.96268,0.0,0.0,0.0,-12.37589,-4.46907,20.34,7.2,1.11,0.67,4.0
1758088677.69039,1758088674.97268,0.0,0.0,0.0,-15.69904,-11.57375,23.66316,7.06,1.01,0.4,4.0
1758088677.70545,1758088674.98268,0.0,0.0,0.0,-20.22541,-20.62648,27.50197,7.06,1.01,0.4,4.0
1758088677.70745,1758088674.99268,0.0,0.0,0.0,-23.20479,-25.43933,29.62192,7.22,0.75,0.12,4.0
1758088677.72216,1758088675.00268,0.0,0.0,0.0,-25.61122,-29.9084,30.65324,7.22,0.75,0.12,4.0
1758088677.72336,1758088675.01268,0.0,0.0,0.0,-27.73116,-34.0337,30.99702,7.27,0.46,0.16,4.0
1758088677.73815,1758088675.02268,0.0,0.0,0.0,-29.8511,-40.7373,30.25217,7.29,0.28,0.49,4.0
1758088677.74335,1758088675.03268,0.0,0.0,0.0,-30.30947,-43.88857,28.87707,7.29,0.28,0.49,4.0
1758088677.76145,1758088675.04268,0.0,0.0,0.0,-30.13758,-45.09178,26.98631,7.84,0.08,0.51,4.0
1758088677.76321,1758088675.05268,0.0,0.0,0.0,-29.04896,-42.74266,24.12152,7.84,0.08,0.51,4.0
1758088677.77821,1758088675.06268,0.0,0.0,0.0,-26.01229,-34.26288,19.36597,8.86,-0.23,0.53,4.0
1758088677.79522,1758088675.07268,0.0,0.0,0.0,-23.49127,-27.33009,16.90226,8.86,-0.23,0.53,4.0
1758088677.7975,1758088675.08268,0.0,0.0,0.0,-21.02755,-20.34,14.9542,9.35,-0.71,0.37,4.0
1758088677.81425,1758088675.09268,0.0,0.0,0.0,-17.6471,-16.04282,14.38124,9.35,-0.71,0.37,4.0
1758088677.81496,1758088675.10268,0.0,0.0,0.0,-14.15206,-29.56462,12.54778,8.75,-1.2,0.22,4.0
1758088677.83025,1758088675.11268,0.0,0.0,0.0,-12.43318,-35.63798,11.86023,7.98,-1.39,-0.1,4.0
1758088677.83174,1758088675.12268,0.0,0.0,0.0,-9.74028,-31.2262,12.89155,7.98,-1.39,-0.1,4.0
1758088677.84851,1758088675.13268,0.0,0.0,0.0,-6.53172,-23.72045,16.55848,10.04,-1.46,-0.5,4.0
1758088677.87066,1758088675.14268,0.0,0.0,0.0,-3.89611,-16.272,19.48057,10.04,-1.46,-0.5,4.0
1758088677.87416,1758088675.15268,0.0,0.0,0.0,-1.14592,-12.43318,22.11617,9.99,-1.48,-0.29,4.0
1758088677.87566,1758088675.16268,0.0,0.0,0.0,1.20321,-9.11003,24.63719,9.99,-1.48,-0.29,4.0
1758088677.89307,1758088675.17268,0.0,0.0,0.0,4.18259,-4.87014,28.07493,10.0,-1.29,-0.46,4.0
1758088677.89504,1758088675.18268,0.0,0.0,0.0,5.72958,-1.94806,29.50733,10.22,-0.94,-0.72,4.0
1758088677.91024,1758088675.19268,0.0,0.0,0.0,7.39116,0.51566,30.19488,10.22,-0.94,-0.72,4.0
1758088677.91151,1758088675.20268,0.0,0.0,0.0,8.65166,1.83346,29.8511,10.04,-0.62,-1.02,4.0
1758088677.9296,1758088675.21268,0.0,0.0,0.0,9.68299,3.66693,27.38738,10.04,-0.62,-1.02,4.0
1758088677.9456,1758088675.22268,0.0,0.0,0.0,10.31324,5.61499,24.80907,9.86,-0.5,-0.93,4.0
1758088677.94607,1758088675.23268,0.0,0.0,0.0,10.31324,7.16197,21.7151,9.86,-0.5,-0.93,4.0
1758088677.96476,1758088675.24268,0.0,0.0,0.0,10.08406,6.35983,18.79302,9.63,-0.53,-0.79,4.0
1758088677.99044,1758088675.25268,0.0,0.0,0.0,9.91217,1.20321,14.61043,8.83,-0.78,-0.82,4.0
1758088677.99425,1758088675.26268,0.0,0.0,0.0,10.19865,-2.6929,11.80293,8.83,-0.78,-0.82,4.0
1758088677.99576,1758088675.27268,0.0,0.0,0.0,10.37054,-8.47978,9.05273,8.06,-0.99,-0.67,4.0
1758088677.99613,1758088675.28268,0.0,0.0,0.0,10.94349,-13.5791,6.70361,8.06,-0.99,-0.67,4.0
1758088678.01572,1758088675.29268,0.0,0.0,0.0,12.71966,-18.9649,3.09397,7.77,-0.9,-0.55,4.0
1758088678.01613,1758088675.30268,0.0,0.0,0.0,14.03747,-19.59516,0.0,7.77,-0.9,-0.55,4.0
1758088678.03315,1758088675.31268,0.0,0.0,0.0,16.04282,-13.34992,-2.7502,7.78,-0.54,-0.36,4.0
1758088678.03416,1758088675.32268,0.0,0.0,0.0,17.93358,-6.18794,-5.78687,7.78,-0.54,-0.36,4.0
1758088678.04961,1758088675.33268,0.0,0.0,0.0,19.19409,-17.99088,-10.02676,8.4,-0.44,1.89,4.0
1758088678.06564,1758088675.34268,0.0,0.0,0.0,17.36062,-43.20102,-12.37589,8.22,-0.82,4.86,4.0
1758088678.06609,1758088675.35268,0.0,0.0,0.0,14.03747,-52.25375,-14.78231,8.22,-0.82,4.86,4.0
1758088678.08164,1758088675.36268,0.0,0.0,0.0,11.28727,-48.35764,-16.73037,15.52,-1.18,5.06,4.0
1758088678.08415,1758088675.37268,0.0,0.0,0.0,8.99544,-48.30034,-22.23076,15.52,-1.18,5.06,4.0
1758088678.09964,1758088675.38268,0.0,0.0,0.0,8.47978,-37.52874,-24.4653,20.17,-3.32,5.56,4.0
1758088678.10058,1758088675.39268,0.0,0.0,0.0,5.32851,-46.46688,-28.24682,20.17,-3.32,5.56,4.0
1758088678.11597,1758088675.40268,0.0,0.0,0.0,-1.43239,-33.11696,-31.39809,18.89,-4.62,0.34,4.0
1758088678.13184,1758088675.41268,0.0,0.0,0.0,-2.57831,-1.20321,-29.96569,18.84,-2.02,-1.81,4.0
1758088678.13471,1758088675.42268,0.0,0.0,0.0,-0.40107,32.88778,-26.69983,18.84,-2.02,-1.81,4.0
1758088678.14944,1758088675.43268,0.0,0.0,0.0,0.11459,50.1911,-22.86102,16.65,-0.39,1.66,4.0
1758088678.15061,1758088675.44268,0.0,0.0,0.0,-2.00535,43.54479,-15.87093,16.65,-0.39,1.66,4.0
1758088678.16949,1758088675.45268,0.0,0.0,0.0,-4.18259,42.22699,-12.43318,13.8,-0.06,2.57,4.0
1758088678.17123,1758088675.46268,0.0,0.0,0.0,-6.35983,46.75336,-11.97482,13.8,-0.06,2.57,4.0
1758088678.20933,1758088675.47268,0.0,0.0,0.0,-8.0787,50.53488,-13.40721,14.5,-0.92,1.27,4.0
1758088678.20982,1758088675.48268,0.0,0.0,0.0,-9.4538,55.34772,-17.47521,12.71,-2.0,1.46,4.0
1758088678.2554,1758088675.49268,0.0,0.0,0.0,-9.33921,57.41038,-19.25138,12.71,-2.0,1.46,4.0
1758088678.25599,1758088675.50268,0.0,0.0,0.0,-8.65166,58.55629,-20.16812,10.87,-2.41,0.72,4.0
1758088678.25732,1758088675.51268,0.0,0.0,0.0,-7.62034,56.60823,-19.48057,10.87,-2.41,0.72,4.0
1758088678.25784,1758088675.52268,0.0,0.0,0.0,-5.15662,49.04519,-16.67307,9.07,-2.1,0.4,4.0
1758088678.26067,1758088675.53268,0.0,0.0,0.0,-3.09397,42.85724,-13.98017,9.07,-2.1,0.4,4.0
1758088678.26209,1758088675.54268,0.0,0.0,0.0,-0.80214,35.40879,-10.8289,7.82,-1.78,0.57,4.0
1758088678.26329,1758088675.55268,0.0,0.0,0.0,1.83346,30.59595,-7.79223,7.82,-1.78,0.57,4.0
1758088678.2787,1758088675.56268,0.0,0.0,0.0,6.7609,35.3515,-3.72423,7.11,-1.66,0.53,4.0
1758088678.27991,1758088675.57268,0.0,0.0,0.0,8.76626,56.14987,-4.29718,8.11,-1.68,0.1,4.0
1758088678.29601,1758088675.58268,0.0,0.0,0.0,10.37054,68.86953,-3.83882,8.11,-1.68,0.1,4.0
1758088678.37953,1758088675.59268,0.0,0.0,0.0,15.41257,45.89392,-1.3751,5.36,-1.46,0.83,4.0
1758088678.38329,1758088675.60268,0.0,0.0,0.0,16.21471,19.88164,-2.40642,5.36,-1.46,0.83,4.0
1758088678.3855,1758088675.61268,0.0,0.0,0.0,17.53251,11.86023,-2.11994,3.14,-1.24,-0.02,4.0
1758088678.39046,1758088675.62268,0.0,0.0,0.0,19.19409,14.72501,-2.86479,3.14,-1.24,-0.02,4.0
1758088678.39348,1758088675.63268,0.0,0.0,0.0,21.37133,11.22997,-5.21392,5.96,-1.1,-0.48,4.0
1758088678.39552,1758088675.64268,0.0,0.0,0.0,22.34536,4.52637,-7.39116,5.85,-0.89,0.44,4.0
1758088678.39613,1758088675.65268,0.0,0.0,0.0,23.0329,-2.34913,-10.25595,5.85,-0.89,0.44,4.0
1758088678.39693,1758088675.66268,0.0,0.0,0.0,23.72045,-9.68299,-13.17803,6.38,-0.7,-0.15,4.0
1758088678.4004,1758088675.67268,0.0,0.0,0.0,23.83505,-21.08485,-17.87628,6.38,-0.7,-0.15,4.0
1758088678.40104,1758088675.68268,0.0,0.0,0.0,23.37668,-25.55392,-19.42327,6.57,-0.53,-0.5,4.0
1758088678.40306,1758088675.69268,0.0,0.0,0.0,23.49127,-27.50197,-20.05352,6.57,-0.53,-0.5,4.0
1758088678.42038,1758088675.70268,0.0,0.0,0.0,23.0329,-28.76248,-19.99623,6.99,-0.49,-0.28,4.0
1758088678.42154,1758088675.71268,0.0,0.0,0.0,23.83505,-30.93972,-17.18874,7.65,-0.81,0.24,4.0
1758088678.43679,1758088675.72268,0.0,0.0,0.0,23.49127,-29.8511,-16.10011,7.65,-0.81,0.24,4.0
1758088678.45383,1758088675.73268,0.0,0.0,0.0,23.66316,-30.82513,-14.66772,8.47,-1.13,0.33,4.0
1758088678.45478,1758088675.74268,0.0,0.0,0.0,24.00693,-32.14294,-13.17803,8.47,-1.13,0.33,4.0
1758088678.46988,1758088675.75268,0.0,0.0,0.0,24.80907,-28.87707,-12.14671,9.24,-1.14,0.28,4.0
1758088678.4708,1758088675.76268,0.0,0.0,0.0,25.55392,-26.24147,-11.34457,9.24,-1.14,0.28,4.0
1758088678.48599,1758088675.77268,0.0,0.0,0.0,26.18417,-24.98096,-10.8289,9.28,-1.01,0.38,4.0
1758088678.4908,1758088675.78268,0.0,0.0,0.0,26.75713,-22.74642,-10.19865,9.28,-1.01,0.38,4.0
1758088678.52968,1758088675.79268,0.0,0.0,0.0,27.1582,-21.7724,-10.08406,8.78,-0.71,0.3,4.0
1758088678.53108,1758088675.80268,0.0,0.0,0.0,27.10091,-20.85567,-10.8862,9.06,-0.42,0.45,4.0
1758088678.53324,1758088675.81268,0.0,0.0,0.0,27.2155,-20.74107,-12.43318,9.06,-0.42,0.45,4.0
1758088678.53447,1758088675.82268,0.0,0.0,0.0,26.52795,-18.56383,-16.21471,9.79,-0.28,0.17,4.0
1758088678.55043,1758088675.83268,0.0,0.0,0.0,25.38203,-16.38659,-19.25138,9.79,-0.28,0.17,4.0
1758088678.55486,1758088675.84268,0.0,0.0,0.0,23.49127,-15.0115,-21.88699,10.54,-0.09,-0.11,4.0
1758088678.57072,1758088675.85268,0.0,0.0,0.0,20.34,-13.40721,-23.54857,10.54,-0.09,-0.11,4.0
1758088678.57596,1758088675.86268,0.0,0.0,0.0,14.32395,-10.25595,-24.17882,10.5,0.15,-0.12,4.0
1758088678.61515,1758088675.87268,0.0,0.0,0.0,9.4538,-7.10468,-22.91831,10.38,0.51,-0.12,4.0
1758088678.66471,1758088675.88268,0.0,0.0,0.0,4.52637,-5.4431,-21.14215,10.38,0.51,-0.12,4.0
1758088678.66509,1758088675.89268,0.0,0.0,0.0,-0.40107,-5.50039,-18.9649,9.9,0.88,-0.12,4.0
1758088678.67105,1758088675.90268,0.0,0.0,0.0,-7.16197,-9.33921,-15.41257,9.9,0.88,-0.12,4.0
1758088678.67343,1758088675.91268,0.0,0.0,0.0,-11.11538,-13.23533,-13.12073,9.09,1.08,-0.27,4.0
1758088678.67448,1758088675.92268,0.0,0.0,0.0,-14.61043,-16.90226,-10.48513,9.09,1.08,-0.27,4.0
1758088678.67505,1758088675.93268,0.0,0.0,0.0,-17.87628,-19.59516,-8.0787,8.42,0.82,-0.24,4.0
1758088678.67585,1758088675.94268,0.0,0.0,0.0,-22.11617,-24.29341,-5.72958,7.8,0.34,0.29,4.0
1758088678.67931,1758088675.95268,0.0,0.0,0.0,-24.00693,-29.67921,-4.0107,7.8,0.34,0.29,4.0
1758088678.68009,1758088675.96268,0.0,0.0,0.0,-25.15285,-31.45539,-2.06265,8.57,-0.09,2.34,4.0
1758088678.68119,1758088675.97268,0.0,0.0,0.0,-25.09555,-26.81443,3.55234,8.57,-0.09,2.34,4.0
1758088678.69507,1758088675.98268,0.0,0.0,0.0,-23.26209,-25.38203,7.67763,12.21,-0.35,4.47,4.0
1758088678.82246,1758088675.99268,0.0,0.0,0.0,-21.14215,-28.36141,12.37589,12.21,-0.35,4.47,4.0
1758088678.82308,1758088676.00268,0.0,0.0,0.0,-20.68378,-41.13837,14.66772,14.87,-0.2,6.52,4.0
1758088678.82514,1758088676.01268,0.0,0.0,0.0,-19.48057,-52.76942,19.53786,14.87,-0.2,6.52,4.0
1758088678.82815,1758088676.02268,0.0,0.0,0.0,-16.38659,-53.28508,21.6578,18.42,1.3,5.6,4.0
1758088678.83123,1758088676.03268,0.0,0.0,0.0,-13.5791,-44.51882,22.91831,18.75,1.86,0.62,4.0
1758088678.83325,1758088676.04268,0.0,0.0,0.0,-9.96947,-26.87172,24.00693,18.75,1.86,0.62,4.0
1758088678.83397,1758088676.05268,0.0,0.0,0.0,-9.11003,10.25595,20.3973,16.84,-0.45,-0.02,4.0
1758088678.83505,1758088676.06268,0.0,0.0,0.0,-8.25059,28.30412,17.13144,16.84,-0.45,-0.02,4.0
1758088678.83584,1758088676.07268,0.0,0.0,0.0,-6.87549,40.7373,13.00614,14.43,-1.48,0.33,4.0
1758088678.83939,1758088676.08268,0.0,0.0,0.0,-4.64096,46.46688,8.76626,14.43,-1.48,0.33,4.0
1758088678.84011,1758088676.09268,0.0,0.0,0.0,0.22918,39.4768,4.1253,13.97,-1.17,1.37,4.0
1758088678.842,1758088676.10268,0.0,0.0,0.0,3.72423,32.6013,2.92208,14.39,-0.55,2.04,4.0
1758088678.84515,1758088676.11268,0.0,0.0,0.0,6.7609,26.12688,3.38045,14.39,-0.55,2.04,4.0
1758088678.85056,1758088676.12268,0.0,0.0,0.0,8.42248,25.55392,4.92744,13.45,0.25,1.24,4.0
1758088678.85096,1758088676.13268,0.0,0.0,0.0,10.48513,33.51803,7.73493,13.45,0.25,1.24,4.0
1758088678.85368,1758088676.14268,0.0,0.0,0.0,11.17268,41.36755,9.28192,11.55,0.79,0.74,4.0
1758088678.86883,1758088676.15268,0.0,0.0,0.0,12.14671,48.64412,10.59972,11.55,0.79,0.74,4.0
1758088678.87109,1758088676.16268,0.0,0.0,0.0,13.06344,49.96192,11.57375,9.38,0.84,0.86,4.0
1758088678.89098,1758088676.17268,0.0,0.0,0.0,12.54778,42.97184,11.34457,7.53,0.67,0.76,4.0
1758088678.89457,1758088676.18268,0.0,0.0,0.0,11.22997,36.38282,10.8862,7.53,0.67,0.76,4.0
1758088678.91061,1758088676.19268,0.0,0.0,0.0,9.22462,30.88243,10.25595,7.34,0.57,0.67,4.0
1758088678.9118,1758088676.20268,0.0,0.0,0.0,5.4431,24.75178,9.28192,7.34,0.57,0.67,4.0
1758088678.93039,1758088676.21268,0.0,0.0,0.0,3.20856,21.14215,8.93814,7.38,0.51,0.74,4.0
1758088678.93404,1758088676.22268,0.0,0.0,0.0,0.85944,17.36062,8.99544,7.38,0.51,0.74,4.0
1758088678.95066,1758088676.23268,0.0,0.0,0.0,-1.43239,14.03747,8.88085,7.06,0.54,0.54,4.0
1758088678.95361,1758088676.24268,0.0,0.0,0.0,-5.09932,9.33921,8.76626,6.63,0.54,0.15,4.0
1758088678.96993,1758088676.25268,0.0,0.0,0.0,-7.04738,6.87549,8.88085,6.63,0.72,0.15,4.0
1758088678.9719,1758088676.26268,0.0,0.0,0.0,-8.93814,4.98473,8.99544,6.42,0.84,-0.05,4.0
1758088678.98713,1758088676.27268,0.0,0.0,0.0,-10.59972,3.49504,9.4538,6.42,0.84,-0.05,4.0
1758088679.00291,1758088676.28268,0.0,0.0,0.0,-13.40721,-0.11459,10.8289,6.68,0.69,-0.05,4.0
1758088679.0049,1758088676.29268,0.0,0.0,0.0,-15.46986,-2.57831,12.204,6.68,0.69,-0.05,4.0
1758088679.01999,1758088676.30268,0.0,0.0,0.0,-17.53251,-5.21392,14.09476,7.26,0.48,-0.06,4.0
1758088679.02272,1758088676.31268,0.0,0.0,0.0,-19.76705,-7.84952,16.50119,7.26,0.48,-0.06,4.0
1758088679.04096,1758088676.32268,0.0,0.0,0.0,-22.97561,-11.86023,20.74107,8.02,0.36,0.0,4.0
1758088679.14046,1758088676.33268,0.0,0.0,0.0,-25.26744,-14.43854,23.94964,8.56,0.33,0.0,4.0
1758088679.1445,1758088676.34268,0.0,0.0,0.0,-27.44468,-16.84496,27.10091,8.56,0.33,0.0,4.0
1758088679.14551,1758088676.35268,0.0,0.0,0.0,-29.33544,-19.07949,29.50733,8.77,0.11,-0.11,4.0
1758088679.14776,1758088676.36268,0.0,0.0,0.0,-30.93972,-21.94428,31.56997,8.77,0.11,-0.11,4.0
1758088679.15489,1758088676.37268,0.0,0.0,0.0,-30.93972,-23.37668,31.85646,8.78,-0.21,-0.19,4.0
1758088679.15529,1758088676.38268,0.0,0.0,0.0,-30.13758,-24.92367,30.88243,8.78,-0.21,-0.19,4.0
1758088679.15596,1758088676.39268,0.0,0.0,0.0,-27.2155,-24.57989,27.96034,9.02,-0.62,-0.39,4.0
1758088679.15941,1758088676.40268,0.0,0.0,0.0,-24.35071,-22.11617,25.49662,9.6,-0.99,-0.31,4.0
1758088679.16019,1758088676.41268,0.0,0.0,0.0,-21.31403,-18.90761,22.68913,9.6,-0.99,-0.31,4.0
1758088679.16208,1758088676.42268,0.0,0.0,0.0,-17.24603,-15.92823,20.45459,9.79,-1.45,-0.18,4.0
1758088679.16448,1758088676.43268,0.0,0.0,0.0,-11.97482,-14.15206,17.99088,9.79,-1.45,-0.18,4.0
1758088679.16555,1758088676.44268,0.0,0.0,0.0,-8.93814,-14.32395,17.13144,9.5,-1.72,-0.17,4.0
1758088679.16633,1758088676.45268,0.0,0.0,0.0,-6.47442,-13.34992,17.18874,9.5,-1.72,-0.17,4.0
1758088679.22898,1758088676.46268,0.0,0.0,0.0,-4.52637,-11.11538,17.6471,9.42,-1.63,-0.32,4.0
1758088679.2374,1758088676.47268,0.0,0.0,0.0,-3.20856,-9.05273,19.07949,9.41,-1.32,-0.42,4.0
1758088679.23931,1758088676.48268,0.0,0.0,0.0,-2.7502,-10.08406,19.70975,9.41,-1.32,-0.42,4.0
1758088679.24054,1758088676.49268,0.0,0.0,0.0,-2.97938,-12.49048,18.90761,9.03,-0.99,-0.39,4.0
1758088679.24114,1758088676.50268,0.0,0.0,0.0,-3.60963,-12.77696,17.6471,9.03,-0.99,-0.39,4.0
1758088679.24829,1758088676.51268,0.0,0.0,0.0,-4.58366,-8.02141,15.0115,9.2,-0.55,-0.41,4.0
1758088679.24875,1758088676.52268,0.0,0.0,0.0,-5.78687,-3.20856,12.89155,9.2,-0.55,-0.41,4.0
1758088679.25019,1758088676.53268,0.0,0.0,0.0,-6.87549,0.68755,10.48513,9.11,-0.22,-0.38,4.0
1758088679.27636,1758088676.54268,0.0,0.0,0.0,-7.84952,3.49504,7.96411,9.11,-0.22,-0.38,4.0
1758088679.27968,1758088676.55268,0.0,0.0,0.0,-9.11003,5.50039,4.58366,8.62,-0.12,-0.34,4.0
1758088679.28113,1758088676.56268,0.0,0.0,0.0,-9.5684,4.69825,2.57831,8.31,-0.37,-0.55,4.0
1758088679.2856,1758088676.57268,0.0,0.0,0.0,-9.85487,1.94806,1.08862,8.31,-0.37,-0.55,4.0
1758088679.30103,1758088676.58268,0.0,0.0,0.0,-9.39651,-2.46372,-0.45837,7.93,-0.79,-0.79,4.0
1758088679.30331,1758088676.59268,0.0,0.0,0.0,-8.30789,-6.70361,-1.08862,7.93,-0.79,-0.79,4.0
1758088679.31928,1758088676.60268,0.0,0.0,0.0,-6.58902,-8.36518,-1.43239,7.89,-1.27,-0.81,4.0
1758088679.32119,1758088676.61268,0.0,0.0,0.0,-5.32851,-9.4538,-2.00535,7.89,-1.27,-0.81,4.0
1758088679.33803,1758088676.62268,0.0,0.0,0.0,-2.29183,-9.91217,-2.86479,7.62,-1.53,-0.48,4.0
1758088679.34004,1758088676.63268,0.0,0.0,0.0,0.0,-10.48513,-3.72423,7.15,-1.53,-0.22,4.0
1758088679.35621,1758088676.64268,0.0,0.0,0.0,2.00535,-11.97482,-5.21392,7.15,-1.53,-0.22,4.0
1758088679.37311,1758088676.65268,0.0,0.0,0.0,3.89611,-15.29797,-7.10468,6.13,-1.26,-0.12,4.0
1758088679.37451,1758088676.66268,0.0,0.0,0.0,6.13065,-22.05888,-10.31324,6.13,-1.26,-0.12,4.0
1758088679.38931,1758088676.67268,0.0,0.0,0.0,6.41713,-31.56997,-11.22997,5.25,-0.93,0.7,4.0
1758088679.39025,1758088676.68268,0.0,0.0,0.0,6.07335,-46.69606,-10.71431,5.25,-0.93,0.7,4.0
1758088679.40607,1758088676.69268,0.0,0.0,0.0,3.66693,-59.75951,-12.60507,6.56,-0.92,5.29,4.0
1758088679.42206,1758088676.70268,0.0,0.0,0.0,-0.85944,-47.03984,-15.58445,14.64,-0.35,4.7,4.0
1758088679.4233,1758088676.71268,0.0,0.0,0.0,-1.60428,-31.74186,-19.48057,14.64,-0.35,4.7,4.0
1758088679.43922,1758088676.72268,0.0,0.0,0.0,-1.48969,-18.73572,-25.21014,20.05,-1.75,6.61,4.0
1758088679.44037,1758088676.73268,0.0,0.0,0.0,0.0573,-20.85567,-28.36141,20.05,-1.75,6.61,4.0
1758088679.45635,1758088676.74268,0.0,0.0,0.0,-7.21927,-54.71747,-40.16434,18.6,-5.5,1.48,4.0
1758088679.46047,1758088676.75268,0.0,0.0,0.0,-13.40721,-36.89849,-45.43555,18.6,-5.5,1.48,4.0
1758088679.47871,1758088676.76268,0.0,0.0,0.0,-14.15206,3.60963,-42.68536,20.59,-3.96,-2.25,4.0
1758088679.58049,1758088676.77268,0.0,0.0,0.0,-11.00079,46.52417,-35.63798,20.59,-3.96,-2.25,4.0
1758088679.61028,1758088676.78268,0.0,0.0,0.0,-8.36518,74.42722,-28.93437,19.1,-1.46,0.28,4.0
1758088679.61092,1758088676.79268,0.0,0.0,0.0,-7.33386,65.08801,-21.60051,12.62,-0.12,2.85,4.0
1758088679.61368,1758088676.80268,0.0,0.0,0.0,-5.95876,56.37905,-14.43854,12.62,-0.12,2.85,4.0
1758088679.61434,1758088676.81268,0.0,0.0,0.0,-5.61499,58.72818,-10.65701,12.77,-0.45,1.28,4.0
1758088679.61585,1758088676.82268,0.0,0.0,0.0,-5.95876,66.5204,-10.59972,12.77,-0.45,1.28,4.0
1758088679.61718,1758088676.83268,0.0,0.0,0.0,-5.84417,75.80232,-11.34457,13.88,-1.45,0.79,4.0
1758088679.62018,1758088676.84268,0.0,0.0,0.0,-6.24524,80.78706,-13.12073,13.88,-1.45,0.79,4.0
1758088679.62316,1758088676.85268,0.0,0.0,0.0,-6.24524,79.92762,-14.61043,12.27,-1.75,0.73,4.0
1758088679.62441,1758088676.86268,0.0,0.0,0.0,-6.58902,71.39055,-13.40721,9.97,-1.41,0.16,4.0
1758088679.62552,1758088676.87268,0.0,0.0,0.0,-6.99009,60.79083,-12.08941,9.97,-1.41,0.16,4.0
1758088679.62709,1758088676.88268,0.0,0.0,0.0,-8.70896,50.59217,-9.74028,8.7,-0.97,0.39,4.0
1758088679.63058,1758088676.89268,0.0,0.0,0.0,-8.93814,54.431,-8.93814,8.7,-0.97,0.39,4.0
1758088679.63468,1758088676.90268,0.0,0.0,0.0,-9.05273,72.30728,-10.94349,9.35,-0.71,0.47,4.0
1758088679.63643,1758088676.91268,0.0,0.0,0.0,-8.93814,89.15224,-13.17803,9.35,-0.71,0.47,4.0
1758088679.63705,1758088676.92268,0.0,0.0,0.0,-7.67763,87.54795,-14.32395,9.02,-0.8,0.95,4.0
1758088679.65323,1758088676.93268,0.0,0.0,0.0,-4.98473,53.68615,-13.75099,5.38,-0.83,1.43,4.0
1758088679.65522,1758088676.94268,0.0,0.0,0.0,-3.49504,30.53865,-13.12073,5.38,-0.83,1.43,4.0
1758088679.67042,1758088676.95268,0.0,0.0,0.0,-2.06265,18.73572,-11.74564,6.12,-1.0,-0.47,4.0
1758088679.67331,1758088676.96268,0.0,0.0,0.0,-1.08862,13.86558,-10.54242,6.12,-1.0,-0.47,4.0
1758088679.6885,1758088676.97268,0.0,0.0,0.0,1.14592,0.45837,-8.65166,6.52,-1.03,-0.19,4.0
1758088679.69097,1758088676.98268,0.0,0.0,0.0,2.63561,-12.77696,-7.96411,6.52,-1.03,-0.19,4.0
1758088679.70825,1758088676.99268,0.0,0.0,0.0,4.46907,-25.49662,-7.16197,5.45,-0.88,0.25,4.0
1758088679.72529,1758088677.00268,0.0,0.0,0.0,7.62034,-35.75257,-7.62034,5.45,-0.88,0.25,4.0
1758088679.72741,1758088677.01268,0.0,0.0,0.0,9.74028,-43.37291,-8.30789,5.76,-0.88,-0.29,4.0
1758088679.7425,1758088677.02268,0.0,0.0,0.0,12.83425,-41.48215,-8.76626,7.14,-1.0,-0.13,4.0
1758088679.74672,1758088677.03268,0.0,0.0,0.0,16.3293,-40.68,-9.33921,7.14,-1.0,-0.13,4.0
1758088679.76492,1758088677.04268,0.0,0.0,0.0,20.34,-41.08107,-10.31324,7.72,-1.11,0.27,4.0
1758088679.76905,1758088677.05268,0.0,0.0,0.0,21.6578,-40.96649,-12.77696,7.72,-1.11,0.27,4.0
1758088679.78534,1758088677.06268,0.0,0.0,0.0,23.20479,-42.91454,-14.20935,8.08,-1.02,0.12,4.0
1758088679.7883,1758088677.07268,0.0,0.0,0.0,24.17882,-44.8053,-14.83961,8.08,-1.02,0.12,4.0
1758088679.80334,1758088677.08268,0.0,0.0,0.0,24.92367,-45.77933,-14.78231,8.17,-0.85,-0.18,4.0
1758088679.80609,1758088677.09268,0.0,0.0,0.0,24.63719,-45.60744,-14.43854,8.61,-0.63,-0.14,4.0
1758088679.82232,1758088677.10268,0.0,0.0,0.0,24.23611,-44.28964,-14.03747,8.61,-0.63,-0.14,4.0
1758088679.82436,1758088677.11268,0.0,0.0,0.0,23.94964,-42.39888,-14.03747,9.52,-0.4,0.17,4.0
1758088679.84036,1758088677.12268,0.0,0.0,0.0,23.37668,-38.27358,-13.98017,9.52,-0.4,0.17,4.0
1758088679.84476,1758088677.13268,0.0,0.0,0.0,23.26209,-34.60666,-14.09476,10.36,-0.25,0.21,4.0
1758088679.88608,1758088677.14268,0.0,0.0,0.0,22.91831,-29.27814,-14.20935,10.36,-0.25,0.21,4.0
1758088679.88805,1758088677.15268,0.0,0.0,0.0,22.23076,-23.31938,-14.72501,10.6,-0.15,-0.04,4.0
1758088679.88866,1758088677.16268,0.0,0.0,0.0,20.11082,-15.41257,-15.0115,10.31,0.07,-0.15,4.0
1758088679.88994,1758088677.17268,0.0,0.0,0.0,17.99088,-11.80293,-14.78231,10.31,0.07,-0.15,4.0
1758088679.89051,1758088677.18268,0.0,0.0,0.0,15.29797,-9.74028,-14.03747,9.96,0.38,-0.25,4.0
1758088679.90996,1758088677.19268,0.0,0.0,0.0,12.204,-8.25059,-12.83425,9.96,0.38,-0.25,4.0
1758088679.91112,1758088677.20268,0.0,0.0,0.0,6.87549,-6.47442,-11.91752,9.91,0.66,-0.36,4.0
1758088679.92706,1758088677.21268,0.0,0.0,0.0,2.63561,-5.78687,-11.34457,9.91,0.66,-0.36,4.0
1758088679.95634,1758088677.22268,0.0,0.0,0.0,-1.77617,-6.7609,-11.11538,9.78,0.81,-0.47,4.0
1758088679.95963,1758088677.23268,0.0,0.0,0.0,-8.47978,-9.68299,-10.59972,9.78,0.81,-0.47,4.0
1758088679.96143,1758088677.24268,0.0,0.0,0.0,-12.2613,-9.74028,-9.91217,9.27,0.87,-0.49,4.0
1758088679.96583,1758088677.25268,0.0,0.0,0.0,-15.98552,-9.33921,-9.62569,8.99,0.8,-0.52,4.0
1758088679.98063,1758088677.26268,0.0,0.0,0.0,-19.07949,-12.14671,-8.59437,8.99,0.8,-0.52,4.0
1758088679.98321,1758088677.27268,0.0,0.0,0.0,-23.60586,-16.50119,-6.53172,8.02,0.7,-0.3,4.0
1758088680.00029,1758088677.28268,0.0,0.0,0.0,-26.41335,-16.38659,-4.92744,8.02,0.7,-0.3,4.0
1758088680.00294,1758088677.29268,0.0,0.0,0.0,-29.04896,-18.85031,-3.26586,7.55,0.39,-0.14,4.0
1758088680.0421,1758088677.30268,0.0,0.0,0.0,-31.45539,-23.0902,-1.66158,7.55,0.39,-0.14,4.0
1758088680.04329,1758088677.31268,0.0,0.0,0.0,-33.51803,-27.10091,2.40642,7.0,0.11,0.89,4.0
1758088680.04472,1758088677.32268,0.0,0.0,0.0,-33.46074,-28.36141,7.67763,9.56,-0.36,3.77,4.0
1758088680.04999,1758088677.33268,0.0,0.0,0.0,-31.56997,-28.41871,13.34992,9.56,-0.36,3.77,4.0
1758088680.05058,1758088677.34268,0.0,0.0,0.0,-27.96034,-31.16891,19.82434,13.43,-0.56,4.79,4.0
1758088680.0695,1758088677.35268,0.0,0.0,0.0,-23.83505,-47.15443,27.33009,13.43,-0.56,4.79,4.0
1758088680.07394,1758088677.36268,0.0,0.0,0.0,-20.97026,-53.45696,31.97105,16.97,0.09,6.35,4.0
1758088680.08849,1758088677.37268,0.0,0.0,0.0,-16.67307,-52.884,35.98175,16.97,0.09,6.35,4.0
1758088680.10461,1758088677.38268,0.0,0.0,0.0,-12.37589,-41.36755,37.18496,19.4,1.61,2.46,4.0
1758088680.10566,1758088677.39268,0.0,0.0,0.0,-3.95341,-10.19865,35.12231,17.35,0.34,-0.99,4.0
1758088680.12475,1758088677.40268,0.0,0.0,0.0,-2.6929,14.38124,30.48136,17.35,0.34,-0.99,4.0
1758088680.20001,1758088677.41268,0.0,0.0,0.0,-2.34913,31.56997,25.89769,15.0,-1.53,-0.21,4.0
1758088680.20325,1758088677.42268,0.0,0.0,0.0,-0.17189,52.71212,19.36597,15.0,-1.53,-0.21,4.0
1758088680.20498,1758088677.43268,0.0,0.0,0.0,2.06265,60.73353,15.87093,14.54,-1.81,1.01,4.0
1758088680.20561,1758088677.44268,0.0,0.0,0.0,4.69825,59.47303,12.37589,14.54,-1.81,1.01,4.0
1758088680.20683,1758088677.45268,0.0,0.0,0.0,6.87549,54.48829,10.8862,14.6,-1.34,1.51,4.0
1758088680.2078,1758088677.46268,0.0,0.0,0.0,8.93814,47.78468,12.37589,14.6,-1.34,1.45,4.0
1758088680.20819,1758088677.47268,0.0,0.0,0.0,9.11003,47.32632,14.38124,14.32,-0.31,1.45,4.0
1758088680.20931,1758088677.48268,0.0,0.0,0.0,8.42248,48.07116,15.35527,12.36,0.56,1.0,4.0
1758088680.21012,1758088677.49268,0.0,0.0,0.0,8.99544,53.45696,16.67307,12.36,0.56,1.0,4.0
1758088680.2128,1758088677.50268,0.0,0.0,0.0,9.33921,65.77556,15.75634,10.69,0.59,0.98,4.0
1758088680.22866,1758088677.51268,0.0,0.0,0.0,10.19865,70.47381,14.20935,10.69,0.59,0.98,4.0
1758088680.30379,1758088677.52268,0.0,0.0,0.0,10.08406,67.9528,11.63104,8.77,0.14,1.0,4.0
1758088680.32262,1758088677.53268,0.0,0.0,0.0,-5.32851,9.91217,3.60963,6.44,-0.02,0.47,4.0
1758088680.33458,1758088677.54268,0.0,0.0,0.0,-7.62034,5.90147,5.84417,6.11,0.13,0.11,4.0
1758088680.33624,1758088677.55268,0.0,0.0,0.0,-8.70896,-1.48969,7.73493,5.99,0.24,0.07,4.0
1758088680.35077,1758088677.56268,0.0,0.0,0.0,-9.74028,-7.39116,10.19865,5.99,0.24,0.07,4.0
1758088680.352,1758088677.57268,0.0,0.0,0.0,-10.8862,-12.49048,12.54778,6.21,0.22,0.03,4.0
1758088680.36761,1758088677.58268,0.0,0.0,0.0,-12.83425,-18.56383,15.75634,6.21,0.22,0.03,4.0
1758088680.38461,1758088677.59268,0.0,0.0,0.0,-14.32395,-22.23076,17.58981,6.8,0.13,0.1,4.0
1758088680.38554,1758088677.60268,0.0,0.0,0.0,-15.92823,-25.15285,18.9649,6.8,0.13,0.1,4.0
1758088680.40074,1758088677.61268,0.0,0.0,0.0,-17.58981,-27.78845,20.16812,7.43,0.05,0.15,4.0
1758088680.4018,1758088677.62268,0.0,0.0,0.0,-19.82434,-31.11161,21.31403,7.98,0.05,0.08,4.0
1758088680.41684,1758088677.63268,0.0,0.0,0.0,-20.74107,-32.88778,21.6578,7.98,-0.06,0.08,4.0
1758088680.43381,1758088677.64268,0.0,0.0,0.0,-20.97026,-34.60666,21.08485,8.28,-0.22,0.08,4.0
1758088680.43561,1758088677.65268,0.0,0.0,0.0,-20.3973,-35.2369,20.05352,8.28,-0.22,0.08,4.0
1758088680.45062,1758088677.66268,0.0,0.0,0.0,-17.58981,-32.48671,17.30333,8.71,-0.5,0.04,4.0
1758088680.45415,1758088677.67268,0.0,0.0,0.0,-15.24068,-30.48136,15.35527,8.71,-0.5,0.04,4.0
1758088680.47039,1758088677.68268,0.0,0.0,0.0,-11.97482,-28.07493,13.46451,9.06,-0.82,0.13,4.0
1758088680.47397,1758088677.69268,0.0,0.0,0.0,-8.0787,-26.35606,12.204,9.06,-0.82,0.13,4.0
1758088680.5156,1758088677.70268,0.0,0.0,0.0,-2.86479,-25.43933,11.80293,8.97,-1.08,0.04,4.0
1758088680.51916,1758088677.71268,0.0,0.0,0.0,0.22918,-24.17882,12.49048,8.98,-1.36,0.11,4.0
1758088680.51969,1758088677.72268,0.0,0.0,0.0,3.38045,-22.00158,14.15206,8.98,-1.36,0.11,4.0
1758088680.52099,1758088677.73268,0.0,0.0,0.0,6.35983,-20.68378,17.76169,9.16,-1.56,-0.12,4.0
1758088680.52265,1758088677.74268,0.0,0.0,0.0,9.5684,-21.08485,20.79837,9.16,-1.56,-0.12,4.0
1758088680.53972,1758088677.75268,0.0,0.0,0.0,10.71431,-23.54857,22.86102,8.95,-1.68,-0.07,4.0
1758088680.54067,1758088677.76268,0.0,0.0,0.0,11.63104,-26.01229,23.72045,8.95,-1.68,-0.07,4.0
1758088680.55991,1758088677.77268,0.0,0.0,0.0,12.77696,-22.34536,23.72045,8.61,-1.52,-0.33,4.0
1758088680.56096,1758088677.78268,0.0,0.0,0.0,13.5791,-17.24603,22.63183,8.89,-1.13,-0.55,4.0
1758088680.58053,1758088677.79268,0.0,0.0,0.0,14.38124,-12.89155,21.02755,8.89,-1.13,-0.55,4.0
1758088680.59027,1758088677.80268,0.0,0.0,0.0,15.12609,-9.91217,18.9649,8.56,-0.79,-0.51,4.0
1758088680.59084,1758088677.81268,0.0,0.0,0.0,15.98552,-7.39116,15.92823,8.56,-0.79,-0.51,4.0
1758088680.60864,1758088677.82268,0.0,0.0,0.0,16.61578,-7.73493,14.38124,8.41,-0.63,-0.79,4.0
1758088680.62465,1758088677.83268,0.0,0.0,0.0,17.47521,-9.4538,13.40721,8.41,-0.63,-0.79,4.0
1758088680.62669,1758088677.84268,0.0,0.0,0.0,17.99088,-12.83425,12.89155,7.97,-0.75,-0.84,4.0
1758088680.64516,1758088677.85268,0.0,0.0,0.0,18.9649,-19.36597,12.204,7.33,-0.93,-0.7,4.0
1758088680.64591,1758088677.86268,0.0,0.0,0.0,19.42327,-22.91831,11.74564,7.33,-0.93,-0.7,4.0
1758088680.66075,1758088677.87268,0.0,0.0,0.0,19.19409,-25.55392,10.65701,6.78,-0.93,-0.61,4.0
1758088680.66463,1758088677.88268,0.0,0.0,0.0,18.10547,-26.98631,8.76626,6.78,-0.93,-0.61,4.0
1758088680.67998,1758088677.89268,0.0,0.0,0.0,16.04282,-26.12688,5.32851,6.42,-0.68,0.22,4.0
1758088680.68124,1758088677.90268,0.0,0.0,0.0,15.24068,-22.51724,2.29183,6.42,-0.68,0.22,4.0
1758088680.69943,1758088677.91268,0.0,0.0,0.0,13.40721,-19.19409,-1.43239,8.68,-1.07,3.72,4.0
1758088680.71477,1758088677.92268,0.0,0.0,0.0,11.80293,-21.02755,-4.46907,8.68,-1.07,3.72,4.0
1758088680.71596,1758088677.93268,0.0,0.0,0.0,8.59437,-41.02378,-9.05273,12.8,-1.29,4.83,4.0
1758088680.73103,1758088677.94268,0.0,0.0,0.0,8.93814,-54.66018,-12.08941,18.2,-1.94,6.15,4.0
1758088680.73351,1758088677.95268,0.0,0.0,0.0,7.96411,-59.18654,-16.3293,18.2,-1.94,6.15,4.0
1758088680.7488,1758088677.96268,0.0,0.0,0.0,0.80214,-61.93674,-22.28806,22.22,-4.59,0.86,4.0
1758088680.77966,1758088677.97268,0.0,0.0,0.0,-4.35448,-38.61736,-24.12152,22.22,-4.59,0.86,4.0
1758088680.78198,1758088677.98268,0.0,0.0,0.0,-5.15662,-8.36518,-22.51724,20.91,-3.27,-1.84,4.0
1758088680.78465,1758088677.99268,0.0,0.0,0.0,-3.60963,18.33465,-20.3973,20.91,-3.27,-1.84,4.0
1758088680.78703,1758088678.00268,0.0,0.0,0.0,-1.08862,41.99781,-16.50119,17.26,-1.89,0.51,4.0
1758088680.80172,1758088678.01268,0.0,0.0,0.0,-0.11459,46.1804,-14.66772,14.16,-0.83,1.75,4.0
1758088680.80537,1758088678.02268,0.0,0.0,0.0,-0.11459,52.02457,-13.98017,14.16,-0.83,1.75,4.0
1758088680.821,1758088678.03268,0.0,0.0,0.0,-1.14592,56.83742,-16.95955,14.78,-0.26,1.47,4.0
1758088680.82464,1758088678.04268,0.0,0.0,0.0,-0.40107,44.86259,-18.44924,14.78,-0.26,1.47,4.0
1758088680.86031,1758088678.05268,0.0,0.0,0.0,1.03132,45.83662,-18.16276,13.98,-1.18,1.25,4.0
1758088680.86345,1758088678.06267,0.0,0.0,0.0,1.08862,52.36834,-17.93358,13.98,-1.18,1.25,4.0
1758088680.86381,1758088678.07267,0.0,0.0,0.0,1.14592,55.29043,-16.73037,13.78,-2.38,0.43,4.0
1758088680.86859,1758088678.08267,0.0,0.0,0.0,0.74485,50.47758,-13.86558,10.73,-2.38,0.57,4.0
1758088680.88517,1758088678.09267,0.0,0.0,0.0,0.74485,44.9199,-11.17268,10.73,-2.38,0.57,4.0
1758088680.88766,1758088678.10267,0.0,0.0,0.0,1.71887,38.38818,-8.0787,9.12,-1.98,0.53,4.0
1758088680.90515,1758088678.11267,0.0,0.0,0.0,2.46372,33.51803,-5.09932,9.12,-1.98,0.53,4.0
1758088680.90795,1758088678.12267,0.0,0.0,0.0,6.18794,41.31026,-2.34913,8.79,-1.58,0.54,4.0
1758088680.92312,1758088678.13267,0.0,0.0,0.0,6.70361,59.07195,-3.03668,8.79,-1.58,0.54,4.0
1758088680.92495,1758088678.14267,0.0,0.0,0.0,7.62034,73.05212,-4.18259,9.43,-1.32,0.54,4.0
1758088680.94,1758088678.15267,0.0,0.0,0.0,9.85487,74.08345,-5.27121,9.43,-1.32,0.54,4.0
1758088680.94195,1758088678.16267,0.0,0.0,0.0,12.54778,50.2484,-4.87014,6.76,-1.09,1.15,4.0
1758088680.9589,1758088678.17267,0.0,0.0,0.0,14.43854,30.99702,-4.98473,5.07,-1.27,0.32,4.0
1758088680.9752,1758088678.18267,0.0,0.0,0.0,15.87093,17.81899,-5.50039,5.07,-1.27,0.32,4.0
1758088680.9761,1758088678.19267,0.0,0.0,0.0,17.47521,11.45916,-6.18794,6.42,-1.36,-0.19,4.0
1758088680.99217,1758088678.20267,0.0,0.0,0.0,18.56383,9.28192,-7.33386,6.42,-1.36,-0.19,4.0
1758088680.99311,1758088678.21267,0.0,0.0,0.0,19.48057,3.60963,-8.76626,6.81,-1.21,0.34,4.0
1758088681.00802,1758088678.22267,0.0,0.0,0.0,20.22541,-3.03668,-10.02676,6.81,-1.21,0.34,4.0
1758088681.02424,1758088678.23267,0.0,0.0,0.0,21.02755,-11.80293,-11.80293,6.17,-1.06,0.07,4.0
1758088681.02538,1758088678.24267,0.0,0.0,0.0,21.7724,-17.18874,-13.12073,6.04,-0.89,-0.2,4.0
1758088681.04026,1758088678.25267,0.0,0.0,0.0,22.00158,-23.54857,-14.49583,6.04,-0.89,-0.2,4.0
1758088681.04193,1758088678.26267,0.0,0.0,0.0,22.23076,-29.27814,-15.98552,6.11,-0.7,0.04,4.0
1758088681.09614,1758088678.27267,0.0,0.0,0.0,22.11617,-34.49206,-17.76169,6.11,-0.7,0.04,4.0
1758088681.10106,1758088678.28267,0.0,0.0,0.0,22.00158,-36.61201,-18.79302,6.79,-0.68,0.0,4.0
1758088681.10166,1758088678.29267,0.0,0.0,0.0,21.88699,-37.24226,-18.90761,6.79,-0.68,0.0,4.0
1758088681.1053,1758088678.30267,0.0,0.0,0.0,21.6578,-35.12231,-18.79302,7.65,-0.73,0.18,4.0
1758088681.10596,1758088678.31267,0.0,0.0,0.0,20.51189,-29.8511,-18.73572,8.38,-0.65,0.16,4.0
1758088681.10801,1758088678.32267,0.0,0.0,0.0,20.05352,-26.75713,-17.81899,8.38,-0.65,0.16,4.0
1758088681.12329,1758088678.33267,0.0,0.0,0.0,18.79302,-23.0902,-16.55848,8.87,-0.4,0.0,4.0
1758088681.12586,1758088678.34267,0.0,0.0,0.0,17.58981,-20.11082,-15.29797,8.87,-0.4,0.0,4.0
1758088681.14203,1758088678.35267,0.0,0.0,0.0,15.87093,-17.87628,-14.03747,9.21,-0.14,0.16,4.0
1758088681.1456,1758088678.36267,0.0,0.0,0.0,14.78231,-18.50654,-13.86558,9.21,-0.14,0.16,4.0
1758088681.16136,1758088678.37267,0.0,0.0,0.0,13.75099,-19.59516,-14.61043,9.48,0.0,0.2,4.0
1758088681.16336,1758088678.38267,0.0,0.0,0.0,12.37589,-18.90761,-16.90226,9.48,0.0,0.2,4.0
1758088681.17795,1758088678.39267,0.0,0.0,0.0,11.51645,-17.24603,-18.44924,10.2,-0.06,0.16,4.0
1758088681.19525,1758088678.40267,0.0,0.0,0.0,10.8289,-15.24068,-19.59516,10.46,-0.2,0.07,4.0
1758088681.19617,1758088678.41267,0.0,0.0,0.0,10.19865,-12.37589,-20.68378,10.46,-0.2,0.07,4.0
1758088681.21136,1758088678.42267,0.0,0.0,0.0,9.39651,-6.53172,-21.25674,10.43,-0.34,-0.03,4.0
1758088681.21301,1758088678.43267,0.0,0.0,0.0,8.88085,-2.6929,-20.79837,10.43,-0.34,-0.03,4.0
1758088681.22837,1758088678.44267,0.0,0.0,0.0,8.0787,0.11459,-19.82434,10.47,-0.4,-0.03,4.0
1758088681.24481,1758088678.45267,0.0,0.0,0.0,7.39116,1.60428,-18.73572,10.47,-0.4,-0.03,4.0
1758088681.24642,1758088678.46267,0.0,0.0,0.0,5.90147,2.06265,-16.55848,10.52,-0.41,-0.18,4.0
1758088681.26129,1758088678.47267,0.0,0.0,0.0,4.81285,0.51566,-15.41257,10.49,-0.32,-0.39,4.0
1758088681.2639,1758088678.48267,0.0,0.0,0.0,3.66693,-0.57296,-14.66772,10.49,-0.32,-0.39,4.0
1758088681.28002,1758088678.49267,0.0,0.0,0.0,2.46372,-1.3178,-13.75099,10.5,-0.21,-0.49,4.0
1758088681.28295,1758088678.50267,0.0,0.0,0.0,0.34377,-3.72423,-12.83425,10.5,-0.21,-0.49,4.0
1758088681.30034,1758088678.51267,0.0,0.0,0.0,-0.97403,-6.18794,-12.14671,10.03,-0.08,-0.52,4.0
1758088681.30794,1758088678.52267,0.0,0.0,0.0,-2.34913,-7.04738,-11.11538,10.03,-0.08,-0.52,4.0
1758088681.36608,1758088678.53267,0.0,0.0,0.0,-3.95341,-6.8182,-10.19865,9.75,0.0,-0.47,4.0
1758088681.36924,1758088678.54267,0.0,0.0,0.0,-6.13065,-4.46907,-8.59437,9.4,-0.04,-0.36,4.0
1758088681.37077,1758088678.55267,0.0,0.0,0.0,-7.50575,-3.38045,-7.79223,9.4,-0.04,-0.36,4.0
1758088681.3752,1758088678.56267,0.0,0.0,0.0,-9.05273,-2.00535,-6.8182,8.67,-0.21,-0.23,4.0
1758088681.37666,1758088678.57267,0.0,0.0,0.0,-10.71431,-1.3751,-5.50039,8.67,-0.21,-0.23,4.0
1758088681.38029,1758088678.58267,0.0,0.0,0.0,-11.57375,-1.60428,-4.29718,7.9,-0.38,-0.17,4.0
1758088681.38095,1758088678.59267,0.0,0.0,0.0,-12.204,-3.32316,-2.92208,7.9,-0.38,-0.17,4.0
1758088681.38291,1758088678.60267,0.0,0.0,0.0,-12.54778,-8.136,-1.20321,6.87,-0.52,0.17,4.0
1758088681.39992,1758088678.61267,0.0,0.0,0.0,-12.83425,-18.9649,1.60428,6.87,-0.52,0.17,4.0
1758088681.42476,1758088678.62267,0.0,0.0,0.0,-12.54778,-22.51724,4.98473,5.88,-0.57,0.98,4.0
1758088681.4268,1758088678.63267,0.0,0.0,0.0,-11.34457,-20.22541,8.93814,7.99,-0.52,2.9,4.0
1758088681.43219,1758088678.64267,0.0,0.0,0.0,-9.91217,-17.18874,12.37589,7.99,-0.52,2.9,4.0
1758088681.43341,1758088678.65267,0.0,0.0,0.0,-5.21392,-32.83048,18.33465,10.86,-1.13,3.85,4.0
1758088681.4552,1758088678.66267,0.0,0.0,0.0,-3.66693,-43.4875,21.7151,10.86,-1.13,3.85,4.0
1758088681.46034,1758088678.67267,0.0,0.0,0.0,-2.86479,-50.64947,25.15285,14.29,-0.47,5.34,4.0
1758088681.46159,1758088678.68267,0.0,0.0,0.0,-0.17189,-49.27437,31.85646,14.29,-0.47,5.34,4.0
1758088681.4772,1758088678.69267,0.0,0.0,0.0,4.0107,-29.9084,40.45082,19.82,1.85,3.21,4.0
1758088681.4951,1758088678.70267,0.0,0.0,0.0,6.53172,-10.94349,44.00316,19.29,2.31,-0.49,4.0
1758088681.49744,1758088678.71267,0.0,0.0,0.0,7.44845,10.65701,43.65939,19.29,2.31,-0.49,4.0
1758088681.50297,1758088678.72267,0.0,0.0,0.0,7.33386,29.27814,40.68,16.25,0.08,-0.5,4.0
1758088681.51936,1758088678.73267,0.0,0.0,0.0,5.61499,50.01921,32.6013,16.25,0.08,-0.5,4.0
1758088681.52506,1758088678.74267,0.0,0.0,0.0,5.90147,57.86874,26.12688,14.41,-1.13,0.78,4.0
1758088681.54203,1758088678.75267,0.0,0.0,0.0,7.39116,60.79083,19.42327,14.41,-1.13,0.78,4.0
1758088681.5461,1758088678.76267,0.0,0.0,0.0,9.62569,54.25911,13.40721,14.51,-1.35,2.07,4.0
1758088681.56144,1758088678.77267,0.0,0.0,0.0,11.74564,40.50812,6.53172,14.71,-0.74,2.08,4.0
1758088681.56278,1758088678.78267,0.0,0.0,0.0,12.77696,34.14828,4.46907,14.71,-0.74,2.08,4.0
1758088681.57724,1758088678.79267,0.0,0.0,0.0,14.49583,34.49206,4.58366,13.58,0.14,0.99,4.0
1758088681.59324,1758088678.80267,0.0,0.0,0.0,15.12609,51.5662,5.4431,13.58,0.14,0.99,4.0
1758088681.5944,1758088678.81267,0.0,0.0,0.0,16.3293,60.96271,5.78687,12.43,0.35,1.12,4.0
1758088681.6094,1758088678.82267,0.0,0.0,0.0,17.01685,58.55629,4.92744,12.43,0.35,1.12,4.0
1758088681.61035,1758088678.83267,0.0,0.0,0.0,17.24603,47.72739,3.26586,8.76,0.25,1.52,4.0
1758088681.62582,1758088678.84267,0.0,0.0,0.0,16.38659,32.71589,0.0,8.76,0.25,1.1,4.0
1758088681.64127,1758088678.85267,0.0,0.0,0.0,15.29797,26.47065,-1.83346,7.3,0.25,1.1,4.0
1758088681.64331,1758088678.86267,0.0,0.0,0.0,14.03747,21.94428,-3.26586,7.41,0.12,0.98,4.0
1758088681.6603,1758088678.87267,0.0,0.0,0.0,12.49048,18.62113,-4.46907,7.41,0.12,0.98,4.0
1758088681.66146,1758088678.88267,0.0,0.0,0.0,9.91217,14.61043,-4.87014,7.13,-0.01,1.05,4.0
1758088681.67625,1758088678.89267,0.0,0.0,0.0,7.96411,12.54778,-4.52637,7.13,-0.01,1.05,4.0
1758088681.69322,1758088678.90267,0.0,0.0,0.0,5.84417,11.63104,-3.32316,6.87,0.09,0.93,4.0
1758088681.6949,1758088678.91267,0.0,0.0,0.0,4.0107,12.204,-2.00535,6.87,0.09,0.93,4.0
1758088681.70931,1758088678.92267,0.0,0.0,0.0,1.94806,13.46451,0.85944,6.78,0.32,0.69,4.0
1758088681.71044,1758088678.93267,0.0,0.0,0.0,0.80214,13.46451,2.6929,6.48,0.47,0.59,4.0
1758088681.72665,1758088678.94267,0.0,0.0,0.0,-0.80214,12.08941,4.52637,6.48,0.47,0.59,4.0
1758088681.7433,1758088678.95267,0.0,0.0,0.0,-2.11994,8.88085,6.41713,6.2,0.45,0.42,4.0
1758088681.7509,1758088678.96267,0.0,0.0,0.0,-4.64096,4.98473,10.25595,6.2,0.45,0.42,4.0
1758088681.75151,1758088678.97267,0.0,0.0,0.0,-6.7609,2.40642,12.83425,6.55,0.29,0.21,4.0
1758088681.76919,1758088678.98267,0.0,0.0,0.0,-8.99544,-1.20321,15.64175,6.55,0.29,0.21,4.0
1758088681.77075,1758088678.99267,0.0,0.0,0.0,-12.60507,-6.47442,20.51189,7.08,0.16,0.27,4.0
1758088681.78596,1758088679.00267,0.0,0.0,0.0,-14.9542,-13.34992,23.89234,7.8,0.1,0.26,4.0
1758088681.80324,1758088679.01267,0.0,0.0,0.0,-17.18874,-16.10011,27.10091,7.8,0.1,0.26,4.0
1758088681.80492,1758088679.02267,0.0,0.0,0.0,-19.13679,-19.19409,29.62192,8.42,0.02,0.17,4.0
1758088681.82038,1758088679.03267,0.0,0.0,0.0,-21.7151,-23.66316,31.79916,8.42,0.02,0.17,4.0
1758088681.82236,1758088679.04267,0.0,0.0,0.0,-22.74642,-25.8404,31.85646,8.29,-0.09,0.04,4.0
1758088681.83928,1758088679.05267,0.0,0.0,0.0,-22.97561,-28.70519,30.36677,8.29,-0.09,0.04,4.0
1758088681.8404,1758088679.06267,0.0,0.0,0.0,-22.51724,-31.97105,27.84575,8.03,-0.31,-0.02,4.0
1758088681.86261,1758088679.07267,0.0,0.0,0.0,-20.34,-33.80451,22.23076,8.26,-0.31,0.19,4.0
1758088681.86482,1758088679.08267,0.0,0.0,0.0,-18.27736,-31.51268,18.16276,8.26,-0.56,0.19,4.0
1758088681.88064,1758088679.09267,0.0,0.0,0.0,-16.3293,-27.33009,14.61043,8.96,-0.78,0.18,4.0
1758088681.88349,1758088679.10267,0.0,0.0,0.0,-14.20935,-22.63183,12.14671,8.96,-0.78,0.18,4.0
1758088681.89944,1758088679.11267,0.0,0.0,0.0,-10.8862,-19.13679,10.37054,9.07,-0.99,0.04,4.0
1758088681.90064,1758088679.12267,0.0,0.0,0.0,-8.59437,-17.93358,10.65701,9.07,-0.99,0.04,4.0
1758088681.916,1758088679.13267,0.0,0.0,0.0,-6.18794,-18.9649,12.08941,9.02,-1.3,0.07,4.0
1758088681.93321,1758088679.14267,0.0,0.0,0.0,-3.89611,-20.74107,14.43854,9.02,-1.3,0.07,4.0
1758088681.93445,1758088679.15267,0.0,0.0,0.0,-1.08862,-24.63719,16.84496,8.7,-1.45,-0.15,4.0
1758088681.94946,1758088679.16267,0.0,0.0,0.0,0.34377,-25.49662,17.99088,8.69,-1.31,-0.29,4.0
1758088681.95058,1758088679.17267,0.0,0.0,0.0,2.06265,-24.23611,19.25138,8.69,-1.31,-0.29,4.0
1758088681.96595,1758088679.18267,0.0,0.0,0.0,3.95341,-20.51189,20.97026,9.12,-1.14,-0.61,4.0
1758088681.98222,1758088679.19267,0.0,0.0,0.0,6.70361,-12.60507,22.05888,9.12,-1.14,-0.61,4.0
1758088681.98507,1758088679.20267,0.0,0.0,0.0,8.36518,-8.99544,22.91831,9.64,-1.14,-0.8,4.0
1758088682.02433,1758088679.21267,0.0,0.0,0.0,10.02676,-7.39116,23.54857,9.64,-1.14,-0.8,4.0
1758088682.02553,1758088679.22267,0.0,0.0,0.0,12.43318,-8.25059,23.89234,9.6,-1.28,-0.93,4.0
1758088682.02615,1758088679.23267,0.0,0.0,0.0,14.03747,-9.5684,23.26209,9.38,-1.45,-1.14,4.0
1758088682.02977,1758088679.24267,0.0,0.0,0.0,15.64175,-10.8289,22.05888,9.38,-1.45,-1.14,4.0
1758088682.03041,1758088679.25267,0.0,0.0,0.0,16.90226,-11.74564,19.99623,9.04,-1.45,-0.99,4.0
1758088682.04762,1758088679.26267,0.0,0.0,0.0,18.33465,-14.03747,16.272,9.04,-1.45,-0.99,4.0
1758088682.06518,1758088679.27267,0.0,0.0,0.0,19.13679,-15.87093,13.75099,8.36,-1.27,-1.12,4.0
1758088682.06708,1758088679.28267,0.0,0.0,0.0,19.70975,-17.18874,11.45916,8.36,-1.27,-1.12,4.0
1758088682.08345,1758088679.29267,0.0,0.0,0.0,19.48057,-17.24603,8.65166,7.8,-0.93,-1.04,4.0
1758088682.08485,1758088679.30267,0.0,0.0,0.0,18.90761,-17.24603,5.15662,7.09,-0.41,-0.71,4.0
1758088682.10051,1758088679.31267,0.0,0.0,0.0,17.13144,-17.24603,2.46372,7.09,-0.41,-0.71,4.0
1758088682.10225,1758088679.32267,0.0,0.0,0.0,15.29797,-18.27736,0.74485,6.48,-0.14,0.92,4.0
1758088682.11906,1758088679.33267,0.0,0.0,0.0,13.40721,-20.45459,-2.00535,6.48,-0.14,0.92,4.0
1758088682.12064,1758088679.34267,0.0,0.0,0.0,9.85487,-37.52874,-6.87549,7.82,-0.97,4.53,4.0
1758088682.13546,1758088679.35267,0.0,0.0,0.0,5.4431,-46.06581,-8.65166,7.82,-0.97,4.53,4.0
1758088682.15278,1758088679.36267,0.0,0.0,0.0,3.26586,-53.34238,-10.08406,12.82,-1.32,6.2,4.0
1758088682.1537,1758088679.37267,0.0,0.0,0.0,2.63561,-57.86874,-13.69369,12.82,-1.32,6.2,4.0
1758088682.1688,1758088679.38267,0.0,0.0,0.0,0.34377,-74.25533,-19.53786,18.6,-2.94,6.38,4.0
1758088682.16972,1758088679.39267,0.0,0.0,0.0,-5.55769,-80.72976,-22.97561,17.57,-4.54,0.32,4.0
1758088682.18579,1758088679.40267,0.0,0.0,0.0,-9.62569,-58.09792,-24.35071,17.57,-4.54,0.32,4.0
1758088682.20355,1758088679.41267,0.0,0.0,0.0,-6.87549,-5.72958,-21.31403,18.72,-2.44,-2.12,4.0
1758088682.2061,1758088679.42267,0.0,0.0,0.0,-2.23454,20.22541,-19.88164,18.72,-2.44,-2.12,4.0
1758088682.23512,1758088679.43267,0.0,0.0,0.0,3.09397,32.08564,-16.38659,15.59,-1.79,0.58,4.0
1758088682.23721,1758088679.44267,0.0,0.0,0.0,5.84417,37.75792,-15.24068,15.59,-1.79,0.58,4.0
1758088682.241,1758088679.45267,0.0,0.0,0.0,5.32851,43.65939,-17.18874,14.99,-2.1,1.44,4.0
1758088682.24542,1758088679.46267,0.0,0.0,0.0,4.87014,45.26366,-19.07949,16.78,-2.46,1.28,4.0
1758088682.26057,1758088679.47267,0.0,0.0,0.0,5.21392,47.95657,-20.97026,16.78,-2.46,1.28,4.0
1758088682.26178,1758088679.48267,0.0,0.0,0.0,5.61499,52.76942,-22.97561,15.84,-2.53,0.98,4.0
1758088682.27652,1758088679.49267,0.0,0.0,0.0,6.70361,59.41573,-25.38203,15.84,-2.53,0.98,4.0
1758088682.29359,1758088679.50267,0.0,0.0,0.0,7.79223,59.81679,-26.01229,13.3,-2.78,0.74,4.0
1758088682.29747,1758088679.51267,0.0,0.0,0.0,9.33921,56.60823,-25.26744,13.3,-2.78,0.74,4.0
1758088682.31363,1758088679.52267,0.0,0.0,0.0,11.00079,49.90463,-23.83505,10.93,-2.52,0.63,4.0
1758088682.31532,1758088679.53267,0.0,0.0,0.0,14.43854,38.27358,-19.76705,9.63,-2.06,1.03,4.0
1758088682.33058,1758088679.54267,0.0,0.0,0.0,17.24603,33.74722,-17.13144,9.63,-2.06,1.03,4.0
1758088682.33332,1758088679.55267,0.0,0.0,0.0,20.79837,36.21093,-14.43854,9.47,-1.85,0.88,4.0
1758088682.34882,1758088679.56267,0.0,0.0,0.0,26.06958,44.11775,-11.28727,9.47,-1.85,0.88,4.0
1758088682.34979,1758088679.57267,0.0,0.0,0.0,28.87707,58.55629,-8.47978,9.4,-1.78,0.73,4.0
1758088682.36586,1758088679.58267,0.0,0.0,0.0,30.93972,64.85883,-7.96411,9.4,-1.78,0.73,4.0
1758088682.38188,1758088679.59267,0.0,0.0,0.0,33.23156,58.49899,-6.47442,7.68,-1.67,1.03,4.0
1758088682.38447,1758088679.60267,0.0,0.0,0.0,36.6693,43.25832,-3.55234,7.68,-1.67,1.03,4.0
1758088682.39984,1758088679.61267,0.0,0.0,0.0,38.27358,19.76705,-2.23454,5.38,-1.63,0.6,4.0
1758088682.40082,1758088679.62267,0.0,0.0,0.0,39.19032,11.00079,-1.71887,5.95,-1.53,-0.08,4.0
1758088682.41587,1758088679.63267,0.0,0.0,0.0,40.10705,6.47442,-1.66158,5.95,-1.53,-0.08,4.0
1758088682.4355,1758088679.64267,0.0,0.0,0.0,40.62271,1.3178,-2.40642,6.53,-1.16,0.23,4.0
1758088682.43974,1758088679.65267,0.0,0.0,0.0,40.7946,-3.20856,-3.49504,6.53,-1.16,0.23,4.0
1758088682.44018,1758088679.66267,0.0,0.0,0.0,41.13837,-8.25059,-4.58366,6.37,-0.82,0.3,4.0
1758088682.45949,1758088679.67267,0.0,0.0,0.0,41.13837,-13.12073,-5.90147,6.37,-0.82,0.3,4.0
1758088682.46049,1758088679.68267,0.0,0.0,0.0,41.71133,-19.36597,-8.65166,6.3,-0.65,0.09,4.0
1758088682.47584,1758088679.69267,0.0,0.0,0.0,41.94051,-22.63183,-10.71431,6.65,-0.61,0.2,4.0
1758088682.49473,1758088679.70267,0.0,0.0,0.0,41.88322,-25.8404,-12.83425,6.65,-0.61,0.2,4.0
1758088682.49596,1758088679.71267,0.0,0.0,0.0,41.99781,-29.10626,-14.83961,6.98,-0.72,0.19,4.0
1758088682.51102,1758088679.72267,0.0,0.0,0.0,41.31026,-32.54401,-17.01685,6.98,-0.72,0.19,4.0
1758088682.51505,1758088679.73267,0.0,0.0,0.0,41.02378,-33.23156,-17.81899,7.53,-0.8,0.08,4.0
