timeStamp,timeStampAlign,roll,pitch,yaw,gyro_x,gyro_y,gyro_z,acc_x,acc_y,acc_z,flag_num
1758075707.22392,1758075707.24198,0.0,0.0,0.0,0.0,44.40423,-1.77617,10.11,-0.79,-0.37,2.0
1758075707.22517,1758075707.25198,0.0,0.0,0.0,3.26586,48.12846,-0.40107,10.04,-1.24,-0.43,2.0
1758075707.2401,1758075707.26198,0.0,0.0,0.0,9.74028,50.13381,1.3178,10.04,-1.24,-0.43,2.0
1758075707.25606,1758075707.27198,0.0,0.0,0.0,14.15206,49.27437,2.11994,9.58,-1.59,-0.36,2.0
1758075707.2572,1758075707.28198,0.0,0.0,0.0,18.73572,47.26902,2.92208,9.58,-1.59,-0.36,2.0
1758075707.27206,1758075707.29198,0.0,0.0,0.0,23.26209,42.22699,3.60963,9.35,-1.84,-0.44,2.0
1758075707.27325,1758075707.30198,0.0,0.0,0.0,28.36141,25.72581,2.92208,8.5,-1.84,-0.33,2.0
1758075707.29044,1758075707.31198,0.0,0.0,0.0,31.91375,16.61578,2.00535,8.5,-1.84,-0.33,2.0
1758075707.30699,1758075707.32198,0.0,0.0,0.0,33.86181,12.60507,-0.34377,8.76,-1.63,-0.22,2.0
1758075707.3089,1758075707.33198,0.0,0.0,0.0,35.98175,15.75634,-2.23454,8.76,-1.63,-0.22,2.0
1758075707.32509,1758075707.34198,0.0,0.0,0.0,40.10705,23.83505,0.0573,9.73,-1.5,0.22,2.0
1758075707.3263,1758075707.35198,0.0,0.0,0.0,41.48215,27.67386,0.57296,9.73,-1.5,0.22,2.0
1758075707.34109,1758075707.36198,0.0,0.0,0.0,41.76862,28.70519,1.3178,9.51,-1.23,0.93,2.0
1758075707.35737,1758075707.37198,0.0,0.0,0.0,42.85724,13.00614,0.40107,9.51,-1.23,0.93,2.0
1758075707.3583,1758075707.38198,0.0,0.0,0.0,42.1124,-26.52795,-1.3751,8.08,-1.02,1.37,2.0
1758075707.37305,1758075707.39198,0.0,0.0,0.0,46.52417,-64.80153,6.53172,4.87,-1.44,1.2,2.0
1758075707.37424,1758075707.40198,0.0,0.0,0.0,46.98254,-84.39669,14.38124,4.87,-1.44,1.2,2.0
1758075707.39017,1758075707.41198,0.0,0.0,0.0,41.48215,-101.70002,24.80907,9.16,-1.2,5.64,2.0
1758075707.40615,1758075707.42198,0.0,0.0,0.0,40.04975,-117.45636,41.25296,9.16,-1.2,5.64,2.0
1758075707.40733,1758075707.43198,0.0,0.0,0.0,38.56006,-112.58621,53.05589,13.06,1.68,6.29,2.0
1758075707.42216,1758075707.44198,0.0,0.0,0.0,35.52338,-95.56937,58.26981,13.06,1.68,6.29,2.0
1758075707.4242,1758075707.45198,0.0,0.0,0.0,29.8511,-81.24542,53.51426,17.02,4.25,2.1,2.0
1758075707.44145,1758075707.46198,0.0,0.0,0.0,25.49662,-79.81302,41.99781,13.06,2.98,0.8,2.0
1758075707.45796,1758075707.47198,0.0,0.0,0.0,21.7724,-79.35466,25.15285,13.06,2.98,0.8,2.0
1758075707.45917,1758075707.48198,0.0,0.0,0.0,19.25138,-70.47381,8.30789,11.37,0.44,1.26,2.0
1758075707.47439,1758075707.49198,0.0,0.0,0.0,20.97026,-62.56699,-10.02676,11.37,0.44,1.26,2.0
1758075707.47534,1758075707.50198,0.0,0.0,0.0,25.61122,-55.57691,-17.58981,10.33,-0.73,1.45,2.0
1758075707.49006,1758075707.51198,0.0,0.0,0.0,32.48671,-46.06581,-20.51189,10.33,-0.73,1.45,2.0
1758075707.50649,1758075707.52198,0.0,0.0,0.0,41.25296,-36.32552,-20.16812,10.3,-0.51,1.5,2.0
1758075707.50846,1758075707.53198,0.0,0.0,0.0,54.88936,-23.31938,-15.87093,10.19,0.06,1.29,2.0
1758075707.52348,1758075707.54198,0.0,0.0,0.0,62.56699,-13.46451,-10.48513,10.19,0.06,1.29,2.0
1758075707.52463,1758075707.55198,0.0,0.0,0.0,68.52576,-3.55234,-5.95876,10.25,0.74,0.9,2.0
1758075707.53971,1758075707.56198,0.0,0.0,0.0,73.2813,7.10468,0.45837,10.25,0.74,0.9,2.0
1758075707.55546,1758075707.57198,0.0,0.0,0.0,73.91156,23.26209,3.49504,10.2,1.49,0.38,2.0
1758075707.55636,1758075707.58198,0.0,0.0,0.0,73.16672,34.72124,5.55769,10.2,1.49,0.38,2.0
1758075707.57119,1758075707.59198,0.0,0.0,0.0,71.21866,45.89392,6.70361,10.2,2.11,-0.03,2.0
1758075707.58719,1758075707.60198,0.0,0.0,0.0,67.89551,52.02457,6.18794,10.2,2.11,-0.03,2.0
1758075707.58843,1758075707.61198,0.0,0.0,0.0,66.00475,51.50891,5.09932,9.35,2.4,-0.22,2.0
1758075707.60351,1758075707.62198,0.0,0.0,0.0,63.94209,51.85268,3.66693,9.34,2.19,-0.07,2.0
1758075707.60447,1758075707.63198,0.0,0.0,0.0,61.42108,53.80074,1.14592,9.34,2.19,-0.07,2.0
1758075707.61927,1758075707.64198,0.0,0.0,0.0,55.97798,55.6915,-2.06265,10.08,1.95,-0.16,2.0
1758075707.63562,1758075707.65198,0.0,0.0,0.0,51.73809,57.63955,-3.60963,10.08,1.95,-0.16,2.0
1758075707.63643,1758075707.66198,0.0,0.0,0.0,47.15443,58.55629,-4.58366,10.15,2.05,0.0,2.0
1758075707.6515,1758075707.67198,0.0,0.0,0.0,42.91454,58.09792,-4.81285,10.15,2.05,0.0,2.0
1758075707.66724,1758075707.68198,0.0,0.0,0.0,37.52874,53.39967,-3.03668,9.63,2.36,0.1,2.0
1758075707.66837,1758075707.69198,0.0,0.0,0.0,34.0337,50.82136,-1.66158,9.66,2.47,0.39,2.0
1758075707.68351,1758075707.70198,0.0,0.0,0.0,30.19488,48.52953,-0.85944,9.66,2.47,0.39,2.0
1758075707.68477,1758075707.71198,0.0,0.0,0.0,26.24147,45.43555,-0.51566,9.7,2.47,0.58,2.0
1758075707.69975,1758075707.72198,0.0,0.0,0.0,20.05352,40.45082,-1.43239,9.7,2.47,0.58,2.0
1758075707.71558,1758075707.73198,0.0,0.0,0.0,15.98552,35.00772,-2.92208,9.28,2.51,0.63,2.0
1758075707.71768,1758075707.74198,0.0,0.0,0.0,11.91752,30.59595,-4.29718,9.28,2.51,0.63,2.0
1758075707.73252,1758075707.75198,0.0,0.0,0.0,8.30789,27.73116,-5.61499,8.91,2.5,0.62,2.0
1758075707.73349,1758075707.76198,0.0,0.0,0.0,3.32316,23.94964,-5.61499,8.96,2.37,0.47,2.0
1758075707.74962,1758075707.77198,0.0,0.0,0.0,0.22918,20.11082,-5.09932,8.96,2.37,0.47,2.0
1758075707.76652,1758075707.78198,0.0,0.0,0.0,-2.34913,15.92823,-4.0107,8.83,2.14,0.41,2.0
1758075707.7675,1758075707.79198,0.0,0.0,0.0,-5.27121,8.88085,-2.06265,8.83,2.14,0.41,2.0
1758075707.78257,1758075707.80198,0.0,0.0,0.0,-6.99009,3.72423,-0.51566,8.85,1.83,0.22,2.0
1758075707.78461,1758075707.81198,0.0,0.0,0.0,-8.65166,-2.11994,0.57296,8.85,1.83,0.22,2.0
1758075707.8006,1758075707.82198,0.0,0.0,0.0,-9.91217,-10.71431,1.66158,8.74,1.69,0.06,2.0
1758075707.8166,1758075707.83198,0.0,0.0,0.0,-12.54778,-23.0902,3.20856,8.74,1.69,-0.18,2.0
1758075707.81755,1758075707.84198,0.0,0.0,0.0,-14.32395,-12.71966,4.46907,8.62,1.66,-0.18,2.0
1758075707.83232,1758075707.85198,0.0,0.0,0.0,-19.07949,23.66316,2.29183,12.58,1.85,-0.12,2.0
1758075707.8343,1758075707.86198,0.0,0.0,0.0,-18.73572,42.05511,8.93814,12.58,1.85,-0.12,2.0
1758075707.85399,1758075707.87198,0.0,0.0,0.0,-26.06958,2.40642,-0.40107,9.32,2.44,0.87,2.0
1758075707.85504,1758075707.88198,0.0,0.0,0.0,-29.62192,-16.73037,-1.43239,9.32,2.44,0.87,2.0
1758075707.87145,1758075707.89198,0.0,0.0,0.0,-32.6013,-26.98631,-5.61499,8.01,2.58,-0.5,2.0
1758075707.88761,1758075707.90198,0.0,0.0,0.0,-34.77854,-21.7724,-7.10468,8.01,2.58,-0.5,2.0
1758075707.88857,1758075707.91198,0.0,0.0,0.0,-37.24226,-6.87549,-7.73493,10.62,2.24,-0.3,2.0
1758075707.90343,1758075707.92198,0.0,0.0,0.0,-36.84119,-2.63561,-6.53172,10.39,1.78,0.04,2.0
1758075707.90533,1758075707.93198,0.0,0.0,0.0,-34.37747,-1.08862,-4.98473,10.39,1.78,0.04,2.0
1758075707.92051,1758075707.94198,0.0,0.0,0.0,-31.2262,1.77617,-3.49504,9.96,1.24,0.93,2.0
1758075707.93662,1758075707.95198,0.0,0.0,0.0,-26.35606,5.50039,-0.97403,9.96,1.24,0.93,2.0
1758075707.93836,1758075707.96198,0.0,0.0,0.0,-22.86102,2.23454,0.17189,9.78,0.52,1.0,2.0
1758075707.95338,1758075707.97198,0.0,0.0,0.0,-18.44924,-5.15662,0.11459,9.78,0.52,1.0,2.0
1758075707.95458,1758075707.98198,0.0,0.0,0.0,-10.8862,-14.43854,-2.6929,9.63,-0.1,2.41,2.0
1758075707.96945,1758075707.99198,0.0,0.0,0.0,-5.72958,-23.49127,-6.70361,10.99,-0.58,2.57,2.0
1758075707.98644,1758075708.00198,0.0,0.0,0.0,-0.68755,-25.43933,-11.57375,10.99,-0.58,2.57,2.0
1758075707.9873,1758075708.01198,0.0,0.0,0.0,3.72423,-21.7151,-16.04282,12.21,-0.42,2.28,2.0
1758075708.00243,1758075708.02198,0.0,0.0,0.0,8.76626,-13.98017,-18.9649,12.21,-0.42,2.28,2.0
1758075708.0036,1758075708.03198,0.0,0.0,0.0,10.37054,-8.65166,-17.58981,11.24,0.33,1.68,2.0
1758075708.02128,1758075708.04198,0.0,0.0,0.0,10.59972,-3.32316,-13.46451,11.24,0.33,1.68,2.0
1758075708.0367,1758075708.05198,0.0,0.0,0.0,9.62569,-0.0573,-8.42248,9.43,1.39,1.24,2.0
1758075708.03759,1758075708.06198,0.0,0.0,0.0,6.99009,-0.80214,-1.14592,8.38,2.21,1.37,2.0
1758075708.05264,1758075708.07198,0.0,0.0,0.0,4.81285,-4.69825,2.63561,8.38,2.21,1.37,2.0
1758075708.05358,1758075708.08198,0.0,0.0,0.0,2.63561,-9.62569,4.98473,8.48,2.63,1.61,2.0
1758075708.0707,1758075708.09198,0.0,0.0,0.0,0.45837,-14.78231,6.41713,8.48,2.63,1.61,2.0
1758075708.08642,1758075708.10198,0.0,0.0,0.0,-3.03668,-27.44468,8.42248,9.22,2.54,1.66,2.0
1758075708.08757,1758075708.11198,0.0,0.0,0.0,-6.8182,-31.16891,7.67763,9.22,2.54,1.66,2.0
1758075708.10238,1758075708.12198,0.0,0.0,0.0,-11.57375,-36.38282,6.18794,10.49,2.05,1.92,2.0
1758075708.10359,1758075708.13198,0.0,0.0,0.0,-17.01685,-41.94051,3.66693,10.49,2.05,1.92,2.0
1758075708.12129,1758075708.14198,0.0,0.0,0.0,-26.18417,-51.39432,-0.80214,10.23,1.6,1.95,2.0
1758075708.13669,1758075708.15198,0.0,0.0,0.0,-32.88778,-54.94666,-4.52637,9.48,1.19,1.73,2.0
1758075708.13766,1758075708.16198,0.0,0.0,0.0,-39.64868,-55.6915,-8.136,9.48,1.19,1.73,2.0
1758075708.15247,1758075708.17198,0.0,0.0,0.0,-46.1231,-54.08722,-13.34992,9.15,0.7,1.54,2.0
1758075708.15562,1758075708.18198,0.0,0.0,0.0,-52.65482,-47.95657,-16.10011,9.15,0.7,1.54,2.0
1758075708.17173,1758075708.19198,0.0,0.0,0.0,-54.48829,-41.76862,-17.99088,9.35,0.04,1.44,2.0
1758075708.18779,1758075708.20198,0.0,0.0,0.0,-53.74345,-33.86181,-18.73572,9.35,0.04,1.44,2.0
1758075708.18901,1758075708.21198,0.0,0.0,0.0,-48.35764,-17.18874,-18.10547,10.36,-0.78,0.93,2.0
1758075708.20438,1758075708.22198,0.0,0.0,0.0,-42.34158,-4.87014,-16.21471,11.68,-1.49,0.28,2.0
1758075708.20697,1758075708.23198,0.0,0.0,0.0,-35.40879,8.42248,-13.69369,11.68,-1.49,0.28,2.0
1758075708.22249,1758075708.24198,0.0,0.0,0.0,-28.87707,21.60051,-10.71431,12.22,-1.67,-0.03,2.0
1758075708.22481,1758075708.25198,0.0,0.0,0.0,-21.42862,35.75257,-6.58902,12.22,-1.67,-0.03,2.0
1758075708.24078,1758075708.26198,0.0,0.0,0.0,-18.44924,39.19032,-3.60963,11.47,-1.13,0.07,2.0
1758075708.2574,1758075708.27198,0.0,0.0,0.0,-16.55848,40.27893,-1.14592,11.47,-1.13,0.07,2.0
1758075708.26041,1758075708.28198,0.0,0.0,0.0,-16.272,41.13837,1.66158,10.82,-0.38,0.15,2.0
1758075708.27584,1758075708.29198,0.0,0.0,0.0,-17.53251,46.46688,4.1253,11.0,0.09,-0.09,2.0
1758075708.27701,1758075708.30198,0.0,0.0,0.0,-18.44924,48.70141,4.64096,11.0,0.09,-0.09,2.0
1758075708.29282,1758075708.31198,0.0,0.0,0.0,-18.62113,48.75871,4.52637,10.21,0.17,-0.06,2.0
1758075708.29369,1758075708.32198,0.0,0.0,0.0,-17.93358,48.52953,4.35448,10.21,0.17,-0.06,2.0
1758075708.30978,1758075708.33198,0.0,0.0,0.0,-15.06879,47.49821,5.61499,9.61,-0.2,0.01,2.0
1758075708.32569,1758075708.34198,0.0,0.0,0.0,-12.37589,48.30034,7.67763,9.61,-0.2,0.01,2.0
1758075708.32717,1758075708.35198,0.0,0.0,0.0,-9.62569,50.13381,9.96947,9.51,-0.79,-0.1,2.0
1758075708.34154,1758075708.36198,0.0,0.0,0.0,-6.41713,51.45161,12.49048,9.51,-0.79,-0.1,2.0
1758075708.35778,1758075708.37198,0.0,0.0,0.0,-1.94806,53.62885,14.78231,9.39,-1.28,-0.16,2.0
1758075708.35905,1758075708.38198,0.0,0.0,0.0,1.3751,53.74345,15.69904,9.23,-1.61,-0.02,2.0
1758075708.37355,1758075708.39198,0.0,0.0,0.0,5.09932,53.68615,16.21471,9.23,-1.61,-0.02,2.0
1758075708.37505,1758075708.40198,0.0,0.0,0.0,10.94349,55.23313,15.06879,9.28,-1.81,-0.16,2.0
1758075708.38978,1758075708.41198,0.0,0.0,0.0,15.06879,55.23313,13.06344,9.28,-1.81,-0.16,2.0
1758075708.40578,1758075708.42198,0.0,0.0,0.0,19.53786,52.13916,10.25595,9.08,-1.89,-0.3,2.0
1758075708.40683,1758075708.43198,0.0,0.0,0.0,24.86637,46.69606,6.35983,9.08,-1.89,-0.3,2.0
1758075708.42186,1758075708.44198,0.0,0.0,0.0,32.14294,32.6013,0.11459,8.6,-1.95,-0.07,2.0
1758075708.43779,1758075708.45198,0.0,0.0,0.0,38.15899,25.15285,-3.83882,8.44,-2.16,-0.06,2.0
1758075708.4388,1758075708.46198,0.0,0.0,0.0,43.88857,27.44468,-6.13065,8.44,-2.16,-0.06,2.0
1758075708.45463,1758075708.47198,0.0,0.0,0.0,50.59217,32.08564,-4.35448,9.88,-2.63,0.22,2.0
1758075708.45556,1758075708.48198,0.0,0.0,0.0,58.21251,40.16434,-2.57831,9.88,-2.63,0.22,2.0
1758075708.47045,1758075708.49198,0.0,0.0,0.0,61.24919,38.50277,-0.51566,10.43,-2.5,0.99,2.0
1758075708.48787,1758075708.50198,0.0,0.0,0.0,65.37449,14.15206,-0.51566,10.43,-2.5,0.99,2.0
1758075708.48879,1758075708.51198,0.0,0.0,0.0,69.84356,-34.49206,6.70361,6.92,-1.87,1.71,2.0
1758075708.50542,1758075708.52198,0.0,0.0,0.0,76.66176,-75.63043,18.85031,7.19,-2.07,0.06,2.0
1758075708.50795,1758075708.53198,0.0,0.0,0.0,77.52119,-72.53646,23.72045,7.19,-2.07,0.06,2.0
1758075708.52383,1758075708.54198,0.0,0.0,0.0,76.77635,-70.41652,27.78845,10.28,-1.66,3.31,2.0
1758075708.52558,1758075708.55198,0.0,0.0,0.0,73.45319,-82.50593,31.85646,10.28,-1.66,3.31,2.0
1758075708.54087,1758075708.56198,0.0,0.0,0.0,66.69229,-111.32571,42.22699,9.92,0.29,6.27,2.0
1758075708.55661,1758075708.57198,0.0,0.0,0.0,61.07731,-110.17979,46.35228,9.92,0.29,6.27,2.0
1758075708.55785,1758075708.58198,0.0,0.0,0.0,55.11855,-102.96053,47.15443,14.25,2.54,4.44,2.0
1758075708.57282,1758075708.59198,0.0,0.0,0.0,47.61279,-98.31956,42.51347,14.25,2.54,4.44,2.0
1758075708.57461,1758075708.60198,0.0,0.0,0.0,43.83128,-89.95438,34.37747,14.51,3.51,1.54,2.0
1758075708.59134,1758075708.61198,0.0,0.0,0.0,41.13837,-82.90699,23.83505,12.61,1.8,0.65,2.0
1758075708.61169,1758075708.62198,0.0,0.0,0.0,38.78925,-74.42722,11.91752,12.61,1.8,0.65,2.0
1758075708.6136,1758075708.63198,0.0,0.0,0.0,39.19032,-59.87409,-0.45837,10.14,-0.02,0.33,2.0
1758075708.61427,1758075708.64198,0.0,0.0,0.0,41.02378,-54.3164,-6.8182,10.14,-0.02,0.33,2.0
1758075708.6298,1758075708.65198,0.0,0.0,0.0,44.17505,-50.363,-10.48513,8.11,-0.68,0.95,2.0
1758075708.65074,1758075708.66198,0.0,0.0,0.0,48.12846,-44.86259,-12.14671,8.11,-0.68,0.95,2.0
1758075708.65208,1758075708.67198,0.0,0.0,0.0,55.29043,-34.32018,-10.8289,7.7,-0.67,1.43,2.0
1758075708.66764,1758075708.68198,0.0,0.0,0.0,60.33246,-27.33009,-7.33386,8.48,0.0,1.57,2.0
1758075708.67097,1758075708.69198,0.0,0.0,0.0,65.43179,-20.79837,-2.23454,8.48,0.0,1.57,2.0
1758075708.68698,1758075708.70198,0.0,0.0,0.0,69.55708,-13.06344,3.89611,9.78,0.86,1.41,2.0
1758075708.69025,1758075708.71198,0.0,0.0,0.0,73.62508,1.43239,13.40721,9.78,0.86,1.41,2.0
1758075708.70637,1758075708.72198,0.0,0.0,0.0,75.22936,12.54778,18.73572,11.29,1.63,0.53,2.0
1758075708.70846,1758075708.73198,0.0,0.0,0.0,75.51585,25.26744,21.6578,11.29,1.63,0.53,2.0
1758075708.72459,1758075708.74198,0.0,0.0,0.0,75.34396,35.12231,22.34536,11.68,2.04,-0.25,2.0
1758075708.72647,1758075708.75198,0.0,0.0,0.0,74.59911,43.02913,21.94428,10.67,2.08,-0.73,2.0
1758075708.74168,1758075708.76198,0.0,0.0,0.0,73.68237,46.46688,20.85567,10.67,2.08,-0.73,2.0
1758075708.75775,1758075708.77198,0.0,0.0,0.0,71.73432,50.47758,18.73572,10.72,1.88,-0.63,2.0
1758075708.75894,1758075708.78198,0.0,0.0,0.0,69.15601,56.78012,13.34992,10.72,1.88,-0.63,2.0
1758075708.77372,1758075708.79198,0.0,0.0,0.0,63.31184,67.72362,9.11003,11.36,1.96,-0.34,2.0
1758075708.77497,1758075708.80198,0.0,0.0,0.0,58.4417,72.99483,5.61499,11.36,1.96,-0.34,2.0
1758075708.78997,1758075708.81198,0.0,0.0,0.0,53.34238,74.94289,2.92208,10.85,2.37,-0.04,2.0
1758075708.80678,1758075708.82198,0.0,0.0,0.0,46.69606,72.0208,1.3751,10.85,2.37,-0.04,2.0
1758075708.80832,1758075708.83198,0.0,0.0,0.0,42.68536,69.49979,1.08862,10.29,2.63,0.35,2.0
1758075708.82273,1758075708.84198,0.0,0.0,0.0,39.82057,65.2026,2.23454,10.33,2.56,0.91,2.0
1758075708.82396,1758075708.85198,0.0,0.0,0.0,37.58603,59.53032,3.55234,10.33,2.56,0.91,2.0
1758075708.84003,1758075708.86198,0.0,0.0,0.0,35.52338,50.64947,6.07335,9.98,2.17,1.15,2.0
1758075708.85593,1758075708.87198,0.0,0.0,0.0,34.09099,45.03448,6.7609,9.98,2.17,1.15,2.0
1758075708.8578,1758075708.88198,0.0,0.0,0.0,32.54401,38.1017,6.24524,9.52,1.82,1.47,2.0
1758075708.873,1758075708.89198,0.0,0.0,0.0,30.30947,29.96569,4.92744,9.52,1.82,1.47,2.0
1758075708.87396,1758075708.90198,0.0,0.0,0.0,25.55392,21.42862,0.57296,8.73,1.77,1.33,2.0
1758075708.88993,1758075708.91198,0.0,0.0,0.0,21.48592,19.82434,-2.92208,8.86,1.95,1.12,2.0
1758075708.90659,1758075708.92198,0.0,0.0,0.0,17.81899,18.9649,-6.24524,8.86,1.95,1.12,2.0
1758075708.90783,1758075708.93198,0.0,0.0,0.0,13.23533,17.13144,-10.02676,8.76,2.29,0.82,2.0
1758075708.92307,1758075708.94198,0.0,0.0,0.0,6.18794,12.37589,-14.15206,8.76,2.29,0.82,2.0
1758075708.92432,1758075708.95198,0.0,0.0,0.0,1.71887,8.36518,-15.64175,8.56,2.56,0.59,2.0
1758075708.94082,1758075708.96198,0.0,0.0,0.0,-2.40642,1.48969,-15.98552,8.56,2.56,0.59,2.0
1758075708.95713,1758075708.97198,0.0,0.0,0.0,-5.78687,-5.84417,-15.06879,8.38,2.42,0.15,2.0
1758075708.95879,1758075708.98198,0.0,0.0,0.0,-10.08406,-14.66772,-11.51645,8.79,2.1,-0.21,2.0
1758075708.97382,1758075708.99198,0.0,0.0,0.0,-12.77696,-19.70975,-8.99544,8.79,2.1,-0.21,2.0
1758075708.97525,1758075709.00198,0.0,0.0,0.0,-15.24068,-24.75178,-6.13065,9.12,1.7,-0.45,2.0
1758075708.98981,1758075709.01198,0.0,0.0,0.0,-19.13679,-16.67307,-1.48969,9.12,1.7,-0.45,2.0
1758075709.00591,1758075709.02198,0.0,0.0,0.0,-21.94428,17.58981,-2.11994,11.46,1.7,-0.48,2.0
1758075709.00892,1758075709.03198,0.0,0.0,0.0,-20.79837,32.48671,4.64096,11.46,1.7,-0.48,2.0
1758075709.02383,1758075709.04198,0.0,0.0,0.0,-26.18417,14.15206,-1.3751,11.13,1.86,0.35,2.0
1758075709.02508,1758075709.05198,0.0,0.0,0.0,-28.24682,-11.11538,-5.09932,11.13,1.86,0.35,2.0
1758075709.04006,1758075709.06198,0.0,0.0,0.0,-29.10626,-18.73572,-8.93814,8.03,2.05,0.22,2.0
1758075709.05614,1758075709.07198,0.0,0.0,0.0,-28.07493,-21.7151,-11.57375,9.48,1.87,-0.28,2.0
1758075709.05792,1758075709.08198,0.0,0.0,0.0,-28.30412,-20.05352,-14.09476,9.48,1.87,-0.28,2.0
1758075709.07311,1758075709.09198,0.0,0.0,0.0,-28.13223,-12.89155,-15.92823,10.5,1.69,1.01,2.0
1758075709.07406,1758075709.10198,0.0,0.0,0.0,-27.04361,-8.65166,-15.46986,10.5,1.69,1.01,2.0
1758075709.08984,1758075709.11198,0.0,0.0,0.0,-24.75178,-6.13065,-14.38124,10.83,1.37,1.78,2.0
1758075709.10653,1758075709.12198,0.0,0.0,0.0,-21.02755,-5.84417,-13.5791,10.83,1.37,1.78,2.0
1758075709.10777,1758075709.13198,0.0,0.0,0.0,-15.58445,-11.28727,-14.61043,10.93,0.51,2.28,2.0
1758075709.1231,1758075709.14198,0.0,0.0,0.0,-11.80293,-16.21471,-17.13144,11.07,-0.38,2.47,2.0
1758075709.12408,1758075709.15198,0.0,0.0,0.0,-8.47978,-18.79302,-20.45459,11.07,-0.38,2.47,2.0
1758075709.13993,1758075709.16198,0.0,0.0,0.0,-4.92744,-17.18874,-23.20479,11.48,-0.69,1.96,2.0
1758075709.15589,1758075709.17198,0.0,0.0,0.0,-0.80214,-7.67763,-24.63719,11.48,-0.69,1.96,2.0
1758075709.15705,1758075709.18198,0.0,0.0,0.0,1.08862,-0.45837,-21.6578,10.95,-0.26,1.37,2.0
1758075709.17273,1758075709.19198,0.0,0.0,0.0,1.94806,4.18259,-15.69904,10.95,-0.26,1.37,2.0
1758075709.17389,1758075709.20198,0.0,0.0,0.0,0.57296,3.49504,-5.09932,8.85,0.67,0.79,2.0
1758075709.19095,1758075709.21198,0.0,0.0,0.0,-1.94806,-0.68755,0.57296,7.45,1.58,0.77,2.0
1758075709.20691,1758075709.22198,0.0,0.0,0.0,-4.87014,-0.80214,5.21392,7.45,1.58,0.77,2.0
1758075709.20838,1758075709.23198,0.0,0.0,0.0,-8.02141,-0.40107,8.59437,8.18,2.32,0.94,2.0
1758075709.22293,1758075709.24198,0.0,0.0,0.0,-11.45916,0.80214,10.25595,8.18,2.32,0.94,2.0
1758075709.22407,1758075709.25198,0.0,0.0,0.0,-12.89155,-1.94806,9.11003,8.99,2.67,1.52,2.0
1758075709.23979,1758075709.26198,0.0,0.0,0.0,-13.86558,-8.0787,5.78687,8.99,2.67,1.52,2.0
1758075709.25621,1758075709.27198,0.0,0.0,0.0,-14.43854,-15.64175,1.08862,9.2,2.31,2.14,2.0
1758075709.25714,1758075709.28198,0.0,0.0,0.0,-15.92823,-25.09555,-7.62034,9.77,2.31,1.87,2.0
1758075709.27224,1758075709.29198,0.0,0.0,0.0,-17.24603,-29.73651,-12.77696,9.77,1.39,1.87,2.0
1758075709.27391,1758075709.30198,0.0,0.0,0.0,-18.85031,-38.15899,-15.75634,10.31,0.55,2.11,2.0
1758075709.28996,1758075709.31198,0.0,0.0,0.0,-20.68378,-43.88857,-16.84496,10.31,0.55,2.11,2.0
1758075709.30676,1758075709.32198,0.0,0.0,0.0,-23.94964,-48.9306,-15.58445,10.9,0.21,2.06,2.0
1758075709.31059,1758075709.33198,0.0,0.0,0.0,-26.81443,-52.82671,-12.89155,10.9,0.21,2.06,2.0
1758075709.32594,1758075709.34198,0.0,0.0,0.0,-29.67921,-55.7488,-9.22462,10.57,0.39,1.71,2.0
1758075709.32797,1758075709.35198,0.0,0.0,0.0,-32.42941,-55.34772,-5.09932,10.57,0.39,1.71,2.0
1758075709.34325,1758075709.36198,0.0,0.0,0.0,-35.63798,-47.49821,0.34377,10.32,0.67,1.27,2.0
1758075709.34492,1758075709.37198,0.0,0.0,0.0,-37.18496,-40.27893,2.57831,10.09,0.61,0.74,2.0
1758075709.36197,1758075709.38198,0.0,0.0,0.0,-37.92981,-32.6013,2.92208,10.09,0.61,0.74,2.0
1758075709.36393,1758075709.39198,0.0,0.0,0.0,-38.15899,-24.4653,1.48969,9.92,0.28,0.94,2.0
1758075709.37998,1758075709.40198,0.0,0.0,0.0,-36.7266,-12.204,-2.34913,9.92,0.28,0.94,2.0
1758075709.39622,1758075709.41198,0.0,0.0,0.0,-34.89313,-3.49504,-5.21392,10.35,-0.13,0.64,2.0
1758075709.39796,1758075709.42198,0.0,0.0,0.0,-32.48671,6.58902,-7.67763,10.35,-0.13,0.64,2.0
1758075709.41297,1758075709.43198,0.0,0.0,0.0,-28.99167,21.31403,-9.28192,11.2,-0.6,0.26,2.0
1758075709.41494,1758075709.44198,0.0,0.0,0.0,-27.1582,28.99167,-9.05273,11.44,-0.75,0.18,2.0
1758075709.4312,1758075709.45198,0.0,0.0,0.0,-26.06958,33.40344,-8.25059,11.44,-0.75,0.18,2.0
1758075709.44856,1758075709.46198,0.0,0.0,0.0,-25.38203,34.77854,-7.04738,10.96,-0.44,0.44,2.0
1758075709.44981,1758075709.47198,0.0,0.0,0.0,-25.09555,36.84119,-4.29718,10.96,-0.44,0.44,2.0
1758075709.465,1758075709.48198,0.0,0.0,0.0,-24.80907,40.16434,-2.23454,11.02,-0.11,0.36,2.0
1758075709.46882,1758075709.49198,0.0,0.0,0.0,-24.35071,42.34158,-0.11459,11.02,-0.11,0.36,2.0
1758075709.48408,1758075709.50198,0.0,0.0,0.0,-24.12152,43.54479,1.08862,10.61,-0.03,0.23,2.0
1758075709.48518,1758075709.51198,0.0,0.0,0.0,-23.0329,44.00316,2.34913,9.91,-0.11,0.3,2.0
1758075709.50001,1758075709.52198,0.0,0.0,0.0,-22.11617,43.65939,2.34913,9.91,-0.11,0.3,2.0
1758075709.51602,1758075709.53198,0.0,0.0,0.0,-20.74107,42.39888,2.34913,9.52,-0.31,0.37,2.0
1758075709.51905,1758075709.54198,0.0,0.0,0.0,-18.9649,40.10705,2.57831,9.52,-0.31,0.37,2.0
1758075709.53401,1758075709.55198,0.0,0.0,0.0,-15.24068,37.24226,4.1253,9.33,-0.65,0.55,2.0
1758075709.5352,1758075709.56198,0.0,0.0,0.0,-11.63104,35.2369,6.35983,9.33,-0.65,0.55,2.0
1758075709.5516,1758075709.57198,0.0,0.0,0.0,-7.62034,36.26823,8.76626,9.26,-1.1,0.48,2.0
1758075709.56828,1758075709.58198,0.0,0.0,0.0,-3.03668,39.3622,11.00079,9.26,-1.1,0.48,2.0
1758075709.56899,1758075709.59198,0.0,0.0,0.0,3.72423,42.39888,13.06344,9.5,-1.54,0.32,2.0
1758075709.58425,1758075709.60198,0.0,0.0,0.0,8.99544,41.99781,13.69369,9.15,-1.77,0.39,2.0
1758075709.5869,1758075709.61198,0.0,0.0,0.0,13.98017,38.1017,13.80828,9.15,-1.77,0.39,2.0
1758075709.60206,1758075709.62198,0.0,0.0,0.0,20.3973,30.36677,11.45916,8.59,-1.83,0.2,2.0
1758075709.61808,1758075709.63198,0.0,0.0,0.0,24.80907,18.9649,9.85487,8.59,-1.83,0.2,2.0
1758075709.62038,1758075709.64198,0.0,0.0,0.0,28.36141,14.09476,6.87549,8.69,-1.68,0.0,2.0
1758075709.63586,1758075709.65198,0.0,0.0,0.0,31.62727,17.81899,4.0107,8.69,-1.68,0.0,2.0
1758075709.63703,1758075709.66198,0.0,0.0,0.0,37.29956,35.92446,4.92744,10.2,-1.46,0.15,2.0
1758075709.65291,1758075709.67198,0.0,0.0,0.0,39.13302,46.35228,4.0107,11.42,-1.17,0.87,2.0
1758075709.65486,1758075709.68198,0.0,0.0,0.0,40.27893,49.15978,3.38045,11.42,-1.17,0.87,2.0
1758075709.67485,1758075709.69198,0.0,0.0,0.0,42.97184,26.75713,-0.22918,8.91,-0.61,1.63,2.0
1758075709.68083,1758075709.70198,0.0,0.0,0.0,48.01387,-30.59595,5.61499,8.91,-0.61,1.63,2.0
1758075709.6961,1758075709.71198,0.0,0.0,0.0,50.87865,-46.46688,10.54242,7.0,-0.86,0.16,2.0
1758075709.69809,1758075709.72198,0.0,0.0,0.0,49.15978,-41.36755,11.22997,7.0,-0.86,0.16,2.0
1758075709.71318,1758075709.73198,0.0,0.0,0.0,46.52417,-35.3515,12.204,10.28,-0.51,1.66,2.0
1758075709.71429,1758075709.74198,0.0,0.0,0.0,39.70598,-42.74266,13.5791,10.0,0.8,3.68,2.0
1758075709.73042,1758075709.75198,0.0,0.0,0.0,34.0337,-52.02457,15.0115,10.0,0.8,3.68,2.0
1758075709.74744,1758075709.76198,0.0,0.0,0.0,27.61657,-57.29578,17.18874,11.14,2.11,3.52,2.0
1758075709.74873,1758075709.77198,0.0,0.0,0.0,20.68378,-58.49899,19.70975,11.14,2.11,3.52,2.0
1758075709.76312,1758075709.78198,0.0,0.0,0.0,11.34457,-56.32175,22.68913,12.3,2.67,2.52,2.0
1758075709.76474,1758075709.79198,0.0,0.0,0.0,6.99009,-51.90998,23.20479,12.3,2.67,2.52,2.0
1758075709.78011,1758075709.80198,0.0,0.0,0.0,4.52637,-46.40959,22.57454,11.76,2.01,1.65,2.0
1758075709.79645,1758075709.81198,0.0,0.0,0.0,3.38045,-40.10705,18.62113,11.76,2.01,1.65,2.0
1758075709.79735,1758075709.82198,0.0,0.0,0.0,4.52637,-30.99702,15.46986,10.18,0.5,0.97,2.0
1758075709.81242,1758075709.83198,0.0,0.0,0.0,7.21927,-24.80907,12.37589,9.03,-0.79,0.95,2.0
1758075709.81654,1758075709.84198,0.0,0.0,0.0,10.8862,-19.25138,9.22462,9.03,-0.79,0.95,2.0
1758075709.83244,1758075709.85198,0.0,0.0,0.0,17.47521,-16.21471,5.32851,8.76,-1.55,1.42,2.0
1758075709.84813,1758075709.86198,0.0,0.0,0.0,22.00158,-16.61578,2.92208,8.76,-1.55,1.42,2.0
1758075709.84937,1758075709.87198,0.0,0.0,0.0,26.35606,-16.95955,1.08862,9.23,-1.78,1.76,2.0
1758075709.86524,1758075709.88198,0.0,0.0,0.0,30.36677,-15.69904,-0.22918,9.23,-1.78,1.76,2.0
1758075709.87011,1758075709.89198,0.0,0.0,0.0,35.86716,-13.40721,-0.80214,10.65,-1.53,1.61,2.0
1758075709.88539,1758075709.90198,0.0,0.0,0.0,39.3622,-11.34457,0.34377,11.4,-0.95,1.34,2.0
1758075709.88663,1758075709.91198,0.0,0.0,0.0,43.02913,-9.28192,2.57831,11.4,-0.95,1.34,2.0
1758075709.90124,1758075709.92198,0.0,0.0,0.0,46.81066,-7.50575,5.61499,10.82,-0.35,1.07,2.0
1758075709.91812,1758075709.93198,0.0,0.0,0.0,52.54023,-3.83882,10.59972,10.82,-0.35,1.07,2.0
1758075709.92018,1758075709.94198,0.0,0.0,0.0,56.32175,-0.45837,14.03747,9.78,0.01,0.95,2.0
1758075709.93514,1758075709.95198,0.0,0.0,0.0,59.53032,3.09397,17.01685,9.78,0.01,0.95,2.0
1758075709.93644,1758075709.96198,0.0,0.0,0.0,62.33781,8.0787,19.76705,9.1,0.35,0.93,2.0
1758075709.95199,1758075709.97198,0.0,0.0,0.0,65.2026,17.24603,22.51724,9.52,0.88,0.79,2.0
1758075709.96929,1758075709.98198,0.0,0.0,0.0,66.5204,24.80907,22.97561,9.52,0.88,0.79,2.0
1758075709.971,1758075709.99198,0.0,0.0,0.0,67.26525,32.48671,21.60051,10.52,1.45,0.35,2.0
1758075709.98622,1758075710.00198,0.0,0.0,0.0,66.635,39.99245,19.99623,10.52,1.45,0.35,2.0
1758075709.98776,1758075710.01198,0.0,0.0,0.0,64.22858,47.49821,16.21471,11.02,1.88,0.35,2.0
1758075710.00346,1758075710.02198,0.0,0.0,0.0,62.91077,47.61279,13.75099,11.02,1.88,0.35,2.0
1758075710.00468,1758075710.03198,0.0,0.0,0.0,61.30648,46.2377,11.00079,10.67,2.02,0.14,2.0
1758075710.0205,1758075710.04198,0.0,0.0,0.0,59.41573,41.88322,6.70361,10.67,2.02,0.14,2.0
1758075710.03797,1758075710.05198,0.0,0.0,0.0,57.81144,39.4195,3.72423,10.51,1.82,0.55,2.0
1758075710.03937,1758075710.06198,0.0,0.0,0.0,55.97798,35.86716,1.3178,10.17,1.53,0.44,2.0
1758075710.0561,1758075710.07198,0.0,0.0,0.0,54.14451,30.59595,-0.51566,10.17,1.53,0.44,2.0
1758075710.05704,1758075710.08198,0.0,0.0,0.0,51.45161,24.75178,-1.94806,9.7,1.42,0.73,2.0
1758075710.07222,1758075710.09198,0.0,0.0,0.0,49.38896,22.28806,-2.40642,9.7,1.42,0.73,2.0
1758075710.07736,1758075710.10198,0.0,0.0,0.0,46.75336,20.05352,-2.40642,9.68,1.57,0.88,2.0
1758075710.09348,1758075710.11198,0.0,0.0,0.0,43.60209,19.07949,-2.40642,9.68,1.57,0.88,2.0
1758075710.09677,1758075710.12198,0.0,0.0,0.0,38.21629,19.99623,-1.83346,9.49,1.91,0.84,2.0
1758075710.11248,1758075710.13198,0.0,0.0,0.0,34.77854,20.11082,-1.03132,9.25,2.17,0.8,2.0
1758075710.12937,1758075710.14198,0.0,0.0,0.0,31.56997,19.36597,0.22918,9.25,2.17,0.8,2.0
1758075710.13028,1758075710.15198,0.0,0.0,0.0,28.13223,18.22006,1.48969,8.89,2.17,0.7,2.0
1758075710.14557,1758075710.16198,0.0,0.0,0.0,22.23076,17.01685,2.29183,8.89,2.17,0.7,2.0
1758075710.17518,1758075710.17198,0.0,0.0,0.0,18.16276,16.38659,2.86479,8.68,2.23,0.45,2.0
1758075710.17578,1758075710.18198,0.0,0.0,0.0,13.86558,15.06879,3.09397,8.68,2.23,0.45,2.0
1758075710.20375,1758075710.19198,0.0,0.0,0.0,9.11003,12.37589,3.32316,8.58,2.49,0.23,2.0
1758075710.20439,1758075710.20198,0.0,0.0,0.0,1.3178,6.07335,3.26586,8.38,2.64,-0.01,2.0
1758075710.20989,1758075710.21198,0.0,0.0,0.0,-4.23989,1.48969,3.20856,8.38,2.64,-0.01,2.0
1758075710.21276,1758075710.22198,0.0,0.0,0.0,-10.37054,-2.34913,2.97938,8.4,2.78,-0.15,2.0
1758075710.21342,1758075710.23198,0.0,0.0,0.0,-19.53786,-6.41713,2.06265,8.4,2.78,-0.15,2.0
1758075710.21559,1758075710.24198,0.0,0.0,0.0,-25.49662,-17.58981,1.20321,8.2,2.91,-0.09,2.0
1758075710.23301,1758075710.25198,0.0,0.0,0.0,-30.13758,-33.51803,1.3751,8.2,2.91,-0.09,2.0
1758075710.23968,1758075710.26198,0.0,0.0,0.0,-33.05967,-54.3737,1.83346,6.94,2.82,-0.39,2.0
1758075710.25563,1758075710.27198,0.0,0.0,0.0,-35.86716,-80.44328,1.3751,6.94,2.82,-0.39,2.0
1758075710.25969,1758075710.28198,0.0,0.0,0.0,-38.1017,-79.18277,1.71887,6.88,2.42,-0.4,2.0
1758075710.27531,1758075710.29198,0.0,0.0,0.0,-40.50812,-45.77933,-1.94806,11.83,2.25,0.4,2.0
1758075710.27803,1758075710.30198,0.0,0.0,0.0,-38.38818,-28.36141,2.40642,11.83,2.25,0.4,2.0
1758075710.29356,1758075710.31198,0.0,0.0,0.0,-44.748,-55.92068,-5.90147,11.28,2.38,3.02,2.0
1758075710.29474,1758075710.32198,0.0,0.0,0.0,-42.91454,-77.52119,-10.71431,11.28,2.38,3.02,2.0
1758075710.31158,1758075710.33198,0.0,0.0,0.0,-40.39353,-93.79319,-23.0329,10.59,2.1,3.56,2.0
1758075710.32862,1758075710.34198,0.0,0.0,0.0,-37.58603,-101.58542,-35.2369,10.59,2.1,3.56,2.0
1758075710.33066,1758075710.35198,0.0,0.0,0.0,-37.12767,-92.4754,-49.90463,14.18,0.21,4.35,2.0
1758075710.34545,1758075710.36198,0.0,0.0,0.0,-35.52338,-73.68237,-48.58683,14.95,-1.01,1.0,2.0
1758075710.34806,1758075710.37198,0.0,0.0,0.0,-32.54401,-54.77477,-40.85189,14.95,-1.01,1.0,2.0
1758075710.36733,1758075710.38198,0.0,0.0,0.0,-28.476,-43.37291,-30.88243,11.92,-0.28,0.5,2.0
1758075710.37328,1758075710.39198,0.0,0.0,0.0,-19.59516,-42.97184,-12.37589,11.92,-0.28,0.5,2.0
1758075710.38858,1758075710.40198,0.0,0.0,0.0,-16.95955,-36.55471,-4.58366,9.4,0.53,1.12,2.0
1758075710.38963,1758075710.41198,0.0,0.0,0.0,-14.78231,-34.77854,3.09397,9.4,0.53,1.12,2.0
1758075710.40437,1758075710.42198,0.0,0.0,0.0,-15.24068,-39.4195,7.16197,9.57,0.91,1.54,2.0
1758075710.40749,1758075710.43198,0.0,0.0,0.0,-19.25138,-44.9199,7.39116,9.51,1.13,1.87,2.0
1758075710.42258,1758075710.44198,0.0,0.0,0.0,-23.60586,-44.9199,6.24524,9.51,1.13,1.87,2.0
1758075710.4384,1758075710.45198,0.0,0.0,0.0,-29.04896,-45.77933,3.60963,10.14,1.06,1.39,2.0
1758075710.43988,1758075710.46198,0.0,0.0,0.0,-37.87251,-43.65939,-1.77617,10.14,1.06,1.39,2.0
1758075710.45439,1758075710.47198,0.0,0.0,0.0,-42.91454,-40.50812,-5.4431,10.03,0.82,1.35,2.0
1758075710.45639,1758075710.48198,0.0,0.0,0.0,-47.03984,-36.61201,-8.65166,10.03,0.82,1.35,2.0
1758075710.47178,1758075710.49198,0.0,0.0,0.0,-49.84733,-30.99702,-11.17268,9.8,0.43,1.16,2.0
1758075710.48742,1758075710.50198,0.0,0.0,0.0,-52.42564,-17.76169,-13.40721,9.8,0.43,0.92,2.0
1758075710.49099,1758075710.51198,0.0,0.0,0.0,-52.884,-7.21927,-13.46451,10.14,0.03,0.92,2.0
1758075710.50641,1758075710.52198,0.0,0.0,0.0,-52.82671,3.83882,-13.17803,10.59,-0.26,0.56,2.0
1758075710.50763,1758075710.53198,0.0,0.0,0.0,-52.08187,14.83961,-12.37589,10.59,-0.26,0.56,2.0
1758075710.52268,1758075710.54198,0.0,0.0,0.0,-50.363,32.37212,-11.17268,11.09,-0.56,0.3,2.0
1758075710.53843,1758075710.55198,0.0,0.0,0.0,-49.21708,43.14373,-10.25595,11.09,-0.56,0.3,2.0
1758075710.54001,1758075710.56198,0.0,0.0,0.0,-48.30034,48.35764,-9.4538,11.68,-0.72,0.21,2.0
1758075710.55443,1758075710.57198,0.0,0.0,0.0,-47.61279,50.99325,-9.11003,11.68,-0.72,0.21,2.0
1758075710.55655,1758075710.58198,0.0,0.0,0.0,-47.44091,55.6342,-9.33921,11.39,-0.38,-0.01,2.0
1758075710.57183,1758075710.59198,0.0,0.0,0.0,-47.78468,60.33246,-9.91217,11.47,0.05,-0.25,2.0
1758075710.58821,1758075710.60198,0.0,0.0,0.0,-47.67009,64.28587,-10.02676,11.47,0.05,-0.25,2.0
1758075710.59018,1758075710.61198,0.0,0.0,0.0,-46.86795,66.29122,-9.33921,10.73,0.16,-0.01,2.0
1758075710.60573,1758075710.62198,0.0,0.0,0.0,-44.11775,66.74959,-7.10468,10.73,0.16,-0.01,2.0
1758075710.6067,1758075710.63198,0.0,0.0,0.0,-41.88322,66.46311,-4.92744,9.67,-0.11,0.1,2.0
1758075710.62148,1758075710.64198,0.0,0.0,0.0,-39.4768,66.34852,-3.26586,9.67,-0.11,0.1,2.0
1758075710.63758,1758075710.65198,0.0,0.0,0.0,-36.26823,65.2599,-2.06265,9.14,-0.47,0.14,2.0
1758075710.64064,1758075710.66198,0.0,0.0,0.0,-34.26288,62.79618,-2.57831,8.68,-0.61,0.14,2.0
1758075710.65657,1758075710.67198,0.0,0.0,0.0,-32.37212,59.81679,-4.0107,8.68,-0.61,0.14,2.0
1758075710.65864,1758075710.68198,0.0,0.0,0.0,-29.8511,55.00395,-6.18794,8.17,-0.68,0.14,2.0
1758075710.67431,1758075710.69198,0.0,0.0,0.0,-24.80907,45.89392,-9.11003,8.17,-0.68,0.14,2.0
1758075710.67579,1758075710.70198,0.0,0.0,0.0,-19.82434,41.08107,-9.91217,7.79,-0.92,0.11,2.0
1758075710.69157,1758075710.71198,0.0,0.0,0.0,-13.75099,40.62271,-9.68299,7.79,-0.92,0.11,2.0
1758075710.70908,1758075710.72198,0.0,0.0,0.0,-7.16197,42.74266,-8.70896,7.94,-1.51,-0.44,2.0
1758075710.71036,1758075710.73198,0.0,0.0,0.0,3.66693,43.25832,-5.55769,7.71,-2.04,-0.53,2.0
1758075710.72734,1758075710.74198,0.0,0.0,0.0,11.86023,40.50812,-2.46372,7.71,-2.04,-0.53,2.0
1758075710.72832,1758075710.75198,0.0,0.0,0.0,20.3973,35.98175,0.51566,7.24,-2.19,-0.28,2.0
1758075710.74813,1758075710.76198,0.0,0.0,0.0,28.70519,31.45539,3.83882,7.24,-2.19,-0.28,2.0
1758075710.74991,1758075710.77198,0.0,0.0,0.0,40.04975,23.31938,7.44845,7.5,-2.02,-0.62,2.0
1758075710.7658,1758075710.78198,0.0,0.0,0.0,44.86259,13.98017,8.70896,7.5,-2.02,-0.62,2.0
1758075710.76704,1758075710.79198,0.0,0.0,0.0,48.75871,8.36518,8.76626,7.84,-1.58,-0.27,2.0
1758075710.78187,1758075710.80198,0.0,0.0,0.0,49.79003,7.79223,6.53172,7.84,-1.58,-0.27,2.0
1758075710.7978,1758075710.81198,0.0,0.0,0.0,51.90998,11.63104,4.92744,9.06,-0.95,0.15,2.0
1758075710.79908,1758075710.82198,0.0,0.0,0.0,52.71212,12.89155,6.87549,9.9,-0.45,0.85,2.0
1758075710.81427,1758075710.83198,0.0,0.0,0.0,50.99325,15.41257,8.36518,9.9,-0.45,0.85,2.0
1758075710.81548,1758075710.84198,0.0,0.0,0.0,45.37826,16.95955,12.08941,11.05,0.46,2.91,2.0
1758075710.83057,1758075710.85198,0.0,0.0,0.0,34.37747,15.98552,11.91752,11.05,0.46,2.91,2.0
1758075710.84754,1758075710.86198,0.0,0.0,0.0,23.89234,-17.53251,8.136,10.73,1.59,4.6,2.0
1758075710.8495,1758075710.87198,0.0,0.0,0.0,21.42862,-86.34474,17.81899,10.73,1.59,4.6,2.0
1758075710.86615,1758075710.88198,0.0,0.0,0.0,14.72501,-127.7123,41.02378,6.61,3.09,6.5,2.0
1758075710.86741,1758075710.89198,0.0,0.0,0.0,7.16197,-98.83522,45.55015,17.37,5.26,2.98,2.0
1758075710.88257,1758075710.90198,0.0,0.0,0.0,3.09397,-74.59911,50.47758,17.37,5.26,2.98,2.0
1758075710.90049,1758075710.91198,0.0,0.0,0.0,-2.57831,-56.03527,47.32632,17.31,5.16,0.44,2.0
1758075710.90141,1758075710.92198,0.0,0.0,0.0,-13.86558,-33.17426,31.16891,17.31,5.16,0.44,2.0
1758075710.91691,1758075710.93198,0.0,0.0,0.0,-21.7724,-24.80907,16.84496,12.7,2.05,-1.1,2.0
1758075710.91784,1758075710.94198,0.0,0.0,0.0,-29.39274,-19.19409,1.94806,12.7,2.05,-1.1,2.0
1758075710.9328,1758075710.95198,0.0,0.0,0.0,-34.09099,-16.272,-10.8289,8.66,0.13,-1.24,2.0
1758075710.93736,1758075710.96198,0.0,0.0,0.0,-38.50277,-7.04738,-26.47065,8.26,-0.58,0.2,2.0
1758075710.95263,1758075710.97198,0.0,0.0,0.0,-39.01843,-2.46372,-33.34615,8.26,-0.58,0.2,2.0
1758075710.96928,1758075710.98198,0.0,0.0,0.0,-38.27358,0.0,-37.35685,9.33,-0.62,0.94,2.0
1758075710.96998,1758075710.99198,0.0,0.0,0.0,-35.98175,3.03668,-38.21629,9.33,-0.62,0.94,2.0
1758075710.98643,1758075711.00198,0.0,0.0,0.0,-31.56997,12.43318,-32.14294,11.67,-0.33,0.9,2.0
1758075710.98758,1758075711.01198,0.0,0.0,0.0,-27.96034,17.93358,-24.35071,11.67,-0.33,0.9,2.0
1758075711.00297,1758075711.02198,0.0,0.0,0.0,-24.4653,21.31403,-14.72501,13.31,0.1,0.25,2.0
1758075711.00578,1758075711.03198,0.0,0.0,0.0,-20.85567,27.73116,-4.92744,13.31,0.1,0.25,2.0
1758075711.02189,1758075711.04198,0.0,0.0,0.0,-16.04282,37.98711,6.8182,13.08,0.38,0.22,2.0
1758075711.03789,1758075711.05198,0.0,0.0,0.0,-12.60507,39.82057,13.06344,11.02,0.39,0.48,2.0
1758075711.03832,1758075711.06198,0.0,0.0,0.0,-9.05273,39.24761,17.24603,11.02,0.39,0.48,2.0
1758075711.05396,1758075711.07198,0.0,0.0,0.0,-4.0107,38.21629,19.53786,9.02,0.31,1.02,2.0
1758075711.0553,1758075711.08198,0.0,0.0,0.0,-1.66158,37.01308,18.79302,9.02,0.31,1.02,2.0
1758075711.07275,1758075711.09198,0.0,0.0,0.0,0.0573,34.43476,16.50119,8.35,0.22,1.61,2.0
1758075711.08876,1758075711.10198,0.0,0.0,0.0,1.14592,29.56462,13.17803,8.35,0.22,1.61,2.0
1758075711.08923,1758075711.11198,0.0,0.0,0.0,0.97403,19.59516,7.10468,7.82,0.23,2.13,2.0
1758075711.10496,1758075711.12198,0.0,0.0,0.0,0.0,12.60507,2.86479,7.81,0.41,2.27,2.0
1758075711.10668,1758075711.13198,0.0,0.0,0.0,-1.43239,5.32851,-1.03132,7.81,0.41,2.27,2.0
1758075711.12169,1758075711.14198,0.0,0.0,0.0,-3.32316,-3.89611,-4.29718,8.03,0.71,2.25,2.0
1758075711.13768,1758075711.15198,0.0,0.0,0.0,-6.53172,-16.272,-6.99009,8.03,0.71,2.25,2.0
1758075711.13827,1758075711.16198,0.0,0.0,0.0,-7.96411,-23.54857,-7.16197,8.33,0.89,2.1,2.0
1758075711.15392,1758075711.17198,0.0,0.0,0.0,-9.28192,-28.87707,-6.7609,8.33,0.89,2.1,2.0
1758075711.15517,1758075711.18198,0.0,0.0,0.0,-9.85487,-33.23156,-4.87014,8.66,0.9,1.89,2.0
1758075711.16994,1758075711.19198,0.0,0.0,0.0,-10.02676,-36.55471,-0.85944,9.03,0.97,1.52,2.0
1758075711.18676,1758075711.20198,0.0,0.0,0.0,-9.4538,-37.52874,2.34913,9.03,0.97,1.52,2.0
1758075711.18796,1758075711.21198,0.0,0.0,0.0,-8.36518,-37.35685,5.4431,9.33,1.03,1.28,2.0
1758075711.2026,1758075711.22198,0.0,0.0,0.0,-7.21927,-35.86716,8.47978,9.33,1.03,1.28,2.0
1758075711.21902,1758075711.23198,0.0,0.0,0.0,-4.69825,-32.6013,12.37589,9.75,1.15,1.29,2.0
1758075711.22091,1758075711.24198,0.0,0.0,0.0,-2.6929,-29.50733,13.98017,9.75,1.15,1.29,2.0
1758075711.23675,1758075711.25198,0.0,0.0,0.0,-0.40107,-24.80907,14.43854,10.29,1.31,1.46,2.0
1758075711.2379,1758075711.26198,0.0,0.0,0.0,3.20856,-18.56383,13.17803,10.29,1.31,1.46,2.0
1758075711.25275,1758075711.27198,0.0,0.0,0.0,5.4431,-8.59437,11.51645,11.0,1.35,1.4,2.0
1758075711.25535,1758075711.28198,0.0,0.0,0.0,7.96411,-2.23454,9.62569,11.34,1.14,1.36,2.0
1758075711.27206,1758075711.29198,0.0,0.0,0.0,10.19865,5.72958,6.8182,11.34,1.14,1.36,2.0
1758075711.28802,1758075711.30198,0.0,0.0,0.0,13.69369,18.44924,2.34913,11.73,0.72,1.18,2.0
1758075711.28839,1758075711.31198,0.0,0.0,0.0,16.3293,25.09555,-1.03132,11.73,0.72,1.18,2.0
1758075711.30414,1758075711.32198,0.0,0.0,0.0,19.36597,29.27814,-3.38045,11.6,0.31,1.03,2.0
1758075711.30498,1758075711.33198,0.0,0.0,0.0,22.34536,32.6013,-5.21392,11.6,0.31,1.03,2.0
1758075711.32006,1758075711.34198,0.0,0.0,0.0,26.64254,37.64333,-6.24524,11.3,0.1,0.73,2.0
1758075711.33578,1758075711.35198,0.0,0.0,0.0,28.93437,39.24761,-6.07335,10.95,0.24,0.7,2.0
1758075711.33778,1758075711.36198,0.0,0.0,0.0,30.48136,39.53409,-5.27121,10.95,0.24,0.7,2.0
1758075711.35311,1758075711.37198,0.0,0.0,0.0,31.16891,39.4768,-3.89611,10.06,0.75,0.76,2.0
1758075711.35476,1758075711.38198,0.0,0.0,0.0,31.11161,39.82057,-1.48969,10.06,0.75,0.76,2.0
1758075711.36985,1758075711.39198,0.0,0.0,0.0,30.25217,39.24761,0.22918,9.56,1.33,0.82,2.0
1758075711.38658,1758075711.40198,0.0,0.0,0.0,29.27814,37.98711,2.11994,9.56,1.33,0.82,2.0
1758075711.38779,1758075711.41198,0.0,0.0,0.0,27.78845,35.2942,4.35448,8.98,1.85,0.91,2.0
1758075711.4031,1758075711.42198,0.0,0.0,0.0,24.57989,29.50733,8.136,8.32,2.25,1.0,2.0
1758075711.40484,1758075711.43198,0.0,0.0,0.0,21.37133,25.8404,9.85487,8.32,2.25,1.0,2.0
1758075711.4201,1758075711.44198,0.0,0.0,0.0,16.95955,25.8404,10.48513,8.38,2.51,0.76,2.0
1758075711.4367,1758075711.45198,0.0,0.0,0.0,11.63104,28.13223,9.62569,8.38,2.51,0.76,2.0
1758075711.43785,1758075711.46198,0.0,0.0,0.0,2.40642,32.25753,8.02141,8.62,2.77,0.43,2.0
1758075711.47181,1758075711.47198,0.0,0.0,0.0,-4.1253,34.72124,5.72958,8.62,2.77,0.43,2.0
1758075711.47538,1758075711.48198,0.0,0.0,0.0,-10.65701,35.2369,3.72423,8.34,2.99,0.04,2.0
1758075711.47596,1758075711.49198,0.0,0.0,0.0,-20.3973,29.27814,1.3178,8.34,2.99,0.04,2.0
1758075711.47797,1758075711.50198,0.0,0.0,0.0,-25.89769,18.50654,0.51566,7.84,3.1,-0.39,2.0
1758075711.49312,1758075711.51198,0.0,0.0,0.0,-30.02299,4.98473,1.14592,6.95,2.73,-0.96,2.0
1758075711.49747,1758075711.52198,0.0,0.0,0.0,-35.00772,-6.47442,2.06265,6.95,2.73,-0.96,2.0
1758075711.51312,1758075711.53198,0.0,0.0,0.0,-41.71133,-16.10011,6.47442,7.66,2.52,-1.01,2.0
1758075711.5148,1758075711.54198,0.0,0.0,0.0,-45.89392,12.43318,7.44845,7.66,2.52,-1.01,2.0
1758075711.53211,1758075711.55198,0.0,0.0,0.0,-49.21708,22.34536,8.93814,11.62,2.41,-0.62,2.0
1758075711.53331,1758075711.56198,0.0,0.0,0.0,-57.81144,4.46907,2.63561,11.62,2.41,-0.62,2.0
1758075711.55054,1758075711.57198,0.0,0.0,0.0,-64.85883,-21.25674,-5.4431,8.08,2.76,1.42,2.0
1758075711.56599,1758075711.58198,0.0,0.0,0.0,-63.31184,-23.31938,-8.99544,10.6,2.33,1.92,2.0
1758075711.56736,1758075711.59198,0.0,0.0,0.0,-59.24384,-26.75713,-12.89155,10.6,2.33,1.92,2.0
1758075711.58193,1758075711.60198,0.0,0.0,0.0,-53.17049,-38.27358,-16.84496,11.17,0.73,3.29,2.0
1758075711.58381,1758075711.61198,0.0,0.0,0.0,-43.65939,-51.27972,-28.70519,11.17,0.73,3.29,2.0
1758075711.59991,1758075711.62198,0.0,0.0,0.0,-36.6693,-43.88857,-35.58068,12.79,-1.95,4.33,2.0
1758075711.61588,1758075711.63198,0.0,0.0,0.0,-29.39274,-31.97105,-39.01843,12.79,-1.95,4.33,2.0
1758075711.61709,1758075711.64198,0.0,0.0,0.0,-22.34536,-25.38203,-38.56006,13.02,-2.88,2.97,2.0
1758075711.6321,1758075711.65198,0.0,0.0,0.0,-13.23533,-32.54401,-29.67921,8.28,-1.48,2.49,2.0
1758075711.63305,1758075711.66198,0.0,0.0,0.0,-9.39651,-32.37212,-22.23076,8.28,-1.48,2.49,2.0
1758075711.6524,1758075711.67198,0.0,0.0,0.0,-7.62034,-34.66395,-14.32395,7.14,0.2,2.75,2.0
1758075711.6584,1758075711.68198,0.0,0.0,0.0,-7.84952,-49.96192,-4.64096,7.14,0.2,2.75,2.0
1758075711.67392,1758075711.69198,0.0,0.0,0.0,-8.76626,-63.88479,-0.17189,6.9,1.48,3.78,2.0
1758075711.67705,1758075711.70198,0.0,0.0,0.0,-9.85487,-75.91692,2.6929,6.9,1.48,3.78,2.0
1758075711.69222,1758075711.71198,0.0,0.0,0.0,-11.45916,-84.2248,4.18259,8.87,1.88,3.97,2.0
1758075711.69316,1758075711.72198,0.0,0.0,0.0,-15.06879,-94.42345,5.15662,8.87,1.88,3.97,2.0
1758075711.70944,1758075711.73198,0.0,0.0,0.0,-18.33465,-97.86119,4.92744,10.72,1.4,3.04,2.0
1758075711.72604,1758075711.74198,0.0,0.0,0.0,-22.57454,-98.14767,4.52637,11.22,0.68,1.96,2.0
1758075711.72905,1758075711.75198,0.0,0.0,0.0,-27.67386,-95.51206,3.55234,11.22,0.68,1.96,2.0
1758075711.74418,1758075711.76198,0.0,0.0,0.0,-37.47144,-89.55331,0.0573,10.92,0.25,0.61,2.0
1758075711.74538,1758075711.77198,0.0,0.0,0.0,-44.17505,-83.25077,-3.20856,10.92,0.25,0.61,2.0
1758075711.76002,1758075711.78198,0.0,0.0,0.0,-50.53488,-74.7137,-7.16197,10.67,0.2,0.11,2.0
1758075711.77622,1758075711.79198,0.0,0.0,0.0,-55.11855,-64.62964,-11.22997,10.67,0.2,0.11,2.0
1758075711.77742,1758075711.80198,0.0,0.0,0.0,-59.24384,-46.81066,-17.87628,11.11,0.09,-0.21,2.0
1758075711.79207,1758075711.81198,0.0,0.0,0.0,-59.35843,-35.40879,-21.02755,11.61,-0.02,-0.28,2.0
1758075711.79317,1758075711.82198,0.0,0.0,0.0,-57.23849,-22.00158,-22.05888,11.61,-0.02,-0.28,2.0
1758075711.81108,1758075711.83198,0.0,0.0,0.0,-53.45696,-5.90147,-21.14215,12.29,-0.46,-0.62,2.0
1758075711.82734,1758075711.84198,0.0,0.0,0.0,-45.77933,17.36062,-16.272,12.29,-0.46,-0.62,2.0
1758075711.8287,1758075711.85198,0.0,0.0,0.0,-40.39353,30.82513,-11.45916,12.06,-0.98,-0.97,2.0
1758075711.84303,1758075711.86198,0.0,0.0,0.0,-35.3515,41.08107,-6.24524,12.06,-0.98,-0.97,2.0
1758075711.84417,1758075711.87198,0.0,0.0,0.0,-29.67921,48.12846,0.68755,11.27,-1.15,-1.13,2.0
1758075711.8589,1758075711.88198,0.0,0.0,0.0,-27.44468,57.18119,3.72423,11.03,-0.98,-1.12,2.0
1758075711.87541,1758075711.89198,0.0,0.0,0.0,-26.24147,64.28587,5.4431,11.03,-0.98,-1.12,2.0
1758075711.87696,1758075711.90198,0.0,0.0,0.0,-25.72581,70.6457,5.78687,11.08,-0.59,-0.96,2.0
1758075711.89229,1758075711.91198,0.0,0.0,0.0,-25.15285,77.63579,2.86479,11.08,-0.59,-0.96,2.0
1758075711.89324,1758075711.92198,0.0,0.0,0.0,-24.63719,77.92226,-0.51566,10.09,-0.39,-0.81,2.0
1758075711.90905,1758075711.93198,0.0,0.0,0.0,-23.54857,77.29202,-4.58366,10.09,-0.39,-0.81,2.0
1758075711.92506,1758075711.94198,0.0,0.0,0.0,-22.28806,76.31798,-8.36518,9.3,-0.35,-0.4,2.0
1758075711.92629,1758075711.95198,0.0,0.0,0.0,-19.99623,73.45319,-12.08941,8.96,-0.35,-0.28,2.0
1758075711.94109,1758075711.96198,0.0,0.0,0.0,-18.33465,68.86953,-13.75099,8.96,-0.52,-0.28,2.0
1758075711.95826,1758075711.97198,0.0,0.0,0.0,-16.04282,63.25455,-14.09476,8.59,-0.77,-0.02,2.0
1758075711.95907,1758075711.98198,0.0,0.0,0.0,-13.86558,58.55629,-13.80828,8.59,-0.77,-0.02,2.0
1758075711.97508,1758075711.99198,0.0,0.0,0.0,-9.11003,51.16513,-11.34457,8.81,-1.0,0.13,2.0
1758075711.9763,1758075712.00198,0.0,0.0,0.0,-4.29718,45.77933,-8.02141,8.81,-1.0,0.13,2.0
1758075711.99273,1758075712.01198,0.0,0.0,0.0,0.40107,43.94586,-4.69825,8.72,-1.24,0.03,2.0
1758075711.99452,1758075712.02198,0.0,0.0,0.0,5.15662,45.03448,-1.20321,8.72,-1.24,0.03,2.0
1758075712.00909,1758075712.03198,0.0,0.0,0.0,10.65701,44.86259,3.03668,9.11,-1.16,0.1,2.0
1758075712.0254,1758075712.04198,0.0,0.0,0.0,14.38124,41.88322,5.61499,8.76,-0.73,0.24,2.0
1758075712.02826,1758075712.05198,0.0,0.0,0.0,18.90761,36.95578,8.136,8.76,-0.73,0.24,2.0
1758075712.04334,1758075712.06198,0.0,0.0,0.0,23.72045,31.39809,9.96947,8.65,-1.31,-0.48,2.0
1758075712.0447,1758075712.07198,0.0,0.0,0.0,28.70519,13.75099,11.63104,8.65,-1.31,-0.48,2.0
1758075712.05911,1758075712.08198,0.0,0.0,0.0,32.14294,2.92208,11.11538,8.03,-1.45,-0.5,2.0
1758075712.07612,1758075712.09198,0.0,0.0,0.0,33.40344,0.22918,7.84952,8.03,-1.45,-0.5,2.0
1758075712.07731,1758075712.10198,0.0,0.0,0.0,37.64333,8.88085,5.72958,9.22,-1.18,-0.22,2.0
1758075712.09202,1758075712.11198,0.0,0.0,0.0,41.13837,14.49583,4.87014,10.59,-1.06,0.21,2.0
1758075712.09456,1758075712.12198,0.0,0.0,0.0,44.57612,23.0329,3.89611,10.59,-1.06,0.21,2.0
1758075712.1104,1758075712.13198,0.0,0.0,0.0,46.69606,24.86637,2.23454,10.95,-0.73,1.23,2.0
1758075712.12638,1758075712.14198,0.0,0.0,0.0,50.3057,16.10011,-1.77617,10.95,-0.73,1.23,2.0
1758075712.12734,1758075712.15198,0.0,0.0,0.0,50.363,-9.5684,-6.18794,9.13,-0.39,1.67,2.0
1758075712.1422,1758075712.16198,0.0,0.0,0.0,53.80074,-35.3515,-3.49504,9.13,-0.39,1.67,2.0
1758075712.14415,1758075712.17198,0.0,0.0,0.0,55.29043,-46.1804,-1.3751,7.59,-0.76,0.83,2.0
1758075712.16117,1758075712.18198,0.0,0.0,0.0,54.08722,-56.66553,5.55769,10.22,-0.9,3.2,2.0
1758075712.17793,1758075712.19198,0.0,0.0,0.0,50.3057,-69.95815,11.74564,10.22,-0.9,3.2,2.0
1758075712.17917,1758075712.20198,0.0,0.0,0.0,46.1804,-87.14688,25.09555,12.17,0.68,6.92,2.0
1758075712.19447,1758075712.21198,0.0,0.0,0.0,39.99245,-88.40739,37.92981,12.17,0.68,6.92,2.0
1758075712.19623,1758075712.22198,0.0,0.0,0.0,29.8511,-61.87944,49.56085,17.19,3.17,3.51,2.0
1758075712.21221,1758075712.23198,0.0,0.0,0.0,23.60586,-45.37826,50.01921,17.19,3.17,3.51,2.0
1758075712.21338,1758075712.24198,0.0,0.0,0.0,19.13679,-37.52874,45.49285,14.07,3.39,0.28,2.0
1758075712.23244,1758075712.25198,0.0,0.0,0.0,15.35527,-32.14294,37.35685,14.07,3.39,0.28,2.0
1758075712.23835,1758075712.26198,0.0,0.0,0.0,11.80293,-25.26744,22.00158,9.32,1.43,-0.11,2.0
1758075712.25442,1758075712.27198,0.0,0.0,0.0,11.00079,-24.92367,11.28727,9.09,-0.3,1.57,2.0
1758075712.26181,1758075712.28198,0.0,0.0,0.0,11.74564,-26.98631,1.3751,9.09,-0.3,1.57,2.0
1758075712.28387,1758075712.29198,0.0,0.0,0.0,19.19409,-28.30412,-10.08406,10.44,-0.85,2.59,2.0
1758075712.28632,1758075712.30198,0.0,0.0,0.0,23.20479,-25.43933,-9.96947,11.74,-0.59,2.2,2.0
1758075712.30361,1758075712.31198,0.0,0.0,0.0,27.61657,-20.79837,-7.50575,11.74,-0.59,2.2,2.0
1758075712.30478,1758075712.32198,0.0,0.0,0.0,34.49206,-11.17268,-1.66158,11.04,-0.09,1.35,2.0
1758075712.32157,1758075712.33198,0.0,0.0,0.0,39.4768,-4.87014,3.03668,9.3,0.39,1.18,2.0
1758075712.33725,1758075712.34198,0.0,0.0,0.0,44.23235,1.08862,8.0787,9.3,0.39,1.18,2.0
1758075712.33878,1758075712.35198,0.0,0.0,0.0,48.30034,7.62034,12.08941,8.24,0.87,1.11,2.0
1758075712.35356,1758075712.36198,0.0,0.0,0.0,52.19646,18.44924,15.87093,8.24,0.87,1.11,2.0
1758075712.35447,1758075712.37198,0.0,0.0,0.0,53.51426,26.24147,16.84496,8.69,1.31,1.08,2.0
1758075712.36956,1758075712.38198,0.0,0.0,0.0,53.11319,34.72124,16.90226,8.69,1.31,1.08,2.0
1758075712.38539,1758075712.39198,0.0,0.0,0.0,51.39432,43.4875,17.53251,9.68,1.69,0.86,2.0
1758075712.38799,1758075712.40198,0.0,0.0,0.0,46.69606,55.23313,16.55848,10.61,2.13,0.5,2.0
1758075712.40354,1758075712.41198,0.0,0.0,0.0,43.25832,60.44705,15.35527,10.61,2.13,0.5,2.0
1758075712.40448,1758075712.42198,0.0,0.0,0.0,39.19032,62.28051,13.34992,10.71,2.56,0.66,2.0
1758075712.41926,1758075712.43198,0.0,0.0,0.0,35.2369,61.76485,12.08941,10.71,2.56,0.66,2.0
1758075712.43532,1758075712.44198,0.0,0.0,0.0,30.13758,58.49899,10.37054,10.21,2.58,0.61,2.0
1758075712.43654,1758075712.45198,0.0,0.0,0.0,26.75713,53.45696,9.4538,10.21,2.58,0.61,2.0
1758075712.45131,1758075712.46198,0.0,0.0,0.0,23.0329,46.52417,7.67763,9.54,2.22,0.92,2.0
1758075712.46755,1758075712.47198,0.0,0.0,0.0,19.53786,40.62271,4.23989,9.54,2.22,0.92,2.0
1758075712.46877,1758075712.48198,0.0,0.0,0.0,14.38124,33.00237,1.3751,8.88,1.92,0.9,2.0
1758075712.48565,1758075712.49198,0.0,0.0,0.0,10.94349,28.99167,-1.20321,8.62,1.9,1.1,2.0
1758075712.48731,1758075712.50198,0.0,0.0,0.0,7.67763,25.15285,-3.55234,8.62,1.9,1.1,2.0
1758075712.50232,1758075712.51198,0.0,0.0,0.0,3.66693,18.90761,-5.27121,8.63,1.91,1.31,2.0
1758075712.50462,1758075712.52198,0.0,0.0,0.0,0.74485,18.10547,-6.53172,8.63,1.91,1.31,2.0
1758075712.52128,1758075712.53198,0.0,0.0,0.0,-1.03132,15.41257,-6.8182,8.94,1.84,1.53,2.0
1758075712.53737,1758075712.54198,0.0,0.0,0.0,-2.63561,11.22997,-6.87549,8.94,1.84,1.53,2.0
1758075712.53857,1758075712.55198,0.0,0.0,0.0,-4.69825,2.97938,-6.58902,8.81,1.66,1.48,2.0
1758075712.55335,1758075712.56198,0.0,0.0,0.0,-5.95876,-2.00535,-6.58902,8.79,1.53,1.14,2.0
1758075712.55608,1758075712.57198,0.0,0.0,0.0,-7.16197,-3.95341,-6.87549,8.79,1.53,1.14,2.0
1758075712.57242,1758075712.58198,0.0,0.0,0.0,-8.0787,-3.83882,-6.58902,9.19,1.41,0.78,2.0
1758075712.57334,1758075712.59198,0.0,0.0,0.0,-9.05273,-1.43239,-6.70361,9.19,1.41,0.78,2.0
1758075712.58938,1758075712.60198,0.0,0.0,0.0,-9.68299,0.34377,-6.24524,9.53,1.32,0.68,2.0
1758075712.6067,1758075712.61198,0.0,0.0,0.0,-10.37054,3.03668,-5.90147,9.53,1.32,0.68,2.0
1758075712.60785,1758075712.62198,0.0,0.0,0.0,-11.22997,5.27121,-5.4431,9.91,1.23,0.57,2.0
1758075712.62239,1758075712.63198,0.0,0.0,0.0,-12.49048,7.16197,-4.0107,9.99,1.13,0.23,2.0
1758075712.62384,1758075712.64198,0.0,0.0,0.0,-13.5218,8.70896,-2.63561,9.99,1.13,0.23,2.0
1758075712.64022,1758075712.65198,0.0,0.0,0.0,-14.78231,7.79223,-1.14592,9.68,1.12,-0.16,2.0
1758075712.65664,1758075712.66198,0.0,0.0,0.0,-15.92823,3.66693,0.68755,9.68,1.12,-0.16,2.0
1758075712.65764,1758075712.67198,0.0,0.0,0.0,-17.99088,-5.84417,3.49504,8.75,1.16,-0.45,2.0
1758075712.67239,1758075712.68198,0.0,0.0,0.0,-19.42327,-11.57375,5.09932,8.75,1.16,-0.45,2.0
1758075712.67352,1758075712.69198,0.0,0.0,0.0,-22.28806,-11.91752,7.33386,8.44,1.28,-0.84,2.0
1758075712.68943,1758075712.70198,0.0,0.0,0.0,-25.7831,23.31938,6.99009,8.44,1.28,-0.84,2.0
1758075712.70542,1758075712.71198,0.0,0.0,0.0,-24.5226,30.19488,13.00614,10.99,1.74,-0.42,2.0
1758075712.70737,1758075712.72198,0.0,0.0,0.0,-31.85646,14.9542,4.64096,8.61,2.15,1.07,2.0
1758075712.72272,1758075712.73198,0.0,0.0,0.0,-33.05967,-6.47442,3.26586,8.61,2.15,1.07,2.0
1758075712.72467,1758075712.74198,0.0,0.0,0.0,-31.91375,-29.22085,-2.6929,7.54,1.97,0.73,2.0
1758075712.74068,1758075712.75198,0.0,0.0,0.0,-28.13223,-33.80451,-4.92744,7.54,1.97,0.73,2.0
1758075712.75653,1758075712.76198,0.0,0.0,0.0,-25.89769,-27.96034,-7.96411,9.37,0.73,0.9,2.0
1758075712.75759,1758075712.77198,0.0,0.0,0.0,-23.0329,-21.25674,-9.5684,9.37,0.73,0.9,2.0
1758075712.77246,1758075712.78198,0.0,0.0,0.0,-19.99623,-15.41257,-9.91217,10.82,0.54,1.62,2.0
1758075712.77467,1758075712.79198,0.0,0.0,0.0,-17.76169,-14.38124,-9.39651,11.63,1.17,3.63,2.0
1758075712.79169,1758075712.80198,0.0,0.0,0.0,-14.43854,-16.55848,-10.54242,11.63,1.17,3.63,2.0
1758075712.80751,1758075712.81198,0.0,0.0,0.0,-9.28192,-20.74107,-13.75099,13.81,0.1,5.17,2.0
1758075712.80863,1758075712.82198,0.0,0.0,0.0,0.17189,-19.82434,-22.51724,13.81,0.1,5.17,2.0
1758075712.82424,1758075712.83198,0.0,0.0,0.0,7.39116,-12.54778,-25.26744,16.19,-1.71,4.65,2.0
1758075712.82658,1758075712.84198,0.0,0.0,0.0,13.34992,-8.47978,-24.80907,16.19,-1.71,4.65,2.0
1758075712.84169,1758075712.85198,0.0,0.0,0.0,16.55848,-9.28192,-20.79837,13.3,-1.16,2.19,2.0
1758075712.85774,1758075712.86198,0.0,0.0,0.0,17.13144,-15.75634,-11.74564,9.16,0.73,1.45,2.0
1758075712.8587,1758075712.87198,0.0,0.0,0.0,15.64175,-20.16812,-4.52637,9.16,0.73,1.45,2.0
1758075712.87368,1758075712.88198,0.0,0.0,0.0,12.49048,-24.75178,2.46372,7.5,1.97,1.07,2.0
1758075712.87469,1758075712.89198,0.0,0.0,0.0,4.46907,-30.13758,10.31324,7.5,1.97,1.07,2.0
1758075712.88971,1758075712.90198,0.0,0.0,0.0,-2.23454,-40.50812,13.23533,7.11,2.5,1.51,2.0
1758075712.90654,1758075712.91198,0.0,0.0,0.0,-9.11003,-43.77398,13.5218,7.11,2.5,1.51,2.0
1758075712.90747,1758075712.92198,0.0,0.0,0.0,-15.92823,-46.81066,11.74564,8.18,2.59,2.17,2.0
1758075712.92285,1758075712.93198,0.0,0.0,0.0,-26.35606,-53.80074,4.92744,8.18,2.59,2.17,2.0
1758075712.92398,1758075712.94198,0.0,0.0,0.0,-33.46074,-57.29578,-1.08862,8.63,2.44,2.56,2.0
1758075712.94054,1758075712.95198,0.0,0.0,0.0,-40.7373,-60.33246,-7.39116,8.75,1.95,2.22,2.0
1758075712.95647,1758075712.96198,0.0,0.0,0.0,-48.01387,-61.93674,-12.89155,8.75,1.95,2.22,2.0
1758075712.9577,1758075712.97198,0.0,0.0,0.0,-58.04062,-58.21251,-19.42327,9.01,1.31,1.54,2.0
1758075712.9728,1758075712.98198,0.0,0.0,0.0,-63.25455,-52.13916,-21.7151,9.01,1.31,1.54,2.0
1758075712.97368,1758075712.99198,0.0,0.0,0.0,-67.03606,-44.00316,-22.34536,9.92,0.71,1.05,2.0
1758075712.99183,1758075713.00198,0.0,0.0,0.0,-68.75494,-34.26288,-22.00158,9.92,0.71,1.05,2.0
1758075713.00753,1758075713.01198,0.0,0.0,0.0,-67.37984,-19.88164,-20.3973,10.76,0.1,0.94,2.0
1758075713.00879,1758075713.02198,0.0,0.0,0.0,-63.65561,-10.8862,-19.19409,11.31,-0.52,0.93,2.0
1758075713.02457,1758075713.03198,0.0,0.0,0.0,-58.49899,-1.3178,-17.81899,11.31,-0.52,0.93,2.0
1758075713.02711,1758075713.04198,0.0,0.0,0.0,-52.54023,9.39651,-16.21471,12.05,-1.08,0.79,2.0
1758075713.06747,1758075713.05198,0.0,0.0,0.0,-44.11775,25.72581,-13.12073,12.05,-1.08,0.79,2.0
1758075713.0782,1758075713.06198,0.0,0.0,0.0,-39.99245,34.77854,-11.28727,12.28,-1.1,0.44,2.0
1758075713.07985,1758075713.07198,0.0,0.0,0.0,-37.01308,41.99781,-9.5684,12.28,-1.1,0.44,2.0
1758075713.08118,1758075713.08198,0.0,0.0,0.0,-35.06502,47.44091,-7.10468,11.09,-0.64,0.32,2.0
1758075713.08158,1758075713.09198,0.0,0.0,0.0,-33.46074,50.1911,-5.32851,9.74,-0.39,0.4,2.0
1758075713.08362,1758075713.10198,0.0,0.0,0.0,-32.88778,50.64947,-4.64096,9.74,-0.39,0.4,2.0
1758075713.09957,1758075713.11198,0.0,0.0,0.0,-32.37212,49.38896,-4.35448,8.89,-0.25,0.3,2.0
1758075713.11582,1758075713.12198,0.0,0.0,0.0,-31.51268,46.35228,-4.87014,8.89,-0.25,0.3,2.0
1758075713.11678,1758075713.13198,0.0,0.0,0.0,-30.76784,43.37291,-5.50039,8.63,-0.18,0.47,2.0
1758075713.13159,1758075713.14198,0.0,0.0,0.0,-29.8511,39.82057,-6.24524,8.63,-0.18,0.47,2.0
1758075713.14781,1758075713.15198,0.0,0.0,0.0,-28.70519,36.61201,-6.47442,8.79,-0.22,0.58,2.0
1758075713.1504,1758075713.16198,0.0,0.0,0.0,-25.72581,33.05967,-5.32851,8.79,-0.22,0.57,2.0
1758075713.16656,1758075713.17198,0.0,0.0,0.0,-22.68913,30.99702,-2.29183,9.14,-0.46,0.57,2.0
1758075713.16797,1758075713.18198,0.0,0.0,0.0,-19.13679,29.33544,1.71887,9.26,-0.96,0.4,2.0
1758075713.18259,1758075713.19198,0.0,0.0,0.0,-15.0115,29.8511,6.70361,9.26,-0.96,0.4,2.0
1758075713.18405,1758075713.20198,0.0,0.0,0.0,-8.25059,35.86716,13.75099,9.54,-1.52,0.22,2.0
1758075713.19988,1758075713.21198,0.0,0.0,0.0,-3.20856,40.39353,17.87628,9.54,-1.52,0.22,2.0
1758075713.2157,1758075713.22198,0.0,0.0,0.0,1.83346,42.51347,20.05352,9.43,-1.9,-0.09,2.0
1758075713.21679,1758075713.23198,0.0,0.0,0.0,7.44845,41.36755,20.74107,9.43,-1.9,-0.09,2.0
1758075713.23175,1758075713.24198,0.0,0.0,0.0,15.46986,33.68992,19.48057,8.68,-1.91,-0.12,2.0
1758075713.24762,1758075713.25198,0.0,0.0,0.0,20.05352,22.28806,17.58981,8.03,-1.74,-0.34,2.0
1758075713.24878,1758075713.26198,0.0,0.0,0.0,23.66316,12.08941,13.12073,8.03,-1.74,-0.34,2.0
1758075713.2641,1758075713.27198,0.0,0.0,0.0,26.75713,3.26586,8.02141,8.16,-1.49,-0.11,2.0
1758075713.26522,1758075713.28198,0.0,0.0,0.0,30.30947,4.29718,2.29183,8.16,-1.49,-0.11,2.0
1758075713.2819,1758075713.29198,0.0,0.0,0.0,34.26288,10.08406,1.60428,9.67,-1.21,0.27,2.0
1758075713.29787,1758075713.30198,0.0,0.0,0.0,35.58068,14.20935,-0.17189,9.67,-1.21,0.27,2.0
1758075713.29909,1758075713.31198,0.0,0.0,0.0,36.15364,18.56383,-1.14592,10.47,-0.71,1.17,2.0
1758075713.31402,1758075713.32198,0.0,0.0,0.0,36.38282,8.0787,-3.20856,9.93,-0.24,1.92,2.0
1758075713.31486,1758075713.33198,0.0,0.0,0.0,34.89313,-25.89769,-4.46907,9.93,-0.24,1.92,2.0
1758075713.32964,1758075713.34198,0.0,0.0,0.0,37.98711,-50.2484,-0.22918,7.19,-0.35,0.3,2.0
1758075713.34761,1758075713.35198,0.0,0.0,0.0,39.13302,-61.30648,5.90147,7.19,-0.35,0.3,2.0
1758075713.34884,1758075713.36198,0.0,0.0,0.0,37.18496,-56.26446,5.78687,9.61,-0.91,0.74,2.0
1758075713.3647,1758075713.37198,0.0,0.0,0.0,35.75257,-53.11319,7.73493,9.61,-0.91,0.74,2.0
1758075713.3656,1758075713.38198,0.0,0.0,0.0,32.77319,-50.99325,6.99009,10.47,-0.83,1.57,2.0
1758075713.38091,1758075713.39198,0.0,0.0,0.0,25.89769,-64.62964,4.98473,11.12,-0.18,3.65,2.0
1758075713.39702,1758075713.40198,0.0,0.0,0.0,19.48057,-85.42801,5.72958,11.12,-0.18,3.65,2.0
1758075713.39789,1758075713.41198,0.0,0.0,0.0,14.66772,-105.82531,13.23533,12.88,1.89,6.84,2.0
1758075713.41297,1758075713.42198,0.0,0.0,0.0,9.74028,-105.02316,21.7724,12.88,1.89,6.84,2.0
1758075713.41385,1758075713.43198,0.0,0.0,0.0,2.7502,-87.14688,28.24682,17.99,4.97,2.68,2.0
1758075713.4297,1758075713.44198,0.0,0.0,0.0,0.34377,-79.18277,28.41871,17.99,4.97,2.68,2.0
1758075713.44593,1758075713.45198,0.0,0.0,0.0,-0.74485,-76.60446,25.72581,13.92,3.83,0.4,2.0
1758075713.44689,1758075713.46198,0.0,0.0,0.0,-1.3751,-74.08345,19.88164,13.92,3.83,0.4,2.0
1758075713.46168,1758075713.47198,0.0,0.0,0.0,1.94806,-67.60902,13.46451,8.8,0.19,0.21,2.0
1758075713.47771,1758075713.48198,0.0,0.0,0.0,6.99009,-60.96271,9.22462,8.05,-2.06,1.35,2.0
1758075713.47892,1758075713.49198,0.0,0.0,0.0,14.9542,-56.20716,8.30789,8.05,-2.06,1.35,2.0
1758075713.49399,1758075713.50198,0.0,0.0,0.0,23.83505,-51.73809,9.22462,8.74,-2.38,2.46,2.0
1758075713.49604,1758075713.51198,0.0,0.0,0.0,37.52874,-41.02378,9.74028,8.74,-2.38,2.46,2.0
1758075713.51148,1758075713.52198,0.0,0.0,0.0,45.89392,-29.8511,9.5684,10.49,-0.97,1.68,2.0
1758075713.52769,1758075713.53198,0.0,0.0,0.0,52.82671,-16.61578,8.47978,10.49,-0.97,1.68,2.0
1758075713.52893,1758075713.54198,0.0,0.0,0.0,59.64491,4.46907,5.50039,11.69,0.81,0.43,2.0
1758075713.54398,1758075713.55198,0.0,0.0,0.0,61.1346,18.73572,3.49504,11.44,1.97,-0.31,2.0
1758075713.54492,1758075713.56198,0.0,0.0,0.0,60.96271,33.68992,1.77617,11.44,1.97,-0.31,2.0
1758075713.55987,1758075713.57198,0.0,0.0,0.0,59.01466,47.95657,0.17189,11.01,2.37,-0.53,2.0
1758075713.57583,1758075713.58198,0.0,0.0,0.0,54.71747,68.01009,-0.11459,11.01,2.37,-0.53,2.0
1758075713.57695,1758075713.59198,0.0,0.0,0.0,52.48294,71.73432,1.94806,10.23,2.27,-0.32,2.0
1758075713.59192,1758075713.60198,0.0,0.0,0.0,50.59217,70.81759,4.64096,10.23,2.27,-0.32,2.0
1758075713.60806,1758075713.61198,0.0,0.0,0.0,49.04519,72.70835,7.44845,9.49,1.73,-0.12,2.0
1758075713.60896,1758075713.62198,0.0,0.0,0.0,47.26902,75.91692,11.80293,10.35,1.37,-0.22,2.0
1758075713.62385,1758075713.63198,0.0,0.0,0.0,45.77933,75.85962,13.5791,10.35,1.37,-0.22,2.0
1758075713.62498,1758075713.64198,0.0,0.0,0.0,43.65939,72.70835,14.03747,9.62,1.46,-0.03,2.0
1758075713.64001,1758075713.65198,0.0,0.0,0.0,41.13837,68.23928,13.12073,9.62,1.46,-0.03,2.0
1758075713.65614,1758075713.66198,0.0,0.0,0.0,37.35685,61.65026,11.11538,8.86,1.89,-0.06,2.0
1758075713.65726,1758075713.67198,0.0,0.0,0.0,35.2369,58.4417,9.4538,8.86,1.89,-0.06,2.0
1758075713.67215,1758075713.68198,0.0,0.0,0.0,33.05967,54.94666,7.33386,8.75,2.11,0.26,2.0
1758075713.68786,1758075713.69198,0.0,0.0,0.0,30.99702,50.93595,5.72958,8.75,2.11,0.26,2.0
1758075713.68902,1758075713.70198,0.0,0.0,0.0,28.30412,46.2377,3.89611,8.45,1.94,0.51,2.0
1758075713.70384,1758075713.71198,0.0,0.0,0.0,26.81443,43.20102,2.7502,8.33,1.59,0.6,2.0
1758075713.70525,1758075713.72198,0.0,0.0,0.0,25.15285,39.3622,1.94806,8.33,1.59,0.6,2.0
1758075713.71981,1758075713.73198,0.0,0.0,0.0,23.49127,32.88778,1.94806,8.23,1.24,0.6,2.0
1758075713.73614,1758075713.74198,0.0,0.0,0.0,22.23076,26.81443,1.77617,8.23,1.24,0.6,2.0
1758075713.73864,1758075713.75198,0.0,0.0,0.0,20.85567,22.00158,1.48969,8.28,1.12,0.54,2.0
1758075713.75613,1758075713.76198,0.0,0.0,0.0,19.48057,18.79302,1.66158,8.28,1.12,0.54,2.0
1758075713.75862,1758075713.77198,0.0,0.0,0.0,16.67307,13.75099,1.77617,8.65,1.25,0.05,2.0
1758075713.77613,1758075713.78198,0.0,0.0,0.0,14.32395,9.5684,2.06265,8.55,1.45,-0.36,2.0
1758075713.77786,1758075713.79198,0.0,0.0,0.0,11.34457,6.13065,2.40642,8.55,1.45,-0.36,2.0
1758075713.79284,1758075713.80198,0.0,0.0,0.0,7.67763,2.11994,2.97938,8.53,1.66,-0.74,2.0
1758075713.79636,1758075713.81198,0.0,0.0,0.0,0.85944,-4.35448,4.29718,8.53,1.66,-0.74,2.0
1758075713.81185,1758075713.82198,0.0,0.0,0.0,-3.89611,-11.57375,5.50039,8.22,2.1,-0.89,2.0
1758075713.82774,1758075713.83198,0.0,0.0,0.0,-8.30789,-24.80907,6.13065,8.22,2.1,-0.89,2.0
1758075713.82898,1758075713.84198,0.0,0.0,0.0,-11.28727,-47.15443,8.25059,6.84,2.6,-0.94,2.0
1758075713.84397,1758075713.85198,0.0,0.0,0.0,-16.67307,-74.59911,7.79223,6.12,2.64,-1.04,2.0
1758075713.8459,1758075713.86198,0.0,0.0,0.0,-19.76705,-82.27674,8.36518,6.12,2.64,-1.04,2.0
1758075713.86088,1758075713.87198,0.0,0.0,0.0,-22.97561,-69.61437,7.44845,9.53,2.51,-0.36,2.0
1758075713.87715,1758075713.88198,0.0,0.0,0.0,-25.7831,-44.40423,6.70361,9.53,2.51,-0.36,2.0
1758075713.87801,1758075713.89198,0.0,0.0,0.0,-28.93437,-37.35685,6.7609,12.01,2.24,0.49,2.0
1758075713.89314,1758075713.90198,0.0,0.0,0.0,-31.51268,-50.87865,5.84417,12.01,2.24,0.49,2.0
1758075713.89798,1758075713.91198,0.0,0.0,0.0,-33.68992,-59.18654,4.29718,9.05,2.39,0.84,2.0
1758075713.91288,1758075713.92198,0.0,0.0,0.0,-32.42941,-62.96807,2.86479,9.05,2.39,0.84,2.0
1758075713.91478,1758075713.93198,0.0,0.0,0.0,-30.02299,-101.06976,-5.15662,10.27,2.69,2.44,2.0
1758075713.93185,1758075713.94198,0.0,0.0,0.0,-29.10626,-130.80626,-18.9649,11.44,1.93,7.4,2.0
1758075713.94817,1758075713.95198,0.0,0.0,0.0,-28.07493,-128.28526,-33.9764,11.44,1.93,7.4,2.0
1758075713.94933,1758075713.96198,0.0,0.0,0.0,-22.00158,-93.04835,-40.96649,19.02,-1.92,3.05,2.0
1758075713.96402,1758075713.97198,0.0,0.0,0.0,-16.50119,-87.31877,-36.6693,19.02,-1.92,3.05,2.0
1758075713.96507,1758075713.98198,0.0,0.0,0.0,-10.94349,-81.30271,-31.79916,15.46,-3.15,1.4,2.0
1758075713.98023,1758075713.99198,0.0,0.0,0.0,-8.93814,-73.62508,-28.36141,15.46,-3.15,1.4,2.0
1758075713.99612,1758075714.00198,0.0,0.0,0.0,-11.51645,-65.48907,-22.91831,12.44,-1.14,0.98,2.0
1758075713.99712,1758075714.01198,0.0,0.0,0.0,-16.90226,-51.22243,-21.6578,11.27,0.92,0.58,2.0
1758075714.01219,1758075714.02198,0.0,0.0,0.0,-24.23611,-38.73195,-20.3973,11.27,0.92,0.58,2.0
1758075714.02802,1758075714.03198,0.0,0.0,0.0,-33.11696,-29.22085,-19.53786,11.07,2.08,0.84,2.0
1758075714.02993,1758075714.04198,0.0,0.0,0.0,-45.26366,-16.10011,-20.11082,11.07,2.08,0.84,2.0
1758075714.04589,1758075714.05198,0.0,0.0,0.0,-50.82136,-7.39116,-20.22541,11.1,2.3,1.03,2.0
1758075714.04718,1758075714.06198,0.0,0.0,0.0,-54.3737,3.83882,-20.3973,11.1,2.3,1.03,2.0
1758075714.06193,1758075714.07198,0.0,0.0,0.0,-55.34772,16.55848,-19.82434,11.45,1.26,0.25,2.0
1758075714.06473,1758075714.08198,0.0,0.0,0.0,-52.82671,31.2262,-18.56383,11.01,-0.19,-0.06,2.0
1758075714.07997,1758075714.09198,0.0,0.0,0.0,-48.9306,40.16434,-17.18874,11.01,-0.19,-0.06,2.0
1758075714.09602,1758075714.10198,0.0,0.0,0.0,-44.8053,49.15978,-15.87093,10.29,-1.31,-0.5,2.0
1758075714.09707,1758075714.11198,0.0,0.0,0.0,-41.02378,56.78012,-13.40721,10.29,-1.31,-0.5,2.0
1758075714.11224,1758075714.12198,0.0,0.0,0.0,-36.61201,66.5204,-12.54778,9.6,-1.71,-0.95,2.0
1758075714.12823,1758075714.13198,0.0,0.0,0.0,-34.95043,72.47916,-12.71966,9.6,-1.71,-0.95,2.0
1758075714.12915,1758075714.14198,0.0,0.0,0.0,-33.86181,76.83365,-13.40721,9.36,-1.31,-0.66,2.0
1758075714.1442,1758075714.15198,0.0,0.0,0.0,-33.74722,80.04221,-14.83961,9.36,-1.31,-0.66,2.0
1758075714.14515,1758075714.16198,0.0,0.0,0.0,-33.86181,76.94823,-16.04282,9.13,-0.65,-0.31,2.0
1758075714.15991,1758075714.17198,0.0,0.0,0.0,-32.88778,71.56243,-17.01685,8.34,-0.23,-0.14,2.0
1758075714.1771,1758075714.18198,0.0,0.0,0.0,-31.2262,66.74959,-17.76169,8.34,-0.23,-0.14,2.0
1758075714.17797,1758075714.19198,0.0,0.0,0.0,-27.33009,62.85347,-17.36062,8.33,-0.27,-0.42,2.0
1758075714.19325,1758075714.20198,0.0,0.0,0.0,-24.23611,59.53032,-16.10011,8.33,-0.27,-0.42,2.0
1758075714.19416,1758075714.21198,0.0,0.0,0.0,-20.79837,53.11319,-14.72501,8.36,-0.57,-0.38,2.0
1758075714.21097,1758075714.22198,0.0,0.0,0.0,-17.58981,47.95657,-12.54778,8.36,-0.57,-0.38,2.0
1758075714.22689,1758075714.23198,0.0,0.0,0.0,-13.69369,40.85189,-9.05273,8.6,-0.76,-0.29,2.0
1758075714.22811,1758075714.24198,0.0,0.0,0.0,-11.17268,35.00772,-7.10468,8.71,-0.9,-0.72,2.0
1758075714.24325,1758075714.25198,0.0,0.0,0.0,-8.47978,30.82513,-5.15662,8.71,-0.9,-0.72,2.0
1758075714.24443,1758075714.26198,0.0,0.0,0.0,-5.4431,30.65324,-3.83882,9.05,-1.01,-0.85,2.0
1758075714.26113,1758075714.27198,0.0,0.0,0.0,-0.68755,29.04896,-1.08862,9.05,-1.01,-0.85,2.0
1758075714.27707,1758075714.28198,0.0,0.0,0.0,3.49504,24.98096,1.03132,9.02,-1.13,-0.92,2.0
1758075714.27819,1758075714.29198,0.0,0.0,0.0,7.79223,19.76705,3.38045,9.02,-1.13,-0.92,2.0
1758075714.29297,1758075714.30198,0.0,0.0,0.0,12.14671,13.34992,6.07335,8.99,-1.22,-0.64,2.0
1758075714.29422,1758075714.31198,0.0,0.0,0.0,18.50654,1.60428,10.65701,9.06,-1.36,-0.95,2.0
1758075714.31031,1758075714.32197,0.0,0.0,0.0,21.94428,-11.17268,13.75099,9.06,-1.36,-0.95,2.0
1758075714.32732,1758075714.33197,0.0,0.0,0.0,23.72045,-27.84575,14.72501,8.4,-1.39,-0.79,2.0
1758075714.32846,1758075714.34197,0.0,0.0,0.0,25.43933,-38.1017,13.06344,8.4,-1.39,-0.79,2.0
1758075714.34303,1758075714.35197,0.0,0.0,0.0,25.89769,-28.87707,12.77696,9.55,-1.23,-0.81,2.0
1758075714.34501,1758075714.36197,0.0,0.0,0.0,27.2155,-22.40265,13.12073,9.55,-1.23,-0.81,2.0
1758075714.3623,1758075714.37197,0.0,0.0,0.0,27.67386,-17.53251,13.17803,10.46,-0.94,0.06,2.0
1758075714.37829,1758075714.38197,0.0,0.0,0.0,27.33009,-11.97482,11.00079,10.46,-0.94,0.06,2.0
1758075714.3803,1758075714.39197,0.0,0.0,0.0,26.01229,-11.28727,9.11003,10.04,-0.67,1.04,2.0
1758075714.39574,1758075714.40197,0.0,0.0,0.0,24.23611,-16.50119,6.53172,9.35,-0.57,1.53,2.0
1758075714.39696,1758075714.41197,0.0,0.0,0.0,22.74642,-32.77319,4.81285,9.35,-0.57,1.53,2.0
1758075714.41231,1758075714.42197,0.0,0.0,0.0,22.86102,-85.77179,11.45916,6.97,-0.34,2.97,2.0
1758075714.42828,1758075714.43197,0.0,0.0,0.0,22.86102,-122.67027,22.63183,6.97,-0.34,2.97,2.0
1758075714.43081,1758075714.44197,0.0,0.0,0.0,22.40265,-144.21349,39.99245,9.34,0.33,6.89,2.0
1758075714.44629,1758075714.45197,0.0,0.0,0.0,21.60051,-130.23331,51.27972,9.34,0.33,6.89,2.0
1758075714.44725,1758075714.46197,0.0,0.0,0.0,20.05352,-88.92306,53.45696,17.47,2.72,2.38,2.0
1758075714.46208,1758075714.47197,0.0,0.0,0.0,17.13144,-80.55787,47.32632,16.59,3.11,-0.41,2.0
1758075714.47809,1758075714.48197,0.0,0.0,0.0,11.28727,-83.19347,32.25753,16.59,3.11,-0.41,2.0
1758075714.47929,1758075714.49197,0.0,0.0,0.0,6.70361,-78.15145,18.73572,12.03,1.28,0.75,2.0
1758075714.49405,1758075714.50197,0.0,0.0,0.0,5.4431,-63.8275,3.38045,12.03,1.28,0.75,2.0
1758075714.49529,1758075714.51197,0.0,0.0,0.0,8.70896,-56.32175,-0.11459,12.16,0.31,0.99,2.0
1758075714.51098,1758075714.52197,0.0,0.0,0.0,15.29797,-46.63877,-2.40642,12.16,0.31,0.99,2.0
1758075714.52738,1758075714.53197,0.0,0.0,0.0,24.57989,-34.89313,0.68755,11.76,-0.06,1.75,2.0
1758075714.52857,1758075714.54197,0.0,0.0,0.0,40.16434,-18.16276,4.58366,11.32,-0.03,0.49,2.0
1758075714.54339,1758075714.55197,0.0,0.0,0.0,49.96192,-6.8182,7.84952,11.32,-0.03,0.49,2.0
1758075714.54454,1758075714.56197,0.0,0.0,0.0,57.58226,7.62034,9.62569,11.07,0.27,-0.31,2.0
1758075714.56212,1758075714.57197,0.0,0.0,0.0,63.65561,30.53865,10.59972,11.07,0.27,-0.31,2.0
1758075714.57847,1758075714.58197,0.0,0.0,0.0,65.2026,47.03984,9.91217,11.51,1.28,-0.69,2.0
1758075714.5801,1758075714.59197,0.0,0.0,0.0,64.45775,65.14531,8.02141,11.51,1.28,-0.69,2.0
1758075714.59623,1758075714.60197,0.0,0.0,0.0,62.56699,79.69843,6.35983,11.39,1.86,-0.6,2.0
1758075714.59714,1758075714.61197,0.0,0.0,0.0,58.72818,90.41274,3.72423,9.75,1.86,-0.78,2.0
1758075714.61239,1758075714.62197,0.0,0.0,0.0,55.6342,92.76187,3.20856,9.75,1.88,-0.78,2.0
1758075714.62819,1758075714.63197,0.0,0.0,0.0,52.884,92.64729,3.49504,9.02,1.74,-0.62,2.0
1758075714.62942,1758075714.64197,0.0,0.0,0.0,50.01921,92.3035,4.23989,9.02,1.74,-0.62,2.0
1758075714.64441,1758075714.65197,0.0,0.0,0.0,45.60744,91.043,5.21392,9.06,1.58,-0.55,2.0
1758075714.64534,1758075714.66197,0.0,0.0,0.0,42.57077,88.06361,6.35983,9.06,1.58,-0.55,2.0
1758075714.66192,1758075714.67197,0.0,0.0,0.0,39.13302,83.88103,6.99009,8.79,1.68,-0.3,2.0
1758075714.67746,1758075714.68197,0.0,0.0,0.0,35.52338,77.4639,7.79223,8.79,1.68,-0.3,2.0
1758075714.67878,1758075714.69197,0.0,0.0,0.0,29.04896,67.72362,9.33921,8.33,1.83,-0.06,2.0
1758075714.69335,1758075714.70197,0.0,0.0,0.0,24.98096,62.22322,10.02676,8.03,1.86,-0.01,2.0
1758075714.69435,1758075714.71197,0.0,0.0,0.0,20.79837,56.66553,10.37054,8.03,1.86,-0.01,2.0
1758075714.71084,1758075714.72197,0.0,0.0,0.0,16.84496,51.39432,10.48513,7.9,1.82,0.13,2.0
1758075714.7262,1758075714.73197,0.0,0.0,0.0,12.49048,39.87786,10.37054,7.9,1.82,0.13,2.0
1758075714.72739,1758075714.74197,0.0,0.0,0.0,10.02676,31.2262,9.91217,7.89,1.63,0.3,2.0
1758075714.74239,1758075714.75197,0.0,0.0,0.0,7.62034,23.49127,8.136,7.89,1.63,0.3,2.0
1758075714.75846,1758075714.76197,0.0,0.0,0.0,4.58366,14.83961,4.35448,8.05,1.42,0.3,2.0
1758075714.76045,1758075714.77197,0.0,0.0,0.0,2.63561,12.54778,1.77617,8.6,1.11,0.22,2.0
1758075714.7752,1758075714.78197,0.0,0.0,0.0,1.03132,10.65701,-0.51566,8.6,1.11,0.22,2.0
1758075714.77642,1758075714.79197,0.0,0.0,0.0,-0.40107,7.79223,-2.57831,8.84,0.9,0.12,2.0
1758075714.79118,1758075714.80197,0.0,0.0,0.0,-2.11994,4.52637,-4.18259,8.84,0.9,0.12,2.0
1758075714.80734,1758075714.81197,0.0,0.0,0.0,-3.09397,3.03668,-4.58366,9.07,0.7,-0.35,2.0
1758075714.80872,1758075714.82197,0.0,0.0,0.0,-4.1253,1.48969,-4.35448,9.07,0.7,-0.35,2.0
1758075714.82315,1758075714.83197,0.0,0.0,0.0,-4.92744,-0.17189,-3.95341,9.21,0.62,-0.85,2.0
1758075714.82435,1758075714.84197,0.0,0.0,0.0,-5.90147,-9.28192,-1.83346,8.74,0.53,-1.28,2.0
1758075714.84053,1758075714.85197,0.0,0.0,0.0,-5.72958,-16.3293,0.0573,8.74,0.53,-1.28,2.0
1758075714.85756,1758075714.86197,0.0,0.0,0.0,-6.35983,-22.34536,2.11994,8.31,0.59,-1.47,2.0
1758075714.85842,1758075714.87197,0.0,0.0,0.0,-7.21927,-26.06958,5.09932,8.31,0.59,-1.47,2.0
1758075714.87329,1758075714.88197,0.0,0.0,0.0,-11.86023,-1.48969,9.22462,9.75,1.01,-1.03,2.0
1758075714.87524,1758075714.89197,0.0,0.0,0.0,-14.09476,14.49583,15.12609,9.75,1.01,-1.03,2.0
1758075714.89027,1758075714.90197,0.0,0.0,0.0,-19.59516,6.47442,11.17268,11.21,1.48,-0.43,2.0
1758075714.90629,1758075714.91197,0.0,0.0,0.0,-23.31938,-8.99544,10.54242,11.21,1.48,-0.43,2.0
1758075714.90775,1758075714.92197,0.0,0.0,0.0,-27.44468,-22.68913,7.04738,8.97,2.04,-0.17,2.0
1758075714.92227,1758075714.93197,0.0,0.0,0.0,-29.73651,-21.08485,4.92744,10.23,2.1,-0.76,2.0
1758075714.93827,1758075714.94197,0.0,0.0,0.0,-32.42941,-15.24068,2.23454,10.23,2.1,-0.76,2.0
1758075714.93945,1758075714.95197,0.0,0.0,0.0,-35.69527,-9.74028,0.34377,11.27,1.91,0.03,2.0
1758075714.95422,1758075714.96197,0.0,0.0,0.0,-36.26823,-6.7609,0.40107,11.27,1.91,0.03,2.0
1758075714.95704,1758075714.97197,0.0,0.0,0.0,-35.40879,-9.91217,0.57296,10.88,1.74,1.06,2.0
1758075714.97258,1758075714.98197,0.0,0.0,0.0,-32.71589,-20.68378,-0.11459,10.88,1.74,1.06,2.0
1758075714.98858,1758075714.99197,0.0,0.0,0.0,-26.35606,-56.60823,-6.53172,10.79,1.37,3.69,2.0
1758075714.99213,1758075715.00197,0.0,0.0,0.0,-21.94428,-84.45398,-15.92823,11.31,0.02,5.09,2.0
1758075715.00756,1758075715.01197,0.0,0.0,0.0,-17.36062,-94.59533,-24.92367,11.31,0.02,5.09,2.0
1758075715.00962,1758075715.02197,0.0,0.0,0.0,-12.37589,-85.77179,-30.65324,14.67,-1.58,2.03,2.0
1758075715.02435,1758075715.03197,0.0,0.0,0.0,-7.10468,-74.88559,-30.30947,14.67,-1.58,2.03,2.0
1758075715.02716,1758075715.04197,0.0,0.0,0.0,-5.32851,-76.77635,-26.12688,11.42,-0.83,1.0,2.0
1758075715.04232,1758075715.05197,0.0,0.0,0.0,-4.98473,-79.12547,-21.60051,11.42,-0.83,1.0,2.0
1758075715.05851,1758075715.06197,0.0,0.0,0.0,-7.33386,-74.54182,-17.47521,8.23,0.64,1.26,2.0
1758075715.05986,1758075715.07197,0.0,0.0,0.0,-13.86558,-72.0208,-12.83425,8.0,1.62,1.66,2.0
1758075715.07461,1758075715.08197,0.0,0.0,0.0,-19.48057,-75.34396,-12.71966,8.0,1.62,1.66,2.0
1758075715.07783,1758075715.09197,0.0,0.0,0.0,-24.80907,-73.2813,-13.75099,8.66,2.18,2.19,2.0
1758075715.09331,1758075715.10197,0.0,0.0,0.0,-30.25217,-65.77556,-14.72501,8.66,2.18,2.19,2.0
1758075715.09454,1758075715.11197,0.0,0.0,0.0,-36.61201,-51.45161,-16.3293,11.16,2.0,0.91,2.0
1758075715.11056,1758075715.12197,0.0,0.0,0.0,-39.3622,-39.53409,-18.27736,11.16,2.0,0.91,2.0
1758075715.12656,1758075715.13197,0.0,0.0,0.0,-40.10705,-26.35606,-18.9649,12.25,1.09,0.03,2.0
1758075715.12779,1758075715.14197,0.0,0.0,0.0,-39.87786,-11.86023,-19.07949,12.25,1.09,0.03,2.0
1758075715.14244,1758075715.15197,0.0,0.0,0.0,-36.7266,4.87014,-18.16276,12.47,0.16,-0.58,2.0
1758075715.15841,1758075715.16197,0.0,0.0,0.0,-33.68992,15.87093,-15.98552,11.9,-0.5,-0.64,2.0
1758075715.15958,1758075715.17197,0.0,0.0,0.0,-30.65324,27.61657,-13.40721,11.9,-0.5,-0.64,2.0
1758075715.17432,1758075715.18197,0.0,0.0,0.0,-26.75713,45.03448,-9.5684,11.86,-0.67,-1.02,2.0
1758075715.17629,1758075715.19197,0.0,0.0,0.0,-24.98096,53.97263,-7.67763,11.86,-0.67,-1.02,2.0
1758075715.19247,1758075715.20197,0.0,0.0,0.0,-24.17882,63.48372,-6.7609,11.29,-0.35,-0.93,2.0
1758075715.20866,1758075715.21197,0.0,0.0,0.0,-24.00693,70.93218,-5.95876,11.29,-0.35,-0.93,2.0
1758075715.20965,1758075715.22197,0.0,0.0,0.0,-24.92367,80.32869,-6.07335,10.64,0.13,-0.94,2.0
1758075715.22448,1758075715.23197,0.0,0.0,0.0,-26.12688,88.00632,-7.33386,10.28,0.51,-0.8,2.0
1758075715.22642,1758075715.24197,0.0,0.0,0.0,-26.35606,91.21489,-7.73493,10.28,0.51,-0.8,2.0
1758075715.24142,1758075715.25197,0.0,0.0,0.0,-26.98631,87.43336,-8.25059,9.1,0.63,-0.37,2.0
1758075715.25947,1758075715.26197,0.0,0.0,0.0,-26.06958,77.17742,-7.96411,9.1,0.63,-0.37,2.0
1758075715.26043,1758075715.27197,0.0,0.0,0.0,-24.80907,69.61437,-7.39116,8.06,0.38,-0.18,2.0
1758075715.2773,1758075715.28197,0.0,0.0,0.0,-23.37668,63.13995,-6.41713,8.06,0.38,-0.18,2.0
1758075715.27862,1758075715.29197,0.0,0.0,0.0,-21.88699,55.57691,-5.21392,7.89,0.0,0.18,2.0
1758075715.29585,1758075715.30197,0.0,0.0,0.0,-18.90761,41.02378,-2.57831,7.55,-0.55,0.57,2.0
1758075715.29783,1758075715.31197,0.0,0.0,0.0,-16.38659,32.25753,0.74485,7.55,-0.55,0.57,2.0
1758075715.31424,1758075715.32197,0.0,0.0,0.0,-13.00614,26.24147,5.21392,7.84,-1.13,0.35,2.0
1758075715.3154,1758075715.33197,0.0,0.0,0.0,-9.22462,26.06958,9.05273,7.84,-1.13,0.35,2.0
1758075715.33043,1758075715.34197,0.0,0.0,0.0,-2.7502,27.1582,15.41257,8.51,-1.5,-0.32,2.0
1758075715.3478,1758075715.35197,0.0,0.0,0.0,1.83346,25.15285,19.25138,8.51,-1.5,-0.32,2.0
1758075715.34815,1758075715.36197,0.0,0.0,0.0,6.7609,21.42862,22.28806,8.5,-1.41,-0.48,2.0
1758075715.36451,1758075715.37197,0.0,0.0,0.0,12.77696,14.49583,24.23611,8.5,-1.41,-0.48,2.0
1758075715.36623,1758075715.38197,0.0,0.0,0.0,16.04282,6.99009,24.4653,8.8,-1.11,-1.12,2.0
1758075715.38175,1758075715.39197,0.0,0.0,0.0,18.16276,-5.27121,22.57454,8.71,-0.84,-1.27,2.0
1758075715.39773,1758075715.40197,0.0,0.0,0.0,19.99623,-14.49583,19.19409,8.71,-0.84,-1.27,2.0
1758075715.39807,1758075715.41197,0.0,0.0,0.0,19.48057,-15.98552,11.17268,9.48,-0.46,-0.88,2.0
1758075715.41428,1758075715.42197,0.0,0.0,0.0,17.36062,-8.136,6.41713,9.48,-0.46,-0.88,2.0
1758075715.41709,1758075715.43197,0.0,0.0,0.0,14.72501,1.3178,2.7502,10.93,0.46,0.15,2.0
1758075715.43277,1758075715.44197,0.0,0.0,0.0,11.17268,12.60507,0.17189,10.93,0.46,0.15,2.0
1758075715.44851,1758075715.45197,0.0,0.0,0.0,6.7609,25.55392,-3.20856,11.97,1.07,0.43,2.0
1758075715.44901,1758075715.46197,0.0,0.0,0.0,6.18794,16.21471,-5.95876,10.85,0.97,0.16,2.0
1758075715.46536,1758075715.47197,0.0,0.0,0.0,4.69825,-11.28727,-7.79223,10.85,0.97,0.16,2.0
1758075715.46732,1758075715.48197,0.0,0.0,0.0,7.67763,-33.46074,-4.58366,8.5,0.15,-1.22,2.0
1758075715.48284,1758075715.49197,0.0,0.0,0.0,9.28192,-31.45539,-2.34913,8.5,0.15,-1.22,2.0
1758075715.49882,1758075715.50197,0.0,0.0,0.0,10.65701,-25.55392,-0.22918,11.7,-0.37,-0.75,2.0
1758075715.49922,1758075715.51197,0.0,0.0,0.0,12.60507,-25.8404,1.3751,11.7,-0.37,-0.75,2.0
1758075715.51654,1758075715.52197,0.0,0.0,0.0,13.75099,-27.38738,1.83346,10.94,-0.62,-0.08,2.0
1758075715.51856,1758075715.53197,0.0,0.0,0.0,12.89155,-35.3515,0.74485,10.87,-0.76,3.11,2.0
1758075715.53459,1758075715.54197,0.0,0.0,0.0,12.71966,-55.97798,1.3751,10.87,-0.76,3.11,2.0
1758075715.53623,1758075715.55197,0.0,0.0,0.0,13.12073,-80.78706,3.83882,9.52,0.25,3.35,2.0
1758075715.55179,1758075715.56197,0.0,0.0,0.0,13.46451,-98.72063,12.77696,9.52,0.25,3.35,2.0
1758075715.56752,1758075715.57197,0.0,0.0,0.0,11.45916,-100.95516,18.16276,12.05,1.18,3.98,2.0
1758075715.56811,1758075715.58197,0.0,0.0,0.0,8.70896,-99.46548,21.7724,12.05,1.18,3.98,2.0
1758075715.58343,1758075715.59197,0.0,0.0,0.0,6.35983,-101.01247,23.94964,12.23,1.83,2.02,2.0
1758075715.58472,1758075715.60197,0.0,0.0,0.0,4.29718,-98.03308,25.55392,12.23,1.83,2.02,2.0
1758075715.59955,1758075715.61197,0.0,0.0,0.0,4.23989,-90.75652,26.41335,10.46,1.57,1.35,2.0
1758075715.61585,1758075715.62197,0.0,0.0,0.0,5.15662,-77.4639,26.81443,10.45,0.3,0.86,2.0
1758075715.61681,1758075715.63197,0.0,0.0,0.0,7.50575,-60.38975,27.10091,10.45,0.3,0.86,2.0
1758075715.63181,1758075715.64197,0.0,0.0,0.0,12.71966,-36.03905,25.89769,10.9,-0.63,1.57,2.0
1758075715.63277,1758075715.65197,0.0,0.0,0.0,16.95955,-20.62648,24.63719,10.9,-0.63,1.57,2.0
1758075715.64808,1758075715.66197,0.0,0.0,0.0,21.48592,-4.1253,21.94428,11.67,-0.38,1.54,2.0
1758075715.66636,1758075715.67197,0.0,0.0,0.0,25.49662,12.60507,18.27736,11.67,-0.38,1.54,2.0
1758075715.66784,1758075715.68197,0.0,0.0,0.0,29.96569,37.58603,11.97482,12.74,0.28,0.39,2.0
1758075715.68293,1758075715.69197,0.0,0.0,0.0,31.28349,53.11319,7.21927,12.47,0.63,-0.27,2.0
1758075715.68457,1758075715.70197,0.0,0.0,0.0,31.85646,64.45775,2.6929,12.47,0.63,-0.27,2.0
1758075715.69964,1758075715.71197,0.0,0.0,0.0,32.42941,71.04677,-0.74485,10.99,0.67,-0.41,2.0
1758075715.71596,1758075715.72197,0.0,0.0,0.0,33.74722,76.77635,-2.57831,10.99,0.67,-0.41,2.0
1758075715.71716,1758075715.73197,0.0,0.0,0.0,35.06502,79.98491,-2.86479,10.36,0.54,-0.66,2.0
1758075715.73193,1758075715.74197,0.0,0.0,0.0,36.61201,83.02158,-3.09397,10.36,0.54,-0.66,2.0
1758075715.73283,1758075715.75197,0.0,0.0,0.0,37.87251,84.79775,-3.03668,10.01,0.42,-0.64,2.0
1758075715.74818,1758075715.76197,0.0,0.0,0.0,38.50277,88.29281,-0.51566,9.37,0.43,-0.32,2.0
1758075715.76471,1758075715.77197,0.0,0.0,0.0,37.52874,88.57928,0.80214,9.37,0.43,-0.32,2.0
1758075715.76646,1758075715.78197,0.0,0.0,0.0,36.38282,86.91771,3.72423,8.72,0.66,-0.11,2.0
1758075715.78163,1758075715.79197,0.0,0.0,0.0,33.46074,82.21945,7.16197,8.72,0.66,-0.11,2.0
1758075715.78286,1758075715.80197,0.0,0.0,0.0,30.93972,78.26604,8.76626,8.44,0.94,0.17,2.0
1758075715.79818,1758075715.81197,0.0,0.0,0.0,28.64789,70.47381,9.91217,8.44,0.94,0.17,2.0
1758075715.8139,1758075715.82197,0.0,0.0,0.0,26.12688,60.90542,10.08406,7.71,1.16,0.21,2.0
1758075715.81579,1758075715.83197,0.0,0.0,0.0,22.74642,48.9879,9.5684,7.71,1.16,0.4,2.0
1758075715.83264,1758075715.84197,0.0,0.0,0.0,20.45459,42.68536,7.96411,7.59,1.29,0.4,2.0
1758075715.83385,1758075715.85197,0.0,0.0,0.0,18.10547,35.12231,5.4431,7.66,1.34,0.54,2.0
1758075715.84916,1758075715.86197,0.0,0.0,0.0,15.92823,27.61657,2.57831,7.66,1.34,0.54,2.0
1758075715.86456,1758075715.87197,0.0,0.0,0.0,12.83425,20.97026,-1.60428,7.83,1.23,0.46,2.0
1758075715.86667,1758075715.88197,0.0,0.0,0.0,11.22997,21.7151,-4.1253,7.83,1.23,0.46,2.0
1758075715.88248,1758075715.89197,0.0,0.0,0.0,9.4538,23.72045,-6.07335,8.79,1.1,0.21,2.0
1758075715.88366,1758075715.90197,0.0,0.0,0.0,8.0787,24.98096,-7.62034,8.79,1.1,0.21,2.0
1758075715.90045,1758075715.91197,0.0,0.0,0.0,6.13065,25.55392,-7.84952,9.1,1.08,0.01,2.0
1758075715.9157,1758075715.92197,0.0,0.0,0.0,4.92744,24.00693,-7.21927,9.13,1.12,-0.26,2.0
1758075715.91687,1758075715.93197,0.0,0.0,0.0,4.46907,16.84496,-6.24524,9.13,1.12,-0.26,2.0
1758075715.93196,1758075715.94197,0.0,0.0,0.0,4.69825,4.87014,-4.29718,8.03,1.12,-0.69,2.0
1758075715.9333,1758075715.95197,0.0,0.0,0.0,5.27121,-16.3293,-1.43239,8.03,1.12,-0.69,2.0
1758075715.95079,1758075715.96197,0.0,0.0,0.0,5.32851,-28.93437,0.57296,7.32,1.08,-0.62,2.0
1758075715.96567,1758075715.97197,0.0,0.0,0.0,5.4431,-36.26823,2.6929,7.32,1.08,-0.62,2.0
1758075715.96694,1758075715.98197,0.0,0.0,0.0,2.57831,-29.27814,3.83882,8.33,1.34,-0.36,2.0
1758075715.98196,1758075715.99197,0.0,0.0,0.0,0.40107,-1.71887,3.95341,11.21,1.84,0.27,2.0
1758075715.98333,1758075716.00197,0.0,0.0,0.0,-1.83346,17.81899,3.95341,11.21,1.84,0.27,2.0
1758075715.99928,1758075716.01197,0.0,0.0,0.0,-5.21392,-7.73493,2.06265,9.29,2.66,1.48,2.0
1758075716.01675,1758075716.02197,0.0,0.0,0.0,-13.75099,-44.63341,0.74485,9.29,2.66,1.48,2.0
1758075716.01779,1758075716.03197,0.0,0.0,0.0,-21.08485,-51.90998,-0.40107,8.15,2.93,0.58,2.0
1758075716.03266,1758075716.04197,0.0,0.0,0.0,-27.2155,-58.4417,-0.85944,8.15,2.93,0.58,2.0
1758075716.03509,1758075716.05197,0.0,0.0,0.0,-30.02299,-69.21331,-1.14592,10.2,2.95,1.88,2.0
1758075716.04972,1758075716.06197,0.0,0.0,0.0,-28.41871,-96.4861,-5.84417,10.88,1.81,5.15,2.0
1758075716.06685,1758075716.07197,0.0,0.0,0.0,-26.01229,-116.08125,-12.60507,10.88,1.81,5.15,2.0
1758075716.06806,1758075716.08197,0.0,0.0,0.0,-20.79837,-113.73213,-19.48057,15.05,-1.22,4.65,2.0
1758075716.0831,1758075716.09197,0.0,0.0,0.0,-13.12073,-94.25156,-22.68913,15.05,-1.22,4.65,2.0
1758075716.08476,1758075716.10197,0.0,0.0,0.0,-2.7502,-68.35387,-19.19409,17.56,-2.95,1.24,2.0
1758075716.10016,1758075716.11197,0.0,0.0,0.0,2.29183,-56.20716,-15.0115,17.56,-2.95,1.24,2.0
1758075716.11607,1758075716.12197,0.0,0.0,0.0,5.72958,-53.05589,-8.99544,13.15,-1.64,1.13,2.0
1758075716.11721,1758075716.13197,0.0,0.0,0.0,6.8182,-54.71747,-6.18794,13.15,-1.64,1.13,2.0
1758075716.13185,1758075716.14197,0.0,0.0,0.0,5.61499,-74.08345,-5.84417,9.33,-0.29,2.05,2.0
1758075716.13298,1758075716.15197,0.0,0.0,0.0,2.6929,-86.80311,-8.25059,7.74,0.14,2.33,2.0
1758075716.14915,1758075716.16197,0.0,0.0,0.0,-1.03132,-82.39134,-9.74028,7.74,0.14,2.33,2.0
1758075716.16515,1758075716.17197,0.0,0.0,0.0,-8.136,-56.37905,-13.40721,12.5,0.82,1.37,2.0
1758075716.16607,1758075716.18197,0.0,0.0,0.0,-21.31403,-29.04896,-14.9542,12.5,0.82,1.37,2.0
1758075716.18113,1758075716.19197,0.0,0.0,0.0,-34.60666,-64.11398,-15.98552,12.51,1.23,1.16,2.0
1758075716.19722,1758075716.20197,0.0,0.0,0.0,6.99009,-21.60051,-17.6471,12.51,1.23,1.16,2.0
1758075716.19838,1758075716.21197,0.0,0.0,0.0,-35.3515,-19.70975,-18.16276,10.95,0.64,0.37,2.0
1758075716.21315,1758075716.22197,0.0,0.0,0.0,-36.26823,13.17803,-17.87628,10.68,-0.12,-0.09,2.0
1758075716.21591,1758075716.23197,0.0,0.0,0.0,-35.3515,23.83505,-16.84496,10.68,-0.12,-0.09,2.0
1758075716.23108,1758075716.24197,0.0,0.0,0.0,-33.05967,34.72124,-15.06879,10.56,-0.75,-0.2,2.0
1758075716.24687,1758075716.25197,0.0,0.0,0.0,-28.36141,52.08187,-11.97482,10.56,-0.75,-0.2,2.0
1758075716.24808,1758075716.26197,0.0,0.0,0.0,-25.43933,61.53567,-10.37054,10.91,-1.1,-0.45,2.0
1758075716.26294,1758075716.27197,0.0,0.0,0.0,-23.26209,69.90086,-9.4538,10.91,-1.1,-0.45,2.0
1758075716.26476,1758075716.28197,0.0,0.0,0.0,-21.7151,76.89094,-9.22462,10.19,-1.04,-0.52,2.0
1758075716.27988,1758075716.29197,0.0,0.0,0.0,-20.97026,86.45934,-9.11003,9.57,-0.73,-0.48,2.0
1758075716.29616,1758075716.30197,0.0,0.0,0.0,-20.85567,91.50137,-9.62569,9.57,-0.73,-0.48,2.0
1758075716.29705,1758075716.31197,0.0,0.0,0.0,-20.85567,95.0537,-10.25595,9.03,-0.4,-0.25,2.0
1758075716.31206,1758075716.32197,0.0,0.0,0.0,-20.3973,96.42879,-10.31324,9.03,-0.4,-0.25,2.0
1758075716.31338,1758075716.33197,0.0,0.0,0.0,-20.05352,96.65798,-10.31324,8.45,-0.25,-0.02,2.0
1758075716.32914,1758075716.34197,0.0,0.0,0.0,-19.53786,93.16295,-9.85487,8.45,-0.25,-0.02,2.0
1758075716.34673,1758075716.35197,0.0,0.0,0.0,-18.90761,87.08958,-9.85487,7.75,-0.16,0.13,2.0
1758075716.34787,1758075716.36197,0.0,0.0,0.0,-17.99088,80.04221,-9.39651,7.75,-0.16,0.13,2.0
1758075716.3629,1758075716.37197,0.0,0.0,0.0,-16.3293,68.52576,-8.99544,7.32,-0.16,0.47,2.0
1758075716.36488,1758075716.38197,0.0,0.0,0.0,-15.0115,60.44705,-8.65166,7.32,-0.3,0.43,2.0
1758075716.37979,1758075716.39197,0.0,0.0,0.0,-13.5218,52.76942,-8.02141,7.32,-0.3,0.43,2.0
1758075716.39613,1758075716.40197,0.0,0.0,0.0,-10.8289,42.28429,-6.53172,7.73,-0.63,0.69,2.0
1758075716.39801,1758075716.41197,0.0,0.0,0.0,-8.25059,35.58068,-5.27121,7.73,-0.63,0.69,2.0
1758075716.41297,1758075716.42197,0.0,0.0,0.0,-5.21392,30.76784,-4.18259,8.25,-1.06,0.44,2.0
1758075716.41496,1758075716.43197,0.0,0.0,0.0,-1.77617,27.44468,-3.38045,8.25,-1.06,0.44,2.0
1758075716.42995,1758075716.44197,0.0,0.0,0.0,3.55234,21.7724,-3.26586,8.79,-1.37,-0.07,2.0
1758075716.44734,1758075716.45197,0.0,0.0,0.0,7.67763,15.46986,-3.83882,8.73,-1.46,-0.41,2.0
1758075716.4488,1758075716.46197,0.0,0.0,0.0,12.14671,2.63561,-4.1253,8.73,-1.46,-0.41,2.0
1758075716.46337,1758075716.47197,0.0,0.0,0.0,15.12609,-13.75099,-6.58902,7.84,-1.45,-0.81,2.0
1758075716.46412,1758075716.48197,0.0,0.0,0.0,18.44924,-27.10091,-9.96947,7.84,-1.45,-0.81,2.0
1758075716.47899,1758075716.49197,0.0,0.0,0.0,19.70975,-19.48057,-10.65701,9.44,-1.19,-0.53,2.0
1758075716.49687,1758075716.50197,0.0,0.0,0.0,20.79837,-17.30333,-10.48513,9.44,-1.19,-0.53,2.0
1758075716.49793,1758075716.51197,0.0,0.0,0.0,20.11082,-18.85031,-10.25595,10.94,-0.5,0.35,2.0
1758075716.51312,1758075716.52197,0.0,0.0,0.0,16.67307,-19.59516,-10.48513,11.51,0.5,0.73,2.0
1758075716.51739,1758075716.53197,0.0,0.0,0.0,14.03747,-23.66316,-11.22997,11.51,0.5,0.73,2.0
1758075716.53326,1758075716.54197,0.0,0.0,0.0,11.63104,-30.25217,-12.89155,10.92,0.64,-0.37,2.0
1758075716.53414,1758075716.55197,0.0,0.0,0.0,10.02676,-36.84119,-14.15206,10.92,0.64,-0.37,2.0
1758075716.54995,1758075716.56197,0.0,0.0,0.0,9.28192,-50.53488,-13.98017,10.41,-0.57,0.92,2.0
1758075716.56727,1758075716.57197,0.0,0.0,0.0,10.37054,-60.16057,-11.11538,10.41,-0.57,0.92,2.0
1758075716.56847,1758075716.58197,0.0,0.0,0.0,9.62569,-67.32255,-5.4431,11.17,-0.84,3.8,2.0
1758075716.58334,1758075716.59197,0.0,0.0,0.0,10.31324,-91.50137,11.80293,11.17,-0.84,3.8,2.0
1758075716.58665,1758075716.60197,0.0,0.0,0.0,9.33921,-134.18672,25.21014,11.43,1.07,6.28,2.0
1758075716.60201,1758075716.61197,0.0,0.0,0.0,7.84952,-139.05687,39.07573,12.61,1.74,4.02,2.0
1758075716.60313,1758075716.62197,0.0,0.0,0.0,6.18794,-115.85207,46.86795,12.61,1.74,4.02,2.0
1758075716.6213,1758075716.63197,0.0,0.0,0.0,4.46907,-89.32412,52.42564,15.04,2.32,0.44,2.0
1758075716.63725,1758075716.64197,0.0,0.0,0.0,4.92744,-81.87567,52.65482,15.04,2.32,0.44,2.0
1758075716.63821,1758075716.65197,0.0,0.0,0.0,6.53172,-73.62508,50.93595,12.11,1.19,2.01,2.0
1758075716.65333,1758075716.66197,0.0,0.0,0.0,10.31324,-65.37449,48.12846,12.11,1.19,2.01,2.0
1758075716.6577,1758075716.67197,0.0,0.0,0.0,17.36062,-48.9306,41.88322,12.42,0.13,2.58,2.0
1758075716.67332,1758075716.68197,0.0,0.0,0.0,22.23076,-33.9764,36.03905,12.8,0.17,2.08,2.0
1758075716.67421,1758075716.69197,0.0,0.0,0.0,27.10091,-18.62113,29.8511,12.8,0.17,2.08,2.0
1758075716.68932,1758075716.70197,0.0,0.0,0.0,30.93972,-3.60963,23.26209,11.83,0.59,0.81,2.0
1758075716.7069,1758075716.71197,0.0,0.0,0.0,35.12231,19.19409,13.34992,11.83,0.59,0.81,2.0
1758075716.70826,1758075716.72197,0.0,0.0,0.0,37.01308,33.34615,8.30789,10.69,0.78,0.32,2.0
1758075716.72295,1758075716.73197,0.0,0.0,0.0,37.98711,45.77933,3.83882,10.69,0.78,0.32,2.0
1758075716.72499,1758075716.74197,0.0,0.0,0.0,37.47144,58.49899,0.45837,10.32,0.9,0.28,2.0
1758075716.74007,1758075716.75197,0.0,0.0,0.0,36.89849,74.08345,-2.57831,9.98,0.93,-0.12,2.0
1758075716.75795,1758075716.76197,0.0,0.0,0.0,35.92446,84.1675,-3.72423,9.98,0.93,-0.12,2.0
1758075716.75963,1758075716.77197,0.0,0.0,0.0,35.52338,92.3035,-4.29718,9.3,0.93,-0.21,2.0
1758075716.77612,1758075716.78197,0.0,0.0,0.0,35.06502,98.20497,-4.81285,9.3,0.93,-0.21,2.0
1758075716.77786,1758075716.79197,0.0,0.0,0.0,35.12231,100.03843,-4.92744,8.44,0.92,-0.02,2.0
1758075716.79388,1758075716.80197,0.0,0.0,0.0,35.58068,100.5541,-3.83882,8.44,0.92,-0.02,2.0
1758075716.79745,1758075716.81197,0.0,0.0,0.0,35.12231,102.78864,-1.71887,8.3,0.87,0.29,2.0
1758075716.81313,1758075716.82197,0.0,0.0,0.0,34.09099,100.15303,1.83346,8.3,0.87,0.29,2.0
1758075716.81427,1758075716.83197,0.0,0.0,0.0,33.40344,94.19427,4.92744,8.09,0.87,0.38,2.0
1758075716.82937,1758075716.84197,0.0,0.0,0.0,32.54401,87.43336,7.96411,7.66,0.92,0.88,2.0
1758075716.84527,1758075716.85197,0.0,0.0,0.0,31.56997,79.64114,10.8289,7.66,0.92,0.88,2.0
1758075716.84705,1758075716.86197,0.0,0.0,0.0,29.8511,66.29122,14.09476,7.33,0.99,0.76,2.0
1758075716.86202,1758075716.87197,0.0,0.0,0.0,28.36141,56.83742,15.0115,7.33,0.99,0.76,2.0
1758075716.86409,1758075716.88197,0.0,0.0,0.0,26.75713,47.38361,14.66772,6.88,1.15,0.75,2.0
1758075716.88039,1758075716.89197,0.0,0.0,0.0,24.92367,37.87251,12.37589,6.88,1.15,0.75,2.0
1758075716.89614,1758075716.90197,0.0,0.0,0.0,22.40265,26.24147,7.16197,6.84,1.29,0.55,2.0
1758075716.89732,1758075716.91197,0.0,0.0,0.0,20.85567,22.74642,3.95341,7.75,1.28,0.33,2.0
1758075716.91227,1758075716.92197,0.0,0.0,0.0,19.48057,21.7724,0.97403,7.75,1.28,0.33,2.0
1758075716.91762,1758075716.93197,0.0,0.0,0.0,18.22006,19.76705,-1.20321,8.75,1.1,0.07,2.0
1758075716.93314,1758075716.94197,0.0,0.0,0.0,17.24603,6.35983,-2.97938,8.75,1.1,0.07,2.0
1758075716.93467,1758075716.95197,0.0,0.0,0.0,17.53251,-6.41713,-2.40642,7.98,0.73,-0.39,2.0
1758075716.95125,1758075716.96197,0.0,0.0,0.0,17.47521,-17.99088,-0.97403,7.98,0.73,-0.39,2.0
1758075716.96736,1758075716.97197,0.0,0.0,0.0,16.67307,-27.96034,2.34913,7.75,0.45,-1.14,2.0
1758075716.96832,1758075716.98197,0.0,0.0,0.0,15.69904,-29.10626,8.36518,8.74,0.75,-0.61,2.0
1758075716.98536,1758075716.99197,0.0,0.0,0.0,13.12073,-14.61043,6.13065,8.74,0.75,-0.61,2.0
1758075716.98714,1758075717.00197,0.0,0.0,0.0,11.28727,6.99009,7.62034,11.51,1.39,0.17,2.0
1758075717.00215,1758075717.01197,0.0,0.0,0.0,9.96947,14.72501,9.96947,11.51,1.39,0.17,2.0
1758075717.00335,1758075717.02197,0.0,0.0,0.0,6.8182,-29.62192,6.70361,8.88,2.28,1.29,2.0
1758075717.01913,1758075717.03197,0.0,0.0,0.0,5.95876,-46.52417,6.13065,8.88,2.28,1.29,2.0
1758075717.03509,1758075717.04197,0.0,0.0,0.0,2.7502,-52.48294,2.92208,9.44,2.21,0.33,2.0
1758075717.03638,1758075717.05197,0.0,0.0,0.0,-2.46372,-54.48829,4.1253,9.44,2.21,0.33,2.0
1758075717.052,1758075717.06197,0.0,0.0,0.0,-5.84417,-54.88936,7.84952,10.98,1.82,-0.33,2.0
1758075717.05343,1758075717.07197,0.0,0.0,0.0,-8.30789,-56.32175,12.54778,10.8,1.76,0.63,2.0
1758075717.07232,1758075717.08197,0.0,0.0,0.0,-8.88085,-63.77021,16.38659,10.8,1.76,0.63,2.0
1758075717.07416,1758075717.09197,0.0,0.0,0.0,-7.44845,-88.40739,16.10011,10.26,1.76,3.19,2.0
1758075717.09039,1758075717.10197,0.0,0.0,0.0,-6.13065,-107.37229,12.14671,10.26,1.76,3.19,2.0
1758075717.10748,1758075717.11197,0.0,0.0,0.0,-6.7609,-128.05608,1.60428,11.25,0.66,5.17,2.0
1758075717.10839,1758075717.12197,0.0,0.0,0.0,-6.70361,-133.84296,-11.45916,11.25,0.66,5.17,2.0
1758075717.1235,1758075717.13197,0.0,0.0,0.0,-5.32851,-118.08661,-27.73116,14.24,-0.43,4.22,2.0
1758075717.1252,1758075717.14197,0.0,0.0,0.0,-4.1253,-104.45021,-34.66395,14.68,-0.68,3.0,2.0
1758075717.14218,1758075717.15197,0.0,0.0,0.0,-3.32316,-95.1683,-38.21629,14.68,-0.68,3.0,2.0
1758075717.14424,1758075717.16197,0.0,0.0,0.0,-3.89611,-88.57928,-39.82057,11.47,0.25,2.52,2.0
1758075717.16019,1758075717.17197,0.0,0.0,0.0,-6.70361,-82.27674,-35.92446,11.47,0.25,2.52,2.0
1758075717.1765,1758075717.18197,0.0,0.0,0.0,-9.96947,-74.42722,-30.99702,11.09,1.12,2.19,2.0
1758075717.17825,1758075717.19197,0.0,0.0,0.0,-14.43854,-64.11398,-25.61122,11.09,1.12,2.19,2.0
1758075717.19348,1758075717.20197,0.0,0.0,0.0,-18.85031,-50.3057,-19.13679,12.85,1.43,1.41,2.0
1758075717.19535,1758075717.21197,0.0,0.0,0.0,-24.35071,-31.56997,-15.0115,13.34,1.26,0.81,2.0
1758075717.21053,1758075717.22197,0.0,0.0,0.0,-27.38738,-18.50654,-12.54778,13.34,1.26,0.81,2.0
1758075717.22634,1758075717.23197,0.0,0.0,0.0,-29.39274,-5.32851,-10.48513,12.29,0.91,0.35,2.0
1758075717.22746,1758075717.24197,0.0,0.0,0.0,-31.62727,13.23533,-8.99544,12.29,0.91,0.35,2.0
1758075717.24229,1758075717.25197,0.0,0.0,0.0,-32.14294,23.83505,-8.65166,11.25,0.5,-0.03,2.0
1758075717.24459,1758075717.26197,0.0,0.0,0.0,-32.20023,34.49206,-8.88085,11.25,0.5,-0.03,2.0
1758075717.26141,1758075717.27197,0.0,0.0,0.0,-31.74186,44.17505,-8.93814,10.35,-0.09,-0.11,2.0
1758075717.27736,1758075717.28197,0.0,0.0,0.0,-30.82513,57.63955,-9.68299,9.65,-0.09,-0.3,2.0
1758075717.27852,1758075717.29197,0.0,0.0,0.0,-30.02299,64.91612,-10.31324,9.65,-0.5,-0.3,2.0
1758075717.29361,1758075717.30197,0.0,0.0,0.0,-28.76248,70.30193,-11.00079,8.94,-0.54,-0.34,2.0
1758075717.29733,1758075717.31197,0.0,0.0,0.0,-28.36141,75.85962,-12.204,8.94,-0.54,-0.34,2.0
1758075717.31252,1758075717.32197,0.0,0.0,0.0,-26.87172,82.90699,-13.5218,8.61,-0.33,-0.39,2.0
1758075717.3135,1758075717.33197,0.0,0.0,0.0,-26.41335,87.08958,-14.66772,8.61,-0.33,-0.39,2.0
1758075717.32962,1758075717.34197,0.0,0.0,0.0,-25.61122,89.43871,-14.72501,8.23,-0.1,-0.13,2.0
1758075717.34612,1758075717.35197,0.0,0.0,0.0,-24.5226,89.55331,-15.24068,8.23,-0.1,-0.13,2.0
1758075717.34738,1758075717.36197,0.0,0.0,0.0,-21.88699,86.40204,-14.9542,7.56,-0.05,0.27,2.0
1758075717.36263,1758075717.37197,0.0,0.0,0.0,-19.42327,80.72976,-14.03747,6.88,-0.26,0.45,2.0
1758075717.36463,1758075717.38197,0.0,0.0,0.0,-16.84496,72.88023,-12.43318,6.88,-0.26,0.45,2.0
1758075717.38215,1758075717.39197,0.0,0.0,0.0,-14.20935,65.48907,-10.31324,6.6,-0.74,0.56,2.0
1758075717.38652,1758075717.40197,0.0,0.0,0.0,-10.59972,57.12389,-6.53172,6.6,-0.74,0.56,2.0
1758075717.40235,1758075717.41197,0.0,0.0,0.0,-7.84952,52.42564,-4.1253,7.34,-1.26,0.54,2.0
1758075717.40388,1758075717.42197,0.0,0.0,0.0,-4.1253,46.35228,-1.08862,7.34,-1.26,0.54,2.0
1758075717.42163,1758075717.43197,0.0,0.0,0.0,2.34913,40.27893,0.97403,7.81,-1.57,0.07,2.0
1758075717.43759,1758075717.44197,0.0,0.0,0.0,6.70361,35.52338,0.97403,8.47,-1.57,-0.62,2.0
1758075717.43854,1758075717.45197,0.0,0.0,0.0,11.28727,25.8404,-0.74485,8.47,-1.57,-0.62,2.0
1758075717.45413,1758075717.46197,0.0,0.0,0.0,14.9542,10.94349,-4.1253,8.11,-1.27,-0.76,2.0
1758075717.4555,1758075717.47197,0.0,0.0,0.0,20.45459,-10.8862,-11.34457,8.11,-1.27,-0.76,2.0
1758075717.4706,1758075717.48197,0.0,0.0,0.0,22.34536,-10.71431,-16.90226,8.8,-0.98,-1.08,2.0
1758075717.47791,1758075717.49197,0.0,0.0,0.0,24.98096,-7.21927,-17.58981,8.8,-0.98,-1.08,2.0
1758075717.49441,1758075717.50197,0.0,0.0,0.0,25.89769,-8.99544,-18.62113,11.18,-0.39,-0.36,2.0
1758075717.49619,1758075717.51197,0.0,0.0,0.0,24.75178,-9.96947,-18.22006,11.72,0.46,0.34,2.0
1758075717.51138,1758075717.52197,0.0,0.0,0.0,21.88699,-11.00079,-17.53251,11.72,0.46,0.34,2.0
1758075717.52763,1758075717.53197,0.0,0.0,0.0,18.85031,-17.01685,-17.47521,11.59,1.01,0.16,2.0
1758075717.53065,1758075717.54197,0.0,0.0,0.0,15.64175,-24.29341,-17.01685,11.59,1.01,0.16,2.0
1758075717.54619,1758075717.55197,0.0,0.0,0.0,11.17268,-38.84654,-16.10011,10.3,0.49,0.03,2.0
1758075717.54781,1758075717.56197,0.0,0.0,0.0,9.85487,-54.94666,-12.37589,10.3,0.49,0.03,2.0
1758075717.56241,1758075717.57197,0.0,0.0,0.0,8.30789,-86.00097,-6.07335,9.1,-0.09,2.82,2.0
1758075717.56361,1758075717.58197,0.0,0.0,0.0,4.35448,-120.60761,2.92208,9.1,-0.09,2.82,2.0
1758075717.58073,1758075717.59197,0.0,0.0,0.0,0.57296,-150.22955,25.8404,8.7,1.25,4.78,2.0
1758075717.59676,1758075717.60197,0.0,0.0,0.0,-4.29718,-145.98965,37.35685,13.67,2.39,6.48,2.0
1758075717.59765,1758075717.61197,0.0,0.0,0.0,-8.25059,-134.5305,47.09713,13.67,2.39,6.48,2.0
1758075717.61263,1758075717.62197,0.0,0.0,0.0,-13.46451,-116.76881,54.3737,15.57,3.51,2.49,2.0
1758075717.61369,1758075717.63197,0.0,0.0,0.0,-15.92823,-87.60525,54.08722,15.57,3.51,2.49,2.0
1758075717.63021,1758075717.64197,0.0,0.0,0.0,-15.69904,-73.3959,52.48294,14.54,2.08,2.35,2.0
1758075717.64654,1758075717.65197,0.0,0.0,0.0,-12.43318,-66.00475,48.9306,14.54,2.08,2.35,2.0
1758075717.64766,1758075717.66197,0.0,0.0,0.0,-2.92208,-57.75415,42.28429,12.98,0.0,2.51,2.0
1758075717.66276,1758075717.67197,0.0,0.0,0.0,4.87014,-46.81066,35.2942,13.65,-0.4,2.79,2.0
1758075717.66449,1758075717.68197,0.0,0.0,0.0,13.00614,-29.27814,28.01764,13.65,-0.4,2.79,2.0
1758075717.68156,1758075717.69197,0.0,0.0,0.0,20.85567,-10.08406,21.42862,13.86,0.06,0.87,2.0
1758075717.69747,1758075717.70197,0.0,0.0,0.0,29.73651,15.98552,12.14671,13.86,0.06,0.87,2.0
1758075717.69867,1758075717.71197,0.0,0.0,0.0,34.09099,31.51268,7.50575,11.8,0.53,0.2,2.0
1758075717.71431,1758075717.72197,0.0,0.0,0.0,36.38282,45.72203,3.83882,11.8,0.53,0.2,2.0
1758075717.71569,1758075717.73197,0.0,0.0,0.0,37.35685,58.15522,2.00535,10.36,0.74,0.25,2.0
1758075717.73047,1758075717.74197,0.0,0.0,0.0,37.12767,74.771,1.20321,9.41,0.84,-0.06,2.0
1758075717.74746,1758075717.75197,0.0,0.0,0.0,36.32552,84.79775,0.40107,9.41,0.84,-0.06,2.0
1758075717.74877,1758075717.76197,0.0,0.0,0.0,36.21093,93.04835,0.74485,8.57,0.86,-0.12,2.0
1758075717.76453,1758075717.77197,0.0,0.0,0.0,35.86716,100.5541,0.45837,8.57,0.86,-0.12,2.0
1758075717.76657,1758075717.78197,0.0,0.0,0.0,35.86716,108.6328,0.45837,8.02,0.91,0.19,2.0
1758075717.78156,1758075717.79197,0.0,0.0,0.0,34.95043,113.44565,2.06265,8.02,0.91,0.19,2.0
1758075717.79778,1758075717.80197,0.0,0.0,0.0,33.74722,115.62289,3.03668,7.83,1.07,0.42,2.0
1758075717.79881,1758075717.81197,0.0,0.0,0.0,32.88778,113.61753,5.90147,7.83,1.07,0.42,2.0
1758075717.81359,1758075717.82197,0.0,0.0,0.0,30.82513,106.91393,8.30789,7.54,1.25,0.71,2.0
1758075717.81478,1758075717.83197,0.0,0.0,0.0,29.22085,99.00711,9.85487,7.48,1.31,0.95,2.0
1758075717.82957,1758075717.84197,0.0,0.0,0.0,27.38738,89.15224,12.14671,7.48,1.31,0.95,2.0
1758075717.84647,1758075717.85197,0.0,0.0,0.0,23.37668,74.25533,13.40721,7.36,1.32,0.98,2.0
1758075717.84752,1758075717.86197,0.0,0.0,0.0,20.45459,65.08801,13.23533,7.36,1.32,0.98,2.0
1758075717.86283,1758075717.87197,0.0,0.0,0.0,17.24603,54.14451,11.86023,7.32,1.52,1.02,2.0
1758075717.86379,1758075717.88197,0.0,0.0,0.0,13.86558,43.20102,9.11003,7.32,1.52,1.02,2.0
1758075717.88193,1758075717.89197,0.0,0.0,0.0,9.22462,32.77319,3.20856,7.17,1.74,0.91,2.0
1758075717.89764,1758075717.90197,0.0,0.0,0.0,7.10468,27.38738,-0.97403,7.89,1.77,0.72,2.0
1758075717.89904,1758075717.91197,0.0,0.0,0.0,5.78687,15.46986,-4.81285,7.89,1.77,0.72,2.0
1758075717.91371,1758075717.92197,0.0,0.0,0.0,5.4431,-1.66158,-6.70361,7.05,1.24,0.11,2.0
1758075717.91473,1758075717.93197,0.0,0.0,0.0,6.47442,-24.75178,-7.44845,7.05,1.24,0.11,2.0
1758075717.92987,1758075717.94197,0.0,0.0,0.0,5.50039,-32.54401,-4.87014,7.21,0.5,-0.65,2.0
1758075717.94643,1758075717.95197,0.0,0.0,0.0,3.89611,-18.33465,-2.11994,7.21,0.5,-0.65,2.0
1758075717.94787,1758075717.96197,0.0,0.0,0.0,2.29183,-0.68755,-0.40107,10.33,0.36,-0.43,2.0
1758075717.96262,1758075717.97197,0.0,0.0,0.0,-0.22918,34.60666,3.89611,12.11,0.71,0.08,2.0
1758075717.96383,1758075717.98197,0.0,0.0,0.0,2.40642,7.04738,8.93814,12.11,0.71,0.08,2.0
1758075717.9816,1758075717.99197,0.0,0.0,0.0,-0.40107,-18.22006,7.44845,7.17,1.6,0.8,2.0
1758075717.99763,1758075718.00197,0.0,0.0,0.0,-2.97938,-30.93972,9.39651,7.17,1.6,0.8,2.0
1758075717.99885,1758075718.01197,0.0,0.0,0.0,-6.99009,-34.43476,6.7609,9.36,1.81,-0.81,2.0
1758075718.01366,1758075718.02197,0.0,0.0,0.0,-9.5684,-33.68992,6.35983,9.36,1.81,-0.81,2.0
1758075718.01486,1758075718.03197,0.0,0.0,0.0,-12.37589,-32.42941,6.58902,10.21,1.88,1.19,2.0
1758075718.03039,1758075718.04197,0.0,0.0,0.0,-17.18874,-32.71589,10.25595,10.21,1.88,1.19,2.0
1758075718.04767,1758075718.05197,0.0,0.0,0.0,-20.97026,-32.54401,14.61043,10.38,1.44,0.59,2.0
1758075718.0488,1758075718.06197,0.0,0.0,0.0,-24.92367,-32.54401,19.48057,10.27,0.87,0.29,2.0
1758075718.06362,1758075718.07197,0.0,0.0,0.0,-28.70519,-34.60666,23.83505,10.27,0.87,0.29,2.0
1758075718.06484,1758075718.08197,0.0,0.0,0.0,-31.97105,-44.63341,26.81443,9.63,1.02,1.09,2.0
1758075718.07957,1758075718.09197,0.0,0.0,0.0,-31.97105,-60.44705,26.12688,9.63,1.02,1.09,2.0
1758075718.09571,1758075718.10197,0.0,0.0,0.0,-31.62727,-81.70379,21.94428,8.72,1.73,3.35,2.0
1758075718.09686,1758075718.11197,0.0,0.0,0.0,-30.25217,-112.12785,14.09476,8.72,1.73,3.35,2.0
1758075718.11179,1758075718.12197,0.0,0.0,0.0,-29.39274,-141.63518,-11.63104,9.04,1.52,5.29,2.0
1758075718.12765,1758075718.13197,0.0,0.0,0.0,-27.33009,-140.31737,-33.05967,14.99,0.07,7.17,2.0
1758075718.12887,1758075718.14197,0.0,0.0,0.0,-23.0902,-134.87427,-51.45161,14.99,0.07,7.17,2.0
1758075718.14394,1758075718.15197,0.0,0.0,0.0,-18.79302,-128.9155,-65.03072,15.72,-1.69,5.49,2.0
1758075718.14647,1758075718.16197,0.0,0.0,0.0,-15.0115,-117.51365,-71.50513,15.72,-1.69,5.49,2.0
1758075718.16193,1758075718.17197,0.0,0.0,0.0,-15.24068,-109.95061,-68.69764,12.19,-0.75,2.21,2.0
1758075718.178,1758075718.18197,0.0,0.0,0.0,-17.30333,-96.14232,-61.07731,12.19,-0.75,2.21,2.0
1758075718.18133,1758075718.19197,0.0,0.0,0.0,-20.16812,-82.62051,-49.50356,11.0,0.91,0.79,2.0
1758075718.19657,1758075718.20197,0.0,0.0,0.0,-21.94428,-58.55629,-28.87707,12.36,1.9,0.43,2.0
1758075718.19784,1758075718.21197,0.0,0.0,0.0,-21.88699,-40.62271,-16.95955,12.36,1.9,0.43,2.0
1758075718.21297,1758075718.22197,0.0,0.0,0.0,-21.02755,-24.57989,-8.30789,13.32,1.97,0.25,2.0
1758075718.2139,1758075718.23197,0.0,0.0,0.0,-19.25138,-11.86023,-1.60428,13.32,1.97,0.25,2.0
1758075718.22973,1758075718.24197,0.0,0.0,0.0,-17.47521,9.4538,-0.74485,12.52,1.0,-0.64,2.0
1758075718.2465,1758075718.25197,0.0,0.0,0.0,-16.90226,24.80907,-1.14592,12.52,1.0,-0.64,2.0
1758075718.25049,1758075718.26197,0.0,0.0,0.0,-16.272,39.4195,-2.00535,11.28,0.11,-1.18,2.0
1758075718.26726,1758075718.27197,0.0,0.0,0.0,-16.50119,55.29043,-3.55234,11.28,0.11,-1.18,2.0
1758075718.27126,1758075718.28197,0.0,0.0,0.0,-16.95955,64.17127,-4.35448,9.28,-0.45,-0.98,2.0
1758075718.28657,1758075718.29197,0.0,0.0,0.0,-17.93358,72.42187,-5.4431,8.2,-0.67,-0.67,2.0
1758075718.2878,1758075718.30197,0.0,0.0,0.0,-18.90761,78.89629,-6.87549,8.2,-0.67,-0.67,2.0
1758075718.30304,1758075718.31197,0.0,0.0,0.0,-19.42327,83.25077,-8.76626,7.74,-0.51,-0.46,2.0
1758075718.30711,1758075718.32197,0.0,0.0,0.0,-18.73572,81.24542,-10.8289,7.74,-0.51,-0.46,2.0
1758075718.32438,1758075718.33197,0.0,0.0,0.0,-16.04282,76.89094,-12.08941,7.38,-0.2,0.07,2.0
1758075718.32634,1758075718.34197,0.0,0.0,0.0,-11.97482,73.68237,-12.2613,7.38,-0.2,0.07,2.0
1758075718.34201,1758075718.35197,0.0,0.0,0.0,-4.98473,71.79161,-9.62569,7.82,-0.15,0.03,2.0
1758075718.35796,1758075718.36197,0.0,0.0,0.0,0.0,71.50513,-4.87014,8.34,-0.38,-0.12,2.0
1758075718.36129,1758075718.37197,0.0,0.0,0.0,4.69825,70.87489,1.20321,8.34,-0.38,-0.12,2.0
1758075718.3769,1758075718.38197,0.0,0.0,0.0,9.05273,69.84356,8.42248,8.3,-0.78,-0.29,2.0
1758075718.37846,1758075718.39197,0.0,0.0,0.0,14.38124,66.11933,19.25138,8.3,-0.78,-0.29,2.0
1758075718.39307,1758075718.40197,0.0,0.0,0.0,17.93358,64.17127,25.61122,8.21,-1.08,-0.54,2.0
1758075718.39591,1758075718.41197,0.0,0.0,0.0,20.22541,62.56699,30.02299,8.21,-1.08,-0.54,2.0
1758075718.41213,1758075718.42197,0.0,0.0,0.0,22.05888,55.6915,32.20023,8.49,-1.06,-1.26,2.0
1758075718.42786,1758075718.43197,0.0,0.0,0.0,23.72045,43.37291,28.64789,8.37,-0.82,-1.64,2.0
1758075718.42981,1758075718.44197,0.0,0.0,0.0,24.63719,35.69527,21.7151,8.37,-0.82,-1.64,2.0
1758075718.44641,1758075718.45197,0.0,0.0,0.0,24.86637,38.78925,16.55848,9.7,-0.67,-1.14,2.0
1758075718.44785,1758075718.46197,0.0,0.0,0.0,28.41871,35.92446,7.84952,9.7,-0.67,-1.14,2.0
1758075718.46309,1758075718.47197,0.0,0.0,0.0,30.02299,33.40344,3.32316,10.04,-0.66,-0.35,2.0
1758075718.46673,1758075718.48197,0.0,0.0,0.0,30.13758,33.74722,-2.57831,10.04,-0.66,-0.35,2.0
1758075718.48184,1758075718.49197,0.0,0.0,0.0,28.64789,32.14294,-6.58902,10.76,-0.29,0.73,2.0
1758075718.49782,1758075718.50197,0.0,0.0,0.0,24.57989,15.35527,-15.12609,10.76,-0.29,1.27,2.0
1758075718.49905,1758075718.51197,0.0,0.0,0.0,20.85567,-22.63183,-13.5218,9.77,0.8,1.27,2.0
1758075718.51513,1758075718.52197,0.0,0.0,0.0,16.67307,-43.60209,-10.8289,7.94,1.93,0.14,2.0
1758075718.51777,1758075718.53197,0.0,0.0,0.0,12.71966,-51.79538,-5.72958,7.94,1.93,0.14,2.0
1758075718.53287,1758075718.54197,0.0,0.0,0.0,7.33386,-46.52417,-2.11994,10.75,1.84,0.1,2.0
1758075718.538,1758075718.55197,0.0,0.0,0.0,6.41713,-45.20637,0.22918,10.75,1.84,0.1,2.0
1758075718.55389,1758075718.56197,0.0,0.0,0.0,5.32851,-45.83662,1.48969,10.41,0.35,-0.33,2.0
1758075718.55827,1758075718.57197,0.0,0.0,0.0,3.20856,-54.3737,2.23454,10.41,0.35,-0.33,2.0
1758075718.57387,1758075718.58197,0.0,0.0,0.0,-0.45837,-91.1003,6.35983,9.78,-0.85,2.67,2.0
1758075718.57587,1758075718.59197,0.0,0.0,0.0,-1.48969,-118.71685,14.03747,9.61,-0.05,5.86,2.0
1758075718.59087,1758075718.60197,0.0,0.0,0.0,-0.74485,-141.69247,25.55392,9.61,-0.05,5.86,2.0
1758075718.60822,1758075718.61197,0.0,0.0,0.0,-0.74485,-148.96904,36.95578,13.01,1.69,7.75,2.0
1758075718.61158,1758075718.62197,0.0,0.0,0.0,-0.17189,-128.34254,45.37826,13.01,1.69,7.75,2.0
1758075718.62714,1758075718.63197,0.0,0.0,0.0,0.74485,-119.28982,47.26902,15.64,3.0,2.18,2.0
1758075718.6281,1758075718.64197,0.0,0.0,0.0,2.92208,-115.90937,45.89392,15.64,3.0,2.18,2.0
1758075718.64294,1758075718.65197,0.0,0.0,0.0,9.28192,-106.62745,38.61736,12.2,1.33,1.52,2.0
1758075718.64643,1758075718.66197,0.0,0.0,0.0,16.10011,-81.64648,32.83048,13.19,-1.3,1.58,2.0
1758075718.6621,1758075718.67197,0.0,0.0,0.0,24.12152,-65.2599,25.15285,13.19,-1.3,1.58,2.0
1758075718.67792,1758075718.68197,0.0,0.0,0.0,33.80451,-52.82671,18.62113,13.61,-2.14,2.1,2.0
1758075718.6807,1758075718.69197,0.0,0.0,0.0,48.12846,-29.04896,9.85487,13.61,-2.14,2.1,2.0
1758075718.6961,1758075718.70197,0.0,0.0,0.0,55.6915,-8.59437,5.55769,13.18,-1.44,0.35,2.0
1758075718.69709,1758075718.71197,0.0,0.0,0.0,61.24919,10.65701,2.29183,13.18,-1.44,0.35,2.0
1758075718.71197,1758075718.72197,0.0,0.0,0.0,63.65561,29.9084,0.45837,12.03,-0.04,-0.85,2.0
1758075718.72793,1758075718.73197,0.0,0.0,0.0,63.02536,57.86874,-1.60428,11.22,-0.04,-0.88,2.0
1758075718.72916,1758075718.74197,0.0,0.0,0.0,60.96271,74.7137,-1.66158,11.22,1.08,-0.88,2.0
1758075718.74397,1758075718.75197,0.0,0.0,0.0,58.67088,89.03764,-0.85944,10.18,1.79,-1.13,2.0
1758075718.74681,1758075718.76197,0.0,0.0,0.0,56.20716,101.81461,0.17189,10.18,1.79,-1.13,2.0
1758075718.76201,1758075718.77197,0.0,0.0,0.0,53.34238,114.01861,2.57831,8.65,1.89,-1.25,2.0
1758075718.76795,1758075718.78197,0.0,0.0,0.0,52.02457,115.5656,4.52637,8.65,1.89,-1.25,2.0
1758075718.78664,1758075718.79197,0.0,0.0,0.0,50.47758,115.62289,6.99009,6.89,1.62,-0.8,2.0
1758075718.78801,1758075718.80197,0.0,0.0,0.0,49.04519,114.36237,9.5684,6.89,1.62,-0.8,2.0
1758075718.80326,1758075718.81197,0.0,0.0,0.0,45.60744,107.02851,12.83425,6.92,1.44,-0.08,2.0
1758075718.80701,1758075718.82197,0.0,0.0,0.0,42.51347,100.38221,14.49583,7.33,1.5,0.5,2.0
1758075718.82202,1758075718.83197,0.0,0.0,0.0,38.44547,92.99106,15.29797,7.33,1.5,0.5,2.0
1758075718.83829,1758075718.84197,0.0,0.0,0.0,33.86181,87.43336,13.69369,8.21,1.64,0.69,2.0
1758075718.84158,1758075718.85197,0.0,0.0,0.0,26.12688,77.86497,10.94349,8.21,1.64,0.69,2.0
1758075718.85697,1758075718.86197,0.0,0.0,0.0,21.60051,67.37984,8.59437,8.42,1.82,0.54,2.0
1758075718.8601,1758075718.87197,0.0,0.0,0.0,15.12609,59.47303,2.06265,8.42,1.82,0.54,2.0
1758075718.87525,1758075718.88197,0.0,0.0,0.0,8.02141,47.61279,-5.61499,8.04,1.94,0.67,2.0
1758075718.87702,1758075718.89197,0.0,0.0,0.0,4.35448,43.83128,-11.80293,8.19,1.94,0.36,2.0
1758075718.89225,1758075718.90197,0.0,0.0,0.0,1.77617,39.70598,-16.21471,8.19,1.94,0.36,2.0
1758075718.90827,1758075718.91197,0.0,0.0,0.0,0.0573,32.77319,-18.85031,7.98,1.83,0.35,2.0
1758075718.91153,1758075718.92197,0.0,0.0,0.0,-0.51566,16.67307,-18.79302,7.98,1.83,0.35,2.0
1758075718.92727,1758075718.93197,0.0,0.0,0.0,0.34377,7.04738,-16.21471,7.39,1.23,0.15,2.0
1758075718.9282,1758075718.94197,0.0,0.0,0.0,0.68755,0.0573,-12.49048,7.39,1.23,0.15,2.0
1758075718.94727,1758075718.95197,0.0,0.0,0.0,0.85944,-5.15662,-6.99009,7.97,0.5,-0.19,2.0
1758075718.94826,1758075718.96197,0.0,0.0,0.0,0.57296,-9.91217,2.34913,8.49,0.09,-0.47,2.0
1758075718.96304,1758075718.97197,0.0,0.0,0.0,0.45837,-2.40642,6.47442,8.49,0.09,-0.47,2.0
1758075718.96739,1758075718.98197,0.0,0.0,0.0,-1.3751,4.69825,8.47978,9.71,0.29,-0.43,2.0
1758075718.99859,1758075718.99197,0.0,0.0,0.0,-4.1253,23.83505,9.68299,9.71,0.29,-0.43,2.0
1758075719.00209,1758075719.00197,0.0,0.0,0.0,-3.38045,0.45837,12.54778,9.91,1.04,0.32,2.0
1758075719.00352,1758075719.01197,0.0,0.0,0.0,-7.33386,-23.31938,7.79223,9.91,1.04,0.32,2.0
1758075719.00716,1758075719.02197,0.0,0.0,0.0,-9.5684,-33.00237,5.27121,8.07,1.52,1.09,2.0
1758075719.02209,1758075719.03197,0.0,0.0,0.0,-14.20935,-36.03905,-1.14592,8.07,1.52,1.09,2.0
1758075719.03809,1758075719.04197,0.0,0.0,0.0,-20.3973,-38.1017,-5.90147,10.83,1.71,0.19,2.0
1758075719.04089,1758075719.05197,0.0,0.0,0.0,-25.09555,-37.64333,-6.7609,11.28,1.82,1.6,2.0
1758075719.05722,1758075719.06197,0.0,0.0,0.0,-30.30947,-37.52874,-4.58366,11.28,1.82,1.6,2.0
1758075719.05848,1758075719.07197,0.0,0.0,0.0,-38.27358,-37.01308,2.57831,11.03,1.66,0.64,2.0
1758075719.07334,1758075719.08197,0.0,0.0,0.0,-43.60209,-36.49741,8.136,11.03,1.66,0.64,2.0
1758075719.0743,1758075719.09197,0.0,0.0,0.0,-48.01387,-40.33623,13.23533,10.18,1.82,1.27,2.0
1758075719.09169,1758075719.10197,0.0,0.0,0.0,-50.59217,-54.431,16.84496,10.18,1.82,1.27,2.0
1758075719.10743,1758075719.11197,0.0,0.0,0.0,-50.64947,-93.16295,15.12609,8.97,2.09,3.45,2.0
1758075719.10827,1758075719.12197,0.0,0.0,0.0,-50.47758,-125.19128,5.95876,9.26,1.17,5.18,2.0
1758075719.12739,1758075719.13197,0.0,0.0,0.0,-47.67009,-143.58322,-7.79223,9.26,1.17,5.18,2.0
1758075719.12859,1758075719.14197,0.0,0.0,0.0,-43.31561,-145.58859,-23.0902,14.23,-0.52,4.62,2.0
1758075719.14677,1758075719.15197,0.0,0.0,0.0,-34.77854,-132.75433,-42.91454,14.23,-0.52,4.62,2.0
1758075719.14789,1758075719.16197,0.0,0.0,0.0,-30.76784,-128.28526,-50.53488,15.28,-2.27,4.36,2.0
1758075719.1631,1758075719.17197,0.0,0.0,0.0,-27.73116,-123.93078,-52.19646,15.28,-2.27,4.36,2.0
1758075719.16433,1758075719.18197,0.0,0.0,0.0,-26.01229,-118.08661,-49.33167,11.05,-1.47,2.4,2.0
1758075719.18208,1758075719.19197,0.0,0.0,0.0,-27.44468,-103.53348,-39.64868,9.68,0.24,0.96,2.0
1758075719.19813,1758075719.20197,0.0,0.0,0.0,-29.33544,-90.87111,-30.19488,9.68,0.24,0.96,2.0
1758075719.20124,1758075719.21197,0.0,0.0,0.0,-31.45539,-76.26069,-21.08485,10.96,1.32,0.23,2.0
1758075719.21621,1758075719.22197,0.0,0.0,0.0,-32.42941,-60.16057,-13.69369,10.96,1.32,0.23,2.0
1758075719.21734,1758075719.23197,0.0,0.0,0.0,-31.45539,-35.63798,-7.67763,12.69,1.57,0.33,2.0
1758075719.23238,1758075719.24197,0.0,0.0,0.0,-29.56462,-20.79837,-6.70361,12.69,1.57,0.33,2.0
1758075719.24842,1758075719.25197,0.0,0.0,0.0,-27.44468,-6.41713,-7.39116,12.64,1.01,-0.12,2.0
1758075719.25019,1758075719.26197,0.0,0.0,0.0,-25.21014,8.36518,-8.30789,12.64,1.01,-0.12,2.0
1758075719.26703,1758075719.27197,0.0,0.0,0.0,-22.86102,34.37747,-9.22462,11.93,0.02,-0.74,2.0
1758075719.26824,1758075719.28197,0.0,0.0,0.0,-21.25674,49.38896,-10.02676,11.06,-0.86,-0.98,2.0
1758075719.28347,1758075719.29197,0.0,0.0,0.0,-19.99623,62.33781,-10.8289,11.06,-0.86,-0.98,2.0
1758075719.28514,1758075719.30197,0.0,0.0,0.0,-18.22006,78.26604,-12.08941,9.94,-1.21,-0.73,2.0
1758075719.30346,1758075719.31197,0.0,0.0,0.0,-17.76169,87.43336,-13.5791,9.94,-1.21,-0.73,2.0
1758075719.30751,1758075719.32197,0.0,0.0,0.0,-17.36062,95.85584,-15.29797,9.6,-0.95,-0.63,2.0
1758075719.32316,1758075719.33197,0.0,0.0,0.0,-17.30333,103.41889,-17.18874,9.6,-0.95,-0.63,2.0
1758075719.32671,1758075719.34197,0.0,0.0,0.0,-17.76169,110.52357,-18.9649,9.6,-0.22,-0.31,2.0
1758075719.34219,1758075719.35197,0.0,0.0,0.0,-17.6471,109.60683,-19.42327,9.05,0.45,0.11,2.0
1758075719.35846,1758075719.36197,0.0,0.0,0.0,-16.95955,104.90858,-20.34,9.05,0.45,0.11,2.0
1758075719.36015,1758075719.37197,0.0,0.0,0.0,-15.69904,97.40282,-21.08485,8.12,0.6,0.28,2.0
1758075719.37728,1758075719.38197,0.0,0.0,0.0,-12.60507,85.94368,-20.45459,8.12,0.6,0.28,2.0
1758075719.37798,1758075719.39197,0.0,0.0,0.0,-9.62569,78.26604,-17.36062,7.93,0.15,0.64,2.0
1758075719.39627,1758075719.40197,0.0,0.0,0.0,-5.78687,70.01544,-12.2613,7.93,0.15,0.64,2.0
1758075719.39746,1758075719.41197,0.0,0.0,0.0,-1.77617,62.62429,-5.09932,7.73,-0.63,0.79,2.0
1758075719.41224,1758075719.42197,0.0,0.0,0.0,4.0107,54.08722,7.62034,7.84,-1.28,0.5,2.0
1758075719.42831,1758075719.43197,0.0,0.0,0.0,8.02141,52.08187,15.98552,7.84,-1.28,0.5,2.0
1758075719.43231,1758075719.44197,0.0,0.0,0.0,11.80293,51.45161,23.0902,8.17,-1.38,-0.28,2.0
1758075719.44854,1758075719.45197,0.0,0.0,0.0,14.66772,49.90463,28.93437,8.17,-1.38,-0.28,2.0
1758075719.4498,1758075719.46197,0.0,0.0,0.0,18.44924,40.62271,33.34615,8.07,-0.93,-0.81,2.0
1758075719.46605,1758075719.47197,0.0,0.0,0.0,19.42327,29.73651,31.74186,8.07,-0.93,-0.81,2.0
1758075719.46755,1758075719.48197,0.0,0.0,0.0,21.08485,18.73572,28.07493,7.78,-0.18,-1.2,2.0
1758075719.4825,1758075719.49197,0.0,0.0,0.0,18.27736,21.94428,18.79302,7.78,-0.18,-1.2,2.0
1758075719.49856,1758075719.50197,0.0,0.0,0.0,19.53786,22.05888,11.91752,9.39,0.4,-1.0,2.0
1758075719.49979,1758075719.51197,0.0,0.0,0.0,19.19409,16.3293,6.8182,9.22,0.61,-0.5,2.0
1758075719.51537,1758075719.52197,0.0,0.0,0.0,19.36597,8.59437,1.03132,9.22,0.61,-0.5,2.0
1758075719.51812,1758075719.53197,0.0,0.0,0.0,17.99088,7.50575,-6.87549,9.62,0.42,0.56,2.0
1758075719.53572,1758075719.54197,0.0,0.0,0.0,17.6471,7.67763,-9.68299,9.62,0.42,0.56,2.0
1758075719.53645,1758075719.55197,0.0,0.0,0.0,17.76169,4.98473,-13.5218,10.45,0.01,0.15,2.0
1758075719.55201,1758075719.56197,0.0,0.0,0.0,19.19409,-14.03747,-15.0115,10.45,0.01,0.15,2.0
1758075719.56837,1758075719.57197,0.0,0.0,0.0,24.98096,-41.48215,-9.28192,8.62,-0.3,0.4,2.0
1758075719.57235,1758075719.58197,0.0,0.0,0.0,29.04896,-48.52953,-5.55769,10.0,-0.91,0.0,2.0
1758075719.58861,1758075719.59197,0.0,0.0,0.0,32.37212,-47.15443,-2.11994,10.0,-0.91,0.0,2.0
1758075719.58904,1758075719.60197,0.0,0.0,0.0,33.17426,-48.24305,1.3751,11.38,-1.04,0.51,2.0
1758075719.60765,1758075719.61197,0.0,0.0,0.0,30.59595,-51.27972,3.26586,11.38,-1.04,0.51,2.0
1758075719.60805,1758075719.62197,0.0,0.0,0.0,27.2155,-66.80688,7.39116,11.55,-0.57,2.97,2.0
1758075719.62366,1758075719.63197,0.0,0.0,0.0,23.0329,-86.63122,13.06344,11.55,-0.57,2.97,2.0
1758075719.62807,1758075719.64197,0.0,0.0,0.0,19.76705,-106.68475,19.19409,11.31,0.91,3.62,2.0
1758075719.64357,1758075719.65197,0.0,0.0,0.0,15.0115,-123.07134,28.93437,11.74,2.33,4.56,2.0
1758075719.64618,1758075719.66197,0.0,0.0,0.0,10.59972,-124.96209,32.08564,11.74,2.33,4.56,2.0
1758075719.66148,1758075719.67197,0.0,0.0,0.0,6.58902,-130.80626,34.60666,11.21,3.02,3.59,2.0
1758075719.67737,1758075719.68197,0.0,0.0,0.0,3.09397,-135.8483,38.61736,11.21,3.02,3.59,2.0
1758075719.67789,1758075719.69197,0.0,0.0,0.0,2.23454,-126.2226,40.33623,10.35,2.24,2.63,2.0
1758075719.69646,1758075719.70197,0.0,0.0,0.0,2.57831,-111.55489,41.31026,10.35,2.24,2.63,2.0
1758075719.70028,1758075719.71197,0.0,0.0,0.0,4.87014,-92.81918,41.42485,11.7,0.78,0.99,2.0
1758075719.71564,1758075719.72197,0.0,0.0,0.0,10.65701,-63.88479,36.89849,11.7,0.78,0.99,2.0
1758075719.71814,1758075719.73197,0.0,0.0,0.0,16.3293,-50.1911,32.20023,13.02,-0.35,1.63,2.0
1758075719.73437,1758075719.74197,0.0,0.0,0.0,22.28806,-32.88778,25.89769,13.71,-0.46,1.4,2.0
1758075719.73554,1758075719.75197,0.0,0.0,0.0,28.13223,-12.08941,19.19409,13.71,-0.46,1.4,2.0
1758075719.75228,1758075719.76197,0.0,0.0,0.0,33.9764,20.68378,9.85487,14.54,0.01,-0.2,2.0
1758075719.75478,1758075719.77197,0.0,0.0,0.0,36.15364,39.87786,5.27121,14.54,0.01,-0.2,2.0
1758075719.77408,1758075719.78197,0.0,0.0,0.0,37.52874,57.81144,1.77617,12.63,0.58,-0.89,2.0
1758075719.77557,1758075719.79197,0.0,0.0,0.0,38.61736,75.40125,-0.97403,12.63,0.58,-0.89,2.0
1758075719.79058,1758075719.80197,0.0,0.0,0.0,40.68,92.4754,-3.83882,11.37,0.84,-0.65,2.0
1758075719.79314,1758075719.81197,0.0,0.0,0.0,42.91454,98.43416,-3.72423,9.89,0.88,-0.45,2.0
1758075719.80972,1758075719.82197,0.0,0.0,0.0,46.00851,102.90323,-2.6929,9.89,0.88,-0.45,2.0
1758075719.82746,1758075719.83197,0.0,0.0,0.0,48.75871,106.79934,-0.74485,9.15,0.74,-0.42,2.0
1758075719.8292,1758075719.84197,0.0,0.0,0.0,52.08187,109.03387,2.63561,9.15,0.74,-0.42,2.0
1758075719.84712,1758075719.85197,0.0,0.0,0.0,53.39967,107.60149,5.90147,8.37,0.62,-0.46,2.0
1758075719.848,1758075719.86197,0.0,0.0,0.0,52.82671,105.65342,8.65166,8.37,0.62,-0.46,2.0
1758075719.86844,1758075719.87197,0.0,0.0,0.0,50.76406,101.8719,12.49048,8.02,0.74,0.0,2.0
1758075719.88759,1758075719.88197,0.0,0.0,0.0,44.40423,93.33482,15.64175,8.15,1.16,0.03,2.0
1758075719.8898,1758075719.89197,0.0,0.0,0.0,38.61736,89.32412,17.18874,8.15,1.16,0.03,2.0
1758075719.89151,1758075719.90197,0.0,0.0,0.0,32.71589,80.0995,18.10547,8.28,1.75,0.05,2.0
1758075719.90642,1758075719.91197,0.0,0.0,0.0,21.25674,69.04142,12.14671,8.28,1.75,0.05,2.0
1758075719.9079,1758075719.92197,0.0,0.0,0.0,14.38124,60.90542,7.73493,7.57,2.31,-0.04,2.0
1758075719.92232,1758075719.93197,0.0,0.0,0.0,8.25059,53.51426,2.06265,7.57,2.31,-0.04,2.0
1758075719.92509,1758075719.94197,0.0,0.0,0.0,2.6929,46.52417,-3.49504,7.34,2.48,0.23,2.0
1758075719.94173,1758075719.95197,0.0,0.0,0.0,-3.49504,36.89849,-10.37054,7.34,2.48,-0.05,2.0
1758075719.94266,1758075719.96197,0.0,0.0,0.0,-6.18794,32.37212,-12.89155,7.23,2.22,-0.05,2.0
1758075719.95799,1758075719.97197,0.0,0.0,0.0,-7.67763,28.476,-13.80828,7.64,1.62,-0.2,2.0
1758075719.97451,1758075719.98197,0.0,0.0,0.0,-7.44845,24.29341,-13.69369,7.64,1.62,-0.2,2.0
1758075719.97655,1758075719.99197,0.0,0.0,0.0,-6.18794,15.58445,-11.51645,7.71,0.89,-0.48,2.0
1758075719.99176,1758075720.00197,0.0,0.0,0.0,-4.58366,7.79223,-8.65166,7.71,0.89,-0.48,2.0
1758075719.99291,1758075720.01197,0.0,0.0,0.0,-3.26586,-3.26586,-4.87014,7.67,0.43,-0.6,2.0
1758075720.01208,1758075720.02197,0.0,0.0,0.0,-2.06265,-17.58981,-0.0573,7.67,0.43,-0.6,2.0
1758075720.01306,1758075720.03197,0.0,0.0,0.0,0.40107,-13.40721,4.0107,7.64,0.3,-0.62,2.0
1758075720.02987,1758075720.04197,0.0,0.0,0.0,-2.7502,4.69825,1.83346,11.13,0.59,-0.28,2.0
1758075720.04662,1758075720.05197,0.0,0.0,0.0,-0.97403,21.14215,4.23989,11.13,0.59,-0.28,2.0
1758075720.04747,1758075720.06197,0.0,0.0,0.0,-0.22918,-5.90147,-0.11459,9.23,1.5,1.3,2.0
1758075720.06274,1758075720.07197,0.0,0.0,0.0,-5.50039,-39.82057,-4.1253,9.23,1.5,1.3,2.0
1758075720.06802,1758075720.08197,0.0,0.0,0.0,-9.91217,-43.65939,-9.74028,8.94,2.35,0.9,2.0
1758075720.08683,1758075720.09197,0.0,0.0,0.0,-13.5791,-40.62271,-13.00614,8.94,2.35,0.9,2.0
1758075720.08777,1758075720.10197,0.0,0.0,0.0,-22.74642,-39.76327,-12.60507,10.9,3.02,0.67,2.0
1758075720.10277,1758075720.11197,0.0,0.0,0.0,-27.84575,-42.85724,-9.05273,9.2,3.68,0.93,2.0
1758075720.10402,1758075720.12197,0.0,0.0,0.0,-31.79916,-48.9879,-5.50039,9.2,3.68,0.93,2.0
1758075720.12154,1758075720.13197,0.0,0.0,0.0,-31.74186,-67.66632,-1.3178,8.7,4.14,2.72,2.0
