timeStamp,timeStampAlign,roll,pitch,yaw,gyro_x,gyro_y,gyro_z,acc_x,acc_y,acc_z,flag_num
1758089470.77978,1758089460.62152,0.0,0.0,0.0,27.33009,17.6471,4.64096,9.94,-1.23,0.82,2.0
1758089470.78327,1758089460.63152,0.0,0.0,0.0,26.18417,24.75178,4.23989,10.15,-0.96,0.91,2.0
1758089470.79888,1758089460.64152,0.0,0.0,0.0,26.01229,33.74722,4.87014,10.15,-0.96,0.91,2.0
1758089470.81485,1758089460.65152,0.0,0.0,0.0,25.72581,34.0337,4.18259,9.71,-0.95,1.52,2.0
1758089470.81842,1758089460.66152,0.0,0.0,0.0,25.61122,31.2262,3.60963,9.71,-0.95,1.52,2.0
1758089470.83374,1758089460.67152,0.0,0.0,0.0,25.21014,27.61657,2.7502,8.84,-0.9,1.47,2.0
1758089470.84299,1758089460.68152,0.0,0.0,0.0,24.86637,20.62648,1.83346,8.57,-0.94,0.7,2.0
1758089470.84361,1758089460.69152,0.0,0.0,0.0,24.98096,15.87093,1.43239,8.57,-0.94,0.7,2.0
1758089470.85987,1758089460.70152,0.0,0.0,0.0,25.09555,13.46451,0.85944,8.46,-0.97,0.48,2.0
1758089470.86483,1758089460.71152,0.0,0.0,0.0,25.61122,13.69369,1.66158,8.46,-0.97,0.48,2.0
1758089470.87988,1758089460.72152,0.0,0.0,0.0,25.21014,26.52795,-1.3751,9.18,-0.96,0.87,2.0
1758089470.88352,1758089460.73152,0.0,0.0,0.0,25.43933,29.67921,-3.49504,9.18,-0.96,0.87,2.0
1758089470.89908,1758089460.74152,0.0,0.0,0.0,25.61122,31.85646,-4.98473,8.9,-0.87,1.19,2.0
1758089470.91748,1758089460.75152,0.0,0.0,0.0,27.1582,35.12231,-6.7609,8.9,-0.87,1.19,2.0
1758089470.92204,1758089460.76152,0.0,0.0,0.0,28.70519,33.00237,-7.21927,8.99,-0.98,1.31,2.0
1758089470.924,1758089460.77152,0.0,0.0,0.0,30.36677,27.2155,-7.79223,8.4,-1.05,0.35,2.0
1758089470.93884,1758089460.78152,0.0,0.0,0.0,31.79916,20.97026,-8.0787,8.4,-1.05,0.35,2.0
1758089470.94302,1758089460.79152,0.0,0.0,0.0,33.68992,9.5684,-7.73493,8.34,-1.16,-0.03,2.0
1758089470.95782,1758089460.80152,0.0,0.0,0.0,34.66395,2.86479,-6.87549,8.34,-1.16,-0.03,2.0
1758089470.97387,1758089460.81152,0.0,0.0,0.0,34.95043,-2.00535,-6.47442,8.49,-1.21,-0.45,2.0
1758089470.97663,1758089460.82152,0.0,0.0,0.0,34.72124,-4.35448,-4.98473,8.49,-1.21,-0.45,2.0
1758089470.99432,1758089460.83152,0.0,0.0,0.0,33.9764,-8.136,-2.86479,9.02,-1.21,-0.02,2.0
1758089470.99791,1758089460.84152,0.0,0.0,0.0,32.6013,-12.43318,-2.46372,8.98,-1.12,0.51,2.0
1758089471.01292,1758089460.85152,0.0,0.0,0.0,30.30947,-17.53251,-2.6929,8.98,-1.12,0.51,2.0
1758089471.01464,1758089460.86152,0.0,0.0,0.0,27.50197,-22.51724,-3.49504,8.88,-0.83,0.56,2.0
1758089471.0292,1758089460.87152,0.0,0.0,0.0,22.63183,-29.73651,-5.4431,8.88,-0.83,0.56,2.0
1758089471.03279,1758089460.88152,0.0,0.0,0.0,19.88164,-34.95043,-6.47442,8.72,-0.5,0.36,2.0
1758089471.0479,1758089460.89152,0.0,0.0,0.0,16.73037,-38.44547,-7.50575,8.72,-0.5,0.36,2.0
1758089471.06382,1758089460.90152,0.0,0.0,0.0,13.98017,-41.08107,-8.0787,8.85,-0.33,0.66,2.0
1758089471.06584,1758089460.91152,0.0,0.0,0.0,9.96947,-41.94051,-8.0787,10.3,-0.18,2.12,2.0
1758089471.0812,1758089460.92152,0.0,0.0,0.0,7.44845,-41.02378,-7.39116,10.3,-0.18,2.12,2.0
1758089471.08373,1758089460.93152,0.0,0.0,0.0,5.95876,-37.58603,-6.53172,13.35,0.67,3.22,2.0
1758089471.09893,1758089460.94152,0.0,0.0,0.0,5.72958,-30.93972,-5.61499,13.35,0.67,3.22,2.0
1758089471.10353,1758089460.95152,0.0,0.0,0.0,6.35983,-17.53251,-4.98473,14.65,1.57,2.56,2.0
1758089471.1212,1758089460.96152,0.0,0.0,0.0,7.67763,-12.43318,-8.25059,14.65,1.57,2.56,2.0
1758089471.12372,1758089460.97152,0.0,0.0,0.0,8.25059,-8.76626,-11.45916,12.31,0.88,1.2,2.0
1758089471.13892,1758089460.98152,0.0,0.0,0.0,9.05273,-23.31938,-18.27736,12.31,0.88,1.2,2.0
1758089471.14378,1758089460.99152,0.0,0.0,0.0,10.59972,-31.56997,-21.02755,9.19,-0.26,0.59,2.0
1758089471.16325,1758089461.00152,0.0,0.0,0.0,12.37589,-34.43476,-21.88699,9.62,-0.87,0.21,2.0
1758089471.16418,1758089461.01152,0.0,0.0,0.0,13.75099,-35.75257,-21.02755,9.62,-0.87,0.21,2.0
1758089471.17887,1758089461.02152,0.0,0.0,0.0,15.87093,-32.83048,-15.06879,10.73,-1.11,1.49,2.0
1758089471.18088,1758089461.03152,0.0,0.0,0.0,15.41257,-16.10011,-13.46451,10.73,-1.11,1.49,2.0
1758089471.19734,1758089461.04152,0.0,0.0,0.0,15.75634,-3.66693,-9.62569,11.97,-0.45,2.88,2.0
1758089471.21324,1758089461.05152,0.0,0.0,0.0,15.64175,1.48969,-8.36518,11.97,-0.45,2.88,2.0
1758089471.21418,1758089461.06152,0.0,0.0,0.0,15.98552,1.77617,-7.44845,10.0,0.64,3.47,2.0
1758089471.22924,1758089461.07152,0.0,0.0,0.0,17.18874,1.14592,-6.87549,8.98,1.4,2.52,2.0
1758089471.23335,1758089461.08152,0.0,0.0,0.0,19.19409,2.40642,-5.78687,8.98,1.4,2.52,2.0
1758089471.24999,1758089461.09152,0.0,0.0,0.0,21.6578,5.15662,-5.84417,9.6,1.65,1.52,2.0
1758089471.25196,1758089461.10152,0.0,0.0,0.0,25.7831,10.8862,-4.98473,9.6,1.65,1.52,2.0
1758089471.26947,1758089461.11152,0.0,0.0,0.0,27.2155,14.20935,-5.50039,10.49,0.78,2.6,2.0
1758089471.28399,1758089461.12152,0.0,0.0,0.0,27.73116,15.98552,-5.55769,10.49,0.78,2.6,2.0
1758089471.28838,1758089461.13152,0.0,0.0,0.0,27.50197,18.90761,-5.55769,10.12,1.24,1.6,2.0
1758089471.3039,1758089461.14152,0.0,0.0,0.0,25.09555,19.36597,-5.4431,9.9,1.75,1.85,2.0
1758089471.30603,1758089461.15152,0.0,0.0,0.0,23.66316,17.58981,-5.50039,9.9,1.75,1.85,2.0
1758089471.32105,1758089461.16152,0.0,0.0,0.0,21.48592,15.87093,-5.4431,9.68,1.52,1.38,2.0
1758089471.32389,1758089461.17152,0.0,0.0,0.0,18.73572,14.20935,-5.72958,9.68,1.52,1.38,2.0
1758089471.34003,1758089461.18152,0.0,0.0,0.0,17.30333,14.32395,-5.50039,9.88,1.36,1.41,2.0
1758089471.34198,1758089461.19152,0.0,0.0,0.0,16.21471,14.61043,-5.09932,9.88,1.36,1.41,2.0
1758089471.359,1758089461.20152,0.0,0.0,0.0,15.75634,16.10011,-4.29718,9.95,1.27,1.22,2.0
1758089471.36104,1758089461.21152,0.0,0.0,0.0,15.24068,22.40265,-2.92208,9.95,1.27,1.41,2.0
1758089471.37904,1758089461.22152,0.0,0.0,0.0,14.72501,27.33009,-2.23454,10.22,1.09,1.41,2.0
1758089471.39535,1758089461.23152,0.0,0.0,0.0,14.15206,30.82513,-2.40642,10.09,1.01,1.5,2.0
1758089471.39626,1758089461.24152,0.0,0.0,0.0,13.80828,31.51268,-1.83346,10.09,1.01,1.5,2.0
1758089471.41187,1758089461.25152,0.0,0.0,0.0,13.69369,29.96569,-0.97403,9.51,1.0,1.43,2.0
1758089471.41304,1758089461.26152,0.0,0.0,0.0,13.75099,27.61657,-0.0573,9.51,1.0,1.43,2.0
1758089471.42874,1758089461.27152,0.0,0.0,0.0,14.09476,23.89234,1.08862,9.26,1.0,1.01,2.0
1758089471.44522,1758089461.28152,0.0,0.0,0.0,14.32395,20.45459,2.23454,9.26,1.0,1.01,2.0
1758089471.44627,1758089461.29152,0.0,0.0,0.0,14.32395,17.53251,3.83882,9.17,1.04,0.69,2.0
1758089471.46204,1758089461.30152,0.0,0.0,0.0,14.38124,16.55848,4.58366,9.27,1.13,0.72,2.0
1758089471.46402,1758089461.31152,0.0,0.0,0.0,14.32395,17.18874,5.55769,9.27,1.13,0.72,2.0
1758089471.479,1758089461.32152,0.0,0.0,0.0,14.03747,18.10547,6.70361,9.42,1.22,0.94,2.0
1758089471.49531,1758089461.33152,0.0,0.0,0.0,13.46451,17.87628,7.73493,9.42,1.22,0.94,2.0
1758089471.49631,1758089461.34152,0.0,0.0,0.0,12.83425,17.18874,8.136,9.3,1.31,1.16,2.0
1758089471.51135,1758089461.35152,0.0,0.0,0.0,11.86023,16.38659,8.42248,9.3,1.31,1.16,2.0
1758089471.51267,1758089461.36152,0.0,0.0,0.0,9.62569,16.21471,8.0787,9.3,1.43,1.13,2.0
1758089471.52769,1758089461.37152,0.0,0.0,0.0,7.96411,17.87628,7.84952,9.45,1.58,0.84,2.0
1758089471.54302,1758089461.38152,0.0,0.0,0.0,6.35983,19.99623,7.67763,9.45,1.58,0.84,2.0
1758089471.5458,1758089461.39152,0.0,0.0,0.0,4.46907,22.11617,7.73493,9.48,1.75,0.83,2.0
1758089471.56113,1758089461.40152,0.0,0.0,0.0,1.43239,23.20479,8.136,9.48,1.75,0.83,2.0
1758089471.56311,1758089461.41152,0.0,0.0,0.0,-0.45837,22.74642,8.70896,9.33,1.9,0.8,2.0
1758089471.57916,1758089461.42152,0.0,0.0,0.0,-2.34913,22.05888,9.22462,9.33,1.9,0.8,2.0
1758089471.5829,1758089461.43152,0.0,0.0,0.0,-3.95341,21.42862,9.96947,9.35,1.95,0.48,2.0
1758089471.59809,1758089461.44152,0.0,0.0,0.0,-6.35983,21.42862,10.59972,9.6,1.95,0.35,2.0
1758089471.61415,1758089461.45152,0.0,0.0,0.0,-7.67763,22.05888,11.00079,9.6,1.9,0.35,2.0
1758089471.61531,1758089461.46152,0.0,0.0,0.0,-9.05273,22.74642,11.22997,9.83,1.76,0.33,2.0
1758089471.63096,1758089461.47152,0.0,0.0,0.0,-10.02676,22.34536,10.94349,9.83,1.76,0.33,2.0
1758089471.63208,1758089461.48152,0.0,0.0,0.0,-11.00079,22.74642,11.00079,9.9,1.66,0.45,2.0
1758089471.64746,1758089461.49152,0.0,0.0,0.0,-10.59972,20.68378,11.28727,9.9,1.66,0.45,2.0
1758089471.66384,1758089461.50152,0.0,0.0,0.0,-9.68299,16.95955,11.51645,9.75,1.48,0.65,2.0
1758089471.66585,1758089461.51152,0.0,0.0,0.0,-8.70896,11.22997,12.204,9.75,1.48,0.65,2.0
1758089471.6828,1758089461.52152,0.0,0.0,0.0,-7.16197,-0.34377,13.40721,9.36,1.11,0.84,2.0
1758089471.68392,1758089461.53152,0.0,0.0,0.0,-6.13065,-10.8862,13.98017,8.95,0.75,0.66,2.0
1758089471.69947,1758089461.54152,0.0,0.0,0.0,-5.55769,-20.05352,13.46451,8.95,0.75,0.66,2.0
1758089471.70298,1758089461.55152,0.0,0.0,0.0,-4.58366,-24.75178,13.75099,9.77,0.68,0.93,2.0
1758089471.75177,1758089461.56152,0.0,0.0,0.0,-2.29183,-29.10626,14.49583,9.77,0.68,0.93,2.0
1758089471.77815,1758089461.57152,0.0,0.0,0.0,0.0,-34.0337,14.83961,11.41,0.67,2.02,2.0
1758089471.78257,1758089461.58152,0.0,0.0,0.0,2.57831,-37.81522,14.61043,11.41,0.67,2.02,2.0
1758089471.78664,1758089461.59152,0.0,0.0,0.0,8.88085,-37.35685,12.83425,13.46,0.14,3.43,2.0
1758089471.78687,1758089461.60152,0.0,0.0,0.0,11.17268,-42.39888,8.136,14.69,-0.82,3.06,2.0
1758089471.78804,1758089461.61152,0.0,0.0,0.0,13.5218,-40.7946,5.55769,14.69,-0.82,3.06,2.0
1758089471.78868,1758089461.62152,0.0,0.0,0.0,16.272,-29.39274,4.58366,13.28,-0.94,0.2,2.0
1758089471.79277,1758089461.63152,0.0,0.0,0.0,17.81899,-4.1253,7.96411,13.28,-0.94,0.2,2.0
1758089471.79377,1758089461.64152,0.0,0.0,0.0,16.38659,7.39116,10.37054,10.89,-0.19,-0.28,2.0
1758089471.86091,1758089461.65152,0.0,0.0,0.0,13.98017,12.37589,13.5791,10.89,-0.19,-0.28,2.0
1758089471.86396,1758089461.66152,0.0,0.0,0.0,9.4538,12.37589,16.272,8.63,0.74,0.79,2.0
1758089471.86539,1758089461.67152,0.0,0.0,0.0,4.81285,-0.45837,17.6471,7.55,1.4,1.62,2.0
1758089471.86801,1758089461.68152,0.0,0.0,0.0,2.29183,-13.46451,19.70975,7.55,1.4,1.62,2.0
1758089471.8686,1758089461.69152,0.0,0.0,0.0,1.43239,-19.13679,21.02755,8.55,1.48,2.07,2.0
1758089471.8706,1758089461.70152,0.0,0.0,0.0,0.80214,-21.6578,22.28806,8.55,1.48,2.07,2.0
1758089471.87222,1758089461.71152,0.0,0.0,0.0,0.80214,-29.56462,18.33465,10.19,0.36,4.08,2.0
1758089471.87281,1758089461.72152,0.0,0.0,0.0,-3.72423,-34.32018,11.86023,10.19,0.36,4.08,2.0
1758089471.88901,1758089461.73152,0.0,0.0,0.0,-7.62034,-36.15364,7.62034,9.57,-1.02,4.43,2.0
1758089471.89336,1758089461.74152,0.0,0.0,0.0,-13.00614,-33.9764,1.60428,9.57,-1.02,4.43,2.0
1758089471.91319,1758089461.75152,0.0,0.0,0.0,-19.82434,-24.75178,-3.95341,9.05,-1.43,2.17,2.0
1758089471.91442,1758089461.76152,0.0,0.0,0.0,-22.00158,-12.83425,-4.58366,9.51,-1.28,2.08,2.0
1758089471.92949,1758089461.77152,0.0,0.0,0.0,-22.63183,-3.72423,-3.20856,9.51,-1.28,2.08,2.0
1758089471.93275,1758089461.78152,0.0,0.0,0.0,-21.08485,-2.97938,0.57296,8.82,-1.07,2.2,2.0
1758089471.94841,1758089461.79152,0.0,0.0,0.0,-20.79837,-14.9542,0.45837,8.82,-1.07,2.2,2.0
1758089471.96442,1758089461.80152,0.0,0.0,0.0,-18.79302,-15.24068,1.20321,8.58,-0.92,2.28,2.0
1758089471.96541,1758089461.81152,0.0,0.0,0.0,-16.272,-10.19865,1.60428,8.58,-0.92,2.28,2.0
1758089471.98102,1758089461.82152,0.0,0.0,0.0,-10.65701,1.20321,1.71887,10.39,-1.33,1.08,2.0
1758089471.98329,1758089461.83152,0.0,0.0,0.0,-6.47442,8.30789,1.3178,10.4,-2.02,2.13,2.0
1758089471.99925,1758089461.84152,0.0,0.0,0.0,-2.63561,12.54778,0.97403,10.4,-2.02,2.13,2.0
1758089472.01513,1758089461.85152,0.0,0.0,0.0,0.57296,14.61043,0.57296,9.89,-2.47,2.26,2.0
1758089472.02039,1758089461.86152,0.0,0.0,0.0,4.1253,15.41257,0.45837,9.89,-2.47,2.26,2.0
1758089472.03765,1758089461.87152,0.0,0.0,0.0,4.87014,13.98017,0.74485,9.64,-2.42,1.77,2.0
1758089472.0444,1758089461.88152,0.0,0.0,0.0,5.15662,11.97482,1.3178,9.64,-2.42,1.77,2.0
1758089472.04904,1758089461.89152,0.0,0.0,0.0,4.18259,9.85487,1.60428,9.46,-2.07,1.41,2.0
1758089472.05423,1758089461.90152,0.0,0.0,0.0,2.40642,12.54778,1.77617,9.8,-1.58,1.47,2.0
1758089472.07199,1758089461.91152,0.0,0.0,0.0,0.68755,16.21471,1.71887,9.8,-1.58,1.47,2.0
1758089472.07287,1758089461.92152,0.0,0.0,0.0,-0.68755,15.41257,1.3178,9.51,-1.11,1.74,2.0
1758089472.08853,1758089461.93152,0.0,0.0,0.0,-2.23454,9.39651,0.17189,9.51,-1.11,1.74,2.0
1758089472.10426,1758089461.94152,0.0,0.0,0.0,-3.89611,1.77617,-0.45837,8.68,-0.77,1.54,2.0
1758089472.10548,1758089461.95152,0.0,0.0,0.0,-5.4431,2.34913,0.40107,8.68,-0.77,1.54,2.0
1758089472.12028,1758089461.96152,0.0,0.0,0.0,-8.59437,27.67386,-2.29183,9.92,-0.49,0.93,2.0
1758089472.1215,1758089461.97152,0.0,0.0,0.0,-12.14671,30.82513,-7.50575,9.92,-0.49,0.93,2.0
1758089472.13924,1758089461.98152,0.0,0.0,0.0,-17.99088,20.62648,-11.51645,9.39,-0.07,1.87,2.0
1758089472.15879,1758089461.99152,0.0,0.0,0.0,-21.31403,17.76169,-12.83425,8.71,0.04,2.04,2.0
1758089472.15968,1758089462.00152,0.0,0.0,0.0,-21.08485,19.42327,-14.38124,8.71,0.04,2.04,2.0
1758089472.17528,1758089462.01152,0.0,0.0,0.0,-14.9542,18.10547,-12.89155,9.69,-0.51,0.95,2.0
1758089472.17648,1758089462.02152,0.0,0.0,0.0,-9.05273,18.16276,-10.37054,9.69,-0.51,0.95,2.0
1758089472.19137,1758089462.03152,0.0,0.0,0.0,-3.09397,21.08485,-7.67763,9.53,-1.74,1.02,2.0
1758089472.19247,1758089462.04152,0.0,0.0,0.0,2.23454,26.47065,-7.21927,9.53,-1.74,1.02,2.0
1758089472.20811,1758089462.05152,0.0,0.0,0.0,9.5684,32.37212,-6.24524,10.12,-2.7,1.5,2.0
1758089472.22456,1758089462.06152,0.0,0.0,0.0,12.83425,30.82513,-7.21927,9.34,-2.98,1.58,2.0
1758089472.22548,1758089462.07152,0.0,0.0,0.0,15.24068,28.476,-8.65166,9.34,-2.98,1.58,2.0
1758089472.24109,1758089462.08152,0.0,0.0,0.0,16.84496,25.49662,-9.91217,8.85,-2.51,0.82,2.0
1758089472.24302,1758089462.09152,0.0,0.0,0.0,18.33465,16.50119,-11.34457,8.85,-2.51,0.82,2.0
1758089472.25824,1758089462.10152,0.0,0.0,0.0,19.13679,10.19865,-12.14671,8.28,-1.83,0.18,2.0
1758089472.27433,1758089462.11152,0.0,0.0,0.0,19.53786,4.35448,-12.08941,8.28,-1.83,0.18,2.0
1758089472.27551,1758089462.12152,0.0,0.0,0.0,19.88164,-2.00535,-11.86023,8.26,-1.3,0.2,2.0
1758089472.29148,1758089462.13152,0.0,0.0,0.0,20.16812,-10.19865,-10.8289,8.33,-1.01,0.22,2.0
1758089472.29228,1758089462.14152,0.0,0.0,0.0,20.45459,-15.12609,-10.08406,8.33,-1.01,0.22,2.0
1758089472.30767,1758089462.15152,0.0,0.0,0.0,20.74107,-20.68378,-9.5684,8.57,-0.92,0.4,2.0
1758089472.3259,1758089462.16152,0.0,0.0,0.0,20.74107,-26.35606,-9.11003,8.57,-0.92,0.4,2.0
1758089472.33119,1758089462.17152,0.0,0.0,0.0,20.11082,-33.86181,-9.39651,9.04,-0.89,0.4,2.0
1758089472.33173,1758089462.18152,0.0,0.0,0.0,19.07949,-37.24226,-10.19865,9.04,-0.89,0.4,2.0
1758089472.34734,1758089462.19152,0.0,0.0,0.0,17.76169,-38.84654,-11.22997,9.59,-0.89,0.03,2.0
1758089472.36592,1758089462.20152,0.0,0.0,0.0,16.10011,-39.24761,-13.46451,9.59,-0.89,0.03,2.0
1758089472.36873,1758089462.21152,0.0,0.0,0.0,16.272,-38.44547,-14.83961,9.94,-0.95,-0.3,2.0
1758089472.38589,1758089462.22152,0.0,0.0,0.0,17.24603,-37.47144,-15.87093,10.41,-1.1,0.05,2.0
1758089472.3936,1758089462.23152,0.0,0.0,0.0,17.99088,-36.26823,-16.38659,10.41,-1.1,0.05,2.0
1758089472.39411,1758089462.24152,0.0,0.0,0.0,17.53251,-44.17505,-13.5218,12.22,-1.06,2.41,2.0
1758089472.41741,1758089462.25152,0.0,0.0,0.0,17.01685,-49.79003,-8.136,12.22,-1.06,2.41,2.0
1758089472.41865,1758089462.26152,0.0,0.0,0.0,15.06879,-47.15443,-3.26586,15.61,-0.11,4.83,2.0
1758089472.4344,1758089462.27152,0.0,0.0,0.0,13.12073,-41.25296,0.0573,15.61,-0.11,4.83,2.0
1758089472.43716,1758089462.28152,0.0,0.0,0.0,10.08406,-39.70598,-0.51566,16.92,1.18,3.69,2.0
1758089472.45343,1758089462.29152,0.0,0.0,0.0,10.48513,-45.83662,-2.00535,11.72,0.94,2.38,2.0
1758089472.45461,1758089462.30152,0.0,0.0,0.0,10.8862,-48.07116,-7.62034,11.72,0.94,2.38,2.0
1758089472.47279,1758089462.31152,0.0,0.0,0.0,12.43318,-63.59832,-11.97482,7.85,0.21,0.94,2.0
1758089472.47375,1758089462.32152,0.0,0.0,0.0,15.92823,-72.47916,-18.9649,7.85,0.21,0.94,2.0
1758089472.4927,1758089462.33152,0.0,0.0,0.0,25.72581,-49.27437,-14.49583,8.12,-0.29,0.53,2.0
1758089472.49369,1758089462.34152,0.0,0.0,0.0,33.51803,-32.25753,-13.23533,8.12,-0.29,0.53,2.0
1758089472.50964,1758089462.35152,0.0,0.0,0.0,40.7373,-31.62727,-10.8289,9.54,-0.56,3.1,2.0
1758089472.51214,1758089462.36152,0.0,0.0,0.0,45.55015,-27.96034,-3.66693,9.11,-0.16,3.49,2.0
1758089472.52866,1758089462.37152,0.0,0.0,0.0,43.94586,-19.36597,-0.45837,9.11,-0.16,3.49,2.0
1758089472.53381,1758089462.38152,0.0,0.0,0.0,39.13302,-8.88085,2.46372,11.01,0.92,2.06,2.0
1758089472.55343,1758089462.39152,0.0,0.0,0.0,31.28349,0.40107,3.03668,11.01,0.92,2.06,2.0
1758089472.56363,1758089462.40152,0.0,0.0,0.0,22.00158,13.12073,3.38045,10.91,2.17,1.21,2.0
1758089472.56402,1758089462.41152,0.0,0.0,0.0,15.12609,18.27736,0.80214,10.91,2.17,1.21,2.0
1758089472.58365,1758089462.42152,0.0,0.0,0.0,10.71431,22.05888,-0.68755,9.97,2.68,1.74,2.0
1758089472.65331,1758089462.43152,0.0,0.0,0.0,6.24524,26.35606,-3.60963,9.97,2.68,1.74,2.0
1758089472.65392,1758089462.44152,0.0,0.0,0.0,5.4431,27.67386,-4.98473,9.44,2.59,1.49,2.0
1758089472.65679,1758089462.45152,0.0,0.0,0.0,5.50039,28.36141,-5.78687,9.47,2.23,1.58,2.0
1758089472.65926,1758089462.46152,0.0,0.0,0.0,6.24524,28.07493,-5.27121,9.47,2.23,1.58,2.0
1758089472.66107,1758089462.47152,0.0,0.0,0.0,7.21927,25.89769,-3.89611,9.52,1.36,1.33,2.0
1758089472.66438,1758089462.48152,0.0,0.0,0.0,7.73493,26.35606,-2.97938,9.52,1.36,1.33,2.0
1758089472.68848,1758089462.49152,0.0,0.0,0.0,7.96411,26.52795,-1.77617,9.63,0.93,1.29,2.0
1758089472.69332,1758089462.50152,0.0,0.0,0.0,7.84952,25.7831,-0.17189,9.63,0.93,1.29,2.0
1758089472.6946,1758089462.51152,0.0,0.0,0.0,6.99009,23.54857,2.11994,9.25,0.75,1.33,2.0
1758089472.6971,1758089462.52152,0.0,0.0,0.0,5.95876,20.68378,3.38045,8.91,0.76,1.3,2.0
1758089472.69747,1758089462.53152,0.0,0.0,0.0,4.64096,18.62113,4.58366,8.91,0.76,1.3,2.0
1758089472.69905,1758089462.54152,0.0,0.0,0.0,3.55234,15.29797,6.07335,8.84,0.9,1.28,2.0
1758089472.71653,1758089462.55152,0.0,0.0,0.0,0.11459,9.68299,6.58902,8.84,0.9,1.28,2.0
1758089472.71825,1758089462.56152,0.0,0.0,0.0,-2.11994,5.78687,6.24524,8.86,1.15,1.21,2.0
1758089472.73347,1758089462.57152,0.0,0.0,0.0,-4.69825,1.77617,5.21392,8.86,1.15,1.21,2.0
1758089472.7347,1758089462.58152,0.0,0.0,0.0,-6.8182,-2.92208,4.18259,8.9,1.42,1.04,2.0
1758089472.74946,1758089462.59152,0.0,0.0,0.0,-8.93814,-8.02141,2.7502,8.94,1.47,1.01,2.0
1758089472.75469,1758089462.60152,0.0,0.0,0.0,-9.62569,-10.59972,2.6929,8.94,1.47,1.01,2.0
1758089472.77342,1758089462.61152,0.0,0.0,0.0,-9.91217,-12.49048,3.03668,9.02,1.35,0.88,2.0
1758089472.77469,1758089462.62152,0.0,0.0,0.0,-9.33921,-11.80293,4.35448,9.02,1.35,0.88,2.0
1758089472.81836,1758089462.63152,0.0,0.0,0.0,-8.70896,-9.85487,5.72958,9.41,1.15,0.93,2.0
1758089472.8594,1758089462.64152,0.0,0.0,0.0,-8.36518,-8.0787,6.8182,9.41,1.15,0.93,2.0
1758089472.86637,1758089462.65152,0.0,0.0,0.0,-8.59437,-5.50039,7.67763,9.7,0.95,0.97,2.0
1758089472.8716,1758089462.66152,0.0,0.0,0.0,-9.91217,-0.34377,8.136,9.7,0.95,0.97,2.0
1758089472.87222,1758089462.67152,0.0,0.0,0.0,-11.34457,2.86479,8.65166,9.91,0.96,0.78,2.0
1758089472.8735,1758089462.68152,0.0,0.0,0.0,-13.5218,5.4431,8.70896,9.69,1.13,0.71,2.0
1758089472.87405,1758089462.69152,0.0,0.0,0.0,-15.69904,6.41713,9.33921,9.69,1.13,0.71,2.0
1758089472.87473,1758089462.70152,0.0,0.0,0.0,-19.76705,6.8182,10.02676,9.53,1.26,0.56,2.0
1758089472.87755,1758089462.71152,0.0,0.0,0.0,-22.86102,4.0107,10.19865,9.53,1.26,0.56,2.0
1758089472.87819,1758089462.72152,0.0,0.0,0.0,-25.89769,-0.68755,9.96947,9.41,1.33,0.48,2.0
1758089472.8953,1758089462.73152,0.0,0.0,0.0,-28.99167,-5.84417,10.02676,9.41,1.33,0.48,2.0
1758089472.89728,1758089462.74152,0.0,0.0,0.0,-33.63263,-12.54778,10.48513,9.36,1.46,0.01,2.0
1758089472.9133,1758089462.75152,0.0,0.0,0.0,-36.6693,-15.75634,10.48513,9.63,1.69,-0.13,2.0
1758089472.91528,1758089462.76152,0.0,0.0,0.0,-40.10705,-17.6471,10.02676,9.63,1.69,-0.13,2.0
1758089472.9315,1758089462.77152,0.0,0.0,0.0,-42.85724,-20.05352,9.33921,9.93,1.9,-0.19,2.0
1758089472.93326,1758089462.78152,0.0,0.0,0.0,-45.49285,-28.13223,7.96411,9.93,1.9,-0.19,2.0
1758089472.94869,1758089462.79152,0.0,0.0,0.0,-46.35228,-31.16891,6.99009,9.76,1.78,-0.44,2.0
1758089472.96561,1758089462.80152,0.0,0.0,0.0,-46.1804,-31.11161,6.70361,9.76,1.78,-0.44,2.0
1758089472.9669,1758089462.81152,0.0,0.0,0.0,-46.00851,-29.27814,6.47442,10.42,1.6,-0.54,2.0
1758089472.98322,1758089462.82152,0.0,0.0,0.0,-45.72203,-23.89234,6.47442,10.69,1.31,-0.43,2.0
1758089473.0332,1758089462.83152,0.0,0.0,0.0,-45.26366,-21.02755,6.70361,10.69,1.31,-0.43,2.0
1758089473.03379,1758089462.84152,0.0,0.0,0.0,-45.55015,-21.6578,8.99544,10.57,1.16,-0.19,2.0
1758089473.03745,1758089462.85152,0.0,0.0,0.0,-48.64412,-19.36597,8.136,10.57,1.16,-0.19,2.0
1758089473.03808,1758089462.86152,0.0,0.0,0.0,-52.76942,-10.02676,5.15662,11.05,1.28,-0.56,2.0
1758089473.04032,1758089462.87152,0.0,0.0,0.0,-55.6342,-7.10468,4.35448,11.05,1.28,-0.56,2.0
1758089473.04072,1758089462.88152,0.0,0.0,0.0,-56.60823,-8.93814,4.35448,11.57,1.57,0.04,2.0
1758089473.04201,1758089462.89152,0.0,0.0,0.0,-55.97798,-15.98552,3.26586,11.93,1.57,1.61,2.0
1758089473.05758,1758089462.90152,0.0,0.0,0.0,-54.14451,-19.36597,2.40642,11.93,1.15,1.61,2.0
1758089473.07359,1758089462.91151,0.0,0.0,0.0,-51.73809,-21.88699,0.85944,13.38,0.25,1.73,2.0
1758089473.07796,1758089462.92151,0.0,0.0,0.0,-47.67009,-19.88164,-1.08862,13.38,0.25,1.73,2.0
1758089473.09355,1758089462.93151,0.0,0.0,0.0,-37.98711,-14.38124,-3.09397,14.27,-1.33,1.75,2.0
1758089473.09508,1758089462.94151,0.0,0.0,0.0,-30.59595,-11.34457,-3.32316,14.27,-1.33,1.75,2.0
1758089473.11106,1758089462.95151,0.0,0.0,0.0,-23.0902,-8.30789,-2.11994,12.49,-2.67,0.93,2.0
1758089473.11307,1758089462.96151,0.0,0.0,0.0,-16.38659,-6.07335,0.40107,12.49,-2.67,0.93,2.0
1758089473.12858,1758089462.97151,0.0,0.0,0.0,-9.68299,-4.98473,4.87014,10.01,-2.44,-0.24,2.0
1758089473.14725,1758089462.98151,0.0,0.0,0.0,-7.21927,-3.72423,7.67763,8.6,-1.33,-0.53,2.0
1758089473.1482,1758089462.99151,0.0,0.0,0.0,-7.04738,-3.26586,9.33921,8.6,-1.33,-0.53,2.0
1758089473.16386,1758089463.00151,0.0,0.0,0.0,-8.59437,-3.89611,9.68299,8.47,-0.34,0.34,2.0
1758089473.16878,1758089463.01151,0.0,0.0,0.0,-12.71966,-5.4431,8.36518,8.47,-0.34,0.34,2.0
1758089473.18356,1758089463.02151,0.0,0.0,0.0,-16.3293,-7.33386,6.41713,8.71,0.26,1.19,2.0
1758089473.18481,1758089463.03151,0.0,0.0,0.0,-19.59516,-9.85487,4.23989,8.71,0.26,1.19,2.0
1758089473.20276,1758089463.04151,0.0,0.0,0.0,-24.12152,-14.03747,0.97403,8.72,0.25,1.74,2.0
1758089473.20398,1758089463.05151,0.0,0.0,0.0,-26.01229,-15.58445,-1.03132,8.87,-0.28,1.83,2.0
1758089473.24842,1758089463.06151,0.0,0.0,0.0,-27.33009,-15.87093,-2.23454,8.87,-0.28,1.83,2.0
1758089473.25122,1758089463.07151,0.0,0.0,0.0,-27.38738,-14.78231,-2.6929,9.34,-1.0,1.53,2.0
1758089473.25343,1758089463.08151,0.0,0.0,0.0,-26.24147,-11.74564,-2.11994,9.34,-1.0,1.53,2.0
1758089473.25564,1758089463.09151,0.0,0.0,0.0,-24.63719,-8.59437,-1.08862,9.83,-1.62,1.21,2.0
1758089473.25615,1758089463.10151,0.0,0.0,0.0,-22.91831,-4.35448,0.22918,9.83,-1.62,1.21,2.0
1758089473.2737,1758089463.11151,0.0,0.0,0.0,-21.25674,-0.51566,1.48969,10.24,-1.9,0.99,2.0
1758089473.27478,1758089463.12151,0.0,0.0,0.0,-18.62113,6.87549,3.49504,10.49,-1.85,0.7,2.0
1758089473.29116,1758089463.13151,0.0,0.0,0.0,-16.90226,13.86558,4.58366,10.49,-1.85,0.7,2.0
1758089473.29315,1758089463.14151,0.0,0.0,0.0,-16.84496,23.94964,2.7502,11.02,-1.63,0.54,2.0
1758089473.30866,1758089463.15151,0.0,0.0,0.0,-13.98017,24.86637,4.52637,11.02,-1.63,0.54,2.0
1758089473.31218,1758089463.16151,0.0,0.0,0.0,-12.89155,32.71589,4.18259,10.68,-1.56,0.43,2.0
1758089473.32845,1758089463.17151,0.0,0.0,0.0,-13.00614,35.98175,3.32316,10.68,-1.56,0.43,2.0
1758089473.34537,1758089463.18151,0.0,0.0,0.0,-13.46451,37.64333,2.34913,10.6,-1.46,0.47,2.0
1758089473.35403,1758089463.19151,0.0,0.0,0.0,-13.5791,39.3622,1.60428,10.6,-1.46,0.47,2.0
1758089473.35599,1758089463.20151,0.0,0.0,0.0,-14.03747,39.19032,0.97403,10.42,-1.31,0.39,2.0
1758089473.3727,1758089463.21151,0.0,0.0,0.0,-13.86558,37.52874,0.85944,10.14,-1.2,0.48,2.0
1758089473.37386,1758089463.22151,0.0,0.0,0.0,-13.46451,36.7266,0.57296,10.14,-1.2,0.48,2.0
1758089473.4133,1758089463.23151,0.0,0.0,0.0,-12.54778,35.75257,0.57296,9.87,-1.19,0.26,2.0
1758089473.41858,1758089463.24151,0.0,0.0,0.0,-11.74564,34.32018,0.51566,9.87,-1.19,0.26,2.0
1758089473.42311,1758089463.25151,0.0,0.0,0.0,-10.94349,32.25753,0.51566,9.38,-1.25,0.37,2.0
1758089473.42612,1758089463.26151,0.0,0.0,0.0,-10.48513,29.50733,0.51566,9.38,-1.25,0.37,2.0
1758089473.42847,1758089463.27151,0.0,0.0,0.0,-10.37054,24.4653,0.51566,8.87,-1.23,0.38,2.0
1758089473.43339,1758089463.28151,0.0,0.0,0.0,-10.71431,20.68378,0.40107,8.67,-1.15,0.34,2.0
1758089473.45204,1758089463.29151,0.0,0.0,0.0,-10.94349,16.84496,0.34377,8.67,-1.15,0.34,2.0
1758089473.45403,1758089463.30151,0.0,0.0,0.0,-11.45916,12.37589,0.0,8.5,-1.08,0.28,2.0
1758089473.47228,1758089463.31151,0.0,0.0,0.0,-11.34457,6.47442,-0.68755,8.5,-1.08,0.28,2.0
1758089473.47324,1758089463.32151,0.0,0.0,0.0,-10.71431,3.09397,-0.80214,8.59,-1.09,0.39,2.0
1758089473.48865,1758089463.33151,0.0,0.0,0.0,-8.93814,3.20856,-0.34377,8.59,-1.09,0.39,2.0
1758089473.49389,1758089463.34151,0.0,0.0,0.0,-6.70361,5.55769,-0.22918,9.21,-1.34,0.47,2.0
1758089473.51318,1758089463.35151,0.0,0.0,0.0,-2.6929,6.58902,0.40107,9.42,-1.65,0.65,2.0
1758089473.51426,1758089463.36151,0.0,0.0,0.0,0.17189,5.21392,1.03132,9.42,-1.65,0.65,2.0
1758089473.53143,1758089463.37151,0.0,0.0,0.0,2.86479,3.09397,1.60428,9.27,-1.78,0.48,2.0
1758089473.53346,1758089463.38151,0.0,0.0,0.0,4.98473,1.71887,1.83346,9.27,-1.78,0.48,2.0
1758089473.54894,1758089463.39151,0.0,0.0,0.0,8.30789,0.45837,2.00535,9.47,-1.72,0.11,2.0
1758089473.56675,1758089463.40151,0.0,0.0,0.0,10.8289,0.74485,2.34913,9.47,-1.72,0.11,2.0
1758089473.56794,1758089463.41151,0.0,0.0,0.0,12.83425,3.03668,1.48969,9.82,-1.53,-0.02,2.0
1758089473.60739,1758089463.42151,0.0,0.0,0.0,14.43854,-0.34377,1.14592,9.82,-1.53,-0.02,2.0
1758089473.61337,1758089463.43151,0.0,0.0,0.0,15.46986,-5.27121,0.40107,9.33,-1.32,0.13,2.0
1758089473.61401,1758089463.44151,0.0,0.0,0.0,15.92823,-7.73493,0.0,9.31,-1.11,-0.14,2.0
1758089473.61843,1758089463.45151,0.0,0.0,0.0,16.67307,-6.24524,-1.48969,9.31,-1.11,-0.14,2.0
1758089473.61902,1758089463.46151,0.0,0.0,0.0,19.48057,9.74028,-3.49504,10.08,-1.15,-0.28,2.0
1758089473.6235,1758089463.47151,0.0,0.0,0.0,21.14215,25.61122,-4.46907,10.08,-1.15,-0.28,2.0
1758089473.64872,1758089463.48151,0.0,0.0,0.0,23.26209,37.47144,-5.61499,10.99,-1.39,1.01,2.0
1758089473.6738,1758089463.49151,0.0,0.0,0.0,27.73116,30.25217,-9.05273,10.99,-1.39,1.01,2.0
1758089473.67442,1758089463.50151,0.0,0.0,0.0,34.72124,-19.76705,-6.13065,7.58,-1.54,0.75,2.0
1758089473.6781,1758089463.51151,0.0,0.0,0.0,37.64333,-31.51268,-3.60963,7.66,-1.83,-0.97,2.0
1758089473.67873,1758089463.52151,0.0,0.0,0.0,39.4768,-26.87172,-0.97403,7.66,-1.83,-0.97,2.0
1758089473.69658,1758089463.53151,0.0,0.0,0.0,40.85189,-23.0902,-0.22918,10.69,-1.73,-1.27,2.0
1758089473.69771,1758089463.54151,0.0,0.0,0.0,41.25296,-26.69983,0.57296,10.69,-1.73,-1.27,2.0
1758089473.71375,1758089463.55151,0.0,0.0,0.0,39.53409,-26.01229,0.45837,9.65,-1.24,0.33,2.0
1758089473.71741,1758089463.56151,0.0,0.0,0.0,36.84119,-22.74642,0.51566,9.65,-1.24,0.33,2.0
1758089473.73346,1758089463.57151,0.0,0.0,0.0,33.00237,-22.23076,-0.57296,10.64,-0.76,2.06,2.0
1758089473.73474,1758089463.58151,0.0,0.0,0.0,26.41335,-16.90226,-2.11994,10.48,-0.26,0.84,2.0
1758089473.75124,1758089463.59151,0.0,0.0,0.0,21.88699,-10.37054,-2.92208,10.48,-0.26,0.84,2.0
1758089473.75261,1758089463.60151,0.0,0.0,0.0,17.6471,-5.61499,-4.0107,10.6,0.05,0.32,2.0
1758089473.76803,1758089463.61151,0.0,0.0,0.0,14.72501,-1.48969,-4.29718,10.6,0.05,0.32,2.0
1758089473.78378,1758089463.62151,0.0,0.0,0.0,11.45916,4.87014,-4.35448,10.78,0.02,-0.26,2.0
1758089473.78736,1758089463.63151,0.0,0.0,0.0,9.4538,7.39116,-4.64096,10.78,0.02,-0.26,2.0
1758089473.80384,1758089463.64151,0.0,0.0,0.0,7.79223,7.44845,-5.4431,11.27,-0.27,-0.08,2.0
1758089473.80892,1758089463.65151,0.0,0.0,0.0,4.69825,7.21927,-6.58902,11.27,-0.27,-0.08,2.0
1758089473.8238,1758089463.66151,0.0,0.0,0.0,2.57831,4.52637,-7.16197,11.86,-0.67,0.03,2.0
1758089473.82734,1758089463.67151,0.0,0.0,0.0,0.68755,0.68755,-6.07335,12.84,-0.77,0.65,2.0
1758089473.84278,1758089463.68151,0.0,0.0,0.0,-1.71887,-3.55234,-4.69825,12.84,-0.77,0.65,2.0
1758089473.84441,1758089463.69151,0.0,0.0,0.0,-4.1253,-7.50575,-0.45837,14.09,-0.43,1.09,2.0
1758089473.86082,1758089463.70151,0.0,0.0,0.0,-6.07335,-4.64096,0.11459,14.09,-0.43,1.09,2.0
1758089473.86198,1758089463.71151,0.0,0.0,0.0,-7.33386,-2.46372,-1.43239,13.75,-0.25,0.52,2.0
1758089473.87871,1758089463.72151,0.0,0.0,0.0,-8.47978,-1.94806,-4.23989,13.75,-0.25,0.52,2.0
1758089473.93715,1758089463.73151,0.0,0.0,0.0,-9.5684,-2.00535,-8.93814,10.66,-0.44,0.51,2.0
1758089473.93867,1758089463.74151,0.0,0.0,0.0,-9.22462,-2.57831,-11.80293,9.36,-0.47,0.74,2.0
1758089473.93933,1758089463.75151,0.0,0.0,0.0,-7.50575,-0.97403,-13.69369,9.36,-0.47,0.74,2.0
1758089473.94299,1758089463.76151,0.0,0.0,0.0,-4.69825,1.08862,-14.38124,9.28,-0.46,1.19,2.0
1758089473.94363,1758089463.77151,0.0,0.0,0.0,1.66158,2.00535,-12.204,9.28,-0.46,1.19,2.0
1758089473.94901,1758089463.78151,0.0,0.0,0.0,6.87549,0.74485,-9.91217,8.96,-0.64,2.6,2.0
1758089473.95183,1758089463.79151,0.0,0.0,0.0,11.97482,-0.11459,-7.62034,8.96,-0.64,2.6,2.0
1758089473.95255,1758089463.80151,0.0,0.0,0.0,16.3293,-1.60428,-5.09932,8.85,-0.59,3.54,2.0
1758089473.96891,1758089463.81151,0.0,0.0,0.0,20.11082,-1.77617,-0.80214,9.09,-0.15,3.15,2.0
1758089473.97222,1758089463.82151,0.0,0.0,0.0,23.37668,-1.03132,-1.83346,9.09,-0.15,3.15,2.0
1758089473.9889,1758089463.83151,0.0,0.0,0.0,23.54857,3.72423,0.40107,10.12,0.23,2.59,2.0
1758089473.99303,1758089463.84151,0.0,0.0,0.0,21.88699,6.24524,-2.00535,10.12,0.23,2.59,2.0
1758089474.00903,1758089463.85151,0.0,0.0,0.0,16.73037,14.20935,-3.83882,10.04,0.69,1.74,2.0
1758089474.0132,1758089463.86151,0.0,0.0,0.0,11.63104,18.9649,-5.90147,10.04,0.69,1.74,2.0
1758089474.02912,1758089463.87151,0.0,0.0,0.0,6.8182,24.57989,-9.68299,9.76,1.38,1.48,2.0
1758089474.03323,1758089463.88151,0.0,0.0,0.0,1.48969,28.70519,-8.47978,9.76,1.38,1.48,2.0
1758089474.04911,1758089463.89151,0.0,0.0,0.0,-1.66158,27.73116,-7.73493,9.75,1.38,1.73,2.0
1758089474.05244,1758089463.90151,0.0,0.0,0.0,-4.1253,30.30947,-6.35983,9.93,1.37,1.06,2.0
1758089474.06814,1758089463.91151,0.0,0.0,0.0,-5.78687,34.77854,-4.87014,9.93,1.37,1.06,2.0
1758089474.08549,1758089463.92151,0.0,0.0,0.0,-6.13065,38.27358,-2.92208,10.57,1.24,1.37,2.0
1758089474.08831,1758089463.93151,0.0,0.0,0.0,-5.78687,40.04975,-2.00535,10.57,1.24,1.37,2.0
1758089474.10419,1758089463.94151,0.0,0.0,0.0,-4.92744,41.65404,-1.20321,10.41,0.96,1.41,2.0
1758089474.10708,1758089463.95151,0.0,0.0,0.0,-4.52637,42.74266,-1.3178,10.41,0.96,1.41,2.0
1758089474.12354,1758089463.96151,0.0,0.0,0.0,-4.18259,46.00851,-0.97403,10.18,0.73,1.46,2.0
1758089474.12842,1758089463.97151,0.0,0.0,0.0,-4.46907,46.40959,-0.85944,9.88,0.56,1.44,2.0
1758089474.14391,1758089463.98151,0.0,0.0,0.0,-5.27121,46.46688,-1.03132,9.88,0.56,1.44,2.0
1758089474.14669,1758089463.99151,0.0,0.0,0.0,-6.7609,47.61279,-1.20321,9.65,0.65,1.47,2.0
1758089474.16269,1758089464.00151,0.0,0.0,0.0,-9.22462,47.49821,-1.03132,9.65,0.65,1.47,2.0
1758089474.16395,1758089464.01151,0.0,0.0,0.0,-11.51645,45.60744,-1.43239,9.36,0.84,1.56,2.0
1758089474.18293,1758089464.02151,0.0,0.0,0.0,-13.75099,42.97184,-1.66158,9.36,0.84,1.56,2.0
1758089474.18414,1758089464.03151,0.0,0.0,0.0,-16.10011,40.04975,-2.11994,8.97,1.03,1.62,2.0
1758089474.19894,1758089464.04151,0.0,0.0,0.0,-19.48057,36.26823,-3.32316,8.71,1.18,1.52,2.0
1758089474.20333,1758089464.05151,0.0,0.0,0.0,-21.42862,32.83048,-3.83882,8.71,1.18,1.52,2.0
1758089474.2229,1758089464.06151,0.0,0.0,0.0,-22.63183,28.41871,-4.18259,8.22,1.18,1.29,2.0
1758089474.22525,1758089464.07151,0.0,0.0,0.0,-23.83505,23.94964,-3.32316,8.22,1.18,1.29,2.0
1758089474.24297,1758089464.08151,0.0,0.0,0.0,-23.94964,18.50654,-2.11994,7.96,0.96,1.0,2.0
1758089474.24495,1758089464.09151,0.0,0.0,0.0,-23.60586,16.61578,-0.45837,7.96,0.96,1.0,2.0
1758089474.26531,1758089464.10151,0.0,0.0,0.0,-23.26209,13.5218,1.66158,8.0,0.72,0.67,2.0
1758089474.26734,1758089464.11151,0.0,0.0,0.0,-23.49127,6.58902,3.95341,8.0,0.72,0.67,2.0
1758089474.28376,1758089464.12151,0.0,0.0,0.0,-24.4653,1.77617,4.52637,7.83,0.67,0.78,2.0
1758089474.28654,1758089464.13151,0.0,0.0,0.0,-25.89769,-3.32316,4.87014,8.07,0.84,0.61,2.0
1758089474.30306,1758089464.14151,0.0,0.0,0.0,-27.67386,-9.05273,4.87014,8.07,0.84,0.61,2.0
1758089474.30796,1758089464.15151,0.0,0.0,0.0,-31.2262,-18.16276,5.09932,8.4,1.17,0.39,2.0
1758089474.35207,1758089464.16151,0.0,0.0,0.0,-34.77854,-24.35071,5.27121,8.4,1.17,0.39,2.0
1758089474.35327,1758089464.17151,0.0,0.0,0.0,-38.78925,-30.13758,4.92744,8.87,1.55,0.48,2.0
1758089474.35548,1758089464.18151,0.0,0.0,0.0,-43.4875,-35.2369,4.1253,8.87,1.55,0.48,2.0
1758089474.3599,1758089464.19151,0.0,0.0,0.0,-50.64947,-41.13837,2.11994,9.18,1.82,0.38,2.0
1758089474.36139,1758089464.20151,0.0,0.0,0.0,-55.34772,-45.55015,-0.0573,9.26,1.79,0.26,2.0
1758089474.36498,1758089464.21151,0.0,0.0,0.0,-58.78547,-55.34772,-0.97403,9.26,1.79,0.26,2.0
1758089474.38012,1758089464.22151,0.0,0.0,0.0,-60.38975,-65.14531,-0.80214,8.53,1.32,-0.25,2.0
1758089474.382,1758089464.23151,0.0,0.0,0.0,-60.27517,-72.13539,0.0,8.53,1.32,-0.25,2.0
1758089474.39895,1758089464.24151,0.0,0.0,0.0,-59.07195,-71.73432,1.03132,9.16,0.88,-0.93,2.0
1758089474.416,1758089464.25151,0.0,0.0,0.0,-58.90006,-66.92148,6.18794,9.16,0.88,-0.93,2.0
1758089474.41719,1758089464.26151,0.0,0.0,0.0,-59.64491,-62.91077,1.3178,9.85,0.92,0.02,2.0
1758089474.43285,1758089464.27151,0.0,0.0,0.0,-66.17663,-54.77477,0.0,10.39,1.1,1.72,2.0
1758089474.4356,1758089464.28151,0.0,0.0,0.0,-70.47381,-61.93674,-0.97403,10.39,1.1,1.72,2.0
1758089474.4544,1758089464.29151,0.0,0.0,0.0,-73.2813,-74.88559,-4.52637,11.01,0.82,4.58,2.0
1758089474.45699,1758089464.30151,0.0,0.0,0.0,-70.58841,-73.62508,-10.37054,11.01,0.82,4.58,2.0
1758089474.47234,1758089464.31151,0.0,0.0,0.0,-63.19725,-61.65026,-12.83425,16.59,-1.79,5.58,2.0
1758089474.47322,1758089464.32151,0.0,0.0,0.0,-51.85268,-47.89928,-13.06344,16.59,-1.79,5.58,2.0
1758089474.48886,1758089464.33151,0.0,0.0,0.0,-39.82057,-33.51803,-10.54242,17.49,-4.69,2.31,2.0
1758089474.49318,1758089464.34151,0.0,0.0,0.0,-21.48592,-25.21014,-0.34377,17.49,-4.69,0.99,2.0
1758089474.50891,1758089464.35151,0.0,0.0,0.0,-12.2613,-21.48592,6.35983,13.22,-4.38,0.99,2.0
1758089474.51334,1758089464.36151,0.0,0.0,0.0,-5.32851,-20.74107,12.60507,10.4,-2.28,1.0,2.0
1758089474.52929,1758089464.37151,0.0,0.0,0.0,-1.66158,-19.82434,16.67307,10.4,-2.28,1.0,2.0
1758089474.53258,1758089464.38151,0.0,0.0,0.0,-3.03668,-17.87628,16.38659,10.23,-1.24,2.15,2.0
1758089474.54804,1758089464.39151,0.0,0.0,0.0,-8.30789,-16.95955,13.00614,10.23,-1.24,2.15,2.0
1758089474.56424,1758089464.40151,0.0,0.0,0.0,-15.12609,-16.272,8.88085,10.2,-0.63,3.03,2.0
1758089474.5692,1758089464.41151,0.0,0.0,0.0,-23.0329,-12.54778,4.0107,10.2,-0.63,3.03,2.0
1758089474.58646,1758089464.42151,0.0,0.0,0.0,-35.12231,-8.76626,-1.71887,10.18,-0.22,2.6,2.0
1758089474.59522,1758089464.43151,0.0,0.0,0.0,-41.65404,-6.58902,-4.1253,9.44,-0.35,1.82,2.0
1758089474.5956,1758089464.44151,0.0,0.0,0.0,-46.52417,-1.94806,-5.21392,9.44,-0.35,1.82,2.0
1758089474.61307,1758089464.45151,0.0,0.0,0.0,-49.04519,3.72423,-5.15662,9.56,-0.84,1.44,2.0
1758089474.61431,1758089464.46151,0.0,0.0,0.0,-48.41494,9.91217,-3.38045,9.56,-0.84,1.44,2.0
1758089474.62895,1758089464.47151,0.0,0.0,0.0,-46.46688,12.37589,-2.00535,9.26,-1.55,1.36,2.0
1758089474.63279,1758089464.48151,0.0,0.0,0.0,-43.31561,15.12609,-0.17189,9.26,-1.55,1.36,2.0
1758089474.65132,1758089464.49151,0.0,0.0,0.0,-37.58603,17.6471,1.3178,9.11,-2.15,0.83,2.0
1758089474.6523,1758089464.50151,0.0,0.0,0.0,-33.74722,21.60051,1.94806,9.16,-2.43,0.56,2.0
1758089474.66812,1758089464.51151,0.0,0.0,0.0,-30.48136,24.00693,2.46372,9.16,-2.43,0.56,2.0
1758089474.6849,1758089464.52151,0.0,0.0,0.0,-28.01764,25.61122,1.60428,9.1,-2.28,0.67,2.0
1758089474.68881,1758089464.53151,0.0,0.0,0.0,-25.72581,24.75178,1.48969,9.1,-2.28,0.67,2.0
1758089474.70406,1758089464.54151,0.0,0.0,0.0,-25.15285,27.61657,1.03132,9.23,-1.91,0.54,2.0
1758089474.70529,1758089464.55151,0.0,0.0,0.0,-24.80907,28.07493,1.3751,9.23,-1.91,0.54,2.0
1758089474.72009,1758089464.56151,0.0,0.0,0.0,-24.57989,25.49662,1.77617,9.38,-1.63,0.61,2.0
1758089474.72735,1758089464.57151,0.0,0.0,0.0,-23.94964,22.74642,1.94806,9.26,-1.45,0.41,2.0
1758089474.74311,1758089464.58151,0.0,0.0,0.0,-23.31938,21.88699,1.66158,9.26,-1.45,0.41,2.0
1758089474.74588,1758089464.59151,0.0,0.0,0.0,-22.57454,21.37133,1.20321,9.46,-1.41,0.32,2.0
1758089474.76423,1758089464.60151,0.0,0.0,0.0,-21.6578,20.16812,1.03132,9.46,-1.41,0.32,2.0
1758089474.7675,1758089464.61151,0.0,0.0,0.0,-20.16812,17.81899,0.57296,9.36,-1.45,0.33,2.0
1758089474.78334,1758089464.62151,0.0,0.0,0.0,-19.19409,16.21471,0.34377,9.36,-1.45,0.33,2.0
1758089474.78433,1758089464.63151,0.0,0.0,0.0,-18.62113,13.46451,0.0573,9.35,-1.48,0.36,2.0
1758089474.80255,1758089464.64151,0.0,0.0,0.0,-18.44924,9.39651,-0.68755,9.35,-1.48,0.36,2.0
1758089474.80373,1758089464.65151,0.0,0.0,0.0,-18.33465,4.52637,-2.00535,9.18,-1.46,0.22,2.0
1758089474.81913,1758089464.66151,0.0,0.0,0.0,-18.33465,1.83346,-2.92208,9.32,-1.41,0.03,2.0
1758089474.83855,1758089464.67151,0.0,0.0,0.0,-17.99088,-0.40107,-3.66693,9.32,-1.41,0.03,2.0
1758089474.84296,1758089464.68151,0.0,0.0,0.0,-17.36062,-2.6929,-5.15662,9.32,-1.42,0.02,2.0
1758089474.84354,1758089464.69151,0.0,0.0,0.0,-15.75634,-5.15662,-5.95876,9.32,-1.42,0.02,2.0
1758089474.85913,1758089464.70151,0.0,0.0,0.0,-13.86558,-5.32851,-7.04738,9.39,-1.5,0.05,2.0
1758089474.87612,1758089464.71151,0.0,0.0,0.0,-12.204,-3.38045,-8.0787,9.39,-1.5,0.05,2.0
1758089474.87895,1758089464.72151,0.0,0.0,0.0,-9.33921,-0.11459,-10.08406,9.67,-1.62,0.04,2.0
1758089474.89417,1758089464.73151,0.0,0.0,0.0,-6.24524,3.66693,-10.65701,9.82,-1.76,0.29,2.0
1758089474.89531,1758089464.74151,0.0,0.0,0.0,-2.23454,5.84417,-9.85487,9.82,-1.76,0.29,2.0
1758089474.91176,1758089464.75151,0.0,0.0,0.0,2.11994,3.72423,-8.59437,9.45,-1.95,0.33,2.0
1758089474.91376,1758089464.76151,0.0,0.0,0.0,9.22462,-0.51566,-6.13065,9.45,-1.95,0.33,2.0
1758089474.9317,1758089464.77151,0.0,0.0,0.0,13.98017,-3.20856,-4.69825,8.96,-2.12,-0.33,2.0
1758089474.93438,1758089464.78151,0.0,0.0,0.0,18.79302,-6.70361,-3.55234,8.96,-2.12,-0.33,2.0
1758089474.97312,1758089464.79151,0.0,0.0,0.0,23.37668,-10.65701,-2.86479,8.59,-2.25,-0.79,2.0
1758089474.97433,1758089464.80151,0.0,0.0,0.0,30.25217,-16.90226,-3.03668,8.35,-2.27,-1.1,2.0
1758089474.97652,1758089464.81151,0.0,0.0,0.0,33.34615,-20.16812,-3.32316,8.35,-2.27,-1.1,2.0
1758089474.9778,1758089464.82151,0.0,0.0,0.0,34.60666,-26.35606,-5.27121,8.3,-2.03,-0.93,2.0
1758089474.99314,1758089464.83151,0.0,0.0,0.0,35.12231,-34.32018,-6.7609,8.3,-2.03,-0.93,2.0
1758089474.99439,1758089464.84151,0.0,0.0,0.0,35.69527,-32.77319,-11.00079,8.45,-1.73,-1.21,2.0
1758089475.01155,1758089464.85151,0.0,0.0,0.0,38.84654,-20.05352,-9.85487,8.45,-1.73,-1.21,2.0
1758089475.01354,1758089464.86151,0.0,0.0,0.0,39.07573,-5.09932,-11.51645,10.97,-1.62,-0.62,2.0
1758089475.03343,1758089464.87151,0.0,0.0,0.0,38.90384,8.36518,-11.97482,10.97,-1.62,-0.62,2.0
1758089475.05853,1758089464.88151,0.0,0.0,0.0,38.78925,-9.74028,-18.56383,10.71,-1.33,1.46,2.0
1758089475.05913,1758089464.89151,0.0,0.0,0.0,43.94586,-50.2484,-12.71966,6.08,-1.39,0.31,2.0
1758089475.06432,1758089464.90151,0.0,0.0,0.0,46.63877,-72.42187,-6.13065,6.08,-1.39,0.31,2.0
1758089475.06653,1758089464.91151,0.0,0.0,0.0,46.1804,-54.3737,-0.45837,10.69,-2.09,-1.98,2.0
1758089475.08399,1758089464.92151,0.0,0.0,0.0,45.89392,-44.748,0.51566,10.69,-2.09,-1.98,2.0
1758089475.085,1758089464.93151,0.0,0.0,0.0,45.37826,-43.31561,1.03132,11.16,-2.07,-1.87,2.0
1758089475.12292,1758089464.94151,0.0,0.0,0.0,43.25832,-41.99781,1.03132,11.16,-2.07,-1.87,2.0
1758089475.12897,1758089464.95151,0.0,0.0,0.0,35.3515,-32.37212,-1.71887,10.21,-1.79,0.81,2.0
1758089475.13113,1758089464.96151,0.0,0.0,0.0,28.59059,-27.96034,-4.29718,10.76,-1.05,0.89,2.0
1758089475.13314,1758089464.97151,0.0,0.0,0.0,21.02755,-23.20479,-8.36518,10.76,-1.05,0.89,2.0
1758089475.13376,1758089464.98151,0.0,0.0,0.0,14.66772,-18.85031,-9.68299,11.06,-0.19,0.23,2.0
1758089475.15341,1758089464.99151,0.0,0.0,0.0,6.7609,-15.41257,-11.45916,11.06,-0.19,0.23,2.0
1758089475.15464,1758089465.00151,0.0,0.0,0.0,3.26586,-12.37589,-11.63104,11.2,0.35,0.16,2.0
1758089475.19629,1758089465.01151,0.0,0.0,0.0,0.0,-7.67763,-10.8289,11.2,0.35,0.16,2.0
1758089475.19899,1758089465.02151,0.0,0.0,0.0,-2.86479,-4.0107,-7.84952,12.24,0.68,0.83,2.0
1758089475.20039,1758089465.03151,0.0,0.0,0.0,-9.05273,-9.28192,-2.34913,13.97,1.41,3.46,2.0
1758089475.20405,1758089465.04151,0.0,0.0,0.0,-12.49048,-11.51645,4.18259,13.97,1.41,3.46,2.0
1758089475.20467,1758089465.05151,0.0,0.0,0.0,-17.99088,-8.65166,9.68299,16.98,2.27,2.6,2.0
1758089475.22136,1758089465.06151,0.0,0.0,0.0,-24.57989,0.34377,11.00079,16.98,2.27,2.6,2.0
1758089475.22388,1758089465.07151,0.0,0.0,0.0,-31.28349,17.87628,6.58902,15.69,1.69,0.07,2.0
1758089475.2403,1758089465.08151,0.0,0.0,0.0,-33.74722,28.99167,0.22918,15.69,1.69,0.07,2.0
1758089475.25698,1758089465.09151,0.0,0.0,0.0,-34.72124,40.68,-7.73493,11.17,-0.63,-2.04,2.0
1758089475.25823,1758089465.10151,0.0,0.0,0.0,-34.77854,49.27437,-19.25138,11.17,-0.63,-2.04,2.0
1758089475.27333,1758089465.11151,0.0,0.0,0.0,-34.43476,60.33246,-26.18417,8.34,-2.0,-1.91,2.0
1758089475.27605,1758089465.12151,0.0,0.0,0.0,-33.9764,62.22322,-30.30947,7.87,-2.04,-1.46,2.0
1758089475.2917,1758089465.13151,0.0,0.0,0.0,-34.77854,63.88479,-33.40344,7.87,-2.04,-1.46,2.0
1758089475.29332,1758089465.14151,0.0,0.0,0.0,-33.05967,55.6915,-31.51268,8.47,-1.4,-0.07,2.0
1758089475.31076,1758089465.15151,0.0,0.0,0.0,-30.19488,43.83128,-27.78845,8.47,-1.4,-0.07,2.0
1758089475.3137,1758089465.16151,0.0,0.0,0.0,-26.35606,31.97105,-23.54857,9.66,-0.7,1.62,2.0
1758089475.33315,1758089465.17151,0.0,0.0,0.0,-20.97026,21.60051,-18.79302,9.66,-0.7,1.62,2.0
1758089475.33433,1758089465.18151,0.0,0.0,0.0,-12.14671,15.0115,-12.37589,11.6,-0.31,1.88,2.0
1758089475.35011,1758089465.19151,0.0,0.0,0.0,-7.39116,13.17803,-9.91217,12.25,0.14,2.23,2.0
1758089475.3687,1758089465.20151,0.0,0.0,0.0,-3.49504,8.99544,-8.25059,12.25,0.14,2.23,2.0
1758089475.39921,1758089465.21151,0.0,0.0,0.0,-1.03132,3.38045,-7.84952,9.89,0.45,2.09,2.0
1758089475.40071,1758089465.22151,0.0,0.0,0.0,-0.45837,-2.97938,-8.76626,9.89,0.45,2.09,2.0
1758089475.40349,1758089465.23151,0.0,0.0,0.0,-1.66158,-7.04738,-10.8289,8.19,0.59,1.83,2.0
1758089475.40407,1758089465.24151,0.0,0.0,0.0,-3.09397,-9.4538,-12.49048,8.19,0.59,1.83,2.0
1758089475.40687,1758089465.25151,0.0,0.0,0.0,-4.81285,-9.74028,-13.86558,7.81,0.67,2.08,2.0
1758089475.42341,1758089465.26151,0.0,0.0,0.0,-7.96411,-7.21927,-14.38124,8.52,0.86,2.21,2.0
1758089475.42436,1758089465.27151,0.0,0.0,0.0,-10.08406,-4.29718,-13.46451,8.52,0.86,2.21,2.0
1758089475.43936,1758089465.28151,0.0,0.0,0.0,-12.37589,-0.0573,-11.74564,9.57,1.11,2.29,2.0
1758089475.44393,1758089465.29151,0.0,0.0,0.0,-14.20935,4.58366,-9.74028,9.57,1.11,2.29,2.0
1758089475.4594,1758089465.30151,0.0,0.0,0.0,-15.75634,11.57375,-7.04738,10.28,1.2,2.07,2.0
1758089475.47811,1758089465.31151,0.0,0.0,0.0,-16.55848,15.75634,-5.72958,10.28,1.2,2.07,2.0
1758089475.47921,1758089465.32151,0.0,0.0,0.0,-16.10011,20.11082,-4.92744,10.2,1.16,1.84,2.0
1758089475.49436,1758089465.33151,0.0,0.0,0.0,-14.9542,25.49662,-4.1253,10.2,1.16,1.84,2.0
1758089475.4964,1758089465.34151,0.0,0.0,0.0,-13.98017,28.59059,-4.35448,10.04,1.01,1.75,2.0
1758089475.51354,1758089465.35151,0.0,0.0,0.0,-13.23533,31.79916,-5.4431,9.85,0.91,1.6,2.0
1758089475.51545,1758089465.36151,0.0,0.0,0.0,-12.83425,34.09099,-6.35983,9.85,0.91,1.6,2.0
1758089475.53125,1758089465.37151,0.0,0.0,0.0,-12.37589,35.2942,-7.10468,9.52,0.92,1.43,2.0
1758089475.53318,1758089465.38151,0.0,0.0,0.0,-12.54778,36.32552,-7.10468,9.52,0.92,1.43,2.0
1758089475.5518,1758089465.39151,0.0,0.0,0.0,-13.06344,37.47144,-6.53172,9.42,0.96,1.35,2.0
1758089475.55386,1758089465.40151,0.0,0.0,0.0,-13.69369,38.38818,-5.84417,9.42,0.96,1.35,2.0
1758089475.56978,1758089465.41151,0.0,0.0,0.0,-15.29797,38.56006,-4.29718,9.38,1.0,1.32,2.0
1758089475.57381,1758089465.42151,0.0,0.0,0.0,-16.50119,38.56006,-3.26586,9.26,1.01,1.36,2.0
1758089475.59125,1758089465.43151,0.0,0.0,0.0,-17.76169,37.92981,-2.29183,9.26,1.01,1.36,2.0
1758089475.59327,1758089465.44151,0.0,0.0,0.0,-19.25138,36.6693,-1.3178,9.14,1.06,1.37,2.0
1758089475.60939,1758089465.45151,0.0,0.0,0.0,-21.37133,34.0337,-0.45837,9.14,1.06,1.37,2.0
1758089475.62648,1758089465.46151,0.0,0.0,0.0,-22.74642,31.79916,-0.11459,9.06,1.14,1.42,2.0
1758089475.62918,1758089465.47151,0.0,0.0,0.0,-24.35071,29.27814,-0.0573,9.06,1.14,1.42,2.0
1758089475.64446,1758089465.48151,0.0,0.0,0.0,-25.72581,26.12688,-0.34377,9.01,1.29,1.38,2.0
1758089475.64565,1758089465.49151,0.0,0.0,0.0,-27.67386,21.25674,-0.57296,9.08,1.29,1.52,2.0
1758089475.66406,1758089465.50151,0.0,0.0,0.0,-28.70519,16.50119,-1.14592,9.08,1.29,1.52,2.0
1758089475.67685,1758089465.51151,0.0,0.0,0.0,-29.62192,11.74564,-1.71887,9.01,1.21,1.29,2.0
1758089475.67929,1758089465.52151,0.0,0.0,0.0,-30.99702,8.02141,-2.06265,9.01,1.21,1.29,2.0
1758089475.69521,1758089465.53151,0.0,0.0,0.0,-31.51268,3.09397,-1.71887,9.26,1.16,1.32,2.0
1758089475.69741,1758089465.54151,0.0,0.0,0.0,-32.48671,-0.45837,-1.60428,9.26,1.16,1.32,2.0
1758089475.71278,1758089465.55151,0.0,0.0,0.0,-33.80451,-3.38045,-1.71887,9.33,1.12,1.39,2.0
1758089475.71369,1758089465.56151,0.0,0.0,0.0,-36.32552,-5.21392,-2.40642,9.33,1.12,1.39,2.0
1758089475.72857,1758089465.57151,0.0,0.0,0.0,-38.21629,-6.87549,-3.09397,9.47,1.13,1.44,2.0
1758089475.74686,1758089465.58151,0.0,0.0,0.0,-40.10705,-6.70361,-2.97938,9.36,1.12,1.25,2.0
1758089475.74809,1758089465.59151,0.0,0.0,0.0,-41.88322,-4.98473,-2.86479,9.36,1.12,1.25,2.0
1758089475.76352,1758089465.60151,0.0,0.0,0.0,-43.65939,-4.18259,-1.77617,9.19,1.04,1.24,2.0
1758089475.76786,1758089465.61151,0.0,0.0,0.0,-44.46153,-3.60963,-0.74485,9.19,1.04,1.24,2.0
1758089475.78352,1758089465.62151,0.0,0.0,0.0,-45.14908,-2.6929,0.11459,9.07,0.78,1.16,2.0
1758089475.78467,1758089465.63151,0.0,0.0,0.0,-45.72203,-1.3751,1.14592,9.07,0.78,1.16,2.0
1758089475.80056,1758089465.64151,0.0,0.0,0.0,-47.26902,-0.74485,2.06265,9.12,0.6,0.91,2.0
1758089475.81806,1758089465.65151,0.0,0.0,0.0,-48.8733,-1.43239,2.63561,8.99,0.76,0.6,2.0
1758089475.81885,1758089465.66151,0.0,0.0,0.0,-51.22243,-2.57831,2.97938,8.99,0.76,0.6,2.0
1758089475.83534,1758089465.67151,0.0,0.0,0.0,-54.25911,-3.83882,2.97938,9.06,1.02,0.4,2.0
1758089475.83814,1758089465.68151,0.0,0.0,0.0,-59.81679,-9.74028,3.03668,9.06,1.02,0.4,2.0
1758089475.85386,1758089465.69151,0.0,0.0,0.0,-63.25455,-13.46451,2.6929,9.08,1.11,0.21,2.0
1758089475.8548,1758089465.70151,0.0,0.0,0.0,-67.03606,-18.85031,2.40642,9.08,1.11,0.21,2.0
1758089475.87142,1758089465.71151,0.0,0.0,0.0,-70.30193,-23.26209,1.77617,9.14,1.12,-0.08,2.0
1758089475.87313,1758089465.72151,0.0,0.0,0.0,-73.96885,-35.75257,-0.74485,8.74,1.17,-0.66,2.0
1758089475.88885,1758089465.73151,0.0,0.0,0.0,-74.54182,-43.83128,0.11459,8.74,1.17,-0.66,2.0
1758089475.89277,1758089465.74151,0.0,0.0,0.0,-74.94289,-48.41494,-1.20321,9.1,1.0,-0.84,2.0
1758089475.91119,1758089465.75151,0.0,0.0,0.0,-73.2813,-51.90998,-1.94806,9.1,1.0,-0.84,2.0
1758089475.92661,1758089465.76151,0.0,0.0,0.0,-72.19269,-50.82136,-2.06265,9.51,0.76,-1.03,2.0
1758089475.92731,1758089465.77151,0.0,0.0,0.0,-72.42187,-46.35228,1.71887,9.51,0.76,-1.03,2.0
1758089475.94355,1758089465.78151,0.0,0.0,0.0,-73.05212,-34.32018,0.17189,10.63,0.71,0.13,2.0
1758089475.9448,1758089465.79151,0.0,0.0,0.0,-79.12547,-28.99167,-5.21392,10.63,0.71,0.27,2.0
1758089475.96143,1758089465.80151,0.0,0.0,0.0,-82.56322,-27.2155,-6.7609,10.45,0.83,0.27,2.0
1758089475.96316,1758089465.81151,0.0,0.0,0.0,-84.79775,-28.01764,-8.136,9.96,1.02,0.18,2.0
1758089475.97893,1758089465.82151,0.0,0.0,0.0,-87.43336,-27.10091,-9.28192,9.96,1.02,0.18,2.0
1758089475.9955,1758089465.83151,0.0,0.0,0.0,-88.29281,-17.36062,-7.96411,10.5,1.06,-0.31,2.0
1758089475.99817,1758089465.84151,0.0,0.0,0.0,-88.06361,-12.37589,-5.72958,10.5,1.06,-0.31,2.0
1758089476.0137,1758089465.85151,0.0,0.0,0.0,-86.17285,-10.8862,-2.40642,10.61,0.92,0.45,2.0
1758089476.01511,1758089465.86151,0.0,0.0,0.0,-82.7924,-12.2613,0.74485,10.61,0.92,0.45,2.0
1758089476.03146,1758089465.87151,0.0,0.0,0.0,-75.57314,-23.0329,3.95341,10.6,0.35,1.49,2.0
1758089476.03323,1758089465.88151,0.0,0.0,0.0,-69.78626,-35.92446,3.66693,10.92,-0.66,2.0,2.0
1758089476.0489,1758089465.89151,0.0,0.0,0.0,-63.31184,-47.15443,1.60428,10.92,-0.66,2.0,2.0
1758089476.05386,1758089465.90151,0.0,0.0,0.0,-56.32175,-53.68615,-2.06265,13.25,-2.02,1.82,2.0
1758089476.07169,1758089465.91151,0.0,0.0,0.0,-43.02913,-54.48829,-9.28192,13.25,-2.02,1.82,2.0
1758089476.0729,1758089465.92151,0.0,0.0,0.0,-33.68992,-52.36834,-12.83425,15.33,-3.98,1.45,2.0
1758089476.08796,1758089465.93151,0.0,0.0,0.0,-25.7831,-48.58683,-14.03747,15.33,-3.98,1.45,2.0
1758089476.1037,1758089465.94151,0.0,0.0,0.0,-18.16276,-43.25832,-10.59972,14.03,-3.93,0.6,2.0
1758089476.10881,1758089465.95151,0.0,0.0,0.0,-16.04282,-38.38818,-5.72958,11.01,-1.45,-0.41,2.0
1758089476.12373,1758089465.96151,0.0,0.0,0.0,-15.75634,-37.24226,-0.51566,11.01,-1.45,-0.41,2.0
1758089476.12884,1758089465.97151,0.0,0.0,0.0,-17.76169,-36.84119,3.66693,8.97,0.15,0.11,2.0
1758089476.1456,1758089465.98151,0.0,0.0,0.0,-23.26209,-35.58068,7.16197,8.97,0.15,0.11,2.0
1758089476.14887,1758089465.99151,0.0,0.0,0.0,-28.24682,-35.06502,7.16197,8.88,0.63,1.37,2.0
1758089476.16365,1758089466.00151,0.0,0.0,0.0,-33.74722,-34.37747,5.4431,8.88,0.63,1.37,2.0
1758089476.16886,1758089466.01151,0.0,0.0,0.0,-38.78925,-33.05967,2.6929,9.3,0.45,2.41,2.0
1758089476.18372,1758089466.02151,0.0,0.0,0.0,-44.9199,-31.2262,-2.11994,9.77,0.45,2.67,2.0
1758089476.1857,1758089466.03151,0.0,0.0,0.0,-47.67009,-29.73651,-4.92744,9.77,-0.2,2.67,2.0
1758089476.20152,1758089466.04151,0.0,0.0,0.0,-49.61814,-26.69983,-6.35983,10.26,-0.99,2.01,2.0
1758089476.20269,1758089466.05151,0.0,0.0,0.0,-50.82136,-22.28806,-6.53172,10.26,-0.99,2.01,2.0
1758089476.21774,1758089466.06151,0.0,0.0,0.0,-50.13381,-15.87093,-4.0107,10.56,-1.61,1.2,2.0
1758089476.23358,1758089466.07151,0.0,0.0,0.0,-48.30034,-11.63104,-0.97403,10.56,-1.61,1.2,2.0
1758089476.23801,1758089466.08151,0.0,0.0,0.0,-45.55015,-6.58902,2.63561,10.22,-1.77,0.77,2.0
1758089476.2538,1758089466.09151,0.0,0.0,0.0,-42.39888,-0.22918,6.07335,10.22,-1.77,0.77,2.0
1758089476.25811,1758089466.10151,0.0,0.0,0.0,-37.64333,10.71431,9.85487,10.25,-1.8,0.5,2.0
1758089476.27395,1758089466.11151,0.0,0.0,0.0,-33.86181,19.53786,11.22997,10.39,-1.78,0.33,2.0
1758089476.27575,1758089466.12151,0.0,0.0,0.0,-31.56997,26.24147,11.63104,10.39,-1.78,0.33,2.0
1758089476.29182,1758089466.13151,0.0,0.0,0.0,-30.59595,28.76248,10.59972,10.06,-1.81,0.5,2.0
1758089476.29273,1758089466.14151,0.0,0.0,0.0,-31.45539,30.19488,9.68299,10.06,-1.81,0.5,2.0
1758089476.30801,1758089466.15151,0.0,0.0,0.0,-31.62727,33.46074,8.76626,10.21,-1.55,0.07,2.0
1758089476.32401,1758089466.16151,0.0,0.0,0.0,-31.62727,35.69527,8.02141,10.21,-1.55,0.07,2.0
1758089476.32772,1758089466.17151,0.0,0.0,0.0,-32.42941,34.72124,7.10468,10.39,-1.33,0.13,2.0
1758089476.34274,1758089466.18151,0.0,0.0,0.0,-33.63263,35.98175,5.90147,10.18,-1.01,0.0,2.0
1758089476.34397,1758089466.19151,0.0,0.0,0.0,-34.26288,37.98711,5.90147,10.18,-1.01,0.0,2.0
1758089476.3587,1758089466.20151,0.0,0.0,0.0,-35.40879,35.75257,5.09932,9.87,-0.8,0.0,2.0
1758089476.36155,1758089466.21151,0.0,0.0,0.0,-36.95578,35.75257,3.95341,9.87,-0.8,0.0,2.0
1758089476.37736,1758089466.22151,0.0,0.0,0.0,-37.52874,37.29956,3.38045,9.87,-0.67,-0.11,2.0
1758089476.39279,1758089466.23151,0.0,0.0,0.0,-37.35685,38.1017,2.7502,9.87,-0.67,-0.11,2.0
1758089476.39402,1758089466.24151,0.0,0.0,0.0,-36.84119,38.21629,2.06265,9.79,-0.76,-0.11,2.0
1758089476.41358,1758089466.25151,0.0,0.0,0.0,-35.63798,38.56006,0.80214,9.71,-0.97,-0.05,2.0
1758089476.41477,1758089466.26151,0.0,0.0,0.0,-34.60666,39.19032,-0.17189,9.71,-0.97,-0.05,2.0
1758089476.43296,1758089466.27151,0.0,0.0,0.0,-33.80451,39.07573,-1.3178,9.6,-1.14,-0.02,2.0
1758089476.46024,1758089466.28151,0.0,0.0,0.0,-32.71589,38.56006,-2.40642,9.6,-1.14,-0.02,2.0
1758089476.46087,1758089466.29151,0.0,0.0,0.0,-31.39809,33.68992,-4.29718,9.27,-1.22,0.03,2.0
1758089476.46371,1758089466.30151,0.0,0.0,0.0,-29.8511,28.07493,-4.92744,9.27,-1.22,0.03,2.0
1758089476.46433,1758089466.31151,0.0,0.0,0.0,-27.44468,22.40265,-4.87014,8.98,-1.34,-0.04,2.0
1758089476.47189,1758089466.32151,0.0,0.0,0.0,-24.17882,18.44924,-4.29718,8.98,-1.34,-0.04,2.0
1758089476.48905,1758089466.33151,0.0,0.0,0.0,-17.76169,19.25138,-2.7502,9.32,-1.68,-0.24,2.0
1758089476.50638,1758089466.34151,0.0,0.0,0.0,-13.12073,21.14215,-1.66158,9.57,-2.1,-0.31,2.0
1758089476.50914,1758089466.35151,0.0,0.0,0.0,-8.136,22.00158,-0.51566,9.57,-2.1,-0.31,2.0
1758089476.52639,1758089466.36151,0.0,0.0,0.0,-0.97403,21.60051,0.45837,9.21,-2.31,0.03,2.0
1758089476.53434,1758089466.37151,0.0,0.0,0.0,3.89611,21.37133,0.68755,9.21,-2.31,0.03,2.0
1758089476.56078,1758089466.38151,0.0,0.0,0.0,8.36518,21.25674,0.17189,9.12,-2.29,-0.14,2.0
1758089476.56348,1758089466.39151,0.0,0.0,0.0,11.86023,20.22541,-0.17189,9.12,-2.29,-0.14,2.0
1758089476.56489,1758089466.40151,0.0,0.0,0.0,15.12609,14.9542,-1.20321,8.97,-2.17,-0.47,2.0
1758089476.57271,1758089466.41151,0.0,0.0,0.0,16.04282,9.96947,-2.11994,8.71,-1.91,-0.42,2.0
1758089476.57316,1758089466.42151,0.0,0.0,0.0,15.41257,7.84952,-5.21392,8.71,-1.91,-0.42,2.0
1758089476.58872,1758089466.43151,0.0,0.0,0.0,15.35527,13.5218,-8.47978,9.46,-1.61,-1.17,2.0
1758089476.59327,1758089466.44151,0.0,0.0,0.0,17.93358,38.15899,-8.59437,9.46,-1.61,-1.17,2.0
1758089476.61228,1758089466.45151,0.0,0.0,0.0,18.44924,57.58226,-9.4538,11.56,-1.46,-0.02,2.0
1758089476.63359,1758089466.46151,0.0,0.0,0.0,18.62113,67.72362,-12.49048,11.56,-1.46,-0.02,2.0
1758089476.63416,1758089466.47151,0.0,0.0,0.0,20.22541,43.88857,-16.95955,9.67,-1.38,1.3,2.0
1758089476.63545,1758089466.48151,0.0,0.0,0.0,26.69983,-15.58445,-9.5684,5.98,-1.56,-0.06,2.0
1758089476.65192,1758089466.49151,0.0,0.0,0.0,33.11696,-27.73116,-0.74485,5.98,-1.56,-0.06,2.0
1758089476.65307,1758089466.50151,0.0,0.0,0.0,34.0337,-18.85031,2.57831,11.5,-2.23,-2.25,2.0
1758089476.66812,1758089466.51151,0.0,0.0,0.0,33.63263,-9.96947,3.32316,11.5,-2.23,-2.25,2.0
1758089476.68402,1758089466.52151,0.0,0.0,0.0,32.20023,-11.11538,4.58366,10.89,-2.15,-1.9,2.0
1758089476.6859,1758089466.53151,0.0,0.0,0.0,29.27814,-12.43318,3.60963,10.89,-2.15,-1.9,2.0
1758089476.70089,1758089466.54151,0.0,0.0,0.0,25.26744,-11.51645,1.03132,9.98,-1.95,1.28,2.0
1758089476.7117,1758089466.55151,0.0,0.0,0.0,21.14215,-11.34457,-4.69825,9.98,-1.95,1.28,2.0
1758089476.71219,1758089466.56151,0.0,0.0,0.0,15.92823,-13.00614,-7.50575,9.99,-1.4,1.0,2.0
1758089476.72889,1758089466.57151,0.0,0.0,0.0,13.34992,-14.38124,-8.99544,9.83,-0.93,0.99,2.0
1758089476.73433,1758089466.58151,0.0,0.0,0.0,11.57375,-16.50119,-8.59437,9.83,-0.93,0.99,2.0
1758089476.75154,1758089466.59151,0.0,0.0,0.0,9.62569,-17.47521,-7.73493,9.95,-0.62,0.8,2.0
1758089476.75299,1758089466.60151,0.0,0.0,0.0,8.47978,-21.88699,-4.81285,9.95,-0.62,0.8,2.0
1758089476.77537,1758089466.61151,0.0,0.0,0.0,6.41713,-29.10626,-0.97403,10.8,-0.47,2.19,2.0
1758089476.77897,1758089466.62151,0.0,0.0,0.0,4.52637,-35.06502,4.87014,10.8,-0.47,2.19,2.0
1758089476.79387,1758089466.63151,0.0,0.0,0.0,-0.0573,-31.16891,12.83425,13.08,-0.15,4.02,2.0
1758089476.79594,1758089466.64151,0.0,0.0,0.0,-4.69825,-21.7724,14.38124,15.77,0.38,3.27,2.0
1758089476.81348,1758089466.65151,0.0,0.0,0.0,-9.91217,-14.15206,12.43318,15.77,0.38,3.27,2.0
1758089476.81615,1758089466.66151,0.0,0.0,0.0,-14.38124,-7.79223,7.62034,13.53,0.26,2.08,2.0
1758089476.8312,1758089466.67151,0.0,0.0,0.0,-18.44924,-2.23454,-2.86479,13.53,0.26,2.08,2.0
1758089476.8324,1758089466.68151,0.0,0.0,0.0,-19.19409,-1.08862,-9.33921,9.9,-0.51,0.64,2.0
1758089476.84735,1758089466.69151,0.0,0.0,0.0,-18.50654,-0.80214,-14.09476,9.9,-0.51,0.64,2.0
1758089476.86322,1758089466.70151,0.0,0.0,0.0,-17.18874,0.74485,-17.18874,8.14,-0.74,-0.01,2.0
1758089476.86413,1758089466.71151,0.0,0.0,0.0,-14.15206,2.00535,-18.50654,8.32,-0.64,0.39,2.0
1758089476.87917,1758089466.72151,0.0,0.0,0.0,-10.94349,0.0,-17.01685,8.32,-0.64,0.39,2.0
1758089476.88283,1758089466.73151,0.0,0.0,0.0,-7.21927,-1.60428,-13.80828,8.6,-0.57,1.16,2.0
1758089476.89793,1758089466.74151,0.0,0.0,0.0,-3.55234,-3.09397,-9.62569,8.6,-0.57,1.16,2.0
1758089476.91393,1758089466.75151,0.0,0.0,0.0,0.68755,-7.04738,-3.83882,8.83,-0.36,2.19,2.0
1758089476.91593,1758089466.76151,0.0,0.0,0.0,3.20856,-9.96947,-0.74485,8.83,-0.36,2.19,2.0
1758089476.93363,1758089466.77151,0.0,0.0,0.0,4.87014,-11.34457,1.3178,8.73,0.19,2.6,2.0
1758089476.93415,1758089466.78151,0.0,0.0,0.0,5.09932,-11.17268,2.7502,8.73,0.19,2.6,2.0
1758089476.94919,1758089466.79151,0.0,0.0,0.0,3.66693,-9.33921,2.34913,9.31,0.99,2.64,2.0
1758089476.95332,1758089466.80151,0.0,0.0,0.0,0.45837,-7.79223,2.6929,9.57,1.8,2.43,2.0
1758089476.96919,1758089466.81151,0.0,0.0,0.0,-2.46372,-6.13065,-0.34377,9.57,1.8,2.43,2.0
1758089476.9729,1758089466.82151,0.0,0.0,0.0,-7.84952,-1.77617,-1.77617,10.07,2.08,2.38,2.0
1758089476.98902,1758089466.83151,0.0,0.0,0.0,-11.45916,1.08862,-3.95341,10.07,2.08,2.38,2.0
1758089476.99316,1758089466.84151,0.0,0.0,0.0,-14.38124,4.23989,-5.61499,10.25,1.87,1.8,2.0
1758089477.01399,1758089466.85151,0.0,0.0,0.0,-16.50119,7.67763,-7.16197,10.25,1.87,1.8,2.0
1758089477.01599,1758089466.86151,0.0,0.0,0.0,-18.22006,11.63104,-9.11003,10.34,1.39,1.57,2.0
1758089477.03281,1758089466.87151,0.0,0.0,0.0,-18.44924,14.09476,-10.08406,10.16,1.05,1.34,2.0
1758089477.03396,1758089466.88151,0.0,0.0,0.0,-17.81899,16.55848,-10.37054,10.16,1.05,1.34,2.0
1758089477.04888,1758089466.89151,0.0,0.0,0.0,-16.50119,19.36597,-10.37054,10.18,0.94,1.27,2.0
1758089477.09611,1758089466.90151,0.0,0.0,0.0,-14.09476,22.57454,-9.91217,10.18,0.94,1.27,2.0
1758089477.09843,1758089466.91151,0.0,0.0,0.0,-12.60507,23.94964,-9.33921,10.14,0.9,1.36,2.0
1758089477.10069,1758089466.92151,0.0,0.0,0.0,-11.45916,25.7831,-8.70896,10.14,0.9,1.36,2.0
1758089477.10111,1758089466.93151,0.0,0.0,0.0,-10.8289,27.44468,-7.96411,10.02,0.89,1.21,2.0
1758089477.10382,1758089466.94151,0.0,0.0,0.0,-11.11538,29.39274,-7.10468,9.74,0.85,1.25,2.0
1758089477.10567,1758089466.95151,0.0,0.0,0.0,-12.08941,30.36677,-6.87549,9.74,0.85,1.25,2.0
1758089477.12233,1758089466.96151,0.0,0.0,0.0,-13.40721,30.82513,-6.41713,9.48,0.89,1.21,2.0
1758089477.12828,1758089466.97151,0.0,0.0,0.0,-15.06879,30.13758,-5.84417,9.48,0.89,1.21,2.0
1758089477.14385,1758089466.98151,0.0,0.0,0.0,-18.22006,27.67386,-5.78687,9.29,0.95,1.31,2.0
1758089477.14504,1758089466.99151,0.0,0.0,0.0,-20.45459,25.21014,-5.95876,9.29,0.95,1.31,2.0
1758089477.16185,1758089467.00151,0.0,0.0,0.0,-22.51724,23.0902,-6.41713,9.16,1.05,1.21,2.0
1758089477.16434,1758089467.01151,0.0,0.0,0.0,-25.38203,19.99623,-6.87549,9.16,1.05,1.21,2.0
1758089477.18176,1758089467.02151,0.0,0.0,0.0,-26.98631,17.93358,-7.10468,9.11,1.1,1.18,2.0
1758089477.19174,1758089467.03151,0.0,0.0,0.0,-27.73116,15.0115,-7.10468,8.91,1.1,1.12,2.0
1758089477.19298,1758089467.04151,0.0,0.0,0.0,-28.13223,11.22997,-6.99009,8.91,1.1,1.12,2.0
1758089477.20908,1758089467.05151,0.0,0.0,0.0,-28.01764,5.15662,-5.72958,8.75,0.93,1.04,2.0
1758089477.21309,1758089467.06151,0.0,0.0,0.0,-27.61657,0.74485,-4.35448,8.75,0.93,1.04,2.0
1758089477.22833,1758089467.07151,0.0,0.0,0.0,-27.38738,-2.40642,-3.55234,8.85,0.67,0.82,2.0
1758089477.24489,1758089467.08151,0.0,0.0,0.0,-26.98631,-5.78687,-2.29183,8.85,0.67,0.82,2.0
1758089477.2516,1758089467.09151,0.0,0.0,0.0,-27.33009,-8.25059,-1.03132,9.05,0.47,0.8,2.0
1758089477.25226,1758089467.10151,0.0,0.0,0.0,-28.24682,-6.7609,-0.17189,9.65,0.47,0.93,2.0
1758089477.26806,1758089467.11151,0.0,0.0,0.0,-29.73651,-6.13065,0.40107,9.65,0.47,0.93,2.0
1758089477.28491,1758089467.12151,0.0,0.0,0.0,-32.20023,-5.95876,0.45837,9.74,0.69,1.13,2.0
1758089477.28924,1758089467.13151,0.0,0.0,0.0,-37.24226,-8.70896,0.34377,9.74,0.69,1.13,2.0
1758089477.30516,1758089467.14151,0.0,0.0,0.0,-41.13837,-13.40721,-0.34377,9.39,0.99,1.02,2.0
1758089477.31046,1758089467.15151,0.0,0.0,0.0,-45.43555,-19.42327,-1.3178,9.39,0.99,1.02,2.0
1758089477.32592,1758089467.16151,0.0,0.0,0.0,-48.9879,-27.33009,-2.92208,8.71,1.26,0.24,2.0
1758089477.33301,1758089467.17151,0.0,0.0,0.0,-51.90998,-46.69606,-3.38045,8.04,1.45,-0.53,2.0
1758089477.33409,1758089467.18151,0.0,0.0,0.0,-53.17049,-52.25375,-4.98473,8.04,1.45,-0.53,2.0
1758089477.35293,1758089467.19151,0.0,0.0,0.0,-53.11319,-54.94666,-3.66693,9.25,1.37,-0.61,2.0
1758089477.35412,1758089467.20151,0.0,0.0,0.0,-52.76942,-51.10783,-4.29718,9.25,1.37,-0.61,2.0
1758089477.36904,1758089467.21151,0.0,0.0,0.0,-51.27972,-43.02913,1.94806,10.13,1.11,-0.22,2.0
1758089477.37295,1758089467.22151,0.0,0.0,0.0,-56.03527,-36.6693,-3.89611,10.13,1.11,-0.22,2.0
1758089477.38811,1758089467.23151,0.0,0.0,0.0,-59.35843,-25.26744,-5.72958,11.49,1.18,0.83,2.0
1758089477.40813,1758089467.24151,0.0,0.0,0.0,-63.77021,-24.98096,-8.136,11.49,1.18,0.83,2.0
1758089477.41329,1758089467.25151,0.0,0.0,0.0,-65.08801,-26.01229,-9.96947,10.54,1.34,0.46,2.0
1758089477.41398,1758089467.26151,0.0,0.0,0.0,-64.57235,-22.23076,-8.70896,10.51,1.23,0.03,2.0
1758089477.43274,1758089467.27151,0.0,0.0,0.0,-63.13995,-13.34992,-6.99009,10.51,1.23,0.03,2.0
1758089477.4339,1758089467.28151,0.0,0.0,0.0,-59.12925,-3.38045,-1.94806,11.27,0.65,-0.27,2.0
1758089477.44915,1758089467.29151,0.0,0.0,0.0,-55.57691,-0.68755,1.77617,11.27,0.65,-0.27,2.0
1758089477.45267,1758089467.30151,0.0,0.0,0.0,-51.45161,1.3178,5.55769,10.53,-0.06,0.27,2.0
1758089477.46812,1758089467.31151,0.0,0.0,0.0,-47.15443,2.46372,8.30789,10.53,-0.06,0.27,2.0
1758089477.48403,1758089467.32151,0.0,0.0,0.0,-41.31026,-0.34377,10.08406,10.45,-0.52,0.23,2.0
1758089477.48527,1758089467.33151,0.0,0.0,0.0,-37.35685,-4.87014,10.37054,10.38,-0.75,0.38,2.0
1758089477.50313,1758089467.34151,0.0,0.0,0.0,-33.68992,-11.28727,9.74028,10.38,-0.75,0.38,2.0
1758089477.50396,1758089467.35151,0.0,0.0,0.0,-30.19488,-19.07949,8.42248,10.9,-0.88,0.56,2.0
1758089477.52022,1758089467.36151,0.0,0.0,0.0,-25.72581,-32.6013,5.09932,10.9,-0.88,0.56,2.0
1758089477.52197,1758089467.37151,0.0,0.0,0.0,-22.97561,-39.07573,2.92208,11.15,-0.61,0.64,2.0
1758089477.53818,1758089467.38151,0.0,0.0,0.0,-19.88164,-41.13837,0.97403,11.15,-0.61,0.64,2.0
1758089477.55747,1758089467.39151,0.0,0.0,0.0,-16.55848,-40.96649,-0.74485,12.25,-0.28,0.72,2.0
1758089477.55932,1758089467.40151,0.0,0.0,0.0,-12.204,-37.98711,-1.3178,12.47,-0.53,0.56,2.0
1758089477.57417,1758089467.41151,0.0,0.0,0.0,-10.02676,-35.00772,-0.74485,12.47,-0.53,0.56,2.0
1758089477.57535,1758089467.42151,0.0,0.0,0.0,-8.30789,-32.88778,0.68755,11.3,-0.74,0.0,2.0
1758089477.5932,1758089467.43151,0.0,0.0,0.0,-7.33386,-28.76248,4.23989,11.3,-0.74,0.0,2.0
1758089477.59438,1758089467.44151,0.0,0.0,0.0,-7.10468,-26.64254,6.53172,9.96,-0.56,-0.19,2.0
1758089477.61349,1758089467.45151,0.0,0.0,0.0,-7.67763,-25.72581,8.36518,9.96,-0.56,-0.19,2.0
1758089477.61436,1758089467.46151,0.0,0.0,0.0,-8.47978,-25.8404,9.05273,9.04,-0.33,0.54,2.0
1758089477.63342,1758089467.47151,0.0,0.0,0.0,-11.57375,-27.84575,7.96411,8.7,-0.33,1.72,2.0
1758089477.63519,1758089467.48151,0.0,0.0,0.0,-14.72501,-29.62192,6.24524,8.7,-0.1,1.72,2.0
1758089477.65207,1758089467.49151,0.0,0.0,0.0,-19.07949,-30.65324,4.1253,8.99,0.1,2.77,2.0
1758089477.6538,1758089467.50151,0.0,0.0,0.0,-24.12152,-30.36677,2.11994,8.99,0.1,2.77,2.0
1758089477.66925,1758089467.51151,0.0,0.0,0.0,-32.20023,-26.52795,0.0573,9.85,0.02,2.98,2.0
1758089477.67277,1758089467.52151,0.0,0.0,0.0,-37.24226,-22.68913,-0.22918,9.85,0.02,2.98,2.0
1758089477.68828,1758089467.53151,0.0,0.0,0.0,-40.85189,-19.25138,0.0573,10.73,-0.38,2.12,2.0
1758089477.7042,1758089467.54151,0.0,0.0,0.0,-42.91454,-15.0115,1.03132,10.73,-0.38,2.12,2.0
1758089477.70542,1758089467.55151,0.0,0.0,0.0,-41.71133,-5.50039,3.95341,11.3,-1.0,1.21,2.0
1758089477.72093,1758089467.56151,0.0,0.0,0.0,-38.56006,2.29183,6.13065,11.67,-1.57,0.58,2.0
1758089477.72379,1758089467.57151,0.0,0.0,0.0,-34.32018,10.31324,7.79223,11.67,-1.57,0.58,2.0
1758089477.73926,1758089467.58151,0.0,0.0,0.0,-29.73651,19.07949,9.05273,11.23,-1.88,0.59,2.0
1758089477.74207,1758089467.59151,0.0,0.0,0.0,-24.92367,27.61657,9.5684,11.23,-1.88,0.59,2.0
1758089477.75823,1758089467.60151,0.0,0.0,0.0,-24.23611,30.53865,9.11003,10.29,-1.71,0.48,2.0
1758089477.77425,1758089467.61151,0.0,0.0,0.0,-24.57989,33.00237,8.47978,10.29,-1.71,0.48,2.0
1758089477.77634,1758089467.62151,0.0,0.0,0.0,-26.01229,35.92446,7.84952,10.09,-1.4,0.25,2.0
1758089477.79307,1758089467.63151,0.0,0.0,0.0,-27.04361,36.6693,7.67763,10.12,-1.18,0.33,2.0
1758089477.79504,1758089467.64151,0.0,0.0,0.0,-28.30412,37.35685,6.87549,10.12,-1.18,0.33,2.0
1758089477.81276,1758089467.65151,0.0,0.0,0.0,-29.9084,38.61736,5.61499,9.98,-0.92,0.19,2.0
1758089477.81385,1758089467.66151,0.0,0.0,0.0,-31.2262,41.13837,3.72423,9.98,-0.92,0.19,2.0
1758089477.83323,1758089467.67151,0.0,0.0,0.0,-31.62727,42.68536,2.57831,9.67,-0.75,0.12,2.0
1758089477.83837,1758089467.68151,0.0,0.0,0.0,-31.45539,43.65939,1.60428,9.67,-0.75,0.12,2.0
1758089477.85353,1758089467.69151,0.0,0.0,0.0,-30.82513,44.23235,0.74485,9.38,-0.7,0.17,2.0
1758089477.85564,1758089467.70151,0.0,0.0,0.0,-29.67921,44.11775,-0.11459,9.18,-0.75,0.29,2.0
1758089477.87223,1758089467.71151,0.0,0.0,0.0,-28.87707,42.85724,-0.68755,9.18,-0.75,0.29,2.0
1758089477.87353,1758089467.72151,0.0,0.0,0.0,-28.36141,40.33623,-1.08862,8.94,-0.88,0.34,2.0
1758089477.88835,1758089467.73151,0.0,0.0,0.0,-27.78845,36.38282,-1.66158,8.94,-0.88,0.34,2.0
1758089477.9046,1758089467.74151,0.0,0.0,0.0,-27.61657,29.96569,-2.92208,8.76,-1.04,0.32,2.0
1758089477.90658,1758089467.75151,0.0,0.0,0.0,-26.87172,26.87172,-3.60963,8.76,-1.04,0.32,2.0
1758089477.92136,1758089467.76151,0.0,0.0,0.0,-25.7831,21.6578,-3.89611,9.08,-1.25,0.33,2.0
1758089477.92441,1758089467.77151,0.0,0.0,0.0,-23.60586,14.66772,-3.89611,9.08,-1.25,0.33,2.0
1758089477.93941,1758089467.78151,0.0,0.0,0.0,-19.59516,9.05273,-3.66693,8.93,-1.54,0.29,2.0
1758089477.9437,1758089467.79151,0.0,0.0,0.0,-16.55848,8.0787,-3.60963,9.31,-1.84,-0.02,2.0
1758089477.96253,1758089467.80151,0.0,0.0,0.0,-13.5218,8.02141,-3.49504,9.31,-1.84,-0.02,2.0
1758089477.96404,1758089467.81151,0.0,0.0,0.0,-8.59437,6.99009,-3.09397,9.37,-2.03,0.19,2.0
1758089477.97966,1758089467.82151,0.0,0.0,0.0,-5.21392,5.78687,-2.6929,9.37,-2.03,0.19,2.0
1758089477.98368,1758089467.83151,0.0,0.0,0.0,-1.94806,5.55769,-2.34913,9.44,-2.08,0.18,2.0
1758089477.99963,1758089467.84151,0.0,0.0,0.0,1.20321,4.98473,-2.34913,9.44,-2.08,0.18,2.0
1758089478.00317,1758089467.85151,0.0,0.0,0.0,5.27121,2.11994,-2.40642,9.33,-2.0,-0.03,2.0
1758089478.01833,1758089467.86151,0.0,0.0,0.0,6.7609,-3.09397,-2.86479,8.87,-1.81,-0.33,2.0
1758089478.0343,1758089467.87151,0.0,0.0,0.0,7.04738,-10.31324,-2.11994,8.87,-1.81,-0.33,2.0
1758089478.03713,1758089467.88151,0.0,0.0,0.0,7.10468,-8.70896,-5.09932,8.96,-1.52,-0.71,2.0
1758089478.05237,1758089467.89151,0.0,0.0,0.0,10.37054,4.92744,-5.27121,8.96,-1.52,-0.71,2.0
1758089478.05364,1758089467.90151,0.0,0.0,0.0,11.34457,19.53786,-7.10468,10.48,-1.5,-0.1,2.0
1758089478.06834,1758089467.91151,0.0,0.0,0.0,12.08941,35.2369,-8.136,10.48,-1.5,-0.1,2.0
1758089478.07229,1758089467.92151,0.0,0.0,0.0,13.75099,36.61201,-11.91752,10.61,-1.51,1.12,2.0
1758089478.08764,1758089467.93151,0.0,0.0,0.0,17.99088,-13.80828,-12.77696,6.11,-1.66,0.61,2.0
1758089478.10338,1758089467.94151,0.0,0.0,0.0,24.17882,-47.78468,-4.1253,6.11,-1.66,0.61,2.0
1758089478.11365,1758089467.95151,0.0,0.0,0.0,27.96034,-44.23235,0.80214,9.59,-2.59,-1.77,2.0
1758089478.11407,1758089467.96151,0.0,0.0,0.0,30.59595,-31.91375,4.23989,9.59,-2.59,-1.77,2.0
1758089478.12312,1758089467.97151,0.0,0.0,0.0,30.82513,-21.37133,5.32851,11.61,-2.58,-1.62,2.0
1758089478.14018,1758089467.98151,0.0,0.0,0.0,29.96569,-20.85567,4.35448,11.61,-2.58,-1.62,2.0
1758089478.14304,1758089467.99151,0.0,0.0,0.0,28.24682,-17.76169,4.29718,9.77,-2.38,1.31,2.0
1758089478.15827,1758089468.00151,0.0,0.0,0.0,25.43933,-13.00614,1.83346,9.77,-2.38,1.31,2.0
1758089478.17474,1758089468.01151,0.0,0.0,0.0,21.88699,-8.99544,-1.77617,10.28,-1.64,1.2,2.0
1758089478.17834,1758089468.02151,0.0,0.0,0.0,19.36597,-6.35983,-3.49504,10.08,-0.64,0.16,2.0
1758089478.19367,1758089468.03151,0.0,0.0,0.0,17.47521,-1.43239,-4.29718,10.08,-0.64,0.16,2.0
1758089478.19867,1758089468.04151,0.0,0.0,0.0,15.24068,3.09397,-4.35448,11.02,-0.02,0.43,2.0
1758089478.21373,1758089468.05151,0.0,0.0,0.0,13.23533,2.57831,-4.1253,11.02,-0.02,0.43,2.0
1758089478.29408,1758089468.06151,0.0,0.0,0.0,11.22997,0.0,-2.6929,11.73,0.32,1.26,2.0
1758089478.29851,1758089468.07151,0.0,0.0,0.0,8.36518,-4.58366,-1.20321,11.73,0.32,1.26,2.0
1758089478.30319,1758089468.08151,0.0,0.0,0.0,1.94806,-3.55234,0.11459,13.19,0.28,2.96,2.0
1758089478.3036,1758089468.09151,0.0,0.0,0.0,-3.95341,0.74485,-0.85944,15.67,0.52,3.02,2.0
1758089478.30877,1758089468.10151,0.0,0.0,0.0,-9.91217,2.29183,-3.32316,15.67,0.52,3.02,2.0
1758089478.31368,1758089468.11151,0.0,0.0,0.0,-14.72501,1.20321,-7.04738,14.36,0.38,1.27,2.0
1758089478.33962,1758089468.12151,0.0,0.0,0.0,-19.42327,0.0573,-14.09476,14.36,0.38,1.27,2.0
1758089478.34389,1758089468.13151,0.0,0.0,0.0,-20.62648,-0.85944,-17.81899,10.95,-0.6,-0.01,2.0
1758089478.34453,1758089468.14151,0.0,0.0,0.0,-21.25674,0.34377,-22.05888,10.95,-0.6,-0.01,2.0
1758089478.34752,1758089468.15151,0.0,0.0,0.0,-20.22541,1.48969,-24.12152,9.0,-0.85,-0.09,2.0
1758089478.34923,1758089468.16151,0.0,0.0,0.0,-18.16276,2.29183,-25.15285,8.94,-0.67,0.73,2.0
1758089478.35147,1758089468.17151,0.0,0.0,0.0,-16.04282,0.80214,-23.49127,8.94,-0.67,0.73,2.0
1758089478.35584,1758089468.18151,0.0,0.0,0.0,-13.5791,-0.68755,-20.51189,9.11,-0.48,1.42,2.0
1758089478.35889,1758089468.19151,0.0,0.0,0.0,-10.71431,-2.29183,-16.84496,9.11,-0.48,1.42,2.0
1758089478.36112,1758089468.20151,0.0,0.0,0.0,-5.84417,-6.35983,-11.51645,8.87,-0.31,1.88,2.0
1758089478.36312,1758089468.21151,0.0,0.0,0.0,-1.94806,-9.4538,-8.47978,8.87,-0.31,1.88,2.0
1758089478.37847,1758089468.22151,0.0,0.0,0.0,1.71887,-11.97482,-6.24524,8.24,-0.17,1.99,2.0
1758089478.39444,1758089468.23151,0.0,0.0,0.0,6.24524,-13.06344,-3.38045,8.24,-0.17,1.99,2.0
1758089478.39561,1758089468.24151,0.0,0.0,0.0,7.44845,-11.00079,-2.11994,8.28,0.11,2.08,2.0
1758089478.41211,1758089468.25151,0.0,0.0,0.0,6.41713,-8.30789,-0.11459,8.72,0.74,2.04,2.0
1758089478.41327,1758089468.26151,0.0,0.0,0.0,5.95876,-6.24524,-0.74485,8.72,0.74,2.04,2.0
1758089478.42865,1758089468.27151,0.0,0.0,0.0,1.03132,-1.83346,-0.74485,9.55,1.34,1.97,2.0
1758089478.44553,1758089468.28151,0.0,0.0,0.0,-2.97938,1.03132,-2.7502,9.55,1.34,1.97,2.0
1758089478.44728,1758089468.29151,0.0,0.0,0.0,-7.04738,4.52637,-4.18259,9.98,1.86,1.57,2.0
1758089478.46329,1758089468.30151,0.0,0.0,0.0,-10.94349,7.39116,-5.95876,9.98,1.86,1.57,2.0
1758089478.46851,1758089468.31151,0.0,0.0,0.0,-15.24068,10.54242,-8.136,10.32,2.0,1.47,2.0
1758089478.48347,1758089468.32151,0.0,0.0,0.0,-16.90226,12.49048,-9.4538,10.31,1.71,1.42,2.0
1758089478.48548,1758089468.33151,0.0,0.0,0.0,-16.67307,13.17803,-9.74028,10.31,1.71,1.42,2.0
1758089478.5038,1758089468.34151,0.0,0.0,0.0,-16.3293,13.17803,-9.74028,9.87,1.15,1.64,2.0
1758089478.50662,1758089468.35151,0.0,0.0,0.0,-13.98017,11.28727,-8.99544,9.87,1.15,1.64,2.0
1758089478.52181,1758089468.36151,0.0,0.0,0.0,-11.97482,10.8289,-7.96411,9.4,0.72,1.35,2.0
1758089478.5243,1758089468.37151,0.0,0.0,0.0,-10.02676,11.97482,-6.8182,9.4,0.72,1.35,2.0
1758089478.56549,1758089468.38151,0.0,0.0,0.0,-8.42248,12.89155,-5.90147,9.46,0.6,1.38,2.0
1758089478.57378,1758089468.39151,0.0,0.0,0.0,-6.58902,12.77696,-4.98473,9.21,0.54,1.2,2.0
1758089478.57441,1758089468.40151,0.0,0.0,0.0,-5.90147,13.17803,-4.23989,9.21,0.54,1.2,2.0
1758089478.57644,1758089468.41151,0.0,0.0,0.0,-5.50039,14.43854,-3.55234,9.25,0.49,0.95,2.0
1758089478.57737,1758089468.42151,0.0,0.0,0.0,-5.50039,14.09476,-2.92208,9.25,0.49,0.95,2.0
1758089478.59351,1758089468.43151,0.0,0.0,0.0,-5.95876,11.57375,-2.63561,9.09,0.53,0.9,2.0
1758089478.59824,1758089468.44151,0.0,0.0,0.0,-6.47442,12.08941,-2.11994,9.09,0.53,0.9,2.0
1758089478.61378,1758089468.45151,0.0,0.0,0.0,-7.21927,13.80828,-1.60428,9.52,0.59,0.77,2.0
1758089478.61557,1758089468.46151,0.0,0.0,0.0,-8.30789,16.04282,-0.57296,9.52,0.59,0.77,2.0
1758089478.63237,1758089468.47151,0.0,0.0,0.0,-9.11003,17.76169,0.0,9.76,0.68,0.74,2.0
1758089478.63413,1758089468.48151,0.0,0.0,0.0,-9.28192,19.25138,0.80214,9.9,0.72,0.92,2.0
1758089478.65353,1758089468.49151,0.0,0.0,0.0,-9.22462,19.48057,1.77617,9.9,0.72,0.92,2.0
1758089478.65466,1758089468.50151,0.0,0.0,0.0,-8.36518,18.16276,3.60963,9.75,0.7,0.8,2.0
1758089478.67304,1758089468.51151,0.0,0.0,0.0,-7.04738,17.58981,4.81285,9.75,0.7,0.8,2.0
1758089478.67387,1758089468.52151,0.0,0.0,0.0,-5.61499,17.01685,5.61499,9.88,0.63,0.64,2.0
1758089478.69276,1758089468.53151,0.0,0.0,0.0,-4.18259,15.41257,6.24524,9.88,0.63,0.64,2.0
1758089478.69395,1758089468.54151,0.0,0.0,0.0,-2.92208,12.2613,6.41713,9.74,0.55,0.67,2.0
1758089478.71306,1758089468.55151,0.0,0.0,0.0,-2.46372,10.37054,6.24524,9.64,0.6,0.69,2.0
1758089478.71398,1758089468.56151,0.0,0.0,0.0,-2.92208,8.25059,6.13065,9.64,0.6,0.69,2.0
1758089478.73357,1758089468.57151,0.0,0.0,0.0,-3.95341,8.136,5.21392,9.61,0.77,0.73,2.0
1758089478.73477,1758089468.58151,0.0,0.0,0.0,-5.78687,10.94349,5.15662,9.61,0.77,0.73,2.0
1758089478.75359,1758089468.59151,0.0,0.0,0.0,-7.62034,11.45916,5.09932,9.71,1.0,0.85,2.0
1758089478.7579,1758089468.60151,0.0,0.0,0.0,-9.85487,8.88085,4.98473,9.71,1.0,0.85,2.0
1758089478.77386,1758089468.61151,0.0,0.0,0.0,-12.49048,3.26586,5.21392,9.24,1.09,1.06,2.0
1758089478.77802,1758089468.62151,0.0,0.0,0.0,-16.90226,-5.95876,5.72958,9.05,1.08,0.64,2.0
1758089478.79388,1758089468.63151,0.0,0.0,0.0,-20.34,-11.11538,5.72958,9.05,1.08,0.64,2.0
1758089478.79512,1758089468.64151,0.0,0.0,0.0,-23.72045,-14.15206,5.4431,9.43,1.31,0.25,2.0
1758089478.81297,1758089468.65151,0.0,0.0,0.0,-28.70519,-17.87628,3.55234,9.43,1.31,0.25,2.0
1758089478.81381,1758089468.66151,0.0,0.0,0.0,-30.65324,-29.9084,3.09397,9.33,1.58,-0.07,2.0
1758089478.82862,1758089468.67151,0.0,0.0,0.0,-32.08564,-33.23156,2.34913,9.33,1.58,-0.07,2.0
1758089478.86882,1758089468.68151,0.0,0.0,0.0,-32.48671,-32.08564,3.38045,9.81,1.68,-0.01,2.0
1758089478.87797,1758089468.69151,0.0,0.0,0.0,-32.14294,-30.59595,3.89611,9.81,1.68,-0.01,2.0
1758089478.87861,1758089468.70151,0.0,0.0,0.0,-30.76784,-37.52874,7.16197,10.12,1.42,-0.02,2.0
1758089478.8838,1758089468.71151,0.0,0.0,0.0,-33.23156,-43.83128,5.21392,9.49,1.38,0.59,2.0
1758089478.88853,1758089468.72151,0.0,0.0,0.0,-35.92446,-30.99702,4.18259,9.49,1.38,0.59,2.0
1758089478.89232,1758089468.73151,0.0,0.0,0.0,-45.14908,-12.54778,-0.97403,11.97,1.58,-0.38,2.0
1758089478.89358,1758089468.74151,0.0,0.0,0.0,-48.41494,-13.80828,-3.26586,11.97,1.58,-0.38,2.0
1758089478.9112,1758089468.75151,0.0,0.0,0.0,-49.56085,-16.61578,-5.32851,9.69,1.86,0.44,2.0
1758089478.91325,1758089468.76151,0.0,0.0,0.0,-49.79003,-12.37589,-6.58902,9.69,1.86,0.44,2.0
1758089478.9289,1758089468.77151,0.0,0.0,0.0,-47.15443,1.14592,-4.23989,10.56,1.79,0.41,2.0
1758089478.93391,1758089468.78151,0.0,0.0,0.0,-44.8053,6.18794,-0.51566,10.44,1.21,-0.02,2.0
1758089478.95068,1758089468.79151,0.0,0.0,0.0,-41.94051,10.8862,3.26586,10.44,1.21,-0.02,2.0
1758089478.95234,1758089468.80151,0.0,0.0,0.0,-39.53409,15.29797,6.87549,10.01,0.55,0.35,2.0
1758089478.96842,1758089468.81151,0.0,0.0,0.0,-35.52338,14.32395,10.94349,10.01,0.55,0.35,2.0
1758089478.9738,1758089468.82151,0.0,0.0,0.0,-32.6013,11.86023,12.54778,9.67,0.21,0.5,2.0
1758089478.99128,1758089468.83151,0.0,0.0,0.0,-30.19488,8.47978,13.34992,9.67,0.21,0.5,2.0
1758089478.9932,1758089468.84151,0.0,0.0,0.0,-27.78845,1.14592,12.83425,10.47,0.0,0.65,2.0
1758089479.02755,1758089468.85151,0.0,0.0,0.0,-25.61122,-15.0115,10.65701,11.44,0.19,1.48,2.0
1758089479.02877,1758089468.86151,0.0,0.0,0.0,-24.4653,-23.37668,8.136,11.44,0.19,1.48,2.0
1758089479.03265,1758089468.87151,0.0,0.0,0.0,-22.97561,-28.99167,4.92744,13.31,0.1,1.61,2.0
1758089479.03378,1758089468.88151,0.0,0.0,0.0,-20.34,-36.26823,0.22918,13.31,0.1,1.61,2.0
1758089479.04868,1758089468.89151,0.0,0.0,0.0,-17.99088,-41.02378,-1.83346,13.17,-0.85,1.48,2.0
1758089479.06646,1758089468.90151,0.0,0.0,0.0,-15.58445,-44.17505,-2.23454,13.17,-0.85,1.48,2.0
1758089479.06847,1758089468.91151,0.0,0.0,0.0,-12.54778,-43.83128,-1.08862,11.66,-1.44,0.63,2.0
1758089479.08368,1758089468.92151,0.0,0.0,0.0,-8.76626,-40.7373,2.29183,11.66,-1.44,0.04,2.0
1758089479.08876,1758089468.93151,0.0,0.0,0.0,-6.87549,-37.58603,4.81285,9.98,-1.11,0.04,2.0
1758089479.10361,1758089468.94151,0.0,0.0,0.0,-7.04738,-34.09099,6.58902,8.52,-0.31,0.41,2.0
1758089479.10568,1758089468.95151,0.0,0.0,0.0,-8.70896,-31.51268,7.84952,8.52,-0.31,0.41,2.0
1758089479.12145,1758089468.96151,0.0,0.0,0.0,-14.49583,-30.53865,8.65166,7.78,0.28,1.77,2.0
1758089479.12269,1758089468.97151,0.0,0.0,0.0,-19.88164,-30.48136,7.84952,7.78,0.28,1.77,2.0
1758089479.13772,1758089468.98151,0.0,0.0,0.0,-25.72581,-28.01764,6.41713,8.07,0.56,2.89,2.0
1758089479.15371,1758089468.99151,0.0,0.0,0.0,-30.88243,-23.60586,4.35448,8.07,0.56,2.89,2.0
1758089479.15565,1758089469.00151,0.0,0.0,0.0,-35.3515,-16.38659,1.60428,9.52,0.2,2.83,2.0
1758089479.17185,1758089469.01151,0.0,0.0,0.0,-36.15364,-10.8289,-0.74485,10.99,-1.0,1.97,2.0
1758089479.17267,1758089469.02151,0.0,0.0,0.0,-34.26288,-2.97938,-1.94806,10.99,-1.0,1.97,2.0
1758089479.18795,1758089469.03151,0.0,0.0,0.0,-30.30947,5.50039,-2.34913,12.26,-2.44,1.15,2.0
1758089479.20367,1758089469.04151,0.0,0.0,0.0,-21.31403,16.84496,-0.57296,12.26,-2.44,1.15,2.0
1758089479.20929,1758089469.05151,0.0,0.0,0.0,-14.61043,22.28806,1.48969,11.7,-3.15,0.97,2.0
1758089479.2239,1758089469.06151,0.0,0.0,0.0,-8.76626,25.89769,4.58366,11.7,-3.15,0.97,2.0
1758089479.22596,1758089469.07151,0.0,0.0,0.0,-4.0107,26.75713,7.44845,10.45,-2.9,0.6,2.0
1758089479.24249,1758089469.08151,0.0,0.0,0.0,-2.6929,27.38738,8.76626,9.78,-2.17,0.48,2.0
1758089479.24371,1758089469.09151,0.0,0.0,0.0,-2.23454,28.87707,9.85487,9.78,-2.17,0.48,2.0
1758089479.25863,1758089469.10151,0.0,0.0,0.0,-2.11994,28.70519,10.37054,9.6,-1.65,0.59,2.0
1758089479.27571,1758089469.11151,0.0,0.0,0.0,-2.97938,26.47065,10.8289,9.6,-1.65,0.59,2.0
1758089479.27855,1758089469.12151,0.0,0.0,0.0,-3.60963,26.87172,10.54242,9.36,-1.38,0.54,2.0
1758089479.29375,1758089469.13151,0.0,0.0,0.0,-4.64096,27.78845,9.91217,9.36,-1.38,0.54,2.0
1758089479.29683,1758089469.14151,0.0,0.0,0.0,-5.55769,28.30412,8.36518,9.47,-1.19,0.53,2.0
1758089479.31202,1758089469.15151,0.0,0.0,0.0,-6.47442,31.85646,6.35983,9.47,-1.02,0.62,2.0
1758089479.31374,1758089469.16151,0.0,0.0,0.0,-6.35983,34.37747,5.09932,9.47,-1.02,0.62,2.0
1758089479.32898,1758089469.17151,0.0,0.0,0.0,-5.72958,35.40879,4.18259,9.37,-0.9,0.79,2.0
1758089479.34817,1758089469.18151,0.0,0.0,0.0,-4.98473,35.2369,3.60963,9.37,-0.9,0.79,2.0
1758089479.34933,1758089469.19151,0.0,0.0,0.0,-3.32316,33.40344,3.20856,9.19,-0.84,0.72,2.0
1758089479.36499,1758089469.20151,0.0,0.0,0.0,-2.11994,31.45539,3.32316,9.19,-0.84,0.72,2.0
1758089479.36675,1758089469.21151,0.0,0.0,0.0,-1.08862,28.59059,3.38045,9.18,-0.91,0.66,2.0
1758089479.38244,1758089469.22151,0.0,0.0,0.0,-0.57296,24.98096,3.60963,9.18,-0.91,0.66,2.0
1758089479.3837,1758089469.23151,0.0,0.0,0.0,-0.40107,19.13679,3.60963,9.18,-1.03,0.61,2.0
1758089479.3988,1758089469.24151,0.0,0.0,0.0,-0.80214,16.21471,3.49504,9.44,-1.13,0.62,2.0
1758089479.41584,1758089469.25151,0.0,0.0,0.0,-1.43239,13.5791,3.26586,9.44,-1.13,0.62,2.0
1758089479.41755,1758089469.26151,0.0,0.0,0.0,-2.06265,11.11538,2.63561,9.67,-1.2,0.67,2.0
1758089479.43292,1758089469.27151,0.0,0.0,0.0,-2.34913,6.24524,2.86479,9.67,-1.2,0.67,2.0
1758089479.43482,1758089469.28151,0.0,0.0,0.0,-1.83346,1.3751,3.32316,9.64,-1.28,0.8,2.0
1758089479.4498,1758089469.29151,0.0,0.0,0.0,-0.80214,-1.48969,4.29718,9.64,-1.28,0.8,2.0
1758089479.4534,1758089469.30151,0.0,0.0,0.0,1.20321,-1.3751,5.09932,9.58,-1.42,0.45,2.0
1758089479.469,1758089469.31151,0.0,0.0,0.0,3.26586,-0.85944,5.50039,9.63,-1.55,0.48,2.0
1758089479.48661,1758089469.32151,0.0,0.0,0.0,5.32851,-0.80214,5.84417,9.63,-1.55,0.48,2.0
1758089479.48916,1758089469.33151,0.0,0.0,0.0,7.73493,-0.80214,6.13065,9.46,-1.59,0.58,2.0
1758089479.49383,1758089469.34151,0.0,0.0,0.0,10.8862,-1.43239,6.13065,9.46,-1.59,0.58,2.0
1758089479.51052,1758089469.35151,0.0,0.0,0.0,13.40721,-1.66158,5.50039,9.33,-1.52,0.36,2.0
1758089479.51258,1758089469.36151,0.0,0.0,0.0,15.64175,-1.08862,4.52637,9.33,-1.52,0.36,2.0
1758089479.52879,1758089469.37151,0.0,0.0,0.0,17.36062,-1.3178,3.83882,9.26,-1.43,0.07,2.0
1758089479.54564,1758089469.38151,0.0,0.0,0.0,18.9649,-5.09932,2.11994,8.89,-1.35,0.14,2.0
1758089479.5484,1758089469.39151,0.0,0.0,0.0,19.70975,-8.02141,0.51566,8.89,-1.35,0.14,2.0
1758089479.56383,1758089469.40151,0.0,0.0,0.0,20.62648,-2.86479,-2.40642,9.3,-1.37,-0.23,2.0
1758089479.56666,1758089469.41151,0.0,0.0,0.0,23.31938,8.93814,-1.94806,9.3,-1.37,-0.23,2.0
1758089479.58293,1758089469.42151,0.0,0.0,0.0,26.41335,34.95043,-3.55234,11.0,-1.47,0.64,2.0
1758089479.5838,1758089469.43151,0.0,0.0,0.0,28.476,48.24305,-4.52637,11.0,-1.47,0.64,2.0
1758089479.5988,1758089469.44151,0.0,0.0,0.0,31.74186,43.94586,-6.13065,10.2,-1.61,1.45,2.0
1758089479.60322,1758089469.45151,0.0,0.0,0.0,29.9084,17.47521,-9.91217,10.2,-1.61,1.45,2.0
1758089479.62371,1758089469.46151,0.0,0.0,0.0,39.76327,-21.94428,0.22918,6.76,-1.61,0.69,2.0
1758089479.62881,1758089469.47151,0.0,0.0,0.0,42.97184,-22.05888,4.52637,9.76,-2.32,-1.31,2.0
1758089479.64379,1758089469.48151,0.0,0.0,0.0,43.54479,-14.9542,4.58366,9.76,-2.32,-1.31,2.0
1758089479.64737,1758089469.49151,0.0,0.0,0.0,44.46153,-9.85487,4.0107,10.35,-2.08,-0.86,2.0
1758089479.66315,1758089469.50151,0.0,0.0,0.0,43.31561,-7.62034,2.23454,10.35,-2.08,-0.86,2.0
1758089479.66512,1758089469.51151,0.0,0.0,0.0,40.85189,-3.89611,0.11459,9.79,-1.62,1.18,2.0
1758089479.67993,1758089469.52151,0.0,0.0,0.0,37.64333,-0.40107,-2.6929,9.79,-1.62,1.18,2.0
1758089479.69609,1758089469.53151,0.0,0.0,0.0,32.54401,2.63561,-7.10468,10.19,-0.86,1.23,2.0
1758089479.69704,1758089469.54151,0.0,0.0,0.0,29.8511,4.92744,-8.93814,10.06,-0.25,0.32,2.0
1758089479.71286,1758089469.55151,0.0,0.0,0.0,27.61657,7.10468,-10.08406,10.06,-0.25,0.32,2.0
1758089479.74496,1758089469.56151,0.0,0.0,0.0,25.55392,7.62034,-10.31324,9.97,-0.2,0.43,2.0
1758089479.74535,1758089469.57151,0.0,0.0,0.0,22.97561,4.64096,-10.08406,9.97,-0.2,0.43,2.0
1758089479.7838,1758089469.58151,0.0,0.0,0.0,21.37133,2.34913,-9.33921,9.51,-0.47,0.55,2.0
1758089479.78518,1758089469.59151,0.0,0.0,0.0,19.59516,-0.22918,-8.30789,9.51,-0.47,0.55,2.0
1758089479.78693,1758089469.60151,0.0,0.0,0.0,17.58981,-2.92208,-7.16197,9.68,-0.96,1.0,2.0
1758089479.78761,1758089469.61151,0.0,0.0,0.0,13.80828,-4.92744,-4.64096,10.4,-1.21,1.48,2.0
1758089479.78884,1758089469.62151,0.0,0.0,0.0,10.25595,-6.58902,-3.26586,10.4,-1.21,1.48,2.0
1758089479.79342,1758089469.63151,0.0,0.0,0.0,5.32851,-9.91217,-1.60428,11.48,-0.62,2.33,2.0
1758089479.79425,1758089469.64151,0.0,0.0,0.0,-0.80214,-14.61043,-0.57296,11.48,-0.62,2.33,2.0
1758089479.8131,1758089469.65151,0.0,0.0,0.0,-10.25595,-22.05888,0.0,12.74,0.54,2.66,2.0
1758089479.81428,1758089469.66151,0.0,0.0,0.0,-14.38124,-27.50197,1.60428,12.74,0.54,2.66,2.0
1758089479.83307,1758089469.67151,0.0,0.0,0.0,-18.62113,-26.06958,0.80214,13.84,1.38,2.24,2.0
1758089479.83509,1758089469.68151,0.0,0.0,0.0,-21.7724,-23.20479,-4.46907,13.84,1.38,2.24,2.0
1758089479.8531,1758089469.69151,0.0,0.0,0.0,-23.83505,-21.48592,-8.65166,13.21,0.79,0.84,2.0
1758089479.8543,1758089469.70151,0.0,0.0,0.0,-22.91831,-21.02755,-12.43318,10.17,-0.7,0.43,2.0
1758089479.87237,1758089469.71151,0.0,0.0,0.0,-20.45459,-17.87628,-15.12609,10.17,-0.7,0.43,2.0
1758089479.87351,1758089469.72151,0.0,0.0,0.0,-13.75099,-13.17803,-17.6471,8.82,-1.46,0.16,2.0
1758089479.88893,1758089469.73151,0.0,0.0,0.0,-6.70361,-11.97482,-17.30333,8.82,-1.46,0.16,2.0
1758089479.90595,1758089469.74151,0.0,0.0,0.0,2.06265,-11.17268,-15.46986,7.82,-1.7,1.18,2.0
1758089479.90713,1758089469.75151,0.0,0.0,0.0,11.34457,-9.62569,-12.89155,7.82,-1.7,1.18,2.0
1758089479.92267,1758089469.76151,0.0,0.0,0.0,24.63719,-8.30789,-7.79223,7.81,-1.82,2.76,2.0
1758089479.92398,1758089469.77151,0.0,0.0,0.0,31.16891,-6.99009,-3.20856,8.9,-1.34,3.22,2.0
1758089479.94298,1758089469.78151,0.0,0.0,0.0,34.37747,-4.69825,2.40642,8.9,-1.34,3.22,2.0
1758089479.94497,1758089469.79151,0.0,0.0,0.0,35.63798,-2.06265,5.78687,11.43,-0.12,2.92,2.0
1758089479.96256,1758089469.80151,0.0,0.0,0.0,33.05967,10.37054,10.31324,11.43,-0.12,2.92,2.0
1758089479.9638,1758089469.81151,0.0,0.0,0.0,28.01764,20.3973,10.02676,13.38,1.42,2.15,2.0
1758089479.97903,1758089469.82151,0.0,0.0,0.0,21.42862,26.87172,6.18794,13.38,1.42,2.15,2.0
1758089479.98549,1758089469.83151,0.0,0.0,0.0,14.09476,28.07493,1.14592,11.62,2.41,1.66,2.0
1758089480.00298,1758089469.84151,0.0,0.0,0.0,8.42248,33.17426,-7.79223,9.99,2.66,1.57,2.0
1758089480.00822,1758089469.85151,0.0,0.0,0.0,5.78687,34.77854,-10.59972,9.99,2.66,1.57,2.0
1758089480.02301,1758089469.86151,0.0,0.0,0.0,4.58366,31.45539,-12.2613,9.35,1.93,1.39,2.0
1758089480.02526,1758089469.87151,0.0,0.0,0.0,3.95341,31.51268,-12.77696,9.35,1.93,1.39,2.0
1758089480.04302,1758089469.88151,0.0,0.0,0.0,3.83882,33.68992,-11.45916,9.88,1.37,1.54,2.0
1758089480.04417,1758089469.89151,0.0,0.0,0.0,4.46907,33.68992,-10.48513,9.88,1.37,1.54,2.0
1758089480.05899,1758089469.90151,0.0,0.0,0.0,5.27121,33.9764,-9.05273,9.72,0.84,1.37,2.0
1758089480.07764,1758089469.91151,0.0,0.0,0.0,6.47442,31.28349,-6.24524,9.72,0.84,1.37,2.0
1758089480.07926,1758089469.92151,0.0,0.0,0.0,6.87549,28.99167,-4.81285,9.24,0.41,1.57,2.0
1758089480.09404,1758089469.93151,0.0,0.0,0.0,6.53172,27.44468,-4.0107,8.85,0.16,1.54,2.0
1758089480.09714,1758089469.94151,0.0,0.0,0.0,5.72958,24.86637,-3.95341,8.85,0.16,1.54,2.0
1758089480.1123,1758089469.95151,0.0,0.0,0.0,4.81285,17.87628,-3.32316,8.32,0.16,1.24,2.0
1758089480.114,1758089469.96151,0.0,0.0,0.0,4.1253,13.23533,-2.6929,8.32,0.16,1.24,2.0
1758089480.12911,1758089469.97151,0.0,0.0,0.0,3.66693,9.68299,-1.71887,8.06,0.31,0.93,2.0
1758089480.13361,1758089469.98151,0.0,0.0,0.0,3.66693,5.32851,-0.57296,8.06,0.31,0.93,2.0
1758089480.14902,1758089469.99151,0.0,0.0,0.0,4.1253,-1.77617,1.66158,8.06,0.43,0.91,2.0
1758089480.16608,1758089470.00151,0.0,0.0,0.0,4.64096,-5.78687,2.97938,8.35,0.49,0.99,2.0
1758089480.16723,1758089470.01151,0.0,0.0,0.0,5.09932,-9.4538,4.18259,8.35,0.49,0.99,2.0
1758089480.18395,1758089470.02151,0.0,0.0,0.0,5.4431,-13.5791,5.09932,8.7,0.55,1.1,2.0
1758089480.188,1758089470.03151,0.0,0.0,0.0,6.07335,-19.48057,6.24524,8.7,0.55,1.1,2.0
1758089480.20377,1758089470.04151,0.0,0.0,0.0,6.24524,-22.11617,6.53172,8.96,0.59,1.18,2.0
1758089480.20507,1758089470.05151,0.0,0.0,0.0,5.78687,-21.42862,6.8182,8.96,0.59,1.18,2.0
1758089480.22112,1758089470.06151,0.0,0.0,0.0,5.32851,-19.76705,7.62034,9.58,0.75,1.18,2.0
1758089480.22235,1758089470.07151,0.0,0.0,0.0,3.83882,-13.5791,8.25059,10.09,0.91,1.32,2.0
1758089480.23911,1758089470.08151,0.0,0.0,0.0,2.46372,-7.10468,8.70896,10.09,0.91,1.32,2.0
1758089480.24327,1758089470.09151,0.0,0.0,0.0,0.85944,-0.51566,8.76626,10.49,0.9,1.32,2.0
1758089480.26311,1758089470.10151,0.0,0.0,0.0,-2.00535,6.13065,8.70896,10.49,0.9,1.32,2.0
1758089480.265,1758089470.11151,0.0,0.0,0.0,-4.18259,14.38124,8.136,10.34,0.78,1.08,2.0
1758089480.27995,1758089470.12151,0.0,0.0,0.0,-6.53172,15.75634,7.50575,10.34,0.78,1.08,2.0
1758089480.28365,1758089470.13151,0.0,0.0,0.0,-8.59437,11.28727,8.25059,9.6,0.71,0.81,2.0
1758089480.30308,1758089470.14151,0.0,0.0,0.0,-14.38124,7.79223,6.53172,9.6,0.71,0.81,2.0
1758089480.30509,1758089470.15151,0.0,0.0,0.0,-18.79302,5.15662,6.58902,9.33,0.92,0.32,2.0
1758089480.32037,1758089470.16151,0.0,0.0,0.0,-23.31938,0.40107,5.84417,9.28,1.4,0.13,2.0
1758089480.32398,1758089470.17151,0.0,0.0,0.0,-27.96034,-4.58366,5.32851,9.28,1.4,0.13,2.0
1758089480.34347,1758089470.18151,0.0,0.0,0.0,-34.43476,-11.28727,4.18259,9.11,1.92,-0.22,2.0
1758089480.34558,1758089470.19151,0.0,0.0,0.0,-38.15899,-15.24068,3.32316,9.11,1.92,-0.22,2.0
1758089480.36014,1758089470.20151,0.0,0.0,0.0,-40.7946,-21.31403,2.97938,9.03,2.23,-0.46,2.0
1758089480.37847,1758089470.21151,0.0,0.0,0.0,-42.68536,-28.07493,3.72423,9.03,2.23,-0.46,2.0
1758089480.38359,1758089470.22151,0.0,0.0,0.0,-43.31561,-34.66395,5.27121,8.91,1.99,-0.84,2.0
1758089480.38586,1758089470.23151,0.0,0.0,0.0,-43.14373,-37.35685,6.47442,9.56,1.54,-0.62,2.0
1758089480.40479,1758089470.24151,0.0,0.0,0.0,-42.74266,-38.38818,7.39116,9.56,1.54,-0.62,2.0
1758089480.41246,1758089470.25151,0.0,0.0,0.0,-42.39888,-37.52874,8.30789,10.26,1.07,-0.37,2.0
1758089480.41388,1758089470.26151,0.0,0.0,0.0,-42.34158,-23.89234,10.54242,10.26,1.07,-0.37,2.0
1758089480.43231,1758089470.27151,0.0,0.0,0.0,-44.00316,-14.38124,12.77696,11.66,0.78,0.2,2.0
1758089480.4333,1758089470.28151,0.0,0.0,0.0,-46.46688,-17.24603,5.50039,11.66,0.78,0.2,2.0
1758089480.44839,1758089470.29151,0.0,0.0,0.0,-48.52953,-15.46986,4.46907,10.22,1.28,0.42,2.0
1758089480.46431,1758089470.30151,0.0,0.0,0.0,-52.65482,-16.10011,3.03668,10.88,1.79,1.11,2.0
1758089480.46613,1758089470.31151,0.0,0.0,0.0,-54.71747,-19.70975,2.23454,10.88,1.79,1.11,2.0
1758089480.48296,1758089470.32151,0.0,0.0,0.0,-53.51426,-21.60051,3.89611,12.26,1.73,2.28,2.0
1758089480.48401,1758089470.33151,0.0,0.0,0.0,-48.9879,-42.34158,2.23454,12.26,1.73,2.28,2.0
1758089480.50056,1758089470.34151,0.0,0.0,0.0,-46.81066,-54.60288,-3.03668,13.43,0.07,4.77,2.0
1758089480.50369,1758089470.35151,0.0,0.0,0.0,-42.57077,-51.27972,-8.30789,13.43,0.07,4.77,2.0
1758089480.52302,1758089470.36151,0.0,0.0,0.0,-34.32018,-36.32552,-10.71431,17.02,-3.02,3.54,2.0
1758089480.52428,1758089470.37151,0.0,0.0,0.0,-18.33465,-21.6578,-7.44845,17.02,-3.02,0.85,2.0
1758089480.54316,1758089470.38151,0.0,0.0,0.0,-8.59437,-18.44924,-1.94806,14.9,-4.88,0.85,2.0
1758089480.54436,1758089470.39151,0.0,0.0,0.0,-0.22918,-16.90226,4.69825,9.85,-2.59,0.01,2.0
1758089480.56321,1758089470.40151,0.0,0.0,0.0,4.92744,-14.61043,10.8862,9.85,-2.59,0.01,2.0
1758089480.5659,1758089470.41151,0.0,0.0,0.0,6.41713,-11.34457,16.21471,8.0,-0.85,-0.41,2.0
1758089480.58305,1758089470.42151,0.0,0.0,0.0,2.63561,-10.59972,16.73037,8.0,-0.85,-0.41,2.0
1758089480.58907,1758089470.43151,0.0,0.0,0.0,-3.83882,-10.54242,14.78231,7.74,0.0,1.68,2.0
1758089480.6049,1758089470.44151,0.0,0.0,0.0,-11.80293,-11.28727,11.80293,7.74,0.0,1.68,2.0
1758089480.60857,1758089470.45151,0.0,0.0,0.0,-24.5226,-10.19865,6.13065,8.04,0.36,3.28,2.0
1758089480.62497,1758089470.46151,0.0,0.0,0.0,-32.14294,-9.96947,2.6929,8.81,0.34,2.83,2.0
1758089480.62616,1758089470.47151,0.0,0.0,0.0,-37.98711,-9.11003,0.0573,8.81,0.34,2.83,2.0
1758089480.64108,1758089470.48151,0.0,0.0,0.0,-41.31026,-6.7609,-1.3751,9.82,-0.28,1.93,2.0
1758089480.64312,1758089470.49151,0.0,0.0,0.0,-41.42485,0.34377,-1.66158,9.82,-0.28,1.93,2.0
1758089480.66422,1758089470.50151,0.0,0.0,0.0,-38.21629,5.84417,-0.80214,10.69,-1.62,1.29,2.0
1758089480.68301,1758089470.51151,0.0,0.0,0.0,-32.48671,11.45916,0.74485,10.69,-1.62,1.29,2.0
1758089480.68321,1758089470.52151,0.0,0.0,0.0,-21.88699,16.55848,3.38045,10.35,-3.19,0.71,2.0
1758089480.68404,1758089470.53151,0.0,0.0,0.0,-15.35527,21.6578,4.98473,9.66,-3.72,0.4,2.0
1758089480.70744,1758089470.54151,0.0,0.0,0.0,-10.25595,25.09555,6.41713,9.66,-3.72,0.4,2.0
1758089480.71129,1758089470.55151,0.0,0.0,0.0,-6.58902,29.10626,7.04738,9.74,-3.2,0.63,2.0
1758089480.72888,1758089470.56151,0.0,0.0,0.0,-3.89611,34.89313,7.79223,9.74,-3.2,0.63,2.0
1758089480.73303,1758089470.57151,0.0,0.0,0.0,-3.60963,36.15364,7.39116,10.14,-2.53,1.24,2.0
1758089480.73368,1758089470.58151,0.0,0.0,0.0,-3.60963,35.3515,7.10468,10.14,-2.53,1.24,2.0
1758089480.75338,1758089470.59151,0.0,0.0,0.0,-3.89611,32.25753,6.70361,10.01,-1.88,1.41,2.0
1758089480.75442,1758089470.60151,0.0,0.0,0.0,-3.95341,28.64789,5.61499,9.75,-1.88,1.11,2.0
1758089480.77169,1758089470.61151,0.0,0.0,0.0,-3.60963,27.04361,4.69825,9.75,-1.47,1.11,2.0
1758089480.77364,1758089470.62151,0.0,0.0,0.0,-2.7502,25.43933,4.0107,9.52,-1.46,0.98,2.0
1758089480.79323,1758089470.63151,0.0,0.0,0.0,-1.43239,23.89234,3.66693,9.52,-1.46,0.98,2.0
1758089480.7944,1758089470.64151,0.0,0.0,0.0,1.20321,21.14215,3.55234,9.2,-1.64,1.13,2.0
1758089480.8125,1758089470.65151,0.0,0.0,0.0,3.03668,18.50654,3.83882,9.2,-1.64,1.13,2.0
1758089480.81446,1758089470.66151,0.0,0.0,0.0,4.64096,15.0115,4.29718,8.76,-1.81,1.07,2.0
1758089480.83173,1758089470.67151,0.0,0.0,0.0,5.90147,10.54242,4.81285,8.76,-1.81,1.07,2.0
1758089480.8361,1758089470.68151,0.0,0.0,0.0,6.47442,4.1253,4.92744,8.3,-1.85,0.93,2.0
1758089480.8513,1758089470.69151,0.0,0.0,0.0,6.35983,0.80214,4.35448,8.28,-1.72,0.73,2.0
1758089480.85286,1758089470.70151,0.0,0.0,0.0,5.72958,-2.34913,3.66693,8.28,-1.72,0.73,2.0
1758089480.86831,1758089470.71151,0.0,0.0,0.0,4.87014,-5.4431,2.92208,8.64,-1.42,0.89,2.0
1758089480.88587,1758089470.72151,0.0,0.0,0.0,3.49504,-8.76626,1.77617,8.64,-1.42,0.89,2.0
1758089480.89344,1758089470.73151,0.0,0.0,0.0,2.86479,-10.8862,1.20321,9.16,-1.17,0.9,2.0
1758089480.89405,1758089470.74151,0.0,0.0,0.0,2.57831,-12.37589,0.68755,9.16,-1.17,0.9,2.0
1758089480.9135,1758089470.75151,0.0,0.0,0.0,2.57831,-13.06344,0.22918,9.43,-1.07,0.83,2.0
1758089480.91502,1758089470.76151,0.0,0.0,0.0,3.03668,-12.49048,0.0,9.54,-1.17,0.73,2.0
1758089480.93216,1758089470.77151,0.0,0.0,0.0,3.60963,-10.65701,-0.45837,9.54,-1.17,0.73,2.0
1758089480.93312,1758089470.78151,0.0,0.0,0.0,4.64096,-6.53172,-1.20321,9.81,-1.39,0.73,2.0
1758089480.94832,1758089470.79151,0.0,0.0,0.0,6.99009,1.94806,-2.57831,9.81,-1.39,0.73,2.0
1758089480.96433,1758089470.80151,0.0,0.0,0.0,9.68299,5.78687,-2.63561,10.13,-1.64,0.95,2.0
1758089480.96631,1758089470.81151,0.0,0.0,0.0,12.71966,6.41713,-2.23454,10.13,-1.64,0.95,2.0
1758089480.98318,1758089470.82151,0.0,0.0,0.0,16.10011,6.07335,-1.60428,9.73,-1.76,0.85,2.0
1758089480.98696,1758089470.83151,0.0,0.0,0.0,21.31403,5.55769,-0.40107,9.62,-1.83,0.47,2.0
1758089481.00317,1758089470.84151,0.0,0.0,0.0,24.80907,4.46907,0.11459,9.62,-1.83,0.47,2.0
1758089481.0043,1758089470.85151,0.0,0.0,0.0,28.24682,3.20856,0.85944,9.44,-1.89,0.17,2.0
1758089481.02025,1758089470.86151,0.0,0.0,0.0,31.39809,2.29183,0.80214,9.44,-1.89,0.17,2.0
1758089481.03634,1758089470.87151,0.0,0.0,0.0,34.37747,-2.00535,0.57296,9.24,-1.86,0.07,2.0
1758089481.03788,1758089470.88151,0.0,0.0,0.0,34.95043,-6.35983,0.11459,9.24,-1.86,0.07,2.0
1758089481.05336,1758089470.89151,0.0,0.0,0.0,32.83048,-8.65166,-2.92208,9.11,-1.69,-0.02,2.0
1758089481.05558,1758089470.90151,0.0,0.0,0.0,31.85646,-11.74564,-4.46907,9.11,-1.69,-0.02,2.0
1758089481.07235,1758089470.91151,0.0,0.0,0.0,31.16891,-0.80214,-6.41713,9.53,-1.29,-0.19,2.0
1758089481.07354,1758089470.92151,0.0,0.0,0.0,30.59595,11.97482,-7.21927,11.1,-1.14,0.54,2.0
1758089481.08859,1758089470.93151,0.0,0.0,0.0,30.13758,23.83505,-7.79223,11.1,-1.14,0.54,2.0
1758089481.09259,1758089470.94151,0.0,0.0,0.0,28.476,30.82513,-10.31324,10.53,-1.12,1.47,2.0
1758089481.10844,1758089470.95151,0.0,0.0,0.0,30.25217,18.73572,-11.34457,10.53,-1.12,1.47,2.0
1758089481.11279,1758089470.96151,0.0,0.0,0.0,30.02299,-14.03747,-11.28727,7.76,-1.26,1.07,2.0
1758089481.12827,1758089470.97151,0.0,0.0,0.0,34.43476,-34.66395,-4.69825,7.76,-1.26,1.07,2.0
1758089481.14428,1758089470.98151,0.0,0.0,0.0,38.44547,-28.76248,-0.68755,8.67,-1.93,-0.96,2.0
1758089481.15115,1758089470.99151,0.0,0.0,0.0,39.01843,-18.73572,-0.68755,11.16,-2.08,-0.62,2.0
1758089481.15477,1758089471.00151,0.0,0.0,0.0,38.73195,-14.49583,0.0573,11.16,-2.08,-0.62,2.0
1758089481.17137,1758089471.01151,0.0,0.0,0.0,37.47144,-11.11538,-1.71887,10.16,-1.7,0.8,2.0
1758089481.1732,1758089471.02151,0.0,0.0,0.0,33.17426,-0.68755,-2.92208,10.16,-1.7,0.8,2.0
1758089481.1921,1758089471.03151,0.0,0.0,0.0,30.02299,3.49504,-4.64096,11.13,-1.23,1.62,2.0
1758089481.19379,1758089471.04151,0.0,0.0,0.0,26.69983,7.10468,-6.07335,11.13,-1.23,1.62,2.0
1758089481.2134,1758089471.05151,0.0,0.0,0.0,24.12152,9.28192,-6.8182,10.84,-0.69,0.16,2.0
1758089481.21544,1758089471.06151,0.0,0.0,0.0,20.79837,11.57375,-6.87549,10.6,-0.52,0.18,2.0
1758089481.23223,1758089471.07151,0.0,0.0,0.0,19.70975,11.86023,-6.47442,10.6,-0.52,0.18,2.0
1758089481.23336,1758089471.08151,0.0,0.0,0.0,19.13679,9.11003,-5.32851,10.1,-0.73,0.31,2.0
1758089481.24829,1758089471.09151,0.0,0.0,0.0,17.99088,6.24524,-4.52637,10.1,-0.73,0.31,2.0
1758089481.26444,1758089471.10151,0.0,0.0,0.0,17.01685,5.84417,-4.29718,10.03,-1.08,0.53,2.0
1758089481.26566,1758089471.11151,0.0,0.0,0.0,16.55848,7.33386,-5.32851,10.03,-1.08,0.53,2.0
1758089481.28119,1758089471.12151,0.0,0.0,0.0,15.75634,8.0787,-7.33386,10.37,-1.4,0.68,2.0
1758089481.28348,1758089471.13151,0.0,0.0,0.0,14.61043,7.39116,-10.54242,10.37,-1.4,0.68,2.0
1758089481.29865,1758089471.14151,0.0,0.0,0.0,12.37589,2.34913,-12.49048,10.62,-1.26,1.03,2.0
1758089481.31523,1758089471.15151,0.0,0.0,0.0,11.17268,-3.83882,-12.89155,10.76,-0.88,1.04,2.0
1758089481.318,1758089471.16151,0.0,0.0,0.0,9.33921,-9.05273,-11.97482,10.76,-0.88,1.04,2.0
1758089481.33371,1758089471.17151,0.0,0.0,0.0,5.72958,-9.33921,-9.4538,11.81,-0.57,0.99,2.0
1758089481.33548,1758089471.18151,0.0,0.0,0.0,2.34913,-7.44845,-7.73493,11.81,-0.57,0.99,2.0
1758089481.35125,1758089471.19151,0.0,0.0,0.0,-0.57296,-7.39116,-6.58902,13.02,0.17,1.46,2.0
1758089481.35402,1758089471.20151,0.0,0.0,0.0,-3.20856,-8.25059,-7.10468,13.02,0.17,1.46,2.0
1758089481.37254,1758089471.21151,0.0,0.0,0.0,-3.66693,-10.19865,-9.33921,12.33,0.37,1.25,2.0
1758089481.37385,1758089471.22151,0.0,0.0,0.0,-2.34913,-10.94349,-11.45916,10.75,-0.13,0.84,2.0
1758089481.39274,1758089471.23151,0.0,0.0,0.0,0.0,-11.00079,-13.40721,10.75,-0.13,0.84,2.0
1758089481.39381,1758089471.24151,0.0,0.0,0.0,3.26586,-12.204,-14.43854,9.46,-0.47,1.34,2.0
1758089481.41179,1758089471.25151,0.0,0.0,0.0,9.68299,-15.0115,-14.03747,9.46,-0.47,1.34,2.0
1758089481.41399,1758089471.26151,0.0,0.0,0.0,14.66772,-16.38659,-12.60507,8.77,-0.66,2.05,2.0
1758089481.43272,1758089471.27151,0.0,0.0,0.0,19.48057,-16.67307,-10.54242,8.77,-0.66,2.05,2.0
1758089481.43383,1758089471.28151,0.0,0.0,0.0,24.35071,-16.67307,-7.50575,8.6,-0.69,2.47,2.0
1758089481.45214,1758089471.29151,0.0,0.0,0.0,29.10626,-16.04282,-2.97938,8.78,-0.44,2.6,2.0
1758089481.45305,1758089471.30151,0.0,0.0,0.0,30.30947,-12.43318,0.80214,8.78,-0.44,2.6,2.0
1758089481.46847,1758089471.31151,0.0,0.0,0.0,30.13758,-9.11003,2.29183,9.76,0.13,2.32,2.0
1758089481.51227,1758089471.32151,0.0,0.0,0.0,29.22085,-5.27121,4.23989,9.76,0.13,2.32,2.0
1758089481.58204,1758089471.33151,0.0,0.0,0.0,24.63719,0.51566,3.26586,10.35,0.95,2.36,2.0
1758089481.58342,1758089471.34151,0.0,0.0,0.0,20.45459,5.15662,1.3751,10.35,0.95,2.36,2.0
1758089481.58462,1758089471.35151,0.0,0.0,0.0,16.21471,9.91217,-0.85944,10.67,1.71,1.74,2.0
1758089481.58691,1758089471.36151,0.0,0.0,0.0,10.48513,14.66772,-4.0107,10.67,1.71,1.74,2.0
1758089481.5881,1758089471.37151,0.0,0.0,0.0,7.84952,19.59516,-6.07335,10.46,2.07,1.57,2.0
1758089481.58873,1758089471.38151,0.0,0.0,0.0,6.24524,26.24147,-7.16197,10.18,1.96,1.54,2.0
1758089481.59275,1758089471.39151,0.0,0.0,0.0,5.61499,29.8511,-6.7609,10.18,1.96,1.54,2.0
1758089481.59376,1758089471.40151,0.0,0.0,0.0,5.61499,30.36677,-6.41713,9.52,1.17,1.43,2.0
1758089481.59863,1758089471.41151,0.0,0.0,0.0,6.24524,32.08564,-5.15662,9.52,1.17,1.43,2.0
1758089481.59973,1758089471.42151,0.0,0.0,0.0,7.16197,34.49206,-3.72423,9.51,0.63,1.39,2.0
1758089481.60046,1758089471.43151,0.0,0.0,0.0,8.30789,35.63798,-2.63561,9.51,0.63,1.39,2.0
1758089481.60177,1758089471.44151,0.0,0.0,0.0,10.25595,34.14828,-0.0573,9.17,0.3,1.2,2.0
1758089481.60388,1758089471.45151,0.0,0.0,0.0,10.71431,32.88778,1.20321,8.79,0.2,1.25,2.0
1758089481.62355,1758089471.46151,0.0,0.0,0.0,10.65701,33.40344,2.57831,8.79,0.2,1.25,2.0
1758089481.6256,1758089471.47151,0.0,0.0,0.0,10.08406,32.08564,3.20856,8.74,0.38,1.17,2.0
1758089481.6408,1758089471.48151,0.0,0.0,0.0,8.02141,26.64254,2.97938,8.74,0.38,1.17,2.0
1758089481.64417,1758089471.49151,0.0,0.0,0.0,6.35983,22.23076,2.86479,8.3,0.71,1.0,2.0
1758089481.66142,1758089471.50151,0.0,0.0,0.0,4.69825,17.47521,2.7502,8.3,0.71,1.0,2.0
1758089481.6632,1758089471.51151,0.0,0.0,0.0,3.72423,12.2613,3.03668,8.49,0.93,1.09,2.0
1758089481.67856,1758089471.52151,0.0,0.0,0.0,2.86479,3.38045,3.72423,8.85,0.99,1.01,2.0
1758089481.69544,1758089471.53151,0.0,0.0,0.0,2.63561,-2.00535,4.58366,8.85,0.99,1.01,2.0
1758089481.69821,1758089471.54151,0.0,0.0,0.0,2.57831,-6.07335,5.4431,9.32,0.85,1.08,2.0
1758089481.71384,1758089471.55151,0.0,0.0,0.0,2.57831,-9.4538,6.58902,9.32,0.85,1.08,2.0
1758089481.71484,1758089471.56151,0.0,0.0,0.0,2.40642,-11.45916,6.99009,9.72,0.65,0.94,2.0
1758089481.73116,1758089471.57151,0.0,0.0,0.0,2.11994,-9.28192,6.99009,9.72,0.65,0.94,2.0
1758089481.73319,1758089471.58151,0.0,0.0,0.0,2.06265,-4.52637,6.99009,10.21,0.48,0.92,2.0
1758089481.74887,1758089471.59151,0.0,0.0,0.0,1.83346,2.63561,7.04738,10.21,0.48,0.92,2.0
1758089481.75325,1758089471.60151,0.0,0.0,0.0,1.3178,7.73493,7.10468,10.28,0.38,0.9,2.0
1758089481.76887,1758089471.61151,0.0,0.0,0.0,0.80214,12.37589,7.62034,10.11,0.35,0.87,2.0
1758089481.77312,1758089471.62151,0.0,0.0,0.0,-0.0573,15.64175,8.30789,10.11,0.35,0.87,2.0
1758089481.78885,1758089471.63151,0.0,0.0,0.0,-1.60428,18.10547,9.33921,9.66,0.41,0.69,2.0
1758089481.79302,1758089471.64151,0.0,0.0,0.0,-2.97938,17.13144,10.48513,9.66,0.41,0.69,2.0
1758089481.80853,1758089471.65151,0.0,0.0,0.0,-4.92744,14.61043,11.00079,9.28,0.56,0.56,2.0
1758089481.81301,1758089471.66151,0.0,0.0,0.0,-7.10468,8.30789,11.51645,9.28,0.56,0.56,2.0
1758089481.82871,1758089471.67151,0.0,0.0,0.0,-11.57375,-4.92744,11.45916,8.93,0.78,0.49,2.0
1758089481.83381,1758089471.68151,0.0,0.0,0.0,-14.83961,-13.5791,11.17268,8.84,1.15,-0.03,2.0
1758089481.85385,1758089471.69151,0.0,0.0,0.0,-18.50654,-20.62648,10.31324,8.84,1.15,-0.03,2.0
1758089481.85513,1758089471.70151,0.0,0.0,0.0,-22.28806,-26.75713,9.68299,9.2,1.57,-0.18,2.0
1758089481.87318,1758089471.71151,0.0,0.0,0.0,-28.476,-32.42941,7.62034,9.2,1.57,-0.18,2.0
1758089481.87524,1758089471.72151,0.0,0.0,0.0,-32.6013,-33.11696,5.4431,9.68,1.84,-0.14,2.0
1758089481.89167,1758089471.73151,0.0,0.0,0.0,-36.32552,-33.11696,3.09397,9.68,1.84,-0.14,2.0
1758089481.89269,1758089471.74151,0.0,0.0,0.0,-39.07573,-34.43476,-0.51566,10.01,1.95,0.0,2.0
1758089481.90848,1758089471.75151,0.0,0.0,0.0,-41.31026,-34.37747,-1.66158,10.0,1.6,0.0,2.0
1758089481.91128,1758089471.76151,0.0,0.0,0.0,-41.25296,-31.16891,-1.20321,10.0,1.6,0.0,2.0
1758089481.92762,1758089471.77151,0.0,0.0,0.0,-41.25296,-28.41871,-0.40107,10.14,1.18,-0.22,2.0
1758089481.94371,1758089471.78151,0.0,0.0,0.0,-40.62271,-25.7831,1.48969,10.14,1.18,-0.22,2.0
1758089481.94489,1758089471.79151,0.0,0.0,0.0,-40.27893,-22.91831,3.66693,10.0,0.83,0.14,2.0
1758089481.96075,1758089471.80151,0.0,0.0,0.0,-41.31026,-27.04361,4.35448,10.0,0.83,0.14,2.0
1758089481.96414,1758089471.81151,0.0,0.0,0.0,-43.14373,-31.56997,4.46907,9.3,0.81,-0.25,2.0
1758089481.97998,1758089471.82151,0.0,0.0,0.0,-45.26366,-20.16812,4.0107,9.3,0.81,-0.25,2.0
1758089481.98116,1758089471.83151,0.0,0.0,0.0,-48.30034,-15.29797,1.14592,10.74,1.33,0.14,2.0
1758089481.99901,1758089471.84151,0.0,0.0,0.0,-49.33167,-17.81899,-0.85944,11.17,1.64,1.99,2.0
1758089482.01474,1758089471.85151,0.0,0.0,0.0,-49.84733,-26.75713,-4.52637,11.17,1.64,1.99,2.0
1758089482.01679,1758089471.86151,0.0,0.0,0.0,-47.67009,-55.51962,-12.08941,11.75,0.98,4.51,2.0
1758089482.03328,1758089471.87151,0.0,0.0,0.0,-45.26366,-63.13995,-18.10547,11.75,0.98,4.51,2.0
1758089482.03521,1758089471.88151,0.0,0.0,0.0,-39.53409,-53.28508,-19.82434,14.95,-1.01,3.27,2.0
1758089482.05157,1758089471.89151,0.0,0.0,0.0,-31.62727,-40.96649,-17.93358,14.95,-1.01,3.27,2.0
1758089482.05298,1758089471.90151,0.0,0.0,0.0,-19.13679,-29.27814,-10.8862,15.02,-3.21,0.08,2.0
1758089482.0679,1758089471.91151,0.0,0.0,0.0,-12.204,-22.68913,-5.15662,10.67,-2.92,0.33,2.0
1758089482.08401,1758089471.92151,0.0,0.0,0.0,-7.84952,-18.27736,0.34377,10.67,-2.92,0.33,2.0
1758089482.08921,1758089471.93151,0.0,0.0,0.0,-6.87549,-13.69369,3.83882,9.09,-1.44,0.4,2.0
1758089482.10377,1758089471.94151,0.0,0.0,0.0,-10.65701,-11.22997,6.18794,9.09,-1.44,0.4,2.0
1758089482.10567,1758089471.95151,0.0,0.0,0.0,-15.69904,-9.5684,4.92744,9.45,-0.53,1.92,2.0
1758089482.12079,1758089471.96151,0.0,0.0,0.0,-21.7724,-8.36518,3.09397,9.45,-0.53,1.92,2.0
1758089482.12302,1758089471.97151,0.0,0.0,0.0,-28.13223,-7.04738,-1.08862,10.06,0.07,3.0,2.0
1758089482.13768,1758089471.98151,0.0,0.0,0.0,-37.01308,-5.27121,-4.18259,9.88,0.11,2.73,2.0
1758089482.15362,1758089471.99151,0.0,0.0,0.0,-41.02378,-3.66693,-6.53172,9.88,0.11,2.73,2.0
1758089482.15736,1758089472.00151,0.0,0.0,0.0,-42.57077,1.20321,-7.84952,10.16,-0.45,1.97,2.0
1758089482.17358,1758089472.01151,0.0,0.0,0.0,-41.02378,10.94349,-7.33386,10.16,-0.45,1.97,2.0
1758089482.17478,1758089472.02151,0.0,0.0,0.0,-37.58603,17.24603,-5.78687,10.66,-1.46,1.2,2.0
1758089482.19155,1758089472.03151,0.0,0.0,0.0,-32.48671,23.31938,-3.60963,10.66,-1.46,1.2,2.0
1758089482.19333,1758089472.04151,0.0,0.0,0.0,-27.2155,27.84575,-0.97403,10.5,-2.43,0.99,2.0
1758089482.20881,1758089472.05151,0.0,0.0,0.0,-19.99623,34.60666,2.34913,10.5,-2.43,0.58,2.0
1758089482.22638,1758089472.06151,0.0,0.0,0.0,-16.95955,36.61201,3.72423,10.14,-2.8,0.58,2.0
1758089482.22918,1758089472.07151,0.0,0.0,0.0,-15.35527,38.21629,4.29718,9.84,-2.56,0.66,2.0
1758089482.23403,1758089472.08151,0.0,0.0,0.0,-14.9542,39.87786,4.52637,9.84,-2.56,0.66,2.0
1758089482.25318,1758089472.09151,0.0,0.0,0.0,-15.69904,41.42485,4.18259,10.09,-2.11,1.08,2.0
1758089482.25739,1758089472.10151,0.0,0.0,0.0,-16.84496,42.1124,3.55234,10.09,-2.11,1.08,2.0
1758089482.27405,1758089472.11151,0.0,0.0,0.0,-17.76169,40.96649,2.92208,10.22,-1.61,1.13,2.0
1758089482.27737,1758089472.12151,0.0,0.0,0.0,-17.93358,39.07573,2.29183,10.22,-1.61,1.13,2.0
1758089482.29387,1758089472.13151,0.0,0.0,0.0,-16.90226,36.49741,2.06265,9.97,-1.25,1.04,2.0
1758089482.29601,1758089472.14151,0.0,0.0,0.0,-15.06879,35.52338,2.11994,9.72,-1.16,0.83,2.0
1758089482.3116,1758089472.15151,0.0,0.0,0.0,-12.77696,34.60666,2.6929,9.72,-1.16,0.83,2.0
1758089482.3144,1758089472.16151,0.0,0.0,0.0,-10.08406,33.40344,2.97938,9.31,-1.26,0.84,2.0
1758089482.33246,1758089472.17151,0.0,0.0,0.0,-5.84417,29.8511,4.1253,9.31,-1.26,0.84,2.0
1758089482.3346,1758089472.18151,0.0,0.0,0.0,-3.49504,27.61657,4.0107,8.89,-1.51,0.75,2.0
1758089482.3507,1758089472.19151,0.0,0.0,0.0,-1.77617,25.09555,3.89611,8.89,-1.51,0.75,2.0
1758089482.3522,1758089472.20151,0.0,0.0,0.0,-0.45837,19.99623,2.92208,8.71,-1.63,0.64,2.0
1758089482.36877,1758089472.21151,0.0,0.0,0.0,-0.22918,17.01685,2.00535,8.65,-1.54,0.62,2.0
1758089482.38381,1758089472.22151,0.0,0.0,0.0,-0.68755,13.98017,1.08862,8.65,-1.54,0.62,2.0
1758089482.38495,1758089472.23151,0.0,0.0,0.0,-1.08862,11.57375,0.34377,8.78,-1.28,0.62,2.0
1758089482.40167,1758089472.24151,0.0,0.0,0.0,-2.11994,8.25059,-0.74485,8.78,-1.28,0.62,2.0
1758089482.40294,1758089472.25151,0.0,0.0,0.0,-2.63561,5.27121,-1.08862,8.88,-0.98,0.75,2.0
1758089482.41873,1758089472.26151,0.0,0.0,0.0,-2.7502,2.86479,-1.43239,8.88,-0.98,0.75,2.0
1758089482.42141,1758089472.27151,0.0,0.0,0.0,-2.57831,1.20321,-1.43239,8.96,-0.84,0.72,2.0
1758089482.43796,1758089472.28151,0.0,0.0,0.0,-1.48969,3.60963,-2.34913,9.36,-0.94,0.56,2.0
1758089482.45403,1758089472.29151,0.0,0.0,0.0,-0.51566,6.70361,-3.20856,9.36,-0.94,0.56,2.0
1758089482.45587,1758089472.30151,0.0,0.0,0.0,0.97403,9.74028,-4.35448,9.48,-1.11,0.64,2.0
1758089482.47209,1758089472.31151,0.0,0.0,0.0,2.57831,13.17803,-5.55769,9.48,-1.11,0.64,2.0
1758089482.47365,1758089472.32151,0.0,0.0,0.0,5.09932,17.99088,-7.39116,9.63,-1.22,0.83,2.0
1758089482.48889,1758089472.33151,0.0,0.0,0.0,7.39116,19.59516,-7.84952,9.63,-1.22,0.83,2.0
1758089482.49325,1758089472.34151,0.0,0.0,0.0,10.54242,17.76169,-7.04738,9.64,-1.32,1.01,2.0
1758089482.50886,1758089472.35151,0.0,0.0,0.0,13.86558,12.83425,-5.72958,9.64,-1.32,1.01,2.0
1758089482.514,1758089472.36151,0.0,0.0,0.0,19.07949,7.33386,-3.49504,9.23,-1.53,0.76,2.0
1758089482.53305,1758089472.37151,0.0,0.0,0.0,22.51724,4.52637,-1.83346,9.4,-1.86,0.49,2.0
1758089482.5346,1758089472.38151,0.0,0.0,0.0,25.8404,0.97403,-0.22918,9.4,-1.86,0.49,2.0
1758089482.55172,1758089472.39151,0.0,0.0,0.0,28.87707,-2.11994,1.43239,9.29,-2.11,0.3,2.0
1758089482.55346,1758089472.40151,0.0,0.0,0.0,33.17426,-6.99009,1.43239,9.29,-2.11,0.3,2.0
1758089482.56893,1758089472.41151,0.0,0.0,0.0,34.66395,-13.46451,2.7502,9.23,-2.08,0.29,2.0
1758089482.57327,1758089472.42151,0.0,0.0,0.0,33.9764,-17.13144,1.14592,9.23,-2.08,0.29,2.0
1758089482.58897,1758089472.43151,0.0,0.0,0.0,32.42941,-25.61122,0.0573,9.01,-1.82,0.24,2.0
1758089482.59247,1758089472.44151,0.0,0.0,0.0,31.79916,-19.19409,-0.17189,9.9,-1.28,-0.07,2.0
1758089482.60865,1758089472.45151,0.0,0.0,0.0,30.93972,-4.35448,-1.20321,9.9,-1.28,-0.07,2.0
1758089482.61306,1758089472.46151,0.0,0.0,0.0,29.33544,11.97482,-2.29183,11.27,-0.84,0.98,2.0
1758089482.62892,1758089472.47151,0.0,0.0,0.0,26.81443,24.35071,-6.41713,11.27,-0.84,0.98,2.0
1758089482.63245,1758089472.48151,0.0,0.0,0.0,26.98631,10.8862,-11.51645,9.41,-0.67,1.78,2.0
1758089482.64819,1758089472.49151,0.0,0.0,0.0,30.36677,-21.25674,-9.28192,9.41,-0.67,1.78,2.0
1758089482.66392,1758089472.50151,0.0,0.0,0.0,33.34615,-44.17505,-3.49504,6.69,-0.96,0.22,2.0
1758089482.66701,1758089472.51151,0.0,0.0,0.0,36.03905,-31.79916,1.71887,11.63,-1.71,-1.09,2.0
1758089482.68378,1758089472.52151,0.0,0.0,0.0,35.3515,-17.76169,2.57831,11.63,-1.71,-1.09,2.0
1758089482.68481,1758089472.53151,0.0,0.0,0.0,34.32018,-14.72501,2.92208,11.08,-1.81,-0.62,2.0
1758089482.69988,1758089472.54151,0.0,0.0,0.0,32.42941,-13.46451,3.20856,11.08,-1.81,-0.62,2.0
1758089482.70187,1758089472.55151,0.0,0.0,0.0,27.61657,-6.99009,1.14592,10.52,-1.83,1.85,2.0
1758089482.71829,1758089472.56151,0.0,0.0,0.0,22.63183,-2.23454,-2.00535,10.52,-1.83,1.85,2.0
1758089482.73398,1758089472.57151,0.0,0.0,0.0,17.93358,-0.17189,-4.98473,10.7,-1.06,1.04,2.0
1758089482.73841,1758089472.58151,0.0,0.0,0.0,13.12073,2.00535,-7.62034,10.7,-1.06,1.04,2.0
1758089482.75398,1758089472.59151,0.0,0.0,0.0,7.21927,1.14592,-9.39651,11.08,0.14,1.15,2.0
1758089482.76027,1758089472.60151,0.0,0.0,0.0,3.83882,-5.55769,-9.11003,11.31,1.04,1.17,2.0
1758089482.76397,1758089472.61151,0.0,0.0,0.0,2.57831,-16.95955,-6.24524,11.31,1.04,1.17,2.0
1758089482.78023,1758089472.62151,0.0,0.0,0.0,-0.17189,-23.37668,0.11459,12.15,0.82,2.16,2.0
1758089482.78518,1758089472.63151,0.0,0.0,0.0,-3.20856,-21.88699,2.23454,12.15,0.82,2.16,2.0
1758089482.80024,1758089472.64151,0.0,0.0,0.0,-6.18794,-22.40265,1.66158,13.91,0.21,2.28,2.0
1758089482.80355,1758089472.65151,0.0,0.0,0.0,-7.62034,-25.55392,-0.68755,13.91,0.21,2.28,2.0
1758089482.81918,1758089472.66151,0.0,0.0,0.0,-6.18794,-28.70519,-6.53172,12.18,-0.62,1.89,2.0
1758089482.82338,1758089472.67151,0.0,0.0,0.0,-3.32316,-29.50733,-10.25595,10.47,-1.18,1.18,2.0
1758089482.83902,1758089472.68151,0.0,0.0,0.0,0.80214,-28.41871,-13.17803,10.47,-1.18,1.18,2.0
1758089482.84338,1758089472.69151,0.0,0.0,0.0,6.58902,-26.24147,-14.49583,9.04,-1.04,1.22,2.0
1758089482.85915,1758089472.70151,0.0,0.0,0.0,16.84496,-22.74642,-13.80828,9.04,-1.04,1.22,2.0
1758089482.86107,1758089472.71151,0.0,0.0,0.0,24.35071,-22.57454,-11.22997,7.96,-0.83,2.57,2.0
1758089482.87804,1758089472.72151,0.0,0.0,0.0,30.53865,-21.37133,-8.0787,7.96,-0.83,2.57,2.0
1758089482.89402,1758089472.73151,0.0,0.0,0.0,35.40879,-18.22006,-3.26586,7.77,-0.53,2.86,2.0
1758089482.89597,1758089472.74151,0.0,0.0,0.0,39.76327,-13.12073,3.32316,8.97,-0.01,2.24,2.0
1758089482.91269,1758089472.75151,0.0,0.0,0.0,40.39353,-5.4431,7.96411,8.97,-0.01,2.24,2.0
1758089482.91386,1758089472.76151,0.0,0.0,0.0,38.61736,2.6929,9.4538,11.0,0.56,2.08,2.0
1758089482.93207,1758089472.77151,0.0,0.0,0.0,35.58068,10.02676,10.02676,11.0,0.56,2.08,2.0
1758089482.93378,1758089472.78151,0.0,0.0,0.0,28.93437,17.58981,7.62034,11.24,1.25,1.69,2.0
1758089482.94908,1758089472.79151,0.0,0.0,0.0,24.12152,20.74107,5.55769,11.24,1.25,1.69,2.0
1758089482.95268,1758089472.80151,0.0,0.0,0.0,19.99623,22.11617,1.94806,10.52,1.89,1.45,2.0
1758089482.96882,1758089472.81151,0.0,0.0,0.0,12.54778,28.13223,-0.34377,10.52,1.89,1.45,2.0
1758089482.97326,1758089472.82151,0.0,0.0,0.0,9.05273,26.81443,-1.20321,10.58,2.18,2.08,2.0
1758089482.9891,1758089472.83151,0.0,0.0,0.0,5.61499,22.68913,-1.83346,9.29,2.09,1.7,2.0
1758089482.99269,1758089472.84151,0.0,0.0,0.0,2.6929,21.6578,-2.6929,9.29,2.09,1.7,2.0
1758089483.00828,1758089472.85151,0.0,0.0,0.0,-0.17189,17.58981,-4.29718,9.24,1.85,1.85,2.0
1758089483.02487,1758089472.86151,0.0,0.0,0.0,-1.20321,10.94349,-5.27121,9.24,1.85,1.85,2.0
1758089483.02805,1758089472.87151,0.0,0.0,0.0,-1.83346,4.98473,-6.47442,8.36,1.4,1.17,2.0
1758089483.04304,1758089472.88151,0.0,0.0,0.0,-2.34913,1.3751,-7.21927,8.36,1.4,1.17,2.0
1758089483.04588,1758089472.89151,0.0,0.0,0.0,-2.86479,-0.40107,-8.36518,8.68,0.97,0.98,2.0
1758089483.06331,1758089472.90151,0.0,0.0,0.0,-3.38045,0.0,-8.70896,9.01,0.67,0.72,2.0
1758089483.06429,1758089472.91151,0.0,0.0,0.0,-4.1253,2.57831,-8.99544,9.01,0.67,0.72,2.0
1758089483.08326,1758089472.92151,0.0,0.0,0.0,-4.1253,6.18794,-8.99544,9.36,0.5,0.82,2.0
1758089483.08463,1758089472.93151,0.0,0.0,0.0,-3.89611,8.65166,-8.25059,9.36,0.5,0.82,2.0
1758089483.10274,1758089472.94151,0.0,0.0,0.0,-3.09397,9.4538,-6.58902,9.12,0.34,0.66,2.0
1758089483.10369,1758089472.95151,0.0,0.0,0.0,-2.06265,11.17268,-4.46907,9.12,0.34,0.66,2.0
1758089483.11936,1758089472.96151,0.0,0.0,0.0,-1.14592,12.83425,-2.11994,9.49,0.19,0.66,2.0
1758089483.12334,1758089472.97151,0.0,0.0,0.0,0.0,15.0115,0.85944,9.91,0.13,0.62,2.0
1758089483.1381,1758089472.98151,0.0,0.0,0.0,0.34377,16.272,2.7502,9.91,0.13,0.62,2.0
1758089483.15412,1758089472.99151,0.0,0.0,0.0,0.45837,17.36062,4.29718,10.21,0.18,0.69,2.0
1758089483.1585,1758089473.00151,0.0,0.0,0.0,-0.17189,18.62113,4.98473,10.21,0.18,0.69,2.0
1758089483.174,1758089473.01151,0.0,0.0,0.0,-1.48969,17.13144,5.78687,10.12,0.39,0.85,2.0
1758089483.17526,1758089473.02151,0.0,0.0,0.0,-2.63561,18.27736,5.72958,10.12,0.39,0.85,2.0
1758089483.19258,1758089473.03151,0.0,0.0,0.0,-4.0107,22.74642,5.50039,10.24,0.74,0.77,2.0
1758089483.1937,1758089473.04151,0.0,0.0,0.0,-5.55769,29.22085,5.21392,10.24,0.74,0.77,2.0
1758089483.21184,1758089473.05151,0.0,0.0,0.0,-6.47442,32.08564,5.21392,10.18,0.97,0.86,2.0
1758089483.21431,1758089473.06151,0.0,0.0,0.0,-7.10468,32.54401,5.50039,9.62,0.9,1.02,2.0
1758089483.25383,1758089473.07151,0.0,0.0,0.0,-8.25059,30.02299,5.72958,9.62,0.9,1.02,2.0
1758089483.28346,1758089473.08151,0.0,0.0,0.0,-9.91217,21.25674,6.53172,8.92,0.82,0.9,2.0
1758089483.28486,1758089473.09151,0.0,0.0,0.0,-11.80293,13.12073,6.70361,8.92,0.82,0.9,2.0
1758089483.28847,1758089473.10151,0.0,0.0,0.0,-15.35527,5.4431,5.21392,8.7,1.0,0.72,2.0
1758089483.28906,1758089473.11151,0.0,0.0,0.0,-19.76705,-2.46372,3.66693,8.7,1.0,0.72,2.0
1758089483.29429,1758089473.12151,0.0,0.0,0.0,-25.55392,-12.54778,1.48969,8.69,1.35,0.54,2.0
1758089483.29498,1758089473.13151,0.0,0.0,0.0,-29.8511,-19.59516,0.0,8.74,1.64,0.4,2.0
1758089483.29661,1758089473.14151,0.0,0.0,0.0,-33.74722,-25.21014,-1.60428,8.74,1.64,0.4,2.0
1758089483.31535,1758089473.15151,0.0,0.0,0.0,-37.01308,-32.48671,-3.26586,8.84,1.75,0.08,2.0
1758089483.3191,1758089473.16151,0.0,0.0,0.0,-38.56006,-46.00851,-4.0107,8.84,1.75,0.08,2.0
1758089483.33422,1758089473.17151,0.0,0.0,0.0,-38.50277,-48.70141,-3.49504,9.07,1.37,-0.48,2.0
1758089483.33543,1758089473.18151,0.0,0.0,0.0,-37.87251,-48.8733,-2.23454,9.07,1.37,-0.48,2.0
1758089483.35253,1758089473.19151,0.0,0.0,0.0,-37.18496,-46.40959,-0.97403,10.03,0.92,-0.44,2.0
1758089483.35571,1758089473.20151,0.0,0.0,0.0,-37.35685,-33.17426,2.06265,10.94,0.53,0.0,2.0
1758089483.37289,1758089473.21151,0.0,0.0,0.0,-38.15899,-17.24603,5.61499,10.94,0.53,0.0,2.0
1758089483.37382,1758089473.22151,0.0,0.0,0.0,-39.01843,-21.42862,8.02141,10.46,0.37,0.39,2.0
1758089483.39185,1758089473.23151,0.0,0.0,0.0,-46.00851,-24.80907,7.04738,10.46,0.37,0.39,2.0
1758089483.39363,1758089473.24151,0.0,0.0,0.0,-49.56085,-15.41257,7.67763,10.25,0.81,-0.58,2.0
1758089483.41149,1758089473.25151,0.0,0.0,0.0,-53.45696,-15.24068,8.59437,10.25,0.81,-0.58,2.0
1758089483.41272,1758089473.26151,0.0,0.0,0.0,-55.86338,-14.09476,10.48513,10.68,1.3,0.23,2.0
1758089483.42825,1758089473.27151,0.0,0.0,0.0,-55.11855,-17.93358,13.23533,10.68,1.3,0.23,2.0
1758089483.44429,1758089473.28151,0.0,0.0,0.0,-52.71212,-26.69983,13.98017,12.08,1.09,1.91,2.0
1758089483.44536,1758089473.29151,0.0,0.0,0.0,-48.58683,-41.48215,12.43318,13.17,0.14,3.68,2.0
1758089483.46265,1758089473.30151,0.0,0.0,0.0,-43.20102,-55.51962,8.136,13.17,0.14,3.68,2.0
1758089483.46382,1758089473.31151,0.0,0.0,0.0,-29.73651,-58.90006,0.57296,15.41,-1.98,3.2,2.0
1758089483.47951,1758089473.32151,0.0,0.0,0.0,-18.79302,-59.53032,-3.66693,15.41,-1.98,3.2,2.0
1758089483.4955,1758089473.33151,0.0,0.0,0.0,-9.05273,-57.29578,-6.35983,14.91,-3.95,1.61,2.0
1758089483.49732,1758089473.34151,0.0,0.0,0.0,-2.23454,-53.05589,-6.07335,14.91,-3.95,1.61,2.0
1758089483.51306,1758089473.35151,0.0,0.0,0.0,1.60428,-49.79003,-2.6929,11.33,-2.67,0.84,2.0
1758089483.51428,1758089473.36151,0.0,0.0,0.0,-0.17189,-46.98254,-0.40107,8.27,-0.76,1.21,2.0
1758089483.52914,1758089473.37151,0.0,0.0,0.0,-4.69825,-42.22699,1.03132,8.27,-0.76,1.21,2.0
1758089483.54554,1758089473.38151,0.0,0.0,0.0,-11.00079,-36.55471,2.40642,7.36,0.22,2.26,2.0
1758089483.5465,1758089473.39151,0.0,0.0,0.0,-21.94428,-25.49662,2.97938,7.36,0.22,2.26,2.0
1758089483.56154,1758089473.4015,0.0,0.0,0.0,-28.64789,-18.73572,2.63561,7.28,0.68,2.48,2.0
1758089483.56326,1758089473.4115,0.0,0.0,0.0,-33.63263,-12.14671,3.20856,7.28,0.68,2.48,2.0
1758089483.57828,1758089473.4215,0.0,0.0,0.0,-36.7266,-5.21392,4.52637,8.44,0.53,1.93,2.0
1758089483.5945,1758089473.4315,0.0,0.0,0.0,-37.52874,6.47442,5.15662,10.53,-0.36,1.52,2.0
1758089483.59792,1758089473.4415,0.0,0.0,0.0,-35.2369,15.06879,5.27121,10.53,-0.36,1.52,2.0
1758089483.61331,1758089473.4515,0.0,0.0,0.0,-30.65324,23.0329,4.81285,11.83,-1.87,1.31,2.0
1758089483.61534,1758089473.4615,0.0,0.0,0.0,-21.7151,33.34615,3.03668,11.83,-1.87,1.31,2.0
1758089483.63182,1758089473.4715,0.0,0.0,0.0,-15.41257,37.92981,1.48969,11.27,-2.87,0.9,2.0
1758089483.63307,1758089473.4815,0.0,0.0,0.0,-9.62569,41.08107,0.45837,11.27,-2.87,0.9,2.0
1758089483.64856,1758089473.4915,0.0,0.0,0.0,-4.69825,41.59674,-0.17189,10.4,-2.62,0.66,2.0
1758089483.66448,1758089473.5015,0.0,0.0,0.0,-0.34377,39.4195,0.0,10.4,-2.62,0.79,2.0
1758089483.66788,1758089473.5115,0.0,0.0,0.0,0.80214,37.12767,0.40107,9.71,-1.9,0.79,2.0
1758089483.6833,1758089473.5215,0.0,0.0,0.0,0.85944,34.0337,1.20321,9.53,-1.31,0.94,2.0
1758089483.6885,1758089473.5315,0.0,0.0,0.0,0.45837,31.2262,2.34913,9.53,-1.31,0.94,2.0
1758089483.70327,1758089473.5415,0.0,0.0,0.0,-0.17189,28.87707,4.23989,9.38,-1.12,0.85,2.0
1758089483.70866,1758089473.5515,0.0,0.0,0.0,-0.51566,27.10091,5.21392,9.38,-1.12,0.85,2.0
1758089483.72332,1758089473.5615,0.0,0.0,0.0,-0.74485,24.29341,5.78687,9.03,-1.2,0.81,2.0
1758089483.72864,1758089473.5715,0.0,0.0,0.0,-1.03132,21.31403,5.4431,9.03,-1.2,0.81,2.0
1758089483.74337,1758089473.5815,0.0,0.0,0.0,-0.74485,19.82434,3.60963,8.88,-1.29,0.8,2.0
