time,hip_angle_l,hip_angle_l_velocity,hip_angle_l_velocity_filt,hip_angle_l_torque_estimated,hip_angle_l_torque_desired,hip_angle_l_torque_measured,hip_angle_l_torque_interaction,knee_angle_l,knee_angle_l_velocity,knee_angle_l_velocity_filt,knee_angle_l_torque_estimated,knee_angle_l_torque_desired,knee_angle_l_torque_measured,knee_angle_l_torque_interaction,thigh_imu_l_accel_x,thigh_imu_l_accel_y,thigh_imu_l_accel_z,thigh_imu_l_gyro_x,thigh_imu_l_gyro_y,thigh_imu_l_gyro_z,shank_imu_l_accel_x,shank_imu_l_accel_y,shank_imu_l_accel_z,shank_imu_l_gyro_x,shank_imu_l_gyro_y,shank_imu_l_gyro_z,foot_imu_l_accel_x,foot_imu_l_accel_y,foot_imu_l_accel_z,foot_imu_l_gyro_x,foot_imu_l_gyro_y,foot_imu_l_gyro_z,insole_l_force_y,insole_l_cop_x,insole_l_cop_z,hip_angle_r,hip_angle_r_velocity,hip_angle_r_velocity_filt,hip_angle_r_torque_estimated,hip_angle_r_torque_desired,hip_angle_r_torque_measured,hip_angle_r_torque_interaction,knee_angle_r,knee_angle_r_velocity,knee_angle_r_velocity_filt,knee_angle_r_torque_estimated,knee_angle_r_torque_desired,knee_angle_r_torque_measured,knee_angle_r_torque_interaction,thigh_imu_r_accel_x,thigh_imu_r_accel_y,thigh_imu_r_accel_z,thigh_imu_r_gyro_x,thigh_imu_r_gyro_y,thigh_imu_r_gyro_z,shank_imu_r_accel_x,shank_imu_r_accel_y,shank_imu_r_accel_z,shank_imu_r_gyro_x,shank_imu_r_gyro_y,shank_imu_r_gyro_z,foot_imu_r_accel_x,foot_imu_r_accel_y,foot_imu_r_accel_z,foot_imu_r_gyro_x,foot_imu_r_gyro_y,foot_imu_r_gyro_z,insole_r_force_y,insole_r_cop_x,insole_r_cop_z
65,-49.3307023339086,62.6409902728747,39.4142758460538,0.569057517478626,3.74827146074375,0.486791633257492,0.299458885974847,-5.59856128276565,-74.9118141875506,8.66007181341721,-0.481496984730062,-3.63836635982977,-1.55969260192273,-0.546669888887771,9.09459699486342,8.54444985838413,-2.4039923671451,-49.8178216701011,-65.4800027973503,-38.9535156826454,1.34833877394269,8.06678099947194,2.17016873889876,-38.1494048814949,-41.9117933801178,29.1427392460548,-49.3008433631273,-4.41140660551871,17.3706813480294,35.2215213589762,63.7015449523376,188.702577885134,0,0,0,-0.761577335377306,39.8207778930664,38.5489674764375,-0.61398408027287,-0.157098346516209,0.531805911044576,0.602938665205393,-13.8470224731747,-46.3618301591941,-28.3441700008072,-0.451777723027326,-4.37327278920805,-3.20644488728834,-3.00500111867573,2.95278311170853,12.56649776775,-3.07166122605733,-5.85963198248576,-110.23946326433,-77.4559766990199,0.969144784215816,14.8426470164658,2.06007080793047,-6.32122945918093,-69.5471362422221,-150.225260784764,-2.72913008930874,10.902204912856,-0.63324917531049,21.7444180645663,-14.5324157673228,-110.950630776738,1367.41339830061,0.220704730023021,0.0959502226953791
65.005,-48.7640780647395,71.8509259959418,43.2491747859221,0.590572035977027,4.07999510354147,0.765589148652835,0.622823125158981,-6.35222838122482,-91.3452304904915,-11.4842102114949,-0.477276186655996,-3.78592369315453,-1.74555759233987,-0.756514698484163,8.66168642888004,8.85906509529066,-2.47698310210742,-38.9764136546256,-59.2653808337645,-36.4769888301564,1.4062279775335,8.51227617493158,3.19455595026643,-44.8580892911858,-24.802939114366,-10.3232175336971,-49.5443773322302,-7.61593250830377,16.1071962827247,-63.4418169349127,72.0262643129104,154.469924570395,0,0,0,-0.415000347306888,39.8207778930664,38.9932743072104,-0.630069995127113,-0.387677256340985,0.547294660246004,0.671934153142256,-14.2761177917381,-51.0570919600344,-31.0920225837666,-0.432265226707381,-4.50466312543313,-3.32150416707038,-3.06950072182914,4.03757644856225,13.0824667562767,-3.01377202246652,-3.92377724082877,-109.021397359467,-75.4641903596907,1.8928551197734,15.2503883634967,2.0424523546637,-8.89408295210547,-75.1527252533765,-157.807099580338,-2.60012924901797,10.9685138569443,-0.733918064043243,19.4011639145045,-15.1754891483378,-125.723703764111,1371.18878114349,0.225322431632148,0.0925764063678388
65.01,-48.1974808137026,81.0604225651026,47.0838908677444,0.612085528606722,4.41170292888531,1.04437337025095,0.95210515197331,-7.10585954285877,-107.777863205014,-31.6275317041723,-0.473055589840659,-3.93347399055838,-1.93141372022647,-0.973795550325715,8.22879650520859,9.17366533051701,-2.54997035667994,-28.135522585937,-53.0510551996638,-34.0005800649673,1.46411442081515,8.95775010801208,4.21889431616341,-51.5664538131974,-7.69490064368691,-49.7872924730533,-49.7878996889943,-10.8203056108837,14.8437714637038,-162.100450701895,80.3505867290163,120.238903558407,0,0,0,-0.0684398849368363,39.8207778930664,39.4375599522676,-0.646155142962719,-0.618245171558197,0.562782670903221,0.745135041765897,-14.7051926499105,-55.7521298784695,-33.8397441419033,-0.412753660794469,-4.63604719662215,-3.43655796052399,-3.13020801083279,5.12231805962269,13.5984111420479,-2.95588557918487,-1.98801480580642,-107.803389535183,-73.4724989939614,2.81652141039796,15.65811026835,2.02483474149103,-11.4668137646231,-80.7580469753353,-165.388576853941,-2.47113455982583,11.0348196392481,-0.83458215261918,17.0580214969504,-15.8185318659262,-140.496072332593,1374.9639839662,0.229939913057142,0.0892027509127154
65.015,-48.0419914627075,83.5877532958984,52.0182154082681,0.649967964665325,4.66325978157254,1.12087917327881,1.08411260133114,-7.31267597198487,-112.287414550781,-47.5940569637625,-0.463290009957581,-4.05178361983989,-1.98241758346558,-1.06254557612386,7.75571046321717,8.75941179877448,-2.04297228110411,-21.9115884870905,-46.0033731785401,-33.8563062836962,1.57518226361331,8.92136289397782,4.34136289397783,-55.1047591590849,-6.9430786846663,-81.5578171639416,-49.2869308853366,-10.1626065513334,11.6681972406343,-200.736122166255,66.7122429349632,78.3887302692834,0,0,0,0.02666552066803,39.8207778930664,39.6598153697368,-0.647249290457859,-0.953282892573105,0.567032992839813,0.810657245436083,-14.822942199707,-57.0405731201172,-37.2418885201809,-0.404227387304014,-4.72753152185235,-3.46813178062439,-3.10453506738446,5.58921291309033,13.7276615584205,-2.86773198503434,-1.7222733461551,-104.786014379625,-71.9140431508874,3.88962504778121,15.9074854918859,2.01999999999998,-14.4229186231403,-81.6478208834759,-170.894304593675,-2.79287764846335,11.2700030679709,-0.75118044449671,15.4279253538301,-15.0881245168766,-156.721874378945,1368.06814469889,0.234389326697446,0.0859698281398055
65.02,-48.0419914627075,83.5877532958984,57.36808258895,0.694038570993844,4.88448737064071,1.12087917327881,1.14343404688394,-7.31267597198487,-112.287414550781,-61.9798876812829,-0.451427984521833,-4.15902678696243,-1.98241758346558,-1.10552896175582,7.26745352190988,8.06953631951443,-1.31665971667187,-17.4341754696359,-38.6409827178226,-34.5940447982936,1.70635577023318,8.70274038294471,4.12274038294472,-57.4439300590277,-12.3771526214565,-110.416588407723,-48.5044318418535,-8.0443326351098,7.76966551962983,-216.668844052969,44.768615202179,33.6597785624934,0,0,0,0.02666552066803,39.8207778930664,39.7980853620112,-0.642673838090551,-1.32780860035575,0.567032992839813,0.874671977498413,-14.822942199707,-57.0405731201172,-40.8913090491803,-0.399856261619614,-4.80391993314956,-3.46813178062439,-3.0454308431661,5.82241025819231,13.7106575853402,-2.76813728556369,-2.08814366640256,-101.088324995485,-70.5195374220753,5.01917468811899,16.0969583347812,2.01999999999998,-17.5238195340901,-80.7541376422157,-175.614631512277,-3.28506656534041,11.5690397970624,-0.598171372354314,14.0676071830767,-13.8383326159342,-173.496292043559,1357.13701914724,0.238774885470527,0.0827903422801446
65.025,-48.0419914627075,83.5877532958984,62.7182048775036,0.738111278824738,5.10572550892393,1.12087917327881,1.20515445175705,-7.31267597198487,-112.287414550781,-76.3664043856764,-0.43956539344661,-4.26627506796446,-1.98241758346558,-1.15276087008716,6.77917329812005,7.37962794361238,-0.590312518098932,-12.9565489471974,-31.2782411822656,-35.3318184918769,1.83753553184835,8.48410744691941,3.90410744691943,-59.7832125020968,-17.8114856815092,-139.276735779074,-47.7218954849831,-5.92595770921014,3.87094789753711,-232.602325689904,22.8239410897405,-11.0713060398051,0,0,0,0.02666552066803,39.8207778930664,39.9363619476762,-0.638098167543262,-1.70235216735865,0.567032992839813,0.940449927383479,-14.822942199707,-57.0405731201172,-44.5409036004261,-0.39548492749853,-4.88031198702039,-3.46813178062439,-2.98565050824856,6.05561872328596,13.6936528014271,-2.66853783692994,-2.454031433139,-97.3904592874025,-69.1249651963995,6.14877819091637,16.2864402126698,2.01999999999998,-20.6248683111842,-79.8604117857611,-180.335183519189,-3.77727895219586,11.8680907856899,-0.445155003989891,12.7072241456899,-12.5884811187922,-190.271509594572,1346.20537234597,0.243160653368531,0.0796107048070243
65.03,-48.0419914627075,83.5877532958984,68.0680720581854,0.782181885153257,5.3269530979921,1.12087917327881,1.26764841808328,-7.31267597198487,-112.287414550781,-90.7522351031968,-0.427703368010863,-4.37351823508699,-1.98241758346558,-1.20339475427395,6.29091635681275,6.68975246435233,0.136000046333313,-8.47913592974272,-23.9158507215481,-36.0695570064742,1.96870903846821,8.2654849358863,3.68548493588632,-62.1223834020396,-23.2455596182994,-168.135507022855,-46.9393964414999,-3.80768379298651,-0.0275838234673935,-248.535047576618,0.880313356956318,-55.8002577465951,0,0,0,0.02666552066803,39.8207778930664,40.0746319399507,-0.633522715175954,-2.0768778751413,0.567032992839813,1.00686132702402,-14.822942199707,-57.0405731201172,-48.1903241294254,-0.391113801814129,-4.9567003983176,-3.46813178062439,-2.92649185634866,6.28881606838795,13.6766488283467,-2.56894313745929,-2.81990175338647,-93.6927699032621,-67.7304594675875,7.27832783125415,16.4759130555652,2.01999999999998,-23.725769222134,-78.9667285445009,-185.055510437791,-4.26946786907293,12.1671275147814,-0.292145931847495,11.3469059749366,-11.3386892178499,-207.045927259186,1335.27424679431,0.247546212141612,0.0764312189473634
65.035,-46.6309888162275,77.0038165469382,71.2967641957534,0.820403207706213,5.51776300179565,1.81578214462308,2.02403333384233,-8.48088760417088,-98.6575093479533,-97.8454295370024,-0.405066639897301,-4.46423817986693,-2.35039062332309,-1.62473437408332,6.6537994579946,7.18147425474256,0.210715321106714,-11.1506021893409,-12.4013112080589,-34.1618274437123,3.75706283481438,9.24896174450117,3.70464233944667,-67.0359047856915,-38.0725392479305,-182.19034038345,-33.1045487164234,-3.19802257460668,-1.19223599483034,-172.094330774688,-31.6019197569532,-116.186114685536,4.82964643599924,0,0,0.403167400399476,34.0453941328265,39.0860028856873,-0.623667216440892,-2.51721763569664,0.439657697817655,0.945272559315219,-15.8539241281616,-65.8191558614784,-52.5542969673474,-0.369733542947526,-4.97691975183253,-3.56861672612394,-2.96982804415024,6.09505086027604,13.4671548496881,-2.25149038885736,-3.41611497424193,-86.2625245190149,-60.9404324683499,8.46054578685324,16.7158178609693,2.09244469653998,-25.5643368836789,-77.3313657431722,-189.18686971251,-4.58183394256744,12.5420020096182,-0.426644149563327,13.3336604239818,-12.4614924457954,-229.97347293151,1318.92588391,0.252059081117147,0.0726910109482806
65.04,-44.3141914078863,66.1933140757164,73.1633467149633,0.854866125288753,5.68902891647662,2.95677887278318,3.22360979996611,-10.3990340290513,-76.2778709194765,-100.255981415148,-0.375514007835262,-4.54434262643562,-2.95458437675653,-2.28455763153497,7.56311111111113,8.43177777777778,-0.132919896640816,-18.4116502376623,1.77812868855077,-30.5557788624111,6.60923514211885,11.0041447028424,3.87645994832043,-73.6018502568029,-58.9288799566147,-186.739509362937,-10.890792101483,-3.5569828550945,-0.601565823628921,-36.3531319393976,-70.847704537956,-186.619437725846,12.7596899224806,0,0,1.02136509221346,24.5624961657117,37.3739488742866,-0.610422544145161,-2.99977747869604,0.230513686550064,0.799933135726202,-17.5467460841295,-80.2331598286789,-57.376691740779,-0.337434593833882,-4.96107533356792,-3.73360809725384,-3.08112969211924,5.62717829457365,13.1340930232558,-1.79419121447027,-4.16016843717103,-76.4364500590168,-50.6868536064057,9.67648578811371,16.9880826873385,2.21139534883721,-26.5923054837783,-75.2199508724918,-192.939770950968,-4.77872399963458,12.9655372314059,-0.745719980700688,17.469178475274,-15.1074836829528,-256.849712787796,1299.1007751938,0.256653333649771,0.0685910956727134
65.045,-41.9972835232966,55.3822961067848,75.0300182419705,0.889330686232009,5.86030299795529,4.09783000925609,4.41840861030169,-12.3172719205487,-53.8971653202197,-102.666648240214,-0.345959966558971,-4.62445089277669,-3.5588069411076,-2.94641084045854,8.47246612466127,9.6821409214092,-0.476571500598719,-25.6730445283207,15.9582447303084,-26.9495583270504,9.46154345496943,12.7594113569043,4.04828575029937,-80.1681088243555,-79.7862151977822,-191.288895269085,11.32402377418,-3.91596025256674,-0.0108674863805209,99.39453970114,-110.095360750211,-257.056119371995,20.6901115522783,0,0,1.63959226272143,15.0791460075728,35.6618132237647,-0.597177240278581,-3.48236033251242,0.0213597022715878,0.65118348295489,-19.2396487621399,-94.6478511261911,-62.1993164696144,-0.305134104548138,-4.94523015976383,-3.89860733598048,-3.19737566351535,5.15928341841559,12.8010153148043,-1.33687023381862,-4.90425738021377,-66.6099070436584,-40.4327858035973,10.8924837713493,17.2603604966282,2.33035167328419,-27.6203231024558,-73.1084353192082,-196.69285114614,-4.97562344538404,13.3890926494275,-1.06481102693657,21.6048937283234,-17.753601093933,-283.727234234843,1279.2747211193,0.261247805258859,0.0644909848931036
65.05,-39.6804861149554,44.571793635563,76.8966007611803,0.923793603814548,6.03156891263626,5.23882673741619,5.6064228819041,-14.2354183454292,-31.5175268917429,-105.077200118359,-0.316407334496931,-4.70455533934538,-4.16300069454104,-3.61017682733824,9.3817777777778,10.9324444444444,-0.820206718346248,-32.9340925766421,30.1376846269181,-23.3435097457492,12.3137157622739,14.5145943152455,4.22010335917313,-86.7340542954669,-100.642555906466,-195.838064248572,33.5377803891204,-4.27492053305456,0.5798026848209,235.135738536431,-149.341145531213,-327.489442412305,28.6201550387597,0,0,2.25778995453541,5.59624804045803,33.9497592123641,-0.58393256798285,-3.96492017551182,-0.187784308996003,0.497608061720738,-20.9324707181078,-109.061855093392,-67.021711243046,-0.272835155434494,-4.92938574149922,-4.06359870711038,-3.32002023684899,4.69141085271319,12.4679534883721,-0.879571059431534,-5.64831084314288,-56.7838325836603,-30.1792069416531,12.1084237726098,17.5326253229974,2.44930232558142,-28.6482917025552,-70.9970204485278,-200.445752384598,-5.17251350245118,13.8126278712152,-1.38388685807393,25.7404117796156,-20.3995923310903,-310.603474091128,1259.4496124031,0.265842057791483,0.0603910696175363
65.055,-39.1255189399939,33.847494438732,72.116362126533,0.944941666221473,6.17859516470632,5.52404560841322,5.93013734134024,-15.1128618229085,-47.2393525407767,-100.387813543396,-0.304332641036317,-4.73398770058121,-3.98050198573251,-3.48931463247419,8.83185946029858,13.4133605857546,0.238234586427266,-39.3876842181586,27.7993431885397,-22.3591571744746,11.6872835114227,17.0609510750045,1.18886083154381,-67.2874593824893,-108.382781848712,-170.108941969144,37.4030227661133,-4.33738040924072,0.682580590248108,258.755004882812,-156.169998168945,-339.744995117188,30,0,0,2.13025217596696,-10.8461389504461,27.3989900174423,-0.577493584379929,-4.41376320334532,-0.464523994017372,0.270197606873929,-22.3535721693285,-124.111256526712,-75.7750253006614,-0.241840407686908,-4.83200410292905,-4.15140957044743,-3.37331466360408,3.80549856407338,12.5310113580503,-1.19440738920081,-6.87612046515653,-51.4470532600853,-22.5685889333833,12.9004063284262,18.4293204574267,2.77028744405063,-28.5643328986106,-65.3703111190326,-204.119899473957,-5.53309382277317,14.4096182841711,-1.29878816844708,20.6324075019483,-22.2796429112017,-334.935378743286,1240.31334247497,0.269508224031459,0.0567574740111194
65.06,-38.9417041917933,23.1419725926745,65.9362810770736,0.963283802714974,6.32050697036877,5.62898285269093,6.06343613949234,-15.7710359764519,-70.9861461857226,-94.2031325027615,-0.295940281620041,-4.75274455112369,-3.63230112972014,-3.20508592245867,7.97459367157384,16.1533556699697,1.59195493001476,-45.6708168156255,21.9817518656186,-21.9271080779537,10.3281374349952,19.7738174950195,-2.51691469819669,-42.3625804963761,-113.359719503209,-138.003340114497,37.4030227661133,-4.33738040924072,0.682580590248108,258.755004882812,-156.169998168945,-339.744995117188,30,0,0,1.84563645514562,-28.7535570018372,19.8293487486608,-0.572488555462897,-4.85547804890276,-0.7554863814484,0.0210052730279182,-23.7173550716101,-139.293632384349,-85.355861793994,-0.211122172410171,-4.71745269380779,-4.22295769154586,-3.41951282516186,2.83157951928799,12.6775061447311,-1.67187187912344,-8.20575993274413,-47.056228721024,-15.5151362413442,13.6030387312101,19.4574968306124,3.13381154433263,-28.2461572073742,-59.0034480765035,-207.777245314273,-5.92813383196524,15.0431116701779,-1.12855712717333,13.5775981111888,-23.9982435399109,-358.729927795115,1221.32327753486,0.272978682077235,0.0532223159771978
65.065,-38.7578806784051,12.4359402548977,59.7559053310785,0.981626813851386,6.46242554308122,5.73392510089044,6.18524223711377,-16.4292415149627,-94.734072194106,-88.0181565462416,-0.28754752201496,-4.77150229608467,-3.2840836697854,-2.92355052329087,7.11728700421723,18.8934814105715,2.94573982561901,-51.9542490236306,16.1638831314476,-21.4950383792156,8.96892654782542,22.4868132777936,-6.22286693746606,-17.4365130699508,-118.336894482471,-105.896207307495,37.4030227661133,-4.33738040924072,0.682580590248108,258.755004882812,-156.169998168945,-339.744995117188,30,0,0,1.5610071624526,-46.661828966635,12.259346522306,-0.567483287881571,-5.29721395758764,-1.04646264339125,-0.236943645582529,-25.0812030057405,-154.476732212033,-94.9371551485394,-0.180402472337511,-4.60289582231426,-4.29450922440916,-3.47608500944994,1.85761403327209,12.8240079170009,-2.14935913689168,-9.53546280405437,-42.6651948059415,-8.46134720613171,14.3057046389486,20.4857222322838,3.49735297922435,-27.9279663439625,-52.6362814307585,-211.434765554754,-6.32319267859993,15.6766352642524,-0.95831796844972,6.52245231256171,-25.7169261199161,-382.525611487592,1202.33230705544,0.27644930561145,0.0496869893696252
65.07,-38.5997917556763,3.22871160507202,53.4742235094734,0.999411350294067,6.58931843169873,5.82417583465576,6.27980419828692,-16.9953007888794,-115.157379150391,-82.7714509430591,-0.272149030051104,-4.77557195883632,-2.98461532592773,-2.69389587121623,6.24865429212104,21.2196245472143,4.29000268317459,-58.1212305123799,9.31046625008845,-19.804687132143,7.75499932920637,24.7873745136746,-9.33912394350003,4.25868441158384,-122.35929399383,-79.8874467417056,35.9507210582068,-2.43059456879157,-0.192370524675252,253.294595243128,-153.783837703111,-341.945106209372,50.7003085650766,-0.0103153898410416,-0.000836258652625247,1.31622488498688,-62.0630111694336,4.55191780131482,-0.563436296648952,-5.71112512366682,-1.29670333862305,-0.46389645513692,-26.2541174316406,-167.534255981445,-104.400689770201,-0.149294501545252,-4.48522149334448,-4.35604381561279,-3.53403716302896,0.867841481878972,12.921312072369,-2.45509218621232,-11.0234619245933,-36.2503078907338,1.00290558940286,14.8368739099604,21.4248445675298,3.73884268930755,-27.8605740621252,-45.711861122291,-214.945182908982,-6.66920936058057,16.2497595831957,-0.808880401107856,-0.137602564332199,-27.5434736221161,-406.236507171947,1182.70932594821,0.279698000126125,0.0464938714104512
65.075,-38.5997917556763,3.22871160507202,46.5678609173315,1.01377003834161,6.62391955014672,5.82417583465576,6.27086581643237,-16.9953007888794,-115.157379150391,-83.2887648925818,-0.213694051778956,-4.68938261611436,-2.98461532592773,-2.76724837647793,5.31012543841155,21.002577189183,5.57620924928609,-63.5747066549591,-3.90887901272424,-10.3814376373678,7.43344768767849,24.5542495735669,-8.83268010809362,6.1071101287001,-120.515830493404,-91.3452050794814,25.5733202342836,11.1943160430993,-6.44432104671024,214.277317231724,-136.733562647068,-357.665968160068,198.6140636679,-0.0840238585791418,-0.00681173274559175,1.31622488498688,-62.0630111694336,-4.00264266958507,-0.565276673468815,-5.95419024324841,-1.29670333862305,-0.451112065446394,-26.2541174316406,-167.534255981445,-113.143804299297,-0.115789951989966,-4.34834984329449,-4.35604381561279,-3.54265419056021,-0.219405006037154,12.716322900895,-1.70547492190045,-13.4847214029548,-17.3963655761479,25.2830318547717,14.3143524924775,21.8167356306419,3.23038915614159,-29.334352419128,-35.3606771064399,-217.552827779706,-6.71397273250384,16.4519168827367,-0.787220709266468,-4.37203570033941,-30.0334890235354,-429.434446938477,1159.19586216149,0.281584015560079,0.0454025872041078
65.08,-38.5997917556763,3.22871160507202,39.6618276386834,1.02812804172923,6.65851901872257,5.82417583465576,6.24837467201633,-16.9953007888794,-115.157379150391,-83.8060541752176,-0.155241860793585,-4.60319738312647,-2.98461532592773,-2.844467989372,4.37164133622093,20.7855401805393,6.86235448569293,-69.0279227614835,-17.1275939424613,-0.958637467859282,7.11191137857677,24.3211357494682,-8.32626042125842,7.95544770802706,-118.672454894155,-102.802417081269,15.1964142320667,24.8185769834942,-12.6959734593364,175.261899666534,-119.684100592888,-373.386080498807,346.520765854687,-0.157728812704008,-0.0127869219122712,1.31622488498688,-62.0630111694336,-12.5567952365907,-0.567116962534682,-6.19724377284718,-1.29670333862305,-0.449323762941698,-26.2541174316406,-167.534255981445,-121.886501933746,-0.082287000019534,-4.21148471964399,-4.35604381561279,-3.56400585197326,-1.30659965118731,12.5113435038427,-0.955893401307084,-15.945863522005,1.4566777329872,49.5620003799981,13.7918559901873,22.2086080073596,2.7219598673745,-30.8080605025108,-25.0099866622089,-220.160348311079,-6.75873396999206,16.6540645428871,-0.765562050216033,-8.60626692746163,-32.5233856944854,-452.631280566358,1135.68351955843,0.283469941063867,0.0443113550330593
65.085,-38.5997917556763,3.22871160507202,32.7554650465416,1.04248672977678,6.69312013717055,5.82417583465576,6.21244269490809,-16.9953007888794,-115.157379150391,-84.3233681247402,-0.0967868825214371,-4.51700804040451,-2.98461532592773,-2.92574197622221,3.43311248251144,20.568492822508,8.14856105180444,-74.4813989040628,-30.346939205274,8.46461202691598,6.79035973704889,24.0880108093605,-7.819816585852,9.80387342514332,-116.828991393729,-114.260175419045,4.81901340814348,38.443487595385,-18.9479239813714,136.24462165513,-102.633825536846,-389.106942449503,494.43452095751,-0.231437281442108,-0.0187623960052377,1.31622488498688,-62.0630111694336,-21.1113557074906,-0.568957339354545,-6.44030889242877,-1.29670333862305,-0.458723657582438,-26.2541174316406,-167.534255981445,-130.629616462842,-0.0487824504642481,-4.074613069594,-4.35604381561279,-3.59832157473108,-2.39384613910343,12.3063543323687,-0.206276136995218,-18.4071230003665,20.3106200475731,73.8421266453669,13.2693345727045,22.6004990704717,2.21350633420854,-32.2818388595136,-14.6588026463578,-222.767993181803,-6.80349734191533,16.8562218424281,-0.743902358374645,-12.8407000634688,-35.0134010959047,-475.829220332888,1112.1700557717,0.285355956497821,0.0432200708267159
65.09,-38.5997917556763,3.22871160507202,25.8491024543997,1.05684541782433,6.72772125561854,5.82417583465576,6.16360279611742,-16.9953007888794,-115.157379150391,-84.8406820742628,-0.0383319042492894,-4.43081869768256,-2.98461532592773,-3.01106140825788,2.49458362880195,20.3514454644767,9.43476761791594,-79.934875046642,-43.5662844680866,17.8878615216912,6.46880809552101,23.8548858692528,-7.31337275044559,11.6522991422596,-114.985527893303,-125.717933756821,-5.55838741577971,52.0683982072758,-25.1998745034064,97.2273436437263,-85.5835504808036,-404.8278044002,642.348276060333,-0.305145750180209,-0.0247378700982042,1.31622488498688,-62.0630111694336,-29.6659161783904,-0.570797716174408,-6.68337401201036,-1.29670333862305,-0.479186350347481,-26.2541174316406,-167.534255981445,-139.372730991938,-0.0152779009089623,-3.93774141954401,-4.35604381561279,-3.64549544134185,-3.48109262701956,12.1013651608947,0.543341127316647,-20.868382478728,39.164562362159,98.1222529107357,12.7468131552217,22.9923901335838,1.70505280104258,-33.7556172165163,-4.30761863050676,-225.375638052526,-6.8482607138386,17.0583791419691,-0.722242666533258,-17.075133199476,-37.5034164973239,-499.027160099418,1088.65659198497,0.287241971931774,0.0421287866203724
65.095,-38.6515468313711,0.760425007005367,18.7676069553301,1.06727096844403,6.75922926130169,5.8603105398971,6.13893404951059,-17.4503552365301,-119.677229031635,-87.0520833024233,0.0243888728049888,-4.3210443161316,-3.06120520094989,-3.17676730992313,1.7006177410554,19.9139983630837,10.011399953231,-82.8462782206081,-53.5461289317829,27.8095621192598,5.75233221607295,23.3597677137735,-6.76758385948501,11.3481061586612,-118.101376382662,-140.65758712177,-13.9498288013014,61.7535552148415,-28.6254630353076,63.6373730793119,-68.4261926076051,-412.631496317541,778.509678592772,-0.364604506698638,-0.0302776281977207,0.993976031962977,-66.3584707769938,-38.7968233137407,-0.572144306163185,-6.92742749034051,-1.41728327893925,-0.630845746169902,-26.7335847344531,-169.906375888479,-148.188589056232,0.0167509922324324,-3.78244310485407,-4.36821965085691,-3.71724471255621,-4.598643567958,11.8276887000806,1.30715969028505,-23.0991198888064,58.0583097322906,122.74077698835,12.1429064359394,23.2503032192688,1.132117728064,-35.4460115921778,6.98936902535952,-227.203100325362,-7.20647753794362,17.8141830357956,-0.805146894143173,-20.0911570056105,-38.4513095046104,-521.921128770005,1061.58354769143,0.288962058467245,0.0409504020276919
65.1,-38.9671640013251,-14.2918886116785,10.7912258442352,1.05764844118224,6.77497775986439,6.08067024862676,6.28785813888234,-20.2254066689613,-147.240558984953,-97.9005736757739,0.10887490284716,-4.09100163707218,-3.52827203984624,-3.73622940804413,1.6434020578377,18.3528275781433,6.97079507366124,-72.7990562469867,-47.0139210065159,40.2752483041412,3.02232675968508,21.5288658508068,-6.02105542131108,0.0697883556641017,-146.50067170348,-173.352263246175,-12.2193017562707,51.3566898222845,-17.6432723225171,57.7060137943557,-50.7179381632361,-380.075775227363,854.797256216385,-0.351435611027838,-0.0335977198130658,-0.971189116515432,-92.5534050281574,-50.8685971627517,-0.570973965610342,-7.17659058165644,-2.15261404611323,-1.40711807643069,-29.6575127003103,-184.372237676879,-157.377856692249,0.0412663118480349,-3.53316061372262,-4.44247135680039,-3.86265627724281,-5.87101138046612,11.2037652973731,2.14359848780109,-24.1553059282163,77.1604769864572,149.091609576682,11.1239223633954,22.8252724296516,0.230289578299156,-38.2412045818261,23.1113425504908,-225.053728098665,-9.16278221912177,21.3926934998185,-1.42114142127267,-16.896614848522,-31.5377480423044,-543.272111896714,1016.355912386,0.289836740710282,0.039327637569395
65.105,-39.2827661218241,-29.343484496545,2.81522506792527,1.04802637274781,6.79072550749735,6.30101945002719,6.42781963211377,-23.0003257796573,-174.802574646359,-108.748546764632,0.19335690437369,-3.86096992705144,-3.99531660776993,-4.29815161887357,1.58618910281393,16.7917312339231,3.9303351781121,-62.7523133512775,-40.4820245540662,52.7403400923897,0.292451477122145,19.698051290046,-5.2745625795723,-11.2079916675408,-174.898612871366,-206.045380402618,-10.4888572273113,40.9603201795554,-6.66160526940211,51.7749373321767,-33.0105280949134,-347.521606479409,931.081196248084,-0.338267343284546,-0.0369176531177293,-2.93626056076208,-118.747090236109,-62.9397953979038,-0.569803680862408,-7.42574179222225,-2.8879097507864,-2.19218167867928,-32.5813012456085,-198.837409695024,-166.566686159868,0.0657804625088588,-3.28389000903457,-4.51671952222766,-4.01849862385122,-7.14331852313768,10.579871644971,2.97999740172007,-25.2114416059038,96.2617333991564,175.441185688161,10.1049868786863,22.4002619066178,-0.6714955699327,-41.0362642893368,39.2325473376131,-222.904458359677,-11.1189936185585,24.9710333310709,-2.03710657616647,-13.7022250155876,-24.6245162367533,-564.622076952513,971.130433652922,0.290711381246175,0.0377049504887664
65.11,-39.5983832917781,-44.3957981152289,-5.16115604316966,1.03840384548602,6.80647400606004,6.52137915875685,6.56081762905953,-25.7753772120885,-202.365904599677,-119.597037137983,0.277842934415861,-3.63092724799202,-4.46238344666629,-4.86150972820548,1.52897341959622,15.2305604489828,0.889730298542384,-52.7050913776561,-33.9498166287991,65.2060262772711,-2.43755397926572,17.8671494270793,-4.52803414139837,-22.4863094705379,-203.297908192184,-238.740056527024,-8.7583301822806,30.5634547869984,4.32058544338832,45.8435780472205,-15.3022736505444,-314.965885389231,1007.3687738717,-0.325098447613746,-0.0402377447330744,-4.90142570924049,-144.942024487272,-75.0115692469148,-0.568633340309565,-7.67490488353818,-3.62324051796038,-2.98483201234456,-35.5052292114657,-213.303271483423,-175.755953795885,0.0902957821244613,-3.03460751790312,-4.59097122817114,-4.18332165040944,-8.4156863356458,9.95594824226361,3.81643619923612,-26.2676276453136,115.363900653323,201.792018276494,9.08600280614233,21.9752311170005,-1.57332371969754,-43.831457278985,55.3545208627444,-220.75508613298,-13.0752982997366,28.5495437950939,-2.65310110329597,-10.5076828584991,-17.7109547744473,-585.973060079223,925.902798347494,0.291586063489212,0.0360821860304695
65.115,-40.0545829683896,-43.1475747782975,-11.2111121028918,1.02188587980055,6.94799474457386,6.55700210405303,6.50431985550385,-28.3051131202404,-189.521249673807,-127.709624021027,0.359283374031532,-3.38917234100666,-4.83446934651767,-5.32998530169206,0.884494175667519,13.6370507172855,-0.540990329167876,-39.1699371307914,-32.7886878869074,69.9610030469789,-5.99487587172341,14.3796021216752,-3.50923583730396,-25.0923472265231,-223.316594689977,-254.616832223359,-7.41747759010815,23.2169538404619,7.39999637986146,42.7329845205306,-8.62420316111957,-280.05471703185,1053.57750150906,-0.314917294569748,-0.0412400622955837,-7.43364377069159,-161.926775578917,-88.0827756188043,-0.564647345742508,-7.87459668734348,-4.36257332042473,-3.78757748811647,-39.1157034720251,-222.727041871879,-184.304867019018,0.113244446985289,-2.75732497758712,-4.54091964452613,-4.23110742827312,-8.67181922093934,9.93911190167344,4.33571580853551,-24.0829716264861,113.386033525488,222.071587909311,7.54903137562128,21.2215985769878,-1.94757805376107,-44.6626401262236,70.1145719222256,-214.958013465563,-14.1605124115621,33.7748111352854,-3.48783162559908,-9.536746713625,-10.9064752067303,-601.526234325528,870.695914619267,0.292122802755671,0.0346469358937664
65.12,-40.6550626585629,-25.1750783574157,-15.2851639901168,0.998291682444217,7.21856994246546,6.40309082031642,6.25591157028985,-30.5834026819583,-135.217253228094,-133.015990975545,0.437606942824111,-3.13537747503371,-5.10914190594225,-5.69962535629323,-0.36257259545612,12.0102076724503,-0.320127531690257,-22.0548992112293,-37.1381088309112,66.8053451908171,-10.4013580262769,9.19201982970089,-2.21099353993551,-18.8009829864198,-234.738812536042,-253.240180640165,-6.47629670470434,18.9993799459775,2.37154896317517,42.5161618139801,-13.2623219800724,-242.723515716682,1068.93015938251,-0.307800545500593,-0.0398644687264579,-10.5478958533804,-169.463631742247,-102.180650389819,-0.557772139348043,-8.02355084439397,-5.1060835886012,-4.59901575481339,-43.4309146781933,-226.978598281298,-192.197610311554,0.13458796018629,-2.45128793964961,-4.36332956343997,-4.15672154560406,-7.88533218601903,10.545137870362,4.52964411851585,-18.5730400483407,89.7801166436205,236.124074843073,5.48046273583087,20.1307518333483,-1.78058423127801,-43.4788527744917,83.4787330643899,-205.417884498937,-14.3521030442634,40.6901357928617,-4.54706325883506,-10.8471094687191,-4.21325496091162,-611.132429812714,805.245110000899,0.292312868495708,0.0334039345103421
65.125,-41.2555137162887,-7.20343891233112,-19.3590216158556,0.974698610121133,7.48913223862152,6.24918687547375,6.00761011781825,-32.8615836088507,-80.9158461394502,-138.32210490856,0.515926776943374,-2.88159471066605,-5.38380136825834,-6.0661576443855,-1.60957990316325,10.3834421997611,-0.0992752655304649,-4.94067738159283,-41.4873223831094,63.6498378047038,-14.8076300681967,4.00468489526476,-0.912813146166968,-12.5099187350749,-246.160485740783,-251.863594699332,-5.53516069727522,14.7820071564851,-2.65665868394137,42.2993494461052,-17.9002196413475,-205.394094451167,1084.28208520093,-0.30068413577671,-0.0384889407492436,-13.6619994403567,-177.000128528494,-116.277852937165,-0.550897260781462,-8.17249789891932,-5.84955840425678,-5.41330722305732,-47.7459201237661,-231.229951965349,-200.089977257377,0.155930455672568,-2.14526549436125,-4.18574795031495,-4.08569997334553,-7.09888265286464,11.151134942142,4.72356318148542,-13.0633711981935,66.1753253538226,250.175891717377,3.41199273082207,19.0399571041444,-1.61359837149867,-42.2951218688475,96.8422569682775,-195.878210430698,-14.5436845414205,47.6051307096095,-5.60624438512687,-12.157409742278,2.47964613459975,-620.738167251288,739.797426248668,0.292502925172912,0.032160992396486
65.13,-41.855993406462,10.7690575085507,-23.4330735030806,0.951104412764798,7.75970743651311,6.09527559173715,5.76189223765539,-35.1398731705686,-26.6118496937374,-143.628471863078,0.594250345735953,-2.6277998446931,-5.65847392768292,-6.42784572052878,-2.85664667428688,8.75659915492594,0.121587531947154,12.1743605379693,-45.8367433271132,60.4941799485421,-19.2141122227502,-1.1828973967096,0.385429151201485,-6.21855449497161,-257.582703586848,-250.486943116138,-4.59397981187141,10.5644332620007,-7.68510610062766,42.0825267395546,-22.5383384603004,-168.062893135999,1099.63474307437,-0.293567386707554,-0.0371133471801178,-16.7762515230455,-184.536984691823,-130.375727708179,-0.544022054386996,-8.32145205596981,-6.59306867243325,-6.22891857224905,-52.0611313299343,-235.481508374767,-207.982720549914,0.177273968873569,-1.83922845642375,-4.00815786922878,-4.01598459011589,-6.31239561794433,11.7571609108305,4.91749149146576,-7.55343962004806,42.5694084719552,264.228378651138,1.34342409103167,17.949110360505,-1.4466045490156,-41.1113345171156,110.206418110442,-186.338081464072,-14.7352751741218,54.5204553671858,-6.66547601836285,-13.4677724973721,9.17286638041847,-630.344362738473,674.346621630299,0.292692990912949,0.0309179910130617
65.135,-41.5765445167479,28.795863023641,-19.211973069465,0.91600981092936,8.25235329460086,6.08152475871775,5.66135541248188,-35.4585770054011,-2.1041596636819,-131.716608631067,0.650979409456162,-2.27571877639945,-5.37528354871897,-6.22502660236017,-2.04495847322848,9.12542776361294,0.816891424532365,9.52411712952445,-43.3276864154522,38.6374615765557,-22.0483381718123,-3.3265051876909,1.73644081488401,-5.75550830831503,-238.395795369583,-227.672965571534,-4.38767576217651,9.63995361328125,-8.78732681274414,42.0349998474121,-23.5550003051758,-159.880004882812,1103,-0.29200741648674,-0.0368118211627007,-18.8727931309272,-187.227049817874,-142.7237866968,-0.529621462554105,-8.32073775927085,-7.00496189692915,-6.71268301036673,-54.6241965670226,-229.59222347589,-213.160546848853,0.189193674888318,-1.51238233288392,-3.84022938540405,-3.9552552100028,-5.97466033877766,12.2475470173933,4.51358291469971,-8.24657480880605,32.5752064807257,271.62839577854,-1.2242809178805,17.2367152197511,-0.992517355413644,-38.5248492124265,114.978012892014,-174.02290088707,-11.4232212445696,55.1334129655906,-7.24513922839574,-10.1020269348901,2.45878722358153,-621.295778752324,599.651023653851,0.29285534585497,0.0283359271118868
65.14,-41.0500386384767,46.8390167561241,-12.6617510822073,0.877684327574912,8.80737557083809,6.10712312816042,5.60748170225417,-35.2271466712671,14.0397149942748,-114.970000313511,0.701649281118597,-1.89602235735848,-4.93545587171232,-5.85718060893972,-0.655225304824169,10.0545636533461,1.64543710398103,1.32460973498849,-38.892958821038,11.5290861928666,-24.4413263322647,-4.61564814581071,3.10234998611567,-6.92873395783214,-210.614204153581,-198.839066112789,-4.38767576217651,9.63995361328125,-8.78732681274414,42.0349998474121,-23.5550003051758,-159.880004882812,1103,-0.29200741648674,-0.0368118211627007,-20.6837405949785,-188.556542797029,-154.581339083938,-0.513107239510007,-8.2780040051282,-7.32377880185897,-7.10177593518752,-56.6955034094228,-220.85553801642,-217.576476507187,0.198468375288728,-1.17967409790905,-3.67500313891454,-3.89468814041755,-5.76289147502081,12.7054971852675,3.94180698255623,-10.6812631344056,26.4018826591719,277.16118414799,-3.93227526317118,16.6305268472471,-0.457800974427594,-35.5443985373302,117.337536343132,-160.927872537167,-7.12731693596467,53.9770186393945,-7.69019901970048,-5.42325855077262,-8.01980087628491,-607.009313379653,522.355388382602,0.293009930906704,0.0253777637568216
65.145,-40.5235578653875,64.8813101436839,-6.11184142672461,0.839360671680095,9.36237138215655,6.13272027700565,5.56300805998893,-34.9957273723389,30.1828198699189,-98.224190518191,0.752316736708572,-1.51634404323926,-4.49564916684363,-5.4793249456928,0.734441597455385,10.9836552394416,2.47394327619722,-6.87450668551568,-34.4584426860742,-15.5779965923395,-26.8342003887613,-5.90472963421099,4.46819402721328,-8.1019036648712,-182.833937636759,-170.006541530044,-4.38767576217651,9.63995361328125,-8.78732681274414,42.0349998474121,-23.5550003051758,-159.880004882812,1103,-0.29200741648674,-0.0368118211627007,-22.494601708302,-189.885972382471,-166.438326071859,-0.496593803907405,-8.2352722886431,-7.64258050476205,-7.48808883713112,-58.7667114864767,-212.119269145043,-221.992195602405,0.207742633447081,-0.846981727336003,-3.50978477084609,-3.82991449928459,-5.55113270895916,13.1634255168758,3.37005831418979,-13.1158353676761,20.2288531978996,282.69370869957,-6.64014048418447,16.0243673793957,0.0768899098780737,-32.564089977944,119.69694728598,-147.833468592584,-2.83161746735159,52.8206794531149,-8.13523758938633,-0.7447132626109,-18.4978893295702,-592.723529223145,445.063438770101,0.293164508587418,0.0224197414547487
65.15,-39.9986336135864,82.8702621459961,0.450051213299857,0.801041056713999,9.91703896403103,6.15824174880981,5.52967912471731,-34.7649922561646,46.2781982421875,-81.4712344917453,0.802846543708067,-1.136181799964,-4.05714273452759,-5.09125884189067,2.12078498653351,11.9118235841009,3.29928747376191,-15.0564051027024,-30.0328623698123,-42.6692803302058,-29.2162501797131,-7.18064658353541,5.82961958344913,-9.29412577699632,-155.007856373461,-141.230416781594,-4.38533581299126,9.6403209480285,-8.78027514852288,42.0031293943131,-23.5450883403359,-159.803731360589,1103.04166466986,-0.291980849997359,-0.0368166591696071,-24.3001090764999,-191.211471557617,-178.271156282803,-0.480063737150575,-8.19222876055551,-7.96043968200684,-7.86975214073758,-60.8317961120605,-203.408828735352,-226.390716320491,0.216975930931615,-0.514510504089872,-3.34505486488342,-3.75997923092316,-5.33821868440472,13.6226870692878,2.79594826181554,-15.5471683556438,14.0606107722744,288.22431641895,-9.34721583775026,15.4186232543874,0.610646104300666,-29.5853391082897,122.028479560874,-134.732810647957,1.45525773406816,51.6503365868496,-8.58276102837276,3.86724897972225,-28.947599208106,-578.341107302282,367.864136946124,0.293311605035717,0.019461539463775
65.155,-39.9986336135864,82.8702621459961,10.884806252446,0.764670828948188,10.3539665931052,6.15824174880981,5.48354652655557,-34.7649922561646,46.2781982421875,-62.6124436942977,0.806890252527736,-0.601443168110539,-4.05714273452759,-5.1289184629121,2.38208582136046,12.5188455234681,3.06210671599591,-17.3939681265104,-28.6432283004572,-64.0870154241411,-27.9680361918089,-4.06714663625123,5.70298917887915,-16.7907052832851,-112.418053637137,-131.629534255996,-3.60642987070657,9.76259677318011,-6.43296641226604,31.394315554012,-20.2456627108633,-134.414333986827,1116.9107089799,-0.283137582555914,-0.0384271011193817,-24.3001090764999,-191.211471557617,-181.898797922299,-0.458276357107839,-8.04638165677934,-7.96043968200684,-7.92914958983451,-60.8317961120605,-203.408828735352,-225.011468972108,0.21246827561656,-0.260712942459031,-3.34505486488342,-3.84795912280662,-4.74526678998972,14.5171399269646,1.44723395282413,-16.8648392321215,9.57904089860422,293.030961405272,-11.7491735117364,14.9603417902294,0.825716791427461,-27.1708499127852,115.070383256461,-119.764466529475,2.74541106331737,45.8509048007147,-9.84788143190902,-13.692167626708,-29.8129070340081,-532.113977556107,322.638992456845,0.290973428706023,0.0164906563103306
65.16,-39.9986336135864,82.8702621459961,21.3200588718238,0.728298866871769,10.7909150570288,6.15824174880981,5.45126454498306,-34.7649922561646,46.2781982421875,-43.7527536173308,0.810934154171247,-0.0666790372998571,-4.05714273452759,-5.15277784466747,2.64339911629112,13.1258964086147,2.82491464828962,-19.7316426167732,-27.253527966543,-85.5057718205939,-26.7197626829479,-0.953498222039042,5.57635273595122,-24.2876422632045,-69.8262200104059,-122.028193913293,-2.82748678637133,9.88487842904199,-4.08554574483108,20.7849958335029,-16.9460797486153,-109.023725922235,1130.78041463391,-0.274293893424162,-0.0400376198629167,-24.3001090764999,-191.211471557617,-185.526612545518,-0.436487938136104,-7.90052759829887,-7.96043968200684,-7.98368243776336,-60.8317961120605,-203.408828735352,-223.632155854455,0.20796040535442,-0.00690327851730205,-3.34505486488342,-3.92824526010232,-4.15228662072401,15.4116354365349,0.0984553305282092,-18.1825729416009,5.09725732173088,297.837835595972,-14.1512457228298,14.5020384729664,1.04079773417808,-24.7562455826093,108.111955155933,-104.795408647028,4.03562591339674,40.0511964692655,-11.1130621625829,-31.2524215521315,-30.6782561220257,-485.884643473957,277.411691411155,0.288635140880629,0.0135196314906254
65.165,-39.9986336135864,82.8702621459961,31.7548139109699,0.691928639105958,11.2278426861029,6.15824174880981,5.4335701361817,-34.7649922561646,46.2781982421875,-24.8939628198832,0.814977862990915,0.468059594553605,-4.05714273452759,-5.16209909259914,2.90469995111807,13.732918347982,2.58773389052362,-22.0692056405812,-25.8638938971879,-106.923506914529,-25.4715486950438,2.16000172524514,5.44972233138124,-31.7842217694933,-27.236417274082,-112.427311387695,-2.04858084408664,10.0071542541936,-1.73823700857424,10.1761819932018,-13.6466541191427,-83.6343285484731,1144.64945894396,-0.265450625982717,-0.0416480618126912,-24.3001090764999,-191.211471557617,-189.154254185014,-0.414700558093368,-7.7546804945227,-7.96043968200684,-8.03311887360552,-60.8317961120605,-203.408828735352,-222.252908506071,0.203452750039365,0.246894283113539,-3.34505486488342,-4.00024268015476,-3.55933472630901,16.3060882942118,-1.2502589784632,-19.5002438180787,0.615687448060712,302.644480582295,-16.553203396816,14.0437570088083,1.25586842130487,-22.3417563871048,101.153858851519,-89.827064528546,5.32577924264596,34.2517646831305,-12.3781825661192,-48.8118381585618,-31.5435639479278,-439.657513727783,232.186546921875,0.286296964550935,0.010548748337181
65.17,-39.9986336135864,82.8702621459961,42.1900665303478,0.655556677029539,11.6647911500266,6.15824174880981,5.43078595339195,-34.7649922561646,46.2781982421875,-6.03427274291631,0.819021764634427,1.00282372536429,-4.05714273452759,-5.15644774787144,3.16601324604872,14.3399692331286,2.35054182281733,-24.4068801308441,-24.4741935632737,-128.342263310982,-24.2232751861827,5.27365013945732,5.32308588845331,-39.2811587494126,15.3554163526496,-102.825971044991,-1.26963775975139,10.1294359100555,0.60918365886071,-0.433137727307287,-10.3470711568948,-58.2437204838818,1158.51916459797,-0.256606936850964,-0.0432585805562262,-24.3001090764999,-191.211471557617,-192.782068808233,-0.392912139121633,-7.60882643604223,-7.96043968200684,-8.07742591821752,-60.8317961120605,-203.408828735352,-220.873595388418,0.198944879777224,0.500703947055268,-3.34505486488342,-4.06362513226618,-2.9663545570433,17.2005838037821,-2.59903760075913,-20.8179775275581,-3.86609612881263,307.451354772995,-18.9552756079093,13.5854536915453,1.47094936405548,-19.9271520569288,94.1954307509916,-74.8580066460986,6.61599409272533,28.4520563516813,-13.6433632967931,-66.3720920839853,-32.4089130359455,-393.428179645632,186.959245876185,0.283958676725541,0.0075777235174759
65.175,-39.9576831761954,83.0317827552978,52.601116653293,0.61974097413383,12.1005666196671,6.17228671702244,5.45686046731297,-34.7394379226855,46.4605602061336,12.6526020849648,0.822072967480015,1.54896068923393,-4.04584292197881,-5.12440545488977,3.39654410946026,14.9101750522683,2.11019645441837,-26.7605964927232,-22.8386294987394,-149.49821633476,-22.8999824329172,8.34923558447665,5.17610839632327,-46.523074780148,57.7201723474079,-93.4755379670905,-0.530309191023897,10.2463237696193,2.86859614328493,-10.5421754250129,-7.10899161677505,-33.3481950418923,1171.65869137605,-0.2479704032211,-0.0448055735590619,-24.3664551155105,-190.904061521209,-196.255610452308,-0.371300933226243,-7.46270598096194,-7.96733448288405,-8.12362897251196,-60.8956026075303,-202.95031871156,-219.357262731687,0.194283266857842,0.755317790064678,-3.33822390475507,-4.11147850562474,-2.33241324706492,18.0360869941732,-3.87899174841961,-21.8619920998529,-8.33330217627473,311.925503167405,-21.3159975505054,13.1047072359061,1.68304999195874,-17.3432942755167,86.641449762374,-59.864680770734,7.89711459575863,22.8919352454663,-14.7932059622282,-83.715772536594,-32.8448593948336,-344.246102143816,142.455358578798,0.281609588530603,0.00460666634293262
65.18,-38.4946293892035,88.802498629701,62.1894535953878,0.603180759205249,12.4963513908444,6.67407730195461,5.98498788745381,-33.8264473234995,52.9758840696379,25.3701768063112,0.790657183794043,2.49095790189035,-3.64212968727202,-4.68505935920652,2.55852547845559,14.2018806675491,1.75994098944738,-29.6753881993862,-12.662483067895,-161.564172773221,-18.969337770465,10.1082963641087,4.32252285576435,-44.9215408753881,92.2716648086979,-92.8221121339485,-1.16536385497042,10.176107275044,2.07570983723827,-3.29577919575393,-6.00114662030237,-25.6023606623775,1159.46461222521,-0.246512781374646,-0.0441492246446728,-26.7368284206702,-179.921091702533,-194.377828646266,-0.355806763348432,-7.30708578355485,-8.21366798202718,-8.40452696174741,-63.1752445547037,-186.568935033596,-213.080244185309,0.184274887433949,1.03829108785879,-3.09417127134475,-3.91353996297286,-0.274986700976071,16.8244625338661,-2.77114668514098,-13.4026900149111,-12.3019031922698,304.853129443985,-22.2448231539099,11.8437875620105,1.7920183588386,-8.87758605495587,58.3935947502189,-44.003088977992,8.86460980120428,25.6421819042738,-11.9398096512375,-93.5683286460946,-18.3702277567596,-192.444086066217,122.996721635966,0.27888144782973,0.00162942419701711
65.185,-37.0316453644559,94.5729393412263,71.777333340413,0.586621333911177,12.8921172899651,7.17584396019476,6.52650549257302,-32.9135002581013,59.4908972654012,38.0871451203183,0.759242898095087,3.43291019764744,-3.23843570267178,-4.23135684899376,1.72054680637859,13.4936200561652,1.40970222557618,-32.5900409211309,-2.48682186241927,-173.629553875213,-15.0388805314661,11.8672732671063,3.4689780164042,-43.3200833359679,126.821509764149,-92.168717457865,-1.80038823784389,10.1058941285754,1.28286133809158,3.950271506315,-4.89335444878661,-17.8568956245744,1147.27111452006,-0.245055229031427,-0.0434929070267224,-29.1070887002098,-168.938645580682,-192.500136377788,-0.340313332273303,-7.1514730065272,-8.45998973534258,-8.68100969569552,-65.4547778025662,-170.188332462999,-206.803524943648,0.174266985235853,1.32125089274341,-2.85013027500449,-3.70734678502506,1.78234174161545,15.6128958469932,-1.66335444682247,-4.94379129169377,-16.2703149749529,297.781092949906,-23.173604468472,10.5829280120743,1.90098152982076,-0.41228150158085,30.1470866699259,-28.1422535075746,9.83205887393938,28.3922974241027,-9.08654939767158,-103.420414959862,-3.89628630710999,-40.6493083071408,103.53901253201,0.276153437213766,-0.00134767598617926
65.19,-35.568591577464,100.34365521563,81.3656702825078,0.570061118982596,13.2879020611424,7.67763454512693,7.08021770472175,-32.0005096589153,66.0062211289055,50.8047198416647,0.727827114409115,4.37490741030386,-2.83472246796498,-3.76407459459525,0.882528175373921,12.7853256714461,1.05944676060518,-35.5048326277939,7.68932456842512,-185.695510313674,-11.1082358690139,13.6263340467383,2.61539247584528,-41.718549431208,161.373002225439,-91.515291624723,-2.43544290179042,10.0356776340001,0.489975032044919,11.1966677355739,-3.78550945231392,-10.1110612450596,1135.07703536922,-0.243597607184974,-0.0428365581123333,-31.4774620053695,-157.955675762006,-190.622354571746,-0.324819162395492,-6.99585280912012,-8.70632323448571,-8.9534900439681,-67.7344197497397,-153.806948785035,-200.526506397269,0.16425860581196,1.60422419053752,-2.60607764159417,-3.49332089138103,3.8397682877043,14.4012713866861,-0.555509383543844,3.51551079324802,-20.238915990948,290.708719226486,-24.1024300718766,9.32200833817869,2.00994989670062,8.05342671897996,1.89923165777086,-12.2806617148326,10.799554079385,31.1425440829102,-6.2331530866809,-113.272971069363,10.5783453309641,111.152707770459,84.0803755891777,0.273425296512894,-0.00432491813209478
65.195,-34.0230825659155,105.374695658898,90.0360851634727,0.551092725955387,13.6385136316131,8.27662920086276,7.74175933242713,-31.0094052777496,72.4719486005116,62.1163623565261,0.691939181387347,5.28916733979987,-2.34569083839337,-3.19900813637626,0.156654535871595,11.9903346844529,0.76862963846046,-37.1629830415203,18.3855210052541,-194.836554655894,-7.40503996887825,14.8817543639489,1.66150777416645,-39.0946281028226,185.47309682466,-89.7995046049768,-2.96024417877197,9.97765159606934,-0.165256351232529,17.1849994659424,-2.87000012397766,-3.71000003814697,1125,-0.242393046617508,-0.0422941595315933,-33.8107077922817,-146.388654922152,-187.593428582758,-0.309624717953637,-6.86356153535381,-8.85768592885264,-9.12739311180021,-69.8259540013577,-134.501337360471,-192.796440129348,0.156145798485653,1.86476052880565,-2.29436508707449,-3.20436757311231,5.5797404846462,13.3547780691957,0.53631985141869,10.7221598640483,-22.6647212465686,283.26769814058,-24.332361489327,7.79808952526759,2.19501173340698,16.5844132142315,-27.1345464748111,4.38840869221816,11.348769618886,32.77268971019,-3.79943606955121,-118.988090754492,18.3544597636025,237.314649144536,67.0407469223336,0.258784060695156,-0.00647533139930723
65.2,-32.0845578934322,106.885328449265,94.3384130041741,0.520653150779729,13.7741400015688,9.33860263290462,8.87511596239801,-29.6461082977183,78.7033108686793,66.7370984351029,0.634748306587634,6.07161391915202,-1.45030147996685,-2.21646486939684,-0.0354666382220516,10.7823399048778,0.76073424774429,-32.8383883735237,31.5607511921256,-190.05383237844,-4.78377025110746,13.7395545070087,0.229810257633015,-31.6021297524094,159.817950695057,-83.025064422578,-2.96024417877197,9.97765159606934,-0.165256351232529,17.1849994659424,-2.87000012397766,-3.71000003814697,1125,-0.242393046617508,-0.0422941595315933,-35.9678206745341,-132.037635382054,-179.082769417779,-0.295853171062917,-6.84230907596786,-8.55690915759264,-8.84595166657827,-71.0224325009379,-101.267402670037,-178.145906793208,0.15705608105384,2.01854016124784,-1.66042016846124,-2.58654651889167,5.80870681541533,13.0942301755619,1.55219345690014,11.9665774131413,-17.7455354258722,274.069405499635,-21.2347365316802,5.02154379007867,2.74242548972858,25.4285504691426,-59.9182881728466,24.9066771583326,9.90659623669826,29.0701867573108,-3.36325425156651,-105.005354518987,-5.7606965655647,241.432092511644,61.5139734210097,0.187417414793295,-0.00468958508313077
65.205,-30.146125654893,108.395889208697,98.6405356985927,0.490215027042903,13.9097599045033,10.4005254272661,10.0152905277664,-28.282876323265,84.9343760091401,71.3576141848566,0.577560158798925,6.85402318939777,-0.554954816054856,-1.22441102289983,-0.227578651473904,9.57440272566416,0.75283923350107,-28.5139999135506,44.7353531494441,-185.271338153736,-2.16262552235621,12.5974091131552,-1.20181899180541,-24.1099886639811,134.164027870153,-76.2509472632663,-2.96024417877197,9.97765159606934,-0.165256351232529,17.1849994659424,-2.87000012397766,-3.71000003814697,1125,-0.242393046617508,-0.0422941595315933,-38.124830699983,-117.687300136231,-170.572516063364,-0.282082280835696,-6.82105762995496,-8.25614672815846,-8.56169667881269,-72.2188539492831,-68.0350526608299,-163.496072032947,0.157966320217364,2.17231246107358,-1.02650547800546,-1.96280437658068,6.03766222846891,12.8336947055354,2.56801862286197,13.2109356251395,-12.826584164866,264.871551457423,-18.137259276921,2.24513044787732,3.28981314392562,34.2722660123784,-92.7004666560387,45.4239672595573,8.46449162112227,25.3678603494893,-2.92709323187563,-91.0232850170426,-29.874703020789,245.549339548246,55.9874634507511,0.116054171840409,-0.00290392391602527
65.21,-28.2076009824097,109.906521999064,102.942863539294,0.459775451867245,14.045386274459,11.462498859308,11.1603074794469,-26.9195793432337,91.1657382773077,75.9783502634334,0.520369283999212,7.63646976874992,0.340434542371657,-0.224508742789492,-0.41969982556755,8.36640794608908,0.7449438427849,-24.1894052455541,57.9105833363157,-180.488615876283,0.458644195414576,11.4552092562149,-2.63351650833885,-16.6174903135679,108.508881740551,-69.4765070808675,-2.96024417877197,9.97765159606934,-0.165256351232529,17.1849994659424,-2.87000012397766,-3.71000003814697,1125,-0.242393046617508,-0.0422941595315933,-40.2819435822354,-103.336280596133,-162.061856898384,-0.268310733944976,-6.79980517056901,-7.95536995689846,-8.27494019126559,-73.4153324488633,-34.801117970396,-148.845538696807,0.158876602785551,2.32609209351577,-0.39256055939221,-1.33379286065733,6.26662855923804,12.5731468119016,3.58389222834342,14.4553531742325,-7.9073983441697,255.673258816477,-15.0396343192742,-0.531415287311596,3.83722690024723,43.1164032672894,-125.484208354074,65.9422357256718,7.0223182389345,21.66535739661,-2.49091141389092,-77.0405487815377,-53.9898593499562,249.666782915354,50.4606899494271,0.0446875259385484,-0.00111817759984881
65.215,-26.5804896214821,110.995234683391,106.283173845629,0.426587046822769,14.0592550030096,12.2866970088258,12.0702252086547,-25.5787050221316,99.9943047605064,80.8550943445662,0.463516569196344,8.22344003186788,1.29828452546618,0.843771221515476,-0.308129775837137,7.60601939529335,0.754927267649978,-20.8770192852851,67.7932789059104,-177.116652578721,1.94873702114698,10.549926125257,-3.66036480414305,-11.0069468146355,87.5657465153881,-63.4752389074273,-2.93760183595872,9.62657584450655,-0.189567100427195,16.1958192380959,-2.92224554651681,-5.03006810815853,1105.19649158437,-0.243913599887862,-0.0423611954642536,-41.9284723528474,-92.4936957932012,-152.251930597528,-0.254395468924114,-6.79994943359326,-7.6979192845157,-8.02931957752111,-74.1058018552377,-8.99299678149776,-130.916226097262,0.156483299663326,2.41484901782953,0.138248909562788,-0.803396323483774,6.18410068289713,12.0706534487574,3.95429463583055,15.3500545809957,-2.8282580686006,246.294178559933,-12.6143662257876,-2.1764557893935,3.95410068289712,52.2872370733304,-144.902936404286,86.7341327263137,6.11927509307861,19.3469676971436,-2.2177882194519,-68.2850036621094,-69.0900039672852,252.244995117188,47,0,0
65.22,-25.4750482702685,111.377212975503,108.012022341937,0.388796153802912,13.8691887454967,12.7126012509153,12.5824386995043,-24.275450800281,113.172559900127,86.160398847075,0.407232956266545,8.48297508939079,2.36070539344868,2.02055200694627,0.312093498514884,7.59537178543323,0.794855804625423,-19.2601600102298,72.1607707281635,-176.107758681481,1.5441278464624,10.0415027544363,-4.00907402706199,-8.54879490865714,74.5158518380616,-58.7692582532013,-2.8770364569872,8.68749298914646,-0.254595253662061,13.5498882995538,-3.06199538785207,-8.5610818194101,1052.22463253027,-0.247980885937939,-0.0425405080336181,-42.7197350051827,-87.5279759648688,-140.266303377496,-0.240240151030154,-6.83593149085384,-7.51304864329003,-7.85433814561006,-73.9487135212338,4.37624928119089,-107.496075019035,0.148556868480727,2.3946938671245,0.496289427214572,-0.441953391723834,5.57984882333529,11.1629447081821,3.24356667766751,15.6589667189127,2.51855095683636,236.612740705638,-11.315357822853,-1.92623695768067,3.34984882333529,62.0048242203599,-141.935408100679,107.983344255801,6.11927509307861,19.3469676971436,-2.2177882194519,-68.2850036621094,-69.0900039672852,252.244995117188,47,0,0
65.225,-24.3695542061966,111.759209482212,109.740953278209,0.351003458728168,13.6791134246937,13.1385258022053,13.0932682971165,-22.9721344328855,126.351443443503,91.4659563324889,0.350946659458394,8.74252252281649,3.4231769228621,3.19927158587615,0.932346348150598,7.58472366784291,0.834786245589089,-17.6432236354046,76.5284708138194,-175.098816675239,1.13949937803051,9.53305513949886,-4.35779987814473,-6.09052578595536,61.465334877836,-54.0630531947669,-2.81646818996175,7.74836535371602,-0.319626507757793,10.9038311900644,-3.20175189314428,-12.092263906691,999.250247518469,-0.252048365936137,-0.0427198291534843,-43.5110353887969,-82.5620193466919,-128.280104624049,-0.226084158141301,-6.87191526391516,-7.32816918652666,-7.67760755224135,-73.7916176964885,17.746132855017,-84.0748071532876,0.140630059327064,2.37453775532315,0.85434701799199,-0.0773506544168365,4.97556815008505,10.2551926836079,2.53280482851414,15.9678935872736,7.86561494431735,226.930841192965,-10.0162874768348,-1.67600619430833,2.74556815008506,71.7228747495433,-138.967738290786,129.233569051776,6.11927509307861,19.3469676971436,-2.2177882194519,-68.2850036621094,-69.0900039672852,252.244995117188,47,0,0
65.23,-23.264112854983,112.141187774324,111.469801774516,0.31321256570831,13.4890471671809,13.5644300442948,13.6008279890399,-21.6688802110349,139.529698583123,96.7712608349977,0.294663046528594,9.0020575803394,4.4855977908446,4.37777600974685,1.55256962250262,7.57407605798278,0.874714782564534,-16.0263643603493,80.8959626360725,-174.089922777999,0.73489020334593,9.02463176867811,-4.70650910106367,-3.63237387997695,48.4154402005096,-49.3570725405408,-2.75590281099023,6.80928249835593,-0.384654660992659,8.25790025152234,-3.34150173447954,-15.6232776179426,946.27838846437,-0.256115651986213,-0.0428991417228489,-44.3022980411322,-77.5962995183595,-116.294477404016,-0.211928840247342,-6.90789732117574,-7.143298545301,-7.49929730504347,-73.6345293624846,31.1153789177056,-60.6546560750602,0.132703628144465,2.35438260461811,1.21238753564377,0.289755689021639,4.37131629052321,9.34748394303267,1.82207687035111,16.2768057251907,13.2124239697543,217.249403338671,-8.71727907390016,-1.4257873625955,2.14131629052324,81.4404618965729,-136.000209987178,150.482780581263,6.11927509307861,19.3469676971436,-2.2177882194519,-68.2850036621094,-69.0900039672852,252.244995117188,47,0,0
65.235,-22.1447551429102,110.84405054042,112.08708692892,0.283472908967008,13.1324311358243,13.829161837439,13.942315660901,-20.1586837233841,146.619290886119,103.874788644641,0.253259174076085,8.95469701585644,5.48770671570557,5.49378362896968,1.96434577078991,7.42750586041211,0.90005840985325,-14.6851059590969,79.6704169146979,-176.000994843029,-0.994141142035681,8.42934000751167,-4.77294393431156,1.68798256162648,42.5546470537728,-36.5865077731905,-1.84901272165062,6.9580889898314,-0.42239641579378,5.26181675561398,-2.79065719070821,-17.98419424682,911.750586041211,-0.257965951578625,-0.0429404828969411,-45.0815375362817,-75.4547899785791,-106.285393416645,-0.199220807982145,-6.89048666009056,-7.02831462067135,-7.38938981901519,-73.2263039294107,41.7662168993917,-38.5127129934653,0.12509237755054,2.27144898545721,1.45998255804758,0.548382707380246,3.70078276974083,9.00670560656885,1.73775698392759,13.329937244304,14.628021603859,209.426712510671,-7.8646028518514,-1.15733063085231,1.98879087718391,86.5202418258424,-123.359115149323,170.333468761177,6.14497118060566,18.6487568113756,-1.96885729159661,-37.7510229742137,-94.9652630590058,279.528431844164,41.8031549091474,0,0
65.24,-21.0168528397323,108.505609049282,112.014921542999,0.258729008135856,12.6725467972684,13.9939123920228,14.177504739266,-18.5202562164691,149.932085070703,112.093043986877,0.221087066180447,8.71700033480221,6.45233214332423,6.56817627063007,2.24680908655279,7.19664641964437,0.916354370378033,-13.5148816333461,74.9761072985055,-179.72291175301,-3.54445896416408,7.78021757994119,-4.66430419747968,8.78309623867152,41.1530603255097,-18.8151927976051,-0.417293531202738,7.78160398485327,-0.443211953940011,2.0487965595325,-1.81154156542483,-19.6192224104681,888.664641964436,-0.258441110752176,-0.042896249619363,-45.853259946652,-75.0650497300561,-97.5029548368592,-0.187411378703658,-6.83996263897612,-6.95668402922754,-7.32141094312808,-72.6623522597871,50.7302477957663,-17.1652380623685,0.11767719316617,2.14958593094831,1.63905903665711,0.739985854791939,2.98919249349201,9.01756958025204,2.04194824705686,8.36402828603189,13.6053327231885,202.75743977738,-7.28881224664243,-0.877583308510221,2.11644256796137,88.7232142671555,-104.719352894742,189.315245002081,6.18660225689812,17.5175623980999,-1.56555611050473,11.7180830985507,-136.88662109458,323.731224767635,33.3835753046767,0,0
65.245,-19.8888967526478,106.1670560498,111.942752715879,0.233983927394313,12.2126405291748,14.1586708027199,14.4052247365909,-16.8817505813052,153.24503722554,120.311691215782,0.188913424161119,8.47929231920594,7.41700356900819,7.6366496958196,2.52928587155012,6.9657759703677,0.932651107974034,-12.3446015055675,70.281573834637,-183.44500614222,-6.09489839793818,7.13106419903384,-4.55565928017302,15.8785482454899,39.7514067627261,-1.04303039867429,1.01449393062899,8.60515824910383,-0.464028484673059,-1.16437684908993,-0.83237925111254,-21.2543285402678,865.577597036768,-0.258916292583645,-0.0428520142325256,-46.6250191565269,-74.6752908968091,-88.7200974673841,-0.175601386293738,-6.78943620862888,-6.88505002208626,-7.25202084080636,-72.0983736981856,59.6947061410417,4.18325482089713,0.110261655189488,2.02771706541206,1.81814405451029,0.932717010814933,2.27756828513332,9.02843407198271,2.34615401551554,3.39788252889671,12.5825950757029,196.087849020499,-6.71299418491707,-0.59782264644555,2.2441003457967,90.9262917569852,-86.0787018049957,208.297926387052,6.22823531836421,16.3863140439338,-1.16223569803709,61.1895481006017,-178.809978145844,367.936125496787,24.9635942134097,0,0
65.25,-18.7609944494699,103.828614558662,111.870587329958,0.209240026563161,11.7527561906189,14.3234213573037,14.6245737226097,-15.2433230743901,156.557831410124,128.529946558018,0.156741316265481,8.24159563815171,8.38162899662685,8.69742709335405,2.811749187313,6.73491652959996,0.948947068498816,-11.1743771798167,65.5872642184446,-187.166923052201,-8.64521622006657,6.48194177146335,-4.44701954334114,22.973661922535,38.3498200344629,16.7282845769111,2.44621312107687,9.42867324412569,-0.484844022819289,-4.37739704517142,0.14673637417084,-22.8893567039159,842.491652959994,-0.259391451757196,-0.0428077809549476,-47.3967415668973,-74.2855506482861,-79.9376588875986,-0.163791957015251,-6.73891218751445,-6.81341943064245,-7.18120500268342,-71.534422028562,68.6587370374163,25.530729751994,0.102846470805119,1.90585401090316,1.99722053311982,1.12629050095769,1.5659780088845,9.03929804566591,2.6503452786448,-1.56802642937536,11.5599061950324,189.418576287208,-6.1372035797081,-0.318075324103465,2.37175203657415,93.1292641982983,-67.4389395504147,227.279702627956,6.26986639465668,15.2551196306581,-0.758934516945212,110.658654173366,-220.731336181418,412.138918420258,16.5440146089389,0,0
65.255,-17.8463912651668,101.729173524497,110.444915180564,0.191838068310872,11.1878560222457,14.0975114110357,14.4442908581676,-13.9450144571698,144.904682968448,132.90370042755,0.143982572036224,7.73561440133885,8.75863931159395,9.16143566956997,2.38070861385514,7.10016963443027,0.611797143396451,-6.81675215348322,59.4506599302589,-190.781207193477,-9.38519171962499,8.07670433524193,-3.35873831246461,23.157806099898,71.0524712720019,13.9084426484834,0.922854563522795,9.33761980178815,-0.63340840464773,-9.74321063742616,0.858016438026047,-28.0754495714217,823.225835273391,-0.258785079648854,-0.0433378511890117,-48.1480435353262,-76.3858359952094,-77.1804850830703,-0.153193915122877,-6.5455563198417,-6.83266372253422,-7.19978075717648,-70.7479845855469,75.4372128213906,38.2113411980784,0.0951567043468322,1.798724545731,2.01313166337519,1.15739408652618,1.15217353551876,8.66970490152899,2.27501856163092,-5.58574448103173,13.0633907466056,186.534258812599,-6.20861989555152,-0.213597810356767,2.24669376455042,91.0559297400129,-59.115149382483,244.835729527636,5.7481240212636,13.7997043047724,-1.12073122503503,120.77581776798,-219.819748585926,421.760286264906,14.0250928081545,0,0
65.26,-16.9465678590796,99.6463479289938,108.925825281649,0.174944125257269,10.6157309189062,13.8446289884101,14.2277288623678,-12.6702649674487,132.218389850718,137.011681077456,0.132565412479046,7.21112780734518,9.0950422203339,9.57438832535929,1.90040634241489,7.50657924872586,0.250250928081532,-2.23918675276715,53.2147452135539,-194.387872601728,-10.0000841880073,9.82637689548858,-2.20284603284465,22.8645812699589,106.109128718055,9.66645677536428,-0.804541664928215,9.18339925035239,-0.790789176281318,-15.2574500459741,1.55076010662209,-33.5065598514197,804.224866293337,-0.258104034118743,-0.0439075631209931,-48.8978967093014,-78.658007175669,-74.8396333942722,-0.142680087327973,-6.34234452128152,-6.85818401088966,-7.22306937034157,-69.9462195294665,82.064380777813,50.2926622004844,0.0874483637465414,1.6926182310414,2.0177717043636,1.17788187938155,0.758959038570417,8.2738513811112,1.8527748065186,-9.53776357787769,14.7412883845905,183.911525611477,-6.32473692820741,-0.121231988925942,2.10418649720001,88.6873247248381,-51.5043360187302,262.292381070011,5.18749449479155,12.3219683426394,-1.53535689999712,128.174319017612,-215.94961841295,428.992529760793,11.913874032593,0,0
65.265,-16.0467015450049,97.5634230141642,107.406662945087,0.158049376617711,10.0435785338394,13.5917345071119,14.0017718171108,-11.395454691428,119.531491788392,141.119857616002,0.121147708495778,6.68661620326167,9.43146117041231,9.97584527078604,1.42008116780972,7.91300824262254,-0.111312527527857,2.33859692868902,46.9785331378905,-197.994709993452,-10.6150059774744,11.5761328886931,-1.04689863461902,22.5713424576237,141.16745783725,5.4242686235807,-2.53202026409252,9.02917134492534,-0.948177452600978,-20.7719524004667,2.24353680862944,-38.9379291133584,785.222991254011,-0.257422956113045,-0.0444773022196299,-49.6477856399489,-80.9302867043801,-72.4986700821996,-0.132165758182262,-6.13912303258741,-6.88370551617744,-7.24469937962708,-69.1444162413011,88.6918647500647,62.3745592994525,0.0797396555748139,1.58650685668299,2.02241196661188,1.19909749410544,0.365725791228818,7.87797898445859,1.4305109167558,-13.4899711263519,16.4192660329534,181.28866734559,-6.44085949789218,-0.028861763040326,1.96167243440506,86.3186067629743,-43.8931597341169,279.749865031037,4.62683823475759,10.8441619148175,-1.9500023463423,135.573173064024,-212.07930369321,436.225118125474,9.80255458377902,0,0
65.27,-15.17041313336,95.0813298451356,105.713146739408,0.142352804394582,9.48138341873763,13.3154614963505,13.7432144263935,-10.1974058304839,107.157054883239,143.838506852748,0.109978220332685,6.14854197692754,9.67523359563842,10.2723294960819,0.940583125176873,8.24075945317402,-0.35586484391344,7.49561621981202,41.8895298026414,-201.307419848942,-10.6850176574093,13.1065947655317,0.0592159371962235,21.9581605912023,173.495100784789,-0.673976941992203,-4.06885200273843,8.96499395646838,-1.06474875290617,-25.2964598247764,2.83896132791896,-42.9464762390476,767.075945317403,-0.256497273850317,-0.0451722152695801,-50.3861347038034,-82.3288926531758,-70.6053714336349,-0.120483733564805,-5.92245530549997,-6.90549468994141,-7.26083436417192,-68.3172170500516,95.2704565994534,73.6411995585603,0.0709065599644954,1.48754687458452,2.00813221110023,1.20229741718757,-0.00319937491543151,7.43700648463746,1.00435578141726,-17.4776034899493,17.8583724922673,178.410825715362,-6.52755023440674,0.0239686719413421,1.83132289064709,84.0056620377776,-37.8179718353421,295.384166954159,4.07769624488319,9.53594046858634,-2.32126692844069,142.951624832667,-206.066793051826,441.091448171612,7.88682031278839,0,0
65.275,-14.4315304799004,90.2673418018077,103.000876605892,0.133648290933338,8.97715396691384,12.9025711199496,13.3391889547847,-9.44724186454489,96.6033102749772,138.443402766109,0.100254633921745,5.53108848587594,9.3780431196723,10.0149704734814,0.465759022505505,8.10915059862924,0.082831337902502,16.0369703479787,43.4984010576672,-202.903547569275,-7.57285533229151,13.3569096457444,0.874674722218809,19.4763572096873,189.886472284012,-17.6133204330262,-4.49283468533634,9.42667773205611,-0.942992791554923,-24.0410146341147,2.86605727348257,-38.6472536966277,753.915059862924,-0.254142835911013,-0.0465983528829082,-51.0573334200176,-78.6258264420124,-71.325752661606,-0.10197872478355,-5.62719280797558,-6.90549468994141,-7.25332065341223,-67.3414396318253,101.565671127247,80.1505315732328,0.0555043220894728,1.4303177204156,1.88335760961752,1.0961747848284,-0.230289163149566,6.73251202795655,0.555337336499763,-21.6734122877097,17.9029748636938,174.042979199242,-6.44239156381893,-0.154090366560423,1.77196987781317,82.0176706256269,-40.7107542107152,300.376446670249,3.5956168333574,9.21764429108812,-2.4393145797639,150.213336767103,-187.542204625803,432.1407564097,7.11265058017202,0,0
65.28,-13.6926830583048,85.4535833020639,100.288735800534,0.124944192526141,8.47294855807364,12.4897004312454,12.9268812897906,-8.69711366839251,86.0500688969559,133.048555932193,0.0905315111569243,4.91366443662728,9.08086681452804,9.74445710955643,-0.0090424393064959,7.97754801954004,0.521506601533158,24.5779172019641,45.1071955974892,-204.499599182049,-4.46084140324107,13.6072125902866,1.69009462402639,16.9946721670708,206.277062199624,-34.551856211706,-4.91679715132722,9.88833949334976,-0.821242635847451,-22.7856293063745,2.89315192704038,-34.3482361524216,740.754801954005,-0.251788510237489,-0.0480244224942521,-51.7285001317156,-74.9229368027645,-72.0460995399095,-0.0834745983696783,-5.33194438934197,-6.90549468994141,-7.24387007977783,-66.3657087412272,107.86058548269,86.6595532058714,0.0401028186335746,1.37309129508295,1.75858895771527,0.99157162654134,-0.457368123146612,6.02805116342026,0.106340301960145,-25.8690210182948,17.9475751083621,169.675340953508,-6.35723695382003,-0.332140914739925,1.71261969508668,80.0297740061242,-43.6033986506327,305.36848834134,3.11356040864314,8.899363290787,-2.55735660226529,157.474702444056,-169.018499500773,423.190491440262,6.33851776200027,0,0
65.285,-12.9538004048451,80.639595258736,97.5764656670184,0.116239679064898,7.96871910624986,12.0768100548445,12.5069433832478,-7.94694970245347,75.4963242886938,127.653451845554,0.0808079247459842,4.29621094557568,8.78367633856192,9.46073887891698,-0.483866541977865,7.84593916499526,0.960202783349099,33.1192713301307,46.716066852515,-206.095726902381,-1.34867907812325,13.8575274704992,2.50555340904898,14.5128687855558,222.668433698847,-51.49119970274,-5.34077983392513,10.3500232689375,-0.699486674496199,-21.5301841157127,2.92024787260399,-30.0490136100017,727.593916499526,-0.249434072298185,-0.0494505601075802,-52.3996988479299,-71.2198705916011,-72.7664807678806,-0.0649695895884228,-5.03668189181758,-6.90549468994141,-7.23243888314134,-65.389931323001,114.155800010483,93.168885220544,0.0247005807585521,1.31586214091403,1.63381435623256,0.888868473476652,-0.684457911380747,5.32355670673935,-0.342678142957353,-30.0648298160552,17.9921774797886,165.307494437388,-6.27207828323222,-0.51019995324169,1.65326668225277,78.0417825939735,-46.4961810260059,310.36076805743,2.63148099711735,8.58106711328878,-2.6754042535885,164.736414378493,-150.493911074751,414.23979967835,5.5643480293839,0,0
65.29,-12.2735613744572,74.6271670599404,94.2921781319114,0.109008114908793,7.51273083141281,11.6318607401055,12.0481330639633,-7.2693804231338,65.6573697249083,120.700898262466,0.0675751849363806,3.7027387881585,8.42244312879648,9.10002558655816,-0.73459269838882,7.61828096419354,1.46511864491716,37.5955782429719,47.5575036603335,-205.652436453425,1.70177027738106,13.8335215114385,2.94834511012556,10.8463642131528,225.988082919506,-64.8503629708203,-5.57976589694187,10.460292240992,-0.657624135786644,-19.9596085740646,3.02223543623867,-26.2546256408829,717.430404169486,-0.246076843054355,-0.0514325148594787,-53.0305981857464,-66.6302932122353,-72.9385903503115,-0.0450284255590554,-4.74717183405526,-6.85416847530598,-7.16770470082343,-64.2973472977593,121.145830794885,99.4773810532915,0.00911163607997358,1.26157346663683,1.51156069776631,0.791010638096827,-0.621449673006109,4.69180886516826,-0.71129569771231,-32.1310591162796,17.3759849954944,160.157120566573,-6.17012829186397,-0.78382294720488,1.62566388533916,76.1214454241424,-51.749142416281,315.760648840309,2.28005862236023,8.34903812408447,-2.76145768165588,170.029998779297,-136.990005493164,407.714996337891,5,0,0
65.295,-11.7509615259257,65.3897229320598,89.4685123946123,0.105737701098067,7.18643728216059,11.100590468367,11.4970543928262,-6.78698094845213,57.7395609019977,109.557382079463,0.0449000432442191,3.1736750693205,7.88886317478789,8.55450169448683,-0.382510711869496,7.13219762459595,2.14826279786512,31.1371736441144,46.3345912877723,-199.722771156232,4.58674058483049,13.0715530331504,2.3886924002105,3.99221608789625,194.143704241965,-68.5807322770414,-5.32112934266249,9.62522965446053,-0.830677800280953,-17.5410155449238,3.32570901863702,-23.8176398481954,715.328422160415,-0.240021385640043,-0.0549100378621629,-53.5531980342778,-59.6550793174979,-71.6358090639345,-0.0212203105183977,-4.47308563499868,-6.66475911874534,-6.96297520482479,-62.8903462406546,130.006236550575,105.246711822968,-0.00698231696697414,1.21518550816293,1.39606718766835,0.702654600457386,0.221970608133493,4.2556475982861,-0.863689393369927,-28.4688095973896,14.9820610407195,152.900741316124,-6.02298955122903,-1.31457340449523,1.68346839058859,74.3827689475037,-63.3522128583268,322.257979031927,2.28005862236023,8.34903812408447,-2.76145768165588,170.029998779297,-136.990005493164,407.714996337891,5,0,0
65.3,-11.2283865963266,56.1527192697585,84.6450766623549,0.102467443229255,6.86015929144114,10.5693455289894,10.9409533694995,-6.30460447584344,49.8221296209917,98.4143972485567,0.0222259827623232,2.64463657762912,7.35530866327185,7.99726300801747,-0.03044551354331,6.64613746272769,2.83137437670699,24.679076998938,45.1117372268825,-193.793388601043,7.47157332932421,12.3096208875191,1.82906637600544,-2.86160521358933,162.300843987974,-72.3109237094637,-5.0625051208528,8.79020688590477,-1.00372321312237,-15.122537840646,3.62916813061851,-21.3807702573862,713.226540379363,-0.233966216965832,-0.0583873950474237,-54.075772963877,-52.6801980192652,-70.3330898975882,0.00258666928885165,-4.19901250509139,-6.47535879371991,-6.75647925554042,-61.483412273053,138.866219818865,111.015767495811,-0.0230755026120028,1.16879976158863,1.28057918460407,0.617434157798315,1.06535067278057,3.81950712871782,-1.01607582249619,-24.806734704168,12.5882512345215,145.644708068881,-5.87585782655539,-1.84529855421084,1.74127013956751,72.6441753755225,-74.9547300355222,328.75499941379,2.28005862236023,8.34903812408447,-2.76145768165588,170.029998779297,-136.990005493164,407.714996337891,5,0,0
65.305,-10.7057867477952,46.9152751418779,79.8214109250557,0.099197029418529,6.53386574218893,10.0380752572509,10.3806799523913,-5.82220500116177,41.9043207980812,87.2708810655537,-0.00044915892983835,2.11557285879112,6.82172870926325,7.42919850376381,0.321636472976015,6.1600541231301,3.51451852965496,18.2206724000805,43.8888248543214,-187.86372330385,10.3565436367736,11.547652409231,1.26941366609038,-9.71575333884589,130.456465310433,-76.0412930156847,-4.80386856657342,7.9551442993733,-1.17677687761668,-12.7039448115052,3.93264171301687,-18.9437844646987,711.124558370292,-0.22791075955152,-0.0618649180501079,-54.5983728124084,-45.7049841245278,-69.0303086112112,0.0263947843295094,-3.92492630603481,-6.28594943715927,-6.54841620303349,-60.0764112159484,147.726625574555,116.785098265487,-0.0391694556589505,1.12241180311473,1.16508567450612,0.535671107772112,1.90877095392018,3.38334586183566,-1.1684695181538,-21.144485185278,10.1943272797466,138.388328818432,-5.72871908592045,-2.37604901150118,1.79907464481695,70.9054988988838,-86.5578004775679,335.252329605408,2.28005862236023,8.34903812408447,-2.76145768165588,170.029998779297,-136.990005493164,407.714996337891,5,0,0
65.31,-10.3061069436182,39.6593900224861,74.102791248638,0.0959267715497169,6.23849238817075,9.49448654355451,9.80481362045851,-5.5275725418837,32.6120855897565,76.2412213078927,-0.022940473368585,1.70383287602583,6.24855324026914,6.81187196359112,0.569720963276896,5.89163906514121,3.87163906514123,12.8425645404177,39.9860424173081,-180.302973167603,11.7172538523727,10.9393375633896,0.858919008304983,-14.4798122636548,92.3935502378915,-75.783860941059,-3.52638439766619,7.88084424635726,-0.963842188832446,-10.0764307562337,4.23713568962521,-18.6683944501783,708.925022661016,-0.221945913669934,-0.0653121412581966,-54.9562822971548,-37.774021670073,-65.781591949486,0.0502017641367588,-3.68932277969474,-6.03761011577166,-6.28016834192004,-58.527423325099,157.351752876,123.363696938915,-0.0552946944951206,1.0665932338,1.06759542865126,0.47562697607958,2.55588475954826,3.10580648717507,-1.20222322937848,-16.3996814906154,8.14679257027182,129.325932247117,-5.41111614689236,-2.64805580734464,1.7929730027683,70.0829538350423,-92.9910446267004,341.564034873617,1.90302395848727,10.1174967402926,-2.5311747397015,170.740677877784,-110.009267865556,405.194176810823,4.76111614689238,0,0
65.315,-10.047824249261,34.6828440672951,67.3538052696271,0.0926563577389912,5.97866710277856,8.93666785267812,9.21226316311636,-5.44896421145078,21.7374120387434,65.3414394532754,-0.0452225733197022,1.42704936734043,5.62975836263936,6.14056235188717,0.698166050123708,5.87365675298266,3.85365675298268,8.70694989231291,32.9992639895667,-170.864637897082,11.3242118866214,10.5077620715843,0.620011146769911,-16.8393960812851,47.1713652169363,-70.9378339607645,-1.07643097224236,8.68190890731826,-0.306747695056522,-7.20825200736772,4.54283501101999,-20.8802190024737,706.613011097773,-0.216084718342272,-0.0687248534959077,-55.1247273195707,-28.74251262527,-60.2934492157613,0.0740098791774165,-3.49797522549628,-5.72143749065316,-5.94322219258102,-56.8148992571899,167.857795044706,130.874155368139,-0.0714575860637194,0.999917596266285,0.99081066270222,0.440155991596013,2.9771846444058,3.01075712290843,-1.09946715990104,-10.4087489213901,6.49762108483128,118.184510269516,-4.89733579950511,-2.62236678997527,1.71333704892328,70.3144721397292,-93.476281621455,347.662797886121,1.09211523417758,13.9210157741474,-2.03589283439258,172.269173627295,-51.9803447267801,399.772514712405,4.24733579950513,0,0
65.32,-9.78955387050061,29.706535406876,60.6051410999801,0.089386099870179,5.71885420653788,8.37887576006088,8.61803445900811,-5.37035962926936,10.8632570207053,54.4421773288628,-0.0675036108018153,1.15027905641912,5.01099299077334,5.46236332182854,0.826605012371681,5.85567529826795,3.83567529826796,4.57153244116832,26.0128187097572,-161.426752671157,10.9311886621426,10.0762071584311,0.38111467698868,-19.1988673877664,1.95133650844637,-66.0920380517545,1.37340563297237,9.48293537141388,0.350315466729426,-4.34021002079184,4.84851975586884,-23.0919380891697,704.30110977731,-0.210223802491786,-0.0721374030065427,-55.2931643100858,-19.711434226521,-54.8055681710855,0.0978168589846658,-3.30663679525139,-5.4052799414752,-5.60589863801657,-55.1024568469229,178.36333625775,138.384255678995,-0.0876197069432295,0.933245138001951,0.914029558052341,0.408591906796365,3.39846444057915,2.91571229084492,-0.996715990102663,-4.41810201555255,4.84852823621534,107.043619544154,-4.38357995051322,-2.59667899752567,1.63370489232953,70.5459794050156,-93.9614954788363,353.761270093599,0.281245176124066,17.7243534462324,-1.54063454542475,173.797596494116,6.04581144064625,394.351111133065,3.73357995051324,0,0
65.325,-9.53127117614346,24.729989451685,53.8561551209692,0.0861156860594533,5.45902892114569,7.8210570691845,8.02273984400807,-5.29175129883643,-0.0114165303077423,43.5423954742455,-0.0897857107529325,0.873495547733717,4.39219811314356,4.7787738149276,0.955050099218492,5.83769298610939,3.81769298610941,0.435917793063582,19.0260402820158,-151.988417400636,10.5381466963914,9.64463166662582,0.142206815453609,-21.5584512053967,-43.2708485125088,-61.24601107146,3.8233590583962,10.2840000323749,1.00740996050535,-1.47203127192582,5.15421907726363,-25.3037626414651,701.989098214067,-0.204362607164123,-0.0755501152442538,-55.4616093325017,-10.679925181718,-49.3174254373607,0.121624974025324,-3.11528924105294,-5.08910731635669,-5.26871359437685,-53.3899327790139,188.869378426456,145.894714108219,-0.103782598511828,0.866569500468233,0.837244792103303,0.380836824536582,3.81976432543669,2.82066292657828,-0.893959920625219,1.57283055367281,3.19935675077479,95.9021975665532,-3.86979960312597,-2.5709899801563,1.55406893848451,70.7774977097025,-94.4467324735909,359.860033106103,-0.529663548185619,21.5278724800872,-1.04535264011582,175.326092243627,64.0747345794219,388.929449034647,3.219799603126,0,0
65.33,-9.1801198646613,24.7179583602384,50.5379107809995,0.0741026501382473,5.28877248166604,7.53243805395157,7.69618090334404,-5.26834597624375,-3.50193839005803,37.9106927558348,-0.107329329132198,0.733783345559391,4.04364613453336,4.36170775457606,1.02295353133096,5.89224891445157,3.74883054649266,-1.23871391723263,17.4172366887967,-147.190108174259,9.80004462143748,9.46791604692446,0.0954123284713751,-22.4208635503927,-63.617229047531,-60.0159740214738,4.77727777395773,10.5892150092807,1.26792411110822,-0.477983668005054,5.0822411057559,-26.7978263743012,709.311849270703,-0.192596783347038,-0.0773460949668242,-55.462890531774,-5.06062633441181,-45.6873858128712,0.147913482580128,-3.00748916025177,-4.9171522160047,-5.07650511652216,-51.3211100700425,194.938777597746,150.487578252214,-0.120797157319596,0.81620530434621,0.831915939533106,0.428130616509258,4.04281861745514,2.77892053905573,-0.791349288695925,4.71418030839911,4.19919776336007,86.272453326083,-3.71008999256307,-2.1375709504846,1.41061462431627,66.8536632464599,-88.73683158917,363.819572539305,-1.43380201547475,23.4940732160018,-0.612248747106136,174.294957127684,93.4362562229395,390.220632861414,3,0,0
65.335,-8.75949873201427,28.4180378885453,49.7846548351575,0.0555515011566902,5.18547507452974,7.44508338331884,7.57090726068979,-5.28621559164756,-1.47140695768816,36.2176161152079,-0.121331309621283,0.696551687581682,3.89713355404177,4.14465660744149,1.04559387294885,6.00104833389309,3.64191782218597,-1.07333693627893,19.8295666410181,-145.860880984622,8.80386959025046,9.4817518112465,0.192262678725667,-22.1638692748261,-65.3649454049337,-61.4896149127889,4.61264748558818,10.5236942456775,1.23192535856932,-0.885195384431398,4.72785687956923,-27.7553240592621,723.839401808848,-0.176414917140511,-0.0779333466165452,-55.3391786032818,-1.99226761487415,-43.4464011976685,0.176058844132471,-2.9621509622108,-4.85301840718574,-4.99352282433934,-48.9857001262749,197.69127606284,152.89925537538,-0.138449950399272,0.778033448264991,0.880016299895853,0.532101856251867,4.11765752446982,2.7770338439209,-0.68883885303716,5.72507622014427,7.17986550928147,77.772231788613,-3.81511602173494,-1.39924425439017,1.21942951732078,59.8224240937992,-78.3941707286806,366.179882502212,-2.40772641429808,24.0866216835288,-0.225601060651639,171.349825907069,101.364778058655,396.53131371498,3,0,0
65.34,-8.33887759936724,32.1181174168522,49.0313988893155,0.0370003521751332,5.08217766739345,7.35772871268612,7.44605506524197,-5.30408520705137,0.559124474681712,34.5245394745809,-0.135333290110369,0.659320029603973,3.75062097355018,3.92729925748327,1.06823421456673,6.1098477533346,3.53500509787929,-0.907959955325234,22.2418965932394,-144.531653794984,7.80769455906343,9.49558757556855,0.289113028979959,-21.9068749992596,-67.1126617623365,-62.963255804104,4.44801719721863,10.4581734820744,1.19592660603043,-1.29240710085774,4.37347265338255,-28.7128217442229,738.366954346992,-0.160233050933983,-0.0785205982662662,-55.2154666747897,1.0760911046635,-41.2054165824659,0.204204205684815,-2.91681276416984,-4.78888459836678,-4.91260846888974,-46.6502901825073,200.443774527934,155.310932498545,-0.156102743478948,0.739861592183771,0.9281166602586,0.638862739833045,4.1924964314845,2.77514714878608,-0.586328417378394,6.73597213188943,10.1605332552029,69.2720102511429,-3.9201420509068,-0.66091755829575,1.02824441032529,52.7911849411386,-68.0515098681911,368.54019246512,-3.38165081312142,24.6791701510559,0.161046625802857,168.404694686454,109.293299894371,402.841994568547,3,0,0
65.345,-7.91827652303972,35.8180205156565,48.2781788606938,0.0184500877610463,4.97888518574862,7.27037820735336,7.32195585135057,-5.32195397038502,2.58955908598386,32.8315435642916,-0.149334602948277,0.622090146929429,3.60411537916295,3.71135450905368,1.09087347663371,6.21864198493425,3.42809747145188,-0.74259085998001,24.6541115192376,-143.202489986388,6.8115670281163,9.50942268016504,0.385958761155372,-21.6498929778545,-68.8602947840365,-64.436826428354,4.2833947588533,10.3926558426733,1.15992957000653,-1.69959940036074,4.01910532516584,-29.6702737731813,752.893814173304,-0.144051956321305,-0.0791078219142874,-55.0917606452069,4.14430351680465,-38.9645388232911,0.232348225192454,-2.87147672797314,-4.72475384761614,-4.83441876852615,-44.314991597215,203.196141746678,157.722494626616,-0.173754694827122,0.70169155623683,0.976214727069927,0.747856268678901,4.26733176998369,2.77326054361384,-0.483822869686234,7.74681984146446,13.1410588750635,60.7721940265442,-4.02516307216196,0.077373932444103,0.837068419537462,45.7602810564139,-57.7093421729153,370.900389882253,-4.3555287726734,25.2716903643168,0.547675875880924,165.459703897425,117.221443677358,409.152374512288,3,0,0
65.35,-7.4976553903927,39.5181000439634,47.5249229148518,-0.00010106122051072,4.87558777861232,7.18302353672063,7.19887142546711,-5.33982358578883,4.62009051835373,31.1384669236647,-0.163336583437362,0.58485848895172,3.45760279867136,3.4984846167016,1.1135138182516,6.32744140437577,3.32118474714519,-0.577213879026309,27.066441471459,-141.873262796751,5.81539199692927,9.52325844448708,0.482809111409664,-21.392898702288,-70.6080111414392,-65.9104673196691,4.11876447048375,10.3271350790701,1.12393081746763,-2.10681111678708,3.66472109897916,-30.6277714581421,767.421366711448,-0.127870090114777,-0.0796950735640084,-54.9680487167148,7.21266223634231,-36.7235542080884,0.260493586744797,-2.82613852993218,-4.66062003879718,-4.75956304418392,-41.9795816534474,205.948640211772,160.134171749781,-0.191407487906798,0.66351970015561,1.02431508743267,0.858459683695807,4.34217067699837,2.77137384847901,-0.381312434027469,8.75771575320962,16.1217266209849,52.2719724890742,-4.13018910133383,0.815700628538528,0.645883312541975,38.7290419037532,-47.3666813124259,373.260699845161,-5.32945317149673,25.8642388318439,0.93432356233542,162.514572676811,125.149965513074,415.463055365855,3,0,0
65.355,-7.07705431406517,43.2180031427677,46.7717028862302,-0.0186513256345977,4.7722952969675,7.09567303138787,7.07704233256714,-5.35769234912248,6.65052512965588,29.4454710133754,-0.17733789627527,0.547628606277177,3.31109720428412,3.29031593185805,1.13615308031858,6.43623563597543,3.21427712071779,-0.411844783681084,29.4786563974572,-140.544098988154,4.81926446598215,9.53709354908357,0.579654843585076,-21.135916680883,-72.3556441631392,-67.3840379439191,3.95414203211841,10.261617439669,1.08793378144373,-2.51400341629008,3.31035377076245,-31.5852234871005,781.94822653776,-0.111688995502099,-0.0802822972120296,-54.844342687132,10.2808746484835,-34.4826764489136,0.288637606252436,-2.78080249373548,-4.59648928804654,-4.68859478556496,-39.6442830681551,208.701007430515,162.545733877852,-0.209059439254971,0.625349664208669,1.072413154244,0.969996371451726,4.41700601549755,2.76948724330677,-0.278806886335309,9.76856346278466,19.1022522408456,43.7721562644755,-4.23521012258899,1.55399211927838,0.454707321754145,31.6981380190285,-37.0245136171501,375.620897262294,-6.30333113104871,26.4567590451048,1.32095281241349,159.569581887782,133.078109296061,421.773435309597,3,0,0
65.36,-6.65643318141814,46.9180826710746,46.0184469403881,-0.0372024746161547,4.6689978898312,7.00831836075514,6.95667591853948,-5.37556196452629,8.68105656202576,27.7523943727484,-0.191339876764356,0.510396948299468,3.16458462379253,3.08835579088459,1.15879342193647,6.54503505541694,3.1073643964111,-0.246467802727384,31.8909863496785,-139.214871798517,3.82308943479512,9.55092931340561,0.676505193839368,-20.8789224053164,-74.103360520542,-68.8576788352342,3.78951174374886,10.1960966760659,1.05193502890484,-2.92121513271643,2.95596954457577,-32.5427211720613,796.475779075904,-0.0955071292955714,-0.0808695488617506,-54.7206307586399,13.3492333680211,-32.241691833711,0.316782967804779,-2.73546429569452,-4.53235547922758,-4.62195772692982,-37.3088731243876,211.453505895609,164.957411001017,-0.226712232334647,0.58717780812745,1.12051351460675,1.0817851373285,4.49184492251223,2.76760054817194,-0.176296450676543,10.7794593745298,22.082919986767,35.2719347270054,-4.34023615176085,2.29231881537281,0.263522214758657,24.6668988663679,-26.6818527566606,377.981207225202,-7.27725552987204,27.0493075126319,1.70760049886798,156.624450667167,141.006631131777,428.084116163163,3,0,0
65.365,-6.23583210509062,50.617985769879,45.2652269117665,-0.0557527390302417,4.56570540818638,6.92096785542238,6.83800163720222,-5.39343072785994,10.7114911733279,26.0593984624591,-0.205341189602264,0.473167065624924,3.01807902940529,2.89402233662704,1.18143268400345,6.65382928701659,3.00045676998369,-0.0810987073821595,34.3032012756767,-137.885707989921,2.82696190384799,9.5647644180021,0.773350926014781,-20.6219403839114,-75.850993542242,-70.3312494594841,3.62488930538352,10.1305790366647,1.01593799288094,-3.32840743221942,2.60160221635906,-33.5001732010197,811.002638902217,-0.079326034682893,-0.0814567725097718,-54.5969247290571,16.4174457801623,-30.0008140745361,0.344926987312418,-2.69012825949782,-4.46822472847694,-4.5599826542601,-34.9735745390952,214.205873114353,167.368973129088,-0.244364183682821,0.549007772180508,1.16861158141808,1.19315401206308,4.56668026101142,2.7657139429997,-0.0737909029843833,11.7903070841049,25.0634456066277,26.7721185024067,-4.44525717301601,3.03061030611266,0.0723462239708271,17.6359949816432,-16.3396850613848,380.341404642335,-8.25113348942402,27.6418277258928,2.09422974894605,153.679459878138,148.934774914763,434.394496106905,3,0,0
65.37,-5.8152109724436,54.3180652981859,44.5119709659245,-0.0743038880117987,4.46240800105008,6.83361318478965,6.72125877488499,-5.41130034326375,12.7420226056978,24.3663218218321,-0.219343170091349,0.435935407647215,2.8715664489137,2.70856382915966,1.20407302562134,6.76262870645811,2.89354404567701,0.0842782735715408,36.7155312278981,-136.556480800283,1.83078687266096,9.57860018232415,0.870201276269073,-20.3649461083448,-77.5987098996447,-71.8048903507993,3.46025901701397,10.0650582730616,0.979939240342041,-3.73561914864577,2.24721799017239,-34.4576708859805,825.530191440361,-0.0631441684763654,-0.0820440241594928,-54.473212800565,19.4858044996999,-27.7598294593335,0.373072348864762,-2.64479006145685,-4.40409091965798,-4.50283848279074,-32.6381645953277,216.958371579447,169.780650252253,-0.262016976762497,0.510835916099289,1.21671194178082,1.30349012409616,4.6415191680261,2.76382724786488,0.0287195326743823,12.80120299585,28.0441133525491,18.2718969649366,-4.55028320218788,3.76893700220708,-0.11883888302466,10.6047558289826,-5.99702420089539,382.701714605243,-9.22505788824735,28.2343761934199,2.48087743540055,150.734328657523,156.863296750479,440.705176960471,3,0,0
65.375,-5.39460989611607,58.0179683969902,43.7587509373028,-0.0928541524258857,4.35911551940525,6.74626267945689,6.60674835841088,-5.4291691065974,14.7724572169999,22.6733259115428,-0.233344482929257,0.398705524972671,2.72506085452646,2.5330911289677,1.22671228768832,6.87142293805776,2.7866364192496,0.249647368916766,39.1277461538963,-135.227316991687,0.834659341713832,9.59243528692064,0.967047008444486,-20.1079640869398,-79.3463429213447,-73.2784609750492,3.29563657864864,9.99954063366041,0.943942204318142,-4.14281144814877,1.89285066195568,-35.4151229149389,840.057051266673,-0.0469630738636871,-0.082631247807514,-54.3495067709822,22.5540169118411,-25.5189517001586,0.4012163683724,-2.59945402526016,-4.33996016890734,-4.45053677452233,-30.3028660100354,219.71073879819,172.192212380324,-0.27966892811067,0.472665880152347,1.26481000859215,1.41225033653649,4.71635450652528,2.76194064269263,0.131225080366542,13.8120507054251,31.0246389724097,9.77208074033793,-4.65530422344303,4.50722849294694,-0.31001487381249,3.57385194425786,4.34514349438042,385.061912022376,-10.1989358477993,28.8268964066808,2.86750668547862,147.789337868494,164.791440533466,447.015556904213,3,0,0
65.38,-4.97398876346905,61.7180479252971,43.0054949914608,-0.111405301407443,4.25581811226896,6.65890800882416,6.49481452260533,-5.44703872200121,16.8029886493698,20.9802492709159,-0.247346463418342,0.361473866994962,2.57854827403487,2.36849996992931,1.24935262930621,6.98022235749928,2.67972369494291,0.415024349870466,41.5400761061176,-133.89808980205,-0.161515689473195,9.60627105124268,1.06389735869878,-19.8509698113733,-81.0940592787474,-74.7521018663644,3.13100629027909,9.93401987005728,0.907943451779246,-4.55002316457511,1.538466435769,-36.3726205998997,854.584603804817,-0.0307812076571595,-0.083218499457235,-54.2257948424901,25.6223756313787,-23.277967084956,0.429361729924744,-2.55411582721919,-4.27582636008838,-4.40289300703574,-27.9674560662678,222.463237263284,174.603889503489,-0.297321721190346,0.434494024071128,1.3129103689549,1.51900417095007,4.79119341353997,2.76005394755781,0.233735516025308,14.8229466171702,34.0053067183311,1.27185920286789,-4.7603302526149,5.24555518904136,-0.501199980807978,-3.45738720840277,14.6878043548699,387.422221985284,-11.1728602466227,29.4194448742079,3.25415437193311,144.844206647879,172.719962369182,453.326237757779,3,0,0
65.385,-4.55338768714152,65.4179510241014,42.2522749628391,-0.12995556582153,4.15252563062413,6.5715575034914,6.38588735590287,-5.46490748533486,18.8334232606719,19.2872533606265,-0.26134777625625,0.324243984320419,2.43204267964764,2.2155068190053,1.27199189137319,7.08901658909893,2.57281606851551,0.58039344521569,43.9522910321158,-132.568925993453,-1.15764322042032,9.62010615583917,1.16074309087419,-19.5939877899683,-82.8416923004474,-76.2256724906143,2.96638385191375,9.86850223065612,0.871946415755347,-4.95721546407811,1.18409910755229,-37.330072628858,869.111463631129,-0.0146001130444812,-0.0838057231052562,-54.1020888129073,28.6905880435199,-21.0370893257812,0.457505749432383,-2.5087797910225,-4.21169560933774,-4.35954342847529,-25.6321574809755,225.215604482028,177.01545163156,-0.31497367253852,0.396323988124187,1.36100843576622,1.62343387269541,4.86602875203915,2.75816734238556,0.336241063717467,15.8337943267453,36.9858323381918,-7.22795702173083,-4.86535127387006,5.98384667978122,-0.692375971595808,-10.4882910931275,25.0299720501457,389.782419402418,-12.1467382061746,30.0119650874688,3.64078362201118,141.89921585885,180.648106152169,459.636617701521,3,0,0
65.39,-4.1327665544945,69.1180305524083,41.4990190169971,-0.148506714803087,4.04922822348784,6.48420283285868,6.28045289706646,-5.48277710073867,20.8639546930418,17.5941767199996,-0.275349756745336,0.28701232634271,2.28553009915605,2.07457509500906,1.29463223299108,7.19781600854045,2.46590334420882,0.745770426169391,46.3646209843372,-131.239698803816,-2.15381825160735,9.63394192016121,1.25759344112848,-19.3369935144017,-84.5894086578502,-77.6993133819294,2.8017535635442,9.802981467053,0.83594766321645,-5.36442718050445,0.829714881365611,-38.2875703138189,883.639016169274,0.0015817531620464,-0.0843929747549772,-53.9783768844151,31.7589467630575,-18.7961047105785,0.485651110984726,-2.46344159298153,-4.14756180051878,-4.31992037885263,-23.2967475372079,227.968102947122,179.427128754725,-0.332626465618196,0.358152132042967,1.40910879612897,1.72536347340194,4.94086765905383,2.75628064725074,0.438751499376233,16.8446902384904,39.9665000841132,-15.7281785592009,-4.97037730304192,6.72217337587564,-0.883561078591296,-17.5195302457881,35.3726329106351,392.142729365325,-13.120662604998,30.6045135549959,4.02743130846568,138.954084638236,188.576627987885,465.947298555088,3,0,0
65.395,-3.71216547816697,72.8179336512127,40.7457989883755,-0.167056979217174,3.94593574184301,6.39685232752591,6.17908283406462,-5.50064586407232,22.894389304344,15.9011808097103,-0.289351069583244,0.249782443668166,2.13902450476881,1.94595572420226,1.31727149505806,7.3066102401401,2.35899571778141,0.911139521514615,48.7768359103353,-129.91053499522,-3.14994578255448,9.6477770247577,1.35443917330389,-19.0800114929967,-86.3370416795502,-79.1728840061794,2.63713112517887,9.73746382765184,0.799950627192552,-5.77161948000745,0.475347553148902,-39.2450223427772,898.165875995586,0.0177628477747247,-0.0849801984029984,-53.8546708548324,34.8271591751987,-16.5552269514037,0.513795130492365,-2.41810555678484,-4.08343104976814,-4.28328439605281,-20.9614489519156,230.720470165865,181.838690882796,-0.350278416966369,0.319982096096026,1.4572068629403,1.82474223727835,5.01570299755302,2.75439404207849,0.541257047068393,17.8555379480655,42.9470257039738,-24.2279947837996,-5.07539832429708,7.46046486661549,-1.07473706937913,-24.5504341305128,45.7148006059109,394.502926782458,-14.09454056455,31.1970337682568,4.41406055854374,136.009093849207,196.504771770871,472.257678498829,3,0,0
65.4,-3.29154434551995,76.5180131795196,39.9925430425334,-0.185608128198731,3.84263833470671,6.30949765689319,6.08239023377188,-5.51851547947613,24.9249207367138,14.2081041690833,-0.303353050072329,0.212550785690457,1.99251192427722,1.82961899255552,1.33991183667595,7.41540965958161,2.25208299347473,1.07651650246832,51.1891658625567,-128.581307805583,-4.14612081374151,9.66161278907975,1.45128952355819,-18.8230172174301,-88.0847580369529,-80.6465248974945,2.47250083680932,9.67194306404871,0.763951874653655,-6.17883119643379,0.120963326962224,-40.2025200277381,912.69342853373,0.0339447139812523,-0.0855674500527194,-53.7309589263402,37.8955178947363,-14.3142423362011,0.541940492044708,-2.37276735874387,-4.01929724094918,-4.24871539714236,-18.626039008148,233.47296863096,184.250368005961,-0.367931210046046,0.281810240014806,1.50530722330304,1.9216551004794,5.0905419045677,2.75250734694367,0.643767482727159,18.8664338598106,45.9276934498952,-32.7282163212696,-5.18042435346895,8.19879156270992,-1.26592217637461,-31.5816732831735,56.0574614664004,396.863236745366,-15.0684649633733,31.7895822357839,4.80070824499824,133.063962628592,204.433293606587,478.568359352396,3,0,0
65.405,-2.87094326919242,80.2179162783239,39.2393230139118,-0.204158392612818,3.73934585306189,6.22214715156042,5.99104461684566,-5.53638424280978,26.955355348016,12.515108258794,-0.317354362910237,0.175320903015913,1.84600632988998,1.72530184451434,1.36255109874293,7.52420389118127,2.14517536704732,1.24188559781354,53.6013807885549,-127.252143996986,-5.14224834468864,9.67544789367624,1.5481352557336,-18.5660351960251,-89.8323910586529,-82.1200955217445,2.30787839844398,9.60642542464755,0.727954838629757,-6.58602349593679,-0.233404001254485,-41.1599720566964,927.220288360042,0.0501258085939307,-0.0861546737007406,-53.6072528967575,40.9637303068775,-12.0733645770262,0.570084511552347,-2.32743132254718,-3.95516649019854,-4.21516060476134,-16.2907404228557,236.225335849703,186.661930134032,-0.385583161394219,0.243640204067865,1.55340529011437,2.01628649622535,5.16537724306688,2.75062074177142,0.746273030419318,19.8772815693857,48.9082190697559,-41.2280325458684,-5.28544537472411,8.93708305344977,-1.45709816716244,-38.6125771678982,66.3996291616762,399.2234341625,-16.0423429229253,32.3821024490448,5.18733749507631,130.118971839563,212.361437389574,484.878739296137,3,0,0
65.41,-2.73255466461182,81.4352798461914,40.7461063021713,-0.24351220494118,3.49568400379818,6.19340658187866,5.96432765874061,-5.54226352691651,27.623420715332,11.9127506084142,-0.336267223943671,0.0501953596060076,1.79780220985413,1.73075618218693,1.08632748708246,7.61018033622007,2.09771093806857,2.14970337486894,58.0691372399981,-128.253595933949,-5.22319467287682,9.77216796448585,1.47144661960554,-16.1829717498591,-74.3848475455539,-84.8756332539997,1.70406059893308,9.44064893744049,0.57385358497675,-6.59813373034875,0.0335211445073115,-41.9552962279634,945.415559275162,0.0652150291132663,-0.0857395748074342,-53.5665504217148,41.9732513427734,-7.5480531115282,0.591342111905566,-2.15002927226555,-3.93406581878662,-4.22447395548365,-15.5223669433594,237.130935668945,191.130467469091,-0.406129731834503,0.0902583500510929,1.56923079490662,2.07663660651081,5.49825063678043,2.82578254857725,0.744156902699925,20.1428682837071,49.5829266473858,-45.8440288188633,-5.52276952186885,9.51180467214905,-1.21277345171383,-40.6035276962429,63.9601074912333,400,-20.7820706225285,29.8528296311361,3.96899066636608,109.257075676274,184.13418426969,475.538989974724,2.69277345171385,0,0
65.415,-2.73255466461182,81.4352798461914,43.3609421844609,-0.293063937024812,3.18321139737692,6.19340658187866,5.97302964107738,-5.54226352691651,27.623420715332,11.845214330336,-0.357587047007242,-0.118019647528357,1.79780220985413,1.79507721869499,0.663580452659932,7.68496230259807,2.07939698711885,3.42150552415453,63.5444810115892,-130.397760150078,-4.85538949130342,9.90952259660869,1.30967338621642,-12.7575846277833,-50.5069977116335,-88.2595690467655,0.884932667663738,9.22572376679302,0.361852601336024,-6.416520374698,0.605069026575669,-42.6710668501796,965.408289061931,0.0797677928059545,-0.0848330311702204,-53.5665504217148,41.9732513427734,-1.90292447276666,0.609221546414139,-1.90788318452402,-3.93406581878662,-4.25347587375721,-15.5223669433594,237.130935668945,196.607295053644,-0.428094176433764,-0.11960503912968,1.56923079490662,2.11946906212172,5.95762557310239,2.93871857943381,0.690741212429936,20.0430082630966,49.1269620249753,-48.5553225860069,-5.82494971253911,10.0062813477913,-0.754924677971017,-40.1230691065128,55.2534441847908,400,-27.3679910082214,25.7930108608216,1.96375380092968,79.6113687407961,138.18066541809,458.526091692234,2.23492467797104,0,0
65.42,-2.73255466461182,81.4352798461914,45.9759027549334,-0.342618031977745,2.87072389073123,6.19340658187866,5.98901791013032,-5.54226352691651,27.623420715332,11.7776748317972,-0.378907886704406,-0.286242675978211,1.79780220985413,1.86899489004153,0.240813259588106,7.75974783494652,2.06108216287025,4.69336831919613,69.0200858743905,-132.542026610459,-4.48756677097738,10.0468837784732,1.14789243868712,-9.33203416647123,-26.6280092648746,-91.6436662021651,0.0657656763623822,9.01078834746066,0.149841508449976,-6.23489835883287,1.1766441628466,-43.3868716038451,985.401972199985,0.0943212504456978,-0.0839264443045655,-53.5665504217148,41.9732513427734,3.74247335337931,0.627101833501727,-1.66572555007095,-3.93406581878662,-4.27978067089562,-15.5223669433594,237.130935668945,202.084383800163,-0.45005966840533,-0.3294784356248,1.56923079490662,2.16093095382509,6.41702241467141,3.05165999563351,0.637322975038193,19.9431434806711,48.6709756599381,-51.2667456409178,-6.127144312641,10.5007816025035,-0.29705407175604,-39.6425876061638,46.5463657019948,400,-33.9542254428573,21.7329984984625,-0.0415786840224945,49.9642481528015,92.224955277623,441.512382151423,1.77705407175606,0,0
65.425,-2.73255466461182,81.4352798461914,48.590738637223,-0.392169764061377,2.55825128430997,6.19340658187866,6.0128104794988,-5.54226352691651,27.623420715332,11.7101385537189,-0.400227709767977,-0.454457683112576,1.79780220985413,1.95119725622177,-0.181933774834422,7.83452980132451,2.04276821192054,5.96517046848172,74.4954296459815,-134.686190826588,-4.11976158940399,10.184238410596,0.986119205297996,-5.90664704439537,-2.75015943095413,-95.0276019949309,-0.753362254906964,8.79586317681319,-0.06215947519075,-6.05328500318211,1.74819204491495,-44.1026422260613,1005.39470198675,0.108874014138386,-0.0830199006673516,-53.5665504217148,41.9732513427734,9.38760199214086,0.644981268010301,-1.42357946232942,-3.93406581878662,-4.30211427663084,-15.5223669433594,237.130935668945,207.561211384716,-0.472024113004591,-0.539341824805572,1.56923079490662,2.20130508092053,6.87639735099337,3.16459602649007,0.583907284768204,19.8432834600605,48.2150110375276,-53.9780394080615,-6.42932450331126,10.9952582781457,0.160794701986773,-39.1621290164336,37.8397023955523,400,-40.5401458285502,17.673179728148,-2.04681554945889,20.318541217324,46.2714364260238,424.499483868934,1.31920529801324,0,0
65.43,-2.73255466461182,81.4352798461914,51.2056992076955,-0.44172385901431,2.24576377766429,6.19340658187866,6.04479671381574,-5.54226352691651,27.623420715332,11.6425990551801,-0.421548549465141,-0.62268071156243,1.79780220985413,2.04014549436728,-0.604700967906248,7.90931533367296,2.02445338767194,7.23703326352332,79.9710345087828,-136.830457286969,-3.75193886907795,10.3215995924605,0.824338257768704,-2.48109658308331,21.1288290158047,-98.4116991503305,-1.57252924620832,8.58092775748083,-0.274170568076798,-5.87166298731698,2.31976718118588,-44.8184469797268,1025.38838512481,0.123427471778129,-0.0821133138016967,-53.5665504217148,41.9732513427734,15.0329998182868,0.662861555097888,-1.18142182787635,-3.93406581878662,-4.31926111101158,-15.5223669433594,237.130935668945,213.038300131235,-0.493989604976157,-0.749215221300693,1.56923079490662,2.24079270598643,7.3357941925624,3.27753744268977,0.530489047376462,19.743418677635,47.7590246724904,-56.6894624629724,-6.73151910341315,11.4897585328579,0.61866530820175,-38.6816475160846,29.1326239127563,400,-47.1263802631862,13.6131673657888,-4.05214803441106,-9.32857937067065,0.315726285556465,407.485774328122,0.861334691798268,0,0
65.435,-2.73255466461182,81.4352798461914,53.8205350899851,-0.491275591097943,1.93329117124303,6.19340658187866,6.08520030123211,-5.54226352691651,27.623420715332,11.5750627771018,-0.442868372528712,-0.790895718696794,1.79780220985413,2.13409982767824,-1.02744800232878,7.98409730005095,2.00613943672223,8.50883541280892,85.4463782803738,-138.974621503098,-3.38413368750455,10.4589542245834,0.662565024379576,0.944290538992552,45.0066788497252,-101.795634943096,-2.39165717747767,8.36600258683336,-0.486171551717524,-5.69004963166623,2.89131506325424,-45.534217601943,1045.38111491158,0.137980235470817,-0.0812067701644828,-53.5665504217148,41.9732513427734,20.6781284570484,0.680740989606462,-0.939275740134826,-3.93406581878662,-4.33011138773118,-15.5223669433594,237.130935668945,218.515127715788,-0.515954049575418,-0.959078610481465,1.56923079490662,2.27947582856131,7.79516912888435,3.39047347354633,0.477073357106472,19.6435586570244,47.3030600500799,-59.4007562301161,-7.03369929408341,11.9842352085001,1.07651408194456,-38.2011889263545,20.4259606063138,400,-53.7123006488791,9.55334859547436,-6.05738489984746,-38.9742863061482,-45.6377925660428,390.472876045633,0.403485918055454,0,0
65.44,-2.61327761165065,81.1353715019417,56.5761402440642,-0.538242235660714,1.62628285399364,6.17380824144305,6.11444789800968,-5.52196102531453,27.1735580217877,11.6994408380752,-0.461771641504874,-0.976542608104875,1.77432502982316,2.20767505047628,-1.34287389646587,8.03955010301207,2.02761962915662,9.35211247505261,90.8005503413652,-139.92614367779,-2.81733016994659,10.6357327839357,0.498403546224893,4.07821285566956,66.1118814140843,-105.279487509709,-3.2321569591727,8.21914375738392,-0.684068323936463,-5.32680776283951,3.65752461127071,-48.2058658468808,1066.94773886211,0.153085477505765,-0.0797528652375395,-53.477219485534,42.3731293122761,26.180275513355,0.697753871396895,-0.660165269589308,-3.91079278951933,-4.31043310073751,-15.2472683877044,234.265143406535,223.240682167464,-0.535569873672121,-1.18863621221753,1.57290548373829,2.32096290127043,8.17422358742972,3.59217677054882,0.432554419263727,20.7585121470898,46.9703271652701,-61.9142607790338,-7.16043582022766,12.434165415917,1.31651716712193,-35.5845895210483,10.0097376055512,393.420721921087,-59.4136255482615,5.55661018120408,-7.86284938204111,-60.8012592327872,-89.0195221269315,371.263361044865,0,0,0
65.445,-1.60911900962387,78.6105309209459,60.375021715601,-0.566010980136131,1.35993793959559,6.00881554883956,6.0065428949643,-5.35104020592675,23.3862956587538,13.2476023281744,-0.462738644178997,-1.29144400149173,1.57667752182257,2.10814087295405,-0.861945948969395,7.95157547847003,2.34432827750796,7.01577676705003,95.2535868922585,-132.02894281355,-0.774363888914789,11.1049307814932,0.316589322171344,5.04846797407558,66.6380396623741,-109.503234915706,-4.23087940964955,8.5773354741048,-0.777244972486886,-3.61619001680034,5.86764264537273,-65.3873104375723,1100.18259702244,0.17228355254001,-0.0742386110169133,-52.7251684768438,45.7395849118108,30.619417843686,0.708330874557962,-0.10692406916423,-3.71486396705269,-4.11007606594457,-12.9312941562149,210.138877033586,222.390562462911,-0.537753152071562,-1.56421516466923,1.60384161360145,2.38860897047573,7.95721951355936,4.4523730994043,0.454059327485117,30.885851641696,47.5519975223244,-62.9593365657746,-5.98548583467732,12.5534199069629,-0.0597969590468683,-17.1207794319784,-13.0857132104371,338.031705223824,-58.5497515285739,2.0294762625045,-8.18545602433454,-24.6114316013083,-113.30345176362,335.764619205274,0,0,0
65.45,-0.604912524396383,76.0855699431841,64.1740843364141,-0.593781048761302,1.09358032456741,5.84381498857633,5.90642651896735,-5.18011123619709,19.5988527004996,14.7958376421967,-0.463705692964544,-1.60636041091948,1.37902058902069,2.00753680535066,-0.380995068472704,7.86359665886698,2.66105202807895,4.67932965111707,99.7068357857464,-124.13136537209,1.26869981075613,11.5741511527095,0.134766428325031,6.01876935899814,67.1642230004665,-113.727183730667,-5.22964948410478,8.93554427116124,-0.870426064156309,-1.9054907001281,8.07786606872819,-82.5695743236999,1133.41903998359,0.191482543032509,-0.0687240938496359,-51.9730816066779,49.106201040438,35.0587718540671,0.718908382082349,0.446343512511167,-3.5189258017401,-3.90114556408232,-10.61520948773,186.011460202082,221.540402220488,-0.539936534580412,-1.93981202656504,1.6347792186508,2.45475320964505,7.74020509187182,5.31261044663416,0.475565261165867,41.0136740574549,48.1336956162706,-64.0044621868479,-4.81047982175653,12.672680084647,-1.43617671461465,1.34391110199592,-36.1822653306462,282.640047306938,-57.6858363151417,-1.49782584721691,-8.50807805009287,11.5801217384169,-137.588539377021,300.264184611792,0,0,0
65.455,0.399246077630396,73.5607293621883,67.9729658079509,-0.621549793236719,0.827235410169352,5.67882229597284,5.81341456817844,-5.0091904168093,15.8115903374657,16.343999132296,-0.464672695638667,-1.92126180430633,1.18137308102011,1.90372559537239,0.0999328790237729,7.77562203432494,2.97776067643029,2.34299394311449,104.15987233664,-116.23416450785,3.31166609178793,12.0433491502671,-0.047047795728518,6.98902447740417,67.6903812487563,-117.950931136664,-6.22837193458162,9.29373598788213,-0.963602712706733,-0.194872954088923,10.2879841028302,-99.7510189143915,1166.65389814392,0.210680618066754,-0.0632098396290097,-51.2210305979877,52.4726566399726,39.4979141843981,0.729485385243416,0.999584712936246,-3.32299697927346,-3.68337252891263,-8.29923525624048,161.885193829133,220.690282515936,-0.542119812979853,-2.31539097901673,1.66571534851396,2.51883287155099,7.52320101800145,6.17280677548965,0.497070169387257,51.1410135520612,48.7153659733249,-65.0495379735887,-3.63552983620619,12.7919345756929,-2.81249084078345,19.8077211910659,-59.2777161466345,227.251030609674,-56.8219622954541,-5.02495976591649,-8.8306846923863,47.7699493698958,-161.872469013709,264.765442772201,0,0,0
65.46,1.40345256285788,71.0357683844264,71.772028428764,-0.649319861861889,0.56087779514117,5.51382173570961,5.72653634712879,-4.83826144707965,12.0241473792115,17.8922344463183,-0.465639744424214,-2.23617821373408,0.983716148218227,1.79455040440643,0.580883759520464,7.68764321472189,3.29448442700129,0.00654682718153099,108.613121230128,-108.336587066391,5.35472979145884,12.5125695214834,-0.228870689574831,7.95932586232673,68.2165645868486,-122.174879951625,-7.22714200903685,9.65194478493856,-1.05678380437616,1.51582636258332,12.4982075261857,-116.933282800519,1199.89034110507,0.229879608559253,-0.0576953224617324,-50.4689437278218,55.8392727685998,43.9372681947791,0.740062892767802,1.55285229461164,-3.12705881396087,-3.45672249634162,-5.98315058775554,137.757776997629,219.840122273512,-0.544303195488703,-2.69098784091254,1.69665295356331,2.5801551390808,7.30618659631392,7.03304412271951,0.518576103068006,61.2688359678201,49.2970640672711,-66.094663594662,-2.4605238232854,12.911194753377,-4.18887059635123,38.2724117250402,-82.3742682668437,171.859372692788,-55.9580470820219,-8.5522618756379,-9.15330671814462,83.9615027096209,-186.15755662711,229.265008178719,0,0,0
65.465,2.40533058624578,68.4468182200563,75.5449653351915,-0.676977230304603,0.295077376303407,5.3459700166957,5.641747982455,-4.67081963290562,8.14905509765944,19.4137004407462,-0.466523744773803,-2.551252167051,0.786021773712727,1.67791776102518,1.06121000919607,7.60204249552299,3.60942887565947,-2.32754859307304,113.010327801948,-100.427786352411,7.39331058516043,12.9801936014714,-0.411335850152486,8.93488895700792,68.7285151663449,-126.413333763559,-8.21698778240259,10.0119285826288,-1.14824159248288,3.23002858472571,14.7071146627841,-134.110614822954,1232.99612797057,0.2490308535824,-0.0521891977940739,-49.7153038213355,59.1791558282072,48.3664860143191,0.750647549552387,2.10691806461659,-2.92975760760574,-3.22010724483824,-3.67486415123952,113.530010100239,218.906813309865,-0.546444311583391,-3.066744733761,1.72577906269785,2.63610853753923,7.08715405837082,7.8893804752916,0.539273994482379,71.344472588362,49.863588642286,-67.1178166534312,-1.28664101447173,13.0265345336624,-5.55672813513383,56.660249136412,-105.356054019591,116.528433423501,-55.0974273681641,-12.0661087036133,-9.47469806671143,120.014999389648,-210.350006103516,193.899993896484,0,0,0
65.47,2.79911202279649,49.1480122345252,72.4953173519843,-0.675203030701347,0.174794478271261,4.43358169708748,4.81593657279368,-5.41401305298233,-18.6143817513883,13.9446194156771,-0.445720638066707,-2.90745172168861,0.578559391129615,1.54215833361561,1.37839879483084,8.13745716567447,3.45971576883985,-4.04741667518157,102.772570256719,-89.5885448877559,8.26113910265717,13.0309438071729,-0.761512269493272,11.2844355172655,65.5237336581536,-134.439384813399,-6.87631625603466,10.8354145279986,-0.789675753366208,5.85888921344715,16.5721845771191,-149.999232994934,1231.98112385654,0.255713050644366,-0.0488749324422937,-48.556143754204,55.537871547581,50.148552618043,0.763098641908611,2.86939435827872,-2.37652461385241,-2.61950452160847,-3.40309895250263,63.0982283310705,196.260295695583,-0.53754797784061,-3.48427380006188,1.28185418218906,2.2145924354641,6.34112603455784,7.7269798170466,0.348960723101516,67.7919581892526,46.4677106805271,-62.4030598891811,-0.4061249455496,12.1181058516044,-4.69904965877741,54.9779737992675,-98.3669361850113,77.0560512111744,-55.0974273681641,-12.0661087036133,-9.47469806671143,120.014999389648,-210.350006103516,193.899993896484,0,0,0
65.475,3.19291223677492,29.8482859873955,69.4455239466235,-0.673428746495563,0.0545058445613669,3.52114987033512,3.99196822440568,-6.15724191216161,-45.3790948121974,8.47527759803608,-0.424916539365587,-3.26366826166572,0.37108711572391,1.39527011775613,1.69560270558056,8.67289736701999,3.30999552296597,-5.76736676902451,92.5343245250639,-78.7487865549753,9.12900900246841,13.0816964328929,-1.11170538696096,13.6340941154116,62.3187993302823,-142.465818584666,-5.53558079988149,11.6589397412118,-0.431092816074003,8.48787519912003,18.437343427123,-165.888608814053,1230.96607134214,0.262395566346219,-0.0455605090501076,-47.3969284126428,51.8964136326846,51.9307041994315,0.775550327993907,3.63190701054528,-1.82326523924008,-2.01163763191353,-3.1313207946699,12.6640417275231,173.612698184415,-0.528651219877059,-3.90182277619378,0.837908133167545,1.78775603589953,5.59506243647449,7.56457141474275,0.158638376651683,64.2392743888557,43.0716707866733,-57.6880783022346,0.474433110691635,11.2096338512172,-3.84133028411016,53.2956182429949,-91.3774850750594,37.5817867623201,-55.0974273681641,-12.0661087036133,-9.47469806671143,120.014999389648,-210.350006103516,193.899993896484,0,0,0
65.48,3.58669367332564,10.5494800018645,66.3958759634164,-0.671654546892307,-0.0657770534707798,2.6087615507269,3.1681384438155,-6.90043533223832,-72.1425316612451,3.00619657296698,-0.404113432658492,-3.61986781630334,0.163624733140798,1.23573930855148,2.01279149121534,9.20831203717147,3.16028241614635,-7.48723485113304,82.296566979835,-67.9095450903204,9.99683751996515,13.1324466385945,-1.46188180630175,15.9836406756691,59.114017822091,-150.491869634506,-4.19490927351357,12.4824256865816,-0.0725269769573309,11.1167358278415,20.302413341458,-181.777226986033,1229.95106722811,0.269077763408184,-0.0422462436983274,-46.2377683455113,48.2551293520583,53.7127708031554,0.788001420350131,4.39438330420741,-1.27003224548675,-1.39763015166886,-2.85955559593301,-37.767740041645,150.966180570133,-0.519754886134277,-4.31935184249466,0.39398325265876,1.35478406528755,4.84903441266151,7.40217075649775,-0.0316748947291794,60.6867599897463,39.6757928249144,-52.9733215379844,1.35494917961377,10.3012051691593,-2.98365180775374,51.6133429058505,-84.3883672404799,-1.89059545000691,-55.0974273681641,-12.0661087036133,-9.47469806671143,120.014999389648,-210.350006103516,193.899993896484,0,0,0
65.485,3.94256674477645,-7.91464299207896,62.7914044385905,-0.669454639580675,-0.187993100090338,1.73291516401478,2.37903124212972,-7.67393663862574,-98.4613586939811,-3.25702242644366,-0.383391898288195,-3.96799993861976,-0.0557659707795978,1.05036272413828,2.36909432495465,9.75042394402693,2.98933946618293,-9.04780199565552,72.302128741854,-57.0239497854942,10.9158559212231,13.1743474993522,-1.79753666753047,18.0629575243378,55.8871680439185,-159.035843738703,-2.93524299524831,13.2918627429299,0.247781085249796,13.7484615887901,22.107551981384,-197.856214944326,1228.33197719616,0.275614553744789,-0.0389051944383278,-45.1149362882699,45.5314424904741,55.4463969053331,0.801301672734586,5.14473547914405,-0.714906170225168,-0.776859765217929,-2.68390419680518,-86.669563565893,127.109408682091,-0.510861559220157,-4.72613480731827,-0.0540521521790735,0.910748851895566,4.15530992485098,7.19912749416947,-0.220619849701975,57.105110708013,35.8251699570349,-48.2897421131938,2.18000000000001,9.42379295154184,-2.11919279606116,49.8951429878526,-76.0088403251658,-41.1709551825299,-55.1835362849813,-11.9406989894713,-9.27708647412381,123.134237590631,-208.401606128314,190.811330615427,0,0,0
