timeStamp,timeStampAlign,roll,pitch,yaw,gyro_x,gyro_y,gyro_z,acc_x,acc_y,acc_z,flag_num
1758076502.26164,1758076502.27678,0.0,0.0,0.0,-3.60963,34.60666,6.7609,9.53,-0.68,1.01,2.0
1758076502.26348,1758076502.28678,0.0,0.0,0.0,-3.09397,33.17426,4.87014,9.53,-0.68,1.01,2.0
1758076502.27854,1758076502.29678,0.0,0.0,0.0,-2.92208,31.28349,1.08862,9.42,-0.47,0.91,2.0
1758076502.27963,1758076502.30678,0.0,0.0,0.0,-2.6929,30.02299,-1.60428,9.44,-0.23,0.85,2.0
1758076502.29517,1758076502.31678,0.0,0.0,0.0,-2.06265,28.24682,-3.89611,9.44,-0.23,0.85,2.0
1758076502.31182,1758076502.32678,0.0,0.0,0.0,-0.57296,25.55392,-6.35983,9.19,-0.21,0.9,2.0
1758076502.31274,1758076502.33678,0.0,0.0,0.0,1.20321,20.16812,-6.7609,9.19,-0.21,0.9,2.0
1758076502.32754,1758076502.34678,0.0,0.0,0.0,3.72423,16.95955,-6.53172,8.97,-0.55,0.88,2.0
1758076502.34353,1758076502.35678,0.0,0.0,0.0,6.99009,14.78231,-6.07335,8.97,-0.55,0.88,2.0
1758076502.3448,1758076502.36678,0.0,0.0,0.0,12.89155,17.53251,-5.09932,9.26,-1.11,0.71,2.0
1758076502.36036,1758076502.37678,0.0,0.0,0.0,16.67307,19.99623,-4.58366,9.8,-1.6,0.71,2.0
1758076502.3616,1758076502.38678,0.0,0.0,0.0,20.22541,21.7151,-4.23989,9.8,-1.6,0.71,2.0
1758076502.37681,1758076502.39678,0.0,0.0,0.0,23.49127,23.37668,-3.66693,9.98,-1.68,1.03,2.0
1758076502.39255,1758076502.40678,0.0,0.0,0.0,27.78845,24.86637,-2.11994,9.98,-1.68,1.03,2.0
1758076502.39376,1758076502.41678,0.0,0.0,0.0,30.88243,23.31938,-0.40107,9.94,-1.54,1.02,2.0
1758076502.40857,1758076502.42678,0.0,0.0,0.0,34.26288,21.7724,2.06265,9.94,-1.54,1.02,2.0
1758076502.40975,1758076502.43678,0.0,0.0,0.0,37.75792,19.19409,5.21392,9.73,-1.48,1.08,2.0
1758076502.42516,1758076502.44678,0.0,0.0,0.0,43.4875,13.00614,10.71431,9.46,-1.5,1.05,2.0
1758076502.44165,1758076502.45678,0.0,0.0,0.0,46.81066,6.99009,14.66772,9.46,-1.5,1.05,2.0
1758076502.44278,1758076502.46678,0.0,0.0,0.0,50.13381,-4.29718,18.27736,8.9,-1.5,1.17,2.0
1758076502.45889,1758076502.47678,0.0,0.0,0.0,51.16513,-15.98552,19.25138,8.9,-1.5,1.17,2.0
1758076502.45979,1758076502.48678,0.0,0.0,0.0,50.82136,-22.23076,18.79302,8.91,-1.32,0.95,2.0
1758076502.47514,1758076502.49678,0.0,0.0,0.0,49.15978,-15.58445,16.10011,8.91,-1.32,0.95,2.0
1758076502.4909,1758076502.50678,0.0,0.0,0.0,48.52953,-4.87014,14.83961,10.28,-0.88,0.73,2.0
1758076502.49206,1758076502.51678,0.0,0.0,0.0,46.86795,4.23989,11.11538,10.28,-0.88,0.73,2.0
1758076502.50689,1758076502.52678,0.0,0.0,0.0,44.00316,13.46451,8.30789,10.57,-0.41,2.23,2.0
1758076502.52289,1758076502.53678,0.0,0.0,0.0,41.36755,16.67307,5.90147,10.36,0.0,2.56,2.0
1758076502.52389,1758076502.54678,0.0,0.0,0.0,37.98711,14.49583,3.60963,10.36,0.0,2.56,2.0
1758076502.53888,1758076502.55678,0.0,0.0,0.0,32.08564,-6.07335,2.46372,9.48,0.59,3.22,2.0
1758076502.53988,1758076502.56678,0.0,0.0,0.0,28.24682,-33.74722,7.67763,9.48,0.59,3.22,2.0
1758076502.55617,1758076502.57678,0.0,0.0,0.0,25.15285,-54.60288,18.22006,8.6,1.07,3.79,2.0
1758076502.57197,1758076502.58678,0.0,0.0,0.0,21.60051,-60.10328,29.10626,8.6,1.07,3.79,2.0
1758076502.57289,1758076502.59678,0.0,0.0,0.0,15.58445,-46.2377,40.50812,12.99,1.4,4.12,2.0
1758076502.58793,1758076502.60678,0.0,0.0,0.0,12.54778,-35.2942,42.74266,13.84,1.83,3.55,2.0
1758076502.60386,1758076502.61678,0.0,0.0,0.0,9.4538,-29.33544,39.99245,13.84,1.83,3.55,2.0
1758076502.60489,1758076502.62678,0.0,0.0,0.0,6.53172,-26.87172,33.9764,10.2,1.3,3.14,2.0
1758076502.61992,1758076502.63678,0.0,0.0,0.0,2.46372,-23.54857,20.85567,10.2,1.3,3.14,2.0
1758076502.6219,1758076502.64678,0.0,0.0,0.0,0.51566,-19.36597,11.45916,8.07,0.64,2.25,2.0
1758076502.63764,1758076502.65678,0.0,0.0,0.0,-0.22918,-14.66772,2.86479,8.07,0.64,2.25,2.0
1758076502.65397,1758076502.66678,0.0,0.0,0.0,-0.11459,-14.09476,-3.32316,7.75,0.09,2.02,2.0
1758076502.65516,1758076502.67678,0.0,0.0,0.0,1.77617,-16.84496,-8.88085,8.49,-0.3,2.96,2.0
1758076502.66994,1758076502.68678,0.0,0.0,0.0,3.72423,-16.95955,-9.96947,8.49,-0.3,2.96,2.0
1758076502.67116,1758076502.69678,0.0,0.0,0.0,5.72958,-15.29797,-9.85487,10.38,-0.43,3.03,2.0
1758076502.68621,1758076502.70678,0.0,0.0,0.0,7.84952,-13.46451,-7.84952,10.38,-0.43,3.03,2.0
1758076502.70195,1758076502.71678,0.0,0.0,0.0,10.65701,-9.74028,-4.0107,10.84,-0.3,2.59,2.0
1758076502.70289,1758076502.72678,0.0,0.0,0.0,12.54778,-6.35983,-0.97403,10.84,-0.3,2.59,2.0
1758076502.71799,1758076502.73678,0.0,0.0,0.0,14.43854,-2.29183,1.71887,10.4,0.02,2.13,2.0
1758076502.73397,1758076502.74678,0.0,0.0,0.0,17.18874,4.64096,4.64096,10.4,0.02,2.13,2.0
1758076502.73493,1758076502.75678,0.0,0.0,0.0,18.90761,8.99544,5.78687,9.85,0.36,1.91,2.0
1758076502.74966,1758076502.76678,0.0,0.0,0.0,21.14215,14.03747,5.90147,9.57,0.54,2.11,2.0
1758076502.75199,1758076502.77678,0.0,0.0,0.0,23.54857,19.36597,5.32851,9.57,0.54,2.11,2.0
1758076502.76802,1758076502.78678,0.0,0.0,0.0,27.84575,25.8404,4.18259,9.57,0.56,2.33,2.0
1758076502.78403,1758076502.79678,0.0,0.0,0.0,30.88243,30.99702,3.49504,9.57,0.56,2.33,2.0
1758076502.78518,1758076502.80678,0.0,0.0,0.0,33.23156,36.61201,2.40642,9.83,0.61,2.39,2.0
1758076502.79992,1758076502.81678,0.0,0.0,0.0,35.40879,39.99245,1.71887,9.83,0.61,2.39,2.0
1758076502.80092,1758076502.82678,0.0,0.0,0.0,37.35685,43.54479,2.46372,10.17,0.73,2.18,2.0
1758076502.81617,1758076502.83678,0.0,0.0,0.0,38.1017,43.25832,4.35448,10.41,0.77,1.93,2.0
1758076502.83209,1758076502.84678,0.0,0.0,0.0,38.27358,40.68,4.98473,10.41,0.77,1.93,2.0
1758076502.83321,1758076502.85678,0.0,0.0,0.0,38.27358,38.56006,5.21392,10.52,0.66,1.88,2.0
1758076502.848,1758076502.86678,0.0,0.0,0.0,38.1017,36.84119,4.46907,10.52,0.66,1.88,2.0
1758076502.86381,1758076502.87678,0.0,0.0,0.0,38.1017,33.9764,3.60963,10.46,0.71,1.76,2.0
1758076502.86492,1758076502.88678,0.0,0.0,0.0,37.18496,30.25217,2.29183,10.46,0.71,1.76,2.0
1758076502.88086,1758076502.89678,0.0,0.0,0.0,35.86716,26.52795,0.57296,9.67,0.86,1.86,2.0
1758076502.88172,1758076502.90678,0.0,0.0,0.0,33.05967,18.44924,-2.11994,8.97,1.2,1.7,2.0
1758076502.89674,1758076502.91678,0.0,0.0,0.0,30.59595,14.66772,-3.55234,8.97,1.2,1.7,2.0
1758076502.91277,1758076502.92678,0.0,0.0,0.0,28.01764,12.43318,-4.18259,8.75,1.7,1.57,2.0
1758076502.91507,1758076502.93678,0.0,0.0,0.0,23.72045,12.83425,-4.69825,8.75,1.7,1.57,2.0
1758076502.92973,1758076502.94678,0.0,0.0,0.0,20.97026,14.03747,-5.21392,8.96,1.99,1.61,2.0
1758076502.93202,1758076502.95678,0.0,0.0,0.0,18.62113,15.0115,-4.87014,8.96,1.99,1.61,2.0
1758076502.94704,1758076502.96678,0.0,0.0,0.0,16.3293,16.67307,-4.52637,8.95,1.95,1.49,2.0
1758076502.96297,1758076502.97678,0.0,0.0,0.0,13.40721,19.76705,-3.20856,8.95,1.95,1.49,2.0
1758076502.96399,1758076502.98678,0.0,0.0,0.0,11.86023,21.48592,-2.11994,9.14,1.59,1.41,2.0
1758076502.97879,1758076502.99678,0.0,0.0,0.0,10.59972,22.51724,-0.97403,9.34,1.2,1.39,2.0
1758076502.98031,1758076503.00678,0.0,0.0,0.0,9.22462,23.72045,0.0573,9.34,1.2,1.39,2.0
1758076502.99585,1758076503.01678,0.0,0.0,0.0,7.04738,24.35071,2.34913,9.42,1.0,1.38,2.0
1758076503.01207,1758076503.02678,0.0,0.0,0.0,5.4431,25.55392,3.32316,9.42,1.0,1.38,2.0
1758076503.013,1758076503.03678,0.0,0.0,0.0,3.95341,28.64789,4.69825,9.51,0.95,1.37,2.0
1758076503.02813,1758076503.04678,0.0,0.0,0.0,2.46372,31.51268,6.41713,9.51,0.95,1.37,2.0
1758076503.04407,1758076503.05678,0.0,0.0,0.0,0.85944,30.19488,8.76626,9.64,1.09,1.58,2.0
1758076503.04503,1758076503.06678,0.0,0.0,0.0,-0.17189,26.24147,9.85487,9.33,1.28,2.16,2.0
1758076503.06007,1758076503.07678,0.0,0.0,0.0,-1.71887,20.3973,9.62569,9.33,1.28,2.16,2.0
1758076503.06129,1758076503.08678,0.0,0.0,0.0,-3.72423,13.69369,9.11003,9.45,1.53,2.42,2.0
1758076503.07604,1758076503.09678,0.0,0.0,0.0,-9.33921,4.29718,4.52637,9.45,1.53,2.42,2.0
1758076503.09211,1758076503.10678,0.0,0.0,0.0,-13.69369,-1.83346,0.45837,9.3,1.99,2.25,2.0
1758076503.09302,1758076503.11678,0.0,0.0,0.0,-17.99088,-8.65166,-4.1253,9.3,1.99,2.25,2.0
1758076503.10809,1758076503.12678,0.0,0.0,0.0,-22.11617,-14.03747,-11.51645,8.86,2.31,2.26,2.0
1758076503.12415,1758076503.13678,0.0,0.0,0.0,-25.72581,-28.93437,-15.29797,8.54,2.36,2.06,2.0
1758076503.125,1758076503.14678,0.0,0.0,0.0,-26.87172,-39.99245,-17.01685,8.54,2.36,2.06,2.0
1758076503.1401,1758076503.15678,0.0,0.0,0.0,-27.38738,-46.35228,-16.61578,8.6,1.79,1.74,2.0
1758076503.14129,1758076503.16678,0.0,0.0,0.0,-27.04361,-50.1911,-14.43854,8.6,1.79,1.74,2.0
1758076503.15579,1758076503.17678,0.0,0.0,0.0,-26.41335,-52.25375,-11.86023,9.29,1.37,1.49,2.0
1758076503.17209,1758076503.18678,0.0,0.0,0.0,-25.49662,-52.08187,-10.25595,9.29,1.37,1.49,2.0
1758076503.17303,1758076503.19678,0.0,0.0,0.0,-23.94964,-46.1804,-7.73493,10.23,0.81,2.63,2.0
1758076503.18813,1758076503.20678,0.0,0.0,0.0,-18.9649,-24.23611,-5.84417,10.23,0.81,3.46,2.0
1758076503.20414,1758076503.21678,0.0,0.0,0.0,-16.90226,-34.14828,-7.33386,12.58,0.32,3.46,2.0
1758076503.20531,1758076503.22678,0.0,0.0,0.0,-16.90226,-47.78468,-11.63104,10.09,0.09,3.68,2.0
1758076503.22016,1758076503.23678,0.0,0.0,0.0,-16.21471,-55.6915,-15.0115,10.09,0.09,3.68,2.0
1758076503.22133,1758076503.24678,0.0,0.0,0.0,-14.61043,-55.40502,-19.25138,10.4,0.2,2.6,2.0
1758076503.23668,1758076503.25678,0.0,0.0,0.0,-12.77696,-47.09713,-19.25138,10.4,0.2,2.6,2.0
1758076503.25321,1758076503.26678,0.0,0.0,0.0,-11.00079,-39.64868,-17.76169,10.43,0.28,2.07,2.0
1758076503.25407,1758076503.27678,0.0,0.0,0.0,-8.59437,-36.38282,-14.32395,10.43,0.28,2.07,2.0
1758076503.26923,1758076503.28678,0.0,0.0,0.0,-2.86479,-34.72124,-6.87549,9.43,0.16,2.65,2.0
1758076503.27008,1758076503.29678,0.0,0.0,0.0,2.00535,-33.86181,-1.71887,9.58,0.05,2.59,2.0
1758076503.28715,1758076503.30678,0.0,0.0,0.0,6.53172,-31.97105,2.57831,9.58,0.05,2.59,2.0
1758076503.30326,1758076503.31678,0.0,0.0,0.0,9.96947,-28.24682,5.50039,10.06,-0.1,1.94,2.0
1758076503.30436,1758076503.32678,0.0,0.0,0.0,11.97482,-23.49127,6.8182,10.06,-0.1,1.94,2.0
1758076503.31921,1758076503.33678,0.0,0.0,0.0,11.28727,-22.68913,5.72958,9.49,-0.14,1.93,2.0
1758076503.32008,1758076503.34678,0.0,0.0,0.0,9.4538,-20.51189,3.95341,9.49,-0.14,1.93,2.0
1758076503.33624,1758076503.35678,0.0,0.0,0.0,4.81285,-15.92823,0.22918,9.09,-0.04,2.01,2.0
1758076503.35198,1758076503.36678,0.0,0.0,0.0,1.3178,-6.87549,-2.11994,9.59,0.06,2.39,2.0
1758076503.3531,1758076503.37678,0.0,0.0,0.0,-2.23454,-2.00535,-4.46907,9.59,0.06,2.39,2.0
1758076503.3682,1758076503.38678,0.0,0.0,0.0,-5.27121,2.97938,-5.95876,9.85,0.0,2.72,2.0
1758076503.3842,1758076503.39678,0.0,0.0,0.0,-9.22462,11.51645,-7.62034,9.85,0.0,2.72,2.0
1758076503.38537,1758076503.40678,0.0,0.0,0.0,-11.22997,18.33465,-7.44845,10.46,-0.26,2.26,2.0
1758076503.40015,1758076503.41678,0.0,0.0,0.0,-12.83425,25.49662,-7.33386,10.46,-0.26,2.26,2.0
1758076503.40192,1758076503.42678,0.0,0.0,0.0,-13.75099,31.45539,-6.99009,10.86,-0.58,1.71,2.0
1758076503.41719,1758076503.43678,0.0,0.0,0.0,-14.66772,37.64333,-7.16197,10.71,-0.72,1.52,2.0
1758076503.43318,1758076503.44678,0.0,0.0,0.0,-14.61043,40.85189,-7.44845,10.71,-0.72,1.52,2.0
1758076503.43437,1758076503.45678,0.0,0.0,0.0,-14.49583,42.05511,-7.67763,10.87,-0.67,1.61,2.0
1758076503.4492,1758076503.46678,0.0,0.0,0.0,-13.86558,42.51347,-7.39116,10.87,-0.67,1.61,2.0
1758076503.45042,1758076503.47678,0.0,0.0,0.0,-12.49048,43.65939,-5.27121,11.11,-0.44,1.69,2.0
1758076503.46693,1758076503.48678,0.0,0.0,0.0,-11.63104,42.62806,-3.09397,11.11,-0.44,1.69,2.0
1758076503.4832,1758076503.49678,0.0,0.0,0.0,-10.71431,42.22699,0.0573,10.73,-0.31,1.9,2.0
1758076503.48414,1758076503.50678,0.0,0.0,0.0,-9.62569,41.25296,3.55234,10.73,-0.31,1.9,2.0
1758076503.49921,1758076503.51678,0.0,0.0,0.0,-7.33386,38.84654,7.84952,9.93,-0.53,1.8,2.0
1758076503.50012,1758076503.52678,0.0,0.0,0.0,-5.61499,36.6693,9.68299,9.21,-0.89,1.65,2.0
1758076503.51618,1758076503.53678,0.0,0.0,0.0,-3.83882,33.63263,10.25595,9.21,-0.89,1.65,2.0
1758076503.53219,1758076503.54678,0.0,0.0,0.0,-1.83346,30.65324,8.70896,8.84,-1.05,1.36,2.0
1758076503.53314,1758076503.55678,0.0,0.0,0.0,0.97403,25.09555,6.70361,8.84,-1.05,1.36,2.0
1758076503.54821,1758076503.56678,0.0,0.0,0.0,2.7502,21.31403,4.35448,8.65,-0.95,1.08,2.0
1758076503.5642,1758076503.57678,0.0,0.0,0.0,4.87014,18.90761,2.11994,8.65,-0.95,1.08,2.0
1758076503.56519,1758076503.58678,0.0,0.0,0.0,8.93814,17.30333,-0.22918,8.83,-0.88,0.94,2.0
1758076503.58025,1758076503.59678,0.0,0.0,0.0,12.2613,18.44924,-1.60428,9.05,-1.02,0.89,2.0
1758076503.58194,1758076503.60678,0.0,0.0,0.0,15.75634,20.74107,-2.40642,9.05,-1.02,0.89,2.0
1758076503.59724,1758076503.61678,0.0,0.0,0.0,19.25138,23.20479,-3.38045,9.39,-1.23,0.99,2.0
1758076503.61326,1758076503.62678,0.0,0.0,0.0,24.12152,26.98631,-4.23989,9.39,-1.23,0.99,2.0
1758076503.61446,1758076503.63678,0.0,0.0,0.0,27.10091,28.59059,-4.29718,9.74,-1.23,1.31,2.0
1758076503.62899,1758076503.64678,0.0,0.0,0.0,29.62192,27.96034,-4.29718,9.74,-1.23,1.31,2.0
1758076503.6302,1758076503.65678,0.0,0.0,0.0,31.45539,26.24147,-4.1253,9.71,-0.95,1.45,2.0
1758076503.6465,1758076503.66678,0.0,0.0,0.0,32.54401,23.0902,-3.20856,9.61,-0.65,1.33,2.0
1758076503.66202,1758076503.67678,0.0,0.0,0.0,32.88778,19.82434,-2.29183,9.61,-0.65,1.33,2.0
1758076503.66323,1758076503.68678,0.0,0.0,0.0,32.6013,15.41257,-0.97403,9.36,-0.59,1.58,2.0
1758076503.67804,1758076503.69678,0.0,0.0,0.0,32.77319,9.85487,1.03132,9.36,-0.59,1.58,2.0
1758076503.69405,1758076503.70678,0.0,0.0,0.0,33.80451,0.51566,4.35448,9.15,-0.8,1.96,2.0
1758076503.69522,1758076503.71678,0.0,0.0,0.0,35.75257,-6.35983,7.33386,9.15,-0.8,1.96,2.0
1758076503.71231,1758076503.72678,0.0,0.0,0.0,37.29956,-13.98017,10.54242,9.1,-0.98,2.52,2.0
1758076503.71324,1758076503.73678,0.0,0.0,0.0,37.81522,-22.34536,13.5791,9.1,-0.98,2.52,2.0
1758076503.72831,1758076503.74678,0.0,0.0,0.0,36.32552,-47.03984,18.85031,9.48,-0.74,3.51,2.0
1758076503.74428,1758076503.75678,0.0,0.0,0.0,32.83048,-61.36378,23.0329,9.97,0.16,4.51,2.0
1758076503.74526,1758076503.76678,0.0,0.0,0.0,27.04361,-65.48907,25.15285,9.97,0.16,4.51,2.0
1758076503.7601,1758076503.77678,0.0,0.0,0.0,19.13679,-38.90384,28.30412,12.82,1.24,3.69,2.0
1758076503.76127,1758076503.78678,0.0,0.0,0.0,15.06879,-20.97026,28.36141,12.82,1.24,3.69,2.0
1758076503.77606,1758076503.79678,0.0,0.0,0.0,10.48513,-10.71431,23.89234,12.42,1.88,4.13,2.0
1758076503.7923,1758076503.80678,0.0,0.0,0.0,5.32851,-9.28192,19.48057,12.42,1.88,4.13,2.0
1758076503.79328,1758076503.81678,0.0,0.0,0.0,-0.51566,-12.77696,10.59972,9.63,2.09,4.33,2.0
1758076503.80833,1758076503.82678,0.0,0.0,0.0,-2.46372,-18.16276,5.09932,8.12,1.76,3.5,2.0
1758076503.82434,1758076503.83678,0.0,0.0,0.0,-2.00535,-41.76862,3.03668,8.12,1.76,3.5,2.0
1758076503.82528,1758076503.84678,0.0,0.0,0.0,-3.20856,-58.09792,-0.68755,7.03,0.93,3.17,2.0
1758076503.84036,1758076503.85678,0.0,0.0,0.0,0.85944,-60.90542,2.23454,7.03,0.93,3.17,2.0
1758076503.84205,1758076503.86678,0.0,0.0,0.0,3.49504,-52.71212,4.35448,10.87,-0.04,3.18,2.0
1758076503.85737,1758076503.87678,0.0,0.0,0.0,6.35983,-47.67009,6.41713,10.87,-0.04,3.18,2.0
1758076503.87335,1758076503.88678,0.0,0.0,0.0,8.65166,-45.49285,7.62034,10.49,-0.34,3.08,2.0
1758076503.87426,1758076503.89678,0.0,0.0,0.0,11.57375,-38.27358,8.0787,9.84,-0.18,2.98,2.0
1758076503.88933,1758076503.90678,0.0,0.0,0.0,13.00614,-32.08564,7.44845,9.84,-0.18,2.98,2.0
1758076503.89029,1758076503.91678,0.0,0.0,0.0,13.86558,-26.35606,6.18794,9.34,0.3,2.41,2.0
1758076503.90655,1758076503.92678,0.0,0.0,0.0,14.78231,-20.34,5.27121,9.34,0.3,2.41,2.0
1758076503.9221,1758076503.93678,0.0,0.0,0.0,16.3293,-9.11003,4.81285,9.2,0.83,2.34,2.0
1758076503.92331,1758076503.94678,0.0,0.0,0.0,17.36062,-1.48969,4.87014,9.2,0.83,2.34,2.0
1758076503.93815,1758076503.95678,0.0,0.0,0.0,18.85031,6.99009,5.15662,9.65,1.22,2.15,2.0
1758076503.95414,1758076503.96678,0.0,0.0,0.0,20.79837,16.04282,6.07335,9.65,1.22,2.15,2.0
1758076503.95534,1758076503.97678,0.0,0.0,0.0,21.88699,32.08564,6.53172,10.42,1.34,1.89,2.0
1758076503.97016,1758076503.98678,0.0,0.0,0.0,23.20479,39.19032,7.44845,10.63,1.25,1.62,2.0
1758076503.97175,1758076503.99678,0.0,0.0,0.0,23.72045,46.46688,6.58902,10.63,1.25,1.62,2.0
1758076503.98604,1758076504.00678,0.0,0.0,0.0,24.57989,51.79538,4.81285,10.71,0.96,1.72,2.0
1758076504.00208,1758076504.01678,0.0,0.0,0.0,25.43933,51.10783,3.95341,10.71,0.96,1.72,2.0
1758076504.00333,1758076504.02678,0.0,0.0,0.0,26.06958,49.79003,3.83882,10.02,0.66,1.67,2.0
1758076504.01818,1758076504.03678,0.0,0.0,0.0,26.87172,48.41494,3.72423,10.02,0.66,1.67,2.0
1758076504.03435,1758076504.04678,0.0,0.0,0.0,28.13223,45.43555,5.4431,9.77,0.48,1.84,2.0
1758076504.03534,1758076504.05678,0.0,0.0,0.0,28.41871,41.42485,6.41713,9.42,0.58,2.03,2.0
1758076504.05219,1758076504.06678,0.0,0.0,0.0,27.96034,36.61201,6.58902,9.42,0.58,2.03,2.0
1758076504.05314,1758076504.07678,0.0,0.0,0.0,26.64254,31.28349,6.41713,9.09,0.96,2.16,2.0
1758076504.06816,1758076504.08678,0.0,0.0,0.0,23.60586,24.12152,5.4431,9.09,0.96,2.16,2.0
1758076504.08445,1758076504.09678,0.0,0.0,0.0,20.79837,20.74107,4.92744,8.96,1.42,1.98,2.0
1758076504.08537,1758076504.10678,0.0,0.0,0.0,17.87628,19.42327,4.35448,8.96,1.42,1.98,2.0
1758076504.10023,1758076504.11678,0.0,0.0,0.0,14.43854,18.50654,3.55234,9.18,1.81,2.06,2.0
1758076504.10137,1758076504.12678,0.0,0.0,0.0,9.28192,17.99088,2.46372,9.1,2.09,2.11,2.0
1758076504.1165,1758076504.13678,0.0,0.0,0.0,6.18794,15.69904,2.29183,9.1,2.09,2.11,2.0
1758076504.13218,1758076504.14678,0.0,0.0,0.0,3.09397,13.5218,2.23454,8.77,2.09,2.01,2.0
1758076504.13344,1758076504.15678,0.0,0.0,0.0,0.51566,13.80828,2.63561,8.77,2.09,2.01,2.0
1758076504.14817,1758076504.16678,0.0,0.0,0.0,-2.86479,15.92823,2.63561,9.13,1.85,1.93,2.0
1758076504.16451,1758076504.17678,0.0,0.0,0.0,-4.46907,16.38659,2.92208,9.13,1.85,1.93,2.0
1758076504.1654,1758076504.18678,0.0,0.0,0.0,-6.13065,19.19409,3.03668,9.12,1.56,1.91,2.0
1758076504.18042,1758076504.19678,0.0,0.0,0.0,-8.02141,24.23611,3.38045,9.12,1.56,1.91,2.0
1758076504.18136,1758076504.20678,0.0,0.0,0.0,-8.88085,24.17882,4.23989,9.48,1.33,1.93,2.0
1758076504.19647,1758076504.21678,0.0,0.0,0.0,-9.96947,23.0902,4.87014,9.39,1.31,2.09,2.0
1758076504.21243,1758076504.22678,0.0,0.0,0.0,-11.86023,22.05888,4.92744,9.39,1.31,2.09,2.0
1758076504.2134,1758076504.23678,0.0,0.0,0.0,-15.98552,17.36062,3.49504,9.67,1.52,2.23,2.0
1758076504.22847,1758076504.24678,0.0,0.0,0.0,-20.05352,13.23533,1.14592,9.67,1.52,2.23,2.0
1758076504.24448,1758076504.25678,0.0,0.0,0.0,-24.4653,9.22462,-2.11994,9.43,1.88,2.09,2.0
1758076504.24544,1758076504.26678,0.0,0.0,0.0,-28.24682,0.40107,-6.41713,9.43,1.88,2.09,2.0
1758076504.26025,1758076504.27678,0.0,0.0,0.0,-30.93972,-23.83505,-10.19865,8.8,2.31,2.04,2.0
1758076504.26145,1758076504.28678,0.0,0.0,0.0,-31.56997,-34.72124,-11.17268,8.48,1.99,1.87,2.0
1758076504.27626,1758076504.29678,0.0,0.0,0.0,-31.16891,-41.02378,-10.65701,8.48,1.99,1.87,2.0
1758076504.29255,1758076504.30678,0.0,0.0,0.0,-30.19488,-46.98254,-9.68299,9.4,1.63,1.62,2.0
1758076504.29346,1758076504.31678,0.0,0.0,0.0,-30.19488,-19.19409,-10.31324,9.4,1.63,1.62,2.0
1758076504.30858,1758076504.32678,0.0,0.0,0.0,-28.76248,-6.99009,-7.10468,12.51,1.29,3.25,2.0
1758076504.31069,1758076504.33678,0.0,0.0,0.0,-31.45539,-18.16276,-13.12073,12.51,1.29,3.25,2.0
1758076504.32626,1758076504.34678,0.0,0.0,0.0,-29.96569,-31.85646,-14.83961,10.15,0.78,4.72,2.0
1758076504.34375,1758076504.35678,0.0,0.0,0.0,-28.13223,-41.08107,-19.70975,10.72,-0.05,3.92,2.0
1758076504.34448,1758076504.36678,0.0,0.0,0.0,-26.52795,-32.42941,-20.16812,10.72,-0.05,3.92,2.0
1758076504.36059,1758076504.37678,0.0,0.0,0.0,-24.29341,-22.86102,-18.73572,11.29,-0.44,2.48,2.0
1758076504.36219,1758076504.38678,0.0,0.0,0.0,-20.79837,-15.92823,-13.5218,11.29,-0.44,2.48,2.0
1758076504.37757,1758076504.39678,0.0,0.0,0.0,-17.81899,-8.25059,-8.76626,9.85,-0.83,2.78,2.0
1758076504.3933,1758076504.40678,0.0,0.0,0.0,-14.15206,-3.20856,-3.89611,9.85,-0.83,2.78,2.0
1758076504.39452,1758076504.41678,0.0,0.0,0.0,-10.08406,-0.11459,0.34377,9.45,-0.88,2.86,2.0
1758076504.41003,1758076504.42678,0.0,0.0,0.0,-3.60963,-1.83346,4.58366,9.45,-0.88,2.86,2.0
1758076504.41154,1758076504.43678,0.0,0.0,0.0,0.11459,-5.15662,6.35983,9.01,-0.75,2.9,2.0
1758076504.42637,1758076504.44678,0.0,0.0,0.0,2.97938,-7.67763,6.7609,8.88,-0.5,2.74,2.0
1758076504.44269,1758076504.45678,0.0,0.0,0.0,4.87014,-11.45916,6.70361,8.88,-0.5,2.74,2.0
1758076504.44346,1758076504.46678,0.0,0.0,0.0,5.95876,-16.90226,5.09932,8.81,-0.21,2.65,2.0
1758076504.45862,1758076504.47678,0.0,0.0,0.0,6.13065,-19.88164,3.66693,8.81,-0.21,2.65,2.0
1758076504.47436,1758076504.48678,0.0,0.0,0.0,5.95876,-22.86102,2.46372,9.1,-0.09,2.76,2.0
1758076504.47551,1758076504.49678,0.0,0.0,0.0,5.78687,-25.43933,1.43239,9.1,-0.09,2.76,2.0
1758076504.49065,1758076504.50678,0.0,0.0,0.0,4.87014,-28.41871,0.34377,9.36,-0.13,2.84,2.0
1758076504.49147,1758076504.51678,0.0,0.0,0.0,4.46907,-29.9084,0.17189,9.45,-0.21,2.83,2.0
1758076504.50631,1758076504.52678,0.0,0.0,0.0,4.1253,-31.39809,0.40107,9.45,-0.21,2.83,2.0
1758076504.52255,1758076504.53678,0.0,0.0,0.0,3.89611,-32.20023,0.97403,9.36,-0.31,2.79,2.0
1758076504.52355,1758076504.54678,0.0,0.0,0.0,4.46907,-33.23156,2.46372,9.36,-0.31,2.79,2.0
1758076504.53859,1758076504.55678,0.0,0.0,0.0,5.15662,-33.51803,3.95341,9.3,-0.48,2.61,2.0
1758076504.55438,1758076504.56678,0.0,0.0,0.0,5.95876,-32.6013,5.32851,9.3,-0.48,2.61,2.0
1758076504.55552,1758076504.57678,0.0,0.0,0.0,6.87549,-30.30947,7.44845,9.4,-0.64,2.35,2.0
1758076504.57056,1758076504.58678,0.0,0.0,0.0,7.33386,-24.00693,8.02141,9.78,-0.66,2.15,2.0
1758076504.57181,1758076504.59678,0.0,0.0,0.0,7.21927,-19.99623,8.59437,9.78,-0.66,2.15,2.0
1758076504.5863,1758076504.60678,0.0,0.0,0.0,6.87549,-16.38659,8.42248,9.72,-0.52,2.2,2.0
1758076504.60255,1758076504.61678,0.0,0.0,0.0,5.90147,-10.65701,8.02141,9.72,-0.52,2.2,2.0
1758076504.60353,1758076504.62678,0.0,0.0,0.0,5.09932,-6.47442,7.50575,9.73,-0.3,2.27,2.0
1758076504.61862,1758076504.63678,0.0,0.0,0.0,3.66693,-2.00535,6.70361,9.73,-0.3,2.27,2.0
1758076504.63457,1758076504.64678,0.0,0.0,0.0,2.7502,1.83346,6.41713,9.91,-0.14,2.53,2.0
1758076504.63666,1758076504.65678,0.0,0.0,0.0,0.68755,5.21392,5.95876,9.92,-0.14,2.7,2.0
1758076504.65156,1758076504.66678,0.0,0.0,0.0,-0.68755,7.79223,6.07335,9.92,-0.1,2.7,2.0
1758076504.6528,1758076504.67678,0.0,0.0,0.0,-1.83346,10.94349,6.07335,10.13,-0.16,2.55,2.0
1758076504.66766,1758076504.68678,0.0,0.0,0.0,-3.26586,14.15206,5.84417,10.13,-0.16,2.55,2.0
1758076504.68334,1758076504.69678,0.0,0.0,0.0,-5.32851,16.84496,4.87014,10.03,-0.23,2.44,2.0
1758076504.68462,1758076504.70678,0.0,0.0,0.0,-6.41713,17.58981,4.18259,10.03,-0.23,2.44,2.0
1758076504.6997,1758076504.71678,0.0,0.0,0.0,-7.39116,17.99088,2.92208,9.93,-0.39,2.36,2.0
1758076504.70056,1758076504.72678,0.0,0.0,0.0,-8.02141,18.85031,2.06265,9.93,-0.39,2.36,2.0
1758076504.71664,1758076504.73678,0.0,0.0,0.0,-8.70896,20.11082,1.03132,10.16,-0.55,2.2,2.0
1758076504.73266,1758076504.74678,0.0,0.0,0.0,-8.93814,20.3973,0.80214,10.32,-0.61,2.23,2.0
1758076504.73361,1758076504.75678,0.0,0.0,0.0,-8.99544,19.07949,1.14592,10.32,-0.61,2.23,2.0
1758076504.74995,1758076504.76678,0.0,0.0,0.0,-9.11003,16.84496,1.94806,10.17,-0.59,2.26,2.0
1758076504.75122,1758076504.77678,0.0,0.0,0.0,-8.88085,11.86023,3.95341,10.17,-0.59,2.26,2.0
1758076504.76664,1758076504.78678,0.0,0.0,0.0,-8.47978,8.47978,5.61499,10.0,-0.63,2.25,2.0
1758076504.7826,1758076504.79678,0.0,0.0,0.0,-7.84952,4.87014,7.50575,10.0,-0.63,2.25,2.0
1758076504.78384,1758076504.80678,0.0,0.0,0.0,-6.8182,2.6929,9.11003,9.66,-0.8,2.08,2.0
1758076504.79865,1758076504.81678,0.0,0.0,0.0,-6.35983,3.26586,9.74028,9.56,-0.93,1.99,2.0
1758076504.81469,1758076504.82678,0.0,0.0,0.0,-5.61499,4.46907,9.85487,9.56,-0.93,1.99,2.0
1758076504.81586,1758076504.83678,0.0,0.0,0.0,-4.98473,5.72958,9.4538,9.4,-0.92,1.9,2.0
1758076504.83066,1758076504.84678,0.0,0.0,0.0,-4.64096,6.58902,8.136,9.4,-0.92,1.9,2.0
1758076504.83241,1758076504.85678,0.0,0.0,0.0,-4.52637,7.67763,6.99009,9.3,-0.76,1.67,2.0
1758076504.84904,1758076504.86678,0.0,0.0,0.0,-4.92744,9.28192,5.21392,9.3,-0.76,1.67,2.0
1758076504.85369,1758076504.87678,0.0,0.0,0.0,-5.32851,11.45916,3.55234,9.47,-0.51,1.51,2.0
1758076504.87,1758076504.88678,0.0,0.0,0.0,-5.61499,12.08941,2.00535,9.52,-0.35,1.61,2.0
1758076504.87127,1758076504.89678,0.0,0.0,0.0,-5.15662,9.22462,2.00535,9.52,-0.35,1.61,2.0
1758076504.88674,1758076504.90678,0.0,0.0,0.0,-4.1253,5.78687,2.46372,9.36,-0.47,1.57,2.0
1758076504.90273,1758076504.91678,0.0,0.0,0.0,-2.57831,3.20856,3.49504,9.36,-0.47,1.57,2.0
1758076504.90363,1758076504.92678,0.0,0.0,0.0,1.03132,1.08862,5.61499,9.58,-0.9,1.29,2.0
1758076504.91875,1758076504.93678,0.0,0.0,0.0,4.23989,0.22918,7.79223,9.58,-0.9,1.29,2.0
1758076504.9345,1758076504.94678,0.0,0.0,0.0,7.84952,0.51566,9.68299,9.57,-1.42,1.16,2.0
1758076504.93575,1758076504.95678,0.0,0.0,0.0,11.45916,2.40642,11.11538,9.57,-1.42,1.16,2.0
1758076504.95075,1758076504.96678,0.0,0.0,0.0,16.55848,5.09932,11.86023,9.59,-1.74,1.01,2.0
1758076504.95199,1758076504.97678,0.0,0.0,0.0,20.05352,6.8182,11.63104,9.4,-1.69,0.92,2.0
1758076504.96674,1758076504.98678,0.0,0.0,0.0,22.97561,8.0787,11.00079,9.4,-1.69,0.92,2.0
1758076504.98276,1758076504.99678,0.0,0.0,0.0,26.18417,8.70896,8.25059,9.24,-1.35,0.71,2.0
1758076504.98367,1758076505.00678,0.0,0.0,0.0,28.30412,6.87549,6.13065,9.24,-1.35,0.71,2.0
1758076505.00031,1758076505.01678,0.0,0.0,0.0,29.56462,5.09932,4.29718,9.04,-0.91,0.58,2.0
1758076505.00128,1758076505.02678,0.0,0.0,0.0,30.48136,1.20321,1.83346,9.04,-0.91,0.58,2.0
1758076505.01657,1758076505.03678,0.0,0.0,0.0,31.62727,17.99088,-1.20321,9.07,-0.66,0.54,2.0
1758076505.03372,1758076505.04678,0.0,0.0,0.0,34.32018,44.11775,0.17189,11.97,-0.88,0.75,2.0
1758076505.03467,1758076505.05678,0.0,0.0,0.0,36.49741,61.36378,0.40107,11.97,-0.88,0.75,2.0
1758076505.04963,1758076505.06678,0.0,0.0,0.0,38.90384,60.04598,-1.3751,10.1,-0.99,2.67,2.0
1758076505.0511,1758076505.07678,0.0,0.0,0.0,42.62806,14.9542,0.17189,10.1,-0.99,2.67,2.0
1758076505.06772,1758076505.08678,0.0,0.0,0.0,44.28964,-9.11003,6.41713,6.72,-1.43,2.23,2.0
1758076505.08985,1758076505.09678,0.0,0.0,0.0,45.72203,-16.50119,13.5791,6.72,-1.43,2.23,2.0
1758076505.09984,1758076505.10678,0.0,0.0,0.0,46.52417,-14.49583,18.22006,9.98,-2.02,0.71,2.0
1758076505.1016,1758076505.11678,0.0,0.0,0.0,46.86795,-10.94349,18.50654,10.01,-1.95,0.38,2.0
1758076505.10249,1758076505.12678,0.0,0.0,0.0,46.86795,-10.59972,17.24603,10.01,-1.95,0.38,2.0
1758076505.11746,1758076505.13678,0.0,0.0,0.0,46.1804,-12.37589,15.12609,9.06,-1.5,1.44,2.0
1758076505.1372,1758076505.14678,0.0,0.0,0.0,45.37826,-15.75634,11.91752,9.06,-1.5,1.44,2.0
1758076505.13811,1758076505.15678,0.0,0.0,0.0,43.02913,-20.74107,6.53172,8.58,-0.84,1.25,2.0
1758076505.15378,1758076505.16678,0.0,0.0,0.0,40.85189,-23.54857,4.1253,8.58,-0.84,1.25,2.0
1758076505.15475,1758076505.17678,0.0,0.0,0.0,38.27358,-25.26744,2.7502,9.15,-0.27,1.32,2.0
1758076505.16981,1758076505.18678,0.0,0.0,0.0,35.40879,-26.18417,3.26586,9.15,-0.27,1.32,2.0
1758076505.17093,1758076505.19678,0.0,0.0,0.0,31.79916,-28.30412,4.87014,10.21,0.12,2.04,2.0
1758076505.18679,1758076505.20678,0.0,0.0,0.0,30.30947,-27.44468,6.35983,10.97,0.18,2.24,2.0
1758076505.20275,1758076505.21678,0.0,0.0,0.0,28.87707,-24.12152,6.7609,10.97,0.18,2.24,2.0
1758076505.20373,1758076505.22678,0.0,0.0,0.0,26.64254,-18.44924,5.15662,11.2,0.08,1.74,2.0
1758076505.21861,1758076505.23678,0.0,0.0,0.0,24.35071,-15.41257,2.63561,11.2,0.08,1.74,2.0
1758076505.23453,1758076505.24678,0.0,0.0,0.0,21.7724,-12.60507,-0.57296,10.56,0.0,1.31,2.0
1758076505.23573,1758076505.25678,0.0,0.0,0.0,19.25138,-9.4538,-4.23989,10.56,0.0,1.31,2.0
1758076505.26885,1758076505.26678,0.0,0.0,0.0,15.92823,-3.95341,-9.96947,10.19,-0.11,0.96,2.0
1758076505.26964,1758076505.27678,0.0,0.0,0.0,13.98017,0.97403,-13.5218,10.3,-0.31,1.11,2.0
1758076505.27028,1758076505.28678,0.0,0.0,0.0,11.11538,5.50039,-16.21471,10.3,-0.31,1.11,2.0
1758076505.27155,1758076505.29678,0.0,0.0,0.0,6.07335,6.18794,-16.3293,11.25,-0.01,3.13,2.0
1758076505.28659,1758076505.30678,0.0,0.0,0.0,-3.09397,-1.3178,-9.39651,11.25,-0.01,3.13,2.0
1758076505.30282,1758076505.31678,0.0,0.0,0.0,-8.99544,-1.03132,-1.66158,13.1,0.46,5.9,2.0
1758076505.30411,1758076505.32678,0.0,0.0,0.0,-14.38124,6.07335,3.72423,13.1,0.46,5.9,2.0
1758076505.32046,1758076505.33678,0.0,0.0,0.0,-19.59516,9.68299,6.87549,15.01,1.11,5.88,2.0
1758076505.32138,1758076505.34678,0.0,0.0,0.0,-25.72581,8.47978,7.44845,12.64,1.78,4.19,2.0
1758076505.33696,1758076505.35678,0.0,0.0,0.0,-29.33544,7.33386,4.18259,12.64,1.78,4.19,2.0
1758076505.35367,1758076505.36678,0.0,0.0,0.0,-32.08564,7.33386,-0.68755,10.37,1.12,2.82,2.0
1758076505.35557,1758076505.37678,0.0,0.0,0.0,-34.14828,9.85487,-7.16197,10.37,1.12,2.82,2.0
1758076505.37061,1758076505.38678,0.0,0.0,0.0,-35.92446,12.43318,-17.53251,9.15,0.17,1.69,2.0
1758076505.37179,1758076505.39678,0.0,0.0,0.0,-35.52338,13.12073,-23.0329,9.15,0.17,1.69,2.0
1758076505.38685,1758076505.40678,0.0,0.0,0.0,-34.0337,16.10011,-26.69983,8.4,-0.46,1.44,2.0
1758076505.40288,1758076505.41678,0.0,0.0,0.0,-30.76784,19.82434,-28.76248,8.4,-0.46,1.44,2.0
1758076505.40413,1758076505.42678,0.0,0.0,0.0,-27.96034,25.09555,-28.36141,8.73,-0.83,1.08,2.0
1758076505.42132,1758076505.43678,0.0,0.0,0.0,-25.21014,27.04361,-26.75713,8.71,-1.02,1.38,2.0
1758076505.4241,1758076505.44678,0.0,0.0,0.0,-22.11617,27.04361,-23.94964,8.71,-1.02,1.38,2.0
1758076505.44338,1758076505.45678,0.0,0.0,0.0,-17.58981,24.63719,-18.73572,8.88,-1.03,2.07,2.0
1758076505.45686,1758076505.46678,0.0,0.0,0.0,-14.32395,24.63719,-15.24068,8.88,-1.03,2.07,2.0
1758076505.45797,1758076505.47678,0.0,0.0,0.0,-11.00079,24.4653,-12.14671,9.62,-0.88,2.67,2.0
1758076505.47365,1758076505.48678,0.0,0.0,0.0,-8.0787,22.86102,-9.68299,9.62,-0.88,2.67,2.0
1758076505.47491,1758076505.49678,0.0,0.0,0.0,-4.1253,18.85031,-7.10468,9.79,-0.56,3.01,2.0
1758076505.48974,1758076505.50678,0.0,0.0,0.0,-2.40642,15.35527,-6.87549,9.48,-0.13,2.91,2.0
1758076505.49165,1758076505.51678,0.0,0.0,0.0,-1.14592,13.17803,-7.50575,9.48,-0.13,2.91,2.0
1758076505.50798,1758076505.52678,0.0,0.0,0.0,-0.45837,11.22997,-8.70896,9.24,0.25,2.46,2.0
1758076505.51125,1758076505.53678,0.0,0.0,0.0,-0.40107,7.84952,-11.34457,9.24,0.25,2.46,2.0
1758076505.52937,1758076505.54678,0.0,0.0,0.0,-0.80214,6.70361,-13.17803,9.01,0.58,2.47,2.0
1758076505.53347,1758076505.55678,0.0,0.0,0.0,-1.08862,5.27121,-14.61043,9.01,0.58,2.47,2.0
1758076505.54972,1758076505.56678,0.0,0.0,0.0,-1.43239,4.46907,-15.92823,9.02,0.83,2.66,2.0
1758076505.55097,1758076505.57678,0.0,0.0,0.0,-1.66158,4.64096,-17.24603,9.18,0.91,2.85,2.0
1758076505.56669,1758076505.58678,0.0,0.0,0.0,-1.43239,4.81285,-17.99088,9.18,0.91,2.85,2.0
1758076505.5827,1758076505.59678,0.0,0.0,0.0,-1.60428,5.84417,-18.44924,9.24,0.91,2.98,2.0
1758076505.5839,1758076505.60678,0.0,0.0,0.0,-1.66158,7.62034,-18.9649,9.24,0.91,2.98,2.0
1758076505.59904,1758076505.61678,0.0,0.0,0.0,-1.83346,9.4538,-19.36597,9.29,0.9,3.04,2.0
1758076505.60067,1758076505.62678,0.0,0.0,0.0,-2.29183,10.25595,-19.70975,9.29,0.9,3.04,2.0
1758076505.61772,1758076505.63678,0.0,0.0,0.0,-2.7502,11.28727,-19.70975,9.18,0.93,3.24,2.0
1758076505.64175,1758076505.64678,0.0,0.0,0.0,-3.66693,10.8289,-19.25138,9.18,0.93,3.24,2.0
1758076505.64302,1758076505.65678,0.0,0.0,0.0,-4.64096,8.36518,-18.9649,9.06,0.97,3.51,2.0
1758076505.64477,1758076505.66678,0.0,0.0,0.0,-5.78687,5.50039,-18.73572,8.74,1.08,3.7,2.0
1758076505.66167,1758076505.67678,0.0,0.0,0.0,-6.99009,2.7502,-18.33465,8.74,1.08,3.7,2.0
1758076505.66755,1758076505.68678,0.0,0.0,0.0,-8.42248,-2.86479,-17.76169,8.66,1.18,3.72,2.0
1758076505.68353,1758076505.69678,0.0,0.0,0.0,-9.22462,-6.58902,-17.18874,8.66,1.18,3.72,2.0
1758076505.68628,1758076505.70678,0.0,0.0,0.0,-9.62569,-9.5684,-16.21471,8.6,1.2,3.83,2.0
1758076505.70204,1758076505.71678,0.0,0.0,0.0,-9.85487,-11.57375,-14.83961,8.6,1.2,3.83,2.0
1758076505.70371,1758076505.72678,0.0,0.0,0.0,-9.4538,-15.06879,-12.54778,8.68,1.13,3.87,2.0
1758076505.72055,1758076505.73678,0.0,0.0,0.0,-8.88085,-17.36062,-10.8289,8.55,1.03,3.99,2.0
1758076505.72157,1758076505.74678,0.0,0.0,0.0,-7.96411,-19.25138,-8.93814,8.55,1.03,3.99,2.0
1758076505.73701,1758076505.75678,0.0,0.0,0.0,-6.7609,-20.34,-7.39116,8.61,0.9,4.01,2.0
1758076505.754,1758076505.76678,0.0,0.0,0.0,-4.58366,-21.08485,-5.4431,8.61,0.9,4.01,2.0
1758076505.75521,1758076505.77678,0.0,0.0,0.0,-3.20856,-20.45459,-4.58366,8.77,0.78,3.97,2.0
1758076505.76974,1758076505.78678,0.0,0.0,0.0,-1.60428,-19.25138,-3.95341,8.77,0.78,3.97,2.0
1758076505.77096,1758076505.79678,0.0,0.0,0.0,-0.40107,-17.24603,-3.49504,9.02,0.76,3.79,2.0
1758076505.78677,1758076505.80678,0.0,0.0,0.0,0.97403,-13.34992,-3.49504,9.34,0.86,3.54,2.0
1758076505.80283,1758076505.81678,0.0,0.0,0.0,1.43239,-10.37054,-3.66693,9.34,0.86,3.54,2.0
1758076505.80425,1758076505.82678,0.0,0.0,0.0,1.66158,-7.67763,-3.89611,9.58,1.07,3.26,2.0
1758076505.81877,1758076505.83678,0.0,0.0,0.0,1.14592,-2.11994,-4.69825,9.58,1.07,3.26,2.0
1758076505.83477,1758076505.84678,0.0,0.0,0.0,0.97403,1.77617,-5.15662,9.8,1.36,2.91,2.0
1758076505.83633,1758076505.85678,0.0,0.0,0.0,0.17189,5.72958,-5.78687,9.8,1.36,2.91,2.0
1758076505.85107,1758076505.86678,0.0,0.0,0.0,-0.68755,9.33921,-6.13065,9.8,1.62,2.83,2.0
1758076505.85197,1758076505.87678,0.0,0.0,0.0,-2.34913,13.80828,-6.58902,9.8,1.62,2.75,2.0
1758076505.86712,1758076505.88678,0.0,0.0,0.0,-2.97938,15.58445,-6.87549,9.72,1.83,2.75,2.0
1758076505.88289,1758076505.89678,0.0,0.0,0.0,-3.66693,17.47521,-7.50575,9.73,1.98,2.73,2.0
1758076505.88433,1758076505.90678,0.0,0.0,0.0,-4.23989,19.42327,-7.39116,9.73,1.98,2.73,2.0
1758076505.89964,1758076505.91678,0.0,0.0,0.0,-4.64096,18.16276,-7.67763,9.66,1.78,2.87,2.0
1758076505.90076,1758076505.92678,0.0,0.0,0.0,-5.09932,16.38659,-7.67763,9.66,1.78,2.87,2.0
1758076505.91707,1758076505.93678,0.0,0.0,0.0,-5.32851,15.41257,-7.33386,9.37,1.65,2.67,2.0
1758076505.93389,1758076505.94678,0.0,0.0,0.0,-5.78687,16.38659,-6.7609,9.37,1.65,2.67,2.0
1758076505.9364,1758076505.95678,0.0,0.0,0.0,-6.13065,13.69369,-6.24524,9.4,1.62,2.73,2.0
1758076505.95214,1758076505.96678,0.0,0.0,0.0,-6.41713,10.94349,-6.41713,9.13,1.53,2.89,2.0
1758076505.95382,1758076505.97678,0.0,0.0,0.0,-6.87549,9.39651,-6.47442,9.13,1.53,2.89,2.0
1758076505.96887,1758076505.98678,0.0,0.0,0.0,-7.79223,8.36518,-6.7609,9.12,1.52,2.7,2.0
1758076505.98557,1758076505.99678,0.0,0.0,0.0,-9.33921,6.13065,-6.87549,9.12,1.52,2.7,2.0
1758076505.98719,1758076506.00678,0.0,0.0,0.0,-10.25595,5.09932,-6.87549,8.96,1.58,2.49,2.0
1758076506.00181,1758076506.01678,0.0,0.0,0.0,-11.22997,4.18259,-6.53172,8.96,1.58,2.49,2.0
1758076506.0038,1758076506.02678,0.0,0.0,0.0,-12.71966,3.60963,-5.78687,8.98,1.59,2.66,2.0
1758076506.01992,1758076506.03678,0.0,0.0,0.0,-13.80828,2.23454,-4.87014,9.0,1.6,2.64,2.0
1758076506.02117,1758076506.04678,0.0,0.0,0.0,-15.29797,0.97403,-4.1253,9.0,1.6,2.64,2.0
1758076506.03684,1758076506.05678,0.0,0.0,0.0,-16.90226,0.22918,-2.63561,9.08,1.66,2.67,2.0
1758076506.05285,1758076506.06678,0.0,0.0,0.0,-19.13679,-1.3178,-1.83346,9.08,1.66,2.67,2.0
1758076506.05406,1758076506.07678,0.0,0.0,0.0,-20.85567,-3.55234,-1.60428,9.1,1.73,2.49,2.0
1758076506.06908,1758076506.08678,0.0,0.0,0.0,-22.40265,-4.46907,-1.14592,9.1,1.73,2.49,2.0
1758076506.08487,1758076506.09678,0.0,0.0,0.0,-23.89234,-4.1253,-1.08862,9.3,1.77,2.37,2.0
1758076506.08609,1758076506.10678,0.0,0.0,0.0,-25.55392,-0.68755,-1.3178,9.61,1.77,2.13,2.0
1758076506.10083,1758076506.11678,0.0,0.0,0.0,-26.64254,2.46372,-1.71887,9.61,1.71,2.13,2.0
1758076506.10208,1758076506.12678,0.0,0.0,0.0,-27.38738,5.50039,-2.11994,9.71,1.56,2.08,2.0
1758076506.11715,1758076506.13678,0.0,0.0,0.0,-27.96034,7.50575,-2.63561,9.71,1.56,2.08,2.0
1758076506.1333,1758076506.14678,0.0,0.0,0.0,-28.24682,7.50575,-3.32316,9.5,1.35,2.02,2.0
1758076506.1341,1758076506.15677,0.0,0.0,0.0,-28.24682,5.84417,-3.83882,9.5,1.35,2.02,2.0
1758076506.14895,1758076506.16677,0.0,0.0,0.0,-27.96034,4.23989,-4.0107,9.37,1.15,1.87,2.0
1758076506.16498,1758076506.17677,0.0,0.0,0.0,-27.2155,2.34913,-3.83882,9.37,1.15,1.87,2.0
1758076506.16638,1758076506.18677,0.0,0.0,0.0,-26.01229,-0.40107,-3.03668,9.52,1.0,1.72,2.0
1758076506.18121,1758076506.19677,0.0,0.0,0.0,-24.80907,-2.6929,-2.34913,9.6,0.91,1.73,2.0
1758076506.18242,1758076506.20677,0.0,0.0,0.0,-23.60586,-4.98473,-1.43239,9.6,0.91,1.73,2.0
1758076506.19721,1758076506.21677,0.0,0.0,0.0,-21.88699,-8.02141,0.0573,9.6,0.84,1.77,2.0
1758076506.22083,1758076506.22677,0.0,0.0,0.0,-19.13679,-11.97482,0.97403,9.6,0.84,1.77,2.0
1758076506.22524,1758076506.23677,0.0,0.0,0.0,-17.53251,-11.86023,1.94806,9.61,0.7,1.76,2.0
1758076506.2259,1758076506.24677,0.0,0.0,0.0,-15.41257,-8.42248,2.63561,9.61,0.7,1.76,2.0
1758076506.24228,1758076506.25677,0.0,0.0,0.0,-13.00614,1.71887,1.71887,10.04,0.67,1.8,2.0
1758076506.24313,1758076506.26677,0.0,0.0,0.0,-11.22997,5.61499,1.94806,9.97,0.76,2.09,2.0
1758076506.25793,1758076506.27677,0.0,0.0,0.0,-9.74028,5.72958,2.40642,9.97,0.76,2.09,2.0
1758076506.27404,1758076506.28677,0.0,0.0,0.0,-8.59437,0.80214,2.6929,9.17,1.07,2.13,2.0
1758076506.27515,1758076506.29677,0.0,0.0,0.0,-7.50575,-11.28727,3.60963,9.17,1.07,2.13,2.0
1758076506.29032,1758076506.30677,0.0,0.0,0.0,-7.39116,-16.38659,4.35448,8.9,1.2,1.67,2.0
1758076506.29191,1758076506.31677,0.0,0.0,0.0,-7.44845,-18.33465,5.09932,8.9,1.2,1.67,2.0
1758076506.30826,1758076506.32677,0.0,0.0,0.0,-7.73493,-19.99623,5.95876,9.54,1.22,1.24,2.0
1758076506.32476,1758076506.33677,0.0,0.0,0.0,-8.88085,-23.94964,7.21927,9.35,1.26,1.44,2.0
1758076506.32595,1758076506.34677,0.0,0.0,0.0,-10.25595,-26.47065,8.136,9.35,1.26,1.44,2.0
1758076506.34097,1758076506.35677,0.0,0.0,0.0,-10.71431,-23.20479,9.22462,9.63,1.24,1.5,2.0
1758076506.34402,1758076506.36677,0.0,0.0,0.0,-9.85487,-18.50654,11.91752,9.63,1.24,1.5,2.0
1758076506.35921,1758076506.37677,0.0,0.0,0.0,-7.04738,-20.22541,13.46451,10.26,0.93,2.3,2.0
1758076506.36091,1758076506.38677,0.0,0.0,0.0,-4.69825,-23.66316,13.06344,10.26,0.93,2.3,2.0
1758076506.3773,1758076506.39677,0.0,0.0,0.0,-2.34913,-28.93437,11.11538,10.42,0.72,3.21,2.0
1758076506.41822,1758076506.40677,0.0,0.0,0.0,0.68755,-35.75257,8.88085,10.42,0.72,3.21,2.0
1758076506.42099,1758076506.41677,0.0,0.0,0.0,5.32851,-41.48215,6.18794,10.55,0.67,2.81,2.0
1758076506.42137,1758076506.42677,0.0,0.0,0.0,8.02141,-40.45082,5.21392,11.12,0.27,2.62,2.0
1758076506.42286,1758076506.43677,0.0,0.0,0.0,9.91217,-37.58603,5.15662,11.12,0.27,2.62,2.0
1758076506.42326,1758076506.44677,0.0,0.0,0.0,11.86023,-34.95043,6.58902,11.0,-0.16,2.36,2.0
1758076506.43923,1758076506.45677,0.0,0.0,0.0,12.43318,-31.16891,8.70896,11.0,-0.16,2.36,2.0
1758076506.44097,1758076506.46677,0.0,0.0,0.0,12.14671,-30.88243,10.71431,10.56,-0.37,2.26,2.0
1758076506.45725,1758076506.47677,0.0,0.0,0.0,11.63104,-30.30947,12.54778,10.56,-0.37,2.26,2.0
1758076506.47322,1758076506.48677,0.0,0.0,0.0,10.65701,-28.07493,15.46986,10.36,-0.24,2.26,2.0
1758076506.47421,1758076506.49677,0.0,0.0,0.0,9.74028,-27.10091,16.67307,10.39,0.1,2.6,2.0
1758076506.48917,1758076506.50677,0.0,0.0,0.0,9.22462,-26.47065,16.95955,10.39,0.1,2.6,2.0
1758076506.50506,1758076506.51677,0.0,0.0,0.0,8.42248,-26.41335,17.01685,10.07,0.5,3.07,2.0
1758076506.50645,1758076506.52677,0.0,0.0,0.0,7.04738,-23.72045,15.92823,10.07,0.5,3.07,2.0
1758076506.52104,1758076506.53677,0.0,0.0,0.0,5.90147,-21.37133,15.06879,9.85,0.55,3.24,2.0
1758076506.52221,1758076506.54677,0.0,0.0,0.0,4.58366,-18.79302,13.75099,9.85,0.55,3.24,2.0
1758076506.53699,1758076506.55677,0.0,0.0,0.0,3.38045,-22.11617,11.51645,9.22,0.24,3.46,2.0
1758076506.55327,1758076506.56677,0.0,0.0,0.0,3.60963,-45.77933,10.02676,6.9,-0.31,3.32,2.0
1758076506.55424,1758076506.57677,0.0,0.0,0.0,3.60963,-56.89471,11.97482,6.9,-0.31,3.32,2.0
1758076506.56931,1758076506.58677,0.0,0.0,0.0,2.6929,-49.38896,13.86558,9.16,-1.07,2.59,2.0
1758076506.58536,1758076506.59677,0.0,0.0,0.0,1.94806,-38.38818,14.32395,9.16,-1.07,2.59,2.0
1758076506.58624,1758076506.60677,0.0,0.0,0.0,-0.68755,-26.69983,13.46451,10.93,-1.16,2.43,2.0
1758076506.60132,1758076506.61677,0.0,0.0,0.0,-2.00535,-15.98552,12.60507,10.93,-1.16,2.43,2.0
1758076506.60255,1758076506.62677,0.0,0.0,0.0,-3.03668,-3.95341,12.204,11.04,-0.99,2.66,2.0
1758076506.6171,1758076506.63677,0.0,0.0,0.0,-3.83882,4.81285,11.74564,11.04,-0.99,2.66,2.0
1758076506.63326,1758076506.64677,0.0,0.0,0.0,-5.84417,7.10468,10.65701,10.39,-0.51,1.7,2.0
1758076506.63424,1758076506.65677,0.0,0.0,0.0,-7.96411,2.06265,8.47978,9.46,-0.15,2.02,2.0
1758076506.64931,1758076506.66677,0.0,0.0,0.0,-10.02676,1.3751,6.53172,9.46,-0.15,2.02,2.0
1758076506.66529,1758076506.67677,0.0,0.0,0.0,-11.91752,11.17268,6.24524,10.68,-0.01,1.69,2.0
1758076506.66655,1758076506.68677,0.0,0.0,0.0,-13.34992,19.82434,6.24524,10.68,-0.01,1.69,2.0
1758076506.68131,1758076506.69677,0.0,0.0,0.0,-14.66772,28.30412,6.53172,10.99,-0.11,1.65,2.0
1758076506.68251,1758076506.70677,0.0,0.0,0.0,-15.69904,32.20023,6.47442,10.99,-0.11,1.65,2.0
1758076506.69734,1758076506.71677,0.0,0.0,0.0,-16.21471,31.45539,5.27121,9.97,-0.25,1.93,2.0
1758076506.71328,1758076506.72677,0.0,0.0,0.0,-16.50119,29.22085,4.29718,9.2,-0.46,1.84,2.0
1758076506.7143,1758076506.73677,0.0,0.0,0.0,-16.55848,27.38738,3.72423,9.2,-0.46,1.84,2.0
1758076506.72938,1758076506.74677,0.0,0.0,0.0,-16.55848,37.58603,3.60963,10.02,-0.47,1.48,2.0
1758076506.74537,1758076506.75677,0.0,0.0,0.0,-19.36597,67.66632,-1.14592,10.02,-0.47,1.48,2.0
1758076506.74662,1758076506.76677,0.0,0.0,0.0,-22.91831,77.29202,-6.87549,11.31,-0.17,1.59,2.0
1758076506.76133,1758076506.77677,0.0,0.0,0.0,-23.94964,73.73967,-10.31324,11.31,-0.17,1.59,2.0
1758076506.76233,1758076506.78677,0.0,0.0,0.0,-25.15285,64.80153,-14.20935,8.7,-0.01,2.63,2.0
1758076506.77795,1758076506.79677,0.0,0.0,0.0,-24.86637,54.48829,-17.13144,8.75,-0.1,1.75,2.0
1758076506.79538,1758076506.80677,0.0,0.0,0.0,-23.60586,50.47758,-16.95955,8.75,-0.1,1.75,2.0
1758076506.79667,1758076506.81677,0.0,0.0,0.0,-21.48592,46.46688,-15.46986,9.22,-0.56,1.02,2.0
1758076506.81122,1758076506.82677,0.0,0.0,0.0,-18.44924,41.25296,-13.23533,9.22,-0.56,1.02,2.0
1758076506.81234,1758076506.83677,0.0,0.0,0.0,-13.06344,29.33544,-9.68299,8.9,-1.28,1.52,2.0
1758076506.82738,1758076506.84677,0.0,0.0,0.0,-8.99544,22.11617,-7.44845,8.9,-1.28,1.52,2.0
1758076506.84339,1758076506.85677,0.0,0.0,0.0,-4.69825,16.90226,-4.98473,8.85,-1.78,1.4,2.0
1758076506.84435,1758076506.86677,0.0,0.0,0.0,1.60428,10.59972,-2.23454,8.85,-1.78,1.4,2.0
1758076506.86023,1758076506.87677,0.0,0.0,0.0,5.55769,8.76626,-1.08862,8.96,-2.02,1.2,2.0
1758076506.86116,1758076506.88677,0.0,0.0,0.0,9.11003,7.79223,-0.80214,9.13,-2.03,1.13,2.0
1758076506.87743,1758076506.89677,0.0,0.0,0.0,12.14671,5.55769,-1.48969,9.13,-2.03,1.13,2.0
1758076506.89398,1758076506.90677,0.0,0.0,0.0,15.41257,3.32316,-3.32316,8.9,-1.73,1.0,2.0
1758076506.89553,1758076506.91677,0.0,0.0,0.0,17.01685,1.94806,-4.92744,8.9,-1.73,1.0,2.0
1758076506.91015,1758076506.92677,0.0,0.0,0.0,17.87628,0.80214,-6.8182,8.86,-1.17,0.96,2.0
1758076506.9116,1758076506.93677,0.0,0.0,0.0,17.93358,-0.22918,-8.70896,8.86,-1.17,0.96,2.0
1758076506.92822,1758076506.94677,0.0,0.0,0.0,17.53251,-3.20856,-10.48513,8.82,-0.7,1.14,2.0
1758076506.94415,1758076506.95677,0.0,0.0,0.0,17.24603,-4.64096,-11.00079,8.96,-0.39,1.29,2.0
1758076506.94486,1758076506.96677,0.0,0.0,0.0,17.01685,-5.15662,-11.34457,8.96,-0.39,1.29,2.0
1758076506.96113,1758076506.97677,0.0,0.0,0.0,16.90226,-6.8182,-11.74564,9.2,-0.29,1.25,2.0
1758076506.96265,1758076506.98677,0.0,0.0,0.0,16.55848,-11.57375,-12.49048,9.2,-0.29,1.25,2.0
1758076506.97738,1758076506.99677,0.0,0.0,0.0,15.98552,-17.18874,-12.204,9.28,-0.4,1.96,2.0
1758076506.99344,1758076507.00677,0.0,0.0,0.0,14.43854,-25.7831,-11.22997,9.28,-0.4,1.96,2.0
1758076506.99437,1758076507.01677,0.0,0.0,0.0,11.86023,-35.58068,-8.36518,10.39,-0.39,3.88,2.0
1758076507.00946,1758076507.02677,0.0,0.0,0.0,5.50039,-45.43555,-2.86479,13.06,0.53,5.22,2.0
1758076507.02546,1758076507.03677,0.0,0.0,0.0,-0.17189,-45.20637,-0.51566,13.06,0.53,5.22,2.0
1758076507.02596,1758076507.04677,0.0,0.0,0.0,-5.90147,-42.34158,-0.17189,14.1,1.67,4.15,2.0
1758076507.04146,1758076507.05677,0.0,0.0,0.0,-13.06344,-40.7373,-4.0107,14.1,1.67,4.15,2.0
1758076507.04283,1758076507.06677,0.0,0.0,0.0,-16.21471,-37.98711,-7.73493,11.54,1.72,3.1,2.0
1758076507.05746,1758076507.07677,0.0,0.0,0.0,-17.76169,-36.26823,-11.00079,11.54,1.72,3.1,2.0
1758076507.0735,1758076507.08677,0.0,0.0,0.0,-17.81899,-36.7266,-13.23533,9.66,1.24,2.66,2.0
1758076507.07441,1758076507.09677,0.0,0.0,0.0,-15.06879,-40.96649,-13.98017,9.66,1.24,2.66,2.0
1758076507.08994,1758076507.10677,0.0,0.0,0.0,-11.63104,-42.28429,-12.49048,8.68,0.42,2.87,2.0
1758076507.09122,1758076507.11677,0.0,0.0,0.0,-7.39116,-42.05511,-9.39651,9.05,-0.53,3.01,2.0
1758076507.10725,1758076507.12677,0.0,0.0,0.0,-2.86479,-43.4875,-4.92744,9.05,-0.53,3.01,2.0
1758076507.12374,1758076507.13677,0.0,0.0,0.0,1.60428,-40.85189,-0.22918,9.03,-1.01,3.21,2.0
1758076507.1244,1758076507.14677,0.0,0.0,0.0,2.86479,-32.48671,1.77617,9.03,-1.01,3.21,2.0
1758076507.13954,1758076507.15677,0.0,0.0,0.0,4.58366,-17.81899,3.60963,9.93,-0.69,3.29,2.0
1758076507.15548,1758076507.16677,0.0,0.0,0.0,6.24524,-4.18259,3.32316,9.93,-0.69,3.29,2.0
1758076507.15586,1758076507.17677,0.0,0.0,0.0,8.47978,-12.71966,3.03668,10.12,0.0,3.32,2.0
1758076507.1715,1758076507.18677,0.0,0.0,0.0,11.22997,-37.58603,3.20856,6.49,0.62,3.15,2.0
1758076507.1727,1758076507.19677,0.0,0.0,0.0,16.3293,-47.44091,9.91217,6.49,0.62,3.15,2.0
1758076507.18754,1758076507.20677,0.0,0.0,0.0,17.93358,-33.51803,13.69369,10.99,0.69,2.42,2.0
1758076507.20352,1758076507.21677,0.0,0.0,0.0,20.16812,-20.79837,15.29797,10.99,0.69,2.42,2.0
1758076507.2047,1758076507.22677,0.0,0.0,0.0,20.22541,-18.62113,12.71966,11.11,1.37,2.13,2.0
1758076507.21953,1758076507.23677,0.0,0.0,0.0,18.56383,-10.19865,9.68299,11.11,1.37,2.13,2.0
1758076507.23552,1758076507.24677,0.0,0.0,0.0,14.83961,-0.51566,2.57831,11.23,1.87,3.24,2.0
1758076507.23592,1758076507.25677,0.0,0.0,0.0,7.67763,9.22462,-2.63561,9.99,2.2,1.56,2.0
1758076507.25148,1758076507.26677,0.0,0.0,0.0,2.7502,15.41257,-6.58902,9.99,2.2,1.56,2.0
1758076507.25288,1758076507.27677,0.0,0.0,0.0,-1.48969,21.02755,-9.39651,9.53,2.33,2.03,2.0
1758076507.26752,1758076507.28677,0.0,0.0,0.0,-6.13065,27.2155,-10.8289,9.53,2.33,2.03,2.0
1758076507.28359,1758076507.29677,0.0,0.0,0.0,-7.62034,32.08564,-9.05273,9.47,1.88,1.72,2.0
1758076507.28477,1758076507.30677,0.0,0.0,0.0,-7.73493,35.40879,-6.07335,9.47,1.88,1.72,2.0
1758076507.29926,1758076507.31677,0.0,0.0,0.0,-6.8182,37.12767,-3.60963,9.55,1.21,1.97,2.0
1758076507.30233,1758076507.32677,0.0,0.0,0.0,-4.69825,41.31026,-0.22918,9.55,1.21,2.06,2.0
1758076507.31732,1758076507.33677,0.0,0.0,0.0,-2.92208,43.83128,0.97403,9.67,0.51,2.06,2.0
1758076507.33359,1758076507.34677,0.0,0.0,0.0,-0.74485,43.54479,2.06265,9.38,0.2,1.95,2.0
1758076507.33451,1758076507.35677,0.0,0.0,0.0,0.97403,40.62271,2.86479,9.38,0.2,1.95,2.0
1758076507.35008,1758076507.36677,0.0,0.0,0.0,2.92208,33.34615,2.6929,8.89,0.1,1.87,2.0
1758076507.3513,1758076507.37677,0.0,0.0,0.0,3.49504,29.39274,2.23454,8.89,0.1,1.87,2.0
1758076507.3663,1758076507.38677,0.0,0.0,0.0,3.09397,25.8404,1.3751,8.97,0.3,1.68,2.0
1758076507.38495,1758076507.39677,0.0,0.0,0.0,2.34913,22.57454,1.03132,8.97,0.3,1.68,2.0
1758076507.38592,1758076507.40677,0.0,0.0,0.0,-0.34377,20.11082,0.85944,9.15,0.83,1.42,2.0
1758076507.40164,1758076507.41677,0.0,0.0,0.0,-2.7502,19.19409,1.3751,9.61,1.4,1.49,2.0
1758076507.40251,1758076507.42677,0.0,0.0,0.0,-6.07335,17.99088,1.66158,9.61,1.4,1.49,2.0
1758076507.4181,1758076507.43677,0.0,0.0,0.0,-9.33921,17.87628,1.83346,9.65,1.83,1.44,2.0
1758076507.41974,1758076507.44677,0.0,0.0,0.0,-13.98017,16.38659,1.83346,9.65,1.83,1.44,2.0
1758076507.4349,1758076507.45677,0.0,0.0,0.0,-16.50119,14.38124,1.3178,9.47,1.99,1.29,2.0
1758076507.45028,1758076507.46677,0.0,0.0,0.0,-18.10547,13.46451,0.85944,9.47,1.99,1.29,2.0
1758076507.45148,1758076507.47677,0.0,0.0,0.0,-18.9649,11.11538,0.68755,9.31,1.87,1.06,2.0
1758076507.46656,1758076507.48677,0.0,0.0,0.0,-18.73572,8.36518,0.74485,9.06,1.55,0.91,2.0
1758076507.48256,1758076507.49677,0.0,0.0,0.0,-18.44924,7.79223,0.45837,9.06,1.55,0.91,2.0
1758076507.48375,1758076507.50677,0.0,0.0,0.0,-17.6471,10.02676,0.80214,9.36,1.23,0.87,2.0
1758076507.49832,1758076507.51677,0.0,0.0,0.0,-16.67307,15.29797,1.66158,9.36,1.23,0.87,2.0
1758076507.49981,1758076507.52677,0.0,0.0,0.0,-16.67307,16.04282,2.00535,9.54,1.0,1.16,2.0
1758076507.51489,1758076507.53677,0.0,0.0,0.0,-17.18874,11.86023,2.23454,9.54,1.0,1.16,2.0
1758076507.53064,1758076507.54677,0.0,0.0,0.0,-18.10547,5.09932,2.40642,8.92,0.92,1.64,2.0
1758076507.53186,1758076507.55677,0.0,0.0,0.0,-21.60051,-4.29718,1.60428,9.07,1.09,1.5,2.0
1758076507.54634,1758076507.56677,0.0,0.0,0.0,-24.63719,-9.33921,-0.34377,9.07,1.09,1.5,2.0
1758076507.56262,1758076507.57677,0.0,0.0,0.0,-28.13223,-14.09476,-3.09397,9.23,1.56,1.06,2.0
1758076507.56384,1758076507.58677,0.0,0.0,0.0,-31.79916,-21.02755,-5.78687,9.23,1.56,1.06,2.0
1758076507.57835,1758076507.59677,0.0,0.0,0.0,-36.32552,-35.2942,-8.0787,8.72,1.94,0.63,2.0
1758076507.5798,1758076507.60677,0.0,0.0,0.0,-38.38818,-42.85724,-7.33386,8.72,1.94,0.63,2.0
1758076507.59492,1758076507.61677,0.0,0.0,0.0,-39.53409,-49.15978,-6.41713,8.64,1.99,0.87,2.0
1758076507.61039,1758076507.62677,0.0,0.0,0.0,-40.85189,-57.41038,-5.21392,8.64,1.99,0.87,2.0
1758076507.61236,1758076507.63677,0.0,0.0,0.0,-42.39888,-65.2599,-2.06265,8.68,1.93,0.85,2.0
1758076507.62768,1758076507.64677,0.0,0.0,0.0,-44.00316,-44.8053,-3.09397,11.95,1.58,2.86,2.0
1758076507.64362,1758076507.65677,0.0,0.0,0.0,-42.05511,-19.25138,-4.58366,11.95,1.58,2.86,2.0
1758076507.64486,1758076507.66677,0.0,0.0,0.0,-41.48215,-36.55471,-12.54778,12.74,0.95,4.03,2.0
1758076507.65937,1758076507.67677,0.0,0.0,0.0,-43.4875,-67.66632,-17.93358,12.74,0.95,4.03,2.0
1758076507.66081,1758076507.68677,0.0,0.0,0.0,-43.54479,-66.00475,-23.60586,11.94,0.2,4.67,2.0
1758076507.67599,1758076507.69677,0.0,0.0,0.0,-41.99781,-53.74345,-24.5226,11.94,0.2,4.67,2.0
1758076507.69144,1758076507.70677,0.0,0.0,0.0,-39.53409,-35.52338,-20.97026,13.69,-0.13,1.22,2.0
1758076507.69261,1758076507.71677,0.0,0.0,0.0,-37.35685,-29.8511,-14.9542,11.09,-0.77,1.82,2.0
1758076507.70771,1758076507.72677,0.0,0.0,0.0,-34.32018,-26.69983,-7.79223,11.09,-0.77,1.82,2.0
1758076507.72373,1758076507.73677,0.0,0.0,0.0,-30.65324,-25.89769,-0.80214,9.32,-1.12,1.8,2.0
1758076507.72491,1758076507.74677,0.0,0.0,0.0,-23.72045,-28.70519,7.73493,9.32,-1.12,1.8,2.0
1758076507.73966,1758076507.75677,0.0,0.0,0.0,-19.13679,-31.56997,11.11538,8.79,-1.29,1.75,2.0
1758076507.74179,1758076507.76677,0.0,0.0,0.0,-15.69904,-33.40344,11.80293,8.79,-1.29,1.75,2.0
1758076507.75769,1758076507.77677,0.0,0.0,0.0,-13.69369,-33.63263,10.48513,9.15,-1.26,1.73,2.0
1758076507.77342,1758076507.78677,0.0,0.0,0.0,-13.75099,-31.97105,5.84417,9.62,-0.85,2.1,2.0
1758076507.77487,1758076507.79677,0.0,0.0,0.0,-14.83961,-32.37212,2.40642,9.62,-0.85,2.1,2.0
1758076507.78944,1758076507.80677,0.0,0.0,0.0,-17.13144,-32.77319,-0.68755,9.36,-0.35,2.28,2.0
1758076507.79062,1758076507.81677,0.0,0.0,0.0,-19.42327,-32.54401,-3.09397,9.36,-0.35,2.28,2.0
1758076507.80575,1758076507.82677,0.0,0.0,0.0,-21.94428,-29.96569,-4.35448,9.53,-0.29,2.28,2.0
1758076507.82168,1758076507.83677,0.0,0.0,0.0,-23.37668,-27.38738,-3.83882,9.53,-0.29,2.28,2.0
1758076507.82265,1758076507.84677,0.0,0.0,0.0,-24.35071,-24.35071,-2.34913,9.87,-0.53,2.37,2.0
1758076507.83772,1758076507.85677,0.0,0.0,0.0,-24.80907,-20.79837,-0.51566,9.87,-0.53,2.37,2.0
1758076507.85368,1758076507.86677,0.0,0.0,0.0,-25.26744,-15.29797,1.94806,10.04,-0.73,2.25,2.0
1758076507.85513,1758076507.87677,0.0,0.0,0.0,-25.38203,-9.74028,3.03668,10.09,-0.86,1.76,2.0
1758076507.8697,1758076507.88677,0.0,0.0,0.0,-25.26744,-2.97938,3.49504,10.09,-0.86,1.76,2.0
1758076507.87094,1758076507.89677,0.0,0.0,0.0,-24.98096,8.47978,2.11994,10.41,-0.97,1.06,2.0
1758076507.88577,1758076507.90677,0.0,0.0,0.0,-24.92367,16.73037,0.74485,10.41,-0.97,1.06,2.0
1758076507.90184,1758076507.91677,0.0,0.0,0.0,-24.23611,25.43933,-0.97403,10.78,-0.97,0.81,2.0
1758076507.9027,1758076507.92677,0.0,0.0,0.0,-23.37668,33.86181,-2.11994,10.78,-0.97,0.81,2.0
1758076507.91772,1758076507.93677,0.0,0.0,0.0,-21.48592,41.94051,-2.97938,11.1,-0.94,0.84,2.0
1758076507.93384,1758076507.94677,0.0,0.0,0.0,-20.16812,44.51882,-2.63561,10.79,-0.82,0.93,2.0
1758076507.93469,1758076507.95677,0.0,0.0,0.0,-19.25138,44.40423,-2.06265,10.79,-0.82,0.93,2.0
1758076507.94955,1758076507.96677,0.0,0.0,0.0,-18.79302,44.40423,-1.48969,10.27,-0.63,0.99,2.0
1758076507.9512,1758076507.97677,0.0,0.0,0.0,-18.90761,44.748,-1.03132,10.27,-0.63,0.99,2.0
1758076507.96577,1758076507.98677,0.0,0.0,0.0,-18.56383,42.62806,-0.51566,9.84,-0.5,1.13,2.0
1758076507.98155,1758076507.99677,0.0,0.0,0.0,-18.16276,39.19032,0.0573,9.84,-0.5,1.13,2.0
1758076507.98308,1758076508.00677,0.0,0.0,0.0,-17.30333,35.75257,0.85944,9.24,-0.58,1.21,2.0
1758076507.99773,1758076508.01677,0.0,0.0,0.0,-15.75634,30.48136,2.29183,9.06,-0.86,0.98,2.0
1758076508.01361,1758076508.02677,0.0,0.0,0.0,-14.38124,28.41871,3.03668,9.06,-0.86,0.98,2.0
1758076508.01472,1758076508.03677,0.0,0.0,0.0,-13.00614,26.81443,3.55234,9.13,-1.09,0.95,2.0
1758076508.02955,1758076508.04677,0.0,0.0,0.0,-11.45916,25.55392,3.60963,9.13,-1.09,0.95,2.0
1758076508.03075,1758076508.05677,0.0,0.0,0.0,-9.33921,24.29341,3.32316,9.21,-1.15,0.85,2.0
1758076508.04573,1758076508.06677,0.0,0.0,0.0,-8.02141,23.49127,2.86479,9.21,-1.15,0.85,2.0
1758076508.06182,1758076508.07677,0.0,0.0,0.0,-6.87549,22.86102,2.11994,9.31,-1.08,0.78,2.0
1758076508.06274,1758076508.08677,0.0,0.0,0.0,-5.15662,21.88699,0.51566,9.31,-1.08,0.78,2.0
1758076508.07785,1758076508.09677,0.0,0.0,0.0,-3.60963,18.56383,-0.45837,9.33,-1.01,0.69,2.0
1758076508.09366,1758076508.10677,0.0,0.0,0.0,-1.60428,16.95955,-0.80214,9.4,-1.06,0.71,2.0
1758076508.09517,1758076508.11677,0.0,0.0,0.0,0.68755,19.88164,-1.20321,9.4,-1.06,0.71,2.0
1758076508.10965,1758076508.12677,0.0,0.0,0.0,5.72958,27.33009,-0.85944,10.18,-1.31,0.55,2.0
1758076508.11075,1758076508.13677,0.0,0.0,0.0,9.91217,29.96569,-0.34377,10.18,-1.31,0.55,2.0
1758076508.12578,1758076508.14677,0.0,0.0,0.0,14.20935,30.93972,0.11459,10.01,-1.65,0.88,2.0
1758076508.14156,1758076508.15677,0.0,0.0,0.0,19.07949,31.45539,0.80214,10.01,-1.65,0.88,2.0
1758076508.14271,1758076508.16677,0.0,0.0,0.0,26.01229,30.93972,2.40642,9.89,-1.85,1.01,2.0
1758076508.15763,1758076508.17677,0.0,0.0,0.0,30.48136,29.56462,3.83882,9.57,-1.83,0.79,2.0
1758076508.17359,1758076508.18677,0.0,0.0,0.0,34.43476,26.41335,5.27121,9.57,-1.83,0.79,2.0
1758076508.17512,1758076508.19677,0.0,0.0,0.0,37.92981,17.93358,7.04738,8.87,-1.74,0.84,2.0
1758076508.18987,1758076508.20677,0.0,0.0,0.0,40.39353,2.63561,7.16197,8.87,-1.74,0.84,2.0
1758076508.19078,1758076508.21677,0.0,0.0,0.0,41.02378,-6.7609,6.87549,8.36,-1.47,0.65,2.0
1758076508.2059,1758076508.22677,0.0,0.0,0.0,41.25296,0.17189,4.23989,8.36,-1.47,0.65,2.0
1758076508.22189,1758076508.23677,0.0,0.0,0.0,43.14373,14.20935,5.95876,10.21,-1.14,0.41,2.0
1758076508.22305,1758076508.24677,0.0,0.0,0.0,44.57612,40.96649,6.70361,11.59,-0.93,1.94,2.0
1758076508.23765,1758076508.25677,0.0,0.0,0.0,44.9199,45.60744,5.4431,11.59,-0.93,1.94,2.0
1758076508.25386,1758076508.26677,0.0,0.0,0.0,46.81066,35.86716,5.15662,9.26,-0.79,2.83,2.0
1758076508.2552,1758076508.27677,0.0,0.0,0.0,43.88857,8.02141,-0.45837,9.26,-0.79,2.83,2.0
1758076508.26975,1758076508.28677,0.0,0.0,0.0,48.58683,-38.38818,2.63561,6.35,-0.69,1.29,2.0
1758076508.27081,1758076508.29677,0.0,0.0,0.0,49.21708,-40.45082,6.87549,6.35,-0.69,1.29,2.0
1758076508.28562,1758076508.30677,0.0,0.0,0.0,48.35764,-35.40879,10.19865,10.64,-1.02,1.45,2.0
1758076508.30162,1758076508.31677,0.0,0.0,0.0,43.54479,-35.69527,13.69369,10.64,-1.02,1.45,2.0
1758076508.30323,1758076508.32677,0.0,0.0,0.0,37.92981,-38.61736,16.21471,11.86,-0.51,2.66,2.0
1758076508.31791,1758076508.33677,0.0,0.0,0.0,30.88243,-36.6693,18.27736,13.93,0.7,5.07,2.0
1758076508.33364,1758076508.34677,0.0,0.0,0.0,22.91831,-32.77319,19.19409,13.93,0.7,5.07,2.0
1758076508.33486,1758076508.35677,0.0,0.0,0.0,10.59972,-29.8511,16.21471,13.55,1.45,3.59,2.0
1758076508.34962,1758076508.36677,0.0,0.0,0.0,2.6929,-27.44468,12.204,13.55,1.45,3.59,2.0
1758076508.3508,1758076508.37677,0.0,0.0,0.0,-2.97938,-24.98096,7.50575,10.84,1.77,2.04,2.0
1758076508.36587,1758076508.38677,0.0,0.0,0.0,-6.87549,-21.7724,2.29183,10.84,1.77,2.04,2.0
1758076508.38181,1758076508.39677,0.0,0.0,0.0,-9.28192,-20.05352,-4.23989,9.0,1.34,1.42,2.0
1758076508.38284,1758076508.40677,0.0,0.0,0.0,-9.28192,-21.7151,-7.44845,7.95,0.53,1.71,2.0
1758076508.39783,1758076508.41677,0.0,0.0,0.0,-8.65166,-23.83505,-9.62569,7.95,0.53,1.71,2.0
1758076508.41383,1758076508.42677,0.0,0.0,0.0,-7.79223,-25.7831,-11.17268,8.04,-0.23,2.21,2.0
1758076508.4152,1758076508.43677,0.0,0.0,0.0,-5.72958,-26.24147,-11.63104,8.04,-0.23,2.21,2.0
1758076508.42988,1758076508.44677,0.0,0.0,0.0,-4.0107,-26.24147,-10.71431,8.56,-0.75,2.42,2.0
1758076508.43127,1758076508.45677,0.0,0.0,0.0,-2.57831,-25.55392,-9.4538,8.56,-0.75,2.42,2.0
1758076508.44583,1758076508.46677,0.0,0.0,0.0,-1.08862,-24.57989,-7.21927,8.89,-0.96,2.81,2.0
1758076508.4619,1758076508.47677,0.0,0.0,0.0,0.85944,-21.42862,-3.32316,9.38,-0.75,3.13,2.0
1758076508.46321,1758076508.48677,0.0,0.0,0.0,2.23454,-17.93358,-0.34377,9.38,-0.75,3.13,2.0
1758076508.47779,1758076508.49677,0.0,0.0,0.0,3.66693,-13.69369,2.86479,9.93,-0.27,3.09,2.0
1758076508.49387,1758076508.50677,0.0,0.0,0.0,5.78687,-5.95876,6.41713,9.93,-0.27,3.09,2.0
1758076508.49494,1758076508.51677,0.0,0.0,0.0,6.87549,-0.22918,7.79223,10.26,0.36,2.93,2.0
1758076508.50998,1758076508.52677,0.0,0.0,0.0,7.67763,6.13065,8.25059,10.26,0.36,2.93,2.0
1758076508.51092,1758076508.53677,0.0,0.0,0.0,8.42248,12.71966,8.36518,10.52,1.01,2.62,2.0
1758076508.5258,1758076508.54677,0.0,0.0,0.0,9.4538,23.60586,6.41713,10.52,1.01,2.62,2.0
1758076508.54165,1758076508.55677,0.0,0.0,0.0,9.62569,30.93972,4.35448,10.63,1.62,2.28,2.0
1758076508.54324,1758076508.56677,0.0,0.0,0.0,9.28192,36.61201,2.29183,10.57,1.6,2.32,2.0
1758076508.55768,1758076508.57677,0.0,0.0,0.0,8.47978,39.4195,-0.45837,10.57,1.6,2.32,2.0
1758076508.57369,1758076508.58677,0.0,0.0,0.0,7.16197,39.4768,-3.38045,10.01,1.37,2.11,2.0
1758076508.57527,1758076508.59677,0.0,0.0,0.0,5.61499,40.04975,-3.72423,10.01,1.37,2.11,2.0
1758076508.58989,1758076508.60677,0.0,0.0,0.0,4.52637,38.84654,-3.49504,9.84,0.92,1.93,2.0
1758076508.5912,1758076508.61677,0.0,0.0,0.0,3.26586,35.86716,-2.86479,9.84,0.92,1.93,2.0
1758076508.60588,1758076508.62677,0.0,0.0,0.0,1.48969,31.11161,-2.23454,9.47,0.5,2.06,2.0
1758076508.62166,1758076508.63677,0.0,0.0,0.0,0.11459,27.44468,-1.83346,9.35,0.45,1.99,2.0
1758076508.62295,1758076508.64677,0.0,0.0,0.0,-1.48969,23.0329,-2.11994,9.35,0.45,1.99,2.0
1758076508.63793,1758076508.65677,0.0,0.0,0.0,-4.1253,18.9649,-3.49504,9.15,0.81,2.05,2.0
1758076508.65395,1758076508.66677,0.0,0.0,0.0,-8.136,12.54778,-6.07335,9.15,0.81,2.05,2.0
1758076508.65486,1758076508.67677,0.0,0.0,0.0,-11.45916,10.02676,-8.65166,9.04,1.36,1.75,2.0
1758076508.66977,1758076508.68677,0.0,0.0,0.0,-14.66772,9.39651,-10.59972,9.04,1.36,1.75,2.0
1758076508.67088,1758076508.69677,0.0,0.0,0.0,-17.58981,10.94349,-12.83425,9.3,1.89,1.77,2.0
1758076508.68591,1758076508.70677,0.0,0.0,0.0,-22.28806,13.12073,-13.5791,9.41,1.99,1.76,2.0
1758076508.70191,1758076508.71677,0.0,0.0,0.0,-25.38203,14.78231,-14.20935,9.41,1.99,1.76,2.0
1758076508.70315,1758076508.72677,0.0,0.0,0.0,-27.84575,16.84496,-13.86558,9.38,1.75,1.62,2.0
1758076508.7179,1758076508.73677,0.0,0.0,0.0,-31.28349,19.42327,-13.12073,9.38,1.75,1.62,2.0
1758076508.73393,1758076508.74677,0.0,0.0,0.0,-33.23156,20.34,-12.14671,9.24,1.44,1.52,2.0
1758076508.73489,1758076508.75677,0.0,0.0,0.0,-34.72124,20.74107,-10.94349,9.24,1.44,1.52,2.0
1758076508.74987,1758076508.76677,0.0,0.0,0.0,-35.92446,21.08485,-9.5684,9.17,1.2,1.59,2.0
1758076508.75092,1758076508.77677,0.0,0.0,0.0,-37.01308,19.36597,-7.84952,9.19,1.2,1.61,2.0
1758076508.7657,1758076508.78677,0.0,0.0,0.0,-37.75792,19.25138,-7.04738,9.19,1.07,1.61,2.0
1758076508.78168,1758076508.79677,0.0,0.0,0.0,-38.21629,19.42327,-6.41713,9.51,0.96,1.6,2.0
1758076508.78329,1758076508.80677,0.0,0.0,0.0,-38.44547,17.87628,-6.07335,9.51,0.96,1.6,2.0
1758076508.79793,1758076508.81677,0.0,0.0,0.0,-39.64868,12.89155,-5.78687,9.41,0.89,1.73,2.0
1758076508.8137,1758076508.82677,0.0,0.0,0.0,-41.48215,8.59437,-6.58902,9.41,0.89,1.73,2.0
1758076508.81496,1758076508.83677,0.0,0.0,0.0,-44.23235,3.72423,-8.36518,9.4,1.03,1.78,2.0
1758076508.82995,1758076508.84677,0.0,0.0,0.0,-47.44091,-1.20321,-10.8862,9.4,1.03,1.78,2.0
1758076508.83132,1758076508.85677,0.0,0.0,0.0,-52.76942,-9.22462,-15.87093,9.24,1.32,1.61,2.0
1758076508.84592,1758076508.86677,0.0,0.0,0.0,-56.03527,-13.12073,-20.11082,9.15,1.68,1.55,2.0
1758076508.86198,1758076508.87677,0.0,0.0,0.0,-58.84277,-20.51189,-24.00693,9.15,1.68,1.55,2.0
1758076508.86293,1758076508.88677,0.0,0.0,0.0,-60.61894,-31.2262,-26.35606,8.59,1.74,1.18,2.0
1758076508.87796,1758076508.89677,0.0,0.0,0.0,-61.65026,-42.34158,-26.01229,8.59,1.74,1.18,2.0
1758076508.89372,1758076508.90677,0.0,0.0,0.0,-62.33781,-45.03448,-24.57989,8.88,1.52,1.19,2.0
1758076508.8949,1758076508.91677,0.0,0.0,0.0,-61.93674,-49.27437,-21.7151,8.88,1.52,1.19,2.0
1758076508.91005,1758076508.92677,0.0,0.0,0.0,-61.76485,-50.47758,-17.01685,9.25,1.22,0.86,2.0
1758076508.91128,1758076508.93677,0.0,0.0,0.0,-62.85347,-33.17426,-12.60507,11.04,0.79,1.73,2.0
1758076508.92574,1758076508.94677,0.0,0.0,0.0,-62.56699,-13.5791,-10.31324,11.04,0.79,1.73,2.0
1758076508.94197,1758076508.95677,0.0,0.0,0.0,-65.03072,-24.35071,-12.49048,10.48,0.72,2.11,2.0
1758076508.94318,1758076508.96677,0.0,0.0,0.0,-66.17663,-44.40423,-15.0115,10.48,0.72,2.11,2.0
1758076508.9578,1758076508.97677,0.0,0.0,0.0,-66.635,-49.33167,-19.99623,10.44,0.54,3.98,2.0
1758076508.97378,1758076508.98677,0.0,0.0,0.0,-65.83286,-44.28964,-24.00693,10.44,0.54,3.98,2.0
1758076508.97498,1758076508.99677,0.0,0.0,0.0,-63.77021,-33.11696,-27.2155,13.64,-0.16,2.77,2.0
1758076508.98978,1758076509.00677,0.0,0.0,0.0,-57.58226,-16.84496,-27.67386,13.44,-0.96,3.04,2.0
1758076508.99145,1758076509.01677,0.0,0.0,0.0,-51.39432,-9.91217,-24.75178,13.44,-0.96,3.04,2.0
1758076509.0058,1758076509.02677,0.0,0.0,0.0,-44.40423,-5.50039,-19.53786,11.35,-1.29,2.8,2.0
1758076509.02181,1758076509.03677,0.0,0.0,0.0,-37.58603,-2.40642,-13.34992,11.35,-1.29,2.8,2.0
1758076509.02328,1758076509.04677,0.0,0.0,0.0,-28.476,-5.55769,-3.32316,9.56,-1.24,2.02,2.0
1758076509.03791,1758076509.05677,0.0,0.0,0.0,-23.72045,-10.71431,2.40642,9.56,-1.24,2.02,2.0
1758076509.0538,1758076509.06677,0.0,0.0,0.0,-20.11082,-14.38124,7.04738,8.4,-0.93,1.46,2.0
1758076509.0553,1758076509.07677,0.0,0.0,0.0,-17.81899,-16.90226,9.96947,8.4,-0.93,1.46,2.0
1758076509.0698,1758076509.08677,0.0,0.0,0.0,-17.30333,-22.28806,10.8289,8.73,-0.54,1.44,2.0
1758076509.07117,1758076509.09677,0.0,0.0,0.0,-18.56383,-25.38203,8.93814,9.03,-0.06,1.87,2.0
1758076509.08594,1758076509.10677,0.0,0.0,0.0,-20.34,-27.78845,6.18794,9.03,-0.06,1.87,2.0
1758076509.10192,1758076509.11677,0.0,0.0,0.0,-24.17882,-31.11161,0.97403,9.25,0.24,2.21,2.0
1758076509.10301,1758076509.12677,0.0,0.0,0.0,-27.04361,-35.3515,-2.40642,9.25,0.24,2.21,2.0
1758076509.11783,1758076509.13677,0.0,0.0,0.0,-29.9084,-36.6693,-5.15662,9.09,0.29,2.39,2.0
1758076509.13387,1758076509.14677,0.0,0.0,0.0,-32.77319,-37.29956,-7.16197,9.09,0.29,2.39,2.0
1758076509.13505,1758076509.15677,0.0,0.0,0.0,-36.89849,-36.03905,-8.76626,9.04,0.12,2.53,2.0
1758076509.14991,1758076509.16677,0.0,0.0,0.0,-39.4195,-34.37747,-9.28192,9.34,-0.17,2.77,2.0
1758076509.15109,1758076509.17677,0.0,0.0,0.0,-41.76862,-32.20023,-9.5684,9.34,-0.17,2.77,2.0
1758076509.16599,1758076509.18677,0.0,0.0,0.0,-43.65939,-29.27814,-9.28192,9.8,-0.49,2.59,2.0
1758076509.18187,1758076509.19677,0.0,0.0,0.0,-45.72203,-21.25674,-8.65166,9.8,-0.49,2.59,2.0
1758076509.18338,1758076509.20677,0.0,0.0,0.0,-46.46688,-13.46451,-8.25059,10.52,-0.79,2.01,2.0
1758076509.19788,1758076509.21677,0.0,0.0,0.0,-46.63877,-5.32851,-7.96411,10.52,-0.79,2.01,2.0
1758076509.21428,1758076509.22677,0.0,0.0,0.0,-45.49285,3.55234,-7.50575,10.92,-1.06,1.51,2.0
1758076509.21545,1758076509.23677,0.0,0.0,0.0,-42.91454,16.90226,-6.87549,11.08,-1.23,1.29,2.0
1758076509.22992,1758076509.24677,0.0,0.0,0.0,-40.50812,25.26744,-6.13065,11.08,-1.23,1.29,2.0
1758076509.23138,1758076509.25677,0.0,0.0,0.0,-37.58603,33.17426,-4.87014,11.16,-1.28,1.44,2.0
1758076509.24594,1758076509.26677,0.0,0.0,0.0,-34.32018,37.98711,-3.03668,11.16,-1.28,1.44,2.0
1758076509.2619,1758076509.27677,0.0,0.0,0.0,-30.65324,40.10705,-0.51566,10.55,-1.17,1.52,2.0
1758076509.26312,1758076509.28677,0.0,0.0,0.0,-29.56462,41.08107,0.68755,10.55,-1.17,1.52,2.0
1758076509.27792,1758076509.29677,0.0,0.0,0.0,-29.56462,41.02378,1.08862,10.17,-0.98,1.65,2.0
1758076509.29432,1758076509.30677,0.0,0.0,0.0,-30.13758,39.76327,0.85944,10.17,-0.98,1.65,2.0
1758076509.29513,1758076509.31677,0.0,0.0,0.0,-30.30947,37.12767,0.57296,9.59,-0.77,1.73,2.0
1758076509.31,1758076509.32677,0.0,0.0,0.0,-29.8511,36.21093,0.40107,9.28,-0.82,1.51,2.0
1758076509.31111,1758076509.33677,0.0,0.0,0.0,-28.64789,35.69527,0.51566,9.28,-0.82,1.51,2.0
1758076509.32591,1758076509.34677,0.0,0.0,0.0,-27.33009,33.05967,0.0573,9.09,-1.02,1.3,2.0
1758076509.34196,1758076509.35677,0.0,0.0,0.0,-26.12688,31.74186,-0.74485,9.09,-1.02,1.3,2.0
1758076509.34311,1758076509.36677,0.0,0.0,0.0,-24.98096,30.76784,-1.48969,9.09,-1.1,1.2,2.0
1758076509.35794,1758076509.37677,0.0,0.0,0.0,-23.89234,28.41871,-2.7502,9.09,-1.1,1.2,2.0
1758076509.37401,1758076509.38677,0.0,0.0,0.0,-22.00158,26.35606,-5.27121,8.99,-1.02,0.98,2.0
1758076509.37511,1758076509.39677,0.0,0.0,0.0,-20.3973,25.7831,-6.41713,9.23,-1.01,0.95,2.0
1758076509.38997,1758076509.40677,0.0,0.0,0.0,-18.44924,24.57989,-7.21927,9.23,-1.01,0.95,2.0
1758076509.39139,1758076509.41677,0.0,0.0,0.0,-16.21471,23.0902,-7.84952,9.25,-1.14,0.84,2.0
1758076509.40592,1758076509.42677,0.0,0.0,0.0,-12.43318,19.70975,-7.79223,9.25,-1.14,0.84,2.0
1758076509.42228,1758076509.43677,0.0,0.0,0.0,-9.33921,18.90761,-7.04738,9.33,-1.39,0.79,2.0
1758076509.42338,1758076509.44677,0.0,0.0,0.0,-6.24524,20.16812,-6.24524,9.33,-1.39,0.79,2.0
1758076509.43838,1758076509.45677,0.0,0.0,0.0,-3.55234,21.7724,-5.95876,9.8,-1.64,0.73,2.0
1758076509.45429,1758076509.46677,0.0,0.0,0.0,0.40107,23.20479,-5.95876,9.91,-1.66,1.16,2.0
1758076509.45515,1758076509.47677,0.0,0.0,0.0,2.86479,22.11617,-6.18794,9.91,-1.66,1.16,2.0
1758076509.46992,1758076509.48677,0.0,0.0,0.0,5.15662,19.42327,-6.13065,9.68,-1.51,1.33,2.0
1758076509.47111,1758076509.49677,0.0,0.0,0.0,6.7609,15.92823,-6.24524,9.68,-1.51,1.33,2.0
1758076509.48591,1758076509.50677,0.0,0.0,0.0,9.11003,10.59972,-5.15662,9.52,-1.27,1.43,2.0
1758076509.50194,1758076509.51677,0.0,0.0,0.0,11.00079,7.84952,-3.32316,9.52,-1.27,1.43,2.0
1758076509.50316,1758076509.52677,0.0,0.0,0.0,13.46451,5.55769,-0.22918,9.58,-1.17,1.55,2.0
1758076509.51796,1758076509.53677,0.0,0.0,0.0,17.30333,1.48969,5.09932,9.58,-1.17,1.55,2.0
1758076509.53393,1758076509.54677,0.0,0.0,0.0,19.82434,-1.60428,8.47978,9.56,-1.3,1.57,2.0
1758076509.53515,1758076509.55677,0.0,0.0,0.0,22.63183,-3.89611,10.8289,9.51,-1.47,1.4,2.0
1758076509.54995,1758076509.56677,0.0,0.0,0.0,25.61122,-9.39651,12.71966,9.51,-1.47,1.4,2.0
1758076509.55117,1758076509.57677,0.0,0.0,0.0,28.41871,-22.05888,11.34457,8.97,-1.47,0.9,2.0
1758076509.56597,1758076509.58677,0.0,0.0,0.0,29.33544,-26.81443,9.28192,8.97,-1.47,0.9,2.0
1758076509.58195,1758076509.59677,0.0,0.0,0.0,29.9084,-25.61122,4.92744,9.19,-1.29,0.66,2.0
1758076509.58313,1758076509.60677,0.0,0.0,0.0,31.2262,-13.06344,1.77617,9.19,-1.29,0.66,2.0
1758076509.598,1758076509.61677,0.0,0.0,0.0,33.9764,9.05273,0.51566,10.75,-1.19,0.64,2.0
1758076509.61401,1758076509.62677,0.0,0.0,0.0,33.68992,20.3973,-1.03132,11.1,-1.11,2.84,2.0
1758076509.61518,1758076509.63677,0.0,0.0,0.0,32.88778,23.54857,-1.3751,11.1,-1.11,2.84,2.0
1758076509.62996,1758076509.64677,0.0,0.0,0.0,33.11696,11.34457,-0.11459,10.41,-0.73,4.48,2.0
1758076509.6312,1758076509.65677,0.0,0.0,0.0,28.87707,-40.33623,3.95341,10.41,-0.73,4.48,2.0
1758076509.64698,1758076509.66677,0.0,0.0,0.0,27.61657,-64.40046,14.03747,9.04,-0.1,4.03,2.0
1758076509.66324,1758076509.67677,0.0,0.0,0.0,23.54857,-60.96271,22.86102,9.04,-0.1,4.03,2.0
1758076509.66448,1758076509.68677,0.0,0.0,0.0,19.48057,-47.44091,28.01764,13.75,0.15,2.8,2.0
1758076509.67928,1758076509.69677,0.0,0.0,0.0,14.61043,-41.76862,27.38738,11.82,0.49,2.48,2.0
1758076509.6802,1758076509.70677,0.0,0.0,0.0,12.14671,-38.50277,23.20479,11.82,0.49,2.48,2.0
1758076509.69628,1758076509.71677,0.0,0.0,0.0,9.22462,-33.23156,15.98552,10.2,0.62,2.72,2.0
1758076509.71225,1758076509.72677,0.0,0.0,0.0,6.18794,-29.10626,2.00535,10.2,0.62,2.72,2.0
1758076509.71358,1758076509.73677,0.0,0.0,0.0,2.57831,-22.63183,-7.16197,9.46,0.79,1.88,2.0
1758076509.72832,1758076509.74677,0.0,0.0,0.0,0.68755,-17.6471,-14.66772,9.46,0.79,1.88,2.0
1758076509.74415,1758076509.75677,0.0,0.0,0.0,-0.34377,-16.61578,-18.62113,9.53,0.97,2.14,2.0
1758076509.74524,1758076509.76677,0.0,0.0,0.0,-1.20321,-18.90761,-19.82434,9.53,0.97,2.14,2.0
1758076509.76032,1758076509.77677,0.0,0.0,0.0,-1.48969,-18.27736,-17.58981,9.29,0.73,2.27,2.0
1758076509.76122,1758076509.78677,0.0,0.0,0.0,-0.97403,-17.24603,-14.20935,9.75,0.35,2.38,2.0
1758076509.77607,1758076509.79677,0.0,0.0,0.0,-0.22918,-15.87093,-9.91217,9.75,0.35,2.38,2.0
1758076509.79239,1758076509.80677,0.0,0.0,0.0,1.08862,-12.83425,-4.1253,9.59,0.04,2.34,2.0
1758076509.79323,1758076509.81677,0.0,0.0,0.0,2.29183,-10.94349,-0.74485,9.59,0.04,2.34,2.0
1758076509.80838,1758076509.82677,0.0,0.0,0.0,3.09397,-9.22462,1.3178,9.29,-0.05,2.57,2.0
1758076509.82421,1758076509.83677,0.0,0.0,0.0,3.83882,-7.79223,2.23454,9.29,-0.05,2.57,2.0
1758076509.82529,1758076509.84677,0.0,0.0,0.0,4.64096,-4.52637,1.71887,9.02,0.09,2.58,2.0
1758076509.84035,1758076509.85677,0.0,0.0,0.0,4.81285,-1.66158,0.40107,9.05,0.47,2.66,2.0
1758076509.84129,1758076509.86677,0.0,0.0,0.0,4.98473,0.85944,-0.80214,9.05,0.47,2.66,2.0
1758076509.85642,1758076509.87677,0.0,0.0,0.0,4.92744,4.1253,-2.29183,9.33,0.97,2.72,2.0
1758076509.87231,1758076509.88677,0.0,0.0,0.0,5.32851,8.30789,-3.09397,9.33,0.97,2.72,2.0
1758076509.87331,1758076509.89677,0.0,0.0,0.0,5.78687,11.57375,-3.38045,9.71,1.34,2.63,2.0
1758076509.88837,1758076509.90677,0.0,0.0,0.0,6.13065,15.29797,-3.55234,9.71,1.34,2.63,2.0
1758076509.90439,1758076509.91677,0.0,0.0,0.0,6.35983,19.36597,-3.03668,10.13,1.46,2.33,2.0
1758076509.9053,1758076509.92677,0.0,0.0,0.0,6.13065,27.1582,-2.46372,10.57,1.43,2.11,2.0
1758076509.9204,1758076509.93677,0.0,0.0,0.0,5.32851,31.56997,-2.92208,10.57,1.43,2.11,2.0
1758076509.92134,1758076509.94677,0.0,0.0,0.0,4.92744,33.74722,-3.09397,10.38,1.35,2.01,2.0
1758076509.93637,1758076509.95677,0.0,0.0,0.0,3.66693,34.49206,-2.7502,10.38,1.35,2.01,2.0
1758076509.95219,1758076509.96677,0.0,0.0,0.0,2.40642,34.77854,-1.83346,10.07,1.07,1.99,2.0
1758076509.95331,1758076509.97677,0.0,0.0,0.0,1.3178,31.85646,-0.74485,10.07,1.07,1.99,2.0
1758076509.9681,1758076509.98677,0.0,0.0,0.0,0.22918,28.70519,-1.03132,9.59,0.82,1.72,2.0
1758076509.98416,1758076509.99677,0.0,0.0,0.0,-1.48969,26.75713,-1.77617,9.59,0.82,1.81,2.0
1758076509.98534,1758076510.00677,0.0,0.0,0.0,-2.86479,25.21014,-2.46372,9.65,0.7,1.81,2.0
1758076510.00043,1758076510.01677,0.0,0.0,0.0,-4.46907,22.86102,-3.49504,9.32,0.92,1.72,2.0
1758076510.00127,1758076510.02677,0.0,0.0,0.0,-6.18794,18.79302,-4.46907,9.32,0.92,1.72,2.0
1758076510.01633,1758076510.03677,0.0,0.0,0.0,-9.33921,10.8862,-5.61499,9.0,1.29,1.91,2.0
1758076510.03232,1758076510.04677,0.0,0.0,0.0,-12.14671,8.25059,-7.33386,9.0,1.29,1.91,2.0
1758076510.03331,1758076510.05677,0.0,0.0,0.0,-14.43854,6.7609,-8.47978,9.13,1.67,1.77,2.0
1758076510.04813,1758076510.06677,0.0,0.0,0.0,-17.13144,6.8182,-9.74028,9.13,1.67,1.77,2.0
1758076510.06438,1758076510.07677,0.0,0.0,0.0,-20.74107,7.79223,-11.28727,9.45,1.92,1.92,2.0
1758076510.06532,1758076510.08677,0.0,0.0,0.0,-22.74642,8.42248,-11.97482,9.46,1.87,1.86,2.0
1758076510.08007,1758076510.09677,0.0,0.0,0.0,-24.35071,8.25059,-12.54778,9.46,1.87,1.86,2.0
1758076510.08129,1758076510.10677,0.0,0.0,0.0,-25.21014,6.99009,-11.80293,9.26,1.5,1.69,2.0
1758076510.09639,1758076510.11677,0.0,0.0,0.0,-25.72581,5.84417,-9.91217,9.26,1.5,1.69,2.0
1758076510.11242,1758076510.12677,0.0,0.0,0.0,-25.72581,6.99009,-8.42248,9.36,1.04,1.57,2.0
1758076510.11334,1758076510.13677,0.0,0.0,0.0,-25.38203,7.16197,-6.35983,9.36,1.04,1.57,2.0
1758076510.12842,1758076510.14677,0.0,0.0,0.0,-24.98096,7.04738,-4.29718,9.5,0.74,1.62,2.0
1758076510.13014,1758076510.15677,0.0,0.0,0.0,-25.15285,8.70896,-3.89611,9.66,0.66,1.72,2.0
1758076510.14642,1758076510.16677,0.0,0.0,0.0,-25.61122,11.80293,-3.60963,9.66,0.66,1.72,2.0
1758076510.16217,1758076510.17677,0.0,0.0,0.0,-26.06958,15.69904,-3.60963,9.9,0.77,1.73,2.0
1758076510.16491,1758076510.18677,0.0,0.0,0.0,-26.87172,19.25138,-3.66693,9.9,0.77,1.73,2.0
1758076510.18049,1758076510.19677,0.0,0.0,0.0,-27.33009,20.05352,-3.38045,9.75,0.84,1.9,2.0
1758076510.18141,1758076510.20677,0.0,0.0,0.0,-27.78845,21.08485,-2.6929,9.75,0.84,1.9,2.0
1758076510.19646,1758076510.21677,0.0,0.0,0.0,-28.30412,21.37133,-2.40642,9.74,0.82,1.96,2.0
1758076510.21249,1758076510.22677,0.0,0.0,0.0,-29.22085,16.04282,-2.23454,9.34,0.82,1.87,2.0
1758076510.21342,1758076510.23677,0.0,0.0,0.0,-30.30947,10.8289,-2.40642,9.34,0.91,1.87,2.0
1758076510.22848,1758076510.24677,0.0,0.0,0.0,-31.91375,5.78687,-3.09397,9.24,1.12,1.86,2.0
1758076510.24421,1758076510.25677,0.0,0.0,0.0,-34.09099,1.3178,-4.35448,9.24,1.12,1.86,2.0
1758076510.24543,1758076510.26677,0.0,0.0,0.0,-38.21629,-5.27121,-7.33386,9.29,1.4,1.74,2.0
1758076510.26023,1758076510.27677,0.0,0.0,0.0,-41.31026,-9.68299,-9.85487,9.29,1.4,1.74,2.0
1758076510.26143,1758076510.28677,0.0,0.0,0.0,-44.23235,-13.12073,-12.49048,9.3,1.63,1.64,2.0
1758076510.27625,1758076510.29677,0.0,0.0,0.0,-46.69606,-18.50654,-15.0115,9.3,1.63,1.64,2.0
1758076510.29249,1758076510.30677,0.0,0.0,0.0,-48.8733,-32.83048,-17.13144,9.24,1.83,1.46,2.0
1758076510.29343,1758076510.31677,0.0,0.0,0.0,-48.9306,-39.4195,-17.13144,8.88,1.47,1.03,2.0
1758076510.30928,1758076510.32677,0.0,0.0,0.0,-48.70141,-43.60209,-15.46986,8.88,1.47,1.03,2.0
1758076510.31187,1758076510.33677,0.0,0.0,0.0,-48.12846,-44.748,-13.06344,9.38,1.14,0.48,2.0
1758076510.32829,1758076510.34677,0.0,0.0,0.0,-47.09713,-44.63341,-10.71431,9.38,1.14,0.48,2.0
1758076510.34451,1758076510.35677,0.0,0.0,0.0,-47.49821,-36.7266,-7.33386,9.7,0.74,0.76,2.0
1758076510.34544,1758076510.36677,0.0,0.0,0.0,-47.49821,-14.49583,-5.21392,9.7,0.74,0.76,2.0
1758076510.36029,1758076510.37677,0.0,0.0,0.0,-49.84733,-18.9649,-3.09397,11.27,0.74,1.1,2.0
1758076510.36145,1758076510.38677,0.0,0.0,0.0,-52.02457,-29.33544,-4.0107,8.57,1.07,1.8,2.0
1758076510.37627,1758076510.39677,0.0,0.0,0.0,-53.74345,-34.89313,-5.90147,8.57,1.07,1.8,2.0
1758076510.38156,1758076510.40677,0.0,0.0,0.0,-53.80074,-39.3622,-8.36518,10.43,1.06,2.31,2.0
1758076510.39832,1758076510.41677,0.0,0.0,0.0,-51.6235,-35.58068,-14.09476,10.43,1.06,2.31,2.0
1758076510.41449,1758076510.42677,0.0,0.0,0.0,-48.70141,-28.41871,-18.85031,12.99,0.51,3.21,2.0
1758076510.41591,1758076510.43677,0.0,0.0,0.0,-43.25832,-19.59516,-21.42862,12.99,0.51,3.21,2.0
1758076510.43053,1758076510.44677,0.0,0.0,0.0,-36.7266,-11.97482,-21.60051,13.78,-0.37,3.48,2.0
1758076510.43178,1758076510.45677,0.0,0.0,0.0,-25.89769,-4.69825,-17.99088,11.63,-1.08,2.52,2.0
1758076510.44626,1758076510.46677,0.0,0.0,0.0,-19.07949,-4.81285,-12.89155,11.63,-1.08,2.52,2.0
1758076510.46266,1758076510.47677,0.0,0.0,0.0,-13.34992,-8.30789,-6.8182,9.06,-1.45,1.33,2.0
1758076510.46349,1758076510.48677,0.0,0.0,0.0,-8.59437,-13.86558,-0.40107,9.06,-1.45,1.33,2.0
1758076510.47857,1758076510.49677,0.0,0.0,0.0,-3.95341,-18.10547,7.79223,8.23,-1.28,0.98,2.0
1758076510.4945,1758076510.50677,0.0,0.0,0.0,-2.92208,-19.48057,10.8862,8.23,-1.28,0.98,2.0
1758076510.49543,1758076510.51677,0.0,0.0,0.0,-3.38045,-21.37133,12.14671,8.8,-0.6,1.25,2.0
1758076510.51065,1758076510.52677,0.0,0.0,0.0,-4.81285,-23.54857,11.28727,8.8,-0.6,1.25,2.0
1758076510.51182,1758076510.53677,0.0,0.0,0.0,-9.05273,-26.64254,7.39116,9.15,0.27,1.91,2.0
1758076510.52629,1758076510.54677,0.0,0.0,0.0,-11.86023,-28.13223,4.23989,9.31,0.93,2.38,2.0
1758076510.54229,1758076510.55677,0.0,0.0,0.0,-15.24068,-31.45539,0.80214,9.31,0.93,2.38,2.0
1758076510.54382,1758076510.56677,0.0,0.0,0.0,-20.22541,-34.09099,-3.55234,9.13,1.1,2.91,2.0
1758076510.5586,1758076510.57677,0.0,0.0,0.0,-23.60586,-33.74722,-5.84417,9.13,1.1,2.91,2.0
1758076510.57454,1758076510.58677,0.0,0.0,0.0,-26.81443,-32.37212,-7.39116,9.56,0.78,3.13,2.0
1758076510.57552,1758076510.59677,0.0,0.0,0.0,-30.25217,-29.9084,-8.59437,9.56,0.78,3.13,2.0
1758076510.59034,1758076510.60677,0.0,0.0,0.0,-35.12231,-24.63719,-9.62569,10.03,0.23,3.2,2.0
1758076510.59154,1758076510.61677,0.0,0.0,0.0,-37.52874,-21.02755,-9.68299,10.22,-0.29,2.78,2.0
1758076510.60656,1758076510.62677,0.0,0.0,0.0,-39.01843,-15.75634,-9.62569,10.22,-0.29,2.78,2.0
1758076510.62236,1758076510.63677,0.0,0.0,0.0,-39.53409,-8.93814,-9.33921,10.59,-0.75,2.24,2.0
1758076510.62464,1758076510.64677,0.0,0.0,0.0,-38.73195,3.20856,-8.88085,10.59,-0.75,2.24,2.0
1758076510.63962,1758076510.65677,0.0,0.0,0.0,-36.84119,12.37589,-7.96411,11.0,-1.06,1.78,2.0
1758076510.64054,1758076510.66677,0.0,0.0,0.0,-34.32018,22.00158,-6.7609,11.0,-1.06,1.78,2.0
1758076510.65661,1758076510.67677,0.0,0.0,0.0,-31.45539,30.48136,-5.15662,11.22,-1.18,1.66,2.0
1758076510.67237,1758076510.68677,0.0,0.0,0.0,-27.10091,36.61201,-1.83346,10.67,-1.11,1.61,2.0
1758076510.67358,1758076510.69677,0.0,0.0,0.0,-24.80907,36.61201,-0.11459,10.67,-1.11,1.61,2.0
1758076510.68849,1758076510.70677,0.0,0.0,0.0,-23.54857,36.89849,1.08862,10.15,-0.91,1.6,2.0
1758076510.70433,1758076510.71677,0.0,0.0,0.0,-23.20479,38.15899,1.94806,10.15,-0.91,1.6,2.0
1758076510.70559,1758076510.72677,0.0,0.0,0.0,-23.60586,40.85189,2.23454,10.03,-0.65,1.62,2.0
1758076510.72038,1758076510.73677,0.0,0.0,0.0,-23.83505,41.08107,1.77617,10.03,-0.65,1.62,2.0
1758076510.72159,1758076510.74677,0.0,0.0,0.0,-24.12152,40.39353,1.3178,9.5,-0.47,1.72,2.0
1758076510.73663,1758076510.75677,0.0,0.0,0.0,-23.94964,40.04975,0.57296,9.5,-0.47,1.72,2.0
1758076510.75263,1758076510.76677,0.0,0.0,0.0,-22.57454,39.70598,0.45837,9.37,-0.48,1.55,2.0
1758076510.75467,1758076510.77677,0.0,0.0,0.0,-21.7151,39.3622,0.40107,9.36,-0.61,1.24,2.0
1758076510.77045,1758076510.78677,0.0,0.0,0.0,-20.51189,39.70598,0.34377,9.36,-0.61,1.24,2.0
1758076510.77136,1758076510.79677,0.0,0.0,0.0,-19.36597,37.52874,-0.45837,9.35,-0.69,1.23,2.0
1758076510.78669,1758076510.80677,0.0,0.0,0.0,-18.22006,35.98175,-1.43239,9.35,-0.69,1.23,2.0
1758076510.80319,1758076510.81677,0.0,0.0,0.0,-16.90226,34.49206,-2.6929,9.24,-0.69,1.14,2.0
1758076510.80544,1758076510.82677,0.0,0.0,0.0,-15.35527,32.83048,-3.83882,9.24,-0.69,1.14,2.0
1758076510.82121,1758076510.83677,0.0,0.0,0.0,-12.08941,28.59059,-4.87014,9.27,-0.73,1.02,2.0
1758076510.82645,1758076510.84677,0.0,0.0,0.0,-9.4538,23.89234,-5.15662,9.18,-0.9,0.94,2.0
1758076510.84162,1758076510.85677,0.0,0.0,0.0,-6.7609,20.16812,-5.09932,9.18,-0.9,0.94,2.0
1758076510.84385,1758076510.86677,0.0,0.0,0.0,-3.55234,19.82434,-4.52637,9.54,-1.18,0.68,2.0
1758076510.85844,1758076510.87677,0.0,0.0,0.0,1.03132,24.17882,-3.89611,9.54,-1.18,0.68,2.0
1758076510.86042,1758076510.88677,0.0,0.0,0.0,4.18259,26.69983,-3.95341,10.0,-1.4,0.66,2.0
1758076510.87638,1758076510.89677,0.0,0.0,0.0,7.04738,27.61657,-3.95341,10.0,-1.4,0.66,2.0
1758076510.8924,1758076510.90677,0.0,0.0,0.0,9.62569,27.67386,-4.0107,9.81,-1.41,1.18,2.0
1758076510.89445,1758076510.91677,0.0,0.0,0.0,12.43318,26.35606,-4.18259,9.65,-1.25,1.18,2.0
1758076510.90943,1758076510.92677,0.0,0.0,0.0,13.69369,25.38203,-3.95341,9.65,-1.25,1.18,2.0
1758076510.91062,1758076510.93677,0.0,0.0,0.0,14.61043,23.72045,-3.32316,9.48,-1.04,1.38,2.0
1758076510.92668,1758076510.94677,0.0,0.0,0.0,15.0115,19.53786,-2.46372,9.48,-1.04,1.38,2.0
1758076510.94421,1758076510.95677,0.0,0.0,0.0,15.12609,8.93814,-0.51566,8.92,-0.86,1.7,2.0
1758076510.94594,1758076510.96677,0.0,0.0,0.0,15.46986,1.83346,1.08862,8.92,-0.86,1.7,2.0
1758076510.96165,1758076510.97677,0.0,0.0,0.0,16.272,-3.83882,3.26586,8.85,-0.76,1.62,2.0
1758076510.96262,1758076510.98677,0.0,0.0,0.0,18.27736,-12.77696,5.95876,8.85,-0.76,1.62,2.0
1758076510.97764,1758076510.99677,0.0,0.0,0.0,20.34,-17.24603,7.62034,8.83,-0.9,1.45,2.0
1758076510.98138,1758076511.00677,0.0,0.0,0.0,22.63183,-19.76705,8.70896,9.1,-1.15,1.34,2.0
1758076510.99782,1758076511.01677,0.0,0.0,0.0,25.15285,-22.05888,9.28192,9.1,-1.15,1.34,2.0
1758076511.01355,1758076511.02677,0.0,0.0,0.0,27.78845,-32.77319,10.54242,9.21,-1.33,1.95,2.0
1758076511.01568,1758076511.03677,0.0,0.0,0.0,27.84575,-44.17505,11.34457,9.21,-1.33,1.95,2.0
1758076511.03067,1758076511.04677,0.0,0.0,0.0,26.52795,-54.3737,13.69369,9.58,-1.01,3.24,2.0
1758076511.03163,1758076511.05677,0.0,0.0,0.0,23.37668,-59.01466,15.46986,9.58,-1.01,3.24,2.0
1758076511.04671,1758076511.06677,0.0,0.0,0.0,18.56383,-36.38282,21.6578,11.98,-0.12,3.76,2.0
1758076511.06532,1758076511.07677,0.0,0.0,0.0,15.06879,-19.59516,23.83505,14.46,0.59,4.27,2.0
1758076511.06685,1758076511.08677,0.0,0.0,0.0,9.91217,-10.37054,22.86102,14.46,0.59,4.27,2.0
1758076511.08167,1758076511.09677,0.0,0.0,0.0,5.21392,-6.07335,18.62113,12.08,1.12,4.28,2.0
1758076511.08265,1758076511.10677,0.0,0.0,0.0,1.03132,-11.57375,8.25059,12.08,1.12,4.28,2.0
1758076511.09774,1758076511.11677,0.0,0.0,0.0,1.48969,-31.51268,4.87014,9.11,1.12,2.45,2.0
1758076511.11372,1758076511.12677,0.0,0.0,0.0,1.3751,-43.25832,-0.51566,9.11,1.12,2.45,2.0
1758076511.11558,1758076511.13677,0.0,0.0,0.0,4.87014,-47.78468,0.68755,8.45,0.53,1.57,2.0
1758076511.13074,1758076511.14677,0.0,0.0,0.0,8.36518,-38.21629,-1.03132,10.7,-0.35,1.89,2.0
1758076511.13166,1758076511.15677,0.0,0.0,0.0,10.37054,-32.37212,-0.85944,10.7,-0.35,1.89,2.0
1758076511.14651,1758076511.16677,0.0,0.0,0.0,11.86023,-28.64789,-0.40107,10.62,-0.59,2.48,2.0
1758076511.16554,1758076511.17677,0.0,0.0,0.0,12.60507,-24.86637,0.85944,10.62,-0.59,2.48,2.0
1758076511.16649,1758076511.18677,0.0,0.0,0.0,12.54778,-22.23076,1.83346,10.12,-0.4,2.84,2.0
1758076511.1818,1758076511.19677,0.0,0.0,0.0,12.37589,-21.88699,2.7502,10.12,-0.4,2.84,2.0
1758076511.18589,1758076511.20677,0.0,0.0,0.0,11.91752,-20.45459,3.66693,9.08,0.05,2.28,2.0
1758076511.20149,1758076511.21677,0.0,0.0,0.0,12.43318,-17.18874,5.09932,9.08,0.05,2.28,2.0
1758076511.20508,1758076511.22677,0.0,0.0,0.0,13.34992,-14.9542,6.07335,8.87,0.41,2.37,2.0
1758076511.22052,1758076511.23677,0.0,0.0,0.0,14.61043,-12.60507,7.10468,8.92,0.56,2.64,2.0
1758076511.22649,1758076511.24677,0.0,0.0,0.0,16.55848,-9.96947,8.0787,8.92,0.56,2.64,2.0
1758076511.24159,1758076511.25677,0.0,0.0,0.0,19.53786,-4.52637,8.59437,9.13,0.6,2.86,2.0
1758076511.24507,1758076511.26677,0.0,0.0,0.0,22.00158,-0.97403,9.05273,9.13,0.6,2.86,2.0
1758076511.26056,1758076511.27677,0.0,0.0,0.0,23.94964,3.72423,8.76626,9.41,0.67,2.69,2.0
1758076511.26276,1758076511.28677,0.0,0.0,0.0,25.55392,9.33921,8.136,9.41,0.67,2.69,2.0
1758076511.2783,1758076511.29677,0.0,0.0,0.0,26.41335,19.36597,6.53172,9.96,0.87,2.42,2.0
1758076511.29449,1758076511.30677,0.0,0.0,0.0,26.47065,27.1582,5.15662,10.51,1.24,2.05,2.0
1758076511.29571,1758076511.31677,0.0,0.0,0.0,25.72581,34.49206,3.60963,10.51,1.24,2.05,2.0
1758076511.31163,1758076511.32677,0.0,0.0,0.0,24.35071,38.90384,2.57831,10.66,1.38,2.05,2.0
1758076511.33785,1758076511.33677,0.0,0.0,0.0,22.51724,42.68536,1.77617,10.66,1.38,2.05,2.0
1758076511.33849,1758076511.34677,0.0,0.0,0.0,21.48592,44.8053,1.66158,10.41,1.37,1.89,2.0
1758076511.34048,1758076511.35677,0.0,0.0,0.0,20.85567,46.1231,1.71887,10.41,1.37,1.89,2.0
1758076511.34113,1758076511.36677,0.0,0.0,0.0,20.45459,46.81066,2.7502,10.33,1.12,2.05,2.0
1758076511.35688,1758076511.37677,0.0,0.0,0.0,20.51189,45.43555,3.95341,9.81,0.91,1.92,2.0
1758076511.37365,1758076511.38677,0.0,0.0,0.0,20.68378,43.25832,4.29718,9.81,0.91,1.92,2.0
1758076511.37557,1758076511.39677,0.0,0.0,0.0,20.74107,40.16434,4.92744,9.44,0.7,2.16,2.0
1758076511.39078,1758076511.40677,0.0,0.0,0.0,20.22541,33.63263,5.27121,9.44,0.7,2.16,2.0
1758076511.39204,1758076511.41677,0.0,0.0,0.0,19.19409,28.36141,4.46907,8.97,0.85,2.01,2.0
1758076511.40659,1758076511.42677,0.0,0.0,0.0,17.30333,24.35071,3.60963,8.97,0.85,2.01,2.0
1758076511.42521,1758076511.43677,0.0,0.0,0.0,14.9542,21.48592,2.23454,8.9,1.18,1.95,2.0
1758076511.42676,1758076511.44677,0.0,0.0,0.0,10.8862,19.36597,0.0,8.9,1.18,1.99,2.0
1758076511.44162,1758076511.45677,0.0,0.0,0.0,8.02141,19.42327,-1.48969,9.04,1.59,1.99,2.0
1758076511.4452,1758076511.46677,0.0,0.0,0.0,5.09932,20.22541,-2.97938,9.17,1.84,2.13,2.0
1758076511.46084,1758076511.47677,0.0,0.0,0.0,2.86479,19.82434,-3.60963,9.17,1.84,2.13,2.0
1758076511.46586,1758076511.48677,0.0,0.0,0.0,0.11459,18.73572,-3.38045,8.97,1.75,2.02,2.0
1758076511.48166,1758076511.49677,0.0,0.0,0.0,-0.97403,18.56383,-2.46372,8.97,1.75,2.02,2.0
1758076511.48255,1758076511.50677,0.0,0.0,0.0,-1.71887,18.27736,-1.20321,9.01,1.4,1.84,2.0
1758076511.49834,1758076511.51677,0.0,0.0,0.0,-2.23454,18.73572,-0.0573,9.01,1.4,1.84,2.0
1758076511.51456,1758076511.52677,0.0,0.0,0.0,-2.57831,17.76169,2.00535,9.11,1.06,1.69,2.0
1758076511.51607,1758076511.53677,0.0,0.0,0.0,-2.6929,17.87628,3.20856,9.25,0.88,1.6,2.0
1758076511.53082,1758076511.54677,0.0,0.0,0.0,-3.09397,20.68378,3.83882,9.25,0.88,1.6,2.0
1758076511.53204,1758076511.55677,0.0,0.0,0.0,-3.55234,24.80907,4.29718,9.76,0.8,1.45,2.0
1758076511.54898,1758076511.56677,0.0,0.0,0.0,-3.95341,29.56462,5.27121,9.76,0.8,1.45,2.0
1758076511.55095,1758076511.57677,0.0,0.0,0.0,-4.29718,30.25217,6.24524,9.64,0.74,1.46,2.0
1758076511.56691,1758076511.58677,0.0,0.0,0.0,-4.64096,29.33544,7.21927,9.64,0.74,1.46,2.0
1758076511.58549,1758076511.59677,0.0,0.0,0.0,-5.15662,27.33009,8.88085,9.32,0.68,1.55,2.0
1758076511.58645,1758076511.60677,0.0,0.0,0.0,-5.55769,23.60586,9.4538,9.12,0.77,1.53,2.0
1758076511.60188,1758076511.61677,0.0,0.0,0.0,-6.24524,16.90226,9.4538,9.12,0.77,1.53,2.0
1758076511.60283,1758076511.62677,0.0,0.0,0.0,-7.44845,8.25059,8.70896,8.68,1.03,1.67,2.0
1758076511.6203,1758076511.63677,0.0,0.0,0.0,-9.91217,-5.55769,6.87549,8.68,1.03,1.67,2.0
1758076511.62122,1758076511.64677,0.0,0.0,0.0,-12.43318,-14.32395,4.64096,8.75,1.36,1.53,2.0
1758076511.63691,1758076511.65677,0.0,0.0,0.0,-15.35527,-20.05352,2.40642,8.75,1.36,1.53,2.0
1758076511.65347,1758076511.66677,0.0,0.0,0.0,-18.85031,-23.72045,0.22918,9.04,1.64,1.41,2.0
1758076511.65465,1758076511.67677,0.0,0.0,0.0,-24.57989,-30.59595,-2.29183,8.87,1.82,1.45,2.0
1758076511.66993,1758076511.68677,0.0,0.0,0.0,-28.07493,-39.64868,-2.7502,8.87,1.82,1.45,2.0
1758076511.6709,1758076511.69677,0.0,0.0,0.0,-30.48136,-52.42564,-2.6929,8.39,1.59,2.1,2.0
1758076511.68667,1758076511.70677,0.0,0.0,0.0,-31.11161,-65.2599,-4.18259,8.39,1.59,2.1,2.0
1758076511.70555,1758076511.71677,0.0,0.0,0.0,-29.56462,-83.02158,-6.7609,9.84,0.96,3.2,2.0
1758076511.70647,1758076511.72677,0.0,0.0,0.0,-27.50197,-91.15759,-10.02676,9.84,0.96,3.2,2.0
1758076511.72275,1758076511.73677,0.0,0.0,0.0,-24.63719,-91.44406,-12.14671,12.04,-0.08,3.71,2.0
1758076511.72558,1758076511.74677,0.0,0.0,0.0,-21.31403,-78.89629,-13.98017,12.04,-0.08,3.71,2.0
1758076511.741,1758076511.75677,0.0,0.0,0.0,-16.67307,-50.76406,-13.75099,14.31,-0.68,3.65,2.0
1758076511.74593,1758076511.76677,0.0,0.0,0.0,-12.83425,-50.363,-8.70896,11.7,-1.01,3.46,2.0
1758076511.76092,1758076511.77677,0.0,0.0,0.0,-10.8289,-71.50513,-4.52637,11.7,-1.01,3.46,2.0
1758076511.76189,1758076511.78677,0.0,0.0,0.0,-10.94349,-86.975,2.23454,7.38,-0.93,2.73,2.0
1758076511.77692,1758076511.79677,0.0,0.0,0.0,-12.204,-88.40739,4.98473,7.38,-0.93,2.73,2.0
1758076511.79271,1758076511.80677,0.0,0.0,0.0,-13.34992,-80.78706,7.33386,9.67,-0.41,1.02,2.0
1758076511.79452,1758076511.81677,0.0,0.0,0.0,-14.72501,-73.51049,6.8182,9.67,-0.41,1.02,2.0
1758076511.80892,1758076511.82677,0.0,0.0,0.0,-16.04282,-67.15066,3.95341,10.57,0.09,2.8,2.0
1758076511.82574,1758076511.83677,0.0,0.0,0.0,-16.3293,-63.65561,1.20321,9.89,0.04,3.28,2.0
1758076511.82743,1758076511.84677,0.0,0.0,0.0,-16.38659,-57.63955,-1.20321,9.89,0.04,3.28,2.0
1758076511.84377,1758076511.85677,0.0,0.0,0.0,-16.84496,-50.1911,-3.83882,9.66,-0.3,2.61,2.0
1758076511.84575,1758076511.86677,0.0,0.0,0.0,-18.73572,-37.35685,-7.10468,9.66,-0.3,2.61,2.0
1758076511.86192,1758076511.87677,0.0,0.0,0.0,-20.16812,-28.13223,-8.70896,9.67,-0.76,2.08,2.0
1758076511.86526,1758076511.88677,0.0,0.0,0.0,-21.42862,-18.50654,-9.5684,9.67,-0.76,2.08,2.0
1758076511.88148,1758076511.89677,0.0,0.0,0.0,-22.23076,-9.22462,-9.28192,10.22,-1.02,1.67,2.0
1758076511.8907,1758076511.90677,0.0,0.0,0.0,-21.7151,5.50039,-8.02141,11.01,-1.17,1.6,2.0
1758076511.89135,1758076511.91677,0.0,0.0,0.0,-20.34,15.35527,-6.8182,11.01,-1.17,1.6,2.0
1758076511.911,1758076511.92677,0.0,0.0,0.0,-18.44924,24.63719,-5.4431,11.54,-1.28,1.42,2.0
1758076511.91191,1758076511.93677,0.0,0.0,0.0,-15.92823,34.26288,-3.60963,11.54,-1.28,1.42,2.0
1758076511.92695,1758076511.94677,0.0,0.0,0.0,-12.37589,44.17505,-0.34377,11.56,-1.3,1.47,2.0
1758076511.94275,1758076511.95677,0.0,0.0,0.0,-10.54242,45.43555,1.3751,11.56,-1.3,1.47,2.0
1758076511.9455,1758076511.96677,0.0,0.0,0.0,-9.68299,45.83662,2.57831,10.59,-1.17,1.53,2.0
1758076511.96081,1758076511.97677,0.0,0.0,0.0,-9.5684,47.09713,3.03668,10.59,-1.17,1.53,2.0
1758076511.96191,1758076511.98677,0.0,0.0,0.0,-10.08406,46.86795,2.7502,10.31,-0.93,1.63,2.0
1758076511.97693,1758076511.99677,0.0,0.0,0.0,-10.8862,45.26366,1.94806,9.66,-0.65,1.68,2.0
1758076511.99278,1758076512.00677,0.0,0.0,0.0,-12.08941,43.83128,0.22918,9.66,-0.65,1.68,2.0
1758076511.99394,1758076512.01677,0.0,0.0,0.0,-13.5791,41.25296,-2.34913,9.32,-0.41,1.78,2.0
1758076512.00905,1758076512.02677,0.0,0.0,0.0,-14.49583,37.75792,-3.95341,9.32,-0.41,1.78,2.0
1758076512.02586,1758076512.03677,0.0,0.0,0.0,-14.78231,32.20023,-4.52637,8.94,-0.33,1.77,2.0
1758076512.02782,1758076512.04677,0.0,0.0,0.0,-14.49583,28.36141,-4.92744,8.94,-0.33,1.77,2.0
1758076512.04275,1758076512.05677,0.0,0.0,0.0,-13.34992,23.0329,-4.29718,8.83,-0.45,1.69,2.0
1758076512.0443,1758076512.06677,0.0,0.0,0.0,-12.14671,20.68378,-3.83882,8.74,-0.72,1.48,2.0
1758076512.05884,1758076512.07677,0.0,0.0,0.0,-10.71431,18.44924,-3.20856,8.74,-0.72,1.48,2.0
1758076512.06075,1758076512.08677,0.0,0.0,0.0,-9.11003,16.10011,-2.6929,8.62,-1.03,1.47,2.0
1758076512.07704,1758076512.09677,0.0,0.0,0.0,-6.53172,13.40721,-2.23454,8.62,-1.03,1.47,2.0
1758076512.09372,1758076512.10677,0.0,0.0,0.0,-4.64096,11.17268,-2.23454,8.79,-1.28,1.32,2.0
1758076512.09497,1758076512.11677,0.0,0.0,0.0,-2.97938,9.22462,-2.00535,8.79,-1.28,1.32,2.0
1758076512.10975,1758076512.12677,0.0,0.0,0.0,-1.60428,6.87549,-2.11994,9.05,-1.36,1.07,2.0
1758076512.11097,1758076512.13677,0.0,0.0,0.0,0.0,5.27121,-2.63561,9.57,-1.24,0.95,2.0
1758076512.12785,1758076512.14677,0.0,0.0,0.0,0.40107,6.99009,-3.32316,9.57,-1.24,0.95,2.0
1758076512.13116,1758076512.15677,0.0,0.0,0.0,0.57296,11.22997,-4.29718,10.34,-0.91,0.98,2.0
1758076512.14709,1758076512.16677,0.0,0.0,0.0,0.74485,14.83961,-4.87014,10.34,-0.91,0.98,2.0
1758076512.16305,1758076512.17677,0.0,0.0,0.0,0.22918,16.90226,-6.24524,10.31,-0.61,1.17,2.0
1758076512.16632,1758076512.18677,0.0,0.0,0.0,-0.0573,19.07949,-7.21927,10.31,-0.61,1.17,2.0
1758076512.18284,1758076512.19677,0.0,0.0,0.0,-0.22918,21.37133,-7.73493,10.29,-0.48,1.25,2.0
1758076512.18612,1758076512.20677,0.0,0.0,0.0,-0.0573,22.74642,-8.136,10.29,-0.48,1.25,2.0
1758076512.20283,1758076512.21677,0.0,0.0,0.0,0.17189,23.54857,-7.84952,10.09,-0.57,1.28,2.0
1758076512.20461,1758076512.22677,0.0,0.0,0.0,0.74485,22.57454,-7.50575,9.83,-0.75,1.57,2.0
1758076512.22011,1758076512.23677,0.0,0.0,0.0,1.3178,20.51189,-6.87549,9.83,-0.75,1.57,2.0
1758076512.22124,1758076512.24677,0.0,0.0,0.0,2.6929,15.46986,-5.90147,9.57,-1.01,1.75,2.0
1758076512.2368,1758076512.25677,0.0,0.0,0.0,4.23989,11.45916,-4.87014,9.57,-1.01,1.75,2.0
1758076512.25361,1758076512.26677,0.0,0.0,0.0,6.41713,6.99009,-3.55234,9.36,-1.34,1.72,2.0
1758076512.2548,1758076512.27677,0.0,0.0,0.0,8.93814,2.92208,-2.29183,9.36,-1.34,1.72,2.0
1758076512.26981,1758076512.28677,0.0,0.0,0.0,13.34992,-2.40642,0.0,9.22,-1.69,1.51,2.0
1758076512.27133,1758076512.29677,0.0,0.0,0.0,16.67307,-6.18794,1.60428,9.13,-1.94,1.42,2.0
1758076512.28792,1758076512.30677,0.0,0.0,0.0,20.16812,-8.59437,2.6929,9.13,-1.94,1.42,2.0
1758076512.2915,1758076512.31677,0.0,0.0,0.0,23.66316,-10.59972,3.72423,9.4,-1.97,1.43,2.0
1758076512.30945,1758076512.32677,0.0,0.0,0.0,27.73116,-21.14215,5.09932,9.4,-1.97,1.43,2.0
1758076512.32566,1758076512.33677,0.0,0.0,0.0,28.36141,-30.13758,6.24524,9.42,-1.74,2.13,2.0
1758076512.3288,1758076512.34677,0.0,0.0,0.0,28.41871,-36.6693,8.02141,9.42,-1.74,2.13,2.0
1758076512.33126,1758076512.35677,0.0,0.0,0.0,26.12688,-33.11696,8.99544,11.28,-1.1,3.3,2.0
1758076512.34713,1758076512.36677,0.0,0.0,0.0,23.31938,-7.16197,15.0115,15.14,-0.1,3.89,2.0
1758076512.36283,1758076512.37677,0.0,0.0,0.0,20.3973,7.73493,16.50119,15.14,-0.1,3.89,2.0
1758076512.36404,1758076512.38677,0.0,0.0,0.0,16.38659,11.17268,13.34992,13.34,0.82,3.93,2.0
1758076512.37916,1758076512.39677,0.0,0.0,0.0,14.38124,4.18259,6.07335,13.34,0.82,3.93,2.0
1758076512.38092,1758076512.40677,0.0,0.0,0.0,12.71966,-31.28349,3.83882,8.38,1.01,2.12,2.0
1758076512.39689,1758076512.41677,0.0,0.0,0.0,12.08941,-42.91454,2.6929,8.38,1.01,2.12,2.0
1758076512.41294,1758076512.42677,0.0,0.0,0.0,11.51645,-41.31026,3.26586,8.18,0.51,0.45,2.0
1758076512.41408,1758076512.43677,0.0,0.0,0.0,11.34457,-31.11161,0.74485,8.18,0.51,0.45,2.0
1758076512.42921,1758076512.44677,0.0,0.0,0.0,12.71966,-26.18417,-1.3751,9.41,0.12,0.75,2.0
1758076512.44578,1758076512.45677,0.0,0.0,0.0,14.61043,-22.97561,-2.7502,9.07,-0.02,1.85,2.0
1758076512.44646,1758076512.46677,0.0,0.0,0.0,15.12609,-20.68378,-3.66693,9.07,-0.02,1.85,2.0
1758076512.46189,1758076512.47677,0.0,0.0,0.0,13.5218,-16.272,-2.92208,9.56,-0.16,2.48,2.0
1758076512.46632,1758076512.48677,0.0,0.0,0.0,11.74564,-14.09476,-1.43239,9.56,-0.16,2.48,2.0
1758076512.48199,1758076512.49677,0.0,0.0,0.0,9.91217,-13.80828,0.45837,9.52,-0.28,2.85,2.0
1758076512.48628,1758076512.50677,0.0,0.0,0.0,7.96411,-14.20935,2.23454,9.52,-0.28,2.85,2.0
1758076512.50198,1758076512.51677,0.0,0.0,0.0,5.72958,-13.17803,4.92744,8.78,0.03,2.23,2.0
1758076512.50387,1758076512.52677,0.0,0.0,0.0,4.92744,-12.2613,6.99009,9.05,0.36,2.45,2.0
1758076512.51898,1758076512.53677,0.0,0.0,0.0,4.46907,-11.28727,8.0787,9.05,0.36,2.45,2.0
1758076512.53498,1758076512.54677,0.0,0.0,0.0,4.52637,-10.25595,9.11003,9.47,0.69,2.75,2.0
1758076512.53565,1758076512.55677,0.0,0.0,0.0,5.55769,-7.16197,8.88085,9.47,0.69,2.75,2.0
1758076512.5513,1758076512.56677,0.0,0.0,0.0,6.87549,-4.98473,7.84952,9.82,0.93,2.86,2.0
1758076512.55458,1758076512.57677,0.0,0.0,0.0,8.02141,-1.71887,5.72958,9.82,0.93,2.86,2.0
1758076512.57031,1758076512.58677,0.0,0.0,0.0,9.39651,1.14592,3.49504,9.87,1.04,2.71,2.0
1758076512.57113,1758076512.59677,0.0,0.0,0.0,11.17268,7.33386,-0.11459,9.88,1.02,2.52,2.0
1758076512.58726,1758076512.60677,0.0,0.0,0.0,11.91752,12.08941,-2.11994,9.88,1.02,2.52,2.0
1758076512.60321,1758076512.61677,0.0,0.0,0.0,12.2613,17.93358,-3.26586,10.2,0.95,2.23,2.0
1758076512.60578,1758076512.62677,0.0,0.0,0.0,11.80293,24.29341,-4.1253,10.2,0.95,2.23,2.0
1758076512.62194,1758076512.63677,0.0,0.0,0.0,11.22997,32.77319,-4.0107,10.41,0.86,2.11,2.0
1758076512.62693,1758076512.64677,0.0,0.0,0.0,10.71431,36.15364,-3.38045,10.41,0.86,2.11,2.0
1758076512.64192,1758076512.65677,0.0,0.0,0.0,10.37054,38.21629,-2.92208,10.22,0.84,2.03,2.0
1758076512.64429,1758076512.66677,0.0,0.0,0.0,10.65701,39.53409,-1.71887,10.22,0.84,2.03,2.0
1758076512.66322,1758076512.67677,0.0,0.0,0.0,10.71431,39.4195,-1.14592,10.26,0.75,2.2,2.0
1758076512.66653,1758076512.68677,0.0,0.0,0.0,10.71431,37.64333,-0.34377,9.87,0.61,2.07,2.0
1758076512.68305,1758076512.69677,0.0,0.0,0.0,10.94349,33.63263,0.45837,9.87,0.61,2.07,2.0
1758076512.68441,1758076512.70677,0.0,0.0,0.0,10.94349,27.84575,-0.17189,9.4,0.58,2.13,2.0
1758076512.70006,1758076512.71677,0.0,0.0,0.0,10.65701,25.21014,-0.68755,9.4,0.58,2.13,2.0
1758076512.70177,1758076512.72677,0.0,0.0,0.0,9.74028,21.42862,-1.71887,9.41,0.73,2.06,2.0
1758076512.71887,1758076512.73677,0.0,0.0,0.0,8.30789,16.61578,-3.38045,9.41,0.73,2.06,2.0
1758076512.73391,1758076512.74677,0.0,0.0,0.0,5.15662,10.8862,-6.18794,9.1,1.12,2.05,2.0
1758076512.73453,1758076512.75677,0.0,0.0,0.0,2.63561,8.42248,-7.73493,9.24,1.47,1.87,2.0
1758076512.75,1758076512.76677,0.0,0.0,0.0,0.45837,7.33386,-9.22462,9.24,1.47,1.87,2.0
1758076512.75576,1758076512.77677,0.0,0.0,0.0,-1.83346,7.33386,-10.48513,9.43,1.65,1.87,2.0
1758076512.77008,1758076512.78677,0.0,0.0,0.0,-4.81285,7.44845,-11.22997,9.43,1.65,1.87,2.0
1758076512.7712,1758076512.79677,0.0,0.0,0.0,-6.53172,7.96411,-11.34457,9.4,1.55,1.81,2.0
1758076512.78605,1758076512.80677,0.0,0.0,0.0,-8.02141,7.96411,-10.94349,9.4,1.55,1.81,2.0
1758076512.79195,1758076512.81677,0.0,0.0,0.0,-9.11003,7.50575,-9.96947,9.4,1.23,1.74,2.0
1758076512.81007,1758076512.82677,0.0,0.0,0.0,-10.02676,7.73493,-8.47978,9.47,0.84,1.57,2.0
1758076512.81122,1758076512.83677,0.0,0.0,0.0,-10.08406,8.30789,-6.99009,9.47,0.84,1.57,2.0
1758076512.82602,1758076512.84677,0.0,0.0,0.0,-10.02676,8.47978,-5.78687,9.63,0.55,1.49,2.0
1758076512.84305,1758076512.85677,0.0,0.0,0.0,-10.08406,10.37054,-5.09932,9.63,0.55,1.49,2.0
1758076512.84534,1758076512.86677,0.0,0.0,0.0,-10.02676,13.00614,-4.58366,9.7,0.41,1.28,2.0
1758076512.86016,1758076512.87677,0.0,0.0,0.0,-10.08406,16.3293,-4.0107,9.7,0.41,1.28,2.0
1758076512.86123,1758076512.88677,0.0,0.0,0.0,-10.19865,19.53786,-3.38045,9.72,0.38,1.19,2.0
1758076512.8761,1758076512.89677,0.0,0.0,0.0,-10.54242,23.26209,-2.34913,9.56,0.38,1.35,2.0
1758076512.89441,1758076512.90677,0.0,0.0,0.0,-10.8862,24.29341,-1.66158,9.56,0.45,1.35,2.0
1758076512.89637,1758076512.91677,0.0,0.0,0.0,-11.34457,24.4653,-1.14592,9.4,0.62,1.42,2.0
1758076512.91229,1758076512.92677,0.0,0.0,0.0,-11.86023,24.12152,-0.45837,9.4,0.62,1.42,2.0
1758076512.91349,1758076512.93677,0.0,0.0,0.0,-12.83425,20.45459,0.40107,9.4,0.73,1.57,2.0
1758076512.9283,1758076512.94677,0.0,0.0,0.0,-13.86558,14.61043,0.74485,9.4,0.73,1.57,2.0
1758076512.93174,1758076512.95677,0.0,0.0,0.0,-15.12609,7.79223,0.51566,9.11,0.8,1.63,2.0
1758076512.94811,1758076512.96677,0.0,0.0,0.0,-16.61578,0.57296,0.0,9.11,0.8,1.63,2.0
1758076512.95,1758076512.97677,0.0,0.0,0.0,-19.88164,-8.93814,-2.00535,9.2,0.84,1.4,2.0
1758076512.9656,1758076512.98677,0.0,0.0,0.0,-22.40265,-14.38124,-3.83882,9.31,1.03,1.23,2.0
1758076512.98201,1758076512.99677,0.0,0.0,0.0,-24.86637,-19.88164,-5.78687,9.31,1.03,1.23,2.0
1758076512.98324,1758076513.00677,0.0,0.0,0.0,-27.10091,-25.21014,-7.96411,9.22,1.27,1.3,2.0
1758076512.99804,1758076513.01677,0.0,0.0,0.0,-29.8511,-37.52874,-9.96947,9.22,1.27,1.3,2.0
1758076513.00034,1758076513.02677,0.0,0.0,0.0,-31.16891,-47.38361,-10.19865,8.93,1.19,0.98,2.0
1758076513.01575,1758076513.03677,0.0,0.0,0.0,-32.25753,-52.71212,-9.4538,8.93,1.19,0.98,2.0
1758076513.03108,1758076513.04677,0.0,0.0,0.0,-33.23156,-53.97263,-6.7609,9.22,0.94,0.82,2.0
1758076513.0323,1758076513.05677,0.0,0.0,0.0,-33.9764,-52.02457,-4.52637,9.92,0.69,0.67,2.0
1758076513.04824,1758076513.06677,0.0,0.0,0.0,-34.37747,-47.44091,-1.3178,9.92,0.69,0.67,2.0
1758076513.04994,1758076513.07677,0.0,0.0,0.0,-33.86181,-30.48136,-0.68755,11.96,0.72,1.94,2.0
1758076513.06582,1758076513.08677,0.0,0.0,0.0,-32.14294,-2.06265,0.11459,11.96,0.72,1.94,2.0
1758076513.08204,1758076513.09677,0.0,0.0,0.0,-28.41871,-13.5791,0.51566,12.93,0.6,2.79,2.0
1758076513.08313,1758076513.10677,0.0,0.0,0.0,-26.47065,-35.52338,-2.92208,12.93,0.6,2.79,2.0
1758076513.09848,1758076513.11677,0.0,0.0,0.0,-24.75178,-50.363,-8.25059,9.8,0.6,3.27,2.0
1758076513.10091,1758076513.12677,0.0,0.0,0.0,-20.68378,-41.94051,-12.60507,12.44,0.42,1.69,2.0
1758076513.11796,1758076513.13677,0.0,0.0,0.0,-18.44924,-33.11696,-13.00614,12.44,0.42,1.69,2.0
1758076513.12021,1758076513.14677,0.0,0.0,0.0,-16.50119,-27.33009,-10.54242,11.69,-0.18,1.93,2.0
1758076513.13571,1758076513.15677,0.0,0.0,0.0,-13.98017,-22.40265,-5.90147,11.69,-0.18,1.93,2.0
1758076513.1514,1758076513.16677,0.0,0.0,0.0,-10.25595,-19.48057,2.06265,10.23,-0.5,2.26,2.0
1758076513.15235,1758076513.17677,0.0,0.0,0.0,-7.79223,-22.91831,6.53172,10.23,-0.5,2.26,2.0
1758076513.16831,1758076513.18677,0.0,0.0,0.0,-5.15662,-29.73651,9.91217,8.63,-0.49,1.88,2.0
1758076513.16994,1758076513.19677,0.0,0.0,0.0,-2.86479,-36.95578,11.80293,8.63,-0.49,1.88,2.0
1758076513.18805,1758076513.20677,0.0,0.0,0.0,-0.68755,-43.14373,11.57375,8.01,-0.35,1.87,2.0
1758076513.18994,1758076513.21677,0.0,0.0,0.0,-0.85944,-43.54479,9.68299,8.73,-0.06,1.95,2.0
1758076513.2083,1758076513.22677,0.0,0.0,0.0,-2.86479,-43.77398,6.24524,8.73,-0.06,1.95,2.0
1758076513.21263,1758076513.23677,0.0,0.0,0.0,-8.42248,-45.26366,-0.51566,8.78,0.33,2.7,2.0
1758076513.2282,1758076513.24677,0.0,0.0,0.0,-13.46451,-47.89928,-5.09932,8.78,0.33,2.7,2.0
1758076513.23266,1758076513.25677,0.0,0.0,0.0,-18.85031,-48.24305,-9.11003,8.66,0.62,3.08,2.0
1758076513.25051,1758076513.26677,0.0,0.0,0.0,-23.54857,-47.09713,-11.86023,8.66,0.62,3.08,2.0
1758076513.25166,1758076513.27677,0.0,0.0,0.0,-28.99167,-43.37291,-13.69369,9.05,0.51,2.95,2.0
1758076513.26618,1758076513.28677,0.0,0.0,0.0,-31.51268,-36.84119,-13.46451,10.09,0.05,2.45,2.0
1758076513.2706,1758076513.29677,0.0,0.0,0.0,-32.83048,-29.04896,-12.37589,10.09,0.05,2.45,2.0
1758076513.28641,1758076513.30677,0.0,0.0,0.0,-33.17426,-21.42862,-10.37054,11.09,-0.48,1.86,2.0
1758076513.30318,1758076513.31677,0.0,0.0,0.0,-31.85646,-8.76626,-6.53172,11.09,-0.48,1.86,2.0
1758076513.30601,1758076513.32677,0.0,0.0,0.0,-29.9084,0.0,-3.72423,11.62,-0.93,1.36,2.0
1758076513.32114,1758076513.33677,0.0,0.0,0.0,-27.38738,8.99544,-0.74485,11.62,-0.93,1.36,2.0
1758076513.32242,1758076513.34677,0.0,0.0,0.0,-24.35071,17.47521,2.11994,11.89,-1.18,1.18,2.0
1758076513.33801,1758076513.35677,0.0,0.0,0.0,-20.34,30.48136,5.95876,11.83,-1.08,1.1,2.0
1758076513.34158,1758076513.36677,0.0,0.0,0.0,-17.99088,34.89313,8.36518,11.83,-1.08,1.1,2.0
1758076513.35819,1758076513.37677,0.0,0.0,0.0,-16.67307,35.58068,10.02676,10.76,-0.64,1.01,2.0
1758076513.35941,1758076513.38677,0.0,0.0,0.0,-15.87093,36.03905,10.94349,10.76,-0.64,1.01,2.0
1758076513.37577,1758076513.39677,0.0,0.0,0.0,-16.50119,36.61201,10.8289,10.2,-0.31,0.98,2.0
1758076513.39253,1758076513.40677,0.0,0.0,0.0,-17.58981,37.29956,9.4538,10.2,-0.31,0.98,2.0
1758076513.39528,1758076513.41677,0.0,0.0,0.0,-18.56383,38.21629,8.0787,9.87,-0.2,1.09,2.0
1758076513.41054,1758076513.42677,0.0,0.0,0.0,-19.13679,39.53409,5.95876,9.87,-0.2,1.09,2.0
1758076513.41464,1758076513.43677,0.0,0.0,0.0,-18.27736,39.01843,4.87014,9.6,-0.33,1.28,2.0
1758076513.43212,1758076513.44677,0.0,0.0,0.0,-17.30333,37.29956,4.0107,9.07,-0.57,1.15,2.0
1758076513.43386,1758076513.45677,0.0,0.0,0.0,-16.272,34.66395,3.89611,9.07,-0.57,1.15,2.0
1758076513.4501,1758076513.46677,0.0,0.0,0.0,-14.15206,32.71589,3.38045,8.96,-0.81,0.99,2.0
1758076513.45846,1758076513.47677,0.0,0.0,0.0,-12.60507,31.62727,2.6929,8.96,-0.81,0.99,2.0
1758076513.46155,1758076513.48677,0.0,0.0,0.0,-11.17268,30.82513,2.11994,9.0,-0.94,0.62,2.0
1758076513.48383,1758076513.49677,0.0,0.0,0.0,-9.33921,28.36141,1.48969,9.0,-0.94,0.62,2.0
1758076513.48639,1758076513.50677,0.0,0.0,0.0,-6.18794,23.49127,0.57296,8.87,-1.05,0.53,2.0
1758076513.5016,1758076513.51677,0.0,0.0,0.0,-3.72423,20.85567,-0.17189,9.12,-1.26,0.48,2.0
1758076513.5044,1758076513.52677,0.0,0.0,0.0,-0.74485,18.22006,-0.22918,9.12,-1.26,0.48,2.0
1758076513.51954,1758076513.53677,0.0,0.0,0.0,2.6929,17.6471,-0.51566,9.56,-1.48,0.48,2.0
1758076513.52046,1758076513.54677,0.0,0.0,0.0,7.67763,20.3973,-0.85944,9.56,-1.48,0.48,2.0
1758076513.53606,1758076513.55677,0.0,0.0,0.0,10.8289,21.7151,-0.85944,10.11,-1.49,0.65,2.0
1758076513.55393,1758076513.56677,0.0,0.0,0.0,13.34992,22.00158,-1.03132,10.11,-1.49,0.65,2.0
1758076513.55588,1758076513.57677,0.0,0.0,0.0,15.46986,21.37133,-0.85944,9.94,-1.17,0.88,2.0
1758076513.57148,1758076513.58677,0.0,0.0,0.0,17.99088,20.05352,-0.11459,9.76,-0.82,0.88,2.0
1758076513.57572,1758076513.59677,0.0,0.0,0.0,19.13679,19.19409,0.22918,9.76,-0.82,0.88,2.0
1758076513.5916,1758076513.60677,0.0,0.0,0.0,19.70975,18.22006,0.85944,9.7,-0.57,0.96,2.0
1758076513.59567,1758076513.61677,0.0,0.0,0.0,20.05352,17.30333,1.3178,9.7,-0.57,0.96,2.0
1758076513.61163,1758076513.62677,0.0,0.0,0.0,20.05352,15.06879,1.48969,9.71,-0.47,1.29,2.0
1758076513.68337,1758076513.63677,0.0,0.0,0.0,20.3973,11.80293,1.83346,9.71,-0.47,1.29,2.0
1758076513.68602,1758076513.64677,0.0,0.0,0.0,20.97026,7.44845,1.60428,9.58,-0.53,1.44,2.0
1758076513.68726,1758076513.65677,0.0,0.0,0.0,22.34536,3.32316,0.97403,9.58,-0.53,1.44,2.0
1758076513.68794,1758076513.66677,0.0,0.0,0.0,24.00693,-1.94806,0.68755,9.6,-0.72,1.34,2.0
1758076513.68992,1758076513.67677,0.0,0.0,0.0,26.24147,-4.46907,0.51566,9.59,-1.04,0.97,2.0
1758076513.69056,1758076513.68677,0.0,0.0,0.0,29.10626,-6.7609,0.85944,9.59,-1.04,0.97,2.0
1758076513.69129,1758076513.69677,0.0,0.0,0.0,33.46074,-9.68299,1.3751,9.49,-1.36,0.69,2.0
1758076513.69451,1758076513.70677,0.0,0.0,0.0,36.55471,-10.02676,1.66158,9.49,-1.36,0.69,2.0
1758076513.69562,1758076513.71677,0.0,0.0,0.0,39.53409,-11.63104,2.40642,9.62,-1.62,0.73,2.0
1758076513.71166,1758076513.72677,0.0,0.0,0.0,41.31026,-17.30333,2.92208,9.62,-1.62,0.73,2.0
1758076513.71609,1758076513.73677,0.0,0.0,0.0,41.13837,-28.87707,4.87014,9.59,-1.6,1.42,2.0
1758076513.73176,1758076513.74677,0.0,0.0,0.0,39.3622,-35.98175,7.21927,11.03,-1.11,2.93,2.0
1758076513.73259,1758076513.75677,0.0,0.0,0.0,36.32552,-39.64868,10.48513,11.03,-1.11,2.93,2.0
1758076513.74743,1758076513.76677,0.0,0.0,0.0,31.2262,-26.18417,14.15206,14.41,0.05,3.56,2.0
1758076513.74971,1758076513.77677,0.0,0.0,0.0,22.97561,-4.98473,16.55848,14.41,0.05,3.56,2.0
1758076513.76558,1758076513.78677,0.0,0.0,0.0,17.6471,-5.50039,14.43854,14.34,1.16,3.33,2.0
1758076513.78156,1758076513.79677,0.0,0.0,0.0,12.60507,-15.24068,8.47978,14.34,1.16,3.33,2.0
1758076513.78581,1758076513.80677,0.0,0.0,0.0,11.34457,-37.35685,5.32851,9.56,1.62,2.21,2.0
1758076513.80147,1758076513.81677,0.0,0.0,0.0,8.88085,-56.89471,4.92744,7.97,1.13,0.53,2.0
1758076513.80532,1758076513.82677,0.0,0.0,0.0,7.62034,-52.54023,3.60963,7.97,1.13,0.53,2.0
1758076513.82158,1758076513.83677,0.0,0.0,0.0,7.84952,-41.94051,1.66158,9.96,0.37,0.98,2.0
1758076513.82238,1758076513.84677,0.0,0.0,0.0,8.70896,-37.29956,-2.57831,9.96,0.37,0.98,2.0
1758076513.83841,1758076513.85677,0.0,0.0,0.0,9.4538,-33.63263,-4.81285,8.94,-0.07,1.57,2.0
1758076513.8394,1758076513.86677,0.0,0.0,0.0,8.76626,-29.9084,-6.41713,8.94,-0.07,1.57,2.0
1758076513.85541,1758076513.87677,0.0,0.0,0.0,7.84952,-27.73116,-7.50575,9.3,-0.25,2.53,2.0
1758076513.87381,1758076513.88677,0.0,0.0,0.0,6.13065,-26.41335,-7.84952,9.3,-0.25,2.53,2.0
1758076513.88374,1758076513.89677,0.0,0.0,0.0,5.15662,-23.83505,-6.87549,8.78,-0.09,1.92,2.0
1758076513.88549,1758076513.90677,0.0,0.0,0.0,4.98473,-19.42327,-5.84417,8.96,0.22,2.28,2.0
1758076513.90171,1758076513.91677,0.0,0.0,0.0,5.32851,-15.06879,-3.89611,8.96,0.22,2.28,2.0
1758076513.90593,1758076513.92677,0.0,0.0,0.0,6.8182,-8.76626,-0.34377,9.18,0.5,2.42,2.0
1758076513.92172,1758076513.93677,0.0,0.0,0.0,8.36518,-4.18259,2.46372,9.18,0.5,2.42,2.0
1758076513.92266,1758076513.94677,0.0,0.0,0.0,9.91217,1.66158,4.29718,9.58,0.72,2.61,2.0
1758076513.93778,1758076513.95677,0.0,0.0,0.0,11.11538,8.65166,4.98473,9.58,0.72,2.61,2.0
1758076513.95375,1758076513.96677,0.0,0.0,0.0,12.54778,19.42327,4.52637,10.03,0.93,2.23,2.0
1758076513.95626,1758076513.97677,0.0,0.0,0.0,13.12073,27.67386,2.92208,10.54,1.16,1.82,2.0
1758076513.97153,1758076513.98677,0.0,0.0,0.0,13.5218,36.7266,0.97403,10.54,1.16,1.82,2.0
1758076513.97317,1758076513.99677,0.0,0.0,0.0,12.89155,42.28429,-1.3178,11.04,1.06,1.84,2.0
1758076513.98869,1758076514.00677,0.0,0.0,0.0,11.63104,45.09178,-3.60963,11.04,1.06,1.84,2.0
1758076513.99071,1758076514.01677,0.0,0.0,0.0,11.00079,45.89392,-4.23989,10.76,0.85,1.33,2.0
1758076514.0078,1758076514.02677,0.0,0.0,0.0,10.25595,47.78468,-4.58366,10.76,0.85,1.33,2.0
1758076514.02539,1758076514.03677,0.0,0.0,0.0,9.39651,49.27437,-4.23989,10.88,0.55,1.54,2.0
1758076514.02631,1758076514.04677,0.0,0.0,0.0,9.11003,46.35228,-2.23454,9.95,0.44,1.53,2.0
1758076514.04149,1758076514.05677,0.0,0.0,0.0,8.88085,42.51347,-2.00535,9.95,0.44,1.53,2.0
1758076514.04746,1758076514.06677,0.0,0.0,0.0,8.65166,39.99245,-1.83346,9.44,0.44,1.98,2.0
1758076514.05392,1758076514.07677,0.0,0.0,0.0,7.50575,37.92981,-2.06265,9.44,0.44,1.98,2.0
1758076514.07052,1758076514.08677,0.0,0.0,0.0,5.95876,36.95578,-2.7502,9.25,0.82,1.82,2.0
1758076514.07196,1758076514.09677,0.0,0.0,0.0,3.26586,35.00772,-4.1253,9.25,0.82,1.82,2.0
1758076514.08653,1758076514.10677,0.0,0.0,0.0,0.45837,32.25753,-5.78687,8.97,1.35,1.75,2.0
1758076514.1054,1758076514.11677,0.0,0.0,0.0,-3.89611,28.13223,-8.02141,8.97,1.35,1.61,2.0
1758076514.10631,1758076514.12677,0.0,0.0,0.0,-6.47442,24.92367,-9.33921,8.92,1.83,1.61,2.0
1758076514.12177,1758076514.13677,0.0,0.0,0.0,-8.76626,21.42862,-9.96947,8.89,1.97,1.43,2.0
1758076514.12307,1758076514.14677,0.0,0.0,0.0,-10.71431,19.53786,-10.08406,8.89,1.97,1.43,2.0
1758076514.13758,1758076514.15677,0.0,0.0,0.0,-13.5218,19.99623,-9.74028,9.26,1.69,1.4,2.0
1758076514.14028,1758076514.16677,0.0,0.0,0.0,-15.12609,20.05352,-9.39651,9.26,1.69,1.4,2.0
1758076514.15682,1758076514.17677,0.0,0.0,0.0,-16.61578,20.11082,-9.28192,9.38,1.26,1.46,2.0
1758076514.17274,1758076514.18677,0.0,0.0,0.0,-17.93358,20.62648,-8.65166,9.38,1.26,1.46,2.0
1758076514.1737,1758076514.19677,0.0,0.0,0.0,-19.25138,19.59516,-7.79223,9.44,0.91,1.47,2.0
1758076514.18869,1758076514.20677,0.0,0.0,0.0,-19.99623,18.56383,-7.50575,9.39,0.75,1.4,2.0
1758076514.19091,1758076514.21677,0.0,0.0,0.0,-20.79837,18.9649,-7.39116,9.39,0.75,1.4,2.0
1758076514.20679,1758076514.22677,0.0,0.0,0.0,-21.42862,19.88164,-7.10468,9.61,0.75,1.33,2.0
1758076514.2228,1758076514.23677,0.0,0.0,0.0,-22.00158,20.16812,-5.95876,9.61,0.75,1.33,2.0
1758076514.22398,1758076514.24677,0.0,0.0,0.0,-22.51724,21.08485,-4.69825,9.59,0.78,1.36,2.0
1758076514.23853,1758076514.25677,0.0,0.0,0.0,-22.86102,22.23076,-3.55234,9.59,0.78,1.36,2.0
1758076514.23999,1758076514.26677,0.0,0.0,0.0,-23.66316,23.0902,-2.34913,9.75,0.78,1.57,2.0
1758076514.25583,1758076514.27677,0.0,0.0,0.0,-24.23611,22.91831,-1.48969,9.59,0.83,1.6,2.0
1758076514.27183,1758076514.28677,0.0,0.0,0.0,-24.63719,20.85567,-0.45837,9.59,0.83,1.6,2.0
1758076514.27302,1758076514.29677,0.0,0.0,0.0,-25.55392,17.36062,-0.68755,9.34,0.87,1.88,2.0
1758076514.28816,1758076514.30677,0.0,0.0,0.0,-27.10091,8.02141,-0.97403,9.34,0.87,1.88,2.0
1758076514.29036,1758076514.31677,0.0,0.0,0.0,-28.41871,-0.11459,-1.66158,9.04,0.95,1.91,2.0
1758076514.3069,1758076514.32677,0.0,0.0,0.0,-30.13758,-7.96411,-2.46372,9.04,0.95,1.91,2.0
1758076514.32259,1758076514.33677,0.0,0.0,0.0,-32.14294,-14.38124,-3.72423,9.04,1.05,1.85,2.0
1758076514.32406,1758076514.34677,0.0,0.0,0.0,-35.75257,-21.88699,-5.78687,9.16,1.05,1.74,2.0
1758076514.33891,1758076514.35677,0.0,0.0,0.0,-38.61736,-25.49662,-7.50575,9.16,1.15,1.74,2.0
1758076514.34061,1758076514.36677,0.0,0.0,0.0,-41.42485,-32.54401,-8.25059,9.01,1.22,1.32,2.0
1758076514.35665,1758076514.37677,0.0,0.0,0.0,-43.83128,-39.76327,-7.10468,9.01,1.22,1.32,2.0
1758076514.37288,1758076514.38677,0.0,0.0,0.0,-47.09713,-45.89392,-4.1253,8.84,0.84,0.94,2.0
1758076514.37389,1758076514.39677,0.0,0.0,0.0,-48.9879,-47.78468,-2.00535,8.84,0.84,0.94,2.0
1758076514.3886,1758076514.40677,0.0,0.0,0.0,-50.01921,-49.38896,-0.0573,9.64,0.65,1.09,2.0
1758076514.39035,1758076514.41677,0.0,0.0,0.0,-50.13381,-50.1911,1.08862,9.64,0.65,1.09,2.0
1758076514.40697,1758076514.42677,0.0,0.0,0.0,-47.03984,-36.38282,-0.45837,11.59,0.54,2.87,2.0
1758076514.42264,1758076514.43677,0.0,0.0,0.0,-45.60744,-23.26209,-3.55234,14.77,0.09,3.92,2.0
1758076514.42389,1758076514.44677,0.0,0.0,0.0,-41.36755,-30.30947,-6.41713,14.77,0.09,3.92,2.0
1758076514.43896,1758076514.45677,0.0,0.0,0.0,-38.27358,-43.4875,-11.57375,11.99,-0.33,4.0,2.0
1758076514.4399,1758076514.46677,0.0,0.0,0.0,-33.74722,-56.952,-14.03747,11.99,-0.33,4.0,2.0
1758076514.45602,1758076514.47677,0.0,0.0,0.0,-32.14294,-58.26981,-12.89155,10.68,-0.48,2.27,2.0
1758076514.47199,1758076514.48677,0.0,0.0,0.0,-31.85646,-55.06125,-10.37054,10.68,-0.48,2.27,2.0
1758076514.47287,1758076514.49677,0.0,0.0,0.0,-32.08564,-53.45696,-3.49504,9.91,-0.57,1.54,2.0
1758076514.4876,1758076514.50677,0.0,0.0,0.0,-31.56997,-55.00395,1.83346,8.73,-0.62,2.32,2.0
1758076514.50392,1758076514.51677,0.0,0.0,0.0,-30.19488,-55.6915,5.95876,8.73,-0.62,2.32,2.0
1758076514.50515,1758076514.52677,0.0,0.0,0.0,-28.70519,-54.431,8.02141,8.58,-0.34,2.44,2.0
1758076514.51995,1758076514.53677,0.0,0.0,0.0,-28.07493,-50.82136,7.62034,8.58,-0.34,2.44,2.0
1758076514.52117,1758076514.54677,0.0,0.0,0.0,-29.39274,-45.60744,4.87014,8.76,0.0,2.68,2.0
1758076514.53596,1758076514.55677,0.0,0.0,0.0,-31.79916,-41.25296,0.85944,8.76,0.0,2.68,2.0
1758076514.55167,1758076514.56677,0.0,0.0,0.0,-34.37747,-37.98711,-3.38045,8.9,0.19,2.72,2.0
1758076514.5529,1758076514.57677,0.0,0.0,0.0,-37.29956,-31.56997,-9.28192,9.26,0.09,2.56,2.0
1758076514.56794,1758076514.58677,0.0,0.0,0.0,-38.15899,-25.49662,-11.80293,9.26,0.09,2.56,2.0
1758076514.58371,1758076514.59677,0.0,0.0,0.0,-37.87251,-17.53251,-13.00614,10.28,-0.33,1.89,2.0
1758076514.5849,1758076514.60677,0.0,0.0,0.0,-36.84119,-8.70896,-12.89155,10.28,-0.33,1.89,2.0
1758076514.59995,1758076514.61677,0.0,0.0,0.0,-34.09099,4.52637,-11.22997,10.9,-0.94,1.58,2.0
1758076514.60091,1758076514.62677,0.0,0.0,0.0,-31.62727,12.204,-9.11003,10.9,-0.94,1.58,2.0
1758076514.616,1758076514.63677,0.0,0.0,0.0,-28.59059,19.19409,-6.8182,10.81,-1.4,1.44,2.0
1758076514.63195,1758076514.64677,0.0,0.0,0.0,-25.49662,25.55392,-4.58366,10.81,-1.4,1.44,2.0
1758076514.63292,1758076514.65677,0.0,0.0,0.0,-20.68378,34.89313,-1.20321,10.67,-1.65,1.51,2.0
1758076514.64815,1758076514.66677,0.0,0.0,0.0,-17.81899,39.01843,0.40107,10.54,-1.63,1.54,2.0
1758076514.66396,1758076514.67677,0.0,0.0,0.0,-16.04282,39.4195,1.14592,10.54,-1.63,1.54,2.0
1758076514.66523,1758076514.68677,0.0,0.0,0.0,-14.72501,38.78925,1.03132,9.91,-1.28,1.57,2.0
1758076514.67981,1758076514.69677,0.0,0.0,0.0,-14.43854,37.52874,0.22918,9.91,-1.28,1.57,2.0
1758076514.68102,1758076514.70677,0.0,0.0,0.0,-14.66772,37.18496,-0.51566,9.76,-0.84,1.48,2.0
1758076514.69615,1758076514.71677,0.0,0.0,0.0,-14.9542,37.47144,-1.3178,9.76,-0.84,1.48,2.0
1758076514.71199,1758076514.72677,0.0,0.0,0.0,-15.46986,36.32552,-2.63561,9.56,-0.52,1.47,2.0
1758076514.71342,1758076514.73677,0.0,0.0,0.0,-15.29797,33.63263,-2.97938,9.24,-0.44,1.62,2.0
1758076514.72808,1758076514.74677,0.0,0.0,0.0,-14.9542,29.27814,-2.97938,9.24,-0.44,1.62,2.0
1758076514.74406,1758076514.75677,0.0,0.0,0.0,-14.32395,24.86637,-2.6929,9.05,-0.55,1.54,2.0
1758076514.74495,1758076514.76677,0.0,0.0,0.0,-12.37589,21.25674,-2.11994,9.05,-0.55,1.54,2.0
1758076514.75975,1758076514.77677,0.0,0.0,0.0,-10.65701,20.97026,-1.66158,9.33,-0.79,1.31,2.0
1758076514.76097,1758076514.78677,0.0,0.0,0.0,-8.42248,20.85567,-1.14592,9.33,-0.79,1.31,2.0
1758076514.77578,1758076514.79677,0.0,0.0,0.0,-6.13065,21.14215,-0.80214,9.42,-1.03,1.32,2.0
1758076514.79181,1758076514.80677,0.0,0.0,0.0,-2.34913,21.37133,-0.80214,9.28,-1.16,1.23,2.0
1758076514.79306,1758076514.81677,0.0,0.0,0.0,0.11459,21.08485,-1.03132,9.28,-1.16,1.23,2.0
1758076514.80787,1758076514.82677,0.0,0.0,0.0,2.86479,20.51189,-1.08862,9.18,-1.18,1.03,2.0
1758076514.82406,1758076514.83677,0.0,0.0,0.0,5.50039,19.42327,-1.3751,9.18,-1.18,1.03,2.0
1758076514.82544,1758076514.84677,0.0,0.0,0.0,9.28192,18.44924,-1.94806,9.33,-1.25,0.86,2.0
1758076514.83994,1758076514.85677,0.0,0.0,0.0,11.86023,18.16276,-2.29183,9.33,-1.25,0.86,2.0
1758076514.84097,1758076514.86677,0.0,0.0,0.0,14.20935,19.70975,-2.6929,9.75,-1.24,0.67,2.0
1758076514.85609,1758076514.87677,0.0,0.0,0.0,16.3293,23.0329,-3.32316,9.75,-1.24,0.67,2.0
1758076514.8721,1758076514.88677,0.0,0.0,0.0,18.9649,26.69983,-3.60963,10.31,-1.1,0.77,2.0
1758076514.87308,1758076514.89677,0.0,0.0,0.0,20.51189,26.75713,-4.1253,10.1,-0.91,1.04,2.0
1758076514.88819,1758076514.90677,0.0,0.0,0.0,21.42862,26.98631,-4.58366,10.1,-0.91,1.04,2.0
1758076514.90417,1758076514.91677,0.0,0.0,0.0,22.00158,26.24147,-5.15662,9.97,-0.74,1.33,2.0
1758076514.90532,1758076514.92677,0.0,0.0,0.0,21.88699,25.49662,-5.21392,9.97,-0.74,1.33,2.0
1758076514.91989,1758076514.93677,0.0,0.0,0.0,21.25674,24.23611,-5.09932,9.87,-0.52,1.47,2.0
1758076514.92107,1758076514.94677,0.0,0.0,0.0,20.51189,21.08485,-4.52637,9.87,-0.52,1.47,2.0
1758076514.93591,1758076514.95677,0.0,0.0,0.0,19.48057,11.28727,-3.20856,9.55,-0.33,1.78,2.0
1758076514.95229,1758076514.96677,0.0,0.0,0.0,19.42327,3.55234,-1.66158,9.12,-0.37,1.9,2.0
1758076514.95319,1758076514.97677,0.0,0.0,0.0,19.88164,-3.83882,0.0,9.12,-0.37,1.9,2.0
1758076514.96816,1758076514.98677,0.0,0.0,0.0,20.97026,-9.91217,1.48969,9.17,-0.58,1.62,2.0
1758076514.98395,1758076514.99677,0.0,0.0,0.0,23.89234,-16.67307,3.38045,9.17,-0.58,1.62,2.0
1758076514.98509,1758076515.00677,0.0,0.0,0.0,26.69983,-20.05352,4.35448,9.34,-0.89,1.33,2.0
1758076515.0002,1758076515.01677,0.0,0.0,0.0,29.67921,-22.40265,4.92744,9.34,-0.89,1.33,2.0
1758076515.00111,1758076515.02677,0.0,0.0,0.0,33.23156,-26.75713,5.21392,9.45,-1.19,1.29,2.0
1758076515.01623,1758076515.03677,0.0,0.0,0.0,36.32552,-33.34615,3.89611,9.64,-1.15,1.6,2.0
1758076515.03222,1758076515.04677,0.0,0.0,0.0,36.61201,-35.69527,3.38045,9.64,-1.15,1.6,2.0
1758076515.03313,1758076515.05677,0.0,0.0,0.0,35.63798,-36.21093,2.92208,11.28,-0.62,2.37,2.0
1758076515.04827,1758076515.06677,0.0,0.0,0.0,33.9764,-29.27814,4.69825,11.28,-0.62,2.37,2.0
1758076515.06415,1758076515.07677,0.0,0.0,0.0,29.73651,-10.37054,8.30789,14.02,0.0,3.35,2.0
1758076515.06508,1758076515.08677,0.0,0.0,0.0,24.98096,-3.72423,9.28192,14.02,0.0,3.35,2.0
1758076515.08024,1758076515.09677,0.0,0.0,0.0,19.53786,-0.68755,9.33921,13.47,0.67,3.63,2.0
1758076515.08195,1758076515.10677,0.0,0.0,0.0,14.20935,-6.18794,5.27121,13.47,0.67,3.63,2.0
1758076515.09723,1758076515.11677,0.0,0.0,0.0,11.11538,-28.07493,2.57831,10.79,1.1,2.7,2.0
1758076515.11326,1758076515.12677,0.0,0.0,0.0,8.25059,-42.97184,0.0,7.74,1.12,0.97,2.0
1758076515.11442,1758076515.13677,0.0,0.0,0.0,7.62034,-49.79003,1.60428,7.74,1.12,0.97,2.0
1758076515.12899,1758076515.14677,0.0,0.0,0.0,5.95876,-46.46688,1.08862,9.57,0.59,1.31,2.0
1758076515.13051,1758076515.15677,0.0,0.0,0.0,6.41713,-44.51882,0.97403,9.57,0.59,1.31,2.0
1758076515.14599,1758076515.16677,0.0,0.0,0.0,6.18794,-42.74266,-0.17189,9.64,0.27,1.56,2.0
1758076515.16207,1758076515.17677,0.0,0.0,0.0,5.72958,-39.07573,-1.20321,9.64,0.27,1.56,2.0
1758076515.16381,1758076515.18677,0.0,0.0,0.0,4.1253,-36.55471,-2.11994,9.7,0.08,2.57,2.0
1758076515.17803,1758076515.19677,0.0,0.0,0.0,2.46372,-38.1017,-2.23454,8.9,0.12,2.47,2.0
1758076515.19407,1758076515.20677,0.0,0.0,0.0,1.03132,-38.38818,-1.66158,8.9,0.12,2.47,2.0
1758076515.19572,1758076515.21677,0.0,0.0,0.0,0.40107,-36.49741,-0.51566,8.75,0.28,2.53,2.0
1758076515.21007,1758076515.22677,0.0,0.0,0.0,1.14592,-32.48671,1.77617,8.75,0.28,2.53,2.0
1758076515.21124,1758076515.23677,0.0,0.0,0.0,2.46372,-29.9084,3.72423,8.86,0.43,2.6,2.0
1758076515.226,1758076515.24677,0.0,0.0,0.0,4.64096,-26.75713,6.18794,8.86,0.43,2.6,2.0
1758076515.24204,1758076515.25677,0.0,0.0,0.0,6.99009,-22.57454,8.0787,9.31,0.55,2.96,2.0
1758076515.24325,1758076515.26677,0.0,0.0,0.0,10.71431,-15.0115,10.25595,9.91,0.65,2.56,2.0
