timeStamp,timeStampAlign,roll,pitch,yaw,gyro_x,gyro_y,gyro_z,acc_x,acc_y,acc_z,flag_num
1758075489.73045,1758075489.70492,0.0,0.0,0.0,-13.98017,26.52795,3.72423,8.96,-0.51,0.39,2.0
1758075489.73145,1758075489.71492,0.0,0.0,0.0,-12.2613,16.73037,0.51566,8.73,-0.7,0.28,2.0
1758075489.74826,1758075489.72492,0.0,0.0,0.0,-10.19865,16.38659,0.11459,8.73,-0.7,0.28,2.0
1758075489.76428,1758075489.73492,0.0,0.0,0.0,-7.50575,23.0902,-0.80214,9.42,-1.1,0.09,2.0
1758075489.76506,1758075489.74492,0.0,0.0,0.0,-4.64096,28.07493,-0.40107,9.42,-1.1,0.09,2.0
1758075489.78028,1758075489.75492,0.0,0.0,0.0,-0.11459,36.89849,-1.3751,9.76,-1.32,0.37,2.0
1758075489.78148,1758075489.76492,0.0,0.0,0.0,1.60428,37.92981,-0.97403,9.36,-1.53,0.17,2.0
1758075489.79759,1758075489.77492,0.0,0.0,0.0,3.09397,42.22699,-1.66158,9.36,-1.53,0.17,2.0
1758075489.81327,1758075489.78492,0.0,0.0,0.0,6.18794,41.99781,-1.3751,9.29,-1.73,0.21,2.0
1758075489.81452,1758075489.79492,0.0,0.0,0.0,11.97482,26.12688,0.40107,9.29,-1.73,0.21,2.0
1758075489.82957,1758075489.80492,0.0,0.0,0.0,16.50119,13.5791,2.06265,8.01,-1.89,-0.33,2.0
1758075489.84559,1758075489.81492,0.0,0.0,0.0,20.85567,2.97938,3.66693,8.01,-1.89,-0.33,2.0
1758075489.84604,1758075489.82492,0.0,0.0,0.0,25.43933,-4.69825,4.64096,8.48,-1.79,-0.88,2.0
1758075489.86155,1758075489.83492,0.0,0.0,0.0,31.79916,-7.50575,5.50039,9.64,-1.62,-0.63,2.0
1758075489.86284,1758075489.84492,0.0,0.0,0.0,36.6693,-5.32851,7.21927,9.64,-1.62,-0.63,2.0
1758075489.87734,1758075489.85492,0.0,0.0,0.0,40.7373,-6.70361,8.59437,10.41,-1.77,-0.32,2.0
1758075489.89368,1758075489.86492,0.0,0.0,0.0,45.09178,-15.69904,9.91217,10.41,-1.77,-0.32,2.0
1758075489.89486,1758075489.87492,0.0,0.0,0.0,46.69606,-22.63183,10.19865,9.82,-1.93,-0.35,2.0
1758075489.90968,1758075489.88492,0.0,0.0,0.0,47.61279,-28.30412,9.5684,9.82,-1.93,-0.35,2.0
1758075489.92566,1758075489.89492,0.0,0.0,0.0,48.12846,-33.00237,8.136,9.64,-1.67,-0.65,2.0
1758075489.92604,1758075489.90492,0.0,0.0,0.0,48.64412,-38.84654,4.18259,9.64,-1.67,-0.65,2.0
1758075489.94166,1758075489.91492,0.0,0.0,0.0,48.64412,-41.94051,0.74485,9.54,-1.12,-0.25,2.0
1758075489.94256,1758075489.92492,0.0,0.0,0.0,48.35764,-44.748,-2.29183,10.33,-0.78,1.3,2.0
1758075489.95741,1758075489.93492,0.0,0.0,0.0,47.67009,-49.27437,-3.95341,10.33,-0.78,1.3,2.0
1758075489.97368,1758075489.94492,0.0,0.0,0.0,45.26366,-56.78012,-1.94806,12.36,-0.22,2.8,2.0
1758075489.97489,1758075489.95492,0.0,0.0,0.0,43.54479,-63.54102,1.48969,12.36,-0.22,2.8,2.0
1758075489.98968,1758075489.96492,0.0,0.0,0.0,41.36755,-70.81759,4.23989,13.3,0.73,1.96,2.0
1758075489.99083,1758075489.97492,0.0,0.0,0.0,39.99245,-73.2813,6.07335,13.3,0.73,1.96,2.0
1758075490.00597,1758075489.98492,0.0,0.0,0.0,40.68,-69.49979,7.44845,12.35,0.9,1.31,2.0
1758075490.02164,1758075489.99492,0.0,0.0,0.0,42.28429,-66.11933,7.21927,11.06,0.05,1.67,2.0
1758075490.02345,1758075490.00492,0.0,0.0,0.0,45.03448,-61.59297,6.18794,11.06,0.05,1.67,2.0
1758075490.03847,1758075490.01492,0.0,0.0,0.0,48.75871,-53.97263,4.98473,10.11,-0.87,1.66,2.0
1758075490.03965,1758075490.02492,0.0,0.0,0.0,56.49364,-39.4768,4.92744,10.11,-0.87,1.66,2.0
1758075490.05516,1758075490.03492,0.0,0.0,0.0,61.93674,-29.27814,6.7609,9.77,-1.43,1.36,2.0
1758075490.0704,1758075490.04492,0.0,0.0,0.0,66.11933,-12.14671,8.42248,9.77,-1.43,1.36,2.0
1758075490.07166,1758075490.05492,0.0,0.0,0.0,68.29657,5.4431,10.31324,10.26,-1.13,1.12,2.0
1758075490.08769,1758075490.06492,0.0,0.0,0.0,69.04142,20.22541,11.28727,10.11,-0.02,0.98,2.0
1758075490.10376,1758075490.07492,0.0,0.0,0.0,68.06739,25.72581,11.00079,10.11,-0.02,0.98,2.0
1758075490.1058,1758075490.08492,0.0,0.0,0.0,68.52576,24.12152,10.37054,10.01,1.09,0.42,2.0
1758075490.11975,1758075490.09492,0.0,0.0,0.0,66.17663,4.87014,9.4538,10.01,1.09,0.42,2.0
1758075490.12111,1758075490.10492,0.0,0.0,0.0,65.54638,-8.36518,9.68299,9.51,1.58,0.07,2.0
1758075490.13605,1758075490.11492,0.0,0.0,0.0,63.19725,-6.35983,6.58902,9.51,1.58,0.07,2.0
1758075490.15184,1758075490.12492,0.0,0.0,0.0,63.31184,16.21471,5.95876,11.71,1.39,-0.28,2.0
1758075490.15298,1758075490.13492,0.0,0.0,0.0,64.85883,42.57077,3.83882,12.38,1.39,0.4,2.0
1758075490.1678,1758075490.14492,0.0,0.0,0.0,64.40046,46.40959,1.94806,12.38,0.91,0.4,2.0
1758075490.18377,1758075490.15492,0.0,0.0,0.0,63.8275,45.72203,1.48969,9.35,0.64,0.39,2.0
1758075490.18501,1758075490.16492,0.0,0.0,0.0,62.28051,46.40959,1.20321,9.35,0.64,0.39,2.0
1758075490.19974,1758075490.17492,0.0,0.0,0.0,59.07195,48.9306,0.51566,9.48,0.71,0.26,2.0
1758075490.20185,1758075490.18492,0.0,0.0,0.0,55.86338,48.64412,0.68755,9.48,0.71,0.26,2.0
1758075490.21758,1758075490.19492,0.0,0.0,0.0,51.79538,46.2377,1.03132,9.6,1.24,0.71,2.0
1758075490.23358,1758075490.20492,0.0,0.0,0.0,47.03984,43.31561,1.3751,9.6,1.24,0.71,2.0
1758075490.23525,1758075490.21492,0.0,0.0,0.0,39.4195,39.07573,1.43239,9.58,1.91,0.7,2.0
1758075490.24983,1758075490.22492,0.0,0.0,0.0,34.32018,35.92446,1.3178,9.45,2.5,0.79,2.0
1758075490.25078,1758075490.23492,0.0,0.0,0.0,29.10626,32.6013,1.3751,9.45,2.5,0.79,2.0
1758075490.2661,1758075490.24492,0.0,0.0,0.0,24.23611,28.87707,1.3178,9.05,2.79,0.96,2.0
1758075490.28166,1758075490.25492,0.0,0.0,0.0,17.13144,21.31403,1.20321,9.05,2.79,0.96,2.0
1758075490.28306,1758075490.26492,0.0,0.0,0.0,12.08941,16.50119,1.14592,8.57,2.77,0.98,2.0
1758075490.29768,1758075490.27492,0.0,0.0,0.0,6.87549,12.2613,1.43239,8.57,2.77,0.98,2.0
1758075490.31387,1758075490.28492,0.0,0.0,0.0,-1.60428,6.47442,1.71887,8.62,2.65,0.88,2.0
1758075490.3148,1758075490.29492,0.0,0.0,0.0,-7.62034,4.0107,2.06265,8.86,2.63,0.62,2.0
1758075490.33141,1758075490.30492,0.0,0.0,0.0,-13.5218,2.97938,2.6929,8.86,2.63,0.62,2.0
1758075490.33422,1758075490.31492,0.0,0.0,0.0,-19.70975,2.63561,3.09397,9.27,2.64,0.39,2.0
1758075490.34964,1758075490.32492,0.0,0.0,0.0,-28.93437,0.80214,3.26586,9.27,2.64,0.39,2.0
1758075490.35245,1758075490.33492,0.0,0.0,0.0,-35.2369,-1.20321,2.7502,9.38,2.74,0.19,2.0
1758075490.36767,1758075490.34492,0.0,0.0,0.0,-41.31026,-4.1253,1.3751,9.38,2.74,0.19,2.0
1758075490.38368,1758075490.35492,0.0,0.0,0.0,-47.32632,-10.08406,-0.57296,9.34,2.9,-0.08,2.0
1758075490.38489,1758075490.36492,0.0,0.0,0.0,-54.88936,-25.8404,-3.20856,8.68,2.87,-0.63,2.0
1758075490.39996,1758075490.37492,0.0,0.0,0.0,-58.90006,-35.58068,-4.1253,8.68,2.87,-0.63,2.0
1758075490.40166,1758075490.38492,0.0,0.0,0.0,-62.5097,-41.25296,-4.87014,9.07,2.55,-0.97,2.0
1758075490.4175,1758075490.39492,0.0,0.0,0.0,-66.17663,-44.748,-5.55769,9.07,2.55,-0.97,2.0
1758075490.43368,1758075490.40492,0.0,0.0,0.0,-73.3959,-29.9084,-4.98473,10.39,2.57,-0.85,2.0
1758075490.43492,1758075490.41492,0.0,0.0,0.0,-78.7817,-3.03668,-7.96411,10.39,2.57,-0.85,2.0
1758075490.44973,1758075490.42492,0.0,0.0,0.0,-83.88103,8.02141,-8.47978,13.18,2.58,-0.12,2.0
1758075490.45253,1758075490.43492,0.0,0.0,0.0,-89.32412,-9.68299,-12.89155,13.18,2.58,-0.12,2.0
1758075490.46776,1758075490.44492,0.0,0.0,0.0,-96.77258,-48.8733,-20.16812,9.23,2.52,1.49,2.0
1758075490.484,1758075490.45492,0.0,0.0,0.0,-100.09573,-59.81679,-26.69983,11.01,1.74,1.38,2.0
1758075490.48496,1758075490.46492,0.0,0.0,0.0,-101.24165,-57.52497,-31.51268,11.01,1.74,1.38,2.0
1758075490.50012,1758075490.47492,0.0,0.0,0.0,-101.24165,-49.38896,-36.03905,15.59,0.41,2.31,2.0
1758075490.50176,1758075490.48492,0.0,0.0,0.0,-98.09039,-37.75792,-35.75257,15.59,0.41,2.31,2.0
1758075490.5171,1758075490.49492,0.0,0.0,0.0,-94.19427,-35.98175,-31.91375,15.14,-0.62,0.9,2.0
1758075490.53309,1758075490.50492,0.0,0.0,0.0,-90.12627,-39.19032,-26.18417,15.14,-0.62,0.9,2.0
1758075490.53451,1758075490.51492,0.0,0.0,0.0,-84.74047,-39.53409,-17.47521,11.41,-1.04,-0.92,2.0
1758075490.54912,1758075490.52492,0.0,0.0,0.0,-83.19347,-34.09099,-12.43318,10.18,-0.85,-0.38,2.0
1758075490.55,1758075490.53492,0.0,0.0,0.0,-83.88103,-28.30412,-9.11003,10.18,-0.85,-0.38,2.0
1758075490.56585,1758075490.54492,0.0,0.0,0.0,-86.11556,-25.61122,-7.10468,9.16,-0.53,0.46,2.0
1758075490.58188,1758075490.55492,0.0,0.0,0.0,-92.76187,-23.66316,-7.16197,9.16,-0.53,0.46,2.0
1758075490.58332,1758075490.56492,0.0,0.0,0.0,-98.20497,-19.82434,-8.0787,8.57,-0.5,0.52,2.0
1758075490.59783,1758075490.57492,0.0,0.0,0.0,-103.70537,-13.98017,-9.62569,8.57,-0.5,0.52,2.0
1758075490.61381,1758075490.58492,0.0,0.0,0.0,-107.71607,-7.73493,-10.71431,8.99,-0.84,0.45,2.0
1758075490.61617,1758075490.59492,0.0,0.0,0.0,-109.83601,2.06265,-12.14671,9.22,-1.58,0.45,2.0
1758075490.63173,1758075490.60492,0.0,0.0,0.0,-108.17444,10.19865,-12.204,9.22,-1.58,0.45,2.0
1758075490.63359,1758075490.61492,0.0,0.0,0.0,-104.5648,18.85031,-11.80293,9.96,-2.59,-0.1,2.0
1758075490.64898,1758075490.62492,0.0,0.0,0.0,-99.179,27.44468,-10.94349,9.96,-2.59,-0.1,2.0
1758075490.65002,1758075490.63492,0.0,0.0,0.0,-89.78249,37.24226,-9.85487,10.21,-3.45,-0.56,2.0
1758075490.66586,1758075490.64492,0.0,0.0,0.0,-82.56322,42.97184,-8.47978,10.21,-3.45,-0.56,2.0
1758075490.68187,1758075490.65492,0.0,0.0,0.0,-75.05748,47.78468,-6.53172,10.04,-3.77,-0.66,2.0
1758075490.68306,1758075490.66492,0.0,0.0,0.0,-67.78091,51.27972,-3.66693,10.04,-3.77,-0.66,2.0
1758075490.69801,1758075490.67492,0.0,0.0,0.0,-58.72818,51.90998,0.74485,9.83,-3.51,-0.34,2.0
1758075490.71384,1758075490.68492,0.0,0.0,0.0,-53.97263,49.96192,3.60963,9.52,-2.76,0.08,2.0
1758075490.71506,1758075490.69492,0.0,0.0,0.0,-50.1911,47.38361,6.07335,9.52,-2.76,0.08,2.0
1758075490.72995,1758075490.70492,0.0,0.0,0.0,-46.00851,42.57077,9.28192,9.58,-1.94,0.33,2.0
1758075490.73192,1758075490.71492,0.0,0.0,0.0,-44.51882,39.87786,10.8289,9.58,-1.94,0.33,2.0
1758075490.74713,1758075490.72492,0.0,0.0,0.0,-43.20102,37.29956,11.80293,9.75,-1.31,0.52,2.0
1758075490.76392,1758075490.73492,0.0,0.0,0.0,-41.71133,35.06502,12.204,9.75,-1.31,0.52,2.0
1758075490.76511,1758075490.74492,0.0,0.0,0.0,-39.01843,31.91375,11.22997,9.62,-0.94,0.51,2.0
1758075490.77995,1758075490.75492,0.0,0.0,0.0,-36.49741,29.96569,10.08406,9.34,-0.98,0.5,2.0
1758075490.78113,1758075490.76492,0.0,0.0,0.0,-33.46074,26.87172,8.88085,9.34,-0.98,0.5,2.0
1758075490.79618,1758075490.77492,0.0,0.0,0.0,-30.36677,22.91831,7.73493,9.05,-1.35,0.46,2.0
1758075490.81221,1758075490.78492,0.0,0.0,0.0,-25.49662,17.24603,6.07335,9.05,-1.35,0.46,2.0
1758075490.81313,1758075490.79492,0.0,0.0,0.0,-22.05888,13.5218,4.98473,8.95,-1.78,0.33,2.0
1758075490.82794,1758075490.80492,0.0,0.0,0.0,-18.73572,9.22462,4.1253,8.95,-1.78,0.33,2.0
1758075490.84425,1758075490.81492,0.0,0.0,0.0,-15.12609,5.50039,3.38045,8.74,-1.96,0.34,2.0
1758075490.84545,1758075490.82492,0.0,0.0,0.0,-10.19865,0.97403,2.63561,8.85,-1.8,0.34,2.0
1758075490.86026,1758075490.83492,0.0,0.0,0.0,-6.8182,-1.3178,2.29183,8.85,-1.8,0.34,2.0
1758075490.86142,1758075490.84492,0.0,0.0,0.0,-3.38045,-2.92208,2.34913,9.13,-1.49,0.15,2.0
1758075490.87626,1758075490.85492,0.0,0.0,0.0,0.0573,-0.51566,2.23454,9.13,-1.49,0.15,2.0
1758075490.89227,1758075490.86492,0.0,0.0,0.0,5.55769,7.39116,1.48969,9.88,-1.28,0.05,2.0
1758075490.8932,1758075490.87492,0.0,0.0,0.0,9.33921,12.2613,1.3178,9.88,-1.28,0.05,2.0
1758075490.90803,1758075490.88492,0.0,0.0,0.0,13.5791,13.23533,1.08862,9.99,-1.34,0.05,2.0
1758075490.92405,1758075490.89492,0.0,0.0,0.0,17.81899,10.94349,0.85944,9.99,-1.34,0.05,2.0
1758075490.92519,1758075490.90492,0.0,0.0,0.0,24.23611,5.27121,0.80214,9.26,-1.6,-0.03,2.0
1758075490.94004,1758075490.91492,0.0,0.0,0.0,29.04896,1.20321,1.08862,9.29,-1.84,0.0,2.0
1758075490.94122,1758075490.92492,0.0,0.0,0.0,33.40344,-2.86479,1.3178,9.29,-1.84,0.0,2.0
1758075490.95711,1758075490.93492,0.0,0.0,0.0,38.61736,-10.48513,1.08862,9.39,-1.86,0.05,2.0
1758075490.9733,1758075490.94492,0.0,0.0,0.0,41.65404,-15.46986,1.71887,9.39,-1.86,0.05,2.0
1758075490.97449,1758075490.95492,0.0,0.0,0.0,43.4875,-22.23076,3.20856,9.39,-1.62,-0.04,2.0
1758075490.98907,1758075490.96492,0.0,0.0,0.0,42.68536,-23.89234,1.3178,9.39,-1.62,-0.04,2.0
1758075490.9914,1758075490.97492,0.0,0.0,0.0,42.68536,-27.33009,3.03668,9.32,-1.17,-0.07,2.0
1758075491.00733,1758075490.98492,0.0,0.0,0.0,42.97184,-20.68378,4.29718,10.27,-0.51,-0.04,2.0
1758075491.02333,1758075490.99492,0.0,0.0,0.0,42.39888,-10.19865,4.64096,10.27,-0.51,-0.04,2.0
1758075491.02466,1758075491.00492,0.0,0.0,0.0,41.31026,1.03132,4.29718,11.18,-0.08,0.1,2.0
1758075491.03935,1758075491.01492,0.0,0.0,0.0,38.84654,14.49583,1.03132,11.18,-0.08,0.1,2.0
1758075491.04065,1758075491.02492,0.0,0.0,0.0,37.75792,15.92823,-3.26586,10.74,0.09,0.11,2.0
1758075491.05736,1758075491.03492,0.0,0.0,0.0,37.52874,3.83882,-8.30789,10.74,0.09,0.11,2.0
1758075491.07332,1758075491.04492,0.0,0.0,0.0,37.58603,-14.78231,-8.93814,8.71,0.19,-0.65,2.0
1758075491.07431,1758075491.05492,0.0,0.0,0.0,39.13302,-26.24147,-7.50575,10.14,-0.25,-0.28,2.0
1758075491.0894,1758075491.06492,0.0,0.0,0.0,40.33623,-23.0329,-7.67763,10.14,-0.25,-0.28,2.0
1758075491.09031,1758075491.07492,0.0,0.0,0.0,40.96649,-18.73572,-8.76626,11.6,-0.56,0.24,2.0
1758075491.10615,1758075491.08492,0.0,0.0,0.0,40.33623,-17.18874,-9.62569,11.6,-0.56,0.24,2.0
1758075491.12209,1758075491.09492,0.0,0.0,0.0,36.89849,-21.14215,-10.31324,11.56,-0.5,2.28,2.0
1758075491.1234,1758075491.10492,0.0,0.0,0.0,33.23156,-26.01229,-8.76626,11.56,-0.5,2.28,2.0
1758075491.13843,1758075491.11492,0.0,0.0,0.0,29.39274,-36.95578,-3.55234,13.05,0.27,3.94,2.0
1758075491.15449,1758075491.12492,0.0,0.0,0.0,23.49127,-45.49285,8.99544,13.05,0.27,3.94,2.0
1758075491.15537,1758075491.13492,0.0,0.0,0.0,19.36597,-45.83662,15.29797,14.64,1.26,3.49,2.0
1758075491.17041,1758075491.14492,0.0,0.0,0.0,16.21471,-41.94051,18.16276,12.92,0.78,1.76,2.0
1758075491.17163,1758075491.15492,0.0,0.0,0.0,13.86558,-37.75792,17.36062,12.92,0.78,1.76,2.0
1758075491.18651,1758075491.16492,0.0,0.0,0.0,13.86558,-30.48136,11.17268,9.39,-0.41,1.05,2.0
1758075491.20223,1758075491.17492,0.0,0.0,0.0,16.10011,-23.37668,5.72958,9.39,-0.41,1.05,2.0
1758075491.20361,1758075491.18492,0.0,0.0,0.0,19.42327,-15.12609,-0.0573,7.94,-1.23,1.21,2.0
1758075491.21823,1758075491.19492,0.0,0.0,0.0,23.89234,-8.65166,-4.64096,7.94,-1.23,1.21,2.0
1758075491.23423,1758075491.20492,0.0,0.0,0.0,29.73651,-1.83346,-7.10468,7.22,-1.73,1.67,2.0
1758075491.23542,1758075491.21492,0.0,0.0,0.0,32.6013,2.34913,-5.95876,8.04,-1.64,2.23,2.0
1758075491.25026,1758075491.22492,0.0,0.0,0.0,34.09099,6.35983,-2.11994,8.04,-1.64,2.23,2.0
1758075491.25175,1758075491.23492,0.0,0.0,0.0,33.40344,10.71431,2.92208,10.18,-0.48,1.97,2.0
1758075491.26623,1758075491.24492,0.0,0.0,0.0,28.64789,20.45459,11.80293,10.18,-0.48,1.97,2.0
1758075491.28357,1758075491.25492,0.0,0.0,0.0,23.0329,27.10091,15.98552,12.6,1.42,1.06,2.0
1758075491.28445,1758075491.26492,0.0,0.0,0.0,17.30333,31.56997,17.99088,12.6,1.42,1.06,2.0
1758075491.29952,1758075491.27492,0.0,0.0,0.0,11.57375,34.26288,17.01685,12.44,2.43,0.7,2.0
1758075491.30045,1758075491.28492,0.0,0.0,0.0,4.35448,36.84119,13.12073,10.69,1.99,0.85,2.0
1758075491.31654,1758075491.29492,0.0,0.0,0.0,0.68755,39.53409,9.28192,10.69,1.99,0.85,2.0
1758075491.33245,1758075491.30492,0.0,0.0,0.0,-2.06265,41.88322,4.87014,9.67,1.14,1.12,2.0
1758075491.33348,1758075491.31492,0.0,0.0,0.0,-4.29718,42.28429,-0.85944,9.67,1.14,1.12,2.0
1758075491.34828,1758075491.32492,0.0,0.0,0.0,-6.58902,38.38818,-4.18259,8.98,0.44,1.33,2.0
1758075491.36435,1758075491.33492,0.0,0.0,0.0,-8.0787,33.68992,-6.58902,8.98,0.44,1.33,2.0
1758075491.36555,1758075491.34492,0.0,0.0,0.0,-9.05273,28.93437,-8.0787,8.9,0.01,1.37,2.0
1758075491.38061,1758075491.35492,0.0,0.0,0.0,-10.19865,23.72045,-8.47978,8.9,0.01,1.37,2.0
1758075491.38161,1758075491.36492,0.0,0.0,0.0,-10.59972,21.14215,-7.73493,9.47,-0.04,1.29,2.0
1758075491.39635,1758075491.37492,0.0,0.0,0.0,-11.00079,19.19409,-6.47442,9.92,0.04,1.25,2.0
1758075491.41258,1758075491.38492,0.0,0.0,0.0,-11.28727,18.10547,-4.87014,9.92,0.04,1.25,2.0
1758075491.41357,1758075491.39492,0.0,0.0,0.0,-11.86023,14.20935,-2.34913,9.92,0.05,1.12,2.0
1758075491.42863,1758075491.40492,0.0,0.0,0.0,-12.83425,10.48513,-1.03132,9.92,0.05,1.12,2.0
1758075491.44464,1758075491.41492,0.0,0.0,0.0,-14.03747,6.18794,-0.51566,9.45,0.2,1.02,2.0
1758075491.44559,1758075491.42492,0.0,0.0,0.0,-15.64175,3.89611,-0.85944,9.45,0.2,1.02,2.0
1758075491.46029,1758075491.43492,0.0,0.0,0.0,-17.81899,3.55234,-1.66158,9.35,0.52,0.75,2.0
1758075491.46237,1758075491.44492,0.0,0.0,0.0,-19.36597,3.95341,-2.7502,9.58,0.74,0.68,2.0
1758075491.47739,1758075491.45492,0.0,0.0,0.0,-21.02755,4.29718,-3.95341,9.58,0.74,0.68,2.0
1758075491.49341,1758075491.46492,0.0,0.0,0.0,-22.40265,4.18259,-4.87014,9.66,0.83,0.55,2.0
1758075491.49458,1758075491.47492,0.0,0.0,0.0,-24.29341,3.66693,-4.92744,9.66,0.83,0.55,2.0
1758075491.50968,1758075491.48492,0.0,0.0,0.0,-25.49662,1.03132,-5.4431,9.59,0.81,0.38,2.0
1758075491.51062,1758075491.49492,0.0,0.0,0.0,-26.41335,-0.80214,-6.07335,9.59,0.81,0.38,2.0
1758075491.52642,1758075491.50492,0.0,0.0,0.0,-27.04361,-2.23454,-6.24524,9.62,0.83,0.09,2.0
1758075491.54242,1758075491.51492,0.0,0.0,0.0,-26.87172,-7.21927,-5.15662,9.39,0.69,-0.21,2.0
1758075491.54386,1758075491.52492,0.0,0.0,0.0,-26.06958,-11.86023,-3.89611,9.39,0.69,-0.21,2.0
1758075491.55877,1758075491.53492,0.0,0.0,0.0,-24.5226,-14.38124,-1.94806,9.16,0.41,-0.22,2.0
1758075491.56038,1758075491.54492,0.0,0.0,0.0,-18.27736,-13.17803,2.06265,9.16,0.41,-0.22,2.0
1758075491.57676,1758075491.55492,0.0,0.0,0.0,-14.9542,-13.40721,4.29718,9.45,-0.24,-0.08,2.0
1758075491.59374,1758075491.56492,0.0,0.0,0.0,-13.23533,-21.48592,7.21927,9.45,-0.24,-0.08,2.0
1758075491.59498,1758075491.57492,0.0,0.0,0.0,-14.78231,-15.87093,3.83882,9.09,0.34,-0.2,2.0
1758075491.60949,1758075491.58492,0.0,0.0,0.0,-20.51189,-7.04738,-0.34377,9.09,0.34,-0.2,2.0
1758075491.61096,1758075491.59492,0.0,0.0,0.0,-24.75178,-2.46372,-5.21392,10.57,1.45,-0.27,2.0
1758075491.62675,1758075491.60492,0.0,0.0,0.0,-27.78845,-6.07335,-8.88085,9.68,2.01,0.42,2.0
1758075491.64376,1758075491.61492,0.0,0.0,0.0,-30.25217,-6.7609,-11.74564,9.68,2.01,0.42,2.0
1758075491.64479,1758075491.62492,0.0,0.0,0.0,-30.82513,-2.29183,-12.60507,9.91,1.68,0.12,2.0
1758075491.65968,1758075491.63492,0.0,0.0,0.0,-30.30947,-1.43239,-12.204,9.91,1.68,0.12,2.0
1758075491.6608,1758075491.64492,0.0,0.0,0.0,-28.99167,-1.3178,-11.91752,10.21,0.79,1.08,2.0
1758075491.67656,1758075491.65492,0.0,0.0,0.0,-26.98631,-1.03132,-12.204,10.21,0.79,1.08,2.0
1758075491.6938,1758075491.66492,0.0,0.0,0.0,-23.26209,0.57296,-13.69369,11.41,-0.29,1.67,2.0
1758075491.69477,1758075491.67492,0.0,0.0,0.0,-19.76705,0.11459,-14.32395,12.07,-0.95,1.51,2.0
1758075491.70978,1758075491.68492,0.0,0.0,0.0,-16.55848,-2.00535,-15.29797,12.07,-0.95,1.51,2.0
1758075491.71234,1758075491.69492,0.0,0.0,0.0,-13.34992,-3.89611,-15.41257,11.16,-0.95,1.17,2.0
1758075491.72869,1758075491.70492,0.0,0.0,0.0,-10.08406,-4.87014,-14.72501,11.16,-0.95,1.17,2.0
1758075491.7446,1758075491.71492,0.0,0.0,0.0,-8.99544,-5.50039,-13.80828,9.98,-0.51,0.8,2.0
1758075491.74683,1758075491.72492,0.0,0.0,0.0,-8.65166,-5.72958,-12.43318,9.98,-0.51,0.8,2.0
1758075491.76184,1758075491.73492,0.0,0.0,0.0,-8.88085,-6.24524,-10.31324,8.97,0.07,1.12,2.0
1758075491.76276,1758075491.74492,0.0,0.0,0.0,-10.31324,-7.73493,-8.70896,8.48,0.58,1.3,2.0
1758075491.77786,1758075491.75492,0.0,0.0,0.0,-11.80293,-9.33921,-7.62034,8.48,0.58,1.3,2.0
1758075491.79375,1758075491.76492,0.0,0.0,0.0,-13.12073,-10.8862,-6.41713,8.51,0.88,1.48,2.0
1758075491.79487,1758075491.77492,0.0,0.0,0.0,-15.24068,-14.78231,-5.55769,8.51,0.88,1.48,2.0
1758075491.80985,1758075491.78492,0.0,0.0,0.0,-16.3293,-18.10547,-5.61499,8.99,0.91,1.54,2.0
1758075491.811,1758075491.79492,0.0,0.0,0.0,-17.30333,-21.88699,-5.90147,8.99,0.91,1.54,2.0
1758075491.82852,1758075491.80492,0.0,0.0,0.0,-18.50654,-25.26744,-6.18794,9.78,0.66,1.34,2.0
1758075491.84398,1758075491.81492,0.0,0.0,0.0,-20.51189,-28.59059,-6.35983,9.78,0.66,1.19,2.0
1758075491.84488,1758075491.82492,0.0,0.0,0.0,-22.23076,-29.96569,-6.13065,10.88,0.16,1.19,2.0
1758075491.85999,1758075491.83492,0.0,0.0,0.0,-24.23611,-30.53865,-5.72958,11.61,-0.39,1.06,2.0
1758075491.86196,1758075491.84492,0.0,0.0,0.0,-26.41335,-30.76784,-4.92744,11.61,-0.39,1.06,2.0
1758075491.87793,1758075491.85492,0.0,0.0,0.0,-29.67921,-29.27814,-3.72423,11.55,-0.81,0.9,2.0
1758075491.89393,1758075491.86492,0.0,0.0,0.0,-31.85646,-27.2155,-2.92208,11.55,-0.81,0.9,2.0
1758075491.89489,1758075491.87492,0.0,0.0,0.0,-33.86181,-23.83505,-1.77617,11.05,-0.98,0.78,2.0
1758075491.90969,1758075491.88492,0.0,0.0,0.0,-35.98175,-20.62648,-0.45837,11.05,-0.98,0.78,2.0
1758075491.91092,1758075491.89492,0.0,0.0,0.0,-38.56006,-14.83961,0.74485,10.26,-1.01,0.57,2.0
1758075491.92673,1758075491.90492,0.0,0.0,0.0,-39.70598,-9.5684,1.3751,9.7,-1.12,0.39,2.0
1758075491.94298,1758075491.91492,0.0,0.0,0.0,-40.45082,-3.55234,1.60428,9.7,-1.12,0.39,2.0
1758075491.94392,1758075491.92492,0.0,0.0,0.0,-40.7946,2.63561,1.77617,9.43,-1.34,0.31,2.0
1758075491.9591,1758075491.93492,0.0,0.0,0.0,-40.10705,11.51645,1.66158,9.43,-1.34,0.31,2.0
1758075491.9751,1758075491.94492,0.0,0.0,0.0,-38.73195,17.87628,1.77617,9.44,-1.57,0.2,2.0
1758075491.97622,1758075491.95492,0.0,0.0,0.0,-36.95578,23.89234,1.77617,9.44,-1.57,0.2,2.0
1758075491.99106,1758075491.96492,0.0,0.0,0.0,-34.14828,29.9084,2.7502,9.94,-1.67,0.06,2.0
1758075491.99202,1758075491.97492,0.0,0.0,0.0,-32.48671,36.84119,3.60963,10.35,-1.52,0.0,2.0
1758075492.00709,1758075491.98492,0.0,0.0,0.0,-30.88243,40.50812,5.09932,10.35,-1.52,0.0,2.0
1758075492.0248,1758075491.99492,0.0,0.0,0.0,-29.62192,44.00316,6.47442,10.41,-1.01,0.08,2.0
1758075492.02575,1758075492.00492,0.0,0.0,0.0,-28.99167,47.67009,8.136,10.41,-1.01,0.08,2.0
1758075492.04112,1758075492.01492,0.0,0.0,0.0,-28.87707,47.61279,8.76626,10.14,-0.59,0.18,2.0
1758075492.04199,1758075492.02492,0.0,0.0,0.0,-28.99167,45.09178,8.88085,10.14,-0.59,0.18,2.0
1758075492.05707,1758075492.03492,0.0,0.0,0.0,-28.76248,40.68,8.70896,9.44,-0.45,0.34,2.0
1758075492.07307,1758075492.04492,0.0,0.0,0.0,-28.30412,34.72124,7.39116,9.18,-0.65,0.29,2.0
1758075492.07405,1758075492.05492,0.0,0.0,0.0,-27.78845,30.82513,5.95876,9.18,-0.65,0.29,2.0
1758075492.08913,1758075492.06492,0.0,0.0,0.0,-27.04361,27.33009,4.52637,9.2,-0.95,0.29,2.0
1758075492.10514,1758075492.07492,0.0,0.0,0.0,-26.06958,23.0902,2.97938,9.2,-0.95,0.29,2.0
1758075492.10613,1758075492.08492,0.0,0.0,0.0,-24.23611,16.10011,1.3178,9.08,-1.14,0.18,2.0
1758075492.12116,1758075492.09492,0.0,0.0,0.0,-22.34536,10.59972,1.03132,9.08,-1.14,0.18,2.0
1758075492.12209,1758075492.10492,0.0,0.0,0.0,-19.99623,5.61499,1.71887,9.02,-1.22,-0.02,2.0
1758075492.13688,1758075492.11492,0.0,0.0,0.0,-16.90226,2.97938,3.55234,9.02,-1.22,-0.02,2.0
1758075492.15382,1758075492.12492,0.0,0.0,0.0,-11.45916,3.38045,6.70361,9.53,-1.34,-0.02,2.0
1758075492.1551,1758075492.13492,0.0,0.0,0.0,-7.67763,3.83882,8.59437,9.85,-1.47,-0.09,2.0
1758075492.16992,1758075492.14492,0.0,0.0,0.0,-3.60963,3.32316,10.19865,9.85,-1.47,-0.09,2.0
1758075492.17137,1758075492.15492,0.0,0.0,0.0,0.40107,1.83346,11.45916,9.61,-1.45,-0.34,2.0
1758075492.18724,1758075492.16492,0.0,0.0,0.0,6.53172,-0.45837,11.51645,9.61,-1.45,-0.34,2.0
1758075492.20422,1758075492.17492,0.0,0.0,0.0,10.65701,-1.71887,10.8289,9.37,-1.41,-0.67,2.0
1758075492.20514,1758075492.18492,0.0,0.0,0.0,14.78231,-4.81285,9.39651,9.37,-1.41,-0.67,2.0
1758075492.22019,1758075492.19492,0.0,0.0,0.0,20.22541,-12.37589,5.78687,8.99,-1.36,-0.73,2.0
1758075492.22114,1758075492.20492,0.0,0.0,0.0,24.17882,-16.90226,2.97938,8.67,-1.28,-0.79,2.0
1758075492.23719,1758075492.21492,0.0,0.0,0.0,27.2155,-20.85567,-0.34377,8.67,-1.28,-0.79,2.0
1758075492.25326,1758075492.22492,0.0,0.0,0.0,31.45539,-21.7151,-3.20856,9.23,-1.31,-0.69,2.0
1758075492.25447,1758075492.23492,0.0,0.0,0.0,37.58603,-10.94349,-4.35448,9.23,-1.31,-0.69,2.0
1758075492.26927,1758075492.24492,0.0,0.0,0.0,39.87786,7.33386,-5.95876,11.26,-1.48,-0.2,2.0
1758075492.28528,1758075492.25492,0.0,0.0,0.0,41.88322,22.86102,-7.50575,11.26,-1.48,-0.2,2.0
1758075492.28664,1758075492.26492,0.0,0.0,0.0,44.46153,29.27814,-10.02676,11.87,-1.38,0.31,2.0
1758075492.30134,1758075492.27492,0.0,0.0,0.0,49.33167,-13.40721,-11.63104,7.6,-1.27,-0.12,2.0
1758075492.30249,1758075492.28492,0.0,0.0,0.0,53.97263,-50.13381,-4.0107,7.6,-1.27,-0.12,2.0
1758075492.31863,1758075492.29492,0.0,0.0,0.0,56.78012,-56.78012,2.57831,9.51,-1.91,-0.9,2.0
1758075492.33402,1758075492.30492,0.0,0.0,0.0,58.78547,-49.61814,8.25059,9.51,-1.91,-0.9,2.0
1758075492.33524,1758075492.31492,0.0,0.0,0.0,59.18654,-33.68992,12.49048,12.44,-1.7,0.12,2.0
1758075492.35007,1758075492.32492,0.0,0.0,0.0,57.18119,-30.82513,14.15206,12.44,-1.7,0.12,2.0
1758075492.35202,1758075492.33492,0.0,0.0,0.0,52.54023,-32.14294,14.78231,11.5,-1.12,1.23,2.0
1758075492.36833,1758075492.34492,0.0,0.0,0.0,45.09178,-32.54401,14.15206,11.5,-1.12,1.23,2.0
1758075492.38438,1758075492.35492,0.0,0.0,0.0,30.59595,-31.2262,13.34992,12.29,0.14,1.76,2.0
1758075492.38528,1758075492.36492,0.0,0.0,0.0,20.16812,-28.36141,13.86558,14.58,2.27,1.52,2.0
1758075492.40194,1758075492.37492,0.0,0.0,0.0,9.96947,-24.98096,15.29797,14.58,2.27,1.52,2.0
1758075492.40314,1758075492.38492,0.0,0.0,0.0,-2.97938,-23.0329,16.73037,15.23,2.92,0.8,2.0
1758075492.41808,1758075492.39492,0.0,0.0,0.0,-9.22462,-24.5226,15.24068,15.23,2.92,0.8,2.0
1758075492.43412,1758075492.40492,0.0,0.0,0.0,-13.17803,-24.17882,11.51645,12.55,0.94,0.06,2.0
1758075492.43822,1758075492.41492,0.0,0.0,0.0,-14.9542,-22.23076,5.84417,12.55,0.94,0.06,2.0
1758075492.45917,1758075492.42492,0.0,0.0,0.0,-13.23533,-20.97026,-3.83882,10.18,-0.98,0.0,2.0
1758075492.46202,1758075492.43492,0.0,0.0,0.0,-9.62569,-21.08485,-10.02676,8.23,-1.89,0.59,2.0
1758075492.46392,1758075492.44492,0.0,0.0,0.0,-4.18259,-21.42862,-14.83961,8.23,-1.89,0.59,2.0
1758075492.48338,1758075492.45492,0.0,0.0,0.0,2.40642,-21.88699,-18.50654,7.03,-2.39,1.38,2.0
1758075492.48452,1758075492.46492,0.0,0.0,0.0,14.72501,-21.08485,-20.22541,7.03,-2.39,1.38,2.0
1758075492.50171,1758075492.47492,0.0,0.0,0.0,23.83505,-20.05352,-19.13679,6.63,-2.66,2.08,2.0
1758075492.50412,1758075492.48492,0.0,0.0,0.0,32.77319,-18.16276,-15.46986,6.63,-2.66,2.08,2.0
1758075492.51946,1758075492.49492,0.0,0.0,0.0,41.02378,-14.72501,-10.71431,6.85,-2.52,2.62,2.0
1758075492.53544,1758075492.50492,0.0,0.0,0.0,51.45161,-5.55769,-0.0573,8.29,-1.72,2.37,2.0
1758075492.53585,1758075492.51492,0.0,0.0,0.0,56.14987,4.35448,8.30789,8.29,-1.72,2.37,2.0
1758075492.55228,1758075492.52492,0.0,0.0,0.0,58.84277,16.95955,17.13144,11.21,-0.27,1.47,2.0
1758075492.5532,1758075492.53492,0.0,0.0,0.0,59.81679,30.30947,26.24147,11.21,-0.27,1.47,2.0
1758075492.56819,1758075492.54492,0.0,0.0,0.0,57.18119,47.15443,35.2942,13.56,1.44,0.23,2.0
1758075492.5842,1758075492.55492,0.0,0.0,0.0,53.62885,56.89471,36.38282,13.56,1.44,0.23,2.0
1758075492.58482,1758075492.56492,0.0,0.0,0.0,49.90463,65.66096,34.26288,13.53,1.88,-0.11,2.0
1758075492.60052,1758075492.57492,0.0,0.0,0.0,46.2377,72.07809,25.72581,13.53,1.88,-0.11,2.0
1758075492.60143,1758075492.58492,0.0,0.0,0.0,41.88322,70.76029,18.33465,11.68,1.15,0.3,2.0
1758075492.61651,1758075492.59492,0.0,0.0,0.0,39.24761,66.06203,10.65701,9.43,0.77,0.74,2.0
1758075492.63253,1758075492.60492,0.0,0.0,0.0,36.84119,61.07731,3.38045,9.43,0.77,0.74,2.0
1758075492.63345,1758075492.61492,0.0,0.0,0.0,32.83048,53.68615,-4.98473,8.62,0.9,0.75,2.0
1758075492.64853,1758075492.62492,0.0,0.0,0.0,29.8511,49.04519,-8.59437,8.62,0.9,0.75,2.0
1758075492.64954,1758075492.63492,0.0,0.0,0.0,26.47065,45.03448,-10.31324,8.24,1.11,0.79,2.0
1758075492.66479,1758075492.64492,0.0,0.0,0.0,22.86102,40.96649,-10.48513,8.24,1.11,0.79,2.0
1758075492.68033,1758075492.65492,0.0,0.0,0.0,16.95955,33.9764,-8.0787,8.21,1.25,0.77,2.0
1758075492.68148,1758075492.66492,0.0,0.0,0.0,12.43318,29.04896,-5.4431,8.37,1.22,0.74,2.0
1758075492.69628,1758075492.67492,0.0,0.0,0.0,7.67763,24.5226,-2.34913,8.37,1.22,0.74,2.0
1758075492.71257,1758075492.68492,0.0,0.0,0.0,2.86479,19.82434,0.40107,8.73,1.12,0.59,2.0
1758075492.71353,1758075492.69492,0.0,0.0,0.0,-4.64096,9.33921,2.97938,8.73,1.12,0.59,2.0
1758075492.72834,1758075492.70492,0.0,0.0,0.0,-10.08406,2.40642,2.7502,8.73,1.14,0.37,2.0
1758075492.73034,1758075492.71492,0.0,0.0,0.0,-15.64175,-3.03668,0.80214,8.73,1.14,0.37,2.0
1758075492.7459,1758075492.72492,0.0,0.0,0.0,-20.85567,-6.07335,-1.83346,9.12,1.39,-0.02,2.0
1758075492.76159,1758075492.73492,0.0,0.0,0.0,-28.13223,-9.85487,-7.10468,9.53,1.66,-0.25,2.0
1758075492.76256,1758075492.74492,0.0,0.0,0.0,-33.11696,-12.71966,-10.8862,9.53,1.66,-0.25,2.0
1758075492.77734,1758075492.75492,0.0,0.0,0.0,-37.87251,-15.98552,-14.83961,9.61,1.73,-0.31,2.0
1758075492.79334,1758075492.76492,0.0,0.0,0.0,-42.39888,-19.25138,-18.56383,9.61,1.73,-0.31,2.0
1758075492.79457,1758075492.77492,0.0,0.0,0.0,-48.9879,-24.57989,-23.49127,9.65,1.68,-0.84,2.0
1758075492.80961,1758075492.78492,0.0,0.0,0.0,-52.9986,-28.76248,-25.89769,9.65,1.68,-0.84,2.0
1758075492.81164,1758075492.79492,0.0,0.0,0.0,-56.49364,-36.89849,-27.50197,9.35,1.73,-1.38,2.0
1758075492.8287,1758075492.80492,0.0,0.0,0.0,-59.64491,-49.50356,-26.81443,9.35,1.73,-1.38,2.0
1758075492.82958,1758075492.81492,0.0,0.0,0.0,-61.07731,-67.66632,-24.5226,8.06,1.72,-1.85,2.0
1758075492.8468,1758075492.82492,0.0,0.0,0.0,-62.79618,-75.05748,-20.97026,8.07,1.4,-2.15,2.0
1758075492.86237,1758075492.83492,0.0,0.0,0.0,-65.54638,-56.55093,-18.85031,8.07,1.4,-2.15,2.0
1758075492.86441,1758075492.84492,0.0,0.0,0.0,-67.15066,-11.80293,-12.77696,12.55,1.52,-1.25,2.0
1758075492.87942,1758075492.85492,0.0,0.0,0.0,-71.50513,-24.86637,-14.78231,12.55,1.52,-1.25,2.0
1758075492.88058,1758075492.86492,0.0,0.0,0.0,-74.31263,-45.09178,-16.55848,8.56,1.87,-0.06,2.0
1758075492.89599,1758075492.87492,0.0,0.0,0.0,-77.06283,-58.04062,-19.42327,8.56,1.87,-0.06,2.0
1758075492.91144,1758075492.88492,0.0,0.0,0.0,-78.20874,-62.33781,-23.49127,8.72,2.35,-0.42,2.0
1758075492.91345,1758075492.89492,0.0,0.0,0.0,-76.83365,-70.13004,-28.13223,10.72,1.91,2.58,2.0
1758075492.92871,1758075492.90492,0.0,0.0,0.0,-73.73967,-74.54182,-34.66395,10.72,1.91,2.58,2.0
1758075492.92963,1758075492.91492,0.0,0.0,0.0,-68.23928,-64.85883,-43.14373,16.05,-0.73,4.52,2.0
1758075492.94604,1758075492.92492,0.0,0.0,0.0,-53.11319,-33.80451,-50.53488,16.05,-0.73,4.52,2.0
1758075492.96177,1758075492.93492,0.0,0.0,0.0,-41.36755,-20.79837,-50.01921,18.97,-4.3,0.85,2.0
1758075492.96267,1758075492.94492,0.0,0.0,0.0,-30.53865,-20.05352,-44.46153,18.97,-4.3,0.85,2.0
1758075492.97757,1758075492.95492,0.0,0.0,0.0,-21.7151,-28.13223,-34.09099,11.77,-3.81,0.13,2.0
1758075492.9938,1758075492.96492,0.0,0.0,0.0,-13.75099,-37.24226,-15.24068,8.39,-1.61,0.58,2.0
1758075492.99505,1758075492.97492,0.0,0.0,0.0,-12.43318,-35.98175,-2.57831,8.39,-1.61,0.58,2.0
1758075493.00963,1758075492.98492,0.0,0.0,0.0,-13.98017,-33.68992,8.76626,9.42,-0.26,2.07,2.0
1758075493.01134,1758075492.99492,0.0,0.0,0.0,-18.9649,-34.26288,20.74107,9.42,-0.26,2.07,2.0
1758075493.02558,1758075493.00492,0.0,0.0,0.0,-30.30947,-35.52338,24.57989,9.52,0.74,2.3,2.0
1758075493.04157,1758075493.01492,0.0,0.0,0.0,-39.01843,-31.56997,24.63719,9.52,0.74,2.3,2.0
1758075493.04316,1758075493.02492,0.0,0.0,0.0,-48.01387,-25.49662,22.05888,10.11,1.34,0.79,2.0
1758075493.05762,1758075493.03492,0.0,0.0,0.0,-59.87409,-12.49048,13.98017,10.11,1.34,0.79,2.0
1758075493.07379,1758075493.04492,0.0,0.0,0.0,-66.29122,-1.66158,7.50575,10.08,1.11,-0.29,2.0
1758075493.07476,1758075493.05492,0.0,0.0,0.0,-70.53111,9.33921,2.29183,10.56,0.27,-0.39,2.0
1758075493.08984,1758075493.06492,0.0,0.0,0.0,-72.65105,21.14215,-1.43239,10.56,0.27,-0.39,2.0
1758075493.0908,1758075493.07492,0.0,0.0,0.0,-71.73432,35.98175,-3.95341,11.16,-1.01,-0.5,2.0
1758075493.10566,1758075493.08492,0.0,0.0,0.0,-68.41116,43.94586,-3.55234,11.16,-1.01,-0.5,2.0
1758075493.12188,1758075493.09492,0.0,0.0,0.0,-63.19725,50.76406,-1.71887,10.77,-2.14,-0.68,2.0
1758075493.12303,1758075493.10492,0.0,0.0,0.0,-58.4417,56.32175,0.17189,10.77,-2.14,-0.68,2.0
1758075493.13785,1758075493.11492,0.0,0.0,0.0,-52.54023,63.99939,2.7502,10.26,-2.56,-0.7,2.0
1758075493.15387,1758075493.12492,0.0,0.0,0.0,-49.79003,67.37984,4.18259,9.54,-1.88,-0.58,2.0
1758075493.15513,1758075493.13492,0.0,0.0,0.0,-48.07116,68.69764,5.09932,9.54,-1.88,-0.58,2.0
1758075493.16964,1758075493.14492,0.0,0.0,0.0,-47.72739,69.15601,4.87014,8.75,-1.13,-0.57,2.0
1758075493.17114,1758075493.15492,0.0,0.0,0.0,-47.72739,69.21331,3.72423,8.75,-1.13,-0.57,2.0
1758075493.1859,1758075493.16492,0.0,0.0,0.0,-47.72739,68.69764,3.03668,8.68,-0.51,-0.3,2.0
1758075493.2019,1758075493.17492,0.0,0.0,0.0,-47.44091,66.11933,2.46372,8.68,-0.51,-0.3,2.0
1758075493.2029,1758075493.18492,0.0,0.0,0.0,-46.86795,62.96807,1.43239,8.35,-0.31,-0.26,2.0
1758075493.2177,1758075493.19492,0.0,0.0,0.0,-45.49285,57.58226,-0.68755,8.36,-0.33,0.07,2.0
1758075493.23398,1758075493.20492,0.0,0.0,0.0,-43.83128,52.54023,-2.34913,8.36,-0.33,0.07,2.0
1758075493.23488,1758075493.21492,0.0,0.0,0.0,-41.71133,46.46688,-3.95341,8.29,-0.58,0.22,2.0
1758075493.24995,1758075493.22492,0.0,0.0,0.0,-37.52874,39.64868,-6.99009,8.29,-0.58,0.22,2.0
1758075493.25124,1758075493.23492,0.0,0.0,0.0,-33.86181,29.73651,-8.59437,8.43,-0.96,0.06,2.0
1758075493.26597,1758075493.24492,0.0,0.0,0.0,-29.22085,23.72045,-9.39651,8.43,-0.96,0.06,2.0
1758075493.28174,1758075493.25492,0.0,0.0,0.0,-23.66316,18.85031,-8.70896,8.94,-1.38,-0.16,2.0
1758075493.28295,1758075493.26492,0.0,0.0,0.0,-13.98017,15.75634,-5.50039,8.94,-1.38,-0.16,2.0
1758075493.29779,1758075493.27492,0.0,0.0,0.0,-6.58902,13.98017,-1.77617,9.6,-1.85,-0.74,2.0
1758075493.31378,1758075493.28492,0.0,0.0,0.0,0.45837,12.204,1.83346,9.84,-2.31,-1.17,2.0
1758075493.3161,1758075493.29492,0.0,0.0,0.0,7.62034,11.00079,5.61499,9.84,-2.31,-1.17,2.0
1758075493.33082,1758075493.30492,0.0,0.0,0.0,18.10547,8.02141,10.54242,10.02,-2.43,-1.34,2.0
1758075493.33254,1758075493.31492,0.0,0.0,0.0,24.92367,3.72423,12.89155,10.02,-2.43,-1.34,2.0
1758075493.34784,1758075493.32492,0.0,0.0,0.0,31.45539,-2.86479,14.61043,9.64,-2.38,-1.43,2.0
1758075493.3641,1758075493.33492,0.0,0.0,0.0,36.95578,-14.61043,15.87093,9.64,-2.38,-1.43,2.0
1758075493.36496,1758075493.34492,0.0,0.0,0.0,43.14373,-31.28349,14.15206,8.72,-2.24,-1.54,2.0
1758075493.38008,1758075493.35492,0.0,0.0,0.0,44.00316,-24.4653,12.08941,10.04,-1.59,-0.92,2.0
1758075493.38099,1758075493.36492,0.0,0.0,0.0,44.17505,-10.48513,10.8862,10.04,-1.59,-0.92,2.0
1758075493.39584,1758075493.37492,0.0,0.0,0.0,47.89928,2.7502,10.25595,11.88,-1.52,-0.51,2.0
1758075493.41186,1758075493.38492,0.0,0.0,0.0,50.59217,20.97026,6.7609,11.88,-1.52,-0.51,2.0
1758075493.41392,1758075493.39492,0.0,0.0,0.0,51.79538,14.32395,1.66158,11.36,-2.17,-0.09,2.0
1758075493.42914,1758075493.40492,0.0,0.0,0.0,54.60288,-13.86558,0.51566,11.36,-2.17,-0.09,2.0
1758075493.43029,1758075493.41492,0.0,0.0,0.0,55.6342,-44.51882,3.09397,7.67,-2.08,-1.1,2.0
1758075493.44598,1758075493.42492,0.0,0.0,0.0,56.03527,-58.3844,7.84952,10.85,-2.41,-1.08,2.0
1758075493.46191,1758075493.43492,0.0,0.0,0.0,52.71212,-54.3164,8.30789,10.85,-2.41,-1.08,2.0
1758075493.46344,1758075493.44492,0.0,0.0,0.0,48.9306,-48.41494,10.8289,13.36,-2.0,1.21,2.0
1758075493.47789,1758075493.45492,0.0,0.0,0.0,36.03905,-56.66553,14.38124,13.36,-2.0,1.21,2.0
1758075493.49386,1758075493.46492,0.0,0.0,0.0,23.60586,-65.2599,20.45459,14.85,0.44,4.7,2.0
1758075493.4962,1758075493.47492,0.0,0.0,0.0,9.4538,-71.50513,28.36141,14.85,0.44,4.7,2.0
1758075493.51118,1758075493.48492,0.0,0.0,0.0,-4.69825,-72.19269,36.89849,17.79,4.56,2.64,2.0
1758075493.51209,1758075493.49492,0.0,0.0,0.0,-21.42862,-63.99939,42.68536,17.79,4.56,0.39,2.0
1758075493.52719,1758075493.50492,0.0,0.0,0.0,-27.33009,-54.66018,41.08107,16.92,5.81,0.39,2.0
1758075493.54315,1758075493.51492,0.0,0.0,0.0,-27.96034,-44.63341,35.40879,11.64,1.54,0.63,2.0
1758075493.54414,1758075493.52492,0.0,0.0,0.0,-26.06958,-40.04975,26.69983,11.64,1.54,0.63,2.0
1758075493.55893,1758075493.53492,0.0,0.0,0.0,-21.6578,-37.81522,10.8862,6.96,-1.39,1.05,2.0
1758075493.56016,1758075493.54492,0.0,0.0,0.0,-16.21471,-31.2262,0.51566,6.96,-1.39,1.05,2.0
1758075493.57624,1758075493.55492,0.0,0.0,0.0,-8.25059,-25.55392,-8.36518,6.03,-2.04,2.29,2.0
1758075493.592,1758075493.56492,0.0,0.0,0.0,1.3751,-22.28806,-15.75634,6.03,-2.04,2.29,2.0
1758075493.59319,1758075493.57492,0.0,0.0,0.0,17.18874,-16.10011,-21.25674,5.68,-2.59,3.46,2.0
1758075493.6082,1758075493.58492,0.0,0.0,0.0,27.67386,-8.76626,-19.36597,6.86,-3.33,2.76,2.0
1758075493.62426,1758075493.59492,0.0,0.0,0.0,36.21093,1.08862,-15.87093,6.86,-3.33,2.76,2.0
1758075493.62517,1758075493.60492,0.0,0.0,0.0,42.22699,10.94349,-11.45916,9.55,-3.08,1.62,2.0
1758075493.64024,1758075493.61492,0.0,0.0,0.0,45.26366,29.8511,-4.69825,9.55,-3.08,1.62,2.0
1758075493.64115,1758075493.62492,0.0,0.0,0.0,44.17505,45.37826,0.0573,12.67,-0.85,0.82,2.0
1758075493.65625,1758075493.63492,0.0,0.0,0.0,40.33623,57.58226,4.69825,12.67,-0.85,0.82,2.0
1758075493.67204,1758075493.64492,0.0,0.0,0.0,32.42941,63.42643,11.17268,13.31,2.11,0.01,2.0
1758075493.67321,1758075493.65492,0.0,0.0,0.0,26.01229,70.47381,13.23533,11.28,3.16,0.28,2.0
1758075493.68831,1758075493.66492,0.0,0.0,0.0,20.11082,75.28666,13.34992,11.28,3.16,0.28,2.0
1758075493.70431,1758075493.67492,0.0,0.0,0.0,14.78231,77.17742,11.91752,9.02,2.52,0.7,2.0
1758075493.7053,1758075493.68492,0.0,0.0,0.0,7.04738,74.42722,8.136,9.02,2.52,0.7,2.0
1758075493.7203,1758075493.69492,0.0,0.0,0.0,1.94806,69.90086,4.87014,7.39,1.93,0.92,2.0
1758075493.72124,1758075493.70492,0.0,0.0,0.0,-3.55234,64.17127,0.74485,7.39,1.93,0.92,2.0
1758075493.73632,1758075493.71492,0.0,0.0,0.0,-9.22462,58.21251,-3.55234,7.17,1.46,0.93,2.0
1758075493.75234,1758075493.72492,0.0,0.0,0.0,-17.47521,48.9306,-9.85487,7.88,1.46,0.73,2.0
1758075493.75328,1758075493.73492,0.0,0.0,0.0,-22.51724,44.00316,-13.34992,7.88,1.11,0.73,2.0
1758075493.76813,1758075493.74492,0.0,0.0,0.0,-26.87172,40.7946,-15.92823,9.02,0.93,0.9,2.0
1758075493.78438,1758075493.75492,0.0,0.0,0.0,-30.99702,36.89849,-18.16276,9.02,0.93,0.9,2.0
1758075493.78532,1758075493.76492,0.0,0.0,0.0,-36.6693,28.36141,-19.88164,9.55,0.9,1.03,2.0
1758075493.80014,1758075493.77492,0.0,0.0,0.0,-40.16434,19.88164,-20.51189,9.55,0.9,1.03,2.0
1758075493.80144,1758075493.78492,0.0,0.0,0.0,-43.60209,11.51645,-20.11082,9.45,0.92,0.97,2.0
1758075493.81642,1758075493.79492,0.0,0.0,0.0,-48.35764,7.44845,-21.37133,9.45,0.92,0.97,2.0
1758075493.83239,1758075493.80492,0.0,0.0,0.0,-54.88936,3.95341,-21.7151,9.53,1.09,0.95,2.0
1758075493.83336,1758075493.81492,0.0,0.0,0.0,-58.78547,4.29718,-21.7151,9.6,1.27,0.64,2.0
1758075493.8482,1758075493.82492,0.0,0.0,0.0,-62.85347,4.46907,-21.31403,9.6,1.27,0.64,2.0
1758075493.86435,1758075493.83492,0.0,0.0,0.0,-66.40582,3.38045,-20.11082,9.34,1.32,0.15,2.0
1758075493.86539,1758075493.84492,0.0,0.0,0.0,-71.44785,-1.60428,-18.9649,9.34,1.32,0.15,2.0
1758075493.88047,1758075493.85492,0.0,0.0,0.0,-74.08345,-8.88085,-17.58981,8.72,1.24,-0.4,2.0
1758075493.88135,1758075493.86492,0.0,0.0,0.0,-76.0315,-17.81899,-15.69904,8.72,1.24,-0.4,2.0
1758075493.89619,1758075493.87492,0.0,0.0,0.0,-77.63579,-30.59595,-12.83425,8.11,1.16,-1.1,2.0
1758075493.9122,1758075493.88492,0.0,0.0,0.0,-77.17742,-41.42485,-10.54242,8.01,0.89,-1.44,2.0
1758075493.91344,1758075493.89492,0.0,0.0,0.0,-76.60446,-54.3737,-9.28192,8.01,0.89,-1.44,2.0
1758075493.9286,1758075493.90492,0.0,0.0,0.0,-76.66176,-58.3844,-4.0107,8.97,0.48,-1.58,2.0
1758075493.94426,1758075493.91492,0.0,0.0,0.0,-75.51585,-8.42248,-6.70361,8.97,0.48,-1.58,2.0
1758075493.94544,1758075493.92492,0.0,0.0,0.0,-73.3386,3.20856,-4.69825,14.25,0.05,-0.69,2.0
1758075493.96042,1758075493.93492,0.0,0.0,0.0,-74.25533,-19.70975,-9.74028,14.25,0.05,-0.69,2.0
1758075493.96144,1758075493.94492,0.0,0.0,0.0,-70.58841,-37.64333,-12.204,9.47,0.23,-0.39,2.0
1758075493.97662,1758075493.95492,0.0,0.0,0.0,-66.06203,-44.00316,-18.90761,11.2,0.74,-1.63,2.0
1758075493.9936,1758075493.96492,0.0,0.0,0.0,-60.67623,-33.74722,-19.53786,11.2,0.74,-1.63,2.0
1758075493.9949,1758075493.97492,0.0,0.0,0.0,-53.51426,-27.1582,-17.6471,12.17,0.62,0.35,2.0
1758075494.00957,1758075493.98492,0.0,0.0,0.0,-45.83662,-31.74186,-17.18874,12.17,0.62,0.35,2.0
1758075494.01051,1758075493.99492,0.0,0.0,0.0,-35.3515,-43.77398,-20.68378,12.06,0.08,3.74,2.0
1758075494.02657,1758075494.00492,0.0,0.0,0.0,-27.1582,-49.84733,-25.61122,12.06,0.08,3.74,2.0
1758075494.04232,1758075494.01492,0.0,0.0,0.0,-18.90761,-50.3057,-31.11161,15.89,-1.76,4.68,2.0
1758075494.04351,1758075494.02492,0.0,0.0,0.0,-10.31324,-44.17505,-34.72124,15.89,-1.76,4.68,2.0
1758075494.05831,1758075494.03492,0.0,0.0,0.0,0.17189,-38.90384,-34.60666,17.41,-4.05,3.28,2.0
1758075494.07433,1758075494.04492,0.0,0.0,0.0,4.58366,-48.52953,-31.2262,11.09,-3.16,1.04,2.0
1758075494.07552,1758075494.05492,0.0,0.0,0.0,6.24524,-64.45775,-26.06958,11.09,-3.16,1.04,2.0
1758075494.09037,1758075494.06492,0.0,0.0,0.0,3.55234,-74.59911,-17.81899,6.17,-0.69,1.19,2.0
1758075494.09238,1758075494.07492,0.0,0.0,0.0,-3.72423,-73.79697,-12.14671,6.17,-0.69,1.19,2.0
1758075494.10841,1758075494.08492,0.0,0.0,0.0,-15.64175,-71.21866,-7.73493,6.9,1.38,3.41,2.0
1758075494.12466,1758075494.09492,0.0,0.0,0.0,-30.02299,-70.01544,-4.52637,6.9,1.38,3.41,2.0
1758075494.12558,1758075494.10492,0.0,0.0,0.0,-51.50891,-66.69229,-4.58366,7.12,3.21,4.06,2.0
1758075494.14069,1758075494.11492,0.0,0.0,0.0,-63.65561,-58.78547,-7.33386,8.61,3.71,1.27,2.0
1758075494.14161,1758075494.12492,0.0,0.0,0.0,-73.16672,-46.35228,-10.94349,8.61,3.71,1.27,2.0
1758075494.15664,1758075494.13492,0.0,0.0,0.0,-79.64114,-32.77319,-13.5218,11.59,2.56,0.2,2.0
1758075494.17341,1758075494.14492,0.0,0.0,0.0,-82.67782,-8.0787,-16.90226,11.59,2.56,0.2,2.0
1758075494.17499,1758075494.15492,0.0,0.0,0.0,-80.78706,8.42248,-18.62113,13.98,-0.12,-0.35,2.0
1758075494.18964,1758075494.16492,0.0,0.0,0.0,-76.66176,22.05888,-19.48057,13.98,-0.12,-0.35,2.0
1758075494.19176,1758075494.17492,0.0,0.0,0.0,-70.81759,32.77319,-18.9649,13.16,-2.63,-1.47,2.0
1758075494.20769,1758075494.18492,0.0,0.0,0.0,-61.76485,49.04519,-16.04282,10.9,-3.19,-1.1,2.0
1758075494.2237,1758075494.19492,0.0,0.0,0.0,-56.32175,59.12925,-12.43318,10.9,-3.19,-1.1,2.0
1758075494.22463,1758075494.20492,0.0,0.0,0.0,-51.73809,67.37984,-8.59437,8.65,-2.28,-0.5,2.0
1758075494.23964,1758075494.21492,0.0,0.0,0.0,-47.49821,72.82294,-3.89611,8.65,-2.28,-0.5,2.0
1758075494.24062,1758075494.22492,0.0,0.0,0.0,-42.68536,79.29736,1.71887,7.34,-1.32,-0.32,2.0
1758075494.2574,1758075494.23492,0.0,0.0,0.0,-39.99245,82.16215,4.64096,7.34,-1.32,-0.32,2.0
1758075494.27371,1758075494.24492,0.0,0.0,0.0,-37.64333,82.90699,7.21927,7.66,-0.49,-0.28,2.0
1758075494.27491,1758075494.25492,0.0,0.0,0.0,-36.03905,81.64648,7.21927,7.66,-0.49,-0.28,2.0
1758075494.28947,1758075494.26492,0.0,0.0,0.0,-33.63263,72.19269,5.90147,8.24,0.02,-0.19,2.0
1758075494.29099,1758075494.27492,0.0,0.0,0.0,-31.79916,66.46311,3.09397,8.8,0.07,-0.07,2.0
1758075494.30855,1758075494.28492,0.0,0.0,0.0,-28.99167,62.5097,0.0,8.8,0.07,-0.07,2.0
1758075494.32483,1758075494.29492,0.0,0.0,0.0,-24.17882,55.6915,-3.83882,9.3,-0.25,-0.23,2.0
1758075494.32761,1758075494.30492,0.0,0.0,0.0,-20.51189,49.38896,-5.90147,9.3,-0.25,-0.23,2.0
1758075494.34283,1758075494.31492,0.0,0.0,0.0,-16.272,43.54479,-7.04738,8.67,-0.8,-0.14,2.0
1758075494.34401,1758075494.32492,0.0,0.0,0.0,-11.80293,36.89849,-6.87549,8.67,-0.8,-0.14,2.0
1758075494.35851,1758075494.33492,0.0,0.0,0.0,-3.95341,26.12688,-3.72423,8.3,-1.28,-0.29,2.0
1758075494.37455,1758075494.34492,0.0,0.0,0.0,1.71887,22.11617,-0.22918,8.51,-1.63,-0.53,2.0
1758075494.37576,1758075494.35492,0.0,0.0,0.0,8.136,21.02755,4.18259,8.51,-1.63,-0.53,2.0
1758075494.39083,1758075494.36492,0.0,0.0,0.0,14.32395,20.62648,8.76626,9.21,-1.91,-0.83,2.0
1758075494.39279,1758075494.37492,0.0,0.0,0.0,22.97561,16.38659,15.0115,9.21,-1.91,-0.83,2.0
1758075494.40856,1758075494.38492,0.0,0.0,0.0,28.93437,11.63104,18.27736,9.22,-2.08,-0.75,2.0
1758075494.42483,1758075494.39492,0.0,0.0,0.0,34.72124,5.32851,20.51189,9.22,-2.08,-0.75,2.0
1758075494.42574,1758075494.40492,0.0,0.0,0.0,40.10705,-3.49504,22.11617,9.2,-2.06,-1.07,2.0
1758075494.44087,1758075494.41492,0.0,0.0,0.0,46.1804,-26.81443,21.08485,8.27,-1.97,-1.34,2.0
1758075494.44177,1758075494.42492,0.0,0.0,0.0,50.01921,-35.2369,18.79302,8.27,-1.97,-1.34,2.0
1758075494.45686,1758075494.43492,0.0,0.0,0.0,54.08722,-31.2262,16.61578,9.63,-1.95,-1.12,2.0
1758075494.4736,1758075494.44492,0.0,0.0,0.0,58.3844,-27.10091,15.35527,9.63,-1.95,-1.12,2.0
1758075494.47515,1758075494.45492,0.0,0.0,0.0,65.2599,-14.72501,16.10011,10.44,-2.05,-0.68,2.0
1758075494.48989,1758075494.46492,0.0,0.0,0.0,66.80688,-6.99009,15.46986,10.44,-2.05,-0.68,2.0
1758075494.49161,1758075494.47492,0.0,0.0,0.0,66.635,2.6929,13.80828,11.06,-1.93,0.15,2.0
1758075494.50869,1758075494.48492,0.0,0.0,0.0,66.97877,2.63561,10.02676,11.06,-1.93,0.15,2.0
1758075494.52466,1758075494.49492,0.0,0.0,0.0,67.66632,-42.68536,9.91217,9.67,-1.59,0.02,2.0
1758075494.52588,1758075494.50492,0.0,0.0,0.0,68.64035,-77.75038,14.49583,7.13,-1.56,-1.4,2.0
1758075494.54186,1758075494.51492,0.0,0.0,0.0,68.98412,-89.49601,22.57454,7.13,-1.56,-1.4,2.0
1758075494.54285,1758075494.52492,0.0,0.0,0.0,67.66632,-82.62051,27.96034,11.44,-1.73,-0.48,2.0
1758075494.55769,1758075494.53492,0.0,0.0,0.0,65.89015,-82.7924,29.67921,11.44,-1.73,-0.48,2.0
1758075494.57379,1758075494.54492,0.0,0.0,0.0,62.16592,-88.17821,29.04896,10.72,-1.02,-0.43,2.0
1758075494.57538,1758075494.55492,0.0,0.0,0.0,56.55093,-92.41809,28.476,10.72,-1.02,-0.43,2.0
1758075494.58979,1758075494.56492,0.0,0.0,0.0,42.68536,-98.20497,25.38203,9.52,-0.2,1.2,2.0
1758075494.59092,1758075494.57492,0.0,0.0,0.0,29.22085,-102.78864,22.97561,10.14,1.49,2.79,2.0
1758075494.60671,1758075494.58492,0.0,0.0,0.0,13.46451,-111.78407,23.0329,10.14,1.49,2.79,2.0
1758075494.62308,1758075494.59492,0.0,0.0,0.0,-2.63561,-126.05071,27.84575,13.02,5.28,3.66,2.0
1758075494.62393,1758075494.60492,0.0,0.0,0.0,-18.90761,-136.24936,45.49285,13.02,5.28,3.66,2.0
1758075494.63909,1758075494.61492,0.0,0.0,0.0,-21.02755,-128.28526,56.20716,17.41,6.91,2.64,2.0
1758075494.65509,1758075494.62492,0.0,0.0,0.0,-16.04282,-113.78942,60.73353,17.41,6.91,2.64,2.0
1758075494.65597,1758075494.63492,0.0,0.0,0.0,-11.80293,-99.00711,58.55629,16.78,2.34,2.41,2.0
1758075494.67082,1758075494.64492,0.0,0.0,0.0,-3.09397,-67.03606,47.61279,12.36,-0.53,1.08,2.0
1758075494.67277,1758075494.65492,0.0,0.0,0.0,5.09932,-32.88778,36.49741,12.36,-0.53,1.08,2.0
1758075494.6881,1758075494.66492,0.0,0.0,0.0,13.86558,-2.63561,23.72045,10.27,-2.22,-0.32,2.0
1758075494.7041,1758075494.67492,0.0,0.0,0.0,21.60051,17.99088,3.89611,10.27,-2.22,-0.32,2.0
1758075494.70495,1758075494.68492,0.0,0.0,0.0,31.56997,39.70598,-8.02141,7.72,-3.43,-0.45,2.0
1758075494.71981,1758075494.69492,0.0,0.0,0.0,35.98175,57.12389,-17.87628,7.72,-3.43,-0.45,2.0
1758075494.72099,1758075494.70492,0.0,0.0,0.0,38.61736,74.65641,-23.20479,10.29,-3.48,-0.36,2.0
1758075494.7371,1758075494.71492,0.0,0.0,0.0,39.13302,89.03764,-25.49662,10.29,-3.48,-0.36,2.0
1758075494.75313,1758075494.72492,0.0,0.0,0.0,37.87251,91.043,-22.28806,12.19,-1.33,-0.21,2.0
1758075494.75439,1758075494.73492,0.0,0.0,0.0,35.40879,90.41274,-15.0115,12.81,2.15,-0.01,2.0
1758075494.76915,1758075494.74492,0.0,0.0,0.0,32.14294,89.49601,-6.07335,12.81,2.15,-0.01,2.0
1758075494.78518,1758075494.75492,0.0,0.0,0.0,26.87172,88.00632,6.13065,12.62,4.07,0.03,2.0
1758075494.78652,1758075494.76492,0.0,0.0,0.0,23.89234,85.54259,12.2613,12.62,4.07,0.03,2.0
1758075494.80118,1758075494.77492,0.0,0.0,0.0,21.42862,82.84971,16.04282,9.78,3.24,0.47,2.0
1758075494.80255,1758075494.78492,0.0,0.0,0.0,18.90761,80.0995,18.50654,9.78,3.24,0.47,2.0
1758075494.81716,1758075494.79492,0.0,0.0,0.0,14.15206,71.84892,19.53786,7.22,1.89,0.42,2.0
1758075494.83318,1758075494.80492,0.0,0.0,0.0,9.91217,64.22858,17.47521,6.03,0.9,0.47,2.0
1758075494.83413,1758075494.81492,0.0,0.0,0.0,5.15662,56.32175,14.09476,6.03,0.9,0.47,2.0
1758075494.8492,1758075494.82492,0.0,0.0,0.0,-0.11459,48.8733,9.11003,6.67,0.24,0.05,2.0
1758075494.86521,1758075494.83492,0.0,0.0,0.0,-8.0787,37.24226,1.14592,6.67,0.24,0.05,2.0
1758075494.86642,1758075494.84492,0.0,0.0,0.0,-13.23533,28.64789,-3.83882,7.61,0.02,-0.19,2.0
1758075494.88098,1758075494.85492,0.0,0.0,0.0,-17.81899,19.76705,-7.44845,7.61,0.02,-0.19,2.0
1758075494.88209,1758075494.86492,0.0,0.0,0.0,-22.28806,11.17268,-10.25595,8.19,0.3,0.01,2.0
1758075494.89697,1758075494.87492,0.0,0.0,0.0,-27.50197,-0.45837,-11.74564,8.74,0.85,-0.1,2.0
1758075494.91396,1758075494.88492,0.0,0.0,0.0,-31.2262,-2.97938,-11.86023,8.74,0.85,-0.1,2.0
1758075494.91569,1758075494.89492,0.0,0.0,0.0,-33.68992,-4.18259,-10.54242,9.57,1.35,0.05,2.0
1758075494.93031,1758075494.90492,0.0,0.0,0.0,-36.15364,-5.55769,-6.87549,9.57,1.35,0.05,2.0
1758075494.93148,1758075494.91492,0.0,0.0,0.0,-37.52874,-9.91217,-4.1253,9.81,1.34,-0.08,2.0
1758075494.94723,1758075494.92492,0.0,0.0,0.0,-38.44547,-13.40721,-2.11994,9.81,1.34,-0.08,2.0
1758075494.96413,1758075494.93492,0.0,0.0,0.0,-38.73195,-19.99623,-1.08862,9.57,1.04,-0.68,2.0
1758075494.9647,1758075494.94492,0.0,0.0,0.0,-37.64333,-38.1017,0.0,9.57,1.04,-0.68,2.0
1758075494.98026,1758075494.95492,0.0,0.0,0.0,-35.40879,-50.82136,-0.22918,8.74,0.54,-1.55,2.0
1758075494.98116,1758075494.96492,0.0,0.0,0.0,-33.80451,-62.28051,-0.68755,8.44,0.03,-2.07,2.0
1758075494.99779,1758075494.97492,0.0,0.0,0.0,-31.2262,-68.92683,-0.80214,8.44,0.03,-2.07,2.0
1758075495.01465,1758075494.98492,0.0,0.0,0.0,-30.76784,-37.75792,-1.83346,10.66,-0.13,-1.47,2.0
1758075495.015,1758075494.99492,0.0,0.0,0.0,-28.93437,-9.96947,0.0,10.66,-0.13,-1.47,2.0
1758075495.03003,1758075495.00492,0.0,0.0,0.0,-28.01764,-12.37589,-1.03132,13.25,-0.16,-0.11,2.0
1758075495.0317,1758075495.01492,0.0,0.0,0.0,-28.70519,-25.89769,-3.83882,13.25,-0.16,-0.11,2.0
1758075495.04707,1758075495.02492,0.0,0.0,0.0,-26.64254,-35.92446,-7.67763,9.7,0.7,-0.51,2.0
1758075495.06411,1758075495.03492,0.0,0.0,0.0,-24.92367,-30.93972,-8.36518,11.51,1.26,-0.8,2.0
1758075495.06461,1758075495.04492,0.0,0.0,0.0,-23.89234,-19.19409,-6.47442,11.51,1.26,-0.8,2.0
1758075495.08032,1758075495.05492,0.0,0.0,0.0,-25.26744,-8.25059,-3.09397,12.42,1.44,-0.97,2.0
1758075495.08236,1758075495.06492,0.0,0.0,0.0,-30.19488,1.3178,2.97938,12.42,1.44,-0.97,2.0
1758075495.09737,1758075495.07492,0.0,0.0,0.0,-34.0337,4.0107,7.39116,10.99,1.53,-0.86,2.0
1758075495.11336,1758075495.08492,0.0,0.0,0.0,-37.64333,4.92744,11.63104,10.99,1.53,-0.86,2.0
1758075495.11553,1758075495.09492,0.0,0.0,0.0,-41.94051,1.43239,13.12073,9.71,1.11,0.11,2.0
1758075495.12932,1758075495.10492,0.0,0.0,0.0,-47.72739,-17.6471,9.96947,9.23,0.55,1.01,2.0
1758075495.14536,1758075495.11492,0.0,0.0,0.0,-50.2484,-33.46074,4.29718,9.23,0.55,1.01,2.0
1758075495.14583,1758075495.12492,0.0,0.0,0.0,-51.50891,-46.46688,-1.48969,10.25,0.32,1.59,2.0
1758075495.16141,1758075495.13492,0.0,0.0,0.0,-50.01921,-56.78012,-8.136,10.25,0.32,1.59,2.0
1758075495.16233,1758075495.14492,0.0,0.0,0.0,-48.41494,-63.54102,-11.74564,11.72,0.09,1.36,2.0
1758075495.17745,1758075495.15492,0.0,0.0,0.0,-47.78468,-71.84892,-15.06879,11.72,0.09,1.36,2.0
1758075495.19319,1758075495.16492,0.0,0.0,0.0,-48.64412,-78.38063,-17.24603,11.68,0.05,1.29,2.0
1758075495.1948,1758075495.17492,0.0,0.0,0.0,-53.28508,-80.78706,-15.98552,11.68,0.05,1.59,2.0
1758075495.20946,1758075495.18492,0.0,0.0,0.0,-59.07195,-80.27139,-12.89155,10.94,0.48,1.59,2.0
1758075495.21031,1758075495.19492,0.0,0.0,0.0,-66.74959,-79.52654,-9.39651,9.34,0.89,2.39,2.0
1758075495.22582,1758075495.20492,0.0,0.0,0.0,-75.51585,-76.83365,-6.87549,9.34,0.89,2.39,2.0
1758075495.2435,1758075495.21492,0.0,0.0,0.0,-88.63658,-63.25455,-4.98473,8.83,1.16,1.67,2.0
1758075495.24466,1758075495.22492,0.0,0.0,0.0,-95.85584,-49.56085,-4.92744,8.83,1.16,1.67,2.0
1758075495.25948,1758075495.23492,0.0,0.0,0.0,-100.66869,-32.20023,-4.87014,9.81,0.4,-0.6,2.0
1758075495.26068,1758075495.24492,0.0,0.0,0.0,-102.90323,-14.20935,-4.58366,9.81,0.4,-0.6,2.0
1758075495.27576,1758075495.25492,0.0,0.0,0.0,-102.44486,12.71966,-4.23989,11.23,-0.7,-1.84,2.0
1758075495.29128,1758075495.26492,0.0,0.0,0.0,-100.09573,30.30947,-4.23989,12.19,-1.74,-2.08,2.0
1758075495.2924,1758075495.27492,0.0,0.0,0.0,-96.42879,45.60744,-3.83882,12.19,-1.74,-2.08,2.0
1758075495.30834,1758075495.28492,0.0,0.0,0.0,-92.70457,59.47303,-3.83882,11.96,-2.24,-2.07,2.0
1758075495.30924,1758075495.29492,0.0,0.0,0.0,-85.94368,74.94289,-3.03668,11.96,-2.24,-2.07,2.0
1758075495.3259,1758075495.30492,0.0,0.0,0.0,-81.18813,79.06818,-2.06265,11.22,-2.32,-1.47,2.0
1758075495.34147,1758075495.31492,0.0,0.0,0.0,-76.83365,79.18277,-0.80214,11.22,-2.32,-1.47,2.0
1758075495.34252,1758075495.32492,0.0,0.0,0.0,-71.56243,76.60446,0.11459,10.03,-2.29,-1.11,2.0
1758075495.35835,1758075495.33492,0.0,0.0,0.0,-67.89551,72.99483,0.34377,9.31,-2.16,-1.13,2.0
1758075495.35958,1758075495.34492,0.0,0.0,0.0,-64.85883,71.44785,1.20321,9.31,-2.16,-1.13,2.0
1758075495.37551,1758075495.35492,0.0,0.0,0.0,-61.07731,70.58841,2.86479,8.96,-1.88,-1.26,2.0
1758075495.39237,1758075495.36492,0.0,0.0,0.0,-56.49364,67.66632,4.98473,8.96,-1.88,-1.26,2.0
1758075495.39331,1758075495.37492,0.0,0.0,0.0,-53.05589,65.03072,6.7609,8.48,-1.33,-1.08,2.0
1758075495.4086,1758075495.38492,0.0,0.0,0.0,-49.21708,62.79618,8.70896,8.48,-1.33,-1.08,2.0
1758075495.4095,1758075495.39492,0.0,0.0,0.0,-44.9199,59.75951,10.48513,8.56,-0.96,-1.09,2.0
1758075495.42573,1758075495.40492,0.0,0.0,0.0,-38.44547,53.68615,11.80293,8.72,-0.96,-1.08,2.0
1758075495.44137,1758075495.41492,0.0,0.0,0.0,-33.05967,49.38896,11.91752,8.72,-1.01,-1.08,2.0
1758075495.44256,1758075495.42492,0.0,0.0,0.0,-27.2155,45.09178,11.63104,9.12,-1.38,-1.19,2.0
1758075495.45766,1758075495.43492,0.0,0.0,0.0,-20.85567,39.70598,10.8289,9.12,-1.38,-1.19,2.0
1758075495.47338,1758075495.44492,0.0,0.0,0.0,-11.86023,37.01308,9.39651,9.34,-1.98,-1.31,2.0
1758075495.47509,1758075495.45492,0.0,0.0,0.0,-5.90147,37.98711,8.47978,9.34,-1.98,-1.31,2.0
1758075495.4897,1758075495.46492,0.0,0.0,0.0,-0.22918,37.98711,7.16197,9.6,-2.47,-1.16,2.0
1758075495.49058,1758075495.47492,0.0,0.0,0.0,5.09932,36.21093,5.55769,9.6,-2.47,-1.16,2.0
1758075495.50568,1758075495.48492,0.0,0.0,0.0,13.12073,31.11161,3.60963,9.16,-2.59,-0.96,2.0
1758075495.52178,1758075495.49492,0.0,0.0,0.0,18.56383,24.98096,2.63561,8.63,-2.48,-1.19,2.0
1758075495.52264,1758075495.50492,0.0,0.0,0.0,24.17882,17.47521,2.29183,8.63,-2.48,-1.19,2.0
1758075495.5377,1758075495.51492,0.0,0.0,0.0,29.67921,5.4431,3.26586,8.02,-2.09,-1.57,2.0
1758075495.55368,1758075495.52492,0.0,0.0,0.0,37.24226,-14.61043,2.34913,8.02,-2.09,-1.57,2.0
1758075495.55469,1758075495.53492,0.0,0.0,0.0,43.14373,-13.86558,2.46372,8.24,-1.64,-2.03,2.0
1758075495.56982,1758075495.54492,0.0,0.0,0.0,47.67009,-6.13065,3.32316,8.24,-1.64,-2.03,2.0
1758075495.57073,1758075495.55492,0.0,0.0,0.0,52.19646,14.38124,6.18794,10.87,-1.51,-1.02,2.0
1758075495.58571,1758075495.56492,0.0,0.0,0.0,54.3164,29.8511,8.36518,12.57,-1.41,-0.02,2.0
1758075495.60171,1758075495.57492,0.0,0.0,0.0,52.54023,28.13223,3.89611,12.57,-1.41,-0.02,2.0
1758075495.60296,1758075495.58492,0.0,0.0,0.0,54.71747,-15.58445,5.61499,8.14,-1.15,0.07,2.0
1758075495.61749,1758075495.59492,0.0,0.0,0.0,55.6915,-72.13539,10.8862,8.14,-1.15,0.07,2.0
1758075495.63355,1758075495.60492,0.0,0.0,0.0,55.06125,-80.72976,16.90226,8.8,-1.48,-1.8,2.0
1758075495.63526,1758075495.61492,0.0,0.0,0.0,55.34772,-75.05748,20.22541,8.8,-1.48,-1.8,2.0
1758075495.64958,1758075495.62492,0.0,0.0,0.0,54.48829,-67.37984,22.40265,12.05,-1.2,-0.29,2.0
1758075495.65075,1758075495.63492,0.0,0.0,0.0,51.22243,-64.22858,20.62648,10.9,-0.25,-0.52,2.0
1758075495.66557,1758075495.64492,0.0,0.0,0.0,46.98254,-61.30648,17.53251,10.9,-0.25,-0.52,2.0
1758075495.68156,1758075495.65492,0.0,0.0,0.0,41.88322,-58.04062,12.60507,10.29,0.56,-1.36,2.0
1758075495.68319,1758075495.66492,0.0,0.0,0.0,36.32552,-53.91533,6.7609,10.29,0.56,-1.36,2.0
1758075495.69763,1758075495.67492,0.0,0.0,0.0,26.87172,-40.7373,-2.06265,10.47,1.09,-0.62,2.0
1758075495.71365,1758075495.68492,0.0,0.0,0.0,20.45459,-32.6013,-6.8182,10.47,1.09,-0.62,2.0
1758075495.71477,1758075495.69492,0.0,0.0,0.0,14.09476,-30.36677,-8.42248,11.83,1.6,-0.04,2.0
1758075495.72964,1758075495.70492,0.0,0.0,0.0,7.73493,-36.95578,-7.62034,11.83,1.6,-0.04,2.0
1758075495.73109,1758075495.71492,0.0,0.0,0.0,4.64096,-56.14987,1.60428,11.59,1.24,0.98,2.0
1758075495.74584,1758075495.72492,0.0,0.0,0.0,5.95876,-56.55093,9.74028,13.32,-0.17,2.14,2.0
1758075495.76186,1758075495.73492,0.0,0.0,0.0,7.39116,-49.67545,16.50119,13.32,-0.17,2.14,2.0
1758075495.76274,1758075495.74492,0.0,0.0,0.0,6.58902,-41.88322,21.37133,14.6,-0.84,1.49,2.0
1758075495.77797,1758075495.75492,0.0,0.0,0.0,7.33386,-33.00237,21.6578,14.6,-0.84,1.49,2.0
1758075495.79388,1758075495.76492,0.0,0.0,0.0,9.05273,-24.80907,20.05352,11.25,-0.86,1.71,2.0
1758075495.79521,1758075495.77492,0.0,0.0,0.0,12.77696,-15.06879,17.81899,11.25,-0.86,1.71,2.0
1758075495.8099,1758075495.78492,0.0,0.0,0.0,20.11082,2.11994,13.75099,8.62,-1.15,1.99,2.0
1758075495.8111,1758075495.79492,0.0,0.0,0.0,25.49662,11.80293,11.17268,7.4,-1.57,1.81,2.0
1758075495.82562,1758075495.80492,0.0,0.0,0.0,29.96569,20.79837,8.59437,7.4,-1.57,1.81,2.0
1758075495.84166,1758075495.81492,0.0,0.0,0.0,33.17426,28.93437,5.61499,8.16,-1.82,1.39,2.0
1758075495.84284,1758075495.82492,0.0,0.0,0.0,33.63263,45.83662,2.06265,8.16,-1.82,1.39,2.0
1758075495.85793,1758075495.83492,0.0,0.0,0.0,30.99702,56.952,1.08862,11.09,-1.0,0.78,2.0
1758075495.8738,1758075495.84492,0.0,0.0,0.0,26.06958,63.02536,0.51566,11.09,-1.0,0.78,2.0
1758075495.8752,1758075495.85492,0.0,0.0,0.0,19.82434,63.8275,0.17189,12.84,1.01,-0.05,2.0
1758075495.88977,1758075495.86492,0.0,0.0,0.0,9.68299,62.16592,0.45837,12.53,2.37,0.11,2.0
1758075495.8909,1758075495.87492,0.0,0.0,0.0,3.49504,62.05133,0.40107,12.53,2.37,0.11,2.0
1758075495.90603,1758075495.88492,0.0,0.0,0.0,-1.94806,61.99404,-0.0573,11.03,2.22,0.61,2.0
1758075495.92198,1758075495.89492,0.0,0.0,0.0,-7.16197,59.24384,-1.03132,11.03,2.22,0.61,2.0
1758075495.92333,1758075495.90492,0.0,0.0,0.0,-14.66772,54.77477,-2.57831,8.9,1.63,0.91,2.0
1758075495.93774,1758075495.91492,0.0,0.0,0.0,-19.59516,48.41494,-3.32316,8.9,1.63,0.91,2.0
1758075495.95405,1758075495.92492,0.0,0.0,0.0,-25.09555,41.13837,-4.29718,7.73,1.22,1.02,2.0
1758075495.95494,1758075495.93492,0.0,0.0,0.0,-31.16891,33.86181,-5.09932,7.73,1.22,1.02,2.0
1758075495.96998,1758075495.94492,0.0,0.0,0.0,-40.50812,21.7724,-6.58902,7.71,1.03,0.85,2.0
1758075495.97095,1758075495.95492,0.0,0.0,0.0,-47.09713,13.86558,-7.84952,8.31,1.08,0.76,2.0
1758075495.98594,1758075495.96492,0.0,0.0,0.0,-54.08722,6.87549,-10.08406,8.31,1.08,0.76,2.0
1758075496.00191,1758075495.97492,0.0,0.0,0.0,-64.51505,-1.94806,-14.78231,8.98,1.42,0.43,2.0
1758075496.00292,1758075495.98492,0.0,0.0,0.0,-71.50513,-3.89611,-17.53251,8.98,1.42,0.43,2.0
1758075496.01779,1758075495.99492,0.0,0.0,0.0,-78.839,-1.43239,-22.34536,9.51,1.76,-0.11,2.0
1758075496.03391,1758075496.00492,0.0,0.0,0.0,-84.79775,1.14592,-25.55392,9.51,1.76,-0.11,2.0
1758075496.03523,1758075496.01492,0.0,0.0,0.0,-92.3035,2.46372,-29.67921,9.99,1.88,-0.34,2.0
1758075496.04981,1758075496.02492,0.0,0.0,0.0,-95.91314,3.72423,-31.62727,10.1,1.75,-0.76,2.0
1758075496.05364,1758075496.03492,0.0,0.0,0.0,-98.54874,4.58366,-33.00237,10.1,1.75,-0.76,2.0
1758075496.06913,1758075496.04492,0.0,0.0,0.0,-99.69466,4.87014,-33.00237,10.37,1.38,-0.85,2.0
1758075496.07,1758075496.05492,0.0,0.0,0.0,-95.79855,5.4431,-29.73651,10.37,1.38,-0.85,2.0
1758075496.08594,1758075496.06492,0.0,0.0,0.0,-89.26682,7.84952,-24.63719,10.13,0.34,-0.52,2.0
1758075496.10179,1758075496.07492,0.0,0.0,0.0,-85.14153,3.55234,-20.68378,10.13,0.34,-0.52,2.0
1758075496.10304,1758075496.08492,0.0,0.0,0.0,-83.02158,-8.47978,-17.81899,9.29,-0.28,-0.98,2.0
1758075496.11786,1758075496.09492,0.0,0.0,0.0,-81.76109,-28.99167,-14.49583,7.91,0.48,-2.1,2.0
1758075496.13386,1758075496.10492,0.0,0.0,0.0,-81.5319,-37.92981,-11.34457,7.91,0.48,-2.1,2.0
1758075496.13542,1758075496.11492,0.0,0.0,0.0,-82.04756,-11.97482,-8.42248,10.36,0.93,-1.3,2.0
1758075496.14982,1758075496.12492,0.0,0.0,0.0,-84.1675,11.63104,-9.05273,10.36,0.93,-1.3,2.0
1758075496.15106,1758075496.13492,0.0,0.0,0.0,-92.99106,-3.26586,-17.58981,10.3,1.48,-0.4,2.0
1758075496.16587,1758075496.14492,0.0,0.0,0.0,-97.11635,-25.09555,-22.74642,10.3,1.48,-0.4,2.0
1758075496.18295,1758075496.15492,0.0,0.0,0.0,-100.03843,-34.37747,-27.44468,7.64,2.25,-0.69,2.0
1758075496.18416,1758075496.16492,0.0,0.0,0.0,-101.41353,-26.06958,-28.30412,7.64,2.25,-0.69,2.0
1758075496.19922,1758075496.17492,0.0,0.0,0.0,-102.44486,-12.49048,-26.81443,10.22,2.28,-1.53,2.0
1758075496.20009,1758075496.18492,0.0,0.0,0.0,-103.1897,-11.34457,-23.89234,8.99,2.03,-0.35,2.0
1758075496.21621,1758075496.19492,0.0,0.0,0.0,-103.47618,-15.75634,-20.51189,8.99,2.03,-0.35,2.0
1758075496.23205,1758075496.20492,0.0,0.0,0.0,-101.41353,-27.67386,-16.21471,8.39,1.34,1.45,2.0
1758075496.23317,1758075496.21492,0.0,0.0,0.0,-99.00711,-39.99245,-15.41257,8.39,1.34,1.45,2.0
1758075496.24827,1758075496.22492,0.0,0.0,0.0,-95.56937,-49.21708,-17.18874,10.76,-0.92,1.38,2.0
1758075496.26415,1758075496.23492,0.0,0.0,0.0,-89.95438,-49.96192,-19.53786,10.76,-0.92,1.38,2.0
1758075496.26514,1758075496.24492,0.0,0.0,0.0,-78.03686,-46.1231,-21.02755,16.18,-3.72,1.65,2.0
1758075496.28018,1758075496.25492,0.0,0.0,0.0,-70.30193,-50.64947,-20.74107,15.58,-3.53,0.32,2.0
1758075496.28114,1758075496.26492,0.0,0.0,0.0,-64.11398,-56.60823,-18.62113,15.58,-3.53,0.32,2.0
1758075496.29623,1758075496.27492,0.0,0.0,0.0,-60.67623,-61.36378,-14.9542,10.83,-0.8,-0.09,2.0
1758075496.31324,1758075496.28492,0.0,0.0,0.0,-57.92604,-66.17663,-8.25059,10.83,-0.8,-0.09,2.0
1758075496.31418,1758075496.29492,0.0,0.0,0.0,-57.41038,-64.85883,-3.66693,8.88,1.15,-0.12,2.0
1758075496.3293,1758075496.30492,0.0,0.0,0.0,-57.92604,-60.90542,0.22918,8.88,1.15,-0.12,2.0
1758075496.33019,1758075496.31492,0.0,0.0,0.0,-59.35843,-57.52497,3.49504,8.79,1.62,0.15,2.0
1758075496.34601,1758075496.32492,0.0,0.0,0.0,-63.02536,-49.90463,5.32851,8.56,1.1,-0.43,2.0
1758075496.36204,1758075496.33492,0.0,0.0,0.0,-67.37984,-41.59674,5.61499,8.56,1.1,-0.43,2.0
1758075496.36323,1758075496.34492,0.0,0.0,0.0,-72.30728,-31.85646,5.72958,8.53,0.27,-1.18,2.0
1758075496.37831,1758075496.35492,0.0,0.0,0.0,-77.23472,-20.85567,5.4431,8.53,0.27,-1.18,2.0
1758075496.39402,1758075496.36492,0.0,0.0,0.0,-84.45398,-4.23989,4.98473,8.55,-0.72,-1.18,2.0
1758075496.39525,1758075496.37492,0.0,0.0,0.0,-88.52198,6.35983,4.46907,8.55,-0.72,-1.18,2.0
1758075496.41009,1758075496.38492,0.0,0.0,0.0,-91.38677,16.50119,3.38045,8.96,-1.65,-1.09,2.0
1758075496.41128,1758075496.39492,0.0,0.0,0.0,-93.44942,29.62192,0.68755,8.96,-1.65,-1.09,2.0
1758075496.42613,1758075496.40492,0.0,0.0,0.0,-92.81918,36.84119,-1.3751,9.82,-2.19,-1.06,2.0
1758075496.44259,1758075496.41492,0.0,0.0,0.0,-90.58463,43.65939,-2.6929,10.79,-2.12,-1.22,2.0
1758075496.44371,1758075496.42492,0.0,0.0,0.0,-87.89172,49.15978,-3.66693,10.79,-2.12,-1.22,2.0
1758075496.45815,1758075496.43492,0.0,0.0,0.0,-83.59455,55.06125,-4.1253,11.52,-1.77,-1.57,2.0
1758075496.4741,1758075496.44492,0.0,0.0,0.0,-81.24542,55.6915,-4.29718,11.52,-1.77,-1.57,2.0
1758075496.47579,1758075496.45492,0.0,0.0,0.0,-79.06818,54.88936,-3.95341,11.68,-1.35,-1.48,2.0
1758075496.49338,1758075496.46492,0.0,0.0,0.0,-76.60446,52.65482,-3.09397,11.68,-1.35,-1.48,2.0
1758075496.49475,1758075496.47492,0.0,0.0,0.0,-71.04677,47.38361,0.34377,11.54,-1.24,-1.21,2.0
1758075496.5135,1758075496.48492,0.0,0.0,0.0,-66.06203,43.77398,3.60963,11.08,-1.51,-0.79,2.0
1758075496.51433,1758075496.49492,0.0,0.0,0.0,-59.70221,39.70598,7.16197,11.08,-1.51,-0.79,2.0
1758075496.52918,1758075496.50492,0.0,0.0,0.0,-52.19646,36.89849,11.22997,10.3,-1.88,-0.67,2.0
1758075496.53034,1758075496.51492,0.0,0.0,0.0,-40.62271,31.91375,18.44924,10.3,-1.88,-0.67,2.0
1758075496.54826,1758075496.52492,0.0,0.0,0.0,-32.88778,27.44468,22.63183,9.8,-2.26,-0.71,2.0
1758075496.56425,1758075496.53492,0.0,0.0,0.0,-25.49662,23.0329,26.41335,9.8,-2.26,-0.71,2.0
1758075496.5662,1758075496.54492,0.0,0.0,0.0,-18.9649,19.25138,29.22085,9.58,-2.42,-0.78,2.0
1758075496.58122,1758075496.55492,0.0,0.0,0.0,-10.59972,14.78231,31.39809,9.72,-2.3,-0.76,2.0
1758075496.58317,1758075496.56492,0.0,0.0,0.0,-6.41713,10.02676,31.91375,9.72,-2.3,-0.76,2.0
1758075496.59821,1758075496.57492,0.0,0.0,0.0,-3.49504,4.92744,31.79916,9.37,-1.9,-0.78,2.0
1758075496.61424,1758075496.58492,0.0,0.0,0.0,-1.3178,4.18259,28.36141,9.37,-1.9,-0.78,2.0
1758075496.61583,1758075496.59492,0.0,0.0,0.0,-0.45837,10.37054,25.8404,9.76,-1.36,-0.78,2.0
1758075496.6305,1758075496.60492,0.0,0.0,0.0,0.22918,17.36062,23.89234,9.76,-1.36,-0.78,2.0
1758075496.63171,1758075496.61492,0.0,0.0,0.0,1.20321,23.94964,22.28806,10.24,-0.92,-0.62,2.0
1758075496.64655,1758075496.62492,0.0,0.0,0.0,1.71887,37.64333,19.48057,10.24,-0.92,-0.62,2.0
1758075496.66353,1758075496.63492,0.0,0.0,0.0,1.83346,48.12846,16.67307,10.21,-0.71,-0.55,2.0
1758075496.66477,1758075496.64492,0.0,0.0,0.0,2.23454,55.57691,13.69369,10.12,-0.66,-0.54,2.0
1758075496.6795,1758075496.65492,0.0,0.0,0.0,3.60963,55.11855,9.68299,10.12,-0.66,-0.54,2.0
1758075496.68075,1758075496.66492,0.0,0.0,0.0,7.96411,31.97105,3.26586,8.42,-0.93,-0.39,2.0
1758075496.69748,1758075496.67492,0.0,0.0,0.0,14.15206,4.64096,4.87014,8.42,-0.93,-0.39,2.0
1758075496.71336,1758075496.68492,0.0,0.0,0.0,19.36597,-15.46986,7.73493,7.04,-1.52,-1.06,2.0
1758075496.7145,1758075496.69492,0.0,0.0,0.0,25.09555,-18.44924,10.37054,7.04,-1.52,-1.06,2.0
1758075496.72962,1758075496.70492,0.0,0.0,0.0,32.54401,-12.43318,13.34992,10.2,-1.95,-0.7,2.0
1758075496.73185,1758075496.71492,0.0,0.0,0.0,36.6693,-9.22462,14.83961,10.77,-1.76,0.13,2.0
1758075496.7484,1758075496.72492,0.0,0.0,0.0,39.13302,-7.67763,15.58445,10.77,-1.76,0.13,2.0
1758075496.76433,1758075496.73492,0.0,0.0,0.0,39.76327,-8.0787,15.46986,10.2,-1.09,0.03,2.0
1758075496.76634,1758075496.74492,0.0,0.0,0.0,38.38818,-8.70896,14.43854,10.2,-1.09,0.03,2.0
1758075496.7814,1758075496.75492,0.0,0.0,0.0,36.49741,-8.36518,13.80828,9.92,-0.25,-0.17,2.0
1758075496.7828,1758075496.76492,0.0,0.0,0.0,33.86181,-7.73493,14.32395,9.92,-0.25,-0.17,2.0
1758075496.79739,1758075496.77492,0.0,0.0,0.0,30.93972,-6.53172,15.24068,10.27,0.26,-0.26,2.0
1758075496.81341,1758075496.78492,0.0,0.0,0.0,25.8404,-2.97938,17.13144,10.65,0.26,-0.45,2.0
1758075496.81487,1758075496.79492,0.0,0.0,0.0,22.40265,-0.17189,18.16276,10.65,0.26,-0.45,2.0
1758075496.82969,1758075496.80492,0.0,0.0,0.0,18.90761,2.86479,18.10547,10.71,-0.12,-0.75,2.0
1758075496.83305,1758075496.81492,0.0,0.0,0.0,14.09476,7.33386,16.84496,10.71,-0.12,-0.75,2.0
1758075496.8494,1758075496.82492,0.0,0.0,0.0,11.28727,12.08941,15.41257,10.78,-0.49,-0.14,2.0
1758075496.85067,1758075496.83492,0.0,0.0,0.0,8.36518,16.10011,13.06344,10.78,-0.49,-0.14,2.0
1758075496.86845,1758075496.84492,0.0,0.0,0.0,5.72958,17.76169,11.17268,11.49,-0.46,0.37,2.0
1758075496.88475,1758075496.85492,0.0,0.0,0.0,1.66158,16.67307,8.65166,11.49,-0.46,0.58,2.0
1758075496.88644,1758075496.86492,0.0,0.0,0.0,-0.17189,10.8289,7.73493,12.12,-0.35,0.58,2.0
1758075496.9014,1758075496.87492,0.0,0.0,0.0,-1.43239,3.60963,7.67763,11.8,-0.63,0.42,2.0
1758075496.90263,1758075496.88492,0.0,0.0,0.0,-2.23454,-0.0573,7.50575,11.8,-0.63,0.42,2.0
1758075496.91749,1758075496.89492,0.0,0.0,0.0,-2.57831,-0.22918,6.8182,11.63,-1.13,-0.08,2.0
1758075496.93353,1758075496.90492,0.0,0.0,0.0,-2.11994,1.66158,5.4431,11.63,-1.13,-0.08,2.0
1758075496.93468,1758075496.91492,0.0,0.0,0.0,-1.14592,4.29718,3.49504,10.51,-1.44,-0.51,2.0
1758075496.94947,1758075496.92492,0.0,0.0,0.0,0.51566,5.4431,0.74485,10.51,-1.44,-0.51,2.0
1758075496.95097,1758075496.93492,0.0,0.0,0.0,4.64096,3.38045,-3.26586,9.17,-1.45,-0.5,2.0
1758075496.96837,1758075496.94492,0.0,0.0,0.0,8.47978,0.80214,-5.50039,8.5,-1.33,0.07,2.0
1758075496.98383,1758075496.95492,0.0,0.0,0.0,13.23533,-2.7502,-6.70361,8.5,-1.33,0.07,2.0
1758075496.98505,1758075496.96492,0.0,0.0,0.0,19.13679,-8.47978,-6.99009,8.46,-1.35,1.19,2.0
1758075496.99951,1758075496.97492,0.0,0.0,0.0,29.10626,-17.36062,-5.55769,8.46,-1.35,1.19,2.0
1758075497.00105,1758075496.98492,0.0,0.0,0.0,36.55471,-22.00158,-2.92208,8.77,-1.47,2.3,2.0
1758075497.01681,1758075496.99492,0.0,0.0,0.0,44.00316,-25.89769,1.03132,8.77,-1.47,2.3,2.0
1758075497.03381,1758075497.00492,0.0,0.0,0.0,53.80074,-27.10091,8.70896,9.28,-1.5,2.79,2.0
1758075497.03478,1758075497.01492,0.0,0.0,0.0,59.18654,-22.97561,14.20935,9.8,-1.19,2.25,2.0
1758075497.04982,1758075497.02492,0.0,0.0,0.0,63.65561,-16.61578,20.11082,9.8,-1.19,2.25,2.0
1758075497.05078,1758075497.03492,0.0,0.0,0.0,66.74959,-8.25059,24.98096,10.43,-0.65,1.57,2.0
1758075497.06676,1758075497.04492,0.0,0.0,0.0,68.69764,7.67763,29.22085,10.43,-0.65,1.57,2.0
1758075497.08383,1758075497.05492,0.0,0.0,0.0,68.23928,18.16276,31.11161,11.16,-0.21,1.22,2.0
1758075497.0848,1758075497.06492,0.0,0.0,0.0,66.29122,25.49662,29.96569,11.16,-0.21,1.22,2.0
1758075497.0999,1758075497.07492,0.0,0.0,0.0,63.25455,32.54401,27.04361,11.1,0.02,0.7,2.0
1758075497.1008,1758075497.08492,0.0,0.0,0.0,57.81144,44.11775,19.53786,11.3,0.02,0.34,2.0
1758075497.1177,1758075497.09492,0.0,0.0,0.0,54.14451,50.13381,13.00614,11.3,0.46,0.34,2.0
1758075497.13368,1758075497.10492,0.0,0.0,0.0,50.53488,52.48294,6.70361,10.41,1.0,0.18,2.0
1758075497.13526,1758075497.11492,0.0,0.0,0.0,47.15443,50.87865,0.57296,10.41,1.0,0.18,2.0
1758075497.14987,1758075497.12492,0.0,0.0,0.0,42.39888,45.03448,-5.55769,9.27,1.43,0.35,2.0
1758075497.15111,1758075497.13492,0.0,0.0,0.0,39.07573,40.68,-7.73493,9.27,1.43,0.35,2.0
1758075497.16776,1758075497.14492,0.0,0.0,0.0,35.2369,36.03905,-8.65166,8.76,1.53,0.36,2.0
1758075497.18369,1758075497.15492,0.0,0.0,0.0,30.30947,32.14294,-8.76626,8.76,1.53,0.36,2.0
1758075497.18488,1758075497.16492,0.0,0.0,0.0,20.62648,25.21014,-8.88085,8.6,1.54,0.4,2.0
1758075497.19996,1758075497.17492,0.0,0.0,0.0,13.06344,16.73037,-9.33921,8.31,1.68,0.0,2.0
1758075497.20087,1758075497.18492,0.0,0.0,0.0,4.58366,8.136,-9.39651,8.31,1.68,0.0,2.0
1758075497.21776,1758075497.19492,0.0,0.0,0.0,-5.78687,6.13065,-13.5218,8.65,2.11,-0.24,2.0
1758075497.23365,1758075497.20492,0.0,0.0,0.0,-19.88164,5.90147,-17.53251,8.65,2.11,-0.24,2.0
1758075497.23492,1758075497.21492,0.0,0.0,0.0,-28.24682,5.27121,-21.02755,9.5,2.55,-0.39,2.0
1758075497.24966,1758075497.22492,0.0,0.0,0.0,-35.75257,3.38045,-23.89234,9.5,2.55,-0.39,2.0
1758075497.25094,1758075497.23492,0.0,0.0,0.0,-44.28964,-0.34377,-27.78845,9.58,2.81,-0.35,2.0
1758075497.26862,1758075497.24492,0.0,0.0,0.0,-47.95657,-3.66693,-29.56462,9.59,2.64,-0.42,2.0
1758075497.284,1758075497.25492,0.0,0.0,0.0,-50.13381,-8.99544,-30.59595,9.59,2.64,-0.42,2.0
1758075497.28496,1758075497.26492,0.0,0.0,0.0,-50.76406,-16.61578,-30.93972,8.93,2.11,-0.8,2.0
1758075497.30012,1758075497.27492,0.0,0.0,0.0,-50.3057,-32.37212,-30.88243,8.93,2.11,-0.8,2.0
1758075497.3018,1758075497.28492,0.0,0.0,0.0,-49.67545,-46.40959,-30.25217,7.98,1.32,-1.25,2.0
1758075497.31796,1758075497.29492,0.0,0.0,0.0,-48.9306,-48.41494,-25.7831,7.98,1.32,-1.25,2.0
1758075497.33402,1758075497.30492,0.0,0.0,0.0,-49.15978,-15.24068,-30.02299,9.82,0.9,-1.27,2.0
1758075497.33688,1758075497.31492,0.0,0.0,0.0,-46.00851,5.90147,-23.49127,11.86,0.05,0.18,2.0
1758075497.35362,1758075497.32492,0.0,0.0,0.0,-45.77933,-17.87628,-25.61122,11.86,0.05,0.18,2.0
1758075497.3546,1758075497.33492,0.0,0.0,0.0,-40.68,-36.89849,-23.72045,7.42,-0.27,0.74,2.0
1758075497.36983,1758075497.34492,0.0,0.0,0.0,-38.90384,-40.27893,-26.18417,7.42,-0.27,0.74,2.0
1758075497.37102,1758075497.35492,0.0,0.0,0.0,-36.55471,-35.06502,-26.87172,11.16,0.67,-0.28,2.0
1758075497.38692,1758075497.36492,0.0,0.0,0.0,-33.80451,-39.24761,-26.12688,11.16,0.67,-0.28,2.0
1758075497.40396,1758075497.37492,0.0,0.0,0.0,-33.74722,-43.25832,-28.41871,11.1,1.74,1.69,2.0
1758075497.40581,1758075497.38492,0.0,0.0,0.0,-31.2262,-41.99781,-30.02299,11.1,1.74,1.69,2.0
1758075497.42167,1758075497.39492,0.0,0.0,0.0,-22.63183,-34.43476,-30.93972,14.04,0.94,4.45,2.0
1758075497.42314,1758075497.40492,0.0,0.0,0.0,-16.90226,-29.04896,-26.87172,15.93,-1.33,2.6,2.0
1758075497.43795,1758075497.41492,0.0,0.0,0.0,-12.14671,-31.62727,-20.74107,15.93,-1.33,2.6,2.0
1758075497.45384,1758075497.42492,0.0,0.0,0.0,-8.65166,-41.02378,-9.74028,11.96,-2.18,1.15,2.0
1758075497.45617,1758075497.43492,0.0,0.0,0.0,-9.39651,-55.6342,-4.0107,11.96,-2.18,1.15,2.0
1758075497.47202,1758075497.44492,0.0,0.0,0.0,-12.2613,-63.13995,0.40107,8.82,-1.3,1.05,2.0
1758075497.47319,1758075497.45492,0.0,0.0,0.0,-17.47521,-67.78091,2.92208,8.82,-1.3,1.05,2.0
1758075497.48816,1758075497.46492,0.0,0.0,0.0,-28.41871,-70.47381,3.20856,8.03,-0.02,1.45,2.0
1758075497.50418,1758075497.47492,0.0,0.0,0.0,-37.24226,-70.30193,1.71887,8.14,0.98,1.8,2.0
1758075497.50461,1758075497.48492,0.0,0.0,0.0,-45.83662,-69.55708,-0.45837,8.14,0.98,1.8,2.0
1758075497.51996,1758075497.49492,0.0,0.0,0.0,-53.51426,-66.74959,-3.09397,8.48,1.28,1.42,2.0
1758075497.52113,1758075497.50492,0.0,0.0,0.0,-62.62429,-57.23849,-7.33386,8.48,1.28,1.42,2.0
1758075497.53695,1758075497.51492,0.0,0.0,0.0,-66.5204,-46.52417,-9.4538,9.82,0.67,0.63,2.0
1758075497.55602,1758075497.52492,0.0,0.0,0.0,-68.41116,-32.88778,-10.25595,9.82,0.67,0.63,2.0
1758075497.55643,1758075497.53492,0.0,0.0,0.0,-68.23928,-17.6471,-10.02676,11.66,-0.71,-0.39,2.0
1758075497.57377,1758075497.54492,0.0,0.0,0.0,-65.54638,4.0107,-8.0787,12.0,-1.87,-1.07,2.0
1758075497.57587,1758075497.55492,0.0,0.0,0.0,-62.96807,17.24603,-5.78687,12.0,-1.87,-1.07,2.0
1758075497.5912,1758075497.56492,0.0,0.0,0.0,-59.87409,28.36141,-2.57831,11.16,-1.95,-0.85,2.0
1758075497.59219,1758075497.57492,0.0,0.0,0.0,-56.32175,38.1017,1.43239,11.16,-1.95,-0.85,2.0
1758075497.60808,1758075497.58492,0.0,0.0,0.0,-51.73809,51.50891,8.0787,10.28,-1.6,-0.48,2.0
1758075497.62428,1758075497.59492,0.0,0.0,0.0,-49.27437,59.53032,11.97482,10.28,-1.6,-0.48,2.0
1758075497.62463,1758075497.60492,0.0,0.0,0.0,-47.32632,64.74423,14.72501,9.84,-1.36,-0.15,2.0
1758075497.64031,1758075497.61492,0.0,0.0,0.0,-45.60744,67.43713,16.50119,9.84,-1.36,-0.15,2.0
1758075497.64203,1758075497.62492,0.0,0.0,0.0,-42.85724,65.37449,17.01685,9.24,-1.12,-0.05,2.0
1758075497.65795,1758075497.63492,0.0,0.0,0.0,-41.42485,61.07731,16.3293,8.65,-1.0,-0.07,2.0
1758075497.65901,1758075497.64492,0.0,0.0,0.0,-39.64868,55.7488,14.61043,8.65,-1.0,-0.07,2.0
1758075497.67463,1758075497.65492,0.0,0.0,0.0,-36.61201,49.79003,11.11538,8.63,-0.97,-0.33,2.0
1758075497.69005,1758075497.66492,0.0,0.0,0.0,-34.32018,46.1231,8.65166,8.63,-0.97,-0.33,2.0
1758075497.69199,1758075497.67492,0.0,0.0,0.0,-32.14294,42.39888,6.47442,8.75,-0.97,-0.51,2.0
1758075497.70791,1758075497.68492,0.0,0.0,0.0,-30.02299,38.1017,4.58366,8.75,-0.97,-0.51,2.0
1758075497.70909,1758075497.69492,0.0,0.0,0.0,-27.04361,31.39809,2.34913,8.65,-0.9,-0.59,2.0
1758075497.72474,1758075497.70492,0.0,0.0,0.0,-24.35071,26.75713,1.71887,8.85,-0.87,-0.61,2.0
1758075497.74038,1758075497.71492,0.0,0.0,0.0,-21.02755,21.7724,2.06265,8.85,-0.87,-0.61,2.0
1758075497.7413,1758075497.72492,0.0,0.0,0.0,-16.90226,17.93358,3.38045,9.04,-1.11,-0.73,2.0
1758075497.75636,1758075497.73492,0.0,0.0,0.0,-8.47978,17.81899,6.87549,9.04,-1.11,-0.73,2.0
1758075497.77313,1758075497.74492,0.0,0.0,0.0,-1.94806,19.82434,9.74028,9.62,-1.69,-1.06,2.0
1758075497.77477,1758075497.75492,0.0,0.0,0.0,4.52637,22.51724,11.74564,9.62,-1.69,-1.06,2.0
1758075497.78943,1758075497.76492,0.0,0.0,0.0,11.45916,23.49127,12.83425,10.13,-2.31,-1.06,2.0
1758075497.79034,1758075497.77492,0.0,0.0,0.0,22.68913,21.42862,12.77696,10.29,-2.65,-1.02,2.0
1758075497.80575,1758075497.78492,0.0,0.0,0.0,30.82513,17.81899,11.86023,10.29,-2.65,-1.02,2.0
1758075497.8215,1758075497.79492,0.0,0.0,0.0,38.78925,12.71966,10.65701,10.29,-2.72,-1.11,2.0
1758075497.8224,1758075497.80492,0.0,0.0,0.0,46.1804,4.0107,9.39651,10.29,-2.72,-1.11,2.0
1758075497.83825,1758075497.81492,0.0,0.0,0.0,55.92068,-14.83961,7.10468,9.53,-2.59,-1.3,2.0
1758075497.83922,1758075497.82492,0.0,0.0,0.0,60.61894,-20.22541,4.23989,9.53,-2.59,-1.3,2.0
1758075497.85582,1758075497.83492,0.0,0.0,0.0,66.74959,-17.58981,3.95341,10.31,-2.48,-1.39,2.0
1758075497.87123,1758075497.84492,0.0,0.0,0.0,74.02615,-11.17268,5.32851,10.31,-2.48,-1.39,2.0
1758075497.87315,1758075497.85492,0.0,0.0,0.0,77.17742,15.0115,6.87549,12.07,-2.46,-0.53,2.0
1758075497.88838,1758075497.86492,0.0,0.0,0.0,78.09415,27.84575,6.35983,13.28,-2.17,0.05,2.0
1758075497.88936,1758075497.87492,0.0,0.0,0.0,78.38063,25.72581,1.71887,13.28,-2.17,0.05,2.0
1758075497.90547,1758075497.88492,0.0,0.0,0.0,81.64648,-31.28349,0.74485,8.51,-1.36,-0.54,2.0
1758075497.92123,1758075497.89492,0.0,0.0,0.0,82.96429,-63.13995,6.8182,8.51,-1.36,-0.54,2.0
1758075497.9227,1758075497.90492,0.0,0.0,0.0,83.82372,-64.40046,11.86023,8.99,-1.22,-2.15,2.0
1758075497.93805,1758075497.91492,0.0,0.0,0.0,85.14153,-53.05589,13.98017,8.99,-1.22,-2.15,2.0
1758075497.93925,1758075497.92492,0.0,0.0,0.0,84.68317,-43.25832,15.12609,12.25,-1.14,-0.97,2.0
1758075497.95548,1758075497.93492,0.0,0.0,0.0,82.67782,-43.60209,14.03747,10.57,-0.78,-0.22,2.0
1758075497.97151,1758075497.94492,0.0,0.0,0.0,77.63579,-43.14373,12.14671,10.57,-0.78,-0.22,2.0
1758075497.9725,1758075497.95492,0.0,0.0,0.0,69.90086,-41.76862,9.68299,10.99,0.02,0.83,2.0
1758075497.98756,1758075497.96492,0.0,0.0,0.0,57.41038,-41.59674,9.33921,10.99,0.02,0.83,2.0
1758075498.00357,1758075497.97492,0.0,0.0,0.0,49.38896,-44.23235,12.89155,12.55,1.95,0.84,2.0
1758075498.00451,1758075497.98492,0.0,0.0,0.0,41.59674,-47.44091,18.50654,12.55,1.95,0.84,2.0
1758075498.0197,1758075497.99492,0.0,0.0,0.0,33.23156,-48.70141,23.83505,14.26,3.63,1.21,2.0
1758075498.02052,1758075498.00492,0.0,0.0,0.0,21.08485,-44.46153,25.43933,13.85,3.21,0.5,2.0
1758075498.03572,1758075498.01492,0.0,0.0,0.0,14.49583,-41.08107,22.34536,13.85,3.21,0.5,2.0
1758075498.05146,1758075498.02492,0.0,0.0,0.0,9.74028,-38.73195,17.13144,10.17,0.86,0.98,2.0
1758075498.05286,1758075498.03492,0.0,0.0,0.0,6.8182,-37.01308,10.94349,10.17,0.86,0.98,2.0
1758075498.06842,1758075498.04492,0.0,0.0,0.0,6.70361,-32.20023,1.77617,7.35,-0.57,2.02,2.0
1758075498.06938,1758075498.05492,0.0,0.0,0.0,8.36518,-27.61657,-3.60963,7.35,-0.57,2.02,2.0
1758075498.08563,1758075498.06492,0.0,0.0,0.0,11.86023,-22.97561,-8.25059,6.58,-0.92,3.17,2.0
1758075498.10165,1758075498.07492,0.0,0.0,0.0,19.76705,-15.87093,-12.77696,6.58,-0.92,3.17,2.0
1758075498.10339,1758075498.08492,0.0,0.0,0.0,25.89769,-8.36518,-13.69369,6.79,-0.91,3.2,2.0
1758075498.11865,1758075498.09492,0.0,0.0,0.0,31.45539,2.6929,-13.06344,8.73,-0.85,2.01,2.0
1758075498.11961,1758075498.10492,0.0,0.0,0.0,35.52338,12.54778,-11.34457,8.73,-0.85,2.01,2.0
1758075498.13567,1758075498.11492,0.0,0.0,0.0,38.61736,27.10091,-5.84417,11.31,-0.28,1.18,2.0
1758075498.13978,1758075498.12492,0.0,0.0,0.0,37.58603,39.99245,-2.34913,11.31,-0.28,1.18,2.0
1758075498.15764,1758075498.13492,0.0,0.0,0.0,34.60666,53.45696,0.51566,14.26,0.62,0.11,2.0
1758075498.16184,1758075498.14492,0.0,0.0,0.0,29.96569,63.13995,1.71887,14.26,0.62,0.11,2.0
1758075498.17772,1758075498.15492,0.0,0.0,0.0,22.86102,69.78626,2.29183,13.19,0.96,0.03,2.0
1758075498.17936,1758075498.16492,0.0,0.0,0.0,17.99088,72.88023,1.3751,10.48,0.69,0.56,2.0
1758075498.19577,1758075498.17492,0.0,0.0,0.0,13.23533,75.68773,0.0,10.48,0.69,0.56,2.0
1758075498.21369,1758075498.18492,0.0,0.0,0.0,8.59437,75.80232,-1.20321,9.08,0.75,0.83,2.0
1758075498.21791,1758075498.19492,0.0,0.0,0.0,0.80214,69.61437,-3.55234,9.08,0.75,0.83,2.0
1758075498.23349,1758075498.20492,0.0,0.0,0.0,-4.69825,62.96807,-5.09932,7.86,1.21,1.03,2.0
1758075498.2366,1758075498.21492,0.0,0.0,0.0,-10.59972,55.86338,-6.24524,7.86,1.21,1.03,2.0
1758075498.25179,1758075498.22492,0.0,0.0,0.0,-16.84496,48.9306,-7.84952,7.45,1.75,0.68,2.0
1758075498.25421,1758075498.23492,0.0,0.0,0.0,-26.12688,40.50812,-9.74028,7.85,2.08,0.49,2.0
1758075498.26974,1758075498.24492,0.0,0.0,0.0,-31.91375,35.2942,-10.94349,7.85,2.08,0.49,2.0
1758075498.27114,1758075498.25492,0.0,0.0,0.0,-37.24226,29.39274,-12.08941,8.26,1.94,0.4,2.0
1758075498.28562,1758075498.26492,0.0,0.0,0.0,-42.1124,22.00158,-14.03747,8.26,1.94,0.4,2.0
1758075498.30362,1758075498.27492,0.0,0.0,0.0,-48.9879,9.5684,-15.92823,8.32,1.52,0.35,2.0
1758075498.30453,1758075498.28492,0.0,0.0,0.0,-52.82671,-0.80214,-17.30333,8.32,1.52,0.35,2.0
1758075498.31983,1758075498.29492,0.0,0.0,0.0,-57.18119,-6.70361,-19.36597,8.62,1.17,-0.05,2.0
1758075498.32181,1758075498.30492,0.0,0.0,0.0,-62.5097,-10.8862,-23.89234,8.62,1.17,-0.05,2.0
1758075498.33738,1758075498.31492,0.0,0.0,0.0,-65.2599,-10.54242,-26.18417,9.3,1.03,-0.21,2.0
1758075498.35363,1758075498.32492,0.0,0.0,0.0,-67.03606,-10.19865,-27.33009,9.9,0.68,-0.48,2.0
1758075498.35515,1758075498.33492,0.0,0.0,0.0,-68.23928,-10.19865,-27.78845,9.9,0.68,-0.48,2.0
1758075498.37387,1758075498.34492,0.0,0.0,0.0,-68.69764,-13.86558,-27.33009,9.64,0.25,-0.7,2.0
1758075498.37507,1758075498.35492,0.0,0.0,0.0,-68.64035,-18.85031,-26.75713,9.64,0.25,-0.7,2.0
1758075498.3896,1758075498.36492,0.0,0.0,0.0,-67.43713,-27.78845,-24.92367,8.82,-0.03,-1.07,2.0
1758075498.39109,1758075498.37492,0.0,0.0,0.0,-64.91612,-35.69527,-22.57454,8.82,-0.03,-1.07,2.0
1758075498.4056,1758075498.38492,0.0,0.0,0.0,-60.33246,-48.35764,-18.16276,8.09,-0.11,-1.56,2.0
1758075498.4216,1758075498.39492,0.0,0.0,0.0,-56.952,-53.97263,-14.83961,8.42,-0.26,-1.79,2.0
1758075498.42282,1758075498.40492,0.0,0.0,0.0,-54.88936,-43.02913,-9.11003,8.42,-0.26,-1.79,2.0
1758075498.43791,1758075498.41492,0.0,0.0,0.0,-51.90998,-4.58366,-6.13065,13.27,-0.03,-1.18,2.0
1758075498.45394,1758075498.42492,0.0,0.0,0.0,-50.47758,6.58902,-3.09397,13.27,-0.03,-1.18,2.0
1758075498.45513,1758075498.43492,0.0,0.0,0.0,-51.85268,-8.36518,-4.46907,11.3,0.06,-0.69,2.0
1758075498.46989,1758075498.44492,0.0,0.0,0.0,-49.67545,-18.9649,-4.46907,11.3,0.06,-0.69,2.0
1758075498.47088,1758075498.45492,0.0,0.0,0.0,-48.12846,-22.63183,-5.4431,10.73,0.54,-1.88,2.0
1758075498.4859,1758075498.46492,0.0,0.0,0.0,-43.02913,-7.79223,-3.20856,12.33,0.31,-1.81,2.0
1758075498.50165,1758075498.47492,0.0,0.0,0.0,-41.31026,-1.94806,-0.97403,12.33,0.31,-1.81,2.0
1758075498.50298,1758075498.48492,0.0,0.0,0.0,-40.27893,1.08862,2.06265,11.41,0.22,-1.21,2.0
1758075498.51793,1758075498.49492,0.0,0.0,0.0,-37.92981,2.92208,8.25059,11.41,0.22,-1.21,2.0
1758075498.53392,1758075498.50491,0.0,0.0,0.0,-36.15364,2.00535,13.06344,10.65,0.3,-1.02,2.0
1758075498.53607,1758075498.51491,0.0,0.0,0.0,-34.14828,0.51566,17.53251,10.65,0.3,-1.02,2.0
1758075498.5518,1758075498.52491,0.0,0.0,0.0,-31.74186,-4.64096,21.08485,10.05,0.13,-0.14,2.0
1758075498.5538,1758075498.53491,0.0,0.0,0.0,-26.35606,-22.63183,22.63183,10.05,0.13,-0.14,2.0
1758075498.56907,1758075498.54491,0.0,0.0,0.0,-21.48592,-40.96649,19.82434,9.97,-0.45,1.28,2.0
1758075498.57025,1758075498.55491,0.0,0.0,0.0,-16.61578,-65.14531,13.86558,10.58,-1.2,1.71,2.0
1758075498.58594,1758075498.56491,0.0,0.0,0.0,-12.60507,-89.6106,4.35448,10.58,-1.2,1.71,2.0
1758075498.60307,1758075498.57491,0.0,0.0,0.0,-5.90147,-106.45556,-10.25595,11.74,-0.8,2.35,2.0
1758075498.6039,1758075498.58491,0.0,0.0,0.0,-1.66158,-106.79934,-17.87628,11.74,-0.8,2.35,2.0
1758075498.61912,1758075498.59491,0.0,0.0,0.0,0.34377,-104.33562,-23.37668,13.52,-0.22,3.07,2.0
1758075498.62187,1758075498.60491,0.0,0.0,0.0,-0.40107,-99.58006,-25.7831,13.52,-0.22,3.07,2.0
1758075498.63797,1758075498.61491,0.0,0.0,0.0,-7.44845,-88.06361,-25.15285,11.34,0.16,2.96,2.0
1758075498.65383,1758075498.62491,0.0,0.0,0.0,-14.83961,-75.80232,-22.63183,9.09,0.83,1.63,2.0
1758075498.65578,1758075498.63491,0.0,0.0,0.0,-23.49127,-60.27517,-18.79302,9.09,0.83,1.63,2.0
1758075498.67156,1758075498.64491,0.0,0.0,0.0,-31.85646,-45.14908,-14.61043,9.21,1.3,0.45,2.0
1758075498.67361,1758075498.65491,0.0,0.0,0.0,-41.76862,-19.82434,-7.79223,9.21,1.3,0.45,2.0
1758075498.68909,1758075498.66491,0.0,0.0,0.0,-46.35228,0.74485,-3.66693,11.21,1.11,-0.49,2.0
1758075498.69113,1758075498.67491,0.0,0.0,0.0,-48.8733,22.28806,-0.34377,11.21,1.11,-0.49,2.0
1758075498.7079,1758075498.68491,0.0,0.0,0.0,-50.1911,41.76862,2.34913,12.86,0.19,-1.37,2.0
1758075498.72416,1758075498.69491,0.0,0.0,0.0,-50.363,64.28587,3.03668,12.03,-0.55,-1.58,2.0
1758075498.72531,1758075498.70491,0.0,0.0,0.0,-49.50356,75.91692,3.32316,12.03,-0.55,-1.58,2.0
1758075498.73992,1758075498.71491,0.0,0.0,0.0,-48.24305,84.05292,3.20856,10.44,-0.79,-0.96,2.0
1758075498.74186,1758075498.72491,0.0,0.0,0.0,-46.35228,91.73055,2.40642,10.44,-0.79,-0.96,2.0
1758075498.75691,1758075498.73491,0.0,0.0,0.0,-44.40423,93.04835,2.06265,8.87,-0.78,-0.23,2.0
1758075498.77391,1758075498.74491,0.0,0.0,0.0,-42.05511,92.18892,1.20321,8.87,-0.78,-0.23,2.0
1758075498.77621,1758075498.75491,0.0,0.0,0.0,-39.4195,88.57928,0.11459,7.72,-0.93,0.25,2.0
1758075498.79397,1758075498.76491,0.0,0.0,0.0,-34.26288,78.09415,-2.00535,7.12,-0.93,0.2,2.0
1758075498.7976,1758075498.77491,0.0,0.0,0.0,-29.39274,70.87489,-2.63561,7.12,-1.36,0.2,2.0
1758075498.81307,1758075498.78491,0.0,0.0,0.0,-24.00693,64.74423,-2.6929,7.64,-1.78,-0.16,2.0
1758075498.81452,1758075498.79491,0.0,0.0,0.0,-18.56383,57.58226,-1.94806,7.64,-1.78,-0.16,2.0
1758075498.82894,1758075498.80491,0.0,0.0,0.0,-9.96947,46.2377,0.68755,7.94,-1.89,-0.26,2.0
1758075498.83053,1758075498.81491,0.0,0.0,0.0,-4.29718,39.76327,3.66693,7.94,-1.89,-0.26,2.0
1758075498.84705,1758075498.82491,0.0,0.0,0.0,0.68755,34.14828,7.16197,8.32,-1.73,-0.17,2.0
1758075498.86326,1758075498.83491,0.0,0.0,0.0,5.78687,27.73116,11.34457,8.32,-1.73,-0.17,2.0
1758075498.86441,1758075498.84491,0.0,0.0,0.0,13.46451,20.05352,18.50654,8.56,-1.44,0.0,2.0
1758075498.8793,1758075498.85491,0.0,0.0,0.0,18.33465,19.07949,22.57454,9.34,-1.35,-0.37,2.0
1758075498.88016,1758075498.86491,0.0,0.0,0.0,22.91831,18.79302,25.61122,9.34,-1.35,-0.37,2.0
1758075498.8978,1758075498.87491,0.0,0.0,0.0,27.50197,16.95955,27.2155,9.7,-1.35,-0.53,2.0
1758075498.91394,1758075498.88491,0.0,0.0,0.0,33.51803,10.65701,27.33009,9.7,-1.35,-0.53,2.0
1758075498.9152,1758075498.89491,0.0,0.0,0.0,37.24226,3.38045,26.06958,9.28,-1.4,-0.88,2.0
1758075498.92997,1758075498.90491,0.0,0.0,0.0,40.16434,-7.44845,24.57989,9.28,-1.4,-0.88,2.0
1758075498.93116,1758075498.91491,0.0,0.0,0.0,42.28429,-29.39274,19.59516,8.35,-1.51,-1.23,2.0
1758075498.94603,1758075498.92491,0.0,0.0,0.0,44.46153,-34.32018,16.38659,8.57,-1.68,-1.54,2.0
1758075498.96205,1758075498.93491,0.0,0.0,0.0,46.1231,-26.52795,12.49048,8.57,-1.68,-1.54,2.0
1758075498.96325,1758075498.94491,0.0,0.0,0.0,48.75871,-19.82434,10.71431,10.9,-1.78,-1.03,2.0
1758075498.97831,1758075498.95491,0.0,0.0,0.0,52.65482,0.0573,11.45916,10.9,-1.78,-1.03,2.0
1758075498.9943,1758075498.96491,0.0,0.0,0.0,52.25375,10.54242,10.37054,12.59,-1.73,-0.77,2.0
1758075498.9955,1758075498.97491,0.0,0.0,0.0,51.73809,14.9542,8.42248,12.59,-1.73,-0.77,2.0
1758075499.01005,1758075498.98491,0.0,0.0,0.0,54.3737,-9.5684,6.53172,11.59,-1.28,-0.58,2.0
1758075499.01283,1758075498.99491,0.0,0.0,0.0,56.20716,-60.10328,5.90147,8.0,-1.13,-2.24,2.0
1758075499.02836,1758075499.00491,0.0,0.0,0.0,59.24384,-80.78706,14.66772,8.0,-1.13,-2.24,2.0
1758075499.04446,1758075499.01491,0.0,0.0,0.0,60.10328,-78.839,17.93358,11.65,-1.67,-1.71,2.0
1758075499.04532,1758075499.02491,0.0,0.0,0.0,60.96271,-70.30193,19.99623,11.65,-1.67,-1.71,2.0
1758075499.06038,1758075499.03491,0.0,0.0,0.0,59.64491,-71.21866,18.50654,11.21,-1.38,-1.13,2.0
1758075499.06212,1758075499.04491,0.0,0.0,0.0,54.60288,-75.00018,16.95955,11.21,-1.38,-1.13,2.0
1758075499.07827,1758075499.05491,0.0,0.0,0.0,45.72203,-80.0995,15.24068,9.89,-0.5,2.1,2.0
1758075499.09421,1758075499.06491,0.0,0.0,0.0,35.2942,-90.75652,15.24068,9.89,-0.5,2.1,2.0
1758075499.09779,1758075499.07491,0.0,0.0,0.0,19.13679,-114.53426,22.91831,10.76,1.84,2.53,2.0
1758075499.11396,1758075499.08491,0.0,0.0,0.0,10.59972,-120.60761,32.77319,13.98,4.76,3.47,2.0
1758075499.11832,1758075499.09491,0.0,0.0,0.0,6.35983,-114.24779,43.14373,13.98,4.76,3.47,2.0
1758075499.13347,1758075499.10491,0.0,0.0,0.0,8.76626,-103.247,50.87865,16.62,4.11,2.87,2.0
1758075499.1344,1758075499.11491,0.0,0.0,0.0,12.2613,-93.04835,49.96192,16.62,4.11,2.87,2.0
1758075499.14928,1758075499.12491,0.0,0.0,0.0,14.66772,-80.78706,46.1804,12.51,0.76,2.36,2.0
1758075499.15082,1758075499.13491,0.0,0.0,0.0,18.50654,-61.59297,39.07573,12.51,0.76,2.36,2.0
1758075499.16698,1758075499.14491,0.0,0.0,0.0,26.87172,-25.7831,24.57989,10.35,-0.91,1.3,2.0
1758075499.18344,1758075499.15491,0.0,0.0,0.0,34.37747,-4.0107,13.80828,9.24,-1.93,1.48,2.0
1758075499.18479,1758075499.16491,0.0,0.0,0.0,41.25296,13.40721,3.20856,9.24,-1.93,1.48,2.0
1758075499.19953,1758075499.17491,0.0,0.0,0.0,47.09713,26.64254,-6.13065,9.07,-2.54,0.92,2.0
1758075499.20159,1758075499.18491,0.0,0.0,0.0,53.39967,47.15443,-16.38659,9.07,-2.54,0.92,2.0
1758075499.2175,1758075499.19491,0.0,0.0,0.0,55.86338,62.91077,-19.88164,11.78,-2.19,0.24,2.0
1758075499.23359,1758075499.20491,0.0,0.0,0.0,56.32175,77.4639,-21.02755,11.78,-2.19,0.24,2.0
1758075499.23557,1758075499.21491,0.0,0.0,0.0,55.6915,85.31342,-19.42327,13.43,-0.38,-0.64,2.0
1758075499.25458,1758075499.22491,0.0,0.0,0.0,53.68615,87.89172,-12.71966,12.58,1.6,-0.47,2.0
1758075499.25549,1758075499.23491,0.0,0.0,0.0,52.13916,88.80846,-6.99009,12.58,1.6,-0.47,2.0
1758075499.2703,1758075499.24491,0.0,0.0,0.0,50.76406,90.52733,-1.83346,11.34,1.99,-0.29,2.0
1758075499.2726,1758075499.25491,0.0,0.0,0.0,49.90463,91.73055,2.7502,11.34,1.99,-0.29,2.0
1758075499.28776,1758075499.26491,0.0,0.0,0.0,48.01387,90.06896,7.84952,9.02,1.33,0.03,2.0
1758075499.30355,1758075499.27491,0.0,0.0,0.0,46.00851,85.42801,10.19865,9.02,1.33,0.03,2.0
1758075499.30452,1758075499.28491,0.0,0.0,0.0,43.37291,77.86497,11.57375,6.79,0.81,0.21,2.0
1758075499.31962,1758075499.29491,0.0,0.0,0.0,39.53409,70.30193,11.80293,6.79,0.81,0.21,2.0
1758075499.32079,1758075499.30491,0.0,0.0,0.0,32.54401,59.35843,10.02676,5.82,0.63,0.06,2.0
1758075499.33638,1758075499.31491,0.0,0.0,0.0,27.33009,51.85268,7.73493,6.28,0.77,-0.12,2.0
1758075499.35236,1758075499.32491,0.0,0.0,0.0,21.25674,42.74266,4.64096,6.28,0.77,-0.12,2.0
1758075499.3535,1758075499.33491,0.0,0.0,0.0,10.94349,27.73116,-0.57296,6.96,1.21,-0.06,2.0
1758075499.36858,1758075499.34491,0.0,0.0,0.0,3.38045,17.6471,-5.50039,6.96,1.21,-0.06,2.0
1758075499.38468,1758075499.35491,0.0,0.0,0.0,-3.38045,6.53172,-9.22462,7.76,1.81,-0.33,2.0
1758075499.38564,1758075499.36491,0.0,0.0,0.0,-12.37589,3.32316,-15.69904,7.76,1.81,-0.33,2.0
1758075499.40053,1758075499.37491,0.0,0.0,0.0,-23.0329,3.20856,-22.40265,8.87,2.32,-0.28,2.0
1758075499.40272,1758075499.38491,0.0,0.0,0.0,-29.22085,3.20856,-26.47065,9.65,2.36,-0.01,2.0
1758075499.41764,1758075499.39491,0.0,0.0,0.0,-34.89313,0.40107,-29.73651,9.65,2.36,-0.01,2.0
1758075499.43339,1758075499.40491,0.0,0.0,0.0,-39.4195,-5.95876,-32.25753,9.24,2.1,-0.13,2.0
1758075499.4346,1758075499.41491,0.0,0.0,0.0,-44.00316,-24.00693,-34.26288,9.24,2.1,-0.13,2.0
1758075499.4497,1758075499.42491,0.0,0.0,0.0,-45.55015,-36.84119,-33.46074,8.41,1.59,-0.76,2.0
1758075499.45061,1758075499.43491,0.0,0.0,0.0,-46.2377,-46.98254,-31.51268,8.41,1.59,-0.76,2.0
1758075499.46669,1758075499.44491,0.0,0.0,0.0,-45.49285,-56.32175,-28.99167,8.65,1.19,-1.49,2.0
1758075499.48346,1758075499.45491,0.0,0.0,0.0,-46.81066,-49.96192,-24.5226,10.39,1.16,-1.6,2.0
1758075499.48464,1758075499.46491,0.0,0.0,0.0,-46.00851,-17.30333,-24.86637,10.39,1.16,-1.6,2.0
1758075499.49943,1758075499.47491,0.0,0.0,0.0,-40.68,3.66693,-16.3293,14.09,0.88,-1.52,2.0
1758075499.50065,1758075499.48491,0.0,0.0,0.0,-44.86259,-14.49583,-22.34536,14.09,0.88,-1.52,2.0
1758075499.51873,1758075499.49491,0.0,0.0,0.0,-47.61279,-38.84654,-23.83505,9.66,1.41,-1.45,2.0
1758075499.5345,1758075499.50491,0.0,0.0,0.0,-48.07116,-32.37212,-25.8404,9.66,1.41,-1.45,2.0
1758075499.53605,1758075499.51491,0.0,0.0,0.0,-47.61279,-20.16812,-23.72045,13.23,1.72,-2.76,2.0
1758075499.5505,1758075499.52491,0.0,0.0,0.0,-46.06581,-9.28192,-17.76169,13.23,1.72,-2.76,2.0
1758075499.55274,1758075499.53491,0.0,0.0,0.0,-41.42485,1.71887,-12.14671,13.05,1.39,-1.74,2.0
1758075499.5688,1758075499.54491,0.0,0.0,0.0,-36.7266,5.15662,-6.53172,11.47,0.84,-0.69,2.0
1758075499.58482,1758075499.55491,0.0,0.0,0.0,-31.11161,4.0107,-0.68755,11.47,0.84,-0.69,2.0
1758075499.58578,1758075499.56491,0.0,0.0,0.0,-21.42862,-1.08862,6.47442,9.73,0.2,-0.66,2.0
1758075499.60084,1758075499.57491,0.0,0.0,0.0,-14.49583,-6.8182,8.76626,9.73,0.2,-0.66,2.0
1758075499.60173,1758075499.58491,0.0,0.0,0.0,-7.73493,-18.85031,7.96411,10.03,-1.07,0.73,2.0
1758075499.61739,1758075499.59491,0.0,0.0,0.0,-2.06265,-37.81522,2.7502,10.03,-1.07,0.73,2.0
1758075499.63388,1758075499.60491,0.0,0.0,0.0,7.79223,-55.57691,-7.16197,11.01,-2.21,1.54,2.0
1758075499.63478,1758075499.61491,0.0,0.0,0.0,15.29797,-58.90006,-13.00614,12.75,-2.52,2.43,2.0
1758075499.6536,1758075499.62491,0.0,0.0,0.0,21.42862,-65.71826,-16.84496,12.75,-2.52,2.43,2.0
1758075499.6551,1758075499.63491,0.0,0.0,0.0,23.0902,-80.72976,-21.7724,10.78,-1.91,2.31,2.0
1758075499.66967,1758075499.64491,0.0,0.0,0.0,20.97026,-90.92841,-25.7831,10.78,-1.91,2.31,2.0
1758075499.67115,1758075499.65491,0.0,0.0,0.0,16.61578,-89.15224,-25.8404,9.18,-0.41,2.44,2.0
1758075499.68689,1758075499.66491,0.0,0.0,0.0,9.62569,-84.51128,-24.86637,9.18,-0.41,2.44,2.0
1758075499.7039,1758075499.67491,0.0,0.0,0.0,0.57296,-77.4066,-23.0329,8.52,0.71,3.14,2.0
1758075499.70485,1758075499.68491,0.0,0.0,0.0,-15.35527,-62.05133,-18.22006,8.1,1.6,2.33,2.0
1758075499.71988,1758075499.69491,0.0,0.0,0.0,-26.47065,-48.30034,-14.66772,8.1,1.6,2.33,2.0
1758075499.7224,1758075499.70491,0.0,0.0,0.0,-36.15364,-31.39809,-9.96947,9.16,2.11,0.16,2.0
1758075499.73867,1758075499.71491,0.0,0.0,0.0,-44.28964,-15.12609,-5.32851,9.16,2.11,0.16,2.0
1758075499.75795,1758075499.72491,0.0,0.0,0.0,-51.45161,11.28727,0.51566,11.46,1.73,-0.5,2.0
1758075499.75905,1758075499.73491,0.0,0.0,0.0,-53.17049,29.27814,2.46372,11.46,1.73,-0.5,2.0
1758075499.77575,1758075499.74491,0.0,0.0,0.0,-53.11319,45.14908,2.7502,13.43,0.32,-0.9,2.0
1758075499.77676,1758075499.75491,0.0,0.0,0.0,-49.90463,62.68159,2.29183,13.43,0.32,-0.9,2.0
1758075499.79197,1758075499.76491,0.0,0.0,0.0,-46.63877,71.27596,1.14592,12.93,-1.06,-0.92,2.0
1758075499.79369,1758075499.77491,0.0,0.0,0.0,-42.62806,77.57849,0.0,11.43,-1.62,-0.29,2.0
1758075499.80909,1758075499.78491,0.0,0.0,0.0,-37.81522,79.98491,-0.51566,11.43,-1.62,-0.29,2.0
1758075499.82507,1758075499.79491,0.0,0.0,0.0,-30.65324,76.0315,-1.43239,9.28,-1.92,-0.21,2.0
1758075499.82883,1758075499.80491,0.0,0.0,0.0,-25.89769,71.79161,-2.23454,9.28,-1.92,-0.21,2.0
1758075499.84405,1758075499.81491,0.0,0.0,0.0,-20.79837,68.41116,-1.48969,7.83,-2.09,-0.45,2.0
1758075499.84442,1758075499.82491,0.0,0.0,0.0,-15.35527,66.5204,-0.22918,7.83,-2.09,-0.45,2.0
1758075499.86181,1758075499.83491,0.0,0.0,0.0,-6.58902,65.2026,3.20856,7.85,-2.07,-0.75,2.0
1758075499.86282,1758075499.84491,0.0,0.0,0.0,-0.34377,63.99939,6.18794,8.03,-1.68,-1.08,2.0
1758075499.87791,1758075499.85491,0.0,0.0,0.0,5.55769,63.48372,9.74028,8.03,-1.68,-1.08,2.0
1758075499.89509,1758075499.86491,0.0,0.0,0.0,11.57375,62.68159,13.98017,8.71,-1.19,-0.91,2.0
1758075499.89548,1758075499.87491,0.0,0.0,0.0,20.68378,58.84277,20.16812,8.71,-1.19,-0.91,2.0
1758075499.91321,1758075499.88491,0.0,0.0,0.0,26.12688,53.62885,24.35071,9.06,-0.92,-0.82,2.0
1758075499.91471,1758075499.89491,0.0,0.0,0.0,31.39809,47.89928,27.61657,9.06,-0.92,-0.82,2.0
1758075499.9299,1758075499.90491,0.0,0.0,0.0,36.32552,42.22699,29.9084,9.45,-1.02,-0.66,2.0
1758075499.93369,1758075499.91491,0.0,0.0,0.0,42.91454,33.74722,31.11161,9.64,-1.32,-0.7,2.0
1758075499.94906,1758075499.92491,0.0,0.0,0.0,46.06581,28.99167,30.02299,9.64,-1.32,-0.7,2.0
1758075499.95307,1758075499.93491,0.0,0.0,0.0,48.64412,23.60586,28.01764,9.23,-1.59,-0.8,2.0
1758075499.96812,1758075499.94491,0.0,0.0,0.0,50.1911,19.59516,22.63183,9.23,-1.59,-0.8,2.0
1758075499.98404,1758075499.95491,0.0,0.0,0.0,52.13916,15.58445,17.93358,8.64,-1.57,-0.92,2.0
1758075499.98441,1758075499.96491,0.0,0.0,0.0,54.431,12.54778,13.80828,8.64,-1.57,-0.92,2.0
1758075499.99993,1758075499.97491,0.0,0.0,0.0,56.49364,8.36518,8.76626,8.28,-1.35,-1.1,2.0
1758075500.0011,1758075499.98491,0.0,0.0,0.0,61.02001,6.53172,4.58366,8.28,-1.35,-1.1,2.0
1758075500.0159,1758075499.99491,0.0,0.0,0.0,64.40046,6.8182,2.7502,8.78,-1.25,-1.24,2.0
1758075500.03193,1758075500.00491,0.0,0.0,0.0,67.89551,14.43854,4.64096,10.49,-1.27,-1.14,2.0
1758075500.03311,1758075500.01491,0.0,0.0,0.0,68.41116,24.17882,2.86479,10.49,-1.27,-1.14,2.0
1758075500.04797,1758075500.02491,0.0,0.0,0.0,70.13004,22.97561,-2.92208,11.83,-1.06,-0.25,2.0
1758075500.04913,1758075500.03491,0.0,0.0,0.0,71.67702,-17.01685,-0.0573,11.83,-1.06,-0.25,2.0
1758075500.0645,1758075500.04491,0.0,0.0,0.0,76.94823,-61.24919,6.35983,7.94,-0.76,-0.96,2.0
1758075500.08022,1758075500.05491,0.0,0.0,0.0,78.89629,-77.4066,15.12609,7.94,-0.76,-0.96,2.0
1758075500.08115,1758075500.06491,0.0,0.0,0.0,80.67246,-72.47916,23.26209,11.43,-1.22,-1.55,2.0
1758075500.09762,1758075500.07491,0.0,0.0,0.0,80.72976,-65.71826,25.61122,12.61,-0.79,-0.88,2.0
1758075500.09953,1758075500.08491,0.0,0.0,0.0,79.12547,-65.2026,25.7831,12.61,-0.79,-0.88,2.0
1758075500.11718,1758075500.09491,0.0,0.0,0.0,74.771,-67.78091,24.35071,10.7,0.0,-0.09,2.0
1758075500.13303,1758075500.10491,0.0,0.0,0.0,63.99939,-69.04142,18.9649,10.7,0.0,-0.09,2.0
1758075500.13421,1758075500.11491,0.0,0.0,0.0,55.00395,-67.55173,14.09476,10.2,1.11,0.19,2.0
1758075500.14907,1758075500.12491,0.0,0.0,0.0,45.37826,-62.85347,9.11003,10.2,1.11,0.19,2.0
1758075500.15021,1758075500.13491,0.0,0.0,0.0,38.90384,-61.30648,6.70361,11.22,2.74,1.04,2.0
1758075500.16643,1758075500.14491,0.0,0.0,0.0,32.88778,-75.05748,9.96947,11.99,3.05,2.26,2.0
1758075500.18209,1758075500.15491,0.0,0.0,0.0,28.01764,-89.78249,15.87093,11.99,3.05,2.26,2.0
1758075500.18351,1758075500.16491,0.0,0.0,0.0,23.20479,-93.44942,21.88699,13.65,2.32,2.42,2.0
1758075500.19912,1758075500.17491,0.0,0.0,0.0,16.61578,-85.82908,26.06958,13.65,2.32,2.42,2.0
1758075500.20005,1758075500.18491,0.0,0.0,0.0,14.43854,-66.74959,26.06958,14.85,0.67,2.34,2.0
1758075500.21647,1758075500.19491,0.0,0.0,0.0,14.38124,-53.39967,24.75178,14.85,0.67,2.34,2.0
1758075500.23237,1758075500.20491,0.0,0.0,0.0,16.90226,-41.25296,24.17882,11.14,-0.78,2.47,2.0
1758075500.23409,1758075500.21491,0.0,0.0,0.0,24.29341,-16.55848,17.99088,11.14,-0.78,2.47,2.0
1758075500.24915,1758075500.22491,0.0,0.0,0.0,32.6013,2.00535,13.40721,8.37,-1.39,1.82,2.0
1758075500.25031,1758075500.23491,0.0,0.0,0.0,41.48215,18.16276,7.44845,8.13,-1.98,1.23,2.0
1758075500.2654,1758075500.24491,0.0,0.0,0.0,49.61814,31.79916,1.3751,8.13,-1.98,1.23,2.0
1758075500.28214,1758075500.25491,0.0,0.0,0.0,59.24384,56.55093,-6.47442,10.5,-2.36,0.47,2.0
1758075500.28386,1758075500.26491,0.0,0.0,0.0,63.48372,71.73432,-8.30789,10.5,-2.36,0.47,2.0
1758075500.29839,1758075500.27491,0.0,0.0,0.0,65.71826,83.59455,-7.50575,13.46,-1.92,-0.25,2.0
1758075500.29959,1758075500.28491,0.0,0.0,0.0,65.89015,92.76187,-5.84417,13.46,-1.92,-0.25,2.0
1758075500.31522,1758075500.29491,0.0,0.0,0.0,63.94209,100.09573,-1.66158,13.85,-0.31,-0.22,2.0
1758075500.33145,1758075500.30491,0.0,0.0,0.0,61.59297,100.43951,1.20321,11.87,1.09,0.17,2.0
1758075500.33238,1758075500.31491,0.0,0.0,0.0,59.07195,99.06441,4.46907,11.87,1.09,0.17,2.0
1758075500.34826,1758075500.32491,0.0,0.0,0.0,55.57691,98.43416,6.35983,9.56,1.55,0.31,2.0
1758075500.34921,1758075500.33491,0.0,0.0,0.0,49.79003,94.42345,7.79223,9.56,1.55,0.31,2.0
1758075500.3655,1758075500.34491,0.0,0.0,0.0,44.9199,89.43871,7.67763,7.71,1.62,0.36,2.0
1758075500.38154,1758075500.35491,0.0,0.0,0.0,38.90384,82.7924,7.39116,7.71,1.62,0.36,2.0
1758075500.38321,1758075500.36491,0.0,0.0,0.0,31.85646,74.65641,5.21392,6.27,1.74,0.63,2.0
1758075500.3985,1758075500.37491,0.0,0.0,0.0,19.70975,60.50434,2.92208,5.65,1.78,0.46,2.0
1758075500.39947,1758075500.38491,0.0,0.0,0.0,10.8862,50.59217,0.51566,5.65,1.78,0.46,2.0
1758075500.41527,1758075500.39491,0.0,0.0,0.0,1.60428,39.87786,-2.57831,5.9,1.72,0.49,2.0
1758075500.43218,1758075500.40491,0.0,0.0,0.0,-12.204,24.98096,-7.50575,5.9,1.72,0.49,2.0
1758075500.4341,1758075500.41491,0.0,0.0,0.0,-21.60051,16.04282,-11.74564,6.87,1.76,0.53,2.0
1758075500.44943,1758075500.42491,0.0,0.0,0.0,-30.13758,5.55769,-15.98552,6.87,1.76,0.53,2.0
1758075500.45048,1758075500.43491,0.0,0.0,0.0,-39.4195,4.0107,-21.37133,7.98,1.94,0.1,2.0
1758075500.46554,1758075500.44491,0.0,0.0,0.0,-50.93595,4.1253,-28.13223,7.98,1.94,-0.23,2.0
1758075500.48143,1758075500.45491,0.0,0.0,0.0,-57.18119,3.20856,-31.28349,9.36,2.14,-0.23,2.0
1758075500.48248,1758075500.46491,0.0,0.0,0.0,-62.28051,0.22918,-32.88778,9.79,2.11,-0.33,2.0
1758075500.49744,1758075500.47491,0.0,0.0,0.0,-66.29122,-4.29718,-33.23156,9.79,2.11,-0.33,2.0
1758075500.51357,1758075500.48491,0.0,0.0,0.0,-69.67168,-18.44924,-32.77319,9.78,1.77,-0.83,2.0
1758075500.51482,1758075500.49491,0.0,0.0,0.0,-70.01544,-32.77319,-30.65324,9.78,1.77,-0.83,2.0
1758075500.52936,1758075500.50491,0.0,0.0,0.0,-68.35387,-47.44091,-27.61657,9.02,1.24,-1.47,2.0
1758075500.53077,1758075500.51491,0.0,0.0,0.0,-66.40582,-61.24919,-23.94964,9.02,1.24,-1.47,2.0
1758075500.54539,1758075500.52491,0.0,0.0,0.0,-63.42643,-61.07731,-16.90226,9.18,0.41,-1.85,2.0
1758075500.56138,1758075500.53491,0.0,0.0,0.0,-58.49899,-34.66395,-16.67307,12.92,-0.23,-1.27,2.0
1758075500.56332,1758075500.54491,0.0,0.0,0.0,-52.82671,-7.79223,-11.63104,12.92,-0.23,-1.27,2.0
1758075500.57839,1758075500.55491,0.0,0.0,0.0,-49.79003,-13.69369,-13.5218,12.34,-0.59,-0.5,2.0
1758075500.57987,1758075500.56491,0.0,0.0,0.0,-47.49821,-44.00316,-15.75634,12.34,-0.59,-0.5,2.0
1758075500.59541,1758075500.57491,0.0,0.0,0.0,-44.40423,-46.46688,-18.62113,9.87,0.9,-2.27,2.0
1758075500.61136,1758075500.58491,0.0,0.0,0.0,-39.82057,-35.2942,-18.62113,9.87,0.9,-2.27,2.0
1758075500.61342,1758075500.59491,0.0,0.0,0.0,-31.11161,-25.15285,-14.78231,11.93,1.78,-2.01,2.0
1758075500.6284,1758075500.60491,0.0,0.0,0.0,-30.99702,-16.67307,-12.71966,10.82,1.63,-0.98,2.0
1758075500.62962,1758075500.61491,0.0,0.0,0.0,-31.45539,-20.11082,-10.19865,10.82,1.63,-0.98,2.0
1758075500.64568,1758075500.62491,0.0,0.0,0.0,-30.02299,-30.36677,-8.70896,9.17,1.2,-0.21,2.0
1758075500.66166,1758075500.63491,0.0,0.0,0.0,-26.64254,-50.76406,-12.2613,9.17,1.2,-0.21,2.0
1758075500.66338,1758075500.64491,0.0,0.0,0.0,-24.29341,-66.34852,-18.62113,11.15,-0.43,3.49,2.0
1758075500.67957,1758075500.65491,0.0,0.0,0.0,-21.6578,-77.52119,-25.8404,11.15,-0.43,3.49,2.0
1758075500.68132,1758075500.66491,0.0,0.0,0.0,-16.3293,-81.87567,-31.28349,14.92,-2.54,4.59,2.0
1758075500.69911,1758075500.67491,0.0,0.0,0.0,-8.30789,-95.85584,-35.40879,14.45,-3.69,3.85,2.0
1758075500.69998,1758075500.68491,0.0,0.0,0.0,-8.25059,-104.85127,-35.00772,14.45,-3.69,3.85,2.0
1758075500.71665,1758075500.69491,0.0,0.0,0.0,-12.89155,-107.25771,-31.97105,10.57,-2.23,3.29,2.0
1758075500.73279,1758075500.70491,0.0,0.0,0.0,-22.40265,-103.1324,-29.04896,10.57,-2.23,3.29,2.0
1758075500.73377,1758075500.71491,0.0,0.0,0.0,-40.39353,-86.00097,-22.86102,9.66,0.08,2.85,2.0
1758075500.74879,1758075500.72491,0.0,0.0,0.0,-52.9986,-75.34396,-18.85031,9.66,0.08,2.85,2.0
1758075500.74979,1758075500.73491,0.0,0.0,0.0,-62.96807,-62.39511,-13.80828,9.06,1.64,0.54,2.0
1758075500.76762,1758075500.74491,0.0,0.0,0.0,-70.76029,-48.70141,-8.36518,9.06,1.64,0.54,2.0
1758075500.78385,1758075500.75491,0.0,0.0,0.0,-75.68773,-25.09555,0.74485,10.32,1.78,-0.6,2.0
1758075500.78474,1758075500.76491,0.0,0.0,0.0,-75.57314,-6.58902,5.78687,12.36,0.65,-1.0,2.0
1758075500.79984,1758075500.77491,0.0,0.0,0.0,-73.51049,10.8862,9.5684,12.36,0.65,-1.0,2.0
1758075500.80156,1758075500.78491,0.0,0.0,0.0,-70.6457,26.01229,12.83425,12.12,-0.79,-1.67,2.0
1758075500.81737,1758075500.79491,0.0,0.0,0.0,-66.29122,43.54479,13.5218,12.12,-0.79,-1.67,2.0
1758075500.83362,1758075500.80491,0.0,0.0,0.0,-63.77021,52.36834,13.06344,10.24,-1.94,-1.18,2.0
1758075500.8351,1758075500.81491,0.0,0.0,0.0,-60.79083,59.12925,12.08941,10.24,-1.94,-1.18,2.0
1758075500.85363,1758075500.82491,0.0,0.0,0.0,-56.78012,67.89551,8.88085,8.42,-2.4,-0.34,2.0
1758075500.85512,1758075500.83491,0.0,0.0,0.0,-52.9986,71.39055,6.58902,7.26,-2.55,-0.03,2.0
1758075500.86967,1758075500.84491,0.0,0.0,0.0,-48.12846,75.00018,4.23989,7.26,-2.55,-0.03,2.0
1758075500.87106,1758075500.85491,0.0,0.0,0.0,-43.31561,75.57314,1.77617,6.86,-2.58,-0.38,2.0
1758075500.88563,1758075500.86491,0.0,0.0,0.0,-35.86716,72.30728,-1.48969,6.86,-2.58,-0.38,2.0
1758075500.90164,1758075500.87491,0.0,0.0,0.0,-29.9084,70.6457,-2.46372,7.0,-2.19,-0.67,2.0
1758075500.90283,1758075500.88491,0.0,0.0,0.0,-24.29341,69.95815,-2.57831,7.0,-2.19,-0.67,2.0
1758075500.91794,1758075500.89491,0.0,0.0,0.0,-18.44924,70.18733,-1.71887,8.24,-1.65,-0.7,2.0
1758075500.93368,1758075500.90491,0.0,0.0,0.0,-9.96947,69.78626,1.3751,9.38,-1.16,-0.12,2.0
1758075500.93757,1758075500.91491,0.0,0.0,0.0,-3.38045,67.60902,4.35448,9.38,-1.16,-0.12,2.0
1758075500.95345,1758075500.92491,0.0,0.0,0.0,2.63561,64.45775,8.0787,9.97,-0.9,-0.25,2.0
1758075500.95467,1758075500.93491,0.0,0.0,0.0,8.70896,60.10328,11.63104,9.97,-0.9,-0.25,2.0
1758075500.96969,1758075500.94491,0.0,0.0,0.0,17.6471,52.48294,15.92823,10.32,-1.06,-0.38,2.0
1758075500.97112,1758075500.95491,0.0,0.0,0.0,23.20479,48.64412,17.30333,10.32,-1.06,-0.38,2.0
1758075500.98588,1758075500.96491,0.0,0.0,0.0,27.38738,45.26366,17.36062,10.44,-1.48,-0.7,2.0
1758075501.00195,1758075500.97491,0.0,0.0,0.0,30.82513,39.4195,16.67307,10.44,-1.48,-0.7,2.0
1758075501.00294,1758075500.98491,0.0,0.0,0.0,36.55471,32.6013,12.71966,9.72,-1.8,-1.0,2.0
1758075501.01769,1758075500.99491,0.0,0.0,0.0,40.39353,29.10626,8.47978,9.56,-1.89,-1.29,2.0
1758075501.03393,1758075501.00491,0.0,0.0,0.0,45.20637,24.57989,4.64096,9.56,-1.89,-1.29,2.0
1758075501.03576,1758075501.01491,0.0,0.0,0.0,53.80074,15.69904,-0.45837,9.11,-1.93,-1.55,2.0
1758075501.05116,1758075501.02491,0.0,0.0,0.0,60.27517,3.95341,-1.71887,9.11,-1.93,-1.55,2.0
1758075501.05381,1758075501.03491,0.0,0.0,0.0,66.17663,-5.21392,-1.03132,9.47,-2.02,-1.82,2.0
1758075501.06918,1758075501.04491,0.0,0.0,0.0,70.41652,-4.87014,-0.74485,9.47,-2.02,-1.82,2.0
1758075501.06998,1758075501.05491,0.0,0.0,0.0,73.05212,11.97482,1.71887,11.32,-1.84,-1.58,2.0
1758075501.08597,1758075501.06491,0.0,0.0,0.0,73.05212,12.49048,-2.7502,11.9,-1.26,-0.39,2.0
1758075501.10367,1758075501.07491,0.0,0.0,0.0,76.94823,-28.93437,1.03132,11.9,-1.26,-0.39,2.0
1758075501.10505,1758075501.08491,0.0,0.0,0.0,78.03686,-74.59911,3.26586,7.32,-1.28,-2.5,2.0
1758075501.12246,1758075501.09491,0.0,0.0,0.0,78.7817,-95.62666,18.85031,7.32,-1.28,-2.5,2.0
1758075501.12391,1758075501.10491,0.0,0.0,0.0,77.63579,-84.74047,24.86637,11.87,-1.78,-1.03,2.0
1758075501.13908,1758075501.11491,0.0,0.0,0.0,73.51049,-82.04756,27.04361,11.87,-1.78,-1.03,2.0
1758075501.14003,1758075501.12491,0.0,0.0,0.0,65.2599,-90.69922,26.98631,11.09,-0.96,1.0,2.0
1758075501.15843,1758075501.13491,0.0,0.0,0.0,46.86795,-113.90401,29.56462,10.42,1.63,4.3,2.0
1758075501.17401,1758075501.14491,0.0,0.0,0.0,32.88778,-133.72836,34.14828,10.42,1.63,4.3,2.0
1758075501.17618,1758075501.15491,0.0,0.0,0.0,19.88164,-143.81242,39.4195,12.71,5.0,3.96,2.0
1758075501.19247,1758075501.16491,0.0,0.0,0.0,11.80293,-136.30667,47.03984,12.71,5.0,3.96,2.0
1758075501.19451,1758075501.17491,0.0,0.0,0.0,16.04282,-112.6435,53.68615,16.24,4.68,3.72,2.0
1758075501.21,1758075501.18491,0.0,0.0,0.0,16.21471,-107.54418,53.11319,16.24,4.68,3.72,2.0
1758075501.21605,1758075501.19491,0.0,0.0,0.0,17.01685,-100.32492,50.59217,11.33,0.61,2.98,2.0
1758075501.232,1758075501.20491,0.0,0.0,0.0,19.53786,-83.65184,42.51347,11.33,0.61,2.98,2.0
1758075501.23367,1758075501.21491,0.0,0.0,0.0,26.12688,-47.44091,33.80451,9.68,-1.57,1.58,2.0
1758075501.24918,1758075501.22491,0.0,0.0,0.0,31.74186,-24.86637,24.00693,9.79,-2.72,1.72,2.0
1758075501.25281,1758075501.23491,0.0,0.0,0.0,36.61201,-10.19865,15.12609,9.79,-2.72,1.72,2.0
1758075501.26825,1758075501.24491,0.0,0.0,0.0,39.53409,10.59972,0.0573,9.24,-2.92,0.72,2.0
1758075501.28394,1758075501.25491,0.0,0.0,0.0,39.82057,31.56997,-7.16197,9.24,-2.92,0.72,2.0
1758075501.28514,1758075501.26491,0.0,0.0,0.0,37.81522,53.17049,-12.2613,12.63,-1.46,-0.66,2.0
1758075501.29997,1758075501.27491,0.0,0.0,0.0,33.68992,72.70835,-13.5218,12.63,-1.46,-0.66,2.0
1758075501.30114,1758075501.28491,0.0,0.0,0.0,26.52795,89.43871,-11.51645,13.42,1.31,-1.29,2.0
1758075501.31624,1758075501.29491,0.0,0.0,0.0,21.14215,93.44942,-9.05273,11.7,3.3,-0.92,2.0
1758075501.33324,1758075501.30491,0.0,0.0,0.0,16.50119,97.46013,-6.58902,11.7,3.3,-0.92,2.0
1758075501.33416,1758075501.31491,0.0,0.0,0.0,12.71966,100.03843,-4.0107,10.26,3.2,-0.34,2.0
1758075501.34908,1758075501.32491,0.0,0.0,0.0,8.42248,99.63737,-0.97403,10.26,3.2,-0.34,2.0
1758075501.35021,1758075501.33491,0.0,0.0,0.0,6.07335,96.42879,0.80214,8.28,1.81,-0.01,2.0
1758075501.36829,1758075501.34491,0.0,0.0,0.0,3.38045,90.24085,2.11994,8.28,1.81,-0.01,2.0
1758075501.3841,1758075501.35491,0.0,0.0,0.0,0.34377,82.16215,3.49504,6.91,0.67,0.35,2.0
1758075501.38523,1758075501.36491,0.0,0.0,0.0,-6.58902,70.24463,3.60963,6.76,0.12,0.44,2.0
1758075501.40164,1758075501.37491,0.0,0.0,0.0,-12.71966,63.13995,1.66158,6.76,0.12,0.44,2.0
1758075501.40283,1758075501.38491,0.0,0.0,0.0,-19.76705,56.83742,-1.94806,7.46,0.39,0.5,2.0
1758075501.41808,1758075501.39491,0.0,0.0,0.0,-27.2155,47.95657,-6.8182,7.46,0.39,0.5,2.0
1758075501.43398,1758075501.40491,0.0,0.0,0.0,-38.84654,29.73651,-13.5791,8.0,1.23,0.22,2.0
1758075501.43684,1758075501.41491,0.0,0.0,0.0,-47.49821,22.05888,-20.62648,8.0,1.23,0.22,2.0
1758075501.45405,1758075501.42491,0.0,0.0,0.0,-55.23313,17.36062,-26.47065,8.72,2.16,0.19,2.0
1758075501.45578,1758075501.43491,0.0,0.0,0.0,-66.29122,13.40721,-31.97105,8.72,2.16,0.19,2.0
1758075501.47007,1758075501.44491,0.0,0.0,0.0,-72.19269,6.99009,-33.63263,9.27,2.48,-0.18,2.0
1758075501.47162,1758075501.45491,0.0,0.0,0.0,-76.77635,2.00535,-34.0337,9.06,2.1,-0.25,2.0
1758075501.48638,1758075501.46491,0.0,0.0,0.0,-80.32869,-4.81285,-33.11696,9.06,2.1,-0.25,2.0
1758075501.50335,1758075501.47491,0.0,0.0,0.0,-83.42266,-16.21471,-29.96569,8.62,1.36,-1.06,2.0
1758075501.50429,1758075501.48491,0.0,0.0,0.0,-83.82372,-23.94964,-27.04361,8.62,1.36,-1.06,2.0
1758075501.5192,1758075501.49491,0.0,0.0,0.0,-81.30271,-32.77319,-22.11617,8.23,0.4,-1.61,2.0
1758075501.5203,1758075501.50491,0.0,0.0,0.0,-76.31798,-42.91454,-16.3293,8.23,0.4,-1.61,2.0
1758075501.53716,1758075501.51491,0.0,0.0,0.0,-63.54102,-34.09099,-4.18259,7.6,-1.05,-1.92,2.0
1758075501.55342,1758075501.52491,0.0,0.0,0.0,-57.92604,-3.38045,-3.09397,12.38,-1.15,-1.67,2.0
1758075501.55438,1758075501.53491,0.0,0.0,0.0,-57.63955,-4.81285,-3.32316,12.38,-1.15,-1.67,2.0
1758075501.56928,1758075501.54491,0.0,0.0,0.0,-60.38975,-19.36597,-9.22462,10.46,0.74,-2.1,2.0
1758075501.57037,1758075501.55491,0.0,0.0,0.0,-58.15522,-33.46074,-16.90226,10.46,0.74,-2.1,2.0
1758075501.58825,1758075501.56491,0.0,0.0,0.0,-57.0093,-27.61657,-21.7724,11.53,1.73,-1.94,2.0
1758075501.60448,1758075501.57491,0.0,0.0,0.0,-55.7488,-17.81899,-24.12152,11.53,1.73,-1.94,2.0
1758075501.60541,1758075501.58491,0.0,0.0,0.0,-55.40502,-9.4538,-23.94964,12.72,1.8,-1.93,2.0
1758075501.62047,1758075501.59491,0.0,0.0,0.0,-54.02992,-1.14592,-19.59516,11.77,1.68,-0.57,2.0
1758075501.62294,1758075501.60491,0.0,0.0,0.0,-51.90998,-4.35448,-16.38659,11.77,1.68,-0.57,2.0
1758075501.63845,1758075501.61491,0.0,0.0,0.0,-48.58683,-12.83425,-13.86558,10.64,0.98,1.4,2.0
1758075501.65441,1758075501.62491,0.0,0.0,0.0,-43.94586,-21.88699,-13.34992,10.64,0.98,1.4,2.0
1758075501.65783,1758075501.63491,0.0,0.0,0.0,-35.40879,-33.00237,-15.12609,12.84,-0.86,1.83,2.0
1758075501.67349,1758075501.64491,0.0,0.0,0.0,-29.96569,-45.60744,-18.27736,12.84,-0.86,1.83,2.0
1758075501.67465,1758075501.65491,0.0,0.0,0.0,-24.35071,-59.53032,-21.25674,13.79,-2.25,2.37,2.0
1758075501.68949,1758075501.66491,0.0,0.0,0.0,-16.55848,-76.48987,-24.57989,13.79,-2.25,2.37,2.0
1758075501.69045,1758075501.67491,0.0,0.0,0.0,-13.17803,-84.56858,-24.75178,12.64,-2.5,1.47,2.0
1758075501.70804,1758075501.68491,0.0,0.0,0.0,-13.00614,-90.06896,-23.60586,9.88,-1.21,1.19,2.0
1758075501.72456,1758075501.69491,0.0,0.0,0.0,-15.69904,-92.53268,-21.6578,9.88,-1.21,1.19,2.0
1758075501.72735,1758075501.70491,0.0,0.0,0.0,-25.72581,-86.975,-18.56383,8.42,0.48,1.91,2.0
1758075501.74261,1758075501.71491,0.0,0.0,0.0,-35.98175,-77.80767,-16.3293,8.42,0.48,1.91,2.0
1758075501.74347,1758075501.72491,0.0,0.0,0.0,-47.89928,-69.21331,-15.06879,7.98,1.59,2.08,2.0
1758075501.75852,1758075501.73491,0.0,0.0,0.0,-59.35843,-59.01466,-13.80828,7.98,1.59,2.08,2.0
1758075501.77431,1758075501.74491,0.0,0.0,0.0,-75.17207,-40.04975,-12.43318,7.54,1.98,0.65,2.0
1758075501.77628,1758075501.75491,0.0,0.0,0.0,-82.7924,-24.86637,-10.08406,9.42,1.51,-0.47,2.0
1758075501.79342,1758075501.76491,0.0,0.0,0.0,-87.37608,-6.70361,-7.16197,9.42,1.51,-0.47,2.0
1758075501.79472,1758075501.77491,0.0,0.0,0.0,-88.98035,13.86558,-4.58366,13.03,-0.04,-1.38,2.0
1758075501.80937,1758075501.78491,0.0,0.0,0.0,-86.51663,40.85189,-1.3178,13.03,-0.04,-1.38,2.0
1758075501.81168,1758075501.79491,0.0,0.0,0.0,-82.90699,55.06125,0.40107,13.92,-1.65,-2.22,2.0
1758075501.82867,1758075501.80491,0.0,0.0,0.0,-78.55252,67.78091,2.40642,13.92,-1.65,-2.22,2.0
1758075501.84466,1758075501.81491,0.0,0.0,0.0,-74.25533,79.29736,4.58366,12.02,-1.99,-1.89,2.0
1758075501.84638,1758075501.82491,0.0,0.0,0.0,-68.29657,93.16295,7.84952,9.88,-1.59,-0.94,2.0
1758075501.86166,1758075501.83491,0.0,0.0,0.0,-63.88479,96.77258,9.96947,9.88,-1.59,-0.94,2.0
1758075501.86366,1758075501.84491,0.0,0.0,0.0,-59.64491,96.02773,11.17268,8.25,-1.49,-0.21,2.0
1758075501.87839,1758075501.85491,0.0,0.0,0.0,-52.65482,91.90244,12.37589,8.25,-1.49,-0.21,2.0
1758075501.89443,1758075501.86491,0.0,0.0,0.0,-46.98254,79.01089,12.2613,7.81,-1.84,0.26,2.0
1758075501.89913,1758075501.87491,0.0,0.0,0.0,-41.08107,69.95815,11.11538,7.81,-1.84,0.26,2.0
1758075501.91449,1758075501.88491,0.0,0.0,0.0,-34.37747,64.62964,10.31324,8.28,-2.36,0.07,2.0
1758075501.91912,1758075501.89491,0.0,0.0,0.0,-22.97561,61.65026,10.31324,8.28,-2.36,0.07,2.0
1758075501.9347,1758075501.90491,0.0,0.0,0.0,-14.49583,58.49899,11.80293,9.1,-2.57,-0.08,2.0
1758075501.93756,1758075501.91491,0.0,0.0,0.0,-5.90147,52.36834,14.61043,8.51,-2.49,-0.15,2.0
1758075501.95274,1758075501.92491,0.0,0.0,0.0,2.40642,45.89392,18.44924,8.51,-2.49,-0.15,2.0
1758075501.95558,1758075501.93491,0.0,0.0,0.0,15.06879,36.95578,25.49662,8.41,-2.42,-0.41,2.0
1758075501.97374,1758075501.94491,0.0,0.0,0.0,23.0902,34.49206,29.73651,8.41,-2.42,-0.41,2.0
1758075501.97664,1758075501.95491,0.0,0.0,0.0,29.67921,30.76784,32.83048,9.11,-2.29,-0.74,2.0
1758075501.9935,1758075501.96491,0.0,0.0,0.0,33.9764,21.94428,33.40344,9.11,-2.29,-0.74,2.0
1758075501.9948,1758075501.97491,0.0,0.0,0.0,39.19032,21.88699,31.56997,8.75,-1.92,-1.06,2.0
1758075502.01158,1758075501.98491,0.0,0.0,0.0,42.39888,28.93437,29.10626,10.14,-1.55,-1.16,2.0
1758075502.01368,1758075501.99491,0.0,0.0,0.0,44.11775,34.0337,24.63719,10.14,-1.55,-1.16,2.0
1758075502.02878,1758075502.00491,0.0,0.0,0.0,46.81066,34.77854,21.88699,9.83,-1.23,-0.98,2.0
1758075502.0448,1758075502.01491,0.0,0.0,0.0,50.2484,22.68913,15.46986,9.83,-1.23,-0.98,2.0
1758075502.04574,1758075502.02491,0.0,0.0,0.0,52.19646,12.2613,12.14671,8.7,-1.09,-0.94,2.0
1758075502.06154,1758075502.03491,0.0,0.0,0.0,54.02992,8.136,8.25059,8.7,-1.09,-0.94,2.0
1758075502.06326,1758075502.04491,0.0,0.0,0.0,55.34772,12.54778,2.57831,9.66,-1.05,-1.48,2.0
1758075502.07756,1758075502.05491,0.0,0.0,0.0,55.97798,19.82434,-1.3178,10.87,-0.97,-0.29,2.0
1758075502.09382,1758075502.06491,0.0,0.0,0.0,59.75951,0.80214,-7.67763,10.87,-0.97,-0.29,2.0
1758075502.09503,1758075502.07491,0.0,0.0,0.0,62.22322,-32.25753,-7.39116,7.61,-0.98,-0.93,2.0
1758075502.10985,1758075502.08491,0.0,0.0,0.0,70.30193,-79.46925,4.29718,7.61,-0.98,-0.93,2.0
1758075502.11105,1758075502.09491,0.0,0.0,0.0,71.79161,-82.7924,11.00079,9.75,-1.82,-1.77,2.0
1758075502.12861,1758075502.10491,0.0,0.0,0.0,74.02615,-74.59911,17.76169,9.75,-1.82,-1.77,2.0
1758075502.14459,1758075502.11491,0.0,0.0,0.0,75.17207,-70.24463,21.7151,12.53,-1.91,-0.99,2.0
1758075502.1467,1758075502.12491,0.0,0.0,0.0,72.76565,-72.0208,23.49127,12.53,-1.91,-0.13,2.0
1758075502.16267,1758075502.13491,0.0,0.0,0.0,67.78091,-73.51049,22.57454,10.89,-1.35,-0.13,2.0
1758075502.16361,1758075502.14491,0.0,0.0,0.0,60.79083,-78.66711,21.88699,11.0,-0.11,1.6,2.0
1758075502.17862,1758075502.15491,0.0,0.0,0.0,51.50891,-87.43336,22.11617,11.0,-0.11,1.6,2.0
1758075502.19488,1758075502.16491,0.0,0.0,0.0,37.18496,-104.33562,27.38738,12.76,2.81,3.26,2.0
1758075502.19525,1758075502.17491,0.0,0.0,0.0,28.93437,-109.89331,34.60666,12.76,2.81,3.26,2.0
1758075502.21147,1758075502.18491,0.0,0.0,0.0,23.26209,-110.52357,41.08107,16.21,4.94,3.07,2.0
1758075502.21378,1758075502.19491,0.0,0.0,0.0,19.99623,-106.11179,43.77398,16.21,4.94,3.07,2.0
1758075502.22897,1758075502.20491,0.0,0.0,0.0,21.88699,-92.81918,41.99781,14.51,2.61,1.94,2.0
1758075502.24498,1758075502.21491,0.0,0.0,0.0,28.07493,-79.81302,38.1017,10.42,-1.11,2.74,2.0
1758075502.24534,1758075502.22491,0.0,0.0,0.0,36.26823,-65.89015,32.42941,10.42,-1.11,2.74,2.0
1758075502.26177,1758075502.23491,0.0,0.0,0.0,43.77398,-50.99325,24.98096,8.24,-2.83,2.31,2.0
1758075502.26303,1758075502.24491,0.0,0.0,0.0,54.94666,-27.10091,12.49048,8.24,-2.83,2.31,2.0
1758075502.27878,1758075502.25491,0.0,0.0,0.0,61.59297,-9.22462,5.72958,7.97,-3.07,1.37,2.0
1758075502.29555,1758075502.26491,0.0,0.0,0.0,66.635,8.30789,0.0,7.97,-3.07,1.37,2.0
1758075502.29623,1758075502.27491,0.0,0.0,0.0,69.67168,25.55392,-5.21392,9.77,-2.55,0.67,2.0
1758075502.31203,1758075502.28491,0.0,0.0,0.0,68.01009,51.73809,-6.99009,12.43,-0.82,-0.25,2.0
1758075502.31379,1758075502.29491,0.0,0.0,0.0,64.62964,68.35387,-6.07335,12.43,-0.82,-0.25,2.0
1758075502.32907,1758075502.30491,0.0,0.0,0.0,59.41573,81.87567,-4.46907,13.56,1.86,-1.41,2.0
1758075502.34483,1758075502.31491,0.0,0.0,0.0,50.47758,90.58463,-1.03132,13.56,1.86,-1.41,2.0
1758075502.34527,1758075502.32491,0.0,0.0,0.0,44.86259,92.18892,1.60428,11.66,3.18,-0.53,2.0
1758075502.36279,1758075502.33491,0.0,0.0,0.0,39.4768,92.93376,3.20856,11.66,3.18,-0.53,2.0
1758075502.36396,1758075502.34491,0.0,0.0,0.0,34.37747,92.4754,4.1253,9.33,2.55,-0.05,2.0
1758075502.37902,1758075502.35491,0.0,0.0,0.0,27.04361,89.89708,5.21392,7.67,2.55,0.28,2.0
1758075502.39488,1758075502.36491,0.0,0.0,0.0,21.94428,85.54259,5.55769,7.67,1.63,0.28,2.0
1758075502.39536,1758075502.37491,0.0,0.0,0.0,16.21471,80.72976,4.98473,6.81,1.08,0.52,2.0
1758075502.41083,1758075502.38491,0.0,0.0,0.0,9.74028,75.34396,4.0107,6.81,1.08,0.52,2.0
1758075502.41202,1758075502.39491,0.0,0.0,0.0,-1.43239,67.72362,0.57296,6.94,1.03,0.45,2.0
1758075502.42708,1758075502.40491,0.0,0.0,0.0,-9.39651,60.79083,-3.09397,6.94,1.03,0.45,2.0
1758075502.42885,1758075502.41491,0.0,0.0,0.0,-17.30333,50.3057,-7.62034,7.54,1.21,0.45,2.0
1758075502.44438,1758075502.42491,0.0,0.0,0.0,-24.63719,39.07573,-11.00079,7.54,1.21,0.45,2.0
1758075502.46193,1758075502.43491,0.0,0.0,0.0,-37.98711,29.04896,-20.62648,8.22,1.47,0.54,2.0
1758075502.46283,1758075502.44491,0.0,0.0,0.0,-45.09178,22.57454,-26.01229,9.18,1.81,0.56,2.0
1758075502.4779,1758075502.45491,0.0,0.0,0.0,-51.50891,16.272,-31.56997,9.18,1.81,0.56,2.0
1758075502.47923,1758075502.46491,0.0,0.0,0.0,-56.78012,11.17268,-36.38282,9.54,1.84,0.25,2.0
1758075502.49446,1758075502.47491,0.0,0.0,0.0,-62.22322,6.8182,-37.92981,9.54,1.84,0.25,2.0
1758075502.50986,1758075502.48491,0.0,0.0,0.0,-63.99939,4.46907,-37.92981,9.78,1.36,-0.02,2.0
1758075502.51349,1758075502.49491,0.0,0.0,0.0,-64.85883,2.11994,-36.6693,9.78,1.36,-0.02,2.0
1758075502.52919,1758075502.50491,0.0,0.0,0.0,-64.28587,-2.6929,-32.88778,9.47,0.69,-0.46,2.0
1758075502.53012,1758075502.51491,0.0,0.0,0.0,-62.62429,-10.59972,-29.27814,8.73,0.17,-1.17,2.0
1758075502.5455,1758075502.52491,0.0,0.0,0.0,-60.61894,-22.00158,-25.72581,8.73,0.17,-1.17,2.0
