timeStamp,timeStampAlign,roll,pitch,yaw,gyro_x,gyro_y,gyro_z,acc_x,acc_y,acc_z,flag_num
1758077148.13348,1758077148.11499,0.0,0.0,0.0,-26.69983,36.32552,10.25595,8.43,-1.08,0.48,2.0
1758077148.13706,1758077148.12499,0.0,0.0,0.0,-26.52795,30.13758,6.53172,8.13,-1.13,0.49,2.0
1758077148.15671,1758077148.13499,0.0,0.0,0.0,-26.01229,26.41335,4.64096,8.13,-1.13,0.49,2.0
1758077148.16112,1758077148.14499,0.0,0.0,0.0,-24.63719,23.60586,3.72423,8.04,-1.15,0.4,2.0
1758077148.17668,1758077148.15499,0.0,0.0,0.0,-21.48592,20.62648,3.32316,8.04,-1.15,0.4,2.0
1758077148.17802,1758077148.16499,0.0,0.0,0.0,-19.19409,15.75634,3.55234,8.34,-1.17,0.22,2.0
1758077148.19453,1758077148.17499,0.0,0.0,0.0,-17.24603,13.12073,3.72423,8.45,-1.14,0.12,2.0
1758077148.19721,1758077148.18499,0.0,0.0,0.0,-15.35527,10.65701,3.89611,8.45,-1.14,0.12,2.0
1758077148.21357,1758077148.19499,0.0,0.0,0.0,-13.12073,6.07335,3.66693,8.52,-1.03,0.13,2.0
1758077148.2214,1758077148.20499,0.0,0.0,0.0,-11.74564,3.32316,3.49504,8.52,-1.03,0.13,2.0
1758077148.23675,1758077148.21499,0.0,0.0,0.0,-10.8289,4.98473,2.6929,8.81,-0.89,0.12,2.0
1758077148.24197,1758077148.22499,0.0,0.0,0.0,-9.96947,10.48513,1.60428,8.81,-0.89,0.12,2.0
1758077148.25682,1758077148.23499,0.0,0.0,0.0,-9.68299,21.60051,-1.48969,9.77,-0.78,0.18,2.0
1758077148.26172,1758077148.24499,0.0,0.0,0.0,-8.88085,27.38738,-3.55234,10.0,-0.83,0.28,2.0
1758077148.27702,1758077148.25499,0.0,0.0,0.0,-7.10468,29.9084,-5.15662,10.0,-0.83,0.28,2.0
1758077148.27872,1758077148.26499,0.0,0.0,0.0,-4.0107,25.55392,-5.72958,9.19,-1.11,0.16,2.0
1758077148.29373,1758077148.27499,0.0,0.0,0.0,2.92208,10.65701,-4.87014,9.19,-1.11,0.16,2.0
1758077148.29654,1758077148.28499,0.0,0.0,0.0,9.11003,-0.0573,-3.32316,7.83,-1.68,-0.54,2.0
1758077148.31388,1758077148.29499,0.0,0.0,0.0,16.10011,-12.71966,-1.14592,7.83,-1.68,-0.54,2.0
1758077148.31718,1758077148.30499,0.0,0.0,0.0,23.37668,-26.41335,0.97403,7.06,-2.41,-0.67,2.0
1758077148.33387,1758077148.31499,0.0,0.0,0.0,33.17426,-56.26446,5.32851,6.47,-2.88,-0.62,2.0
1758077148.3359,1758077148.32499,0.0,0.0,0.0,36.95578,-75.05748,9.28192,6.47,-2.88,-0.62,2.0
1758077148.35209,1758077148.33499,0.0,0.0,0.0,38.38818,-81.30271,10.02676,7.87,-2.88,-0.77,2.0
1758077148.36812,1758077148.34499,0.0,0.0,0.0,41.94051,-63.48372,14.78231,7.87,-2.88,-0.77,2.0
1758077148.36982,1758077148.35499,0.0,0.0,0.0,42.39888,-28.01764,16.10011,13.26,-2.45,-0.17,2.0
1758077148.38583,1758077148.36499,0.0,0.0,0.0,39.01843,-17.13144,15.0115,13.26,-2.45,-0.17,2.0
1758077148.39004,1758077148.37499,0.0,0.0,0.0,34.43476,-21.37133,11.86023,11.67,-1.47,0.54,2.0
1758077148.40565,1758077148.38499,0.0,0.0,0.0,30.02299,-44.63341,5.32851,11.67,-1.47,0.54,2.0
1758077148.40917,1758077148.39499,0.0,0.0,0.0,27.33009,-57.46767,3.60963,7.77,-0.6,-1.35,2.0
1758077148.42592,1758077148.40499,0.0,0.0,0.0,21.48592,-53.17049,-0.85944,8.27,0.73,-0.66,2.0
1758077148.42681,1758077148.41499,0.0,0.0,0.0,18.22006,-49.90463,-0.51566,8.27,0.73,-0.66,2.0
1758077148.4418,1758077148.42499,0.0,0.0,0.0,15.98552,-38.27358,4.58366,11.9,0.02,0.28,2.0
1758077148.45985,1758077148.43499,0.0,0.0,0.0,13.12073,-35.92446,7.44845,11.9,0.02,0.28,2.0
1758077148.46084,1758077148.44499,0.0,0.0,0.0,10.08406,-44.28964,10.54242,15.38,-0.44,2.64,2.0
1758077148.47689,1758077148.45499,0.0,0.0,0.0,7.16197,-51.50891,15.0115,15.38,-0.44,2.64,2.0
1758077148.47774,1758077148.46499,0.0,0.0,0.0,0.40107,-48.35764,20.68378,16.37,-0.05,2.71,2.0
1758077148.49307,1758077148.47499,0.0,0.0,0.0,-4.87014,-41.71133,22.00158,15.08,-0.24,0.9,2.0
1758077148.50892,1758077148.48499,0.0,0.0,0.0,-9.91217,-34.72124,21.08485,15.08,-0.24,0.9,2.0
1758077148.51044,1758077148.49499,0.0,0.0,0.0,-13.69369,-27.2155,17.58981,10.64,-1.14,0.29,2.0
1758077148.52598,1758077148.50499,0.0,0.0,0.0,-13.5791,-20.11082,10.94349,10.64,-1.14,0.29,2.0
1758077148.52713,1758077148.51499,0.0,0.0,0.0,-8.70896,-18.16276,7.04738,8.5,-1.68,0.78,2.0
1758077148.54203,1758077148.52499,0.0,0.0,0.0,-0.40107,-16.04282,3.55234,8.5,-1.68,0.78,2.0
1758077148.55917,1758077148.53499,0.0,0.0,0.0,10.08406,-13.00614,1.77617,8.92,-1.66,1.67,2.0
1758077148.56085,1758077148.54499,0.0,0.0,0.0,27.44468,-8.59437,1.94806,9.9,-1.17,2.32,2.0
1758077148.57585,1758077148.55499,0.0,0.0,0.0,38.21629,-4.58366,4.23989,9.9,-1.17,2.32,2.0
1758077148.57708,1758077148.56499,0.0,0.0,0.0,46.86795,-0.22918,7.79223,10.55,-0.51,1.68,2.0
1758077148.59186,1758077148.57499,0.0,0.0,0.0,54.77477,4.1253,13.80828,10.55,-0.51,1.68,2.0
1758077148.6082,1758077148.58499,0.0,0.0,0.0,56.26446,10.54242,15.64175,11.31,0.17,1.19,2.0
1758077148.60984,1758077148.59499,0.0,0.0,0.0,54.431,15.64175,14.78231,11.31,0.17,1.19,2.0
1758077148.62508,1758077148.60499,0.0,0.0,0.0,49.90463,21.08485,11.00079,11.69,0.69,0.56,2.0
1758077148.62606,1758077148.61499,0.0,0.0,0.0,40.27893,28.13223,2.29183,11.69,0.69,0.56,2.0
1758077148.64114,1758077148.62499,0.0,0.0,0.0,33.80451,32.6013,-3.89611,10.76,0.7,0.12,2.0
1758077148.65687,1758077148.63499,0.0,0.0,0.0,27.84575,36.21093,-9.74028,9.71,0.65,0.2,2.0
1758077148.66123,1758077148.64499,0.0,0.0,0.0,23.31938,37.35685,-14.09476,9.71,0.65,0.2,2.0
1758077148.67715,1758077148.65499,0.0,0.0,0.0,18.56383,37.98711,-17.30333,9.34,0.72,0.3,2.0
1758077148.68128,1758077148.66499,0.0,0.0,0.0,16.90226,37.35685,-17.36062,9.34,0.72,0.3,2.0
1758077148.69711,1758077148.67499,0.0,0.0,0.0,16.38659,35.58068,-16.3293,9.48,0.8,0.26,2.0
1758077148.6981,1758077148.68499,0.0,0.0,0.0,16.84496,32.25753,-14.09476,9.48,0.8,0.26,2.0
1758077148.71401,1758077148.69499,0.0,0.0,0.0,18.50654,25.26744,-9.85487,9.25,0.72,0.37,2.0
1758077148.71601,1758077148.70499,0.0,0.0,0.0,19.53786,20.05352,-7.21927,8.84,0.39,0.46,2.0
1758077148.73205,1758077148.71499,0.0,0.0,0.0,20.16812,16.04282,-5.32851,8.84,0.39,0.46,2.0
1758077148.74783,1758077148.72499,0.0,0.0,0.0,20.68378,12.37589,-3.89611,8.63,0.03,0.42,2.0
1758077148.74981,1758077148.73499,0.0,0.0,0.0,21.08485,6.87549,-3.09397,8.63,0.03,0.42,2.0
1758077148.76652,1758077148.74499,0.0,0.0,0.0,21.37133,4.81285,-3.09397,8.33,-0.23,0.37,2.0
1758077148.76772,1758077148.75499,0.0,0.0,0.0,21.42862,4.1253,-3.20856,8.33,-0.23,0.37,2.0
1758077148.78716,1758077148.76499,0.0,0.0,0.0,21.37133,3.89611,-3.32316,8.7,-0.25,0.19,2.0
1758077148.78811,1758077148.77499,0.0,0.0,0.0,20.62648,4.64096,-3.32316,9.02,-0.01,-0.06,2.0
1758077148.80476,1758077148.78499,0.0,0.0,0.0,19.82434,5.90147,-3.26586,9.02,-0.01,-0.06,2.0
1758077148.80729,1758077148.79499,0.0,0.0,0.0,18.79302,7.33386,-3.03668,9.29,0.17,-0.24,2.0
1758077148.82458,1758077148.80499,0.0,0.0,0.0,16.67307,12.08941,-3.32316,9.29,0.17,-0.24,2.0
1758077148.8274,1758077148.81499,0.0,0.0,0.0,15.29797,19.48057,-3.32316,9.75,0.32,-0.31,2.0
1758077148.84401,1758077148.82499,0.0,0.0,0.0,14.09476,27.84575,-2.86479,9.75,0.32,-0.31,2.0
1758077148.84497,1758077148.83499,0.0,0.0,0.0,12.60507,36.21093,-2.23454,10.27,0.43,-0.36,2.0
1758077148.86091,1758077148.84499,0.0,0.0,0.0,10.08406,44.23235,-1.3751,10.09,0.43,-0.14,2.0
1758077148.87699,1758077148.85499,0.0,0.0,0.0,8.02141,42.85724,-0.68755,10.09,0.59,-0.14,2.0
1758077148.87895,1758077148.86499,0.0,0.0,0.0,5.50039,34.95043,0.22918,8.9,0.86,0.15,2.0
1758077148.89392,1758077148.87499,0.0,0.0,0.0,2.7502,23.66316,2.57831,8.9,0.86,0.15,2.0
1758077148.89594,1758077148.88499,0.0,0.0,0.0,-2.92208,7.44845,4.87014,8.05,1.07,0.34,2.0
1758077148.91203,1758077148.89499,0.0,0.0,0.0,-6.47442,-2.40642,4.18259,8.05,1.07,0.34,2.0
1758077148.92832,1758077148.90499,0.0,0.0,0.0,-9.33921,-18.22006,4.46907,7.28,1.14,-0.03,2.0
1758077148.92996,1758077148.91499,0.0,0.0,0.0,-11.11538,-37.01308,3.72423,7.28,1.14,-0.03,2.0
1758077148.94529,1758077148.92499,0.0,0.0,0.0,-8.76626,-41.99781,1.60428,7.42,0.69,-0.11,2.0
1758077148.94615,1758077148.93499,0.0,0.0,0.0,-5.84417,-38.27358,1.08862,9.92,0.48,-0.74,2.0
1758077148.96105,1758077148.94499,0.0,0.0,0.0,-5.4431,-33.34615,0.22918,9.92,0.48,-0.74,2.0
1758077148.9772,1758077148.95499,0.0,0.0,0.0,-4.29718,-28.70519,-0.68755,10.86,0.43,-0.46,2.0
1758077148.97817,1758077148.96499,0.0,0.0,0.0,-3.49504,-42.28429,-2.92208,10.86,0.43,-0.46,2.0
1758077148.99304,1758077148.97499,0.0,0.0,0.0,-3.38045,-44.40423,-2.57831,9.04,0.32,-1.28,2.0
1758077148.9966,1758077148.98499,0.0,0.0,0.0,-4.87014,-28.07493,-2.6929,9.04,0.32,-1.28,2.0
1758077149.0123,1758077148.99499,0.0,0.0,0.0,-11.97482,-0.45837,-3.09397,11.51,0.75,-1.76,2.0
1758077149.02912,1758077149.00499,0.0,0.0,0.0,-17.13144,8.47978,-2.63561,11.52,1.45,-0.94,2.0
1758077149.03098,1758077149.01499,0.0,0.0,0.0,-20.74107,14.66772,-0.74485,11.52,1.45,-0.94,2.0
1758077149.04607,1758077149.02499,0.0,0.0,0.0,-21.60051,16.10011,1.77617,12.01,1.29,1.38,2.0
1758077149.04752,1758077149.03499,0.0,0.0,0.0,-17.30333,-2.86479,2.29183,12.01,1.29,1.38,2.0
1758077149.06243,1758077149.04499,0.0,0.0,0.0,-12.71966,-25.61122,-0.34377,13.32,0.0,4.77,2.0
1758077149.07908,1758077149.05499,0.0,0.0,0.0,-9.4538,-38.38818,-4.92744,13.32,0.0,4.77,2.0
1758077149.08341,1758077149.06499,0.0,0.0,0.0,-3.95341,-33.63263,-8.70896,15.05,-2.12,3.31,2.0
1758077149.09905,1758077149.07499,0.0,0.0,0.0,4.69825,-17.30333,-10.37054,14.77,-2.73,1.05,2.0
1758077149.10179,1758077149.08499,0.0,0.0,0.0,8.36518,-11.74564,-9.11003,14.77,-2.73,1.05,2.0
1758077149.11731,1758077149.09499,0.0,0.0,0.0,8.99544,-8.59437,-5.95876,10.87,-1.05,0.82,2.0
1758077149.11821,1758077149.10499,0.0,0.0,0.0,6.8182,-8.02141,-2.00535,10.87,-1.05,0.82,2.0
1758077149.13331,1758077149.11499,0.0,0.0,0.0,-1.66158,-9.11003,4.0107,9.79,0.5,1.58,2.0
1758077149.14931,1758077149.12499,0.0,0.0,0.0,-9.33921,-8.76626,6.99009,9.79,0.5,1.58,2.0
1758077149.15097,1758077149.13499,0.0,0.0,0.0,-17.36062,-8.47978,8.36518,10.1,1.1,2.41,2.0
1758077149.16606,1758077149.14499,0.0,0.0,0.0,-24.92367,-8.59437,8.30789,10.1,1.1,2.41,2.0
1758077149.16725,1758077149.15499,0.0,0.0,0.0,-33.51803,-9.28192,5.95876,9.25,0.84,2.49,2.0
1758077149.18205,1758077149.16499,0.0,0.0,0.0,-37.29956,-9.28192,3.55234,8.48,0.11,2.36,2.0
1758077149.20079,1758077149.17499,0.0,0.0,0.0,-39.01843,-8.47978,0.57296,8.48,0.11,2.36,2.0
1758077149.20183,1758077149.18499,0.0,0.0,0.0,-38.38818,-7.21927,-3.20856,8.86,-0.69,1.91,2.0
1758077149.21735,1758077149.19499,0.0,0.0,0.0,-36.26823,-3.83882,-4.58366,8.86,-0.69,1.91,2.0
1758077149.2214,1758077149.20499,0.0,0.0,0.0,-33.46074,-0.34377,-4.64096,9.92,-1.42,1.28,2.0
1758077149.23733,1758077149.21499,0.0,0.0,0.0,-29.96569,4.29718,-3.66693,9.92,-1.42,1.28,2.0
1758077149.23907,1758077149.22499,0.0,0.0,0.0,-24.57989,12.08941,-0.85944,11.14,-1.96,1.14,2.0
1758077149.25407,1758077149.23499,0.0,0.0,0.0,-21.37133,16.04282,1.14592,11.09,-2.12,1.06,2.0
1758077149.25608,1758077149.24499,0.0,0.0,0.0,-18.79302,19.42327,3.38045,11.09,-2.12,1.06,2.0
1758077149.27239,1758077149.25499,0.0,0.0,0.0,-16.38659,22.63183,5.32851,10.34,-1.72,0.82,2.0
1758077149.28942,1758077149.26499,0.0,0.0,0.0,-14.03747,26.98631,7.96411,10.34,-1.72,0.82,2.0
1758077149.2903,1758077149.27499,0.0,0.0,0.0,-12.89155,28.99167,9.28192,9.94,-1.26,0.63,2.0
1758077149.30512,1758077149.28499,0.0,0.0,0.0,-12.14671,31.28349,10.19865,9.94,-1.26,0.63,2.0
1758077149.30756,1758077149.29499,0.0,0.0,0.0,-11.80293,32.6013,10.54242,9.82,-1.08,0.42,2.0
1758077149.3221,1758077149.30499,0.0,0.0,0.0,-11.51645,32.54401,10.59972,9.44,-1.07,0.31,2.0
1758077149.34176,1758077149.31499,0.0,0.0,0.0,-10.94349,32.83048,9.68299,9.44,-1.07,0.31,2.0
1758077149.34353,1758077149.32499,0.0,0.0,0.0,-10.94349,31.56997,9.62569,9.03,-1.13,0.34,2.0
1758077149.34592,1758077149.33499,0.0,0.0,0.0,-10.19865,30.76784,9.39651,9.03,-1.13,0.34,2.0
1758077149.36121,1758077149.34499,0.0,0.0,0.0,-8.47978,28.70519,8.65166,8.86,-1.23,0.44,2.0
1758077149.37744,1758077149.35499,0.0,0.0,0.0,-7.84952,27.73116,7.73493,8.86,-1.23,0.44,2.0
1758077149.37832,1758077149.36499,0.0,0.0,0.0,-6.87549,25.26744,6.53172,8.86,-1.12,0.38,2.0
1758077149.39332,1758077149.37499,0.0,0.0,0.0,-5.78687,23.0902,4.98473,8.86,-1.12,0.38,2.0
1758077149.39702,1758077149.38499,0.0,0.0,0.0,-4.1253,20.45459,3.55234,8.93,-0.88,0.42,2.0
1758077149.41234,1758077149.39499,0.0,0.0,0.0,-2.97938,18.33465,2.86479,8.79,-0.81,0.27,2.0
1758077149.4284,1758077149.40499,0.0,0.0,0.0,-2.06265,16.272,2.11994,8.79,-0.81,0.27,2.0
1758077149.42932,1758077149.41499,0.0,0.0,0.0,-1.20321,11.97482,1.14592,8.59,-0.85,0.16,2.0
1758077149.44444,1758077149.42499,0.0,0.0,0.0,-0.97403,10.48513,0.74485,8.59,-0.85,0.16,2.0
1758077149.44533,1758077149.43499,0.0,0.0,0.0,-1.14592,11.57375,0.0573,8.77,-0.87,0.1,2.0
1758077149.46145,1758077149.44499,0.0,0.0,0.0,-1.83346,15.35527,-0.80214,8.77,-0.87,0.1,2.0
1758077149.47723,1758077149.45499,0.0,0.0,0.0,-3.83882,24.75178,-3.20856,9.49,-0.77,0.01,2.0
1758077149.47861,1758077149.46499,0.0,0.0,0.0,-4.92744,31.28349,-5.21392,9.9,-0.56,0.04,2.0
1758077149.49395,1758077149.47499,0.0,0.0,0.0,-5.78687,36.03905,-7.16197,9.9,-0.56,0.04,2.0
1758077149.496,1758077149.48499,0.0,0.0,0.0,-5.4431,36.03905,-7.73493,9.46,-0.54,0.11,2.0
1758077149.51245,1758077149.49499,0.0,0.0,0.0,-3.89611,24.63719,-7.10468,9.46,-0.54,0.11,2.0
1758077149.52939,1758077149.50499,0.0,0.0,0.0,-1.66158,15.0115,-5.72958,8.3,-0.84,0.12,2.0
1758077149.53038,1758077149.51499,0.0,0.0,0.0,1.3178,5.32851,-3.72423,8.3,-0.84,0.12,2.0
1758077149.54544,1758077149.52499,0.0,0.0,0.0,4.23989,-4.64096,-2.00535,8.24,-1.37,0.33,2.0
1758077149.54636,1758077149.53499,0.0,0.0,0.0,8.42248,-20.85567,0.11459,8.17,-1.86,0.67,2.0
1758077149.56145,1758077149.54499,0.0,0.0,0.0,10.31324,-33.05967,1.3178,8.17,-1.86,0.67,2.0
1758077149.57745,1758077149.55499,0.0,0.0,0.0,8.70896,-40.68,0.34377,8.52,-1.45,0.82,2.0
1758077149.57878,1758077149.56499,0.0,0.0,0.0,6.18794,-42.68536,0.11459,8.52,-1.45,0.82,2.0
1758077149.59349,1758077149.57499,0.0,0.0,0.0,5.27121,-44.51882,0.45837,9.88,-0.86,0.24,2.0
1758077149.60944,1758077149.58499,0.0,0.0,0.0,6.70361,-35.52338,2.00535,9.88,-0.86,0.24,2.0
1758077149.61065,1758077149.59499,0.0,0.0,0.0,8.88085,-17.6471,3.38045,11.89,-0.99,0.12,2.0
1758077149.62522,1758077149.60499,0.0,0.0,0.0,10.94349,-3.09397,2.97938,11.89,-0.99,0.12,2.0
1758077149.62637,1758077149.61499,0.0,0.0,0.0,13.06344,-2.7502,0.57296,11.57,-0.91,0.34,2.0
1758077149.64157,1758077149.62499,0.0,0.0,0.0,14.78231,-11.86023,-4.23989,8.47,-0.78,-0.39,2.0
1758077149.65721,1758077149.63499,0.0,0.0,0.0,17.6471,-37.92981,-4.23989,8.47,-0.78,-0.39,2.0
1758077149.65835,1758077149.64499,0.0,0.0,0.0,18.56383,-41.25296,-5.90147,7.95,-0.82,-0.7,2.0
1758077149.67438,1758077149.65499,0.0,0.0,0.0,18.9649,-33.68992,-8.136,7.95,-0.82,-0.7,2.0
1758077149.6768,1758077149.66499,0.0,0.0,0.0,21.02755,-29.73651,-9.28192,10.77,-0.93,-0.96,2.0
1758077149.69219,1758077149.67499,0.0,0.0,0.0,23.26209,-22.91831,-10.37054,10.77,-0.93,-0.96,2.0
1758077149.70946,1758077149.68499,0.0,0.0,0.0,26.12688,-13.5791,-11.91752,11.43,-1.55,-0.79,2.0
1758077149.71042,1758077149.69499,0.0,0.0,0.0,26.35606,-9.11003,-13.46451,12.28,-1.32,0.69,2.0
1758077149.726,1758077149.70499,0.0,0.0,0.0,24.23611,-9.62569,-14.43854,12.28,-1.32,0.69,2.0
1758077149.72724,1758077149.71499,0.0,0.0,0.0,20.11082,-15.0115,-12.2613,14.0,-0.37,2.92,2.0
1758077149.7432,1758077149.72499,0.0,0.0,0.0,11.80293,-27.2155,-3.55234,14.0,-0.37,2.92,2.0
1758077149.74733,1758077149.73499,0.0,0.0,0.0,6.7609,-32.88778,3.89611,15.52,0.31,2.68,2.0
1758077149.76223,1758077149.74499,0.0,0.0,0.0,2.92208,-31.85646,10.25595,15.52,0.31,2.68,2.0
1758077149.7786,1758077149.75499,0.0,0.0,0.0,1.3751,-27.73116,14.32395,13.24,-0.44,1.01,2.0
1758077149.7794,1758077149.76499,0.0,0.0,0.0,2.63561,-22.11617,15.41257,9.44,-1.82,1.32,2.0
1758077149.79454,1758077149.77499,0.0,0.0,0.0,4.69825,-17.76169,13.46451,9.44,-1.82,1.32,2.0
1758077149.79702,1758077149.78499,0.0,0.0,0.0,8.30789,-11.28727,9.74028,8.34,-2.21,2.24,2.0
1758077149.81356,1758077149.79499,0.0,0.0,0.0,13.12073,-4.52637,2.97938,8.34,-2.21,2.24,2.0
1758077149.81604,1758077149.80499,0.0,0.0,0.0,22.63183,4.0107,0.11459,8.12,-1.75,2.35,2.0
1758077149.83253,1758077149.81499,0.0,0.0,0.0,29.27814,9.05273,-0.40107,8.12,-1.75,2.35,2.0
1758077149.8496,1758077149.82499,0.0,0.0,0.0,35.3515,12.71966,0.40107,9.13,-1.27,1.91,2.0
1758077149.85004,1758077149.83499,0.0,0.0,0.0,41.48215,17.01685,1.77617,9.13,-1.27,1.91,2.0
1758077149.86554,1758077149.84499,0.0,0.0,0.0,43.37291,21.42862,2.86479,10.87,-0.87,1.24,2.0
1758077149.8669,1758077149.85498,0.0,0.0,0.0,43.20102,27.38738,3.32316,12.36,-0.49,0.81,2.0
1758077149.88124,1758077149.86498,0.0,0.0,0.0,41.88322,33.63263,2.97938,12.36,-0.49,0.81,2.0
1758077149.8976,1758077149.87498,0.0,0.0,0.0,37.92981,40.10705,0.97403,11.77,-0.36,0.62,2.0
1758077149.90088,1758077149.88498,0.0,0.0,0.0,34.72124,41.76862,-1.14592,11.77,-0.36,0.62,2.0
1758077149.91657,1758077149.89498,0.0,0.0,0.0,31.74186,42.51347,-2.97938,10.03,-0.2,0.87,2.0
1758077149.91748,1758077149.90498,0.0,0.0,0.0,28.76248,41.65404,-4.92744,10.03,-0.2,0.87,2.0
1758077149.93263,1758077149.91498,0.0,0.0,0.0,25.21014,37.64333,-6.87549,9.28,0.11,1.03,2.0
1758077149.94829,1758077149.92498,0.0,0.0,0.0,22.97561,33.46074,-7.67763,8.91,0.46,1.11,2.0
1758077149.94901,1758077149.93498,0.0,0.0,0.0,20.45459,28.59059,-7.96411,8.91,0.46,1.11,2.0
1758077149.96511,1758077149.94498,0.0,0.0,0.0,17.76169,24.12152,-8.0787,8.68,0.8,1.15,2.0
1758077149.96629,1758077149.95498,0.0,0.0,0.0,13.00614,17.53251,-8.42248,8.68,0.8,1.15,2.0
1758077149.98143,1758077149.96498,0.0,0.0,0.0,9.28192,14.32395,-8.70896,8.46,1.08,0.92,2.0
1758077149.99761,1758077149.97498,0.0,0.0,0.0,5.78687,12.83425,-8.47978,8.46,1.08,0.92,2.0
1758077149.99844,1758077149.98498,0.0,0.0,0.0,2.6929,11.57375,-8.136,8.59,1.1,0.67,2.0
1758077150.01409,1758077149.99498,0.0,0.0,0.0,-0.34377,10.25595,-6.53172,8.62,0.61,0.48,2.0
1758077150.01609,1758077150.00498,0.0,0.0,0.0,-0.85944,11.00079,-4.69825,8.62,0.61,0.48,2.0
1758077150.03158,1758077150.01498,0.0,0.0,0.0,-0.0573,13.17803,-2.23454,9.05,-0.32,0.39,2.0
1758077150.04754,1758077150.02498,0.0,0.0,0.0,2.86479,15.0115,0.74485,9.05,-0.32,0.39,2.0
1758077150.04928,1758077150.03498,0.0,0.0,0.0,4.81285,17.18874,1.71887,9.44,-1.14,0.16,2.0
1758077150.06461,1758077150.04498,0.0,0.0,0.0,6.13065,20.05352,1.48969,9.44,-1.14,0.16,2.0
1758077150.06556,1758077150.05498,0.0,0.0,0.0,6.53172,24.23611,0.51566,10.0,-1.03,-0.08,2.0
1758077150.08134,1758077150.06498,0.0,0.0,0.0,5.55769,33.34615,-1.14592,10.0,-1.03,-0.08,2.0
1758077150.09764,1758077150.07498,0.0,0.0,0.0,4.23989,40.7373,-2.06265,10.3,-0.36,-0.13,2.0
1758077150.09897,1758077150.08498,0.0,0.0,0.0,2.92208,45.89392,-2.63561,10.09,0.1,-0.18,2.0
1758077150.11368,1758077150.09498,0.0,0.0,0.0,1.3178,47.15443,-2.63561,10.09,0.1,-0.18,2.0
1758077150.11707,1758077150.10498,0.0,0.0,0.0,-1.3178,45.37826,-2.7502,9.54,0.28,-0.09,2.0
1758077150.1332,1758077150.11498,0.0,0.0,0.0,-3.09397,40.39353,-2.57831,9.54,0.28,-0.09,2.0
1758077150.13658,1758077150.12498,0.0,0.0,0.0,-5.27121,31.2262,-1.66158,8.92,0.43,0.03,2.0
1758077150.15166,1758077150.13498,0.0,0.0,0.0,-8.99544,20.62648,-1.94806,8.92,0.43,0.03,2.0
1758077150.1675,1758077150.14498,0.0,0.0,0.0,-14.32395,-0.80214,-3.55234,7.69,0.92,0.11,2.0
1758077150.17051,1758077150.15498,0.0,0.0,0.0,-17.53251,-29.10626,-0.85944,5.61,1.14,-0.43,2.0
1758077150.18563,1758077150.16498,0.0,0.0,0.0,-18.44924,-46.2377,-1.66158,5.61,1.14,-0.43,2.0
1758077150.18652,1758077150.17498,0.0,0.0,0.0,-16.10011,-49.04519,0.40107,7.21,0.8,0.12,2.0
1758077150.20144,1758077150.18498,0.0,0.0,0.0,-18.50654,-47.89928,3.26586,7.21,0.8,0.12,2.0
1758077150.21739,1758077150.19498,0.0,0.0,0.0,-21.31403,-40.85189,3.49504,9.71,0.77,0.33,2.0
1758077150.21855,1758077150.20498,0.0,0.0,0.0,-27.67386,-34.60666,1.08862,9.71,0.77,0.33,2.0
1758077150.23338,1758077150.21498,0.0,0.0,0.0,-33.68992,-32.42941,-4.23989,10.92,1.06,0.08,2.0
1758077150.23644,1758077150.22498,0.0,0.0,0.0,-39.19032,-30.13758,-6.47442,9.97,0.93,0.45,2.0
1758077150.25147,1758077150.23498,0.0,0.0,0.0,-41.08107,-20.97026,-7.04738,9.97,0.93,0.45,2.0
1758077150.26753,1758077150.24498,0.0,0.0,0.0,-41.42485,-11.63104,-6.99009,11.55,0.5,1.94,2.0
1758077150.26936,1758077150.25498,0.0,0.0,0.0,-36.03905,-12.49048,-10.31324,11.55,0.5,1.94,2.0
1758077150.28438,1758077150.26498,0.0,0.0,0.0,-30.36677,-26.24147,-14.15206,12.74,-0.69,4.86,2.0
1758077150.28558,1758077150.27498,0.0,0.0,0.0,-24.92367,-39.13302,-19.53786,12.74,-0.69,4.86,2.0
1758077150.30042,1758077150.28498,0.0,0.0,0.0,-19.07949,-40.50812,-22.11617,13.86,-2.54,4.84,2.0
1758077150.3164,1758077150.29498,0.0,0.0,0.0,-10.94349,-33.11696,-20.74107,13.86,-2.54,2.24,2.0
1758077150.31759,1758077150.30498,0.0,0.0,0.0,-7.44845,-25.72581,-16.84496,14.59,-2.88,2.24,2.0
1758077150.33556,1758077150.31498,0.0,0.0,0.0,-6.7609,-19.70975,-10.8289,12.37,-0.9,1.65,2.0
1758077150.33683,1758077150.32498,0.0,0.0,0.0,-8.47978,-15.58445,-3.95341,12.37,-0.9,1.65,2.0
1758077150.35241,1758077150.33498,0.0,0.0,0.0,-15.24068,-12.37589,4.98473,10.43,0.89,1.72,2.0
1758077150.35363,1758077150.34498,0.0,0.0,0.0,-21.60051,-11.34457,8.47978,10.43,0.89,1.72,2.0
1758077150.36896,1758077150.35498,0.0,0.0,0.0,-28.59059,-10.54242,9.5684,10.11,1.34,2.13,2.0
1758077150.38556,1758077150.36498,0.0,0.0,0.0,-34.95043,-9.39651,8.88085,10.11,1.34,2.13,2.0
1758077150.38747,1758077150.37498,0.0,0.0,0.0,-41.76862,-9.22462,5.61499,9.9,0.66,2.37,2.0
1758077150.40269,1758077150.38498,0.0,0.0,0.0,-43.94586,-6.99009,3.26586,9.48,-0.69,1.98,2.0
1758077150.40363,1758077150.39498,0.0,0.0,0.0,-44.17505,-2.7502,0.51566,9.48,-0.69,1.98,2.0
1758077150.42063,1758077150.40498,0.0,0.0,0.0,-42.22699,0.34377,-2.11994,9.69,-1.59,1.72,2.0
1758077150.4367,1758077150.41498,0.0,0.0,0.0,-37.92981,3.66693,-5.27121,9.69,-1.59,1.72,2.0
1758077150.43762,1758077150.42498,0.0,0.0,0.0,-34.43476,6.7609,-6.47442,10.23,-1.98,1.29,2.0
1758077150.45239,1758077150.43498,0.0,0.0,0.0,-31.62727,9.96947,-6.35983,10.23,-1.98,1.29,2.0
1758077150.45444,1758077150.44498,0.0,0.0,0.0,-29.10626,15.29797,-5.27121,10.65,-1.93,1.28,2.0
1758077150.4717,1758077150.45498,0.0,0.0,0.0,-28.30412,17.6471,-3.49504,10.06,-1.62,1.39,2.0
1758077150.48771,1758077150.46498,0.0,0.0,0.0,-28.30412,18.90761,-1.43239,10.06,-1.62,1.39,2.0
1758077150.48972,1758077150.47498,0.0,0.0,0.0,-28.30412,18.50654,0.74485,9.33,-1.3,1.45,2.0
1758077150.50527,1758077150.48498,0.0,0.0,0.0,-28.24682,15.75634,4.0107,9.33,-1.3,1.45,2.0
1758077150.50646,1758077150.49498,0.0,0.0,0.0,-27.67386,14.32395,6.07335,9.0,-1.27,1.21,2.0
1758077150.52179,1758077150.50498,0.0,0.0,0.0,-26.87172,12.83425,7.44845,9.0,-1.27,1.21,2.0
1758077150.5375,1758077150.51498,0.0,0.0,0.0,-25.7831,11.57375,8.65166,9.07,-1.49,0.97,2.0
1758077150.539,1758077150.52498,0.0,0.0,0.0,-24.4653,9.85487,9.33921,9.14,-1.64,0.86,2.0
1758077150.55372,1758077150.53498,0.0,0.0,0.0,-23.66316,9.33921,9.22462,9.14,-1.64,0.86,2.0
1758077150.55646,1758077150.54498,0.0,0.0,0.0,-23.0329,8.99544,8.65166,9.2,-1.5,0.8,2.0
1758077150.57191,1758077150.55498,0.0,0.0,0.0,-22.68913,8.42248,7.50575,9.2,-1.5,0.8,2.0
1758077150.58773,1758077150.56498,0.0,0.0,0.0,-22.23076,7.50575,5.55769,9.2,-1.23,0.75,2.0
1758077150.58861,1758077150.57498,0.0,0.0,0.0,-21.08485,7.67763,4.46907,9.2,-1.23,0.75,2.0
1758077150.60364,1758077150.58498,0.0,0.0,0.0,-19.99623,7.50575,3.89611,9.29,-1.16,0.65,2.0
1758077150.60462,1758077150.59498,0.0,0.0,0.0,-18.56383,7.84952,3.55234,9.29,-1.16,0.65,2.0
1758077150.61999,1758077150.60498,0.0,0.0,0.0,-16.67307,7.79223,2.63561,9.21,-1.29,0.5,2.0
1758077150.63569,1758077150.61498,0.0,0.0,0.0,-15.64175,6.41713,2.40642,8.86,-1.45,0.44,2.0
1758077150.63666,1758077150.62498,0.0,0.0,0.0,-14.83961,6.87549,1.83346,8.86,-1.45,0.44,2.0
1758077150.65176,1758077150.63498,0.0,0.0,0.0,-14.61043,7.16197,0.22918,8.99,-1.48,0.39,2.0
1758077150.66775,1758077150.64498,0.0,0.0,0.0,-14.32395,8.42248,-1.03132,8.99,-1.48,0.39,2.0
1758077150.66893,1758077150.65498,0.0,0.0,0.0,-14.03747,12.77696,-2.57831,9.11,-1.36,0.23,2.0
1758077150.68346,1758077150.66498,0.0,0.0,0.0,-13.5791,20.51189,-4.29718,9.11,-1.36,0.23,2.0
1758077150.68474,1758077150.67498,0.0,0.0,0.0,-12.43318,35.12231,-7.39116,9.72,-1.19,-0.02,2.0
1758077150.70002,1758077150.68498,0.0,0.0,0.0,-10.65701,42.57077,-8.36518,9.82,-1.18,0.07,2.0
1758077150.71577,1758077150.69498,0.0,0.0,0.0,-8.25059,43.25832,-8.42248,9.82,-1.18,0.07,2.0
1758077150.71668,1758077150.70498,0.0,0.0,0.0,-5.15662,38.44547,-7.73493,8.56,-1.44,0.16,2.0
1758077150.7318,1758077150.71498,0.0,0.0,0.0,1.20321,25.8404,-5.50039,8.56,-1.44,0.16,2.0
1758077150.74784,1758077150.72498,0.0,0.0,0.0,6.53172,14.66772,-3.60963,7.76,-2.0,-0.01,2.0
1758077150.74871,1758077150.73498,0.0,0.0,0.0,11.80293,1.66158,-1.83346,7.76,-2.0,-0.01,2.0
1758077150.76374,1758077150.74498,0.0,0.0,0.0,16.90226,-16.10011,-0.11459,7.12,-2.61,0.13,2.0
1758077150.76497,1758077150.75498,0.0,0.0,0.0,20.45459,-48.30034,1.3178,6.31,-2.67,0.03,2.0
1758077150.7797,1758077150.76498,0.0,0.0,0.0,20.74107,-58.3844,0.40107,6.31,-2.67,0.03,2.0
1758077150.7967,1758077150.77498,0.0,0.0,0.0,21.6578,-45.72203,0.57296,9.88,-2.16,0.25,2.0
1758077150.79768,1758077150.78498,0.0,0.0,0.0,18.9649,-19.88164,-0.57296,9.88,-2.16,0.25,2.0
1758077150.81277,1758077150.79498,0.0,0.0,0.0,16.90226,-10.48513,-1.3751,12.7,-0.99,1.3,2.0
1758077150.81481,1758077150.80498,0.0,0.0,0.0,16.55848,-16.272,-3.26586,12.7,-0.99,1.3,2.0
1758077150.83177,1758077150.81498,0.0,0.0,0.0,17.99088,-25.55392,-4.92744,9.83,-1.29,-0.32,2.0
1758077150.8478,1758077150.82498,0.0,0.0,0.0,18.79302,-39.3622,-8.36518,9.83,-1.29,-0.32,2.0
1758077150.84985,1758077150.83498,0.0,0.0,0.0,19.42327,-56.14987,-9.33921,8.46,-1.26,-0.61,2.0
1758077150.86458,1758077150.84498,0.0,0.0,0.0,19.59516,-55.92068,-8.136,10.5,-1.25,0.83,2.0
1758077150.86732,1758077150.85498,0.0,0.0,0.0,19.19409,-50.363,-5.61499,10.5,-1.25,0.83,2.0
1758077150.88256,1758077150.86498,0.0,0.0,0.0,17.36062,-48.35764,-1.14592,14.36,-1.05,2.02,2.0
1758077150.884,1758077150.87498,0.0,0.0,0.0,14.78231,-53.34238,2.7502,14.36,-1.05,2.02,2.0
1758077150.90136,1758077150.88498,0.0,0.0,0.0,11.17268,-55.7488,8.0787,15.04,-0.26,2.52,2.0
1758077150.91757,1758077150.89498,0.0,0.0,0.0,6.53172,-54.77477,12.2613,15.04,-0.26,2.52,2.0
1758077150.91876,1758077150.90498,0.0,0.0,0.0,0.0,-46.00851,15.46986,14.43,0.01,1.41,2.0
1758077150.93358,1758077150.91498,0.0,0.0,0.0,-3.55234,-35.2942,15.06879,11.31,-0.8,0.18,2.0
1758077150.93585,1758077150.92498,0.0,0.0,0.0,-5.84417,-25.15285,13.5218,11.31,-0.8,0.18,2.0
1758077150.95182,1758077150.93498,0.0,0.0,0.0,-5.61499,-17.99088,11.00079,9.13,-1.38,0.91,2.0
1758077150.96756,1758077150.94498,0.0,0.0,0.0,0.17189,-13.5218,6.07335,9.13,-1.38,0.91,2.0
1758077150.96879,1758077150.95498,0.0,0.0,0.0,7.50575,-10.02676,2.23454,8.43,-1.71,1.93,2.0
1758077150.98358,1758077150.96498,0.0,0.0,0.0,16.84496,-5.4431,-0.0573,8.43,-1.71,1.93,2.0
1758077150.98481,1758077150.97498,0.0,0.0,0.0,26.64254,-0.11459,-0.74485,10.03,-1.68,2.54,2.0
1758077151.00006,1758077150.98498,0.0,0.0,0.0,39.24761,7.50575,1.14592,11.67,-1.08,2.0,2.0
1758077151.01568,1758077150.99498,0.0,0.0,0.0,45.20637,11.74564,4.1253,11.67,-1.08,2.0,2.0
1758077151.01682,1758077151.00498,0.0,0.0,0.0,48.52953,15.69904,7.44845,12.37,-0.31,1.32,2.0
1758077151.03165,1758077151.01498,0.0,0.0,0.0,49.21708,20.3973,9.39651,12.37,-0.31,1.32,2.0
1758077151.04792,1758077151.02498,0.0,0.0,0.0,45.83662,29.73651,7.50575,12.1,0.11,0.84,2.0
1758077151.0491,1758077151.03498,0.0,0.0,0.0,41.59674,35.00772,4.0107,12.1,0.11,0.84,2.0
1758077151.06407,1758077151.04498,0.0,0.0,0.0,36.38282,37.98711,-0.57296,10.63,0.17,0.71,2.0
1758077151.06567,1758077151.05498,0.0,0.0,0.0,28.76248,39.24761,-7.73493,10.63,0.17,0.71,2.0
1758077151.08067,1758077151.06498,0.0,0.0,0.0,24.12152,39.53409,-11.80293,9.23,0.22,0.68,2.0
1758077151.09665,1758077151.07498,0.0,0.0,0.0,20.16812,39.76327,-14.66772,9.01,0.55,0.7,2.0
1758077151.09783,1758077151.08498,0.0,0.0,0.0,16.90226,38.44547,-16.3293,9.01,0.55,0.7,2.0
1758077151.11285,1758077151.09498,0.0,0.0,0.0,13.06344,33.46074,-16.3293,8.96,1.0,0.75,2.0
1758077151.11384,1758077151.10498,0.0,0.0,0.0,11.28727,28.41871,-15.29797,8.96,1.0,0.75,2.0
1758077151.13089,1758077151.11498,0.0,0.0,0.0,9.4538,22.05888,-14.03747,8.89,1.26,0.69,2.0
1758077151.14666,1758077151.12498,0.0,0.0,0.0,7.84952,15.92823,-12.54778,8.89,1.26,0.69,2.0
1758077151.14785,1758077151.13498,0.0,0.0,0.0,5.50039,7.44845,-10.37054,8.71,1.2,0.75,2.0
1758077151.16397,1758077151.14498,0.0,0.0,0.0,3.55234,3.83882,-9.68299,8.68,0.84,0.78,2.0
1758077151.16709,1758077151.15498,0.0,0.0,0.0,1.3751,0.57296,-9.62569,8.68,0.84,0.78,2.0
1758077151.18268,1758077151.16498,0.0,0.0,0.0,-0.51566,-1.3751,-9.91217,8.73,0.4,0.63,2.0
1758077151.18567,1758077151.17498,0.0,0.0,0.0,-3.09397,-1.66158,-10.65701,8.73,0.4,0.63,2.0
1758077151.20192,1758077151.18498,0.0,0.0,0.0,-4.46907,-1.14592,-10.65701,9.01,0.11,0.48,2.0
1758077151.22111,1758077151.19498,0.0,0.0,0.0,-5.27121,-0.0573,-10.25595,9.01,0.11,0.48,2.0
1758077151.22209,1758077151.20498,0.0,0.0,0.0,-5.84417,1.3751,-9.22462,9.15,-0.01,0.44,2.0
1758077151.22695,1758077151.21498,0.0,0.0,0.0,-6.58902,4.98473,-7.39116,9.43,-0.03,0.36,2.0
1758077151.24378,1758077151.22498,0.0,0.0,0.0,-6.8182,11.34457,-5.90147,9.43,-0.03,0.36,2.0
1758077151.24546,1758077151.23498,0.0,0.0,0.0,-6.87549,19.70975,-4.35448,10.08,0.04,0.25,2.0
1758077151.26069,1758077151.24498,0.0,0.0,0.0,-7.16197,27.61657,-2.86479,10.08,0.04,0.25,2.0
1758077151.2767,1758077151.25498,0.0,0.0,0.0,-7.73493,39.19032,-0.74485,10.12,0.18,0.24,2.0
1758077151.27788,1758077151.26498,0.0,0.0,0.0,-8.42248,46.40959,0.45837,10.12,0.18,0.24,2.0
1758077151.296,1758077151.27498,0.0,0.0,0.0,-9.91217,52.54023,0.85944,9.97,0.38,0.19,2.0
1758077151.29731,1758077151.28498,0.0,0.0,0.0,-13.46451,47.67009,0.11459,9.97,0.38,0.19,2.0
1758077151.31374,1758077151.29498,0.0,0.0,0.0,-16.272,33.68992,-0.22918,8.92,0.65,0.4,2.0
1758077151.31627,1758077151.30498,0.0,0.0,0.0,-20.51189,21.7151,-1.60428,7.6,1.07,0.56,2.0
1758077151.33167,1758077151.31498,0.0,0.0,0.0,-24.00693,11.28727,-3.83882,7.6,1.07,0.56,2.0
1758077151.34774,1758077151.32498,0.0,0.0,0.0,-28.01764,-9.68299,-6.58902,7.29,1.43,0.79,2.0
1758077151.34969,1758077151.33498,0.0,0.0,0.0,-28.30412,-31.2262,-6.58902,7.29,1.43,0.79,2.0
1758077151.36576,1758077151.34498,0.0,0.0,0.0,-26.01229,-46.2377,-6.87549,7.12,0.88,1.25,2.0
1758077151.36702,1758077151.35498,0.0,0.0,0.0,-22.91831,-48.35764,-6.24524,7.12,0.88,1.25,2.0
1758077151.38194,1758077151.36498,0.0,0.0,0.0,-20.3973,-40.39353,-5.27121,9.75,0.24,0.63,2.0
1758077151.39764,1758077151.37498,0.0,0.0,0.0,-22.00158,-39.99245,-6.7609,10.82,0.46,0.36,2.0
1758077151.39991,1758077151.38498,0.0,0.0,0.0,-24.29341,-48.9306,-9.28192,10.82,0.46,0.36,2.0
1758077151.41584,1758077151.39498,0.0,0.0,0.0,-26.64254,-56.03527,-10.54242,9.38,0.81,-0.45,2.0
1758077151.41704,1758077151.40498,0.0,0.0,0.0,-29.56462,-37.29956,-8.99544,9.38,0.81,-0.45,2.0
1758077151.43207,1758077151.41498,0.0,0.0,0.0,-33.11696,-19.53786,-7.16197,12.06,1.1,-1.07,2.0
1758077151.44804,1758077151.42498,0.0,0.0,0.0,-39.01843,-9.62569,-6.53172,12.06,1.1,-1.07,2.0
1758077151.45057,1758077151.43498,0.0,0.0,0.0,-43.65939,-5.72958,-4.1253,11.63,1.45,-1.07,2.0
1758077151.46576,1758077151.44498,0.0,0.0,0.0,-47.61279,-1.66158,2.57831,10.88,0.93,-0.03,2.0
1758077151.46731,1758077151.45498,0.0,0.0,0.0,-47.32632,-0.51566,7.10468,10.88,0.93,-0.03,2.0
1758077151.48177,1758077151.46498,0.0,0.0,0.0,-44.28964,-8.70896,9.4538,12.61,-0.42,2.64,2.0
1758077151.50101,1758077151.47498,0.0,0.0,0.0,-36.95578,-25.43933,4.98473,12.61,-0.42,2.64,2.0
1758077151.50267,1758077151.48498,0.0,0.0,0.0,-33.17426,-48.9879,-1.66158,13.43,-1.92,3.93,2.0
1758077151.52189,1758077151.49498,0.0,0.0,0.0,-29.67921,-51.27972,-7.44845,13.43,-1.92,3.93,2.0
1758077151.52618,1758077151.50498,0.0,0.0,0.0,-27.38738,-41.59674,-12.08941,13.76,-2.49,1.98,2.0
1758077151.52679,1758077151.51498,0.0,0.0,0.0,-25.55392,-30.02299,-12.89155,13.76,-2.49,1.98,2.0
1758077151.54275,1758077151.52498,0.0,0.0,0.0,-26.12688,-26.81443,-10.8862,11.87,-1.17,1.46,2.0
1758077151.54633,1758077151.53498,0.0,0.0,0.0,-28.13223,-24.12152,-7.33386,9.26,0.28,1.68,2.0
1758077151.56199,1758077151.54498,0.0,0.0,0.0,-31.79916,-21.14215,-3.72423,9.26,0.28,1.68,2.0
1758077151.56384,1758077151.55498,0.0,0.0,0.0,-40.27893,-17.87628,0.0573,8.96,0.9,2.39,2.0
1758077151.58109,1758077151.56498,0.0,0.0,0.0,-46.81066,-15.41257,0.85944,8.96,0.9,2.39,2.0
1758077151.5971,1758077151.57498,0.0,0.0,0.0,-53.17049,-11.22997,0.0,9.11,0.86,2.55,2.0
1758077151.59798,1758077151.58498,0.0,0.0,0.0,-58.55629,-7.16197,-1.60428,9.11,0.86,2.55,2.0
1758077151.61312,1758077151.59498,0.0,0.0,0.0,-64.11398,-2.92208,-3.95341,9.81,0.23,1.93,2.0
1758077151.61402,1758077151.60498,0.0,0.0,0.0,-65.43179,2.00535,-4.87014,10.95,-0.86,1.5,2.0
1758077151.63084,1758077151.61498,0.0,0.0,0.0,-64.85883,8.47978,-4.35448,10.95,-0.86,1.5,2.0
1758077151.64713,1758077151.62498,0.0,0.0,0.0,-62.85347,15.0115,-3.03668,12.06,-1.96,1.26,2.0
1758077151.64804,1758077151.63498,0.0,0.0,0.0,-57.86874,22.68913,-0.57296,12.06,-1.96,1.26,2.0
1758077151.66284,1758077151.64498,0.0,0.0,0.0,-54.431,25.49662,1.3178,11.27,-2.35,1.16,2.0
1758077151.66404,1758077151.65498,0.0,0.0,0.0,-51.6235,27.96034,3.66693,11.27,-2.35,1.16,2.0
1758077151.68113,1758077151.66498,0.0,0.0,0.0,-49.61814,30.19488,6.87549,10.04,-1.82,0.9,2.0
1758077151.69702,1758077151.67498,0.0,0.0,0.0,-47.49821,33.23156,8.99544,9.55,-1.22,0.84,2.0
1758077151.69806,1758077151.68498,0.0,0.0,0.0,-46.75336,34.60666,10.25595,9.55,-1.22,0.84,2.0
1758077151.71314,1758077151.69498,0.0,0.0,0.0,-45.89392,34.77854,11.17268,9.28,-1.01,0.69,2.0
1758077151.71404,1758077151.70498,0.0,0.0,0.0,-44.9199,34.09099,11.57375,9.28,-1.01,0.69,2.0
1758077151.73111,1758077151.71498,0.0,0.0,0.0,-43.77398,34.43476,11.51645,9.04,-1.16,0.52,2.0
1758077151.74686,1758077151.72498,0.0,0.0,0.0,-43.25832,34.09099,10.19865,9.04,-1.16,0.52,2.0
1758077151.74819,1758077151.73498,0.0,0.0,0.0,-42.1124,31.74186,9.11003,8.71,-1.32,0.51,2.0
1758077151.76401,1758077151.74498,0.0,0.0,0.0,-39.3622,28.87707,7.67763,8.71,-1.32,0.42,2.0
1758077151.76561,1758077151.75498,0.0,0.0,0.0,-37.24226,26.12688,6.99009,8.38,-1.52,0.42,2.0
1758077151.78164,1758077151.76498,0.0,0.0,0.0,-35.06502,23.37668,6.35983,8.21,-1.63,0.26,2.0
1758077151.79898,1758077151.77498,0.0,0.0,0.0,-33.11696,20.51189,5.61499,8.21,-1.63,0.26,2.0
1758077151.80067,1758077151.78498,0.0,0.0,0.0,-30.53865,16.50119,4.29718,8.23,-1.63,0.23,2.0
1758077151.81592,1758077151.79498,0.0,0.0,0.0,-28.93437,14.03747,3.26586,8.23,-1.63,0.23,2.0
1758077151.81706,1758077151.80498,0.0,0.0,0.0,-27.2155,11.45916,2.40642,8.43,-1.56,0.16,2.0
1758077151.83191,1758077151.81498,0.0,0.0,0.0,-25.55392,9.85487,1.71887,8.43,-1.56,0.16,2.0
1758077151.84807,1758077151.82498,0.0,0.0,0.0,-22.86102,14.49583,0.57296,8.93,-1.54,0.12,2.0
1758077151.8499,1758077151.83498,0.0,0.0,0.0,-21.31403,22.91831,-0.51566,10.03,-1.46,-0.15,2.0
1758077151.8652,1758077151.84498,0.0,0.0,0.0,-19.82434,32.25753,-2.11994,10.03,-1.46,-0.15,2.0
1758077151.86611,1758077151.85498,0.0,0.0,0.0,-18.50654,39.19032,-3.66693,10.25,-1.36,-0.02,2.0
1758077151.88116,1758077151.86498,0.0,0.0,0.0,-15.24068,35.98175,-4.58366,10.25,-1.36,-0.02,2.0
1758077151.89718,1758077151.87498,0.0,0.0,0.0,-12.14671,25.38203,-4.23989,8.62,-1.45,0.01,2.0
1758077151.89854,1758077151.88498,0.0,0.0,0.0,-8.02141,12.2613,-3.60963,8.62,-1.45,0.01,2.0
1758077151.91372,1758077151.89498,0.0,0.0,0.0,-1.20321,-0.74485,-2.29183,7.35,-1.98,0.0,2.0
1758077151.91655,1758077151.90498,0.0,0.0,0.0,3.72423,-21.7724,-0.74485,7.13,-2.58,0.06,2.0
1758077151.93224,1758077151.91498,0.0,0.0,0.0,7.67763,-42.68536,0.85944,7.13,-2.58,0.06,2.0
1758077151.94822,1758077151.92498,0.0,0.0,0.0,9.91217,-62.16592,2.92208,6.77,-2.72,0.14,2.0
1758077151.95075,1758077151.93498,0.0,0.0,0.0,13.34992,-70.13004,3.60963,6.77,-2.72,0.14,2.0
1758077151.96593,1758077151.94498,0.0,0.0,0.0,15.41257,-54.02992,3.89611,9.95,-2.58,0.11,2.0
1758077151.9676,1758077151.95498,0.0,0.0,0.0,17.30333,-32.83048,4.81285,9.95,-2.58,0.11,2.0
1758077151.98234,1758077151.96498,0.0,0.0,0.0,15.75634,-19.36597,2.6929,12.82,-1.9,0.51,2.0
1758077151.99982,1758077151.97498,0.0,0.0,0.0,11.86023,-18.16276,-3.89611,10.43,-0.95,-0.3,2.0
1758077152.00101,1758077151.98498,0.0,0.0,0.0,9.4538,-30.13758,-11.11538,10.43,-0.95,-0.3,2.0
1758077152.01702,1758077151.99498,0.0,0.0,0.0,9.33921,-55.29043,-12.49048,7.36,-0.4,-1.51,2.0
1758077152.02146,1758077152.00498,0.0,0.0,0.0,6.41713,-58.67088,-15.64175,7.36,-0.4,-1.51,2.0
1758077152.03628,1758077152.01498,0.0,0.0,0.0,-1.60428,-44.9199,-21.14215,10.18,0.45,-0.68,2.0
1758077152.03743,1758077152.02498,0.0,0.0,0.0,-1.71887,-43.54479,-18.33465,10.18,0.45,-0.68,2.0
1758077152.05212,1758077152.03498,0.0,0.0,0.0,-2.00535,-34.95043,-15.87093,11.46,-0.38,-1.52,2.0
1758077152.05559,1758077152.04498,0.0,0.0,0.0,-3.09397,-28.70519,-13.23533,11.46,-0.38,-1.52,2.0
1758077152.07131,1758077152.05498,0.0,0.0,0.0,-6.8182,-28.36141,-13.06344,13.83,-0.96,1.92,2.0
1758077152.08726,1758077152.06498,0.0,0.0,0.0,-11.00079,-40.10705,-7.62034,15.77,-0.3,3.85,2.0
1758077152.09134,1758077152.07498,0.0,0.0,0.0,-14.32395,-50.47758,-0.17189,15.77,-0.3,3.85,2.0
1758077152.10702,1758077152.08498,0.0,0.0,0.0,-17.30333,-49.27437,8.47978,15.35,-0.08,1.58,2.0
1758077152.12596,1758077152.09498,0.0,0.0,0.0,-21.08485,-33.00237,11.17268,15.35,-0.08,1.58,2.0
1758077152.12622,1758077152.10498,0.0,0.0,0.0,-22.40265,-25.43933,10.65701,11.44,-1.11,0.09,2.0
1758077152.12716,1758077152.11498,0.0,0.0,0.0,-21.25674,-21.02755,8.136,11.44,-1.11,0.09,2.0
1758077152.142,1758077152.12498,0.0,0.0,0.0,-14.72501,-13.75099,2.57831,7.97,-2.05,1.29,2.0
1758077152.14679,1758077152.13498,0.0,0.0,0.0,-7.79223,-7.84952,-1.14592,8.42,-2.4,2.1,2.0
1758077152.162,1758077152.14498,0.0,0.0,0.0,0.0573,-2.06265,-4.0107,8.42,-2.4,2.1,2.0
1758077152.1672,1758077152.15498,0.0,0.0,0.0,8.76626,1.43239,-5.09932,9.82,-2.25,2.89,2.0
1758077152.18332,1758077152.16498,0.0,0.0,0.0,19.76705,3.55234,-4.64096,9.82,-2.25,2.89,2.0
1758077152.18854,1758077152.17498,0.0,0.0,0.0,24.92367,5.32851,-3.09397,10.86,-1.43,2.4,2.0
1758077152.20329,1758077152.18498,0.0,0.0,0.0,27.61657,8.99544,-1.3751,10.86,-1.43,2.4,2.0
1758077152.20974,1758077152.19498,0.0,0.0,0.0,28.13223,14.20935,-0.11459,12.48,-0.07,1.7,2.0
1758077152.2253,1758077152.20498,0.0,0.0,0.0,24.86637,21.31403,-0.40107,12.35,0.84,1.15,2.0
1758077152.22696,1758077152.21498,0.0,0.0,0.0,20.34,24.75178,-2.23454,12.35,0.84,1.15,2.0
1758077152.24228,1758077152.22498,0.0,0.0,0.0,14.78231,27.73116,-5.32851,10.49,0.82,1.03,2.0
1758077152.24395,1758077152.23498,0.0,0.0,0.0,8.65166,29.50733,-8.70896,10.49,0.82,1.03,2.0
1758077152.26135,1758077152.24498,0.0,0.0,0.0,-0.17189,31.79916,-12.77696,9.12,0.67,1.02,2.0
1758077152.27709,1758077152.25498,0.0,0.0,0.0,-5.32851,32.6013,-14.43854,9.12,0.67,1.02,2.0
1758077152.28327,1758077152.26498,0.0,0.0,0.0,-9.91217,32.83048,-15.29797,9.06,0.87,0.9,2.0
1758077152.28606,1758077152.27498,0.0,0.0,0.0,-13.80828,32.48671,-15.29797,9.06,0.87,0.9,2.0
1758077152.30202,1758077152.28498,0.0,0.0,0.0,-17.87628,30.48136,-14.38124,9.23,1.19,0.75,2.0
1758077152.30724,1758077152.29498,0.0,0.0,0.0,-19.42327,28.30412,-12.89155,9.22,1.26,0.67,2.0
1758077152.32206,1758077152.30498,0.0,0.0,0.0,-20.51189,26.01229,-11.22997,9.22,1.26,0.67,2.0
1758077152.32417,1758077152.31498,0.0,0.0,0.0,-21.7724,20.34,-8.59437,8.94,1.03,0.79,2.0
1758077152.34107,1758077152.32498,0.0,0.0,0.0,-22.97561,15.69904,-6.53172,8.94,1.03,0.79,2.0
1758077152.3571,1758077152.33498,0.0,0.0,0.0,-24.98096,11.86023,-5.72958,8.74,0.7,0.87,2.0
1758077152.35905,1758077152.34498,0.0,0.0,0.0,-27.61657,9.05273,-5.61499,8.74,0.7,0.87,2.0
1758077152.37403,1758077152.35498,0.0,0.0,0.0,-32.42941,4.81285,-7.04738,9.02,0.5,0.74,2.0
1758077152.37603,1758077152.36498,0.0,0.0,0.0,-35.75257,4.1253,-9.05273,9.28,0.48,0.58,2.0
1758077152.39112,1758077152.37498,0.0,0.0,0.0,-38.78925,3.60963,-10.31324,9.28,0.48,0.58,2.0
1758077152.40732,1758077152.38498,0.0,0.0,0.0,-41.13837,3.20856,-11.22997,9.52,0.37,0.43,2.0
1758077152.40824,1758077152.39498,0.0,0.0,0.0,-43.54479,5.95876,-11.17268,9.52,0.37,0.43,2.0
1758077152.42408,1758077152.40498,0.0,0.0,0.0,-44.11775,12.77696,-9.62569,9.98,0.14,0.35,2.0
1758077152.42688,1758077152.41498,0.0,0.0,0.0,-44.00316,21.7151,-7.50575,9.98,0.14,0.35,2.0
1758077152.4421,1758077152.42498,0.0,0.0,0.0,-43.83128,29.73651,-5.95876,10.49,-0.08,0.32,2.0
1758077152.44568,1758077152.43498,0.0,0.0,0.0,-43.83128,33.63263,-4.87014,9.65,-0.03,0.34,2.0
1758077152.46133,1758077152.44498,0.0,0.0,0.0,-44.51882,32.48671,-4.29718,9.65,-0.03,0.34,2.0
1758077152.47736,1758077152.45498,0.0,0.0,0.0,-46.35228,31.11161,-4.81285,9.02,0.36,0.21,2.0
1758077152.48145,1758077152.46498,0.0,0.0,0.0,-48.9879,28.24682,-5.84417,9.02,0.36,0.21,2.0
1758077152.49737,1758077152.47498,0.0,0.0,0.0,-54.14451,21.14215,-9.39651,8.62,0.84,0.22,2.0
1758077152.50146,1758077152.48498,0.0,0.0,0.0,-58.26981,10.08406,-12.2613,8.62,0.84,0.22,2.0
1758077152.51708,1758077152.49498,0.0,0.0,0.0,-61.76485,-10.37054,-13.40721,7.65,1.23,0.2,2.0
1758077152.52418,1758077152.50498,0.0,0.0,0.0,-62.5097,-30.48136,-14.61043,7.65,1.23,0.2,2.0
1758077152.52455,1758077152.51498,0.0,0.0,0.0,-57.23849,-33.11696,-13.34992,7.09,0.86,0.79,2.0
1758077152.54179,1758077152.52498,0.0,0.0,0.0,-51.50891,-24.5226,-7.33386,10.25,-0.42,0.9,2.0
1758077152.5571,1758077152.53498,0.0,0.0,0.0,-48.41494,-22.68913,-3.89611,10.25,-0.42,0.9,2.0
1758077152.56148,1758077152.54498,0.0,0.0,0.0,-44.9199,-43.20102,-1.03132,8.85,-0.52,0.64,2.0
1758077152.57891,1758077152.55498,0.0,0.0,0.0,-45.26366,-35.12231,-2.92208,8.85,-0.52,0.64,2.0
1758077152.5807,1758077152.56498,0.0,0.0,0.0,-47.38361,-22.97561,-5.32851,11.24,0.01,-0.2,2.0
1758077152.59647,1758077152.57498,0.0,0.0,0.0,-49.79003,-16.95955,-8.25059,11.24,0.01,-0.2,2.0
1758077152.59815,1758077152.58498,0.0,0.0,0.0,-52.65482,-6.07335,-10.59972,11.23,0.45,0.05,2.0
1758077152.61329,1758077152.59498,0.0,0.0,0.0,-53.62885,4.29718,-10.48513,11.04,0.61,-0.54,2.0
1758077152.61601,1758077152.60498,0.0,0.0,0.0,-54.431,11.11538,-8.99544,11.04,0.61,-0.54,2.0
1758077152.63209,1758077152.61498,0.0,0.0,0.0,-53.91533,11.74564,-7.16197,9.95,0.62,-0.65,2.0
1758077152.64843,1758077152.62498,0.0,0.0,0.0,-52.25375,8.70896,-2.46372,9.95,0.62,-0.65,2.0
1758077152.65018,1758077152.63498,0.0,0.0,0.0,-50.53488,8.76626,0.85944,9.49,0.42,-0.81,2.0
1758077152.66536,1758077152.64498,0.0,0.0,0.0,-48.58683,8.65166,4.23989,9.49,0.42,-0.81,2.0
1758077152.66661,1758077152.65498,0.0,0.0,0.0,-47.09713,5.90147,6.99009,10.14,0.16,-0.37,2.0
1758077152.68143,1758077152.66498,0.0,0.0,0.0,-44.9199,0.45837,9.28192,10.6,-0.16,0.58,2.0
1758077152.69802,1758077152.67498,0.0,0.0,0.0,-42.28429,-4.87014,8.70896,10.6,-0.16,0.58,2.0
1758077152.69918,1758077152.68498,0.0,0.0,0.0,-38.56006,-12.43318,5.50039,12.04,-1.04,1.5,2.0
1758077152.71418,1758077152.69498,0.0,0.0,0.0,-33.68992,-23.26209,1.3178,12.04,-1.04,1.5,2.0
1758077152.71612,1758077152.70498,0.0,0.0,0.0,-29.10626,-39.82057,-8.136,11.93,-1.74,1.8,2.0
1758077152.73138,1758077152.71498,0.0,0.0,0.0,-26.24147,-36.15364,-12.43318,11.93,-1.74,1.8,2.0
1758077152.74741,1758077152.72498,0.0,0.0,0.0,-21.48592,-26.35606,-13.12073,12.44,-1.5,0.24,2.0
1758077152.74917,1758077152.73498,0.0,0.0,0.0,-14.43854,-17.76169,-10.08406,12.44,-1.5,0.24,2.0
1758077152.76437,1758077152.74498,0.0,0.0,0.0,-10.94349,-18.33465,-6.7609,11.41,-0.9,0.14,2.0
1758077152.76618,1758077152.75498,0.0,0.0,0.0,-8.36518,-20.51189,-3.26586,8.94,0.19,0.55,2.0
1758077152.78122,1758077152.76498,0.0,0.0,0.0,-7.16197,-22.34536,0.0,8.94,0.19,0.55,2.0
1758077152.7973,1758077152.77498,0.0,0.0,0.0,-8.02141,-26.24147,3.66693,8.47,0.5,0.91,2.0
1758077152.79838,1758077152.78498,0.0,0.0,0.0,-10.48513,-28.76248,5.15662,8.47,0.5,0.91,2.0
1758077152.81347,1758077152.79498,0.0,0.0,0.0,-13.69369,-29.27814,6.18794,8.73,0.16,1.73,2.0
1758077152.81632,1758077152.80498,0.0,0.0,0.0,-17.87628,-30.13758,6.13065,8.73,0.16,1.73,2.0
1758077152.83243,1758077152.81498,0.0,0.0,0.0,-24.80907,-34.0337,4.87014,9.3,-0.36,2.51,2.0
1758077152.84849,1758077152.82498,0.0,0.0,0.0,-28.76248,-35.12231,3.38045,9.36,-0.9,2.57,2.0
1758077152.85018,1758077152.83498,0.0,0.0,0.0,-31.74186,-32.77319,1.48969,9.36,-0.9,2.57,2.0
1758077152.86546,1758077152.84498,0.0,0.0,0.0,-33.34615,-27.96034,-0.17189,10.32,-1.57,1.86,2.0
1758077152.86722,1758077152.85498,0.0,0.0,0.0,-32.88778,-18.73572,-2.23454,10.32,-1.57,1.86,2.0
1758077152.88325,1758077152.86498,0.0,0.0,0.0,-30.88243,-10.8289,-2.57831,11.3,-2.03,0.92,2.0
1758077152.88498,1758077152.87498,0.0,0.0,0.0,-28.36141,-1.43239,-2.00535,11.3,-2.03,0.92,2.0
1758077152.90149,1758077152.88498,0.0,0.0,0.0,-26.01229,8.47978,-0.68755,12.27,-1.94,0.21,2.0
1758077152.9175,1758077152.89498,0.0,0.0,0.0,-23.37668,19.88164,3.03668,12.2,-1.38,-0.12,2.0
1758077152.91843,1758077152.90498,0.0,0.0,0.0,-22.51724,27.44468,6.24524,12.2,-1.38,-0.12,2.0
1758077152.93348,1758077152.91498,0.0,0.0,0.0,-22.34536,34.66395,9.22462,11.7,-0.75,-0.34,2.0
1758077152.9344,1758077152.92498,0.0,0.0,0.0,-23.20479,40.04975,12.77696,11.7,-0.75,-0.34,2.0
1758077152.95148,1758077152.93498,0.0,0.0,0.0,-24.00693,44.17505,14.49583,10.96,-0.42,-0.21,2.0
1758077152.96748,1758077152.94498,0.0,0.0,0.0,-25.26744,45.43555,15.29797,10.96,-0.42,-0.21,2.0
1758077152.96845,1758077152.95498,0.0,0.0,0.0,-26.35606,44.9199,15.35527,10.31,-0.51,-0.05,2.0
1758077152.98355,1758077152.96498,0.0,0.0,0.0,-27.10091,43.88857,14.49583,10.31,-0.51,-0.05,2.0
1758077152.98448,1758077152.97498,0.0,0.0,0.0,-27.10091,41.42485,13.69369,9.64,-0.78,0.09,2.0
1758077153.00132,1758077152.98498,0.0,0.0,0.0,-27.33009,37.18496,12.2613,8.76,-1.0,0.15,2.0
1758077153.0178,1758077152.99498,0.0,0.0,0.0,-26.81443,33.05967,11.17268,8.76,-1.0,0.15,2.0
1758077153.01848,1758077153.00498,0.0,0.0,0.0,-25.55392,29.10626,9.74028,8.63,-1.15,0.18,2.0
1758077153.03431,1758077153.01498,0.0,0.0,0.0,-24.23611,26.41335,9.22462,8.63,-1.15,0.18,2.0
1758077153.03548,1758077153.02498,0.0,0.0,0.0,-22.68913,22.28806,8.99544,8.59,-1.11,0.12,2.0
1758077153.05053,1758077153.03498,0.0,0.0,0.0,-21.31403,17.99088,8.36518,8.59,-1.11,0.12,2.0
1758077153.06631,1758077153.04498,0.0,0.0,0.0,-19.42327,14.49583,7.04738,8.37,-1.04,0.0,2.0
1758077153.06996,1758077153.05498,0.0,0.0,0.0,-18.22006,12.204,5.55769,8.7,-0.97,-0.06,2.0
1758077153.08631,1758077153.06498,0.0,0.0,0.0,-16.21471,10.37054,4.92744,8.7,-0.97,-0.06,2.0
1758077153.08727,1758077153.07498,0.0,0.0,0.0,-13.69369,12.204,4.87014,9.33,-1.07,-0.19,2.0
1758077153.10253,1758077153.08498,0.0,0.0,0.0,-9.74028,22.40265,4.87014,9.33,-1.07,-0.19,2.0
1758077153.11831,1758077153.09498,0.0,0.0,0.0,-7.16197,28.59059,5.21392,10.31,-1.32,-0.4,2.0
1758077153.12198,1758077153.10498,0.0,0.0,0.0,-4.98473,30.02299,5.61499,10.31,-1.32,-0.4,2.0
1758077153.12763,1758077153.11498,0.0,0.0,0.0,-2.92208,30.13758,5.78687,9.8,-1.51,-0.4,2.0
1758077153.14462,1758077153.12498,0.0,0.0,0.0,0.0,30.30947,5.72958,9.5,-1.59,-0.61,2.0
1758077153.14555,1758077153.13498,0.0,0.0,0.0,1.94806,29.04896,5.32851,9.5,-1.59,-0.61,2.0
1758077153.1606,1758077153.14498,0.0,0.0,0.0,4.1253,26.75713,4.92744,8.96,-1.66,-0.47,2.0
1758077153.17661,1758077153.15498,0.0,0.0,0.0,7.50575,20.79837,4.58366,8.96,-1.66,-0.47,2.0
1758077153.18182,1758077153.16498,0.0,0.0,0.0,9.85487,10.65701,4.52637,8.35,-1.67,-0.3,2.0
1758077153.19663,1758077153.17498,0.0,0.0,0.0,11.34457,-7.44845,4.1253,8.35,-1.67,-0.3,2.0
1758077153.19996,1758077153.18498,0.0,0.0,0.0,11.91752,-27.44468,4.46907,6.77,-1.43,-0.42,2.0
1758077153.21664,1758077153.19498,0.0,0.0,0.0,12.2613,-30.93972,2.23454,6.77,-1.43,-0.64,2.0
1758077153.21761,1758077153.20498,0.0,0.0,0.0,12.43318,-4.87014,4.18259,8.34,-1.16,-0.64,2.0
1758077153.23263,1758077153.21498,0.0,0.0,0.0,10.54242,19.13679,4.23989,12.78,-0.93,0.93,2.0
1758077153.24945,1758077153.22498,0.0,0.0,0.0,9.28192,13.69369,1.20321,12.78,-0.93,0.93,2.0
1758077153.25116,1758077153.23498,0.0,0.0,0.0,5.95876,-43.02913,-5.32851,6.4,-0.81,0.28,2.0
1758077153.26664,1758077153.24498,0.0,0.0,0.0,2.46372,-64.62964,-4.46907,6.4,-0.81,0.28,2.0
1758077153.26839,1758077153.25498,0.0,0.0,0.0,-1.83346,-61.36378,-5.32851,6.74,0.45,-0.24,2.0
1758077153.28361,1758077153.26498,0.0,0.0,0.0,-1.60428,-57.52497,0.68755,6.74,0.45,-0.24,2.0
1758077153.28653,1758077153.27498,0.0,0.0,0.0,-0.57296,-44.17505,7.96411,10.65,-0.8,-1.63,2.0
1758077153.30236,1758077153.28498,0.0,0.0,0.0,-0.40107,-35.3515,9.91217,10.94,-1.97,-0.36,2.0
1758077153.31864,1758077153.29498,0.0,0.0,0.0,-0.85944,-31.16891,7.79223,10.94,-1.97,-0.36,2.0
1758077153.32071,1758077153.30498,0.0,0.0,0.0,-1.08862,-28.476,4.52637,9.59,-2.24,-1.29,2.0
1758077153.33565,1758077153.31498,0.0,0.0,0.0,-2.06265,-18.79302,-1.77617,9.59,-2.24,-1.29,2.0
1758077153.33686,1758077153.32498,0.0,0.0,0.0,-2.6929,-11.63104,-5.90147,10.31,-2.03,-1.02,2.0
1758077153.3514,1758077153.33498,0.0,0.0,0.0,-3.49504,-5.55769,-8.36518,10.31,-2.03,-1.02,2.0
1758077153.36766,1758077153.34498,0.0,0.0,0.0,-5.95876,-1.60428,-9.33921,11.6,-1.52,0.08,2.0
1758077153.36938,1758077153.35498,0.0,0.0,0.0,-9.68299,-1.77617,-9.39651,14.17,-0.66,1.89,2.0
1758077153.38442,1758077153.36498,0.0,0.0,0.0,-15.24068,-10.48513,-7.10468,14.17,-0.66,1.89,2.0
1758077153.38645,1758077153.37498,0.0,0.0,0.0,-20.74107,-20.34,-1.83346,15.58,0.1,2.7,2.0
1758077153.40165,1758077153.38498,0.0,0.0,0.0,-24.92367,-28.36141,7.67763,15.58,0.1,2.7,2.0
1758077153.41773,1758077153.39498,0.0,0.0,0.0,-24.86637,-28.476,13.12073,14.45,-0.65,1.13,2.0
1758077153.41863,1758077153.40498,0.0,0.0,0.0,-23.49127,-22.91831,17.47521,14.45,-0.65,1.13,2.0
1758077153.43369,1758077153.41498,0.0,0.0,0.0,-22.40265,-14.03747,18.10547,11.8,-2.45,-0.16,2.0
1758077153.43465,1758077153.42498,0.0,0.0,0.0,-20.45459,-3.72423,12.43318,9.71,-2.45,0.37,2.0
1758077153.45046,1758077153.43498,0.0,0.0,0.0,-17.93358,0.68755,6.70361,9.71,-2.67,0.37,2.0
1758077153.4667,1758077153.44498,0.0,0.0,0.0,-14.20935,3.09397,1.83346,9.05,-1.74,1.6,2.0
1758077153.46764,1758077153.45498,0.0,0.0,0.0,-9.33921,3.83882,-1.08862,9.05,-1.74,1.6,2.0
1758077153.4828,1758077153.46498,0.0,0.0,0.0,-1.14592,4.46907,-2.63561,9.41,-0.65,3.13,2.0
1758077153.48524,1758077153.47498,0.0,0.0,0.0,4.1253,6.47442,-2.63561,9.41,-0.65,3.13,2.0
1758077153.50176,1758077153.48498,0.0,0.0,0.0,8.36518,8.136,-1.66158,9.93,0.04,3.23,2.0
1758077153.51743,1758077153.49498,0.0,0.0,0.0,11.91752,7.79223,1.94806,9.93,0.04,3.23,2.0
1758077153.51866,1758077153.50498,0.0,0.0,0.0,13.46451,8.02141,4.58366,10.74,0.25,2.36,2.0
1758077153.53447,1758077153.51498,0.0,0.0,0.0,12.08941,9.85487,3.66693,11.28,0.16,1.55,2.0
1758077153.53625,1758077153.52498,0.0,0.0,0.0,8.88085,13.12073,0.97403,11.28,0.16,1.55,2.0
1758077153.55173,1758077153.53498,0.0,0.0,0.0,4.81285,17.36062,-5.50039,11.09,-0.05,0.76,2.0
1758077153.56746,1758077153.54498,0.0,0.0,0.0,-1.14592,22.97561,-9.96947,11.09,-0.05,0.76,2.0
1758077153.56869,1758077153.55498,0.0,0.0,0.0,-4.23989,25.49662,-14.03747,10.25,-0.06,0.47,2.0
1758077153.58386,1758077153.56498,0.0,0.0,0.0,-5.84417,27.10091,-16.67307,10.25,-0.06,0.47,2.0
1758077153.58506,1758077153.57498,0.0,0.0,0.0,-4.35448,30.82513,-17.24603,9.65,-0.12,0.33,2.0
1758077153.60145,1758077153.58498,0.0,0.0,0.0,-0.57296,34.09099,-15.29797,9.62,-0.67,0.67,2.0
1758077153.61744,1758077153.59498,0.0,0.0,0.0,3.66693,34.32018,-12.89155,9.62,-0.67,0.67,2.0
1758077153.61983,1758077153.60498,0.0,0.0,0.0,7.39116,31.97105,-11.28727,9.15,-0.99,0.43,2.0
1758077153.63473,1758077153.61498,0.0,0.0,0.0,9.96947,28.93437,-10.25595,9.15,-0.99,0.43,2.0
1758077153.63605,1758077153.62498,0.0,0.0,0.0,9.74028,26.87172,-10.48513,9.29,-0.21,0.31,2.0
1758077153.6505,1758077153.63498,0.0,0.0,0.0,7.96411,24.5226,-11.28727,9.29,-0.21,0.31,2.0
1758077153.6665,1758077153.64498,0.0,0.0,0.0,4.98473,21.88699,-12.60507,8.91,0.57,0.52,2.0
1758077153.66771,1758077153.65498,0.0,0.0,0.0,-0.17189,18.16276,-14.09476,8.56,0.9,0.48,2.0
1758077153.68273,1758077153.66498,0.0,0.0,0.0,-3.55234,16.38659,-14.32395,8.56,0.9,0.48,2.0
1758077153.69964,1758077153.67498,0.0,0.0,0.0,-6.35983,15.06879,-13.80828,8.65,0.64,0.42,2.0
1758077153.70047,1758077153.68498,0.0,0.0,0.0,-8.76626,13.98017,-12.43318,8.65,0.64,0.42,2.0
1758077153.7158,1758077153.69498,0.0,0.0,0.0,-11.80293,13.17803,-9.85487,9.02,0.13,0.21,2.0
1758077153.71666,1758077153.70498,0.0,0.0,0.0,-13.5218,13.69369,-8.136,9.02,0.13,0.21,2.0
1758077153.73177,1758077153.71498,0.0,0.0,0.0,-14.9542,17.53251,-6.8182,9.45,-0.16,0.12,2.0
1758077153.74778,1758077153.72498,0.0,0.0,0.0,-16.38659,23.60586,-5.55769,9.45,-0.16,0.12,2.0
1758077153.74873,1758077153.73498,0.0,0.0,0.0,-17.81899,32.14294,-3.95341,10.0,-0.15,0.18,2.0
1758077153.76354,1758077153.74498,0.0,0.0,0.0,-18.9649,35.75257,-3.72423,9.81,0.11,0.36,2.0
1758077153.76578,1758077153.75498,0.0,0.0,0.0,-20.68378,35.75257,-4.58366,9.81,0.11,0.36,2.0
1758077153.78175,1758077153.76498,0.0,0.0,0.0,-22.97561,31.62727,-6.18794,8.78,0.57,0.32,2.0
1758077153.79767,1758077153.77498,0.0,0.0,0.0,-24.57989,20.11082,-7.10468,8.78,0.57,0.32,2.0
1758077153.79874,1758077153.78498,0.0,0.0,0.0,-25.89769,5.27121,-7.33386,7.76,0.94,0.39,2.0
1758077153.8136,1758077153.79498,0.0,0.0,0.0,-26.98631,-15.58445,-6.18794,7.76,0.94,0.39,2.0
1758077153.81606,1758077153.80498,0.0,0.0,0.0,-26.12688,-43.88857,-3.72423,6.41,0.65,0.32,2.0
1758077153.83182,1758077153.81498,0.0,0.0,0.0,-25.21014,-46.35228,-3.95341,7.95,0.22,-0.06,2.0
1758077153.84782,1758077153.82498,0.0,0.0,0.0,-24.35071,-46.75336,-1.08862,7.95,0.22,-0.06,2.0
1758077153.84878,1758077153.83498,0.0,0.0,0.0,-26.81443,-50.53488,-0.22918,9.99,0.3,0.38,2.0
1758077153.86357,1758077153.84498,0.0,0.0,0.0,-33.74722,-43.54479,-5.61499,9.99,0.3,0.38,2.0
1758077153.86555,1758077153.85498,0.0,0.0,0.0,-39.4768,-35.63798,-9.33921,11.16,0.85,0.0,2.0
1758077153.88182,1758077153.86498,0.0,0.0,0.0,-44.8053,-33.80451,-13.00614,11.16,0.85,0.0,2.0
1758077153.89764,1758077153.87498,0.0,0.0,0.0,-48.70141,-27.38738,-14.78231,10.01,1.4,-0.13,2.0
1758077153.89877,1758077153.88498,0.0,0.0,0.0,-52.71212,-10.48513,-14.20935,10.41,1.45,-0.54,2.0
1758077153.9136,1758077153.89498,0.0,0.0,0.0,-54.60288,-2.11994,-12.89155,10.41,1.45,-0.54,2.0
1758077153.91479,1758077153.90498,0.0,0.0,0.0,-54.88936,1.08862,-11.00079,9.66,1.1,0.42,2.0
1758077153.9319,1758077153.91498,0.0,0.0,0.0,-53.80074,0.85944,-7.84952,9.66,1.1,0.42,2.0
1758077153.94784,1758077153.92498,0.0,0.0,0.0,-49.33167,-5.72958,-5.72958,10.74,0.25,2.59,2.0
1758077153.94876,1758077153.93498,0.0,0.0,0.0,-46.1231,-18.44924,-6.47442,10.74,0.25,2.59,2.0
1758077153.96366,1758077153.94498,0.0,0.0,0.0,-44.17505,-28.30412,-8.70896,12.84,-1.19,3.43,2.0
1758077153.96559,1758077153.95498,0.0,0.0,0.0,-42.74266,-27.10091,-11.34457,12.84,-1.19,3.43,2.0
1758077153.98181,1758077153.96498,0.0,0.0,0.0,-39.87786,-11.34457,-10.94349,15.16,-2.55,1.62,2.0
1758077153.99761,1758077153.97498,0.0,0.0,0.0,-37.98711,-4.98473,-8.30789,13.28,-1.8,0.99,2.0
1758077153.99962,1758077153.98498,0.0,0.0,0.0,-37.18496,-4.52637,-4.81285,13.28,-1.8,0.99,2.0
1758077154.01564,1758077153.99498,0.0,0.0,0.0,-39.07573,-5.32851,0.68755,9.8,0.1,1.26,2.0
1758077154.01688,1758077154.00498,0.0,0.0,0.0,-42.85724,-5.72958,3.38045,9.8,0.1,1.26,2.0
1758077154.03149,1758077154.01498,0.0,0.0,0.0,-48.07116,-5.72958,5.15662,9.66,1.07,1.74,2.0
1758077154.04781,1758077154.02498,0.0,0.0,0.0,-53.91533,-4.87014,5.4431,9.66,1.07,1.74,2.0
1758077154.04878,1758077154.03498,0.0,0.0,0.0,-62.5097,-2.6929,4.1253,9.96,1.02,2.01,2.0
1758077154.06385,1758077154.04498,0.0,0.0,0.0,-67.32255,-0.80214,1.77617,9.72,0.08,1.5,2.0
1758077154.06481,1758077154.05498,0.0,0.0,0.0,-70.58841,1.48969,-0.85944,9.72,0.08,1.5,2.0
1758077154.08089,1758077154.06498,0.0,0.0,0.0,-72.53646,3.03668,-3.72423,9.82,-1.13,1.07,2.0
1758077154.0969,1758077154.07498,0.0,0.0,0.0,-72.65105,6.7609,-6.7609,9.82,-1.13,1.07,2.0
1758077154.0978,1758077154.08498,0.0,0.0,0.0,-70.87489,10.08406,-7.50575,10.61,-1.96,0.64,2.0
1758077154.11365,1758077154.09498,0.0,0.0,0.0,-68.01009,14.20935,-6.58902,10.61,-1.96,0.64,2.0
1758077154.11462,1758077154.10498,0.0,0.0,0.0,-64.85883,18.73572,-4.52637,11.42,-2.33,0.59,2.0
1758077154.13118,1758077154.11498,0.0,0.0,0.0,-59.87409,22.74642,-0.17189,10.8,-2.16,0.61,2.0
1758077154.14689,1758077154.12498,0.0,0.0,0.0,-56.952,22.91831,3.55234,10.8,-2.16,0.61,2.0
1758077154.14777,1758077154.13498,0.0,0.0,0.0,-54.3737,22.28806,7.16197,9.57,-1.56,0.53,2.0
1758077154.16425,1758077154.14498,0.0,0.0,0.0,-52.36834,21.08485,10.48513,9.57,-1.56,0.53,2.0
1758077154.16629,1758077154.15498,0.0,0.0,0.0,-50.1911,18.16276,13.86558,8.9,-1.16,0.3,2.0
1758077154.18163,1758077154.16498,0.0,0.0,0.0,-49.21708,16.38659,14.78231,8.9,-1.16,0.3,2.0
1758077154.18605,1758077154.17498,0.0,0.0,0.0,-48.58683,15.0115,14.38124,8.76,-1.12,0.19,2.0
1758077154.20189,1758077154.18498,0.0,0.0,0.0,-48.07116,13.00614,11.91752,8.76,-1.12,0.19,2.0
1758077154.21966,1758077154.19498,0.0,0.0,0.0,-47.67009,11.86023,9.4538,8.88,-1.22,0.14,2.0
1758077154.22065,1758077154.20498,0.0,0.0,0.0,-46.46688,10.65701,7.50575,8.85,-1.38,0.18,2.0
1758077154.23596,1758077154.21498,0.0,0.0,0.0,-44.86259,8.99544,6.13065,8.85,-1.38,0.18,2.0
1758077154.23691,1758077154.22498,0.0,0.0,0.0,-41.99781,5.55769,4.81285,8.47,-1.55,0.13,2.0
1758077154.25164,1758077154.23498,0.0,0.0,0.0,-39.82057,4.23989,4.52637,8.47,-1.55,0.13,2.0
1758077154.26792,1758077154.24498,0.0,0.0,0.0,-37.87251,3.20856,4.46907,8.38,-1.66,0.12,2.0
1758077154.27127,1758077154.25498,0.0,0.0,0.0,-35.75257,2.92208,4.52637,8.38,-1.66,0.12,2.0
1758077154.28697,1758077154.26498,0.0,0.0,0.0,-33.51803,3.09397,3.72423,8.56,-1.63,0.11,2.0
1758077154.28816,1758077154.27498,0.0,0.0,0.0,-32.54401,2.97938,3.20856,8.83,-1.47,0.14,2.0
1758077154.30377,1758077154.28498,0.0,0.0,0.0,-32.08564,4.69825,2.29183,8.83,-1.47,0.14,2.0
1758077154.30498,1758077154.29498,0.0,0.0,0.0,-31.45539,8.70896,1.08862,9.42,-1.3,0.02,2.0
1758077154.32173,1758077154.30498,0.0,0.0,0.0,-31.2262,16.3293,-1.14592,9.42,-1.3,0.02,2.0
1758077154.33957,1758077154.31498,0.0,0.0,0.0,-30.88243,21.94428,-2.97938,9.82,-1.2,-0.02,2.0
1758077154.3407,1758077154.32498,0.0,0.0,0.0,-30.25217,28.24682,-4.92744,9.82,-1.2,-0.02,2.0
1758077154.35602,1758077154.33498,0.0,0.0,0.0,-29.22085,34.43476,-6.99009,10.0,-1.29,0.0,2.0
1758077154.35699,1758077154.34498,0.0,0.0,0.0,-26.64254,42.91454,-9.33921,9.98,-1.58,0.13,2.0
1758077154.37175,1758077154.35498,0.0,0.0,0.0,-23.72045,42.74266,-9.39651,9.98,-1.58,0.13,2.0
1758077154.38791,1758077154.36498,0.0,0.0,0.0,-20.62648,35.92446,-8.93814,8.99,-2.08,0.33,2.0
1758077154.38982,1758077154.37498,0.0,0.0,0.0,-16.90226,26.01229,-6.41713,8.99,-2.08,0.33,2.0
1758077154.40503,1758077154.38498,0.0,0.0,0.0,-8.99544,8.36518,-3.89611,8.35,-2.6,0.05,2.0
1758077154.40637,1758077154.39498,0.0,0.0,0.0,-2.92208,-3.72423,-1.43239,8.35,-2.6,0.05,2.0
1758077154.42105,1758077154.40498,0.0,0.0,0.0,4.0107,-14.72501,1.03132,8.22,-2.94,0.24,2.0
1758077154.43702,1758077154.41498,0.0,0.0,0.0,14.38124,-32.14294,3.95341,8.22,-2.94,0.24,2.0
1758077154.43908,1758077154.42498,0.0,0.0,0.0,19.99623,-46.2377,5.15662,8.19,-3.1,0.01,2.0
1758077154.45375,1758077154.43498,0.0,0.0,0.0,24.4653,-54.94666,5.84417,8.38,-3.03,-0.08,2.0
1758077154.45725,1758077154.44498,0.0,0.0,0.0,28.36141,-54.3737,5.84417,8.38,-3.03,-0.08,2.0
1758077154.47362,1758077154.45498,0.0,0.0,0.0,33.05967,-31.2262,4.87014,11.5,-2.73,-0.52,2.0
1758077154.47562,1758077154.46498,0.0,0.0,0.0,34.49206,-11.97482,2.06265,11.5,-2.73,-0.52,2.0
1758077154.49186,1758077154.47498,0.0,0.0,0.0,34.60666,-0.97403,-1.94806,13.24,-2.04,-0.92,2.0
1758077154.51123,1758077154.48498,0.0,0.0,0.0,35.58068,-6.53172,-7.10468,13.24,-2.04,-0.92,2.0
1758077154.5124,1758077154.49498,0.0,0.0,0.0,37.24226,-34.66395,-15.35527,9.98,-1.39,-1.77,2.0
1758077154.53013,1758077154.50498,0.0,0.0,0.0,39.07573,-51.73809,-17.81899,7.9,-1.1,-2.17,2.0
1758077154.53215,1758077154.51498,0.0,0.0,0.0,41.71133,-54.48829,-16.38659,7.9,-1.1,-2.17,2.0
1758077154.54967,1758077154.52498,0.0,0.0,0.0,41.88322,-47.78468,-15.98552,11.1,-1.17,-0.46,2.0
1758077154.55057,1758077154.53498,0.0,0.0,0.0,39.4195,-37.64333,-14.09476,11.1,-1.17,-0.46,2.0
1758077154.56592,1758077154.54498,0.0,0.0,0.0,33.23156,-39.87786,-11.00079,14.22,-0.57,2.74,2.0
1758077154.56702,1758077154.55498,0.0,0.0,0.0,24.23611,-49.90463,-5.32851,14.22,-0.57,2.74,2.0
1758077154.582,1758077154.56498,0.0,0.0,0.0,15.0115,-59.01466,4.1253,15.92,0.68,2.93,2.0
1758077154.58699,1758077154.57498,0.0,0.0,0.0,2.06265,-52.54023,18.27736,16.08,0.89,0.84,2.0
1758077154.60659,1758077154.58498,0.0,0.0,0.0,-5.4431,-37.98711,24.4653,16.08,0.89,0.84,2.0
1758077154.61047,1758077154.59498,0.0,0.0,0.0,-11.57375,-24.12152,26.64254,11.79,-0.46,0.12,2.0
1758077154.62604,1758077154.60498,0.0,0.0,0.0,-17.87628,-9.62569,21.37133,11.79,-0.46,0.12,2.0
1758077154.62701,1758077154.61498,0.0,0.0,0.0,-18.62113,-3.49504,14.38124,7.39,-1.27,1.66,2.0
1758077154.64195,1758077154.62498,0.0,0.0,0.0,-16.3293,2.63561,7.10468,7.39,-1.27,1.66,2.0
1758077154.65967,1758077154.63498,0.0,0.0,0.0,-11.17268,8.76626,-0.22918,6.89,-1.28,2.64,2.0
1758077154.66159,1758077154.64498,0.0,0.0,0.0,-0.57296,17.47521,-8.70896,6.89,-1.28,3.01,2.0
1758077154.67715,1758077154.65498,0.0,0.0,0.0,7.21927,22.91831,-11.22997,9.3,-1.19,3.01,2.0
1758077154.67802,1758077154.66498,0.0,0.0,0.0,13.98017,27.04361,-11.86023,11.95,-0.94,1.95,2.0
1758077154.69388,1758077154.67498,0.0,0.0,0.0,18.90761,31.51268,-11.11538,11.95,-0.94,1.95,2.0
1758077154.69638,1758077154.68498,0.0,0.0,0.0,22.51724,38.73195,-8.02141,12.3,-0.54,1.4,2.0
1758077154.71209,1758077154.69498,0.0,0.0,0.0,22.28806,43.54479,-6.07335,12.3,-0.54,1.4,2.0
1758077154.72983,1758077154.70498,0.0,0.0,0.0,20.05352,47.03984,-5.09932,11.2,-0.41,1.22,2.0
1758077154.73106,1758077154.71498,0.0,0.0,0.0,16.272,47.72739,-4.98473,11.2,-0.41,1.22,2.0
1758077154.74689,1758077154.72498,0.0,0.0,0.0,9.05273,46.2377,-5.78687,9.55,-0.21,1.19,2.0
1758077154.75027,1758077154.73498,0.0,0.0,0.0,4.29718,44.46153,-6.70361,8.82,0.35,1.3,2.0
1758077154.76584,1758077154.74498,0.0,0.0,0.0,-0.34377,40.16434,-7.50575,8.82,0.35,1.3,2.0
1758077154.76706,1758077154.75498,0.0,0.0,0.0,-4.64096,35.40879,-8.47978,8.41,1.03,1.3,2.0
1758077154.78182,1758077154.76498,0.0,0.0,0.0,-10.02676,29.67921,-10.08406,8.41,1.03,1.3,2.0
1758077154.78729,1758077154.77498,0.0,0.0,0.0,-12.71966,24.80907,-10.94349,8.45,1.28,1.21,2.0
1758077154.80509,1758077154.78498,0.0,0.0,0.0,-14.61043,19.19409,-11.51645,8.45,1.28,1.21,2.0
1758077154.80606,1758077154.79498,0.0,0.0,0.0,-17.36062,13.06344,-12.204,8.18,1.01,1.23,2.0
1758077154.82096,1758077154.80498,0.0,0.0,0.0,-19.76705,3.66693,-13.40721,8.1,0.65,1.28,2.0
1758077154.82716,1758077154.81498,0.0,0.0,0.0,-22.68913,-2.46372,-15.06879,8.1,0.65,1.28,2.0
1758077154.84513,1758077154.82498,0.0,0.0,0.0,-26.06958,-7.96411,-17.76169,8.09,0.52,1.28,2.0
1758077154.84606,1758077154.83498,0.0,0.0,0.0,-31.91375,-12.54778,-21.60051,8.09,0.52,1.28,2.0
1758077154.86115,1758077154.84498,0.0,0.0,0.0,-35.75257,-14.09476,-23.20479,8.66,0.69,1.33,2.0
1758077154.8779,1758077154.85498,0.0,0.0,0.0,-39.4768,-14.32395,-23.37668,8.66,0.69,1.33,2.0
1758077154.87906,1758077154.86498,0.0,0.0,0.0,-42.34158,-13.17803,-21.6578,9.59,0.87,1.02,2.0
1758077154.89576,1758077154.87498,0.0,0.0,0.0,-44.63341,-9.62569,-15.92823,10.05,0.87,0.65,2.0
1758077154.89741,1758077154.88498,0.0,0.0,0.0,-44.51882,-5.21392,-10.37054,10.05,0.31,0.65,2.0
1758077154.91316,1758077154.89498,0.0,0.0,0.0,-43.83128,1.3751,-4.58366,10.39,-0.56,0.16,2.0
1758077154.92995,1758077154.90498,0.0,0.0,0.0,-42.62806,12.60507,-0.22918,10.39,-0.56,0.16,2.0
1758077154.93082,1758077154.91498,0.0,0.0,0.0,-41.48215,30.93972,0.97403,11.06,-0.72,-0.2,2.0
1758077154.94667,1758077154.92498,0.0,0.0,0.0,-40.7946,39.01843,-0.0573,11.06,-0.72,-0.2,2.0
1758077154.95183,1758077154.93498,0.0,0.0,0.0,-40.62271,44.9199,-1.94806,10.54,-0.29,-0.05,2.0
1758077154.96694,1758077154.94498,0.0,0.0,0.0,-41.13837,50.13381,-4.46907,10.54,-0.29,-0.05,2.0
1758077154.96918,1758077154.95498,0.0,0.0,0.0,-43.14373,53.05589,-8.59437,10.04,0.02,-0.18,2.0
1758077154.98494,1758077154.96498,0.0,0.0,0.0,-44.86259,51.27972,-11.74564,9.2,0.41,-0.18,2.0
1758077154.98589,1758077154.97498,0.0,0.0,0.0,-47.15443,45.43555,-14.83961,9.2,0.41,-0.18,2.0
1758077155.0019,1758077154.98498,0.0,0.0,0.0,-49.27437,32.08564,-17.13144,7.89,0.9,0.09,2.0
1758077155.00728,1758077154.99498,0.0,0.0,0.0,-50.99325,-1.71887,-16.272,7.89,0.9,0.09,2.0
1758077155.02723,1758077155.00498,0.0,0.0,0.0,-50.64947,-24.23611,-15.98552,6.22,0.89,0.19,2.0
1758077155.03087,1758077155.01498,0.0,0.0,0.0,-48.75871,-41.42485,-13.75099,6.22,0.89,0.19,2.0
1758077155.04673,1758077155.02498,0.0,0.0,0.0,-45.55015,-28.87707,-7.16197,7.27,0.24,-0.37,2.0
1758077155.05033,1758077155.03498,0.0,0.0,0.0,-44.9199,9.85487,-2.63561,13.56,-0.2,0.03,2.0
1758077155.06678,1758077155.04498,0.0,0.0,0.0,-47.32632,-0.51566,-1.83346,13.56,-0.2,0.03,2.0
1758077155.07034,1758077155.05498,0.0,0.0,0.0,-50.99325,-31.79916,-3.83882,7.44,-0.44,0.36,2.0
1758077155.08666,1758077155.06498,0.0,0.0,0.0,-51.6235,-41.31026,-5.55769,7.44,-0.44,0.36,2.0
1758077155.09061,1758077155.07498,0.0,0.0,0.0,-51.22243,-29.33544,-3.32316,9.68,-0.36,-2.02,2.0
1758077155.10595,1758077155.08498,0.0,0.0,0.0,-50.3057,-16.04282,-0.40107,9.68,-0.36,-2.02,2.0
1758077155.10743,1758077155.09498,0.0,0.0,0.0,-48.52953,-8.88085,3.66693,11.8,-0.46,-0.88,2.0
1758077155.12194,1758077155.10498,0.0,0.0,0.0,-44.28964,-3.89611,10.54242,11.1,-0.53,-0.54,2.0
1758077155.13796,1758077155.11498,0.0,0.0,0.0,-40.96649,-0.40107,14.78231,11.1,-0.53,-0.54,2.0
1758077155.14102,1758077155.12498,0.0,0.0,0.0,-36.26823,1.43239,17.58981,12.58,-0.98,1.28,2.0
1758077155.1562,1758077155.13498,0.0,0.0,0.0,-30.25217,-7.16197,17.18874,12.58,-0.98,1.28,2.0
1758077155.1574,1758077155.14498,0.0,0.0,0.0,-20.51189,-40.33623,9.4538,12.69,-1.99,3.49,2.0
1758077155.17216,1758077155.15498,0.0,0.0,0.0,-15.64175,-59.47303,1.77617,12.69,-1.99,3.49,2.0
1758077155.17641,1758077155.16498,0.0,0.0,0.0,-12.204,-65.03072,-5.32851,12.33,-2.6,2.54,2.0
1758077155.192,1758077155.17498,0.0,0.0,0.0,-9.22462,-59.07195,-10.08406,12.33,-2.6,2.54,2.0
1758077155.20924,1758077155.18498,0.0,0.0,0.0,-6.07335,-50.76406,-10.71431,12.75,-2.29,1.44,2.0
1758077155.21061,1758077155.19498,0.0,0.0,0.0,-5.32851,-49.90463,-8.136,9.74,-0.65,1.49,2.0
1758077155.22528,1758077155.20498,0.0,0.0,0.0,-6.58902,-47.72739,-4.58366,9.74,-0.65,1.49,2.0
1758077155.22613,1758077155.21498,0.0,0.0,0.0,-12.83425,-44.00316,0.11459,9.28,1.07,1.65,2.0
1758077155.24119,1758077155.22498,0.0,0.0,0.0,-19.76705,-37.75792,1.94806,9.28,1.07,1.65,2.0
1758077155.25726,1758077155.23498,0.0,0.0,0.0,-27.78845,-33.40344,2.00535,9.69,2.03,2.63,2.0
1758077155.26052,1758077155.24498,0.0,0.0,0.0,-35.12231,-28.24682,0.51566,9.69,2.03,2.63,2.0
1758077155.27607,1758077155.25498,0.0,0.0,0.0,-44.46153,-20.05352,-3.66693,9.81,1.77,2.77,2.0
1758077155.27745,1758077155.26498,0.0,0.0,0.0,-48.58683,-14.9542,-6.8182,10.3,0.56,2.3,2.0
1758077155.29203,1758077155.27498,0.0,0.0,0.0,-50.53488,-10.08406,-9.11003,10.3,0.56,2.3,2.0
1758077155.29637,1758077155.28498,0.0,0.0,0.0,-49.90463,-4.23989,-9.28192,11.25,-1.14,1.63,2.0
1758077155.31202,1758077155.29498,0.0,0.0,0.0,-45.77933,6.8182,-6.13065,11.25,-1.14,1.63,2.0
1758077155.31551,1758077155.30498,0.0,0.0,0.0,-41.59674,14.43854,-2.6929,12.03,-2.5,1.09,2.0
1758077155.3311,1758077155.31498,0.0,0.0,0.0,-37.52874,20.68378,0.97403,12.03,-2.5,1.09,2.0
1758077155.34706,1758077155.32498,0.0,0.0,0.0,-34.09099,25.38203,4.52637,11.29,-2.72,0.72,2.0
1758077155.3482,1758077155.33498,0.0,0.0,0.0,-30.13758,30.30947,9.4538,10.39,-1.89,0.66,2.0
1758077155.36717,1758077155.34498,0.0,0.0,0.0,-28.41871,33.34615,12.14671,10.39,-1.89,0.66,2.0
1758077155.36979,1758077155.35498,0.0,0.0,0.0,-27.33009,35.12231,14.03747,10.03,-1.11,0.52,2.0
1758077155.38522,1758077155.36498,0.0,0.0,0.0,-26.64254,36.49741,15.06879,10.03,-1.11,0.52,2.0
1758077155.38781,1758077155.37498,0.0,0.0,0.0,-25.55392,36.03905,15.24068,9.65,-0.84,0.26,2.0
1758077155.40592,1758077155.38498,0.0,0.0,0.0,-24.86637,33.80451,14.72501,9.65,-0.84,0.26,2.0
1758077155.40729,1758077155.39498,0.0,0.0,0.0,-24.12152,30.93972,13.75099,8.95,-0.93,0.11,2.0
1758077155.42528,1758077155.40498,0.0,0.0,0.0,-23.60586,27.50197,11.74564,8.95,-0.93,0.11,2.0
1758077155.42646,1758077155.41498,0.0,0.0,0.0,-22.74642,22.40265,9.74028,8.37,-1.16,0.17,2.0
1758077155.4413,1758077155.42498,0.0,0.0,0.0,-22.23076,18.85031,8.02141,7.95,-1.37,0.33,2.0
1758077155.45728,1758077155.43498,0.0,0.0,0.0,-21.14215,15.35527,6.41713,7.95,-1.37,0.33,2.0
1758077155.45852,1758077155.44498,0.0,0.0,0.0,-18.85031,10.19865,4.87014,7.68,-1.48,0.35,2.0
1758077155.47308,1758077155.45498,0.0,0.0,0.0,-17.18874,7.21927,4.35448,7.68,-1.48,0.35,2.0
1758077155.47627,1758077155.46498,0.0,0.0,0.0,-15.35527,4.58366,4.23989,7.65,-1.43,0.21,2.0
1758077155.49154,1758077155.47498,0.0,0.0,0.0,-13.86558,2.23454,4.29718,7.65,-1.43,0.21,2.0
1758077155.50726,1758077155.48498,0.0,0.0,0.0,-12.2613,-1.03132,3.89611,7.93,-1.23,0.12,2.0
1758077155.50986,1758077155.49498,0.0,0.0,0.0,-11.28727,-2.6929,3.32316,8.43,-1.02,-0.09,2.0
1758077155.52534,1758077155.50498,0.0,0.0,0.0,-10.02676,-0.51566,2.7502,8.43,-1.02,-0.09,2.0
1758077155.52705,1758077155.51498,0.0,0.0,0.0,-8.88085,5.61499,2.11994,9.66,-0.99,-0.25,2.0
1758077155.54533,1758077155.52498,0.0,0.0,0.0,-7.10468,18.33465,0.34377,9.66,-0.99,-0.25,2.0
1758077155.54975,1758077155.53498,0.0,0.0,0.0,-5.55769,24.98096,-0.85944,10.43,-1.2,-0.16,2.0
1758077155.56533,1758077155.54498,0.0,0.0,0.0,-3.66693,29.04896,-2.29183,10.43,-1.2,-0.16,2.0
1758077155.56787,1758077155.55498,0.0,0.0,0.0,-1.43239,28.476,-3.49504,9.98,-1.54,-0.16,2.0
1758077155.58335,1758077155.56498,0.0,0.0,0.0,2.11994,21.42862,-5.32851,9.01,-1.79,-0.49,2.0
1758077155.58744,1758077155.57498,0.0,0.0,0.0,4.69825,15.58445,-6.24524,9.01,-1.79,-0.49,2.0
1758077155.60332,1758077155.58498,0.0,0.0,0.0,7.44845,8.47978,-6.87549,8.46,-1.91,-0.62,2.0
1758077155.60745,1758077155.59498,0.0,0.0,0.0,10.25595,-1.3751,-7.16197,8.46,-1.91,-0.62,2.0
1758077155.6232,1758077155.60498,0.0,0.0,0.0,14.43854,-25.43933,-5.61499,7.46,-1.91,-0.78,2.0
1758077155.62587,1758077155.61498,0.0,0.0,0.0,15.87093,-44.8053,-3.49504,7.46,-1.91,-0.78,2.0
1758077155.64131,1758077155.62498,0.0,0.0,0.0,17.76169,-49.15978,-1.71887,6.84,-1.69,-0.92,2.0
1758077155.65708,1758077155.63498,0.0,0.0,0.0,20.62648,-28.41871,1.66158,6.84,-1.69,-0.92,2.0
1758077155.66144,1758077155.64498,0.0,0.0,0.0,21.94428,6.41713,1.43239,11.95,-1.78,-0.2,2.0
1758077155.67704,1758077155.65498,0.0,0.0,0.0,25.26744,-1.43239,0.0573,10.78,-1.97,-0.01,2.0
1758077155.68227,1758077155.66498,0.0,0.0,0.0,26.98631,-33.05967,-2.23454,10.78,-1.97,-0.01,2.0
1758077155.69727,1758077155.67498,0.0,0.0,0.0,32.42941,-62.16592,1.71887,7.36,-2.05,-1.37,2.0
1758077155.70105,1758077155.68498,0.0,0.0,0.0,35.00772,-56.952,4.18259,7.36,-2.05,-1.37,2.0
1758077155.71642,1758077155.69498,0.0,0.0,0.0,36.95578,-49.04519,4.52637,11.46,-2.23,-1.84,2.0
1758077155.71735,1758077155.70498,0.0,0.0,0.0,38.38818,-44.46153,3.09397,11.46,-2.23,-1.84,2.0
1758077155.7324,1758077155.71498,0.0,0.0,0.0,36.61201,-35.2369,-1.48969,11.48,-2.1,-1.22,2.0
1758077155.73685,1758077155.72498,0.0,0.0,0.0,32.48671,-26.06958,-4.92744,14.1,-1.33,1.1,2.0
1758077155.7524,1758077155.73498,0.0,0.0,0.0,25.09555,-21.37133,-8.36518,14.1,-1.33,1.1,2.0
1758077155.75416,1758077155.74498,0.0,0.0,0.0,15.64175,-26.98631,-5.15662,17.07,0.52,2.79,2.0
1758077155.76975,1758077155.75498,0.0,0.0,0.0,1.83346,-36.15364,4.23989,17.07,0.52,2.79,2.0
1758077155.78543,1758077155.76498,0.0,0.0,0.0,-4.87014,-38.56006,11.63104,16.68,1.81,2.14,2.0
1758077155.78633,1758077155.77498,0.0,0.0,0.0,-9.4538,-30.65324,16.73037,16.68,1.81,2.14,2.0
1758077155.8014,1758077155.78498,0.0,0.0,0.0,-13.34992,-15.75634,18.56383,13.21,0.72,-0.46,2.0
1758077155.81741,1758077155.79498,0.0,0.0,0.0,-16.50119,2.23454,15.92823,9.64,-1.0,0.13,2.0
1758077155.81861,1758077155.80498,0.0,0.0,0.0,-15.64175,7.04738,11.57375,9.64,-1.0,0.13,2.0
1758077155.83317,1758077155.81498,0.0,0.0,0.0,-11.91752,11.11538,6.47442,8.4,-1.77,1.09,2.0
1758077155.83432,1758077155.82498,0.0,0.0,0.0,-5.61499,14.83961,0.51566,8.4,-1.77,1.09,2.0
1758077155.84967,1758077155.83498,0.0,0.0,0.0,7.67763,17.99088,-1.20321,9.86,-1.99,2.33,2.0
1758077155.86519,1758077155.84498,0.0,0.0,0.0,17.76169,18.56383,-2.00535,9.86,-1.99,2.33,2.0
1758077155.86666,1758077155.85498,0.0,0.0,0.0,27.33009,19.07949,-1.3751,10.58,-1.75,3.09,2.0
1758077155.88123,1758077155.86498,0.0,0.0,0.0,39.19032,19.99623,2.7502,10.58,-1.75,3.09,2.0
1758077155.89746,1758077155.87498,0.0,0.0,0.0,44.8053,21.48592,6.41713,10.45,-1.24,2.37,2.0
1758077155.90109,1758077155.88498,0.0,0.0,0.0,48.07116,25.26744,9.5684,10.36,-0.68,1.66,2.0
1758077155.91647,1758077155.89498,0.0,0.0,0.0,49.27437,29.39274,11.11538,10.36,-0.68,1.66,2.0
1758077155.91739,1758077155.90498,0.0,0.0,0.0,46.1231,32.88778,9.62569,9.99,-0.13,1.33,2.0
1758077155.93579,1758077155.91498,0.0,0.0,0.0,41.71133,33.40344,6.47442,9.99,-0.13,1.33,2.0
1758077155.93698,1758077155.92498,0.0,0.0,0.0,36.03905,33.46074,2.00535,9.24,0.3,0.99,2.0
1758077155.95249,1758077155.93498,0.0,0.0,0.0,30.25217,33.80451,-2.29183,9.24,0.3,0.99,2.0
1758077155.95342,1758077155.94498,0.0,0.0,0.0,22.23076,33.23156,-8.42248,8.94,0.67,0.78,2.0
1758077155.97223,1758077155.95498,0.0,0.0,0.0,17.93358,31.97105,-11.74564,8.56,0.95,0.75,2.0
1758077155.97397,1758077155.96498,0.0,0.0,0.0,14.38124,31.28349,-14.43854,8.56,0.95,0.75,2.0
1758077155.99154,1758077155.97498,0.0,0.0,0.0,11.91752,30.36677,-16.10011,8.4,1.04,0.72,2.0
1758077156.0074,1758077155.98498,0.0,0.0,0.0,9.62569,28.70519,-18.22006,8.4,1.04,0.72,2.0
1758077156.01141,1758077155.99498,0.0,0.0,0.0,8.93814,26.64254,-18.62113,8.38,0.9,0.75,2.0
1758077156.0262,1758077156.00498,0.0,0.0,0.0,8.42248,23.49127,-18.56383,8.38,0.9,0.75,2.0
1758077156.02981,1758077156.01498,0.0,0.0,0.0,8.30789,19.36597,-17.76169,8.34,0.62,0.82,2.0
1758077156.04557,1758077156.02498,0.0,0.0,0.0,7.33386,13.12073,-15.35527,8.7,0.39,0.95,2.0
1758077156.04646,1758077156.03498,0.0,0.0,0.0,6.18794,10.54242,-13.80828,8.7,0.39,0.95,2.0
1758077156.0613,1758077156.04498,0.0,0.0,0.0,4.0107,8.47978,-12.83425,9.25,0.29,0.99,2.0
1758077156.07748,1758077156.05498,0.0,0.0,0.0,0.68755,6.8182,-11.74564,9.25,0.29,0.99,2.0
1758077156.08112,1758077156.06498,0.0,0.0,0.0,-1.60428,6.58902,-10.8289,9.48,0.33,1.11,2.0
1758077156.09653,1758077156.07498,0.0,0.0,0.0,-3.49504,6.70361,-9.33921,9.48,0.33,1.11,2.0
1758077156.09742,1758077156.08498,0.0,0.0,0.0,-5.21392,7.10468,-7.84952,9.61,0.36,0.98,2.0
1758077156.1125,1758077156.09498,0.0,0.0,0.0,-6.53172,8.99544,-4.98473,9.61,0.36,0.98,2.0
1758077156.11347,1758077156.10498,0.0,0.0,0.0,-6.7609,11.11538,-3.55234,9.69,0.29,0.69,2.0
1758077156.13148,1758077156.11498,0.0,0.0,0.0,-6.87549,17.53251,-2.7502,9.99,0.06,0.43,2.0
1758077156.14725,1758077156.12498,0.0,0.0,0.0,-6.70361,27.96034,-1.94806,9.99,0.06,0.43,2.0
1758077156.1496,1758077156.13498,0.0,0.0,0.0,-5.27121,40.96649,0.22918,10.14,-0.28,0.12,2.0
1758077156.16531,1758077156.14498,0.0,0.0,0.0,-4.1253,43.54479,2.63561,10.14,-0.28,0.12,2.0
1758077156.17099,1758077156.15498,0.0,0.0,0.0,-3.26586,44.9199,4.52637,9.07,-0.65,0.07,2.0
1758077156.18625,1758077156.16498,0.0,0.0,0.0,-3.38045,45.26366,5.72958,9.07,-0.65,0.07,2.0
1758077156.18745,1758077156.17498,0.0,0.0,0.0,-6.47442,34.95043,6.7609,8.83,-0.5,0.0,2.0
1758077156.20226,1758077156.18498,0.0,0.0,0.0,-11.11538,26.01229,4.46907,8.21,0.45,-0.07,2.0
1758077156.20346,1758077156.19498,0.0,0.0,0.0,-16.04282,19.42327,0.97403,8.21,0.45,-0.07,2.0
1758077156.21958,1758077156.20498,0.0,0.0,0.0,-21.94428,8.93814,-2.63561,7.78,1.83,-0.01,2.0
1758077156.23653,1758077156.21498,0.0,0.0,0.0,-28.59059,-21.42862,-5.55769,7.78,1.83,-0.01,2.0
1758077156.23748,1758077156.22498,0.0,0.0,0.0,-29.8511,-37.81522,-7.21927,6.68,2.01,0.51,2.0
1758077156.2525,1758077156.23498,0.0,0.0,0.0,-30.02299,-49.38896,-6.70361,6.68,2.01,0.51,2.0
1758077156.25585,1758077156.24498,0.0,0.0,0.0,-30.13758,-55.51962,-4.0107,8.36,1.15,-0.01,2.0
1758077156.27133,1758077156.25498,0.0,0.0,0.0,-29.67921,-49.61814,-2.46372,10.99,-0.18,0.35,2.0
1758077156.28734,1758077156.26498,0.0,0.0,0.0,-28.41871,-34.0337,1.48969,10.99,-0.18,0.35,2.0
1758077156.29008,1758077156.27498,0.0,0.0,0.0,-27.73116,-8.136,3.38045,13.88,-0.93,-0.41,2.0
1758077156.30534,1758077156.28498,0.0,0.0,0.0,-26.87172,-7.33386,5.72958,13.88,-0.93,-0.41,2.0
1758077156.30673,1758077156.29498,0.0,0.0,0.0,-28.59059,-24.12152,4.0107,10.59,-1.07,-0.15,2.0
1758077156.32159,1758077156.30498,0.0,0.0,0.0,-28.99167,-27.84575,3.72423,10.59,-1.07,-0.15,2.0
1758077156.33734,1758077156.31498,0.0,0.0,0.0,-28.59059,-20.3973,5.4431,11.21,-0.56,0.33,2.0
1758077156.34186,1758077156.32498,0.0,0.0,0.0,-25.8404,-12.14671,6.87549,14.29,-0.56,2.75,2.0
1758077156.35757,1758077156.33498,0.0,0.0,0.0,-21.6578,-22.51724,5.61499,14.29,-0.58,2.75,2.0
1758077156.35854,1758077156.34498,0.0,0.0,0.0,-16.67307,-39.87786,2.40642,13.36,-1.19,4.15,2.0
1758077156.37364,1758077156.35498,0.0,0.0,0.0,-12.60507,-52.19646,-1.48969,13.36,-1.19,4.15,2.0
1758077156.37565,1758077156.36498,0.0,0.0,0.0,-7.62034,-50.1911,-5.4431,13.0,-1.83,1.81,2.0
1758077156.39148,1758077156.37498,0.0,0.0,0.0,-4.64096,-39.01843,-5.50039,13.0,-1.83,1.81,2.0
1758077156.40756,1758077156.38498,0.0,0.0,0.0,-2.63561,-27.78845,-3.32316,11.96,-1.19,0.81,2.0
1758077156.41046,1758077156.39498,0.0,0.0,0.0,-2.46372,-19.19409,-0.17189,11.96,-1.19,0.81,2.0
1758077156.42561,1758077156.40498,0.0,0.0,0.0,-6.24524,-11.45916,4.0107,9.52,0.6,0.95,2.0
1758077156.42677,1758077156.41498,0.0,0.0,0.0,-11.17268,-10.08406,5.50039,8.4,1.65,1.78,2.0
1758077156.44164,1758077156.42498,0.0,0.0,0.0,-17.53251,-10.71431,5.27121,8.4,1.65,1.78,2.0
1758077156.4575,1758077156.43498,0.0,0.0,0.0,-24.17882,-10.19865,3.20856,8.22,1.73,3.12,2.0
1758077156.45856,1758077156.44498,0.0,0.0,0.0,-33.11696,-7.96411,-3.38045,8.22,1.73,3.12,2.0
1758077156.47337,1758077156.45498,0.0,0.0,0.0,-37.24226,-8.02141,-8.25059,9.07,0.95,3.27,2.0
1758077156.47453,1758077156.46498,0.0,0.0,0.0,-39.19032,-6.99009,-12.204,9.07,0.95,3.27,2.0
1758077156.48966,1758077156.47498,0.0,0.0,0.0,-38.38818,-0.51566,-13.98017,10.33,-0.52,2.34,2.0
1758077156.50563,1758077156.48498,0.0,0.0,0.0,-35.52338,5.4431,-11.91752,11.96,-2.06,1.73,2.0
1758077156.50658,1758077156.49498,0.0,0.0,0.0,-31.2262,11.22997,-8.59437,11.96,-2.06,1.73,2.0
1758077156.52166,1758077156.50498,0.0,0.0,0.0,-26.18417,16.10011,-4.69825,11.73,-2.78,1.44,2.0
1758077156.53739,1758077156.51498,0.0,0.0,0.0,-19.59516,20.11082,0.57296,11.73,-2.78,1.44,2.0
1758077156.53855,1758077156.52498,0.0,0.0,0.0,-16.61578,22.57454,3.60963,10.36,-2.19,1.34,2.0
1758077156.55338,1758077156.53498,0.0,0.0,0.0,-14.49583,25.15285,6.07335,10.36,-2.19,1.34,2.0
1758077156.55546,1758077156.54498,0.0,0.0,0.0,-13.23533,27.10091,7.79223,10.09,-1.2,1.24,2.0
1758077156.57095,1758077156.55498,0.0,0.0,0.0,-12.54778,29.27814,9.5684,10.02,-0.7,0.98,2.0
1758077156.58668,1758077156.56498,0.0,0.0,0.0,-12.37589,29.62192,10.19865,10.02,-0.7,0.98,2.0
1758077156.59037,1758077156.57498,0.0,0.0,0.0,-12.43318,29.22085,10.31324,9.64,-0.78,0.73,2.0
1758077156.60569,1758077156.58498,0.0,0.0,0.0,-12.49048,28.476,10.48513,9.64,-0.78,0.73,2.0
1758077156.607,1758077156.59498,0.0,0.0,0.0,-12.83425,27.38738,9.96947,9.16,-1.12,0.5,2.0
1758077156.62169,1758077156.60498,0.0,0.0,0.0,-13.17803,26.52795,9.11003,9.16,-1.12,0.5,2.0
1758077156.63739,1758077156.61498,0.0,0.0,0.0,-13.5791,25.61122,7.84952,8.71,-1.25,0.53,2.0
1758077156.64101,1758077156.62498,0.0,0.0,0.0,-14.38124,24.4653,6.13065,8.71,-1.25,0.53,2.0
1758077156.65642,1758077156.63498,0.0,0.0,0.0,-15.24068,22.40265,3.55234,8.4,-1.04,0.49,2.0
1758077156.6584,1758077156.64498,0.0,0.0,0.0,-15.46986,20.68378,1.94806,8.33,-0.74,0.48,2.0
1758077156.67676,1758077156.65498,0.0,0.0,0.0,-15.24068,19.25138,0.74485,8.33,-0.74,0.48,2.0
1758077156.6784,1758077156.66498,0.0,0.0,0.0,-13.86558,18.10547,0.45837,8.46,-0.68,0.44,2.0
1758077156.69668,1758077156.67498,0.0,0.0,0.0,-12.43318,16.21471,0.85944,8.46,-0.68,0.44,2.0
1758077156.6984,1758077156.68498,0.0,0.0,0.0,-10.65701,15.24068,1.77617,8.41,-0.97,0.28,2.0
1758077156.71337,1758077156.69498,0.0,0.0,0.0,-8.99544,15.0115,2.40642,8.41,-0.97,0.28,2.0
1758077156.71542,1758077156.70498,0.0,0.0,0.0,-6.35983,14.78231,3.32316,8.54,-1.38,0.21,2.0
1758077156.73069,1758077156.71498,0.0,0.0,0.0,-4.58366,15.87093,3.55234,8.72,-1.49,0.16,2.0
1758077156.74634,1758077156.72498,0.0,0.0,0.0,-3.20856,18.90761,3.20856,8.72,-1.49,0.16,2.0
1758077156.75023,1758077156.73498,0.0,0.0,0.0,-2.40642,24.86637,2.11994,9.22,-1.33,0.06,2.0
1758077156.76545,1758077156.74498,0.0,0.0,0.0,-1.77617,36.03905,-0.85944,9.22,-1.33,0.06,2.0
1758077156.76738,1758077156.75498,0.0,0.0,0.0,-1.20321,41.71133,-3.66693,9.68,-1.16,0.25,2.0
1758077156.78269,1758077156.76498,0.0,0.0,0.0,0.22918,42.05511,-6.18794,9.68,-1.16,0.25,2.0
1758077156.79005,1758077156.77498,0.0,0.0,0.0,2.86479,34.0337,-8.25059,9.09,-1.4,0.68,2.0
1758077156.80571,1758077156.78498,0.0,0.0,0.0,8.25059,14.61043,-9.11003,7.87,-1.68,0.47,2.0
1758077156.80703,1758077156.79498,0.0,0.0,0.0,12.77696,1.48969,-7.84952,7.87,-1.68,0.47,2.0
1758077156.82147,1758077156.80498,0.0,0.0,0.0,17.81899,-11.80293,-5.61499,7.49,-2.29,0.2,2.0
1758077156.83746,1758077156.81498,0.0,0.0,0.0,22.57454,-24.92367,-2.86479,7.49,-2.29,0.2,2.0
1758077156.83867,1758077156.82498,0.0,0.0,0.0,27.84575,-52.19646,2.92208,7.24,-2.71,0.29,2.0
1758077156.85345,1758077156.83498,0.0,0.0,0.0,29.27814,-67.66632,5.84417,7.24,-2.71,0.29,2.0
1758077156.85632,1758077156.84498,0.0,0.0,0.0,29.67921,-69.49979,4.81285,7.62,-2.24,-0.15,2.0
1758077156.87169,1758077156.85498,0.0,0.0,0.0,31.62727,-51.50891,4.81285,7.62,-2.24,-0.15,2.0
1758077156.88776,1758077156.86498,0.0,0.0,0.0,32.71589,-18.50654,2.63561,12.46,-1.48,-0.6,2.0
1758077156.88949,1758077156.87498,0.0,0.0,0.0,31.91375,-10.59972,0.45837,12.6,-1.16,-0.29,2.0
1758077156.90468,1758077156.88498,0.0,0.0,0.0,30.93972,-16.50119,-3.55234,12.6,-1.16,-0.29,2.0
1758077156.9056,1758077156.89498,0.0,0.0,0.0,29.39274,-34.66395,-8.0787,10.56,-1.18,-0.14,2.0
1758077156.92125,1758077156.90498,0.0,0.0,0.0,26.87172,-46.63877,-7.39116,10.56,-1.18,-0.14,2.0
1758077156.9375,1758077156.91498,0.0,0.0,0.0,21.31403,-57.23849,-4.81285,12.81,-0.55,2.24,2.0
1758077156.93979,1758077156.92498,0.0,0.0,0.0,14.72501,-68.29657,0.22918,12.81,-0.55,2.24,2.0
1758077156.95445,1758077156.93498,0.0,0.0,0.0,7.10468,-77.17742,13.00614,15.27,0.67,4.09,2.0
1758077156.95603,1758077156.94498,0.0,0.0,0.0,4.1253,-71.21866,19.53786,15.34,1.03,2.02,2.0
1758077156.97079,1758077156.95498,0.0,0.0,0.0,1.71887,-56.60823,22.74642,15.34,1.03,2.02,2.0
1758077156.98683,1758077156.96498,0.0,0.0,0.0,-2.46372,-41.02378,20.05352,11.87,-0.32,-0.18,2.0
1758077156.98798,1758077156.97498,0.0,0.0,0.0,-7.33386,-26.69983,11.97482,11.87,-0.32,-0.18,2.0
1758077157.00281,1758077156.98498,0.0,0.0,0.0,-7.50575,-19.48057,5.15662,8.98,-1.32,0.6,2.0
1758077157.00403,1758077156.99498,0.0,0.0,0.0,-4.29718,-13.5791,-0.45837,8.98,-1.32,0.6,2.0
1758077157.01955,1758077157.00498,0.0,0.0,0.0,1.71887,-10.54242,-4.46907,9.67,-1.62,1.77,2.0
1758077157.03551,1758077157.01498,0.0,0.0,0.0,14.20935,-9.68299,-7.44845,10.5,-1.48,3.62,2.0
1758077157.03675,1758077157.02498,0.0,0.0,0.0,22.97561,-8.0787,-7.67763,10.5,-1.48,3.62,2.0
1758077157.0518,1758077157.03498,0.0,0.0,0.0,31.85646,-6.8182,-5.32851,10.68,-1.08,3.14,2.0
1758077157.06943,1758077157.04498,0.0,0.0,0.0,39.53409,-4.64096,-0.97403,10.68,-1.08,3.14,2.0
1758077157.07032,1758077157.05498,0.0,0.0,0.0,47.49821,3.55234,7.21927,11.04,-0.59,2.6,2.0
1758077157.08587,1758077157.06498,0.0,0.0,0.0,49.96192,10.37054,10.94349,11.04,-0.59,2.6,2.0
1758077157.08679,1758077157.07498,0.0,0.0,0.0,49.33167,17.6471,12.08941,11.08,-0.06,1.87,2.0
1758077157.1016,1758077157.08498,0.0,0.0,0.0,45.49285,23.72045,9.39651,11.08,-0.06,1.87,2.0
1758077157.10603,1758077157.09498,0.0,0.0,0.0,41.36755,30.48136,5.78687,10.34,0.21,1.61,2.0
1758077157.12194,1758077157.10498,0.0,0.0,0.0,36.89849,32.88778,1.3178,9.42,0.32,1.33,2.0
1758077157.12599,1758077157.11498,0.0,0.0,0.0,32.08564,34.60666,-3.20856,9.42,0.32,1.33,2.0
1758077157.14185,1758077157.12498,0.0,0.0,0.0,25.55392,36.21093,-9.96947,9.19,0.64,1.25,2.0
1758077157.14944,1758077157.13498,0.0,0.0,0.0,22.28806,35.12231,-13.40721,9.19,0.64,1.25,2.0
1758077157.16475,1758077157.14498,0.0,0.0,0.0,19.82434,33.11696,-15.12609,9.16,1.08,1.23,2.0
1758077157.16737,1758077157.15498,0.0,0.0,0.0,18.22006,31.39809,-15.75634,9.16,1.08,1.23,2.0
1758077157.18524,1758077157.16498,0.0,0.0,0.0,16.67307,28.07493,-14.43854,9.17,1.31,1.2,2.0
1758077157.18696,1758077157.17498,0.0,0.0,0.0,16.10011,24.5226,-13.00614,8.85,1.11,1.28,2.0
1758077157.205,1758077157.18498,0.0,0.0,0.0,15.87093,20.62648,-11.45916,8.85,1.11,1.28,2.0
1758077157.2077,1758077157.19498,0.0,0.0,0.0,15.58445,15.64175,-9.4538,8.59,0.64,1.32,2.0
1758077157.22459,1758077157.20498,0.0,0.0,0.0,14.9542,7.50575,-7.39116,8.59,0.64,1.32,2.0
1758077157.22578,1758077157.21498,0.0,0.0,0.0,14.20935,3.38045,-5.84417,8.63,0.28,1.2,2.0
1758077157.24055,1758077157.22498,0.0,0.0,0.0,13.00614,0.17189,-4.92744,8.63,0.28,1.2,2.0
1758077157.2566,1758077157.23498,0.0,0.0,0.0,11.28727,-1.60428,-4.87014,9.04,0.17,1.03,2.0
1758077157.25775,1758077157.24498,0.0,0.0,0.0,8.36518,-2.6929,-6.13065,9.18,0.3,0.88,2.0
1758077157.27338,1758077157.25498,0.0,0.0,0.0,6.41713,-2.6929,-7.44845,9.18,0.3,0.88,2.0
1758077157.27648,1758077157.26498,0.0,0.0,0.0,4.58366,-1.66158,-8.59437,9.2,0.49,0.72,2.0
1758077157.29197,1758077157.27498,0.0,0.0,0.0,3.20856,-0.51566,-8.88085,9.2,0.49,0.72,2.0
1758077157.31007,1758077157.28498,0.0,0.0,0.0,1.48969,2.00535,-8.65166,9.32,0.5,0.67,2.0
1758077157.31119,1758077157.29498,0.0,0.0,0.0,0.68755,7.21927,-7.33386,9.32,0.5,0.67,2.0
1758077157.32663,1758077157.30498,0.0,0.0,0.0,0.17189,14.78231,-5.50039,9.78,0.35,0.56,2.0
1758077157.33095,1758077157.31498,0.0,0.0,0.0,-0.11459,26.69983,-2.29183,9.78,0.35,0.56,2.0
1758077157.34663,1758077157.32498,0.0,0.0,0.0,-0.17189,34.32018,-0.22918,9.87,0.18,0.39,2.0
1758077157.34939,1758077157.33498,0.0,0.0,0.0,-0.40107,42.74266,2.11994,9.74,0.15,0.25,2.0
1758077157.36644,1758077157.34498,0.0,0.0,0.0,-0.80214,48.35764,4.52637,9.74,0.15,0.25,2.0
1758077157.36742,1758077157.35498,0.0,0.0,0.0,-2.86479,44.40423,6.41713,9.07,0.24,0.41,2.0
1758077157.38355,1758077157.36498,0.0,0.0,0.0,-5.15662,32.48671,7.04738,9.07,0.24,0.41,2.0
1758077157.38461,1758077157.37498,0.0,0.0,0.0,-9.05273,21.25674,5.61499,7.92,0.54,0.65,2.0
1758077157.4015,1758077157.38498,0.0,0.0,0.0,-13.00614,10.02676,4.18259,7.92,0.54,0.65,2.0
1758077157.41666,1758077157.39498,0.0,0.0,0.0,-19.25138,-5.72958,-0.80214,7.98,1.2,0.95,2.0
1758077157.41789,1758077157.40498,0.0,0.0,0.0,-23.49127,-18.33465,-3.60963,8.35,1.66,1.02,2.0
1758077157.43349,1758077157.41498,0.0,0.0,0.0,-26.81443,-35.63798,-5.27121,8.35,1.66,1.02,2.0
1758077157.43656,1758077157.42498,0.0,0.0,0.0,-28.36141,-46.98254,-5.50039,8.47,1.21,0.87,2.0
1758077157.45195,1758077157.43498,0.0,0.0,0.0,-29.67921,-49.21708,-3.60963,8.47,1.21,0.87,2.0
1758077157.4679,1758077157.44498,0.0,0.0,0.0,-30.19488,-40.85189,-1.48969,10.54,0.34,-0.12,2.0
1758077157.46966,1758077157.45498,0.0,0.0,0.0,-30.19488,-29.73651,1.94806,10.54,0.34,-0.12,2.0
1758077157.48548,1758077157.46498,0.0,0.0,0.0,-29.96569,-18.9649,5.27121,12.04,-0.28,-0.5,2.0
1758077157.48823,1758077157.47498,0.0,0.0,0.0,-30.19488,-14.20935,10.25595,11.04,-0.39,-0.92,2.0
1758077157.50562,1758077157.48498,0.0,0.0,0.0,-29.8511,-29.10626,12.71966,11.04,-0.39,-0.92,2.0
1758077157.5067,1758077157.49498,0.0,0.0,0.0,-31.97105,-40.85189,14.78231,8.83,0.08,-0.91,2.0
1758077157.52199,1758077157.50498,0.0,0.0,0.0,-34.32018,-30.76784,17.24603,8.83,0.08,-0.91,2.0
1758077157.53956,1758077157.51498,0.0,0.0,0.0,-36.38282,-11.22997,17.6471,12.57,0.41,-0.24,2.0
1758077157.54132,1758077157.52498,0.0,0.0,0.0,-35.86716,-14.78231,16.73037,12.57,0.41,-0.24,2.0
1758077157.55703,1758077157.53498,0.0,0.0,0.0,-33.23156,-29.22085,13.23533,12.26,0.01,2.47,2.0
1758077157.55873,1758077157.54498,0.0,0.0,0.0,-26.69983,-57.58226,5.21392,12.26,0.01,2.47,2.0
1758077157.57553,1758077157.55498,0.0,0.0,0.0,-23.66316,-67.60902,-1.3751,11.94,-0.85,3.25,2.0
1758077157.57648,1758077157.56498,0.0,0.0,0.0,-20.34,-62.91077,-5.50039,13.69,-2.16,2.17,2.0
1758077157.59202,1758077157.57498,0.0,0.0,0.0,-16.272,-50.53488,-6.35983,13.69,-2.16,2.17,2.0
1758077157.60774,1758077157.58498,0.0,0.0,0.0,-11.00079,-38.56006,-2.6929,12.66,-2.44,1.61,2.0
1758077157.6097,1758077157.59498,0.0,0.0,0.0,-9.4538,-34.66395,1.14592,12.66,-2.44,1.61,2.0
1758077157.62575,1758077157.60498,0.0,0.0,0.0,-10.08406,-30.48136,5.15662,9.57,-0.87,1.67,2.0
1758077157.62941,1758077157.61498,0.0,0.0,0.0,-12.89155,-25.72581,8.25059,9.57,-0.87,1.67,2.0
1758077157.64574,1758077157.62498,0.0,0.0,0.0,-20.11082,-18.62113,9.28192,9.08,0.53,2.08,2.0
1758077157.64931,1758077157.63498,0.0,0.0,0.0,-25.61122,-12.77696,8.30789,9.32,1.13,2.33,2.0
1758077157.66479,1758077157.64498,0.0,0.0,0.0,-30.65324,-6.47442,5.32851,9.32,1.13,2.33,2.0
1758077157.66601,1758077157.65498,0.0,0.0,0.0,-34.72124,-2.06265,1.60428,9.9,0.81,1.89,2.0
1758077157.68076,1758077157.66498,0.0,0.0,0.0,-36.95578,3.20856,-2.6929,9.9,0.81,1.89,2.0
1758077157.69701,1758077157.67498,0.0,0.0,0.0,-35.63798,9.11003,-3.60963,10.8,-0.5,1.5,2.0
1758077157.69802,1758077157.68498,0.0,0.0,0.0,-32.6013,15.98552,-3.03668,10.8,-0.5,1.5,2.0
1758077157.713,1758077157.69498,0.0,0.0,0.0,-28.07493,22.11617,-0.45837,11.7,-2.07,1.19,2.0
1758077157.71482,1758077157.70498,0.0,0.0,0.0,-20.85567,28.93437,1.66158,11.01,-2.73,1.07,2.0
1758077157.73075,1758077157.71498,0.0,0.0,0.0,-16.38659,31.45539,3.95341,11.01,-2.73,1.07,2.0
1758077157.74702,1758077157.72498,0.0,0.0,0.0,-12.77696,33.68992,5.95876,10.11,-2.33,0.97,2.0
1758077157.74959,1758077157.73498,0.0,0.0,0.0,-8.65166,35.00772,8.47978,10.11,-2.33,0.97,2.0
1758077157.76506,1758077157.74498,0.0,0.0,0.0,-7.10468,35.00772,9.91217,9.68,-1.67,0.94,2.0
1758077157.76674,1758077157.75498,0.0,0.0,0.0,-5.72958,35.12231,10.65701,9.68,-1.67,0.94,2.0
1758077157.78188,1758077157.76498,0.0,0.0,0.0,-4.46907,33.68992,11.11538,9.4,-1.3,0.74,2.0
1758077157.78376,1758077157.77498,0.0,0.0,0.0,-2.46372,30.36677,11.11538,9.4,-1.3,0.49,2.0
1758077157.8006,1758077157.78498,0.0,0.0,0.0,-1.3178,28.13223,10.65701,8.81,-1.3,0.49,2.0
1758077157.81706,1758077157.79498,0.0,0.0,0.0,-0.0573,25.38203,9.85487,8.42,-1.47,0.47,2.0
1758077157.8216,1758077157.80498,0.0,0.0,0.0,1.03132,22.28806,8.99544,8.42,-1.47,0.47,2.0
1758077157.83705,1758077157.81498,0.0,0.0,0.0,2.29183,18.44924,6.70361,8.24,-1.52,0.44,2.0
1758077157.83997,1758077157.82498,0.0,0.0,0.0,2.97938,15.64175,5.15662,8.24,-1.52,0.44,2.0
1758077157.85587,1758077157.83498,0.0,0.0,0.0,4.1253,13.12073,4.1253,8.47,-1.41,0.48,2.0
1758077157.85677,1758077157.84498,0.0,0.0,0.0,5.32851,11.00079,3.66693,8.47,-1.41,0.48,2.0
1758077157.87182,1758077157.85498,0.0,0.0,0.0,6.87549,8.88085,3.38045,8.73,-1.26,0.4,2.0
1758077157.87543,1758077157.86498,0.0,0.0,0.0,7.79223,8.25059,3.26586,8.92,-1.06,0.33,2.0
1758077157.89205,1758077157.87498,0.0,0.0,0.0,8.36518,7.50575,3.03668,8.92,-1.06,0.33,2.0
1758077157.90782,1758077157.88498,0.0,0.0,0.0,8.70896,7.33386,3.03668,9.08,-0.8,0.26,2.0
1758077157.91218,1758077157.89498,0.0,0.0,0.0,8.76626,8.88085,2.46372,9.08,-0.8,0.26,2.0
1758077157.93131,1758077157.90498,0.0,0.0,0.0,8.42248,12.08941,1.43239,9.42,-0.64,0.12,2.0
1758077157.93216,1758077157.91498,0.0,0.0,0.0,8.02141,17.6471,0.34377,9.42,-0.64,0.12,2.0
1758077157.94945,1758077157.92498,0.0,0.0,0.0,7.67763,29.56462,-1.3178,10.08,-0.73,0.09,2.0
1758077157.9509,1758077157.93498,0.0,0.0,0.0,8.136,36.7266,-2.00535,10.42,-1.0,0.17,2.0
1758077157.9669,1758077157.94498,0.0,0.0,0.0,8.99544,37.92981,-2.29183,10.42,-1.0,0.17,2.0
1758077157.96806,1758077157.95498,0.0,0.0,0.0,9.5684,33.86181,-2.63561,9.21,-1.2,0.1,2.0
1758077157.98309,1758077157.96498,0.0,0.0,0.0,11.45916,25.15285,-2.7502,9.21,-1.2,0.1,2.0
1758077157.98404,1758077157.97498,0.0,0.0,0.0,13.40721,19.48057,-2.57831,8.64,-1.26,0.01,2.0
1758077158.00145,1758077157.98498,0.0,0.0,0.0,15.46986,11.28727,-2.40642,8.64,-1.26,0.01,2.0
1758077158.00668,1758077157.99498,0.0,0.0,0.0,17.18874,0.22918,-1.94806,8.15,-1.33,0.21,2.0
1758077158.02308,1758077158.00498,0.0,0.0,0.0,18.85031,-27.38738,-0.80214,7.04,-1.34,0.54,2.0
1758077158.02424,1758077158.01498,0.0,0.0,0.0,17.87628,-49.67545,0.45837,7.04,-1.34,0.54,2.0
1758077158.04093,1758077158.02498,0.0,0.0,0.0,15.06879,-57.46767,-1.14592,7.12,-1.32,0.29,2.0
1758077158.05713,1758077158.03498,0.0,0.0,0.0,15.29797,-39.4195,0.22918,7.12,-1.32,0.29,2.0
1758077158.05883,1758077158.04498,0.0,0.0,0.0,14.20935,-1.43239,2.86479,12.89,-1.3,0.73,2.0
1758077158.07384,1758077158.05498,0.0,0.0,0.0,13.12073,-1.77617,2.34913,12.89,-1.3,0.73,2.0
1758077158.07586,1758077158.06498,0.0,0.0,0.0,11.17268,-24.75178,-1.94806,10.33,-1.38,0.85,2.0
1758077158.09086,1758077158.07498,0.0,0.0,0.0,13.00614,-55.57691,-0.40107,10.33,-1.38,0.85,2.0
1758077158.10686,1758077158.08498,0.0,0.0,0.0,14.72501,-56.03527,2.63561,7.31,-0.83,-0.49,2.0
1758077158.11161,1758077158.09498,0.0,0.0,0.0,15.64175,-44.46153,3.38045,11.48,-0.58,-0.76,2.0
1758077158.12679,1758077158.10498,0.0,0.0,0.0,16.84496,-35.98175,3.03668,11.48,-0.58,-0.76,2.0
1758077158.12963,1758077158.11498,0.0,0.0,0.0,17.76169,-27.50197,-0.51566,10.93,-1.09,-0.96,2.0
1758077158.14648,1758077158.12498,0.0,0.0,0.0,18.62113,-17.01685,-4.87014,10.93,-1.09,-0.96,2.0
1758077158.15173,1758077158.13498,0.0,0.0,0.0,19.48057,-12.43318,-9.91217,10.95,-1.42,-1.44,2.0
1758077158.1669,1758077158.14498,0.0,0.0,0.0,20.45459,-6.24524,-13.98017,10.95,-1.42,-1.44,2.0
1758077158.16923,1758077158.15498,0.0,0.0,0.0,20.85567,5.09932,-17.24603,11.97,-1.36,-0.95,2.0
1758077158.18556,1758077158.16498,0.0,0.0,0.0,19.99623,7.84952,-17.53251,13.5,-0.98,0.99,2.0
1758077158.1875,1758077158.17498,0.0,0.0,0.0,18.10547,4.18259,-15.41257,13.5,-0.98,0.99,2.0
1758077158.20472,1758077158.18498,0.0,0.0,0.0,15.35527,-4.1253,-10.94349,14.08,-0.56,2.3,2.0
1758077158.20734,1758077158.19498,0.0,0.0,0.0,11.22997,-20.45459,-0.40107,14.08,-0.56,2.3,2.0
1758077158.22308,1758077158.20498,0.0,0.0,0.0,8.47978,-24.5226,5.27121,13.83,-0.55,2.25,2.0
1758077158.22409,1758077158.21498,0.0,0.0,0.0,7.50575,-27.96034,13.00614,13.83,-0.55,2.25,2.0
1758077158.24104,1758077158.22498,0.0,0.0,0.0,6.07335,-25.26744,16.272,12.46,-0.95,1.09,2.0
1758077158.25719,1758077158.23498,0.0,0.0,0.0,4.52637,-18.44924,16.10011,9.55,-1.78,0.28,2.0
1758077158.26651,1758077158.24498,0.0,0.0,0.0,3.60963,-14.20935,12.43318,9.55,-1.78,0.28,2.0
1758077158.26686,1758077158.25498,0.0,0.0,0.0,3.20856,-10.31324,7.33386,7.76,-2.15,0.56,2.0
1758077158.284,1758077158.26498,0.0,0.0,0.0,4.18259,-7.10468,1.48969,7.76,-2.15,0.56,2.0
1758077158.28515,1758077158.27498,0.0,0.0,0.0,8.42248,-5.55769,-4.81285,7.62,-1.44,1.28,2.0
1758077158.30156,1758077158.28498,0.0,0.0,0.0,13.17803,-5.90147,-6.18794,7.62,-1.44,1.28,2.0
1758077158.30505,1758077158.29498,0.0,0.0,0.0,18.73572,-5.55769,-5.50039,8.6,-0.39,2.56,2.0
1758077158.32128,1758077158.30498,0.0,0.0,0.0,24.63719,-4.58366,-3.49504,8.6,-0.39,2.56,2.0
1758077158.33712,1758077158.31498,0.0,0.0,0.0,32.48671,-1.77617,1.03132,9.91,0.15,2.82,2.0
1758077158.34136,1758077158.32498,0.0,0.0,0.0,36.6693,0.85944,4.23989,10.76,0.19,2.33,2.0
1758077158.35725,1758077158.33498,0.0,0.0,0.0,39.19032,4.46907,7.79223,10.76,0.19,2.33,2.0
1758077158.36454,1758077158.34498,0.0,0.0,0.0,39.24761,12.204,10.02676,11.9,-0.16,1.7,2.0
1758077158.36517,1758077158.35498,0.0,0.0,0.0,37.18496,18.22006,9.11003,11.9,-0.16,1.7,2.0
1758077158.38136,1758077158.36498,0.0,0.0,0.0,34.0337,23.72045,6.35983,11.77,-0.54,1.25,2.0
1758077158.39732,1758077158.37498,0.0,0.0,0.0,30.82513,27.73116,3.03668,11.77,-0.54,1.25,2.0
1758077158.40091,1758077158.38498,0.0,0.0,0.0,27.1582,31.2262,-2.34913,10.47,-0.72,1.17,2.0
1758077158.4163,1758077158.39498,0.0,0.0,0.0,25.49662,32.42941,-5.4431,9.74,-0.8,1.11,2.0
1758077158.41797,1758077158.40498,0.0,0.0,0.0,24.75178,33.34615,-7.67763,9.74,-0.8,1.11,2.0
1758077158.43309,1758077158.41498,0.0,0.0,0.0,24.75178,33.51803,-8.70896,9.56,-0.87,0.89,2.0
1758077158.43694,1758077158.42498,0.0,0.0,0.0,25.72581,33.11696,-7.67763,9.56,-0.87,0.89,2.0
1758077158.45597,1758077158.43498,0.0,0.0,0.0,26.41335,31.56997,-6.70361,9.19,-0.5,0.73,2.0
1758077158.458,1758077158.44498,0.0,0.0,0.0,26.64254,28.30412,-5.61499,9.19,-0.5,0.73,2.0
1758077158.4763,1758077158.45498,0.0,0.0,0.0,26.06958,25.21014,-4.69825,8.78,0.44,0.69,2.0
1758077158.47823,1758077158.46498,0.0,0.0,0.0,23.49127,20.22541,-4.46907,8.66,1.2,0.69,2.0
1758077158.49609,1758077158.47498,0.0,0.0,0.0,20.74107,17.47521,-5.15662,8.66,1.2,0.69,2.0
1758077158.49724,1758077158.48498,0.0,0.0,0.0,17.76169,14.72501,-6.18794,8.54,1.25,0.64,2.0
1758077158.51207,1758077158.49498,0.0,0.0,0.0,14.72501,12.60507,-7.10468,8.54,1.25,0.64,2.0
1758077158.51512,1758077158.50498,0.0,0.0,0.0,10.8862,9.74028,-7.73493,8.55,0.73,0.55,2.0
1758077158.5313,1758077158.51498,0.0,0.0,0.0,9.05273,8.36518,-7.33386,8.55,0.73,0.55,2.0
1758077158.54731,1758077158.52498,0.0,0.0,0.0,7.50575,6.99009,-6.13065,8.82,0.07,0.53,2.0
1758077158.55219,1758077158.53498,0.0,0.0,0.0,5.78687,6.8182,-4.29718,8.82,0.07,0.53,2.0
1758077158.56702,1758077158.54498,0.0,0.0,0.0,4.58366,11.97482,-3.95341,9.44,-0.32,0.44,2.0
1758077158.57057,1758077158.55498,0.0,0.0,0.0,3.32316,19.59516,-4.0107,10.37,-0.24,0.25,2.0
1758077158.58608,1758077158.56498,0.0,0.0,0.0,2.40642,25.55392,-3.72423,10.37,-0.24,0.25,2.0
1758077158.58725,1758077158.57498,0.0,0.0,0.0,1.03132,28.01764,-3.20856,10.22,0.03,0.28,2.0
1758077158.6044,1758077158.58498,0.0,0.0,0.0,-0.34377,27.73116,-2.97938,10.22,0.03,0.28,2.0
1758077158.60605,1758077158.59498,0.0,0.0,0.0,-2.06265,26.12688,-2.6929,9.59,0.34,0.06,2.0
1758077158.62107,1758077158.60498,0.0,0.0,0.0,-3.60963,22.63183,-2.29183,9.59,0.34,0.06,2.0
1758077158.63731,1758077158.61498,0.0,0.0,0.0,-6.18794,11.45916,-0.57296,8.84,0.46,-0.29,2.0
1758077158.6394,1758077158.62498,0.0,0.0,0.0,-7.39116,3.03668,-0.68755,7.81,0.68,-0.15,2.0
1758077158.65635,1758077158.63498,0.0,0.0,0.0,-8.30789,-11.45916,-0.17189,7.81,0.68,-0.15,2.0
1758077158.65805,1758077158.64498,0.0,0.0,0.0,-10.02676,-24.57989,-0.51566,7.16,0.68,-0.28,2.0
1758077158.67311,1758077158.65498,0.0,0.0,0.0,-11.34457,-4.0107,-0.11459,7.16,0.68,-0.28,2.0
1758077158.67616,1758077158.66498,0.0,0.0,0.0,-12.49048,7.16197,1.43239,11.55,0.99,0.77,2.0
1758077158.69235,1758077158.67498,0.0,0.0,0.0,-21.7151,-11.45916,-5.95876,11.55,0.99,0.77,2.0
1758077158.69586,1758077158.68498,0.0,0.0,0.0,-27.78845,-33.68992,-13.12073,8.09,1.15,1.12,2.0
1758077158.71118,1758077158.69498,0.0,0.0,0.0,-31.28349,-35.12231,-17.18874,9.0,1.0,0.02,2.0
1758077158.72713,1758077158.70498,0.0,0.0,0.0,-33.00237,-21.14215,-16.55848,9.0,1.0,0.02,2.0
1758077158.73071,1758077158.71498,0.0,0.0,0.0,-33.17426,-7.62034,-14.03747,11.4,0.66,0.58,2.0
1758077158.74614,1758077158.72498,0.0,0.0,0.0,-32.37212,-0.80214,-10.71431,11.4,0.66,0.58,2.0
1758077158.75161,1758077158.73498,0.0,0.0,0.0,-29.56462,-1.60428,-5.50039,10.2,0.3,0.64,2.0
1758077158.76614,1758077158.74498,0.0,0.0,0.0,-26.87172,-0.45837,-2.00535,10.2,0.3,0.64,2.0
1758077158.7705,1758077158.75498,0.0,0.0,0.0,-23.20479,2.46372,0.0,11.33,-0.37,1.87,2.0
1758077158.78615,1758077158.76498,0.0,0.0,0.0,-15.06879,-2.34913,-1.20321,11.33,-0.37,1.87,2.0
1758077158.78734,1758077158.77498,0.0,0.0,0.0,-8.47978,-11.74564,-4.0107,13.62,-1.58,3.19,2.0
1758077158.80579,1758077158.78498,0.0,0.0,0.0,-2.97938,-20.85567,-6.8182,13.57,-2.55,2.72,2.0
1758077158.80995,1758077158.79498,0.0,0.0,0.0,1.03132,-25.72581,-7.73493,13.57,-2.55,2.72,2.0
1758077158.82543,1758077158.80498,0.0,0.0,0.0,3.89611,-26.64254,-5.4431,12.56,-1.98,1.54,2.0
1758077158.82638,1758077158.81498,0.0,0.0,0.0,4.64096,-23.83505,-2.00535,12.56,-1.98,1.54,2.0
1758077158.84118,1758077158.82498,0.0,0.0,0.0,4.35448,-19.13679,2.11994,11.27,-0.11,1.33,2.0
1758077158.85921,1758077158.83498,0.0,0.0,0.0,2.92208,-15.64175,6.24524,11.27,-0.11,1.33,2.0
1758077158.86073,1758077158.84498,0.0,0.0,0.0,-2.23454,-12.89155,10.71431,10.34,1.15,1.11,2.0
1758077158.8763,1758077158.85498,0.0,0.0,0.0,-7.39116,-12.14671,11.91752,9.69,1.46,1.46,2.0
1758077158.87896,1758077158.86498,0.0,0.0,0.0,-13.86558,-11.51645,11.28727,9.69,1.46,1.46,2.0
1758077158.89657,1758077158.87498,0.0,0.0,0.0,-20.3973,-11.51645,9.33921,9.39,1.13,2.23,2.0
1758077158.90168,1758077158.88498,0.0,0.0,0.0,-28.36141,-13.12073,4.69825,9.39,1.13,2.23,2.0
1758077158.92176,1758077158.89498,0.0,0.0,0.0,-31.97105,-13.80828,1.03132,9.17,0.23,2.56,2.0
1758077158.92397,1758077158.90498,0.0,0.0,0.0,-33.9764,-13.12073,-2.57831,9.17,0.23,2.56,2.0
1758077158.9273,1758077158.91498,0.0,0.0,0.0,-33.9764,-10.94349,-5.55769,9.5,-0.97,2.13,2.0
1758077158.94619,1758077158.92498,0.0,0.0,0.0,-30.88243,-6.41713,-8.136,9.89,-1.92,1.73,2.0
1758077158.94739,1758077158.93498,0.0,0.0,0.0,-27.04361,-2.6929,-8.02141,9.89,-1.92,1.73,2.0
1758077158.9631,1758077158.94498,0.0,0.0,0.0,-22.57454,1.43239,-6.35983,10.37,-2.26,1.46,2.0
1758077158.9698,1758077158.95498,0.0,0.0,0.0,-15.98552,4.98473,-1.3751,10.37,-2.26,1.46,2.0
1758077158.98598,1758077158.96498,0.0,0.0,0.0,-12.08941,9.74028,2.40642,10.27,-2.01,1.39,2.0
1758077158.98756,1758077158.97498,0.0,0.0,0.0,-8.70896,13.17803,6.24524,10.27,-2.01,1.39,2.0
1758077159.00605,1758077158.98498,0.0,0.0,0.0,-6.53172,16.38659,9.62569,10.04,-1.57,1.31,2.0
1758077159.00983,1758077158.99498,0.0,0.0,0.0,-4.58366,20.34,13.69369,10.04,-1.57,1.31,2.0
1758077159.02604,1758077159.00498,0.0,0.0,0.0,-3.95341,22.57454,15.87093,9.88,-1.29,1.23,2.0
1758077159.02989,1758077159.01498,0.0,0.0,0.0,-3.72423,24.12152,17.47521,9.61,-1.17,0.94,2.0
1758077159.04556,1758077159.02498,0.0,0.0,0.0,-4.1253,24.29341,18.56383,9.61,-1.17,0.94,2.0
1758077159.04639,1758077159.03498,0.0,0.0,0.0,-5.15662,23.0329,19.13679,9.1,-1.16,0.76,2.0
1758077159.06125,1758077159.04498,0.0,0.0,0.0,-6.07335,22.40265,18.9649,9.1,-1.16,0.76,2.0
1758077159.07838,1758077159.05498,0.0,0.0,0.0,-7.21927,21.7724,18.22006,8.92,-1.19,0.64,2.0
1758077159.07917,1758077159.06498,0.0,0.0,0.0,-8.25059,20.3973,17.18874,8.92,-1.19,0.64,2.0
1758077159.09612,1758077159.07498,0.0,0.0,0.0,-9.68299,17.93358,14.43854,8.85,-1.13,0.63,2.0
1758077159.09704,1758077159.08498,0.0,0.0,0.0,-10.19865,16.50119,12.37589,8.91,-1.03,0.65,2.0
1758077159.11252,1758077159.09498,0.0,0.0,0.0,-10.59972,15.12609,10.31324,8.91,-1.03,0.65,2.0
1758077159.11502,1758077159.10498,0.0,0.0,0.0,-10.65701,13.40721,8.136,9.04,-0.95,0.69,2.0
1758077159.13572,1758077159.11498,0.0,0.0,0.0,-10.02676,10.19865,5.21392,9.04,-0.95,0.69,2.0
1758077159.13663,1758077159.12498,0.0,0.0,0.0,-9.11003,8.36518,3.89611,9.19,-0.93,0.75,2.0
1758077159.1524,1758077159.13498,0.0,0.0,0.0,-7.79223,6.35983,3.09397,9.19,-0.93,0.75,2.0
1758077159.17143,1758077159.14498,0.0,0.0,0.0,-6.47442,3.95341,2.7502,9.16,-1.1,0.73,2.0
1758077159.17341,1758077159.15498,0.0,0.0,0.0,-4.35448,3.60963,2.6929,9.09,-1.31,0.63,2.0
1758077159.19088,1758077159.16498,0.0,0.0,0.0,-3.32316,6.58902,2.29183,9.09,-1.31,0.63,2.0
1758077159.19213,1758077159.17498,0.0,0.0,0.0,-2.86479,10.02676,1.66158,9.46,-1.34,0.59,2.0
1758077159.2091,1758077159.18498,0.0,0.0,0.0,-2.6929,16.04282,-0.11459,9.46,-1.34,0.59,2.0
1758077159.21036,1758077159.19498,0.0,0.0,0.0,-2.7502,21.37133,-1.3751,9.62,-1.19,0.56,2.0
1758077159.22529,1758077159.20498,0.0,0.0,0.0,-2.97938,27.04361,-2.40642,9.62,-1.19,0.56,2.0
1758077159.22728,1758077159.21498,0.0,0.0,0.0,-2.97938,32.83048,-3.49504,9.74,-1.06,0.38,2.0
1758077159.24628,1758077159.22498,0.0,0.0,0.0,-2.40642,37.52874,-4.35448,9.74,-1.06,0.43,2.0
1758077159.25095,1758077159.23498,0.0,0.0,0.0,-1.3751,34.60666,-4.18259,9.5,-1.04,0.43,2.0
1758077159.26654,1758077159.24498,0.0,0.0,0.0,0.0573,26.87172,-3.09397,8.56,-1.19,0.62,2.0
1758077159.27096,1758077159.25498,0.0,0.0,0.0,2.00535,16.61578,-2.00535,8.56,-1.19,0.62,2.0
1758077159.28654,1758077159.26498,0.0,0.0,0.0,5.50039,0.11459,-0.0573,8.07,-1.55,0.91,2.0
1758077159.29177,1758077159.27498,0.0,0.0,0.0,8.25059,-15.29797,1.77617,8.07,-1.55,0.91,2.0
1758077159.30628,1758077159.28498,0.0,0.0,0.0,9.91217,-37.12767,2.86479,7.24,-1.87,1.04,2.0
1758077159.30992,1758077159.29498,0.0,0.0,0.0,10.65701,-54.02992,3.60963,7.24,-1.87,1.04,2.0
1758077159.32558,1758077159.30498,0.0,0.0,0.0,12.204,-37.24226,4.52637,7.79,-2.03,0.79,2.0
1758077159.32677,1758077159.31498,0.0,0.0,0.0,13.75099,-10.31324,5.78687,13.21,-1.91,1.23,2.0
1758077159.34126,1758077159.32498,0.0,0.0,0.0,13.86558,3.72423,5.90147,13.21,-1.91,1.23,2.0
1758077159.34676,1758077159.33498,0.0,0.0,0.0,13.98017,-2.29183,3.32316,10.9,-1.66,0.62,2.0
1758077159.36632,1758077159.34498,0.0,0.0,0.0,16.272,-38.78925,-1.20321,10.9,-1.66,0.62,2.0
1758077159.37172,1758077159.35498,0.0,0.0,0.0,17.53251,-53.97263,-0.57296,7.19,-1.28,-0.75,2.0
1758077159.38635,1758077159.36498,0.0,0.0,0.0,18.90761,-50.76406,-0.34377,7.19,-1.28,-0.75,2.0
1758077159.38935,1758077159.37498,0.0,0.0,0.0,19.25138,-41.99781,-0.80214,10.74,-1.05,-0.5,2.0
1758077159.40455,1758077159.38498,0.0,0.0,0.0,18.79302,-34.32018,-1.3178,12.09,-1.09,0.24,2.0
1758077159.40556,1758077159.39498,0.0,0.0,0.0,16.95955,-29.04896,-1.60428,12.09,-1.09,0.24,2.0
1758077159.42116,1758077159.40498,0.0,0.0,0.0,13.80828,-24.57989,-2.57831,13.87,-0.79,0.91,2.0
1758077159.43762,1758077159.41498,0.0,0.0,0.0,7.44845,-24.4653,-2.23454,13.87,-0.79,0.91,2.0
1758077159.43934,1758077159.42498,0.0,0.0,0.0,2.34913,-29.50733,-0.22918,13.94,-0.37,1.5,2.0
1758077159.45625,1758077159.43498,0.0,0.0,0.0,-2.6929,-35.00772,2.86479,13.94,-0.37,1.5,2.0
1758077159.45713,1758077159.44498,0.0,0.0,0.0,-6.7609,-34.37747,5.95876,12.75,-0.48,1.23,2.0
1758077159.47235,1758077159.45498,0.0,0.0,0.0,-10.8289,-24.29341,7.73493,11.28,-1.38,0.61,2.0
1758077159.47693,1758077159.46498,0.0,0.0,0.0,-11.17268,-18.50654,6.70361,11.28,-1.38,0.61,2.0
1758077159.49232,1758077159.47498,0.0,0.0,0.0,-9.11003,-15.0115,4.46907,9.03,-2.0,1.08,2.0
1758077159.49631,1758077159.48498,0.0,0.0,0.0,-4.87014,-13.98017,1.94806,9.03,-2.0,1.08,2.0
1758077159.51161,1758077159.49498,0.0,0.0,0.0,5.50039,-15.24068,-1.20321,8.38,-1.91,1.97,2.0
1758077159.52761,1758077159.50498,0.0,0.0,0.0,13.86558,-16.38659,-2.29183,8.38,-1.91,1.97,2.0
1758077159.52933,1758077159.51498,0.0,0.0,0.0,22.74642,-17.01685,-2.11994,9.19,-1.52,3.13,2.0
1758077159.54543,1758077159.52498,0.0,0.0,0.0,30.93972,-15.92823,-0.45837,9.19,-1.52,3.13,2.0
1758077159.54639,1758077159.53498,0.0,0.0,0.0,40.27893,-11.97482,4.46907,10.43,-1.05,2.89,2.0
1758077159.56147,1758077159.54498,0.0,0.0,0.0,43.83128,-7.39116,8.36518,11.23,-0.67,2.04,2.0
1758077159.56684,1758077159.55498,0.0,0.0,0.0,45.26366,-2.06265,11.17268,11.23,-0.67,2.04,2.0
1758077159.58261,1758077159.56498,0.0,0.0,0.0,44.9199,4.29718,10.59972,11.18,-0.6,1.41,2.0
1758077159.58753,1758077159.57498,0.0,0.0,0.0,41.59674,14.15206,7.67763,11.18,-0.6,1.41,2.0
1758077159.60266,1758077159.58498,0.0,0.0,0.0,38.56006,19.36597,3.72423,10.32,-0.77,1.11,2.0
1758077159.60706,1758077159.59498,0.0,0.0,0.0,35.63798,23.83505,-0.68755,10.32,-0.77,1.11,2.0
1758077159.6227,1758077159.60498,0.0,0.0,0.0,31.51268,26.87172,-6.7609,9.69,-0.67,1.01,2.0
1758077159.62757,1758077159.61498,0.0,0.0,0.0,29.39274,27.61657,-10.08406,9.77,-0.14,0.93,2.0
1758077159.64241,1758077159.62498,0.0,0.0,0.0,27.44468,27.96034,-12.54778,9.77,-0.14,0.93,2.0
1758077159.65949,1758077159.63498,0.0,0.0,0.0,26.41335,26.06958,-13.75099,9.94,0.51,0.8,2.0
1758077159.66119,1758077159.64498,0.0,0.0,0.0,25.38203,21.94428,-13.69369,9.94,0.51,0.8,2.0
1758077159.67643,1758077159.65498,0.0,0.0,0.0,25.09555,18.85031,-12.77696,9.51,0.86,0.88,2.0
1758077159.67769,1758077159.66498,0.0,0.0,0.0,24.75178,14.49583,-11.63104,9.51,0.86,0.88,2.0
1758077159.69247,1758077159.67498,0.0,0.0,0.0,24.4653,10.48513,-9.68299,8.81,0.58,0.99,2.0
1758077159.70958,1758077159.68498,0.0,0.0,0.0,23.83505,5.32851,-6.07335,8.4,-0.13,1.08,2.0
1758077159.71073,1758077159.69498,0.0,0.0,0.0,23.31938,3.32316,-3.60963,8.4,-0.13,1.08,2.0
1758077159.72576,1758077159.70498,0.0,0.0,0.0,23.0329,1.08862,-1.60428,8.38,-0.73,1.01,2.0
1758077159.72667,1758077159.71498,0.0,0.0,0.0,22.34536,0.0,-0.40107,8.38,-0.73,1.01,2.0
1758077159.74172,1758077159.72498,0.0,0.0,0.0,21.02755,0.34377,0.17189,8.69,-0.58,0.72,2.0
1758077159.75754,1758077159.73498,0.0,0.0,0.0,19.88164,2.00535,-0.22918,8.69,-0.58,0.72,2.0
1758077159.76188,1758077159.74498,0.0,0.0,0.0,18.62113,4.0107,-0.74485,9.35,0.09,0.56,2.0
1758077159.77754,1758077159.75498,0.0,0.0,0.0,17.18874,6.41713,-1.43239,9.35,0.09,0.56,2.0
1758077159.78346,1758077159.76498,0.0,0.0,0.0,14.49583,10.19865,-2.11994,9.71,0.46,0.49,2.0
1758077159.79959,1758077159.77498,0.0,0.0,0.0,12.54778,12.54778,-3.03668,9.64,0.5,0.51,2.0
1758077159.80129,1758077159.78498,0.0,0.0,0.0,10.19865,19.25138,-4.18259,9.64,0.5,0.51,2.0
1758077159.81679,1758077159.79498,0.0,0.0,0.0,6.8182,34.0337,-4.87014,10.09,0.48,0.12,2.0
1758077159.81764,1758077159.80498,0.0,0.0,0.0,4.87014,42.22699,-4.29718,10.09,0.48,0.12,2.0
1758077159.83651,1758077159.81498,0.0,0.0,0.0,3.03668,45.60744,-3.49504,9.84,0.45,-0.09,2.0
1758077159.83763,1758077159.82498,0.0,0.0,0.0,1.14592,43.20102,-3.32316,9.84,0.45,-0.09,2.0
1758077159.85277,1758077159.83498,0.0,0.0,0.0,-1.94806,30.88243,-1.94806,8.46,0.59,0.18,2.0
1758077159.86963,1758077159.84498,0.0,0.0,0.0,-5.27121,19.07949,-1.3178,7.56,0.88,0.48,2.0
1758077159.87053,1758077159.85498,0.0,0.0,0.0,-8.0787,2.6929,0.34377,7.56,0.88,0.48,2.0
1758077159.88582,1758077159.86498,0.0,0.0,0.0,-12.14671,-9.05273,-1.14592,7.48,1.17,0.37,2.0
1758077159.88833,1758077159.87498,0.0,0.0,0.0,-15.92823,-22.23076,-5.55769,7.48,1.17,0.37,2.0
1758077159.90376,1758077159.88498,0.0,0.0,0.0,-17.81899,-34.14828,-7.67763,8.23,1.26,0.33,2.0
1758077159.90772,1758077159.89498,0.0,0.0,0.0,-19.19409,-44.8053,-8.47978,8.23,1.26,0.33,2.0
1758077159.92361,1758077159.90498,0.0,0.0,0.0,-18.62113,-48.35764,-7.44845,8.69,0.8,0.02,2.0
1758077159.92454,1758077159.91498,0.0,0.0,0.0,-18.44924,-41.59674,-4.98473,10.49,0.62,-0.88,2.0
1758077159.94082,1758077159.92498,0.0,0.0,0.0,-18.33465,-32.25753,-2.34913,10.49,0.62,-0.88,2.0
1758077159.95938,1758077159.93498,0.0,0.0,0.0,-18.50654,-21.42862,0.0573,12.05,0.57,-0.62,2.0
1758077159.96111,1758077159.94498,0.0,0.0,0.0,-19.19409,-13.5791,3.09397,12.05,0.57,-0.62,2.0
1758077159.97686,1758077159.95498,0.0,0.0,0.0,-18.22006,-15.98552,5.61499,12.48,0.35,1.92,2.0
1758077159.98179,1758077159.96498,0.0,0.0,0.0,-16.10011,-22.63183,4.87014,12.48,0.35,1.92,2.0
1758077159.99686,1758077159.97498,0.0,0.0,0.0,-11.80293,-31.62727,3.66693,13.57,-0.97,4.02,2.0
1758077160.00173,1758077159.98498,0.0,0.0,0.0,-10.8289,-57.63955,-2.7502,13.57,-0.97,4.02,2.0
1758077160.01666,1758077159.99498,0.0,0.0,0.0,-10.08406,-87.43336,-4.81285,11.29,-2.36,2.84,2.0
1758077160.02176,1758077160.00498,0.0,0.0,0.0,-10.94349,-62.79618,-6.13065,13.09,-1.83,1.16,2.0
1758077160.0367,1758077160.01498,0.0,0.0,0.0,-12.37589,-31.16891,-3.95341,13.09,-1.83,1.16,2.0
1758077160.04737,1758077160.02498,0.0,0.0,0.0,-19.19409,-24.23611,-5.50039,13.77,-0.28,1.74,2.0
1758077160.04797,1758077160.03498,0.0,0.0,0.0,-24.57989,-31.16891,-6.53172,13.77,-0.28,1.74,2.0
1758077160.06616,1758077160.04498,0.0,0.0,0.0,-28.64789,-31.16891,-6.70361,9.3,0.89,2.45,2.0
1758077160.06736,1758077160.05498,0.0,0.0,0.0,-32.25753,-23.0902,-6.24524,9.3,0.89,2.45,2.0
1758077160.08338,1758077160.06498,0.0,0.0,0.0,-36.6693,-13.40721,-5.4431,10.83,0.46,1.87,2.0
1758077160.08695,1758077160.07498,0.0,0.0,0.0,-39.01843,-9.68299,-5.55769,10.07,-0.56,2.22,2.0
1758077160.10662,1758077160.08498,0.0,0.0,0.0,-40.33623,-3.89611,-6.13065,10.07,-0.56,2.22,2.0
1758077160.11126,1758077160.09498,0.0,0.0,0.0,-40.7946,3.26586,-6.7609,10.34,-1.37,1.64,2.0
1758077160.12658,1758077160.10498,0.0,0.0,0.0,-40.62271,11.74564,-7.16197,10.34,-1.37,1.64,2.0
1758077160.12784,1758077160.11498,0.0,0.0,0.0,-40.10705,16.55848,-6.41713,10.9,-1.98,1.36,2.0
1758077160.1436,1758077160.12498,0.0,0.0,0.0,-39.4195,21.31403,-4.35448,10.9,-1.98,1.36,2.0
1758077160.14776,1758077160.13498,0.0,0.0,0.0,-38.44547,26.69983,-2.00535,11.22,-2.18,1.1,2.0
1758077160.16584,1758077160.14498,0.0,0.0,0.0,-37.01308,32.37212,1.71887,10.78,-1.89,1.06,2.0
1758077160.16705,1758077160.15498,0.0,0.0,0.0,-35.86716,35.2369,4.18259,10.78,-1.89,1.06,2.0
1758077160.18374,1758077160.16498,0.0,0.0,0.0,-34.77854,36.7266,6.07335,10.26,-1.52,1.02,2.0
1758077160.1891,1758077160.17498,0.0,0.0,0.0,-33.34615,37.47144,7.73493,10.26,-1.52,1.02,2.0
1758077160.20449,1758077160.18498,0.0,0.0,0.0,-31.51268,37.12767,8.99544,9.7,-1.35,0.79,2.0
1758077160.20724,1758077160.19498,0.0,0.0,0.0,-30.19488,35.3515,9.22462,9.7,-1.35,0.79,2.0
1758077160.2235,1758077160.20498,0.0,0.0,0.0,-28.99167,32.88778,8.99544,9.13,-1.47,0.63,2.0
1758077160.22468,1758077160.21498,0.0,0.0,0.0,-26.98631,28.64789,8.25059,9.13,-1.47,0.63,2.0
1758077160.24088,1758077160.22498,0.0,0.0,0.0,-25.21014,26.01229,7.79223,8.79,-1.72,0.51,2.0
1758077160.25673,1758077160.23498,0.0,0.0,0.0,-23.94964,23.31938,7.10468,8.7,-1.89,0.53,2.0
1758077160.25786,1758077160.24498,0.0,0.0,0.0,-22.51724,21.42862,6.35983,8.7,-1.89,0.53,2.0
1758077160.27356,1758077160.25498,0.0,0.0,0.0,-20.45459,17.93358,5.09932,8.65,-1.75,0.58,2.0
1758077160.27661,1758077160.26498,0.0,0.0,0.0,-18.9649,15.41257,4.18259,8.65,-1.75,0.58,2.0
1758077160.29195,1758077160.27498,0.0,0.0,0.0,-17.58981,13.12073,3.09397,8.61,-1.49,0.56,2.0
1758077160.30788,1758077160.28498,0.0,0.0,0.0,-16.04282,11.86023,2.23454,8.61,-1.49,0.56,2.0
1758077160.31159,1758077160.29498,0.0,0.0,0.0,-12.2613,11.34457,1.94806,8.79,-1.4,0.42,2.0
1758077160.32693,1758077160.30498,0.0,0.0,0.0,-9.33921,11.45916,2.23454,8.97,-1.6,0.35,2.0
1758077160.32787,1758077160.31498,0.0,0.0,0.0,-6.41713,13.80828,2.29183,8.97,-1.6,0.35,2.0
1758077160.34362,1758077160.32498,0.0,0.0,0.0,-3.55234,17.81899,2.57831,9.27,-1.89,0.3,2.0
1758077160.34472,1758077160.33498,0.0,0.0,0.0,-0.17189,24.92367,1.83346,9.27,-1.89,0.3,2.0
1758077160.36073,1758077160.34497,0.0,0.0,0.0,1.08862,29.56462,1.08862,9.32,-1.85,0.13,2.0
1758077160.377,1758077160.35497,0.0,0.0,0.0,1.60428,34.89313,-0.45837,9.32,-1.85,0.13,2.0
1758077160.37873,1758077160.36497,0.0,0.0,0.0,1.71887,39.76327,-2.06265,9.35,-1.48,0.12,2.0
1758077160.39478,1758077160.37497,0.0,0.0,0.0,1.60428,43.83128,-4.64096,9.06,-1.17,0.29,2.0
1758077160.39653,1758077160.38497,0.0,0.0,0.0,2.57831,40.39353,-6.07335,9.06,-1.17,0.29,2.0
1758077160.41174,1758077160.39497,0.0,0.0,0.0,4.58366,31.91375,-6.18794,8.18,-1.23,0.57,2.0
1758077160.41602,1758077160.40497,0.0,0.0,0.0,8.93814,21.60051,-4.18259,8.18,-1.23,0.57,2.0
1758077160.43177,1758077160.41497,0.0,0.0,0.0,13.5791,4.0107,-1.3751,7.7,-1.8,0.59,2.0
1758077160.43519,1758077160.42497,0.0,0.0,0.0,18.62113,-5.95876,1.60428,7.7,-1.8,0.59,2.0
1758077160.45106,1758077160.43497,0.0,0.0,0.0,23.66316,-14.38124,4.35448,7.78,-2.75,0.67,2.0
1758077160.46679,1758077160.44497,0.0,0.0,0.0,30.76784,-27.38738,8.02141,7.78,-2.75,0.67,2.0
1758077160.46908,1758077160.45497,0.0,0.0,0.0,34.43476,-40.27893,9.68299,8.28,-3.15,0.7,2.0
1758077160.48487,1758077160.46497,0.0,0.0,0.0,36.03905,-48.9879,9.68299,8.39,-2.61,0.28,2.0
1758077160.48663,1758077160.47497,0.0,0.0,0.0,37.24226,-53.39967,9.62569,8.39,-2.61,0.28,2.0
1758077160.50194,1758077160.48497,0.0,0.0,0.0,37.24226,-45.43555,5.90147,9.83,-1.69,-0.25,2.0
1758077160.50698,1758077160.49497,0.0,0.0,0.0,37.58603,-31.62727,3.95341,9.83,-1.69,-0.25,2.0
1758077160.52706,1758077160.50497,0.0,0.0,0.0,38.15899,-17.87628,1.43239,11.97,-1.2,-0.16,2.0
1758077160.52959,1758077160.51497,0.0,0.0,0.0,38.38818,-11.45916,-1.3751,11.97,-1.2,-0.16,2.0
1758077160.54661,1758077160.52497,0.0,0.0,0.0,38.84654,-9.74028,-6.41713,11.0,-1.36,-0.52,2.0
1758077160.55187,1758077160.53497,0.0,0.0,0.0,39.24761,-12.83425,-10.25595,9.79,-1.7,-1.16,2.0
1758077160.56684,1758077160.54497,0.0,0.0,0.0,40.50812,-19.42327,-11.97482,9.79,-1.7,-1.16,2.0
1758077160.57067,1758077160.55497,0.0,0.0,0.0,40.68,-25.09555,-14.72501,9.36,-1.76,-0.53,2.0
1758077160.58688,1758077160.56497,0.0,0.0,0.0,40.39353,-36.89849,-15.06879,9.36,-1.76,-0.53,2.0
1758077160.58777,1758077160.57497,0.0,0.0,0.0,39.70598,-50.64947,-12.89155,10.75,-1.52,2.08,2.0
1758077160.6058,1758077160.58497,0.0,0.0,0.0,36.95578,-69.78626,-9.85487,10.75,-1.52,2.08,2.0
1758077160.60745,1758077160.59497,0.0,0.0,0.0,35.52338,-92.07432,-2.29183,12.4,-0.73,3.98,2.0
1758077160.62667,1758077160.60497,0.0,0.0,0.0,32.48671,-89.49601,10.65701,15.5,0.2,2.31,2.0
1758077160.63035,1758077160.61497,0.0,0.0,0.0,28.99167,-73.45319,15.75634,15.5,0.2,2.31,2.0
1758077160.64488,1758077160.62497,0.0,0.0,0.0,24.92367,-63.19725,16.55848,12.83,-0.15,0.61,2.0
1758077160.64605,1758077160.63497,0.0,0.0,0.0,21.14215,-52.36834,13.17803,12.83,-0.15,0.61,2.0
1758077160.66113,1758077160.64497,0.0,0.0,0.0,21.60051,-42.85724,9.74028,8.78,-0.95,0.93,2.0
1758077160.67708,1758077160.65497,0.0,0.0,0.0,24.4653,-34.72124,6.53172,8.78,-0.95,0.93,2.0
1758077160.67851,1758077160.66497,0.0,0.0,0.0,29.27814,-27.04361,4.18259,9.14,-1.14,1.53,2.0
1758077160.69386,1758077160.67497,0.0,0.0,0.0,38.15899,-11.63104,0.34377,9.14,-1.14,1.73,2.0
1758077160.69646,1758077160.68497,0.0,0.0,0.0,44.11775,-1.3178,-0.85944,10.75,-0.78,1.73,2.0
1758077160.71187,1758077160.69497,0.0,0.0,0.0,49.21708,7.62034,-0.0573,12.25,-0.39,0.85,2.0
1758077160.71605,1758077160.70497,0.0,0.0,0.0,53.39967,16.55848,1.77617,12.25,-0.39,0.85,2.0
1758077160.73112,1758077160.71497,0.0,0.0,0.0,56.66553,27.44468,3.60963,12.45,-0.23,0.53,2.0
1758077160.74685,1758077160.72497,0.0,0.0,0.0,56.66553,34.14828,3.60963,12.45,-0.23,0.53,2.0
1758077160.75047,1758077160.73497,0.0,0.0,0.0,54.88936,40.68,1.60428,11.64,-0.33,0.29,2.0
1758077160.76691,1758077160.74497,0.0,0.0,0.0,51.6235,44.57612,-1.43239,11.64,-0.33,0.29,2.0
1758077160.77135,1758077160.75497,0.0,0.0,0.0,45.60744,45.03448,-6.87549,10.4,-0.32,0.12,2.0
1758077160.78595,1758077160.76497,0.0,0.0,0.0,41.42485,45.26366,-10.37054,9.71,0.05,0.23,2.0
1758077160.78732,1758077160.77497,0.0,0.0,0.0,37.52874,45.43555,-13.5791,9.71,0.05,0.23,2.0
1758077160.8065,1758077160.78497,0.0,0.0,0.0,34.26288,43.54479,-16.3293,9.28,0.61,0.3,2.0
1758077160.81013,1758077160.79497,0.0,0.0,0.0,30.30947,36.84119,-18.50654,9.28,0.61,0.3,2.0
1758077160.82518,1758077160.80497,0.0,0.0,0.0,28.13223,31.16891,-18.79302,8.54,1.08,0.42,2.0
1758077160.82692,1758077160.81497,0.0,0.0,0.0,26.06958,23.60586,-18.56383,8.54,1.08,0.42,2.0
1758077160.84199,1758077160.82497,0.0,0.0,0.0,22.57454,15.12609,-16.73037,8.04,1.3,0.56,2.0
1758077160.84627,1758077160.83497,0.0,0.0,0.0,19.70975,4.46907,-15.41257,7.88,1.26,0.69,2.0
1758077160.86191,1758077160.84497,0.0,0.0,0.0,16.67307,-1.71887,-14.15206,7.88,1.26,0.69,2.0
1758077160.86305,1758077160.85497,0.0,0.0,0.0,13.5791,-7.44845,-12.83425,7.9,1.08,0.65,2.0
1758077160.87839,1758077160.86497,0.0,0.0,0.0,9.33921,-13.5791,-11.11538,7.9,1.08,0.65,2.0
1758077160.89682,1758077160.87497,0.0,0.0,0.0,7.16197,-16.04282,-9.91217,8.28,0.81,0.54,2.0
1758077160.89801,1758077160.88497,0.0,0.0,0.0,5.4431,-17.13144,-8.47978,8.28,0.81,0.54,2.0
1758077160.91283,1758077160.89497,0.0,0.0,0.0,4.23989,-17.36062,-7.04738,8.78,0.52,0.52,2.0
1758077160.91482,1758077160.90497,0.0,0.0,0.0,2.86479,-9.05273,-4.69825,9.74,0.52,0.17,2.0
1758077160.92976,1758077160.91497,0.0,0.0,0.0,2.11994,1.03132,-3.20856,9.74,0.19,0.17,2.0
1758077160.94579,1758077160.92497,0.0,0.0,0.0,1.43239,12.08941,-2.23454,10.63,-0.13,0.0,2.0
1758077160.94701,1758077160.93497,0.0,0.0,0.0,0.68755,21.94428,-1.3751,10.63,-0.13,0.0,2.0
1758077160.96179,1758077160.94497,0.0,0.0,0.0,-1.43239,32.08564,-2.23454,10.51,-0.11,0.11,2.0
1758077160.97027,1758077160.95497,0.0,0.0,0.0,-3.26586,34.32018,-3.32316,10.51,-0.11,0.11,2.0
1758077160.98626,1758077160.96497,0.0,0.0,0.0,-5.95876,34.37747,-4.58366,9.72,0.41,0.04,2.0
1758077160.98742,1758077160.97497,0.0,0.0,0.0,-8.59437,34.89313,-5.61499,9.72,0.41,0.04,2.0
1758077161.00193,1758077160.98497,0.0,0.0,0.0,-13.00614,32.37212,-6.53172,9.35,1.03,-0.04,2.0
1758077161.01034,1758077160.99497,0.0,0.0,0.0,-15.29797,24.57989,-6.87549,8.66,1.4,0.0,2.0
1758077161.02591,1758077161.00497,0.0,0.0,0.0,-17.01685,11.34457,-6.87549,8.66,1.4,0.0,2.0
1758077161.0274,1758077161.01497,0.0,0.0,0.0,-17.13144,-2.97938,-6.24524,7.65,1.35,0.15,2.0
1758077161.04192,1758077161.02497,0.0,0.0,0.0,-16.04282,-19.99623,-5.72958,7.65,1.35,0.15,2.0
1758077161.04394,1758077161.03497,0.0,0.0,0.0,-14.38124,-25.49662,-5.15662,8.44,0.88,0.0,2.0
