timeStamp,timeStampAlign,roll,pitch,yaw,gyro_x,gyro_y,gyro_z,acc_x,acc_y,acc_z,flag_num
1758075758.4999,1758075758.51193,0.0,0.0,0.0,-23.60586,-65.2026,7.10468,9.85,0.67,3.12,2.0
1758075758.51651,1758075758.52193,0.0,0.0,0.0,-16.3293,-114.24779,1.43239,10.44,1.65,7.6,2.0
1758075758.51803,1758075758.53193,0.0,0.0,0.0,-16.61578,-161.63141,-25.72581,10.44,1.65,7.6,2.0
1758075758.53392,1758075758.54193,0.0,0.0,0.0,-14.83961,-136.13478,-35.2942,14.69,-0.82,6.15,2.0
1758075758.53516,1758075758.55193,0.0,0.0,0.0,-11.91752,-105.19505,-34.89313,14.69,-0.82,6.15,2.0
1758075758.55184,1758075758.56193,0.0,0.0,0.0,-9.85487,-102.04379,-27.84575,16.86,-1.9,1.92,2.0
1758075758.55386,1758075758.57193,0.0,0.0,0.0,-8.76626,-113.56024,-19.48057,11.02,0.0,3.53,2.0
1758075758.57175,1758075758.58193,0.0,0.0,0.0,-9.22462,-110.92463,-16.04282,11.02,0.0,3.53,2.0
1758075758.57363,1758075758.59193,0.0,0.0,0.0,-9.74028,-102.15839,-13.00614,12.27,1.28,1.79,2.0
1758075758.59029,1758075758.60193,0.0,0.0,0.0,-12.2613,-89.83979,-11.00079,12.27,1.28,1.79,2.0
1758075758.59286,1758075758.61193,0.0,0.0,0.0,-15.64175,-85.82908,-12.49048,12.23,1.76,1.98,2.0
1758075758.60968,1758075758.62193,0.0,0.0,0.0,-20.22541,-86.05827,-12.71966,12.23,1.76,1.98,2.0
1758075758.61287,1758075758.63193,0.0,0.0,0.0,-25.72581,-81.41731,-12.83425,10.59,1.77,2.36,2.0
1758075758.62962,1758075758.64193,0.0,0.0,0.0,-35.69527,-68.23928,-12.37589,10.56,1.37,1.0,2.0
1758075758.63271,1758075758.65193,0.0,0.0,0.0,-42.85724,-58.84277,-11.00079,10.56,1.37,1.0,2.0
1758075758.64822,1758075758.66193,0.0,0.0,0.0,-48.35764,-48.01387,-9.28192,10.4,0.56,0.08,2.0
1758075758.66632,1758075758.67193,0.0,0.0,0.0,-52.19646,-34.77854,-8.59437,10.4,0.56,0.08,2.0
1758075758.66749,1758075758.68193,0.0,0.0,0.0,-52.82671,-13.75099,-8.42248,10.86,-0.1,-0.38,2.0
1758075758.68264,1758075758.69193,0.0,0.0,0.0,-50.3057,0.40107,-8.65166,10.86,-0.1,-0.38,2.0
1758075758.68393,1758075758.70193,0.0,0.0,0.0,-46.63877,15.46986,-8.76626,11.33,-0.69,-0.52,2.0
1758075758.69836,1758075758.71193,0.0,0.0,0.0,-41.76862,29.8511,-8.47978,11.33,-0.69,-0.52,2.0
1758075758.71562,1758075758.72193,0.0,0.0,0.0,-34.43476,48.9306,-6.7609,11.56,-0.99,-0.91,2.0
1758075758.71604,1758075758.73193,0.0,0.0,0.0,-30.76784,57.12389,-5.50039,10.98,-0.93,-1.19,2.0
1758075758.73248,1758075758.74193,0.0,0.0,0.0,-28.01764,63.13995,-4.87014,10.98,-0.93,-1.19,2.0
1758075758.73334,1758075758.75193,0.0,0.0,0.0,-25.89769,68.06739,-5.27121,10.55,-0.55,-1.17,2.0
1758075758.77441,1758075758.76193,0.0,0.0,0.0,-25.43933,76.54716,-6.70361,10.55,-0.55,-1.17,2.0
1758075758.7798,1758075758.77193,0.0,0.0,0.0,-25.09555,80.32869,-7.67763,10.58,-0.05,-1.14,2.0
1758075758.78025,1758075758.78193,0.0,0.0,0.0,-25.26744,82.90699,-8.76626,10.58,-0.05,-1.14,2.0
1758075758.78149,1758075758.79193,0.0,0.0,0.0,-26.12688,84.91235,-10.25595,10.08,0.25,-0.95,2.0
1758075758.78389,1758075758.80193,0.0,0.0,0.0,-26.18417,83.47996,-10.48513,9.3,0.36,-0.56,2.0
1758075758.79966,1758075758.81193,0.0,0.0,0.0,-25.72581,80.04221,-9.85487,9.3,0.36,-0.56,2.0
1758075758.81708,1758075758.82193,0.0,0.0,0.0,-24.17882,76.66176,-8.36518,8.44,0.18,-0.4,2.0
1758075758.81784,1758075758.83193,0.0,0.0,0.0,-21.7724,71.27596,-5.50039,8.44,0.18,-0.4,2.0
1758075758.83704,1758075758.84193,0.0,0.0,0.0,-20.16812,66.80688,-3.72423,8.05,-0.13,-0.38,2.0
1758075758.83765,1758075758.85193,0.0,0.0,0.0,-18.9649,62.33781,-2.40642,8.05,-0.13,-0.38,2.0
1758075758.85678,1758075758.86193,0.0,0.0,0.0,-18.33465,57.12389,-1.94806,8.08,-0.38,0.0,2.0
1758075758.85717,1758075758.87193,0.0,0.0,0.0,-17.87628,46.00851,-2.92208,8.25,-0.47,0.05,2.0
1758075758.87274,1758075758.88193,0.0,0.0,0.0,-17.93358,40.7373,-4.58366,8.25,-0.47,0.05,2.0
1758075758.87764,1758075758.89193,0.0,0.0,0.0,-18.10547,36.55471,-6.58902,9.0,-0.44,0.27,2.0
1758075758.89278,1758075758.90193,0.0,0.0,0.0,-17.6471,31.39809,-8.36518,9.0,-0.44,0.27,2.0
1758075758.89447,1758075758.91193,0.0,0.0,0.0,-16.50119,27.61657,-11.00079,9.21,-0.42,0.05,2.0
1758075758.91174,1758075758.92193,0.0,0.0,0.0,-15.35527,28.24682,-12.54778,9.21,-0.42,0.05,2.0
1758075758.91284,1758075758.93193,0.0,0.0,0.0,-14.49583,28.87707,-13.98017,9.86,-0.3,0.02,2.0
1758075758.92773,1758075758.94193,0.0,0.0,0.0,-13.5791,27.33009,-15.24068,9.86,-0.3,0.02,2.0
1758075758.94379,1758075758.95193,0.0,0.0,0.0,-12.43318,24.4653,-16.272,9.77,-0.07,-0.05,2.0
1758075758.94493,1758075758.96193,0.0,0.0,0.0,-11.74564,22.57454,-16.73037,9.72,0.09,-0.07,2.0
1758075758.95952,1758075758.97193,0.0,0.0,0.0,-11.22997,20.05352,-16.84496,9.72,0.09,-0.07,2.0
1758075758.96095,1758075758.98193,0.0,0.0,0.0,-9.85487,12.89155,-15.24068,9.25,0.05,0.2,2.0
1758075758.97687,1758075758.99193,0.0,0.0,0.0,-8.30789,6.58902,-13.23533,9.25,0.05,0.2,2.0
1758075758.99259,1758075759.00193,0.0,0.0,0.0,-6.8182,0.11459,-11.00079,8.56,-0.22,0.07,2.0
1758075758.99451,1758075759.01193,0.0,0.0,0.0,-4.92744,-6.24524,-8.99544,8.56,-0.22,0.07,2.0
1758075759.00958,1758075759.02193,0.0,0.0,0.0,-2.29183,-13.06344,-6.24524,8.34,-0.61,-0.04,2.0
1758075759.01154,1758075759.03193,0.0,0.0,0.0,-0.51566,-16.3293,-5.15662,8.7,-1.01,0.16,2.0
1758075759.02713,1758075759.04193,0.0,0.0,0.0,1.48969,-21.31403,-3.95341,8.7,-1.01,0.16,2.0
1758075759.04288,1758075759.05193,0.0,0.0,0.0,3.66693,-25.21014,-2.57831,9.19,-1.3,1.0,2.0
1758075759.04456,1758075759.06193,0.0,0.0,0.0,7.62034,-31.11161,-0.45837,9.19,-1.3,1.0,2.0
1758075759.05964,1758075759.07193,0.0,0.0,0.0,10.19865,-36.61201,1.03132,9.89,-1.18,2.07,2.0
1758075759.06074,1758075759.08193,0.0,0.0,0.0,12.49048,-45.03448,2.63561,9.89,-1.18,2.07,2.0
1758075759.0762,1758075759.09193,0.0,0.0,0.0,13.75099,-63.65561,5.09932,9.95,-0.65,4.72,2.0
1758075759.09158,1758075759.10193,0.0,0.0,0.0,7.96411,-88.35009,16.38659,12.0,1.46,8.85,2.0
1758075759.09278,1758075759.11193,0.0,0.0,0.0,0.0,-69.55708,26.24147,12.0,1.46,8.85,2.0
1758075759.10762,1758075759.12193,0.0,0.0,0.0,-4.52637,-45.89392,31.39809,18.58,4.77,2.16,2.0
1758075759.12452,1758075759.13193,0.0,0.0,0.0,-7.84952,-55.92068,28.24682,18.58,4.77,2.16,2.0
1758075759.1258,1758075759.14193,0.0,0.0,0.0,-8.30789,-86.11556,22.11617,10.83,3.46,0.81,2.0
1758075759.14089,1758075759.15193,0.0,0.0,0.0,-7.50575,-83.88103,20.16812,10.83,3.46,0.81,2.0
1758075759.14188,1758075759.16193,0.0,0.0,0.0,-8.36518,-67.43713,14.15206,11.6,0.12,1.98,2.0
1758075759.15724,1758075759.17193,0.0,0.0,0.0,-5.32851,-55.7488,6.87549,11.6,0.12,1.98,2.0
1758075759.17347,1758075759.18193,0.0,0.0,0.0,-2.34913,-47.49821,4.23989,11.86,-0.95,2.14,2.0
1758075759.17735,1758075759.19193,0.0,0.0,0.0,1.3178,-36.21093,2.6929,10.95,-0.48,2.68,2.0
1758075759.19347,1758075759.20193,0.0,0.0,0.0,5.50039,-26.01229,5.32851,10.95,-0.48,2.68,2.0
1758075759.19793,1758075759.21193,0.0,0.0,0.0,10.25595,-10.8289,6.58902,10.38,0.73,1.07,2.0
1758075759.21348,1758075759.22193,0.0,0.0,0.0,13.12073,-0.45837,6.8182,10.38,0.73,1.07,2.0
1758075759.21791,1758075759.23193,0.0,0.0,0.0,15.64175,9.28192,6.47442,9.32,1.52,0.61,2.0
1758075759.23342,1758075759.24193,0.0,0.0,0.0,17.53251,17.76169,5.78687,9.32,1.52,0.61,2.0
1758075759.23712,1758075759.25193,0.0,0.0,0.0,18.73572,30.19488,4.92744,8.9,1.72,0.37,2.0
1758075759.25264,1758075759.26193,0.0,0.0,0.0,17.93358,39.19032,4.23989,9.38,1.78,0.52,2.0
1758075759.25387,1758075759.27193,0.0,0.0,0.0,16.84496,48.35764,3.95341,9.38,1.78,0.52,2.0
1758075759.26868,1758075759.28193,0.0,0.0,0.0,14.78231,56.55093,4.0107,9.86,1.82,0.55,2.0
1758075759.28476,1758075759.29193,0.0,0.0,0.0,10.8289,63.99939,3.03668,9.86,1.82,0.55,2.0
1758075759.28593,1758075759.30193,0.0,0.0,0.0,8.25059,65.08801,2.97938,9.62,1.79,0.51,2.0
1758075759.30095,1758075759.31193,0.0,0.0,0.0,5.84417,61.87944,2.97938,9.62,1.79,0.51,2.0
1758075759.30281,1758075759.32193,0.0,0.0,0.0,3.83882,56.32175,3.09397,8.96,1.77,0.5,2.0
1758075759.36299,1758075759.33193,0.0,0.0,0.0,1.20321,50.64947,4.35448,9.1,1.82,0.83,2.0
1758075759.36734,1758075759.34193,0.0,0.0,0.0,-1.20321,45.09178,4.98473,9.1,1.82,0.83,2.0
1758075759.36776,1758075759.35193,0.0,0.0,0.0,-4.52637,39.3622,5.78687,8.92,1.97,0.87,2.0
1758075759.36898,1758075759.36193,0.0,0.0,0.0,-8.36518,34.43476,6.7609,8.92,1.97,0.87,2.0
1758075759.37194,1758075759.37193,0.0,0.0,0.0,-14.32395,26.24147,6.41713,9.01,2.15,1.13,2.0
1758075759.37429,1758075759.38193,0.0,0.0,0.0,-17.99088,20.97026,5.84417,9.01,2.15,1.13,2.0
1758075759.37543,1758075759.39193,0.0,0.0,0.0,-21.37133,14.43854,4.52637,8.89,2.13,1.28,2.0
1758075759.3916,1758075759.40193,0.0,0.0,0.0,-26.24147,8.47978,1.20321,8.89,2.13,1.28,2.0
1758075759.39311,1758075759.41193,0.0,0.0,0.0,-28.87707,6.41713,-0.97403,8.74,1.95,1.26,2.0
1758075759.40775,1758075759.42193,0.0,0.0,0.0,-31.51268,7.04738,-3.26586,9.02,1.81,1.24,2.0
1758075759.42392,1758075759.43193,0.0,0.0,0.0,-33.63263,7.84952,-4.69825,9.02,1.81,1.24,2.0
1758075759.4266,1758075759.44193,0.0,0.0,0.0,-35.75257,6.87549,-6.07335,9.08,1.66,1.16,2.0
1758075759.44193,1758075759.45193,0.0,0.0,0.0,-36.49741,6.58902,-5.78687,9.08,1.66,1.16,2.0
1758075759.44331,1758075759.46193,0.0,0.0,0.0,-37.01308,7.33386,-5.09932,9.26,1.4,1.06,2.0
1758075759.45799,1758075759.47193,0.0,0.0,0.0,-37.52874,6.47442,-4.0107,9.26,1.4,1.06,2.0
1758075759.47395,1758075759.48193,0.0,0.0,0.0,-37.52874,6.24524,-1.43239,9.42,1.19,0.91,2.0
1758075759.47503,1758075759.49193,0.0,0.0,0.0,-38.27358,9.22462,-0.34377,10.03,1.06,0.96,2.0
1758075759.48986,1758075759.50193,0.0,0.0,0.0,-39.24761,13.98017,-0.22918,10.03,1.06,0.96,2.0
1758075759.49107,1758075759.51193,0.0,0.0,0.0,-40.7373,16.272,-1.60428,10.32,1.25,0.85,2.0
1758075759.50688,1758075759.52193,0.0,0.0,0.0,-43.65939,15.06879,-3.49504,10.32,1.25,0.85,2.0
1758075759.52358,1758075759.53193,0.0,0.0,0.0,-46.1231,13.69369,-4.58366,10.02,1.55,0.81,2.0
1758075759.52638,1758075759.54193,0.0,0.0,0.0,-49.21708,12.83425,-5.95876,10.02,1.55,0.81,2.0
1758075759.54198,1758075759.55193,0.0,0.0,0.0,-52.82671,12.2613,-7.33386,10.06,1.74,0.66,2.0
1758075759.54388,1758075759.56193,0.0,0.0,0.0,-58.78547,9.91217,-8.30789,9.84,1.96,0.53,2.0
1758075759.56071,1758075759.57193,0.0,0.0,0.0,-62.85347,6.18794,-8.99544,9.84,1.96,0.53,2.0
1758075759.56234,1758075759.58193,0.0,0.0,0.0,-66.80688,-0.85944,-8.88085,8.94,2.13,0.29,2.0
1758075759.57722,1758075759.59193,0.0,0.0,0.0,-71.84892,-10.65701,-8.30789,8.94,2.13,0.29,2.0
1758075759.5929,1758075759.60193,0.0,0.0,0.0,-74.14074,-26.47065,-7.73493,8.02,2.2,0.13,2.0
1758075759.59519,1758075759.61193,0.0,0.0,0.0,-75.97421,-34.72124,-7.21927,8.02,2.2,0.13,2.0
1758075759.61085,1758075759.62193,0.0,0.0,0.0,-77.06283,-39.24761,-7.79223,8.12,2.0,-0.02,2.0
1758075759.61291,1758075759.63193,0.0,0.0,0.0,-78.43793,-42.22699,-7.04738,8.12,2.0,-0.02,2.0
1758075759.62821,1758075759.64193,0.0,0.0,0.0,-79.12547,-21.7151,-4.23989,8.75,1.82,-0.05,2.0
1758075759.64382,1758075759.65193,0.0,0.0,0.0,-80.72976,1.77617,-5.21392,11.93,1.65,0.32,2.0
1758075759.64586,1758075759.66193,0.0,0.0,0.0,-82.90699,-0.40107,-7.33386,11.93,1.65,0.32,2.0
1758075759.66129,1758075759.67193,0.0,0.0,0.0,-81.70379,-29.50733,-9.5684,8.07,1.55,0.84,2.0
1758075759.66211,1758075759.68193,0.0,0.0,0.0,-79.64114,-49.90463,-15.92823,8.07,1.55,0.84,2.0
1758075759.67727,1758075759.69193,0.0,0.0,0.0,-78.55252,-46.46688,-20.11082,8.49,1.58,1.3,2.0
1758075759.693,1758075759.70193,0.0,0.0,0.0,-78.15145,-33.9764,-22.34536,8.49,1.58,1.3,2.0
1758075759.69502,1758075759.71193,0.0,0.0,0.0,-77.23472,-33.05967,-26.06958,12.05,1.39,1.38,2.0
1758075759.70996,1758075759.72193,0.0,0.0,0.0,-75.28666,-38.50277,-30.59595,12.64,0.03,4.66,2.0
1758075759.71145,1758075759.73193,0.0,0.0,0.0,-70.6457,-40.7373,-34.37747,12.64,0.03,4.66,2.0
1758075759.72729,1758075759.74193,0.0,0.0,0.0,-65.08801,-39.3622,-36.49741,14.77,-2.49,3.36,2.0
1758075759.74331,1758075759.75193,0.0,0.0,0.0,-56.66553,-39.64868,-33.34615,14.77,-2.49,3.36,2.0
1758075759.7445,1758075759.76193,0.0,0.0,0.0,-52.76942,-43.20102,-29.27814,11.85,-2.42,1.99,2.0
1758075759.75988,1758075759.77193,0.0,0.0,0.0,-50.2484,-44.23235,-23.89234,11.85,-2.42,1.99,2.0
1758075759.76095,1758075759.78193,0.0,0.0,0.0,-49.21708,-41.13837,-15.29797,9.52,-0.3,2.05,2.0
1758075759.77803,1758075759.79193,0.0,0.0,0.0,-50.59217,-38.61736,-9.05273,9.32,1.45,1.91,2.0
1758075759.79399,1758075759.80193,0.0,0.0,0.0,-54.48829,-37.92981,-4.58366,9.32,1.45,1.91,2.0
1758075759.79606,1758075759.81193,0.0,0.0,0.0,-59.47303,-36.6693,-1.03132,9.4,2.18,1.3,2.0
1758075759.81137,1758075759.82193,0.0,0.0,0.0,-68.86953,-30.99702,0.85944,9.4,2.18,1.3,2.0
1758075759.81229,1758075759.83193,0.0,0.0,0.0,-74.771,-24.92367,-0.0573,10.1,1.84,0.64,2.0
1758075759.8273,1758075759.84193,0.0,0.0,0.0,-79.98491,-17.18874,-2.57831,10.1,1.84,0.64,2.0
1758075759.84414,1758075759.85193,0.0,0.0,0.0,-83.82372,-9.11003,-6.24524,10.49,0.67,0.37,2.0
1758075759.84587,1758075759.86193,0.0,0.0,0.0,-87.08958,4.52637,-12.54778,10.8,0.67,0.09,2.0
1758075759.86107,1758075759.87193,0.0,0.0,0.0,-88.29281,14.32395,-16.84496,10.8,-0.5,0.09,2.0
1758075759.86279,1758075759.88193,0.0,0.0,0.0,-88.98035,23.26209,-20.45459,11.09,-1.03,-0.11,2.0
1758075759.87733,1758075759.89193,0.0,0.0,0.0,-88.98035,33.23156,-23.60586,11.09,-1.03,-0.11,2.0
1758075759.89385,1758075759.90193,0.0,0.0,0.0,-88.40739,44.17505,-25.61122,11.0,-0.92,-0.25,2.0
1758075759.89502,1758075759.91193,0.0,0.0,0.0,-87.77714,51.22243,-24.98096,11.0,-0.92,-0.25,2.0
1758075759.91015,1758075759.92193,0.0,0.0,0.0,-87.77714,58.55629,-23.94964,10.99,-0.71,-0.07,2.0
1758075759.91132,1758075759.93193,0.0,0.0,0.0,-87.94903,63.19725,-22.23076,10.99,-0.71,-0.07,2.0
1758075759.92742,1758075759.94193,0.0,0.0,0.0,-88.92306,65.2026,-20.3973,10.81,-0.36,0.26,2.0
1758075759.94396,1758075759.95193,0.0,0.0,0.0,-89.49601,64.74423,-18.79302,10.17,-0.02,0.49,2.0
1758075759.9459,1758075759.96193,0.0,0.0,0.0,-90.52733,63.42643,-17.58981,10.17,-0.02,0.49,2.0
1758075759.96141,1758075759.97193,0.0,0.0,0.0,-91.44406,60.96271,-16.38659,9.65,0.11,0.44,2.0
1758075759.96231,1758075759.98193,0.0,0.0,0.0,-92.64729,55.97798,-15.29797,9.65,0.11,0.44,2.0
1758075759.97743,1758075759.99193,0.0,0.0,0.0,-92.70457,51.6235,-15.46986,9.15,0.0,0.42,2.0
1758075759.99741,1758075760.00193,0.0,0.0,0.0,-92.3035,46.52417,-16.3293,9.15,0.0,0.42,2.0
1758075759.99831,1758075760.01193,0.0,0.0,0.0,-90.24085,38.44547,-17.81899,8.77,-0.23,0.46,2.0
1758075760.01722,1758075760.02193,0.0,0.0,0.0,-88.06361,32.37212,-18.79302,8.43,-0.56,0.44,2.0
1758075760.0183,1758075760.03193,0.0,0.0,0.0,-85.42801,26.41335,-19.82434,8.43,-0.56,0.44,2.0
1758075760.03404,1758075760.04193,0.0,0.0,0.0,-82.56322,21.94428,-20.3973,8.41,-0.9,0.4,2.0
1758075760.03839,1758075760.05193,0.0,0.0,0.0,-77.80767,16.04282,-20.68378,8.41,-0.9,0.4,2.0
1758075760.05395,1758075760.06193,0.0,0.0,0.0,-74.65641,14.15206,-20.34,8.49,-1.12,0.12,2.0
1758075760.05712,1758075760.07193,0.0,0.0,0.0,-72.07809,14.9542,-20.11082,8.49,-1.12,0.12,2.0
1758075760.07249,1758075760.08193,0.0,0.0,0.0,-69.78626,16.95955,-19.70975,8.83,-1.23,-0.1,2.0
1758075760.07499,1758075760.09193,0.0,0.0,0.0,-66.92148,16.21471,-19.59516,8.66,-1.03,-0.17,2.0
1758075760.09232,1758075760.10193,0.0,0.0,0.0,-64.74423,12.08941,-19.76705,8.66,-1.03,-0.17,2.0
1758075760.09343,1758075760.11193,0.0,0.0,0.0,-62.28051,7.16197,-20.11082,8.29,-0.78,-0.34,2.0
1758075760.10998,1758075760.12193,0.0,0.0,0.0,-59.24384,2.92208,-20.45459,8.29,-0.78,-0.34,2.0
1758075760.1122,1758075760.13193,0.0,0.0,0.0,-53.80074,-4.92744,-19.88164,8.41,-0.7,-0.54,2.0
1758075760.12747,1758075760.14193,0.0,0.0,0.0,-49.50356,-10.54242,-19.07949,8.41,-0.7,-0.54,2.0
1758075760.14437,1758075760.15193,0.0,0.0,0.0,-45.03448,-16.3293,-18.10547,8.27,-0.87,-0.64,2.0
1758075760.14684,1758075760.16193,0.0,0.0,0.0,-40.68,-21.31403,-17.47521,8.27,-0.87,-0.64,2.0
1758075760.1623,1758075760.17193,0.0,0.0,0.0,-37.52874,-25.55392,-18.9649,8.5,-1.01,-0.6,2.0
1758075760.16384,1758075760.18193,0.0,0.0,0.0,-37.18496,-36.61201,-20.22541,8.21,-0.83,0.28,2.0
1758075760.17822,1758075760.19193,0.0,0.0,0.0,-38.56006,-48.12846,-22.28806,8.21,-0.83,0.28,2.0
1758075760.19495,1758075760.20193,0.0,0.0,0.0,-43.54479,-60.27517,-25.21014,8.38,-0.25,2.63,2.0
1758075760.19779,1758075760.21193,0.0,0.0,0.0,-45.60744,-79.46925,-24.4653,8.38,-0.25,2.63,2.0
1758075760.21334,1758075760.22193,0.0,0.0,0.0,-48.24305,-92.99106,-19.42327,10.05,-0.08,5.98,2.0
1758075760.21453,1758075760.23193,0.0,0.0,0.0,-52.54023,-98.09039,-4.98473,10.05,-0.08,5.98,2.0
1758075760.22957,1758075760.24193,0.0,0.0,0.0,-60.27517,-71.44785,11.34457,15.94,1.77,7.55,2.0
1758075760.23162,1758075760.25193,0.0,0.0,0.0,-61.87944,-81.5892,13.69369,14.89,3.04,1.81,2.0
1758075760.24735,1758075760.26193,0.0,0.0,0.0,-61.07731,-109.32036,12.77696,14.89,3.04,1.81,2.0
1758075760.26339,1758075760.27193,0.0,0.0,0.0,-60.50434,-119.69088,9.68299,8.83,1.3,1.35,2.0
1758075760.26615,1758075760.28193,0.0,0.0,0.0,-60.67623,-93.39213,2.11994,8.83,1.3,1.35,2.0
1758075760.28172,1758075760.29193,0.0,0.0,0.0,-59.53032,-82.96429,-3.03668,13.35,-1.18,1.42,2.0
1758075760.28259,1758075760.30193,0.0,0.0,0.0,-57.86874,-80.44328,-5.78687,13.35,-1.18,1.42,2.0
1758075760.29734,1758075760.31193,0.0,0.0,0.0,-56.14987,-72.42187,-6.35983,12.98,-1.6,2.49,2.0
1758075760.31322,1758075760.32193,0.0,0.0,0.0,-51.50891,-57.75415,-3.60963,13.09,-0.69,1.98,2.0
1758075760.31535,1758075760.33193,0.0,0.0,0.0,-47.67009,-53.39967,-1.03132,13.09,-0.69,1.98,2.0
1758075760.33147,1758075760.34193,0.0,0.0,0.0,-43.60209,-49.38896,1.03132,10.39,0.31,1.32,2.0
1758075760.33233,1758075760.35193,0.0,0.0,0.0,-39.3622,-43.65939,2.11994,10.39,0.31,1.32,2.0
1758075760.34741,1758075760.36193,0.0,0.0,0.0,-33.11696,-31.11161,1.14592,9.65,0.91,1.34,2.0
1758075760.36337,1758075760.37193,0.0,0.0,0.0,-29.10626,-21.42862,-0.40107,9.65,0.91,1.34,2.0
1758075760.36458,1758075760.38193,0.0,0.0,0.0,-25.89769,-10.31324,-1.71887,9.61,1.1,0.78,2.0
1758075760.37936,1758075760.39193,0.0,0.0,0.0,-23.54857,0.51566,-3.20856,9.61,1.1,0.78,2.0
1758075760.39729,1758075760.40193,0.0,0.0,0.0,-21.7724,15.75634,-4.58366,9.66,0.95,0.54,2.0
1758075760.39851,1758075760.41193,0.0,0.0,0.0,-21.94428,25.72581,-4.18259,9.98,0.89,0.55,2.0
1758075760.41657,1758075760.42193,0.0,0.0,0.0,-23.54857,37.18496,-3.60963,9.98,0.89,0.55,2.0
1758075760.41778,1758075760.43193,0.0,0.0,0.0,-27.44468,50.93595,-2.92208,10.46,1.17,0.38,2.0
1758075760.4349,1758075760.44193,0.0,0.0,0.0,-30.65324,54.94666,-2.57831,10.46,1.17,0.38,2.0
1758075760.43858,1758075760.45193,0.0,0.0,0.0,-33.05967,53.91533,-2.00535,9.68,1.64,0.14,2.0
1758075760.45466,1758075760.46193,0.0,0.0,0.0,-34.77854,51.45161,-2.00535,9.68,1.64,0.14,2.0
1758075760.45646,1758075760.47193,0.0,0.0,0.0,-36.38282,48.9306,-1.77617,9.38,1.86,0.28,2.0
1758075760.47176,1758075760.48193,0.0,0.0,0.0,-36.95578,45.03448,-2.29183,9.56,1.79,0.5,2.0
1758075760.47266,1758075760.49193,0.0,0.0,0.0,-37.92981,39.01843,-2.23454,9.56,1.79,0.5,2.0
1758075760.4877,1758075760.50193,0.0,0.0,0.0,-38.61736,35.3515,-2.06265,9.46,1.53,0.77,2.0
1758075760.50375,1758075760.51193,0.0,0.0,0.0,-40.33623,30.13758,-1.60428,9.46,1.53,0.77,2.0
1758075760.50491,1758075760.52193,0.0,0.0,0.0,-41.99781,24.17882,-1.48969,9.34,1.33,0.83,2.0
1758075760.51972,1758075760.53193,0.0,0.0,0.0,-44.63341,15.29797,-1.60428,9.34,1.33,0.83,2.0
1758075760.53581,1758075760.54193,0.0,0.0,0.0,-47.38361,10.19865,-1.71887,8.49,1.39,0.74,2.0
1758075760.53667,1758075760.55193,0.0,0.0,0.0,-50.53488,2.6929,-2.7502,8.45,1.58,0.67,2.0
1758075760.55154,1758075760.56193,0.0,0.0,0.0,-51.85268,-3.09397,-3.09397,8.45,1.58,0.67,2.0
1758075760.55269,1758075760.57193,0.0,0.0,0.0,-52.76942,-7.84952,-3.03668,8.34,1.6,0.66,2.0
1758075760.56778,1758075760.58193,0.0,0.0,0.0,-53.17049,-10.54242,-2.46372,8.34,1.6,0.66,2.0
1758075760.58364,1758075760.59193,0.0,0.0,0.0,-53.17049,-9.28192,-2.29183,9.06,1.45,0.67,2.0
1758075760.58704,1758075760.60193,0.0,0.0,0.0,-52.54023,-7.10468,-1.77617,9.06,1.45,0.67,2.0
1758075760.60255,1758075760.61193,0.0,0.0,0.0,-51.45161,-4.87014,-1.08862,9.74,1.19,0.55,2.0
1758075760.60609,1758075760.62193,0.0,0.0,0.0,-49.21708,-1.77617,-0.22918,9.74,1.19,0.55,2.0
1758075760.62181,1758075760.63193,0.0,0.0,0.0,-47.61279,0.80214,0.17189,10.12,0.87,0.46,2.0
1758075760.62308,1758075760.64193,0.0,0.0,0.0,-46.06581,1.08862,1.03132,10.18,0.68,0.38,2.0
1758075760.6378,1758075760.65193,0.0,0.0,0.0,-44.86259,1.08862,2.00535,10.18,0.68,0.38,2.0
1758075760.65555,1758075760.66193,0.0,0.0,0.0,-44.46153,2.97938,2.46372,10.34,0.79,0.43,2.0
1758075760.65681,1758075760.67193,0.0,0.0,0.0,-45.26366,4.58366,1.77617,10.34,0.79,0.43,2.0
1758075760.6718,1758075760.68193,0.0,0.0,0.0,-46.86795,5.95876,0.74485,10.37,1.26,0.47,2.0
1758075760.67598,1758075760.69193,0.0,0.0,0.0,-49.56085,6.99009,-0.85944,10.37,1.26,0.47,2.0
1758075760.69157,1758075760.70193,0.0,0.0,0.0,-54.3737,7.10468,-3.60963,10.01,1.87,0.5,2.0
1758075760.69278,1758075760.71193,0.0,0.0,0.0,-57.81144,4.98473,-5.27121,9.35,2.36,0.32,2.0
1758075760.70748,1758075760.72193,0.0,0.0,0.0,-61.07731,-1.43239,-6.87549,9.35,2.36,0.32,2.0
1758075760.72465,1758075760.73193,0.0,0.0,0.0,-64.22858,-11.74564,-7.79223,8.18,2.64,0.22,2.0
1758075760.72583,1758075760.74193,0.0,0.0,0.0,-67.78091,-25.89769,-6.24524,8.18,2.64,0.22,2.0
1758075760.74091,1758075760.75193,0.0,0.0,0.0,-70.93218,-29.10626,-4.87014,8.17,2.52,0.13,2.0
1758075760.7426,1758075760.76193,0.0,0.0,0.0,-73.2813,-29.73651,-2.63561,8.17,2.52,0.13,2.0
1758075760.78198,1758075760.77193,0.0,0.0,0.0,-75.68773,-31.97105,-0.11459,8.54,2.4,-0.11,2.0
1758075760.78399,1758075760.78193,0.0,0.0,0.0,-80.78706,-17.24603,6.13065,9.7,2.37,-0.07,2.0
1758075760.78644,1758075760.79193,0.0,0.0,0.0,-84.74047,16.55848,5.21392,9.7,2.37,-0.07,2.0
1758075760.78742,1758075760.80193,0.0,0.0,0.0,-85.42801,17.13144,6.7609,10.64,2.54,0.19,2.0
1758075760.80268,1758075760.81193,0.0,0.0,0.0,-89.6679,-9.39651,2.40642,10.64,2.54,0.19,2.0
1758075760.80417,1758075760.82193,0.0,0.0,0.0,-93.96508,-49.96192,-4.81285,6.51,2.92,1.47,2.0
1758075760.8187,1758075760.83193,0.0,0.0,0.0,-97.05905,-60.04598,-11.34457,6.51,2.92,1.47,2.0
1758075760.83466,1758075760.84193,0.0,0.0,0.0,-98.77792,-59.35843,-16.95955,10.71,2.54,2.55,2.0
1758075760.83592,1758075760.85193,0.0,0.0,0.0,-96.5434,-48.9306,-24.86637,10.71,2.54,2.55,2.0
1758075760.85097,1758075760.86193,0.0,0.0,0.0,-91.38677,-36.32552,-28.01764,14.82,-0.13,2.73,2.0
1758075760.85293,1758075760.87193,0.0,0.0,0.0,-84.11021,-24.23611,-28.93437,16.23,-3.08,2.14,2.0
1758075760.86799,1758075760.88193,0.0,0.0,0.0,-77.17742,-18.33465,-27.38738,16.23,-3.08,2.14,2.0
1758075760.884,1758075760.89193,0.0,0.0,0.0,-70.41652,-15.87093,-20.51189,11.9,-2.68,1.0,2.0
1758075760.88527,1758075760.90193,0.0,0.0,0.0,-67.78091,-12.89155,-13.5218,11.9,-2.68,1.0,2.0
1758075760.89975,1758075760.91193,0.0,0.0,0.0,-66.74959,-10.54242,-6.18794,8.9,-0.5,1.08,2.0
1758075760.91593,1758075760.92193,0.0,0.0,0.0,-67.26525,-9.22462,0.17189,8.9,-0.5,1.08,2.0
1758075760.91692,1758075760.93193,0.0,0.0,0.0,-69.84356,-6.35983,8.30789,8.38,1.14,1.45,2.0
1758075760.93201,1758075760.94193,0.0,0.0,0.0,-72.65105,-3.60963,11.45916,9.52,1.85,1.51,2.0
1758075760.93296,1758075760.95193,0.0,0.0,0.0,-76.26069,0.11459,12.08941,9.52,1.85,1.51,2.0
1758075760.94802,1758075760.96193,0.0,0.0,0.0,-80.0995,3.60963,10.8862,10.87,1.68,1.06,2.0
1758075760.96405,1758075760.97193,0.0,0.0,0.0,-87.0323,7.44845,6.24524,10.87,1.68,1.06,2.0
1758075760.96497,1758075760.98193,0.0,0.0,0.0,-92.3035,8.47978,1.77617,11.01,1.26,1.01,2.0
1758075760.98012,1758075760.99193,0.0,0.0,0.0,-97.46013,10.31324,-2.57831,11.01,1.26,1.01,2.0
1758075760.99575,1758075761.00193,0.0,0.0,0.0,-102.84592,11.80293,-6.18794,10.63,0.88,0.8,2.0
1758075760.99691,1758075761.01193,0.0,0.0,0.0,-109.83601,14.09476,-9.85487,10.25,0.46,0.69,2.0
1758075761.0121,1758075761.02193,0.0,0.0,0.0,-113.21647,15.69904,-10.48513,10.25,0.46,0.69,2.0
1758075761.01542,1758075761.03193,0.0,0.0,0.0,-115.68018,17.24603,-10.37054,10.11,0.06,0.51,2.0
1758075761.03186,1758075761.04193,0.0,0.0,0.0,-117.39906,20.11082,-8.36518,10.11,0.06,0.51,2.0
1758075761.03279,1758075761.05193,0.0,0.0,0.0,-117.74284,24.63719,-7.04738,10.32,-0.3,0.41,2.0
1758075761.04806,1758075761.06193,0.0,0.0,0.0,-117.39906,26.12688,-5.78687,10.32,-0.3,0.41,2.0
1758075761.06509,1758075761.07193,0.0,0.0,0.0,-116.48232,26.01229,-4.98473,10.26,-0.73,0.13,2.0
1758075761.06684,1758075761.08193,0.0,0.0,0.0,-114.24779,25.89769,-5.09932,10.26,-0.73,0.13,2.0
1758075761.08199,1758075761.09193,0.0,0.0,0.0,-112.18513,26.98631,-6.24524,9.97,-1.27,-0.13,2.0
1758075761.08385,1758075761.10193,0.0,0.0,0.0,-109.83601,27.61657,-8.136,9.66,-1.91,-0.29,2.0
1758075761.09994,1758075761.11193,0.0,0.0,0.0,-106.97123,27.78845,-10.8289,9.66,-1.91,-0.29,2.0
1758075761.11602,1758075761.12193,0.0,0.0,0.0,-101.52813,27.33009,-15.29797,9.17,-2.44,-0.08,2.0
1758075761.1171,1758075761.13193,0.0,0.0,0.0,-97.40282,27.50197,-17.6471,9.17,-2.44,-0.08,2.0
1758075761.13212,1758075761.14193,0.0,0.0,0.0,-93.6786,29.73651,-19.25138,9.35,-2.5,0.12,2.0
1758075761.13389,1758075761.15193,0.0,0.0,0.0,-90.12627,31.45539,-20.51189,9.35,-2.5,0.12,2.0
1758075761.14955,1758075761.16193,0.0,0.0,0.0,-85.54259,32.77319,-21.94428,9.7,-1.81,0.47,2.0
1758075761.16624,1758075761.17193,0.0,0.0,0.0,-82.67782,31.91375,-23.20479,9.48,-0.8,0.61,2.0
1758075761.16738,1758075761.18193,0.0,0.0,0.0,-80.0995,29.10626,-24.35071,9.48,-0.8,0.61,2.0
1758075761.18225,1758075761.19193,0.0,0.0,0.0,-77.63579,25.15285,-25.8404,9.18,-0.43,0.68,2.0
1758075761.18421,1758075761.20193,0.0,0.0,0.0,-73.91156,19.88164,-27.67386,9.18,-0.43,0.68,2.0
1758075761.19968,1758075761.21193,0.0,0.0,0.0,-71.79161,16.84496,-28.41871,9.28,-0.76,0.65,2.0
1758075761.21596,1758075761.22193,0.0,0.0,0.0,-69.90086,14.38124,-28.87707,9.28,-0.76,0.65,2.0
1758075761.2183,1758075761.23193,0.0,0.0,0.0,-67.55173,11.34457,-28.41871,9.25,-1.26,0.7,2.0
1758075761.23326,1758075761.24193,0.0,0.0,0.0,-63.65561,12.37589,-28.24682,9.29,-1.64,0.64,2.0
1758075761.2397,1758075761.25193,0.0,0.0,0.0,-61.53567,15.06879,-27.84575,9.29,-1.64,0.64,2.0
1758075761.25493,1758075761.26193,0.0,0.0,0.0,-59.24384,17.24603,-27.67386,9.43,-1.65,0.74,2.0
1758075761.25614,1758075761.27193,0.0,0.0,0.0,-56.14987,14.9542,-28.13223,9.43,-1.65,0.74,2.0
1758075761.2718,1758075761.28193,0.0,0.0,0.0,-54.08722,13.23533,-28.87707,8.98,-1.3,0.9,2.0
1758075761.27294,1758075761.29193,0.0,0.0,0.0,-52.13916,11.97482,-29.56462,8.98,-1.3,0.9,2.0
1758075761.29204,1758075761.30193,0.0,0.0,0.0,-50.1911,9.68299,-30.13758,9.06,-0.94,0.9,2.0
1758075761.2958,1758075761.31193,0.0,0.0,0.0,-47.78468,4.23989,-31.16891,9.06,-0.94,1.49,2.0
1758075761.31215,1758075761.32193,0.0,0.0,0.0,-46.1231,-0.17189,-31.56997,9.09,-0.69,1.49,2.0
1758075761.31296,1758075761.33193,0.0,0.0,0.0,-43.60209,-7.21927,-30.99702,9.46,-0.26,2.62,2.0
1758075761.33225,1758075761.34193,0.0,0.0,0.0,-41.25296,-16.272,-29.50733,9.46,-0.26,2.62,2.0
1758075761.33318,1758075761.35193,0.0,0.0,0.0,-36.61201,-30.02299,-24.29341,9.6,0.2,2.77,2.0
1758075761.348,1758075761.36193,0.0,0.0,0.0,-34.60666,-40.33623,-20.51189,9.6,0.2,2.77,2.0
1758075761.35235,1758075761.37193,0.0,0.0,0.0,-32.08564,-48.01387,-15.98552,10.15,0.77,2.84,2.0
1758075761.37004,1758075761.38193,0.0,0.0,0.0,-30.99702,-52.19646,-12.54778,10.15,0.77,2.84,2.0
1758075761.386,1758075761.39193,0.0,0.0,0.0,-32.6013,-58.78547,-6.7609,11.37,1.03,2.41,2.0
1758075761.38723,1758075761.40193,0.0,0.0,0.0,-34.77854,-59.53032,-2.86479,12.18,0.86,2.49,2.0
1758075761.40205,1758075761.41193,0.0,0.0,0.0,-37.58603,-56.49364,0.97403,12.18,0.86,2.49,2.0
1758075761.4033,1758075761.42193,0.0,0.0,0.0,-40.85189,-47.72739,2.29183,11.86,0.67,1.79,2.0
1758075761.42155,1758075761.43193,0.0,0.0,0.0,-45.09178,-35.98175,1.60428,11.86,0.67,1.79,2.0
1758075761.42273,1758075761.44193,0.0,0.0,0.0,-47.32632,-29.56462,-0.74485,9.92,0.53,1.15,2.0
1758075761.44067,1758075761.45193,0.0,0.0,0.0,-49.67545,-23.0902,-5.09932,9.92,0.53,1.15,2.0
1758075761.45622,1758075761.46193,0.0,0.0,0.0,-50.13381,-17.58981,-10.48513,8.66,0.59,1.08,2.0
1758075761.46164,1758075761.47193,0.0,0.0,0.0,-45.49285,-25.26744,-15.06879,7.68,0.65,0.93,2.0
1758075761.47633,1758075761.48193,0.0,0.0,0.0,-39.19032,-56.78012,-13.46451,7.68,0.65,0.93,2.0
1758075761.4773,1758075761.49193,0.0,0.0,0.0,-34.49206,-81.5892,-14.20935,6.03,0.4,1.25,2.0
1758075761.49239,1758075761.50193,0.0,0.0,0.0,-27.61657,-35.2942,-13.00614,6.03,0.4,1.25,2.0
1758075761.4941,1758075761.51193,0.0,0.0,0.0,-22.23076,-7.39116,-12.49048,14.79,-0.15,0.17,2.0
1758075761.53733,1758075761.52193,0.0,0.0,0.0,-14.83961,4.81285,-8.25059,14.79,-0.15,0.17,2.0
1758075761.54225,1758075761.53193,0.0,0.0,0.0,-9.11003,7.79223,-2.40642,12.53,-0.05,0.86,2.0
1758075761.54603,1758075761.54193,0.0,0.0,0.0,-5.15662,21.25674,2.00535,11.62,0.15,0.69,2.0
1758075761.54726,1758075761.55193,0.0,0.0,0.0,-4.35448,26.41335,3.32316,11.62,0.15,0.69,2.0
1758075761.54896,1758075761.56193,0.0,0.0,0.0,-3.72423,27.44468,4.1253,10.62,0.73,0.08,2.0
1758075761.55713,1758075761.57193,0.0,0.0,0.0,-3.49504,26.81443,4.98473,10.62,0.73,0.08,2.0
1758075761.57244,1758075761.58193,0.0,0.0,0.0,-3.72423,29.10626,4.98473,10.35,1.21,0.84,2.0
1758075761.57739,1758075761.59193,0.0,0.0,0.0,-3.60963,29.27814,4.81285,10.35,1.21,0.84,2.0
1758075761.59248,1758075761.60193,0.0,0.0,0.0,-3.49504,29.8511,4.18259,10.12,1.61,0.82,2.0
1758075761.59682,1758075761.61193,0.0,0.0,0.0,-3.20856,29.33544,3.66693,10.12,1.61,0.82,2.0
1758075761.61216,1758075761.62193,0.0,0.0,0.0,-2.63561,26.81443,3.55234,9.67,1.84,1.16,2.0
1758075761.61656,1758075761.63193,0.0,0.0,0.0,-3.20856,26.75713,2.86479,9.3,1.87,1.23,2.0
1758075761.63247,1758075761.64193,0.0,0.0,0.0,-3.38045,26.75713,3.09397,9.3,1.87,1.23,2.0
1758075761.63662,1758075761.65193,0.0,0.0,0.0,-4.0107,24.4653,3.20856,9.01,1.75,1.02,2.0
1758075761.65257,1758075761.66193,0.0,0.0,0.0,-5.15662,17.76169,3.72423,9.01,1.75,1.02,2.0
1758075761.6542,1758075761.67193,0.0,0.0,0.0,-6.47442,13.12073,4.23989,8.48,1.62,1.05,2.0
1758075761.67189,1758075761.68193,0.0,0.0,0.0,-8.0787,9.05273,4.29718,8.48,1.62,1.05,2.0
1758075761.6763,1758075761.69193,0.0,0.0,0.0,-9.85487,5.61499,4.69825,8.49,1.73,0.71,2.0
1758075761.69249,1758075761.70193,0.0,0.0,0.0,-10.71431,2.46372,4.87014,8.81,1.91,0.84,2.0
1758075761.69505,1758075761.71193,0.0,0.0,0.0,-11.97482,1.77617,4.64096,8.81,1.91,0.84,2.0
1758075761.71253,1758075761.72193,0.0,0.0,0.0,-12.60507,3.60963,4.98473,9.32,1.92,0.65,2.0
1758075761.7177,1758075761.73193,0.0,0.0,0.0,-12.77696,6.47442,5.50039,9.32,1.92,0.65,2.0
1758075761.73252,1758075761.74193,0.0,0.0,0.0,-11.97482,7.67763,6.53172,9.52,1.67,0.63,2.0
1758075761.73777,1758075761.75193,0.0,0.0,0.0,-10.94349,9.11003,7.62034,9.52,1.67,0.63,2.0
1758075761.75214,1758075761.76193,0.0,0.0,0.0,-9.5684,8.99544,8.70896,9.45,1.24,0.58,2.0
1758075761.75734,1758075761.77193,0.0,0.0,0.0,-7.16197,5.90147,11.22997,9.08,0.89,0.51,2.0
1758075761.77252,1758075761.78193,0.0,0.0,0.0,-5.90147,2.57831,12.71966,9.08,0.89,0.51,2.0
1758075761.77536,1758075761.79193,0.0,0.0,0.0,-4.87014,-3.66693,15.24068,8.8,0.83,0.72,2.0
1758075761.79188,1758075761.80193,0.0,0.0,0.0,-5.21392,-13.34992,17.30333,8.8,0.83,0.72,2.0
1758075761.79737,1758075761.81193,0.0,0.0,0.0,-8.59437,-27.10091,17.18874,8.47,1.22,1.34,2.0
1758075761.81229,1758075761.82193,0.0,0.0,0.0,-11.51645,-29.04896,14.78231,8.47,1.22,1.34,2.0
1758075761.81507,1758075761.83193,0.0,0.0,0.0,-13.34992,-28.70519,12.14671,10.08,1.43,1.29,2.0
1758075761.83113,1758075761.84193,0.0,0.0,0.0,-13.40721,-32.08564,9.05273,10.08,1.43,1.29,2.0
1758075761.83229,1758075761.85193,0.0,0.0,0.0,-12.08941,-41.65404,3.20856,10.74,1.31,1.95,2.0
1758075761.84752,1758075761.86193,0.0,0.0,0.0,-10.08406,-49.67545,0.22918,10.66,0.76,1.92,2.0
1758075761.85232,1758075761.87193,0.0,0.0,0.0,-8.136,-57.75415,-3.72423,10.66,0.76,1.92,2.0
1758075761.8676,1758075761.88193,0.0,0.0,0.0,-4.87014,-59.70221,-7.16197,10.71,0.24,1.49,2.0
1758075761.87248,1758075761.89193,0.0,0.0,0.0,-3.55234,-56.55093,-8.36518,10.71,0.24,1.49,2.0
1758075761.89539,1758075761.90193,0.0,0.0,0.0,-1.94806,-49.33167,-5.55769,11.17,0.02,1.35,2.0
1758075761.89669,1758075761.91193,0.0,0.0,0.0,-3.20856,-54.14451,-4.81285,11.17,0.02,1.35,2.0
1758075761.94272,1758075761.92193,0.0,0.0,0.0,-6.99009,-41.42485,-3.38045,10.08,0.49,1.26,2.0
1758075761.95399,1758075761.93193,0.0,0.0,0.0,-10.02676,-30.02299,-2.97938,11.14,0.82,0.9,2.0
1758075761.9554,1758075761.94193,0.0,0.0,0.0,-12.2613,-24.92367,-3.09397,11.14,0.82,0.9,2.0
1758075762.06653,1758075761.95193,0.0,0.0,0.0,-14.38124,-21.31403,-3.32316,9.87,1.27,1.39,2.0
1758075762.06715,1758075761.96193,0.0,0.0,0.0,-16.67307,-15.06879,-4.46907,9.87,1.27,1.39,2.0
1758075762.0716,1758075761.97193,0.0,0.0,0.0,-18.62113,-6.58902,-4.64096,9.78,1.12,1.21,2.0
1758075762.07218,1758075761.98193,0.0,0.0,0.0,-20.34,2.6929,-4.92744,9.78,1.12,1.21,2.0
1758075762.07381,1758075761.99193,0.0,0.0,0.0,-21.94428,9.74028,-4.81285,10.26,0.78,1.11,2.0
1758075762.07719,1758075762.00193,0.0,0.0,0.0,-24.12152,14.61043,-4.58366,10.02,0.55,1.26,2.0
1758075762.08168,1758075762.01193,0.0,0.0,0.0,-25.21014,11.74564,-4.81285,10.02,0.55,1.26,2.0
1758075762.08228,1758075762.02193,0.0,0.0,0.0,-26.01229,5.27121,-5.15662,9.4,0.38,1.18,2.0
1758075762.083,1758075762.03193,0.0,0.0,0.0,-26.75713,-1.66158,-5.50039,9.4,0.38,1.18,2.0
1758075762.08431,1758075762.04193,0.0,0.0,0.0,-28.30412,-8.88085,-5.61499,9.66,0.16,1.24,2.0
1758075762.08691,1758075762.05193,0.0,0.0,0.0,-29.73651,-11.63104,-5.09932,9.66,0.16,1.24,2.0
1758075762.08804,1758075762.06193,0.0,0.0,0.0,-31.28349,-13.75099,-4.23989,10.24,0.07,1.22,2.0
1758075762.08845,1758075762.07193,0.0,0.0,0.0,-33.00237,-15.12609,-2.63561,10.24,0.07,1.22,2.0
1758075762.09218,1758075762.08193,0.0,0.0,0.0,-33.51803,-15.24068,-1.43239,10.33,0.0,1.09,2.0
1758075762.0925,1758075762.09193,0.0,0.0,0.0,-33.51803,-13.34992,-0.51566,10.29,-0.06,0.84,2.0
1758075762.10022,1758075762.10193,0.0,0.0,0.0,-33.46074,-9.11003,0.34377,10.29,-0.06,0.84,2.0
1758075762.10156,1758075762.11193,0.0,0.0,0.0,-32.6013,-2.40642,1.03132,10.39,-0.03,0.72,2.0
1758075762.10282,1758075762.12193,0.0,0.0,0.0,-31.85646,-0.17189,0.97403,10.39,-0.03,0.72,2.0
1758075762.12164,1758075762.13193,0.0,0.0,0.0,-30.93972,1.71887,0.80214,10.04,0.09,0.56,2.0
1758075762.12285,1758075762.14193,0.0,0.0,0.0,-30.48136,2.86479,0.17189,10.04,0.09,0.56,2.0
1758075762.14037,1758075762.15193,0.0,0.0,0.0,-30.48136,2.86479,-0.51566,9.98,0.22,0.36,2.0
1758075762.14209,1758075762.16193,0.0,0.0,0.0,-30.88243,2.46372,-1.3178,10.02,0.34,0.31,2.0
1758075762.15945,1758075762.17193,0.0,0.0,0.0,-31.51268,1.83346,-1.60428,10.02,0.34,0.31,2.0
1758075762.16226,1758075762.18193,0.0,0.0,0.0,-32.48671,0.22918,-1.83346,10.06,0.41,0.39,2.0
1758075762.18039,1758075762.19193,0.0,0.0,0.0,-33.86181,-2.46372,-2.06265,10.06,0.41,0.39,2.0
1758075762.1868,1758075762.20193,0.0,0.0,0.0,-34.72124,-3.32316,-2.00535,9.99,0.41,0.51,2.0
1758075762.20282,1758075762.21193,0.0,0.0,0.0,-35.58068,-4.29718,-1.94806,9.99,0.41,0.51,2.0
1758075762.20714,1758075762.22193,0.0,0.0,0.0,-35.98175,-4.29718,-1.83346,10.09,0.34,0.6,2.0
1758075762.22252,1758075762.23193,0.0,0.0,0.0,-36.15364,-2.92208,-2.00535,10.25,0.26,0.74,2.0
1758075762.22449,1758075762.24193,0.0,0.0,0.0,-35.52338,-2.11994,-1.71887,10.25,0.26,0.74,2.0
1758075762.24279,1758075762.25193,0.0,0.0,0.0,-35.06502,-0.51566,-2.06265,10.22,0.18,0.83,2.0
1758075762.24457,1758075762.26193,0.0,0.0,0.0,-33.80451,1.3751,-2.40642,10.22,0.18,0.83,2.0
1758075762.26141,1758075762.27193,0.0,0.0,0.0,-31.62727,3.20856,-2.86479,10.12,0.07,0.81,2.0
1758075762.26725,1758075762.28193,0.0,0.0,0.0,-30.19488,2.63561,-3.09397,10.12,0.07,0.81,2.0
1758075762.28254,1758075762.29193,0.0,0.0,0.0,-28.476,1.20321,-3.55234,9.76,-0.02,0.8,2.0
1758075762.28453,1758075762.30193,0.0,0.0,0.0,-26.64254,-0.11459,-3.89611,9.76,-0.02,0.8,2.0
1758075762.3012,1758075762.31193,0.0,0.0,0.0,-25.43933,-0.85944,-3.83882,9.83,-0.04,0.79,2.0
1758075762.3027,1758075762.32193,0.0,0.0,0.0,-24.57989,-1.3751,-3.60963,10.04,0.04,0.77,2.0
1758075762.33176,1758075762.33193,0.0,0.0,0.0,-23.66316,-1.77617,-3.20856,10.04,0.04,0.77,2.0
1758075762.3345,1758075762.34193,0.0,0.0,0.0,-23.20479,0.0,-2.63561,10.22,0.21,0.69,2.0
1758075762.33677,1758075762.35193,0.0,0.0,0.0,-23.0329,1.3178,-2.29183,10.22,0.21,0.69,2.0
1758075762.35502,1758075762.36193,0.0,0.0,0.0,-23.26209,1.77617,-1.94806,10.32,0.39,0.69,2.0
1758075762.36327,1758075762.37193,0.0,0.0,0.0,-23.20479,1.43239,-2.00535,10.32,0.39,0.69,2.0
1758075762.36432,1758075762.38193,0.0,0.0,0.0,-22.34536,0.17189,-2.00535,10.06,0.45,0.68,2.0
1758075762.38265,1758075762.39193,0.0,0.0,0.0,-21.25674,0.40107,-1.94806,9.99,0.31,0.64,2.0
1758075762.39205,1758075762.40193,0.0,0.0,0.0,-20.05352,1.60428,-1.83346,9.99,0.31,0.64,2.0
1758075762.39399,1758075762.41193,0.0,0.0,0.0,-18.56383,2.86479,-2.00535,10.13,0.14,0.68,2.0
1758075762.42088,1758075762.42193,0.0,0.0,0.0,-15.98552,5.21392,-2.11994,10.13,0.14,0.68,2.0
1758075762.44594,1758075762.43193,0.0,0.0,0.0,-13.86558,6.41713,-2.23454,10.13,0.03,0.79,2.0
1758075762.49632,1758075762.44193,0.0,0.0,0.0,-11.74564,7.62034,-2.11994,10.13,0.03,0.79,2.0
1758075762.5275,1758075762.45193,0.0,0.0,0.0,-9.4538,8.0787,-1.83346,10.01,-0.02,0.84,2.0
1758075762.53224,1758075762.46193,0.0,0.0,0.0,-6.24524,8.99544,-1.66158,9.92,-0.02,0.9,2.0
1758075762.54051,1758075762.47193,0.0,0.0,0.0,-4.23989,9.28192,-1.43239,9.92,-0.02,0.9,2.0
1758075762.58218,1758075762.48193,0.0,0.0,0.0,-2.40642,9.33921,-1.08862,9.86,0.01,0.91,2.0
1758075762.5872,1758075762.49193,0.0,0.0,0.0,-0.0573,9.62569,-0.80214,9.86,0.01,0.91,2.0
1758075762.58789,1758075762.50193,0.0,0.0,0.0,1.66158,8.99544,-0.34377,9.88,0.08,0.99,2.0
1758075762.59236,1758075762.51193,0.0,0.0,0.0,2.86479,9.05273,-0.11459,9.88,0.08,0.99,2.0
1758075762.59292,1758075762.52193,0.0,0.0,0.0,4.0107,9.28192,0.0573,9.98,0.17,0.97,2.0
1758075762.59789,1758075762.53193,0.0,0.0,0.0,5.4431,9.33921,0.22918,9.98,0.17,0.97,2.0
1758075762.60195,1758075762.54193,0.0,0.0,0.0,6.53172,9.39651,0.40107,10.0,0.28,1.07,2.0
1758075762.60354,1758075762.55193,0.0,0.0,0.0,7.50575,9.28192,0.40107,9.92,0.36,1.06,2.0
1758075762.60459,1758075762.56193,0.0,0.0,0.0,8.42248,8.88085,0.40107,9.92,0.36,1.06,2.0
1758075762.60526,1758075762.57193,0.0,0.0,0.0,9.68299,8.47978,0.45837,9.83,0.4,1.13,2.0
1758075762.61159,1758075762.58193,0.0,0.0,0.0,10.54242,8.136,0.51566,9.83,0.4,1.13,2.0
1758075762.61197,1758075762.59193,0.0,0.0,0.0,11.28727,7.73493,0.74485,9.81,0.43,1.2,2.0
1758075762.61738,1758075762.60193,0.0,0.0,0.0,12.14671,7.44845,0.80214,9.81,0.43,1.2,2.0
1758075762.62045,1758075762.61193,0.0,0.0,0.0,13.17803,6.58902,1.3178,9.85,0.42,1.21,2.0
1758075762.62699,1758075762.62193,0.0,0.0,0.0,13.75099,5.78687,1.48969,9.81,0.4,1.22,2.0
1758075762.6276,1758075762.63193,0.0,0.0,0.0,14.32395,5.55769,1.66158,9.81,0.4,1.22,2.0
1758075762.63244,1758075762.64193,0.0,0.0,0.0,14.9542,5.90147,1.77617,9.87,0.38,1.23,2.0
1758075762.63746,1758075762.65193,0.0,0.0,0.0,16.10011,5.84417,1.94806,9.87,0.38,1.23,2.0
1758075762.64175,1758075762.66193,0.0,0.0,0.0,16.84496,5.55769,2.06265,9.79,0.39,1.29,2.0
1758075762.66193,1758075762.67193,0.0,0.0,0.0,17.76169,4.81285,2.06265,9.79,0.39,1.29,2.0
1758075762.66646,1758075762.68193,0.0,0.0,0.0,18.33465,4.23989,2.06265,9.75,0.4,1.28,2.0
1758075762.68188,1758075762.69193,0.0,0.0,0.0,19.19409,4.98473,2.06265,9.92,0.41,1.25,2.0
1758075762.68381,1758075762.70193,0.0,0.0,0.0,19.99623,6.18794,2.29183,9.92,0.41,1.25,2.0
1758075762.70149,1758075762.71193,0.0,0.0,0.0,20.79837,7.04738,2.6929,10.02,0.42,1.3,2.0
1758075762.70243,1758075762.72193,0.0,0.0,0.0,21.7151,6.99009,3.20856,10.02,0.42,1.3,2.0
1758075762.72203,1758075762.73193,0.0,0.0,0.0,22.34536,7.10468,3.55234,9.95,0.43,1.29,2.0
1758075762.72382,1758075762.74193,0.0,0.0,0.0,22.68913,7.79223,3.72423,9.95,0.43,1.29,2.0
1758075762.74197,1758075762.75193,0.0,0.0,0.0,23.20479,8.136,4.23989,10.05,0.48,1.26,2.0
1758075762.74381,1758075762.76193,0.0,0.0,0.0,23.54857,8.25059,4.58366,10.05,0.48,1.32,2.0
1758075762.76149,1758075762.77193,0.0,0.0,0.0,23.66316,8.25059,4.58366,9.97,0.54,1.32,2.0
1758075762.76246,1758075762.78193,0.0,0.0,0.0,23.66316,8.136,4.81285,9.94,0.59,1.34,2.0
1758075762.77781,1758075762.79193,0.0,0.0,0.0,23.54857,7.67763,4.92744,9.94,0.59,1.34,2.0
1758075762.78382,1758075762.80193,0.0,0.0,0.0,23.31938,7.21927,4.87014,9.85,0.64,1.37,2.0
1758075762.79963,1758075762.81193,0.0,0.0,0.0,23.0902,6.87549,4.98473,9.85,0.64,1.37,2.0
1758075762.80082,1758075762.82193,0.0,0.0,0.0,22.74642,6.24524,4.98473,9.86,0.66,1.36,2.0
1758075762.81676,1758075762.83193,0.0,0.0,0.0,22.40265,5.72958,4.92744,9.86,0.66,1.36,2.0
1758075762.82205,1758075762.84193,0.0,0.0,0.0,21.7151,5.84417,5.09932,9.81,0.69,1.33,2.0
1758075762.83709,1758075762.85193,0.0,0.0,0.0,21.25674,4.87014,4.98473,9.77,0.74,1.31,2.0
1758075762.85518,1758075762.86193,0.0,0.0,0.0,20.79837,4.29718,4.98473,9.77,0.74,1.31,2.0
1758075762.8569,1758075762.87193,0.0,0.0,0.0,20.22541,4.0107,4.92744,9.72,0.76,1.32,2.0
1758075762.8721,1758075762.88193,0.0,0.0,0.0,19.42327,4.23989,4.87014,9.72,0.76,1.32,2.0
1758075762.87734,1758075762.89193,0.0,0.0,0.0,18.9649,3.60963,4.92744,9.74,0.78,1.33,2.0
1758075762.89218,1758075762.90193,0.0,0.0,0.0,18.27736,2.6929,4.92744,9.74,0.78,1.33,2.0
1758075762.89731,1758075762.91193,0.0,0.0,0.0,17.53251,2.29183,4.92744,9.7,0.79,1.31,2.0
1758075762.91197,1758075762.92193,0.0,0.0,0.0,16.95955,2.57831,4.87014,9.85,0.78,1.32,2.0
1758075762.91579,1758075762.93193,0.0,0.0,0.0,16.55848,2.46372,4.92744,9.85,0.78,1.32,2.0
1758075762.93195,1758075762.94193,0.0,0.0,0.0,16.04282,2.57831,4.92744,9.88,0.74,1.35,2.0
1758075762.93292,1758075762.95193,0.0,0.0,0.0,15.41257,2.7502,4.92744,9.88,0.74,1.35,2.0
1758075762.94972,1758075762.96193,0.0,0.0,0.0,15.12609,3.20856,4.81285,9.92,0.7,1.34,2.0
1758075762.9525,1758075762.97193,0.0,0.0,0.0,14.78231,2.92208,4.69825,9.92,0.7,1.34,2.0
1758075762.96995,1758075762.98193,0.0,0.0,0.0,14.43854,1.66158,4.64096,9.78,0.67,1.33,2.0
1758075762.9718,1758075762.99193,0.0,0.0,0.0,13.5218,0.45837,4.64096,9.72,0.67,1.3,2.0
1758075762.98827,1758075763.00193,0.0,0.0,0.0,13.06344,0.74485,4.87014,9.72,0.66,1.3,2.0
1758075762.99236,1758075763.01193,0.0,0.0,0.0,12.54778,1.3178,5.09932,9.85,0.7,1.26,2.0
1758075763.00801,1758075763.02193,0.0,0.0,0.0,12.08941,1.77617,5.21392,9.85,0.7,1.26,2.0
1758075763.01243,1758075763.03193,0.0,0.0,0.0,11.28727,0.80214,5.4431,9.81,0.76,1.3,2.0
1758075763.03501,1758075763.04193,0.0,0.0,0.0,10.8289,-0.45837,5.50039,9.81,0.76,1.3,2.0
1758075763.04196,1758075763.05193,0.0,0.0,0.0,10.31324,-1.08862,5.27121,9.71,0.77,1.29,2.0
1758075763.04327,1758075763.06193,0.0,0.0,0.0,9.5684,-1.08862,5.15662,9.71,0.77,1.29,2.0
1758075763.05997,1758075763.07193,0.0,0.0,0.0,8.136,-1.71887,4.52637,9.92,0.8,1.36,2.0
1758075763.06184,1758075763.08193,0.0,0.0,0.0,7.16197,-2.57831,4.0107,10.02,0.86,1.42,2.0
1758075763.08123,1758075763.09193,0.0,0.0,0.0,5.90147,-3.66693,3.32316,10.02,0.86,1.42,2.0
1758075763.0824,1758075763.10193,0.0,0.0,0.0,4.58366,-4.35448,2.40642,10.05,0.9,1.4,2.0
1758075763.10201,1758075763.11193,0.0,0.0,0.0,2.29183,-4.1253,1.94806,10.05,0.9,1.4,2.0
1758075763.10477,1758075763.12193,0.0,0.0,0.0,0.85944,-4.0107,1.43239,10.18,0.95,1.41,2.0
1758075763.12176,1758075763.13193,0.0,0.0,0.0,-0.57296,-4.35448,1.3178,10.18,0.95,1.41,2.0
1758075763.12309,1758075763.14193,0.0,0.0,0.0,-2.86479,-4.92744,1.08862,10.05,0.98,1.43,2.0
1758075763.14209,1758075763.15193,0.0,0.0,0.0,-4.52637,-4.69825,1.14592,10.02,0.97,1.42,2.0
1758075763.15235,1758075763.16193,0.0,0.0,0.0,-6.07335,-3.66693,1.14592,10.02,0.97,1.42,2.0
1758075763.15343,1758075763.17193,0.0,0.0,0.0,-7.67763,-2.29183,1.03132,10.1,0.93,1.39,2.0
1758075763.172,1758075763.18193,0.0,0.0,0.0,-9.85487,-1.08862,0.97403,10.1,0.93,1.39,2.0
1758075763.17477,1758075763.19193,0.0,0.0,0.0,-11.22997,-0.97403,0.74485,10.01,0.87,1.33,2.0
1758075763.19654,1758075763.20193,0.0,0.0,0.0,-12.49048,-1.3178,0.45837,10.01,0.87,1.33,2.0
1758075763.202,1758075763.21193,0.0,0.0,0.0,-13.5791,-1.66158,0.22918,9.87,0.78,1.26,2.0
1758075763.20713,1758075763.22193,0.0,0.0,0.0,-15.35527,-2.00535,-0.40107,9.86,0.73,1.21,2.0
1758075763.22518,1758075763.23193,0.0,0.0,0.0,-16.55848,-2.00535,-0.74485,9.86,0.73,1.21,2.0
1758075763.27373,1758075763.24193,0.0,0.0,0.0,-17.76169,-2.00535,-1.08862,9.92,0.71,1.2,2.0
1758075763.31611,1758075763.25193,0.0,0.0,0.0,-18.79302,-1.71887,-1.48969,9.92,0.71,1.2,2.0
1758075763.37477,1758075763.26193,0.0,0.0,0.0,-20.62648,-1.14592,-2.23454,10.02,0.7,1.16,2.0
1758075763.39202,1758075763.27193,0.0,0.0,0.0,-21.7151,-0.45837,-2.63561,10.02,0.7,1.16,2.0
1758075763.45191,1758075763.28193,0.0,0.0,0.0,-22.91831,0.40107,-3.03668,10.14,0.7,1.12,2.0
1758075763.64405,1758075763.29193,0.0,0.0,0.0,-24.12152,1.20321,-3.49504,10.14,0.7,1.12,2.0
1758075763.6518,1758075763.30193,0.0,0.0,0.0,-25.61122,2.34913,-3.89611,10.19,0.7,1.08,2.0
1758075763.65634,1758075763.31193,0.0,0.0,0.0,-26.75713,2.63561,-4.23989,10.08,0.66,1.09,2.0
1758075763.67771,1758075763.32193,0.0,0.0,0.0,-27.61657,2.57831,-4.58366,10.08,0.66,1.09,2.0
1758075763.68386,1758075763.33193,0.0,0.0,0.0,-28.76248,2.40642,-5.21392,9.87,0.6,1.1,2.0
1758075763.68423,1758075763.34193,0.0,0.0,0.0,-29.33544,1.77617,-5.32851,9.87,0.6,1.1,2.0
1758075763.73726,1758075763.35193,0.0,0.0,0.0,-29.8511,1.20321,-5.78687,9.66,0.48,1.08,2.0
1758075763.7405,1758075763.36193,0.0,0.0,0.0,-30.25217,0.85944,-5.90147,9.66,0.48,1.08,2.0
1758075763.74466,1758075763.37193,0.0,0.0,0.0,-30.82513,0.85944,-6.18794,9.63,0.43,1.09,2.0
1758075763.74898,1758075763.38193,0.0,0.0,0.0,-30.99702,0.85944,-6.35983,9.65,0.39,1.05,2.0
1758075763.75342,1758075763.39193,0.0,0.0,0.0,-31.16891,0.80214,-6.24524,9.65,0.39,1.05,2.0
1758075763.76282,1758075763.40193,0.0,0.0,0.0,-31.28349,0.85944,-6.35983,9.68,0.39,1.04,2.0
1758075763.77388,1758075763.41193,0.0,0.0,0.0,-31.39809,0.57296,-6.18794,9.68,0.39,1.04,2.0
1758075763.77664,1758075763.42193,0.0,0.0,0.0,-31.39809,0.17189,-6.13065,9.65,0.35,1.05,2.0
1758075763.78191,1758075763.43193,0.0,0.0,0.0,-31.28349,-0.11459,-6.07335,9.65,0.35,1.05,2.0
1758075763.78235,1758075763.44193,0.0,0.0,0.0,-31.16891,-0.45837,-5.90147,9.67,0.32,1.09,2.0
1758075763.78731,1758075763.45193,0.0,0.0,0.0,-30.88243,-1.3178,-5.84417,9.76,0.3,1.15,2.0
1758075763.79221,1758075763.46193,0.0,0.0,0.0,-30.53865,-1.71887,-5.61499,9.76,0.3,1.15,2.0
1758075763.79418,1758075763.47193,0.0,0.0,0.0,-30.25217,-2.23454,-5.50039,9.88,0.27,1.19,2.0
1758075763.84871,1758075763.48193,0.0,0.0,0.0,-29.8511,-2.7502,-5.09932,9.88,0.27,1.19,2.0
1758075763.85209,1758075763.49193,0.0,0.0,0.0,-29.04896,-3.26586,-4.81285,9.98,0.24,1.18,2.0
1758075764.01173,1758075763.50193,0.0,0.0,0.0,-28.64789,-3.60963,-4.46907,9.98,0.24,1.18,2.0
1758075764.04229,1758075763.51193,0.0,0.0,0.0,-28.13223,-3.95341,-4.29718,10.0,0.26,1.17,2.0
1758075764.25221,1758075763.52193,0.0,0.0,0.0,-27.61657,-3.49504,-3.89611,10.0,0.26,1.17,2.0
1758075764.25472,1758075763.53193,0.0,0.0,0.0,-26.81443,-3.49504,-3.66693,10.19,0.31,1.15,2.0
1758075764.26633,1758075763.54193,0.0,0.0,0.0,-26.24147,-3.95341,-3.55234,10.2,0.33,1.07,2.0
1758075764.26672,1758075763.55193,0.0,0.0,0.0,-25.7831,-4.81285,-3.38045,10.2,0.33,1.07,2.0
1758075764.26791,1758075763.56193,0.0,0.0,0.0,-24.80907,-5.72958,-3.32316,9.96,0.29,1.09,2.0
1758075764.2752,1758075763.57193,0.0,0.0,0.0,-23.89234,-5.78687,-3.38045,9.96,0.29,1.09,2.0
1758075764.28191,1758075763.58193,0.0,0.0,0.0,-22.91831,-4.98473,-3.38045,9.78,0.21,1.17,2.0
1758075764.28234,1758075763.59193,0.0,0.0,0.0,-21.7724,-4.58366,-3.38045,9.78,0.21,1.17,2.0
1758075764.30403,1758075763.60193,0.0,0.0,0.0,-20.45459,-4.92744,-3.32316,9.68,0.13,1.27,2.0
1758075764.30715,1758075763.61193,0.0,0.0,0.0,-19.48057,-6.24524,-3.38045,9.55,0.09,1.28,2.0
1758075764.33166,1758075763.62193,0.0,0.0,0.0,-18.56383,-7.44845,-3.66693,9.55,0.09,1.28,2.0
1758075764.33263,1758075763.63193,0.0,0.0,0.0,-17.47521,-7.44845,-3.72423,9.84,0.11,1.14,2.0
1758075764.33307,1758075763.64193,0.0,0.0,0.0,-15.98552,-6.53172,-3.60963,9.84,0.11,1.14,2.0
1758075764.33662,1758075763.65193,0.0,0.0,0.0,-14.72501,-5.55769,-3.55234,10.18,0.14,1.11,2.0
1758075764.33738,1758075763.66193,0.0,0.0,0.0,-13.69369,-4.35448,-3.26586,10.18,0.14,1.11,2.0
1758075764.3428,1758075763.67193,0.0,0.0,0.0,-12.71966,-3.26586,-2.97938,10.38,0.18,1.08,2.0
1758075764.34745,1758075763.68193,0.0,0.0,0.0,-11.17268,-2.34913,-2.23454,10.28,0.21,1.05,2.0
1758075764.37687,1758075763.69193,0.0,0.0,0.0,-10.19865,-2.7502,-1.66158,10.28,0.21,1.05,2.0
1758075764.40187,1758075763.70193,0.0,0.0,0.0,-9.39651,-3.49504,-1.14592,9.94,0.19,1.03,2.0
1758075764.40574,1758075763.71193,0.0,0.0,0.0,-8.76626,-4.0107,-0.80214,9.94,0.19,1.03,2.0
1758075764.40842,1758075763.72193,0.0,0.0,0.0,-7.73493,-4.23989,-0.40107,9.77,0.16,1.06,2.0
1758075764.41713,1758075763.73193,0.0,0.0,0.0,-6.7609,-3.20856,-0.34377,9.77,0.16,1.06,2.0
1758075764.42064,1758075763.74193,0.0,0.0,0.0,-5.61499,-1.71887,-0.17189,9.85,0.12,1.12,2.0
1758075764.42143,1758075763.75193,0.0,0.0,0.0,-4.23989,-0.85944,-0.0573,9.85,0.12,1.12,2.0
1758075764.42677,1758075763.76193,0.0,0.0,0.0,-3.26586,-1.3751,0.0573,9.83,0.08,1.12,2.0
1758075764.4272,1758075763.77193,0.0,0.0,0.0,-2.34913,-2.29183,0.22918,9.66,0.11,1.1,2.0
1758075764.43715,1758075763.78193,0.0,0.0,0.0,-1.48969,-2.86479,0.22918,9.66,0.11,1.1,2.0
1758075764.44223,1758075763.79193,0.0,0.0,0.0,-0.34377,-3.26586,0.45837,9.75,0.17,1.1,2.0
1758075764.55677,1758075763.80193,0.0,0.0,0.0,0.40107,-3.38045,0.57296,9.75,0.17,1.1,2.0
1758075764.60388,1758075763.81193,0.0,0.0,0.0,1.20321,-3.26586,0.57296,9.91,0.23,1.12,2.0
1758075764.9413,1758075763.82193,0.0,0.0,0.0,1.94806,-3.26586,0.74485,9.91,0.23,1.12,2.0
1758075764.94248,1758075763.83193,0.0,0.0,0.0,2.7502,-3.26586,0.68755,10.09,0.27,1.09,2.0
1758075764.95196,1758075763.84193,0.0,0.0,0.0,3.49504,-3.26586,0.80214,10.14,0.31,1.1,2.0
1758075764.95243,1758075763.85193,0.0,0.0,0.0,3.89611,-2.92208,0.74485,10.14,0.31,1.1,2.0
1758075764.97283,1758075763.86193,0.0,0.0,0.0,4.29718,-2.46372,0.85944,10.12,0.33,1.14,2.0
1758075764.97433,1758075763.87193,0.0,0.0,0.0,4.92744,-1.77617,0.68755,10.12,0.33,1.14,2.0
1758075764.98171,1758075763.88193,0.0,0.0,0.0,5.21392,-1.14592,0.51566,10.11,0.35,1.13,2.0
1758075765.01059,1758075763.89193,0.0,0.0,0.0,5.55769,-0.74485,0.22918,10.11,0.35,1.13,2.0
1758075765.0131,1758075763.90193,0.0,0.0,0.0,5.95876,-0.34377,0.11459,10.09,0.36,1.1,2.0
1758075765.02144,1758075763.91193,0.0,0.0,0.0,6.35983,0.34377,-0.22918,10.04,0.34,1.11,2.0
1758075765.02685,1758075763.92193,0.0,0.0,0.0,6.47442,0.57296,-0.34377,10.04,0.34,1.11,2.0
1758075765.03737,1758075763.93193,0.0,0.0,0.0,6.7609,0.85944,-0.40107,9.99,0.33,1.08,2.0
1758075765.04221,1758075763.94193,0.0,0.0,0.0,6.99009,1.08862,-0.17189,9.99,0.33,1.08,2.0
1758075765.05584,1758075763.95193,0.0,0.0,0.0,7.33386,1.43239,0.0,9.97,0.34,1.09,2.0
1758075765.09785,1758075763.96193,0.0,0.0,0.0,7.33386,1.60428,0.17189,9.97,0.34,1.09,2.0
1758075765.10647,1758075763.97193,0.0,0.0,0.0,7.50575,1.3178,0.34377,9.94,0.37,1.13,2.0
1758075765.10784,1758075763.98193,0.0,0.0,0.0,7.84952,0.97403,0.57296,9.94,0.37,1.13,2.0
1758075765.11721,1758075763.99193,0.0,0.0,0.0,8.136,0.45837,0.68755,9.89,0.38,1.17,2.0
1758075765.1228,1758075764.00193,0.0,0.0,0.0,8.36518,0.11459,0.68755,9.86,0.38,1.18,2.0
1758075765.13196,1758075764.01193,0.0,0.0,0.0,8.65166,-0.22918,0.80214,9.86,0.38,1.18,2.0
1758075765.13232,1758075764.02193,0.0,0.0,0.0,8.93814,-0.68755,0.85944,9.83,0.36,1.18,2.0
1758075765.13777,1758075764.03193,0.0,0.0,0.0,9.05273,-1.03132,1.03132,9.83,0.36,1.18,2.0
1758075765.14712,1758075764.04193,0.0,0.0,0.0,9.05273,-1.20321,1.08862,9.81,0.36,1.16,2.0
1758075765.1476,1758075764.05193,0.0,0.0,0.0,9.28192,-1.43239,1.08862,9.81,0.36,1.16,2.0
1758075765.15746,1758075764.06193,0.0,0.0,0.0,9.33921,-1.71887,1.14592,9.83,0.38,1.14,2.0
1758075765.16202,1758075764.07193,0.0,0.0,0.0,9.39651,-1.66158,1.08862,9.88,0.41,1.11,2.0
1758075765.16322,1758075764.08193,0.0,0.0,0.0,9.4538,-1.66158,1.20321,9.88,0.41,1.11,2.0
1758075765.1639,1758075764.09193,0.0,0.0,0.0,9.4538,-2.00535,1.14592,9.91,0.43,1.07,2.0
1758075765.16747,1758075764.10193,0.0,0.0,0.0,9.28192,-2.11994,1.03132,9.91,0.43,1.07,2.0
1758075765.16893,1758075764.11193,0.0,0.0,0.0,9.28192,-2.11994,1.08862,9.91,0.45,1.07,2.0
1758075765.17349,1758075764.12193,0.0,0.0,0.0,9.22462,-2.23454,1.03132,9.91,0.45,1.07,2.0
1758075765.17719,1758075764.13193,0.0,0.0,0.0,8.93814,-2.11994,1.03132,9.93,0.48,1.09,2.0
1758075765.18156,1758075764.14193,0.0,0.0,0.0,8.76626,-1.77617,0.97403,10.01,0.49,1.11,2.0
1758075765.18226,1758075764.15193,0.0,0.0,0.0,8.59437,-1.3751,0.97403,10.01,0.49,1.11,2.0
1758075765.18749,1758075764.16193,0.0,0.0,0.0,8.36518,-1.14592,0.74485,10.07,0.49,1.12,2.0
1758075765.19246,1758075764.17193,0.0,0.0,0.0,8.0787,-0.34377,0.51566,10.07,0.49,1.12,2.0
1758075765.19735,1758075764.18193,0.0,0.0,0.0,7.79223,0.17189,0.45837,10.1,0.49,1.12,2.0
1758075765.20195,1758075764.19193,0.0,0.0,0.0,7.67763,0.45837,0.40107,10.1,0.49,1.12,2.0
1758075765.20275,1758075764.20193,0.0,0.0,0.0,7.50575,0.45837,0.45837,10.07,0.51,1.12,2.0
1758075765.20699,1758075764.21193,0.0,0.0,0.0,7.33386,0.0573,0.74485,10.07,0.51,1.1,2.0
1758075765.21273,1758075764.22193,0.0,0.0,0.0,7.10468,-0.22918,0.85944,9.95,0.51,1.1,2.0
1758075765.22751,1758075764.23193,0.0,0.0,0.0,6.8182,-0.51566,1.08862,9.85,0.52,1.08,2.0
1758075765.23271,1758075764.24193,0.0,0.0,0.0,6.53172,-0.80214,1.14592,9.85,0.52,1.08,2.0
1758075765.23731,1758075764.25193,0.0,0.0,0.0,6.18794,-0.74485,1.20321,9.81,0.53,1.05,2.0
1758075765.24177,1758075764.26193,0.0,0.0,0.0,6.07335,-0.57296,1.20321,9.81,0.53,1.05,2.0
1758075765.2424,1758075764.27193,0.0,0.0,0.0,5.78687,-0.17189,1.20321,9.85,0.52,1.01,2.0
1758075765.24383,1758075764.28193,0.0,0.0,0.0,5.50039,-0.34377,1.3751,9.85,0.52,1.01,2.0
1758075765.24751,1758075764.29193,0.0,0.0,0.0,5.09932,-0.40107,1.20321,9.87,0.52,1.01,2.0
1758075765.25239,1758075764.30193,0.0,0.0,0.0,4.87014,-0.40107,1.20321,9.88,0.53,1.02,2.0
1758075765.25757,1758075764.31193,0.0,0.0,0.0,4.46907,-0.51566,1.14592,9.88,0.53,1.02,2.0
1758075765.26191,1758075764.32193,0.0,0.0,0.0,4.1253,-0.85944,1.08862,9.9,0.55,1.04,2.0
1758075765.26392,1758075764.33193,0.0,0.0,0.0,3.55234,-1.3178,0.97403,9.9,0.55,1.04,2.0
1758075765.2664,1758075764.34193,0.0,0.0,0.0,3.20856,-1.3178,0.80214,9.95,0.57,1.05,2.0
1758075765.26688,1758075764.35193,0.0,0.0,0.0,2.6929,-1.14592,0.68755,9.95,0.57,1.05,2.0
1758075765.26879,1758075764.36193,0.0,0.0,0.0,2.00535,-0.97403,0.34377,10.02,0.58,1.06,2.0
1758075765.27237,1758075764.37193,0.0,0.0,0.0,1.48969,-0.40107,0.17189,10.02,0.56,1.07,2.0
1758075765.27386,1758075764.38193,0.0,0.0,0.0,1.14592,-0.0573,0.0573,10.02,0.56,1.07,2.0
1758075765.27664,1758075764.39193,0.0,0.0,0.0,0.80214,-0.11459,0.0,9.94,0.52,1.05,2.0
1758075765.2773,1758075764.40193,0.0,0.0,0.0,0.45837,-0.0573,-0.17189,9.94,0.52,1.05,2.0
1758075765.28176,1758075764.41193,0.0,0.0,0.0,0.22918,-0.11459,-0.11459,9.88,0.48,1.06,2.0
1758075765.28237,1758075764.42193,0.0,0.0,0.0,0.11459,-0.0573,-0.17189,9.88,0.48,1.06,2.0
1758075765.28379,1758075764.43193,0.0,0.0,0.0,0.0,-0.0573,-0.22918,9.85,0.46,1.12,2.0
1758075765.28747,1758075764.44193,0.0,0.0,0.0,-0.11459,-0.0573,-0.22918,9.87,0.46,1.19,2.0
1758075765.29238,1758075764.45193,0.0,0.0,0.0,-0.17189,-0.17189,-0.17189,9.87,0.44,1.19,2.0
1758075765.29745,1758075764.46193,0.0,0.0,0.0,-0.17189,-0.11459,-0.11459,10.0,0.43,1.18,2.0
1758075765.30192,1758075764.47193,0.0,0.0,0.0,-0.34377,-0.11459,0.0573,10.0,0.43,1.18,2.0
1758075765.30477,1758075764.48193,0.0,0.0,0.0,-0.17189,0.0573,0.34377,10.11,0.42,1.15,2.0
1758075765.30718,1758075764.49193,0.0,0.0,0.0,-0.17189,0.11459,0.68755,10.11,0.42,1.15,2.0
1758075765.30765,1758075764.50193,0.0,0.0,0.0,-0.11459,0.34377,0.74485,10.15,0.4,1.1,2.0
1758075765.31232,1758075764.51193,0.0,0.0,0.0,-0.0573,0.51566,1.03132,10.15,0.4,1.1,2.0
1758075765.31516,1758075764.52193,0.0,0.0,0.0,-0.0573,0.74485,1.14592,10.1,0.38,1.05,2.0
1758075765.3213,1758075764.53193,0.0,0.0,0.0,-0.11459,1.03132,1.3178,10.0,0.38,1.04,2.0
1758075765.32175,1758075764.54193,0.0,0.0,0.0,0.0,1.14592,1.3751,10.0,0.38,1.04,2.0
1758075765.32287,1758075764.55193,0.0,0.0,0.0,-0.17189,1.14592,1.60428,9.91,0.42,1.04,2.0
1758075765.32543,1758075764.56193,0.0,0.0,0.0,-0.40107,1.03132,1.48969,9.91,0.42,1.04,2.0
1758075765.33145,1758075764.57193,0.0,0.0,0.0,-0.68755,0.68755,1.48969,9.82,0.47,1.07,2.0
1758075765.33187,1758075764.58193,0.0,0.0,0.0,-0.74485,0.22918,1.43239,9.82,0.47,1.07,2.0
1758075765.33381,1758075764.59193,0.0,0.0,0.0,-1.14592,0.0,1.20321,9.79,0.5,1.11,2.0
1758075765.33602,1758075764.60193,0.0,0.0,0.0,-1.43239,-0.17189,0.85944,9.86,0.5,1.1,2.0
1758075765.33726,1758075764.61193,0.0,0.0,0.0,-1.71887,-0.34377,0.68755,9.86,0.5,1.1,2.0
1758075765.3411,1758075764.62193,0.0,0.0,0.0,-1.94806,-0.22918,0.34377,9.97,0.48,1.09,2.0
1758075765.3426,1758075764.63193,0.0,0.0,0.0,-2.29183,0.11459,-0.0573,9.97,0.48,1.09,2.0
1758075765.34483,1758075764.64193,0.0,0.0,0.0,-2.34913,0.51566,-0.34377,10.06,0.46,1.04,2.0
1758075765.34749,1758075764.65193,0.0,0.0,0.0,-2.46372,0.85944,-0.51566,10.06,0.46,1.04,2.0
1758075765.35116,1758075764.66193,0.0,0.0,0.0,-2.57831,1.08862,-0.68755,10.08,0.45,1.0,2.0
1758075765.35198,1758075764.67193,0.0,0.0,0.0,-2.46372,1.14592,-0.80214,10.01,0.43,0.98,2.0
1758075765.35702,1758075764.68193,0.0,0.0,0.0,-2.46372,1.14592,-0.74485,10.01,0.43,0.98,2.0
1758075765.36001,1758075764.69193,0.0,0.0,0.0,-2.40642,1.08862,-0.68755,9.92,0.42,0.96,2.0
1758075765.36279,1758075764.70193,0.0,0.0,0.0,-2.34913,0.97403,-0.74485,9.92,0.42,0.96,2.0
1758075765.367,1758075764.71193,0.0,0.0,0.0,-2.34913,0.45837,-0.80214,9.83,0.41,0.98,2.0
1758075765.3679,1758075764.72193,0.0,0.0,0.0,-2.29183,0.11459,-0.80214,9.83,0.41,0.98,2.0
1758075765.36846,1758075764.73193,0.0,0.0,0.0,-2.34913,-0.11459,-0.85944,9.78,0.41,1.0,2.0
1758075765.37219,1758075764.74193,0.0,0.0,0.0,-2.34913,-0.51566,-1.08862,9.78,0.41,1.0,2.0
1758075765.37355,1758075764.75193,0.0,0.0,0.0,-2.29183,-1.14592,-1.03132,9.77,0.39,1.03,2.0
1758075765.37643,1758075764.76193,0.0,0.0,0.0,-2.23454,-1.3751,-1.03132,9.79,0.36,1.05,2.0
1758075765.37708,1758075764.77193,0.0,0.0,0.0,-2.23454,-1.77617,-1.03132,9.79,0.36,1.05,2.0
1758075765.38229,1758075764.78193,0.0,0.0,0.0,-2.11994,-1.83346,-0.80214,9.84,0.35,1.06,2.0
1758075765.38612,1758075764.79193,0.0,0.0,0.0,-2.06265,-2.29183,-0.74485,9.84,0.35,1.06,2.0
1758075765.38692,1758075764.80193,0.0,0.0,0.0,-2.00535,-2.34913,-0.51566,9.89,0.36,1.06,2.0
1758075765.38798,1758075764.81193,0.0,0.0,0.0,-1.66158,-2.46372,-0.22918,9.89,0.36,1.06,2.0
1758075765.38875,1758075764.82193,0.0,0.0,0.0,-1.71887,-2.57831,0.0,9.91,0.38,1.07,2.0
1758075765.39571,1758075764.83193,0.0,0.0,0.0,-1.60428,-2.6929,0.11459,9.91,0.38,1.06,2.0
1758075765.4003,1758075764.84193,0.0,0.0,0.0,-1.48969,-2.92208,0.17189,9.91,0.38,1.06,2.0
1758075765.40681,1758075764.85193,0.0,0.0,0.0,-1.3751,-2.97938,0.34377,9.89,0.38,1.05,2.0
1758075765.40759,1758075764.86193,0.0,0.0,0.0,-1.43239,-2.97938,0.40107,9.89,0.38,1.05,2.0
1758075765.40953,1758075764.87193,0.0,0.0,0.0,-1.20321,-3.20856,0.40107,9.87,0.37,1.05,2.0
1758075765.41175,1758075764.88193,0.0,0.0,0.0,-1.08862,-3.55234,0.34377,9.87,0.37,1.05,2.0
1758075765.41384,1758075764.89193,0.0,0.0,0.0,-1.03132,-3.95341,0.34377,9.86,0.37,1.06,2.0
1758075765.4144,1758075764.90193,0.0,0.0,0.0,-0.97403,-4.29718,0.40107,9.87,0.39,1.08,2.0
1758075765.41721,1758075764.91193,0.0,0.0,0.0,-1.03132,-4.58366,0.51566,9.87,0.39,1.08,2.0
1758075765.42136,1758075764.92193,0.0,0.0,0.0,-1.08862,-4.69825,0.45837,9.92,0.42,1.08,2.0
1758075765.42228,1758075764.93193,0.0,0.0,0.0,-0.97403,-4.46907,0.57296,9.92,0.42,1.08,2.0
1758075765.42714,1758075764.94193,0.0,0.0,0.0,-0.85944,-3.95341,0.51566,9.99,0.42,1.07,2.0
1758075765.42759,1758075764.95193,0.0,0.0,0.0,-0.97403,-3.55234,0.45837,9.99,0.42,1.07,2.0
1758075765.43224,1758075764.96193,0.0,0.0,0.0,-0.85944,-3.03668,0.45837,10.03,0.41,1.05,2.0
1758075765.43262,1758075764.97193,0.0,0.0,0.0,-0.74485,-2.7502,0.34377,10.03,0.41,1.05,2.0
1758075765.44197,1758075764.98193,0.0,0.0,0.0,-0.57296,-2.63561,0.22918,10.02,0.4,1.04,2.0
1758075765.44247,1758075764.99193,0.0,0.0,0.0,-0.45837,-2.7502,0.17189,10.0,0.4,1.03,2.0
1758075765.44708,1758075765.00193,0.0,0.0,0.0,-0.40107,-2.57831,0.0573,10.0,0.4,1.03,2.0
1758075765.44842,1758075765.01193,0.0,0.0,0.0,-0.40107,-2.46372,0.0,10.02,0.39,1.01,2.0
1758075765.4522,1758075765.02193,0.0,0.0,0.0,-0.34377,-2.11994,-0.0573,10.02,0.39,1.01,2.0
1758075765.45263,1758075765.03193,0.0,0.0,0.0,-0.40107,-2.00535,-0.0573,10.03,0.39,1.0,2.0
1758075765.45694,1758075765.04193,0.0,0.0,0.0,-0.22918,-1.77617,-0.17189,10.03,0.39,1.0,2.0
1758075765.45757,1758075765.05193,0.0,0.0,0.0,-0.22918,-1.48969,-0.0573,10.02,0.39,1.0,2.0
1758075765.46358,1758075765.06193,0.0,0.0,0.0,-0.17189,-1.3178,-0.0573,10.0,0.39,1.0,2.0
1758075765.4642,1758075765.07193,0.0,0.0,0.0,-0.11459,-1.14592,0.0,10.0,0.39,1.0,2.0
1758075765.46701,1758075765.08193,0.0,0.0,0.0,-0.34377,-1.03132,-0.0573,10.0,0.39,1.01,2.0
1758075765.46763,1758075765.09193,0.0,0.0,0.0,-0.11459,-0.68755,-0.0573,10.0,0.39,1.01,2.0
1758075765.46919,1758075765.10193,0.0,0.0,0.0,-0.0573,-0.68755,-0.0573,10.02,0.39,1.0,2.0
1758075765.47189,1758075765.11193,0.0,0.0,0.0,-0.11459,-0.80214,-0.0573,10.02,0.39,1.0,2.0
1758075765.47268,1758075765.12193,0.0,0.0,0.0,0.0573,-0.85944,-0.11459,10.0,0.39,0.98,2.0
1758075765.47535,1758075765.13193,0.0,0.0,0.0,0.17189,-0.97403,-0.17189,9.97,0.36,0.96,2.0
1758075765.47611,1758075765.14193,0.0,0.0,0.0,0.22918,-0.97403,-0.22918,9.97,0.36,0.96,2.0
1758075765.47723,1758075765.15193,0.0,0.0,0.0,0.34377,-0.97403,-0.22918,9.92,0.36,0.94,2.0
1758075765.48183,1758075765.16193,0.0,0.0,0.0,0.34377,-1.03132,-0.22918,9.92,0.36,0.94,2.0
1758075765.48381,1758075765.17193,0.0,0.0,0.0,0.34377,-1.03132,-0.17189,9.89,0.35,0.94,2.0
1758075765.48444,1758075765.18193,0.0,0.0,0.0,0.34377,-1.14592,-0.34377,9.89,0.35,0.94,2.0
1758075765.4873,1758075765.19193,0.0,0.0,0.0,0.34377,-1.20321,-0.22918,9.9,0.36,0.95,2.0
1758075765.48873,1758075765.20193,0.0,0.0,0.0,0.40107,-1.3178,-0.40107,9.9,0.36,0.95,2.0
1758075765.49162,1758075765.21193,0.0,0.0,0.0,0.34377,-1.48969,-0.51566,9.93,0.36,0.95,2.0
1758075765.49224,1758075765.22193,0.0,0.0,0.0,0.34377,-1.66158,-0.57296,9.96,0.36,0.93,2.0
1758075765.49342,1758075765.23193,0.0,0.0,0.0,0.34377,-1.71887,-0.51566,9.96,0.36,0.93,2.0
1758075765.49404,1758075765.24193,0.0,0.0,0.0,0.11459,-1.60428,-0.45837,9.98,0.36,0.9,2.0
1758075765.49652,1758075765.25193,0.0,0.0,0.0,0.11459,-1.3751,-0.40107,9.98,0.36,0.9,2.0
1758075765.49761,1758075765.26193,0.0,0.0,0.0,0.0573,-1.48969,-0.40107,9.97,0.36,0.9,2.0
1758075765.50157,1758075765.27193,0.0,0.0,0.0,-0.0573,-1.3751,-0.22918,9.97,0.36,0.9,2.0
1758075765.50428,1758075765.28193,0.0,0.0,0.0,-0.11459,-1.3178,-0.17189,9.97,0.37,0.88,2.0
1758075765.50665,1758075765.29193,0.0,0.0,0.0,-0.17189,-1.20321,-0.11459,9.96,0.37,0.88,2.0
1758075765.50876,1758075765.30193,0.0,0.0,0.0,-0.34377,-1.20321,-0.11459,9.96,0.37,0.88,2.0
1758075765.51293,1758075765.31193,0.0,0.0,0.0,-0.34377,-1.08862,-0.0573,9.99,0.39,0.88,2.0
1758075765.51357,1758075765.32193,0.0,0.0,0.0,-0.51566,-1.03132,-0.0573,9.99,0.39,0.88,2.0
1758075765.51418,1758075765.33193,0.0,0.0,0.0,-0.80214,-1.03132,0.0,9.98,0.39,0.9,2.0
1758075765.523,1758075765.34193,0.0,0.0,0.0,-0.74485,-0.97403,-0.0573,9.98,0.39,0.9,2.0
1758075765.61241,1758075765.35193,0.0,0.0,0.0,-0.85944,-1.14592,0.0573,9.97,0.39,0.9,2.0
1758075765.64216,1758075765.36193,0.0,0.0,0.0,-0.97403,-1.3178,0.0573,9.92,0.38,0.92,2.0
1758075765.64287,1758075765.37193,0.0,0.0,0.0,-1.03132,-1.20321,0.0573,9.92,0.38,0.92,2.0
1758075765.64404,1758075765.38193,0.0,0.0,0.0,-1.08862,-1.14592,0.11459,9.97,0.36,0.89,2.0
1758075765.64726,1758075765.39193,0.0,0.0,0.0,-1.14592,-1.20321,0.22918,9.97,0.36,0.89,2.0
1758075765.65059,1758075765.40193,0.0,0.0,0.0,-1.08862,-1.03132,0.51566,10.01,0.37,0.91,2.0
1758075765.65283,1758075765.41193,0.0,0.0,0.0,-1.08862,-0.57296,0.51566,10.01,0.37,0.91,2.0
1758075765.65787,1758075765.42193,0.0,0.0,0.0,-1.08862,-0.22918,0.57296,10.13,0.39,0.88,2.0
1758075765.6643,1758075765.43193,0.0,0.0,0.0,-1.08862,0.17189,0.51566,10.13,0.39,0.88,2.0
1758075765.66504,1758075765.44193,0.0,0.0,0.0,-1.08862,0.17189,0.40107,10.19,0.39,0.81,2.0
1758075765.66778,1758075765.45193,0.0,0.0,0.0,-0.97403,0.11459,0.22918,10.03,0.37,0.82,2.0
1758075765.66848,1758075765.46193,0.0,0.0,0.0,-0.97403,0.22918,0.34377,10.03,0.37,0.82,2.0
1758075765.67128,1758075765.47193,0.0,0.0,0.0,-0.97403,0.34377,0.0573,9.89,0.36,0.85,2.0
1758075765.6718,1758075765.48193,0.0,0.0,0.0,-0.85944,0.45837,-0.11459,9.89,0.36,0.85,2.0
1758075765.67735,1758075765.49193,0.0,0.0,0.0,-0.97403,0.57296,-0.22918,9.86,0.35,0.89,2.0
1758075765.67782,1758075765.50193,0.0,0.0,0.0,-1.03132,0.74485,-0.45837,9.86,0.35,0.89,2.0
1758075765.68325,1758075765.51193,0.0,0.0,0.0,-0.97403,0.22918,-0.68755,9.91,0.33,0.93,2.0
1758075765.68588,1758075765.52193,0.0,0.0,0.0,-0.80214,0.0573,-0.68755,9.93,0.33,0.98,2.0
1758075765.68789,1758075765.53193,0.0,0.0,0.0,-0.68755,-0.40107,-0.68755,9.93,0.33,0.98,2.0
1758075765.68857,1758075765.54193,0.0,0.0,0.0,-0.57296,-0.51566,-0.74485,9.94,0.33,0.98,2.0
1758075765.69023,1758075765.55193,0.0,0.0,0.0,-0.51566,-0.45837,-0.57296,9.94,0.33,0.98,2.0
1758075765.69447,1758075765.56193,0.0,0.0,0.0,-0.45837,-0.11459,-0.57296,9.99,0.35,0.92,2.0
1758075765.69784,1758075765.57193,0.0,0.0,0.0,-0.34377,-0.0573,-0.74485,9.99,0.35,0.92,2.0
1758075765.70197,1758075765.58193,0.0,0.0,0.0,-0.40107,0.0573,-0.80214,10.01,0.35,0.85,2.0
1758075765.70305,1758075765.59193,0.0,0.0,0.0,-0.40107,0.17189,-0.97403,10.01,0.32,0.8,2.0
1758075765.70693,1758075765.60193,0.0,0.0,0.0,-0.22918,0.34377,-1.08862,10.01,0.32,0.8,2.0
1758075765.70769,1758075765.61193,0.0,0.0,0.0,-0.17189,0.40107,-1.03132,10.01,0.31,0.78,2.0
1758075765.7112,1758075765.62193,0.0,0.0,0.0,0.0,0.57296,-1.08862,10.01,0.31,0.78,2.0
1758075765.71181,1758075765.63193,0.0,0.0,0.0,0.17189,0.57296,-0.97403,10.01,0.32,0.79,2.0
1758075765.71695,1758075765.64193,0.0,0.0,0.0,0.17189,0.80214,-0.85944,10.01,0.32,0.79,2.0
1758075765.71995,1758075765.65193,0.0,0.0,0.0,0.40107,0.74485,-0.74485,9.99,0.34,0.83,2.0
1758075765.72207,1758075765.66193,0.0,0.0,0.0,0.57296,0.85944,-0.57296,9.99,0.34,0.83,2.0
1758075765.72349,1758075765.67193,0.0,0.0,0.0,0.51566,0.97403,-0.45837,9.98,0.37,0.86,2.0
1758075765.72561,1758075765.68193,0.0,0.0,0.0,0.68755,0.74485,-0.40107,9.96,0.36,0.88,2.0
1758075765.72617,1758075765.69193,0.0,0.0,0.0,0.57296,0.57296,-0.34377,9.96,0.36,0.88,2.0
1758075765.72736,1758075765.70193,0.0,0.0,0.0,0.80214,0.40107,-0.17189,9.92,0.37,0.9,2.0
1758075765.72886,1758075765.71193,0.0,0.0,0.0,0.85944,0.34377,-0.17189,9.92,0.37,0.9,2.0
1758075765.73124,1758075765.72193,0.0,0.0,0.0,0.85944,0.40107,-0.17189,9.91,0.35,0.89,2.0
1758075765.73232,1758075765.73193,0.0,0.0,0.0,1.03132,0.40107,-0.17189,9.91,0.35,0.89,2.0
1758075765.73307,1758075765.74193,0.0,0.0,0.0,1.14592,0.51566,-0.22918,9.94,0.32,0.87,2.0
1758075765.74141,1758075765.75193,0.0,0.0,0.0,1.3751,0.51566,-0.17189,10.0,0.32,0.84,2.0
1758075765.74209,1758075765.76193,0.0,0.0,0.0,1.3751,0.80214,-0.17189,10.0,0.32,0.84,2.0
1758075765.7604,1758075765.77193,0.0,0.0,0.0,1.48969,0.97403,-0.11459,10.03,0.33,0.82,2.0
1758075765.76211,1758075765.78193,0.0,0.0,0.0,1.71887,0.85944,0.0,10.03,0.33,0.82,2.0
1758075765.77794,1758075765.79193,0.0,0.0,0.0,1.83346,0.68755,0.0,9.97,0.31,0.83,2.0
1758075765.78218,1758075765.80193,0.0,0.0,0.0,2.11994,0.40107,-0.0573,9.97,0.31,0.83,2.0
1758075765.80194,1758075765.81193,0.0,0.0,0.0,2.29183,0.11459,-0.0573,9.83,0.28,0.83,2.0
1758075765.80297,1758075765.82193,0.0,0.0,0.0,2.63561,-0.45837,-0.22918,9.7,0.24,0.86,2.0
1758075765.82201,1758075765.83193,0.0,0.0,0.0,2.86479,-0.74485,-0.34377,9.7,0.24,0.86,2.0
1758075765.82482,1758075765.84193,0.0,0.0,0.0,3.03668,-1.14592,-0.51566,9.69,0.24,0.89,2.0
1758075765.83983,1758075765.85193,0.0,0.0,0.0,3.32316,-1.48969,-0.80214,9.69,0.24,0.89,2.0
1758075765.8418,1758075765.86193,0.0,0.0,0.0,3.60963,-1.66158,-0.85944,9.75,0.24,0.91,2.0
1758075765.86175,1758075765.87193,0.0,0.0,0.0,3.95341,-1.66158,-0.85944,9.75,0.24,0.91,2.0
1758075765.86619,1758075765.88193,0.0,0.0,0.0,4.1253,-1.71887,-0.85944,9.83,0.26,0.91,2.0
1758075765.88188,1758075765.89193,0.0,0.0,0.0,4.35448,-1.77617,-0.80214,9.87,0.26,0.89,2.0
1758075765.88382,1758075765.90193,0.0,0.0,0.0,4.58366,-2.11994,-0.74485,9.87,0.26,0.89,2.0
1758075765.90198,1758075765.91193,0.0,0.0,0.0,4.87014,-2.57831,-0.68755,9.83,0.28,0.93,2.0
1758075765.90321,1758075765.92193,0.0,0.0,0.0,4.81285,-3.03668,-0.57296,9.83,0.28,0.93,2.0
1758075765.92199,1758075765.93193,0.0,0.0,0.0,5.15662,-3.89611,-0.74485,9.83,0.29,0.94,2.0
1758075765.92681,1758075765.94193,0.0,0.0,0.0,5.27121,-4.0107,-0.68755,9.83,0.29,0.94,2.0
1758075765.94449,1758075765.95193,0.0,0.0,0.0,5.27121,-3.95341,-0.80214,9.92,0.29,0.91,2.0
1758075765.95139,1758075765.96193,0.0,0.0,0.0,5.72958,-3.89611,-0.85944,9.92,0.29,0.91,2.0
1758075765.99725,1758075765.97193,0.0,0.0,0.0,5.90147,-3.09397,-0.97403,10.01,0.3,0.9,2.0
1758075766.04244,1758075765.98193,0.0,0.0,0.0,6.18794,-3.20856,-0.97403,9.97,0.29,0.89,2.0
1758075766.04705,1758075765.99193,0.0,0.0,0.0,6.53172,-3.09397,-0.85944,9.97,0.29,0.89,2.0
1758075766.10239,1758075766.00193,0.0,0.0,0.0,6.99009,-3.03668,-0.80214,9.93,0.24,0.89,2.0
1758075766.13735,1758075766.01193,0.0,0.0,0.0,7.67763,-3.26586,-0.51566,9.93,0.24,0.89,2.0
1758075766.35188,1758075766.02193,0.0,0.0,0.0,8.25059,-3.09397,-0.34377,10.02,0.2,0.89,2.0
1758075766.35225,1758075766.03193,0.0,0.0,0.0,8.70896,-2.86479,-0.22918,10.02,0.2,0.89,2.0
1758075766.35792,1758075766.04193,0.0,0.0,0.0,9.62569,-2.23454,-0.17189,10.18,0.18,0.85,2.0
1758075766.38601,1758075766.05193,0.0,0.0,0.0,10.02676,-1.83346,-0.11459,10.25,0.18,0.87,2.0
1758075766.38673,1758075766.06193,0.0,0.0,0.0,10.54242,-1.43239,-0.11459,10.25,0.18,0.87,2.0
1758075766.38864,1758075766.07193,0.0,0.0,0.0,11.11538,-1.08862,-0.22918,10.2,0.18,0.88,2.0
1758075766.39216,1758075766.08193,0.0,0.0,0.0,11.63104,-0.68755,-0.22918,10.2,0.18,0.88,2.0
1758075766.3929,1758075766.09193,0.0,0.0,0.0,12.37589,-0.45837,-0.17189,10.12,0.19,0.88,2.0
1758075766.39799,1758075766.10193,0.0,0.0,0.0,12.71966,-0.0573,-0.17189,10.12,0.19,0.88,2.0
1758075766.40195,1758075766.11193,0.0,0.0,0.0,13.23533,0.17189,-0.0573,10.08,0.22,0.88,2.0
1758075766.40257,1758075766.12193,0.0,0.0,0.0,14.03747,0.40107,0.11459,10.05,0.24,0.88,2.0
1758075766.40737,1758075766.13193,0.0,0.0,0.0,14.49583,0.45837,0.34377,10.05,0.24,0.88,2.0
1758075766.40955,1758075766.14193,0.0,0.0,0.0,14.9542,0.51566,0.51566,10.04,0.25,0.88,2.0
1758075766.41237,1758075766.15193,0.0,0.0,0.0,15.41257,0.40107,0.68755,10.04,0.25,0.88,2.0
1758075766.41347,1758075766.16193,0.0,0.0,0.0,15.98552,0.80214,0.80214,10.06,0.26,0.9,2.0
1758075766.41631,1758075766.17193,0.0,0.0,0.0,16.272,1.3751,0.85944,10.06,0.26,0.9,2.0
1758075766.41693,1758075766.18193,0.0,0.0,0.0,16.61578,2.11994,0.74485,10.11,0.28,0.89,2.0
1758075766.4221,1758075766.19193,0.0,0.0,0.0,16.67307,2.92208,0.80214,10.11,0.28,0.89,2.0
1758075766.42392,1758075766.20193,0.0,0.0,0.0,16.84496,3.49504,0.80214,10.09,0.32,0.88,2.0
1758075766.42673,1758075766.21193,0.0,0.0,0.0,16.90226,3.60963,0.80214,9.98,0.36,0.84,2.0
1758075766.43598,1758075766.22193,0.0,0.0,0.0,17.13144,3.66693,0.74485,9.98,0.36,0.84,2.0
1758075766.43653,1758075766.23193,0.0,0.0,0.0,17.24603,3.55234,0.51566,9.93,0.38,0.83,2.0
1758075766.44189,1758075766.24193,0.0,0.0,0.0,17.36062,3.09397,0.51566,9.93,0.38,0.83,2.0
1758075766.44238,1758075766.25193,0.0,0.0,0.0,17.53251,2.6929,0.40107,9.86,0.38,0.81,2.0
1758075766.4469,1758075766.26193,0.0,0.0,0.0,17.6471,2.06265,0.22918,9.86,0.38,0.81,2.0
1758075766.44726,1758075766.27193,0.0,0.0,0.0,17.87628,0.74485,0.17189,9.77,0.35,0.82,2.0
1758075766.45207,1758075766.28193,0.0,0.0,0.0,18.22006,-0.11459,0.17189,9.76,0.37,0.8,2.0
1758075766.45248,1758075766.29193,0.0,0.0,0.0,18.33465,-0.80214,0.11459,9.76,0.37,0.8,2.0
1758075766.48282,1758075766.30193,0.0,0.0,0.0,18.56383,-0.97403,0.11459,9.84,0.41,0.82,2.0
1758075766.48595,1758075766.31193,0.0,0.0,0.0,18.73572,-0.74485,0.11459,9.84,0.41,0.82,2.0
1758075766.48746,1758075766.32193,0.0,0.0,0.0,18.9649,-0.34377,0.0,9.92,0.44,0.81,2.0
1758075766.48772,1758075766.33193,0.0,0.0,0.0,19.07949,-0.11459,-0.0573,9.92,0.44,0.81,2.0
1758075766.49224,1758075766.34193,0.0,0.0,0.0,19.19409,-0.11459,-0.11459,9.91,0.46,0.78,2.0
1758075766.49464,1758075766.35193,0.0,0.0,0.0,19.25138,-0.57296,-0.22918,9.81,0.46,0.76,2.0
1758075766.49718,1758075766.36193,0.0,0.0,0.0,19.36597,-0.97403,-0.34377,9.81,0.46,0.76,2.0
1758075766.50141,1758075766.37193,0.0,0.0,0.0,19.48057,-1.14592,-0.34377,9.78,0.48,0.77,2.0
1758075766.50269,1758075766.38193,0.0,0.0,0.0,19.42327,-0.74485,-0.34377,9.78,0.48,0.77,2.0
1758075766.50688,1758075766.39193,0.0,0.0,0.0,19.36597,-0.34377,-0.17189,9.91,0.53,0.79,2.0
1758075766.50806,1758075766.40193,0.0,0.0,0.0,19.13679,-0.68755,-0.17189,9.91,0.53,0.79,2.0
1758075766.51439,1758075766.41193,0.0,0.0,0.0,18.85031,-1.14592,-0.11459,9.94,0.61,0.77,2.0
1758075766.51766,1758075766.42193,0.0,0.0,0.0,18.62113,-1.14592,-0.0573,9.94,0.61,0.77,2.0
1758075766.52193,1758075766.43193,0.0,0.0,0.0,18.10547,-0.85944,0.11459,10.05,0.66,0.71,2.0
1758075766.52291,1758075766.44193,0.0,0.0,0.0,17.81899,-0.34377,0.17189,10.14,0.69,0.73,2.0
1758075766.52716,1758075766.45193,0.0,0.0,0.0,17.58981,0.45837,0.22918,10.14,0.69,0.73,2.0
1758075766.52755,1758075766.46193,0.0,0.0,0.0,17.36062,2.11994,0.45837,10.18,0.68,0.76,2.0
1758075766.53373,1758075766.47193,0.0,0.0,0.0,17.30333,2.97938,0.45837,10.18,0.68,0.76,2.0
1758075766.53766,1758075766.48193,0.0,0.0,0.0,17.18874,3.72423,0.45837,10.1,0.64,0.78,2.0
1758075766.53813,1758075766.49193,0.0,0.0,0.0,17.13144,4.52637,0.51566,10.1,0.64,0.78,2.0
1758075766.54238,1758075766.50193,0.0,0.0,0.0,17.01685,6.24524,0.45837,10.1,0.64,0.77,2.0
1758075766.54399,1758075766.51193,0.0,0.0,0.0,17.01685,6.70361,0.57296,10.11,0.63,0.79,2.0
1758075766.54701,1758075766.52193,0.0,0.0,0.0,16.90226,6.24524,0.57296,10.11,0.63,0.79,2.0
1758075766.54738,1758075766.53193,0.0,0.0,0.0,16.84496,5.32851,0.57296,9.93,0.66,0.82,2.0
1758075766.55242,1758075766.54193,0.0,0.0,0.0,16.67307,4.87014,0.57296,9.93,0.66,0.82,2.0
1758075766.55419,1758075766.55193,0.0,0.0,0.0,16.61578,4.64096,0.57296,9.97,0.67,0.83,2.0
1758075766.55665,1758075766.56193,0.0,0.0,0.0,16.38659,4.64096,0.68755,9.97,0.67,0.83,2.0
1758075766.55737,1758075766.57193,0.0,0.0,0.0,16.3293,4.64096,0.68755,9.98,0.69,0.89,2.0
1758075766.56183,1758075766.58193,0.0,0.0,0.0,15.98552,3.89611,0.57296,9.9,0.7,0.91,2.0
1758075766.57755,1758075766.59193,0.0,0.0,0.0,15.92823,2.63561,0.57296,9.9,0.7,0.91,2.0
1758075766.58162,1758075766.60193,0.0,0.0,0.0,15.64175,1.03132,0.45837,9.71,0.72,0.88,2.0
1758075766.5975,1758075766.61193,0.0,0.0,0.0,15.29797,-0.34377,0.45837,9.71,0.72,0.88,2.0
1758075766.60157,1758075766.62193,0.0,0.0,0.0,14.9542,-0.74485,0.40107,9.71,0.75,0.84,2.0
1758075766.61713,1758075766.63193,0.0,0.0,0.0,14.72501,-0.22918,0.17189,9.71,0.75,0.84,2.0
1758075766.62179,1758075766.64193,0.0,0.0,0.0,14.49583,0.57296,0.17189,9.9,0.78,0.88,2.0
1758075766.6376,1758075766.65193,0.0,0.0,0.0,14.43854,2.06265,0.22918,9.9,0.78,0.88,2.0
1758075766.64168,1758075766.66193,0.0,0.0,0.0,14.20935,3.49504,0.17189,10.06,0.79,0.9,2.0
1758075766.65756,1758075766.67193,0.0,0.0,0.0,14.03747,3.26586,0.17189,9.97,0.78,0.9,2.0
1758075766.6616,1758075766.68193,0.0,0.0,0.0,13.80828,2.46372,0.17189,9.97,0.78,0.9,2.0
1758075766.67756,1758075766.69193,0.0,0.0,0.0,13.23533,1.43239,0.0573,9.87,0.79,0.88,2.0
1758075766.68162,1758075766.70193,0.0,0.0,0.0,12.89155,1.3751,0.0,9.87,0.79,0.88,2.0
1758075766.69759,1758075766.71193,0.0,0.0,0.0,12.60507,1.08862,0.0,9.95,0.81,0.9,2.0
1758075766.70173,1758075766.72193,0.0,0.0,0.0,12.08941,0.51566,0.0,9.95,0.81,0.9,2.0
1758075766.71763,1758075766.73193,0.0,0.0,0.0,11.51645,-0.17189,0.0573,9.93,0.84,0.92,2.0
1758075766.72165,1758075766.74193,0.0,0.0,0.0,11.11538,-0.51566,0.0573,9.91,0.84,0.93,2.0
1758075766.73727,1758075766.75192,0.0,0.0,0.0,10.8862,-0.51566,0.0,9.91,0.84,0.93,2.0
1758075766.74168,1758075766.76192,0.0,0.0,0.0,10.54242,-0.17189,0.0573,9.95,0.81,0.97,2.0
1758075766.75761,1758075766.77192,0.0,0.0,0.0,10.08406,0.40107,0.0573,9.95,0.81,0.97,2.0
1758075766.76178,1758075766.78192,0.0,0.0,0.0,10.02676,0.51566,0.0573,9.98,0.78,1.01,2.0
1758075766.77759,1758075766.79192,0.0,0.0,0.0,9.68299,0.68755,0.0573,9.98,0.78,1.01,2.0
1758075766.78174,1758075766.80192,0.0,0.0,0.0,9.68299,0.57296,0.0573,9.96,0.73,1.02,2.0
1758075766.80192,1758075766.81192,0.0,0.0,0.0,9.33921,0.51566,0.22918,9.96,0.68,1.0,2.0
1758075766.80391,1758075766.82192,0.0,0.0,0.0,9.22462,0.57296,0.40107,9.96,0.68,1.0,2.0
1758075766.82145,1758075766.83192,0.0,0.0,0.0,9.11003,0.85944,0.51566,9.99,0.64,0.99,2.0
1758075766.82277,1758075766.84192,0.0,0.0,0.0,8.93814,1.20321,0.68755,9.99,0.64,0.99,2.0
1758075766.8374,1758075766.85192,0.0,0.0,0.0,8.88085,1.77617,0.80214,10.05,0.6,1.03,2.0
1758075766.84177,1758075766.86192,0.0,0.0,0.0,8.88085,2.63561,0.85944,10.05,0.6,1.03,2.0
1758075766.85762,1758075766.87192,0.0,0.0,0.0,8.99544,3.32316,1.03132,10.16,0.56,1.06,2.0
1758075766.86182,1758075766.88192,0.0,0.0,0.0,8.88085,3.66693,1.08862,10.16,0.56,1.06,2.0
1758075766.87744,1758075766.89192,0.0,0.0,0.0,8.76626,3.89611,1.03132,10.17,0.5,1.1,2.0
1758075766.89471,1758075766.90192,0.0,0.0,0.0,8.70896,4.18259,0.97403,10.12,0.49,1.12,2.0
1758075766.89721,1758075766.91192,0.0,0.0,0.0,8.88085,4.98473,1.03132,10.12,0.49,1.12,2.0
1758075766.91242,1758075766.92192,0.0,0.0,0.0,8.99544,6.99009,0.85944,10.14,0.45,1.16,2.0
1758075766.92217,1758075766.93192,0.0,0.0,0.0,9.22462,8.25059,0.80214,10.14,0.45,1.16,2.0
1758075766.92247,1758075766.94192,0.0,0.0,0.0,9.4538,8.65166,0.74485,10.1,0.39,1.23,2.0
1758075766.94184,1758075766.95192,0.0,0.0,0.0,9.68299,8.136,0.68755,10.1,0.39,1.23,2.0
1758075766.94455,1758075766.96192,0.0,0.0,0.0,9.91217,6.24524,0.57296,9.91,0.37,1.26,2.0
1758075766.96122,1758075766.97192,0.0,0.0,0.0,10.31324,5.72958,0.51566,9.86,0.38,1.27,2.0
1758075766.96225,1758075766.98192,0.0,0.0,0.0,10.59972,5.78687,0.45837,9.86,0.38,1.27,2.0
1758075766.97757,1758075766.99192,0.0,0.0,0.0,10.94349,6.70361,0.68755,10.07,0.37,1.33,2.0
1758075766.98697,1758075767.00192,0.0,0.0,0.0,11.74564,8.65166,0.68755,10.07,0.37,1.33,2.0
1758075767.00148,1758075767.01192,0.0,0.0,0.0,12.43318,10.37054,0.74485,10.19,0.35,1.4,2.0
1758075767.00669,1758075767.02192,0.0,0.0,0.0,13.06344,11.57375,0.68755,10.19,0.35,1.4,2.0
1758075767.02179,1758075767.03192,0.0,0.0,0.0,13.98017,11.45916,0.40107,10.07,0.29,1.41,2.0
1758075767.04701,1758075767.04192,0.0,0.0,0.0,15.06879,10.37054,0.0,9.82,0.27,1.43,2.0
1758075767.05244,1758075767.05192,0.0,0.0,0.0,15.75634,10.25595,-0.34377,9.82,0.27,1.43,2.0
1758075767.0568,1758075767.06192,0.0,0.0,0.0,16.61578,9.68299,-0.80214,9.79,0.19,1.48,2.0
1758075767.05748,1758075767.07192,0.0,0.0,0.0,18.44924,7.84952,-1.20321,9.79,0.19,1.48,2.0
1758075767.06264,1758075767.08192,0.0,0.0,0.0,19.99623,3.72423,-1.66158,9.54,0.08,1.49,2.0
1758075767.0778,1758075767.09192,0.0,0.0,0.0,21.6578,1.3178,-2.11994,9.54,0.08,1.49,2.0
1758075767.08241,1758075767.10192,0.0,0.0,0.0,23.37668,0.17189,-2.63561,9.65,-0.02,1.53,2.0
1758075767.09782,1758075767.11192,0.0,0.0,0.0,25.55392,0.51566,-3.32316,9.65,-0.02,1.53,2.0
1758075767.12141,1758075767.12192,0.0,0.0,0.0,27.33009,0.17189,-3.66693,9.98,-0.05,1.55,2.0
1758075767.1224,1758075767.13192,0.0,0.0,0.0,29.22085,-0.85944,-3.89611,9.92,-0.02,1.67,2.0
1758075767.12384,1758075767.14192,0.0,0.0,0.0,31.2262,-1.60428,-4.23989,9.92,-0.02,1.67,2.0
1758075767.14061,1758075767.15192,0.0,0.0,0.0,34.95043,-1.3178,-5.15662,10.21,-0.03,1.86,2.0
1758075767.14346,1758075767.16192,0.0,0.0,0.0,37.75792,-0.40107,-6.35983,10.21,-0.03,1.86,2.0
1758075767.16165,1758075767.17192,0.0,0.0,0.0,41.13837,0.22918,-7.67763,10.91,-0.22,2.05,2.0
1758075767.16307,1758075767.18192,0.0,0.0,0.0,44.748,0.68755,-9.39651,10.91,-0.22,2.05,2.0
1758075767.18271,1758075767.19192,0.0,0.0,0.0,50.82136,2.23454,-11.91752,11.26,-0.49,1.98,2.0
1758075767.186,1758075767.20192,0.0,0.0,0.0,54.48829,4.98473,-12.54778,10.89,-0.46,1.41,2.0
1758075767.20165,1758075767.21192,0.0,0.0,0.0,57.46767,9.28192,-11.91752,10.89,-0.46,1.41,2.0
1758075767.20356,1758075767.22192,0.0,0.0,0.0,59.24384,14.9542,-9.96947,9.74,0.19,0.64,2.0
1758075767.21888,1758075767.23192,0.0,0.0,0.0,59.53032,25.21014,-4.69825,9.74,0.19,0.64,2.0
1758075767.23571,1758075767.24192,0.0,0.0,0.0,58.55629,29.56462,0.17189,8.86,1.09,0.27,2.0
1758075767.23822,1758075767.25192,0.0,0.0,0.0,57.46767,32.6013,5.21392,8.86,1.09,0.27,2.0
1758075767.2557,1758075767.26192,0.0,0.0,0.0,54.60288,34.0337,12.60507,8.63,1.77,0.34,2.0
1758075767.25822,1758075767.27192,0.0,0.0,0.0,48.41494,32.77319,16.10011,9.33,2.37,0.13,2.0
1758075767.27537,1758075767.28192,0.0,0.0,0.0,43.54479,32.20023,18.90761,9.33,2.37,0.13,2.0
1758075767.27818,1758075767.29192,0.0,0.0,0.0,37.98711,31.85646,19.53786,10.45,3.0,-0.07,2.0
1758075767.29545,1758075767.30192,0.0,0.0,0.0,29.8511,32.37212,16.90226,10.45,3.0,-0.07,2.0
1758075767.2982,1758075767.31192,0.0,0.0,0.0,25.09555,35.00772,14.20935,11.08,3.36,-0.07,2.0
1758075767.3137,1758075767.32192,0.0,0.0,0.0,20.79837,33.74722,10.25595,11.08,3.36,-0.07,2.0
1758075767.31575,1758075767.33192,0.0,0.0,0.0,17.36062,31.91375,6.13065,10.6,3.24,0.09,2.0
1758075767.3315,1758075767.34192,0.0,0.0,0.0,13.34992,39.13302,1.66158,10.6,3.24,0.38,2.0
1758075767.33311,1758075767.35192,0.0,0.0,0.0,11.51645,40.7373,-0.57296,10.52,2.75,0.38,2.0
1758075767.34796,1758075767.36192,0.0,0.0,0.0,10.59972,39.4768,-2.34913,9.7,2.11,0.74,2.0
1758075767.36396,1758075767.37192,0.0,0.0,0.0,9.85487,37.35685,-3.32316,9.7,2.11,0.74,2.0
1758075767.36523,1758075767.38192,0.0,0.0,0.0,8.93814,29.96569,-3.72423,9.24,1.63,1.08,2.0
1758075767.38171,1758075767.39192,0.0,0.0,0.0,8.59437,22.23076,-3.55234,9.24,1.63,1.08,2.0
1758075767.38293,1758075767.40192,0.0,0.0,0.0,8.88085,11.97482,-3.09397,8.62,1.35,1.19,2.0
1758075767.39774,1758075767.41192,0.0,0.0,0.0,8.76626,4.1253,-2.23454,8.62,1.35,1.19,2.0
1758075767.41381,1758075767.42192,0.0,0.0,0.0,8.59437,-3.38045,-0.74485,8.51,1.3,1.29,2.0
1758075767.41613,1758075767.43192,0.0,0.0,0.0,8.25059,-5.90147,0.34377,8.97,1.46,1.4,2.0
1758075767.43183,1758075767.44192,0.0,0.0,0.0,7.44845,-5.27121,1.14592,8.97,1.46,1.4,2.0
1758075767.43399,1758075767.45192,0.0,0.0,0.0,6.70361,-2.23454,2.29183,9.62,1.73,1.5,2.0
1758075767.44963,1758075767.46192,0.0,0.0,0.0,5.50039,3.55234,2.92208,9.62,1.73,1.5,2.0
1758075767.45235,1758075767.47192,0.0,0.0,0.0,4.46907,6.35983,2.86479,9.98,1.89,1.68,2.0
1758075767.46959,1758075767.48192,0.0,0.0,0.0,3.38045,8.30789,2.57831,9.98,1.89,1.68,2.0
1758075767.47231,1758075767.49192,0.0,0.0,0.0,1.66158,10.8862,2.63561,9.95,1.94,1.53,2.0
1758075767.48979,1758075767.50192,0.0,0.0,0.0,0.80214,12.71966,3.09397,9.93,1.87,1.47,2.0
1758075767.50589,1758075767.51192,0.0,0.0,0.0,0.0,14.38124,3.83882,9.93,1.87,1.47,2.0
1758075767.50695,1758075767.52192,0.0,0.0,0.0,-0.85944,15.75634,4.64096,9.88,1.85,1.53,2.0
1758075767.52183,1758075767.53192,0.0,0.0,0.0,-2.63561,16.04282,5.90147,9.88,1.85,1.53,2.0
1758075767.52407,1758075767.54192,0.0,0.0,0.0,-3.83882,15.0115,6.70361,9.67,1.97,1.52,2.0
1758075767.53911,1758075767.55192,0.0,0.0,0.0,-4.98473,12.49048,7.33386,9.67,1.97,1.52,2.0
1758075767.55615,1758075767.56192,0.0,0.0,0.0,-5.90147,8.70896,7.84952,9.24,2.09,1.36,2.0
1758075767.5573,1758075767.57192,0.0,0.0,0.0,-7.04738,3.66693,8.59437,9.05,2.13,1.29,2.0
1758075767.57211,1758075767.58192,0.0,0.0,0.0,-7.16197,-1.43239,8.59437,9.05,2.13,1.29,2.0
1758075767.57385,1758075767.59192,0.0,0.0,0.0,-7.04738,-6.8182,8.42248,8.8,2.14,1.18,2.0
1758075767.58912,1758075767.60192,0.0,0.0,0.0,-6.7609,-9.11003,7.96411,8.8,2.14,1.18,2.0
1758075767.59259,1758075767.61192,0.0,0.0,0.0,-6.07335,-2.7502,8.02141,9.58,2.19,1.1,2.0
1758075767.60818,1758075767.62192,0.0,0.0,0.0,-4.81285,7.39116,8.70896,9.58,2.19,1.1,2.0
1758075767.62482,1758075767.63192,0.0,0.0,0.0,-4.52637,0.17189,7.33386,10.2,2.25,1.29,2.0
1758075767.62767,1758075767.64192,0.0,0.0,0.0,-5.95876,-15.69904,4.81285,10.2,2.25,1.29,2.0
1758075767.64299,1758075767.65192,0.0,0.0,0.0,-8.99544,-18.79302,0.17189,7.99,2.57,1.15,2.0
1758075767.64489,1758075767.66192,0.0,0.0,0.0,-9.91217,-20.68378,-1.08862,9.02,2.67,0.62,2.0
1758075767.66024,1758075767.67192,0.0,0.0,0.0,-9.91217,-23.0329,-0.57296,9.02,2.67,0.62,2.0
1758075767.67595,1758075767.68192,0.0,0.0,0.0,-9.96947,-21.7151,1.66158,8.79,2.39,0.98,2.0
1758075767.67835,1758075767.69192,0.0,0.0,0.0,-7.39116,-18.50654,4.29718,8.79,2.39,0.98,2.0
1758075767.69292,1758075767.70192,0.0,0.0,0.0,-5.61499,-20.16812,6.24524,8.88,1.96,1.2,2.0
1758075767.69729,1758075767.71192,0.0,0.0,0.0,-3.72423,-20.62648,7.96411,8.88,1.96,1.2,2.0
1758075767.71289,1758075767.72192,0.0,0.0,0.0,0.0,-19.25138,11.22997,9.16,1.48,1.6,2.0
1758075767.71488,1758075767.73192,0.0,0.0,0.0,3.66693,-20.45459,12.60507,10.31,1.01,2.69,2.0
1758075767.73213,1758075767.74192,0.0,0.0,0.0,8.99544,-31.45539,11.45916,10.31,1.01,2.69,2.0
1758075767.73399,1758075767.75192,0.0,0.0,0.0,14.49583,-46.52417,5.21392,11.46,-0.36,4.55,2.0
1758075767.75228,1758075767.76192,0.0,0.0,0.0,19.59516,-53.62885,-11.22997,11.46,-0.36,4.55,2.0
1758075767.75724,1758075767.77192,0.0,0.0,0.0,22.40265,-34.95043,-15.92823,14.79,-1.83,2.18,2.0
1758075767.77229,1758075767.78192,0.0,0.0,0.0,24.29341,-21.42862,-13.5218,14.79,-1.83,2.18,2.0
1758075767.77321,1758075767.79192,0.0,0.0,0.0,25.09555,-18.50654,-7.04738,12.46,-0.28,0.8,2.0
1758075767.78812,1758075767.80192,0.0,0.0,0.0,25.26744,-16.04282,6.24524,8.55,1.71,1.59,2.0
1758075767.80639,1758075767.81192,0.0,0.0,0.0,23.66316,-11.86023,15.98552,8.55,1.71,1.59,2.0
1758075767.80677,1758075767.82192,0.0,0.0,0.0,21.94428,-12.14671,25.21014,8.16,2.35,1.31,2.0
1758075767.8223,1758075767.83192,0.0,0.0,0.0,20.62648,-18.33465,32.6013,8.16,2.35,1.31,2.0
1758075767.82359,1758075767.84192,0.0,0.0,0.0,18.44924,-27.96034,37.64333,8.07,1.96,1.94,2.0
1758075767.83831,1758075767.85192,0.0,0.0,0.0,16.73037,-32.42941,37.12767,8.07,1.96,1.94,2.0
1758075767.85405,1758075767.86192,0.0,0.0,0.0,14.66772,-33.46074,34.09099,9.62,0.95,1.98,2.0
1758075767.85755,1758075767.87192,0.0,0.0,0.0,12.14671,-33.74722,29.27814,9.62,0.95,1.98,2.0
1758075767.87384,1758075767.88192,0.0,0.0,0.0,8.136,-33.63263,19.59516,10.39,-0.21,2.12,2.0
1758075767.87771,1758075767.89192,0.0,0.0,0.0,5.32851,-33.68992,13.12073,9.6,-1.14,1.53,2.0
1758075767.89386,1758075767.90192,0.0,0.0,0.0,2.86479,-30.76784,6.53172,9.6,-1.14,1.53,2.0
1758075767.89747,1758075767.91192,0.0,0.0,0.0,0.85944,-25.21014,-0.34377,9.41,-1.69,0.95,2.0
1758075767.91387,1758075767.92192,0.0,0.0,0.0,1.66158,-20.79837,-2.57831,9.41,-1.69,0.95,2.0
1758075767.9159,1758075767.93192,0.0,0.0,0.0,3.09397,-13.34992,-3.95341,9.76,-1.93,0.6,2.0
1758075767.93109,1758075767.94192,0.0,0.0,0.0,5.61499,-5.55769,-4.23989,9.76,-1.93,0.6,2.0
1758075767.93257,1758075767.95192,0.0,0.0,0.0,11.34457,4.92744,-3.55234,10.83,-1.7,0.52,2.0
1758075767.94708,1758075767.96192,0.0,0.0,0.0,16.3293,12.2613,-2.92208,11.42,-1.43,0.72,2.0
1758075767.96386,1758075767.97192,0.0,0.0,0.0,21.48592,19.25138,-1.77617,11.42,-1.43,0.72,2.0
1758075767.96661,1758075767.98192,0.0,0.0,0.0,26.47065,24.98096,-0.22918,11.44,-1.27,0.73,2.0
1758075767.98212,1758075767.99192,0.0,0.0,0.0,31.79916,30.53865,2.7502,11.44,-1.27,0.73,2.0
1758075767.98326,1758075768.00192,0.0,0.0,0.0,33.46074,31.79916,4.87014,10.86,-1.08,0.54,2.0
1758075767.99996,1758075768.01192,0.0,0.0,0.0,33.9764,31.51268,6.53172,10.86,-1.08,0.54,2.0
1758075768.00089,1758075768.02192,0.0,0.0,0.0,33.51803,30.76784,8.02141,10.46,-0.86,0.68,2.0
1758075768.01746,1758075768.03192,0.0,0.0,0.0,31.51268,28.70519,9.74028,10.13,-0.57,0.54,2.0
1758075768.03396,1758075768.04192,0.0,0.0,0.0,30.30947,27.04361,10.37054,10.13,-0.57,0.54,2.0
1758075768.0383,1758075768.05192,0.0,0.0,0.0,28.87707,24.75178,10.59972,9.7,-0.24,0.62,2.0
1758075768.054,1758075768.06192,0.0,0.0,0.0,27.67386,22.11617,10.54242,9.7,-0.24,0.62,2.0
1758075768.0583,1758075768.07192,0.0,0.0,0.0,26.06958,18.79302,10.08406,9.44,0.04,0.7,2.0
1758075768.07395,1758075768.08192,0.0,0.0,0.0,25.26744,15.98552,9.5684,9.44,0.04,0.7,2.0
1758075768.07567,1758075768.09192,0.0,0.0,0.0,24.92367,13.69369,9.28192,9.24,0.18,0.72,2.0
1758075768.09014,1758075768.10192,0.0,0.0,0.0,24.4653,12.2613,8.76626,9.24,0.18,0.72,2.0
1758075768.09387,1758075768.11192,0.0,0.0,0.0,24.00693,11.34457,8.36518,9.29,0.12,0.66,2.0
1758075768.10948,1758075768.12192,0.0,0.0,0.0,23.60586,10.37054,8.02141,9.38,0.01,0.6,2.0
1758075768.11118,1758075768.13192,0.0,0.0,0.0,22.74642,10.48513,7.67763,9.38,0.01,0.6,2.0
1758075768.13114,1758075768.14192,0.0,0.0,0.0,21.42862,12.77696,7.04738,9.69,-0.07,0.47,2.0
1758075768.13237,1758075768.15192,0.0,0.0,0.0,20.74107,13.34992,6.58902,9.69,-0.07,0.47,2.0
1758075768.1475,1758075768.16192,0.0,0.0,0.0,19.99623,12.77696,6.41713,9.81,-0.07,0.4,2.0
1758075768.16348,1758075768.17192,0.0,0.0,0.0,19.42327,14.09476,5.90147,9.81,-0.07,0.4,2.0
1758075768.16479,1758075768.18192,0.0,0.0,0.0,18.44924,18.50654,4.58366,10.07,-0.04,0.25,2.0
1758075768.17953,1758075768.19192,0.0,0.0,0.0,18.10547,21.6578,3.20856,10.25,0.05,0.1,2.0
1758075768.18072,1758075768.20192,0.0,0.0,0.0,18.10547,24.4653,1.94806,10.25,0.05,0.1,2.0
1758075768.19659,1758075768.21192,0.0,0.0,0.0,18.22006,26.69983,0.11459,10.05,0.13,0.13,2.0
1758075768.21229,1758075768.22192,0.0,0.0,0.0,18.79302,28.76248,-2.11994,10.05,0.13,0.13,2.0
1758075768.2177,1758075768.23192,0.0,0.0,0.0,19.25138,29.56462,-3.60963,9.71,0.14,0.18,2.0
1758075768.2326,1758075768.24192,0.0,0.0,0.0,19.88164,29.9084,-4.81285,9.71,0.14,0.18,2.0
1758075768.23343,1758075768.25192,0.0,0.0,0.0,20.51189,29.73651,-5.50039,9.41,0.12,0.24,2.0
1758075768.24854,1758075768.26192,0.0,0.0,0.0,21.48592,28.01764,-5.84417,9.19,0.01,0.4,2.0
1758075768.25142,1758075768.27192,0.0,0.0,0.0,22.05888,27.1582,-5.72958,9.19,0.01,0.4,2.0
1758075768.26756,1758075768.28192,0.0,0.0,0.0,22.11617,26.24147,-5.32851,9.25,-0.02,0.41,2.0
1758075768.28363,1758075768.29192,0.0,0.0,0.0,22.05888,24.4653,-4.87014,9.25,-0.02,0.41,2.0
1758075768.28532,1758075768.30192,0.0,0.0,0.0,21.37133,20.34,-4.1253,9.2,0.05,0.48,2.0
1758075768.30032,1758075768.31192,0.0,0.0,0.0,20.79837,17.6471,-3.95341,9.2,0.05,0.48,2.0
1758075768.30149,1758075768.32192,0.0,0.0,0.0,20.34,14.15206,-3.60963,9.25,0.2,0.62,2.0
1758075768.31664,1758075768.33192,0.0,0.0,0.0,19.53786,6.58902,-3.38045,9.25,0.2,0.62,2.0
1758075768.33264,1758075768.34192,0.0,0.0,0.0,19.36597,0.97403,-3.66693,9.04,0.31,0.68,2.0
1758075768.33357,1758075768.35192,0.0,0.0,0.0,19.48057,-4.46907,-4.29718,9.02,0.36,0.63,2.0
1758075768.34821,1758075768.36192,0.0,0.0,0.0,20.22541,-11.63104,-4.87014,9.02,0.36,0.63,2.0
1758075768.36463,1758075768.37192,0.0,0.0,0.0,21.08485,-25.38203,-7.10468,8.7,0.32,0.41,2.0
1758075768.3656,1758075768.38192,0.0,0.0,0.0,21.42862,-31.28349,-8.36518,8.7,0.32,0.41,2.0
1758075768.38142,1758075768.39192,0.0,0.0,0.0,22.34536,-30.93972,-10.8289,9.18,0.07,0.72,2.0
1758075768.38422,1758075768.40192,0.0,0.0,0.0,23.60586,-27.2155,-11.80293,9.18,0.07,0.72,2.0
1758075768.40048,1758075768.41192,0.0,0.0,0.0,26.69983,-28.99167,-9.11003,11.72,-0.31,3.7,2.0
1758075768.40218,1758075768.42192,0.0,0.0,0.0,27.84575,-27.44468,-4.23989,14.51,0.4,4.95,2.0
1758075768.41768,1758075768.43192,0.0,0.0,0.0,26.64254,-19.19409,2.00535,14.51,0.4,4.95,2.0
1758075768.43464,1758075768.44192,0.0,0.0,0.0,24.12152,-11.11538,7.10468,16.86,1.62,2.8,2.0
1758075768.43585,1758075768.45192,0.0,0.0,0.0,20.85567,-17.36062,11.34457,16.86,1.62,2.8,2.0
1758075768.45117,1758075768.46192,0.0,0.0,0.0,18.56383,-26.64254,9.39651,12.88,1.19,1.59,2.0
1758075768.45241,1758075768.47192,0.0,0.0,0.0,19.07949,-42.74266,8.93814,12.88,1.19,1.59,2.0
1758075768.46736,1758075768.48192,0.0,0.0,0.0,19.19409,-52.71212,6.47442,9.62,-0.2,1.69,2.0
1758075768.48367,1758075768.49192,0.0,0.0,0.0,23.72045,-53.97263,5.27121,10.26,-1.27,2.46,2.0
1758075768.48463,1758075768.50192,0.0,0.0,0.0,27.10091,-48.64412,4.52637,10.26,-1.27,2.46,2.0
1758075768.49972,1758075768.51192,0.0,0.0,0.0,31.74186,-45.83662,5.61499,10.6,-1.24,3.12,2.0
1758075768.50064,1758075768.52192,0.0,0.0,0.0,38.50277,-44.23235,8.42248,10.6,-1.24,3.12,2.0
1758075768.51669,1758075768.53192,0.0,0.0,0.0,43.02913,-42.91454,9.91217,9.35,-0.65,3.35,2.0
1758075768.53273,1758075768.54192,0.0,0.0,0.0,47.44091,-41.99781,11.80293,9.35,-0.65,3.35,2.0
1758075768.53474,1758075768.55192,0.0,0.0,0.0,51.16513,-38.84654,14.03747,8.46,0.11,2.85,2.0
1758075768.54941,1758075768.56192,0.0,0.0,0.0,55.29043,-29.50733,15.58445,8.46,0.11,2.85,2.0
1758075768.55106,1758075768.57192,0.0,0.0,0.0,56.89471,-22.34536,15.75634,8.5,0.64,2.31,2.0
1758075768.5667,1758075768.58192,0.0,0.0,0.0,57.58226,-14.78231,15.46986,8.59,0.95,1.76,2.0
1758075768.58236,1758075768.59192,0.0,0.0,0.0,57.81144,-6.24524,15.06879,8.59,0.95,1.76,2.0
1758075768.58439,1758075768.60192,0.0,0.0,0.0,56.20716,6.8182,13.69369,9.05,1.09,1.3,2.0
1758075768.59978,1758075768.61192,0.0,0.0,0.0,54.14451,15.92823,11.91752,9.05,1.09,1.3,2.0
1758075768.60063,1758075768.62192,0.0,0.0,0.0,51.50891,25.15285,10.65701,9.79,1.34,1.05,2.0
1758075768.61665,1758075768.63192,0.0,0.0,0.0,48.70141,34.77854,9.11003,9.79,1.34,1.05,2.0
1758075768.63262,1758075768.64192,0.0,0.0,0.0,44.8053,46.63877,7.50575,10.65,1.67,0.96,2.0
1758075768.63366,1758075768.65192,0.0,0.0,0.0,42.34158,53.34238,6.70361,10.84,1.93,0.83,2.0
1758075768.64866,1758075768.66192,0.0,0.0,0.0,40.39353,58.04062,6.58902,10.84,1.93,0.83,2.0
1758075768.66449,1758075768.67192,0.0,0.0,0.0,37.98711,61.87944,6.18794,10.4,2.09,0.92,2.0
1758075768.66659,1758075768.68192,0.0,0.0,0.0,36.03905,61.1346,6.35983,10.4,2.09,0.92,2.0
1758075768.68194,1758075768.69192,0.0,0.0,0.0,34.95043,59.35843,6.53172,9.59,2.05,1.1,2.0
1758075768.68315,1758075768.70192,0.0,0.0,0.0,34.37747,55.6915,6.99009,9.59,2.05,1.1,2.0
1758075768.69759,1758075768.71192,0.0,0.0,0.0,33.40344,51.16513,7.04738,9.14,1.81,1.14,2.0
1758075768.71349,1758075768.72192,0.0,0.0,0.0,31.28349,42.97184,7.04738,8.61,1.59,1.04,2.0
1758075768.71544,1758075768.73192,0.0,0.0,0.0,29.33544,37.64333,7.10468,8.61,1.59,1.04,2.0
1758075768.73053,1758075768.74192,0.0,0.0,0.0,26.87172,33.86181,7.21927,8.36,1.53,0.91,2.0
1758075768.73177,1758075768.75192,0.0,0.0,0.0,22.74642,29.04896,7.33386,8.36,1.53,0.91,2.0
1758075768.74687,1758075768.76192,0.0,0.0,0.0,19.82434,26.35606,7.16197,8.39,1.59,0.86,2.0
1758075768.76259,1758075768.77192,0.0,0.0,0.0,16.90226,24.29341,6.99009,8.39,1.59,0.86,2.0
1758075768.76382,1758075768.78192,0.0,0.0,0.0,14.15206,23.54857,6.58902,8.63,1.73,0.75,2.0
1758075768.7789,1758075768.79192,0.0,0.0,0.0,10.59972,22.23076,5.78687,8.63,1.73,0.67,2.0
1758075768.79463,1758075768.80192,0.0,0.0,0.0,8.65166,21.60051,5.21392,8.96,1.79,0.67,2.0
1758075768.79655,1758075768.81192,0.0,0.0,0.0,7.04738,21.94428,4.64096,9.17,1.76,0.61,2.0
1758075768.81189,1758075768.82192,0.0,0.0,0.0,5.84417,23.37668,5.09932,9.17,1.76,0.61,2.0
1758075768.81281,1758075768.83192,0.0,0.0,0.0,4.81285,23.0329,5.72958,9.31,1.69,0.51,2.0
1758075768.82787,1758075768.84192,0.0,0.0,0.0,4.18259,21.14215,6.8182,9.31,1.69,0.51,2.0
1758075768.84369,1758075768.85192,0.0,0.0,0.0,3.38045,18.79302,7.84952,8.99,1.67,0.51,2.0
1758075768.84525,1758075768.86192,0.0,0.0,0.0,2.34913,14.49583,9.28192,8.99,1.67,0.51,2.0
1758075768.8597,1758075768.87192,0.0,0.0,0.0,-0.0573,6.58902,10.8289,8.65,1.76,0.48,2.0
1758075768.86081,1758075768.88192,0.0,0.0,0.0,-1.71887,2.34913,12.43318,8.39,1.93,0.72,2.0
1758075768.87661,1758075768.89192,0.0,0.0,0.0,-4.23989,-5.90147,12.54778,8.39,1.93,0.72,2.0
1758075768.89268,1758075768.90192,0.0,0.0,0.0,-6.47442,-14.9542,13.5791,7.92,2.11,0.91,2.0
1758075768.89384,1758075768.91192,0.0,0.0,0.0,-11.17268,-26.01229,13.40721,7.92,2.11,0.91,2.0
1758075768.9109,1758075768.92192,0.0,0.0,0.0,-14.9542,-32.71589,12.71966,8.23,2.34,1.02,2.0
1758075768.91209,1758075768.93192,0.0,0.0,0.0,-19.07949,-39.01843,11.57375,8.23,2.34,1.02,2.0
1758075768.9269,1758075768.94192,0.0,0.0,0.0,-25.61122,-42.57077,9.22462,8.77,2.49,1.09,2.0
1758075768.94272,1758075768.95192,0.0,0.0,0.0,-30.30947,-44.11775,8.47978,9.67,2.51,0.87,2.0
1758075768.94499,1758075768.96192,0.0,0.0,0.0,-35.06502,-44.17505,7.79223,9.67,2.51,0.87,2.0
1758075768.95996,1758075768.97192,0.0,0.0,0.0,-39.4195,-45.77933,8.47978,9.99,2.61,1.01,2.0
1758075768.96122,1758075768.98192,0.0,0.0,0.0,-45.03448,-66.5204,11.80293,9.99,2.61,1.01,2.0
1758075768.97697,1758075768.99192,0.0,0.0,0.0,-48.30034,-93.56402,10.31324,9.61,3.05,4.41,2.0
1758075768.99265,1758075769.00192,0.0,0.0,0.0,-49.67545,-122.55568,1.14592,9.61,3.05,4.41,2.0
1758075768.99383,1758075769.01192,0.0,0.0,0.0,-49.21708,-134.35861,-9.39651,11.76,1.07,6.22,2.0
1758075769.00875,1758075769.02192,0.0,0.0,0.0,-44.63341,-115.3364,-21.37133,18.16,1.07,4.52,2.0
1758075769.02502,1758075769.03192,0.0,0.0,0.0,-41.31026,-95.51206,-25.15285,18.16,-1.9,4.52,2.0
1758075769.02684,1758075769.04192,0.0,0.0,0.0,-37.52874,-87.54795,-23.54857,16.49,-2.21,3.34,2.0
1758075769.04199,1758075769.05192,0.0,0.0,0.0,-34.95043,-87.37608,-20.45459,16.49,-2.21,3.34,2.0
1758075769.04297,1758075769.06192,0.0,0.0,0.0,-32.54401,-80.44328,-13.06344,11.34,-0.9,2.57,2.0
1758075769.05769,1758075769.07192,0.0,0.0,0.0,-33.40344,-63.88479,-8.0787,11.34,-0.9,2.57,2.0
1758075769.07369,1758075769.08192,0.0,0.0,0.0,-35.12231,-45.72203,-2.40642,11.54,0.04,1.21,2.0
1758075769.075,1758075769.09192,0.0,0.0,0.0,-39.82057,-53.17049,-1.43239,11.54,0.04,1.21,2.0
1758075769.08971,1758075769.10192,0.0,0.0,0.0,-47.15443,-62.33781,-2.11994,8.91,0.22,1.65,2.0
1758075769.09098,1758075769.11192,0.0,0.0,0.0,-48.9879,-67.55173,-2.46372,8.93,-0.29,0.6,2.0
