timeStamp,timeStampAlign,roll,pitch,yaw,gyro_x,gyro_y,gyro_z,acc_x,acc_y,acc_z,flag_num
1758089367.34565,1758089357.39162,0.0,0.0,0.0,11.91752,3.32316,-5.95876,10.65,1.31,1.74,2.0
1758089367.34927,1758089357.40162,0.0,0.0,0.0,12.2613,6.7609,-6.8182,10.65,1.31,1.74,2.0
1758089367.36469,1758089357.41162,0.0,0.0,0.0,12.49048,10.25595,-7.50575,10.37,1.15,1.52,2.0
1758089367.3667,1758089357.42162,0.0,0.0,0.0,12.83425,13.34992,-7.84952,10.37,1.15,1.52,2.0
1758089367.38361,1758089357.43162,0.0,0.0,0.0,14.03747,16.272,-7.16197,9.99,1.09,1.4,2.0
1758089367.38649,1758089357.44162,0.0,0.0,0.0,14.66772,18.33465,-6.24524,9.99,1.09,1.4,2.0
1758089367.40373,1758089357.45162,0.0,0.0,0.0,15.46986,19.59516,-5.21392,9.77,0.96,1.37,2.0
1758089367.42043,1758089357.46162,0.0,0.0,0.0,15.92823,19.53786,-4.23989,9.77,0.96,1.37,2.0
1758089367.42332,1758089357.47162,0.0,0.0,0.0,16.272,18.56383,-2.63561,9.34,0.86,1.28,2.0
1758089367.43868,1758089357.48162,0.0,0.0,0.0,15.58445,18.44924,-1.94806,9.26,0.9,1.27,2.0
1758089367.43991,1758089357.49162,0.0,0.0,0.0,14.20935,17.01685,-1.77617,9.26,0.9,1.27,2.0
1758089367.45549,1758089357.50162,0.0,0.0,0.0,12.14671,14.83961,-2.40642,9.03,1.16,1.17,2.0
1758089367.45751,1758089357.51162,0.0,0.0,0.0,8.76626,11.28727,-2.86479,9.03,1.16,1.17,2.0
1758089367.47295,1758089357.52162,0.0,0.0,0.0,6.47442,9.96947,-2.97938,9.07,1.53,1.05,2.0
1758089367.48869,1758089357.53162,0.0,0.0,0.0,3.95341,8.99544,-3.26586,9.07,1.53,1.05,2.0
1758089367.48985,1758089357.54162,0.0,0.0,0.0,0.80214,7.73493,-3.32316,9.35,1.78,1.11,2.0
1758089367.50693,1758089357.55162,0.0,0.0,0.0,-0.97403,6.70361,-3.38045,9.48,1.78,1.05,2.0
1758089367.50947,1758089357.56162,0.0,0.0,0.0,-2.34913,5.09932,-3.03668,9.48,1.78,1.05,2.0
1758089367.52574,1758089357.57162,0.0,0.0,0.0,-3.26586,3.83882,-2.6929,9.53,1.52,0.96,2.0
1758089367.52695,1758089357.58162,0.0,0.0,0.0,-4.0107,0.34377,-1.83346,9.53,1.52,0.96,2.0
1758089367.54179,1758089357.59162,0.0,0.0,0.0,-4.29718,-1.71887,-1.3178,9.61,1.19,0.84,2.0
1758089367.55876,1758089357.60162,0.0,0.0,0.0,-4.52637,-2.00535,-1.08862,9.61,1.19,0.84,2.0
1758089367.56104,1758089357.61162,0.0,0.0,0.0,-4.69825,0.22918,-0.40107,9.93,0.97,0.79,2.0
1758089367.57605,1758089357.62162,0.0,0.0,0.0,-4.81285,6.13065,0.57296,10.17,0.97,0.92,2.0
1758089367.57698,1758089357.63162,0.0,0.0,0.0,-5.15662,10.02676,1.71887,10.17,0.97,0.92,2.0
1758089367.59179,1758089357.64162,0.0,0.0,0.0,-5.90147,13.5791,3.09397,10.12,1.07,1.18,2.0
1758089367.60777,1758089357.65162,0.0,0.0,0.0,-7.04738,15.06879,4.69825,10.12,1.07,1.18,2.0
1758089367.60898,1758089357.66162,0.0,0.0,0.0,-10.08406,15.06879,5.78687,9.8,1.24,1.21,2.0
1758089367.62379,1758089357.67162,0.0,0.0,0.0,-12.49048,11.97482,5.84417,9.8,1.24,1.21,2.0
1758089367.63978,1758089357.68162,0.0,0.0,0.0,-14.9542,8.65166,5.61499,9.44,1.43,0.84,2.0
1758089367.64089,1758089357.69162,0.0,0.0,0.0,-17.36062,6.07335,5.4431,9.44,1.43,0.84,2.0
1758089367.65579,1758089357.70162,0.0,0.0,0.0,-21.08485,1.3178,5.50039,9.64,1.54,0.61,2.0
1758089367.65691,1758089357.71162,0.0,0.0,0.0,-23.49127,-2.06265,4.98473,9.76,1.65,0.54,2.0
1758089367.6718,1758089357.72162,0.0,0.0,0.0,-25.89769,-6.18794,4.29718,9.76,1.65,0.54,2.0
1758089367.68893,1758089357.73162,0.0,0.0,0.0,-29.50733,-12.71966,3.83882,9.98,1.73,0.52,2.0
1758089367.6914,1758089357.74162,0.0,0.0,0.0,-31.97105,-15.58445,3.49504,9.98,1.73,0.52,2.0
1758089367.70869,1758089357.75162,0.0,0.0,0.0,-34.66395,-17.30333,2.6929,10.38,1.7,0.44,2.0
1758089367.70961,1758089357.76162,0.0,0.0,0.0,-37.12767,-19.36597,1.08862,10.38,1.7,0.44,2.0
1758089367.72477,1758089357.77162,0.0,0.0,0.0,-38.84654,-26.01229,0.45837,10.39,1.64,0.27,2.0
1758089367.72598,1758089357.78162,0.0,0.0,0.0,-39.3622,-30.93972,0.34377,9.96,1.39,0.06,2.0
1758089367.74189,1758089357.79162,0.0,0.0,0.0,-38.90384,-34.37747,0.80214,9.96,1.39,0.06,2.0
1758089367.75875,1758089357.80162,0.0,0.0,0.0,-39.24761,-36.21093,0.85944,9.82,1.1,-0.1,2.0
1758089367.75992,1758089357.81162,0.0,0.0,0.0,-39.24761,-30.65324,2.06265,9.82,1.1,-0.1,2.0
1758089367.77584,1758089357.82162,0.0,0.0,0.0,-38.78925,-22.68913,4.1253,10.45,0.92,0.01,2.0
1758089367.77759,1758089357.83162,0.0,0.0,0.0,-39.53409,-14.09476,6.41713,10.45,0.92,0.01,2.0
1758089367.79312,1758089357.84162,0.0,0.0,0.0,-38.44547,-19.99623,8.59437,10.37,0.97,0.43,2.0
1758089367.80895,1758089357.85162,0.0,0.0,0.0,-46.2377,-27.44468,4.52637,9.12,1.4,-0.43,2.0
1758089367.81003,1758089357.86162,0.0,0.0,0.0,-50.13381,-19.59516,2.34913,9.12,1.4,-0.43,2.0
1758089367.82561,1758089357.87162,0.0,0.0,0.0,-52.02457,-20.11082,2.6929,9.98,1.42,-0.72,2.0
1758089367.8292,1758089357.88162,0.0,0.0,0.0,-52.54023,-21.60051,4.87014,9.98,1.42,-0.72,2.0
1758089367.84642,1758089357.89162,0.0,0.0,0.0,-50.59217,-18.16276,9.91217,9.93,1.42,-0.27,2.0
1758089367.84788,1758089357.90162,0.0,0.0,0.0,-48.9879,-22.63183,12.37589,9.93,1.42,-0.27,2.0
1758089367.8628,1758089357.91162,0.0,0.0,0.0,-46.35228,-28.01764,14.09476,11.0,0.69,1.35,2.0
1758089367.87868,1758089357.92162,0.0,0.0,0.0,-39.19032,-31.85646,15.69904,11.0,0.69,1.35,2.0
1758089367.87994,1758089357.93162,0.0,0.0,0.0,-35.06502,-41.94051,11.28727,12.8,-0.66,1.65,2.0
1758089367.89591,1758089357.94162,0.0,0.0,0.0,-27.38738,-37.81522,7.04738,14.69,-2.16,1.44,2.0
1758089367.89683,1758089357.95162,0.0,0.0,0.0,-18.9649,-34.66395,2.46372,14.69,-2.16,1.44,2.0
1758089367.91198,1758089357.96162,0.0,0.0,0.0,-8.30789,-33.9764,-1.60428,12.73,-2.35,0.32,2.0
1758089367.9281,1758089357.97162,0.0,0.0,0.0,-5.27121,-33.46074,-2.92208,12.73,-2.35,0.32,2.0
1758089367.92904,1758089357.98162,0.0,0.0,0.0,-5.32851,-32.83048,-3.09397,9.22,-0.83,0.57,2.0
1758089367.94412,1758089357.99162,0.0,0.0,0.0,-8.0787,-32.54401,-2.46372,9.22,-0.83,0.57,2.0
1758089367.95979,1758089358.00162,0.0,0.0,0.0,-15.29797,-31.28349,-0.68755,7.5,0.0,1.03,2.0
1758089367.96195,1758089358.01162,0.0,0.0,0.0,-20.85567,-30.30947,0.85944,7.08,0.19,2.3,2.0
1758089367.97908,1758089358.02162,0.0,0.0,0.0,-26.24147,-28.41871,2.86479,7.08,0.19,2.3,2.0
1758089367.98163,1758089358.03162,0.0,0.0,0.0,-30.65324,-24.98096,4.69825,7.84,0.02,2.36,2.0
1758089367.99771,1758089358.04162,0.0,0.0,0.0,-34.0337,-18.10547,7.39116,7.84,0.02,2.36,2.0
1758089367.99885,1758089358.05161,0.0,0.0,0.0,-34.26288,-13.86558,8.59437,9.28,-0.44,1.89,2.0
1758089368.01399,1758089358.06161,0.0,0.0,0.0,-32.71589,-8.88085,9.11003,9.28,-0.44,1.89,2.0
1758089368.03138,1758089358.07161,0.0,0.0,0.0,-29.62192,-2.97938,9.22462,10.59,-1.2,1.46,2.0
1758089368.03264,1758089358.08161,0.0,0.0,0.0,-22.74642,5.95876,8.47978,11.4,-1.98,0.87,2.0
1758089368.04867,1758089358.09161,0.0,0.0,0.0,-17.53251,12.204,7.73493,11.4,-1.98,0.87,2.0
1758089368.05148,1758089358.10161,0.0,0.0,0.0,-12.77696,18.16276,6.99009,11.44,-2.25,0.53,2.0
1758089368.06763,1758089358.11161,0.0,0.0,0.0,-8.88085,23.0329,6.47442,11.44,-2.25,0.53,2.0
1758089368.06975,1758089358.12161,0.0,0.0,0.0,-4.98473,28.24682,6.18794,11.06,-1.85,0.69,2.0
1758089368.08664,1758089358.13161,0.0,0.0,0.0,-3.66693,29.39274,6.18794,11.06,-1.85,0.69,2.0
1758089368.08844,1758089358.14161,0.0,0.0,0.0,-2.97938,28.13223,6.58902,10.66,-1.47,0.84,2.0
1758089368.10382,1758089358.15161,0.0,0.0,0.0,-2.34913,24.5226,6.87549,10.66,-1.47,0.84,2.0
1758089368.12009,1758089358.16161,0.0,0.0,0.0,-2.00535,22.86102,7.16197,10.31,-1.35,0.91,2.0
1758089368.12111,1758089358.17161,0.0,0.0,0.0,-1.48969,22.51724,7.16197,10.15,-1.41,0.8,2.0
1758089368.13583,1758089358.18161,0.0,0.0,0.0,-0.74485,22.51724,7.10468,10.15,-1.41,0.8,2.0
1758089368.13783,1758089358.19161,0.0,0.0,0.0,0.17189,21.48592,6.47442,9.62,-1.44,0.91,2.0
1758089368.15317,1758089358.20161,0.0,0.0,0.0,0.80214,19.59516,5.78687,9.62,-1.44,0.91,2.0
1758089368.16912,1758089358.21161,0.0,0.0,0.0,1.66158,17.99088,5.15662,8.87,-1.36,0.87,2.0
1758089368.17012,1758089358.22161,0.0,0.0,0.0,2.34913,15.69904,4.69825,8.87,-1.36,0.87,2.0
1758089368.18586,1758089358.23161,0.0,0.0,0.0,3.55234,11.34457,4.64096,8.49,-1.24,0.71,2.0
1758089368.1876,1758089358.24161,0.0,0.0,0.0,4.35448,8.136,4.87014,8.37,-1.18,0.59,2.0
1758089368.2031,1758089358.25161,0.0,0.0,0.0,5.32851,5.32851,5.32851,8.37,-1.18,0.59,2.0
1758089368.21884,1758089358.26161,0.0,0.0,0.0,6.41713,2.46372,5.95876,8.61,-1.2,0.57,2.0
1758089368.22084,1758089358.27161,0.0,0.0,0.0,8.136,-0.85944,6.87549,8.61,-1.2,0.57,2.0
1758089368.2366,1758089358.28161,0.0,0.0,0.0,9.11003,-3.09397,7.33386,9.07,-1.26,0.57,2.0
1758089368.2386,1758089358.29161,0.0,0.0,0.0,10.25595,-5.15662,7.33386,9.07,-1.26,0.57,2.0
1758089368.25385,1758089358.30161,0.0,0.0,0.0,11.51645,-5.15662,7.16197,9.58,-1.27,0.55,2.0
1758089368.2723,1758089358.31161,0.0,0.0,0.0,12.49048,0.22918,6.07335,10.39,-1.14,0.41,2.0
1758089368.27346,1758089358.32161,0.0,0.0,0.0,12.77696,4.58366,4.92744,10.39,-1.14,0.41,2.0
1758089368.28892,1758089358.33161,0.0,0.0,0.0,12.89155,9.33921,4.23989,10.62,-0.93,0.49,2.0
1758089368.29257,1758089358.34161,0.0,0.0,0.0,12.83425,14.66772,2.7502,10.62,-0.93,0.49,2.0
1758089368.30816,1758089358.35161,0.0,0.0,0.0,12.60507,22.97561,1.43239,10.62,-0.75,0.47,2.0
1758089368.30939,1758089358.36161,0.0,0.0,0.0,12.71966,26.24147,0.22918,10.62,-0.75,0.47,2.0
1758089368.32412,1758089358.37161,0.0,0.0,0.0,13.17803,26.69983,-0.51566,10.21,-0.71,0.46,2.0
1758089368.32672,1758089358.38161,0.0,0.0,0.0,14.49583,25.72581,-1.71887,10.21,-0.71,0.46,2.0
1758089368.34388,1758089358.39161,0.0,0.0,0.0,16.90226,24.00693,-1.60428,9.86,-0.92,0.46,2.0
1758089368.36071,1758089358.40161,0.0,0.0,0.0,19.99623,21.08485,-1.03132,9.61,-1.36,0.41,2.0
1758089368.36341,1758089358.41161,0.0,0.0,0.0,23.49127,17.13144,0.11459,9.61,-1.36,0.41,2.0
1758089368.379,1758089358.42161,0.0,0.0,0.0,28.76248,10.48513,2.06265,9.1,-1.93,0.15,2.0
1758089368.3836,1758089358.43161,0.0,0.0,0.0,32.71589,6.18794,2.7502,9.1,-1.93,0.15,2.0
1758089368.39914,1758089358.44161,0.0,0.0,0.0,35.63798,-0.0573,3.20856,8.78,-2.24,-0.33,2.0
1758089368.40164,1758089358.45161,0.0,0.0,0.0,36.84119,-9.62569,3.09397,8.78,-2.24,-0.33,2.0
1758089368.41915,1758089358.46161,0.0,0.0,0.0,36.21093,-17.93358,1.94806,8.56,-2.04,-0.34,2.0
1758089368.42177,1758089358.47161,0.0,0.0,0.0,35.98175,-14.32395,-0.22918,9.61,-1.61,-0.5,2.0
1758089368.43914,1758089358.48161,0.0,0.0,0.0,36.95578,-3.95341,-0.45837,9.61,-1.61,-0.5,2.0
1758089368.44405,1758089358.49161,0.0,0.0,0.0,37.81522,7.39116,-1.08862,10.88,-1.22,0.44,2.0
1758089368.45889,1758089358.50161,0.0,0.0,0.0,36.95578,22.23076,-2.63561,10.88,-1.22,0.44,2.0
1758089368.46405,1758089358.51161,0.0,0.0,0.0,37.01308,20.34,-5.21392,10.2,-0.84,1.38,2.0
1758089368.47887,1758089358.52161,0.0,0.0,0.0,35.2942,7.16197,-11.80293,10.2,-0.84,1.38,2.0
1758089368.48415,1758089358.53161,0.0,0.0,0.0,41.02378,-23.0902,-6.99009,7.45,-0.65,0.07,2.0
1758089368.48875,1758089358.54161,0.0,0.0,0.0,45.77933,-41.71133,-0.68755,8.84,-1.24,-1.43,2.0
1758089368.50594,1758089358.55161,0.0,0.0,0.0,46.1804,-33.51803,-0.22918,8.84,-1.24,-1.43,2.0
1758089368.50927,1758089358.56161,0.0,0.0,0.0,46.40959,-24.12152,-0.0573,11.39,-1.4,-1.51,2.0
1758089368.52577,1758089358.57161,0.0,0.0,0.0,44.00316,-14.78231,-2.34913,11.39,-1.4,-1.51,2.0
1758089368.52931,1758089358.58161,0.0,0.0,0.0,40.39353,-9.05273,-5.55769,10.82,-1.24,0.96,2.0
1758089368.54599,1758089358.59161,0.0,0.0,0.0,35.75257,-4.23989,-7.67763,10.82,-1.24,0.96,2.0
1758089368.54928,1758089358.60161,0.0,0.0,0.0,30.02299,-2.29183,-9.85487,11.88,-0.59,1.66,2.0
1758089368.56569,1758089358.61161,0.0,0.0,0.0,21.37133,-5.09932,-9.96947,11.88,-0.59,1.37,2.0
1758089368.56927,1758089358.62161,0.0,0.0,0.0,15.58445,-8.25059,-7.44845,12.02,0.26,1.37,2.0
1758089368.58591,1758089358.63161,0.0,0.0,0.0,10.31324,-11.51645,-2.86479,12.93,0.59,1.89,2.0
1758089368.5893,1758089358.64161,0.0,0.0,0.0,4.46907,-11.63104,1.83346,12.93,0.59,1.89,2.0
1758089368.6049,1758089358.65161,0.0,0.0,0.0,-4.1253,-10.8862,5.21392,14.07,0.89,1.49,2.0
1758089368.60612,1758089358.66161,0.0,0.0,0.0,-8.36518,-10.25595,4.1253,14.07,0.89,1.49,2.0
1758089368.6237,1758089358.67161,0.0,0.0,0.0,-10.54242,-9.74028,0.68755,12.74,0.27,0.83,2.0
1758089368.6415,1758089358.68161,0.0,0.0,0.0,-9.74028,-9.91217,-3.09397,12.74,0.27,0.83,2.0
1758089368.64351,1758089358.69161,0.0,0.0,0.0,-3.95341,-10.31324,-8.0787,10.52,-0.6,0.5,2.0
1758089368.65892,1758089358.70161,0.0,0.0,0.0,2.00535,-10.19865,-10.25595,8.87,-0.92,0.47,2.0
1758089368.6636,1758089358.71161,0.0,0.0,0.0,9.4538,-9.05273,-11.28727,8.87,-0.92,0.47,2.0
1758089368.67892,1758089358.72161,0.0,0.0,0.0,17.47521,-8.0787,-11.28727,8.02,-0.99,1.32,2.0
1758089368.68125,1758089358.73161,0.0,0.0,0.0,28.36141,-7.50575,-9.5684,8.02,-0.99,1.32,2.0
1758089368.69584,1758089358.74161,0.0,0.0,0.0,34.37747,-7.79223,-7.73493,7.34,-0.94,2.08,2.0
1758089368.69788,1758089358.75161,0.0,0.0,0.0,38.78925,-7.84952,-5.50039,7.34,-0.94,2.08,2.0
1758089368.7131,1758089358.76161,0.0,0.0,0.0,42.28429,-6.18794,-1.71887,7.4,-0.56,2.24,2.0
1758089368.72901,1758089358.77161,0.0,0.0,0.0,41.88322,-2.86479,0.34377,8.76,0.18,1.94,2.0
1758089368.73364,1758089358.78161,0.0,0.0,0.0,38.78925,1.71887,3.26586,8.76,0.18,1.94,2.0
1758089368.74906,1758089358.79161,0.0,0.0,0.0,34.09099,7.04738,2.40642,10.5,1.1,1.69,2.0
1758089368.75335,1758089358.80161,0.0,0.0,0.0,27.1582,14.61043,2.40642,10.5,1.1,1.69,2.0
1758089368.7693,1758089358.81161,0.0,0.0,0.0,22.51724,18.44924,1.66158,11.44,1.71,1.3,2.0
1758089368.77179,1758089358.82161,0.0,0.0,0.0,17.99088,23.20479,0.68755,11.44,1.71,1.3,2.0
1758089368.78702,1758089358.83161,0.0,0.0,0.0,14.32395,26.52795,-0.45837,11.19,1.82,1.01,2.0
1758089368.78844,1758089358.84161,0.0,0.0,0.0,10.25595,31.2262,-3.49504,10.59,1.92,1.0,2.0
1758089368.80298,1758089358.85161,0.0,0.0,0.0,9.05273,36.6693,-3.89611,10.59,1.92,1.0,2.0
1758089368.81896,1758089358.86161,0.0,0.0,0.0,8.76626,37.35685,-4.29718,10.39,1.37,1.54,2.0
1758089368.82016,1758089358.87161,0.0,0.0,0.0,8.76626,33.86181,-4.58366,10.39,1.37,1.54,2.0
1758089368.83521,1758089358.88161,0.0,0.0,0.0,9.22462,31.28349,-3.95341,9.69,1.06,1.34,2.0
1758089368.8378,1758089358.89161,0.0,0.0,0.0,10.02676,28.24682,-3.26586,9.69,1.06,1.34,2.0
1758089368.85395,1758089358.90161,0.0,0.0,0.0,10.54242,22.57454,-2.86479,9.5,0.77,1.4,2.0
1758089368.856,1758089358.91161,0.0,0.0,0.0,10.65701,17.24603,-2.40642,9.5,0.77,1.4,2.0
1758089368.8731,1758089358.92161,0.0,0.0,0.0,10.19865,13.06344,-2.06265,8.86,0.69,1.01,2.0
1758089368.88927,1758089358.93161,0.0,0.0,0.0,9.28192,10.31324,-2.06265,8.65,0.77,0.93,2.0
1758089368.89211,1758089358.94161,0.0,0.0,0.0,8.02141,6.87549,-2.40642,8.65,0.77,0.93,2.0
1758089368.90705,1758089358.95161,0.0,0.0,0.0,6.35983,3.20856,-3.26586,8.29,0.93,0.72,2.0
1758089368.9082,1758089358.96161,0.0,0.0,0.0,4.0107,-2.00535,-3.49504,8.29,0.93,0.72,2.0
1758089368.92292,1758089358.97161,0.0,0.0,0.0,2.7502,-5.09932,-3.32316,8.43,1.01,0.51,2.0
1758089368.93905,1758089358.98161,0.0,0.0,0.0,1.83346,-6.24524,-2.92208,8.43,1.01,0.51,2.0
1758089368.94103,1758089358.99161,0.0,0.0,0.0,0.80214,-7.10468,-1.60428,9.05,0.89,0.4,2.0
1758089368.95614,1758089359.00161,0.0,0.0,0.0,0.40107,-6.87549,-0.74485,9.55,0.62,0.44,2.0
1758089368.95954,1758089359.01161,0.0,0.0,0.0,-0.0573,-5.27121,0.17189,9.55,0.62,0.44,2.0
1758089368.97528,1758089359.02161,0.0,0.0,0.0,-0.68755,-2.11994,0.68755,10.08,0.38,0.47,2.0
1758089368.97618,1758089359.03161,0.0,0.0,0.0,-1.3178,5.61499,2.23454,10.08,0.38,0.47,2.0
1758089368.99207,1758089359.04161,0.0,0.0,0.0,-1.43239,11.51645,3.38045,10.43,0.33,0.48,2.0
1758089369.00822,1758089359.05161,0.0,0.0,0.0,-1.60428,17.30333,4.52637,10.43,0.33,0.48,2.0
1758089369.00922,1758089359.06161,0.0,0.0,0.0,-2.00535,22.86102,5.61499,10.41,0.47,0.72,2.0
1758089369.02423,1758089359.07161,0.0,0.0,0.0,-2.7502,29.56462,6.7609,10.28,0.74,0.87,2.0
1758089369.04005,1758089359.08161,0.0,0.0,0.0,-3.49504,32.71589,7.44845,10.28,0.74,0.87,2.0
1758089369.0428,1758089359.09161,0.0,0.0,0.0,-4.81285,33.05967,7.67763,9.93,1.09,0.86,2.0
1758089369.0581,1758089359.10161,0.0,0.0,0.0,-6.18794,29.9084,7.79223,9.93,1.09,0.86,2.0
1758089369.06,1758089359.11161,0.0,0.0,0.0,-9.28192,17.87628,7.79223,9.21,1.4,0.61,2.0
1758089369.07527,1758089359.12161,0.0,0.0,0.0,-11.97482,8.02141,7.67763,9.21,1.4,0.61,2.0
1758089369.07796,1758089359.13161,0.0,0.0,0.0,-15.24068,-2.11994,6.58902,9.02,1.57,0.13,2.0
1758089369.09403,1758089359.14161,0.0,0.0,0.0,-18.56383,-13.06344,6.58902,9.02,1.57,0.13,2.0
1758089369.09603,1758089359.15161,0.0,0.0,0.0,-26.12688,-24.92367,3.83882,9.13,1.82,-0.3,2.0
1758089369.11192,1758089359.16161,0.0,0.0,0.0,-31.85646,-30.48136,1.43239,9.37,2.08,-0.34,2.0
1758089369.12794,1758089359.17161,0.0,0.0,0.0,-37.18496,-35.75257,-0.34377,9.37,2.08,-0.34,2.0
1758089369.12917,1758089359.18161,0.0,0.0,0.0,-44.57612,-39.24761,-4.18259,9.55,2.02,-0.36,2.0
1758089369.14412,1758089359.19161,0.0,0.0,0.0,-47.67009,-45.14908,-6.13065,9.55,2.02,-0.36,2.0
1758089369.14926,1758089359.20161,0.0,0.0,0.0,-49.33167,-50.2484,-7.04738,9.42,1.82,-0.69,2.0
1758089369.16742,1758089359.21161,0.0,0.0,0.0,-48.9879,-52.42564,-6.58902,9.42,1.82,-0.69,2.0
1758089369.16828,1758089359.22161,0.0,0.0,0.0,-50.13381,-47.26902,-3.49504,9.75,1.35,-0.83,2.0
1758089369.18336,1758089359.23161,0.0,0.0,0.0,-50.13381,-37.64333,-0.68755,10.85,1.08,-0.16,2.0
1758089369.19943,1758089359.24161,0.0,0.0,0.0,-50.99325,-22.00158,1.60428,10.85,1.08,-0.16,2.0
1758089369.20375,1758089359.25161,0.0,0.0,0.0,-51.10783,-8.99544,6.87549,11.39,0.97,0.61,2.0
1758089369.21937,1758089359.26161,0.0,0.0,0.0,-53.39967,-26.24147,8.42248,11.39,0.97,0.61,2.0
1758089369.22352,1758089359.27161,0.0,0.0,0.0,-56.14987,-27.33009,4.98473,9.05,1.34,1.39,2.0
1758089369.23929,1758089359.28161,0.0,0.0,0.0,-55.86338,-20.3973,6.35983,9.05,1.34,1.39,2.0
1758089369.24372,1758089359.29161,0.0,0.0,0.0,-53.62885,-24.29341,6.35983,12.43,0.85,1.5,2.0
1758089369.25892,1758089359.30161,0.0,0.0,0.0,-50.53488,-46.52417,2.23454,12.4,0.13,2.39,2.0
1758089369.26338,1758089359.31161,0.0,0.0,0.0,-48.24305,-54.66018,-3.55234,12.4,0.13,2.39,2.0
1758089369.27907,1758089359.32161,0.0,0.0,0.0,-42.91454,-49.21708,-8.88085,16.03,-1.52,2.95,2.0
1758089369.28404,1758089359.33161,0.0,0.0,0.0,-34.26288,-40.68,-11.63104,16.03,-1.52,2.95,2.0
1758089369.2991,1758089359.34161,0.0,0.0,0.0,-18.56383,-36.15364,-11.74564,15.03,-3.57,0.66,2.0
1758089369.30439,1758089359.35161,0.0,0.0,0.0,-9.28192,-32.14294,-8.76626,15.03,-3.57,0.66,2.0
1758089369.31936,1758089359.36161,0.0,0.0,0.0,-2.97938,-28.64789,-5.15662,10.84,-2.54,0.38,2.0
1758089369.32032,1758089359.37161,0.0,0.0,0.0,0.97403,-25.21014,0.0573,10.84,-2.54,0.38,2.0
1758089369.33613,1758089359.38161,0.0,0.0,0.0,-0.11459,-20.34,2.29183,8.16,-0.79,-0.3,2.0
1758089369.33715,1758089359.39161,0.0,0.0,0.0,-3.26586,-18.85031,3.20856,7.4,0.12,1.15,2.0
1758089369.35207,1758089359.40161,0.0,0.0,0.0,-7.96411,-16.67307,2.86479,7.4,0.12,1.15,2.0
1758089369.36809,1758089359.41161,0.0,0.0,0.0,-16.10011,-14.03747,1.43239,7.7,0.22,2.39,2.0
1758089369.36931,1758089359.42161,0.0,0.0,0.0,-21.25674,-13.80828,0.34377,7.7,0.22,2.39,2.0
1758089369.38406,1758089359.43161,0.0,0.0,0.0,-25.15285,-12.83425,-0.51566,7.89,-0.1,2.21,2.0
1758089369.3893,1758089359.44161,0.0,0.0,0.0,-27.38738,-9.96947,-0.80214,7.89,-0.1,2.21,2.0
1758089369.4044,1758089359.45161,0.0,0.0,0.0,-26.81443,-3.95341,-0.40107,9.12,-0.76,1.6,2.0
1758089369.40612,1758089359.46161,0.0,0.0,0.0,-23.89234,0.74485,0.57296,10.33,-1.73,1.04,2.0
1758089369.42319,1758089359.47161,0.0,0.0,0.0,-19.53786,5.4431,1.83346,10.33,-1.73,1.04,2.0
1758089369.4391,1758089359.48161,0.0,0.0,0.0,-14.15206,10.19865,3.09397,10.6,-2.45,0.66,2.0
1758089369.44685,1758089359.49161,0.0,0.0,0.0,-5.4431,15.64175,4.81285,10.6,-2.45,0.66,2.0
1758089369.44917,1758089359.50161,0.0,0.0,0.0,-0.45837,17.87628,5.72958,10.12,-2.5,0.26,2.0
1758089369.46548,1758089359.51161,0.0,0.0,0.0,3.26586,18.9649,6.18794,10.12,-2.5,0.26,2.0
1758089369.4663,1758089359.52161,0.0,0.0,0.0,5.78687,20.74107,6.53172,9.86,-2.03,0.2,2.0
1758089369.48292,1758089359.53161,0.0,0.0,0.0,7.16197,23.60586,6.24524,10.18,-1.52,0.5,2.0
1758089369.49907,1758089359.54161,0.0,0.0,0.0,6.70361,24.12152,5.72958,10.18,-1.52,0.5,2.0
1758089369.50265,1758089359.55161,0.0,0.0,0.0,5.95876,24.17882,4.87014,10.4,-1.16,0.7,2.0
1758089369.51819,1758089359.56161,0.0,0.0,0.0,5.27121,24.98096,3.26586,10.4,-1.16,0.7,2.0
1758089369.51931,1758089359.57161,0.0,0.0,0.0,4.35448,26.47065,1.83346,10.72,-0.93,0.61,2.0
1758089369.53417,1758089359.58161,0.0,0.0,0.0,4.64096,26.87172,0.97403,10.72,-0.93,0.61,2.0
1758089369.53691,1758089359.59161,0.0,0.0,0.0,5.50039,26.64254,0.0,10.42,-0.89,0.6,2.0
1758089369.55314,1758089359.60161,0.0,0.0,0.0,7.73493,25.55392,-0.68755,10.42,-0.89,0.6,2.0
1758089369.56918,1758089359.61161,0.0,0.0,0.0,9.33921,24.5226,-0.97403,9.77,-0.97,0.42,2.0
1758089369.57189,1758089359.62161,0.0,0.0,0.0,10.8862,22.23076,-1.08862,9.17,-1.07,0.32,2.0
1758089369.58743,1758089359.63161,0.0,0.0,0.0,11.97482,19.13679,-1.43239,9.17,-1.07,0.32,2.0
1758089369.58861,1758089359.64161,0.0,0.0,0.0,12.89155,13.86558,-1.77617,8.85,-1.12,0.23,2.0
1758089369.60313,1758089359.65161,0.0,0.0,0.0,13.17803,9.96947,-1.94806,8.85,-1.12,0.23,2.0
1758089369.61917,1758089359.66161,0.0,0.0,0.0,13.00614,5.90147,-2.06265,8.83,-1.06,0.2,2.0
1758089369.62113,1758089359.67161,0.0,0.0,0.0,13.00614,2.40642,-1.71887,8.83,-1.06,0.2,2.0
1758089369.63656,1758089359.68161,0.0,0.0,0.0,12.83425,-2.63561,-1.20321,8.92,-0.99,0.2,2.0
1758089369.639,1758089359.69161,0.0,0.0,0.0,13.34992,-4.87014,-0.74485,9.14,-0.98,0.22,2.0
1758089369.65445,1758089359.70161,0.0,0.0,0.0,13.80828,-5.61499,-0.40107,9.14,-0.98,0.22,2.0
1758089369.6562,1758089359.71161,0.0,0.0,0.0,14.20935,-3.83882,-0.45837,9.63,-1.02,0.19,2.0
1758089369.67249,1758089359.72161,0.0,0.0,0.0,15.29797,0.51566,-1.14592,9.63,-1.02,0.19,2.0
1758089369.68814,1758089359.73161,0.0,0.0,0.0,15.98552,3.83882,-2.06265,9.95,-0.98,0.29,2.0
1758089369.68936,1758089359.74161,0.0,0.0,0.0,16.84496,7.62034,-2.86479,9.95,-0.98,0.29,2.0
1758089369.70417,1758089359.75161,0.0,0.0,0.0,17.58981,12.71966,-3.72423,10.14,-0.87,0.35,2.0
1758089369.70622,1758089359.76161,0.0,0.0,0.0,18.90761,20.51189,-5.09932,10.25,-0.79,0.37,2.0
1758089369.72298,1758089359.77161,0.0,0.0,0.0,19.76705,25.43933,-5.78687,10.25,-0.79,0.37,2.0
1758089369.73908,1758089359.78161,0.0,0.0,0.0,20.51189,30.19488,-5.95876,10.2,-0.77,0.44,2.0
1758089369.74119,1758089359.79161,0.0,0.0,0.0,21.25674,31.56997,-5.84417,10.2,-0.77,0.44,2.0
1758089369.75667,1758089359.80161,0.0,0.0,0.0,21.88699,27.61657,-5.50039,9.64,-0.82,0.48,2.0
1758089369.75898,1758089359.81161,0.0,0.0,0.0,22.86102,23.60586,-5.15662,9.64,-0.82,0.48,2.0
1758089369.7742,1758089359.82161,0.0,0.0,0.0,24.5226,20.11082,-4.18259,9.51,-1.05,0.25,2.0
1758089369.77649,1758089359.83161,0.0,0.0,0.0,28.476,14.20935,-2.34913,9.51,-1.05,0.25,2.0
1758089369.7925,1758089359.84161,0.0,0.0,0.0,32.25753,9.62569,-1.3751,9.54,-1.54,-0.05,2.0
1758089369.80924,1758089359.85161,0.0,0.0,0.0,36.38282,5.4431,-0.40107,9.42,-2.0,-0.13,2.0
1758089369.81204,1758089359.86161,0.0,0.0,0.0,40.45082,0.80214,0.68755,9.42,-2.0,-0.13,2.0
1758089369.8275,1758089359.87161,0.0,0.0,0.0,45.83662,-6.70361,1.14592,9.41,-2.18,-0.29,2.0
1758089369.82923,1758089359.88161,0.0,0.0,0.0,47.49821,-14.32395,2.40642,9.41,-2.18,-0.29,2.0
1758089369.84448,1758089359.89161,0.0,0.0,0.0,47.32632,-22.23076,2.11994,9.23,-1.99,-0.51,2.0
1758089369.84701,1758089359.90161,0.0,0.0,0.0,46.35228,-25.8404,3.09397,9.23,-1.99,-0.51,2.0
1758089369.86347,1758089359.91161,0.0,0.0,0.0,44.28964,-23.89234,2.06265,9.54,-1.57,-0.41,2.0
1758089369.87923,1758089359.92161,0.0,0.0,0.0,44.11775,-14.9542,2.00535,10.38,-1.29,-0.42,2.0
1758089369.88522,1758089359.93161,0.0,0.0,0.0,43.83128,-1.66158,1.3751,10.38,-1.29,-0.42,2.0
1758089369.88933,1758089359.94161,0.0,0.0,0.0,43.4875,9.85487,0.57296,10.68,-1.11,0.83,2.0
1758089369.90722,1758089359.95161,0.0,0.0,0.0,43.37291,18.56383,-3.20856,10.68,-1.11,0.83,2.0
1758089369.91238,1758089359.96161,0.0,0.0,0.0,45.55015,17.76169,-5.78687,9.53,-1.07,0.43,2.0
1758089369.92719,1758089359.97161,0.0,0.0,0.0,46.69606,-11.00079,-8.59437,9.53,-1.07,0.43,2.0
1758089369.92996,1758089359.98161,0.0,0.0,0.0,52.08187,-33.9764,-1.03132,6.86,-1.12,-0.45,2.0
1758089369.94551,1758089359.99161,0.0,0.0,0.0,56.952,-30.65324,1.71887,11.25,-1.61,-0.99,2.0
1758089369.95207,1758089360.00161,0.0,0.0,0.0,57.12389,-32.14294,5.15662,11.25,-1.61,-0.99,2.0
1758089369.96733,1758089360.01161,0.0,0.0,0.0,56.14987,-44.9199,9.11003,11.87,-0.81,1.16,2.0
1758089369.96847,1758089360.02161,0.0,0.0,0.0,51.50891,-47.95657,16.50119,11.87,-0.81,1.16,2.0
1758089369.98405,1758089360.03161,0.0,0.0,0.0,44.11775,-36.38282,18.33465,15.77,0.27,3.53,2.0
1758089369.98927,1758089360.04161,0.0,0.0,0.0,34.72124,-29.73651,17.87628,15.77,0.27,3.53,2.0
1758089370.0083,1758089360.05161,0.0,0.0,0.0,25.15285,-30.99702,13.98017,16.31,2.19,2.64,2.0
1758089370.01357,1758089360.06161,0.0,0.0,0.0,14.38124,-32.08564,3.89611,11.96,2.19,1.24,2.0
1758089370.02847,1758089360.07161,0.0,0.0,0.0,10.54242,-30.88243,-2.97938,11.96,2.23,1.24,2.0
1758089370.03351,1758089360.08161,0.0,0.0,0.0,9.91217,-26.81443,-8.42248,9.14,1.14,0.07,2.0
1758089370.04822,1758089360.09161,0.0,0.0,0.0,12.14671,-19.48057,-12.2613,9.14,1.14,0.07,2.0
1758089370.05029,1758089360.10161,0.0,0.0,0.0,20.05352,-9.68299,-14.32395,8.7,0.35,1.06,2.0
1758089370.06772,1758089360.11161,0.0,0.0,0.0,27.44468,-4.58366,-13.80828,8.7,0.35,1.06,2.0
1758089370.07293,1758089360.12161,0.0,0.0,0.0,35.2369,2.7502,-11.91752,8.66,-0.28,1.73,2.0
1758089370.08854,1758089360.13161,0.0,0.0,0.0,42.34158,11.51645,-9.22462,8.66,-0.28,1.73,2.0
1758089370.09027,1758089360.14161,0.0,0.0,0.0,49.21708,21.42862,-3.09397,9.28,-0.45,1.67,2.0
1758089370.10767,1758089360.15161,0.0,0.0,0.0,53.34238,24.57989,0.40107,9.57,0.06,1.45,2.0
1758089370.11313,1758089360.16161,0.0,0.0,0.0,52.9986,30.88243,2.23454,9.57,0.06,1.45,2.0
1758089370.12852,1758089360.17161,0.0,0.0,0.0,51.45161,34.77854,4.1253,10.58,0.85,1.7,2.0
1758089370.13031,1758089360.18161,0.0,0.0,0.0,45.60744,41.36755,3.72423,10.58,0.85,1.7,2.0
1758089370.14535,1758089360.19161,0.0,0.0,0.0,40.33623,43.94586,2.23454,10.6,1.78,1.27,2.0
1758089370.1473,1758089360.20161,0.0,0.0,0.0,34.43476,41.65404,0.0573,10.6,1.78,1.27,2.0
1758089370.16324,1758089360.21161,0.0,0.0,0.0,27.67386,42.97184,-2.46372,9.5,2.4,0.87,2.0
1758089370.17927,1758089360.22161,0.0,0.0,0.0,23.89234,39.4195,-3.89611,9.36,1.78,1.38,2.0
1758089370.18129,1758089360.23161,0.0,0.0,0.0,20.34,33.51803,-4.92744,9.36,1.78,1.38,2.0
1758089370.19802,1758089360.24161,0.0,0.0,0.0,17.47521,29.62192,-5.61499,9.07,1.6,1.03,2.0
1758089370.19912,1758089360.25161,0.0,0.0,0.0,15.0115,26.47065,-6.47442,9.07,1.6,1.03,2.0
1758089370.21457,1758089360.26161,0.0,0.0,0.0,14.38124,23.72045,-6.24524,9.51,1.44,1.16,2.0
1758089370.23218,1758089360.27161,0.0,0.0,0.0,14.03747,20.68378,-5.90147,9.51,1.44,1.16,2.0
1758089370.23397,1758089360.28161,0.0,0.0,0.0,14.03747,18.9649,-5.27121,9.27,1.28,0.98,2.0
1758089370.24962,1758089360.29161,0.0,0.0,0.0,13.75099,17.01685,-3.95341,9.28,1.18,0.95,2.0
1758089370.25248,1758089360.30161,0.0,0.0,0.0,13.06344,14.38124,-3.09397,9.28,1.18,0.95,2.0
1758089370.26818,1758089360.31161,0.0,0.0,0.0,11.74564,12.14671,-2.92208,9.11,1.22,0.77,2.0
1758089370.26934,1758089360.32161,0.0,0.0,0.0,9.85487,11.91752,-3.09397,9.11,1.22,0.77,2.0
1758089370.28432,1758089360.33161,0.0,0.0,0.0,5.90147,12.2613,-3.60963,9.52,1.36,0.83,2.0
1758089370.30145,1758089360.34161,0.0,0.0,0.0,3.09397,12.08941,-4.29718,9.52,1.36,0.83,2.0
1758089370.30392,1758089360.35161,0.0,0.0,0.0,0.40107,10.59972,-4.87014,9.51,1.43,0.79,2.0
1758089370.31953,1758089360.36161,0.0,0.0,0.0,-1.71887,7.62034,-4.98473,9.51,1.43,0.79,2.0
1758089370.32058,1758089360.37161,0.0,0.0,0.0,-4.23989,4.58366,-4.1253,9.35,1.25,0.73,2.0
1758089370.33561,1758089360.38161,0.0,0.0,0.0,-5.32851,2.57831,-2.7502,9.47,0.92,0.62,2.0
1758089370.3373,1758089360.39161,0.0,0.0,0.0,-6.47442,0.80214,-1.77617,9.47,0.92,0.62,2.0
1758089370.35338,1758089360.40161,0.0,0.0,0.0,-8.59437,2.7502,-0.0573,9.66,0.75,0.55,2.0
1758089370.36935,1758089360.41161,0.0,0.0,0.0,-9.85487,9.28192,1.20321,9.66,0.75,0.55,2.0
1758089370.37241,1758089360.42161,0.0,0.0,0.0,-10.94349,14.09476,2.86479,10.06,0.75,0.61,2.0
1758089370.3875,1758089360.43161,0.0,0.0,0.0,-12.49048,18.79302,4.1253,10.06,0.75,0.61,2.0
1758089370.38936,1758089360.44161,0.0,0.0,0.0,-15.24068,26.75713,5.95876,10.0,0.83,0.71,2.0
1758089370.40434,1758089360.45161,0.0,0.0,0.0,-17.36062,30.36677,7.16197,9.83,1.0,0.53,2.0
1758089370.42045,1758089360.46161,0.0,0.0,0.0,-19.99623,32.88778,8.136,9.83,1.0,0.53,2.0
1758089370.42314,1758089360.47161,0.0,0.0,0.0,-22.86102,34.43476,8.42248,9.55,1.18,0.38,2.0
1758089370.43839,1758089360.48161,0.0,0.0,0.0,-26.64254,32.54401,8.76626,9.55,1.18,0.38,2.0
1758089370.4412,1758089360.49161,0.0,0.0,0.0,-29.73651,29.04896,7.62034,9.21,1.3,0.24,2.0
1758089370.45741,1758089360.50161,0.0,0.0,0.0,-31.74186,23.26209,7.33386,9.21,1.3,0.24,2.0
1758089370.45865,1758089360.51161,0.0,0.0,0.0,-33.05967,16.10011,7.50575,8.69,1.33,0.02,2.0
1758089370.4734,1758089360.52161,0.0,0.0,0.0,-33.74722,2.92208,8.70896,8.56,1.19,-0.15,2.0
1758089370.48953,1758089360.53161,0.0,0.0,0.0,-34.32018,-4.98473,9.22462,8.56,1.19,-0.15,2.0
1758089370.49214,1758089360.54161,0.0,0.0,0.0,-35.3515,-11.80293,9.22462,8.99,1.13,0.1,2.0
1758089370.50842,1758089360.55161,0.0,0.0,0.0,-37.35685,-18.27736,8.0787,8.99,1.13,0.1,2.0
1758089370.5094,1758089360.56161,0.0,0.0,0.0,-41.76862,-26.24147,4.92744,9.27,1.36,0.4,2.0
1758089370.5282,1758089360.57161,0.0,0.0,0.0,-44.8053,-31.97105,2.7502,9.27,1.36,0.4,2.0
1758089370.54645,1758089360.58161,0.0,0.0,0.0,-48.12846,-37.12767,0.85944,9.23,1.65,0.31,2.0
1758089370.54821,1758089360.59161,0.0,0.0,0.0,-51.85268,-40.16434,-2.29183,9.23,1.65,0.31,2.0
1758089370.54939,1758089360.60161,0.0,0.0,0.0,-56.89471,-48.70141,-3.55234,9.18,1.77,0.05,2.0
1758089370.56849,1758089360.61161,0.0,0.0,0.0,-60.50434,-56.20716,-5.84417,8.39,1.65,-0.65,2.0
1758089370.56941,1758089360.62161,0.0,0.0,0.0,-61.93674,-56.37905,-4.23989,8.39,1.65,-0.65,2.0
1758089370.58459,1758089360.63161,0.0,0.0,0.0,-64.85883,-55.40502,-1.43239,9.3,1.35,-0.43,2.0
1758089370.60074,1758089360.64161,0.0,0.0,0.0,-66.17663,-56.26446,1.71887,9.3,1.35,-0.43,2.0
1758089370.60161,1758089360.65161,0.0,0.0,0.0,-67.43713,-55.40502,3.83882,10.33,1.21,1.19,2.0
1758089370.61657,1758089360.66161,0.0,0.0,0.0,-67.03606,-47.09713,5.84417,10.33,1.21,1.19,2.0
1758089370.61761,1758089360.67161,0.0,0.0,0.0,-61.99404,-50.99325,6.35983,13.7,0.11,3.18,2.0
1758089370.63262,1758089360.68161,0.0,0.0,0.0,-63.59832,-73.91156,-2.34913,13.45,-1.26,4.36,2.0
1758089370.64829,1758089360.69161,0.0,0.0,0.0,-57.46767,-77.86497,-6.70361,13.45,-1.26,4.36,2.0
1758089370.64954,1758089360.70161,0.0,0.0,0.0,-53.17049,-82.7924,-14.9542,15.01,-2.85,3.03,2.0
1758089370.66551,1758089360.71161,0.0,0.0,0.0,-44.63341,-76.60446,-18.85031,15.01,-2.85,3.03,2.0
1758089370.6696,1758089360.72161,0.0,0.0,0.0,-40.33623,-68.23928,-17.76169,12.94,-2.47,0.8,2.0
1758089370.68544,1758089360.73161,0.0,0.0,0.0,-36.89849,-60.27517,-14.20935,12.94,-2.47,0.8,2.0
1758089370.68963,1758089360.74161,0.0,0.0,0.0,-34.09099,-51.5662,-8.136,10.35,-1.24,1.16,2.0
1758089370.7047,1758089360.75161,0.0,0.0,0.0,-34.72124,-35.3515,-0.85944,9.51,-0.42,1.87,2.0
1758089370.72068,1758089360.76161,0.0,0.0,0.0,-39.07573,-24.57989,1.66158,9.51,-0.42,1.87,2.0
1758089370.72163,1758089360.77161,0.0,0.0,0.0,-42.74266,-9.96947,4.18259,10.02,0.02,1.78,2.0
1758089370.73675,1758089360.78161,0.0,0.0,0.0,-47.89928,1.94806,4.98473,10.02,0.02,1.78,2.0
1758089370.73762,1758089360.79161,0.0,0.0,0.0,-55.11855,14.83961,4.18259,10.03,-0.16,1.38,2.0
1758089370.75436,1758089360.80161,0.0,0.0,0.0,-58.4417,23.49127,2.97938,10.03,-0.16,1.38,2.0
1758089370.77282,1758089360.81161,0.0,0.0,0.0,-59.64491,30.82513,1.83346,10.72,-0.8,1.36,2.0
1758089370.77402,1758089360.82161,0.0,0.0,0.0,-58.90006,36.95578,0.57296,10.72,-0.8,1.36,2.0
1758089370.79366,1758089360.83161,0.0,0.0,0.0,-56.83742,40.50812,0.17189,10.84,-1.61,0.91,2.0
1758089370.79508,1758089360.84161,0.0,0.0,0.0,-54.02992,38.84654,-0.11459,9.97,-1.99,0.46,2.0
1758089370.81209,1758089360.85161,0.0,0.0,0.0,-51.39432,36.7266,-0.34377,9.97,-1.99,0.46,2.0
1758089370.81382,1758089360.86161,0.0,0.0,0.0,-48.01387,34.89313,-0.68755,9.52,-1.92,0.24,2.0
1758089370.83185,1758089360.87161,0.0,0.0,0.0,-46.46688,33.74722,-0.80214,9.52,-1.92,0.24,2.0
1758089370.83384,1758089360.88161,0.0,0.0,0.0,-45.37826,32.71589,-0.68755,9.44,-1.6,0.44,2.0
1758089370.85173,1758089360.89161,0.0,0.0,0.0,-44.46153,32.14294,-0.51566,9.44,-1.6,0.44,2.0
1758089370.85378,1758089360.90161,0.0,0.0,0.0,-44.17505,32.48671,0.0,9.81,-1.32,0.79,2.0
1758089370.87189,1758089360.91161,0.0,0.0,0.0,-44.40423,32.08564,0.0,10.12,-1.12,0.78,2.0
1758089370.87314,1758089360.92161,0.0,0.0,0.0,-45.03448,31.79916,-0.34377,10.12,-1.12,0.78,2.0
1758089370.88872,1758089360.93161,0.0,0.0,0.0,-45.43555,32.37212,-0.80214,10.27,-1.05,0.69,2.0
1758089370.8913,1758089360.94161,0.0,0.0,0.0,-45.37826,31.28349,-1.3178,10.27,-1.05,0.69,2.0
1758089370.90763,1758089360.95161,0.0,0.0,0.0,-44.63341,29.9084,-1.48969,9.98,-1.12,0.59,2.0
1758089370.90848,1758089360.96161,0.0,0.0,0.0,-44.17505,28.87707,-2.06265,9.98,-1.12,0.59,2.0
1758089370.92351,1758089360.97161,0.0,0.0,0.0,-43.54479,29.27814,-2.57831,9.71,-1.29,0.41,2.0
1758089370.94056,1758089360.98161,0.0,0.0,0.0,-42.62806,29.73651,-3.32316,9.51,-1.45,0.4,2.0
1758089370.9441,1758089360.99161,0.0,0.0,0.0,-42.34158,28.13223,-3.95341,9.51,-1.45,0.4,2.0
1758089370.94903,1758089361.00161,0.0,0.0,0.0,-42.22699,26.06958,-4.69825,9.1,-1.54,0.43,2.0
1758089370.97415,1758089361.01161,0.0,0.0,0.0,-42.57077,23.83505,-6.07335,9.1,-1.54,0.43,2.0
1758089371.08894,1758089361.02161,0.0,0.0,0.0,-43.37291,20.34,-6.8182,9.11,-1.47,0.43,2.0
1758089371.09279,1758089361.03161,0.0,0.0,0.0,-43.83128,17.81899,-7.79223,9.11,-1.47,0.43,2.0
1758089371.10388,1758089361.04161,0.0,0.0,0.0,-43.83128,14.32395,-8.36518,9.13,-1.36,0.45,2.0
1758089371.10428,1758089361.05161,0.0,0.0,0.0,-43.14373,11.00079,-8.93814,9.13,-1.36,0.45,2.0
1758089371.18546,1758089361.06161,0.0,0.0,0.0,-41.71133,11.22997,-9.22462,9.3,-1.3,0.45,2.0
1758089371.18787,1758089361.07161,0.0,0.0,0.0,-40.50812,13.17803,-9.5684,9.6,-1.36,0.33,2.0
1758089371.18825,1758089361.08161,0.0,0.0,0.0,-39.64868,15.98552,-10.48513,9.6,-1.36,0.33,2.0
1758089371.19414,1758089361.09161,0.0,0.0,0.0,-38.50277,20.34,-11.74564,9.64,-1.45,0.67,2.0
1758089371.19882,1758089361.10161,0.0,0.0,0.0,-38.1017,22.97561,-12.60507,9.64,-1.45,0.67,2.0
1758089371.20545,1758089361.11161,0.0,0.0,0.0,-37.92981,24.57989,-13.5791,9.56,-1.4,0.75,2.0
1758089371.20612,1758089361.12161,0.0,0.0,0.0,-38.1017,25.21014,-14.43854,9.56,-1.4,0.75,2.0
1758089371.20887,1758089361.13161,0.0,0.0,0.0,-38.27358,24.80907,-15.06879,9.43,-1.24,0.77,2.0
1758089371.21298,1758089361.14161,0.0,0.0,0.0,-38.27358,24.23611,-15.35527,9.42,-1.13,0.65,2.0
1758089371.21399,1758089361.15161,0.0,0.0,0.0,-38.21629,22.86102,-15.46986,9.42,-1.13,0.65,2.0
1758089371.21461,1758089361.16161,0.0,0.0,0.0,-37.52874,19.82434,-15.41257,9.33,-1.22,0.7,2.0
1758089371.21588,1758089361.17161,0.0,0.0,0.0,-34.77854,12.83425,-14.78231,9.33,-1.22,0.7,2.0
1758089371.21652,1758089361.18161,0.0,0.0,0.0,-31.97105,6.70361,-13.98017,9.14,-1.57,0.53,2.0
1758089371.21857,1758089361.19161,0.0,0.0,0.0,-28.93437,0.51566,-13.46451,9.14,-1.57,0.53,2.0
1758089371.21919,1758089361.20161,0.0,0.0,0.0,-25.89769,-4.81285,-13.17803,9.06,-2.11,0.1,2.0
1758089371.22359,1758089361.21161,0.0,0.0,0.0,-20.45459,-10.59972,-13.34992,9.3,-2.65,-0.13,2.0
1758089371.22664,1758089361.22161,0.0,0.0,0.0,-17.47521,-14.72501,-12.77696,9.3,-2.65,-0.13,2.0
1758089371.23314,1758089361.23161,0.0,0.0,0.0,-14.9542,-18.33465,-12.14671,9.42,-2.98,0.01,2.0
1758089371.23404,1758089361.24161,0.0,0.0,0.0,-12.71966,-24.5226,-11.22997,9.42,-2.98,0.01,2.0
1758089371.23799,1758089361.25161,0.0,0.0,0.0,-11.74564,-25.89769,-10.8289,9.47,-2.91,0.26,2.0
1758089371.23913,1758089361.26161,0.0,0.0,0.0,-11.00079,-25.8404,-10.71431,9.47,-2.91,0.26,2.0
1758089371.24075,1758089361.27161,0.0,0.0,0.0,-9.68299,-23.89234,-10.94349,9.43,-2.68,-0.39,2.0
1758089371.24361,1758089361.28161,0.0,0.0,0.0,-6.58902,-15.24068,-11.63104,9.43,-2.68,-0.39,2.0
1758089371.24411,1758089361.29161,0.0,0.0,0.0,-3.55234,-3.60963,-11.17268,9.44,-2.53,-0.46,2.0
1758089371.24929,1758089361.30161,0.0,0.0,0.0,-0.68755,9.62569,-12.71966,9.86,-2.51,-0.15,2.0
1758089371.26884,1758089361.31161,0.0,0.0,0.0,2.46372,22.11617,-14.03747,9.86,-2.51,-0.15,2.0
1758089371.27252,1758089361.32161,0.0,0.0,0.0,7.96411,19.53786,-17.99088,9.03,-2.53,1.11,2.0
1758089371.28759,1758089361.33161,0.0,0.0,0.0,14.32395,-14.66772,-15.35527,9.03,-2.53,1.11,2.0
1758089371.28958,1758089361.34161,0.0,0.0,0.0,17.6471,-44.748,-11.86023,6.11,-2.39,1.38,2.0
1758089371.30484,1758089361.35161,0.0,0.0,0.0,24.12152,-67.09336,0.97403,6.11,-2.39,1.38,2.0
1758089371.38855,1758089361.36161,0.0,0.0,0.0,26.24147,-71.39055,17.24603,11.31,-2.08,2.06,2.0
1758089371.44356,1758089361.37161,0.0,0.0,0.0,21.60051,-64.57235,21.94428,17.58,-0.03,3.03,2.0
1758089371.44396,1758089361.38161,0.0,0.0,0.0,12.89155,-58.15522,22.91831,17.58,-0.03,3.03,2.0
1758089371.44501,1758089361.39161,0.0,0.0,0.0,0.74485,-50.59217,17.6471,17.23,2.66,3.0,2.0
1758089371.44564,1758089361.40161,0.0,0.0,0.0,-17.76169,-44.23235,3.83882,17.23,2.66,3.0,2.0
1758089371.44841,1758089361.41161,0.0,0.0,0.0,-27.33009,-43.20102,-5.4431,11.77,3.06,1.26,2.0
1758089371.44909,1758089361.42161,0.0,0.0,0.0,-33.80451,-40.16434,-13.69369,11.77,3.06,1.26,2.0
1758089371.45345,1758089361.43161,0.0,0.0,0.0,-37.01308,-35.2942,-21.02755,8.18,1.83,0.51,2.0
1758089371.455,1758089361.44161,0.0,0.0,0.0,-34.60666,-26.64254,-22.11617,7.79,1.0,1.22,2.0
1758089371.45619,1758089361.45161,0.0,0.0,0.0,-28.87707,-23.26209,-20.45459,7.79,1.0,1.22,2.0
1758089371.45947,1758089361.46161,0.0,0.0,0.0,-21.48592,-19.13679,-16.50119,8.31,0.46,2.38,2.0
1758089371.46406,1758089361.47161,0.0,0.0,0.0,-10.48513,-11.00079,-9.5684,8.31,0.46,2.38,2.0
1758089371.46899,1758089361.48161,0.0,0.0,0.0,-4.52637,-4.98473,-5.55769,9.42,0.11,2.07,2.0
1758089371.47401,1758089361.49161,0.0,0.0,0.0,-0.80214,2.63561,-2.23454,9.42,0.11,2.07,2.0
1758089371.47884,1758089361.50161,0.0,0.0,0.0,0.17189,11.00079,0.22918,10.54,0.11,1.34,2.0
1758089371.48374,1758089361.51161,0.0,0.0,0.0,0.0573,25.89769,0.0,11.46,0.11,0.81,2.0
1758089371.51877,1758089361.52161,0.0,0.0,0.0,-1.71887,33.74722,-1.20321,11.46,0.56,0.81,2.0
1758089371.51916,1758089361.53161,0.0,0.0,0.0,-4.98473,36.61201,-4.29718,10.94,1.19,0.75,2.0
1758089371.52415,1758089361.54161,0.0,0.0,0.0,-7.44845,36.6693,-6.53172,10.94,1.19,0.75,2.0
1758089371.52891,1758089361.55161,0.0,0.0,0.0,-10.8289,35.3515,-9.11003,10.18,1.56,0.52,2.0
1758089371.53397,1758089361.56161,0.0,0.0,0.0,-12.43318,33.51803,-9.85487,10.18,1.56,0.52,2.0
1758089371.53542,1758089361.57161,0.0,0.0,0.0,-13.86558,31.39809,-10.19865,9.97,1.53,0.46,2.0
1758089371.53721,1758089361.58161,0.0,0.0,0.0,-15.41257,30.76784,-10.37054,9.97,1.53,0.46,2.0
1758089371.53857,1758089361.59161,0.0,0.0,0.0,-17.01685,31.39809,-10.08406,10.16,1.36,0.66,2.0
1758089371.55368,1758089361.60161,0.0,0.0,0.0,-17.81899,32.54401,-9.4538,10.26,1.18,1.0,2.0
1758089371.56047,1758089361.61161,0.0,0.0,0.0,-18.56383,33.74722,-8.59437,10.26,1.18,1.0,2.0
1758089371.58491,1758089361.62161,0.0,0.0,0.0,-19.07949,33.74722,-7.21927,10.0,0.97,1.18,2.0
1758089371.61511,1758089361.63161,0.0,0.0,0.0,-20.11082,31.45539,-6.35983,10.0,0.97,1.18,2.0
1758089371.61812,1758089361.64161,0.0,0.0,0.0,-21.14215,29.04896,-6.24524,9.52,0.81,1.1,2.0
1758089371.6242,1758089361.65161,0.0,0.0,0.0,-22.00158,25.09555,-6.18794,9.52,0.81,1.1,2.0
1758089371.62716,1758089361.66161,0.0,0.0,0.0,-22.86102,16.272,-5.84417,8.87,0.75,0.73,2.0
1758089371.63405,1758089361.67161,0.0,0.0,0.0,-22.74642,9.5684,-5.27121,8.24,0.71,0.5,2.0
1758089371.63547,1758089361.68161,0.0,0.0,0.0,-22.51724,2.63561,-4.69825,8.24,0.71,0.5,2.0
1758089371.63913,1758089361.69161,0.0,0.0,0.0,-22.00158,-4.69825,-3.89611,8.08,0.69,0.55,2.0
1758089371.66348,1758089361.70161,0.0,0.0,0.0,-21.6578,-14.32395,-2.92208,8.08,0.69,0.55,2.0
1758089371.69823,1758089361.71161,0.0,0.0,0.0,-21.6578,-18.9649,-2.57831,8.5,0.79,0.77,2.0
1758089371.70145,1758089361.72161,0.0,0.0,0.0,-21.88699,-22.05888,-2.34913,8.5,0.79,0.77,2.0
1758089371.71966,1758089361.73161,0.0,0.0,0.0,-22.68913,-21.02755,-2.7502,9.42,0.98,1.03,2.0
1758089371.72346,1758089361.74161,0.0,0.0,0.0,-24.00693,-14.78231,-3.26586,10.33,1.04,1.13,2.0
1758089371.72878,1758089361.75161,0.0,0.0,0.0,-24.75178,-9.28192,-3.49504,10.33,1.04,1.13,2.0
1758089371.75308,1758089361.76161,0.0,0.0,0.0,-25.55392,-3.09397,-3.49504,10.65,0.84,1.24,2.0
1758089371.75345,1758089361.77161,0.0,0.0,0.0,-26.41335,3.60963,-3.26586,10.65,0.84,1.24,2.0
1758089371.76355,1758089361.78161,0.0,0.0,0.0,-27.50197,13.34992,-3.32316,10.69,0.52,0.97,2.0
1758089371.76419,1758089361.79161,0.0,0.0,0.0,-28.07493,16.272,-3.26586,10.69,0.52,0.97,2.0
1758089371.76784,1758089361.80161,0.0,0.0,0.0,-28.36141,17.36062,-2.97938,10.1,0.33,0.56,2.0
1758089371.82881,1758089361.81161,0.0,0.0,0.0,-28.476,18.62113,-2.23454,10.1,0.33,0.56,2.0
1758089371.83432,1758089361.82161,0.0,0.0,0.0,-28.13223,20.68378,-0.80214,9.89,0.31,0.29,2.0
1758089371.83506,1758089361.83161,0.0,0.0,0.0,-27.50197,21.02755,0.22918,9.76,0.4,0.32,2.0
1758089371.83854,1758089361.84161,0.0,0.0,0.0,-27.2155,19.53786,1.43239,9.76,0.4,0.32,2.0
1758089371.83968,1758089361.85161,0.0,0.0,0.0,-26.87172,15.92823,3.03668,9.4,0.49,0.46,2.0
1758089371.8454,1758089361.86161,0.0,0.0,0.0,-27.44468,7.21927,3.60963,9.4,0.49,0.46,2.0
1758089371.89752,1758089361.87161,0.0,0.0,0.0,-28.41871,0.80214,3.55234,9.1,0.66,0.35,2.0
1758089371.90057,1758089361.88161,0.0,0.0,0.0,-29.9084,-4.98473,3.09397,9.1,0.66,0.35,2.0
1758089371.9237,1758089361.89161,0.0,0.0,0.0,-33.86181,-11.45916,2.00535,9.05,0.98,0.19,2.0
1758089371.93358,1758089361.90161,0.0,0.0,0.0,-36.6693,-15.29797,0.68755,9.24,1.29,0.32,2.0
1758089371.93416,1758089361.91161,0.0,0.0,0.0,-39.82057,-16.90226,-1.08862,9.24,1.29,0.32,2.0
1758089371.93567,1758089361.92161,0.0,0.0,0.0,-42.74266,-19.82434,-3.03668,9.22,1.39,0.14,2.0
1758089371.93914,1758089361.93161,0.0,0.0,0.0,-45.14908,-28.93437,-4.69825,9.22,1.39,0.14,2.0
1758089371.94077,1758089361.94161,0.0,0.0,0.0,-45.49285,-29.56462,-3.95341,8.93,1.07,-0.29,2.0
1758089371.94663,1758089361.95161,0.0,0.0,0.0,-45.43555,-26.64254,-2.40642,8.93,1.07,-0.29,2.0
1758089371.99888,1758089361.96161,0.0,0.0,0.0,-45.26366,-21.02755,-0.68755,9.86,0.41,-0.23,2.0
1758089372.00407,1758089361.97161,0.0,0.0,0.0,-44.51882,-19.48057,2.23454,9.78,0.03,0.08,2.0
1758089372.00532,1758089361.98161,0.0,0.0,0.0,-45.43555,-24.00693,4.1253,9.78,0.03,0.08,2.0
1758089372.013,1758089361.99161,0.0,0.0,0.0,-47.32632,-34.95043,4.29718,9.06,0.08,-0.42,2.0
1758089372.01414,1758089362.00161,0.0,0.0,0.0,-49.96192,-28.24682,4.69825,9.06,0.08,-0.42,2.0
1758089372.02045,1758089362.01161,0.0,0.0,0.0,-56.26446,-6.47442,2.06265,11.81,0.69,-0.9,2.0
1758089372.04974,1758089362.02161,0.0,0.0,0.0,-58.90006,-3.49504,1.77617,11.81,0.69,-0.9,2.0
1758089372.08913,1758089362.03161,0.0,0.0,0.0,-59.98868,-4.58366,2.6929,10.44,0.91,-0.07,2.0
1758089372.09368,1758089362.04161,0.0,0.0,0.0,-60.33246,-4.29718,4.64096,10.44,0.91,-0.07,2.0
1758089372.10775,1758089362.05161,0.0,0.0,0.0,-59.53032,-0.74485,6.53172,10.13,0.68,-0.02,2.0
1758089372.11578,1758089362.06161,0.0,0.0,0.0,-58.21251,0.85944,8.76626,10.55,0.37,-0.3,2.0
1758089372.11622,1758089362.07161,0.0,0.0,0.0,-55.6915,1.3178,10.8289,10.55,0.37,-0.3,2.0
1758089372.12643,1758089362.08161,0.0,0.0,0.0,-50.2484,-4.46907,12.49048,10.6,-0.17,0.11,2.0
1758089372.13275,1758089362.09161,0.0,0.0,0.0,-46.06581,-13.06344,12.77696,10.6,-0.17,0.11,2.0
1758089372.13553,1758089362.10161,0.0,0.0,0.0,-41.25296,-26.24147,11.34457,10.43,-0.73,0.49,2.0
1758089372.1594,1758089362.11161,0.0,0.0,0.0,-37.18496,-36.6693,8.30789,10.43,-0.73,0.49,2.0
1758089372.16376,1758089362.12161,0.0,0.0,0.0,-30.59595,-40.62271,2.63561,11.59,-1.13,0.43,2.0
1758089372.16531,1758089362.13161,0.0,0.0,0.0,-25.21014,-39.01843,-0.34377,13.21,-1.68,0.26,2.0
1758089372.1672,1758089362.14161,0.0,0.0,0.0,-19.76705,-36.84119,-2.00535,13.21,-1.68,0.26,2.0
1758089372.17178,1758089362.15161,0.0,0.0,0.0,-14.9542,-36.38282,-2.29183,12.63,-1.74,0.67,2.0
1758089372.17628,1758089362.16161,0.0,0.0,0.0,-10.94349,-35.00772,0.57296,12.63,-1.74,0.67,2.0
1758089372.17688,1758089362.17161,0.0,0.0,0.0,-10.37054,-35.92446,4.1253,10.78,-0.69,0.2,2.0
1758089372.1781,1758089362.18161,0.0,0.0,0.0,-11.97482,-38.38818,7.50575,10.78,-0.69,0.2,2.0
1758089372.17872,1758089362.19161,0.0,0.0,0.0,-14.66772,-38.1017,9.11003,8.82,0.43,0.28,2.0
1758089372.17995,1758089362.20161,0.0,0.0,0.0,-19.59516,-28.87707,11.22997,9.05,0.82,1.53,2.0
1758089372.18063,1758089362.21161,0.0,0.0,0.0,-23.83505,-27.10091,10.48513,9.05,0.82,1.53,2.0
1758089372.18417,1758089362.22161,0.0,0.0,0.0,-27.84575,-24.86637,8.47978,8.33,1.04,2.21,2.0
1758089372.18488,1758089362.23161,0.0,0.0,0.0,-31.91375,-23.31938,5.84417,8.33,1.04,2.21,2.0
1758089372.20345,1758089362.24161,0.0,0.0,0.0,-36.32552,-24.00693,2.7502,8.87,0.88,2.56,2.0
1758089372.20441,1758089362.25161,0.0,0.0,0.0,-38.1017,-23.49127,1.48969,8.87,0.88,2.56,2.0
1758089372.22384,1758089362.26161,0.0,0.0,0.0,-38.56006,-21.7151,0.74485,10.35,0.12,2.08,2.0
1758089372.22542,1758089362.27161,0.0,0.0,0.0,-36.84119,-20.34,0.22918,10.35,0.12,2.08,2.0
1758089372.22803,1758089362.28161,0.0,0.0,0.0,-33.63263,-19.36597,0.17189,11.6,-1.09,1.65,2.0
1758089372.31493,1758089362.29161,0.0,0.0,0.0,-29.62192,-18.16276,0.22918,11.52,-1.9,1.12,2.0
1758089372.32332,1758089362.30161,0.0,0.0,0.0,-25.09555,-16.04282,0.51566,11.52,-1.9,1.12,2.0
1758089372.32395,1758089362.31161,0.0,0.0,0.0,-16.95955,-10.25595,1.03132,11.03,-1.91,0.55,2.0
1758089372.32923,1758089362.32161,0.0,0.0,0.0,-12.54778,-6.41713,1.20321,11.03,-1.91,0.55,2.0
1758089372.33407,1758089362.33161,0.0,0.0,0.0,-9.05273,-1.77617,1.43239,10.65,-1.53,0.55,2.0
1758089372.33662,1758089362.34161,0.0,0.0,0.0,-6.70361,1.77617,2.11994,10.65,-1.53,0.55,2.0
1758089372.33909,1758089362.35161,0.0,0.0,0.0,-5.27121,7.16197,2.86479,10.32,-1.11,0.49,2.0
1758089372.34042,1758089362.36161,0.0,0.0,0.0,-5.55769,10.8862,2.57831,10.09,-0.9,0.39,2.0
1758089372.40367,1758089362.37161,0.0,0.0,0.0,-5.95876,14.32395,2.06265,10.09,-0.9,0.39,2.0
1758089372.40925,1758089362.38161,0.0,0.0,0.0,-6.07335,17.36062,1.60428,9.79,-0.82,0.38,2.0
1758089372.4856,1758089362.39161,0.0,0.0,0.0,-4.92744,20.51189,1.08862,9.79,-0.82,0.38,2.0
1758089372.48895,1758089362.40161,0.0,0.0,0.0,-4.18259,22.74642,0.85944,9.26,-0.81,0.03,2.0
1758089372.49295,1758089362.41161,0.0,0.0,0.0,-3.38045,25.89769,0.80214,9.26,-0.81,0.03,2.0
1758089372.49358,1758089362.42161,0.0,0.0,0.0,-2.34913,28.41871,0.51566,9.16,-0.84,-0.06,2.0
1758089372.54354,1758089362.43161,0.0,0.0,0.0,-0.80214,29.96569,-0.40107,9.01,-0.83,0.0,2.0
1758089372.54401,1758089362.44161,0.0,0.0,0.0,0.0573,31.2262,-1.08862,9.01,-0.83,0.0,2.0
1758089372.54923,1758089362.45161,0.0,0.0,0.0,1.03132,33.05967,-1.71887,9.41,-0.85,0.02,2.0
1758089372.55376,1758089362.46161,0.0,0.0,0.0,2.63561,34.09099,-2.06265,9.41,-0.85,0.02,2.0
1758089372.55906,1758089362.47161,0.0,0.0,0.0,5.09932,31.74186,-1.77617,9.66,-0.91,-0.02,2.0
1758089372.56866,1758089362.48161,0.0,0.0,0.0,6.7609,29.27814,-1.60428,9.66,-0.91,-0.02,2.0
1758089372.63884,1758089362.49161,0.0,0.0,0.0,8.25059,27.1582,-1.43239,9.8,-0.97,-0.09,2.0
1758089372.64356,1758089362.50161,0.0,0.0,0.0,10.08406,24.23611,-1.3751,9.8,-0.97,-0.09,2.0
1758089372.67279,1758089362.51161,0.0,0.0,0.0,11.17268,22.11617,-1.3751,9.94,-1.0,-0.26,2.0
1758089372.67904,1758089362.52161,0.0,0.0,0.0,12.43318,20.68378,-1.43239,9.97,-0.94,-0.31,2.0
1758089372.68423,1758089362.53161,0.0,0.0,0.0,13.40721,20.34,-1.3751,9.97,-0.94,-0.31,2.0
1758089372.68896,1758089362.54161,0.0,0.0,0.0,14.9542,21.02755,-1.03132,10.1,-0.85,-0.33,2.0
1758089372.69441,1758089362.55161,0.0,0.0,0.0,15.92823,24.4653,-1.20321,10.1,-0.85,-0.33,2.0
1758089372.72324,1758089362.56161,0.0,0.0,0.0,16.61578,29.50733,-1.48969,10.37,-0.79,-0.41,2.0
1758089372.72404,1758089362.57161,0.0,0.0,0.0,17.01685,35.06502,-2.11994,10.37,-0.79,-0.41,2.0
1758089372.72947,1758089362.58161,0.0,0.0,0.0,17.36062,39.70598,-3.55234,10.24,-0.71,-0.19,2.0
1758089372.73407,1758089362.59161,0.0,0.0,0.0,17.6471,39.82057,-4.87014,9.58,-0.67,0.02,2.0
1758089372.73524,1758089362.60161,0.0,0.0,0.0,18.16276,37.87251,-5.72958,9.58,-0.67,0.02,2.0
1758089372.73636,1758089362.61161,0.0,0.0,0.0,19.13679,34.14828,-6.18794,9.17,-0.85,-0.02,2.0
1758089372.73843,1758089362.62161,0.0,0.0,0.0,22.00158,25.89769,-6.07335,9.17,-0.85,-0.02,2.0
1758089372.73903,1758089362.63161,0.0,0.0,0.0,25.61122,19.53786,-5.09932,8.86,-1.38,-0.28,2.0
1758089372.74375,1758089362.64161,0.0,0.0,0.0,29.96569,12.71966,-3.66693,8.86,-1.38,-0.28,2.0
1758089372.74409,1758089362.65161,0.0,0.0,0.0,35.12231,6.58902,-1.83346,8.7,-2.09,-0.7,2.0
1758089372.74925,1758089362.66161,0.0,0.0,0.0,43.77398,-1.03132,0.74485,8.86,-2.62,-1.0,2.0
1758089372.75389,1758089362.67161,0.0,0.0,0.0,47.95657,-7.79223,2.86479,8.86,-2.62,-1.0,2.0
1758089372.75476,1758089362.68161,0.0,0.0,0.0,50.53488,-16.67307,4.64096,8.82,-2.59,-1.15,2.0
1758089372.75734,1758089362.69161,0.0,0.0,0.0,51.50891,-27.04361,5.78687,8.82,-2.59,-1.15,2.0
1758089372.75815,1758089362.70161,0.0,0.0,0.0,50.93595,-28.76248,4.69825,9.02,-1.92,-0.84,2.0
1758089372.75923,1758089362.71161,0.0,0.0,0.0,51.5662,-25.61122,4.18259,9.02,-1.92,-0.84,2.0
1758089372.75988,1758089362.72161,0.0,0.0,0.0,52.54023,-16.95955,4.23989,9.6,-1.38,-1.06,2.0
1758089372.76268,1758089362.73161,0.0,0.0,0.0,52.76942,-2.00535,3.26586,9.6,-1.38,0.04,2.0
1758089372.76336,1758089362.74161,0.0,0.0,0.0,53.05589,5.95876,1.48969,9.63,-1.15,0.04,2.0
1758089372.76459,1758089362.75161,0.0,0.0,0.0,53.80074,9.39651,-1.43239,8.51,-0.99,0.43,2.0
1758089372.76917,1758089362.76161,0.0,0.0,0.0,56.55093,4.35448,-3.72423,8.51,-0.99,0.43,2.0
1758089372.77361,1758089362.77161,0.0,0.0,0.0,61.42108,-35.00772,-4.23989,6.19,-0.93,0.08,2.0
1758089372.77476,1758089362.78161,0.0,0.0,0.0,65.43179,-54.66018,2.29183,6.19,-0.93,0.08,2.0
1758089372.77548,1758089362.79161,0.0,0.0,0.0,66.69229,-59.53032,7.21927,8.7,-1.14,-0.09,2.0
1758089372.77883,1758089362.80161,0.0,0.0,0.0,68.69764,-64.57235,15.46986,8.7,-1.14,-0.09,2.0
1758089372.77925,1758089362.81161,0.0,0.0,0.0,64.28587,-65.54638,24.17882,13.49,-0.39,1.93,2.0
1758089372.78513,1758089362.82161,0.0,0.0,0.0,56.14987,-58.21251,26.69983,18.52,1.78,4.12,2.0
1758089372.78607,1758089362.83161,0.0,0.0,0.0,44.86259,-47.09713,24.5226,18.52,1.78,4.12,2.0
1758089372.7878,1758089362.84161,0.0,0.0,0.0,32.20023,-36.38282,16.95955,17.87,3.51,2.26,2.0
1758089372.80403,1758089362.85161,0.0,0.0,0.0,14.9542,-30.59595,0.97403,17.87,3.51,2.26,2.0
1758089372.80683,1758089362.86161,0.0,0.0,0.0,6.70361,-25.49662,-8.36518,11.26,2.27,-0.15,2.0
1758089372.82727,1758089362.87161,0.0,0.0,0.0,1.43239,-19.53786,-16.61578,11.26,2.27,-0.15,2.0
1758089372.82849,1758089362.88161,0.0,0.0,0.0,1.66158,-14.61043,-22.00158,8.59,1.17,-0.04,2.0
1758089372.84303,1758089362.89161,0.0,0.0,0.0,6.24524,-8.47978,-21.08485,8.83,0.92,0.97,2.0
1758089372.85892,1758089362.90161,0.0,0.0,0.0,13.5791,-3.72423,-17.18874,8.83,0.92,0.97,2.0
1758089372.86096,1758089362.91161,0.0,0.0,0.0,22.74642,-0.57296,-11.57375,9.74,0.54,2.72,2.0
1758089372.87787,1758089362.92161,0.0,0.0,0.0,36.84119,4.46907,-3.20856,9.74,0.54,2.72,2.0
1758089372.87909,1758089362.93161,0.0,0.0,0.0,44.17505,9.05273,1.3751,9.75,0.02,2.08,2.0
1758089372.89405,1758089362.94161,0.0,0.0,0.0,47.78468,16.04282,6.35983,9.75,0.02,2.08,2.0
1758089372.89518,1758089362.95161,0.0,0.0,0.0,51.27972,20.3973,6.58902,10.1,0.12,1.21,2.0
1758089372.91265,1758089362.96161,0.0,0.0,0.0,48.8733,29.96569,6.41713,11.01,0.12,0.98,2.0
1758089372.92912,1758089362.97161,0.0,0.0,0.0,44.63341,36.26823,3.03668,11.01,0.63,0.98,2.0
1758089372.93401,1758089362.98161,0.0,0.0,0.0,39.13302,40.7373,-0.51566,10.87,1.81,0.49,2.0
1758089372.94931,1758089362.99161,0.0,0.0,0.0,33.63263,40.96649,-3.60963,10.87,1.81,0.49,2.0
1758089373.05557,1758089363.00161,0.0,0.0,0.0,26.12688,39.99245,-6.35983,9.99,2.46,0.32,2.0
1758089373.07375,1758089363.01161,0.0,0.0,0.0,22.00158,38.73195,-6.7609,9.99,2.46,0.32,2.0
1758089373.07903,1758089363.02161,0.0,0.0,0.0,18.16276,38.56006,-7.04738,9.84,2.47,0.54,2.0
1758089373.08279,1758089363.03161,0.0,0.0,0.0,15.58445,38.27358,-6.24524,9.84,2.47,0.54,2.0
1758089373.08402,1758089363.04161,0.0,0.0,0.0,12.77696,37.64333,-5.55769,10.04,2.08,0.62,2.0
1758089373.09354,1758089363.05161,0.0,0.0,0.0,11.86023,38.15899,-4.64096,10.31,1.48,0.85,2.0
1758089373.09401,1758089363.06161,0.0,0.0,0.0,11.34457,38.15899,-4.0107,10.31,1.48,0.85,2.0
1758089373.09851,1758089363.07161,0.0,0.0,0.0,11.17268,36.89849,-3.09397,10.0,1.01,0.69,2.0
1758089373.09924,1758089363.08161,0.0,0.0,0.0,11.51645,34.26288,-1.94806,10.0,1.01,0.69,2.0
1758089373.10423,1758089363.09161,0.0,0.0,0.0,11.86023,33.05967,-1.14592,9.51,0.73,0.56,2.0
1758089373.10506,1758089363.10161,0.0,0.0,0.0,11.91752,31.91375,-0.51566,9.51,0.73,0.56,2.0
1758089373.11339,1758089363.11161,0.0,0.0,0.0,11.57375,27.61657,-1.20321,9.16,0.64,0.65,2.0
1758089373.11411,1758089363.12161,0.0,0.0,0.0,11.74564,22.23076,-1.83346,8.4,0.66,0.52,2.0
1758089373.11949,1758089363.13161,0.0,0.0,0.0,11.97482,16.67307,-1.71887,8.4,0.66,0.52,2.0
1758089373.17976,1758089363.14161,0.0,0.0,0.0,12.54778,11.74564,-1.3178,8.14,0.56,0.35,2.0
1758089373.1839,1758089363.15161,0.0,0.0,0.0,14.49583,3.72423,0.74485,8.14,0.56,0.35,2.0
1758089373.18598,1758089363.16161,0.0,0.0,0.0,16.04282,-1.3178,2.34913,8.2,0.39,0.15,2.0
1758089373.18887,1758089363.17161,0.0,0.0,0.0,17.47521,-5.78687,4.23989,8.2,0.39,0.15,2.0
1758089373.19375,1758089363.18161,0.0,0.0,0.0,18.27736,-8.30789,5.27121,8.64,0.42,0.17,2.0
1758089373.19865,1758089363.19161,0.0,0.0,0.0,18.73572,-5.84417,7.44845,9.47,0.62,0.24,2.0
1758089373.20326,1758089363.20161,0.0,0.0,0.0,18.50654,-1.83346,8.30789,9.47,0.62,0.24,2.0
1758089373.24921,1758089363.21161,0.0,0.0,0.0,17.81899,2.6929,8.88085,9.95,0.8,0.56,2.0
1758089373.37277,1758089363.22161,0.0,0.0,0.0,16.55848,8.88085,9.22462,9.95,0.8,0.56,2.0
1758089373.3735,1758089363.23161,0.0,0.0,0.0,14.15206,17.36062,9.91217,10.14,0.93,0.8,2.0
1758089373.37867,1758089363.24161,0.0,0.0,0.0,12.14671,22.91831,10.48513,10.14,0.93,0.8,2.0
1758089373.3794,1758089363.25161,0.0,0.0,0.0,9.74028,28.76248,11.00079,10.08,1.05,0.69,2.0
1758089373.38945,1758089363.26161,0.0,0.0,0.0,7.39116,32.77319,11.22997,10.08,1.05,0.69,2.0
1758089373.39364,1758089363.27161,0.0,0.0,0.0,4.0107,30.02299,11.45916,9.83,1.13,0.65,2.0
1758089373.39429,1758089363.28161,0.0,0.0,0.0,2.23454,25.7831,11.74564,9.2,1.05,0.37,2.0
1758089373.39488,1758089363.29161,0.0,0.0,0.0,0.57296,21.94428,12.14671,9.2,1.05,0.37,2.0
1758089373.40363,1758089363.30161,0.0,0.0,0.0,-1.43239,17.76169,12.54778,9.24,0.93,0.23,2.0
1758089373.40402,1758089363.31161,0.0,0.0,0.0,-2.34913,7.50575,13.17803,9.24,0.93,0.23,2.0
1758089373.40521,1758089363.32161,0.0,0.0,0.0,-3.89611,0.22918,13.12073,9.05,0.94,0.07,2.0
1758089373.40582,1758089363.33161,0.0,0.0,0.0,-5.55769,-7.33386,13.06344,9.05,0.94,0.07,2.0
1758089373.40866,1758089363.34161,0.0,0.0,0.0,-8.99544,-17.18874,12.14671,9.23,1.07,0.0,2.0
1758089373.40928,1758089363.35161,0.0,0.0,0.0,-11.80293,-22.63183,11.11538,9.67,1.3,-0.31,2.0
1758089373.41419,1758089363.36161,0.0,0.0,0.0,-14.49583,-26.52795,9.68299,9.67,1.3,-0.31,2.0
1758089373.41921,1758089363.37161,0.0,0.0,0.0,-17.47521,-28.59059,8.42248,10.01,1.51,-0.26,2.0
1758089373.42389,1758089363.38161,0.0,0.0,0.0,-21.94428,-28.476,6.53172,10.01,1.51,-0.26,2.0
1758089373.45368,1758089363.39161,0.0,0.0,0.0,-25.09555,-27.50197,4.92744,10.27,1.61,-0.36,2.0
1758089373.45411,1758089363.40161,0.0,0.0,0.0,-27.04361,-29.33544,4.23989,10.27,1.61,-0.36,2.0
1758089373.45926,1758089363.41161,0.0,0.0,0.0,-28.36141,-30.65324,4.29718,9.84,1.55,-0.55,2.0
1758089373.46123,1758089363.42161,0.0,0.0,0.0,-29.04896,-25.72581,5.21392,10.13,1.27,-0.89,2.0
1758089373.46948,1758089363.43161,0.0,0.0,0.0,-29.10626,-21.6578,6.58902,10.13,1.27,-0.89,2.0
1758089373.47293,1758089363.44161,0.0,0.0,0.0,-29.9084,-16.95955,8.59437,10.5,1.31,0.03,2.0
1758089373.47412,1758089363.45161,0.0,0.0,0.0,-29.9084,-12.60507,10.8862,10.5,1.31,0.03,2.0
1758089373.48043,1758089363.46161,0.0,0.0,0.0,-27.96034,-5.78687,13.86558,11.76,0.97,1.43,2.0
1758089373.48394,1758089363.47161,0.0,0.0,0.0,-26.01229,-23.26209,12.49048,11.76,0.97,1.43,2.0
1758089373.48848,1758089363.48161,0.0,0.0,0.0,-26.52795,-41.42485,6.8182,11.78,0.76,2.87,2.0
1758089373.49453,1758089363.49161,0.0,0.0,0.0,-26.06958,-52.65482,-4.87014,11.78,0.76,2.87,2.0
1758089373.51429,1758089363.50161,0.0,0.0,0.0,-24.00693,-58.4417,-13.17803,14.25,0.14,2.35,2.0
1758089373.515,1758089363.51161,0.0,0.0,0.0,-18.73572,-47.32632,-16.61578,15.23,-1.44,0.4,2.0
1758089373.52015,1758089363.52161,0.0,0.0,0.0,-12.83425,-34.32018,-16.61578,15.23,-1.44,0.4,2.0
1758089373.52376,1758089363.53161,0.0,0.0,0.0,-4.58366,-23.0329,-11.22997,11.65,-1.8,0.53,2.0
1758089373.52515,1758089363.54161,0.0,0.0,0.0,-0.11459,-23.49127,-5.95876,11.65,-1.8,0.53,2.0
1758089373.52925,1758089363.55161,0.0,0.0,0.0,2.92208,-23.66316,-0.57296,7.66,-0.96,0.71,2.0
1758089373.53337,1758089363.56161,0.0,0.0,0.0,4.1253,-23.60586,4.35448,7.66,-0.96,0.71,2.0
1758089373.53414,1758089363.57161,0.0,0.0,0.0,2.06265,-22.86102,6.70361,6.8,-0.05,0.45,2.0
1758089373.54084,1758089363.58161,0.0,0.0,0.0,-2.46372,-23.31938,5.4431,7.71,0.68,1.59,2.0
1758089373.54333,1758089363.59161,0.0,0.0,0.0,-7.33386,-22.05888,2.7502,7.71,0.68,1.59,2.0
1758089373.55175,1758089363.60161,0.0,0.0,0.0,-11.86023,-21.31403,1.14592,8.74,0.77,3.18,2.0
1758089373.75303,1758089363.61161,0.0,0.0,0.0,-18.85031,-28.07493,-1.94806,8.74,0.77,3.18,2.0
1758089373.75906,1758089363.62161,0.0,0.0,0.0,-22.23076,-28.24682,-3.72423,9.26,0.19,2.79,2.0
1758089373.76364,1758089363.63161,0.0,0.0,0.0,-23.37668,-24.57989,-4.81285,9.26,0.19,2.79,2.0
1758089373.76541,1758089363.64161,0.0,0.0,0.0,-22.91831,-20.34,-4.87014,10.84,-0.76,1.8,2.0
1758089373.76845,1758089363.65161,0.0,0.0,0.0,-18.16276,-11.97482,-3.38045,10.88,-1.93,0.85,2.0
1758089373.77289,1758089363.66161,0.0,0.0,0.0,-13.34992,-4.92744,-1.66158,10.88,-1.93,0.85,2.0
1758089373.77426,1758089363.67161,0.0,0.0,0.0,-7.73493,1.77617,0.57296,10.57,-2.71,0.66,2.0
1758089373.77676,1758089363.68161,0.0,0.0,0.0,-2.06265,8.30789,3.03668,10.57,-2.71,0.66,2.0
1758089373.78186,1758089363.69161,0.0,0.0,0.0,4.58366,15.92823,5.32851,10.29,-2.63,0.41,2.0
1758089373.80914,1758089363.70161,0.0,0.0,0.0,7.62034,21.25674,6.24524,10.29,-2.63,0.41,2.0
1758089373.81397,1758089363.71161,0.0,0.0,0.0,9.4538,26.47065,6.70361,10.55,-1.92,0.27,2.0
1758089373.81514,1758089363.72161,0.0,0.0,0.0,11.11538,33.9764,7.04738,10.55,-1.92,0.27,2.0
1758089373.81902,1758089363.73161,0.0,0.0,0.0,11.45916,34.72124,7.10468,10.92,-1.37,0.65,2.0
1758089373.8202,1758089363.74161,0.0,0.0,0.0,11.45916,34.49206,6.8182,10.52,-1.01,0.62,2.0
1758089373.82324,1758089363.75161,0.0,0.0,0.0,10.8862,34.95043,6.47442,10.52,-1.01,0.62,2.0
1758089373.82386,1758089363.76161,0.0,0.0,0.0,10.31324,34.89313,5.4431,10.6,-0.7,0.71,2.0
1758089373.82915,1758089363.77161,0.0,0.0,0.0,9.91217,34.66395,4.29718,10.6,-0.7,0.71,2.0
1758089373.83307,1758089363.78161,0.0,0.0,0.0,10.08406,33.17426,3.83882,10.14,-0.64,0.51,2.0
1758089373.83421,1758089363.79161,0.0,0.0,0.0,11.17268,31.28349,2.92208,10.14,-0.64,0.51,2.0
1758089373.83882,1758089363.80161,0.0,0.0,0.0,13.40721,28.87707,2.34913,9.53,-0.81,0.56,2.0
1758089373.84004,1758089363.81161,0.0,0.0,0.0,15.29797,28.07493,2.23454,9.24,-1.05,0.38,2.0
1758089373.84066,1758089363.82161,0.0,0.0,0.0,17.01685,26.81443,2.29183,9.24,-1.05,0.38,2.0
1758089373.84384,1758089363.83161,0.0,0.0,0.0,18.73572,23.60586,2.29183,8.89,-1.23,0.47,2.0
1758089373.84888,1758089363.84161,0.0,0.0,0.0,19.88164,15.46986,1.94806,8.89,-1.23,0.47,2.0
1758089373.8533,1758089363.85161,0.0,0.0,0.0,20.22541,10.31324,1.60428,8.59,-1.2,0.28,2.0
1758089373.85391,1758089363.86161,0.0,0.0,0.0,19.99623,5.27121,1.03132,8.59,-1.2,0.28,2.0
1758089373.8547,1758089363.87161,0.0,0.0,0.0,19.59516,0.40107,0.40107,8.77,-1.01,0.1,2.0
1758089373.86061,1758089363.88161,0.0,0.0,0.0,19.07949,-5.95876,-0.45837,8.94,-0.76,0.14,2.0
1758089373.86525,1758089363.89161,0.0,0.0,0.0,18.9649,-6.58902,-0.97403,8.94,-0.76,0.14,2.0
1758089373.86717,1758089363.90161,0.0,0.0,0.0,18.44924,-3.89611,-1.83346,9.57,-0.57,0.22,2.0
1758089373.8678,1758089363.91161,0.0,0.0,0.0,16.84496,0.40107,-3.20856,9.57,-0.57,0.22,2.0
1758089373.86909,1758089363.92161,0.0,0.0,0.0,15.92823,7.50575,-4.18259,9.86,-0.46,0.59,2.0
1758089373.88664,1758089363.93161,0.0,0.0,0.0,15.41257,13.00614,-4.98473,9.86,-0.46,0.59,2.0
1758089373.89368,1758089363.94161,0.0,0.0,0.0,15.06879,17.36062,-5.95876,9.9,-0.5,0.61,2.0
1758089374.06921,1758089363.95161,0.0,0.0,0.0,15.41257,22.68913,-6.7609,9.9,-0.5,0.61,2.0
1758089374.08318,1758089363.96161,0.0,0.0,0.0,15.75634,24.80907,-7.04738,9.82,-0.67,0.48,2.0
1758089374.10601,1758089363.97161,0.0,0.0,0.0,16.55848,24.86637,-6.53172,9.64,-0.95,0.38,2.0
1758089374.10831,1758089363.98161,0.0,0.0,0.0,17.36062,23.0329,-6.07335,9.64,-0.95,0.38,2.0
1758089374.10871,1758089363.99161,0.0,0.0,0.0,19.07949,16.90226,-4.98473,9.21,-1.21,0.16,2.0
1758089374.11389,1758089364.00161,0.0,0.0,0.0,20.97026,10.94349,-3.95341,9.21,-1.21,0.16,2.0
1758089374.11612,1758089364.01161,0.0,0.0,0.0,23.26209,3.09397,-3.20856,8.86,-1.5,-0.17,2.0
1758089374.11772,1758089364.02161,0.0,0.0,0.0,25.8404,-4.69825,-2.46372,8.86,-1.5,-0.17,2.0
1758089374.11872,1758089364.03161,0.0,0.0,0.0,30.53865,-14.66772,-1.77617,8.75,-1.78,-0.44,2.0
1758089374.12211,1758089364.04161,0.0,0.0,0.0,33.9764,-18.90761,-1.3178,9.17,-1.97,-0.4,2.0
1758089374.14595,1758089364.05161,0.0,0.0,0.0,37.24226,-22.05888,-0.97403,9.17,-1.97,-0.4,2.0
1758089374.14964,1758089364.06161,0.0,0.0,0.0,40.27893,-24.80907,-0.80214,9.53,-1.98,-0.14,2.0
1758089374.15338,1758089364.07161,0.0,0.0,0.0,44.86259,-27.50197,-0.97403,9.53,-1.98,-0.14,2.0
1758089374.15425,1758089364.08161,0.0,0.0,0.0,46.81066,-29.62192,-0.51566,9.69,-1.89,-0.2,2.0
1758089374.15886,1758089364.09161,0.0,0.0,0.0,47.38361,-32.42941,-0.80214,9.69,-1.89,-0.2,2.0
1758089374.1599,1758089364.10161,0.0,0.0,0.0,47.44091,-33.05967,-1.14592,9.57,-1.75,-0.08,2.0
1758089374.16117,1758089364.11161,0.0,0.0,0.0,46.98254,-29.22085,-3.60963,9.72,-1.63,-0.84,2.0
1758089374.16659,1758089364.12161,0.0,0.0,0.0,47.15443,-19.19409,-5.32851,9.72,-1.63,-0.84,2.0
1758089374.17334,1758089364.13161,0.0,0.0,0.0,49.21708,-4.58366,-5.4431,10.93,-1.58,-0.79,2.0
1758089374.26909,1758089364.14161,0.0,0.0,0.0,49.96192,13.86558,-7.44845,10.93,-1.58,-0.79,2.0
1758089374.2786,1758089364.15161,0.0,0.0,0.0,50.3057,18.73572,-8.02141,11.0,-1.54,0.34,2.0
1758089374.27899,1758089364.16161,0.0,0.0,0.0,50.53488,16.10011,-7.84952,11.0,-1.54,0.34,2.0
1758089374.28401,1758089364.17161,0.0,0.0,0.0,50.363,9.62569,-7.96411,10.65,-1.43,1.43,2.0
1758089374.28546,1758089364.18161,0.0,0.0,0.0,52.42564,-54.14451,-0.85944,10.65,-1.43,2.09,2.0
1758089374.28863,1758089364.19161,0.0,0.0,0.0,57.81144,-86.63122,11.86023,8.72,-0.89,2.09,2.0
1758089374.29129,1758089364.20161,0.0,0.0,0.0,56.20716,-86.17285,19.70975,14.47,-0.62,1.63,2.0
1758089374.29284,1758089364.21161,0.0,0.0,0.0,52.25375,-74.54182,22.68913,14.47,-0.62,1.63,2.0
1758089374.29396,1758089364.22161,0.0,0.0,0.0,44.17505,-65.08801,20.3973,17.19,1.82,2.19,2.0
1758089374.29458,1758089364.23161,0.0,0.0,0.0,37.58603,-61.1346,13.12073,17.19,1.82,2.19,2.0
1758089374.29895,1758089364.24161,0.0,0.0,0.0,31.28349,-57.12389,5.72958,13.04,2.46,1.96,2.0
1758089374.30397,1758089364.25161,0.0,0.0,0.0,25.09555,-49.21708,-3.49504,13.04,2.46,1.96,2.0
1758089374.30567,1758089364.26161,0.0,0.0,0.0,20.74107,-40.62271,-14.03747,9.42,1.7,1.16,2.0
1758089374.30789,1758089364.27161,0.0,0.0,0.0,20.85567,-31.45539,-18.85031,8.28,1.54,0.67,2.0
1758089374.30915,1758089364.28161,0.0,0.0,0.0,24.5226,-21.6578,-19.13679,8.28,1.54,0.67,2.0
1758089374.31397,1758089364.29161,0.0,0.0,0.0,29.9084,-11.97482,-16.95955,9.53,1.26,1.73,2.0
1758089374.31753,1758089364.30161,0.0,0.0,0.0,39.07573,0.85944,-10.8289,9.53,1.26,1.73,2.0
1758089374.32367,1758089364.31161,0.0,0.0,0.0,44.23235,10.54242,-6.24524,10.35,0.81,1.64,2.0
1758089374.39426,1758089364.32161,0.0,0.0,0.0,47.09713,19.99623,-2.57831,10.35,0.81,1.64,2.0
1758089374.40396,1758089364.33161,0.0,0.0,0.0,49.15978,30.19488,0.80214,10.89,0.7,0.96,2.0
1758089374.40561,1758089364.34161,0.0,0.0,0.0,46.81066,43.4875,0.45837,11.38,0.94,0.8,2.0
1758089374.45576,1758089364.35161,0.0,0.0,0.0,42.62806,50.53488,-1.77617,11.38,0.94,0.8,2.0
1758089374.45721,1758089364.36161,0.0,0.0,0.0,39.13302,52.19646,-4.0107,10.57,1.57,0.31,2.0
1758089374.45897,1758089364.37161,0.0,0.0,0.0,33.05967,49.90463,-7.04738,10.57,1.57,0.31,2.0
1758089374.46049,1758089364.38161,0.0,0.0,0.0,29.73651,46.86795,-7.96411,9.47,1.92,0.26,2.0
1758089374.46396,1758089364.39161,0.0,0.0,0.0,27.44468,43.94586,-7.96411,9.47,1.92,0.26,2.0
1758089374.49907,1758089364.40161,0.0,0.0,0.0,25.21014,42.51347,-7.67763,9.22,2.0,0.19,2.0
1758089374.66822,1758089364.41161,0.0,0.0,0.0,23.26209,40.68,-6.24524,9.34,2.0,0.39,2.0
1758089374.67421,1758089364.42161,0.0,0.0,0.0,22.28806,39.87786,-5.15662,9.34,1.71,0.39,2.0
1758089374.67781,1758089364.43161,0.0,0.0,0.0,21.48592,39.64868,-4.23989,9.35,1.35,0.65,2.0
1758089374.67846,1758089364.44161,0.0,0.0,0.0,21.14215,39.24761,-3.20856,9.35,1.35,0.65,2.0
1758089374.6839,1758089364.45161,0.0,0.0,0.0,20.62648,38.27358,-1.60428,9.33,1.03,0.7,2.0
1758089374.6851,1758089364.46161,0.0,0.0,0.0,20.3973,37.87251,-0.22918,9.33,1.03,0.7,2.0
1758089374.68587,1758089364.47161,0.0,0.0,0.0,20.34,37.64333,1.03132,9.32,0.83,0.68,2.0
1758089374.68778,1758089364.48161,0.0,0.0,0.0,19.48057,37.35685,1.3751,9.32,0.83,0.68,2.0
1758089374.68852,1758089364.49161,0.0,0.0,0.0,17.6471,35.58068,0.34377,9.34,0.8,0.91,2.0
1758089374.69279,1758089364.50161,0.0,0.0,0.0,16.38659,34.14828,-0.51566,9.17,0.95,0.74,2.0
1758089374.69362,1758089364.51161,0.0,0.0,0.0,15.12609,31.45539,-1.08862,9.17,0.95,0.74,2.0
1758089374.69581,1758089364.52161,0.0,0.0,0.0,14.32395,27.04361,-1.20321,8.86,1.06,0.68,2.0
1758089374.69629,1758089364.53161,0.0,0.0,0.0,14.03747,19.19409,-0.45837,8.86,1.06,0.68,2.0
1758089374.69895,1758089364.54161,0.0,0.0,0.0,14.09476,14.72501,0.74485,8.87,1.05,0.57,2.0
1758089374.70121,1758089364.55161,0.0,0.0,0.0,14.38124,10.59972,2.23454,8.87,1.05,0.57,2.0
1758089374.70906,1758089364.56161,0.0,0.0,0.0,14.49583,5.50039,4.64096,9.25,0.9,0.6,2.0
1758089374.71422,1758089364.57161,0.0,0.0,0.0,14.20935,2.92208,6.07335,9.49,0.81,0.62,2.0
1758089374.88396,1758089364.58161,0.0,0.0,0.0,13.40721,2.92208,6.8182,9.49,0.81,0.62,2.0
1758089374.8861,1758089364.59161,0.0,0.0,0.0,12.49048,5.50039,7.33386,9.88,0.85,0.61,2.0
1758089374.89129,1758089364.60161,0.0,0.0,0.0,10.65701,10.48513,7.84952,9.88,0.85,0.61,2.0
1758089374.89272,1758089364.61161,0.0,0.0,0.0,9.11003,14.03747,8.25059,9.97,0.95,0.57,2.0
1758089374.89347,1758089364.62161,0.0,0.0,0.0,7.21927,19.42327,8.88085,9.97,0.95,0.57,2.0
1758089374.89463,1758089364.63161,0.0,0.0,0.0,5.21392,25.15285,9.39651,10.09,0.96,0.43,2.0
1758089374.89534,1758089364.64161,0.0,0.0,0.0,2.34913,30.53865,10.65701,9.83,0.92,0.37,2.0
1758089374.89728,1758089364.65161,0.0,0.0,0.0,0.68755,33.00237,11.63104,9.83,0.92,0.37,2.0
1758089374.89865,1758089364.66161,0.0,0.0,0.0,-0.80214,33.86181,12.49048,9.59,0.85,0.26,2.0
1758089374.89984,1758089364.67161,0.0,0.0,0.0,-2.34913,33.11696,13.12073,9.59,0.85,0.26,2.0
1758089374.90292,1758089364.68161,0.0,0.0,0.0,-3.95341,28.87707,14.83961,9.32,0.85,0.13,2.0
1758089374.90409,1758089364.69161,0.0,0.0,0.0,-4.69825,21.7151,16.272,9.32,0.85,0.13,2.0
1758089374.90558,1758089364.70161,0.0,0.0,0.0,-5.84417,12.89155,16.61578,8.99,0.95,0.13,2.0
1758089374.90841,1758089364.71161,0.0,0.0,0.0,-7.04738,2.7502,16.73037,8.99,0.95,0.13,2.0
1758089374.90904,1758089364.72161,0.0,0.0,0.0,-9.62569,-10.25595,15.87093,8.92,1.2,-0.08,2.0
1758089374.91535,1758089364.73161,0.0,0.0,0.0,-12.204,-17.18874,14.61043,9.37,1.64,-0.19,2.0
1758089374.91572,1758089364.74161,0.0,0.0,0.0,-15.06879,-22.11617,12.77696,9.37,1.64,-0.19,2.0
1758089374.9177,1758089364.75161,0.0,0.0,0.0,-19.70975,-28.87707,8.76626,9.7,2.02,-0.05,2.0
1758089374.9187,1758089364.76161,0.0,0.0,0.0,-22.57454,-31.39809,5.72958,9.7,2.02,-0.05,2.0
1758089374.91907,1758089364.77161,0.0,0.0,0.0,-24.63719,-32.48671,2.86479,9.93,2.07,-0.16,2.0
1758089374.92338,1758089364.78161,0.0,0.0,0.0,-25.21014,-36.03905,0.74485,9.93,2.07,-0.16,2.0
1758089374.92418,1758089364.79161,0.0,0.0,0.0,-24.63719,-34.14828,-0.97403,9.85,1.78,-0.41,2.0
1758089374.92682,1758089364.80161,0.0,0.0,0.0,-22.63183,-27.33009,-0.85944,10.67,1.25,-0.42,2.0
1758089374.92765,1758089364.81161,0.0,0.0,0.0,-21.31403,-22.00158,-0.68755,10.67,1.25,-0.42,2.0
1758089374.92872,1758089364.82161,0.0,0.0,0.0,-18.33465,-23.37668,2.6929,10.09,0.78,0.24,2.0
1758089374.93232,1758089364.83161,0.0,0.0,0.0,-18.9649,-44.11775,2.06265,10.09,0.78,0.24,2.0
1758089374.9338,1758089364.84161,0.0,0.0,0.0,-20.74107,-46.2377,4.0107,8.9,0.62,-0.21,2.0
1758089374.93441,1758089364.85161,0.0,0.0,0.0,-23.20479,-24.57989,2.63561,8.9,0.62,-0.21,2.0
1758089374.93726,1758089364.86161,0.0,0.0,0.0,-25.7831,-9.11003,1.83346,13.13,1.23,-0.48,2.0
1758089374.93787,1758089364.87161,0.0,0.0,0.0,-28.59059,-5.95876,2.00535,11.85,0.73,1.62,2.0
1758089374.9394,1758089364.88161,0.0,0.0,0.0,-27.04361,-14.09476,2.57831,11.85,0.73,1.62,2.0
1758089374.94374,1758089364.89161,0.0,0.0,0.0,-24.17882,-28.07493,2.57831,11.52,0.24,2.82,2.0
1758089374.94912,1758089364.90161,0.0,0.0,0.0,-22.91831,-35.63798,-1.3751,11.52,0.24,2.82,2.0
1758089374.95437,1758089364.91161,0.0,0.0,0.0,-14.32395,-26.18417,-5.15662,14.4,-0.69,2.0,2.0
1758089374.95557,1758089364.92161,0.0,0.0,0.0,-5.15662,-23.66316,-5.32851,14.4,-0.69,2.0,2.0
1758089374.95943,1758089364.93161,0.0,0.0,0.0,3.66693,-23.89234,-3.95341,13.44,-2.12,0.98,2.0
1758089375.05691,1758089364.94161,0.0,0.0,0.0,10.25595,-21.94428,-0.11459,13.44,-2.12,0.98,2.0
1758089375.05923,1758089364.95161,0.0,0.0,0.0,14.15206,-19.07949,2.40642,10.55,-1.47,0.75,2.0
1758089375.06446,1758089364.96161,0.0,0.0,0.0,12.71966,-20.45459,4.18259,8.73,-0.3,0.34,2.0
1758089375.06873,1758089364.97161,0.0,0.0,0.0,8.25059,-17.36062,4.58366,8.73,-0.3,0.34,2.0
1758089375.06913,1758089364.98161,0.0,0.0,0.0,-0.85944,-16.10011,4.64096,8.74,0.29,1.76,2.0
1758089375.07335,1758089364.99161,0.0,0.0,0.0,-8.136,-18.90761,3.55234,8.74,0.29,1.76,2.0
1758089375.07399,1758089365.00161,0.0,0.0,0.0,-15.35527,-20.22541,1.77617,8.0,0.62,2.8,2.0
1758089375.07768,1758089365.01161,0.0,0.0,0.0,-21.31403,-20.62648,0.40107,8.0,0.62,2.8,2.0
1758089375.07905,1758089365.02161,0.0,0.0,0.0,-27.50197,-20.85567,-1.48969,8.35,0.54,2.61,2.0
1758089375.08669,1758089365.03161,0.0,0.0,0.0,-28.93437,-19.76705,-2.06265,9.24,-0.11,1.94,2.0
1758089375.08729,1758089365.04161,0.0,0.0,0.0,-28.41871,-17.36062,-2.29183,9.24,-0.11,1.94,2.0
1758089375.09423,1758089365.05161,0.0,0.0,0.0,-25.49662,-13.98017,-1.66158,10.38,-1.28,1.6,2.0
1758089375.09952,1758089365.06161,0.0,0.0,0.0,-18.73572,-7.44845,0.0,10.38,-1.28,1.6,2.0
1758089375.12399,1758089365.07161,0.0,0.0,0.0,-13.5791,-2.63561,1.08862,10.69,-2.26,1.09,2.0
1758089375.13295,1758089365.08161,0.0,0.0,0.0,-8.30789,2.06265,2.29183,10.69,-2.26,1.09,2.0
1758089375.13369,1758089365.09161,0.0,0.0,0.0,-4.18259,6.41713,3.32316,10.34,-2.48,0.65,2.0
1758089375.13898,1758089365.10161,0.0,0.0,0.0,0.11459,11.97482,4.0107,10.09,-1.94,0.72,2.0
1758089375.13942,1758089365.11161,0.0,0.0,0.0,1.60428,15.58445,4.46907,10.09,-1.94,0.72,2.0
1758089375.14402,1758089365.12161,0.0,0.0,0.0,2.23454,17.87628,4.64096,10.09,-1.39,0.89,2.0
1758089375.14815,1758089365.13161,0.0,0.0,0.0,1.71887,19.25138,4.69825,10.09,-1.39,0.89,2.0
1758089375.15354,1758089365.14161,0.0,0.0,0.0,0.0,22.00158,4.46907,10.09,-1.01,0.93,2.0
1758089375.15421,1758089365.15161,0.0,0.0,0.0,-1.43239,22.28806,3.95341,10.09,-1.01,0.93,2.0
1758089375.16419,1758089365.16161,0.0,0.0,0.0,-2.46372,21.7724,3.49504,9.96,-0.79,0.93,2.0
1758089375.21939,1758089365.17161,0.0,0.0,0.0,-3.09397,22.63183,2.7502,9.96,-0.79,0.93,2.0
1758089375.22748,1758089365.18161,0.0,0.0,0.0,-2.46372,24.00693,2.46372,9.74,-0.73,0.78,2.0
1758089375.22811,1758089365.19161,0.0,0.0,0.0,-1.60428,24.4653,2.23454,9.39,-0.83,0.57,2.0
1758089375.23416,1758089365.20161,0.0,0.0,0.0,-0.45837,23.49127,2.00535,9.39,-0.83,0.57,2.0
1758089375.23903,1758089365.21161,0.0,0.0,0.0,0.68755,21.6578,0.80214,8.91,-0.89,0.58,2.0
1758089375.23941,1758089365.22161,0.0,0.0,0.0,1.3178,20.05352,0.34377,8.91,-0.89,0.58,2.0
1758089375.24455,1758089365.23161,0.0,0.0,0.0,1.48969,17.6471,-0.40107,8.81,-0.89,0.48,2.0
1758089375.24979,1758089365.24161,0.0,0.0,0.0,1.60428,15.0115,-1.03132,8.81,-0.89,0.48,2.0
1758089375.27987,1758089365.25161,0.0,0.0,0.0,1.71887,10.02676,-1.3751,8.95,-0.9,0.52,2.0
1758089375.28389,1758089365.26161,0.0,0.0,0.0,2.23454,6.99009,-1.3178,9.13,-0.98,0.53,2.0
1758089375.28539,1758089365.27161,0.0,0.0,0.0,2.92208,4.29718,-0.85944,9.13,-0.98,0.53,2.0
1758089375.28614,1758089365.28161,0.0,0.0,0.0,4.0107,2.34913,-0.68755,9.32,-1.13,0.48,2.0
1758089375.28881,1758089365.29161,0.0,0.0,0.0,6.07335,2.11994,-0.11459,9.32,-1.13,0.48,2.0
1758089375.29025,1758089365.30161,0.0,0.0,0.0,7.44845,4.58366,-0.40107,9.62,-1.24,0.43,2.0
1758089375.29551,1758089365.31161,0.0,0.0,0.0,8.59437,8.59437,-1.14592,9.62,-1.24,0.43,2.0
1758089375.29923,1758089365.32161,0.0,0.0,0.0,9.4538,12.89155,-2.11994,9.89,-1.19,0.51,2.0
1758089375.30444,1758089365.33161,0.0,0.0,0.0,11.00079,21.25674,-3.66693,9.94,-1.01,0.55,2.0
1758089375.31257,1758089365.34161,0.0,0.0,0.0,11.63104,26.24147,-4.98473,9.94,-1.01,0.55,2.0
1758089375.31763,1758089365.35161,0.0,0.0,0.0,12.37589,31.28349,-6.07335,9.92,-0.88,0.56,2.0
1758089375.31817,1758089365.36161,0.0,0.0,0.0,13.5218,36.6693,-6.53172,9.92,-0.88,0.56,2.0
1758089375.32051,1758089365.37161,0.0,0.0,0.0,13.98017,39.07573,-7.04738,9.84,-0.87,0.67,2.0
1758089375.36539,1758089365.38161,0.0,0.0,0.0,14.61043,37.01308,-7.44845,9.84,-0.87,0.67,2.0
1758089375.37937,1758089365.39161,0.0,0.0,0.0,15.87093,32.20023,-7.33386,9.35,-0.99,0.6,2.0
1758089375.37992,1758089365.40161,0.0,0.0,0.0,19.13679,22.74642,-6.35983,9.35,-0.99,0.6,2.0
1758089375.38385,1758089365.41161,0.0,0.0,0.0,22.86102,16.73037,-5.09932,9.34,-1.32,0.41,2.0
1758089375.38432,1758089365.42161,0.0,0.0,0.0,27.10091,10.8862,-3.32316,9.4,-1.83,0.0,2.0
1758089375.42722,1758089365.43161,0.0,0.0,0.0,31.62727,4.64096,-1.3178,9.4,-1.83,0.0,2.0
1758089375.42776,1758089365.44161,0.0,0.0,0.0,37.92981,-5.55769,1.71887,9.15,-2.26,-0.08,2.0
1758089375.42932,1758089365.45161,0.0,0.0,0.0,41.99781,-11.28727,2.40642,9.15,-2.26,-0.08,2.0
1758089375.43363,1758089365.46161,0.0,0.0,0.0,44.28964,-21.48592,4.35448,9.17,-2.22,-0.31,2.0
1758089375.43439,1758089365.47161,0.0,0.0,0.0,43.94586,-30.93972,3.72423,9.17,-2.22,-0.31,2.0
1758089375.44114,1758089365.48161,0.0,0.0,0.0,41.42485,-35.12231,2.92208,9.3,-1.75,-0.17,2.0
1758089375.4434,1758089365.49161,0.0,0.0,0.0,41.02378,-24.23611,2.46372,11.34,-1.18,-0.46,2.0
1758089375.45874,1758089365.50161,0.0,0.0,0.0,40.96649,-9.68299,2.29183,11.34,-1.18,-0.46,2.0
1758089375.46017,1758089365.51161,0.0,0.0,0.0,39.13302,4.87014,0.68755,12.22,-0.85,0.76,2.0
1758089375.4755,1758089365.52161,0.0,0.0,0.0,34.66395,15.24068,-3.60963,12.22,-0.85,0.76,2.0
1758089375.47915,1758089365.53161,0.0,0.0,0.0,34.60666,8.88085,-6.41713,10.31,-0.54,1.28,2.0
1758089375.49628,1758089365.54161,0.0,0.0,0.0,32.14294,-19.59516,-10.19865,10.31,-0.54,1.28,2.0
1758089375.49914,1758089365.55161,0.0,0.0,0.0,33.74722,-43.83128,-5.50039,7.0,-0.43,-0.58,2.0
1758089375.51555,1758089365.56161,0.0,0.0,0.0,38.73195,-44.00316,-3.20856,10.26,-1.04,-1.77,2.0
1758089375.51831,1758089365.57161,0.0,0.0,0.0,38.73195,-33.40344,-2.57831,10.26,-1.04,-1.77,2.0
1758089375.53386,1758089365.58161,0.0,0.0,0.0,37.24226,-30.93972,-1.3751,11.34,-0.59,-1.08,2.0
1758089375.55319,1758089365.59161,0.0,0.0,0.0,31.39809,-46.1231,1.43239,11.34,-0.59,-1.08,2.0
1758089375.55422,1758089365.60161,0.0,0.0,0.0,27.10091,-52.9986,7.50575,11.14,-0.14,3.19,2.0
1758089375.55634,1758089365.61161,0.0,0.0,0.0,20.16812,-49.27437,12.204,11.14,-0.14,3.19,2.0
1758089375.59874,1758089365.62161,0.0,0.0,0.0,11.45916,-45.43555,14.9542,15.22,0.77,3.34,2.0
1758089375.60367,1758089365.63161,0.0,0.0,0.0,-1.3751,-46.75336,11.57375,15.22,0.77,1.7,2.0
1758089375.60424,1758089365.64161,0.0,0.0,0.0,-6.87549,-47.15443,5.84417,13.4,1.79,1.7,2.0
1758089375.60553,1758089365.65161,0.0,0.0,0.0,-8.88085,-45.37826,-0.45837,10.11,1.32,1.14,2.0
1758089375.6077,1758089365.66161,0.0,0.0,0.0,-7.73493,-39.13302,-6.7609,10.11,1.32,1.14,2.0
1758089375.62373,1758089365.67161,0.0,0.0,0.0,-0.68755,-26.98631,-13.86558,8.9,0.9,1.32,2.0
1758089375.62896,1758089365.68161,0.0,0.0,0.0,7.10468,-20.68378,-16.10011,8.9,0.9,1.32,2.0
1758089375.64798,1758089365.69161,0.0,0.0,0.0,15.87093,-14.38124,-15.92823,8.82,0.45,2.93,2.0
1758089375.64898,1758089365.70161,0.0,0.0,0.0,23.89234,-6.41713,-13.75099,8.82,0.45,2.93,2.0
1758089375.664,1758089365.71161,0.0,0.0,0.0,32.42941,6.13065,-8.30789,10.05,-0.17,2.84,2.0
1758089375.68138,1758089365.72161,0.0,0.0,0.0,34.60666,15.06879,-2.40642,11.23,-0.29,2.09,2.0
1758089375.68338,1758089365.73161,0.0,0.0,0.0,35.2942,23.26209,-0.51566,11.23,-0.29,2.09,2.0
1758089375.69879,1758089365.74161,0.0,0.0,0.0,34.60666,32.83048,3.03668,12.28,0.08,1.89,2.0
1758089375.70155,1758089365.75161,0.0,0.0,0.0,29.50733,42.74266,2.06265,12.28,0.08,1.89,2.0
1758089375.71767,1758089365.76161,0.0,0.0,0.0,25.7831,44.9199,0.57296,11.25,0.84,1.31,2.0
1758089375.71957,1758089365.77161,0.0,0.0,0.0,22.23076,45.55015,-0.74485,11.25,0.84,1.31,2.0
1758089375.73581,1758089365.78161,0.0,0.0,0.0,16.50119,46.35228,-3.20856,10.21,1.25,1.17,2.0
1758089375.7376,1758089365.79161,0.0,0.0,0.0,13.46451,47.26902,-4.35448,9.9,1.69,1.29,2.0
1758089375.75363,1758089365.80161,0.0,0.0,0.0,11.17268,47.09713,-5.15662,9.9,1.69,1.29,2.0
1758089375.77451,1758089365.81161,0.0,0.0,0.0,9.74028,47.32632,-5.27121,9.6,1.8,1.47,2.0
1758089375.77889,1758089365.82161,0.0,0.0,0.0,8.59437,47.38361,-4.35448,9.6,1.8,1.47,2.0
1758089375.78032,1758089365.83161,0.0,0.0,0.0,8.36518,47.67009,-3.49504,9.4,1.42,1.63,2.0
1758089375.87305,1758089365.84161,0.0,0.0,0.0,8.65166,47.67009,-2.06265,9.4,1.42,1.63,2.0
1758089375.87412,1758089365.85161,0.0,0.0,0.0,8.76626,46.1804,-1.14592,9.09,0.89,1.5,2.0
1758089375.87664,1758089365.86161,0.0,0.0,0.0,9.68299,41.08107,0.74485,8.51,0.42,1.38,2.0
1758089375.87839,1758089365.87161,0.0,0.0,0.0,10.65701,35.69527,2.6929,8.51,0.42,1.38,2.0
1758089375.87942,1758089365.88161,0.0,0.0,0.0,11.17268,30.36677,4.0107,8.27,0.1,1.21,2.0
1758089375.88345,1758089365.89161,0.0,0.0,0.0,11.22997,25.21014,4.87014,8.27,0.1,1.21,2.0
1758089375.88407,1758089365.90161,0.0,0.0,0.0,10.08406,16.84496,4.29718,8.33,0.15,1.33,2.0
1758089375.88568,1758089365.91161,0.0,0.0,0.0,9.22462,10.08406,3.89611,8.33,0.15,1.33,2.0
1758089375.88916,1758089365.92161,0.0,0.0,0.0,7.96411,3.72423,3.26586,8.19,0.49,1.23,2.0
1758089375.89386,1758089365.93161,0.0,0.0,0.0,7.04738,-1.94806,3.09397,8.19,0.49,1.23,2.0
1758089375.8965,1758089365.94161,0.0,0.0,0.0,6.35983,-8.99544,3.38045,8.44,0.81,1.21,2.0
1758089375.89878,1758089365.95161,0.0,0.0,0.0,6.47442,-11.97482,4.0107,8.75,0.98,1.0,2.0
1758089375.91832,1758089365.96161,0.0,0.0,0.0,6.58902,-12.204,5.15662,8.75,0.98,1.0,2.0
1758089375.91923,1758089365.97161,0.0,0.0,0.0,7.44845,-11.00079,7.33386,9.35,0.96,0.99,2.0
1758089375.93659,1758089365.98161,0.0,0.0,0.0,8.65166,-7.84952,9.05273,9.35,0.96,0.99,2.0
1758089376.15325,1758089365.99161,0.0,0.0,0.0,9.05273,-2.23454,9.96947,9.83,0.7,0.97,2.0
1758089376.15514,1758089366.00161,0.0,0.0,0.0,8.88085,4.69825,10.94349,9.83,0.7,0.97,2.0
1758089376.15884,1758089366.01161,0.0,0.0,0.0,7.21927,15.0115,11.63104,10.27,0.49,0.95,2.0
1758089376.16021,1758089366.02161,0.0,0.0,0.0,5.32851,19.53786,11.74564,9.92,0.51,0.97,2.0
1758089376.16867,1758089366.03161,0.0,0.0,0.0,2.92208,23.20479,11.57375,9.92,0.51,0.97,2.0
1758089376.17354,1758089366.04161,0.0,0.0,0.0,0.17189,24.17882,11.28727,9.54,0.73,0.69,2.0
1758089376.17398,1758089366.05161,0.0,0.0,0.0,-4.46907,24.4653,11.17268,9.54,0.73,0.69,2.0
1758089376.2137,1758089366.06161,0.0,0.0,0.0,-6.87549,23.89234,11.57375,9.39,0.99,0.25,2.0
1758089376.21413,1758089366.07161,0.0,0.0,0.0,-9.28192,23.83505,11.97482,9.39,0.99,0.25,2.0
1758089376.21844,1758089366.08161,0.0,0.0,0.0,-10.8862,22.23076,13.00614,9.47,1.18,0.14,2.0
1758089376.21918,1758089366.09161,0.0,0.0,0.0,-12.2613,15.64175,14.49583,9.27,1.19,-0.01,2.0
1758089376.22908,1758089366.10161,0.0,0.0,0.0,-13.00614,10.08406,15.64175,9.27,1.19,-0.01,2.0
1758089376.23424,1758089366.11161,0.0,0.0,0.0,-13.80828,5.95876,16.50119,9.68,1.08,0.2,2.0
1758089376.23833,1758089366.12161,0.0,0.0,0.0,-15.12609,2.40642,16.272,9.68,1.08,0.2,2.0
1758089376.24511,1758089366.13161,0.0,0.0,0.0,-18.27736,-0.51566,14.32395,10.25,1.15,0.41,2.0
1758089376.27342,1758089366.14161,0.0,0.0,0.0,-21.31403,-3.38045,12.77696,10.25,1.15,0.41,2.0
1758089376.27402,1758089366.15161,0.0,0.0,0.0,-24.86637,-7.62034,10.65701,10.3,1.37,0.73,2.0
1758089376.37293,1758089366.16161,0.0,0.0,0.0,-28.64789,-11.51645,8.65166,10.3,1.37,0.73,2.0
1758089376.37353,1758089366.17161,0.0,0.0,0.0,-33.74722,-13.40721,5.90147,10.17,1.54,0.38,2.0
1758089376.37874,1758089366.18161,0.0,0.0,0.0,-36.84119,-15.0115,4.52637,10.36,1.59,0.17,2.0
1758089376.38127,1758089366.19161,0.0,0.0,0.0,-38.78925,-18.22006,4.1253,10.36,1.59,0.17,2.0
1758089376.38168,1758089366.20161,0.0,0.0,0.0,-39.82057,-24.29341,4.23989,10.08,1.55,-0.07,2.0
1758089376.38359,1758089366.21161,0.0,0.0,0.0,-39.01843,-26.01229,6.13065,10.08,1.55,-0.07,2.0
1758089376.38446,1758089366.22161,0.0,0.0,0.0,-37.64333,-33.34615,6.7609,11.04,1.18,1.21,2.0
1758089376.38699,1758089366.23161,0.0,0.0,0.0,-35.00772,-43.37291,5.55769,11.04,1.18,1.21,2.0
1758089376.38846,1758089366.24161,0.0,0.0,0.0,-26.64254,-49.38896,2.40642,11.71,0.16,2.33,2.0
1758089376.39371,1758089366.25161,0.0,0.0,0.0,-18.79302,-75.57314,-1.03132,12.74,-1.44,3.86,2.0
1758089376.39449,1758089366.26161,0.0,0.0,0.0,-15.98552,-99.80926,-8.65166,12.74,-1.44,3.86,2.0
1758089376.39851,1758089366.27161,0.0,0.0,0.0,-11.51645,-93.39213,-14.43854,14.64,-2.93,1.81,2.0
1758089376.39889,1758089366.28161,0.0,0.0,0.0,-8.02141,-63.94209,-21.08485,14.64,-2.93,1.81,2.0
1758089376.4048,1758089366.29161,0.0,0.0,0.0,-5.78687,-56.32175,-19.88164,14.79,-2.65,0.72,2.0
1758089376.40521,1758089366.30161,0.0,0.0,0.0,-3.95341,-55.6915,-15.12609,14.79,-2.65,0.72,2.0
1758089376.40728,1758089366.31161,0.0,0.0,0.0,-2.34913,-52.42564,-9.4538,8.95,-1.17,1.51,2.0
1758089376.40794,1758089366.32161,0.0,0.0,0.0,-3.03668,-46.1804,-0.57296,7.23,-0.38,2.08,2.0
1758089376.40917,1758089366.33161,0.0,0.0,0.0,-5.61499,-43.14373,3.26586,7.23,-0.38,2.08,2.0
1758089376.41371,1758089366.34161,0.0,0.0,0.0,-9.74028,-38.27358,4.64096,7.21,-0.06,2.43,2.0
1758089376.4149,1758089366.35161,0.0,0.0,0.0,-13.69369,-32.6013,4.81285,7.21,-0.06,2.43,2.0
1758089376.41851,1758089366.36161,0.0,0.0,0.0,-17.81899,-16.50119,2.57831,9.3,0.0,2.61,2.0
1758089376.41888,1758089366.37161,0.0,0.0,0.0,-21.02755,-9.68299,0.34377,9.3,0.0,2.61,2.0
1758089376.41992,1758089366.38161,0.0,0.0,0.0,-21.37133,0.40107,-0.68755,10.72,-0.45,1.99,2.0
1758089376.42065,1758089366.39161,0.0,0.0,0.0,-20.34,6.58902,-1.66158,10.72,-0.45,1.99,2.0
1758089376.42339,1758089366.40161,0.0,0.0,0.0,-18.85031,14.83961,-2.97938,10.85,-1.44,1.25,2.0
1758089376.42414,1758089366.41161,0.0,0.0,0.0,-17.01685,21.60051,-3.60963,10.59,-2.21,0.84,2.0
1758089376.42924,1758089366.42161,0.0,0.0,0.0,-14.9542,28.13223,-4.1253,10.59,-2.21,0.84,2.0
1758089376.43471,1758089366.43161,0.0,0.0,0.0,-11.11538,36.7266,-3.09397,10.19,-2.63,0.77,2.0
1758089376.43589,1758089366.44161,0.0,0.0,0.0,-9.05273,38.73195,-2.23454,10.19,-2.63,0.77,2.0
1758089376.43807,1758089366.45161,0.0,0.0,0.0,-7.73493,38.27358,-1.60428,9.52,-2.48,1.11,2.0
1758089376.43963,1758089366.46161,0.0,0.0,0.0,-6.53172,38.38818,-0.80214,9.52,-2.48,1.11,2.0
1758089376.44,1758089366.47161,0.0,0.0,0.0,-5.95876,39.76327,-0.57296,9.51,-1.93,1.1,2.0
1758089376.44762,1758089366.48161,0.0,0.0,0.0,-5.32851,41.02378,0.0,9.91,-1.5,1.25,2.0
1758089376.44905,1758089366.49161,0.0,0.0,0.0,-5.15662,39.76327,0.17189,9.91,-1.5,1.25,2.0
1758089376.45296,1758089366.50161,0.0,0.0,0.0,-4.64096,38.73195,0.17189,9.69,-1.21,1.22,2.0
1758089376.46907,1758089366.51161,0.0,0.0,0.0,-3.60963,36.49741,-0.22918,9.69,-1.21,1.22,2.0
1758089376.47424,1758089366.52161,0.0,0.0,0.0,-2.34913,33.80451,-0.45837,9.53,-1.1,1.28,2.0
1758089376.48908,1758089366.53161,0.0,0.0,0.0,-0.97403,31.2262,-0.80214,9.53,-1.1,1.28,2.0
1758089376.49661,1758089366.54161,0.0,0.0,0.0,0.57296,29.50733,-0.97403,9.18,-1.22,1.02,2.0
1758089376.49724,1758089366.55161,0.0,0.0,0.0,2.86479,27.10091,-1.43239,8.97,-1.38,1.1,2.0
1758089376.514,1758089366.56161,0.0,0.0,0.0,4.1253,24.12152,-1.60428,8.97,-1.38,1.1,2.0
1758089376.51784,1758089366.57161,0.0,0.0,0.0,4.69825,19.59516,-1.66158,8.57,-1.42,0.96,2.0
1758089376.53391,1758089366.58161,0.0,0.0,0.0,4.81285,14.38124,-2.00535,8.57,-1.42,0.96,2.0
1758089376.55324,1758089366.59161,0.0,0.0,0.0,4.18259,6.47442,-2.34913,8.41,-1.31,0.76,2.0
1758089376.55446,1758089366.60161,0.0,0.0,0.0,3.26586,1.43239,-2.6929,8.41,-1.31,0.76,2.0
1758089376.59812,1758089366.61161,0.0,0.0,0.0,2.34913,-3.26586,-2.97938,8.45,-1.13,0.6,2.0
1758089376.62786,1758089366.62161,0.0,0.0,0.0,1.3751,-8.25059,-3.60963,8.45,-1.13,0.6,2.0
1758089376.62894,1758089366.63161,0.0,0.0,0.0,1.20321,-9.39651,-3.95341,8.67,-0.98,0.75,2.0
1758089376.63421,1758089366.64161,0.0,0.0,0.0,0.85944,-7.50575,-5.09932,9.2,-0.95,0.79,2.0
1758089376.64042,1758089366.65161,0.0,0.0,0.0,0.80214,-3.26586,-6.35983,9.2,-0.95,0.79,2.0
1758089376.65297,1758089366.66161,0.0,0.0,0.0,1.03132,4.98473,-8.30789,9.78,-0.95,1.0,2.0
1758089376.65338,1758089366.67161,0.0,0.0,0.0,1.71887,11.11538,-9.5684,9.78,-0.95,1.0,2.0
1758089376.65415,1758089366.68161,0.0,0.0,0.0,2.46372,15.92823,-10.94349,9.99,-0.97,1.07,2.0
1758089376.67836,1758089366.69161,0.0,0.0,0.0,3.66693,20.16812,-12.2613,9.99,-0.97,1.07,2.0
1758089376.67915,1758089366.70161,0.0,0.0,0.0,5.95876,25.38203,-12.89155,9.89,-1.0,0.82,2.0
1758089376.68426,1758089366.71161,0.0,0.0,0.0,7.96411,27.1582,-13.12073,9.69,-1.15,0.5,2.0
1758089376.68583,1758089366.72161,0.0,0.0,0.0,9.68299,28.13223,-13.17803,9.69,-1.15,0.5,2.0
1758089376.68926,1758089366.73161,0.0,0.0,0.0,11.63104,26.52795,-12.71966,9.44,-1.29,0.42,2.0
1758089376.69276,1758089366.74161,0.0,0.0,0.0,14.72501,17.30333,-11.57375,9.44,-1.29,0.42,2.0
1758089376.70948,1758089366.75161,0.0,0.0,0.0,16.95955,9.68299,-10.8862,8.91,-1.43,0.23,2.0
1758089376.71349,1758089366.76161,0.0,0.0,0.0,19.36597,2.11994,-10.02676,8.91,-1.43,0.23,2.0
1758089376.72915,1758089366.77161,0.0,0.0,0.0,21.6578,-5.09932,-9.39651,8.96,-1.66,-0.04,2.0
1758089376.73348,1758089366.78161,0.0,0.0,0.0,24.86637,-15.29797,-8.47978,9.11,-1.81,-0.08,2.0
1758089376.74914,1758089366.79161,0.0,0.0,0.0,26.98631,-20.45459,-7.44845,9.11,-1.81,-0.08,2.0
1758089376.75345,1758089366.80161,0.0,0.0,0.0,29.33544,-23.83505,-7.10468,9.6,-1.77,0.06,2.0
1758089376.76935,1758089366.81161,0.0,0.0,0.0,31.28349,-29.62192,-5.4431,9.6,-1.77,0.06,2.0
1758089376.77268,1758089366.82161,0.0,0.0,0.0,30.13758,-39.87786,-4.81285,9.42,-1.54,0.03,2.0
1758089376.78914,1758089366.83161,0.0,0.0,0.0,28.13223,-38.61736,-6.07335,9.42,-1.54,0.03,2.0
1758089376.79331,1758089366.84161,0.0,0.0,0.0,27.67386,-24.57989,-6.07335,10.64,-1.21,-0.05,2.0
1758089376.80849,1758089366.85161,0.0,0.0,0.0,26.81443,4.1253,-7.84952,10.64,-1.21,-0.05,2.0
1758089376.812,1758089366.86161,0.0,0.0,0.0,25.26744,18.27736,-10.02676,12.25,-1.13,0.61,2.0
1758089376.82731,1758089366.87161,0.0,0.0,0.0,26.12688,17.01685,-12.2613,10.41,-0.97,1.29,2.0
1758089376.83278,1758089366.88161,0.0,0.0,0.0,22.74642,-7.79223,-17.53251,10.41,-0.97,1.29,2.0
1758089376.84733,1758089366.89161,0.0,0.0,0.0,31.56997,-45.20637,-12.204,7.1,-1.2,-0.67,2.0
1758089376.85383,1758089366.90161,0.0,0.0,0.0,33.68992,-37.81522,-8.70896,7.1,-1.2,-0.67,2.0
1758089376.86922,1758089366.91161,0.0,0.0,0.0,34.32018,-24.23611,-6.70361,11.98,-1.74,-1.83,2.0
1758089376.87195,1758089366.92161,0.0,0.0,0.0,32.48671,-20.05352,-5.84417,11.98,-1.74,-1.83,2.0
1758089376.88741,1758089366.93161,0.0,0.0,0.0,27.84575,-33.05967,-4.18259,11.24,-1.09,0.21,2.0
1758089376.89402,1758089366.94161,0.0,0.0,0.0,24.80907,-41.48215,0.11459,11.36,-0.72,4.28,2.0
1758089376.9092,1758089366.95161,0.0,0.0,0.0,20.51189,-45.03448,5.21392,11.36,-0.72,4.28,2.0
1758089376.912,1758089366.96161,0.0,0.0,0.0,14.09476,-45.72203,9.68299,14.66,0.67,3.48,2.0
1758089376.92822,1758089366.97161,0.0,0.0,0.0,2.63561,-47.61279,13.00614,14.66,0.67,3.48,2.0
1758089376.92917,1758089366.98161,0.0,0.0,0.0,-3.09397,-46.2377,11.11538,14.34,2.29,2.57,2.0
1758089376.94718,1758089366.99161,0.0,0.0,0.0,-6.99009,-43.77398,6.18794,14.34,2.29,2.57,2.0
1758089376.94847,1758089367.00161,0.0,0.0,0.0,-8.136,-40.39353,-2.00535,11.3,1.64,1.61,2.0
1758089376.96317,1758089367.01161,0.0,0.0,0.0,-4.64096,-29.9084,-6.70361,9.04,0.71,1.79,2.0
1758089376.97921,1758089367.02161,0.0,0.0,0.0,0.80214,-21.88699,-9.74028,9.04,0.71,1.79,2.0
1758089376.98356,1758089367.03161,0.0,0.0,0.0,7.33386,-15.46986,-11.17268,8.34,0.29,2.43,2.0
1758089376.99923,1758089367.04161,0.0,0.0,0.0,17.18874,-5.50039,-9.28192,8.34,0.29,2.43,2.0
1758089377.00121,1758089367.05161,0.0,0.0,0.0,21.94428,2.29183,-6.53172,9.0,0.05,2.0,2.0
1758089377.01732,1758089367.06161,0.0,0.0,0.0,23.60586,12.08941,-2.46372,9.0,0.05,2.0,2.0
1758089377.01847,1758089367.07161,0.0,0.0,0.0,24.00693,20.22541,-1.14592,10.54,0.4,1.46,2.0
1758089377.03351,1758089367.08161,0.0,0.0,0.0,20.79837,33.80451,0.85944,10.54,0.4,1.4,2.0
1758089377.04928,1758089367.09161,0.0,0.0,0.0,17.47521,40.39353,0.74485,11.59,0.99,1.4,2.0
1758089377.0528,1758089367.10161,0.0,0.0,0.0,13.34992,44.40423,-0.22918,10.7,1.47,1.12,2.0
1758089377.06853,1758089367.11161,0.0,0.0,0.0,9.68299,46.00851,-1.3178,10.7,1.47,1.12,2.0
1758089377.06947,1758089367.12161,0.0,0.0,0.0,5.32851,45.37826,-2.6929,9.72,1.46,0.95,2.0
1758089377.08883,1758089367.13161,0.0,0.0,0.0,3.03668,44.8053,-3.32316,9.72,1.46,0.95,2.0
1758089377.09233,1758089367.14161,0.0,0.0,0.0,1.14592,44.8053,-4.52637,9.49,1.38,0.86,2.0
1758089377.10724,1758089367.15161,0.0,0.0,0.0,-0.11459,45.26366,-4.69825,9.49,1.38,0.86,2.0
1758089377.10846,1758089367.16161,0.0,0.0,0.0,-1.66158,42.74266,-5.15662,9.62,1.2,1.11,2.0
1758089377.12351,1758089367.17161,0.0,0.0,0.0,-2.23454,41.13837,-4.98473,9.43,1.04,1.1,2.0
1758089377.13952,1758089367.18161,0.0,0.0,0.0,-2.7502,40.7946,-4.46907,9.43,1.04,1.1,2.0
1758089377.14127,1758089367.19161,0.0,0.0,0.0,-2.92208,39.13302,-3.95341,9.41,0.85,1.31,2.0
1758089377.15653,1758089367.20161,0.0,0.0,0.0,-3.32316,34.37747,-2.40642,9.41,0.85,1.31,2.0
1758089377.15937,1758089367.21161,0.0,0.0,0.0,-4.0107,31.62727,-2.23454,9.08,0.59,1.38,2.0
1758089377.17426,1758089367.22161,0.0,0.0,0.0,-5.15662,28.24682,-2.86479,9.08,0.59,1.38,2.0
1758089377.17624,1758089367.23161,0.0,0.0,0.0,-7.44845,23.20479,-4.29718,8.83,0.8,1.16,2.0
1758089377.19255,1758089367.24161,0.0,0.0,0.0,-8.93814,18.33465,-5.21392,8.51,1.19,1.17,2.0
1758089377.20826,1758089367.25161,0.0,0.0,0.0,-10.31324,11.97482,-5.95876,8.51,1.19,1.17,2.0
1758089377.2094,1758089367.26161,0.0,0.0,0.0,-11.28727,4.81285,-6.07335,8.27,1.25,0.88,2.0
1758089377.22558,1758089367.27161,0.0,0.0,0.0,-11.80293,-3.26586,-5.27121,8.27,1.25,0.88,2.0
1758089377.22679,1758089367.28161,0.0,0.0,0.0,-12.14671,-8.02141,-4.52637,8.7,1.07,0.92,2.0
1758089377.24228,1758089367.29161,0.0,0.0,0.0,-12.14671,-12.54778,-3.32316,8.7,1.07,0.92,2.0
1758089377.25849,1758089367.30161,0.0,0.0,0.0,-12.204,-14.15206,-2.11994,8.98,0.79,0.91,2.0
1758089377.25949,1758089367.31161,0.0,0.0,0.0,-12.2613,-11.28727,0.11459,9.7,0.53,0.92,2.0
1758089377.27428,1758089367.32161,0.0,0.0,0.0,-12.204,-7.04738,1.60428,9.7,0.53,0.92,2.0
1758089377.29029,1758089367.33161,0.0,0.0,0.0,-12.2613,-1.77617,2.57831,10.03,0.34,1.12,2.0
1758089377.29148,1758089367.34161,0.0,0.0,0.0,-12.49048,4.69825,3.20856,10.03,0.34,1.12,2.0
1758089377.3063,1758089367.35161,0.0,0.0,0.0,-13.80828,15.12609,3.38045,10.19,0.32,1.26,2.0
1758089377.30781,1758089367.36161,0.0,0.0,0.0,-15.12609,21.14215,3.38045,10.19,0.32,1.26,2.0
1758089377.32228,1758089367.37161,0.0,0.0,0.0,-16.50119,25.72581,3.55234,9.88,0.46,1.07,2.0
1758089377.33866,1758089367.38161,0.0,0.0,0.0,-17.81899,27.2155,3.83882,9.88,0.46,1.07,2.0
1758089377.33953,1758089367.39161,0.0,0.0,0.0,-20.05352,25.72581,4.58366,9.35,0.68,0.77,2.0
1758089377.35434,1758089367.40161,0.0,0.0,0.0,-21.02755,22.86102,5.55769,8.98,0.8,0.52,2.0
1758089377.37064,1758089367.41161,0.0,0.0,0.0,-22.00158,19.53786,6.18794,8.98,0.8,0.52,2.0
1758089377.37181,1758089367.42161,0.0,0.0,0.0,-23.0329,15.64175,7.50575,8.93,0.79,0.36,2.0
1758089377.3863,1758089367.43161,0.0,0.0,0.0,-24.63719,6.13065,8.02141,8.93,0.79,0.36,2.0
1758089377.38839,1758089367.44161,0.0,0.0,0.0,-26.06958,-1.48969,8.02141,8.74,0.88,0.27,2.0
1758089377.40356,1758089367.45161,0.0,0.0,0.0,-27.96034,-8.70896,7.67763,8.74,0.88,0.27,2.0
1758089377.41931,1758089367.46161,0.0,0.0,0.0,-31.28349,-17.76169,6.7609,9.1,1.06,0.1,2.0
1758089377.42056,1758089367.47161,0.0,0.0,0.0,-33.68992,-21.6578,5.61499,9.81,1.26,0.07,2.0
1758089377.43532,1758089367.48161,0.0,0.0,0.0,-36.38282,-24.29341,3.83882,9.81,1.26,0.07,2.0
1758089377.43885,1758089367.49161,0.0,0.0,0.0,-39.24761,-23.83505,2.34913,10.38,1.33,0.17,2.0
1758089377.45434,1758089367.50161,0.0,0.0,0.0,-42.05511,-29.56462,2.00535,10.38,1.33,0.17,2.0
1758089377.47032,1758089367.51161,0.0,0.0,0.0,-43.25832,-34.49206,2.57831,9.97,1.02,-0.11,2.0
1758089377.47154,1758089367.52161,0.0,0.0,0.0,-43.88857,-35.40879,3.09397,9.97,1.02,-0.11,2.0
1758089377.48635,1758089367.53161,0.0,0.0,0.0,-44.00316,-33.40344,4.23989,10.4,0.58,-0.39,2.0
1758089377.4878,1758089367.54161,0.0,0.0,0.0,-43.54479,-29.39274,6.24524,10.65,0.33,-0.47,2.0
1758089377.50419,1758089367.55161,0.0,0.0,0.0,-43.20102,-24.23611,8.136,10.65,0.33,-0.47,2.0
1758089377.52297,1758089367.56161,0.0,0.0,0.0,-42.97184,-19.07949,9.62569,11.08,0.35,0.0,2.0
1758089377.52398,1758089367.57161,0.0,0.0,0.0,-41.94051,-15.41257,11.57375,11.08,0.35,0.0,2.0
1758089377.54097,1758089367.58161,0.0,0.0,0.0,-38.56006,-35.75257,10.02676,11.0,0.38,1.32,2.0
1758089377.54378,1758089367.59161,0.0,0.0,0.0,-35.63798,-48.64412,7.33386,11.0,0.38,1.32,2.0
1758089377.55928,1758089367.60161,0.0,0.0,0.0,-32.83048,-54.02992,1.03132,12.11,0.25,1.37,2.0
1758089377.56211,1758089367.61161,0.0,0.0,0.0,-30.82513,-67.15066,-7.44845,12.11,0.25,1.37,2.0
1758089377.57837,1758089367.62161,0.0,0.0,0.0,-23.0329,-72.65105,-16.272,13.75,-0.72,1.94,2.0
1758089377.5796,1758089367.63161,0.0,0.0,0.0,-15.58445,-69.27061,-17.47521,14.05,-2.28,1.47,2.0
1758089377.59643,1758089367.64161,0.0,0.0,0.0,-8.30789,-64.80153,-14.83961,14.05,-2.28,1.47,2.0
1758089377.59914,1758089367.65161,0.0,0.0,0.0,0.17189,-56.37905,-7.39116,10.68,-2.1,1.08,2.0
1758089377.61442,1758089367.66161,0.0,0.0,0.0,3.26586,-50.99325,-2.00535,10.68,-2.1,1.08,2.0
1758089377.63201,1758089367.67161,0.0,0.0,0.0,1.94806,-44.23235,0.68755,7.67,-1.01,1.3,2.0
1758089377.63322,1758089367.68161,0.0,0.0,0.0,-0.68755,-36.49741,2.97938,7.67,-1.01,1.3,2.0
1758089377.64872,1758089367.69161,0.0,0.0,0.0,-8.93814,-29.04896,2.63561,7.47,0.02,2.44,2.0
1758089377.65198,1758089367.70161,0.0,0.0,0.0,-15.35527,-25.72581,-0.97403,9.03,1.01,3.14,2.0
1758089377.66825,1758089367.71161,0.0,0.0,0.0,-20.22541,-13.5791,-1.71887,9.03,1.01,3.14,2.0
1758089377.67261,1758089367.72161,0.0,0.0,0.0,-26.47065,-11.34457,-2.40642,11.55,0.81,2.58,2.0
1758089377.68809,1758089367.73161,0.0,0.0,0.0,-32.48671,-6.13065,-3.32316,11.55,0.81,2.58,2.0
1758089377.69339,1758089367.74161,0.0,0.0,0.0,-34.26288,1.60428,-3.60963,12.36,-0.06,1.46,2.0
1758089377.70865,1758089367.75161,0.0,0.0,0.0,-33.17426,10.54242,-3.32316,12.36,-0.06,1.46,2.0
1758089377.71236,1758089367.76161,0.0,0.0,0.0,-29.96569,17.99088,-2.97938,12.23,-1.53,0.72,2.0
1758089377.729,1758089367.77161,0.0,0.0,0.0,-22.68913,29.10626,-1.60428,10.8,-2.46,0.62,2.0
1758089377.73416,1758089367.78161,0.0,0.0,0.0,-17.47521,35.2942,-0.0573,10.8,-2.46,0.62,2.0
1758089377.7518,1758089367.79161,0.0,0.0,0.0,-13.12073,38.84654,1.14592,9.8,-2.25,0.6,2.0
1758089377.75386,1758089367.80161,0.0,0.0,0.0,-9.96947,41.25296,2.00535,9.8,-2.25,0.6,2.0
1758089377.77214,1758089367.81161,0.0,0.0,0.0,-7.96411,44.17505,1.94806,9.48,-1.51,0.88,2.0
1758089377.77461,1758089367.82161,0.0,0.0,0.0,-8.136,44.8053,1.83346,9.48,-1.51,0.88,2.0
1758089377.79217,1758089367.83161,0.0,0.0,0.0,-9.28192,43.14373,1.48969,9.59,-0.91,1.2,2.0
1758089377.79799,1758089367.84161,0.0,0.0,0.0,-12.2613,40.33623,-0.11459,9.59,-0.91,1.2,2.0
1758089377.79844,1758089367.85161,0.0,0.0,0.0,-14.38124,37.58603,-1.60428,9.38,-0.43,1.17,2.0
1758089377.81643,1758089367.86161,0.0,0.0,0.0,-15.69904,36.32552,-3.09397,9.29,-0.22,0.91,2.0
1758089377.81767,1758089367.87161,0.0,0.0,0.0,-15.69904,34.72124,-4.1253,9.29,-0.22,0.91,2.0
1758089377.83435,1758089367.88161,0.0,0.0,0.0,-14.09476,32.77319,-4.0107,8.9,-0.43,0.72,2.0
1758089377.83764,1758089367.89161,0.0,0.0,0.0,-12.08941,30.59595,-3.09397,8.9,-0.43,0.72,2.0
1758089377.85582,1758089367.90161,0.0,0.0,0.0,-9.74028,27.04361,-2.11994,8.54,-0.93,0.65,2.0
1758089377.85748,1758089367.91161,0.0,0.0,0.0,-7.33386,22.51724,-1.3178,8.54,-0.93,0.65,2.0
1758089377.87347,1758089367.92161,0.0,0.0,0.0,-4.52637,17.30333,-0.51566,8.3,-1.37,0.39,2.0
1758089377.8936,1758089367.93161,0.0,0.0,0.0,-3.26586,14.09476,-0.68755,8.67,-1.54,0.25,2.0
1758089377.89582,1758089367.94161,0.0,0.0,0.0,-2.7502,10.71431,-0.74485,8.67,-1.54,0.25,2.0
1758089377.91239,1758089367.95161,0.0,0.0,0.0,-2.57831,7.04738,-1.08862,8.95,-1.29,0.33,2.0
1758089377.91329,1758089367.96161,0.0,0.0,0.0,-2.92208,3.38045,-2.00535,8.95,-1.29,0.33,2.0
1758089377.92875,1758089367.97161,0.0,0.0,0.0,-3.38045,5.78687,-3.09397,9.55,-0.78,0.46,2.0
1758089377.93164,1758089367.98161,0.0,0.0,0.0,-4.35448,10.59972,-4.46907,9.55,-0.78,0.46,2.0
1758089377.94677,1758089367.99161,0.0,0.0,0.0,-5.61499,16.90226,-6.13065,10.17,-0.43,0.59,2.0
1758089377.94792,1758089368.00161,0.0,0.0,0.0,-7.04738,26.69983,-8.76626,10.07,-0.34,0.93,2.0
1758089377.96327,1758089368.01161,0.0,0.0,0.0,-7.21927,32.71589,-10.08406,10.07,-0.34,0.93,2.0
1758089377.98057,1758089368.02161,0.0,0.0,0.0,-6.87549,35.98175,-11.17268,9.73,-0.61,0.89,2.0
1758089377.98151,1758089368.03161,0.0,0.0,0.0,-5.95876,37.24226,-11.91752,9.73,-0.61,0.89,2.0
1758089377.99809,1758089368.04161,0.0,0.0,0.0,-3.49504,35.3515,-11.51645,9.35,-0.97,0.58,2.0
1758089377.9993,1758089368.05161,0.0,0.0,0.0,-0.97403,31.56997,-10.48513,9.35,-0.97,0.58,2.0
1758089378.01453,1758089368.06161,0.0,0.0,0.0,1.83346,26.98631,-9.22462,9.14,-1.36,0.11,2.0
1758089378.01733,1758089368.07161,0.0,0.0,0.0,6.18794,19.70975,-7.73493,9.14,-1.36,0.11,2.0
1758089378.03361,1758089368.08161,0.0,0.0,0.0,8.65166,15.0115,-6.87549,9.1,-1.68,-0.26,2.0
1758089378.05138,1758089368.09161,0.0,0.0,0.0,11.00079,8.99544,-6.07335,9.25,-1.88,-0.01,2.0
1758089378.05232,1758089368.10161,0.0,0.0,0.0,12.71966,3.20856,-5.78687,9.25,-1.88,-0.01,2.0
1758089378.06856,1758089368.11161,0.0,0.0,0.0,15.98552,-5.72958,-4.87014,9.53,-1.99,0.29,2.0
1758089378.07248,1758089368.12161,0.0,0.0,0.0,18.44924,-10.19865,-3.72423,9.53,-1.99,0.29,2.0
1758089378.08742,1758089368.13161,0.0,0.0,0.0,20.68378,-13.75099,-2.34913,9.87,-2.01,0.39,2.0
1758089378.08871,1758089368.14161,0.0,0.0,0.0,22.68913,-17.30333,-0.97403,9.87,-2.01,0.39,2.0
1758089378.10358,1758089368.15161,0.0,0.0,0.0,24.98096,-20.62648,0.51566,9.78,-2.01,0.42,2.0
1758089378.10697,1758089368.16161,0.0,0.0,0.0,25.72581,-22.97561,1.14592,9.59,-1.98,0.08,2.0
1758089378.12338,1758089368.17161,0.0,0.0,0.0,26.12688,-26.64254,1.48969,9.59,-1.98,0.08,2.0
1758089378.13984,1758089368.18161,0.0,0.0,0.0,26.47065,-28.36141,0.68755,9.27,-1.86,-0.17,2.0
1758089378.1426,1758089368.19161,0.0,0.0,0.0,27.38738,-27.04361,-1.66158,9.27,-1.86,-0.17,2.0
1758089378.1576,1758089368.20161,0.0,0.0,0.0,28.70519,-25.21014,-2.6929,9.48,-1.69,-0.99,2.0
1758089378.15875,1758089368.21161,0.0,0.0,0.0,28.41871,-24.29341,-3.72423,9.48,-1.69,-0.99,2.0
1758089378.17359,1758089368.22161,0.0,0.0,0.0,28.41871,-22.63183,-2.00535,10.3,-1.26,0.5,2.0
1758089378.17697,1758089368.23161,0.0,0.0,0.0,25.61122,-13.75099,2.34913,13.0,-0.46,3.68,2.0
1758089378.19255,1758089368.24161,0.0,0.0,0.0,22.11617,-14.49583,5.27121,13.0,-0.46,3.68,2.0
1758089378.20858,1758089368.25161,0.0,0.0,0.0,22.68913,-47.32632,11.91752,13.19,0.89,6.03,2.0
1758089378.21301,1758089368.26161,0.0,0.0,0.0,22.00158,-85.19884,21.6578,13.19,0.89,6.03,2.0
1758089378.22879,1758089368.27161,0.0,0.0,0.0,22.74642,-101.81461,25.7831,13.18,1.74,2.38,2.0
1758089378.23142,1758089368.28161,0.0,0.0,0.0,21.08485,-85.77179,22.97561,13.18,1.74,2.38,2.0
1758089378.24741,1758089368.29161,0.0,0.0,0.0,20.74107,-72.47916,17.87628,14.63,1.19,0.62,2.0
1758089378.24858,1758089368.30161,0.0,0.0,0.0,21.31403,-66.17663,5.84417,14.63,1.19,0.62,2.0
1758089378.26389,1758089368.31161,0.0,0.0,0.0,21.7151,-56.60823,-2.23454,8.45,0.62,0.35,2.0
1758089378.28087,1758089368.32161,0.0,0.0,0.0,22.40265,-43.31561,-9.11003,7.79,0.81,3.15,2.0
1758089378.28125,1758089368.33161,0.0,0.0,0.0,23.49127,-31.56997,-13.12073,7.79,0.81,3.15,2.0
1758089378.29887,1758089368.34161,0.0,0.0,0.0,24.80907,-13.06344,-13.34992,8.56,1.53,2.47,2.0
1758089378.30073,1758089368.35161,0.0,0.0,0.0,25.72581,0.0573,-10.59972,8.56,1.53,2.47,2.0
1758089378.31663,1758089368.36161,0.0,0.0,0.0,26.01229,12.54778,-7.16197,11.11,1.92,2.19,2.0
1758089378.31854,1758089368.37161,0.0,0.0,0.0,25.8404,23.66316,-3.49504,11.11,1.92,2.19,2.0
1758089378.33361,1758089368.38161,0.0,0.0,0.0,24.57989,37.52874,0.74485,12.33,1.9,0.92,2.0
1758089378.337,1758089368.39161,0.0,0.0,0.0,22.11617,48.24305,0.80214,12.15,1.48,0.96,2.0
1758089378.35286,1758089368.40161,0.0,0.0,0.0,19.99623,52.36834,-0.74485,12.15,1.48,0.96,2.0
1758089378.36899,1758089368.41161,0.0,0.0,0.0,17.87628,51.45161,-2.86479,10.62,1.16,0.94,2.0
1758089378.3715,1758089368.42161,0.0,0.0,0.0,14.78231,48.9879,-5.32851,10.62,1.16,0.94,2.0
1758089378.38686,1758089368.43161,0.0,0.0,0.0,12.83425,49.15978,-6.70361,10.09,1.13,0.98,2.0
1758089378.39263,1758089368.44161,0.0,0.0,0.0,11.34457,49.38896,-7.16197,10.09,1.13,0.98,2.0
1758089378.40765,1758089368.45161,0.0,0.0,0.0,10.08406,48.75871,-6.8182,10.03,1.51,1.13,2.0
1758089378.4112,1758089368.46161,0.0,0.0,0.0,8.02141,48.52953,-5.61499,9.75,1.61,1.52,2.0
1758089378.42791,1758089368.47161,0.0,0.0,0.0,6.58902,47.44091,-4.23989,9.75,1.61,1.52,2.0
1758089378.42884,1758089368.48161,0.0,0.0,0.0,5.27121,46.98254,-3.09397,9.37,1.54,1.36,2.0
1758089378.44374,1758089368.49161,0.0,0.0,0.0,3.09397,47.38361,-1.3751,9.37,1.54,1.36,2.0
1758089378.44964,1758089368.50161,0.0,0.0,0.0,1.94806,46.40959,-0.45837,9.13,1.34,1.28,2.0
1758089378.46772,1758089368.51161,0.0,0.0,0.0,1.20321,44.28964,0.57296,9.13,1.34,1.28,2.0
1758089378.47156,1758089368.52161,0.0,0.0,0.0,0.40107,40.68,1.77617,8.72,1.07,1.24,2.0
1758089378.48694,1758089368.53161,0.0,0.0,0.0,-0.85944,32.88778,2.57831,8.72,1.07,1.22,2.0
1758089378.48813,1758089368.5416,0.0,0.0,0.0,-1.77617,27.50197,2.29183,8.34,0.86,1.22,2.0
1758089378.50385,1758089368.5516,0.0,0.0,0.0,-2.57831,21.31403,1.71887,8.06,0.84,0.98,2.0
1758089378.52096,1758089368.5616,0.0,0.0,0.0,-3.38045,14.49583,1.3751,8.06,0.84,0.98,2.0
1758089378.52138,1758089368.5716,0.0,0.0,0.0,-4.1253,4.58366,1.3751,7.79,0.89,0.91,2.0
1758089378.53876,1758089368.5816,0.0,0.0,0.0,-4.29718,-1.66158,1.66158,7.79,0.89,0.91,2.0
1758089378.54055,1758089368.5916,0.0,0.0,0.0,-4.81285,-6.47442,2.06265,7.96,0.94,0.88,2.0
1758089378.55571,1758089368.6016,0.0,0.0,0.0,-5.50039,-9.74028,2.92208,7.96,0.94,0.88,2.0
1758089378.55921,1758089368.6116,0.0,0.0,0.0,-6.41713,-10.71431,4.58366,8.51,0.99,0.84,2.0
1758089378.5758,1758089368.6216,0.0,0.0,0.0,-6.87549,-9.11003,6.13065,9.2,0.95,0.93,2.0
1758089378.57751,1758089368.6316,0.0,0.0,0.0,-7.39116,-5.27121,7.33386,9.2,0.95,0.93,2.0
1758089378.59276,1758089368.6416,0.0,0.0,0.0,-8.25059,-1.3178,9.05273,9.94,0.79,1.01,2.0
1758089378.60873,1758089368.6516,0.0,0.0,0.0,-10.08406,6.24524,10.94349,9.94,0.79,1.01,2.0
1758089378.60993,1758089368.6616,0.0,0.0,0.0,-11.91752,11.86023,11.28727,10.17,0.62,0.96,2.0
1758089378.62733,1758089368.6716,0.0,0.0,0.0,-13.86558,15.87093,11.45916,10.17,0.62,0.96,2.0
1758089378.62993,1758089368.6816,0.0,0.0,0.0,-16.67307,18.85031,11.97482,9.94,0.65,0.73,2.0
1758089378.64675,1758089368.6916,0.0,0.0,0.0,-18.50654,18.50654,11.74564,9.56,0.74,0.52,2.0
1758089378.64795,1758089368.7016,0.0,0.0,0.0,-19.82434,17.58981,11.51645,9.56,0.74,0.52,2.0
1758089378.66304,1758089368.7116,0.0,0.0,0.0,-20.79837,16.04282,11.86023,9.41,0.83,0.14,2.0
1758089378.67862,1758089368.7216,0.0,0.0,0.0,-22.00158,13.06344,12.54778,9.41,0.83,0.14,2.0
1758089378.68395,1758089368.7316,0.0,0.0,0.0,-22.57454,10.37054,13.40721,9.41,0.84,0.01,2.0
1758089378.699,1758089368.7416,0.0,0.0,0.0,-23.0329,5.90147,14.78231,9.41,0.84,0.01,2.0
1758089378.70159,1758089368.7516,0.0,0.0,0.0,-23.72045,0.45837,16.04282,9.4,0.76,-0.02,2.0
1758089378.7176,1758089368.7616,0.0,0.0,0.0,-26.06958,-7.50575,16.95955,9.61,0.83,-0.01,2.0
1758089378.71927,1758089368.7716,0.0,0.0,0.0,-28.41871,-11.74564,16.73037,9.61,0.83,-0.01,2.0
1758089378.73377,1758089368.7816,0.0,0.0,0.0,-31.39809,-15.0115,15.75634,9.8,1.19,-0.08,2.0
1758089378.75143,1758089368.7916,0.0,0.0,0.0,-34.60666,-17.36062,14.66772,9.8,1.19,-0.08,2.0
1758089378.75196,1758089368.8016,0.0,0.0,0.0,-40.45082,-23.26209,14.38124,9.75,1.51,0.17,2.0
1758089378.76779,1758089368.8116,0.0,0.0,0.0,-44.57612,-27.67386,13.12073,9.75,1.51,0.17,2.0
1758089378.76898,1758089368.8216,0.0,0.0,0.0,-48.24305,-31.2262,12.14671,9.69,1.66,-0.31,2.0
1758089378.78373,1758089368.8316,0.0,0.0,0.0,-50.87865,-33.00237,11.97482,9.69,1.66,-0.31,2.0
1758089378.789,1758089368.8416,0.0,0.0,0.0,-52.76942,-32.37212,13.40721,10.24,1.54,-0.27,2.0
1758089378.80576,1758089368.8516,0.0,0.0,0.0,-52.65482,-32.25753,14.72501,11.11,1.15,0.74,2.0
1758089378.80922,1758089368.8616,0.0,0.0,0.0,-51.79538,-37.47144,15.41257,11.11,1.15,0.74,2.0
1758089378.82562,1758089368.8716,0.0,0.0,0.0,-47.03984,-46.75336,12.83425,11.49,0.33,2.22,2.0
1758089378.82704,1758089368.8816,0.0,0.0,0.0,-40.7373,-56.20716,10.94349,11.49,0.33,2.22,2.0
1758089378.84364,1758089368.8916,0.0,0.0,0.0,-31.39809,-72.53646,7.96411,13.51,-0.98,3.29,2.0
1758089378.85877,1758089368.9016,0.0,0.0,0.0,-22.40265,-103.41889,0.74485,13.51,-0.98,3.29,2.0
1758089378.86159,1758089368.9116,0.0,0.0,0.0,-9.05273,-116.53963,-7.67763,12.69,-3.42,2.75,2.0
1758089378.87839,1758089368.9216,0.0,0.0,0.0,-3.03668,-80.55787,-11.34457,16.14,-3.44,-0.66,2.0
1758089378.87976,1758089368.9316,0.0,0.0,0.0,-1.14592,-48.30034,-11.51645,16.14,-3.44,-0.66,2.0
1758089378.8976,1758089368.9416,0.0,0.0,0.0,-2.97938,-42.05511,-11.28727,11.27,-1.28,1.28,2.0
1758089378.89874,1758089368.9516,0.0,0.0,0.0,-4.18259,-36.26823,-6.13065,11.27,-1.28,1.28,2.0
1758089378.91369,1758089368.9616,0.0,0.0,0.0,-4.92744,-30.65324,-0.97403,7.79,-0.26,3.27,2.0
1758089378.91573,1758089368.9716,0.0,0.0,0.0,-7.50575,-29.9084,3.26586,7.79,-0.26,3.27,2.0
1758089378.9338,1758089368.9816,0.0,0.0,0.0,-11.11538,-27.2155,6.35983,7.18,-0.1,2.12,2.0
1758089378.93581,1758089368.9916,0.0,0.0,0.0,-15.69904,-17.36062,8.42248,9.19,-0.15,2.61,2.0
1758089378.95135,1758089369.0016,0.0,0.0,0.0,-17.13144,-10.08406,9.62569,9.19,-0.15,2.61,2.0
1758089378.96768,1758089369.0116,0.0,0.0,0.0,-17.87628,-4.92744,10.59972,10.91,-0.6,2.52,2.0
1758089378.97228,1758089369.0216,0.0,0.0,0.0,-18.16276,0.68755,10.31324,10.91,-0.6,2.52,2.0
1758089378.98789,1758089369.0316,0.0,0.0,0.0,-16.3293,11.45916,9.39651,11.67,-1.33,1.59,2.0
1758089378.99231,1758089369.0416,0.0,0.0,0.0,-15.98552,16.84496,7.04738,11.67,-1.33,1.59,2.0
1758089379.00866,1758089369.0516,0.0,0.0,0.0,-14.38124,23.37668,4.87014,11.04,-1.85,0.9,2.0
1758089379.01234,1758089369.0616,0.0,0.0,0.0,-13.12073,28.99167,2.92208,11.04,-1.85,0.9,2.0
1758089379.02757,1758089369.0716,0.0,0.0,0.0,-11.00079,35.86716,1.43239,10.49,-1.98,1.02,2.0
1758089379.03201,1758089369.0816,0.0,0.0,0.0,-9.74028,38.90384,1.48969,10.2,-1.88,1.41,2.0
1758089379.04717,1758089369.0916,0.0,0.0,0.0,-8.93814,41.25296,2.23454,10.2,-1.88,1.41,2.0
1758089379.04842,1758089369.1016,0.0,0.0,0.0,-8.36518,42.28429,3.38045,10.18,-1.72,1.48,2.0
1758089379.06311,1758089369.1116,0.0,0.0,0.0,-8.47978,41.48215,4.35448,10.18,-1.72,1.48,2.0
1758089379.07909,1758089369.1216,0.0,0.0,0.0,-9.39651,41.42485,4.58366,10.17,-1.46,1.35,2.0
1758089379.08088,1758089369.1316,0.0,0.0,0.0,-10.31324,41.59674,5.15662,10.17,-1.46,1.35,2.0
1758089379.09613,1758089369.1416,0.0,0.0,0.0,-11.51645,41.08107,4.23989,10.21,-1.2,1.17,2.0
1758089379.09707,1758089369.1516,0.0,0.0,0.0,-11.63104,40.33623,3.49504,9.72,-1.08,0.88,2.0
1758089379.11345,1758089369.1616,0.0,0.0,0.0,-11.17268,39.53409,2.63561,9.72,-1.08,0.88,2.0
1758089379.15418,1758089369.1716,0.0,0.0,0.0,-9.68299,39.01843,2.23454,9.28,-1.16,0.83,2.0
1758089379.18898,1758089369.1816,0.0,0.0,0.0,-7.16197,35.00772,2.11994,9.28,-1.16,0.83,2.0
1758089379.20426,1758089369.1916,0.0,0.0,0.0,-5.15662,30.76784,2.29183,8.66,-1.45,0.74,2.0
1758089379.21333,1758089369.2016,0.0,0.0,0.0,-3.26586,27.10091,2.40642,8.66,-1.45,0.74,2.0
1758089379.21402,1758089369.2116,0.0,0.0,0.0,-2.00535,23.83505,2.57831,8.37,-1.73,0.51,2.0
1758089379.21766,1758089369.2216,0.0,0.0,0.0,-0.57296,18.33465,2.34913,8.22,-1.81,0.48,2.0
1758089379.21937,1758089369.2316,0.0,0.0,0.0,0.0,14.78231,2.00535,8.22,-1.81,0.48,2.0
1758089379.22062,1758089369.2416,0.0,0.0,0.0,0.34377,12.204,1.83346,8.44,-1.63,0.54,2.0
1758089379.22332,1758089369.2516,0.0,0.0,0.0,0.40107,10.48513,1.3178,8.44,-1.63,0.54,2.0
1758089379.22407,1758089369.2616,0.0,0.0,0.0,0.45837,7.39116,0.97403,8.83,-1.31,0.65,2.0
1758089379.22599,1758089369.2716,0.0,0.0,0.0,0.85944,5.27121,0.80214,8.83,-1.31,0.65,2.0
1758089379.22673,1758089369.2816,0.0,0.0,0.0,1.3751,3.60963,0.68755,9.02,-1.09,0.59,2.0
1758089379.24298,1758089369.2916,0.0,0.0,0.0,1.94806,3.32316,0.40107,9.02,-1.09,0.59,2.0
1758089379.2592,1758089369.3016,0.0,0.0,0.0,2.29183,2.97938,0.17189,9.31,-1.03,0.55,2.0
1758089379.26361,1758089369.3116,0.0,0.0,0.0,2.7502,3.60963,0.0573,9.39,-1.11,0.44,2.0
1758089379.27893,1758089369.3216,0.0,0.0,0.0,3.20856,4.29718,-0.17189,9.39,-1.11,0.44,2.0
1758089379.28332,1758089369.3316,0.0,0.0,0.0,3.66693,7.21927,-1.08862,9.49,-1.21,0.37,2.0
1758089379.2992,1758089369.3416,0.0,0.0,0.0,3.72423,10.48513,-2.11994,9.49,-1.21,0.37,2.0
1758089379.30339,1758089369.3516,0.0,0.0,0.0,4.0107,13.86558,-3.38045,9.71,-1.19,0.38,2.0
1758089379.31919,1758089369.3616,0.0,0.0,0.0,4.23989,17.76169,-4.69825,9.71,-1.19,0.38,2.0
1758089379.32424,1758089369.3716,0.0,0.0,0.0,5.15662,25.21014,-7.04738,9.8,-1.14,0.51,2.0
1758089379.32553,1758089369.3816,0.0,0.0,0.0,6.8182,30.30947,-8.02141,10.06,-1.18,0.85,2.0
1758089379.34314,1758089369.3916,0.0,0.0,0.0,9.05273,30.65324,-8.42248,10.06,-1.18,0.85,2.0
1758089379.35897,1758089369.4016,0.0,0.0,0.0,11.91752,27.2155,-8.42248,9.49,-1.35,1.1,2.0
1758089379.36345,1758089369.4116,0.0,0.0,0.0,17.58981,22.86102,-7.16197,9.49,-1.35,1.1,2.0
1758089379.3792,1758089369.4216,0.0,0.0,0.0,22.28806,20.3973,-5.95876,9.6,-1.8,0.89,2.0
1758089379.38126,1758089369.4316,0.0,0.0,0.0,27.04361,16.84496,-4.87014,9.6,-1.8,0.89,2.0
1758089379.39897,1758089369.4416,0.0,0.0,0.0,31.51268,12.77696,-3.66693,9.17,-2.35,0.36,2.0
1758089379.40338,1758089369.4516,0.0,0.0,0.0,37.98711,5.32851,-3.66693,8.61,-2.69,0.01,2.0
1758089379.41924,1758089369.4616,0.0,0.0,0.0,40.10705,-6.35983,-4.23989,8.61,-2.69,0.01,2.0
1758089379.42415,1758089369.4716,0.0,0.0,0.0,40.27893,-15.87093,-5.72958,7.93,-2.44,-0.29,2.0
1758089379.42555,1758089369.4816,0.0,0.0,0.0,40.85189,-13.12073,-8.93814,7.93,-2.44,-0.29,2.0
1758089379.44375,1758089369.4916,0.0,0.0,0.0,43.77398,1.03132,-8.76626,10.11,-2.04,-0.53,2.0
1758089379.45895,1758089369.5016,0.0,0.0,0.0,45.09178,9.91217,-10.19865,10.11,-2.04,-0.53,2.0
1758089379.46452,1758089369.5116,0.0,0.0,0.0,45.49285,19.13679,-11.28727,10.19,-1.61,1.2,2.0
1758089379.47928,1758089369.5216,0.0,0.0,0.0,45.55015,16.04282,-14.09476,10.19,-1.61,1.2,2.0
1758089379.48349,1758089369.5316,0.0,0.0,0.0,42.91454,-2.11994,-19.88164,9.15,-1.09,1.91,2.0
1758089379.49895,1758089369.5416,0.0,0.0,0.0,48.35764,-36.6693,-13.5791,6.59,-0.67,-0.16,2.0
1758089379.50339,1758089369.5516,0.0,0.0,0.0,50.363,-53.68615,-9.11003,6.59,-0.67,-0.16,2.0
1758089379.51888,1758089369.5616,0.0,0.0,0.0,50.87865,-42.62806,-4.92744,10.29,-1.17,-1.01,2.0
1758089379.52092,1758089369.5716,0.0,0.0,0.0,50.3057,-33.80451,-4.52637,10.29,-1.17,-1.01,2.0
1758089379.53618,1758089369.5816,0.0,0.0,0.0,47.44091,-32.54401,-5.50039,11.18,-1.05,-0.6,2.0
1758089379.53719,1758089369.5916,0.0,0.0,0.0,42.91454,-35.63798,-6.24524,11.18,-1.05,-0.6,2.0
1758089379.55284,1758089369.6016,0.0,0.0,0.0,33.40344,-34.14828,-7.21927,10.4,-0.85,2.46,2.0
1758089379.56928,1758089369.6116,0.0,0.0,0.0,25.89769,-31.85646,-7.67763,12.2,-0.18,2.43,2.0
1758089379.57341,1758089369.6216,0.0,0.0,0.0,17.24603,-30.48136,-7.10468,12.2,-0.18,2.43,2.0
1758089379.58927,1758089369.6316,0.0,0.0,0.0,7.39116,-30.93972,-4.35448,13.75,1.32,3.08,2.0
1758089379.59335,1758089369.6416,0.0,0.0,0.0,-8.36518,-33.40344,2.86479,13.75,1.32,3.08,2.0
1758089379.609,1758089369.6516,0.0,0.0,0.0,-17.99088,-28.30412,6.87549,16.06,2.81,3.68,2.0
1758089379.61337,1758089369.6616,0.0,0.0,0.0,-25.43933,-17.36062,7.33386,16.06,2.81,3.68,2.0
1758089379.62923,1758089369.6716,0.0,0.0,0.0,-29.73651,-9.74028,2.23454,16.02,1.95,0.55,2.0
1758089379.6334,1758089369.6816,0.0,0.0,0.0,-30.30947,-8.02141,-9.68299,11.08,-0.54,-0.64,2.0
1758089379.64911,1758089369.6916,0.0,0.0,0.0,-27.78845,-5.72958,-17.58981,11.08,-0.54,-0.64,2.0
1758089379.65338,1758089369.7016,0.0,0.0,0.0,-23.83505,-0.40107,-23.54857,8.96,-1.45,-0.73,2.0
1758089379.66929,1758089369.7116,0.0,0.0,0.0,-15.46986,7.44845,-28.76248,8.96,-1.45,-0.73,2.0
1758089379.67352,1758089369.7216,0.0,0.0,0.0,-7.44845,12.83425,-28.24682,8.09,-1.49,0.44,2.0
1758089379.68929,1758089369.7316,0.0,0.0,0.0,2.00535,13.75099,-25.09555,8.09,-1.49,0.44,2.0
1758089379.74917,1758089369.7416,0.0,0.0,0.0,11.45916,14.09476,-20.3973,7.11,-1.47,2.44,2.0
1758089379.75354,1758089369.7516,0.0,0.0,0.0,23.89234,10.65701,-11.28727,7.11,-1.47,2.44,2.0
1758089379.76347,1758089369.7616,0.0,0.0,0.0,30.25217,6.41713,-5.21392,7.04,-1.17,3.81,2.0
1758089379.76407,1758089369.7716,0.0,0.0,0.0,34.14828,2.34913,0.0,8.37,-0.69,3.67,2.0
1758089379.77408,1758089369.7816,0.0,0.0,0.0,33.46074,3.20856,6.58902,8.37,-0.69,3.67,2.0
1758089379.77548,1758089369.7916,0.0,0.0,0.0,29.33544,10.59972,7.79223,11.25,0.09,2.61,2.0
1758089379.7782,1758089369.8016,0.0,0.0,0.0,24.98096,15.29797,5.21392,11.25,0.09,2.61,2.0
1758089379.78402,1758089369.8116,0.0,0.0,0.0,18.79302,17.93358,0.11459,12.57,0.95,2.41,2.0
1758089379.78531,1758089369.8216,0.0,0.0,0.0,11.11538,15.69904,-4.23989,12.57,0.95,2.41,2.0
1758089379.79267,1758089369.8316,0.0,0.0,0.0,6.70361,24.86637,-13.46451,10.8,2.29,1.66,2.0
1758089379.79334,1758089369.8416,0.0,0.0,0.0,4.29718,24.5226,-14.32395,10.25,2.14,2.78,2.0
1758089379.80936,1758089369.8516,0.0,0.0,0.0,2.86479,14.03747,-15.69904,10.25,2.14,2.78,2.0
1758089379.81422,1758089369.8616,0.0,0.0,0.0,2.97938,11.63104,-14.9542,8.58,2.01,1.36,2.0
1758089379.82931,1758089369.8716,0.0,0.0,0.0,4.29718,17.47521,-12.83425,8.58,2.01,1.36,2.0
1758089379.83424,1758089369.8816,0.0,0.0,0.0,6.07335,19.99623,-11.45916,9.82,1.44,1.86,2.0
1758089379.83679,1758089369.8916,0.0,0.0,0.0,7.84952,21.94428,-10.02676,9.82,1.44,1.86,2.0
1758089379.85407,1758089369.9016,0.0,0.0,0.0,9.39651,25.43933,-8.47978,9.41,0.78,1.42,2.0
1758089379.88327,1758089369.9116,0.0,0.0,0.0,11.17268,31.16891,-7.96411,9.56,0.22,1.62,2.0
1758089379.88519,1758089369.9216,0.0,0.0,0.0,11.91752,31.79916,-7.67763,9.56,0.22,1.62,2.0
1758089379.88878,1758089369.9316,0.0,0.0,0.0,12.204,30.93972,-6.7609,9.21,0.03,1.4,2.0
1758089379.89367,1758089369.9416,0.0,0.0,0.0,11.17268,28.87707,-6.24524,9.21,0.03,1.4,2.0
1758089379.90936,1758089369.9516,0.0,0.0,0.0,9.91217,26.41335,-5.72958,9.41,0.22,1.47,2.0
1758089379.91345,1758089369.9616,0.0,0.0,0.0,8.136,23.37668,-5.72958,9.41,0.22,1.47,2.0
1758089379.92919,1758089369.9716,0.0,0.0,0.0,6.47442,19.82434,-5.72958,9.39,0.72,1.22,2.0
1758089379.93296,1758089369.9816,0.0,0.0,0.0,4.23989,15.98552,-6.13065,9.41,0.72,1.17,2.0
1758089379.94835,1758089369.9916,0.0,0.0,0.0,3.38045,13.5218,-6.58902,9.41,1.2,1.17,2.0
1758089379.94928,1758089370.0016,0.0,0.0,0.0,2.7502,11.51645,-6.7609,9.26,1.42,1.03,2.0
1758089379.96406,1758089370.0116,0.0,0.0,0.0,2.86479,9.62569,-6.41713,9.26,1.42,1.03,2.0
1758089379.96602,1758089370.0216,0.0,0.0,0.0,2.6929,7.50575,-5.55769,9.07,1.3,1.0,2.0
1758089379.98331,1758089370.0316,0.0,0.0,0.0,2.57831,6.8182,-4.69825,9.07,1.3,1.0,2.0
1758089379.99937,1758089370.0416,0.0,0.0,0.0,2.40642,5.84417,-3.72423,9.02,0.95,1.06,2.0
1758089380.00271,1758089370.0516,0.0,0.0,0.0,1.94806,4.98473,-3.03668,9.02,0.95,1.06,2.0
1758089380.0181,1758089370.0616,0.0,0.0,0.0,1.03132,4.18259,-2.23454,9.01,0.66,1.19,2.0
1758089380.02039,1758089370.0716,0.0,0.0,0.0,0.11459,3.72423,-1.77617,9.09,0.52,1.28,2.0
1758089380.03598,1758089370.0816,0.0,0.0,0.0,-0.97403,3.26586,-1.14592,9.09,0.52,1.28,2.0
1758089380.038,1758089370.0916,0.0,0.0,0.0,-2.06265,3.03668,-0.80214,9.08,0.57,1.19,2.0
1758089380.05338,1758089370.1016,0.0,0.0,0.0,-4.29718,7.62034,0.17189,9.08,0.57,1.19,2.0
1758089380.06918,1758089370.1116,0.0,0.0,0.0,-5.78687,10.65701,1.08862,9.21,0.78,0.96,2.0
1758089380.07268,1758089370.1216,0.0,0.0,0.0,-7.04738,13.12073,2.11994,9.21,0.78,0.96,2.0
1758089380.0884,1758089370.1316,0.0,0.0,0.0,-9.62569,17.58981,3.89611,8.97,0.98,1.05,2.0
1758089380.08935,1758089370.1416,0.0,0.0,0.0,-11.45916,19.25138,5.09932,9.12,1.16,1.04,2.0
1758089380.10402,1758089370.1516,0.0,0.0,0.0,-13.69369,21.31403,5.61499,9.12,1.16,1.04,2.0
1758089380.10613,1758089370.1616,0.0,0.0,0.0,-16.21471,21.88699,5.32851,9.5,1.32,1.21,2.0
1758089380.12341,1758089370.1716,0.0,0.0,0.0,-20.22541,12.2613,4.23989,9.5,1.32,1.21,2.0
1758089380.13917,1758089370.1816,0.0,0.0,0.0,-23.83505,4.69825,3.83882,9.24,1.44,1.01,2.0
1758089380.14304,1758089370.1916,0.0,0.0,0.0,-28.59059,-1.3751,2.46372,9.24,1.44,1.01,2.0
1758089380.15843,1758089370.2016,0.0,0.0,0.0,-33.34615,-7.73493,2.63561,9.53,1.66,0.67,2.0
1758089380.15937,1758089370.2116,0.0,0.0,0.0,-39.99245,-18.56383,3.66693,9.4,1.97,0.27,2.0
1758089380.17412,1758089370.2216,0.0,0.0,0.0,-44.23235,-24.80907,4.18259,9.4,1.97,0.27,2.0
1758089380.1762,1758089370.2316,0.0,0.0,0.0,-48.30034,-30.82513,4.35448,9.44,2.06,-0.05,2.0
1758089380.19338,1758089370.2416,0.0,0.0,0.0,-50.3057,-39.01843,5.15662,9.44,2.06,-0.05,2.0
1758089380.20926,1758089370.2516,0.0,0.0,0.0,-51.27972,-52.19646,6.41713,9.41,1.71,-0.61,2.0
1758089380.21196,1758089370.2616,0.0,0.0,0.0,-50.3057,-58.04062,6.58902,9.41,1.71,-0.61,2.0
1758089380.22721,1758089370.2716,0.0,0.0,0.0,-48.8733,-62.16592,7.67763,9.89,1.11,-0.83,2.0
1758089380.22834,1758089370.2816,0.0,0.0,0.0,-47.32632,-58.84277,7.62034,9.89,1.11,-0.83,2.0
1758089380.24352,1758089370.2916,0.0,0.0,0.0,-44.63341,-27.78845,8.30789,11.44,0.65,-0.59,2.0
1758089380.25926,1758089370.3016,0.0,0.0,0.0,-41.94051,-6.58902,9.05273,13.28,0.33,0.67,2.0
1758089380.26441,1758089370.3116,0.0,0.0,0.0,-39.13302,-22.63183,8.25059,13.28,0.33,0.67,2.0
1758089380.27943,1758089370.3216,0.0,0.0,0.0,-38.21629,-36.95578,6.07335,8.73,0.28,0.98,2.0
1758089380.28308,1758089370.3316,0.0,0.0,0.0,-38.21629,-39.76327,2.40642,8.73,0.28,0.98,2.0
1758089380.29825,1758089370.3416,0.0,0.0,0.0,-36.7266,-39.24761,1.08862,10.43,0.69,0.01,2.0
1758089380.29935,1758089370.3516,0.0,0.0,0.0,-35.00772,-41.25296,0.17189,10.43,0.69,0.01,2.0
1758089380.31457,1758089370.3616,0.0,0.0,0.0,-29.33544,-46.1804,0.0,9.81,0.85,-0.66,2.0
1758089380.31887,1758089370.3716,0.0,0.0,0.0,-25.61122,-52.02457,-0.45837,10.74,-0.07,2.89,2.0
1758089380.33415,1758089370.3816,0.0,0.0,0.0,-20.68378,-55.6915,0.40107,10.74,-0.07,2.89,2.0
