timeStamp,timeStampAlign,roll,pitch,yaw,gyro_x,gyro_y,gyro_z,acc_x,acc_y,acc_z,flag_num
1758078223.93821,1758078210.60089,0.0,0.0,0.0,4.69825,0.40107,-3.03668,9.37,-0.98,1.6,4.0
1758078223.94281,1758078210.61089,0.0,0.0,0.0,6.58902,-0.17189,-3.32316,9.32,-1.04,1.43,4.0
1758078223.94827,1758078210.62089,0.0,0.0,0.0,9.96947,-0.97403,-3.95341,9.39,-1.04,1.32,4.0
1758078223.96504,1758078210.63089,0.0,0.0,0.0,12.14671,-0.80214,-4.35448,9.39,-1.04,1.32,4.0
1758078223.9784,1758078210.64089,0.0,0.0,0.0,14.66772,-0.80214,-4.92744,9.56,-0.99,1.3,4.0
1758078223.9836,1758078210.65089,0.0,0.0,0.0,17.18874,-1.60428,-5.32851,9.56,-0.99,1.3,4.0
1758078224.37965,1758078210.66089,0.0,0.0,0.0,20.68378,-3.09397,-5.4431,9.71,-0.79,1.49,4.0
1758078224.38004,1758078210.67089,0.0,0.0,0.0,22.40265,-4.64096,-5.21392,9.71,-0.79,1.49,4.0
1758078224.40103,1758078210.68089,0.0,0.0,0.0,23.60586,-7.10468,-4.46907,10.0,-0.49,1.95,4.0
1758078224.40318,1758078210.69089,0.0,0.0,0.0,23.66316,-9.85487,-2.92208,10.0,-0.49,1.95,4.0
1758078224.40396,1758078210.70089,0.0,0.0,0.0,22.91831,-11.57375,-2.23454,10.0,-0.14,2.28,4.0
1758078224.40676,1758078210.71089,0.0,0.0,0.0,21.88699,-11.80293,-1.43239,9.58,0.07,2.39,4.0
1758078224.41262,1758078210.72089,0.0,0.0,0.0,19.82434,-11.74564,-1.08862,9.58,0.07,2.39,4.0
1758078224.42395,1758078210.73089,0.0,0.0,0.0,16.90226,-9.5684,-1.48969,9.08,0.33,2.18,4.0
1758078224.42959,1758078210.74089,0.0,0.0,0.0,15.0115,-7.96411,-2.00535,9.08,0.33,2.18,4.0
1758078224.43027,1758078210.75089,0.0,0.0,0.0,13.75099,-7.10468,-2.34913,8.88,0.62,2.17,4.0
1758078224.43471,1758078210.76089,0.0,0.0,0.0,12.89155,-6.41713,-2.63561,8.88,0.62,2.17,4.0
1758078224.44199,1758078210.77089,0.0,0.0,0.0,12.37589,-5.61499,-2.7502,8.91,0.85,2.01,4.0
1758078224.44423,1758078210.78089,0.0,0.0,0.0,12.71966,-5.55769,-2.63561,9.34,0.9,2.18,4.0
1758078224.45066,1758078210.79089,0.0,0.0,0.0,13.34992,-5.15662,-2.63561,9.34,0.9,2.18,4.0
1758078224.48445,1758078210.80089,0.0,0.0,0.0,13.69369,-4.46907,-2.57831,9.8,0.75,2.28,4.0
1758078224.50809,1758078210.81089,0.0,0.0,0.0,14.72501,-4.29718,-2.86479,9.8,0.75,2.28,4.0
1758078224.50846,1758078210.82089,0.0,0.0,0.0,15.58445,-4.64096,-2.86479,9.85,0.46,2.33,4.0
1758078224.52271,1758078210.83089,0.0,0.0,0.0,16.55848,-4.52637,-2.63561,9.85,0.46,2.33,4.0
1758078224.52406,1758078210.84089,0.0,0.0,0.0,17.30333,-3.60963,-2.06265,9.84,0.31,1.99,4.0
1758078224.52455,1758078210.85089,0.0,0.0,0.0,18.44924,-1.83346,-0.97403,9.93,0.37,1.68,4.0
1758078224.52967,1758078210.86089,0.0,0.0,0.0,19.13679,-1.08862,-0.17189,9.93,0.37,1.68,4.0
1758078224.53472,1758078210.87089,0.0,0.0,0.0,19.82434,-0.17189,0.51566,10.1,0.51,1.37,4.0
1758078224.55074,1758078210.88089,0.0,0.0,0.0,20.3973,1.03132,1.3178,10.1,0.51,1.37,4.0
1758078224.56996,1758078210.89089,0.0,0.0,0.0,21.31403,2.29183,1.77617,10.31,0.59,1.37,4.0
1758078224.66824,1758078210.90089,0.0,0.0,0.0,21.7724,2.86479,2.06265,10.31,0.59,1.37,4.0
1758078224.67027,1758078210.91089,0.0,0.0,0.0,22.28806,3.66693,2.29183,10.37,0.7,1.3,4.0
1758078224.70417,1758078210.92089,0.0,0.0,0.0,22.86102,4.58366,2.00535,10.37,0.7,1.3,4.0
1758078224.71096,1758078210.93089,0.0,0.0,0.0,23.54857,4.64096,1.60428,10.36,0.74,1.36,4.0
1758078224.71957,1758078210.94089,0.0,0.0,0.0,24.00693,4.46907,1.20321,10.3,0.75,1.32,4.0
1758078224.78586,1758078210.95089,0.0,0.0,0.0,24.57989,3.83882,0.74485,10.3,0.75,1.32,4.0
1758078224.78838,1758078210.96089,0.0,0.0,0.0,25.15285,2.40642,0.17189,10.12,0.79,1.33,4.0
1758078224.79094,1758078210.97089,0.0,0.0,0.0,25.89769,1.66158,-0.34377,10.12,0.79,1.33,4.0
1758078224.79344,1758078210.98089,0.0,0.0,0.0,26.69983,1.83346,-0.45837,9.87,0.84,1.29,4.0
1758078224.79406,1758078210.99089,0.0,0.0,0.0,27.33009,2.6929,-0.45837,9.87,0.84,1.29,4.0
1758078224.79813,1758078211.00089,0.0,0.0,0.0,28.24682,4.87014,-0.51566,9.8,0.86,1.36,4.0
1758078224.80225,1758078211.01089,0.0,0.0,0.0,28.36141,5.27121,-0.57296,9.63,0.9,1.45,4.0
1758078224.803,1758078211.02089,0.0,0.0,0.0,28.476,5.21392,-0.74485,9.63,0.9,1.45,4.0
1758078224.80413,1758078211.03089,0.0,0.0,0.0,28.76248,4.52637,-0.68755,9.47,0.92,1.46,4.0
1758078224.80886,1758078211.04089,0.0,0.0,0.0,29.33544,0.51566,-0.85944,9.47,0.92,1.46,4.0
1758078224.81391,1758078211.05089,0.0,0.0,0.0,29.39274,-1.83346,-1.08862,9.26,0.91,1.2,4.0
1758078224.81784,1758078211.06089,0.0,0.0,0.0,28.99167,-2.63561,-1.08862,9.26,0.91,1.2,4.0
1758078224.81896,1758078211.07089,0.0,0.0,0.0,28.30412,-2.29183,-0.97403,9.45,0.93,1.25,4.0
1758078224.82356,1758078211.08089,0.0,0.0,0.0,27.10091,-1.77617,-0.51566,9.38,0.96,1.21,4.0
1758078224.87435,1758078211.09089,0.0,0.0,0.0,26.18417,-1.3751,-0.17189,9.38,0.96,1.21,4.0
1758078224.87717,1758078211.10089,0.0,0.0,0.0,25.15285,-1.03132,0.11459,9.26,1.01,1.29,4.0
1758078224.87916,1758078211.11089,0.0,0.0,0.0,23.60586,-0.0573,0.97403,9.26,1.01,1.29,4.0
1758078224.88057,1758078211.12089,0.0,0.0,0.0,22.68913,2.57831,1.60428,9.26,1.07,1.22,4.0
1758078224.8842,1758078211.13089,0.0,0.0,0.0,21.94428,3.55234,2.11994,9.26,1.07,1.22,4.0
1758078224.88885,1758078211.14089,0.0,0.0,0.0,20.97026,3.83882,2.46372,9.14,1.1,1.29,4.0
1758078224.89107,1758078211.15089,0.0,0.0,0.0,19.59516,3.38045,3.20856,9.14,1.1,1.29,4.0
1758078224.89705,1758078211.16089,0.0,0.0,0.0,18.62113,2.86479,3.72423,9.09,1.08,1.12,4.0
1758078224.89771,1758078211.17089,0.0,0.0,0.0,17.36062,2.46372,4.29718,9.08,1.05,0.88,4.0
1758078224.8989,1758078211.18089,0.0,0.0,0.0,16.10011,1.60428,4.64096,9.08,1.05,0.88,4.0
1758078224.89958,1758078211.19089,0.0,0.0,0.0,13.69369,-0.0573,5.4431,8.98,1.02,0.82,4.0
1758078224.90162,1758078211.20089,0.0,0.0,0.0,12.2613,-1.48969,5.95876,8.98,1.02,0.82,4.0
1758078224.90386,1758078211.21089,0.0,0.0,0.0,10.94349,-2.86479,6.53172,9.04,0.99,1.03,4.0
1758078224.90664,1758078211.22089,0.0,0.0,0.0,9.68299,-3.49504,7.10468,9.04,0.99,1.03,4.0
1758078224.91718,1758078211.23089,0.0,0.0,0.0,8.25059,-4.18259,7.79223,9.31,0.94,1.22,4.0
1758078224.91807,1758078211.24089,0.0,0.0,0.0,7.39116,-4.52637,8.136,9.54,0.96,1.35,4.0
1758078224.91877,1758078211.25089,0.0,0.0,0.0,6.58902,-4.81285,8.36518,9.54,0.96,1.35,4.0
1758078224.92194,1758078211.26089,0.0,0.0,0.0,5.95876,-5.21392,8.47978,9.73,1.0,1.29,4.0
1758078224.92231,1758078211.27089,0.0,0.0,0.0,4.92744,-5.90147,8.70896,9.73,1.0,1.29,4.0
1758078224.9243,1758078211.28089,0.0,0.0,0.0,4.29718,-6.24524,8.76626,9.84,1.05,1.13,4.0
1758078224.92684,1758078211.29089,0.0,0.0,0.0,3.60963,-5.78687,8.70896,9.84,1.05,1.13,4.0
1758078224.92853,1758078211.30089,0.0,0.0,0.0,2.7502,-5.61499,8.59437,10.0,1.06,0.99,4.0
1758078224.92917,1758078211.31089,0.0,0.0,0.0,1.20321,-4.46907,8.47978,9.98,1.1,0.93,4.0
1758078224.93195,1758078211.32089,0.0,0.0,0.0,0.0573,-3.72423,8.47978,9.98,1.1,0.93,4.0
1758078224.93289,1758078211.33089,0.0,0.0,0.0,-0.80214,-3.60963,8.59437,9.74,1.13,0.95,4.0
1758078224.93334,1758078211.34089,0.0,0.0,0.0,-1.94806,-3.55234,8.76626,9.74,1.13,0.95,4.0
1758078224.93452,1758078211.35089,0.0,0.0,0.0,-2.57831,-3.20856,9.11003,9.57,1.12,0.75,4.0
1758078224.93784,1758078211.36089,0.0,0.0,0.0,-3.03668,-2.92208,9.33921,9.57,1.12,0.75,4.0
1758078224.93877,1758078211.37089,0.0,0.0,0.0,-3.26586,-2.7502,9.74028,9.52,1.07,0.61,4.0
1758078224.93941,1758078211.38089,0.0,0.0,0.0,-3.26586,-2.92208,10.08406,9.52,1.07,0.59,4.0
1758078224.94145,1758078211.39089,0.0,0.0,0.0,-3.32316,-3.38045,10.19865,9.45,0.98,0.59,4.0
1758078224.9445,1758078211.40089,0.0,0.0,0.0,-3.26586,-3.66693,10.08406,9.46,0.85,0.64,4.0
1758078224.94892,1758078211.41089,0.0,0.0,0.0,-3.03668,-4.29718,10.31324,9.46,0.85,0.64,4.0
1758078224.95283,1758078211.42089,0.0,0.0,0.0,-3.38045,-5.50039,10.48513,9.35,0.76,0.63,4.0
1758078224.95826,1758078211.43089,0.0,0.0,0.0,-3.66693,-6.13065,10.65701,9.35,0.76,0.63,4.0
1758078224.95872,1758078211.44089,0.0,0.0,0.0,-4.18259,-6.8182,10.94349,9.06,0.75,0.53,4.0
1758078224.95931,1758078211.45089,0.0,0.0,0.0,-4.87014,-7.50575,11.17268,9.06,0.75,0.53,4.0
1758078224.966,1758078211.46089,0.0,0.0,0.0,-5.95876,-8.70896,11.63104,8.82,0.78,0.39,4.0
1758078224.96679,1758078211.47089,0.0,0.0,0.0,-6.70361,-9.5684,11.91752,8.81,0.84,0.28,4.0
1758078224.96874,1758078211.48089,0.0,0.0,0.0,-7.50575,-10.48513,12.37589,8.81,0.84,0.28,4.0
1758078224.96939,1758078211.49089,0.0,0.0,0.0,-8.30789,-11.28727,12.77696,8.85,0.87,0.23,4.0
1758078224.97132,1758078211.50089,0.0,0.0,0.0,-8.99544,-12.43318,13.06344,8.85,0.87,0.23,4.0
1758078224.97327,1758078211.51089,0.0,0.0,0.0,-9.28192,-13.23533,13.23533,8.67,0.79,0.19,4.0
1758078224.9764,1758078211.52089,0.0,0.0,0.0,-9.28192,-13.98017,13.40721,8.67,0.79,0.19,4.0
1758078224.9778,1758078211.53089,0.0,0.0,0.0,-8.93814,-14.66772,13.46451,8.45,0.62,0.18,4.0
1758078224.98304,1758078211.54089,0.0,0.0,0.0,-8.59437,-15.24068,13.12073,8.31,0.46,0.15,4.0
1758078224.98366,1758078211.55089,0.0,0.0,0.0,-7.84952,-15.98552,12.71966,8.31,0.46,0.15,4.0
1758078224.9873,1758078211.56089,0.0,0.0,0.0,-7.21927,-17.47521,12.204,8.16,0.36,0.33,4.0
1758078224.98871,1758078211.57089,0.0,0.0,0.0,-6.18794,-19.70975,10.19865,8.16,0.36,0.33,4.0
1758078224.98996,1758078211.58089,0.0,0.0,0.0,-4.98473,-21.7724,7.96411,8.66,0.05,0.81,4.0
1758078224.99409,1758078211.59089,0.0,0.0,0.0,-3.49504,-23.66316,5.50039,8.66,0.05,0.81,4.0
1758078224.99721,1758078211.60089,0.0,0.0,0.0,-1.60428,-24.86637,3.32316,9.97,-0.39,1.82,4.0
1758078224.99954,1758078211.61089,0.0,0.0,0.0,2.34913,-24.5226,0.68755,11.35,-0.47,2.71,4.0
1758078225.00293,1758078211.62089,0.0,0.0,0.0,5.15662,-22.34536,0.11459,11.35,-0.47,2.71,4.0
1758078225.00386,1758078211.63089,0.0,0.0,0.0,7.67763,-21.31403,0.0,11.89,-0.28,3.06,4.0
1758078225.00459,1758078211.64089,0.0,0.0,0.0,10.19865,-21.31403,0.17189,11.89,-0.28,3.06,4.0
1758078225.0057,1758078211.65089,0.0,0.0,0.0,13.06344,-20.3973,0.11459,11.84,-0.39,3.1,4.0
1758078225.0081,1758078211.66089,0.0,0.0,0.0,15.0115,-19.53786,-0.22918,11.84,-0.39,3.1,4.0
1758078225.00916,1758078211.67089,0.0,0.0,0.0,16.67307,-20.11082,-1.48969,13.48,-1.09,3.23,4.0
1758078225.01379,1758078211.68089,0.0,0.0,0.0,17.93358,-23.49127,-2.86479,13.48,-1.09,3.23,4.0
1758078225.01899,1758078211.69089,0.0,0.0,0.0,18.9649,-25.38203,-4.1253,14.94,-1.65,3.41,4.0
1758078225.03643,1758078211.70089,0.0,0.0,0.0,19.82434,-21.08485,-2.6929,14.86,-1.01,2.27,4.0
1758078225.03817,1758078211.71089,0.0,0.0,0.0,19.88164,-15.0115,-0.22918,14.86,-1.01,2.27,4.0
1758078225.05402,1758078211.72089,0.0,0.0,0.0,19.88164,-13.12073,4.52637,12.1,0.19,1.06,4.0
1758078225.05712,1758078211.73089,0.0,0.0,0.0,19.48057,-12.2613,7.21927,12.1,0.19,1.06,4.0
1758078225.07314,1758078211.74089,0.0,0.0,0.0,18.27736,-4.18259,7.79223,11.19,0.43,-0.21,4.0
1758078225.07433,1758078211.75089,0.0,0.0,0.0,17.76169,8.47978,8.0787,11.19,0.43,-0.21,4.0
1758078225.08937,1758078211.76089,0.0,0.0,0.0,15.87093,18.85031,6.70361,12.57,-0.21,-0.14,4.0
1758078225.10594,1758078211.77089,0.0,0.0,0.0,13.75099,19.13679,5.15662,11.6,-0.59,1.43,4.0
1758078225.108,1758078211.78089,0.0,0.0,0.0,10.65701,19.13679,3.49504,11.6,-0.59,1.43,4.0
1758078225.1242,1758078211.79089,0.0,0.0,0.0,7.79223,19.76705,2.97938,11.56,-0.49,1.47,4.0
1758078225.12455,1758078211.80089,0.0,0.0,0.0,3.60963,20.22541,2.7502,11.56,-0.49,1.47,4.0
1758078225.14275,1758078211.81089,0.0,0.0,0.0,1.03132,19.82434,3.26586,11.47,-0.17,1.73,4.0
1758078225.14388,1758078211.82089,0.0,0.0,0.0,-0.80214,19.07949,3.89611,11.47,-0.17,1.73,4.0
1758078225.15971,1758078211.83089,0.0,0.0,0.0,-2.57831,17.36062,5.09932,10.76,0.02,2.04,4.0
1758078225.16355,1758078211.84089,0.0,0.0,0.0,-4.18259,14.09476,6.35983,9.8,-0.01,1.88,4.0
1758078225.26964,1758078211.85089,0.0,0.0,0.0,-4.69825,11.74564,6.87549,9.8,-0.01,1.88,4.0
1758078225.32369,1758078211.86089,0.0,0.0,0.0,-4.98473,9.28192,7.39116,9.11,-0.29,1.55,4.0
1758078225.35331,1758078211.87089,0.0,0.0,0.0,-4.92744,6.35983,7.33386,9.11,-0.29,1.55,4.0
1758078225.36496,1758078211.88089,0.0,0.0,0.0,-4.81285,2.57831,6.87549,8.77,-0.67,1.38,4.0
1758078225.49403,1758078211.89089,0.0,0.0,0.0,-4.81285,0.51566,6.41713,8.77,-0.67,1.38,4.0
1758078225.49694,1758078211.90089,0.0,0.0,0.0,-4.69825,-0.74485,5.95876,8.78,-0.98,1.41,4.0
1758078225.49828,1758078211.91089,0.0,0.0,0.0,-4.69825,-1.83346,5.72958,8.78,-0.98,1.41,4.0
1758078225.49872,1758078211.92089,0.0,0.0,0.0,-4.98473,-3.49504,5.32851,8.82,-1.06,1.57,4.0
1758078225.50096,1758078211.93089,0.0,0.0,0.0,-5.09932,-4.23989,5.21392,8.87,-0.91,1.71,4.0
1758078225.5038,1758078211.94089,0.0,0.0,0.0,-5.09932,-4.64096,5.15662,8.87,-0.91,1.71,4.0
1758078225.50573,1758078211.95089,0.0,0.0,0.0,-5.15662,-3.83882,4.98473,9.04,-0.71,1.54,4.0
1758078225.50648,1758078211.96089,0.0,0.0,0.0,-5.15662,-2.29183,4.69825,9.04,-0.71,1.54,4.0
1758078225.5084,1758078211.97089,0.0,0.0,0.0,-4.69825,-0.34377,4.35448,9.18,-0.57,1.27,4.0
1758078225.50917,1758078211.98089,0.0,0.0,0.0,-4.35448,1.94806,3.83882,9.18,-0.57,1.27,4.0
1758078225.51426,1758078211.99089,0.0,0.0,0.0,-3.03668,5.4431,2.97938,9.15,-0.54,1.04,4.0
1758078225.5175,1758078212.00089,0.0,0.0,0.0,-2.46372,7.10468,2.29183,8.99,-0.56,0.95,4.0
1758078225.51854,1758078212.01089,0.0,0.0,0.0,-2.00535,8.99544,1.66158,8.99,-0.56,0.95,4.0
1758078225.51913,1758078212.02089,0.0,0.0,0.0,-1.83346,10.25595,0.80214,8.96,-0.58,0.83,4.0
1758078225.52201,1758078212.03089,0.0,0.0,0.0,-1.71887,10.19865,-0.0573,8.96,-0.58,0.83,4.0
1758078225.5234,1758078212.04089,0.0,0.0,0.0,-2.06265,7.62034,-0.57296,8.96,-0.64,0.73,4.0
1758078225.52464,1758078212.05089,0.0,0.0,0.0,-2.6929,3.89611,-1.3751,8.96,-0.64,0.73,4.0
1758078225.52688,1758078212.06089,0.0,0.0,0.0,-3.49504,0.68755,-1.77617,8.96,-0.66,0.52,4.0
1758078225.52841,1758078212.07089,0.0,0.0,0.0,-4.18259,-0.0573,-2.46372,9.5,-0.68,0.22,4.0
1758078225.5295,1758078212.08089,0.0,0.0,0.0,-4.64096,0.97403,-2.92208,9.5,-0.68,0.22,4.0
1758078225.53029,1758078212.09089,0.0,0.0,0.0,-4.87014,2.6929,-3.20856,9.79,-0.73,0.49,4.0
1758078225.53216,1758078212.10089,0.0,0.0,0.0,-4.98473,5.09932,-3.83882,9.79,-0.73,0.49,4.0
1758078225.53294,1758078212.11089,0.0,0.0,0.0,-4.69825,8.25059,-4.98473,9.87,-0.78,0.69,4.0
1758078225.53403,1758078212.12089,0.0,0.0,0.0,-4.35448,9.28192,-5.72958,9.87,-0.78,0.69,4.0
1758078225.53487,1758078212.13089,0.0,0.0,0.0,-4.0107,9.85487,-6.7609,9.64,-0.77,0.72,4.0
1758078225.53671,1758078212.14089,0.0,0.0,0.0,-3.32316,11.00079,-8.25059,9.64,-0.77,0.72,4.0
1758078225.53732,1758078212.15089,0.0,0.0,0.0,-2.86479,15.58445,-8.65166,9.58,-0.77,0.58,4.0
1758078225.53863,1758078212.16089,0.0,0.0,0.0,-2.34913,18.90761,-9.85487,9.75,-0.56,0.58,4.0
1758078225.53923,1758078212.17089,0.0,0.0,0.0,-2.23454,19.48057,-11.00079,9.75,-0.56,0.58,4.0
1758078225.54127,1758078212.18089,0.0,0.0,0.0,-1.60428,18.27736,-11.86023,9.16,-0.54,0.83,4.0
1758078225.54261,1758078212.19089,0.0,0.0,0.0,-1.03132,17.01685,-12.2613,9.16,-0.54,0.83,4.0
1758078225.54667,1758078212.20089,0.0,0.0,0.0,-0.11459,14.66772,-12.204,9.03,-0.52,0.65,4.0
1758078225.54805,1758078212.21089,0.0,0.0,0.0,0.68755,11.80293,-11.86023,9.03,-0.52,0.65,4.0
1758078225.54846,1758078212.22089,0.0,0.0,0.0,1.83346,6.8182,-11.45916,8.76,-0.6,0.45,4.0
1758078225.5496,1758078212.23089,0.0,0.0,0.0,2.46372,2.6929,-11.17268,8.56,-0.68,0.5,4.0
1758078225.56808,1758078212.24089,0.0,0.0,0.0,2.97938,-1.03132,-11.17268,8.56,-0.68,0.5,4.0
1758078225.58416,1758078212.25089,0.0,0.0,0.0,3.09397,-2.7502,-11.28727,8.72,-0.7,0.56,4.0
1758078225.58677,1758078212.26089,0.0,0.0,0.0,3.89611,-4.1253,-11.45916,8.72,-0.7,0.56,4.0
1758078225.60312,1758078212.27089,0.0,0.0,0.0,4.0107,-5.15662,-11.74564,9.13,-0.67,0.73,4.0
1758078225.60532,1758078212.28089,0.0,0.0,0.0,3.83882,-5.84417,-12.204,9.13,-0.67,0.73,4.0
1758078225.64657,1758078212.29089,0.0,0.0,0.0,3.60963,-5.90147,-12.54778,9.4,-0.56,0.87,4.0
1758078225.65101,1758078212.30089,0.0,0.0,0.0,3.20856,-5.84417,-13.17803,9.48,-0.42,0.78,4.0
1758078225.65142,1758078212.31089,0.0,0.0,0.0,2.7502,-5.95876,-13.40721,9.48,-0.42,0.78,4.0
1758078225.65248,1758078212.32089,0.0,0.0,0.0,2.29183,-6.13065,-13.5791,9.38,-0.33,0.73,4.0
1758078225.65368,1758078212.33089,0.0,0.0,0.0,1.94806,-6.13065,-13.69369,9.38,-0.33,0.73,4.0
1758078225.66917,1758078212.34089,0.0,0.0,0.0,1.60428,-6.18794,-13.98017,9.27,-0.31,0.55,4.0
1758078225.6743,1758078212.35089,0.0,0.0,0.0,1.3751,-6.41713,-14.20935,9.27,-0.31,0.55,4.0
1758078225.68918,1758078212.36089,0.0,0.0,0.0,1.14592,-6.70361,-14.43854,9.13,-0.36,0.54,4.0
1758078225.69442,1758078212.37089,0.0,0.0,0.0,1.08862,-6.13065,-14.78231,9.13,-0.36,0.54,4.0
1758078225.70924,1758078212.38089,0.0,0.0,0.0,1.08862,-5.55769,-14.9542,9.14,-0.43,0.57,4.0
1758078225.71436,1758078212.39089,0.0,0.0,0.0,1.03132,-4.81285,-15.12609,9.13,-0.52,0.52,4.0
1758078225.72953,1758078212.40089,0.0,0.0,0.0,1.08862,-4.18259,-15.24068,9.13,-0.52,0.52,4.0
1758078225.73118,1758078212.41089,0.0,0.0,0.0,1.03132,-3.55234,-15.24068,9.01,-0.57,0.45,4.0
1758078225.74805,1758078212.42089,0.0,0.0,0.0,0.85944,-3.32316,-14.83961,9.01,-0.57,0.45,4.0
1758078225.75892,1758078212.43089,0.0,0.0,0.0,0.80214,-3.26586,-14.49583,8.84,-0.59,0.41,4.0
1758078225.76073,1758078212.44089,0.0,0.0,0.0,0.74485,-3.38045,-14.09476,8.84,-0.59,0.41,4.0
1758078225.77731,1758078212.45089,0.0,0.0,0.0,0.45837,-3.95341,-13.17803,8.56,-0.6,0.4,4.0
1758078225.79327,1758078212.46089,0.0,0.0,0.0,0.34377,-4.18259,-12.71966,8.24,-0.6,0.41,4.0
1758078225.79716,1758078212.47089,0.0,0.0,0.0,0.17189,-5.09932,-12.14671,8.24,-0.6,0.41,4.0
1758078225.83922,1758078212.48089,0.0,0.0,0.0,-0.11459,-5.78687,-11.57375,8.01,-0.61,0.28,4.0
1758078225.84115,1758078212.49089,0.0,0.0,0.0,-0.68755,-6.53172,-10.31324,8.01,-0.61,0.28,4.0
1758078225.8434,1758078212.50089,0.0,0.0,0.0,-1.20321,-7.21927,-8.65166,8.36,-0.55,0.26,4.0
1758078225.84464,1758078212.51089,0.0,0.0,0.0,-2.06265,-8.136,-6.53172,8.36,-0.55,0.26,4.0
1758078225.84527,1758078212.52089,0.0,0.0,0.0,-3.09397,-9.4538,-4.0107,9.47,-0.32,0.77,4.0
1758078225.86128,1758078212.53089,0.0,0.0,0.0,-5.15662,-11.74564,-0.34377,10.55,0.07,1.54,4.0
1758078225.86329,1758078212.54089,0.0,0.0,0.0,-7.04738,-12.71966,1.83346,10.55,0.07,1.54,4.0
1758078225.87829,1758078212.55089,0.0,0.0,0.0,-9.28192,-12.43318,3.66693,11.58,0.57,2.54,4.0
1758078225.87948,1758078212.56089,0.0,0.0,0.0,-12.83425,-11.91752,5.90147,11.58,0.57,2.54,4.0
1758078225.89743,1758078212.57089,0.0,0.0,0.0,-15.35527,-10.31324,6.70361,12.21,1.16,3.19,4.0
1758078225.91339,1758078212.58089,0.0,0.0,0.0,-17.36062,-9.68299,7.50575,12.21,1.16,3.19,4.0
1758078225.9212,1758078212.59089,0.0,0.0,0.0,-19.19409,-6.13065,7.33386,12.65,1.61,3.51,4.0
1758078225.96646,1758078212.60089,0.0,0.0,0.0,-20.16812,-4.35448,6.58902,12.65,1.61,3.51,4.0
1758078225.96827,1758078212.61089,0.0,0.0,0.0,-20.74107,-4.35448,6.53172,13.85,1.99,3.2,4.0
1758078225.96918,1758078212.62089,0.0,0.0,0.0,-19.82434,-11.91752,6.99009,14.44,2.22,2.37,4.0
1758078225.9701,1758078212.63089,0.0,0.0,0.0,-20.22541,-22.28806,5.61499,14.44,2.22,2.37,4.0
1758078225.97071,1758078212.64089,0.0,0.0,0.0,-17.81899,-25.89769,3.49504,13.72,1.59,0.87,4.0
1758078225.97354,1758078212.65089,0.0,0.0,0.0,-15.75634,-20.74107,1.77617,13.72,1.59,0.87,4.0
1758078225.98914,1758078212.66089,0.0,0.0,0.0,-13.5791,-15.87093,0.11459,13.11,0.32,-0.13,4.0
1758078225.99043,1758078212.67089,0.0,0.0,0.0,-11.11538,-10.19865,-1.60428,13.11,0.32,-0.13,4.0
1758078226.00535,1758078212.68089,0.0,0.0,0.0,-7.79223,-2.29183,-3.03668,11.81,-0.36,0.63,4.0
1758078226.02362,1758078212.69089,0.0,0.0,0.0,-5.21392,1.83346,-2.92208,11.7,-0.3,1.25,4.0
1758078226.02461,1758078212.70089,0.0,0.0,0.0,-2.23454,5.21392,-1.66158,11.7,-0.3,1.25,4.0
1758078226.04162,1758078212.71089,0.0,0.0,0.0,0.80214,8.59437,-0.22918,11.55,0.1,1.05,4.0
1758078226.04259,1758078212.72089,0.0,0.0,0.0,4.46907,12.89155,1.43239,11.55,0.1,1.05,4.0
1758078226.05845,1758078212.73089,0.0,0.0,0.0,6.53172,14.15206,2.11994,11.04,0.29,1.2,4.0
1758078226.0596,1758078212.74089,0.0,0.0,0.0,8.02141,14.83961,2.11994,11.04,0.29,1.2,4.0
1758078226.07637,1758078212.75089,0.0,0.0,0.0,9.22462,14.83961,1.14592,10.57,0.23,1.68,4.0
1758078226.09346,1758078212.76089,0.0,0.0,0.0,10.19865,13.98017,0.34377,10.11,0.29,1.85,4.0
1758078226.09438,1758078212.77089,0.0,0.0,0.0,10.8289,13.06344,-0.51566,10.11,0.29,1.85,4.0
1758078226.11019,1758078212.78089,0.0,0.0,0.0,11.00079,11.57375,-1.14592,9.64,0.66,1.84,4.0
1758078226.11459,1758078212.79089,0.0,0.0,0.0,11.80293,10.54242,-1.77617,9.64,0.66,1.84,4.0
1758078226.13166,1758078212.80089,0.0,0.0,0.0,12.54778,10.25595,-1.94806,9.23,1.1,1.63,4.0
1758078226.13261,1758078212.81089,0.0,0.0,0.0,13.17803,10.48513,-2.11994,9.23,1.1,1.63,4.0
1758078226.1484,1758078212.82089,0.0,0.0,0.0,14.15206,10.8862,-2.40642,8.94,1.31,1.55,4.0
1758078226.14986,1758078212.83089,0.0,0.0,0.0,15.64175,11.74564,-2.86479,8.94,1.31,1.34,4.0
1758078226.16784,1758078212.84089,0.0,0.0,0.0,16.61578,12.77696,-3.03668,8.86,1.24,1.34,4.0
1758078226.18343,1758078212.85089,0.0,0.0,0.0,17.53251,13.75099,-3.49504,8.95,1.07,1.21,4.0
1758078226.18459,1758078212.86089,0.0,0.0,0.0,18.33465,13.98017,-3.49504,8.95,1.07,1.21,4.0
1758078226.20167,1758078212.87089,0.0,0.0,0.0,19.25138,14.09476,-3.55234,8.81,0.93,1.07,4.0
1758078226.20343,1758078212.88089,0.0,0.0,0.0,19.53786,13.80828,-3.20856,8.81,0.93,1.07,4.0
1758078226.21873,1758078212.89089,0.0,0.0,0.0,19.59516,13.34992,-3.03668,8.68,0.92,1.11,4.0
1758078226.21965,1758078212.90089,0.0,0.0,0.0,19.76705,11.91752,-2.46372,8.68,0.92,1.11,4.0
1758078226.23624,1758078212.91089,0.0,0.0,0.0,20.51189,8.99544,-2.23454,8.45,0.99,0.82,4.0
1758078226.25331,1758078212.92089,0.0,0.0,0.0,20.62648,9.11003,-2.00535,8.45,1.01,0.62,4.0
1758078226.25445,1758078212.93089,0.0,0.0,0.0,20.34,14.09476,-0.68755,8.45,1.01,0.62,4.0
1758078226.27234,1758078212.94089,0.0,0.0,0.0,20.16812,17.81899,0.17189,8.77,0.87,0.47,4.0
1758078226.27767,1758078212.95089,0.0,0.0,0.0,18.9649,16.90226,2.11994,8.77,0.87,0.47,4.0
1758078226.29342,1758078212.96089,0.0,0.0,0.0,17.87628,13.12073,3.38045,8.04,0.76,0.73,4.0
1758078226.29448,1758078212.97089,0.0,0.0,0.0,16.55848,9.96947,4.69825,8.04,0.76,0.73,4.0
1758078226.31418,1758078212.98089,0.0,0.0,0.0,14.49583,8.93814,6.8182,8.09,0.74,0.3,4.0
1758078226.3186,1758078212.99089,0.0,0.0,0.0,13.00614,9.28192,8.36518,8.55,0.86,0.0,4.0
1758078226.33378,1758078213.00089,0.0,0.0,0.0,11.22997,8.70896,9.68299,8.55,0.86,0.0,4.0
1758078226.33812,1758078213.01089,0.0,0.0,0.0,9.28192,7.16197,10.8289,8.36,0.96,0.26,4.0
1758078226.35365,1758078213.02089,0.0,0.0,0.0,6.35983,4.87014,11.91752,8.36,0.96,0.26,4.0
1758078226.3582,1758078213.03089,0.0,0.0,0.0,4.1253,2.63561,11.80293,8.53,1.19,0.53,4.0
1758078226.3738,1758078213.04089,0.0,0.0,0.0,1.66158,0.0,11.51645,8.53,1.19,0.53,4.0
1758078226.37725,1758078213.05089,0.0,0.0,0.0,-0.45837,-2.34913,10.48513,8.73,1.41,0.41,4.0
1758078226.39359,1758078213.06089,0.0,0.0,0.0,-3.72423,-5.78687,8.76626,9.01,1.41,0.36,4.0
1758078226.3958,1758078213.07089,0.0,0.0,0.0,-5.50039,-7.73493,7.44845,9.01,1.59,0.36,4.0
1758078226.4124,1758078213.08089,0.0,0.0,0.0,-6.8182,-9.68299,6.41713,9.06,1.59,0.24,4.0
1758078226.41838,1758078213.09089,0.0,0.0,0.0,-8.02141,-11.17268,5.21392,9.06,1.59,0.24,4.0
1758078226.4583,1758078213.10089,0.0,0.0,0.0,-8.70896,-13.69369,4.0107,9.05,1.37,0.23,4.0
1758078226.46,1758078213.11089,0.0,0.0,0.0,-8.59437,-14.9542,3.55234,9.05,1.37,0.23,4.0
1758078226.46104,1758078213.12089,0.0,0.0,0.0,-8.30789,-15.35527,3.26586,9.08,1.02,0.1,4.0
1758078226.46855,1758078213.13089,0.0,0.0,0.0,-7.73493,-14.20935,3.26586,9.08,1.02,0.1,4.0
1758078226.46893,1758078213.14089,0.0,0.0,0.0,-6.47442,-11.86023,3.66693,9.39,0.62,-0.08,4.0
1758078226.47293,1758078213.15089,0.0,0.0,0.0,-5.55769,-10.54242,4.23989,9.4,0.29,-0.24,4.0
1758078226.48868,1758078213.16089,0.0,0.0,0.0,-4.29718,-9.85487,4.98473,9.4,0.29,-0.24,4.0
1758078226.48986,1758078213.17089,0.0,0.0,0.0,-3.09397,-10.19865,6.35983,9.11,0.19,-0.25,4.0
1758078226.51393,1758078213.18089,0.0,0.0,0.0,-1.48969,-12.49048,7.04738,9.11,0.19,-0.25,4.0
1758078226.54402,1758078213.19089,0.0,0.0,0.0,-0.97403,-14.72501,7.50575,8.58,0.33,-0.23,4.0
1758078226.54878,1758078213.20089,0.0,0.0,0.0,-0.74485,-17.36062,7.67763,8.58,0.33,-0.23,4.0
1758078226.55277,1758078213.21089,0.0,0.0,0.0,-0.57296,-21.42862,6.41713,8.27,0.52,-0.08,4.0
1758078226.55333,1758078213.22089,0.0,0.0,0.0,-0.34377,-23.72045,4.52637,8.67,0.45,0.28,4.0
1758078226.55459,1758078213.23089,0.0,0.0,0.0,0.51566,-24.86637,1.83346,8.67,0.45,0.28,4.0
1758078226.57163,1758078213.24089,0.0,0.0,0.0,1.71887,-25.89769,-1.03132,9.96,0.1,1.35,4.0
1758078226.57454,1758078213.25089,0.0,0.0,0.0,4.64096,-27.10091,-6.07335,9.96,0.1,1.35,4.0
1758078226.59193,1758078213.26089,0.0,0.0,0.0,7.44845,-28.476,-8.76626,11.17,-0.11,2.89,4.0
1758078226.59287,1758078213.27089,0.0,0.0,0.0,10.59972,-30.76784,-10.08406,11.17,-0.11,2.89,4.0
1758078226.60868,1758078213.28089,0.0,0.0,0.0,13.17803,-30.48136,-9.91217,11.67,-0.1,4.09,4.0
1758078226.61372,1758078213.29089,0.0,0.0,0.0,14.66772,-34.0337,-5.95876,11.64,0.18,3.97,4.0
1758078226.63332,1758078213.30089,0.0,0.0,0.0,14.72501,-41.88322,-1.60428,11.64,0.18,3.97,4.0
1758078226.63426,1758078213.31089,0.0,0.0,0.0,13.5791,-47.38361,3.26586,11.84,0.35,3.01,4.0
1758078226.66031,1758078213.32089,0.0,0.0,0.0,11.57375,-44.40423,7.10468,11.84,0.35,3.01,4.0
1758078226.6615,1758078213.33089,0.0,0.0,0.0,8.42248,-29.10626,9.05273,14.71,-0.06,1.75,4.0
1758078226.66287,1758078213.34089,0.0,0.0,0.0,6.41713,-19.99623,8.59437,14.71,-0.06,1.75,4.0
1758078226.68178,1758078213.35089,0.0,0.0,0.0,4.18259,-12.14671,6.18794,15.48,-0.77,1.86,4.0
1758078226.68455,1758078213.36089,0.0,0.0,0.0,1.77617,-4.87014,3.66693,15.48,-0.77,1.86,4.0
1758078226.69974,1758078213.37089,0.0,0.0,0.0,-1.83346,2.00535,1.48969,14.33,-0.7,1.64,4.0
1758078226.70089,1758078213.38089,0.0,0.0,0.0,-4.23989,6.70361,1.43239,12.85,0.33,0.75,4.0
1758078226.71678,1758078213.39089,0.0,0.0,0.0,-6.7609,13.06344,1.48969,12.85,0.33,0.75,4.0
1758078226.73305,1758078213.40089,0.0,0.0,0.0,-10.02676,18.27736,2.40642,12.89,0.88,0.57,4.0
1758078226.73638,1758078213.41089,0.0,0.0,0.0,-11.80293,23.0329,3.26586,12.89,0.88,0.57,4.0
1758078226.75201,1758078213.42089,0.0,0.0,0.0,-13.06344,25.38203,3.95341,12.09,0.82,0.93,4.0
1758078226.75295,1758078213.43089,0.0,0.0,0.0,-14.38124,25.89769,4.64096,12.09,0.82,0.93,4.0
1758078226.76884,1758078213.44089,0.0,0.0,0.0,-16.55848,25.43933,4.29718,10.97,0.47,0.91,4.0
1758078226.77061,1758078213.45089,0.0,0.0,0.0,-17.6471,26.47065,4.0107,10.5,0.0,0.6,4.0
1758078226.78843,1758078213.46089,0.0,0.0,0.0,-18.73572,25.7831,3.26586,10.5,0.0,0.6,4.0
1758078226.80378,1758078213.47089,0.0,0.0,0.0,-19.48057,24.00693,2.23454,9.98,-0.39,0.49,4.0
1758078226.8069,1758078213.48089,0.0,0.0,0.0,-19.76705,20.51189,0.97403,9.98,-0.39,0.49,4.0
1758078226.82296,1758078213.49089,0.0,0.0,0.0,-19.99623,18.90761,0.0573,9.55,-0.64,0.72,4.0
1758078226.8238,1758078213.50089,0.0,0.0,0.0,-19.13679,16.3293,-0.40107,9.55,-0.64,0.72,4.0
1758078226.83891,1758078213.51089,0.0,0.0,0.0,-18.16276,13.12073,-0.68755,9.05,-0.69,0.73,4.0
1758078226.84078,1758078213.52089,0.0,0.0,0.0,-16.61578,9.62569,-0.85944,8.64,-0.73,0.78,4.0
1758078226.8571,1758078213.53089,0.0,0.0,0.0,-15.58445,7.96411,-1.03132,8.64,-0.73,0.78,4.0
1758078226.87393,1758078213.54089,0.0,0.0,0.0,-14.43854,7.33386,-0.80214,8.45,-0.75,0.8,4.0
1758078226.8775,1758078213.55089,0.0,0.0,0.0,-13.00614,6.13065,-0.97403,8.45,-0.75,0.8,4.0
1758078226.89389,1758078213.56089,0.0,0.0,0.0,-10.8289,8.59437,-0.97403,8.12,-0.84,0.8,4.0
1758078226.89831,1758078213.57089,0.0,0.0,0.0,-9.91217,15.0115,-1.48969,8.12,-0.84,0.8,4.0
1758078226.91387,1758078213.58089,0.0,0.0,0.0,-9.11003,23.31938,-3.55234,8.5,-0.86,0.81,4.0
1758078226.9175,1758078213.59089,0.0,0.0,0.0,-8.02141,27.67386,-5.61499,8.5,-0.86,0.81,4.0
1758078226.93363,1758078213.60089,0.0,0.0,0.0,-5.78687,23.0329,-5.27121,7.66,-0.75,1.18,4.0
1758078226.93724,1758078213.61089,0.0,0.0,0.0,-5.09932,17.53251,-6.07335,6.47,-0.57,1.07,4.0
1758078226.95277,1758078213.62089,0.0,0.0,0.0,-3.72423,9.05273,-7.50575,6.47,-0.57,1.07,4.0
1758078226.95401,1758078213.63089,0.0,0.0,0.0,-2.23454,3.95341,-8.76626,6.46,-0.41,-0.03,4.0
1758078226.96906,1758078213.64089,0.0,0.0,0.0,-0.45837,3.60963,-9.4538,6.46,-0.41,-0.03,4.0
1758078226.97407,1758078213.65089,0.0,0.0,0.0,1.71887,3.03668,-9.5684,6.84,-0.47,-0.42,4.0
1758078226.99098,1758078213.66089,0.0,0.0,0.0,4.52637,0.0573,-9.5684,6.84,-0.47,-0.42,4.0
1758078226.99777,1758078213.67089,0.0,0.0,0.0,8.88085,-6.58902,-9.22462,6.46,-0.84,-0.33,4.0
1758078227.01313,1758078213.68089,0.0,0.0,0.0,11.57375,-12.71966,-9.33921,6.66,-1.32,-0.66,4.0
1758078227.01411,1758078213.69089,0.0,0.0,0.0,13.40721,-15.87093,-9.5684,6.66,-1.32,-0.66,4.0
1758078227.02913,1758078213.70089,0.0,0.0,0.0,15.69904,-18.62113,-9.22462,7.57,-1.62,-0.97,4.0
1758078227.03009,1758078213.71089,0.0,0.0,0.0,18.73572,-22.63183,-8.88085,7.57,-1.62,-0.97,4.0
1758078227.06785,1758078213.72089,0.0,0.0,0.0,20.68378,-22.91831,-8.25059,8.14,-1.62,-0.89,4.0
1758078227.07389,1758078213.73089,0.0,0.0,0.0,22.05888,-21.6578,-7.44845,8.14,-1.62,-0.89,4.0
1758078227.07445,1758078213.74089,0.0,0.0,0.0,23.26209,-20.97026,-6.53172,8.82,-1.28,-0.21,4.0
1758078227.07804,1758078213.75089,0.0,0.0,0.0,23.49127,-21.6578,-5.27121,8.73,-0.62,0.09,4.0
1758078227.09369,1758078213.76089,0.0,0.0,0.0,22.51724,-21.6578,-4.58366,8.73,-0.62,0.09,4.0
1758078227.09766,1758078213.77089,0.0,0.0,0.0,20.62648,-21.08485,-3.95341,8.67,0.06,0.2,4.0
1758078227.114,1758078213.78089,0.0,0.0,0.0,18.22006,-20.62648,-3.60963,8.67,0.06,0.2,4.0
1758078227.11763,1758078213.79089,0.0,0.0,0.0,13.75099,-19.07949,-4.0107,8.5,0.53,-0.1,4.0
1758078227.13395,1758078213.80089,0.0,0.0,0.0,10.8289,-18.79302,-4.35448,8.5,0.53,-0.1,4.0
1758078227.13667,1758078213.81089,0.0,0.0,0.0,7.44845,-18.27736,-5.09932,8.45,0.72,-0.27,4.0
1758078227.15284,1758078213.82089,0.0,0.0,0.0,2.86479,-19.76705,-5.84417,8.45,0.72,-0.27,4.0
1758078227.16829,1758078213.83089,0.0,0.0,0.0,0.11459,-21.02755,-5.78687,8.78,0.6,-0.07,4.0
1758078227.17375,1758078213.84089,0.0,0.0,0.0,-1.77617,-21.42862,-5.09932,9.66,0.38,1.01,4.0
1758078227.17646,1758078213.85089,0.0,0.0,0.0,-3.20856,-20.34,-3.55234,9.66,0.38,1.01,4.0
1758078227.19302,1758078213.86089,0.0,0.0,0.0,-4.98473,-16.55848,0.0573,11.5,0.37,2.89,4.0
1758078227.24418,1758078213.87089,0.0,0.0,0.0,-5.90147,-13.69369,3.26586,11.5,0.37,2.89,4.0
1758078227.24529,1758078213.88089,0.0,0.0,0.0,-7.44845,-14.20935,5.32851,12.89,0.89,4.4,4.0
1758078227.24899,1758078213.89089,0.0,0.0,0.0,-8.76626,-19.07949,6.53172,12.89,0.89,4.4,4.0
1758078227.24959,1758078213.90089,0.0,0.0,0.0,-9.5684,-35.2369,5.27121,12.3,1.22,4.67,4.0
1758078227.25316,1758078213.91089,0.0,0.0,0.0,-9.85487,-38.61736,4.81285,14.37,1.44,3.81,4.0
1758078227.2538,1758078213.92089,0.0,0.0,0.0,-8.76626,-33.86181,5.09932,14.37,1.44,3.81,4.0
1758078227.25831,1758078213.93089,0.0,0.0,0.0,-7.44845,-28.64789,6.8182,19.1,2.51,1.79,4.0
1758078227.27406,1758078213.94089,0.0,0.0,0.0,-3.60963,-22.40265,8.136,19.1,2.51,1.79,4.0
1758078227.27503,1758078213.95089,0.0,0.0,0.0,-0.97403,-12.77696,7.21927,16.96,1.66,0.03,4.0
1758078227.29237,1758078213.96089,0.0,0.0,0.0,0.40107,1.20321,4.81285,16.96,1.66,0.03,4.0
1758078227.29324,1758078213.97089,0.0,0.0,0.0,1.94806,12.83425,2.63561,13.29,0.1,-1.47,4.0
1758078227.30833,1758078213.98089,0.0,0.0,0.0,3.89611,29.9084,-1.20321,12.11,-0.54,-0.62,4.0
1758078227.32436,1758078213.99089,0.0,0.0,0.0,5.4431,36.21093,-2.6929,12.11,-0.54,-0.62,4.0
1758078227.32701,1758078214.00089,0.0,0.0,0.0,7.50575,38.50277,-2.97938,12.46,-0.28,0.4,4.0
1758078227.34292,1758078214.01089,0.0,0.0,0.0,11.28727,37.81522,-2.7502,12.46,-0.28,0.4,4.0
1758078227.34887,1758078214.02089,0.0,0.0,0.0,13.86558,33.23156,-2.11994,12.36,0.09,0.72,4.0
1758078227.36437,1758078214.03089,0.0,0.0,0.0,17.13144,31.39809,-1.71887,12.36,0.09,0.72,4.0
1758078227.36877,1758078214.04089,0.0,0.0,0.0,20.11082,30.53865,-0.74485,11.42,0.09,0.52,4.0
1758078227.38439,1758078214.05089,0.0,0.0,0.0,22.11617,28.87707,1.48969,11.42,0.09,0.52,4.0
1758078227.38695,1758078214.06089,0.0,0.0,0.0,23.0902,25.49662,2.6929,10.76,0.24,0.75,4.0
1758078227.4044,1758078214.07089,0.0,0.0,0.0,23.26209,22.57454,3.72423,10.48,0.61,0.86,4.0
1758078227.40691,1758078214.08089,0.0,0.0,0.0,22.97561,19.88164,4.87014,10.48,0.61,0.86,4.0
1758078227.42436,1758078214.09089,0.0,0.0,0.0,21.88699,15.64175,5.21392,10.1,1.0,0.73,4.0
1758078227.42878,1758078214.10089,0.0,0.0,0.0,21.37133,17.81899,4.81285,10.1,1.0,0.73,4.0
1758078227.44439,1758078214.11089,0.0,0.0,0.0,20.51189,23.26209,4.92744,9.72,1.17,0.91,4.0
1758078227.44879,1758078214.12089,0.0,0.0,0.0,20.16812,26.81443,4.0107,9.72,1.17,0.91,4.0
1758078227.46435,1758078214.13089,0.0,0.0,0.0,19.25138,25.8404,2.86479,8.82,1.17,1.47,4.0
1758078227.46885,1758078214.14089,0.0,0.0,0.0,18.33465,21.94428,2.06265,7.68,1.22,1.71,4.0
1758078227.48414,1758078214.15089,0.0,0.0,0.0,17.47521,17.58981,1.60428,7.68,1.22,1.71,4.0
1758078227.48809,1758078214.16089,0.0,0.0,0.0,16.38659,13.75099,1.3178,7.28,1.25,0.71,4.0
1758078227.50313,1758078214.17089,0.0,0.0,0.0,14.66772,10.37054,1.03132,7.28,1.25,0.71,4.0
1758078227.50432,1758078214.18089,0.0,0.0,0.0,13.23533,10.48513,1.3751,7.17,1.11,0.38,4.0
1758078227.51913,1758078214.19089,0.0,0.0,0.0,11.51645,11.22997,1.94806,7.17,1.11,0.38,4.0
1758078227.52219,1758078214.20089,0.0,0.0,0.0,9.85487,11.57375,2.63561,6.95,0.82,0.44,4.0
1758078227.53715,1758078214.21089,0.0,0.0,0.0,6.7609,10.65701,3.38045,6.63,0.68,0.44,4.0
1758078227.55315,1758078214.22089,0.0,0.0,0.0,4.46907,10.37054,4.29718,6.63,0.68,0.44,4.0
1758078227.55434,1758078214.23089,0.0,0.0,0.0,2.00535,10.31324,5.21392,7.04,0.81,0.2,4.0
1758078227.61903,1758078214.24089,0.0,0.0,0.0,-1.43239,9.4538,7.73493,7.04,0.81,0.2,4.0
1758078227.62135,1758078214.25089,0.0,0.0,0.0,-3.66693,8.36518,9.22462,7.61,1.04,-0.15,4.0
1758078227.63398,1758078214.26089,0.0,0.0,0.0,-5.78687,4.23989,10.59972,7.61,1.04,-0.15,4.0
1758078227.68739,1758078214.27089,0.0,0.0,0.0,-7.73493,-1.3751,11.45916,7.69,1.16,-0.21,4.0
1758078227.68899,1758078214.28089,0.0,0.0,0.0,-10.19865,-9.4538,11.80293,7.69,1.16,-0.52,4.0
1758078227.69872,1758078214.29089,0.0,0.0,0.0,-11.86023,-13.17803,11.34457,7.63,1.04,-0.52,4.0
1758078227.70258,1758078214.30089,0.0,0.0,0.0,-13.34992,-15.92823,10.54242,7.59,0.99,-0.43,4.0
1758078227.7085,1758078214.31089,0.0,0.0,0.0,-14.9542,-17.76169,8.93814,7.59,0.99,-0.43,4.0
1758078227.71792,1758078214.32089,0.0,0.0,0.0,-17.30333,-21.48592,5.72958,7.36,1.0,-0.58,4.0
1758078227.71939,1758078214.33089,0.0,0.0,0.0,-18.44924,-24.63719,3.26586,7.36,1.0,-0.58,4.0
1758078227.72206,1758078214.34089,0.0,0.0,0.0,-18.79302,-27.84575,1.08862,7.52,1.05,-0.77,4.0
1758078227.72291,1758078214.35089,0.0,0.0,0.0,-18.73572,-30.25217,-0.34377,7.52,1.05,-0.77,4.0
1758078227.72399,1758078214.36089,0.0,0.0,0.0,-17.18874,-30.30947,-1.66158,8.44,0.9,-0.89,4.0
1758078227.72491,1758078214.37089,0.0,0.0,0.0,-15.41257,-27.61657,-2.00535,9.51,0.56,-0.9,4.0
1758078227.73066,1758078214.38089,0.0,0.0,0.0,-13.69369,-25.15285,-2.11994,9.51,0.56,-0.9,4.0
1758078227.73129,1758078214.39089,0.0,0.0,0.0,-11.22997,-23.54857,-1.66158,9.58,0.07,-0.58,4.0
1758078227.73336,1758078214.40089,0.0,0.0,0.0,-7.21927,-21.31403,-0.51566,9.58,0.07,-0.58,4.0
1758078227.73399,1758078214.41089,0.0,0.0,0.0,-4.64096,-20.22541,-0.85944,9.54,-0.43,-0.25,4.0
1758078227.75253,1758078214.42089,0.0,0.0,0.0,-1.94806,-20.85567,-1.20321,9.54,-0.43,-0.25,4.0
1758078227.75345,1758078214.43089,0.0,0.0,0.0,2.11994,-24.12152,-3.03668,10.04,-0.95,0.71,4.0
1758078227.76832,1758078214.44089,0.0,0.0,0.0,5.09932,-30.99702,-4.69825,11.14,-1.22,2.34,4.0
1758078227.78441,1758078214.45089,0.0,0.0,0.0,8.0787,-33.80451,-6.53172,11.14,-1.22,2.34,4.0
1758078227.78879,1758078214.46089,0.0,0.0,0.0,11.00079,-34.43476,-7.50575,12.5,-0.81,3.49,4.0
1758078227.80691,1758078214.47089,0.0,0.0,0.0,13.69369,-31.97105,-6.18794,12.5,-0.81,3.49,4.0
1758078227.81024,1758078214.48089,0.0,0.0,0.0,14.43854,-28.64789,-3.66693,12.66,0.3,3.4,4.0
1758078227.81091,1758078214.49089,0.0,0.0,0.0,14.03747,-30.53865,-0.57296,12.66,0.3,3.4,4.0
1758078227.82763,1758078214.50089,0.0,0.0,0.0,13.5218,-33.68992,1.3178,12.59,0.73,2.96,4.0
1758078227.83435,1758078214.51089,0.0,0.0,0.0,13.5218,-34.37747,1.3751,16.05,0.73,2.55,4.0
1758078227.85237,1758078214.52089,0.0,0.0,0.0,13.12073,-31.91375,-0.17189,16.05,-0.02,2.55,4.0
1758078227.8535,1758078214.53089,0.0,0.0,0.0,11.91752,-25.89769,-2.11994,17.78,-0.76,1.6,4.0
1758078227.86862,1758078214.54089,0.0,0.0,0.0,9.5684,-17.99088,-2.7502,17.78,-0.76,1.6,4.0
1758078227.88518,1758078214.55089,0.0,0.0,0.0,3.32316,-5.95876,-0.85944,14.87,0.31,0.0,4.0
1758078227.88633,1758078214.56089,0.0,0.0,0.0,-1.03132,4.0107,1.14592,14.87,0.31,0.0,4.0
1758078227.90298,1758078214.57089,0.0,0.0,0.0,-4.98473,13.5218,2.6929,13.21,1.06,-0.54,4.0
1758078227.90578,1758078214.58089,0.0,0.0,0.0,-8.93814,19.42327,3.55234,13.21,1.06,-0.54,4.0
1758078227.92254,1758078214.59089,0.0,0.0,0.0,-14.20935,21.42862,3.32316,12.54,0.75,-0.49,4.0
1758078227.92571,1758078214.60089,0.0,0.0,0.0,-17.24603,23.89234,3.26586,12.07,0.57,0.04,4.0
1758078227.94154,1758078214.61089,0.0,0.0,0.0,-19.59516,25.21014,2.86479,12.07,0.57,0.04,4.0
1758078227.94569,1758078214.62089,0.0,0.0,0.0,-21.02755,25.89769,1.60428,11.31,0.42,0.04,4.0
1758078227.96403,1758078214.63089,0.0,0.0,0.0,-21.42862,29.39274,0.85944,11.31,0.42,0.04,4.0
1758078227.97052,1758078214.64089,0.0,0.0,0.0,-21.02755,30.59595,0.22918,10.6,0.04,0.37,4.0
1758078227.97119,1758078214.65089,0.0,0.0,0.0,-20.11082,28.01764,-0.57296,10.6,0.04,0.37,4.0
1758078227.98762,1758078214.66089,0.0,0.0,0.0,-17.81899,20.3973,-2.29183,9.56,-0.38,0.75,4.0
1758078228.00335,1758078214.67089,0.0,0.0,0.0,-16.21471,14.72501,-3.49504,8.96,-0.65,0.92,4.0
1758078228.00463,1758078214.68089,0.0,0.0,0.0,-14.32395,9.74028,-4.0107,8.96,-0.65,0.92,4.0
1758078228.04877,1758078214.69089,0.0,0.0,0.0,-12.2613,4.98473,-3.95341,8.45,-0.83,0.76,4.0
1758078228.05285,1758078214.70089,0.0,0.0,0.0,-10.19865,0.45837,-3.55234,8.45,-0.83,0.76,4.0
1758078228.05348,1758078214.71089,0.0,0.0,0.0,-9.22462,-2.11994,-2.97938,7.89,-0.92,0.69,4.0
1758078228.05892,1758078214.72089,0.0,0.0,0.0,-8.70896,-3.66693,-2.63561,7.89,-0.92,0.69,4.0
1758078228.05937,1758078214.73089,0.0,0.0,0.0,-8.47978,-1.20321,-1.60428,7.53,-1.01,0.82,4.0
1758078228.06054,1758078214.74089,0.0,0.0,0.0,-9.22462,14.49583,-2.97938,8.28,-0.96,0.9,4.0
1758078228.07877,1758078214.75089,0.0,0.0,0.0,-9.11003,21.08485,-3.32316,8.28,-0.96,0.9,4.0
1758078228.09468,1758078214.76089,0.0,0.0,0.0,-8.47978,21.37133,-2.97938,7.35,-0.67,1.62,4.0
1758078228.09801,1758078214.77089,0.0,0.0,0.0,-8.99544,16.84496,-3.89611,7.35,-0.67,1.62,4.0
1758078228.11362,1758078214.78089,0.0,0.0,0.0,-8.59437,8.47978,-4.46907,6.64,-0.34,1.25,4.0
1758078228.1165,1758078214.79089,0.0,0.0,0.0,-8.47978,4.35448,-5.15662,6.64,-0.34,1.25,4.0
1758078228.1322,1758078214.80089,0.0,0.0,0.0,-7.79223,2.63561,-5.78687,6.87,-0.09,0.07,4.0
1758078228.13341,1758078214.81089,0.0,0.0,0.0,-6.8182,3.49504,-6.41713,6.87,-0.09,0.07,4.0
1758078228.14855,1758078214.82089,0.0,0.0,0.0,-4.58366,6.18794,-7.21927,7.32,-0.23,-0.34,4.0
1758078228.16527,1758078214.83089,0.0,0.0,0.0,-2.46372,7.33386,-7.96411,7.29,-0.6,-0.41,4.0
1758078228.16972,1758078214.84089,0.0,0.0,0.0,-0.0573,6.99009,-8.136,7.29,-0.6,-0.41,4.0
1758078228.19477,1758078214.85089,0.0,0.0,0.0,3.32316,5.55769,-8.47978,7.14,-1.03,-0.49,4.0
1758078228.19881,1758078214.86089,0.0,0.0,0.0,5.21392,0.11459,-8.88085,7.14,-1.03,-0.49,4.0
1758078228.19983,1758078214.87089,0.0,0.0,0.0,6.7609,-2.57831,-8.99544,7.13,-1.27,-0.47,4.0
1758078228.20229,1758078214.88089,0.0,0.0,0.0,8.36518,-4.64096,-8.47978,7.13,-1.27,-0.47,4.0
1758078228.21858,1758078214.89089,0.0,0.0,0.0,10.54242,-7.96411,-7.84952,7.67,-1.37,-0.43,4.0
1758078228.26171,1758078214.90089,0.0,0.0,0.0,11.63104,-9.4538,-7.21927,8.09,-1.22,-0.11,4.0
1758078228.26425,1758078214.91089,0.0,0.0,0.0,12.2613,-10.37054,-6.53172,8.09,-1.22,-0.11,4.0
1758078228.26724,1758078214.92089,0.0,0.0,0.0,12.77696,-10.48513,-5.50039,8.33,-0.74,-0.09,4.0
1758078228.26932,1758078214.93089,0.0,0.0,0.0,12.2613,-9.4538,-3.83882,8.33,-0.74,-0.09,4.0
1758078228.27069,1758078214.94089,0.0,0.0,0.0,11.45916,-8.25059,-2.97938,8.12,-0.15,-0.19,4.0
1758078228.2721,1758078214.95089,0.0,0.0,0.0,10.02676,-7.16197,-2.57831,8.12,-0.15,-0.19,4.0
1758078228.28832,1758078214.96089,0.0,0.0,0.0,8.47978,-5.90147,-2.29183,7.72,0.13,-0.25,4.0
1758078228.30561,1758078214.97089,0.0,0.0,0.0,5.95876,-4.64096,-2.6929,7.58,0.03,-0.3,4.0
1758078228.30761,1758078214.98089,0.0,0.0,0.0,4.29718,-3.60963,-3.32316,7.58,0.03,-0.3,4.0
1758078228.32288,1758078214.99089,0.0,0.0,0.0,3.09397,-3.38045,-3.55234,8.15,-0.21,0.0,4.0
1758078228.32375,1758078215.00089,0.0,0.0,0.0,2.06265,-4.52637,-3.55234,8.15,-0.21,0.0,4.0
1758078228.33886,1758078215.01089,0.0,0.0,0.0,0.74485,-7.10468,-2.92208,9.27,-0.2,1.0,4.0
1758078228.38315,1758078215.02089,0.0,0.0,0.0,-0.51566,-9.91217,-1.03132,9.27,-0.2,1.0,4.0
1758078228.38478,1758078215.03089,0.0,0.0,0.0,-2.40642,-12.60507,1.48969,11.41,0.42,2.59,4.0
1758078228.38575,1758078215.04089,0.0,0.0,0.0,-4.98473,-17.36062,5.78687,11.41,0.42,2.59,4.0
1758078228.38935,1758078215.05089,0.0,0.0,0.0,-10.02676,-21.37133,8.0787,13.32,1.65,4.25,4.0
1758078228.38998,1758078215.06089,0.0,0.0,0.0,-13.12073,-20.05352,9.74028,15.36,2.68,5.35,4.0
1758078228.39124,1758078215.07089,0.0,0.0,0.0,-16.04282,-16.95955,10.65701,15.36,2.68,5.35,4.0
1758078228.40871,1758078215.08089,0.0,0.0,0.0,-20.45459,-8.30789,9.68299,18.88,3.63,4.99,4.0
1758078228.42493,1758078215.09089,0.0,0.0,0.0,-18.90761,-17.93358,10.94349,18.88,3.63,4.99,4.0
1758078228.42819,1758078215.10089,0.0,0.0,0.0,-16.73037,-28.07493,9.74028,16.86,3.19,1.56,4.0
1758078228.44361,1758078215.11089,0.0,0.0,0.0,-15.06879,-22.23076,6.13065,16.86,3.19,1.56,4.0
1758078228.44918,1758078215.12089,0.0,0.0,0.0,-13.12073,-1.08862,-0.45837,14.59,1.14,-1.8,4.0
1758078228.46393,1758078215.13089,0.0,0.0,0.0,-11.28727,16.04282,-4.64096,13.21,-0.32,-2.21,4.0
1758078228.46672,1758078215.14089,0.0,0.0,0.0,-9.74028,30.25217,-9.39651,13.21,-0.32,-2.21,4.0
1758078228.48164,1758078215.15089,0.0,0.0,0.0,-7.67763,36.03905,-12.204,11.65,-0.46,-0.28,4.0
1758078228.48376,1758078215.16089,0.0,0.0,0.0,-3.20856,37.58603,-13.12073,11.65,-0.46,-0.28,4.0
1758078228.49893,1758078215.17089,0.0,0.0,0.0,1.3178,35.40879,-12.08941,11.67,-0.13,0.84,4.0
1758078228.51633,1758078215.18089,0.0,0.0,0.0,5.78687,30.93972,-10.37054,11.67,-0.13,0.84,4.0
1758078228.51698,1758078215.19089,0.0,0.0,0.0,10.19865,28.93437,-8.59437,12.34,0.03,0.03,4.0
1758078228.53303,1758078215.20089,0.0,0.0,0.0,13.75099,26.18417,-4.0107,12.63,0.1,0.45,4.0
1758078228.53464,1758078215.21089,0.0,0.0,0.0,15.12609,22.28806,-0.97403,12.63,0.1,0.45,4.0
1758078228.54999,1758078215.22089,0.0,0.0,0.0,15.29797,17.6471,0.74485,11.3,0.17,0.55,4.0
1758078228.55755,1758078215.23089,0.0,0.0,0.0,14.09476,14.83961,1.77617,11.3,0.17,0.55,4.0
1758078228.57289,1758078215.24089,0.0,0.0,0.0,11.63104,11.91752,2.00535,10.56,0.51,0.87,4.0
1758078228.57413,1758078215.25089,0.0,0.0,0.0,9.96947,13.40721,1.60428,10.56,0.51,0.87,4.0
1758078228.58866,1758078215.26089,0.0,0.0,0.0,8.65166,20.79837,2.34913,10.21,1.18,0.81,4.0
1758078228.6051,1758078215.27089,0.0,0.0,0.0,7.73493,25.72581,2.6929,10.21,1.18,0.81,4.0
1758078228.60716,1758078215.28089,0.0,0.0,0.0,7.16197,25.72581,2.6929,9.65,1.51,1.31,4.0
1758078228.61128,1758078215.29089,0.0,0.0,0.0,6.47442,20.51189,2.11994,8.15,1.55,1.65,4.0
1758078228.62692,1758078215.30089,0.0,0.0,0.0,5.78687,14.09476,1.77617,8.15,1.55,1.65,4.0
1758078228.64287,1758078215.31089,0.0,0.0,0.0,4.69825,8.30789,0.85944,7.51,1.49,1.15,4.0
1758078228.64389,1758078215.32089,0.0,0.0,0.0,3.72423,7.67763,0.74485,7.51,1.49,1.15,4.0
1758078228.65892,1758078215.33089,0.0,0.0,0.0,2.97938,7.33386,0.74485,7.55,1.36,0.65,4.0
1758078228.67473,1758078215.34089,0.0,0.0,0.0,1.94806,6.24524,0.74485,7.55,1.36,0.65,4.0
1758078228.67771,1758078215.35089,0.0,0.0,0.0,-0.40107,4.52637,1.43239,7.24,1.08,0.58,4.0
1758078228.6937,1758078215.36089,0.0,0.0,0.0,-2.00535,3.83882,2.11994,7.21,0.83,0.36,4.0
1758078228.69429,1758078215.37089,0.0,0.0,0.0,-3.72423,3.03668,3.26586,7.21,0.83,0.36,4.0
1758078228.75797,1758078215.38089,0.0,0.0,0.0,-5.78687,2.06265,4.46907,7.22,0.72,0.13,4.0
1758078228.75888,1758078215.39089,0.0,0.0,0.0,-8.65166,1.77617,6.7609,7.22,0.72,0.13,4.0
1758078228.76194,1758078215.40089,0.0,0.0,0.0,-10.8289,2.11994,8.36518,7.48,0.77,0.07,4.0
1758078228.76388,1758078215.41089,0.0,0.0,0.0,-12.83425,2.00535,9.91217,7.48,0.77,0.07,4.0
1758078228.76774,1758078215.42089,0.0,0.0,0.0,-14.72501,1.03132,11.11538,7.66,1.0,0.04,4.0
1758078228.76897,1758078215.43089,0.0,0.0,0.0,-16.84496,-2.06265,11.80293,7.66,1.22,0.09,4.0
1758078228.76961,1758078215.44089,0.0,0.0,0.0,-18.10547,-5.21392,11.63104,7.66,1.22,0.09,4.0
1758078228.77122,1758078215.45089,0.0,0.0,0.0,-18.79302,-8.88085,10.94349,7.6,1.26,-0.12,4.0
1758078228.78907,1758078215.46089,0.0,0.0,0.0,-18.9649,-12.54778,8.99544,7.6,1.26,-0.12,4.0
1758078228.79837,1758078215.47089,0.0,0.0,0.0,-18.90761,-17.01685,7.04738,7.7,1.12,-0.34,4.0
1758078228.8377,1758078215.48089,0.0,0.0,0.0,-18.44924,-19.19409,5.15662,7.7,1.12,-0.34,4.0
1758078228.84244,1758078215.49089,0.0,0.0,0.0,-17.47521,-21.02755,3.49504,7.85,0.82,-0.48,4.0
1758078228.84294,1758078215.50089,0.0,0.0,0.0,-15.87093,-23.0329,1.60428,7.85,0.82,-0.48,4.0
1758078228.84397,1758078215.51089,0.0,0.0,0.0,-14.38124,-23.83505,1.08862,8.03,0.45,-0.47,4.0
1758078228.84518,1758078215.52089,0.0,0.0,0.0,-12.71966,-24.00693,1.03132,8.2,0.16,-0.45,4.0
1758078228.8636,1758078215.53089,0.0,0.0,0.0,-10.59972,-24.23611,1.3751,8.2,0.16,-0.45,4.0
1758078228.86443,1758078215.54089,0.0,0.0,0.0,-6.8182,-24.63719,2.11994,8.2,-0.08,-0.46,4.0
1758078228.88067,1758078215.55089,0.0,0.0,0.0,-4.29718,-25.09555,2.57831,8.2,-0.08,-0.46,4.0
1758078228.88371,1758078215.56089,0.0,0.0,0.0,-1.66158,-25.21014,3.20856,8.06,-0.21,-0.38,4.0
1758078228.89886,1758078215.57089,0.0,0.0,0.0,0.0,-25.72581,2.86479,8.06,-0.21,-0.38,4.0
1758078228.90003,1758078215.58089,0.0,0.0,0.0,2.11994,-26.69983,2.6929,8.2,-0.17,-0.05,4.0
1758078228.917,1758078215.59089,0.0,0.0,0.0,3.66693,-29.04896,1.66158,9.27,-0.27,0.74,4.0
1758078228.93394,1758078215.60089,0.0,0.0,0.0,4.98473,-33.63263,-0.80214,9.27,-0.27,0.74,4.0
1758078228.93665,1758078215.61089,0.0,0.0,0.0,6.58902,-37.01308,-3.66693,11.18,-0.5,2.21,4.0
1758078228.95209,1758078215.62089,0.0,0.0,0.0,9.96947,-36.84119,-7.62034,11.18,-0.5,2.21,4.0
1758078228.95307,1758078215.63089,0.0,0.0,0.0,12.204,-31.85646,-8.76626,13.16,-0.41,3.77,4.0
1758078229.01765,1758078215.64089,0.0,0.0,0.0,13.46451,-26.01229,-7.79223,13.16,-0.41,3.77,4.0
1758078229.01857,1758078215.65089,0.0,0.0,0.0,13.5218,-21.37133,-6.07335,12.89,0.45,3.9,4.0
1758078229.02035,1758078215.66089,0.0,0.0,0.0,11.17268,-25.89769,-2.06265,12.45,0.96,3.29,4.0
1758078229.02399,1758078215.67089,0.0,0.0,0.0,12.77696,-36.6693,1.43239,12.45,0.96,3.29,4.0
1758078229.02437,1758078215.68089,0.0,0.0,0.0,13.5791,-39.87786,1.94806,15.46,0.31,2.22,4.0
1758078229.02631,1758078215.69089,0.0,0.0,0.0,14.32395,-28.24682,-0.11459,15.46,0.31,2.22,4.0
1758078229.02806,1758078215.70089,0.0,0.0,0.0,13.17803,-16.73037,-2.34913,18.93,-0.8,0.02,4.0
1758078229.03375,1758078215.71089,0.0,0.0,0.0,10.48513,-8.42248,-3.26586,18.93,-0.8,0.02,4.0
1758078229.051,1758078215.72089,0.0,0.0,0.0,7.33386,0.80214,-3.32316,15.28,-0.11,-0.79,4.0
1758078229.05192,1758078215.73089,0.0,0.0,0.0,2.40642,17.93358,-2.11994,15.28,-0.11,-0.79,4.0
1758078229.06856,1758078215.74089,0.0,0.0,0.0,-0.40107,28.24682,-1.03132,13.49,0.87,-1.02,4.0
1758078229.07058,1758078215.75089,0.0,0.0,0.0,-3.03668,34.09099,0.0573,13.21,0.95,-0.72,4.0
1758078229.08875,1758078215.76089,0.0,0.0,0.0,-5.32851,35.63798,0.97403,13.21,0.95,-0.72,4.0
1758078229.0909,1758078215.77089,0.0,0.0,0.0,-8.02141,34.60666,1.77617,12.56,0.63,-0.06,4.0
1758078229.10597,1758078215.78089,0.0,0.0,0.0,-8.99544,31.56997,2.06265,12.56,0.63,-0.06,4.0
1758078229.12221,1758078215.79089,0.0,0.0,0.0,-9.33921,28.13223,1.3751,11.7,0.22,0.12,4.0
1758078229.12315,1758078215.80089,0.0,0.0,0.0,-8.47978,28.64789,1.14592,11.7,0.22,0.12,4.0
1758078229.13825,1758078215.81089,0.0,0.0,0.0,-6.8182,30.25217,1.20321,11.15,-0.36,0.34,4.0
1758078229.13944,1758078215.82089,0.0,0.0,0.0,-4.64096,26.64254,1.08862,10.12,-0.6,0.73,4.0
1758078229.159,1758078215.83089,0.0,0.0,0.0,-3.26586,20.97026,0.40107,10.12,-0.6,0.73,4.0
1758078229.16263,1758078215.84089,0.0,0.0,0.0,-1.66158,15.0115,-0.11459,9.08,-0.62,0.76,4.0
1758078229.19999,1758078215.85089,0.0,0.0,0.0,0.11459,8.30789,-0.74485,9.08,-0.62,0.76,4.0
1758078229.23304,1758078215.86089,0.0,0.0,0.0,1.03132,4.18259,-0.45837,8.72,-0.55,0.57,4.0
1758078229.23341,1758078215.87089,0.0,0.0,0.0,1.60428,7.39116,-0.45837,8.72,-0.55,0.57,4.0
1758078229.23964,1758078215.88089,0.0,0.0,0.0,1.08862,14.49583,-2.29183,8.82,-0.5,0.4,4.0
1758078229.24187,1758078215.89089,0.0,0.0,0.0,-0.85944,13.46451,-2.63561,8.04,-0.37,1.28,4.0
1758078229.24359,1758078215.90089,0.0,0.0,0.0,-1.43239,9.68299,-2.23454,8.04,-0.37,1.28,4.0
1758078229.24732,1758078215.91089,0.0,0.0,0.0,-2.11994,4.81285,-1.60428,7.48,-0.34,0.99,4.0
1758078229.24949,1758078215.92089,0.0,0.0,0.0,-3.20856,-2.86479,-0.68755,7.48,-0.34,0.99,4.0
1758078229.25319,1758078215.93089,0.0,0.0,0.0,-3.49504,-6.41713,-0.0573,7.38,-0.4,0.44,4.0
1758078229.26908,1758078215.94089,0.0,0.0,0.0,-3.20856,-8.59437,0.22918,7.38,-0.4,0.44,4.0
1758078229.27745,1758078215.95089,0.0,0.0,0.0,-2.40642,-9.85487,0.34377,7.45,-0.5,0.25,4.0
1758078229.29304,1758078215.96089,0.0,0.0,0.0,-0.22918,-11.17268,0.11459,7.49,-0.5,0.25,4.0
1758078229.29668,1758078215.97089,0.0,0.0,0.0,1.60428,-11.74564,-0.17189,7.49,-0.56,0.25,4.0
1758078229.31233,1758078215.98089,0.0,0.0,0.0,3.66693,-11.80293,-0.85944,7.67,-0.63,0.12,4.0
1758078229.31325,1758078215.99089,0.0,0.0,0.0,6.18794,-12.08941,-1.66158,7.67,-0.63,0.12,4.0
1758078229.32834,1758078216.00089,0.0,0.0,0.0,9.68299,-12.83425,-2.86479,7.86,-0.69,0.11,4.0
1758078229.32925,1758078216.01089,0.0,0.0,0.0,11.74564,-13.86558,-3.32316,7.86,-0.69,0.11,4.0
1758078229.34704,1758078216.02089,0.0,0.0,0.0,13.40721,-14.72501,-3.72423,7.99,-0.69,0.05,4.0
1758078229.34963,1758078216.03089,0.0,0.0,0.0,14.72501,-15.58445,-3.89611,7.99,-0.69,0.05,4.0
1758078229.37111,1758078216.04089,0.0,0.0,0.0,15.92823,-15.41257,-3.83882,8.12,-0.57,-0.11,4.0
1758078229.37305,1758078216.05089,0.0,0.0,0.0,16.3293,-15.41257,-3.72423,8.22,-0.37,-0.23,4.0
1758078229.41667,1758078216.06089,0.0,0.0,0.0,16.3293,-15.12609,-3.49504,8.22,-0.37,-0.23,4.0
1758078229.41803,1758078216.07089,0.0,0.0,0.0,16.21471,-14.38124,-3.60963,8.3,-0.23,-0.22,4.0
1758078229.41896,1758078216.08089,0.0,0.0,0.0,16.04282,-12.43318,-3.95341,8.3,-0.23,-0.22,4.0
1758078229.42137,1758078216.09089,0.0,0.0,0.0,15.87093,-11.00079,-4.29718,8.41,-0.14,-0.21,4.0
1758078229.42174,1758078216.10089,0.0,0.0,0.0,15.64175,-9.22462,-4.92744,8.41,-0.14,-0.21,4.0
1758078229.43818,1758078216.11089,0.0,0.0,0.0,15.46986,-7.33386,-5.90147,8.3,-0.08,-0.28,4.0
1758078229.4412,1758078216.12089,0.0,0.0,0.0,15.46986,-7.10468,-6.70361,8.08,-0.02,-0.5,4.0
1758078229.45743,1758078216.13089,0.0,0.0,0.0,15.35527,-6.8182,-7.39116,8.08,-0.02,-0.5,4.0
1758078229.4739,1758078216.14089,0.0,0.0,0.0,15.12609,-6.35983,-8.02141,8.05,-0.02,-0.75,4.0
1758078229.47788,1758078216.15089,0.0,0.0,0.0,14.61043,-4.87014,-8.47978,8.05,-0.02,-0.75,4.0
1758078229.49339,1758078216.16089,0.0,0.0,0.0,13.69369,-4.1253,-8.47978,8.17,0.01,-0.9,4.0
1758078229.49873,1758078216.17089,0.0,0.0,0.0,13.12073,-2.97938,-8.136,8.17,0.01,-0.9,4.0
1758078229.54092,1758078216.18089,0.0,0.0,0.0,12.37589,-2.11994,-7.73493,8.23,0.02,-0.88,4.0
1758078229.55078,1758078216.19089,0.0,0.0,0.0,11.17268,-1.43239,-6.87549,8.14,0.0,-0.83,4.0
1758078229.55291,1758078216.20089,0.0,0.0,0.0,10.37054,-1.14592,-6.24524,8.14,0.0,-0.83,4.0
1758078229.55406,1758078216.21089,0.0,0.0,0.0,9.62569,-1.77617,-5.32851,8.49,0.1,-0.37,4.0
1758078229.55629,1758078216.22089,0.0,0.0,0.0,8.36518,-3.66693,-4.23989,8.49,0.1,-0.37,4.0
1758078229.55826,1758078216.23089,0.0,0.0,0.0,6.18794,-7.10468,-2.34913,9.72,0.39,0.65,4.0
1758078229.57343,1758078216.24089,0.0,0.0,0.0,4.35448,-8.36518,-1.08862,9.72,0.39,0.65,4.0
1758078229.57436,1758078216.25089,0.0,0.0,0.0,2.40642,-9.4538,0.0,11.67,0.9,2.0,4.0
1758078229.59344,1758078216.26089,0.0,0.0,0.0,0.22918,-11.00079,1.3178,11.67,0.9,2.0,4.0
1758078229.59438,1758078216.27089,0.0,0.0,0.0,-3.55234,-12.08941,2.46372,12.92,1.46,3.19,4.0
1758078229.61233,1758078216.28089,0.0,0.0,0.0,-6.13065,-11.11538,3.03668,14.11,1.75,4.01,4.0
1758078229.62642,1758078216.29089,0.0,0.0,0.0,-8.59437,-9.4538,3.60963,14.11,1.75,4.01,4.0
1758078229.62835,1758078216.30089,0.0,0.0,0.0,-12.71966,-5.4431,4.69825,17.05,2.39,4.03,4.0
1758078229.63702,1758078216.31089,0.0,0.0,0.0,-14.32395,-2.29183,4.64096,17.05,2.39,4.03,4.0
1758078229.64283,1758078216.32089,0.0,0.0,0.0,-13.06344,-7.10468,4.98473,17.89,2.58,2.08,4.0
1758078229.65855,1758078216.33089,0.0,0.0,0.0,-10.54242,-11.86023,4.64096,17.89,2.58,2.08,4.0
1758078229.65945,1758078216.34089,0.0,0.0,0.0,-7.21927,-2.46372,1.77617,15.32,0.96,-1.06,4.0
1758078229.67864,1758078216.35089,0.0,0.0,0.0,-5.61499,8.02141,-1.3178,14.11,-0.32,-2.03,4.0
1758078229.67957,1758078216.36089,0.0,0.0,0.0,-3.55234,18.22006,-3.55234,14.11,-0.32,-2.03,4.0
1758078229.69642,1758078216.37089,0.0,0.0,0.0,-1.48969,28.30412,-4.98473,13.42,-0.69,-1.19,4.0
1758078229.71352,1758078216.38089,0.0,0.0,0.0,2.86479,35.2369,-4.52637,13.42,-0.69,-1.19,4.0
1758078229.71445,1758078216.39089,0.0,0.0,0.0,6.70361,34.43476,-2.86479,12.77,-0.4,-0.06,4.0
1758078229.73228,1758078216.40089,0.0,0.0,0.0,10.54242,31.79916,-1.08862,12.77,-0.4,-0.06,4.0
1758078229.73764,1758078216.41089,0.0,0.0,0.0,14.03747,28.07493,0.17189,12.0,-0.09,-0.13,4.0
1758078229.75249,1758078216.42089,0.0,0.0,0.0,18.62113,23.37668,0.97403,11.32,0.2,0.11,4.0
1758078229.75777,1758078216.43089,0.0,0.0,0.0,19.70975,21.7151,1.14592,11.32,0.2,0.11,4.0
1758078229.77257,1758078216.44089,0.0,0.0,0.0,20.11082,21.6578,1.08862,10.88,0.38,0.5,4.0
1758078229.77374,1758078216.45089,0.0,0.0,0.0,19.48057,20.97026,0.74485,10.88,0.38,0.5,4.0
1758078229.78857,1758078216.46089,0.0,0.0,0.0,17.93358,19.99623,1.08862,10.15,0.66,0.83,4.0
1758078229.79114,1758078216.47089,0.0,0.0,0.0,16.67307,18.62113,1.48969,10.15,0.66,0.83,4.0
1758078229.80963,1758078216.48089,0.0,0.0,0.0,15.46986,18.10547,1.83346,9.49,1.02,0.81,4.0
1758078229.81252,1758078216.49089,0.0,0.0,0.0,14.49583,18.79302,2.00535,9.49,1.02,0.81,4.0
1758078229.82843,1758078216.50089,0.0,0.0,0.0,13.40721,21.7151,2.46372,9.02,1.31,0.72,4.0
1758078229.83032,1758078216.51089,0.0,0.0,0.0,12.77696,22.34536,2.34913,8.46,1.44,0.86,4.0
1758078229.91154,1758078216.52089,0.0,0.0,0.0,12.43318,21.6578,2.40642,8.46,1.44,0.86,4.0
1758078229.91325,1758078216.53089,0.0,0.0,0.0,12.2613,19.07949,2.00535,7.92,1.39,1.01,4.0
1758078229.92216,1758078216.54089,0.0,0.0,0.0,12.49048,16.95955,1.71887,7.92,1.39,1.01,4.0
1758078230.03946,1758078216.55089,0.0,0.0,0.0,12.54778,14.66772,1.3178,7.72,1.23,0.84,4.0
1758078230.04089,1758078216.56089,0.0,0.0,0.0,12.49048,12.37589,1.03132,7.72,1.23,0.84,4.0
1758078230.04371,1758078216.57089,0.0,0.0,0.0,11.80293,10.48513,1.43239,7.61,0.98,0.62,4.0
1758078230.04433,1758078216.58089,0.0,0.0,0.0,11.17268,9.5684,2.06265,7.66,0.78,0.34,4.0
1758078230.04693,1758078216.59089,0.0,0.0,0.0,10.31324,9.11003,3.26586,7.66,0.78,0.34,4.0
1758078230.05016,1758078216.60089,0.0,0.0,0.0,9.22462,9.28192,4.52637,7.78,0.64,0.23,4.0
1758078230.05457,1758078216.61089,0.0,0.0,0.0,7.50575,9.62569,6.53172,7.78,0.64,0.23,4.0
1758078230.0592,1758078216.62089,0.0,0.0,0.0,6.18794,9.62569,7.84952,7.84,0.62,0.13,4.0
1758078230.06118,1758078216.63089,0.0,0.0,0.0,5.09932,9.28192,9.28192,7.84,0.62,0.13,4.0
1758078230.06347,1758078216.64089,0.0,0.0,0.0,3.55234,9.74028,10.08406,7.82,0.73,0.03,4.0
1758078230.06707,1758078216.65089,0.0,0.0,0.0,1.83346,10.19865,11.28727,7.88,0.88,-0.01,4.0
1758078230.07018,1758078216.66089,0.0,0.0,0.0,0.80214,9.62569,11.80293,7.88,0.88,-0.01,4.0
1758078230.07421,1758078216.67089,0.0,0.0,0.0,-0.0573,8.0787,11.86023,7.81,1.02,-0.01,4.0
1758078230.08167,1758078216.68089,0.0,0.0,0.0,-0.45837,4.64096,11.86023,7.81,1.02,-0.01,4.0
1758078230.08398,1758078216.69089,0.0,0.0,0.0,-0.68755,0.80214,11.00079,7.65,0.96,-0.23,4.0
1758078230.19861,1758078216.70089,0.0,0.0,0.0,-0.68755,-2.63561,10.48513,7.65,0.96,-0.23,4.0
1758078230.19908,1758078216.71089,0.0,0.0,0.0,-0.22918,-5.32851,9.74028,7.52,0.69,-0.63,4.0
1758078230.20106,1758078216.72089,0.0,0.0,0.0,0.74485,-7.79223,9.05273,7.52,0.69,-0.63,4.0
1758078230.20162,1758078216.73089,0.0,0.0,0.0,1.43239,-9.5684,8.76626,7.6,0.37,-0.91,4.0
1758078230.20323,1758078216.74089,0.0,0.0,0.0,2.46372,-10.65701,8.76626,8.13,0.22,-0.85,4.0
1758078230.20428,1758078216.75089,0.0,0.0,0.0,3.66693,-11.57375,8.88085,8.13,0.22,-0.85,4.0
1758078230.20605,1758078216.76089,0.0,0.0,0.0,6.07335,-12.77696,9.5684,8.62,0.16,-0.7,4.0
1758078230.20855,1758078216.77089,0.0,0.0,0.0,7.84952,-13.5791,9.96947,8.62,0.16,-0.7,4.0
1758078230.20974,1758078216.78089,0.0,0.0,0.0,10.08406,-15.0115,10.19865,8.94,0.16,-0.56,4.0
1758078230.21201,1758078216.79089,0.0,0.0,0.0,12.14671,-16.21471,10.19865,8.94,0.16,-0.56,4.0
1758078230.21283,1758078216.80089,0.0,0.0,0.0,15.29797,-17.58981,9.68299,8.87,0.22,-0.64,4.0
1758078230.21389,1758078216.81089,0.0,0.0,0.0,17.24603,-19.13679,8.76626,8.44,0.23,-0.74,4.0
1758078230.21529,1758078216.82089,0.0,0.0,0.0,18.90761,-20.68378,7.73493,8.44,0.23,-0.74,4.0
1758078230.21739,1758078216.83089,0.0,0.0,0.0,20.45459,-21.88699,6.70361,7.86,0.21,-0.75,4.0
1758078230.21797,1758078216.84089,0.0,0.0,0.0,21.6578,-23.83505,5.09932,7.86,0.21,-0.75,4.0
1758078230.21921,1758078216.85089,0.0,0.0,0.0,22.00158,-24.75178,3.83882,7.65,0.2,-0.36,4.0
1758078230.22063,1758078216.86089,0.0,0.0,0.0,22.23076,-24.80907,2.46372,7.65,0.2,-0.36,4.0
1758078230.22824,1758078216.87089,0.0,0.0,0.0,22.51724,-26.64254,1.3178,8.81,0.09,0.64,4.0
1758078230.22916,1758078216.88089,0.0,0.0,0.0,23.94964,-30.99702,-1.14592,10.57,-0.11,1.93,4.0
1758078230.22958,1758078216.89089,0.0,0.0,0.0,25.7831,-35.12231,-3.03668,10.57,-0.11,1.93,4.0
1758078230.23072,1758078216.90089,0.0,0.0,0.0,27.78845,-37.75792,-4.69825,12.03,-0.32,2.89,4.0
1758078230.23276,1758078216.91089,0.0,0.0,0.0,30.25217,-39.13302,-4.87014,12.03,-0.32,2.89,4.0
1758078230.24836,1758078216.92089,0.0,0.0,0.0,33.05967,-39.70598,-3.89611,12.67,-0.17,2.86,4.0
1758078230.25046,1758078216.93089,0.0,0.0,0.0,34.37747,-41.42485,-2.11994,12.67,-0.17,2.86,4.0
1758078230.26647,1758078216.94089,0.0,0.0,0.0,35.69527,-41.65404,-0.11459,13.35,0.12,2.86,4.0
1758078230.32967,1758078216.95089,0.0,0.0,0.0,38.61736,-34.60666,1.60428,13.35,0.12,2.86,4.0
1758078230.37531,1758078216.96089,0.0,0.0,0.0,40.62271,-28.07493,1.83346,16.16,-0.26,3.08,4.0
1758078230.37822,1758078216.97089,0.0,0.0,0.0,42.05511,-20.51189,2.46372,17.83,-0.87,2.32,4.0
1758078230.37926,1758078216.98089,0.0,0.0,0.0,42.22699,-11.91752,2.97938,17.83,-0.87,2.32,4.0
1758078230.3895,1758078216.99089,0.0,0.0,0.0,39.87786,0.97403,4.0107,16.31,-0.71,0.29,4.0
1758078230.39408,1758078217.00089,0.0,0.0,0.0,37.92981,11.45916,4.52637,16.31,-0.71,0.29,4.0
1758078230.48884,1758078217.01089,0.0,0.0,0.0,36.32552,22.97561,5.21392,14.2,-0.32,-1.25,4.0
1758078230.48927,1758078217.02089,0.0,0.0,0.0,35.40879,31.74186,6.35983,14.2,-0.32,-1.25,4.0
1758078230.49431,1758078217.03089,0.0,0.0,0.0,34.0337,34.77854,7.79223,13.23,-0.16,-0.72,4.0
1758078230.49509,1758078217.04089,0.0,0.0,0.0,33.23156,35.3515,8.42248,12.17,-0.01,-0.26,4.0
1758078230.4977,1758078217.05089,0.0,0.0,0.0,32.48671,35.75257,8.93814,12.17,-0.01,-0.26,4.0
1758078230.49855,1758078217.06089,0.0,0.0,0.0,32.48671,38.38818,9.28192,11.77,0.0,0.0,4.0
1758078230.49974,1758078217.07089,0.0,0.0,0.0,32.14294,39.4195,9.22462,11.77,0.0,0.0,4.0
1758078230.50039,1758078217.08089,0.0,0.0,0.0,31.91375,36.32552,8.65166,10.67,-0.19,0.46,4.0
1758078230.50313,1758078217.09089,0.0,0.0,0.0,31.91375,32.20023,8.02141,10.67,-0.19,0.46,4.0
1758078230.50373,1758078217.10089,0.0,0.0,0.0,32.14294,27.04361,7.44845,9.58,-0.46,0.67,4.0
1758078230.50581,1758078217.11089,0.0,0.0,0.0,32.48671,18.10547,6.13065,9.05,-0.51,0.67,4.0
1758078230.5064,1758078217.12089,0.0,0.0,0.0,33.17426,11.97482,5.27121,9.05,-0.51,0.67,4.0
1758078230.50768,1758078217.13089,0.0,0.0,0.0,34.09099,6.87549,4.87014,8.66,-0.59,0.75,4.0
1758078230.50827,1758078217.14089,0.0,0.0,0.0,35.3515,3.55234,4.52637,8.66,-0.59,0.75,4.0
1758078230.5095,1758078217.15089,0.0,0.0,0.0,36.15364,0.40107,4.23989,8.56,-0.67,0.98,4.0
1758078230.51172,1758078217.16089,0.0,0.0,0.0,36.84119,1.48969,4.64096,8.56,-0.67,0.98,4.0
1758078230.51249,1758078217.17089,0.0,0.0,0.0,37.12767,5.72958,4.46907,8.59,-0.64,0.88,4.0
1758078230.51354,1758078217.18089,0.0,0.0,0.0,37.12767,12.77696,3.03668,8.59,-0.64,0.88,4.0
1758078230.5144,1758078217.19089,0.0,0.0,0.0,36.95578,13.98017,2.46372,8.68,-0.43,0.86,4.0
1758078230.53188,1758078217.20089,0.0,0.0,0.0,37.18496,12.60507,2.23454,8.02,-0.25,1.07,4.0
1758078230.53439,1758078217.21089,0.0,0.0,0.0,37.52874,11.74564,2.06265,8.02,-0.25,1.07,4.0
1758078230.55162,1758078217.22089,0.0,0.0,0.0,37.81522,8.36518,1.20321,8.02,-0.24,0.54,4.0
1758078230.55283,1758078217.23089,0.0,0.0,0.0,37.81522,5.84417,0.40107,8.02,-0.24,0.54,4.0
1758078230.56868,1758078217.24089,0.0,0.0,0.0,38.1017,3.95341,-0.57296,8.19,-0.27,0.3,4.0
1758078230.56991,1758078217.25089,0.0,0.0,0.0,38.38818,2.6929,-1.43239,8.19,-0.27,0.3,4.0
1758078230.58655,1758078217.26089,0.0,0.0,0.0,38.78925,1.3178,-2.6929,8.49,-0.28,0.04,4.0
1758078230.60285,1758078217.27089,0.0,0.0,0.0,39.19032,0.45837,-3.38045,8.55,-0.31,-0.16,4.0
1758078230.6049,1758078217.28089,0.0,0.0,0.0,39.4768,-0.45837,-3.95341,8.55,-0.31,-0.16,4.0
1758078230.62367,1758078217.29089,0.0,0.0,0.0,39.4768,-1.3751,-4.52637,8.47,-0.3,-0.26,4.0
1758078230.62766,1758078217.30089,0.0,0.0,0.0,39.4768,-2.92208,-5.27121,8.47,-0.3,-0.26,4.0
1758078230.64395,1758078217.31089,0.0,0.0,0.0,39.24761,-3.95341,-5.90147,8.43,-0.26,-0.26,4.0
1758078230.64917,1758078217.32089,0.0,0.0,0.0,39.3622,-4.92744,-6.70361,8.43,-0.26,-0.26,4.0
1758078230.69801,1758078217.33089,0.0,0.0,0.0,39.19032,-5.21392,-7.67763,8.5,-0.22,-0.17,4.0
1758078230.72301,1758078217.34089,0.0,0.0,0.0,39.07573,-4.98473,-8.30789,8.71,-0.17,-0.12,4.0
1758078230.7236,1758078217.35089,0.0,0.0,0.0,38.90384,-4.64096,-8.65166,8.71,-0.17,-0.12,4.0
1758078230.72563,1758078217.36089,0.0,0.0,0.0,38.44547,-4.0107,-8.88085,8.95,-0.16,-0.11,4.0
1758078230.72626,1758078217.37089,0.0,0.0,0.0,36.95578,-2.97938,-8.99544,8.95,-0.16,-0.11,4.0
1758078230.73149,1758078217.38089,0.0,0.0,0.0,35.75257,-2.29183,-8.93814,9.16,-0.15,-0.16,4.0
1758078230.73241,1758078217.39089,0.0,0.0,0.0,34.32018,-1.08862,-8.59437,9.16,-0.15,-0.16,4.0
1758078230.73417,1758078217.40089,0.0,0.0,0.0,32.71589,-0.45837,-8.02141,9.17,-0.12,-0.25,4.0
1758078230.73639,1758078217.41089,0.0,0.0,0.0,29.73651,0.80214,-7.44845,9.17,-0.12,-0.42,4.0
1758078230.75167,1758078217.42089,0.0,0.0,0.0,27.67386,1.20321,-6.99009,9.05,-0.08,-0.42,4.0
1758078230.75455,1758078217.43089,0.0,0.0,0.0,25.61122,1.20321,-6.87549,9.03,-0.1,-0.52,4.0
1758078230.77073,1758078217.44089,0.0,0.0,0.0,23.60586,1.14592,-6.8182,9.03,-0.1,-0.52,4.0
1758078230.77426,1758078217.45089,0.0,0.0,0.0,21.14215,0.45837,-6.87549,9.03,-0.18,-0.45,4.0
1758078230.79239,1758078217.46089,0.0,0.0,0.0,19.59516,-0.11459,-7.04738,9.03,-0.18,-0.45,4.0
1758078230.79415,1758078217.47089,0.0,0.0,0.0,18.33465,-0.57296,-6.8182,8.92,-0.24,-0.37,4.0
1758078230.8343,1758078217.48089,0.0,0.0,0.0,17.24603,-0.97403,-6.8182,8.92,-0.24,-0.37,4.0
1758078230.83771,1758078217.49089,0.0,0.0,0.0,15.58445,-1.03132,-6.35983,8.71,-0.3,-0.42,4.0
1758078230.83903,1758078217.50089,0.0,0.0,0.0,14.49583,-0.68755,-5.72958,8.47,-0.4,-0.55,4.0
1758078230.8414,1758078217.51089,0.0,0.0,0.0,13.5218,0.40107,-5.15662,8.47,-0.4,-0.55,4.0
1758078230.8418,1758078217.52089,0.0,0.0,0.0,12.60507,2.11994,-4.64096,8.33,-0.56,-0.65,4.0
1758078230.85879,1758078217.53089,0.0,0.0,0.0,11.45916,4.23989,-3.95341,8.33,-0.56,-0.65,4.0
1758078230.86,1758078217.54089,0.0,0.0,0.0,10.94349,6.41713,-3.38045,8.21,-0.68,-0.53,4.0
1758078230.87758,1758078217.55089,0.0,0.0,0.0,10.71431,7.96411,-2.63561,8.21,-0.68,-0.53,4.0
1758078230.89408,1758078217.56089,0.0,0.0,0.0,10.54242,6.8182,-0.57296,9.27,-0.62,0.01,4.0
1758078230.89675,1758078217.57089,0.0,0.0,0.0,9.96947,3.32316,1.14592,11.27,-0.17,1.19,4.0
1758078230.93491,1758078217.58089,0.0,0.0,0.0,8.36518,-1.43239,3.89611,11.27,-0.17,1.19,4.0
1758078230.93829,1758078217.59089,0.0,0.0,0.0,6.07335,-7.16197,6.70361,12.9,0.89,2.29,4.0
1758078230.93891,1758078217.60089,0.0,0.0,0.0,1.3751,-14.61043,10.19865,12.9,0.89,2.29,4.0
1758078230.94339,1758078217.61089,0.0,0.0,0.0,-1.66158,-17.36062,11.11538,13.42,1.81,3.25,4.0
1758078230.94397,1758078217.62089,0.0,0.0,0.0,-3.83882,-19.13679,11.57375,13.42,1.81,3.25,4.0
1758078230.96288,1758078217.63089,0.0,0.0,0.0,-4.98473,-20.79837,11.22997,14.55,2.06,4.01,4.0
1758078230.96459,1758078217.64089,0.0,0.0,0.0,-3.95341,-21.31403,9.85487,16.06,2.16,3.4,4.0
1758078230.98098,1758078217.65089,0.0,0.0,0.0,-1.3178,-19.36597,8.70896,16.06,2.16,3.4,4.0
1758078230.98296,1758078217.66089,0.0,0.0,0.0,2.00535,-14.20935,6.58902,16.39,1.41,1.72,4.0
1758078230.99993,1758078217.67089,0.0,0.0,0.0,5.72958,-7.84952,4.1253,16.39,1.41,1.72,4.0
1758078231.00322,1758078217.68089,0.0,0.0,0.0,11.11538,1.60428,0.0573,14.98,0.31,0.25,4.0
1758078231.02076,1758078217.69089,0.0,0.0,0.0,14.78231,6.7609,-2.06265,14.98,0.31,0.25,4.0
1758078231.0264,1758078217.70089,0.0,0.0,0.0,18.33465,11.51645,-3.55234,13.57,0.14,-0.41,4.0
1758078231.06679,1758078217.71089,0.0,0.0,0.0,21.6578,16.55848,-4.64096,13.57,0.14,-0.41,4.0
1758078231.07428,1758078217.72089,0.0,0.0,0.0,26.41335,22.00158,-4.52637,13.19,0.29,-0.55,4.0
1758078231.07771,1758078217.73089,0.0,0.0,0.0,28.70519,24.98096,-3.72423,12.72,0.46,-0.28,4.0
1758078231.07861,1758078217.74089,0.0,0.0,0.0,30.36677,28.70519,-2.86479,12.72,0.46,-0.28,4.0
1758078231.07921,1758078217.75089,0.0,0.0,0.0,30.93972,32.77319,-2.11994,12.22,0.67,0.52,4.0
1758078231.08286,1758078217.76089,0.0,0.0,0.0,30.13758,36.26823,-2.11994,12.22,0.67,0.52,4.0
1758078231.09823,1758078217.77088,0.0,0.0,0.0,28.476,36.32552,-2.57831,11.33,0.74,1.46,4.0
1758078231.11417,1758078217.78088,0.0,0.0,0.0,26.69983,32.71589,-3.03668,11.33,0.74,1.46,4.0
1758078231.1168,1758078217.79088,0.0,0.0,0.0,24.35071,25.26744,-3.60963,9.92,0.8,1.55,4.0
1758078231.13273,1758078217.80088,0.0,0.0,0.0,23.31938,20.22541,-3.83882,8.9,1.16,1.27,4.0
1758078231.13465,1758078217.81088,0.0,0.0,0.0,22.28806,15.06879,-4.58366,8.9,1.16,1.27,4.0
1758078231.15217,1758078217.82088,0.0,0.0,0.0,21.60051,12.49048,-4.58366,8.04,1.53,0.96,4.0
1758078231.1531,1758078217.83088,0.0,0.0,0.0,21.25674,7.33386,-5.09932,8.04,1.53,0.96,4.0
1758078231.168,1758078217.84088,0.0,0.0,0.0,20.74107,5.15662,-5.55769,7.53,1.67,1.09,4.0
1758078231.18419,1758078217.85088,0.0,0.0,0.0,21.08485,6.87549,-5.95876,7.53,1.67,1.09,4.0
1758078231.18674,1758078217.86088,0.0,0.0,0.0,21.48592,11.00079,-6.07335,8.07,1.57,1.31,4.0
1758078231.20395,1758078217.87088,0.0,0.0,0.0,22.05888,14.66772,-6.24524,8.33,1.32,1.59,4.0
1758078231.20839,1758078217.88088,0.0,0.0,0.0,21.88699,15.29797,-6.58902,8.33,1.32,1.59,4.0
1758078231.22396,1758078217.89088,0.0,0.0,0.0,21.31403,15.41257,-7.04738,8.36,1.14,1.57,4.0
1758078231.22829,1758078217.90088,0.0,0.0,0.0,20.51189,14.72501,-6.99009,8.36,1.14,1.57,4.0
1758078231.24427,1758078217.91088,0.0,0.0,0.0,19.13679,14.78231,-6.8182,8.44,1.03,1.02,4.0
1758078231.24872,1758078217.92088,0.0,0.0,0.0,18.10547,15.46986,-6.53172,8.44,1.03,1.02,4.0
1758078231.26431,1758078217.93088,0.0,0.0,0.0,16.95955,15.75634,-6.07335,8.59,1.0,0.71,4.0
1758078231.26687,1758078217.94088,0.0,0.0,0.0,15.58445,16.90226,-5.4431,8.59,1.0,0.71,4.0
1758078231.28232,1758078217.95088,0.0,0.0,0.0,14.09476,19.59516,-4.29718,8.88,0.97,0.51,4.0
1758078231.28427,1758078217.96088,0.0,0.0,0.0,13.17803,22.11617,-3.32316,9.35,0.91,0.44,4.0
1758078231.29902,1758078217.97088,0.0,0.0,0.0,12.43318,25.61122,-2.23454,9.35,0.91,0.44,4.0
1758078231.30021,1758078217.98088,0.0,0.0,0.0,11.63104,30.82513,-0.74485,9.75,0.82,0.39,4.0
1758078231.31637,1758078217.99088,0.0,0.0,0.0,11.00079,33.17426,0.17189,9.75,0.82,0.39,4.0
1758078231.33295,1758078218.00088,0.0,0.0,0.0,10.31324,35.06502,1.3751,9.8,0.76,0.3,4.0
1758078231.33427,1758078218.01088,0.0,0.0,0.0,9.74028,35.58068,2.34913,9.8,0.76,0.3,4.0
1758078231.35032,1758078218.02088,0.0,0.0,0.0,9.11003,33.80451,3.72423,9.75,0.73,0.06,4.0
1758078231.35168,1758078218.03088,0.0,0.0,0.0,8.93814,30.88243,4.29718,9.63,0.76,-0.11,4.0
1758078231.36634,1758078218.04088,0.0,0.0,0.0,8.99544,27.33009,5.09932,9.63,0.76,-0.11,4.0
1758078231.38303,1758078218.05088,0.0,0.0,0.0,9.33921,23.54857,5.78687,9.66,0.62,-0.22,4.0
1758078231.38533,1758078218.06088,0.0,0.0,0.0,9.85487,18.16276,6.99009,9.66,0.62,-0.22,4.0
1758078231.40006,1758078218.07088,0.0,0.0,0.0,10.08406,13.69369,7.79223,9.7,0.43,-0.32,4.0
1758078231.40233,1758078218.08088,0.0,0.0,0.0,10.19865,10.19865,9.11003,9.7,0.43,-0.32,4.0
1758078231.41733,1758078218.09088,0.0,0.0,0.0,10.25595,6.18794,10.65701,9.66,0.31,-0.33,4.0
1758078231.43418,1758078218.10088,0.0,0.0,0.0,10.08406,2.40642,13.12073,9.81,0.2,-0.3,4.0
1758078231.43667,1758078218.11088,0.0,0.0,0.0,9.96947,0.34377,15.06879,9.81,0.2,-0.3,4.0
1758078231.45305,1758078218.12088,0.0,0.0,0.0,9.5684,0.68755,16.50119,10.27,0.14,-0.14,4.0
1758078231.45428,1758078218.13088,0.0,0.0,0.0,9.05273,0.22918,18.62113,10.27,0.14,-0.14,4.0
1758078231.46906,1758078218.14088,0.0,0.0,0.0,6.41713,-1.08862,20.11082,10.42,0.13,0.13,4.0
1758078231.4703,1758078218.15088,0.0,0.0,0.0,4.58366,-3.49504,21.08485,10.42,0.13,0.13,4.0
1758078231.4882,1758078218.16088,0.0,0.0,0.0,2.29183,-6.87549,20.97026,10.5,0.07,0.27,4.0
1758078231.50441,1758078218.17088,0.0,0.0,0.0,-0.22918,-10.59972,20.62648,10.5,0.07,0.27,4.0
1758078231.50578,1758078218.18088,0.0,0.0,0.0,-0.80214,-15.24068,19.99623,11.46,0.05,1.07,4.0
1758078231.52019,1758078218.19088,0.0,0.0,0.0,-0.11459,-17.58981,19.53786,12.82,0.19,2.23,4.0
1758078231.52167,1758078218.20088,0.0,0.0,0.0,1.3751,-20.68378,18.62113,12.82,0.19,2.23,4.0
1758078231.53614,1758078218.21088,0.0,0.0,0.0,4.69825,-24.92367,17.6471,12.84,0.47,2.89,4.0
1758078231.55216,1758078218.22088,0.0,0.0,0.0,7.21927,-27.2155,17.18874,12.84,0.47,2.89,4.0
1758078231.55468,1758078218.23088,0.0,0.0,0.0,8.70896,-26.12688,16.61578,12.0,0.82,2.25,4.0
1758078231.56939,1758078218.24088,0.0,0.0,0.0,10.02676,-23.31938,16.95955,12.0,0.82,2.25,4.0
1758078231.57433,1758078218.25088,0.0,0.0,0.0,10.19865,-19.36597,16.95955,10.81,1.05,1.56,4.0
1758078231.58946,1758078218.26088,0.0,0.0,0.0,8.99544,-11.11538,16.272,9.75,0.95,1.66,4.0
1758078231.59834,1758078218.27088,0.0,0.0,0.0,8.36518,-0.97403,16.50119,9.75,0.95,1.66,4.0
1758078231.6132,1758078218.28088,0.0,0.0,0.0,7.10468,2.34913,16.272,8.82,0.9,2.18,4.0
1758078231.61438,1758078218.29088,0.0,0.0,0.0,4.81285,-3.89611,15.24068,8.82,0.9,2.18,4.0
1758078231.62918,1758078218.30088,0.0,0.0,0.0,3.66693,-12.14671,13.23533,7.86,0.9,2.82,4.0
1758078231.63118,1758078218.31088,0.0,0.0,0.0,4.35448,-27.96034,12.54778,7.86,0.9,2.82,4.0
1758078231.6482,1758078218.32088,0.0,0.0,0.0,5.21392,-37.52874,11.51645,8.14,0.98,2.33,4.0
1758078231.65827,1758078218.33088,0.0,0.0,0.0,7.10468,-38.61736,9.4538,10.11,0.65,2.61,4.0
1758078231.6742,1758078218.34088,0.0,0.0,0.0,9.22462,-38.1017,8.0787,10.11,0.65,2.61,4.0
1758078231.677,1758078218.35088,0.0,0.0,0.0,11.80293,-37.29956,6.99009,10.54,0.1,3.09,4.0
1758078231.69252,1758078218.36088,0.0,0.0,0.0,14.61043,-35.58068,6.35983,10.54,0.1,3.09,4.0
1758078231.69343,1758078218.37088,0.0,0.0,0.0,18.62113,-32.25753,5.90147,10.94,-0.08,3.06,4.0
1758078231.70852,1758078218.38088,0.0,0.0,0.0,20.97026,-29.39274,5.90147,10.94,-0.08,3.06,4.0
1758078231.72452,1758078218.39088,0.0,0.0,0.0,23.26209,-24.75178,6.13065,10.84,-0.07,2.26,4.0
1758078231.727,1758078218.40088,0.0,0.0,0.0,25.89769,-16.61578,6.8182,10.84,-0.07,2.26,4.0
1758078231.74302,1758078218.41088,0.0,0.0,0.0,26.98631,-12.54778,7.10468,10.76,-0.12,2.05,4.0
1758078231.74427,1758078218.42088,0.0,0.0,0.0,27.78845,-11.34457,7.44845,10.27,-0.08,1.78,4.0
1758078231.75949,1758078218.43088,0.0,0.0,0.0,27.73116,-11.00079,7.16197,10.27,-0.08,1.78,4.0
1758078231.7607,1758078218.44088,0.0,0.0,0.0,27.10091,-8.36518,6.70361,9.98,-0.09,1.41,4.0
1758078231.77753,1758078218.45088,0.0,0.0,0.0,26.69983,-5.95876,6.24524,9.98,-0.09,1.41,4.0
1758078231.79354,1758078218.46088,0.0,0.0,0.0,26.24147,-3.26586,5.84417,9.81,-0.13,1.15,4.0
1758078231.79446,1758078218.47088,0.0,0.0,0.0,26.06958,-0.85944,5.55769,9.81,-0.13,1.15,4.0
1758078231.80952,1758078218.48088,0.0,0.0,0.0,26.12688,1.71887,5.4431,9.51,-0.32,1.25,4.0
1758078231.81127,1758078218.49088,0.0,0.0,0.0,26.35606,3.09397,5.55769,9.25,-0.47,1.23,4.0
1758078231.82836,1758078218.50088,0.0,0.0,0.0,26.87172,4.46907,5.84417,9.25,-0.47,1.23,4.0
1758078231.84457,1758078218.51088,0.0,0.0,0.0,27.84575,4.92744,6.41713,9.18,-0.57,1.1,4.0
1758078231.84548,1758078218.52088,0.0,0.0,0.0,29.50733,5.50039,6.87549,9.18,-0.57,1.1,4.0
1758078231.86059,1758078218.53088,0.0,0.0,0.0,30.76784,6.47442,7.04738,9.16,-0.56,1.12,4.0
1758078231.86381,1758078218.54088,0.0,0.0,0.0,32.14294,7.50575,7.04738,9.16,-0.56,1.12,4.0
1758078231.87952,1758078218.55088,0.0,0.0,0.0,33.63263,9.4538,6.87549,9.17,-0.56,1.1,4.0
1758078231.88291,1758078218.56088,0.0,0.0,0.0,35.63798,14.03747,6.58902,9.37,-0.59,1.23,4.0
1758078231.8991,1758078218.57088,0.0,0.0,0.0,37.12767,15.24068,6.35983,9.37,-0.59,1.23,4.0
1758078231.90028,1758078218.58088,0.0,0.0,0.0,37.98711,15.29797,6.07335,9.23,-0.53,1.18,4.0
1758078231.91729,1758078218.59088,0.0,0.0,0.0,39.24761,15.0115,5.32851,9.23,-0.53,1.18,4.0
1758078231.9343,1758078218.60088,0.0,0.0,0.0,39.82057,13.46451,5.09932,9.25,-0.4,0.93,4.0
1758078231.93871,1758078218.61088,0.0,0.0,0.0,40.16434,12.49048,4.64096,9.25,-0.4,0.93,4.0
1758078231.95461,1758078218.62088,0.0,0.0,0.0,40.50812,11.51645,4.29718,9.29,-0.37,0.72,4.0
1758078231.95749,1758078218.63088,0.0,0.0,0.0,40.85189,10.8289,3.60963,9.29,-0.37,0.72,4.0
1758078231.97263,1758078218.64088,0.0,0.0,0.0,40.7946,11.45916,3.20856,9.38,-0.31,0.72,4.0
1758078231.97443,1758078218.65088,0.0,0.0,0.0,41.02378,12.14671,2.6929,9.54,-0.31,0.62,4.0
1758078231.98956,1758078218.66088,0.0,0.0,0.0,40.85189,13.06344,2.06265,9.54,-0.31,0.62,4.0
1758078231.99059,1758078218.67088,0.0,0.0,0.0,41.08107,14.43854,1.08862,9.66,-0.24,0.47,4.0
1758078232.00665,1758078218.68088,0.0,0.0,0.0,41.13837,15.75634,0.57296,9.66,-0.24,0.47,4.0
1758078232.0242,1758078218.69088,0.0,0.0,0.0,41.25296,16.95955,0.0,9.73,-0.21,0.17,4.0
1758078232.02597,1758078218.70088,0.0,0.0,0.0,41.25296,17.6471,-0.57296,9.73,-0.21,0.17,4.0
1758078232.04169,1758078218.71088,0.0,0.0,0.0,41.31026,17.24603,-1.60428,9.57,-0.29,0.16,4.0
1758078232.04262,1758078218.72088,0.0,0.0,0.0,41.13837,16.55848,-2.29183,9.49,-0.4,0.13,4.0
1758078232.05767,1758078218.73088,0.0,0.0,0.0,41.02378,15.87093,-2.92208,9.49,-0.4,0.13,4.0
1758078232.07495,1758078218.74088,0.0,0.0,0.0,40.68,15.12609,-3.32316,9.57,-0.41,0.07,4.0
1758078232.07861,1758078218.75088,0.0,0.0,0.0,40.10705,14.03747,-3.49504,9.57,-0.41,0.07,4.0
1758078232.09466,1758078218.76088,0.0,0.0,0.0,39.82057,12.43318,-3.32316,9.55,-0.31,0.05,4.0
1758078232.09747,1758078218.77088,0.0,0.0,0.0,39.3622,10.59972,-3.03668,9.55,-0.31,0.05,4.0
1758078232.11243,1758078218.78088,0.0,0.0,0.0,39.19032,7.44845,-2.97938,9.38,-0.21,0.09,4.0
1758078232.11398,1758078218.79088,0.0,0.0,0.0,39.87786,-0.40107,-3.55234,8.88,-0.32,-0.09,4.0
1758078232.12841,1758078218.80088,0.0,0.0,0.0,40.68,-6.24524,-3.55234,8.88,-0.32,-0.09,4.0
1758078232.14471,1758078218.81088,0.0,0.0,0.0,41.88322,-9.28192,-4.0107,8.92,-0.6,-0.44,4.0
1758078232.14588,1758078218.82088,0.0,0.0,0.0,43.94586,-10.08406,-4.98473,8.92,-0.6,-0.44,4.0
1758078232.16071,1758078218.83088,0.0,0.0,0.0,45.49285,-9.5684,-5.78687,9.31,-0.81,-0.57,4.0
1758078232.16273,1758078218.84088,0.0,0.0,0.0,47.03984,-8.99544,-6.53172,9.31,-0.81,-0.57,4.0
1758078232.17772,1758078218.85088,0.0,0.0,0.0,48.64412,-8.93814,-7.21927,9.72,-0.84,-0.09,4.0
1758078232.19375,1758078218.86088,0.0,0.0,0.0,50.59217,-10.02676,-7.39116,9.72,-0.84,0.98,4.0
1758078232.19456,1758078218.87088,0.0,0.0,0.0,51.39432,-10.31324,-6.8182,10.85,-0.44,0.98,4.0
1758078232.20971,1758078218.88088,0.0,0.0,0.0,51.85268,-9.33921,-4.92744,12.3,0.32,2.1,4.0
1758078232.21063,1758078218.89088,0.0,0.0,0.0,50.93595,-8.65166,-2.11994,12.3,0.32,2.1,4.0
1758078232.22773,1758078218.90088,0.0,0.0,0.0,48.24305,-9.62569,2.40642,12.91,1.1,2.92,4.0
1758078232.24372,1758078218.91088,0.0,0.0,0.0,46.2377,-11.28727,4.81285,12.91,1.1,2.92,4.0
1758078232.24467,1758078218.92088,0.0,0.0,0.0,44.748,-12.77696,5.84417,12.66,1.1,2.82,4.0
1758078232.25973,1758078218.93088,0.0,0.0,0.0,43.20102,-10.59972,5.21392,12.66,1.1,2.82,4.0
1758078232.26148,1758078218.94088,0.0,0.0,0.0,41.65404,-8.0787,2.57831,12.33,0.59,1.74,4.0
1758078232.27878,1758078218.95088,0.0,0.0,0.0,41.71133,-11.91752,0.57296,11.17,0.18,1.51,4.0
1758078232.29479,1758078218.96088,0.0,0.0,0.0,42.39888,-17.24603,-1.43239,11.17,0.18,1.51,4.0
1758078232.29596,1758078218.97088,0.0,0.0,0.0,44.17505,-21.60051,-2.46372,10.59,0.16,1.46,4.0
1758078232.31275,1758078218.98088,0.0,0.0,0.0,46.86795,-24.92367,-2.29183,10.59,0.16,1.46,4.0
1758078232.31396,1758078218.99088,0.0,0.0,0.0,48.52953,-22.63183,-1.3178,10.78,0.41,1.75,4.0
1758078232.32855,1758078219.00088,0.0,0.0,0.0,50.82136,-11.34457,0.0573,10.78,0.41,1.75,4.0
1758078232.34455,1758078219.01088,0.0,0.0,0.0,51.90998,3.20856,1.20321,11.39,0.88,2.42,4.0
1758078232.34524,1758078219.02088,0.0,0.0,0.0,53.68615,8.02141,2.86479,9.62,1.38,3.5,4.0
1758078232.36067,1758078219.03088,0.0,0.0,0.0,55.40502,8.0787,3.20856,9.62,1.38,3.5,4.0
1758078232.36245,1758078219.04088,0.0,0.0,0.0,57.41038,8.0787,3.26586,9.1,1.36,3.38,4.0
1758078232.37772,1758078219.05088,0.0,0.0,0.0,60.73353,7.39116,3.38045,9.1,1.36,3.38,4.0
1758078232.39382,1758078219.06088,0.0,0.0,0.0,62.68159,8.136,3.26586,9.64,1.15,1.99,4.0
1758078232.39421,1758078219.07088,0.0,0.0,0.0,63.59832,10.31324,2.92208,9.64,1.15,1.99,4.0
1758078232.41968,1758078219.08088,0.0,0.0,0.0,63.88479,13.5218,2.6929,9.95,1.0,1.67,4.0
1758078232.42254,1758078219.09088,0.0,0.0,0.0,62.68159,17.58981,2.23454,9.86,1.0,1.61,4.0
1758078232.42314,1758078219.10088,0.0,0.0,0.0,60.96271,19.59516,2.46372,9.86,1.21,1.61,4.0
1758078232.43861,1758078219.11088,0.0,0.0,0.0,58.84277,20.62648,2.57831,9.7,1.68,1.68,4.0
1758078232.45501,1758078219.12088,0.0,0.0,0.0,56.20716,21.6578,2.86479,9.7,1.68,1.68,4.0
1758078232.45633,1758078219.13088,0.0,0.0,0.0,52.76942,19.99623,3.03668,9.6,2.0,1.42,4.0
1758078232.47269,1758078219.14088,0.0,0.0,0.0,50.64947,18.79302,3.20856,9.6,2.0,1.42,4.0
1758078232.4777,1758078219.15088,0.0,0.0,0.0,49.15978,18.56383,3.09397,9.47,2.15,1.32,4.0
1758078232.51474,1758078219.16088,0.0,0.0,0.0,47.89928,18.9649,2.6929,9.47,2.15,1.32,4.0
1758078232.51763,1758078219.17088,0.0,0.0,0.0,46.52417,19.25138,1.94806,9.39,2.02,1.29,4.0
1758078232.51873,1758078219.18088,0.0,0.0,0.0,46.00851,19.13679,1.14592,9.13,1.79,1.39,4.0
1758078232.51993,1758078219.19088,0.0,0.0,0.0,45.83662,20.62648,0.0,9.13,1.79,1.39,4.0
1758078232.52255,1758078219.20088,0.0,0.0,0.0,45.89392,22.40265,1.43239,9.13,1.38,1.43,4.0
1758078232.53765,1758078219.21088,0.0,0.0,0.0,44.86259,20.22541,1.3751,9.13,1.38,1.43,4.0
1758078232.55362,1758078219.22088,0.0,0.0,0.0,44.51882,21.7151,1.77617,8.91,1.34,1.1,4.0
1758078232.55422,1758078219.23088,0.0,0.0,0.0,43.83128,23.89234,1.48969,8.91,1.34,1.1,4.0
1758078232.57168,1758078219.24088,0.0,0.0,0.0,43.02913,22.51724,1.60428,9.26,1.46,1.42,4.0
1758078232.57438,1758078219.25088,0.0,0.0,0.0,42.57077,20.34,1.66158,8.9,1.6,1.42,4.0
1758078232.59324,1758078219.26088,0.0,0.0,0.0,42.22699,17.93358,1.66158,8.9,1.6,1.42,4.0
1758078232.59953,1758078219.27088,0.0,0.0,0.0,41.59674,15.58445,1.60428,8.98,1.62,1.31,4.0
1758078232.60257,1758078219.28088,0.0,0.0,0.0,40.50812,12.49048,1.66158,8.98,1.62,1.31,4.0
1758078232.61099,1758078219.29088,0.0,0.0,0.0,39.76327,10.94349,1.77617,9.07,1.57,1.13,4.0
1758078232.63193,1758078219.30088,0.0,0.0,0.0,38.61736,10.19865,2.00535,9.07,1.57,1.13,4.0
1758078232.63286,1758078219.31088,0.0,0.0,0.0,37.35685,10.8862,2.29183,9.19,1.5,1.13,4.0
1758078232.64795,1758078219.32088,0.0,0.0,0.0,35.3515,13.34992,3.55234,9.44,1.49,1.08,4.0
1758078232.64964,1758078219.33088,0.0,0.0,0.0,33.74722,14.49583,4.58366,9.44,1.49,1.08,4.0
1758078232.66523,1758078219.34088,0.0,0.0,0.0,31.91375,15.29797,5.55769,9.44,1.57,1.07,4.0
1758078232.68095,1758078219.35088,0.0,0.0,0.0,29.8511,16.04282,6.53172,9.44,1.57,1.07,4.0
1758078232.68275,1758078219.36088,0.0,0.0,0.0,26.41335,16.61578,7.79223,9.47,1.67,0.86,4.0
1758078232.69767,1758078219.37088,0.0,0.0,0.0,23.94964,17.58981,8.59437,9.47,1.67,0.86,4.0
1758078232.69886,1758078219.38088,0.0,0.0,0.0,21.60051,18.62113,9.39651,9.58,1.71,0.76,4.0
1758078232.71422,1758078219.39088,0.0,0.0,0.0,19.19409,18.85031,9.96947,9.58,1.71,0.76,4.0
1758078232.73175,1758078219.40088,0.0,0.0,0.0,15.87093,17.53251,10.54242,9.57,1.7,0.88,4.0
1758078232.73286,1758078219.41088,0.0,0.0,0.0,13.5218,15.64175,10.71431,9.43,1.69,0.95,4.0
1758078232.74773,1758078219.42088,0.0,0.0,0.0,11.28727,13.86558,11.17268,9.43,1.69,0.95,4.0
1758078232.74888,1758078219.43088,0.0,0.0,0.0,8.30789,11.91752,11.34457,9.4,1.66,0.86,4.0
1758078232.76428,1758078219.44088,0.0,0.0,0.0,6.24524,7.50575,11.11538,9.4,1.66,0.86,4.0
1758078232.77971,1758078219.45088,0.0,0.0,0.0,4.64096,5.09932,11.00079,9.36,1.6,0.81,4.0
1758078232.78093,1758078219.46088,0.0,0.0,0.0,3.49504,2.46372,11.00079,9.36,1.6,0.81,4.0
1758078232.79648,1758078219.47088,0.0,0.0,0.0,2.00535,-1.08862,11.11538,9.49,1.47,0.78,4.0
1758078232.813,1758078219.48088,0.0,0.0,0.0,1.14592,-2.7502,11.17268,9.49,1.25,0.64,4.0
1758078232.81391,1758078219.49088,0.0,0.0,0.0,0.68755,-4.1253,11.34457,9.49,1.25,0.64,4.0
1758078232.82901,1758078219.50088,0.0,0.0,0.0,-0.11459,-5.55769,11.57375,9.35,1.05,0.44,4.0
1758078232.82991,1758078219.51088,0.0,0.0,0.0,-1.14592,-7.10468,11.80293,9.35,1.05,0.44,4.0
1758078232.84698,1758078219.52088,0.0,0.0,0.0,-1.71887,-7.50575,11.97482,9.27,0.98,0.37,4.0
1758078232.86201,1758078219.53088,0.0,0.0,0.0,-2.40642,-7.62034,12.14671,9.27,0.98,0.37,4.0
1758078232.86371,1758078219.54088,0.0,0.0,0.0,-2.97938,-7.50575,11.97482,9.64,1.02,0.65,4.0
1758078232.87892,1758078219.55088,0.0,0.0,0.0,-3.83882,-8.70896,11.51645,10.64,0.99,1.46,4.0
1758078232.88233,1758078219.56088,0.0,0.0,0.0,-3.66693,-11.34457,10.8289,10.64,0.99,1.46,4.0
1758078232.92309,1758078219.57088,0.0,0.0,0.0,-3.55234,-14.78231,9.68299,11.45,1.0,2.42,4.0
1758078232.92504,1758078219.58088,0.0,0.0,0.0,-2.86479,-18.27736,8.136,11.45,1.0,2.42,4.0
1758078232.92917,1758078219.59088,0.0,0.0,0.0,-1.03132,-22.63183,6.24524,12.03,0.94,3.22,4.0
1758078232.93102,1758078219.60088,0.0,0.0,0.0,0.11459,-25.09555,5.61499,12.03,0.94,3.22,4.0
1758078232.93162,1758078219.61088,0.0,0.0,0.0,0.34377,-25.26744,5.61499,11.69,1.17,3.08,4.0
1758078232.94779,1758078219.62088,0.0,0.0,0.0,-0.11459,-21.88699,6.8182,11.69,1.17,3.08,4.0
1758078232.94934,1758078219.63088,0.0,0.0,0.0,-2.00535,-15.64175,7.67763,11.61,1.37,2.31,4.0
1758078232.9704,1758078219.64088,0.0,0.0,0.0,-3.89611,-11.28727,8.02141,11.36,1.26,1.85,4.0
1758078232.9769,1758078219.65088,0.0,0.0,0.0,-6.58902,-6.24524,7.96411,11.36,1.26,1.85,4.0
1758078232.99315,1758078219.66088,0.0,0.0,0.0,-9.5684,1.48969,8.136,11.18,1.21,2.33,4.0
1758078232.99397,1758078219.67088,0.0,0.0,0.0,-11.28727,0.11459,7.21927,11.18,1.21,2.33,4.0
1758078233.00914,1758078219.68088,0.0,0.0,0.0,-11.91752,-11.80293,6.58902,9.55,0.78,2.85,4.0
1758078233.01278,1758078219.69088,0.0,0.0,0.0,-12.37589,-29.96569,6.7609,9.55,0.78,2.85,4.0
1758078233.02811,1758078219.70088,0.0,0.0,0.0,-12.204,-37.87251,5.90147,8.13,0.46,3.1,4.0
1758078233.02905,1758078219.71088,0.0,0.0,0.0,-12.37589,-37.75792,4.87014,9.36,-0.03,2.95,4.0
1758078233.05085,1758078219.72088,0.0,0.0,0.0,-13.40721,-37.18496,3.49504,9.36,-0.03,2.95,4.0
1758078233.05206,1758078219.73088,0.0,0.0,0.0,-15.29797,-36.55471,1.3751,9.25,-0.11,3.7,4.0
1758078233.06689,1758078219.74088,0.0,0.0,0.0,-19.48057,-35.06502,-1.77617,9.25,-0.11,3.7,4.0
1758078233.08292,1758078219.75088,0.0,0.0,0.0,-22.23076,-33.11696,-2.57831,9.6,0.22,4.17,4.0
1758078233.08409,1758078219.76088,0.0,0.0,0.0,-24.57989,-25.15285,-2.29183,9.6,0.22,4.17,4.0
1758078233.09894,1758078219.77088,0.0,0.0,0.0,-26.35606,-16.38659,-0.97403,10.81,0.47,3.4,4.0
1758078233.1001,1758078219.78088,0.0,0.0,0.0,-28.41871,-10.02676,0.45837,10.46,0.22,3.14,4.0
1758078233.1162,1758078219.79088,0.0,0.0,0.0,-28.13223,-14.03747,0.97403,10.46,0.22,3.14,4.0
1758078233.13188,1758078219.80088,0.0,0.0,0.0,-28.76248,-16.90226,-0.34377,9.56,-0.14,2.53,4.0
1758078233.1331,1758078219.81088,0.0,0.0,0.0,-28.30412,-14.49583,-0.85944,9.56,-0.14,2.53,4.0
1758078233.1479,1758078219.82088,0.0,0.0,0.0,-26.35606,-4.81285,-1.3178,10.43,-0.39,1.62,4.0
1758078233.14911,1758078219.83088,0.0,0.0,0.0,-24.4653,0.74485,-1.43239,10.43,-0.39,1.62,4.0
1758078233.1662,1758078219.84088,0.0,0.0,0.0,-22.63183,4.1253,-1.3751,9.93,-0.76,1.75,4.0
1758078233.18272,1758078219.85088,0.0,0.0,0.0,-19.36597,6.07335,-1.20321,9.93,-0.76,1.75,4.0
1758078233.18414,1758078219.86088,0.0,0.0,0.0,-17.47521,6.07335,-0.80214,9.25,-1.02,2.1,4.0
1758078233.19927,1758078219.87088,0.0,0.0,0.0,-15.69904,6.07335,-0.74485,9.21,-1.01,1.76,4.0
1758078233.20099,1758078219.88088,0.0,0.0,0.0,-14.61043,7.73493,-0.11459,9.21,-1.01,1.76,4.0
1758078233.217,1758078219.89088,0.0,0.0,0.0,-12.83425,9.91217,0.45837,9.31,-0.87,1.52,4.0
1758078233.23322,1758078219.90088,0.0,0.0,0.0,-11.80293,11.11538,0.85944,9.31,-0.87,1.52,4.0
1758078233.23415,1758078219.91088,0.0,0.0,0.0,-11.17268,11.63104,1.3178,8.94,-0.77,1.58,4.0
1758078233.25299,1758078219.92088,0.0,0.0,0.0,-10.65701,11.86023,1.3178,8.94,-0.77,1.58,4.0
1758078233.25665,1758078219.93088,0.0,0.0,0.0,-10.02676,11.22997,1.08862,8.68,-0.74,1.69,4.0
1758078233.27301,1758078219.94088,0.0,0.0,0.0,-9.5684,10.19865,0.97403,8.51,-0.75,1.58,4.0
1758078233.27472,1758078219.95088,0.0,0.0,0.0,-9.11003,8.30789,0.74485,8.51,-0.75,1.58,4.0
1758078233.29027,1758078219.96088,0.0,0.0,0.0,-8.88085,6.47442,0.51566,8.3,-0.85,1.56,4.0
1758078233.29307,1758078219.97088,0.0,0.0,0.0,-7.62034,3.83882,0.34377,8.3,-0.85,1.56,4.0
1758078233.30823,1758078219.98088,0.0,0.0,0.0,-6.47442,2.23454,0.40107,8.26,-0.87,1.5,4.0
1758078233.30942,1758078219.99088,0.0,0.0,0.0,-5.50039,0.97403,0.34377,8.26,-0.87,1.5,4.0
1758078233.3273,1758078220.00088,0.0,0.0,0.0,-4.29718,0.0,0.34377,8.33,-0.95,1.59,4.0
1758078233.34297,1758078220.01088,0.0,0.0,0.0,-2.40642,-0.45837,0.40107,8.45,-0.93,1.56,4.0
1758078233.34419,1758078220.02088,0.0,0.0,0.0,-1.20321,-0.57296,0.45837,8.45,-0.93,1.56,4.0
1758078233.35897,1758078220.03088,0.0,0.0,0.0,-0.0573,0.0,0.45837,8.56,-0.83,1.41,4.0
1758078233.36068,1758078220.04088,0.0,0.0,0.0,0.97403,1.3751,0.51566,8.56,-0.83,1.41,4.0
1758078233.37505,1758078220.05088,0.0,0.0,0.0,2.11994,0.11459,0.34377,8.45,-0.73,1.19,4.0
1758078233.39226,1758078220.06088,0.0,0.0,0.0,3.09397,-1.14592,0.0,8.45,-0.73,1.19,4.0
1758078233.39431,1758078220.07088,0.0,0.0,0.0,3.95341,-2.40642,-0.11459,8.2,-0.75,0.91,4.0
1758078233.40928,1758078220.08088,0.0,0.0,0.0,5.09932,-1.08862,-0.85944,8.2,-0.75,0.91,4.0
1758078233.41025,1758078220.09088,0.0,0.0,0.0,5.55769,-0.11459,-1.60428,8.46,-0.68,0.61,4.0
1758078233.42617,1758078220.10088,0.0,0.0,0.0,6.18794,-0.68755,-2.00535,8.56,-0.69,0.67,4.0
1758078233.44235,1758078220.11088,0.0,0.0,0.0,6.87549,-1.20321,-2.46372,8.56,-0.69,0.67,4.0
1758078233.44725,1758078220.12088,0.0,0.0,0.0,8.65166,-1.77617,-3.32316,8.83,-0.72,0.67,4.0
1758078233.45299,1758078220.13088,0.0,0.0,0.0,10.25595,-2.06265,-3.83882,8.83,-0.72,0.67,4.0
1758078233.46799,1758078220.14088,0.0,0.0,0.0,12.08941,-2.92208,-4.35448,9.1,-0.75,0.67,4.0
1758078233.46925,1758078220.15088,0.0,0.0,0.0,14.20935,-4.1253,-4.92744,9.1,-0.75,0.67,4.0
1758078233.48669,1758078220.16088,0.0,0.0,0.0,17.18874,-6.8182,-5.78687,9.08,-0.74,0.82,4.0
1758078233.50287,1758078220.17088,0.0,0.0,0.0,18.62113,-7.62034,-6.53172,9.1,-0.66,0.83,4.0
1758078233.50403,1758078220.18088,0.0,0.0,0.0,20.22541,-7.33386,-6.8182,9.1,-0.66,0.83,4.0
1758078233.51903,1758078220.19088,0.0,0.0,0.0,21.31403,-7.96411,-7.16197,9.2,-0.56,0.75,4.0
1758078233.52029,1758078220.20088,0.0,0.0,0.0,22.28806,-9.33921,-7.62034,9.2,-0.56,0.75,4.0
1758078233.53511,1758078220.21088,0.0,0.0,0.0,22.57454,-9.96947,-7.96411,9.18,-0.48,0.8,4.0
1758078233.55111,1758078220.22088,0.0,0.0,0.0,22.63183,-10.54242,-8.36518,9.18,-0.48,0.8,4.0
1758078233.55626,1758078220.23088,0.0,0.0,0.0,22.63183,-10.25595,-8.47978,9.32,-0.46,0.6,4.0
1758078233.57112,1758078220.24088,0.0,0.0,0.0,23.0902,-11.51645,-9.28192,9.39,-0.51,0.57,4.0
1758078233.57231,1758078220.25088,0.0,0.0,0.0,23.49127,-11.34457,-9.39651,9.39,-0.51,0.57,4.0
1758078233.58792,1758078220.26088,0.0,0.0,0.0,24.12152,-11.86023,-9.68299,9.5,-0.55,0.63,4.0
1758078233.58912,1758078220.27088,0.0,0.0,0.0,24.80907,-12.54778,-10.02676,9.5,-0.55,0.63,4.0
1758078233.60644,1758078220.28088,0.0,0.0,0.0,25.21014,-12.204,-10.19865,9.44,-0.51,0.66,4.0
1758078233.62315,1758078220.29088,0.0,0.0,0.0,25.61122,-11.80293,-10.08406,9.44,-0.51,0.66,4.0
1758078233.62432,1758078220.30088,0.0,0.0,0.0,25.7831,-11.51645,-10.08406,9.31,-0.49,0.63,4.0
1758078233.63915,1758078220.31088,0.0,0.0,0.0,25.72581,-11.57375,-9.96947,9.31,-0.49,0.63,4.0
1758078233.64035,1758078220.32088,0.0,0.0,0.0,25.72581,-12.14671,-9.62569,9.0,-0.45,0.55,4.0
1758078233.65515,1758078220.33088,0.0,0.0,0.0,25.43933,-13.17803,-9.4538,8.69,-0.41,0.3,4.0
1758078233.67254,1758078220.34088,0.0,0.0,0.0,25.09555,-14.49583,-9.4538,8.69,-0.41,0.3,4.0
1758078233.6734,1758078220.35088,0.0,0.0,0.0,24.80907,-15.75634,-9.33921,8.32,-0.4,0.02,4.0
1758078233.68926,1758078220.36088,0.0,0.0,0.0,24.75178,-16.50119,-9.28192,8.32,-0.4,0.02,4.0
1758078233.69446,1758078220.37088,0.0,0.0,0.0,24.80907,-17.93358,-9.05273,7.88,-0.42,-0.08,4.0
1758078233.7174,1758078220.38088,0.0,0.0,0.0,24.75178,-19.42327,-8.88085,7.88,-0.42,-0.08,4.0
1758078233.71944,1758078220.39088,0.0,0.0,0.0,24.86637,-22.23076,-8.30789,7.35,-0.48,-0.13,4.0
1758078233.72112,1758078220.40088,0.0,0.0,0.0,25.09555,-24.29341,-8.02141,6.96,-0.5,-0.13,4.0
1758078233.73647,1758078220.41088,0.0,0.0,0.0,25.38203,-26.35606,-7.10468,6.96,-0.5,-0.13,4.0
1758078233.75242,1758078220.42088,0.0,0.0,0.0,25.72581,-28.70519,-5.90147,7.11,-0.33,0.31,4.0
1758078233.75337,1758078220.43088,0.0,0.0,0.0,26.41335,-32.08564,-3.26586,7.11,-0.33,0.31,4.0
1758078233.76845,1758078220.44088,0.0,0.0,0.0,26.47065,-33.23156,-1.08862,8.79,0.11,1.72,4.0
1758078233.76939,1758078220.45088,0.0,0.0,0.0,25.89769,-32.48671,2.06265,8.79,0.11,1.72,4.0
1758078233.7883,1758078220.46088,0.0,0.0,0.0,23.37668,-29.04896,8.59437,13.18,0.98,4.1,4.0
1758078233.79352,1758078220.47088,0.0,0.0,0.0,18.22006,-25.43933,12.2613,15.85,2.38,5.44,4.0
1758078233.81019,1758078220.48088,0.0,0.0,0.0,13.00614,-28.07493,14.43854,15.85,2.38,5.44,4.0
1758078233.81469,1758078220.49088,0.0,0.0,0.0,5.72958,-31.45539,13.5218,13.84,3.0,4.62,4.0
1758078233.83026,1758078220.50088,0.0,0.0,0.0,-5.4431,-38.73195,7.44845,13.84,3.0,4.62,4.0
1758078233.83333,1758078220.51088,0.0,0.0,0.0,-10.59972,-38.1017,2.46372,12.91,2.61,2.31,4.0
1758078233.8485,1758078220.52088,0.0,0.0,0.0,-15.12609,-37.12767,-2.00535,12.91,2.61,2.31,4.0
1758078233.84943,1758078220.53088,0.0,0.0,0.0,-16.73037,-31.28349,-5.21392,14.72,2.41,0.79,4.0
1758078233.86525,1758078220.54088,0.0,0.0,0.0,-16.10011,-13.80828,-7.10468,15.84,2.41,-0.15,4.0
1758078233.88256,1758078220.55088,0.0,0.0,0.0,-14.15206,-2.23454,-7.44845,15.84,2.24,-0.15,4.0
1758078233.88345,1758078220.56088,0.0,0.0,0.0,-11.28727,6.35983,-7.33386,14.69,1.72,-0.11,4.0
1758078233.89855,1758078220.57088,0.0,0.0,0.0,-8.02141,13.23533,-7.04738,14.69,1.72,-0.11,4.0
1758078233.89946,1758078220.58088,0.0,0.0,0.0,-2.57831,20.97026,-7.04738,14.0,1.14,0.0,4.0
1758078233.91532,1758078220.59088,0.0,0.0,0.0,0.68755,22.68913,-7.16197,14.0,1.14,0.0,4.0
1758078233.93129,1758078220.60088,0.0,0.0,0.0,3.72423,21.6578,-7.50575,13.54,0.77,0.35,4.0
1758078233.9341,1758078220.61088,0.0,0.0,0.0,6.7609,18.44924,-8.0787,13.54,0.77,0.35,4.0
1758078233.94958,1758078220.62088,0.0,0.0,0.0,10.59972,12.89155,-8.99544,12.64,0.46,0.94,4.0
1758078233.95241,1758078220.63088,0.0,0.0,0.0,13.06344,8.42248,-9.62569,11.5,0.24,1.0,4.0
1758078233.99454,1758078220.64088,0.0,0.0,0.0,14.43854,5.15662,-9.62569,11.5,0.24,1.0,4.0
1758078233.99871,1758078220.65088,0.0,0.0,0.0,15.24068,5.27121,-9.28192,10.54,0.36,0.91,4.0
1758078233.99924,1758078220.66088,0.0,0.0,0.0,15.64175,3.72423,-8.136,10.54,0.36,0.91,4.0
1758078234.00232,1758078220.67088,0.0,0.0,0.0,15.35527,3.09397,-7.44845,9.55,0.63,0.98,4.0
1758078234.00276,1758078220.68088,0.0,0.0,0.0,14.49583,2.97938,-6.70361,9.55,0.63,0.98,4.0
1758078234.01858,1758078220.69088,0.0,0.0,0.0,13.23533,6.70361,-5.32851,9.04,0.95,0.67,4.0
1758078234.01953,1758078220.70088,0.0,0.0,0.0,12.2613,8.93814,-4.52637,8.62,1.15,0.61,4.0
1758078234.03563,1758078220.71088,0.0,0.0,0.0,10.59972,10.08406,-4.1253,8.62,1.15,0.61,4.0
1758078234.05238,1758078220.72088,0.0,0.0,0.0,8.99544,10.31324,-3.89611,8.12,1.25,0.71,4.0
1758078234.05439,1758078220.73088,0.0,0.0,0.0,6.47442,8.47978,-3.95341,8.12,1.25,0.71,4.0
1758078234.06961,1758078220.74088,0.0,0.0,0.0,4.98473,5.95876,-3.89611,7.84,1.39,0.63,4.0
1758078234.07067,1758078220.75088,0.0,0.0,0.0,3.60963,4.1253,-3.83882,7.84,1.39,0.63,4.0
1758078234.08557,1758078220.76088,0.0,0.0,0.0,2.29183,3.03668,-3.66693,7.94,1.55,0.52,4.0
1758078234.10317,1758078220.77088,0.0,0.0,0.0,0.17189,1.14592,-3.55234,8.17,1.6,0.58,4.0
1758078234.10434,1758078220.78088,0.0,0.0,0.0,-0.85944,0.74485,-3.32316,8.17,1.6,0.58,4.0
1758078234.11958,1758078220.79088,0.0,0.0,0.0,-2.11994,0.85944,-2.97938,8.51,1.59,0.56,4.0
1758078234.12061,1758078220.80088,0.0,0.0,0.0,-2.92208,1.3751,-2.63561,8.51,1.59,0.56,4.0
1758078234.13538,1758078220.81088,0.0,0.0,0.0,-3.72423,3.38045,-1.83346,8.73,1.47,0.46,4.0
1758078234.15217,1758078220.82088,0.0,0.0,0.0,-4.23989,4.58366,-1.48969,8.73,1.47,0.46,4.0
1758078234.15415,1758078220.83088,0.0,0.0,0.0,-4.81285,5.09932,-1.3751,8.78,1.3,0.35,4.0
1758078234.16984,1758078220.84088,0.0,0.0,0.0,-5.27121,4.87014,-1.3751,8.78,1.3,0.35,4.0
1758078234.17059,1758078220.85088,0.0,0.0,0.0,-5.90147,4.0107,-1.14592,8.58,1.11,0.09,4.0
1758078234.18626,1758078220.86088,0.0,0.0,0.0,-6.41713,3.83882,-0.85944,8.56,0.94,-0.03,4.0
1758078234.19432,1758078220.87088,0.0,0.0,0.0,-6.99009,3.20856,-0.45837,8.56,0.94,-0.03,4.0
1758078234.20944,1758078220.88088,0.0,0.0,0.0,-8.36518,2.40642,0.97403,8.69,0.96,-0.07,4.0
1758078234.21058,1758078220.89088,0.0,0.0,0.0,-9.22462,0.97403,2.34913,8.69,0.96,-0.07,4.0
1758078234.22571,1758078220.90088,0.0,0.0,0.0,-10.02676,-0.34377,3.89611,8.98,1.1,-0.1,4.0
1758078234.24225,1758078220.91088,0.0,0.0,0.0,-10.94349,-1.3751,5.21392,8.98,1.1,-0.1,4.0
1758078234.24341,1758078220.92088,0.0,0.0,0.0,-11.97482,-3.60963,7.04738,9.21,1.13,-0.18,4.0
1758078234.2587,1758078220.93088,0.0,0.0,0.0,-12.37589,-5.27121,7.96411,9.31,0.98,-0.24,4.0
1758078234.25962,1758078220.94088,0.0,0.0,0.0,-12.37589,-6.7609,8.76626,9.31,0.98,-0.24,4.0
1758078234.2777,1758078220.95088,0.0,0.0,0.0,-12.14671,-7.62034,9.39651,9.52,0.8,-0.4,4.0
1758078234.29375,1758078220.96088,0.0,0.0,0.0,-11.74564,-8.93814,10.31324,9.52,0.8,-0.4,4.0
1758078234.29469,1758078220.97088,0.0,0.0,0.0,-11.00079,-10.02676,10.71431,9.58,0.67,-0.52,4.0
1758078234.30973,1758078220.98088,0.0,0.0,0.0,-9.91217,-11.34457,11.17268,9.58,0.67,-0.52,4.0
1758078234.31063,1758078220.99088,0.0,0.0,0.0,-8.93814,-11.97482,11.34457,9.45,0.54,-0.62,4.0
1758078234.32547,1758078221.00088,0.0,0.0,0.0,-7.39116,-12.83425,11.74564,9.39,0.4,-0.53,4.0
1758078234.3418,1758078221.01088,0.0,0.0,0.0,-6.35983,-13.12073,11.80293,9.39,0.4,-0.53,4.0
1758078234.37548,1758078221.02088,0.0,0.0,0.0,0.40107,-12.49048,11.74564,9.69,0.31,-0.2,4.0
1758078234.39254,1758078221.03088,0.0,0.0,0.0,2.6929,-11.86023,11.63104,9.82,0.31,-0.27,4.0
1758078234.39391,1758078221.04088,0.0,0.0,0.0,5.4431,-11.28727,11.45916,9.82,0.31,-0.27,4.0
1758078234.40878,1758078221.05088,0.0,0.0,0.0,9.39651,-10.8862,11.22997,9.82,0.23,-0.34,4.0
1758078234.41236,1758078221.06088,0.0,0.0,0.0,12.2613,-10.94349,10.94349,9.67,0.13,-0.47,4.0
1758078234.42879,1758078221.07088,0.0,0.0,0.0,15.06879,-10.08406,10.8289,9.67,0.13,-0.47,4.0
1758078234.43054,1758078221.08088,0.0,0.0,0.0,19.25138,-8.70896,10.02676,9.52,0.04,-0.65,4.0
1758078234.44665,1758078221.09088,0.0,0.0,0.0,22.05888,-8.42248,9.68299,9.52,0.04,-0.65,4.0
1758078234.46349,1758078221.10088,0.0,0.0,0.0,24.80907,-8.36518,9.11003,9.21,0.01,-0.64,4.0
1758078234.46469,1758078221.11088,0.0,0.0,0.0,27.10091,-8.65166,8.70896,9.21,0.01,-0.64,4.0
1758078234.4799,1758078221.12088,0.0,0.0,0.0,30.76784,-8.99544,8.30789,9.04,0.03,-0.59,4.0
1758078234.48078,1758078221.13088,0.0,0.0,0.0,33.00237,-9.33921,8.36518,8.95,0.09,-0.59,4.0
1758078234.49584,1758078221.14088,0.0,0.0,0.0,34.95043,-9.33921,8.47978,8.95,0.09,-0.59,4.0
1758078234.5128,1758078221.15088,0.0,0.0,0.0,36.89849,-8.65166,8.65166,8.89,0.15,-0.6,4.0
1758078234.51373,1758078221.16088,0.0,0.0,0.0,39.4195,-7.21927,8.99544,8.89,0.15,-0.6,4.0
1758078234.52863,1758078221.17088,0.0,0.0,0.0,41.02378,-6.7609,8.99544,8.75,0.18,-0.56,4.0
1758078234.53096,1758078221.18088,0.0,0.0,0.0,42.51347,-6.8182,8.99544,8.75,0.18,-0.56,4.0
1758078234.54788,1758078221.19088,0.0,0.0,0.0,44.00316,-7.44845,8.70896,8.37,0.15,-0.52,4.0
1758078234.56386,1758078221.20088,0.0,0.0,0.0,46.2377,-7.73493,7.84952,8.46,-0.01,-0.37,4.0
1758078234.56506,1758078221.21088,0.0,0.0,0.0,47.95657,-7.73493,6.58902,8.46,-0.01,-0.37,4.0
1758078234.57958,1758078221.22088,0.0,0.0,0.0,49.84733,-7.50575,4.87014,9.75,-0.38,0.39,4.0
1758078234.58158,1758078221.23088,0.0,0.0,0.0,52.54023,-8.36518,2.46372,9.75,-0.38,0.39,4.0
1758078234.59755,1758078221.24088,0.0,0.0,0.0,57.86874,-11.00079,-0.85944,11.79,-0.7,1.17,4.0
1758078234.61368,1758078221.25088,0.0,0.0,0.0,61.99404,-12.37589,-2.06265,11.79,-0.7,1.17,4.0
1758078234.61471,1758078221.26088,0.0,0.0,0.0,64.57235,-15.87093,-2.86479,12.76,-0.41,1.77,4.0
1758078234.6299,1758078221.27088,0.0,0.0,0.0,67.89551,-18.27736,-0.40107,12.76,-0.41,1.77,4.0
1758078234.63076,1758078221.28088,0.0,0.0,0.0,68.06739,-24.86637,2.11994,12.05,0.5,1.52,4.0
1758078234.64589,1758078221.29088,0.0,0.0,0.0,67.09336,-31.39809,4.69825,11.05,0.93,1.31,4.0
1758078234.66185,1758078221.30088,0.0,0.0,0.0,64.91612,-35.06502,6.53172,11.05,0.93,1.31,4.0
1758078234.66277,1758078221.31088,0.0,0.0,0.0,61.93674,-27.38738,8.42248,11.7,0.67,1.15,4.0
1758078234.67793,1758078221.32088,0.0,0.0,0.0,59.81679,-18.73572,8.88085,11.7,0.67,1.15,4.0
1758078234.69395,1758078221.33088,0.0,0.0,0.0,57.58226,-10.19865,8.136,12.79,0.2,1.05,4.0
1758078234.69479,1758078221.34088,0.0,0.0,0.0,54.77477,-2.23454,6.99009,12.79,0.2,1.05,4.0
1758078234.70989,1758078221.35088,0.0,0.0,0.0,49.15978,7.84952,4.69825,13.2,0.02,0.73,4.0
1758078234.7108,1758078221.36088,0.0,0.0,0.0,45.03448,13.5218,3.20856,13.55,0.46,0.12,4.0
1758078234.72565,1758078221.37088,0.0,0.0,0.0,40.04975,18.33465,1.94806,13.55,0.46,0.12,4.0
1758078234.74194,1758078221.38088,0.0,0.0,0.0,34.72124,22.40265,1.43239,13.6,1.18,-0.02,4.0
1758078234.7436,1758078221.39088,0.0,0.0,0.0,26.64254,27.78845,1.71887,13.6,1.18,-0.02,4.0
1758078234.75875,1758078221.40088,0.0,0.0,0.0,21.48592,30.82513,2.00535,13.32,1.46,0.31,4.0
1758078234.76168,1758078221.41088,0.0,0.0,0.0,17.01685,33.68992,2.11994,13.32,1.46,0.31,4.0
1758078234.77791,1758078221.42088,0.0,0.0,0.0,13.00614,35.58068,1.83346,12.54,1.23,0.36,4.0
1758078234.79365,1758078221.43088,0.0,0.0,0.0,7.96411,35.63798,1.60428,11.68,0.79,0.22,4.0
1758078234.79488,1758078221.44088,0.0,0.0,0.0,5.50039,33.17426,1.3178,11.68,0.79,0.22,4.0
1758078234.80969,1758078221.45088,0.0,0.0,0.0,3.49504,29.73651,0.97403,11.11,0.39,0.14,4.0
1758078234.8109,1758078221.46088,0.0,0.0,0.0,1.83346,26.47065,1.03132,11.11,0.39,0.14,4.0
1758078234.8257,1758078221.47088,0.0,0.0,0.0,0.80214,21.7151,1.03132,10.64,0.01,0.0,4.0
1758078234.84198,1758078221.48088,0.0,0.0,0.0,-0.0573,18.79302,1.3178,10.64,0.01,0.0,4.0
1758078234.84368,1758078221.49088,0.0,0.0,0.0,-0.80214,17.01685,1.66158,9.92,-0.16,-0.04,4.0
1758078234.85873,1758078221.50088,0.0,0.0,0.0,-1.20321,15.75634,2.29183,9.92,-0.16,-0.04,4.0
1758078234.8603,1758078221.51088,0.0,0.0,0.0,-1.3751,15.98552,2.57831,9.43,-0.26,-0.04,4.0
1758078234.87677,1758078221.52088,0.0,0.0,0.0,-1.66158,16.3293,2.7502,9.26,-0.16,0.28,4.0
1758078234.89281,1758078221.53088,0.0,0.0,0.0,-2.00535,16.38659,2.92208,9.26,-0.16,0.28,4.0
1758078234.89397,1758078221.54088,0.0,0.0,0.0,-2.86479,14.72501,2.57831,9.05,0.06,0.69,4.0
1758078234.90896,1758078221.55088,0.0,0.0,0.0,-3.49504,13.34992,2.00535,9.05,0.06,0.69,4.0
1758078234.90985,1758078221.56088,0.0,0.0,0.0,-4.23989,12.08941,1.43239,8.89,0.27,0.71,4.0
1758078234.92573,1758078221.57088,0.0,0.0,0.0,-4.87014,11.11538,0.97403,8.89,0.27,0.71,4.0
1758078234.94194,1758078221.58088,0.0,0.0,0.0,-5.90147,9.39651,-0.17189,8.74,0.32,0.62,4.0
1758078234.94329,1758078221.59088,0.0,0.0,0.0,-6.53172,8.02141,-1.03132,8.51,0.21,0.47,4.0
1758078234.95799,1758078221.60088,0.0,0.0,0.0,-7.21927,6.8182,-2.06265,8.51,0.21,0.47,4.0
1758078234.97373,1758078221.61088,0.0,0.0,0.0,-7.73493,6.47442,-2.97938,8.51,0.0,0.35,4.0
1758078234.97492,1758078221.62088,0.0,0.0,0.0,-8.47978,7.39116,-4.52637,8.51,0.0,0.35,4.0
1758078234.99082,1758078221.63088,0.0,0.0,0.0,-8.76626,8.36518,-5.27121,8.79,-0.16,0.25,4.0
1758078234.99175,1758078221.64088,0.0,0.0,0.0,-9.11003,8.93814,-6.07335,8.79,-0.16,0.25,4.0
1758078235.00675,1758078221.65088,0.0,0.0,0.0,-9.22462,9.05273,-6.53172,8.87,-0.26,0.21,4.0
1758078235.02405,1758078221.66088,0.0,0.0,0.0,-9.22462,5.84417,-7.04738,8.59,-0.27,0.14,4.0
1758078235.02537,1758078221.67088,0.0,0.0,0.0,-9.62569,1.60428,-7.50575,8.59,-0.27,0.14,4.0
1758078235.04005,1758078221.68088,0.0,0.0,0.0,-10.02676,-1.83346,-7.73493,8.32,-0.22,-0.19,4.0
1758078235.0414,1758078221.69088,0.0,0.0,0.0,-11.34457,-2.86479,-7.96411,8.32,-0.22,-0.19,4.0
1758078235.05609,1758078221.70088,0.0,0.0,0.0,-12.2613,3.60963,-8.0787,8.87,-0.22,-0.56,4.0
1758078235.07211,1758078221.71088,0.0,0.0,0.0,-13.12073,11.80293,-9.11003,8.87,-0.22,-0.56,4.0
1758078235.07329,1758078221.72088,0.0,0.0,0.0,-13.5218,15.41257,-9.62569,9.24,-0.11,-0.37,4.0
1758078235.08778,1758078221.73088,0.0,0.0,0.0,-14.61043,13.86558,-10.71431,9.24,-0.11,-0.37,4.0
1758078235.10408,1758078221.74088,0.0,0.0,0.0,-14.49583,13.17803,-11.51645,8.45,-0.1,0.29,4.0
1758078235.105,1758078221.75088,0.0,0.0,0.0,-13.80828,12.89155,-11.80293,8.86,-0.2,0.08,4.0
1758078235.12065,1758078221.76088,0.0,0.0,0.0,-12.89155,12.43318,-11.91752,8.86,-0.2,0.08,4.0
1758078235.12375,1758078221.77088,0.0,0.0,0.0,-11.11538,11.22997,-11.97482,9.12,-0.42,-0.05,4.0
1758078235.13899,1758078221.78088,0.0,0.0,0.0,-9.74028,9.96947,-11.91752,9.12,-0.42,-0.05,4.0
1758078235.14003,1758078221.79088,0.0,0.0,0.0,-8.65166,7.67763,-11.57375,9.07,-0.58,0.01,4.0
1758078235.15663,1758078221.80088,0.0,0.0,0.0,-8.02141,4.69825,-11.80293,9.07,-0.58,0.01,4.0
1758078235.17282,1758078221.81088,0.0,0.0,0.0,-7.73493,3.83882,-11.34457,8.91,-0.54,-0.05,4.0
1758078235.17401,1758078221.82088,0.0,0.0,0.0,-7.84952,2.7502,-11.28727,9.12,-0.49,-0.14,4.0
1758078235.18912,1758078221.83088,0.0,0.0,0.0,-8.0787,1.77617,-11.11538,9.12,-0.49,-0.14,4.0
1758078235.19043,1758078221.84088,0.0,0.0,0.0,-8.76626,0.51566,-11.11538,9.11,-0.42,-0.02,4.0
1758078235.2081,1758078221.85088,0.0,0.0,0.0,-9.62569,-0.51566,-11.17268,9.11,-0.42,-0.02,4.0
1758078235.22384,1758078221.86088,0.0,0.0,0.0,-10.08406,-1.14592,-11.17268,9.17,-0.33,0.12,4.0
1758078235.22544,1758078221.87088,0.0,0.0,0.0,-10.54242,-1.94806,-11.22997,9.17,-0.33,0.12,4.0
1758078235.24013,1758078221.88088,0.0,0.0,0.0,-11.00079,-2.57831,-11.17268,9.07,-0.21,0.14,4.0
1758078235.24103,1758078221.89088,0.0,0.0,0.0,-11.45916,-3.60963,-11.17268,8.93,-0.12,0.16,4.0
1758078235.25585,1758078221.90088,0.0,0.0,0.0,-11.51645,-4.58366,-11.17268,8.93,-0.12,0.16,4.0
1758078235.27287,1758078221.91088,0.0,0.0,0.0,-11.45916,-5.78687,-11.34457,8.68,-0.09,0.04,4.0
1758078235.27417,1758078221.92088,0.0,0.0,0.0,-11.22997,-7.33386,-11.57375,8.68,-0.09,0.04,4.0
1758078235.2891,1758078221.93088,0.0,0.0,0.0,-11.00079,-8.0787,-11.80293,8.46,-0.1,-0.07,4.0
1758078235.29043,1758078221.94088,0.0,0.0,0.0,-10.65701,-7.79223,-11.97482,8.46,-0.1,-0.07,4.0
1758078235.30617,1758078221.95088,0.0,0.0,0.0,-10.19865,-7.44845,-12.204,8.4,-0.14,-0.22,4.0
1758078235.32365,1758078221.96088,0.0,0.0,0.0,-9.39651,-6.58902,-12.2613,8.3,-0.14,-0.33,4.0
1758078235.32488,1758078221.97088,0.0,0.0,0.0,-8.93814,-5.95876,-12.2613,8.3,-0.15,-0.33,4.0
1758078235.34021,1758078221.98088,0.0,0.0,0.0,-8.47978,-5.61499,-12.08941,8.06,-0.15,-0.59,4.0
1758078235.34269,1758078221.99088,0.0,0.0,0.0,-8.30789,-5.21392,-11.91752,8.06,-0.15,-0.59,4.0
1758078235.35904,1758078222.00088,0.0,0.0,0.0,-7.84952,-4.81285,-11.45916,7.84,-0.17,-0.77,4.0
1758078235.36103,1758078222.01088,0.0,0.0,0.0,-7.62034,-5.27121,-10.8862,7.84,-0.17,-0.77,4.0
1758078235.37803,1758078222.02088,0.0,0.0,0.0,-7.39116,-6.35983,-10.25595,7.98,-0.16,-0.59,4.0
1758078235.39422,1758078222.03088,0.0,0.0,0.0,-7.21927,-7.84952,-9.62569,7.98,-0.16,-0.59,4.0
1758078235.39506,1758078222.04088,0.0,0.0,0.0,-7.04738,-9.91217,-8.0787,9.05,-0.02,0.25,4.0
1758078235.41171,1758078222.05088,0.0,0.0,0.0,-6.7609,-12.08941,-6.24524,11.08,0.4,1.67,4.0
1758078235.41367,1758078222.06088,0.0,0.0,0.0,-6.99009,-14.32395,-3.72423,11.08,0.4,1.67,4.0
1758078235.42916,1758078222.07088,0.0,0.0,0.0,-7.79223,-19.07949,-1.14592,12.29,1.3,3.36,4.0
1758078235.43261,1758078222.08088,0.0,0.0,0.0,-10.19865,-26.52795,2.23454,12.29,1.3,3.36,4.0
1758078235.4481,1758078222.09088,0.0,0.0,0.0,-13.12073,-29.8511,3.83882,12.96,2.12,4.56,4.0
1758078235.46393,1758078222.10088,0.0,0.0,0.0,-16.61578,-31.16891,5.09932,12.96,2.12,4.56,4.0
1758078235.46519,1758078222.11088,0.0,0.0,0.0,-23.0329,-31.45539,6.18794,15.36,2.73,5.21,4.0
1758078235.48123,1758078222.12088,0.0,0.0,0.0,-27.78845,-28.87707,6.41713,17.33,3.47,3.58,4.0
1758078235.48294,1758078222.13088,0.0,0.0,0.0,-31.51268,-23.94964,4.52637,17.33,3.47,3.58,4.0
1758078235.49823,1758078222.14088,0.0,0.0,0.0,-33.40344,-18.62113,1.08862,15.98,2.98,0.83,4.0
1758078235.51431,1758078222.15088,0.0,0.0,0.0,-32.14294,-9.4538,-4.92744,15.98,2.98,0.83,4.0
1758078235.51522,1758078222.16088,0.0,0.0,0.0,-29.33544,-2.97938,-8.47978,13.05,1.69,-0.95,4.0
1758078235.53094,1758078222.17088,0.0,0.0,0.0,-25.43933,1.20321,-11.74564,13.05,1.69,-0.95,4.0
1758078235.53271,1758078222.18088,0.0,0.0,0.0,-22.05888,7.44845,-14.43854,12.19,0.55,-0.86,4.0
1758078235.54698,1758078222.19088,0.0,0.0,0.0,-16.21471,13.40721,-14.83961,12.34,0.24,-0.08,4.0
1758078235.56429,1758078222.20088,0.0,0.0,0.0,-12.43318,14.49583,-13.34992,12.34,0.24,-0.08,4.0
1758078235.56522,1758078222.21088,0.0,0.0,0.0,-8.76626,14.61043,-11.45916,11.81,0.21,0.58,4.0
1758078235.58032,1758078222.22088,0.0,0.0,0.0,-5.72958,16.272,-9.74028,11.81,0.21,0.58,4.0
1758078235.58238,1758078222.23088,0.0,0.0,0.0,-2.23454,19.19409,-6.35983,11.63,0.08,0.28,4.0
1758078235.59727,1758078222.24088,0.0,0.0,0.0,-0.45837,18.73572,-4.81285,11.63,0.08,0.28,4.0
1758078235.61334,1758078222.25088,0.0,0.0,0.0,1.08862,17.24603,-3.66693,10.98,-0.03,0.83,4.0
1758078235.61422,1758078222.26088,0.0,0.0,0.0,2.40642,15.98552,-2.97938,10.98,-0.03,0.83,4.0
1758078235.62934,1758078222.27088,0.0,0.0,0.0,3.95341,14.49583,-2.34913,10.76,0.22,0.98,4.0
1758078235.63022,1758078222.28088,0.0,0.0,0.0,4.92744,13.75099,-2.00535,10.44,0.79,0.93,4.0
1758078235.64606,1758078222.29088,0.0,0.0,0.0,5.84417,13.75099,-1.71887,10.44,0.79,0.93,4.0
1758078235.66207,1758078222.30088,0.0,0.0,0.0,6.87549,13.69369,-1.3178,9.88,1.28,0.75,4.0
1758078235.66357,1758078222.31088,0.0,0.0,0.0,7.16197,11.74564,-1.3751,9.88,1.28,0.75,4.0
1758078235.67811,1758078222.32088,0.0,0.0,0.0,7.10468,9.62569,-1.43239,9.22,1.29,0.77,4.0
1758078235.69434,1758078222.33088,0.0,0.0,0.0,6.99009,7.79223,-1.20321,9.22,1.29,0.77,4.0
1758078235.69568,1758078222.34088,0.0,0.0,0.0,6.18794,8.59437,-1.14592,8.94,1.07,0.67,4.0
1758078235.71013,1758078222.35088,0.0,0.0,0.0,5.50039,9.11003,-0.74485,9.06,0.9,0.64,4.0
1758078235.71129,1758078222.36088,0.0,0.0,0.0,4.69825,9.91217,-0.22918,9.06,0.9,0.64,4.0
1758078235.72701,1758078222.37088,0.0,0.0,0.0,3.89611,10.8289,0.22918,9.03,0.91,0.83,4.0
1758078235.74312,1758078222.38088,0.0,0.0,0.0,2.86479,11.63104,1.3178,9.03,0.91,0.83,4.0
1758078235.74458,1758078222.39088,0.0,0.0,0.0,2.29183,11.51645,2.06265,8.92,1.01,0.8,4.0
1758078235.75915,1758078222.40088,0.0,0.0,0.0,1.71887,11.11538,2.6929,8.92,1.01,0.8,4.0
1758078235.7611,1758078222.41088,0.0,0.0,0.0,1.3178,10.08406,3.32316,8.68,1.06,0.75,4.0
1758078235.77841,1758078222.42088,0.0,0.0,0.0,0.51566,8.47978,3.66693,8.39,1.02,0.48,4.0
1758078235.79441,1758078222.43088,0.0,0.0,0.0,0.34377,7.04738,3.72423,8.39,1.02,0.48,4.0
1758078235.79532,1758078222.44088,0.0,0.0,0.0,0.40107,5.90147,3.83882,8.16,0.88,0.25,4.0
1758078235.81037,1758078222.45088,0.0,0.0,0.0,0.0573,5.78687,3.38045,8.16,0.88,0.25,4.0
1758078235.8124,1758078222.46088,0.0,0.0,0.0,0.57296,10.31324,4.23989,8.22,0.71,0.06,4.0
1758078235.82813,1758078222.47088,0.0,0.0,0.0,1.14592,11.45916,4.92744,8.22,0.71,0.06,4.0
1758078235.84414,1758078222.48088,0.0,0.0,0.0,1.48969,9.74028,5.61499,7.94,0.56,0.23,4.0
1758078235.84574,1758078222.49088,0.0,0.0,0.0,2.00535,6.70361,6.70361,7.94,0.56,0.23,4.0
1758078235.86127,1758078222.50088,0.0,0.0,0.0,2.57831,2.29183,9.11003,7.74,0.56,-0.03,4.0
1758078235.86217,1758078222.51088,0.0,0.0,0.0,2.34913,0.45837,10.71431,8.22,0.72,-0.57,4.0
1758078235.87741,1758078222.52088,0.0,0.0,0.0,1.77617,-0.34377,12.37589,8.22,0.72,-0.57,4.0
1758078235.89346,1758078222.53088,0.0,0.0,0.0,-0.11459,-0.0573,13.80828,8.61,0.96,-0.66,4.0
1758078235.89437,1758078222.54088,0.0,0.0,0.0,-1.60428,0.34377,14.38124,8.61,0.96,-0.66,4.0
1758078235.90943,1758078222.55088,0.0,0.0,0.0,-3.03668,-0.0573,14.49583,8.62,1.08,-0.45,4.0
1758078235.9131,1758078222.56088,0.0,0.0,0.0,-4.46907,-1.20321,14.20935,8.62,1.08,-0.45,4.0
1758078235.92842,1758078222.57088,0.0,0.0,0.0,-5.90147,-3.83882,13.23533,8.36,1.07,-0.35,4.0
1758078235.94447,1758078222.58088,0.0,0.0,0.0,-6.70361,-5.72958,12.71966,8.31,0.99,-0.27,4.0
1758078235.94541,1758078222.59088,0.0,0.0,0.0,-7.33386,-7.50575,11.97482,8.31,0.99,-0.27,4.0
1758078235.96047,1758078222.60088,0.0,0.0,0.0,-7.62034,-8.47978,11.34457,8.48,0.86,-0.5,4.0
1758078235.96142,1758078222.61088,0.0,0.0,0.0,-7.73493,-9.85487,10.8289,8.48,0.86,-0.5,4.0
1758078235.97646,1758078222.62088,0.0,0.0,0.0,-7.44845,-10.65701,10.8862,8.86,0.8,-0.57,4.0
1758078235.99247,1758078222.63088,0.0,0.0,0.0,-7.10468,-11.63104,11.00079,8.86,0.8,-0.57,4.0
1758078235.99427,1758078222.64088,0.0,0.0,0.0,-6.8182,-12.204,11.28727,9.18,0.78,-0.57,4.0
1758078236.00923,1758078222.65088,0.0,0.0,0.0,-5.95876,-12.83425,11.57375,9.37,0.72,-0.49,4.0
1758078236.01436,1758078222.66088,0.0,0.0,0.0,-5.72958,-13.5791,11.22997,9.37,0.72,-0.49,4.0
1758078236.02971,1758078222.67088,0.0,0.0,0.0,-5.4431,-14.49583,10.8862,9.34,0.67,-0.36,4.0
1758078236.03842,1758078222.68088,0.0,0.0,0.0,-5.15662,-16.10011,10.02676,9.34,0.67,-0.36,4.0
1758078236.04361,1758078222.69088,0.0,0.0,0.0,-4.92744,-18.33465,8.93814,9.13,0.65,-0.37,4.0
1758078236.05703,1758078222.70088,0.0,0.0,0.0,-4.64096,-20.34,8.0787,9.13,0.65,-0.37,4.0
1758078236.07252,1758078222.71088,0.0,0.0,0.0,-4.35448,-22.34536,7.44845,8.79,0.69,-0.43,4.0
1758078236.07373,1758078222.72088,0.0,0.0,0.0,-4.1253,-24.23611,6.7609,8.79,0.69,-0.43,4.0
1758078236.08853,1758078222.73088,0.0,0.0,0.0,-4.1253,-27.10091,6.18794,8.56,0.77,-0.42,4.0
1758078236.10475,1758078222.74088,0.0,0.0,0.0,-3.89611,-29.04896,5.78687,8.39,0.86,-0.58,4.0
1758078236.10626,1758078222.75088,0.0,0.0,0.0,-3.83882,-29.9084,5.78687,8.39,0.86,-0.58,4.0
1758078236.12122,1758078222.76088,0.0,0.0,0.0,-3.95341,-31.39809,5.84417,8.25,0.8,-0.63,4.0
1758078236.12399,1758078222.77088,0.0,0.0,0.0,-4.0107,-31.45539,5.95876,8.25,0.8,-0.63,4.0
1758078236.13928,1758078222.78088,0.0,0.0,0.0,-4.23989,-31.91375,5.78687,8.38,0.53,-0.3,4.0
1758078236.14075,1758078222.79088,0.0,0.0,0.0,-3.89611,-31.74186,4.64096,8.38,0.53,-0.3,4.0
1758078236.15657,1758078222.80088,0.0,0.0,0.0,-1.3751,-30.36677,1.3178,9.51,0.02,0.67,4.0
1758078236.17259,1758078222.81088,0.0,0.0,0.0,0.57296,-31.56997,-1.43239,11.38,-0.52,2.33,4.0
1758078236.1735,1758078222.82088,0.0,0.0,0.0,3.95341,-32.83048,-3.26586,11.38,-0.52,2.33,4.0
1758078236.18826,1758078222.83088,0.0,0.0,0.0,6.70361,-34.72124,-4.87014,12.22,-0.49,3.58,4.0
1758078236.22925,1758078222.84088,0.0,0.0,0.0,8.88085,-36.38282,-3.72423,12.22,-0.49,3.58,4.0
1758078236.23136,1758078222.85088,0.0,0.0,0.0,9.05273,-39.82057,-2.06265,12.08,0.11,3.59,4.0
1758078236.23404,1758078222.86088,0.0,0.0,0.0,8.59437,-38.44547,-0.40107,12.08,0.11,3.59,4.0
1758078236.23783,1758078222.87088,0.0,0.0,0.0,8.36518,-35.2369,0.0573,14.29,0.32,3.86,4.0
1758078236.2383,1758078222.88088,0.0,0.0,0.0,9.22462,-31.74186,0.0,17.51,-0.28,3.47,4.0
1758078236.25459,1758078222.89088,0.0,0.0,0.0,10.37054,-32.20023,0.80214,17.51,-0.28,3.47,4.0
1758078236.25501,1758078222.90088,0.0,0.0,0.0,11.17268,-27.50197,2.06265,17.35,-0.22,0.37,4.0
1758078236.27362,1758078222.91088,0.0,0.0,0.0,9.96947,-17.24603,4.1253,17.35,-0.22,0.37,4.0
1758078236.27401,1758078222.92088,0.0,0.0,0.0,7.67763,3.32316,5.21392,15.3,0.28,-1.98,4.0
1758078236.29228,1758078222.93088,0.0,0.0,0.0,4.87014,15.58445,6.18794,15.3,0.28,-1.98,4.0
1758078236.29676,1758078222.94088,0.0,0.0,0.0,1.3751,24.86637,6.8182,13.41,0.35,-1.8,4.0
1758078236.31243,1758078222.95088,0.0,0.0,0.0,-3.83882,38.78925,7.79223,13.41,0.35,-1.8,4.0
1758078236.31498,1758078222.96088,0.0,0.0,0.0,-7.04738,44.23235,7.50575,13.03,0.28,-1.36,4.0
1758078236.33316,1758078222.97088,0.0,0.0,0.0,-9.28192,49.56085,7.73493,12.77,0.29,-0.71,4.0
1758078236.33434,1758078222.98088,0.0,0.0,0.0,-11.91752,52.884,7.16197,12.77,0.29,-0.71,4.0
1758078236.34957,1758078222.99088,0.0,0.0,0.0,-15.0115,49.96192,5.84417,11.93,0.23,0.17,4.0
1758078236.35062,1758078223.00088,0.0,0.0,0.0,-16.3293,45.26366,4.92744,11.93,0.23,0.17,4.0
1758078236.36645,1758078223.01088,0.0,0.0,0.0,-16.50119,40.16434,3.95341,10.83,0.09,0.42,4.0
1758078236.38521,1758078223.02088,0.0,0.0,0.0,-15.46986,34.89313,3.83882,10.83,0.09,0.42,4.0
1758078236.38844,1758078223.03088,0.0,0.0,0.0,-13.5791,26.47065,3.95341,10.03,-0.23,0.23,4.0
1758078236.40469,1758078223.04088,0.0,0.0,0.0,-11.57375,21.42862,4.52637,9.05,-0.47,0.24,4.0
1758078236.40692,1758078223.05088,0.0,0.0,0.0,-9.96947,17.18874,4.87014,9.05,-0.47,0.24,4.0
1758078236.42363,1758078223.06088,0.0,0.0,0.0,-8.136,13.5218,5.4431,8.36,-0.81,0.53,4.0
1758078236.42404,1758078223.07088,0.0,0.0,0.0,-6.7609,10.54242,5.09932,8.36,-0.81,0.53,4.0
1758078236.44862,1758078223.08088,0.0,0.0,0.0,-5.95876,12.49048,5.32851,8.06,-0.93,0.7,4.0
1758078236.45312,1758078223.09088,0.0,0.0,0.0,-6.8182,19.13679,3.20856,8.06,-0.93,0.7,4.0
1758078236.45418,1758078223.10088,0.0,0.0,0.0,-8.42248,18.79302,1.77617,8.48,-0.77,0.74,4.0
1758078236.4779,1758078223.11088,0.0,0.0,0.0,-9.5684,12.60507,1.3178,7.62,-0.48,1.24,4.0
1758078236.47829,1758078223.12088,0.0,0.0,0.0,-9.96947,7.67763,1.20321,7.62,-0.48,1.24,4.0
1758078236.49475,1758078223.13088,0.0,0.0,0.0,-10.19865,3.60963,1.3178,7.65,-0.3,0.43,4.0
1758078236.49661,1758078223.14088,0.0,0.0,0.0,-10.19865,1.14592,1.08862,7.65,-0.3,0.43,4.0
1758078236.51355,1758078223.15088,0.0,0.0,0.0,-9.62569,-0.22918,0.97403,7.89,-0.35,0.22,4.0
1758078236.51688,1758078223.16088,0.0,0.0,0.0,-8.70896,-1.14592,0.22918,7.89,-0.35,0.22,4.0
1758078236.53355,1758078223.17088,0.0,0.0,0.0,-7.67763,-2.06265,-0.45837,7.94,-0.49,0.15,4.0
1758078236.53446,1758078223.18088,0.0,0.0,0.0,-5.50039,-3.26586,-1.66158,7.94,-0.49,0.15,4.0
1758078236.5529,1758078223.19088,0.0,0.0,0.0,-4.1253,-3.66693,-2.29183,8.04,-0.55,-0.03,4.0
1758078236.5574,1758078223.20088,0.0,0.0,0.0,-2.6929,-3.83882,-3.09397,8.14,-0.63,-0.2,4.0
1758078236.57364,1758078223.21088,0.0,0.0,0.0,-1.3751,-4.69825,-4.0107,8.14,-0.63,-0.2,4.0
1758078236.57454,1758078223.22088,0.0,0.0,0.0,0.11459,-6.24524,-5.55769,8.18,-0.72,-0.21,4.0
1758078236.59086,1758078223.23088,0.0,0.0,0.0,1.03132,-7.62034,-6.7609,8.18,-0.72,-0.21,4.0
1758078236.59322,1758078223.24088,0.0,0.0,0.0,1.83346,-8.42248,-7.73493,8.28,-0.66,-0.19,4.0
1758078236.61356,1758078223.25088,0.0,0.0,0.0,2.86479,-8.93814,-8.47978,8.28,-0.66,-0.19,4.0
1758078236.61446,1758078223.26088,0.0,0.0,0.0,4.23989,-9.74028,-8.99544,8.36,-0.51,-0.28,4.0
1758078236.63239,1758078223.27088,0.0,0.0,0.0,4.64096,-10.65701,-9.28192,8.26,-0.39,-0.42,4.0
1758078236.63435,1758078223.28088,0.0,0.0,0.0,4.98473,-11.00079,-9.39651,8.26,-0.39,-0.42,4.0
1758078236.64951,1758078223.29088,0.0,0.0,0.0,5.21392,-10.59972,-9.4538,8.31,-0.35,-0.49,4.0
1758078236.65319,1758078223.30088,0.0,0.0,0.0,5.61499,-7.73493,-9.5684,8.31,-0.35,-0.49,4.0
1758078236.6697,1758078223.31088,0.0,0.0,0.0,5.95876,-5.27121,-9.4538,8.49,-0.38,-0.48,4.0
1758078236.67642,1758078223.32088,0.0,0.0,0.0,5.84417,-3.09397,-9.39651,8.49,-0.38,-0.48,4.0
1758078236.69278,1758078223.33088,0.0,0.0,0.0,5.78687,-1.20321,-10.08406,8.66,-0.45,-0.49,4.0
1758078236.69376,1758078223.34088,0.0,0.0,0.0,5.50039,-1.08862,-10.65701,8.85,-0.56,-0.49,4.0
1758078236.70856,1758078223.35088,0.0,0.0,0.0,5.32851,-1.71887,-11.28727,8.85,-0.56,-0.49,4.0
1758078236.71067,1758078223.36088,0.0,0.0,0.0,5.27121,-2.6929,-11.86023,9.09,-0.57,-0.51,4.0
1758078236.7334,1758078223.37088,0.0,0.0,0.0,4.98473,-3.89611,-12.2613,9.09,-0.57,-0.51,4.0
1758078236.73432,1758078223.38088,0.0,0.0,0.0,4.87014,-3.72423,-12.204,9.06,-0.38,-0.4,4.0
1758078236.75114,1758078223.39088,0.0,0.0,0.0,4.58366,-3.26586,-11.91752,9.06,-0.38,-0.4,4.0
1758078236.75822,1758078223.40088,0.0,0.0,0.0,4.1253,-2.34913,-11.22997,8.75,-0.17,-0.18,4.0
1758078236.75866,1758078223.41088,0.0,0.0,0.0,3.09397,-1.43239,-9.96947,8.75,-0.17,-0.02,4.0
1758078236.78797,1758078223.42088,0.0,0.0,0.0,2.40642,-1.14592,-9.28192,8.31,-0.11,-0.02,4.0
1758078236.79211,1758078223.43088,0.0,0.0,0.0,1.66158,-0.74485,-8.65166,8.01,-0.25,-0.08,4.0
1758078236.79382,1758078223.44088,0.0,0.0,0.0,0.74485,-0.22918,-8.25059,8.01,-0.25,-0.08,4.0
1758078236.80995,1758078223.45088,0.0,0.0,0.0,-0.80214,0.68755,-7.79223,7.85,-0.38,-0.45,4.0
1758078236.81077,1758078223.46088,0.0,0.0,0.0,-1.83346,1.14592,-7.79223,7.85,-0.38,-0.45,4.0
1758078236.82816,1758078223.47088,0.0,0.0,0.0,-2.6929,1.60428,-7.44845,7.7,-0.39,-0.83,4.0
1758078236.83322,1758078223.48088,0.0,0.0,0.0,-3.60963,1.77617,-7.21927,7.7,-0.39,-0.83,4.0
1758078236.853,1758078223.49088,0.0,0.0,0.0,-4.87014,0.51566,-6.47442,7.69,-0.34,-0.95,4.0
1758078236.85385,1758078223.50088,0.0,0.0,0.0,-5.4431,-1.83346,-5.61499,8.22,-0.17,-0.31,4.0
1758078236.86895,1758078223.51088,0.0,0.0,0.0,-6.24524,-5.55769,-4.0107,8.22,-0.17,-0.31,4.0
1758078236.87388,1758078223.52088,0.0,0.0,0.0,-6.8182,-9.62569,-2.29183,9.89,0.29,0.91,4.0
1758078236.88898,1758078223.53088,0.0,0.0,0.0,-7.79223,-16.61578,0.40107,9.89,0.29,0.91,4.0
1758078236.89975,1758078223.54088,0.0,0.0,0.0,-8.76626,-22.86102,2.11994,11.85,1.01,2.55,4.0
1758078236.90434,1758078223.55088,0.0,0.0,0.0,-10.19865,-27.61657,4.0107,11.85,1.01,2.55,4.0
1758078236.92198,1758078223.56088,0.0,0.0,0.0,-12.71966,-26.12688,5.55769,13.73,1.65,4.34,4.0
1758078236.96359,1758078223.57088,0.0,0.0,0.0,-14.9542,-17.13144,6.35983,17.66,2.34,5.67,4.0
1758078236.96577,1758078223.58088,0.0,0.0,0.0,-18.16276,-13.80828,7.67763,17.66,2.34,5.67,4.0
1758078236.97024,1758078223.59088,0.0,0.0,0.0,-21.6578,-10.48513,8.02141,19.23,3.73,4.38,4.0
1758078236.97429,1758078223.60088,0.0,0.0,0.0,-23.37668,-12.08941,6.70361,19.23,3.73,4.38,4.0
1758078236.97631,1758078223.61088,0.0,0.0,0.0,-23.54857,-13.12073,3.72423,15.72,2.76,0.23,4.0
1758078236.97743,1758078223.62088,0.0,0.0,0.0,-21.48592,-8.0787,0.97403,15.72,2.76,0.23,4.0
1758078236.97872,1758078223.63088,0.0,0.0,0.0,-19.53786,1.60428,-2.06265,13.24,0.73,-2.38,4.0
1758078236.99629,1758078223.64088,0.0,0.0,0.0,-15.41257,15.87093,-6.8182,12.76,-0.45,-2.26,4.0
