timeStamp,timeStampAlign,roll,pitch,yaw,gyro_x,gyro_y,gyro_z,acc_x,acc_y,acc_z,flag_num
1758077809.70552,1758077809.7158,0.0,0.0,0.0,-54.3164,-21.7724,-0.22918,6.46,0.1,0.87,2.0
1758077809.72151,1758077809.7258,0.0,0.0,0.0,-58.90006,-10.48513,5.90147,7.64,-0.24,1.12,2.0
1758077809.72271,1758077809.7358,0.0,0.0,0.0,-63.13995,-1.77617,11.00079,7.64,-0.24,1.12,2.0
1758077809.73759,1758077809.7458,0.0,0.0,0.0,-67.26525,8.88085,14.15206,8.88,-0.68,0.73,2.0
1758077809.73867,1758077809.7558,0.0,0.0,0.0,-67.09336,15.87093,12.71966,8.88,-0.68,0.73,2.0
1758077809.75409,1758077809.7658,0.0,0.0,0.0,-64.11398,22.23076,9.91217,10.87,-1.43,1.01,2.0
1758077809.76965,1758077809.7758,0.0,0.0,0.0,-58.84277,27.44468,6.24524,10.87,-1.43,1.01,2.0
1758077809.77072,1758077809.7858,0.0,0.0,0.0,-47.44091,35.69527,1.77617,11.3,-2.36,0.61,2.0
1758077809.78587,1758077809.7958,0.0,0.0,0.0,-39.19032,36.15364,0.97403,10.33,-2.93,0.65,2.0
1758077809.80186,1758077809.8058,0.0,0.0,0.0,-31.51268,33.80451,1.43239,10.33,-2.93,0.65,2.0
1758077809.80271,1758077809.8158,0.0,0.0,0.0,-25.43933,32.83048,2.92208,9.17,-2.9,0.34,2.0
1758077809.81759,1758077809.8258,0.0,0.0,0.0,-19.59516,33.11696,6.87549,9.17,-2.9,0.34,2.0
1758077809.81874,1758077809.8358,0.0,0.0,0.0,-17.6471,33.63263,9.22462,9.4,-2.24,0.07,2.0
1758077809.83422,1758077809.8458,0.0,0.0,0.0,-16.73037,32.83048,11.34457,9.4,-2.24,0.07,2.0
1758077809.8499,1758077809.8558,0.0,0.0,0.0,-16.50119,30.65324,12.14671,9.34,-1.39,0.1,2.0
1758077809.85075,1758077809.8658,0.0,0.0,0.0,-16.3293,25.15285,12.60507,9.07,-0.9,0.12,2.0
1758077809.86589,1758077809.8758,0.0,0.0,0.0,-16.67307,21.08485,12.14671,9.07,-0.9,0.12,2.0
1758077809.88187,1758077809.8858,0.0,0.0,0.0,-16.272,20.79837,11.28727,9.26,-0.99,0.28,2.0
1758077809.88278,1758077809.8958,0.0,0.0,0.0,-15.92823,22.28806,10.02676,9.26,-0.99,0.28,2.0
1758077809.89788,1758077809.9058,0.0,0.0,0.0,-14.9542,22.57454,7.67763,9.39,-1.33,0.39,2.0
1758077809.89875,1758077809.9158,0.0,0.0,0.0,-14.20935,21.7724,6.07335,9.39,-1.33,0.39,2.0
1758077809.91385,1758077809.9258,0.0,0.0,0.0,-13.40721,21.02755,4.81285,9.03,-1.47,0.66,2.0
1758077809.92986,1758077809.9358,0.0,0.0,0.0,-12.2613,20.51189,3.03668,9.03,-1.47,0.66,2.0
1758077809.93078,1758077809.9458,0.0,0.0,0.0,-11.34457,21.37133,2.40642,8.99,-1.34,0.32,2.0
1758077809.94588,1758077809.9558,0.0,0.0,0.0,-9.96947,21.7724,2.29183,9.08,-1.13,0.25,2.0
1758077809.94789,1758077809.9658,0.0,0.0,0.0,-8.70896,20.85567,2.23454,9.08,-1.13,0.25,2.0
1758077809.96415,1758077809.9758,0.0,0.0,0.0,-6.7609,19.48057,1.77617,9.03,-1.02,0.28,2.0
1758077809.9796,1758077809.9858,0.0,0.0,0.0,-5.27121,19.53786,1.43239,9.03,-1.02,0.28,2.0
1758077809.98114,1758077809.9958,0.0,0.0,0.0,-3.49504,19.76705,0.85944,9.41,-1.1,0.23,2.0
1758077809.99565,1758077810.0058,0.0,0.0,0.0,-1.77617,18.56383,0.17189,9.41,-1.1,0.23,2.0
1758077810.01162,1758077810.0158,0.0,0.0,0.0,0.57296,16.84496,-1.48969,9.44,-1.24,0.22,2.0
1758077810.01307,1758077810.0258,0.0,0.0,0.0,2.23454,16.67307,-2.6929,9.6,-1.29,0.12,2.0
1758077810.02763,1758077810.0358,0.0,0.0,0.0,3.72423,17.87628,-4.35448,9.6,-1.29,0.12,2.0
1758077810.02885,1758077810.0458,0.0,0.0,0.0,4.92744,20.3973,-5.95876,9.83,-1.21,-0.12,2.0
1758077810.04389,1758077810.0558,0.0,0.0,0.0,5.84417,27.10091,-8.99544,9.83,-1.21,-0.12,2.0
1758077810.05994,1758077810.0658,0.0,0.0,0.0,6.7609,29.73651,-10.8289,10.01,-1.01,0.04,2.0
1758077810.06109,1758077810.0758,0.0,0.0,0.0,8.136,28.87707,-12.204,10.01,-1.01,0.04,2.0
1758077810.0759,1758077810.0858,0.0,0.0,0.0,10.08406,23.0329,-13.17803,9.48,-0.85,0.07,2.0
1758077810.07765,1758077810.0958,0.0,0.0,0.0,14.43854,12.14671,-13.69369,9.14,-1.15,-0.36,2.0
1758077810.094,1758077810.1058,0.0,0.0,0.0,17.99088,6.35983,-13.06344,9.14,-1.15,-0.36,2.0
1758077810.10995,1758077810.1158,0.0,0.0,0.0,22.23076,0.45837,-11.51645,9.33,-1.9,-0.55,2.0
1758077810.11085,1758077810.1258,0.0,0.0,0.0,27.38738,-6.70361,-8.76626,9.33,-1.9,-0.55,2.0
1758077810.12596,1758077810.1358,0.0,0.0,0.0,30.59595,-19.59516,-6.53172,9.11,-2.42,-0.6,2.0
1758077810.142,1758077810.1458,0.0,0.0,0.0,32.25753,-35.06502,-3.38045,9.11,-2.42,-0.6,2.0
1758077810.14286,1758077810.1558,0.0,0.0,0.0,32.54401,-48.07116,-1.71887,8.79,-2.2,-1.01,2.0
1758077810.15797,1758077810.1658,0.0,0.0,0.0,32.48671,-42.1124,-2.11994,8.79,-2.2,-1.01,2.0
1758077810.15887,1758077810.1758,0.0,0.0,0.0,31.91375,-31.2262,-2.7502,10.63,-1.47,-1.65,2.0
1758077810.17403,1758077810.1858,0.0,0.0,0.0,31.85646,-21.02755,-4.1253,11.23,-0.67,-1.12,2.0
1758077810.19051,1758077810.1958,0.0,0.0,0.0,31.51268,-12.54778,-7.33386,11.23,-0.67,-1.12,2.0
1758077810.19217,1758077810.2058,0.0,0.0,0.0,32.71589,-11.80293,-12.83425,10.22,-0.14,-0.68,2.0
1758077810.20665,1758077810.2158,0.0,0.0,0.0,34.60666,-17.01685,-18.62113,10.22,-0.14,-0.68,2.0
1758077810.20978,1758077810.2258,0.0,0.0,0.0,39.13302,-36.6693,-21.08485,8.29,-0.25,-2.01,2.0
1758077810.24807,1758077810.2358,0.0,0.0,0.0,42.85724,-47.72739,-22.51724,8.29,-0.25,-2.01,2.0
1758077810.25073,1758077810.2458,0.0,0.0,0.0,46.52417,-46.52417,-20.11082,8.82,-1.15,-2.55,2.0
1758077810.25109,1758077810.2558,0.0,0.0,0.0,47.32632,-54.02992,-12.71966,13.23,-2.91,2.0,2.0
1758077810.25462,1758077810.2658,0.0,0.0,0.0,44.00316,-80.04221,0.40107,13.23,-2.91,2.0,2.0
1758077810.27091,1758077810.2758,0.0,0.0,0.0,42.91454,-114.82076,23.0329,17.92,-2.15,7.52,2.0
1758077810.27215,1758077810.2858,0.0,0.0,0.0,39.4195,-95.91314,44.8053,17.92,-2.15,7.52,2.0
1758077810.28699,1758077810.2958,0.0,0.0,0.0,32.6013,-69.27061,44.00316,20.09,0.61,1.97,2.0
1758077810.28791,1758077810.3058,0.0,0.0,0.0,25.15285,-56.26446,40.68,20.09,0.61,1.97,2.0
1758077810.3037,1758077810.3158,0.0,0.0,0.0,18.44924,-46.1804,28.36141,9.4,1.73,0.29,2.0
1758077810.3207,1758077810.3258,0.0,0.0,0.0,14.38124,-34.95043,19.25138,4.73,1.81,1.55,2.0
1758077810.32191,1758077810.3358,0.0,0.0,0.0,15.69904,-27.1582,10.59972,4.73,1.81,1.55,2.0
1758077810.33689,1758077810.3458,0.0,0.0,0.0,18.85031,-14.15206,3.95341,7.32,1.66,2.23,2.0
1758077810.33793,1758077810.3558,0.0,0.0,0.0,23.60586,12.204,-2.29183,7.32,1.66,2.23,2.0
1758077810.354,1758077810.3658,0.0,0.0,0.0,25.55392,27.78845,-4.46907,12.91,1.0,2.31,2.0
1758077810.37002,1758077810.3758,0.0,0.0,0.0,25.89769,42.1124,-5.4431,12.91,1.0,2.31,2.0
1758077810.37124,1758077810.3858,0.0,0.0,0.0,24.00693,57.18119,-5.61499,13.42,0.71,0.18,2.0
1758077810.38574,1758077810.3958,0.0,0.0,0.0,17.6471,75.05748,-5.32851,13.42,0.71,-0.17,2.0
1758077810.38773,1758077810.4058,0.0,0.0,0.0,12.08941,80.61517,-6.41713,11.66,0.61,-0.17,2.0
1758077810.40371,1758077810.4158,0.0,0.0,0.0,6.53172,79.52654,-6.7609,9.03,0.93,0.72,2.0
1758077810.41996,1758077810.4258,0.0,0.0,0.0,1.3751,74.14074,-5.95876,9.03,0.93,0.72,2.0
1758077810.42122,1758077810.4358,0.0,0.0,0.0,-5.90147,64.28587,-4.98473,7.68,1.57,1.26,2.0
1758077810.43609,1758077810.4458,0.0,0.0,0.0,-11.00079,58.55629,-4.81285,7.68,1.57,1.26,2.0
1758077810.45202,1758077810.4558,0.0,0.0,0.0,-16.04282,52.65482,-5.09932,7.97,2.07,1.19,2.0
1758077810.4529,1758077810.4658,0.0,0.0,0.0,-21.42862,47.49821,-6.70361,7.97,2.07,1.19,2.0
1758077810.46777,1758077810.4758,0.0,0.0,0.0,-29.33544,38.27358,-9.5684,8.35,2.07,0.82,2.0
1758077810.46923,1758077810.4858,0.0,0.0,0.0,-34.32018,32.14294,-11.57375,8.58,1.82,0.85,2.0
1758077810.48377,1758077810.4958,0.0,0.0,0.0,-39.07573,24.75178,-13.06344,8.58,1.82,0.85,2.0
1758077810.50023,1758077810.5058,0.0,0.0,0.0,-43.60209,19.25138,-15.24068,8.75,1.56,0.48,2.0
1758077810.50099,1758077810.5158,0.0,0.0,0.0,-48.58683,14.78231,-17.36062,8.75,1.56,0.48,2.0
1758077810.51604,1758077810.5258,0.0,0.0,0.0,-50.76406,13.17803,-18.33465,9.28,1.24,0.55,2.0
1758077810.5321,1758077810.5358,0.0,0.0,0.0,-52.25375,12.2613,-19.25138,9.28,1.24,0.55,2.0
1758077810.53297,1758077810.5458,0.0,0.0,0.0,-52.76942,12.71966,-19.88164,9.62,0.86,0.58,2.0
1758077810.54806,1758077810.5558,0.0,0.0,0.0,-51.85268,14.15206,-19.53786,9.83,0.46,0.66,2.0
1758077810.549,1758077810.5658,0.0,0.0,0.0,-50.47758,14.20935,-18.79302,9.83,0.46,0.66,2.0
1758077810.56387,1758077810.5758,0.0,0.0,0.0,-48.07116,13.5791,-17.30333,9.53,0.0,0.53,2.0
1758077810.57983,1758077810.5858,0.0,0.0,0.0,-43.94586,11.22997,-14.15206,9.53,0.0,0.53,2.0
1758077810.5814,1758077810.5958,0.0,0.0,0.0,-40.85189,9.68299,-12.204,9.35,-0.51,0.47,2.0
1758077810.59609,1758077810.6058,0.0,0.0,0.0,-38.27358,8.88085,-10.59972,9.35,-0.51,0.47,2.0
1758077810.61211,1758077810.6158,0.0,0.0,0.0,-36.55471,10.59972,-10.02676,9.46,-0.76,0.48,2.0
1758077810.61335,1758077810.6258,0.0,0.0,0.0,-34.43476,16.90226,-8.36518,9.83,-0.6,0.44,2.0
1758077810.62783,1758077810.6358,0.0,0.0,0.0,-34.0337,22.00158,-7.04738,9.83,-0.6,0.44,2.0
1758077810.62944,1758077810.6458,0.0,0.0,0.0,-34.32018,26.35606,-5.90147,10.0,-0.17,0.7,2.0
1758077810.64386,1758077810.6558,0.0,0.0,0.0,-35.40879,26.52795,-5.27121,10.0,-0.17,0.7,2.0
1758077810.65986,1758077810.6658,0.0,0.0,0.0,-38.38818,19.59516,-4.98473,9.37,0.38,0.66,2.0
1758077810.66097,1758077810.6758,0.0,0.0,0.0,-41.25296,14.03747,-5.15662,9.37,0.38,0.66,2.0
1758077810.67577,1758077810.6858,0.0,0.0,0.0,-44.63341,8.42248,-6.18794,9.14,0.9,0.33,2.0
1758077810.69291,1758077810.6958,0.0,0.0,0.0,-48.52953,1.43239,-7.44845,9.14,0.9,0.33,2.0
1758077810.69387,1758077810.7058,0.0,0.0,0.0,-53.74345,-9.5684,-9.74028,8.83,1.3,-0.07,2.0
1758077810.70912,1758077810.7158,0.0,0.0,0.0,-55.92068,-23.54857,-11.17268,8.17,1.37,-0.7,2.0
1758077810.71006,1758077810.7258,0.0,0.0,0.0,-57.29578,-40.62271,-11.17268,8.17,1.37,-0.7,2.0
1758077810.72591,1758077810.7358,0.0,0.0,0.0,-57.52497,-48.58683,-10.37054,8.66,1.07,-0.9,2.0
1758077810.74219,1758077810.7458,0.0,0.0,0.0,-56.952,-47.44091,-8.93814,8.66,1.07,-0.9,2.0
1758077810.74307,1758077810.7558,0.0,0.0,0.0,-56.14987,-44.748,-6.07335,10.95,0.44,-1.09,2.0
1758077810.75817,1758077810.7658,0.0,0.0,0.0,-56.32175,-42.05511,-3.95341,10.95,0.44,-1.09,2.0
1758077810.75908,1758077810.7758,0.0,0.0,0.0,-57.18119,-38.73195,-0.22918,11.96,-0.33,-0.13,2.0
1758077810.77413,1758077810.7858,0.0,0.0,0.0,-59.35843,-35.2369,0.74485,11.89,-0.38,-0.84,2.0
1758077810.7899,1758077810.7958,0.0,0.0,0.0,-62.22322,-29.9084,0.80214,11.89,-0.38,-0.84,2.0
1758077810.7914,1758077810.8058,0.0,0.0,0.0,-65.37449,-24.86637,1.3178,11.25,0.19,-1.6,2.0
1758077810.80614,1758077810.8158,0.0,0.0,0.0,-68.69764,-16.04282,4.92744,11.25,0.19,-1.6,2.0
1758077810.82217,1758077810.8258,0.0,0.0,0.0,-71.04677,-7.62034,7.79223,10.72,0.61,-1.31,2.0
1758077810.82336,1758077810.8358,0.0,0.0,0.0,-71.90621,-2.40642,10.8289,10.72,0.61,-1.31,2.0
1758077810.83821,1758077810.8458,0.0,0.0,0.0,-71.84892,-5.72958,12.49048,11.15,0.64,0.0,2.0
1758077810.83912,1758077810.8558,0.0,0.0,0.0,-69.04142,-23.0902,10.94349,12.18,0.09,1.88,2.0
1758077810.8542,1758077810.8658,0.0,0.0,0.0,-66.00475,-44.9199,3.83882,12.18,0.09,1.88,2.0
1758077810.8702,1758077810.8758,0.0,0.0,0.0,-63.65561,-61.53567,-7.50575,14.16,-0.51,3.85,2.0
1758077810.87107,1758077810.8858,0.0,0.0,0.0,-60.61894,-57.0093,-19.82434,14.16,-0.51,3.85,2.0
1758077810.88595,1758077810.8958,0.0,0.0,0.0,-55.92068,-40.39353,-31.62727,16.3,-1.09,2.78,2.0
1758077810.90191,1758077810.9058,0.0,0.0,0.0,-53.91533,-40.85189,-33.05967,16.3,-1.09,2.78,2.0
1758077810.90304,1758077810.9158,0.0,0.0,0.0,-53.97263,-47.32632,-31.16891,9.28,-0.47,2.52,2.0
1758077810.9181,1758077810.9258,0.0,0.0,0.0,-56.14987,-49.50356,-24.00693,9.28,-0.47,2.52,2.0
1758077810.91912,1758077810.9358,0.0,0.0,0.0,-63.19725,-42.74266,-17.18874,6.18,0.36,1.48,2.0
1758077810.93397,1758077810.9458,0.0,0.0,0.0,-68.64035,-37.98711,-10.25595,6.8,0.69,0.84,2.0
1758077810.95092,1758077810.9558,0.0,0.0,0.0,-73.2813,-31.97105,-3.95341,6.8,0.69,0.84,2.0
1758077810.95212,1758077810.9658,0.0,0.0,0.0,-75.91692,-18.62113,2.86479,9.02,0.46,1.37,2.0
1758077810.96724,1758077810.9758,0.0,0.0,0.0,-73.73967,-6.87549,5.27121,9.02,0.46,1.37,2.0
1758077810.96839,1758077810.9858,0.0,0.0,0.0,-68.86953,4.0107,5.84417,11.83,-0.69,1.35,2.0
1758077810.98631,1758077810.9958,0.0,0.0,0.0,-62.22322,14.43854,4.46907,11.83,-0.69,1.35,2.0
1758077811.00211,1758077811.0058,0.0,0.0,0.0,-50.3057,29.67921,0.80214,11.94,-2.17,0.5,2.0
1758077811.00589,1758077811.0158,0.0,0.0,0.0,-42.28429,39.07573,-0.40107,10.64,-2.82,-0.32,2.0
1758077811.02123,1758077811.0258,0.0,0.0,0.0,-35.52338,44.11775,-0.80214,10.64,-2.82,-0.32,2.0
1758077811.02241,1758077811.0358,0.0,0.0,0.0,-30.76784,44.46153,-0.51566,9.04,-2.45,-0.51,2.0
1758077811.03711,1758077811.0458,0.0,0.0,0.0,-26.98631,43.14373,0.51566,9.04,-2.45,-0.51,2.0
1758077811.03814,1758077811.0558,0.0,0.0,0.0,-26.06958,41.71133,1.83346,9.0,-1.48,-0.15,2.0
1758077811.05419,1758077811.0658,0.0,0.0,0.0,-25.89769,38.73195,2.97938,9.0,-1.48,-0.15,2.0
1758077811.07151,1758077811.0758,0.0,0.0,0.0,-26.12688,34.0337,4.1253,9.04,-0.69,0.08,2.0
1758077811.07216,1758077811.0858,0.0,0.0,0.0,-25.7831,28.24682,6.47442,8.96,-0.46,0.49,2.0
1758077811.08721,1758077811.0958,0.0,0.0,0.0,-25.15285,25.09555,7.84952,8.96,-0.46,0.49,2.0
1758077811.08843,1758077811.1058,0.0,0.0,0.0,-24.57989,22.00158,8.70896,8.82,-0.75,0.22,2.0
1758077811.10429,1758077811.1158,0.0,0.0,0.0,-24.17882,20.62648,8.36518,8.82,-0.75,0.22,2.0
1758077811.12019,1758077811.1258,0.0,0.0,0.0,-23.37668,21.7724,6.70361,9.07,-1.07,0.13,2.0
1758077811.12118,1758077811.1358,0.0,0.0,0.0,-22.51724,22.97561,5.15662,9.07,-1.07,0.13,2.0
1758077811.13623,1758077811.1458,0.0,0.0,0.0,-21.37133,23.94964,3.60963,9.17,-1.17,0.12,2.0
1758077811.15227,1758077811.1558,0.0,0.0,0.0,-20.11082,25.21014,1.71887,9.17,-1.17,0.12,2.0
1758077811.15319,1758077811.1658,0.0,0.0,0.0,-19.25138,26.98631,0.85944,9.13,-1.07,0.2,2.0
1758077811.16827,1758077811.1758,0.0,0.0,0.0,-18.33465,28.36141,0.11459,9.17,-0.87,0.19,2.0
1758077811.16923,1758077811.1858,0.0,0.0,0.0,-17.53251,30.36677,-0.34377,9.17,-0.87,0.19,2.0
1758077811.18428,1758077811.1958,0.0,0.0,0.0,-15.75634,31.91375,-0.68755,9.34,-0.69,0.13,2.0
1758077811.20025,1758077811.2058,0.0,0.0,0.0,-14.43854,32.25753,-0.80214,9.34,-0.69,0.13,2.0
1758077811.20233,1758077811.2158,0.0,0.0,0.0,-12.89155,32.20023,-0.68755,9.34,-0.63,0.14,2.0
1758077811.21725,1758077811.2258,0.0,0.0,0.0,-11.17268,31.79916,-0.57296,9.34,-0.63,0.14,2.0
1758077811.21822,1758077811.2358,0.0,0.0,0.0,-8.36518,30.19488,-1.03132,9.41,-0.76,0.02,2.0
1758077811.23584,1758077811.2458,0.0,0.0,0.0,-5.84417,27.67386,-1.20321,9.32,-0.98,0.05,2.0
1758077811.25234,1758077811.2558,0.0,0.0,0.0,-2.97938,27.84575,-1.77617,9.32,-0.98,0.05,2.0
1758077811.25326,1758077811.26579,0.0,0.0,0.0,-0.22918,28.70519,-2.7502,9.54,-1.16,-0.04,2.0
1758077811.26831,1758077811.27579,0.0,0.0,0.0,3.55234,26.81443,-4.23989,9.54,-1.16,-0.04,2.0
1758077811.26925,1758077811.28579,0.0,0.0,0.0,6.53172,22.91831,-4.98473,9.29,-1.21,0.24,2.0
1758077811.28408,1758077811.29579,0.0,0.0,0.0,9.91217,16.84496,-5.61499,9.29,-1.21,0.24,2.0
1758077811.30032,1758077811.30579,0.0,0.0,0.0,13.75099,9.5684,-5.72958,9.03,-1.33,0.13,2.0
1758077811.30169,1758077811.31579,0.0,0.0,0.0,19.42327,-4.23989,-5.27121,8.8,-1.63,-0.33,2.0
1758077811.31596,1758077811.32579,0.0,0.0,0.0,23.37668,-14.20935,-4.58366,8.8,-1.63,-0.33,2.0
1758077811.33207,1758077811.33579,0.0,0.0,0.0,26.52795,-27.44468,-2.92208,8.56,-2.0,-0.7,2.0
1758077811.33328,1758077811.34579,0.0,0.0,0.0,28.13223,-43.77398,-2.06265,8.56,-2.0,-0.7,2.0
1758077811.34835,1758077811.35579,0.0,0.0,0.0,29.9084,-47.61279,-1.3178,9.13,-1.97,-1.14,2.0
1758077811.34969,1758077811.36579,0.0,0.0,0.0,30.99702,-31.74186,0.11459,9.13,-1.97,-1.14,2.0
1758077811.36437,1758077811.37579,0.0,0.0,0.0,31.2262,-12.71966,0.97403,12.55,-1.62,-0.52,2.0
1758077811.38136,1758077811.38579,0.0,0.0,0.0,32.48671,0.17189,-2.23454,12.55,-1.62,-0.52,2.0
1758077811.38228,1758077811.39579,0.0,0.0,0.0,36.21093,-16.95955,-3.38045,11.66,-0.88,0.3,2.0
1758077811.39739,1758077811.40579,0.0,0.0,0.0,39.70598,-44.57612,-4.92744,7.9,-0.47,-1.33,2.0
1758077811.39829,1758077811.41579,0.0,0.0,0.0,43.54479,-56.20716,-3.83882,7.9,-0.47,-1.33,2.0
1758077811.41413,1758077811.42579,0.0,0.0,0.0,44.748,-44.23235,-2.00535,11.36,-1.11,-1.98,2.0
1758077811.43087,1758077811.43579,0.0,0.0,0.0,42.97184,-43.25832,1.03132,11.36,-1.11,-1.98,2.0
1758077811.43232,1758077811.44579,0.0,0.0,0.0,37.92981,-52.884,6.47442,14.46,-1.16,2.64,2.0
1758077811.44738,1758077811.45579,0.0,0.0,0.0,33.00237,-71.27596,17.36062,14.46,-1.16,2.64,2.0
1758077811.4566,1758077811.46579,0.0,0.0,0.0,27.73116,-87.14688,36.6693,17.49,0.21,6.16,2.0
1758077811.47212,1758077811.47579,0.0,0.0,0.0,21.60051,-70.47381,40.16434,17.6,1.18,1.64,2.0
1758077811.4737,1758077811.48579,0.0,0.0,0.0,12.49048,-49.96192,35.86716,17.6,1.18,1.64,2.0
1758077811.48919,1758077811.49579,0.0,0.0,0.0,3.83882,-37.64333,29.73651,11.04,1.42,-0.4,2.0
1758077811.49041,1758077811.50579,0.0,0.0,0.0,-3.72423,-28.30412,18.27736,11.04,1.42,-0.4,2.0
1758077811.50511,1758077811.51579,0.0,0.0,0.0,-3.20856,-24.80907,10.8289,6.14,1.0,0.86,2.0
1758077811.52111,1758077811.52579,0.0,0.0,0.0,2.23454,-21.6578,6.41713,6.14,1.0,0.86,2.0
1758077811.52232,1758077811.53579,0.0,0.0,0.0,10.65701,-13.5791,4.64096,6.84,0.82,1.46,2.0
1758077811.5374,1758077811.54579,0.0,0.0,0.0,24.4653,4.92744,5.32851,11.16,-0.16,3.29,2.0
1758077811.53834,1758077811.55579,0.0,0.0,0.0,33.11696,14.9542,6.70361,11.16,-0.16,3.29,2.0
1758077811.55437,1758077811.56579,0.0,0.0,0.0,39.87786,22.40265,8.0787,12.13,-1.35,2.12,2.0
1758077811.57112,1758077811.57579,0.0,0.0,0.0,44.748,35.06502,8.42248,12.13,-1.35,2.12,2.0
1758077811.57231,1758077811.58579,0.0,0.0,0.0,44.57612,43.83128,7.39116,11.27,-1.57,1.23,2.0
1758077811.58791,1758077811.59579,0.0,0.0,0.0,41.94051,50.99325,5.4431,11.27,-1.57,1.23,2.0
1758077811.59958,1758077811.60579,0.0,0.0,0.0,37.87251,56.66553,3.72423,9.85,-0.28,1.28,2.0
1758077811.60619,1758077811.61579,0.0,0.0,0.0,30.13758,65.37449,1.71887,9.85,-0.28,1.1,2.0
1758077811.6081,1758077811.62579,0.0,0.0,0.0,24.75178,68.01009,0.57296,9.17,1.46,1.1,2.0
1758077811.62446,1758077811.63579,0.0,0.0,0.0,18.90761,67.15066,-0.0573,8.39,2.65,1.05,2.0
1758077811.64145,1758077811.64579,0.0,0.0,0.0,13.5218,64.22858,-0.45837,8.39,2.65,1.05,2.0
1758077811.64237,1758077811.65579,0.0,0.0,0.0,6.35983,59.12925,-0.97403,8.08,2.83,0.75,2.0
1758077811.65735,1758077811.66579,0.0,0.0,0.0,2.23454,55.6915,-1.60428,8.08,2.83,0.75,2.0
1758077811.65838,1758077811.67579,0.0,0.0,0.0,-1.08862,51.50891,-2.46372,8.42,2.25,0.9,2.0
1758077811.67518,1758077811.68579,0.0,0.0,0.0,-3.32316,46.1804,-3.26586,8.42,2.25,0.9,2.0
1758077811.69117,1758077811.69579,0.0,0.0,0.0,-5.78687,35.58068,-4.1253,8.43,1.33,1.03,2.0
1758077811.69673,1758077811.70579,0.0,0.0,0.0,-6.7609,27.78845,-4.81285,8.23,0.39,0.97,2.0
1758077811.7112,1758077811.71579,0.0,0.0,0.0,-7.10468,19.76705,-5.32851,8.23,0.39,0.97,2.0
1758077811.7124,1758077811.72579,0.0,0.0,0.0,-7.39116,11.28727,-6.8182,8.3,-0.05,0.81,2.0
1758077811.72719,1758077811.73579,0.0,0.0,0.0,-6.58902,2.06265,-9.62569,8.3,-0.05,0.81,2.0
1758077811.7292,1758077811.74579,0.0,0.0,0.0,-5.21392,-1.66158,-10.54242,8.78,0.12,0.48,2.0
1758077811.74657,1758077811.75579,0.0,0.0,0.0,-3.32316,-5.32851,-11.00079,8.78,0.12,0.48,2.0
1758077811.76252,1758077811.76579,0.0,0.0,0.0,-0.34377,-8.136,-10.8289,8.94,0.3,0.45,2.0
1758077811.76341,1758077811.77579,0.0,0.0,0.0,1.83346,-11.91752,-9.74028,8.96,0.21,0.35,2.0
1758077811.77823,1758077811.78579,0.0,0.0,0.0,3.55234,-13.17803,-8.59437,8.96,0.21,0.35,2.0
1758077811.77937,1758077811.79579,0.0,0.0,0.0,5.15662,-11.34457,-6.99009,9.33,-0.06,0.28,2.0
1758077811.7966,1758077811.80579,0.0,0.0,0.0,6.87549,-4.18259,-4.35448,9.33,-0.06,0.28,2.0
1758077811.81231,1758077811.81579,0.0,0.0,0.0,7.73493,2.00535,-2.34913,9.78,-0.26,0.47,2.0
1758077811.81373,1758077811.82579,0.0,0.0,0.0,7.84952,8.36518,-0.80214,9.78,-0.26,0.47,2.0
1758077811.82832,1758077811.83579,0.0,0.0,0.0,7.39116,14.43854,0.51566,9.84,-0.15,0.64,2.0
1758077811.82945,1758077811.84579,0.0,0.0,0.0,4.81285,22.57454,1.71887,9.88,0.39,0.74,2.0
1758077811.84452,1758077811.85579,0.0,0.0,0.0,1.43239,22.97561,0.74485,9.88,0.39,0.74,2.0
1758077811.86125,1758077811.86579,0.0,0.0,0.0,-2.92208,18.16276,-1.03132,9.3,1.21,0.41,2.0
1758077811.86245,1758077811.87579,0.0,0.0,0.0,-7.16197,8.0787,-2.57831,9.3,1.21,0.41,2.0
1758077811.87737,1758077811.88579,0.0,0.0,0.0,-15.58445,-2.00535,-5.84417,9.21,1.85,-0.07,2.0
1758077811.87846,1758077811.89579,0.0,0.0,0.0,-20.11082,-9.96947,-7.21927,9.21,1.85,-0.07,2.0
1758077811.89532,1758077811.90579,0.0,0.0,0.0,-24.4653,-17.81899,-9.33921,9.28,2.17,-0.29,2.0
1758077811.91129,1758077811.91579,0.0,0.0,0.0,-27.67386,-30.76784,-10.8289,9.28,2.17,-0.29,2.0
1758077811.91567,1758077811.92579,0.0,0.0,0.0,-30.30947,-54.88936,-10.59972,8.74,1.97,-0.96,2.0
1758077811.93133,1758077811.93579,0.0,0.0,0.0,-31.2262,-62.05133,-10.71431,9.48,1.29,-1.09,2.0
1758077811.93298,1758077811.94579,0.0,0.0,0.0,-32.14294,-64.85883,-8.42248,9.48,1.29,-1.09,2.0
1758077811.94767,1758077811.95579,0.0,0.0,0.0,-33.80451,-61.1346,-4.29718,11.26,0.48,-1.18,2.0
1758077811.9488,1758077811.96579,0.0,0.0,0.0,-37.01308,-42.28429,-0.57296,11.26,0.48,-1.18,2.0
1758077811.9646,1758077811.97579,0.0,0.0,0.0,-39.87786,-24.35071,2.97938,12.79,-0.28,-0.6,2.0
1758077811.98162,1758077811.98579,0.0,0.0,0.0,-42.85724,-31.79916,5.90147,12.79,-0.28,-0.6,2.0
1758077811.98263,1758077811.99579,0.0,0.0,0.0,-50.87865,-40.16434,8.136,10.18,-0.23,-0.73,2.0
1758077811.99736,1758077812.00579,0.0,0.0,0.0,-55.6915,-35.12231,8.76626,10.3,0.6,-1.24,2.0
1758077811.99855,1758077812.01579,0.0,0.0,0.0,-59.64491,-28.41871,10.54242,10.3,0.6,-1.24,2.0
1758077812.01434,1758077812.02579,0.0,0.0,0.0,-61.65026,-29.50733,12.49048,12.1,1.34,1.1,2.0
1758077812.03159,1758077812.03579,0.0,0.0,0.0,-59.64491,-48.07116,12.54778,12.1,1.34,1.1,2.0
1758077812.03286,1758077812.04579,0.0,0.0,0.0,-57.12389,-74.08345,3.60963,14.16,0.53,4.37,2.0
1758077812.04756,1758077812.05579,0.0,0.0,0.0,-53.62885,-86.40204,-9.4538,14.16,0.53,4.37,2.0
1758077812.04949,1758077812.06579,0.0,0.0,0.0,-49.67545,-70.81759,-23.20479,17.73,-0.92,3.77,2.0
1758077812.0664,1758077812.07579,0.0,0.0,0.0,-40.45082,-40.45082,-30.93972,14.71,-1.26,1.23,2.0
1758077812.08261,1758077812.08579,0.0,0.0,0.0,-35.52338,-33.51803,-30.13758,14.71,-1.26,1.23,2.0
1758077812.08385,1758077812.09579,0.0,0.0,0.0,-33.46074,-29.9084,-27.50197,7.41,-0.2,2.03,2.0
1758077812.09862,1758077812.10579,0.0,0.0,0.0,-34.32018,-24.98096,-22.11617,7.41,-0.2,2.03,2.0
1758077812.09983,1758077812.11579,0.0,0.0,0.0,-42.74266,-17.01685,-12.71966,5.89,0.6,0.61,2.0
1758077812.11461,1758077812.12579,0.0,0.0,0.0,-50.3057,-7.96411,-6.99009,5.89,0.6,0.61,2.0
1758077812.13064,1758077812.13579,0.0,0.0,0.0,-56.89471,1.66158,-0.97403,7.69,1.08,0.59,2.0
1758077812.13156,1758077812.14579,0.0,0.0,0.0,-61.93674,11.51645,3.55234,7.69,1.08,0.59,2.0
1758077812.14637,1758077812.15579,0.0,0.0,0.0,-63.42643,23.60586,5.84417,10.3,0.64,0.91,2.0
1758077812.16237,1758077812.16579,0.0,0.0,0.0,-60.90542,29.73651,3.66693,11.44,-0.5,0.82,2.0
1758077812.16381,1758077812.17579,0.0,0.0,0.0,-56.952,34.43476,0.11459,11.44,-0.5,0.82,2.0
1758077812.17837,1758077812.18579,0.0,0.0,0.0,-48.41494,37.98711,-5.15662,10.62,-1.53,0.74,2.0
1758077812.17981,1758077812.19579,0.0,0.0,0.0,-42.39888,39.82057,-7.62034,10.62,-1.53,0.74,2.0
1758077812.19443,1758077812.20579,0.0,0.0,0.0,-36.03905,41.76862,-8.25059,9.47,-2.06,0.78,2.0
1758077812.21135,1758077812.21579,0.0,0.0,0.0,-30.13758,42.57077,-7.44845,9.47,-2.06,0.78,2.0
1758077812.21281,1758077812.22579,0.0,0.0,0.0,-22.86102,37.98711,-5.15662,8.93,-2.19,0.76,2.0
1758077812.22756,1758077812.23579,0.0,0.0,0.0,-19.07949,34.09099,-3.20856,8.72,-1.83,0.57,2.0
1758077812.22857,1758077812.24579,0.0,0.0,0.0,-16.10011,31.45539,-1.03132,8.72,-1.83,0.57,2.0
1758077812.24632,1758077812.25579,0.0,0.0,0.0,-14.38124,30.13758,0.97403,8.96,-1.27,0.24,2.0
1758077812.26138,1758077812.26579,0.0,0.0,0.0,-13.5791,29.33544,3.49504,8.96,-1.27,0.24,2.0
1758077812.26271,1758077812.27579,0.0,0.0,0.0,-13.5218,26.98631,4.98473,8.88,-0.78,0.17,2.0
1758077812.27763,1758077812.28579,0.0,0.0,0.0,-13.06344,24.80907,5.95876,8.88,-0.78,0.17,2.0
1758077812.27862,1758077812.29579,0.0,0.0,0.0,-12.49048,23.26209,6.53172,8.87,-0.51,0.14,2.0
1758077812.29444,1758077812.30579,0.0,0.0,0.0,-11.22997,24.00693,5.95876,9.35,-0.51,0.11,2.0
1758077812.31138,1758077812.31579,0.0,0.0,0.0,-10.37054,24.23611,4.87014,9.35,-0.51,0.11,2.0
1758077812.31285,1758077812.32579,0.0,0.0,0.0,-9.33921,24.00693,3.72423,9.29,-0.63,0.43,2.0
1758077812.32739,1758077812.33579,0.0,0.0,0.0,-8.47978,23.94964,2.63561,9.29,-0.63,0.43,2.0
1758077812.32862,1758077812.34579,0.0,0.0,0.0,-7.10468,22.11617,0.97403,9.11,-0.74,0.45,2.0
1758077812.34469,1758077812.35579,0.0,0.0,0.0,-6.41713,20.22541,-0.0573,9.11,-0.74,0.45,2.0
1758077812.36143,1758077812.36579,0.0,0.0,0.0,-5.50039,18.90761,-0.85944,8.96,-0.81,0.29,2.0
1758077812.36271,1758077812.37579,0.0,0.0,0.0,-3.38045,17.53251,-1.77617,8.96,-0.81,0.29,2.0
1758077812.37745,1758077812.38579,0.0,0.0,0.0,-1.71887,16.38659,-2.06265,9.22,-0.91,0.24,2.0
1758077812.37862,1758077812.39579,0.0,0.0,0.0,0.57296,16.38659,-2.06265,9.66,-1.08,0.2,2.0
1758077812.39524,1758077812.40579,0.0,0.0,0.0,3.60963,18.27736,-1.60428,9.66,-1.08,0.2,2.0
1758077812.41145,1758077812.41579,0.0,0.0,0.0,7.73493,29.27814,-2.6929,10.31,-1.24,-0.03,2.0
1758077812.41376,1758077812.42579,0.0,0.0,0.0,10.25595,36.84119,-3.60963,10.31,-1.24,-0.03,2.0
1758077812.42847,1758077812.43579,0.0,0.0,0.0,13.46451,39.53409,-3.95341,10.39,-1.12,0.12,2.0
1758077812.42964,1758077812.44579,0.0,0.0,0.0,16.90226,34.72124,-4.87014,10.39,-1.12,0.12,2.0
1758077812.44444,1758077812.45579,0.0,0.0,0.0,22.86102,18.90761,-5.78687,9.11,-0.91,0.02,2.0
1758077812.46226,1758077812.46579,0.0,0.0,0.0,27.67386,7.84952,-5.50039,8.65,-1.12,-0.6,2.0
1758077812.4637,1758077812.47579,0.0,0.0,0.0,32.88778,-3.60963,-4.92744,8.65,-1.12,-0.6,2.0
1758077812.47854,1758077812.48579,0.0,0.0,0.0,38.56006,-15.41257,-3.03668,8.52,-1.87,-1.22,2.0
1758077812.48046,1758077812.49579,0.0,0.0,0.0,45.09178,-33.80451,0.40107,8.52,-1.87,-1.22,2.0
1758077812.49659,1758077812.50579,0.0,0.0,0.0,48.07116,-52.65482,5.32851,8.51,-2.56,-1.11,2.0
1758077812.51249,1758077812.51579,0.0,0.0,0.0,48.30034,-65.08801,6.18794,8.51,-2.56,-1.11,2.0
1758077812.51368,1758077812.52579,0.0,0.0,0.0,47.89928,-64.11398,6.24524,9.36,-2.52,-1.73,2.0
1758077812.52873,1758077812.53579,0.0,0.0,0.0,48.01387,-45.55015,6.70361,11.42,-1.85,-1.83,2.0
1758077812.52969,1758077812.54579,0.0,0.0,0.0,47.95657,-34.66395,6.70361,11.42,-1.85,-1.83,2.0
1758077812.5445,1758077812.55579,0.0,0.0,0.0,47.78468,-27.67386,4.18259,10.32,-0.98,-1.11,2.0
1758077812.56306,1758077812.56579,0.0,0.0,0.0,48.9879,-21.88699,2.86479,10.32,-0.98,-1.11,2.0
1758077812.56584,1758077812.57579,0.0,0.0,0.0,49.61814,-22.23076,4.0107,10.49,-0.51,-0.45,2.0
1758077812.58257,1758077812.58579,0.0,0.0,0.0,48.35764,-33.23156,6.13065,10.49,-0.51,-0.45,2.0
1758077812.58379,1758077812.59579,0.0,0.0,0.0,47.15443,-72.42187,14.49583,13.0,0.12,2.43,2.0
1758077812.60114,1758077812.60579,0.0,0.0,0.0,51.5662,-126.45179,35.06502,13.0,0.12,2.43,2.0
1758077812.60639,1758077812.61579,0.0,0.0,0.0,52.48294,-107.71607,47.67009,16.08,1.3,4.05,2.0
1758077812.62259,1758077812.62579,0.0,0.0,0.0,48.52953,-74.7137,46.69606,20.82,1.48,1.49,2.0
1758077812.62384,1758077812.63579,0.0,0.0,0.0,45.09178,-63.25455,43.14373,20.82,1.48,1.49,2.0
1758077812.63955,1758077812.64579,0.0,0.0,0.0,39.53409,-57.63955,33.40344,9.9,0.98,2.35,2.0
1758077812.64129,1758077812.65579,0.0,0.0,0.0,39.4768,-54.02992,24.35071,9.9,0.98,2.35,2.0
1758077812.65762,1758077812.66579,0.0,0.0,0.0,42.05511,-51.45161,16.10011,5.95,0.22,2.25,2.0
1758077812.66124,1758077812.67579,0.0,0.0,0.0,46.63877,-40.62271,9.5684,5.95,0.22,2.25,2.0
1758077812.67833,1758077812.68579,0.0,0.0,0.0,54.88936,-14.72501,2.46372,9.02,0.16,2.06,2.0
1758077812.68624,1758077812.69579,0.0,0.0,0.0,60.79083,-2.63561,-0.34377,12.8,0.22,2.3,2.0
1758077812.70186,1758077812.70579,0.0,0.0,0.0,65.77556,9.91217,-1.48969,12.8,0.22,2.3,2.0
1758077812.74723,1758077812.71579,0.0,0.0,0.0,68.29657,26.35606,-1.77617,13.11,0.58,0.31,2.0
1758077812.74943,1758077812.72579,0.0,0.0,0.0,67.26525,49.90463,-2.11994,13.11,0.58,0.31,2.0
1758077812.75177,1758077812.73579,0.0,0.0,0.0,64.85883,60.79083,-1.94806,11.28,1.15,-0.53,2.0
1758077812.7521,1758077812.74579,0.0,0.0,0.0,61.30648,69.95815,-2.00535,11.28,1.15,-0.53,2.0
1758077812.75609,1758077812.75579,0.0,0.0,0.0,57.12389,77.57849,-1.60428,9.49,1.79,0.06,2.0
1758077812.75642,1758077812.76579,0.0,0.0,0.0,50.59217,81.41731,-0.85944,8.17,2.15,0.45,2.0
1758077812.77293,1758077812.77579,0.0,0.0,0.0,46.52417,78.38063,-0.17189,8.17,2.15,0.45,2.0
1758077812.77459,1758077812.78579,0.0,0.0,0.0,42.22699,74.94289,0.45837,7.39,2.13,0.95,2.0
1758077812.78988,1758077812.79579,0.0,0.0,0.0,35.58068,71.27596,0.85944,7.39,2.13,0.95,2.0
1758077812.79235,1758077812.80579,0.0,0.0,0.0,31.39809,69.38519,0.57296,7.93,1.83,0.69,2.0
1758077812.80789,1758077812.81579,0.0,0.0,0.0,27.04361,66.5204,-0.11459,7.93,1.83,0.69,2.0
1758077812.80876,1758077812.82579,0.0,0.0,0.0,22.74642,63.8275,-0.97403,8.11,1.38,0.79,2.0
1758077812.82484,1758077812.83579,0.0,0.0,0.0,17.76169,56.83742,-1.60428,8.11,1.38,0.91,2.0
1758077812.84185,1758077812.84579,0.0,0.0,0.0,14.83961,48.75871,-2.00535,8.01,0.97,0.91,2.0
1758077812.84594,1758077812.85579,0.0,0.0,0.0,11.97482,38.73195,-2.23454,7.65,0.95,0.91,2.0
1758077812.8616,1758077812.86579,0.0,0.0,0.0,9.68299,28.13223,-2.57831,7.65,0.95,0.91,2.0
1758077812.86393,1758077812.87579,0.0,0.0,0.0,7.21927,16.84496,-2.92208,8.17,1.18,0.65,2.0
1758077812.86931,1758077812.88579,0.0,0.0,0.0,6.53172,11.51645,-3.66693,8.17,1.18,0.65,2.0
1758077812.88631,1758077812.89579,0.0,0.0,0.0,6.58902,6.7609,-4.69825,8.79,1.35,0.56,2.0
1758077812.90183,1758077812.90579,0.0,0.0,0.0,7.16197,2.97938,-5.84417,8.79,1.35,0.56,2.0
1758077812.90396,1758077812.91579,0.0,0.0,0.0,9.22462,-1.83346,-5.84417,9.04,1.11,0.45,2.0
1758077812.91961,1758077812.92579,0.0,0.0,0.0,11.00079,-2.40642,-5.09932,9.41,0.5,0.3,2.0
1758077812.92241,1758077812.93579,0.0,0.0,0.0,12.54778,-0.0573,-3.38045,9.41,0.5,0.3,2.0
1758077812.9379,1758077812.94579,0.0,0.0,0.0,14.32395,3.60963,-1.20321,10.14,-0.25,0.41,2.0
1758077812.9413,1758077812.95579,0.0,0.0,0.0,16.272,12.77696,2.7502,10.14,-0.25,0.41,2.0
1758077812.95789,1758077812.96579,0.0,0.0,0.0,16.3293,19.53786,5.32851,10.72,-0.64,0.74,2.0
1758077812.95958,1758077812.97579,0.0,0.0,0.0,15.06879,24.5226,6.87549,10.72,-0.64,0.74,2.0
1758077812.97664,1758077812.98579,0.0,0.0,0.0,10.71431,22.63183,7.79223,10.34,-0.12,0.97,2.0
1758077812.99291,1758077812.99579,0.0,0.0,0.0,5.4431,10.8862,5.90147,9.24,1.08,0.4,2.0
1758077812.99466,1758077813.00579,0.0,0.0,0.0,-0.51566,0.97403,4.1253,9.24,1.08,0.4,2.0
1758077813.01295,1758077813.01579,0.0,0.0,0.0,-7.67763,-6.53172,1.14592,9.25,2.26,-0.39,2.0
1758077813.01389,1758077813.02579,0.0,0.0,0.0,-17.58981,-17.47521,-4.81285,9.25,2.26,-0.39,2.0
1758077813.02889,1758077813.03579,0.0,0.0,0.0,-22.74642,-33.34615,-7.50575,9.01,3.08,-1.0,2.0
1758077813.02985,1758077813.04579,0.0,0.0,0.0,-27.44468,-50.1911,-8.88085,9.01,3.08,-1.0,2.0
1758077813.04574,1758077813.05579,0.0,0.0,0.0,-30.48136,-58.55629,-9.91217,8.72,2.77,-1.32,2.0
1758077813.06242,1758077813.06579,0.0,0.0,0.0,-34.72124,-63.42643,-8.47978,10.51,1.99,-1.25,2.0
1758077813.06362,1758077813.07579,0.0,0.0,0.0,-37.52874,-61.65026,-6.7609,10.51,1.99,-1.25,2.0
1758077813.08051,1758077813.08579,0.0,0.0,0.0,-40.7946,-53.68615,-3.72423,11.77,0.91,-0.39,2.0
1758077813.08143,1758077813.09579,0.0,0.0,0.0,-44.748,-39.70598,-0.57296,11.77,0.91,-0.39,2.0
1758077813.09664,1758077813.10579,0.0,0.0,0.0,-52.25375,-41.13837,3.60963,11.39,-0.05,-0.38,2.0
1758077813.11663,1758077813.11579,0.0,0.0,0.0,-58.4417,-44.63341,5.72958,11.39,-0.05,-0.38,2.0
1758077813.14105,1758077813.12579,0.0,0.0,0.0,-65.89015,-43.88857,6.35983,9.16,0.16,-0.66,2.0
1758077813.14141,1758077813.13579,0.0,0.0,0.0,-71.10406,-38.90384,8.99544,9.16,0.16,-0.66,2.0
1758077813.14619,1758077813.14579,0.0,0.0,0.0,-76.0315,-34.09099,13.06344,9.85,0.71,-1.03,2.0
1758077813.14666,1758077813.15579,0.0,0.0,0.0,-77.23472,-40.10705,15.0115,11.54,0.99,1.53,2.0
1758077813.16611,1758077813.16579,0.0,0.0,0.0,-76.43258,-59.18654,12.71966,11.54,0.99,1.53,2.0
1758077813.16705,1758077813.17579,0.0,0.0,0.0,-74.94289,-80.38599,-4.23989,14.04,0.8,4.35,2.0
1758077813.18372,1758077813.18579,0.0,0.0,0.0,-69.90086,-78.66711,-18.9649,14.04,0.8,4.35,2.0
1758077813.18629,1758077813.19579,0.0,0.0,0.0,-64.17127,-63.77021,-29.33544,18.1,-0.32,3.86,2.0
1758077813.2017,1758077813.20579,0.0,0.0,0.0,-58.90006,-54.08722,-34.37747,18.1,-0.32,3.86,2.0
1758077813.20296,1758077813.21579,0.0,0.0,0.0,-53.80074,-48.8733,-32.77319,11.77,-0.52,2.79,2.0
1758077813.21772,1758077813.22579,0.0,0.0,0.0,-54.08722,-44.86259,-27.96034,7.22,0.09,2.07,2.0
1758077813.21889,1758077813.23579,0.0,0.0,0.0,-56.60823,-39.19032,-20.74107,7.22,0.09,2.07,2.0
1758077813.23632,1758077813.24579,0.0,0.0,0.0,-59.75951,-30.99702,-13.06344,8.13,0.27,0.61,2.0
1758077813.25279,1758077813.25579,0.0,0.0,0.0,-62.39511,-10.94349,-1.60428,8.13,0.27,0.61,2.0
1758077813.25637,1758077813.26579,0.0,0.0,0.0,-61.53567,5.32851,4.18259,10.87,-0.18,0.54,2.0
1758077813.27197,1758077813.27579,0.0,0.0,0.0,-57.81144,19.70975,7.39116,10.87,-0.18,0.54,2.0
1758077813.27482,1758077813.28579,0.0,0.0,0.0,-51.6235,30.30947,8.136,11.64,-1.32,0.29,2.0
1758077813.29002,1758077813.29579,0.0,0.0,0.0,-40.39353,43.94586,5.72958,10.78,-2.23,-0.26,2.0
1758077813.29489,1758077813.30579,0.0,0.0,0.0,-33.23156,48.24305,3.20856,10.78,-2.23,-0.26,2.0
1758077813.30969,1758077813.31579,0.0,0.0,0.0,-27.96034,48.01387,0.45837,9.09,-2.2,-0.75,2.0
1758077813.31571,1758077813.32579,0.0,0.0,0.0,-23.83505,46.63877,-1.48969,9.09,-2.2,-0.75,2.0
1758077813.33077,1758077813.33579,0.0,0.0,0.0,-19.82434,44.11775,-2.97938,8.6,-1.62,-0.61,2.0
1758077813.33355,1758077813.34579,0.0,0.0,0.0,-17.53251,40.50812,-2.6929,8.6,-1.62,-0.61,2.0
1758077813.34989,1758077813.35579,0.0,0.0,0.0,-14.83961,35.12231,-1.20321,8.58,-1.05,-0.24,2.0
1758077813.35156,1758077813.36579,0.0,0.0,0.0,-11.63104,29.73651,0.51566,8.58,-1.05,-0.24,2.0
1758077813.36703,1758077813.37579,0.0,0.0,0.0,-6.53172,20.51189,3.89611,8.65,-0.86,0.12,2.0
1758077813.3836,1758077813.38579,0.0,0.0,0.0,-3.32316,14.66772,6.07335,8.56,-1.06,0.22,2.0
1758077813.3856,1758077813.39579,0.0,0.0,0.0,-0.51566,11.63104,7.33386,8.56,-1.06,0.22,2.0
1758077813.40106,1758077813.40579,0.0,0.0,0.0,2.97938,12.54778,8.0787,9.01,-1.25,0.11,2.0
1758077813.40198,1758077813.41579,0.0,0.0,0.0,5.15662,14.78231,7.96411,9.01,-1.25,0.11,2.0
1758077813.4176,1758077813.42579,0.0,0.0,0.0,7.04738,16.3293,7.16197,9.27,-1.2,0.05,2.0
1758077813.42036,1758077813.43579,0.0,0.0,0.0,8.93814,16.67307,6.24524,9.27,-1.2,0.05,2.0
1758077813.43604,1758077813.44579,0.0,0.0,0.0,11.63104,13.86558,4.92744,9.14,-1.09,0.01,2.0
1758077813.45196,1758077813.45579,0.0,0.0,0.0,13.86558,10.25595,4.0107,9.11,-1.11,0.0,2.0
1758077813.45728,1758077813.46579,0.0,0.0,0.0,16.38659,6.18794,3.72423,9.11,-1.11,0.0,2.0
1758077813.47287,1758077813.47579,0.0,0.0,0.0,19.19409,6.7609,3.38045,9.57,-1.21,-0.21,2.0
1758077813.4754,1758077813.48579,0.0,0.0,0.0,22.97561,13.46451,3.03668,9.57,-1.21,-0.21,2.0
1758077813.49095,1758077813.49579,0.0,0.0,0.0,25.89769,18.22006,2.86479,10.23,-1.17,-0.19,2.0
1758077813.49231,1758077813.50579,0.0,0.0,0.0,28.87707,22.05888,2.92208,10.23,-1.17,-0.19,2.0
1758077813.51531,1758077813.51579,0.0,0.0,0.0,32.54401,25.55392,2.92208,10.04,-1.06,0.08,2.0
1758077813.51663,1758077813.52579,0.0,0.0,0.0,38.15899,27.44468,3.03668,9.72,-1.12,-0.09,2.0
1758077813.53206,1758077813.53579,0.0,0.0,0.0,42.34158,25.72581,3.09397,9.72,-1.12,-0.09,2.0
1758077813.5346,1758077813.54579,0.0,0.0,0.0,46.46688,19.99623,3.49504,9.16,-1.27,-0.41,2.0
1758077813.55209,1758077813.55579,0.0,0.0,0.0,50.3057,7.67763,3.83882,9.16,-1.27,-0.41,2.0
1758077813.55329,1758077813.56579,0.0,0.0,0.0,56.20716,-7.44845,1.43239,8.28,-1.4,-1.17,2.0
1758077813.56785,1758077813.57579,0.0,0.0,0.0,60.16057,0.74485,0.80214,8.28,-1.4,-1.17,2.0
1758077813.56903,1758077813.58579,0.0,0.0,0.0,64.91612,16.95955,3.09397,10.45,-1.76,-1.5,2.0
1758077813.58596,1758077813.59579,0.0,0.0,0.0,68.01009,33.11696,3.38045,10.45,-1.76,-1.5,2.0
1758077813.6021,1758077813.60579,0.0,0.0,0.0,70.58841,26.24147,-1.3751,11.16,-1.84,-0.03,2.0
1758077813.60305,1758077813.61579,0.0,0.0,0.0,74.59911,-17.76169,1.77617,6.42,-1.77,0.07,2.0
1758077813.61811,1758077813.62579,0.0,0.0,0.0,82.27674,-61.99404,6.58902,6.42,-1.77,0.07,2.0
1758077813.62033,1758077813.63579,0.0,0.0,0.0,85.94368,-66.34852,14.66772,8.86,-2.37,-2.88,2.0
1758077813.63611,1758077813.64579,0.0,0.0,0.0,84.39669,-56.952,15.24068,8.86,-2.37,-2.88,2.0
1758077813.6521,1758077813.65579,0.0,0.0,0.0,83.93832,-55.06125,15.12609,11.69,-2.1,-2.0,2.0
1758077813.65625,1758077813.66579,0.0,0.0,0.0,82.56322,-53.80074,12.204,11.69,-2.1,-2.0,2.0
1758077813.67182,1758077813.67579,0.0,0.0,0.0,79.46925,-46.52417,9.5684,10.74,-0.79,-0.71,2.0
1758077813.67309,1758077813.68579,0.0,0.0,0.0,76.1461,-44.17505,8.93814,11.27,0.39,-0.4,2.0
1758077813.68896,1758077813.69579,0.0,0.0,0.0,69.61437,-38.78925,8.02141,11.27,0.39,-0.4,2.0
1758077813.69343,1758077813.70579,0.0,0.0,0.0,62.56699,-33.51803,8.65166,13.78,2.33,-0.02,2.0
1758077813.70786,1758077813.71579,0.0,0.0,0.0,53.39967,-46.75336,11.22997,13.78,2.33,-0.02,2.0
1758077813.71097,1758077813.72579,0.0,0.0,0.0,52.02457,-64.11398,19.13679,13.51,2.93,1.5,2.0
1758077813.72697,1758077813.73579,0.0,0.0,0.0,49.96192,-61.30648,24.98096,13.51,2.93,1.5,2.0
1758077813.7315,1758077813.74579,0.0,0.0,0.0,47.44091,-45.77933,28.76248,15.59,1.25,1.37,2.0
1758077813.74698,1758077813.75579,0.0,0.0,0.0,44.17505,-33.80451,28.70519,13.5,0.05,-0.11,2.0
1758077813.76299,1758077813.76579,0.0,0.0,0.0,43.54479,-32.42941,26.69983,13.5,0.05,-0.11,2.0
1758077813.76602,1758077813.77579,0.0,0.0,0.0,44.40423,-27.1582,23.31938,9.05,-1.27,0.67,2.0
1758077813.78123,1758077813.78579,0.0,0.0,0.0,46.06581,-17.13144,15.46986,9.05,-1.27,0.67,2.0
1758077813.78236,1758077813.79579,0.0,0.0,0.0,53.97263,-2.23454,10.94349,7.54,-1.33,0.61,2.0
1758077813.79716,1758077813.80579,0.0,0.0,0.0,62.16592,7.33386,7.73493,7.54,-1.33,0.61,2.0
1758077813.81613,1758077813.81579,0.0,0.0,0.0,72.0208,16.50119,6.07335,7.8,-0.98,1.75,2.0
1758077813.81755,1758077813.82579,0.0,0.0,0.0,86.63122,30.02299,5.50039,7.8,-0.98,1.75,2.0
1758077813.83627,1758077813.83579,0.0,0.0,0.0,94.36616,37.58603,6.53172,9.72,-0.71,1.93,2.0
1758077813.83732,1758077813.84579,0.0,0.0,0.0,99.69466,44.748,7.44845,11.88,-0.42,1.21,2.0
1758077813.85643,1758077813.85579,0.0,0.0,0.0,101.81461,50.76406,8.02141,11.88,-0.42,1.21,2.0
1758077813.85754,1758077813.86579,0.0,0.0,0.0,99.179,62.39511,7.62034,12.77,0.26,0.59,2.0
1758077813.87322,1758077813.87579,0.0,0.0,0.0,94.36616,68.98412,6.24524,12.77,0.26,0.59,2.0
1758077813.87609,1758077813.88579,0.0,0.0,0.0,88.52198,70.6457,4.0107,11.74,1.38,-0.04,2.0
1758077813.89099,1758077813.89579,0.0,0.0,0.0,82.39134,67.72362,2.57831,11.74,1.38,-0.04,2.0
1758077813.89268,1758077813.90579,0.0,0.0,0.0,73.3386,61.76485,0.0573,9.55,2.17,-0.23,2.0
1758077813.90694,1758077813.91579,0.0,0.0,0.0,68.06739,56.60823,-1.43239,8.59,2.31,-0.21,2.0
1758077813.92344,1758077813.92579,0.0,0.0,0.0,63.19725,51.27972,-3.09397,8.59,2.31,-0.21,2.0
1758077813.92605,1758077813.93579,0.0,0.0,0.0,59.01466,46.46688,-4.81285,8.28,2.11,-0.01,2.0
1758077813.941,1758077813.94579,0.0,0.0,0.0,54.08722,39.99245,-6.18794,8.28,2.11,-0.01,2.0
1758077813.94218,1758077813.95579,0.0,0.0,0.0,51.5662,32.77319,-6.99009,8.35,1.7,0.37,2.0
1758077813.95725,1758077813.96579,0.0,0.0,0.0,49.27437,24.86637,-7.67763,8.35,1.7,0.37,2.0
1758077813.97715,1758077813.97579,0.0,0.0,0.0,47.32632,17.30333,-8.59437,8.28,1.2,0.45,2.0
1758077813.97765,1758077813.98579,0.0,0.0,0.0,44.86259,10.71431,-10.31324,8.55,0.92,0.2,2.0
1758077813.97998,1758077813.99579,0.0,0.0,0.0,43.88857,9.4538,-11.11538,8.55,0.92,0.2,2.0
1758077813.99608,1758077814.00579,0.0,0.0,0.0,43.83128,7.79223,-11.17268,8.63,0.92,0.1,2.0
1758077814.05299,1758077814.01579,0.0,0.0,0.0,44.51882,4.0107,-9.22462,8.63,0.92,0.1,2.0
1758077814.05734,1758077814.02579,0.0,0.0,0.0,44.86259,2.7502,-7.44845,8.52,0.88,0.09,2.0
1758077814.05986,1758077814.03579,0.0,0.0,0.0,44.40423,5.09932,-6.70361,8.52,0.88,0.09,2.0
1758077814.0611,1758077814.04579,0.0,0.0,0.0,44.17505,8.65166,-5.4431,9.21,0.8,-0.05,2.0
1758077814.06619,1758077814.05579,0.0,0.0,0.0,43.4875,13.40721,-2.92208,9.21,0.8,-0.05,2.0
1758077814.06691,1758077814.06579,0.0,0.0,0.0,42.39888,14.72501,-1.3178,9.5,0.69,-0.15,2.0
1758077814.07126,1758077814.07579,0.0,0.0,0.0,40.62271,15.98552,0.40107,9.59,0.62,-0.08,2.0
1758077814.07196,1758077814.08579,0.0,0.0,0.0,37.92981,16.55848,1.71887,9.59,0.62,-0.08,2.0
1758077814.0883,1758077814.09579,0.0,0.0,0.0,32.77319,13.98017,3.03668,9.62,0.86,-0.12,2.0
1758077814.08948,1758077814.10579,0.0,0.0,0.0,28.41871,10.48513,3.03668,9.62,0.86,-0.12,2.0
1758077814.1061,1758077814.11579,0.0,0.0,0.0,23.31938,4.81285,1.94806,9.3,1.42,-0.12,2.0
1758077814.12233,1758077814.12579,0.0,0.0,0.0,18.22006,-4.23989,-0.11459,9.3,1.42,-0.12,2.0
1758077814.12274,1758077814.13579,0.0,0.0,0.0,10.94349,-24.23611,-1.94806,8.49,2.03,-0.6,2.0
1758077814.13833,1758077814.14579,0.0,0.0,0.0,5.61499,-35.12231,-2.40642,7.95,2.18,-1.52,2.0
1758077814.14002,1758077814.15579,0.0,0.0,0.0,0.0,-41.99781,-1.20321,7.95,2.18,-1.52,2.0
1758077814.15633,1758077814.16579,0.0,0.0,0.0,-6.58902,-41.25296,1.77617,9.31,2.52,-1.11,2.0
1758077814.17236,1758077814.17579,0.0,0.0,0.0,-17.53251,-5.32851,3.66693,9.31,2.52,-1.11,2.0
1758077814.17458,1758077814.18579,0.0,0.0,0.0,-23.66316,-11.80293,8.76626,11.84,2.89,-0.19,2.0
1758077814.19037,1758077814.19579,0.0,0.0,0.0,-33.23156,-41.36755,5.27121,11.84,2.89,-0.19,2.0
1758077814.19127,1758077814.20579,0.0,0.0,0.0,-42.68536,-55.23313,2.6929,8.03,2.89,0.46,2.0
1758077814.20702,1758077814.21579,0.0,0.0,0.0,-49.15978,-52.48294,2.00535,11.1,2.05,-1.33,2.0
1758077814.22415,1758077814.22579,0.0,0.0,0.0,-55.29043,-46.81066,3.60963,11.1,2.05,-1.33,2.0
1758077814.22638,1758077814.23579,0.0,0.0,0.0,-60.61894,-41.88322,7.21927,11.12,0.72,-0.63,2.0
1758077814.24309,1758077814.24579,0.0,0.0,0.0,-65.89015,-33.11696,13.69369,11.12,0.72,-0.63,2.0
1758077814.24367,1758077814.25579,0.0,0.0,0.0,-66.80688,-27.04361,17.58981,10.98,0.11,0.23,2.0
1758077814.2666,1758077814.26579,0.0,0.0,0.0,-64.85883,-30.65324,20.62648,10.98,0.11,0.23,2.0
1758077814.26699,1758077814.27579,0.0,0.0,0.0,-60.61894,-40.45082,19.59516,11.9,0.26,1.75,2.0
1758077814.28635,1758077814.28579,0.0,0.0,0.0,-51.5662,-58.3844,10.31324,14.39,0.26,3.76,2.0
1758077814.28685,1758077814.29579,0.0,0.0,0.0,-47.38361,-76.48987,-2.57831,14.39,0.03,3.76,2.0
1758077814.30313,1758077814.30579,0.0,0.0,0.0,-45.43555,-79.41196,-16.95955,15.05,-0.67,2.64,2.0
1758077814.30369,1758077814.31579,0.0,0.0,0.0,-44.51882,-67.66632,-25.55392,15.05,-0.67,2.64,2.0
1758077814.32113,1758077814.32579,0.0,0.0,0.0,-43.4875,-57.18119,-27.73116,12.22,-0.59,1.33,2.0
1758077814.32586,1758077814.33579,0.0,0.0,0.0,-42.39888,-55.51962,-25.8404,12.22,-0.59,1.33,2.0
1758077814.34128,1758077814.34579,0.0,0.0,0.0,-42.22699,-51.5662,-21.94428,7.79,-0.19,2.16,2.0
1758077814.34235,1758077814.35579,0.0,0.0,0.0,-42.97184,-46.40959,-16.04282,7.79,-0.19,2.16,2.0
1758077814.35749,1758077814.36579,0.0,0.0,0.0,-44.57612,-34.89313,-7.16197,7.77,-0.02,1.12,2.0
1758077814.36153,1758077814.37579,0.0,0.0,0.0,-44.11775,-22.63183,-2.46372,10.34,-0.45,0.58,2.0
1758077814.37746,1758077814.38579,0.0,0.0,0.0,-41.02378,-9.39651,0.45837,10.34,-0.45,0.58,2.0
1758077814.3801,1758077814.39579,0.0,0.0,0.0,-35.3515,2.7502,0.22918,11.89,-1.42,0.67,2.0
1758077814.39523,1758077814.40579,0.0,0.0,0.0,-21.7151,19.48057,-1.66158,11.89,-1.42,0.67,2.0
1758077814.41116,1758077814.41579,0.0,0.0,0.0,-11.63104,30.19488,-4.58366,11.51,-2.45,0.58,2.0
1758077814.41322,1758077814.42579,0.0,0.0,0.0,-1.48969,36.84119,-6.58902,11.51,-2.45,0.58,2.0
1758077814.42818,1758077814.43579,0.0,0.0,0.0,10.19865,36.55471,-9.11003,10.18,-3.05,-0.03,2.0
1758077814.42963,1758077814.44579,0.0,0.0,0.0,15.58445,35.69527,-9.68299,8.86,-2.66,-0.46,2.0
1758077814.44572,1758077814.45579,0.0,0.0,0.0,19.25138,35.3515,-9.68299,8.86,-2.66,-0.46,2.0
1758077814.46125,1758077814.46579,0.0,0.0,0.0,22.34536,35.86716,-8.65166,9.0,-1.75,-0.62,2.0
1758077814.46364,1758077814.47579,0.0,0.0,0.0,26.98631,37.24226,-5.72958,9.0,-1.75,-0.62,2.0
1758077814.47819,1758077814.48579,0.0,0.0,0.0,30.36677,36.84119,-2.86479,9.12,-1.05,-0.49,2.0
1758077814.47967,1758077814.49579,0.0,0.0,0.0,34.43476,36.26823,-0.22918,9.12,-1.05,-0.49,2.0
1758077814.49417,1758077814.50579,0.0,0.0,0.0,37.87251,35.92446,1.66158,9.19,-0.94,-0.32,2.0
1758077814.51017,1758077814.51579,0.0,0.0,0.0,41.88322,34.43476,0.97403,9.29,-0.95,-0.36,2.0
1758077814.51137,1758077814.52579,0.0,0.0,0.0,43.88857,32.54401,-0.74485,9.29,-0.95,-0.36,2.0
1758077814.52619,1758077814.53579,0.0,0.0,0.0,45.77933,30.30947,-2.6929,9.32,-0.83,-0.24,2.0
1758077814.52766,1758077814.54579,0.0,0.0,0.0,47.32632,27.73116,-4.35448,9.32,-0.83,-0.24,2.0
1758077814.54678,1758077814.55579,0.0,0.0,0.0,49.84733,23.89234,-5.55769,9.41,-0.85,-0.28,2.0
1758077814.54874,1758077814.56579,0.0,0.0,0.0,51.6235,21.88699,-5.32851,9.41,-0.85,-0.28,2.0
1758077814.56623,1758077814.57579,0.0,0.0,0.0,53.62885,21.7151,-4.46907,9.6,-1.01,-0.3,2.0
1758077814.56769,1758077814.58579,0.0,0.0,0.0,55.00395,24.12152,-3.60963,9.6,-1.01,-0.3,2.0
1758077814.58394,1758077814.59579,0.0,0.0,0.0,56.60823,29.50733,-2.63561,10.04,-1.16,-0.2,2.0
1758077814.59921,1758077814.60579,0.0,0.0,0.0,57.86874,33.23156,-2.63561,10.19,-1.03,0.11,2.0
1758077814.60118,1758077814.61579,0.0,0.0,0.0,59.12925,36.38282,-2.34913,10.19,-1.03,0.11,2.0
1758077814.6197,1758077814.62579,0.0,0.0,0.0,61.30648,38.84654,-2.6929,9.96,-0.86,-0.03,2.0
1758077814.62088,1758077814.63579,0.0,0.0,0.0,63.19725,37.87251,-2.92208,9.96,-0.86,-0.03,2.0
1758077814.63625,1758077814.64579,0.0,0.0,0.0,65.37449,32.08564,-2.92208,9.35,-0.76,-0.33,2.0
1758077814.63744,1758077814.65579,0.0,0.0,0.0,68.01009,23.0902,-3.20856,9.35,-0.76,-0.33,2.0
1758077814.65757,1758077814.66579,0.0,0.0,0.0,73.3959,23.66316,-4.69825,8.43,-0.86,-0.9,2.0
1758077814.65933,1758077814.67579,0.0,0.0,0.0,78.03686,42.05511,-2.7502,10.53,-1.35,-1.18,2.0
1758077814.67619,1758077814.68579,0.0,0.0,0.0,82.67782,62.16592,-1.08862,10.53,-1.35,-1.18,2.0
1758077814.67754,1758077814.69579,0.0,0.0,0.0,86.28745,67.78091,0.17189,10.05,-1.73,0.01,2.0
1758077814.69727,1758077814.70579,0.0,0.0,0.0,95.85584,26.41335,-1.66158,10.05,-1.73,0.01,2.0
1758077814.70198,1758077814.71579,0.0,0.0,0.0,107.60149,-20.11082,3.89611,5.03,-2.34,0.45,2.0
1758077814.7175,1758077814.72579,0.0,0.0,0.0,116.71152,-37.47144,12.54778,5.03,-2.34,0.45,2.0
1758077814.72121,1758077814.73579,0.0,0.0,0.0,120.60761,-34.0337,17.81899,9.02,-3.59,-2.32,2.0
1758077814.73632,1758077814.74579,0.0,0.0,0.0,123.81618,-34.72124,20.85567,10.21,-3.45,-1.28,2.0
1758077814.73826,1758077814.75579,0.0,0.0,0.0,124.10267,-37.81522,20.79837,10.21,-3.45,-1.28,2.0
1758077814.75657,1758077814.76579,0.0,0.0,0.0,123.30053,-38.56006,21.31403,10.07,-2.42,0.14,2.0
1758077814.75861,1758077814.77579,0.0,0.0,0.0,121.18058,-39.76327,20.62648,10.07,-2.42,0.14,2.0
1758077814.77635,1758077814.78579,0.0,0.0,0.0,116.25314,-43.20102,17.36062,9.93,-1.34,-0.33,2.0
1758077814.77729,1758077814.79579,0.0,0.0,0.0,112.35703,-41.94051,14.43854,9.93,-1.34,-0.33,2.0
1758077814.79757,1758077814.80579,0.0,0.0,0.0,107.71607,-36.15364,13.69369,10.65,0.24,-1.24,2.0
1758077814.80015,1758077814.81579,0.0,0.0,0.0,98.77792,-29.9084,14.78231,10.65,0.24,-1.24,2.0
1758077814.81657,1758077814.82579,0.0,0.0,0.0,91.27219,-30.82513,17.24603,13.87,2.33,0.33,2.0
1758077814.81782,1758077814.83579,0.0,0.0,0.0,85.19884,-39.53409,21.7724,15.38,4.17,1.47,2.0
1758077814.83386,1758077814.84579,0.0,0.0,0.0,79.75573,-42.62806,26.47065,15.38,4.17,1.47,2.0
1758077814.85062,1758077814.85579,0.0,0.0,0.0,71.16136,-32.6013,28.13223,15.88,3.54,1.98,2.0
1758077814.85318,1758077814.86579,0.0,0.0,0.0,65.71826,-28.24682,26.75713,15.88,3.54,1.98,2.0
1758077814.86938,1758077814.87579,0.0,0.0,0.0,60.44705,-24.00693,23.0902,13.89,1.81,1.1,2.0
1758077814.87191,1758077814.88579,0.0,0.0,0.0,55.06125,-17.81899,18.50654,13.89,1.81,1.1,2.0
1758077814.88756,1758077814.89579,0.0,0.0,0.0,47.32632,-7.21927,9.85487,11.06,0.01,0.75,2.0
1758077814.89206,1758077814.90579,0.0,0.0,0.0,42.51347,-3.72423,4.92744,8.56,-0.88,-0.07,2.0
1758077814.90924,1758077814.91579,0.0,0.0,0.0,38.15899,1.08862,-0.45837,8.56,-0.88,-0.07,2.0
1758077814.91168,1758077814.92579,0.0,0.0,0.0,36.6693,3.72423,-2.11994,7.59,-0.65,-0.69,2.0
1758077814.92727,1758077814.93579,0.0,0.0,0.0,38.1017,7.84952,-1.43239,7.59,-0.65,-0.69,2.0
1758077814.93148,1758077814.94579,0.0,0.0,0.0,41.94051,9.96947,2.34913,8.03,-0.29,-0.49,2.0
1758077814.94658,1758077814.95579,0.0,0.0,0.0,47.38361,12.2613,7.67763,8.03,-0.29,-0.49,2.0
1758077814.97572,1758077814.96579,0.0,0.0,0.0,53.91533,14.09476,14.43854,8.67,-0.08,0.66,2.0
1758077814.97687,1758077814.97579,0.0,0.0,0.0,63.8275,16.55848,23.72045,8.95,0.08,2.0,2.0
1758077814.97756,1758077814.98579,0.0,0.0,0.0,69.27061,17.81899,27.73116,8.95,0.08,2.0,2.0
1758077814.98146,1758077814.99579,0.0,0.0,0.0,73.51049,18.85031,30.36677,9.12,0.71,1.88,2.0
1758077814.99673,1758077815.00579,0.0,0.0,0.0,76.31798,20.16812,30.48136,9.12,0.71,1.88,2.0
1758077814.99784,1758077815.01579,0.0,0.0,0.0,77.4066,26.12688,27.84575,9.92,1.38,1.29,2.0
1758077815.01538,1758077815.02579,0.0,0.0,0.0,75.80232,32.48671,23.54857,9.92,1.38,1.29,2.0
1758077815.03173,1758077815.03579,0.0,0.0,0.0,72.70835,39.82057,18.16276,11.16,1.8,0.9,2.0
1758077815.03291,1758077815.04579,0.0,0.0,0.0,65.2599,49.04519,8.93814,11.16,1.8,0.9,2.0
1758077815.05166,1758077815.05579,0.0,0.0,0.0,59.98868,51.22243,3.83882,11.54,2.07,0.5,2.0
1758077815.05289,1758077815.06579,0.0,0.0,0.0,54.08722,49.79003,-0.0573,10.69,2.01,0.07,2.0
1758077815.06765,1758077815.07579,0.0,0.0,0.0,48.64412,47.26902,-2.86479,10.69,2.01,0.07,2.0
1758077815.06897,1758077815.08579,0.0,0.0,0.0,41.42485,41.36755,-4.81285,9.97,1.74,-0.1,2.0
1758077815.0866,1758077815.09579,0.0,0.0,0.0,37.64333,37.87251,-5.09932,9.97,1.74,-0.1,2.0
1758077815.08859,1758077815.10579,0.0,0.0,0.0,34.95043,31.91375,-5.09932,9.62,1.53,-0.09,2.0
1758077815.15213,1758077815.11579,0.0,0.0,0.0,32.88778,23.83505,-5.4431,9.62,1.53,-0.09,2.0
1758077815.1573,1758077815.12579,0.0,0.0,0.0,31.16891,10.02676,-5.55769,9.31,1.48,0.31,2.0
1758077815.16175,1758077815.13579,0.0,0.0,0.0,28.30412,5.21392,-8.59437,9.11,1.59,0.25,2.0
1758077815.16689,1758077815.14579,0.0,0.0,0.0,25.8404,0.97403,-11.34457,9.11,1.59,0.25,2.0
1758077815.17187,1758077815.15579,0.0,0.0,0.0,22.74642,1.66158,-15.0115,9.13,1.98,0.14,2.0
1758077815.17702,1758077815.16579,0.0,0.0,0.0,19.48057,3.55234,-18.22006,9.13,1.98,0.14,2.0
1758077815.17734,1758077815.17579,0.0,0.0,0.0,17.53251,3.89611,-19.25138,8.93,2.06,0.11,2.0
1758077815.18172,1758077815.18579,0.0,0.0,0.0,15.69904,3.55234,-19.13679,8.93,2.06,0.11,2.0
1758077815.18596,1758077815.19579,0.0,0.0,0.0,14.61043,2.7502,-17.99088,8.71,1.78,0.14,2.0
1758077815.20172,1758077815.20579,0.0,0.0,0.0,13.46451,3.72423,-15.06879,9.01,1.3,0.02,2.0
1758077815.20618,1758077815.21579,0.0,0.0,0.0,13.17803,5.61499,-12.2613,9.01,1.3,0.02,2.0
1758077815.22169,1758077815.22579,0.0,0.0,0.0,13.40721,6.70361,-9.28192,9.32,0.78,0.05,2.0
1758077815.22374,1758077815.23579,0.0,0.0,0.0,14.09476,7.39116,-4.46907,9.32,0.78,0.05,2.0
1758077815.24024,1758077815.24579,0.0,0.0,0.0,14.61043,7.62034,-1.83346,9.45,0.38,-0.01,2.0
1758077815.24235,1758077815.25579,0.0,0.0,0.0,15.35527,8.136,0.40107,9.45,0.38,-0.01,2.0
1758077815.25984,1758077815.26579,0.0,0.0,0.0,15.24068,6.07335,2.23454,9.62,0.25,-0.2,2.0
1758077815.26181,1758077815.27579,0.0,0.0,0.0,12.77696,5.15662,4.98473,9.62,0.25,-0.2,2.0
1758077815.28013,1758077815.28579,0.0,0.0,0.0,9.33921,18.44924,6.58902,9.86,0.72,-0.22,2.0
1758077815.28186,1758077815.29579,0.0,0.0,0.0,4.29718,32.71589,5.61499,11.55,1.79,-0.04,2.0
1758077815.29777,1758077815.30579,0.0,0.0,0.0,-2.00535,33.46074,2.86479,11.55,1.79,-0.04,2.0
1758077815.30025,1758077815.31579,0.0,0.0,0.0,-9.96947,22.86102,-0.74485,9.42,2.73,0.55,2.0
1758077815.31673,1758077815.32579,0.0,0.0,0.0,-13.23533,14.03747,-2.11994,9.42,2.73,0.55,2.0
1758077815.31755,1758077815.33579,0.0,0.0,0.0,-14.03747,9.62569,-0.40107,8.64,2.41,-0.02,2.0
1758077815.33731,1758077815.34579,0.0,0.0,0.0,-13.75099,10.31324,3.55234,8.64,2.41,-0.02,2.0
1758077815.34102,1758077815.35579,0.0,0.0,0.0,-14.03747,9.11003,12.2613,9.06,-0.61,0.38,2.0
1758077815.35578,1758077815.36579,0.0,0.0,0.0,-15.92823,1.94806,13.75099,8.36,-0.22,-1.43,2.0
1758077815.36155,1758077815.37579,0.0,0.0,0.0,-17.93358,-0.0573,11.86023,8.36,-0.22,-1.43,2.0
1758077815.42032,1758077815.38579,0.0,0.0,0.0,-20.74107,-1.14592,9.11003,9.14,2.61,-0.14,2.0
1758077815.42369,1758077815.39579,0.0,0.0,0.0,-26.18417,-7.10468,6.58902,9.14,2.61,-0.14,2.0
1758077815.42681,1758077815.40579,0.0,0.0,0.0,-29.96569,-10.02676,5.50039,9.24,2.72,-0.52,2.0
1758077815.42892,1758077815.41579,0.0,0.0,0.0,-34.89313,-13.23533,4.87014,9.24,2.72,-0.52,2.0
1758077815.42924,1758077815.42579,0.0,0.0,0.0,-44.46153,-16.04282,5.55769,10.3,2.53,0.18,2.0
1758077815.43114,1758077815.43579,0.0,0.0,0.0,-50.93595,-20.62648,6.41713,11.62,2.65,0.8,2.0
1758077815.43176,1758077815.44579,0.0,0.0,0.0,-56.03527,-23.89234,6.53172,11.62,2.65,0.8,2.0
1758077815.4476,1758077815.45579,0.0,0.0,0.0,-58.26981,-28.87707,5.78687,13.84,1.62,2.33,2.0
1758077815.44956,1758077815.46579,0.0,0.0,0.0,-57.18119,-47.72739,2.23454,13.84,1.62,2.33,2.0
1758077815.46617,1758077815.47579,0.0,0.0,0.0,-54.48829,-63.65561,-4.58366,14.06,-0.06,3.82,2.0
1758077815.48188,1758077815.48579,0.0,0.0,0.0,-50.82136,-64.45775,-12.43318,14.06,-0.06,3.82,2.0
1758077815.48357,1758077815.49579,0.0,0.0,0.0,-45.83662,-55.40502,-18.62113,16.02,-1.11,2.59,2.0
1758077815.50187,1758077815.50579,0.0,0.0,0.0,-37.52874,-43.20102,-20.51189,13.37,-1.11,1.22,2.0
1758077815.50677,1758077815.51579,0.0,0.0,0.0,-32.08564,-42.57077,-16.73037,13.37,-1.65,1.22,2.0
1758077815.52159,1758077815.52579,0.0,0.0,0.0,-27.73116,-46.00851,-12.08941,8.51,-0.46,0.48,2.0
1758077815.52759,1758077815.53579,0.0,0.0,0.0,-25.7831,-49.84733,-7.73493,8.51,-0.46,0.48,2.0
1758077815.53138,1758077815.54579,0.0,0.0,0.0,-25.49662,-55.06125,-2.34913,6.2,0.11,-0.27,2.0
1758077815.54752,1758077815.55579,0.0,0.0,0.0,-27.1582,-60.67623,-0.17189,6.2,0.11,-0.27,2.0
1758077815.55147,1758077815.56579,0.0,0.0,0.0,-29.73651,-67.43713,-0.0573,5.03,0.28,0.0,2.0
1758077815.56661,1758077815.57579,0.0,0.0,0.0,-32.6013,-71.67702,-2.06265,5.03,0.28,0.0,2.0
1758077815.56961,1758077815.58579,0.0,0.0,0.0,-36.7266,-74.31263,-6.18794,6.16,0.22,1.79,2.0
1758077815.58644,1758077815.59579,0.0,0.0,0.0,-38.90384,-73.05212,-8.47978,8.78,-0.17,2.42,2.0
1758077815.58814,1758077815.60579,0.0,0.0,0.0,-39.4195,-68.92683,-9.62569,8.78,-0.17,2.42,2.0
1758077815.60684,1758077815.61579,0.0,0.0,0.0,-37.87251,-62.16592,-9.22462,11.38,-1.21,2.21,2.0
1758077815.60888,1758077815.62579,0.0,0.0,0.0,-31.62727,-47.49821,-7.62034,11.38,-1.21,2.21,2.0
1758077815.62552,1758077815.63579,0.0,0.0,0.0,-25.43933,-34.49206,-5.21392,12.5,-2.17,0.98,2.0
1758077815.64188,1758077815.64579,0.0,0.0,0.0,-18.22006,-20.16812,-2.57831,12.5,-2.17,0.98,2.0
1758077815.64684,1758077815.65579,0.0,0.0,0.0,-8.0787,2.40642,0.51566,11.84,-2.33,-0.15,2.0
1758077815.68668,1758077815.66579,0.0,0.0,0.0,-2.57831,13.00614,1.77617,10.76,-1.86,-0.52,2.0
1758077815.69117,1758077815.67579,0.0,0.0,0.0,0.74485,19.48057,1.60428,10.76,-1.86,-0.52,2.0
1758077815.69173,1758077815.68579,0.0,0.0,0.0,2.40642,25.09555,0.22918,10.69,-1.13,-0.7,2.0
1758077815.69726,1758077815.69579,0.0,0.0,0.0,2.11994,30.19488,-1.48969,10.69,-1.13,-0.7,2.0
1758077815.70185,1758077815.70579,0.0,0.0,0.0,0.80214,30.76784,-2.00535,10.77,-0.45,-0.81,2.0
1758077815.70635,1758077815.71579,0.0,0.0,0.0,-0.97403,29.96569,-2.34913,10.77,-0.45,-0.81,2.0
1758077815.72169,1758077815.72579,0.0,0.0,0.0,-2.86479,27.84575,-2.29183,9.77,-0.1,-0.61,2.0
1758077815.72645,1758077815.73579,0.0,0.0,0.0,-4.64096,22.91831,-1.83346,8.83,-0.23,-0.51,2.0
1758077815.74194,1758077815.74579,0.0,0.0,0.0,-4.92744,17.81899,-1.60428,8.83,-0.23,-0.51,2.0
1758077815.77671,1758077815.75579,0.0,0.0,0.0,-4.18259,12.83425,-0.85944,8.37,-0.79,-0.49,2.0
1758077815.78164,1758077815.76579,0.0,0.0,0.0,-2.29183,7.96411,-0.0573,8.37,-0.79,-0.49,2.0
1758077815.78664,1758077815.77579,0.0,0.0,0.0,2.63561,0.17189,1.60428,8.44,-1.52,-0.33,2.0
1758077815.78715,1758077815.78579,0.0,0.0,0.0,7.39116,-4.0107,2.63561,8.44,-1.52,-0.33,2.0
1758077815.79589,1758077815.79579,0.0,0.0,0.0,12.14671,-7.67763,3.95341,8.75,-1.99,-0.45,2.0
1758077815.797,1758077815.80579,0.0,0.0,0.0,16.84496,-8.0787,4.87014,8.75,-1.99,-0.45,2.0
1758077815.80629,1758077815.81579,0.0,0.0,0.0,22.57454,-5.50039,4.92744,9.31,-1.92,-0.57,2.0
1758077815.82195,1758077815.82579,0.0,0.0,0.0,25.49662,-2.97938,4.23989,9.68,-1.46,-0.57,2.0
1758077815.82689,1758077815.83579,0.0,0.0,0.0,27.73116,0.17189,3.20856,9.68,-1.46,-0.57,2.0
1758077815.84193,1758077815.84579,0.0,0.0,0.0,30.13758,5.50039,1.14592,9.94,-1.0,-0.69,2.0
1758077815.84692,1758077815.85579,0.0,0.0,0.0,31.39809,8.76626,0.0573,9.94,-1.0,-0.69,2.0
1758077815.86167,1758077815.86579,0.0,0.0,0.0,32.42941,12.14671,-1.20321,9.89,-0.82,-0.97,2.0
1758077815.86602,1758077815.87579,0.0,0.0,0.0,33.11696,15.69904,-2.29183,9.89,-0.82,-0.97,2.0
1758077815.88182,1758077815.88579,0.0,0.0,0.0,34.0337,20.45459,-4.18259,9.73,-0.8,-1.07,2.0
1758077815.88691,1758077815.89579,0.0,0.0,0.0,34.77854,20.51189,-4.81285,9.43,-0.87,-1.11,2.0
1758077815.90171,1758077815.90579,0.0,0.0,0.0,35.3515,18.27736,-6.35983,9.43,-0.87,-1.11,2.0
1758077815.90341,1758077815.91579,0.0,0.0,0.0,36.61201,16.67307,-7.79223,9.19,-1.02,-1.19,2.0
1758077815.91957,1758077815.92579,0.0,0.0,0.0,39.01843,44.748,-8.25059,9.19,-1.02,-1.19,2.0
1758077815.92082,1758077815.93579,0.0,0.0,0.0,41.48215,67.60902,-7.21927,11.74,-1.35,-0.94,2.0
1758077815.93604,1758077815.94579,0.0,0.0,0.0,44.63341,77.17742,-8.88085,11.74,-1.35,-0.94,2.0
1758077815.95176,1758077815.95579,0.0,0.0,0.0,47.72739,60.50434,-12.83425,9.66,-1.65,0.18,2.0
1758077815.95723,1758077815.96579,0.0,0.0,0.0,59.35843,2.6929,-4.23989,5.74,-2.05,-1.07,2.0
1758077815.9717,1758077815.97579,0.0,0.0,0.0,66.11933,-1.94806,0.74485,5.74,-2.05,-1.07,2.0
1758077815.97291,1758077815.98579,0.0,0.0,0.0,70.24463,-3.38045,5.15662,9.88,-2.83,-1.88,2.0
1758077815.98814,1758077815.99579,0.0,0.0,0.0,73.62508,-7.79223,5.61499,9.88,-2.83,-1.88,2.0
1758077815.9901,1758077816.00579,0.0,0.0,0.0,81.30271,-10.8862,4.64096,9.04,-2.69,-1.27,2.0
1758077816.00635,1758077816.01579,0.0,0.0,0.0,85.71449,-11.74564,2.46372,9.04,-2.69,-1.27,2.0
1758077816.02206,1758077816.02579,0.0,0.0,0.0,87.71984,-17.58981,-0.0573,9.64,-2.28,0.18,2.0
1758077816.02642,1758077816.03579,0.0,0.0,0.0,87.37608,-27.04361,-1.83346,9.64,-2.28,0.18,2.0
1758077816.04207,1758077816.04579,0.0,0.0,0.0,85.48531,-37.87251,-1.14592,9.2,-1.4,-0.66,2.0
1758077816.04296,1758077816.05579,0.0,0.0,0.0,82.62051,-39.64868,0.22918,10.19,-0.47,-0.3,2.0
1758077816.05967,1758077816.06579,0.0,0.0,0.0,78.49522,-36.61201,2.00535,10.19,-0.47,-0.3,2.0
1758077816.06135,1758077816.07579,0.0,0.0,0.0,73.05212,-28.24682,1.43239,10.75,0.28,-1.5,2.0
1758077816.07704,1758077816.08579,0.0,0.0,0.0,69.90086,-20.3973,0.80214,10.75,0.28,-1.5,2.0
1758077816.07881,1758077816.09579,0.0,0.0,0.0,66.97877,-14.61043,-0.80214,10.48,0.5,-1.72,2.0
1758077816.09564,1758077816.10579,0.0,0.0,0.0,64.57235,-9.68299,-3.32316,10.48,0.5,-1.72,2.0
1758077816.11185,1758077816.11579,0.0,0.0,0.0,62.39511,-2.63561,-8.30789,9.72,0.04,-2.11,2.0
1758077816.1362,1758077816.12579,0.0,0.0,0.0,62.39511,3.72423,-11.45916,10.17,-0.68,-2.34,2.0
1758077816.13683,1758077816.13579,0.0,0.0,0.0,63.02536,11.11538,-14.20935,10.17,-0.68,-2.34,2.0
1758077816.14133,1758077816.14579,0.0,0.0,0.0,63.8275,18.27736,-16.38659,10.7,-1.39,-2.17,2.0
1758077816.14224,1758077816.15579,0.0,0.0,0.0,62.96807,27.96034,-16.95955,10.7,-1.39,-2.17,2.0
1758077816.15878,1758077816.16579,0.0,0.0,0.0,60.73353,29.50733,-13.80828,11.89,-1.5,-0.74,2.0
1758077816.16087,1758077816.17579,0.0,0.0,0.0,57.92604,21.88699,-8.25059,11.89,-1.5,-0.74,2.0
1758077816.17683,1758077816.18579,0.0,0.0,0.0,56.78012,-0.22918,-0.11459,13.89,-0.31,1.28,2.0
1758077816.18042,1758077816.19579,0.0,0.0,0.0,60.61894,-28.13223,16.50119,16.61,1.41,2.81,2.0
1758077816.19584,1758077816.20579,0.0,0.0,0.0,61.1346,-9.74028,20.11082,16.61,1.41,2.81,2.0
1758077816.21184,1758077816.21579,0.0,0.0,0.0,59.70221,4.64096,15.46986,18.19,2.14,1.74,2.0
1758077816.21303,1758077816.22579,0.0,0.0,0.0,60.50434,-2.29183,5.84417,18.19,2.14,1.74,2.0
1758077816.22963,1758077816.23579,0.0,0.0,0.0,60.38975,-13.69369,0.40107,9.09,0.1,1.13,2.0
1758077816.23172,1758077816.24579,0.0,0.0,0.0,60.16057,-14.03747,-3.66693,9.09,0.1,1.13,2.0
1758077816.24697,1758077816.25579,0.0,0.0,0.0,60.96271,-15.29797,-5.95876,7.42,-1.35,1.04,2.0
1758077816.24803,1758077816.26579,0.0,0.0,0.0,64.74423,-14.20935,-4.58366,7.42,-1.35,1.04,2.0
1758077816.26653,1758077816.27579,0.0,0.0,0.0,69.27061,-10.59972,-0.17189,8.23,-1.3,0.53,2.0
1758077816.28214,1758077816.28579,0.0,0.0,0.0,74.59911,-8.70896,4.87014,10.17,-0.56,1.54,2.0
1758077816.28705,1758077816.29579,0.0,0.0,0.0,80.44328,-9.96947,9.33921,10.17,-0.56,1.54,2.0
1758077816.30213,1758077816.30579,0.0,0.0,0.0,89.89708,-9.4538,12.89155,10.12,0.3,1.89,2.0
1758077816.32796,1758077816.31579,0.0,0.0,0.0,95.34019,-5.15662,13.00614,10.12,0.3,1.89,2.0
1758077816.32856,1758077816.32579,0.0,0.0,0.0,98.94981,1.3178,10.37054,10.4,1.0,1.28,2.0
1758077816.3314,1758077816.33579,0.0,0.0,0.0,100.38221,8.70896,6.18794,10.4,1.0,1.28,2.0
1758077816.33202,1758077816.34579,0.0,0.0,0.0,98.31956,18.73572,-1.43239,10.31,1.57,0.48,2.0
1758077816.35147,1758077816.35579,0.0,0.0,0.0,94.70992,24.4653,-6.18794,9.67,2.02,0.22,2.0
1758077816.35506,1758077816.36579,0.0,0.0,0.0,89.83979,29.8511,-10.25595,9.67,2.02,0.22,2.0
1758077816.37095,1758077816.37579,0.0,0.0,0.0,84.11021,35.12231,-13.12073,9.38,2.58,0.0,2.0
1758077816.37387,1758077816.38579,0.0,0.0,0.0,74.7137,42.28429,-14.72501,9.38,2.58,0.0,2.0
1758077816.38968,1758077816.39579,0.0,0.0,0.0,68.69764,46.40959,-14.61043,9.3,2.98,-0.04,2.0
1758077816.39278,1758077816.40579,0.0,0.0,0.0,63.77021,47.89928,-13.86558,9.3,2.98,-0.04,2.0
1758077816.41203,1758077816.41579,0.0,0.0,0.0,59.70221,47.49821,-12.89155,8.77,3.07,0.39,2.0
1758077816.42198,1758077816.42579,0.0,0.0,0.0,55.86338,43.65939,-12.08941,8.09,2.44,0.32,2.0
1758077816.42741,1758077816.43579,0.0,0.0,0.0,54.60288,39.99245,-11.45916,8.09,2.44,0.32,2.0
1758077816.42863,1758077816.44579,0.0,0.0,0.0,53.91533,35.40879,-11.28727,8.08,1.59,0.45,2.0
1758077816.44655,1758077816.45579,0.0,0.0,0.0,53.17049,30.30947,-11.34457,8.08,1.59,0.45,2.0
1758077816.46191,1758077816.46579,0.0,0.0,0.0,52.82671,22.86102,-11.17268,8.45,1.0,0.4,2.0
1758077816.46584,1758077816.47579,0.0,0.0,0.0,52.42564,18.90761,-10.8862,8.45,1.0,0.4,2.0
1758077816.48219,1758077816.48579,0.0,0.0,0.0,51.85268,16.21471,-10.19865,9.15,0.84,0.36,2.0
1758077816.48706,1758077816.49579,0.0,0.0,0.0,51.10783,14.03747,-9.62569,9.15,0.84,0.36,2.0
1758077816.49096,1758077816.50579,0.0,0.0,0.0,50.1911,13.5791,-8.88085,9.74,1.07,0.28,2.0
1758077816.51056,1758077816.51579,0.0,0.0,0.0,48.70141,13.98017,-7.96411,10.07,1.4,0.16,2.0
1758077816.51654,1758077816.52579,0.0,0.0,0.0,46.98254,15.75634,-6.7609,10.07,1.4,0.16,2.0
1758077816.53221,1758077816.53579,0.0,0.0,0.0,43.54479,15.35527,-4.46907,10.04,1.72,0.04,2.0
1758077816.53474,1758077816.54579,0.0,0.0,0.0,40.39353,12.43318,-3.60963,10.04,1.72,0.04,2.0
1758077816.55067,1758077816.55579,0.0,0.0,0.0,36.89849,9.96947,-3.83882,9.83,1.85,0.06,2.0
1758077816.55201,1758077816.56579,0.0,0.0,0.0,32.88778,10.08406,-4.69825,9.83,1.85,0.06,2.0
1758077816.56695,1758077816.57579,0.0,0.0,0.0,26.06958,11.86023,-6.8182,10.22,2.05,0.05,2.0
1758077816.5714,1758077816.58579,0.0,0.0,0.0,20.85567,12.83425,-7.73493,10.04,2.33,0.06,2.0
1758077816.58685,1758077816.59579,0.0,0.0,0.0,15.0115,14.32395,-8.70896,10.04,2.33,0.06,2.0
1758077816.6049,1758077816.60579,0.0,0.0,0.0,8.76626,15.06879,-9.11003,9.64,2.56,0.03,2.0
1758077816.6136,1758077816.61579,0.0,0.0,0.0,-0.45837,11.63104,-8.65166,9.64,2.56,0.03,2.0
1758077816.61659,1758077816.62579,0.0,0.0,0.0,-6.70361,7.33386,-7.73493,9.05,2.57,-0.1,2.0
1758077816.63592,1758077816.63579,0.0,0.0,0.0,-12.43318,0.85944,-5.95876,9.05,2.57,-0.1,2.0
1758077816.66138,1758077816.64579,0.0,0.0,0.0,-19.59516,-3.32316,-2.7502,8.63,2.39,-0.35,2.0
1758077816.66205,1758077816.65579,0.0,0.0,0.0,-29.9084,-2.06265,-0.0573,9.26,2.32,-0.32,2.0
1758077816.66841,1758077816.66579,0.0,0.0,0.0,-37.92981,9.91217,4.64096,9.26,2.32,-0.32,2.0
1758077816.66962,1758077816.67579,0.0,0.0,0.0,-47.72739,26.06958,8.65166,11.2,2.61,-0.04,2.0
1758077816.67716,1758077816.68579,0.0,0.0,0.0,-62.96807,5.09932,7.33386,11.2,2.61,-0.04,2.0
1758077816.68176,1758077816.69579,0.0,0.0,0.0,-71.67702,-4.23989,6.24524,8.62,3.08,0.32,2.0
1758077816.70223,1758077816.70579,0.0,0.0,0.0,-80.55787,-9.5684,5.09932,8.62,3.08,0.32,2.0
1758077816.70665,1758077816.71579,0.0,0.0,0.0,-88.40739,-14.72501,5.4431,9.49,3.11,-1.04,2.0
1758077816.72208,1758077816.72579,0.0,0.0,0.0,-99.1217,-18.10547,7.16197,9.75,3.11,-0.98,2.0
1758077816.72354,1758077816.73579,0.0,0.0,0.0,-105.71072,-18.85031,9.22462,9.75,2.63,-0.98,2.0
1758077816.73806,1758077816.74579,0.0,0.0,0.0,-110.23709,-20.11082,11.86023,10.28,2.09,-0.68,2.0
1758077816.74,1758077816.75579,0.0,0.0,0.0,-112.98728,-23.31938,14.20935,10.28,2.09,-0.68,2.0
1758077816.75496,1758077816.76579,0.0,0.0,0.0,-114.36237,-30.59595,16.10011,9.91,1.48,-0.02,2.0
1758077816.77139,1758077816.77579,0.0,0.0,0.0,-114.0759,-37.52874,16.61578,9.91,1.48,-0.02,2.0
1758077816.77251,1758077816.78579,0.0,0.0,0.0,-113.78942,-46.69606,17.13144,9.93,0.76,0.73,2.0
1758077816.78731,1758077816.79579,0.0,0.0,0.0,-113.90401,-57.46767,16.73037,9.93,0.76,0.73,2.0
1758077816.78848,1758077816.80579,0.0,0.0,0.0,-114.87804,-72.70835,13.23533,10.05,0.02,1.32,2.0
1758077816.80564,1758077816.81579,0.0,0.0,0.0,-116.76881,-79.06818,8.70896,10.67,-0.26,2.52,2.0
1758077816.82103,1758077816.82579,0.0,0.0,0.0,-116.53963,-78.7817,4.29718,10.67,-0.26,2.52,2.0
1758077816.82224,1758077816.83579,0.0,0.0,0.0,-115.22182,-76.1461,0.17189,12.45,-0.66,3.18,2.0
1758077816.83738,1758077816.84579,0.0,0.0,0.0,-111.95596,-70.41652,-4.58366,12.45,-0.66,3.18,2.0
1758077816.84142,1758077816.85579,0.0,0.0,0.0,-109.83601,-59.70221,-6.70361,12.69,-0.91,1.5,2.0
1758077816.85705,1758077816.86579,0.0,0.0,0.0,-107.83066,-43.88857,-7.39116,12.69,-0.91,1.5,2.0
1758077816.86221,1758077816.87579,0.0,0.0,0.0,-106.16908,-22.34536,-5.95876,12.88,-0.28,0.61,2.0
1758077816.88149,1758077816.88579,0.0,0.0,0.0,-105.76801,-9.85487,-4.18259,11.65,0.17,-0.13,2.0
1758077816.88244,1758077816.89579,0.0,0.0,0.0,-104.90858,7.04738,-2.00535,11.65,0.17,-0.13,2.0
1758077816.89966,1758077816.90579,0.0,0.0,0.0,-104.16373,23.60586,-0.80214,12.04,-0.06,0.01,2.0
1758077816.90185,1758077816.91579,0.0,0.0,0.0,-101.81461,42.57077,-2.29183,12.04,-0.06,0.01,2.0
1758077816.91742,1758077816.92579,0.0,0.0,0.0,-98.14767,40.39353,-5.09932,10.89,-0.34,0.39,2.0
1758077816.92622,1758077816.93579,0.0,0.0,0.0,-95.0537,34.77854,-8.70896,10.89,-0.34,0.39,2.0
1758077816.94238,1758077816.94579,0.0,0.0,0.0,-92.13161,34.77854,-11.63104,9.9,-0.71,0.98,2.0
1758077816.94722,1758077816.95579,0.0,0.0,0.0,-85.48531,38.44547,-11.57375,10.04,-1.62,0.94,2.0
1758077816.96235,1758077816.96579,0.0,0.0,0.0,-78.839,35.75257,-9.4538,10.04,-1.62,0.94,2.0
1758077816.96565,1758077816.97579,0.0,0.0,0.0,-72.07809,28.41871,-7.04738,7.69,-2.59,0.08,2.0
1758077816.98131,1758077816.98579,0.0,0.0,0.0,-65.03072,21.31403,-5.27121,7.69,-2.59,0.08,2.0
1758077816.98223,1758077816.99579,0.0,0.0,0.0,-54.25911,12.71966,-2.7502,7.42,-2.98,0.57,2.0
1758077816.99712,1758077817.00579,0.0,0.0,0.0,-46.75336,9.74028,-1.3178,7.42,-2.98,0.57,2.0
1758077816.99829,1758077817.01579,0.0,0.0,0.0,-39.64868,8.59437,0.0,8.19,-2.75,-0.33,2.0
1758077817.01542,1758077817.02579,0.0,0.0,0.0,-32.83048,9.96947,0.97403,8.19,-2.75,-0.33,2.0
1758077817.0311,1758077817.03579,0.0,0.0,0.0,-25.26744,14.09476,0.80214,9.02,-2.22,-0.39,2.0
1758077817.03233,1758077817.04579,0.0,0.0,0.0,-21.42862,17.36062,-0.45837,9.2,-1.36,-0.41,2.0
1758077817.0471,1758077817.05579,0.0,0.0,0.0,-18.73572,21.02755,-2.63561,9.2,-1.36,-0.41,2.0
1758077817.04831,1758077817.06579,0.0,0.0,0.0,-15.92823,24.35071,-6.99009,9.14,-0.88,-0.48,2.0
1758077817.06406,1758077817.07579,0.0,0.0,0.0,-15.0115,28.36141,-10.08406,9.14,-0.88,-0.48,2.0
1758077817.08136,1758077817.08579,0.0,0.0,0.0,-14.32395,29.27814,-13.46451,9.14,-0.87,-0.41,2.0
1758077817.08232,1758077817.09579,0.0,0.0,0.0,-14.03747,29.33544,-16.21471,9.14,-0.87,-0.41,2.0
1758077817.0974,1758077817.10579,0.0,0.0,0.0,-14.78231,25.72581,-19.70975,9.29,-0.97,-0.44,2.0
1758077817.09833,1758077817.11579,0.0,0.0,0.0,-15.0115,19.36597,-20.51189,9.14,-1.16,-0.44,2.0
1758077817.11442,1758077817.12579,0.0,0.0,0.0,-14.43854,15.41257,-19.99623,9.14,-1.16,-0.44,2.0
1758077817.13108,1758077817.13579,0.0,0.0,0.0,-13.46451,15.35527,-19.88164,9.5,-1.34,-0.74,2.0
1758077817.13236,1758077817.14579,0.0,0.0,0.0,-11.11538,14.66772,-19.19409,9.5,-1.34,-0.74,2.0
1758077817.14714,1758077817.15579,0.0,0.0,0.0,-7.62034,12.43318,-18.22006,9.25,-1.48,-0.62,2.0
1758077817.14873,1758077817.16579,0.0,0.0,0.0,-3.03668,9.5684,-17.13144,9.25,-1.48,-0.62,2.0
1758077817.16446,1758077817.17579,0.0,0.0,0.0,3.09397,5.61499,-15.35527,8.94,-1.71,-0.63,2.0
1758077817.18144,1758077817.18579,0.0,0.0,0.0,13.69369,-2.92208,-13.06344,8.57,-2.04,-1.13,2.0
1758077817.18235,1758077817.19579,0.0,0.0,0.0,21.48592,-10.71431,-11.17268,8.57,-2.04,-1.13,2.0
1758077817.19747,1758077817.20579,0.0,0.0,0.0,27.78845,-23.37668,-10.65701,7.86,-2.19,-1.34,2.0
1758077817.19835,1758077817.21579,0.0,0.0,0.0,33.23156,-31.91375,-12.204,7.86,-2.19,-1.34,2.0
1758077817.21546,1758077817.22579,0.0,0.0,0.0,39.76327,-24.35071,-14.38124,8.72,-2.08,-2.0,2.0
1758077817.23119,1758077817.23579,0.0,0.0,0.0,42.34158,-19.25138,-15.06879,8.72,-2.08,-2.0,2.0
1758077817.23262,1758077817.24579,0.0,0.0,0.0,45.26366,-14.15206,-13.40721,9.74,-2.14,-1.22,2.0
1758077817.24739,1758077817.25579,0.0,0.0,0.0,47.26902,-11.63104,-9.96947,9.74,-2.14,-1.22,2.0
1758077817.25072,1758077817.26579,0.0,0.0,0.0,49.50356,-13.80828,-9.22462,9.84,-2.32,-0.7,2.0
1758077817.2662,1758077817.27579,0.0,0.0,0.0,53.39967,-36.32552,-8.0787,8.02,-2.45,-0.33,2.0
1758077817.28247,1758077817.28579,0.0,0.0,0.0,57.29578,-62.33781,-7.39116,8.02,-2.45,-0.33,2.0
1758077817.28653,1758077817.29579,0.0,0.0,0.0,61.1346,-73.3959,2.06265,7.63,-2.64,-2.08,2.0
1758077817.30222,1758077817.30579,0.0,0.0,0.0,61.87944,-59.24384,5.55769,7.63,-2.64,-2.08,2.0
1758077817.30611,1758077817.31579,0.0,0.0,0.0,61.70755,-50.2484,7.79223,11.73,-2.9,-1.06,2.0
1758077817.32166,1758077817.32579,0.0,0.0,0.0,59.98868,-47.67009,11.22997,11.73,-2.9,-1.06,2.0
1758077817.3224,1758077817.33579,0.0,0.0,0.0,53.62885,-55.6915,23.26209,13.29,-2.6,0.74,2.0
1758077817.33747,1758077817.34579,0.0,0.0,0.0,46.46688,-71.79161,31.74186,17.26,0.23,4.63,2.0
1758077817.3384,1758077817.35579,0.0,0.0,0.0,42.34158,-89.6679,42.85724,17.26,0.23,4.63,2.0
1758077817.35527,1758077817.36579,0.0,0.0,0.0,38.1017,-74.31263,42.97184,19.33,2.7,2.02,2.0
1758077817.37122,1758077817.37579,0.0,0.0,0.0,29.8511,-39.07573,28.24682,19.33,2.7,2.02,2.0
1758077817.37269,1758077817.38579,0.0,0.0,0.0,26.24147,-41.59674,19.07949,15.03,3.3,0.07,2.0
1758077817.38853,1758077817.39579,0.0,0.0,0.0,24.29341,-41.94051,10.59972,15.03,3.3,0.07,2.0
1758077817.39018,1758077817.40579,0.0,0.0,0.0,21.88699,-34.89313,2.6929,9.26,1.83,0.2,2.0
1758077817.40632,1758077817.41579,0.0,0.0,0.0,23.94964,-32.54401,-1.08862,8.76,0.58,-0.62,2.0
1758077817.42226,1758077817.42579,0.0,0.0,0.0,27.61657,-24.92367,0.97403,8.76,0.58,-0.62,2.0
1758077817.42392,1758077817.43579,0.0,0.0,0.0,32.25753,-15.64175,5.4431,11.05,0.04,0.45,2.0
1758077817.44652,1758077817.44579,0.0,0.0,0.0,38.50277,-12.14671,11.80293,11.05,0.04,0.45,2.0
1758077817.44741,1758077817.45579,0.0,0.0,0.0,48.64412,-9.28192,20.62648,10.9,-0.17,1.7,2.0
1758077817.46231,1758077817.46579,0.0,0.0,0.0,53.80074,-1.66158,24.35071,10.9,-0.17,1.7,2.0
1758077817.46615,1758077817.47579,0.0,0.0,0.0,57.29578,9.11003,25.72581,11.29,0.19,2.02,2.0
1758077817.48156,1758077817.48579,0.0,0.0,0.0,60.16057,20.51189,23.49127,11.29,0.19,2.02,2.0
1758077817.48246,1758077817.49579,0.0,0.0,0.0,60.33246,28.41871,19.36597,10.76,0.97,1.33,2.0
1758077817.50151,1758077817.50579,0.0,0.0,0.0,59.53032,37.64333,14.32395,10.84,2.12,0.61,2.0
1758077817.50258,1758077817.51579,0.0,0.0,0.0,56.55093,48.58683,7.96411,10.84,2.12,0.61,2.0
1758077817.52142,1758077817.52579,0.0,0.0,0.0,48.52953,63.99939,-0.74485,10.92,3.31,-0.33,2.0
1758077817.52989,1758077817.53579,0.0,0.0,0.0,41.36755,70.58841,-5.50039,10.92,3.31,-0.33,2.0
1758077817.54662,1758077817.54579,0.0,0.0,0.0,34.14828,73.3959,-8.02141,10.0,3.9,-0.8,2.0
1758077817.54783,1758077817.55579,0.0,0.0,0.0,27.10091,74.54182,-9.22462,10.0,3.9,-0.8,2.0
1758077817.54843,1758077817.56579,0.0,0.0,0.0,17.6471,76.0315,-8.88085,9.35,3.57,-0.69,2.0
1758077817.56689,1758077817.57579,0.0,0.0,0.0,12.2613,74.25533,-7.62034,8.82,2.62,-0.42,2.0
1758077817.58264,1758077817.58579,0.0,0.0,0.0,7.67763,69.15601,-6.35983,8.82,2.62,-0.42,2.0
1758077817.58355,1758077817.59579,0.0,0.0,0.0,3.38045,62.79618,-5.50039,8.21,1.74,-0.02,2.0
1758077817.5986,1758077817.60579,0.0,0.0,0.0,-2.63561,54.94666,-5.55769,8.21,1.74,-0.02,2.0
1758077817.5995,1758077817.61579,0.0,0.0,0.0,-6.47442,49.96192,-6.8182,8.41,1.3,-0.03,2.0
1758077817.61431,1758077817.62579,0.0,0.0,0.0,-9.74028,44.11775,-8.93814,8.41,1.3,-0.03,2.0
1758077817.63064,1758077817.63579,0.0,0.0,0.0,-12.37589,36.61201,-10.8862,8.21,1.32,0.21,2.0
1758077817.63711,1758077817.64579,0.0,0.0,0.0,-15.46986,25.26744,-14.43854,7.82,1.59,0.33,2.0
1758077817.65224,1758077817.65579,0.0,0.0,0.0,-16.04282,18.16276,-15.58445,7.82,1.59,0.33,2.0
1758077817.65347,1758077817.66579,0.0,0.0,0.0,-15.69904,11.86023,-15.35527,8.03,1.87,0.12,2.0
1758077817.66871,1758077817.67579,0.0,0.0,0.0,-14.09476,5.15662,-13.34992,8.03,1.87,0.12,2.0
1758077817.67192,1758077817.68579,0.0,0.0,0.0,-13.80828,-1.3751,-11.97482,8.43,1.85,0.28,2.0
1758077817.68758,1758077817.69579,0.0,0.0,0.0,-13.80828,2.6929,-9.74028,8.43,1.85,0.28,2.0
1758077817.68897,1758077817.70579,0.0,0.0,0.0,-14.78231,9.68299,-8.02141,10.02,1.52,0.45,2.0
1758077817.70462,1758077817.71579,0.0,0.0,0.0,-17.47521,13.69369,-7.67763,10.02,1.52,0.45,2.0
1758077817.72148,1758077817.72579,0.0,0.0,0.0,-20.11082,13.17803,-8.0787,10.2,1.14,0.56,2.0
1758077817.72256,1758077817.73579,0.0,0.0,0.0,-23.0902,12.43318,-8.42248,9.83,1.01,0.02,2.0
1758077817.73765,1758077817.74579,0.0,0.0,0.0,-27.2155,12.77696,-8.70896,9.83,1.01,0.02,2.0
1758077817.74189,1758077817.75579,0.0,0.0,0.0,-34.72124,14.32395,-8.99544,9.7,1.3,-0.61,2.0
1758077817.75767,1758077817.76579,0.0,0.0,0.0,-40.10705,14.09476,-8.70896,9.7,1.3,-0.61,2.0
1758077817.75937,1758077817.77579,0.0,0.0,0.0,-45.26366,11.00079,-8.136,9.24,1.85,-0.91,2.0
1758077817.7754,1758077817.78579,0.0,0.0,0.0,-49.61814,2.34913,-6.47442,9.24,1.85,-0.91,2.0
1758077817.79167,1758077817.79579,0.0,0.0,0.0,-55.51962,-11.63104,-3.66693,8.06,2.04,-1.25,2.0
1758077817.79286,1758077817.80579,0.0,0.0,0.0,-58.55629,-17.53251,-1.83346,8.0,1.84,-1.35,2.0
1758077817.80765,1758077817.81579,0.0,0.0,0.0,-61.24919,-22.51724,0.34377,8.0,1.84,-1.35,2.0
1758077817.8118,1758077817.82579,0.0,0.0,0.0,-65.14531,-16.90226,4.35448,9.27,1.55,-1.37,2.0
1758077817.82819,1758077817.83579,0.0,0.0,0.0,-69.78626,12.43318,8.76626,9.27,1.55,-1.37,2.0
1758077817.82971,1758077817.84579,0.0,0.0,0.0,-76.43258,2.23454,4.35448,11.03,1.54,-0.34,2.0
1758077817.8463,1758077817.85579,0.0,0.0,0.0,-79.64114,-16.90226,2.11994,11.03,1.54,-0.34,2.0
1758077817.86142,1758077817.86579,0.0,0.0,0.0,-83.13618,-26.35606,-4.29718,8.17,2.27,-0.36,2.0
1758077817.86336,1758077817.87579,0.0,0.0,0.0,-85.02695,-23.72045,-6.8182,10.52,2.51,-1.21,2.0
1758077817.87853,1758077817.88579,0.0,0.0,0.0,-85.54259,-17.6471,-6.58902,10.52,2.51,-1.21,2.0
1758077817.8804,1758077817.89579,0.0,0.0,0.0,-85.31342,-13.17803,-4.81285,10.89,2.0,-0.85,2.0
1758077817.8965,1758077817.90579,0.0,0.0,0.0,-83.88103,-6.7609,-0.85944,10.89,2.0,-0.85,2.0
1758077817.91272,1758077817.91579,0.0,0.0,0.0,-82.33404,-2.23454,2.06265,10.75,1.26,0.1,2.0
1758077817.91716,1758077817.92579,0.0,0.0,0.0,-80.67246,2.6929,5.32851,10.75,1.26,0.1,2.0
1758077817.93272,1758077817.93579,0.0,0.0,0.0,-78.7817,7.44845,8.42248,10.78,0.7,-0.77,2.0
1758077817.93367,1758077817.94579,0.0,0.0,0.0,-76.43258,11.57375,12.43318,10.58,0.7,-1.16,2.0
1758077817.95126,1758077817.95579,0.0,0.0,0.0,-75.17207,9.96947,13.86558,10.58,0.55,-1.16,2.0
1758077817.95272,1758077817.96579,0.0,0.0,0.0,-74.02615,7.62034,14.09476,10.6,0.68,-1.04,2.0
1758077817.96966,1758077817.97579,0.0,0.0,0.0,-71.21866,3.83882,13.23533,10.6,0.68,-1.04,2.0
1758077817.9722,1758077817.98579,0.0,0.0,0.0,-66.29122,-8.47978,10.37054,12.33,0.36,-0.1,2.0
1758077817.98748,1758077817.99579,0.0,0.0,0.0,-62.62429,-29.04896,6.18794,12.33,0.36,-0.1,2.0
1758077817.98908,1758077818.00579,0.0,0.0,0.0,-61.30648,-53.80074,-3.26586,12.27,-0.25,1.39,2.0
1758077818.0067,1758077818.01579,0.0,0.0,0.0,-59.35843,-58.72818,-13.86558,12.27,-0.25,1.39,2.0
1758077818.00949,1758077818.02579,0.0,0.0,0.0,-53.74345,-50.53488,-26.24147,15.57,-0.24,2.13,2.0
1758077818.02576,1758077818.03579,0.0,0.0,0.0,-50.363,-51.39432,-32.14294,16.42,-1.19,1.76,2.0
1758077818.04176,1758077818.04579,0.0,0.0,0.0,-47.61279,-49.67545,-32.25753,16.42,-1.19,1.76,2.0
1758077818.04264,1758077818.05579,0.0,0.0,0.0,-46.81066,-49.61814,-28.76248,12.5,-1.19,1.84,2.0
1758077818.05906,1758077818.06579,0.0,0.0,0.0,-46.81066,-48.01387,-18.10547,12.5,-1.19,1.84,2.0
1758077818.06031,1758077818.07579,0.0,0.0,0.0,-47.89928,-42.22699,-10.37054,8.61,0.09,0.26,2.0
1758077818.07551,1758077818.08579,0.0,0.0,0.0,-50.363,-35.92446,-2.57831,8.61,0.09,0.26,2.0
1758077818.09175,1758077818.09579,0.0,0.0,0.0,-57.23849,-29.33544,6.7609,6.64,0.01,0.11,2.0
1758077818.09385,1758077818.10579,0.0,0.0,0.0,-63.42643,-24.80907,10.48513,5.71,-0.27,1.1,2.0
1758077818.11038,1758077818.11579,0.0,0.0,0.0,-69.67168,-19.25138,11.91752,5.71,-0.27,1.1,2.0
1758077818.11136,1758077818.12579,0.0,0.0,0.0,-75.68773,-14.78231,11.00079,6.99,-0.38,1.69,2.0
1758077818.12662,1758077818.13579,0.0,0.0,0.0,-81.24542,-7.50575,7.33386,6.99,-0.38,1.69,2.0
1758077818.13168,1758077818.14579,0.0,0.0,0.0,-81.64648,0.17189,4.52637,9.64,-0.78,1.56,2.0
1758077818.14855,1758077818.15579,0.0,0.0,0.0,-79.41196,9.5684,2.06265,9.64,-0.78,1.56,2.0
1758077818.15185,1758077818.16579,0.0,0.0,0.0,-75.28666,20.62648,0.17189,12.33,-1.77,0.77,2.0
1758077818.16992,1758077818.17579,0.0,0.0,0.0,-66.69229,37.58603,-1.71887,12.76,-2.65,0.35,2.0
1758077818.17198,1758077818.18579,0.0,0.0,0.0,-60.50434,42.85724,-1.77617,12.76,-2.65,0.35,2.0
1758077818.1883,1758077818.19579,0.0,0.0,0.0,-55.92068,42.97184,-1.3178,10.11,-2.57,-0.08,2.0
1758077818.19113,1758077818.20579,0.0,0.0,0.0,-53.39967,41.94051,-0.34377,10.11,-2.57,-0.08,2.0
1758077818.20691,1758077818.21579,0.0,0.0,0.0,-52.884,40.7946,2.23454,9.07,-1.77,-0.18,2.0
1758077818.20974,1758077818.22579,0.0,0.0,0.0,-54.02992,38.21629,4.23989,9.07,-1.77,-0.18,2.0
1758077818.226,1758077818.23579,0.0,0.0,0.0,-55.86338,33.86181,6.24524,9.03,-0.98,-0.38,2.0
1758077818.24187,1758077818.24579,0.0,0.0,0.0,-57.12389,30.19488,8.30789,9.03,-0.98,-0.38,2.0
1758077818.24276,1758077818.25579,0.0,0.0,0.0,-58.09792,27.78845,10.59972,8.88,-0.87,-0.72,2.0
1758077818.25787,1758077818.26579,0.0,0.0,0.0,-57.86874,23.49127,11.34457,8.17,-1.24,-0.78,2.0
1758077818.25876,1758077818.27579,0.0,0.0,0.0,-56.78012,19.82434,12.08941,8.17,-1.24,-0.78,2.0
1758077818.2749,1758077818.28579,0.0,0.0,0.0,-53.74345,20.85567,11.34457,8.39,-1.6,-0.51,2.0
1758077818.29162,1758077818.29579,0.0,0.0,0.0,-51.16513,25.26744,10.19865,8.39,-1.6,-0.51,2.0
1758077818.2928,1758077818.30579,0.0,0.0,0.0,-48.64412,27.78845,8.30789,8.96,-1.76,-0.28,2.0
1758077818.31085,1758077818.31579,0.0,0.0,0.0,-46.1804,28.59059,6.07335,8.96,-1.76,-0.28,2.0
1758077818.3122,1758077818.32579,0.0,0.0,0.0,-42.68536,26.06958,2.23454,8.79,-1.7,0.06,2.0
1758077818.33157,1758077818.33579,0.0,0.0,0.0,-40.16434,22.57454,0.11459,8.63,-1.78,-0.24,2.0
1758077818.33388,1758077818.34579,0.0,0.0,0.0,-37.47144,19.19409,-1.14592,8.63,-1.78,-0.24,2.0
1758077818.34885,1758077818.35579,0.0,0.0,0.0,-34.60666,15.98552,-1.60428,8.93,-2.04,-0.49,2.0
1758077818.35093,1758077818.36579,0.0,0.0,0.0,-29.8511,13.17803,-0.74485,8.93,-2.04,-0.49,2.0
1758077818.36689,1758077818.37579,0.0,0.0,0.0,-26.64254,16.38659,-0.11459,9.45,-2.37,-0.52,2.0
1758077818.36859,1758077818.38579,0.0,0.0,0.0,-23.31938,21.94428,0.40107,9.45,-2.37,-0.52,2.0
1758077818.38464,1758077818.39579,0.0,0.0,0.0,-20.22541,25.15285,0.51566,9.95,-2.5,-0.3,2.0
1758077818.4019,1758077818.40579,0.0,0.0,0.0,-15.41257,26.81443,-0.0573,9.58,-2.43,-0.06,2.0
1758077818.40282,1758077818.41579,0.0,0.0,0.0,-11.74564,26.87172,-1.08862,9.58,-2.43,-0.06,2.0
1758077818.4179,1758077818.42579,0.0,0.0,0.0,-7.33386,27.2155,-2.00535,9.7,-2.39,-0.19,2.0
1758077818.41881,1758077818.43579,0.0,0.0,0.0,-2.86479,26.87172,-3.03668,9.7,-2.39,-0.19,2.0
1758077818.4346,1758077818.44579,0.0,0.0,0.0,4.0107,21.48592,-4.81285,9.57,-2.46,-0.67,2.0
1758077818.45189,1758077818.45579,0.0,0.0,0.0,8.93814,15.69904,-7.33386,9.57,-2.46,-0.67,2.0
1758077818.45322,1758077818.46579,0.0,0.0,0.0,13.40721,10.19865,-10.65701,9.06,-2.46,-0.94,2.0
1758077818.46837,1758077818.47579,0.0,0.0,0.0,19.07949,14.83961,-10.71431,9.06,-2.46,-0.94,2.0
1758077818.46966,1758077818.48579,0.0,0.0,0.0,26.01229,34.60666,-13.00614,10.41,-2.72,-1.19,2.0
1758077818.48593,1758077818.49579,0.0,0.0,0.0,31.56997,46.2377,-12.77696,11.1,-2.84,-0.26,2.0
1758077818.50191,1758077818.50579,0.0,0.0,0.0,40.85189,34.60666,-19.88164,11.1,-2.84,-0.26,2.0
1758077818.50285,1758077818.51579,0.0,0.0,0.0,55.86338,-40.96649,-16.04282,5.27,-2.82,-0.94,2.0
1758077818.51792,1758077818.52579,0.0,0.0,0.0,62.96807,-51.22243,-12.49048,5.27,-2.82,-0.94,2.0
1758077818.51884,1758077818.53579,0.0,0.0,0.0,66.40582,-42.91454,-6.41713,9.84,-2.2,-1.56,2.0
1758077818.53501,1758077818.54579,0.0,0.0,0.0,68.41116,-36.26823,-2.86479,9.84,-2.2,-1.56,2.0
1758077818.55168,1758077818.55579,0.0,0.0,0.0,71.21866,-35.12231,-3.03668,11.97,-1.94,-1.81,2.0
1758077818.55331,1758077818.56579,0.0,0.0,0.0,72.53646,-34.49206,-5.78687,10.53,-1.9,-1.15,2.0
1758077818.5701,1758077818.57579,0.0,0.0,0.0,72.53646,-34.32018,-9.4538,10.53,-1.9,-1.15,2.0
1758077818.57166,1758077818.58579,0.0,0.0,0.0,71.84892,-33.9764,-12.204,10.2,-1.94,-1.15,2.0
1758077818.58694,1758077818.59579,0.0,0.0,0.0,68.52576,-27.84575,-13.46451,10.2,-1.94,-1.15,2.0
1758077818.59107,1758077818.60579,0.0,0.0,0.0,64.62964,-28.59059,-10.59972,13.08,-1.71,0.99,2.0
1758077818.60698,1758077818.61579,0.0,0.0,0.0,58.67088,-43.4875,-7.50575,13.08,-1.71,0.99,2.0
1758077818.62302,1758077818.62579,0.0,0.0,0.0,54.08722,-70.93218,4.69825,14.33,-0.11,4.27,2.0
1758077818.62624,1758077818.63579,0.0,0.0,0.0,48.07116,-71.56243,30.65324,18.09,1.46,6.04,2.0
1758077818.64186,1758077818.64579,0.0,0.0,0.0,42.57077,-55.23313,41.65404,18.09,1.46,6.04,2.0
1758077818.64329,1758077818.65579,0.0,0.0,0.0,36.49741,-42.57077,42.68536,15.91,2.71,1.59,2.0
1758077818.65923,1758077818.66579,0.0,0.0,0.0,31.28349,-32.20023,40.04975,15.91,2.71,1.59,2.0
1758077818.66089,1758077818.67579,0.0,0.0,0.0,24.86637,-11.63104,31.56997,9.57,1.23,1.39,2.0
1758077818.67569,1758077818.68579,0.0,0.0,0.0,24.63719,-4.81285,25.49662,9.57,1.23,1.39,2.0
1758077818.69205,1758077818.69579,0.0,0.0,0.0,27.61657,-0.11459,20.51189,6.49,-0.08,1.66,2.0
1758077818.69319,1758077818.70579,0.0,0.0,0.0,34.32018,17.99088,15.35527,6.49,-0.08,1.66,2.0
1758077818.70768,1758077818.71579,0.0,0.0,0.0,37.58603,31.11161,13.23533,9.62,-0.7,3.32,2.0
1758077818.70922,1758077818.72579,0.0,0.0,0.0,39.99245,38.84654,11.00079,12.65,-0.54,3.3,2.0
1758077818.72553,1758077818.73579,0.0,0.0,0.0,41.25296,43.20102,9.68299,12.65,-0.54,3.3,2.0
1758077818.74197,1758077818.74579,0.0,0.0,0.0,39.70598,52.48294,6.07335,11.86,0.14,2.15,2.0
1758077818.74368,1758077818.75579,0.0,0.0,0.0,36.55471,57.46767,2.6929,11.86,0.14,2.15,2.0
1758077818.76107,1758077818.76579,0.0,0.0,0.0,32.83048,60.73353,-0.22918,10.19,0.71,1.2,2.0
1758077818.76231,1758077818.77579,0.0,0.0,0.0,28.36141,63.65561,-2.46372,10.19,0.71,1.2,2.0
1758077818.77801,1758077818.78579,0.0,0.0,0.0,19.82434,67.66632,-5.32851,9.09,1.46,1.39,2.0
1758077818.77895,1758077818.79579,0.0,0.0,0.0,13.5791,64.62964,-6.18794,7.77,2.1,1.35,2.0
1758077818.7949,1758077818.80579,0.0,0.0,0.0,7.10468,58.67088,-5.84417,7.77,2.1,1.35,2.0
1758077818.81103,1758077818.81579,0.0,0.0,0.0,-0.40107,53.51426,-5.21392,6.91,2.61,0.99,2.0
1758077818.8119,1758077818.82579,0.0,0.0,0.0,-11.91752,47.44091,-3.03668,6.91,2.61,0.99,2.0
1758077818.82707,1758077818.83579,0.0,0.0,0.0,-19.42327,42.91454,-1.77617,7.3,2.79,0.6,2.0
1758077818.84385,1758077818.84579,0.0,0.0,0.0,-26.47065,36.49741,-1.14592,7.3,2.79,0.6,2.0
1758077818.84588,1758077818.85579,0.0,0.0,0.0,-32.83048,28.93437,-1.43239,7.48,2.62,0.35,2.0
1758077818.86104,1758077818.86579,0.0,0.0,0.0,-41.02378,19.76705,-4.0107,8.22,2.01,0.3,2.0
1758077818.86194,1758077818.87579,0.0,0.0,0.0,-44.9199,16.50119,-7.16197,8.22,2.01,0.3,2.0
1758077818.87709,1758077818.88579,0.0,0.0,0.0,-47.78468,15.0115,-10.25595,9.47,1.13,0.18,2.0
1758077818.89701,1758077818.89579,0.0,0.0,0.0,-49.79003,17.6471,-14.83961,9.47,1.13,0.18,2.0
1758077818.89742,1758077818.90579,0.0,0.0,0.0,-49.50356,20.05352,-16.55848,10.01,0.5,0.76,2.0
1758077818.91382,1758077818.91579,0.0,0.0,0.0,-48.01387,20.97026,-17.81899,10.01,0.5,0.76,2.0
1758077818.9142,1758077818.92579,0.0,0.0,0.0,-45.89392,20.79837,-17.81899,9.72,0.09,0.9,2.0
1758077818.93006,1758077818.93579,0.0,0.0,0.0,-41.02378,18.9649,-16.04282,9.72,0.09,0.9,2.0
1758077818.93169,1758077818.94579,0.0,0.0,0.0,-37.52874,16.95955,-13.23533,9.32,-0.21,0.94,2.0
1758077818.94695,1758077818.95579,0.0,0.0,0.0,-34.66395,14.78231,-10.37054,9.14,-0.37,1.09,2.0
1758077818.9639,1758077818.96579,0.0,0.0,0.0,-33.05967,17.36062,-8.02141,9.14,-0.37,1.09,2.0
1758077818.96635,1758077818.97579,0.0,0.0,0.0,-33.34615,27.50197,-5.32851,9.86,-0.13,1.23,2.0
1758077818.98207,1758077818.98579,0.0,0.0,0.0,-34.43476,28.93437,-4.98473,9.86,-0.13,1.23,2.0
1758077818.98247,1758077818.99579,0.0,0.0,0.0,-36.84119,26.35606,-5.21392,9.4,0.29,1.26,2.0
1758077818.99806,1758077819.00579,0.0,0.0,0.0,-39.87786,21.42862,-6.07335,9.4,0.29,1.26,2.0
1758077818.99979,1758077819.01579,0.0,0.0,0.0,-45.26366,13.23533,-7.79223,8.96,0.73,0.97,2.0
1758077819.01684,1758077819.02579,0.0,0.0,0.0,-49.38896,6.13065,-9.85487,8.89,1.13,0.53,2.0
1758077819.03387,1758077819.03579,0.0,0.0,0.0,-54.02992,-2.46372,-12.77696,8.89,1.13,0.53,2.0
1758077819.03424,1758077819.04579,0.0,0.0,0.0,-58.84277,-11.86023,-16.21471,8.31,1.61,0.18,2.0
1758077819.05011,1758077819.05579,0.0,0.0,0.0,-65.2599,-35.75257,-21.42862,8.31,1.61,0.18,2.0
1758077819.05101,1758077819.06579,0.0,0.0,0.0,-68.01009,-51.90998,-23.66316,7.23,1.78,-0.48,2.0
1758077819.06606,1758077819.07579,0.0,0.0,0.0,-71.21866,-59.41573,-26.24147,7.23,1.78,-0.48,2.0
1758077819.08208,1758077819.08579,0.0,0.0,0.0,-74.02615,-65.83286,-24.4653,8.38,2.03,-1.07,2.0
1758077819.08241,1758077819.09579,0.0,0.0,0.0,-79.46925,-46.81066,-21.02755,11.21,2.14,-0.66,2.0
1758077819.09779,1758077819.10579,0.0,0.0,0.0,-81.41731,-13.98017,-18.22006,11.21,2.14,-0.66,2.0
1758077819.10008,1758077819.11579,0.0,0.0,0.0,-84.51128,-20.68378,-18.10547,12.22,1.69,0.78,2.0
1758077819.11594,1758077819.12579,0.0,0.0,0.0,-91.38677,-47.38361,-18.62113,12.22,1.69,0.78,2.0
1758077819.13207,1758077819.13579,0.0,0.0,0.0,-94.99641,-43.54479,-19.48057,9.8,1.82,-0.05,2.0
1758077819.1324,1758077819.14579,0.0,0.0,0.0,-98.14767,-31.74186,-20.05352,9.8,1.82,-0.05,2.0
1758077819.14807,1758077819.15579,0.0,0.0,0.0,-99.80926,-23.72045,-18.79302,12.19,1.44,-1.07,2.0
1758077819.15059,1758077819.16579,0.0,0.0,0.0,-101.06976,-17.30333,-15.06879,12.19,1.44,-1.17,2.0
1758077819.16583,1758077819.17579,0.0,0.0,0.0,-101.18435,-12.08941,-12.54778,10.72,0.84,-1.17,2.0
1758077819.18205,1758077819.18579,0.0,0.0,0.0,-99.29359,-5.4431,-9.91217,11.26,-0.15,0.42,2.0
1758077819.18236,1758077819.19579,0.0,0.0,0.0,-94.65263,-2.86479,-7.50575,11.26,-0.15,0.42,2.0
1758077819.19812,1758077819.20579,0.0,0.0,0.0,-83.30807,-30.36677,-6.47442,12.15,-2.04,1.65,2.0
1758077819.19902,1758077819.21579,0.0,0.0,0.0,-79.35466,-65.14531,-15.0115,12.15,-2.04,1.65,2.0
1758077819.21491,1758077819.22579,0.0,0.0,0.0,-74.7137,-67.55173,-25.72581,12.89,-3.56,4.2,2.0
1758077819.23083,1758077819.23579,0.0,0.0,0.0,-67.15066,-53.45696,-34.49206,12.89,-3.56,4.2,2.0
1758077819.2323,1758077819.24579,0.0,0.0,0.0,-54.02992,-54.14451,-43.31561,19.11,-4.04,4.28,2.0
1758077819.24686,1758077819.25579,0.0,0.0,0.0,-48.64412,-61.1346,-44.8053,15.38,-3.48,5.08,2.0
1758077819.26294,1758077819.26579,0.0,0.0,0.0,-47.32632,-60.67623,-42.39888,15.38,-3.48,5.08,2.0
1758077819.26345,1758077819.27579,0.0,0.0,0.0,-49.61814,-52.02457,-37.29956,11.33,-0.71,3.17,2.0
1758077819.28221,1758077819.28579,0.0,0.0,0.0,-57.0093,-39.87786,-25.49662,11.33,-0.71,3.17,2.0
1758077819.28259,1758077819.29579,0.0,0.0,0.0,-63.99939,-33.34615,-16.84496,8.09,0.23,1.57,2.0
1758077819.30113,1758077819.30579,0.0,0.0,0.0,-71.39055,-23.0902,-8.136,8.09,0.23,1.57,2.0
1758077819.30206,1758077819.31579,0.0,0.0,0.0,-81.07353,-7.62034,4.18259,6.96,0.57,0.71,2.0
1758077819.31695,1758077819.32579,0.0,0.0,0.0,-86.05827,0.40107,10.19865,7.16,0.29,0.33,2.0
1758077819.33288,1758077819.33579,0.0,0.0,0.0,-88.80846,7.67763,13.86558,7.16,0.29,0.33,2.0
1758077819.33346,1758077819.34579,0.0,0.0,0.0,-88.86576,15.35527,14.66772,8.95,-0.73,0.7,2.0
1758077819.3491,1758077819.35579,0.0,0.0,0.0,-83.82372,22.00158,10.25595,8.95,-0.73,0.7,2.0
1758077819.3509,1758077819.36579,0.0,0.0,0.0,-77.57849,26.01229,5.21392,10.26,-2.21,1.55,2.0
1758077819.36617,1758077819.37579,0.0,0.0,0.0,-70.18733,34.89313,0.17189,10.26,-2.21,1.55,2.0
1758077819.3674,1758077819.38579,0.0,0.0,0.0,-62.28051,41.94051,-4.69825,10.47,-3.22,1.43,2.0
1758077819.38245,1758077819.39579,0.0,0.0,0.0,-49.61814,38.78925,-6.13065,8.02,-3.0,0.75,2.0
1758077819.40119,1758077819.40579,0.0,0.0,0.0,-43.65939,36.21093,-5.72958,8.02,-3.0,0.75,2.0
1758077819.40212,1758077819.41579,0.0,0.0,0.0,-39.19032,34.72124,-3.83882,7.55,-2.19,0.4,2.0
1758077819.41697,1758077819.42579,0.0,0.0,0.0,-35.63798,32.20023,-0.57296,7.55,-2.19,0.4,2.0
1758077819.41973,1758077819.43579,0.0,0.0,0.0,-32.54401,31.51268,3.89611,8.17,-1.65,-0.08,2.0
1758077819.43693,1758077819.44579,0.0,0.0,0.0,-32.48671,30.82513,6.13065,8.17,-1.65,-0.08,2.0
1758077819.44141,1758077819.45579,0.0,0.0,0.0,-33.34615,29.39274,8.0787,9.04,-1.12,-0.25,2.0
1758077819.45619,1758077819.46579,0.0,0.0,0.0,-35.2369,28.76248,8.70896,9.04,-1.12,-0.25,2.0
1758077819.45712,1758077819.47579,0.0,0.0,0.0,-39.24761,27.50197,7.79223,9.46,-0.68,-0.16,2.0
1758077819.47253,1758077819.48579,0.0,0.0,0.0,-42.28429,28.13223,5.95876,9.59,-0.52,-0.07,2.0
1758077819.47725,1758077819.49579,0.0,0.0,0.0,-44.8053,28.01764,3.83882,9.59,-0.52,-0.07,2.0
1758077819.49437,1758077819.50579,0.0,0.0,0.0,-46.81066,25.26744,1.14592,9.27,-0.68,0.12,2.0
1758077819.51099,1758077819.51579,0.0,0.0,0.0,-46.81066,18.56383,-0.17189,9.27,-0.68,0.12,2.0
1758077819.51221,1758077819.52579,0.0,0.0,0.0,-45.09178,13.98017,-1.08862,8.72,-1.13,-0.08,2.0
1758077819.53079,1758077819.53579,0.0,0.0,0.0,-42.39888,9.91217,-1.60428,8.72,-1.13,-0.08,2.0
1758077819.53199,1758077819.54579,0.0,0.0,0.0,-37.12767,11.51645,-1.71887,8.52,-1.67,-0.33,2.0
1758077819.54696,1758077819.55579,0.0,0.0,0.0,-33.17426,15.69904,-2.11994,8.99,-1.96,-0.2,2.0
1758077819.54841,1758077819.56579,0.0,0.0,0.0,-29.10626,18.79302,-2.7502,8.99,-1.96,-0.2,2.0
1758077819.56623,1758077819.57579,0.0,0.0,0.0,-24.4653,20.51189,-3.72423,8.9,-2.02,0.32,2.0
1758077819.5672,1758077819.58579,0.0,0.0,0.0,-17.18874,19.99623,-5.90147,8.9,-2.02,0.32,2.0
1758077819.58254,1758077819.59579,0.0,0.0,0.0,-11.97482,17.13144,-7.33386,8.86,-2.1,0.33,2.0
1758077819.59819,1758077819.60579,0.0,0.0,0.0,-6.7609,12.37589,-8.25059,8.86,-2.1,0.33,2.0
1758077819.60101,1758077819.61579,0.0,0.0,0.0,-2.00535,4.64096,-10.31324,8.6,-2.25,-0.04,2.0
1758077819.61622,1758077819.62579,0.0,0.0,0.0,6.24524,-3.20856,-12.83425,8.67,-2.47,-0.65,2.0
1758077819.61742,1758077819.63579,0.0,0.0,0.0,12.54778,-6.53172,-12.14671,8.67,-2.47,-0.65,2.0
1758077819.63681,1758077819.64579,0.0,0.0,0.0,18.50654,-5.4431,-11.91752,9.59,-2.81,-0.56,2.0
1758077819.64014,1758077819.65579,0.0,0.0,0.0,24.17882,-1.14592,-10.94349,9.59,-2.81,-0.56,2.0
1758077819.65636,1758077819.66579,0.0,0.0,0.0,30.19488,4.52637,-11.28727,10.21,-3.13,-0.29,2.0
1758077819.65744,1758077819.67579,0.0,0.0,0.0,34.49206,-0.11459,-13.00614,10.21,-3.13,-0.29,2.0
1758077819.67248,1758077819.68579,0.0,0.0,0.0,39.53409,-31.39809,-15.58445,9.06,-2.88,-0.07,2.0
1758077819.67744,1758077819.69579,0.0,0.0,0.0,49.79003,-68.92683,-11.74564,9.06,-2.88,-0.07,2.0
1758077819.71696,1758077819.70579,0.0,0.0,0.0,56.37905,-76.54716,-6.41713,6.84,-2.52,-2.14,2.0
1758077819.71967,1758077819.71579,0.0,0.0,0.0,57.18119,-69.49979,-0.80214,11.62,-2.37,-1.46,2.0
1758077819.7201,1758077819.72579,0.0,0.0,0.0,57.29578,-66.5204,3.09397,11.62,-2.37,-1.46,2.0
1758077819.72168,1758077819.73579,0.0,0.0,0.0,58.4417,-62.28051,2.86479,11.58,-1.89,-1.27,2.0
1758077819.73729,1758077819.74579,0.0,0.0,0.0,58.09792,-56.14987,1.14592,11.58,-1.89,-1.27,2.0
1758077819.73902,1758077819.75579,0.0,0.0,0.0,54.77477,-47.26902,-1.20321,12.37,-1.54,-0.34,2.0
1758077819.75604,1758077819.76579,0.0,0.0,0.0,51.27972,-41.99781,-0.17189,12.37,-1.54,-0.34,2.0
1758077819.75721,1758077819.77579,0.0,0.0,0.0,43.31561,-55.7488,2.11994,15.43,-0.93,2.31,2.0
1758077819.77689,1758077819.78579,0.0,0.0,0.0,40.68,-85.08423,11.57375,15.63,1.3,4.7,2.0
1758077819.77807,1758077819.79579,0.0,0.0,0.0,37.35685,-82.39134,22.86102,15.63,1.3,4.7,2.0
1758077819.79729,1758077819.80579,0.0,0.0,0.0,31.51268,-59.24384,31.39809,19.55,2.55,4.01,2.0
1758077819.80215,1758077819.81579,0.0,0.0,0.0,22.11617,-39.13302,32.20023,19.55,2.55,4.01,2.0
1758077819.81723,1758077819.82579,0.0,0.0,0.0,17.58981,-30.02299,30.48136,12.41,2.11,1.13,2.0
1758077819.82055,1758077819.83579,0.0,0.0,0.0,17.30333,-22.51724,27.50197,12.41,2.11,1.13,2.0
1758077819.83722,1758077819.84579,0.0,0.0,0.0,21.08485,-18.79302,24.23611,7.44,0.18,2.59,2.0
1758077819.8407,1758077819.85579,0.0,0.0,0.0,32.6013,-7.79223,19.99623,7.47,-1.15,2.37,2.0
1758077819.85626,1758077819.86579,0.0,0.0,0.0,40.85189,7.39116,17.6471,7.47,-1.15,2.37,2.0
1758077819.85746,1758077819.87579,0.0,0.0,0.0,47.67009,22.11617,15.41257,11.87,-2.0,3.46,2.0
1758077819.87502,1758077819.88579,0.0,0.0,0.0,52.48294,30.88243,12.2613,11.87,-2.0,3.46,2.0
1758077819.87777,1758077819.89579,0.0,0.0,0.0,56.78012,42.85724,7.84952,12.31,-1.19,1.79,2.0
1758077819.89506,1758077819.90579,0.0,0.0,0.0,57.12389,51.45161,5.55769,12.31,-1.19,1.79,2.0
1758077819.91104,1758077819.91579,0.0,0.0,0.0,54.60288,59.24384,2.23454,11.59,-0.04,0.95,2.0
1758077819.91336,1758077819.92579,0.0,0.0,0.0,49.67545,64.22858,-0.0573,11.59,-0.04,0.95,2.0
1758077819.92803,1758077819.93579,0.0,0.0,0.0,45.83662,67.26525,-0.0573,9.91,1.11,0.69,2.0
1758077819.92922,1758077819.94579,0.0,0.0,0.0,40.96649,67.55173,0.17189,8.3,1.92,1.42,2.0
1758077819.94636,1758077819.95579,0.0,0.0,0.0,35.06502,65.89015,1.20321,8.3,1.92,1.42,2.0
1758077819.94816,1758077819.96579,0.0,0.0,0.0,24.63719,61.30648,3.72423,7.07,2.46,1.29,2.0
1758077819.9633,1758077819.97579,0.0,0.0,0.0,16.61578,56.66553,5.50039,7.07,2.46,1.29,2.0
1758077819.98112,1758077819.98579,0.0,0.0,0.0,8.47978,51.50891,7.21927,6.58,2.81,1.08,2.0
1758077819.98218,1758077819.99579,0.0,0.0,0.0,0.40107,46.1231,7.50575,6.58,2.81,1.08,2.0
1758077819.99733,1758077820.00579,0.0,0.0,0.0,-10.19865,35.52338,6.53172,6.54,2.78,0.58,2.0
1758077819.99979,1758077820.01579,0.0,0.0,0.0,-16.55848,26.41335,4.18259,6.86,2.86,0.36,2.0
1758077820.01507,1758077820.02579,0.0,0.0,0.0,-21.60051,19.07949,1.08862,6.86,2.86,0.36,2.0
1758077820.01948,1758077820.03579,0.0,0.0,0.0,-25.38203,13.34992,-3.03668,8.42,2.21,0.26,2.0
1758077820.03501,1758077820.04579,0.0,0.0,0.0,-28.30412,11.57375,-9.62569,8.42,2.21,0.26,2.0
1758077820.05128,1758077820.05579,0.0,0.0,0.0,-28.59059,11.74564,-12.60507,9.86,1.02,0.36,2.0
1758077820.05268,1758077820.06579,0.0,0.0,0.0,-28.24682,11.86023,-15.0115,9.86,1.02,0.36,2.0
1758077820.06707,1758077820.07579,0.0,0.0,0.0,-26.52795,9.91217,-15.0115,9.85,0.18,0.63,2.0
1758077820.07063,1758077820.08579,0.0,0.0,0.0,-23.83505,7.04738,-13.12073,9.72,-0.41,0.83,2.0
1758077820.08625,1758077820.09579,0.0,0.0,0.0,-22.23076,7.84952,-11.34457,9.72,-0.41,0.83,2.0
1758077820.08728,1758077820.10579,0.0,0.0,0.0,-21.08485,13.46451,-9.33921,10.06,-0.58,0.61,2.0
1758077820.10677,1758077820.11579,0.0,0.0,0.0,-20.22541,19.19409,-6.7609,10.06,-0.58,0.61,2.0
1758077820.10893,1758077820.12579,0.0,0.0,0.0,-20.45459,19.76705,-5.50039,9.73,-0.27,0.84,2.0
1758077820.12655,1758077820.13579,0.0,0.0,0.0,-21.6578,16.73037,-4.58366,9.73,-0.27,0.84,2.0
1758077820.12855,1758077820.14579,0.0,0.0,0.0,-23.72045,13.00614,-3.95341,9.07,0.36,0.62,2.0
1758077820.1464,1758077820.15579,0.0,0.0,0.0,-28.99167,5.21392,-4.46907,9.07,0.36,0.62,2.0
1758077820.14811,1758077820.16579,0.0,0.0,0.0,-33.74722,-2.06265,-5.61499,8.96,1.0,0.06,2.0
1758077820.16598,1758077820.17579,0.0,0.0,0.0,-38.73195,-11.34457,-7.84952,8.44,1.45,-0.56,2.0
1758077820.18141,1758077820.18579,0.0,0.0,0.0,-43.4875,-24.63719,-10.25595,8.44,1.45,-0.56,2.0
1758077820.18233,1758077820.19579,0.0,0.0,0.0,-50.1911,-45.60744,-12.204,7.49,1.57,-1.4,2.0
1758077820.19749,1758077820.20579,0.0,0.0,0.0,-54.3737,-56.14987,-13.06344,7.49,1.57,-1.4,2.0
1758077820.20071,1758077820.21579,0.0,0.0,0.0,-58.67088,-67.60902,-13.40721,7.83,1.9,-1.71,2.0
1758077820.21714,1758077820.22579,0.0,0.0,0.0,-65.66096,-63.77021,-9.4538,7.83,1.9,-1.71,2.0
1758077820.22091,1758077820.23579,0.0,0.0,0.0,-71.21866,-7.84952,-9.96947,10.97,2.4,-1.39,2.0
1758077820.23724,1758077820.24579,0.0,0.0,0.0,-74.08345,-21.48592,-8.93814,12.35,2.11,0.01,2.0
1758077820.26835,1758077820.25579,0.0,0.0,0.0,-80.1568,-47.09713,-12.2613,12.35,2.11,0.01,2.0
1758077820.2687,1758077820.26579,0.0,0.0,0.0,-83.53725,-56.26446,-15.29797,10.19,2.22,0.11,2.0
1758077820.2706,1758077820.27579,0.0,0.0,0.0,-87.94903,-50.99325,-18.73572,10.19,2.22,0.11,2.0
1758077820.27238,1758077820.28579,0.0,0.0,0.0,-88.69387,-46.63877,-17.93358,12.4,1.72,-1.55,2.0
1758077820.27724,1758077820.29579,0.0,0.0,0.0,-89.15224,-40.04975,-16.04282,12.4,1.72,-1.55,2.0
1758077820.29514,1758077820.30579,0.0,0.0,0.0,-88.98035,-32.37212,-12.14671,11.72,0.79,-1.19,2.0
1758077820.31197,1758077820.31579,0.0,0.0,0.0,-87.08958,-22.51724,-5.21392,10.91,-0.39,-0.41,2.0
1758077820.31392,1758077820.32579,0.0,0.0,0.0,-82.56322,-19.59516,-0.85944,10.91,-0.39,-0.41,2.0
1758077820.33161,1758077820.33579,0.0,0.0,0.0,-77.52119,-20.79837,0.17189,11.72,-1.93,1.03,2.0
1758077820.33389,1758077820.34579,0.0,0.0,0.0,-67.55173,-46.81066,0.17189,11.72,-1.93,1.03,2.0
1758077820.35099,1758077820.35579,0.0,0.0,0.0,-64.85883,-80.27139,-8.47978,10.82,-3.32,2.5,2.0
1758077820.35222,1758077820.36579,0.0,0.0,0.0,-65.2599,-90.06896,-22.05888,10.82,-3.32,2.5,2.0
1758077820.36721,1758077820.37579,0.0,0.0,0.0,-61.99404,-71.79161,-31.91375,14.03,-2.53,1.78,2.0
1758077820.37073,1758077820.38579,0.0,0.0,0.0,-54.71747,-61.02001,-39.82057,14.03,-2.53,2.7,2.0
1758077820.38631,1758077820.39579,0.0,0.0,0.0,-51.73809,-71.21866,-41.42485,15.79,-1.6,2.7,2.0
1758077820.38741,1758077820.40579,0.0,0.0,0.0,-52.02457,-71.16136,-39.4768,11.14,0.0,4.06,2.0
1758077820.40605,1758077820.41579,0.0,0.0,0.0,-55.40502,-58.09792,-35.2369,11.14,0.0,4.06,2.0
1758077820.42147,1758077820.42579,0.0,0.0,0.0,-65.54638,-40.7373,-23.89234,10.14,1.15,1.09,2.0
1758077820.42239,1758077820.43579,0.0,0.0,0.0,-74.02615,-32.71589,-14.72501,10.14,1.15,1.09,2.0
1758077820.43749,1758077820.44579,0.0,0.0,0.0,-82.21945,-21.02755,-5.15662,8.55,1.25,0.93,2.0
1758077820.43996,1758077820.45579,0.0,0.0,0.0,-89.03764,-5.15662,3.49504,8.55,1.25,0.93,2.0
1758077820.45596,1758077820.46579,0.0,0.0,0.0,-94.88181,18.50654,11.11538,10.28,0.9,0.07,2.0
1758077820.45723,1758077820.47579,0.0,0.0,0.0,-95.62666,31.16891,11.97482,11.44,-0.23,-0.08,2.0
1758077820.47445,1758077820.48579,0.0,0.0,0.0,-94.07968,40.7373,10.02676,11.44,-0.23,-0.08,2.0
1758077820.49035,1758077820.49579,0.0,0.0,0.0,-90.52733,48.41494,6.24524,11.46,-1.63,-0.23,2.0
1758077820.49323,1758077820.50579,0.0,0.0,0.0,-83.59455,57.23849,-0.0573,11.46,-1.63,-0.23,2.0
1758077820.51119,1758077820.51579,0.0,0.0,0.0,-77.80767,59.64491,-2.6929,10.28,-2.52,0.15,2.0
1758077820.5124,1758077820.52579,0.0,0.0,0.0,-71.90621,55.29043,-4.18259,10.28,-2.52,0.15,2.0
1758077820.52722,1758077820.53579,0.0,0.0,0.0,-63.54102,48.07116,-4.0107,7.77,-2.56,0.43,2.0
1758077820.52841,1758077820.54579,0.0,0.0,0.0,-58.4417,39.01843,-2.34913,6.98,-2.14,0.1,2.0
1758077820.54341,1758077820.55579,0.0,0.0,0.0,-53.74345,35.40879,-0.45837,6.98,-2.14,0.1,2.0
1758077820.5612,1758077820.56579,0.0,0.0,0.0,-49.33167,33.11696,2.00535,7.58,-1.75,-0.23,2.0
1758077820.56238,1758077820.57579,0.0,0.0,0.0,-44.11775,28.70519,4.98473,7.58,-1.75,-0.23,2.0
1758077820.57899,1758077820.58579,0.0,0.0,0.0,-41.76862,24.75178,6.8182,8.0,-1.45,-0.5,2.0
1758077820.58025,1758077820.59579,0.0,0.0,0.0,-39.76327,22.34536,7.73493,8.0,-1.45,-0.5,2.0
1758077820.59526,1758077820.60579,0.0,0.0,0.0,-38.50277,20.85567,7.96411,8.78,-1.2,-0.62,2.0
1758077820.61117,1758077820.61579,0.0,0.0,0.0,-37.29956,17.81899,6.87549,9.11,-1.05,-0.61,2.0
1758077820.61262,1758077820.62579,0.0,0.0,0.0,-36.21093,14.20935,6.35983,9.11,-1.05,-0.61,2.0
1758077820.62822,1758077820.63579,0.0,0.0,0.0,-34.43476,10.19865,5.32851,9.0,-1.17,-0.33,2.0
1758077820.63025,1758077820.64579,0.0,0.0,0.0,-32.20023,7.21927,4.58366,9.0,-1.17,-0.33,2.0
1758077820.64604,1758077820.65579,0.0,0.0,0.0,-28.01764,8.88085,4.23989,9.31,-1.4,-0.51,2.0
1758077820.64768,1758077820.66579,0.0,0.0,0.0,-24.98096,13.46451,3.95341,9.31,-1.4,-0.51,2.0
1758077820.66422,1758077820.67579,0.0,0.0,0.0,-22.11617,18.44924,3.26586,9.69,-1.48,-0.51,2.0
1758077820.68141,1758077820.68579,0.0,0.0,0.0,-19.70975,22.57454,2.40642,9.69,-1.48,-0.51,2.0
1758077820.68238,1758077820.69579,0.0,0.0,0.0,-15.64175,27.33009,0.40107,9.54,-1.33,-0.07,2.0
1758077820.70149,1758077820.70579,0.0,0.0,0.0,-12.89155,28.76248,-0.97403,9.46,-1.29,-0.07,2.0
1758077820.70242,1758077820.71579,0.0,0.0,0.0,-10.25595,30.36677,-2.40642,9.46,-1.29,-0.07,2.0
1758077820.71856,1758077820.72579,0.0,0.0,0.0,-7.39116,30.13758,-4.18259,9.6,-1.45,-0.26,2.0
1758077820.71963,1758077820.73579,0.0,0.0,0.0,-3.26586,20.34,-4.98473,9.6,-1.45,-0.26,2.0
1758077820.73504,1758077820.74579,0.0,0.0,0.0,0.57296,9.05273,-4.87014,8.94,-1.64,-0.4,2.0
1758077820.7515,1758077820.75579,0.0,0.0,0.0,3.09397,11.86023,-7.04738,8.94,-1.64,-0.4,2.0
1758077820.75269,1758077820.76579,0.0,0.0,0.0,11.00079,24.4653,-5.78687,10.04,-1.81,-0.84,2.0
1758077820.76851,1758077820.77579,0.0,0.0,0.0,15.06879,37.98711,-4.98473,11.4,-2.2,-0.53,2.0
1758077820.76944,1758077820.78579,0.0,0.0,0.0,19.07949,42.22699,-5.50039,11.4,-2.2,-0.53,2.0
1758077820.78662,1758077820.79579,0.0,0.0,0.0,25.38203,22.57454,-11.28727,8.44,-2.25,0.31,2.0
1758077820.79183,1758077820.80579,0.0,0.0,0.0,38.78925,-55.00395,-5.90147,8.44,-2.25,0.31,2.0
1758077820.80724,1758077820.81579,0.0,0.0,0.0,45.43555,-70.18733,-1.43239,5.62,-2.61,-2.02,2.0
1758077820.80849,1758077820.82579,0.0,0.0,0.0,46.75336,-68.29657,2.23454,5.62,-2.61,-2.02,2.0
1758077820.82322,1758077820.83579,0.0,0.0,0.0,47.89928,-58.78547,6.7609,10.78,-2.06,-2.26,2.0
1758077820.84127,1758077820.84579,0.0,0.0,0.0,48.12846,-56.32175,6.35983,11.02,-1.07,-2.03,2.0
1758077820.84623,1758077820.85579,0.0,0.0,0.0,48.9306,-58.15522,3.95341,11.02,-1.07,-2.03,2.0
1758077820.86129,1758077820.86579,0.0,0.0,0.0,48.75871,-55.06125,-0.68755,10.69,-0.85,-0.8,2.0
1758077820.86255,1758077820.87579,0.0,0.0,0.0,47.67009,-48.41494,-4.69825,10.69,-0.85,-0.8,2.0
1758077820.87755,1758077820.88579,0.0,0.0,0.0,43.37291,-34.66395,-7.84952,12.24,-0.94,-0.95,2.0
1758077820.87953,1758077820.89579,0.0,0.0,0.0,39.99245,-36.49741,-4.92744,12.24,-0.94,-0.95,2.0
1758077820.89432,1758077820.90579,0.0,0.0,0.0,35.75257,-49.21708,-2.6929,14.71,-1.04,3.55,2.0
1758077820.91056,1758077820.91579,0.0,0.0,0.0,33.34615,-88.63658,5.61499,14.71,-1.04,3.55,2.0
1758077820.91343,1758077820.92579,0.0,0.0,0.0,37.12767,-99.63737,31.11161,13.7,-0.16,5.51,2.0
1758077820.93133,1758077820.93579,0.0,0.0,0.0,35.75257,-73.68237,40.04975,19.46,1.01,4.17,2.0
1758077820.93315,1758077820.94579,0.0,0.0,0.0,32.88778,-55.06125,40.7946,19.46,1.01,4.17,2.0
1758077820.95156,1758077820.95579,0.0,0.0,0.0,29.27814,-38.61736,38.78925,12.21,2.07,1.57,2.0
1758077820.95276,1758077820.96579,0.0,0.0,0.0,29.22085,-23.83505,34.43476,12.21,2.07,1.57,2.0
1758077820.97132,1758077820.97579,0.0,0.0,0.0,32.54401,-14.66772,28.59059,7.58,0.71,3.28,2.0
1758077820.97281,1758077820.98579,0.0,0.0,0.0,37.98711,-5.72958,21.94428,7.58,0.71,3.28,2.0
1758077820.98763,1758077820.99579,0.0,0.0,0.0,44.63341,24.98096,11.00079,8.31,-0.29,1.2,2.0
1758077820.99011,1758077821.00579,0.0,0.0,0.0,47.09713,45.14908,2.92208,13.52,-0.67,1.58,2.0
1758077821.00641,1758077821.01579,0.0,0.0,0.0,48.58683,60.96271,-1.66158,13.52,-0.67,1.58,2.0
1758077821.00785,1758077821.02579,0.0,0.0,0.0,47.78468,74.94289,-2.6929,13.49,-0.21,0.17,2.0
1758077821.02643,1758077821.03579,0.0,0.0,0.0,44.11775,93.33482,-0.22918,13.49,-0.21,0.17,2.0
1758077821.02734,1758077821.04579,0.0,0.0,0.0,40.39353,100.15303,2.34913,11.84,0.3,-0.32,2.0
1758077821.04664,1758077821.05579,0.0,0.0,0.0,35.98175,100.15303,4.58366,11.84,0.3,-0.32,2.0
1758077821.04759,1758077821.06579,0.0,0.0,0.0,31.28349,94.82452,7.04738,9.11,1.08,0.34,2.0
1758077821.06662,1758077821.07579,0.0,0.0,0.0,24.23611,81.93298,8.93814,7.08,1.68,0.81,2.0
1758077821.06754,1758077821.08579,0.0,0.0,0.0,18.90761,74.02615,9.39651,7.08,1.68,0.81,2.0
1758077821.08639,1758077821.09579,0.0,0.0,0.0,12.37589,66.17663,9.05273,6.59,1.99,0.89,2.0
1758077821.09107,1758077821.10579,0.0,0.0,0.0,5.15662,57.41038,7.79223,6.59,1.99,0.89,2.0
1758077821.10661,1758077821.11579,0.0,0.0,0.0,-7.04738,41.36755,4.69825,6.45,2.3,0.65,2.0
1758077821.10782,1758077821.12579,0.0,0.0,0.0,-15.69904,30.25217,1.77617,6.45,2.3,0.65,2.0
1758077821.13167,1758077821.13579,0.0,0.0,0.0,-23.66316,17.30333,-2.34913,7.04,2.66,0.47,2.0
1758077821.13282,1758077821.14579,0.0,0.0,0.0,-33.80451,7.67763,-10.8289,7.04,2.66,0.47,2.0
1758077821.14743,1758077821.15579,0.0,0.0,0.0,-37.52874,2.23454,-16.3293,8.46,2.65,-0.11,2.0
1758077821.1486,1758077821.16579,0.0,0.0,0.0,-38.78925,-2.97938,-18.90761,9.37,1.8,-0.1,2.0
1758077821.16694,1758077821.17579,0.0,0.0,0.0,-40.7373,-2.6929,-23.0329,9.37,1.8,-0.1,2.0
1758077821.17016,1758077821.18579,0.0,0.0,0.0,-40.10705,2.7502,-23.26209,9.65,0.86,0.22,2.0
1758077821.18643,1758077821.19579,0.0,0.0,0.0,-37.87251,7.84952,-22.11617,9.65,0.86,0.22,2.0
1758077821.18878,1758077821.20579,0.0,0.0,0.0,-35.2942,11.51645,-19.59516,9.8,-0.06,0.49,2.0
1758077821.20664,1758077821.21579,0.0,0.0,0.0,-31.85646,12.71966,-16.3293,9.8,-0.06,0.49,2.0
1758077821.21079,1758077821.22579,0.0,0.0,0.0,-26.24147,12.54778,-10.31324,9.41,-0.92,0.71,2.0
1758077821.22719,1758077821.23579,0.0,0.0,0.0,-22.57454,11.86023,-6.58902,9.21,-1.4,0.47,2.0
1758077821.23155,1758077821.24579,0.0,0.0,0.0,-19.19409,11.11538,-3.66693,9.21,-1.4,0.47,2.0
1758077821.25139,1758077821.25579,0.0,0.0,0.0,-16.55848,9.33921,-2.00535,9.02,-1.22,0.14,2.0
1758077821.25369,1758077821.26579,0.0,0.0,0.0,-13.98017,2.63561,-1.77617,9.02,-1.22,0.14,2.0
1758077821.26864,1758077821.27579,0.0,0.0,0.0,-13.17803,-7.16197,-1.83346,8.51,-0.39,-0.3,2.0
1758077821.26987,1758077821.28579,0.0,0.0,0.0,-13.34992,-15.64175,-1.66158,8.51,-0.39,-0.3,2.0
1758077821.28639,1758077821.29579,0.0,0.0,0.0,-14.03747,-20.51189,-2.29183,8.36,0.39,-1.01,2.0
1758077821.28759,1758077821.30579,0.0,0.0,0.0,-16.90226,-30.19488,-3.03668,8.71,1.07,-1.43,2.0
1758077821.30339,1758077821.31579,0.0,0.0,0.0,-19.88164,-33.68992,-1.77617,8.71,1.07,-1.43,2.0
1758077821.32064,1758077821.32579,0.0,0.0,0.0,-25.8404,-5.72958,-5.78687,11.39,1.7,-1.02,2.0
1758077821.32234,1758077821.33579,0.0,0.0,0.0,-30.13758,27.78845,-5.84417,11.39,1.7,-1.02,2.0
1758077821.33747,1758077821.34579,0.0,0.0,0.0,-34.43476,-3.26586,-7.16197,10.63,1.84,0.24,2.0
1758077821.33943,1758077821.35579,0.0,0.0,0.0,-38.56006,-28.24682,-10.54242,10.63,1.84,0.24,2.0
1758077821.35522,1758077821.36579,0.0,0.0,0.0,-41.36755,-35.40879,-15.29797,7.57,2.03,-0.26,2.0
1758077821.37142,1758077821.37579,0.0,0.0,0.0,-42.62806,-30.88243,-16.61578,7.57,2.03,-0.26,2.0
1758077821.37343,1758077821.38579,0.0,0.0,0.0,-44.28964,-25.7831,-15.35527,11.05,1.94,-1.46,2.0
1758077821.3887,1758077821.39579,0.0,0.0,0.0,-45.43555,-23.37668,-10.71431,10.96,1.02,0.26,2.0
1758077821.39125,1758077821.40579,0.0,0.0,0.0,-46.1804,-22.68913,-4.46907,10.96,1.02,0.26,2.0
1758077821.40669,1758077821.41579,0.0,0.0,0.0,-45.83662,-19.48057,6.58902,10.35,-0.09,0.49,2.0
1758077821.40763,1758077821.42579,0.0,0.0,0.0,-45.14908,-19.36597,13.40721,10.35,-0.09,0.49,2.0
1758077821.42342,1758077821.43579,0.0,0.0,0.0,-43.31561,-20.16812,18.22006,9.63,-1.14,0.39,2.0
1758077821.44076,1758077821.44579,0.0,0.0,0.0,-38.90384,-24.5226,21.31403,9.63,-1.14,0.39,2.0
1758077821.44595,1758077821.45579,0.0,0.0,0.0,-27.50197,-43.65939,18.73572,10.63,-1.82,2.21,2.0
1758077821.46129,1758077821.46579,0.0,0.0,0.0,-16.73037,-58.3844,11.97482,13.78,-3.27,4.98,2.0
1758077821.46248,1758077821.47579,0.0,0.0,0.0,-7.67763,-81.70379,-1.77617,13.78,-3.27,4.98,2.0
1758077821.48074,1758077821.48579,0.0,0.0,0.0,0.80214,-83.30807,-17.30333,18.13,-3.33,5.07,2.0
1758077821.48191,1758077821.49579,0.0,0.0,0.0,9.96947,-56.66553,-33.17426,18.13,-3.33,5.07,2.0
1758077821.49659,1758077821.50579,0.0,0.0,0.0,17.81899,-40.7946,-33.86181,16.9,-1.34,2.11,2.0
1758077821.49964,1758077821.51579,0.0,0.0,0.0,26.24147,-35.00772,-29.67921,16.9,-1.34,2.11,2.0
1758077821.51569,1758077821.52579,0.0,0.0,0.0,31.62727,-33.11696,-23.89234,8.89,0.4,2.84,2.0
1758077821.53146,1758077821.53579,0.0,0.0,0.0,32.48671,-27.73116,-10.94349,5.86,0.76,1.4,2.0
1758077821.54017,1758077821.54579,0.0,0.0,0.0,30.99702,-18.79302,-2.06265,5.86,0.76,1.4,2.0
1758077821.54159,1758077821.55579,0.0,0.0,0.0,30.02299,-7.84952,6.58902,7.8,-0.45,1.64,2.0
1758077821.56078,1758077821.56579,0.0,0.0,0.0,33.23156,7.21927,14.32395,7.8,-0.45,1.64,2.0
1758077821.56188,1758077821.57579,0.0,0.0,0.0,38.21629,16.50119,14.9542,10.54,-3.01,2.41,2.0
1758077821.57908,1758077821.58579,0.0,0.0,0.0,45.14908,26.75713,12.77696,10.54,-3.01,2.41,2.0
1758077821.58182,1758077821.59579,0.0,0.0,0.0,53.97263,36.7266,10.02676,12.12,-4.28,1.5,2.0
1758077821.60067,1758077821.60579,0.0,0.0,0.0,64.74423,38.50277,6.41713,12.12,-4.28,1.5,2.0
1758077821.61079,1758077821.61579,0.0,0.0,0.0,69.61437,35.69527,4.69825,10.19,-2.72,0.49,2.0
1758077821.62177,1758077821.62579,0.0,0.0,0.0,72.53646,36.6693,3.83882,8.9,-0.57,0.14,2.0
1758077821.62383,1758077821.63579,0.0,0.0,0.0,74.08345,39.01843,3.83882,8.9,-0.57,0.14,2.0
1758077821.63957,1758077821.64579,0.0,0.0,0.0,74.54182,40.7946,4.58366,9.36,0.39,0.07,2.0
1758077821.64052,1758077821.65579,0.0,0.0,0.0,73.79697,43.14373,5.50039,9.36,0.39,0.07,2.0
1758077821.65583,1758077821.66579,0.0,0.0,0.0,72.76565,45.43555,6.70361,9.95,0.22,0.36,2.0
1758077821.67157,1758077821.67579,0.0,0.0,0.0,71.67702,47.03984,7.67763,9.95,0.22,0.36,2.0
1758077821.67359,1758077821.68579,0.0,0.0,0.0,70.30193,45.20637,8.99544,10.06,-0.32,0.34,2.0
1758077821.68931,1758077821.69579,0.0,0.0,0.0,70.18733,43.54479,9.96947,9.66,-0.81,0.35,2.0
1758077821.69128,1758077821.70579,0.0,0.0,0.0,70.53111,42.34158,10.59972,9.66,-0.81,0.35,2.0
1758077821.7068,1758077821.71579,0.0,0.0,0.0,70.6457,40.27893,10.8862,9.36,-1.05,0.32,2.0
1758077821.70938,1758077821.72579,0.0,0.0,0.0,72.13539,35.86716,11.74564,9.36,-1.05,0.32,2.0
1758077821.72553,1758077821.73579,0.0,0.0,0.0,73.3386,32.77319,12.77696,8.95,-1.19,0.58,2.0
1758077821.74157,1758077821.74578,0.0,0.0,0.0,74.42722,29.67921,13.80828,8.95,-1.19,0.58,2.0
1758077821.74675,1758077821.75578,0.0,0.0,0.0,75.91692,25.21014,16.90226,8.84,-1.24,0.73,2.0
1758077821.76161,1758077821.76578,0.0,0.0,0.0,76.1461,22.63183,18.50654,9.23,-1.05,0.85,2.0
1758077821.7667,1758077821.77578,0.0,0.0,0.0,76.20339,24.35071,19.76705,9.23,-1.05,0.85,2.0
1758077821.7819,1758077821.78578,0.0,0.0,0.0,75.34396,26.24147,19.76705,9.56,-0.76,0.64,2.0
1758077821.78714,1758077821.79578,0.0,0.0,0.0,73.2813,28.30412,18.16276,9.56,-0.76,0.64,2.0
1758077821.80186,1758077821.80578,0.0,0.0,0.0,71.16136,28.70519,16.10011,9.2,-0.38,0.67,2.0
1758077821.80275,1758077821.81578,0.0,0.0,0.0,69.27061,29.33544,13.5791,9.2,-0.38,0.67,2.0
1758077821.81789,1758077821.82578,0.0,0.0,0.0,67.60902,28.87707,11.00079,9.07,-0.05,0.43,2.0
1758077821.82128,1758077821.83578,0.0,0.0,0.0,64.74423,22.91831,7.39116,8.73,-0.05,0.07,2.0
1758077821.83652,1758077821.84578,0.0,0.0,0.0,62.79618,19.36597,3.95341,8.73,0.12,0.07,2.0
1758077821.83934,1758077821.85578,0.0,0.0,0.0,61.02001,28.13223,-1.03132,9.61,0.04,-0.22,2.0
1758077821.85688,1758077821.86578,0.0,0.0,0.0,61.70755,55.51962,1.83346,9.61,0.04,-0.22,2.0
1758077821.86097,1758077821.87578,0.0,0.0,0.0,59.70221,85.08423,1.94806,12.55,-0.37,0.34,2.0
1758077821.87651,1758077821.88578,0.0,0.0,0.0,62.05133,52.42564,0.11459,12.55,-0.37,0.34,2.0
1758077821.8805,1758077821.89578,0.0,0.0,0.0,68.06739,3.55234,5.21392,5.5,-1.06,3.24,2.0
1758077821.89562,1758077821.90578,0.0,0.0,0.0,72.82294,-12.14671,11.45916,5.5,-1.06,3.24,2.0
1758077821.9003,1758077821.91578,0.0,0.0,0.0,72.76565,-1.3178,12.77696,8.6,-2.18,-1.06,2.0
1758077821.91592,1758077821.92578,0.0,0.0,0.0,70.53111,-4.18259,10.02676,9.15,-2.35,-0.39,2.0
1758077821.9203,1758077821.93578,0.0,0.0,0.0,67.37984,-10.65701,6.70361,9.15,-2.35,-0.39,2.0
1758077821.93589,1758077821.94578,0.0,0.0,0.0,63.02536,-13.80828,2.46372,8.06,-1.95,-0.32,2.0
1758077821.95191,1758077821.95578,0.0,0.0,0.0,56.37905,-19.25138,0.74485,8.06,-1.95,-0.32,2.0
1758077821.95363,1758077821.96578,0.0,0.0,0.0,52.36834,-25.21014,0.11459,8.62,-1.27,0.91,2.0
1758077821.97189,1758077821.97578,0.0,0.0,0.0,48.52953,-30.30947,-0.11459,8.62,-1.27,0.91,2.0
1758077821.97685,1758077821.98578,0.0,0.0,0.0,43.60209,-31.51268,0.45837,9.18,-0.74,0.55,2.0
1758077821.9919,1758077821.99578,0.0,0.0,0.0,40.16434,-31.91375,0.74485,10.19,-0.4,1.1,2.0
1758077821.99731,1758077822.00578,0.0,0.0,0.0,37.01308,-32.71589,1.66158,10.19,-0.4,1.1,2.0
1758077822.01192,1758077822.01578,0.0,0.0,0.0,33.74722,-31.79916,2.00535,10.83,-0.23,0.92,2.0
1758077822.01597,1758077822.02578,0.0,0.0,0.0,27.50197,-27.84575,0.68755,10.83,-0.23,0.92,2.0
1758077822.03163,1758077822.03578,0.0,0.0,0.0,23.66316,-26.81443,-0.40107,11.09,-0.28,1.06,2.0
1758077822.0368,1758077822.04578,0.0,0.0,0.0,18.9649,-24.23611,-2.06265,11.09,-0.28,1.06,2.0
1758077822.05191,1758077822.05578,0.0,0.0,0.0,13.5791,-21.02755,-2.23454,11.03,-0.34,0.83,2.0
1758077822.05691,1758077822.06578,0.0,0.0,0.0,2.29183,-13.23533,-0.17189,13.16,0.64,2.94,2.0
1758077822.09567,1758077822.07578,0.0,0.0,0.0,-7.33386,-16.3293,1.94806,13.16,0.64,2.94,2.0
1758077822.09706,1758077822.08578,0.0,0.0,0.0,-14.72501,-39.3622,8.47978,14.52,2.61,3.35,2.0
1758077822.10162,1758077822.09578,0.0,0.0,0.0,-14.38124,-57.86874,17.47521,14.52,2.61,3.35,2.0
1758077822.1069,1758077822.10578,0.0,0.0,0.0,-16.67307,-38.61736,24.35071,15.66,2.47,3.08,2.0
1758077822.10727,1758077822.11578,0.0,0.0,0.0,-22.68913,-19.25138,19.76705,15.66,2.47,3.08,2.0
1758077822.10845,1758077822.12578,0.0,0.0,0.0,-28.76248,-18.10547,13.06344,13.97,2.22,1.75,2.0
1758077822.12631,1758077822.13578,0.0,0.0,0.0,-32.37212,-21.37133,8.30789,13.97,2.22,1.75,2.0
1758077822.14168,1758077822.14578,0.0,0.0,0.0,-39.19032,-13.80828,0.34377,8.06,0.79,1.59,2.0
1758077822.14329,1758077822.15578,0.0,0.0,0.0,-41.13837,-8.25059,-3.72423,7.06,0.45,0.0,2.0
1758077822.16111,1758077822.16578,0.0,0.0,0.0,-39.3622,-6.87549,-4.1253,7.06,0.45,0.0,2.0
1758077822.16205,1758077822.17578,0.0,0.0,0.0,-31.85646,-2.34913,0.22918,6.98,0.75,0.7,2.0
1758077822.17955,1758077822.18578,0.0,0.0,0.0,-24.80907,4.35448,5.32851,6.98,0.75,0.7,2.0
1758077822.18208,1758077822.19578,0.0,0.0,0.0,-17.87628,9.11003,9.5684,9.5,1.3,2.08,2.0
1758077822.20172,1758077822.20578,0.0,0.0,0.0,-11.34457,10.31324,13.40721,9.5,1.3,2.08,2.0
1758077822.20691,1758077822.21578,0.0,0.0,0.0,-5.78687,15.12609,14.83961,11.04,1.96,2.86,2.0
1758077822.22675,1758077822.22578,0.0,0.0,0.0,-5.61499,20.79837,12.49048,12.22,1.88,2.23,2.0
1758077822.23198,1758077822.23578,0.0,0.0,0.0,-7.84952,25.43933,8.65166,12.22,1.88,2.23,2.0
1758077822.23233,1758077822.24578,0.0,0.0,0.0,-11.22997,28.59059,3.66693,10.83,1.51,1.62,2.0
1758077822.25222,1758077822.25578,0.0,0.0,0.0,-17.93358,33.00237,-3.89611,10.83,1.51,1.62,2.0
1758077822.25283,1758077822.26578,0.0,0.0,0.0,-22.74642,37.29956,-7.67763,9.47,1.4,1.17,2.0
1758077822.26959,1758077822.27578,0.0,0.0,0.0,-27.84575,40.39353,-10.02676,9.47,1.4,1.17,2.0
1758077822.27202,1758077822.28578,0.0,0.0,0.0,-32.37212,41.76862,-10.8862,8.88,1.77,0.8,2.0
1758077822.2917,1758077822.29578,0.0,0.0,0.0,-37.58603,43.14373,-10.8862,8.68,2.04,1.17,2.0
1758077822.29639,1758077822.30578,0.0,0.0,0.0,-39.64868,42.68536,-11.17268,8.68,2.04,1.17,2.0
1758077822.3117,1758077822.31578,0.0,0.0,0.0,-40.50812,39.99245,-11.28727,8.32,2.18,1.15,2.0
1758077822.3172,1758077822.32578,0.0,0.0,0.0,-40.16434,37.24226,-11.91752,8.32,2.18,1.15,2.0
1758077822.33195,1758077822.33578,0.0,0.0,0.0,-39.24761,32.37212,-13.69369,8.27,1.97,1.34,2.0
1758077822.33696,1758077822.34578,0.0,0.0,0.0,-38.78925,28.30412,-15.75634,8.27,1.97,1.34,2.0
1758077822.35199,1758077822.35578,0.0,0.0,0.0,-38.15899,21.88699,-17.13144,8.24,1.59,1.14,2.0
1758077822.35723,1758077822.36578,0.0,0.0,0.0,-38.90384,14.61043,-19.36597,8.24,1.59,1.14,2.0
1758077822.3717,1758077822.37578,0.0,0.0,0.0,-40.50812,0.40107,-19.76705,8.33,1.24,1.22,2.0
1758077822.37291,1758077822.38578,0.0,0.0,0.0,-43.4875,-4.92744,-23.26209,8.62,1.27,1.08,2.0
1758077822.39095,1758077822.39578,0.0,0.0,0.0,-45.89392,-10.08406,-25.89769,8.62,1.27,1.08,2.0
1758077822.39239,1758077822.40578,0.0,0.0,0.0,-50.2484,-8.93814,-28.476,9.38,1.62,0.85,2.0
1758077822.41174,1758077822.41578,0.0,0.0,0.0,-52.76942,-6.53172,-30.30947,9.38,1.62,0.85,2.0
1758077822.43125,1758077822.42578,0.0,0.0,0.0,-54.66018,-5.50039,-31.2262,9.88,1.78,0.99,2.0
1758077822.43186,1758077822.43578,0.0,0.0,0.0,-56.55093,-4.92744,-31.56997,9.88,1.78,0.99,2.0
1758077822.43706,1758077822.44578,0.0,0.0,0.0,-58.90006,-3.55234,-31.79916,9.86,1.71,0.72,2.0
1758077822.4404,1758077822.45578,0.0,0.0,0.0,-60.27517,-2.92208,-31.56997,9.88,1.47,0.34,2.0
1758077822.46178,1758077822.46578,0.0,0.0,0.0,-61.65026,-3.38045,-31.16891,9.88,1.47,0.34,2.0
1758077822.46294,1758077822.47578,0.0,0.0,0.0,-62.96807,-4.87014,-30.19488,9.61,1.12,0.02,2.0
1758077822.48045,1758077822.48578,0.0,0.0,0.0,-63.88479,-8.88085,-27.61657,9.61,1.12,0.02,2.0
1758077822.48156,1758077822.49578,0.0,0.0,0.0,-64.17127,-9.4538,-26.81443,9.31,0.71,-0.2,2.0
1758077822.49701,1758077822.50578,0.0,0.0,0.0,-64.80153,-7.33386,-25.49662,9.31,0.71,-0.2,2.0
1758077822.49956,1758077822.51578,0.0,0.0,0.0,-64.51505,-6.99009,-22.74642,9.55,0.47,-0.25,2.0
1758077822.51579,1758077822.52578,0.0,0.0,0.0,-65.83286,6.41713,-16.272,10.06,0.49,0.08,2.0
1758077822.53175,1758077822.53578,0.0,0.0,0.0,-67.78091,21.31403,-14.9542,10.06,0.49,0.08,2.0
1758077822.53694,1758077822.54578,0.0,0.0,0.0,-73.68237,20.34,-17.01685,10.14,0.86,0.58,2.0
1758077822.55205,1758077822.55578,0.0,0.0,0.0,-76.54716,9.74028,-18.44924,10.14,0.86,0.58,2.0
1758077822.55322,1758077822.56578,0.0,0.0,0.0,-79.29736,-6.24524,-19.99623,8.11,1.63,-0.03,2.0
1758077822.5704,1758077822.57578,0.0,0.0,0.0,-80.38599,-7.84952,-20.79837,8.11,1.63,-0.03,2.0
1758077822.57321,1758077822.58578,0.0,0.0,0.0,-81.30271,-2.6929,-20.34,9.67,1.87,-0.58,2.0
