timeStamp,timeStampAlign,roll,pitch,yaw,gyro_x,gyro_y,gyro_z,acc_x,acc_y,acc_z,flag_num
1758077231.63687,1758077231.43491,0.0,0.0,0.0,22.68913,-33.11696,-10.25595,9.96,-0.26,1.95,4.0
1758077231.65607,1758077231.44491,0.0,0.0,0.0,23.66316,-30.59595,-7.62034,9.96,-0.26,1.95,4.0
1758077231.67623,1758077231.45491,0.0,0.0,0.0,24.86637,-24.92367,-4.18259,9.73,0.09,1.76,4.0
1758077231.67681,1758077231.46491,0.0,0.0,0.0,24.75178,-19.70975,-3.20856,9.73,0.09,1.76,4.0
1758077231.67805,1758077231.47491,0.0,0.0,0.0,24.00693,-14.61043,-2.29183,9.95,0.41,1.45,4.0
1758077231.69295,1758077231.48491,0.0,0.0,0.0,22.28806,-8.42248,-2.40642,9.95,0.41,1.45,4.0
1758077231.69679,1758077231.49491,0.0,0.0,0.0,18.33465,0.97403,-3.89611,10.48,0.66,1.14,4.0
1758077231.7122,1758077231.50491,0.0,0.0,0.0,15.41257,7.21927,-5.09932,10.77,0.76,1.14,4.0
1758077231.7139,1758077231.51491,0.0,0.0,0.0,12.83425,13.12073,-6.35983,10.77,0.76,1.14,4.0
1758077231.73095,1758077231.52491,0.0,0.0,0.0,9.96947,17.81899,-7.67763,10.59,0.7,1.1,4.0
1758077231.73547,1758077231.53491,0.0,0.0,0.0,9.22462,22.05888,-7.73493,10.59,0.7,1.1,4.0
1758077231.75116,1758077231.54491,0.0,0.0,0.0,8.93814,24.17882,-7.21927,10.28,0.6,1.01,4.0
1758077231.7556,1758077231.55491,0.0,0.0,0.0,9.11003,25.89769,-6.53172,10.28,0.6,1.01,4.0
1758077231.77114,1758077231.56491,0.0,0.0,0.0,9.91217,26.69983,-5.21392,10.16,0.49,0.92,4.0
1758077231.77536,1758077231.57491,0.0,0.0,0.0,10.19865,25.55392,-4.29718,9.82,0.4,0.95,4.0
1758077231.79104,1758077231.58491,0.0,0.0,0.0,10.19865,22.91831,-3.66693,9.82,0.4,0.95,4.0
1758077231.79331,1758077231.59491,0.0,0.0,0.0,9.96947,19.19409,-3.49504,9.3,0.34,0.93,4.0
1758077231.81125,1758077231.60491,0.0,0.0,0.0,8.42248,14.78231,-3.49504,9.3,0.34,0.93,4.0
1758077231.81306,1758077231.61491,0.0,0.0,0.0,6.70361,13.5218,-3.89611,9.04,0.39,0.87,4.0
1758077231.82879,1758077231.62491,0.0,0.0,0.0,5.61499,16.95955,-3.83882,9.04,0.39,0.87,4.0
1758077231.84507,1758077231.63491,0.0,0.0,0.0,4.92744,24.35071,-3.20856,9.48,0.39,0.85,4.0
1758077231.84617,1758077231.64491,0.0,0.0,0.0,4.52637,31.45539,-2.06265,9.47,0.32,1.03,4.0
1758077231.86105,1758077231.65491,0.0,0.0,0.0,3.95341,30.48136,-1.71887,9.47,0.32,1.03,4.0
1758077231.86299,1758077231.66491,0.0,0.0,0.0,3.26586,27.61657,-1.48969,8.48,0.32,0.99,4.0
1758077231.88028,1758077231.67491,0.0,0.0,0.0,2.46372,24.57989,-1.43239,8.48,0.32,0.99,4.0
1758077231.8811,1758077231.68491,0.0,0.0,0.0,1.60428,21.08485,0.0573,8.31,0.39,0.79,4.0
1758077231.89703,1758077231.69491,0.0,0.0,0.0,1.08862,21.02755,1.14592,8.31,0.39,0.79,4.0
1758077231.91302,1758077231.70491,0.0,0.0,0.0,0.74485,21.37133,2.6929,8.69,0.4,0.83,4.0
1758077231.91518,1758077231.71491,0.0,0.0,0.0,0.51566,21.42862,4.52637,8.69,0.4,0.83,4.0
1758077231.93123,1758077231.72491,0.0,0.0,0.0,0.17189,17.53251,5.15662,8.64,0.33,0.61,4.0
1758077231.93244,1758077231.73491,0.0,0.0,0.0,0.17189,12.14671,5.4431,7.83,0.26,0.33,4.0
1758077231.94706,1758077231.74491,0.0,0.0,0.0,0.34377,6.18794,5.61499,7.83,0.26,0.33,4.0
1758077231.9641,1758077231.75491,0.0,0.0,0.0,-0.11459,-3.72423,5.95876,7.25,0.2,0.12,4.0
1758077231.96602,1758077231.76491,0.0,0.0,0.0,-0.0573,-10.59972,6.53172,7.25,0.2,0.12,4.0
1758077231.98134,1758077231.77491,0.0,0.0,0.0,-0.40107,-14.9542,7.73493,7.12,0.22,0.09,4.0
1758077231.98332,1758077231.78491,0.0,0.0,0.0,-0.97403,-17.18874,8.93814,7.12,0.22,0.09,4.0
1758077231.99806,1758077231.79491,0.0,0.0,0.0,-2.92208,-19.53786,9.85487,7.61,0.27,0.23,4.0
1758077232.00202,1758077231.80491,0.0,0.0,0.0,-4.87014,-21.94428,10.19865,7.63,0.38,0.42,4.0
1758077232.0696,1758077231.81491,0.0,0.0,0.0,-6.87549,-23.66316,10.54242,7.63,0.38,0.42,4.0
1758077232.07077,1758077231.82491,0.0,0.0,0.0,-9.05273,-23.60586,11.00079,7.89,0.47,0.29,4.0
1758077232.07139,1758077231.83491,0.0,0.0,0.0,-12.43318,-21.7151,11.51645,7.89,0.47,0.29,4.0
1758077232.0754,1758077231.84491,0.0,0.0,0.0,-14.32395,-20.3973,11.80293,8.28,0.49,0.05,4.0
1758077232.0758,1758077231.85491,0.0,0.0,0.0,-15.41257,-19.25138,11.97482,8.28,0.49,0.05,4.0
1758077232.07695,1758077231.86491,0.0,0.0,0.0,-15.69904,-18.44924,12.14671,8.45,0.38,-0.04,4.0
1758077232.0807,1758077231.87491,0.0,0.0,0.0,-14.66772,-17.81899,12.204,8.49,0.19,0.13,4.0
1758077232.08147,1758077231.88491,0.0,0.0,0.0,-12.83425,-18.44924,11.91752,8.49,0.19,0.13,4.0
1758077232.10052,1758077231.89491,0.0,0.0,0.0,-10.94349,-18.85031,11.80293,8.48,0.0,0.32,4.0
1758077232.10126,1758077231.90491,0.0,0.0,0.0,-8.59437,-19.13679,11.91752,8.48,0.0,0.32,4.0
1758077232.11809,1758077231.91491,0.0,0.0,0.0,-4.87014,-19.36597,11.91752,8.57,-0.08,0.23,4.0
1758077232.13513,1758077231.92491,0.0,0.0,0.0,-2.46372,-18.62113,12.08941,8.57,-0.08,0.23,4.0
1758077232.13614,1758077231.93491,0.0,0.0,0.0,-0.0573,-17.76169,12.43318,8.67,-0.02,0.05,4.0
1758077232.15143,1758077231.94491,0.0,0.0,0.0,3.03668,-17.18874,13.00614,8.67,-0.02,0.05,4.0
1758077232.15228,1758077231.95491,0.0,0.0,0.0,5.09932,-16.90226,13.5218,8.55,0.12,-0.03,4.0
1758077232.16814,1758077231.96491,0.0,0.0,0.0,7.21927,-16.84496,13.75099,8.36,0.28,-0.03,4.0
1758077232.20998,1758077231.97491,0.0,0.0,0.0,9.28192,-16.73037,13.80828,8.36,0.28,-0.03,4.0
1758077232.21125,1758077231.98491,0.0,0.0,0.0,11.97482,-16.95955,13.06344,8.27,0.39,-0.12,4.0
1758077232.21187,1758077231.99491,0.0,0.0,0.0,13.75099,-19.07949,12.49048,8.27,0.39,-0.12,4.0
1758077232.21393,1758077232.00491,0.0,0.0,0.0,15.58445,-22.34536,10.94349,8.31,0.33,0.36,4.0
1758077232.21644,1758077232.01491,0.0,0.0,0.0,17.99088,-25.8404,8.136,8.31,0.33,0.36,4.0
1758077232.23246,1758077232.02491,0.0,0.0,0.0,23.49127,-32.37212,1.43239,9.68,-0.18,1.83,4.0
1758077232.23333,1758077232.03491,0.0,0.0,0.0,28.476,-35.40879,-2.00535,11.82,-1.17,3.13,4.0
1758077232.24934,1758077232.04491,0.0,0.0,0.0,34.09099,-40.50812,-4.29718,11.82,-1.17,3.13,4.0
1758077232.26538,1758077232.05491,0.0,0.0,0.0,39.99245,-45.83662,-4.69825,12.35,-2.62,3.21,4.0
1758077232.26664,1758077232.06491,0.0,0.0,0.0,47.09713,-50.2484,-1.43239,12.35,-2.62,3.21,4.0
1758077232.28119,1758077232.07491,0.0,0.0,0.0,49.61814,-49.56085,2.57831,12.21,-3.21,2.32,4.0
1758077232.28273,1758077232.08491,0.0,0.0,0.0,50.01921,-44.40423,7.16197,12.21,-3.21,2.32,4.0
1758077232.30044,1758077232.09491,0.0,0.0,0.0,49.84733,-40.62271,13.34992,13.46,-2.36,1.64,4.0
1758077232.30137,1758077232.10491,0.0,0.0,0.0,48.35764,-34.77854,20.51189,15.81,-2.06,2.09,4.0
1758077232.32433,1758077232.11491,0.0,0.0,0.0,46.75336,-35.75257,18.85031,15.81,-2.06,2.09,4.0
1758077232.34626,1758077232.12491,0.0,0.0,0.0,43.83128,-33.34615,13.46451,18.18,-2.91,1.0,4.0
1758077232.34696,1758077232.13491,0.0,0.0,0.0,39.70598,-23.20479,4.1253,18.18,-2.91,1.0,4.0
1758077232.34892,1758077232.14491,0.0,0.0,0.0,34.60666,-4.46907,2.11994,16.56,-3.66,-0.87,4.0
1758077232.36501,1758077232.15491,0.0,0.0,0.0,32.42941,5.95876,4.1253,16.56,-3.66,-0.87,4.0
1758077232.36697,1758077232.16491,0.0,0.0,0.0,30.93972,13.00614,7.44845,12.64,-3.09,-0.17,4.0
1758077232.38529,1758077232.17491,0.0,0.0,0.0,29.67921,15.87093,12.89155,12.64,-3.09,-0.17,4.0
1758077232.38948,1758077232.18491,0.0,0.0,0.0,29.50733,16.67307,16.10011,11.33,-1.7,0.49,4.0
1758077232.40447,1758077232.19491,0.0,0.0,0.0,28.93437,18.50654,18.16276,12.21,-0.83,0.79,4.0
1758077232.40547,1758077232.20491,0.0,0.0,0.0,28.01764,19.07949,18.44924,12.21,-0.83,0.79,4.0
1758077232.42048,1758077232.21491,0.0,0.0,0.0,25.26744,18.73572,16.04282,11.72,-0.92,0.66,4.0
1758077232.4214,1758077232.22491,0.0,0.0,0.0,23.26209,18.62113,13.80828,11.72,-0.92,0.66,4.0
1758077232.43822,1758077232.23491,0.0,0.0,0.0,20.85567,17.99088,11.51645,10.59,-1.53,0.58,4.0
1758077232.44179,1758077232.24491,0.0,0.0,0.0,18.33465,17.36062,9.22462,10.59,-1.53,0.58,4.0
1758077232.46124,1758077232.25491,0.0,0.0,0.0,15.24068,17.99088,6.35983,10.05,-1.9,0.6,4.0
1758077232.46399,1758077232.26491,0.0,0.0,0.0,14.03747,19.19409,4.92744,10.3,-1.86,0.6,4.0
1758077232.48028,1758077232.27491,0.0,0.0,0.0,13.5218,20.22541,4.18259,10.3,-1.86,0.6,4.0
1758077232.48146,1758077232.28491,0.0,0.0,0.0,13.46451,20.22541,3.95341,10.23,-1.65,0.71,4.0
1758077232.49927,1758077232.29491,0.0,0.0,0.0,13.46451,20.3973,4.29718,10.23,-1.65,0.71,4.0
1758077232.50371,1758077232.30491,0.0,0.0,0.0,13.40721,21.7151,4.81285,9.81,-1.49,0.64,4.0
1758077232.52127,1758077232.31491,0.0,0.0,0.0,12.60507,23.26209,4.87014,9.81,-1.49,0.64,4.0
1758077232.52672,1758077232.32491,0.0,0.0,0.0,11.51645,24.29341,4.23989,9.29,-1.34,0.54,4.0
1758077232.54138,1758077232.33491,0.0,0.0,0.0,9.05273,22.23076,2.34913,8.43,-1.17,0.44,4.0
1758077232.54597,1758077232.34491,0.0,0.0,0.0,7.21927,18.27736,0.97403,8.43,-1.17,0.44,4.0
1758077232.56159,1758077232.35491,0.0,0.0,0.0,5.4431,13.80828,-0.45837,7.71,-1.12,0.32,4.0
1758077232.56488,1758077232.36491,0.0,0.0,0.0,2.7502,9.28192,-2.29183,7.71,-1.12,0.32,4.0
1758077232.58034,1758077232.37491,0.0,0.0,0.0,1.43239,2.86479,-3.26586,7.66,-1.18,0.25,4.0
1758077232.58149,1758077232.38491,0.0,0.0,0.0,0.34377,-0.51566,-4.0107,7.66,-1.18,0.25,4.0
1758077232.59831,1758077232.39491,0.0,0.0,0.0,-0.34377,-2.57831,-4.58366,7.94,-1.28,0.09,4.0
1758077232.61536,1758077232.40491,0.0,0.0,0.0,-0.68755,-4.52637,-5.50039,7.94,-1.28,0.09,4.0
1758077232.61657,1758077232.41491,0.0,0.0,0.0,-0.74485,-6.13065,-6.13065,8.24,-1.38,0.05,4.0
1758077232.63158,1758077232.42491,0.0,0.0,0.0,-0.45837,-7.96411,-6.99009,8.22,-1.4,-0.03,4.0
1758077232.63278,1758077232.43491,0.0,0.0,0.0,-0.17189,-9.74028,-7.96411,8.22,-1.4,-0.03,4.0
1758077232.64778,1758077232.44491,0.0,0.0,0.0,0.34377,-11.74564,-9.4538,8.31,-1.37,-0.15,4.0
1758077232.66545,1758077232.45491,0.0,0.0,0.0,0.51566,-12.77696,-10.8862,8.31,-1.37,-0.15,4.0
1758077232.66633,1758077232.46491,0.0,0.0,0.0,0.40107,-13.86558,-12.08941,8.38,-1.3,-0.08,4.0
1758077232.68137,1758077232.47491,0.0,0.0,0.0,-0.17189,-14.9542,-13.40721,8.38,-1.3,-0.08,4.0
1758077232.68259,1758077232.48491,0.0,0.0,0.0,-1.66158,-15.58445,-14.61043,8.33,-1.09,-0.12,4.0
1758077232.69946,1758077232.49491,0.0,0.0,0.0,-2.97938,-15.12609,-15.12609,8.38,-0.83,-0.04,4.0
1758077232.71563,1758077232.50491,0.0,0.0,0.0,-4.35448,-13.98017,-15.29797,8.38,-0.83,-0.04,4.0
1758077232.71683,1758077232.51491,0.0,0.0,0.0,-5.78687,-11.97482,-15.12609,8.68,-0.74,0.03,4.0
1758077232.7315,1758077232.52491,0.0,0.0,0.0,-7.79223,-8.76626,-14.78231,8.68,-0.74,0.03,4.0
1758077232.73661,1758077232.53491,0.0,0.0,0.0,-9.05273,-8.25059,-14.78231,8.9,-0.84,-0.05,4.0
1758077232.7629,1758077232.54491,0.0,0.0,0.0,-10.31324,-8.65166,-15.29797,8.9,-0.84,-0.05,4.0
1758077232.76411,1758077232.55491,0.0,0.0,0.0,-11.51645,-8.99544,-16.67307,8.8,-0.99,-0.24,4.0
1758077232.76514,1758077232.56491,0.0,0.0,0.0,-13.23533,-8.42248,-17.81899,9.07,-1.08,-0.37,4.0
1758077232.78169,1758077232.57491,0.0,0.0,0.0,-14.66772,-7.44845,-18.9649,9.07,-1.08,-0.37,4.0
1758077232.78499,1758077232.58491,0.0,0.0,0.0,-16.21471,-6.07335,-20.05352,9.51,-1.13,-0.46,4.0
1758077232.80035,1758077232.59491,0.0,0.0,0.0,-18.9649,-4.98473,-20.85567,9.51,-1.13,-0.46,4.0
1758077232.80158,1758077232.60491,0.0,0.0,0.0,-20.68378,-3.95341,-20.79837,9.75,-1.14,-0.68,4.0
1758077232.82064,1758077232.61491,0.0,0.0,0.0,-22.57454,-2.11994,-20.45459,9.75,-1.14,-0.68,4.0
1758077232.82164,1758077232.62491,0.0,0.0,0.0,-24.4653,-0.22918,-19.70975,10.06,-1.13,-0.78,4.0
1758077232.83769,1758077232.63491,0.0,0.0,0.0,-26.47065,-0.34377,-18.50654,10.06,-1.13,-0.53,4.0
1758077232.85348,1758077232.64491,0.0,0.0,0.0,-27.67386,-1.48969,-17.6471,9.74,-1.13,-0.53,4.0
1758077232.85616,1758077232.65491,0.0,0.0,0.0,-28.64789,-2.63561,-16.73037,9.06,-1.18,-0.38,4.0
1758077232.87175,1758077232.66491,0.0,0.0,0.0,-29.04896,-4.18259,-15.64175,9.06,-1.18,-0.38,4.0
1758077232.87615,1758077232.67491,0.0,0.0,0.0,-29.9084,-5.84417,-14.15206,8.4,-1.28,-0.32,4.0
1758077232.89174,1758077232.68491,0.0,0.0,0.0,-30.48136,-6.41713,-13.34992,8.4,-1.28,-0.32,4.0
1758077232.89344,1758077232.69491,0.0,0.0,0.0,-31.16891,-6.18794,-12.49048,8.19,-1.37,-0.54,4.0
1758077232.91075,1758077232.70491,0.0,0.0,0.0,-32.25753,-5.61499,-12.08941,8.19,-1.37,-0.54,4.0
1758077232.91191,1758077232.71491,0.0,0.0,0.0,-34.60666,-5.32851,-11.51645,8.26,-1.47,-0.81,4.0
1758077232.92743,1758077232.72491,0.0,0.0,0.0,-36.49741,-5.61499,-11.45916,8.32,-1.43,-0.91,4.0
1758077232.94447,1758077232.73491,0.0,0.0,0.0,-38.61736,-7.21927,-11.74564,8.32,-1.43,-0.91,4.0
1758077232.94521,1758077232.74491,0.0,0.0,0.0,-40.7373,-10.37054,-11.80293,8.07,-1.22,-0.64,4.0
1758077232.96075,1758077232.75491,0.0,0.0,0.0,-43.4875,-11.34457,-11.51645,8.07,-1.22,-0.64,4.0
1758077232.96162,1758077232.76491,0.0,0.0,0.0,-45.37826,-11.63104,-10.71431,8.67,-0.86,0.27,4.0
1758077232.97646,1758077232.77491,0.0,0.0,0.0,-47.09713,-15.64175,-8.99544,8.67,-0.86,0.27,4.0
1758077232.99273,1758077232.78491,0.0,0.0,0.0,-48.9879,-21.88699,-4.69825,9.51,-0.46,1.81,4.0
1758077232.99365,1758077232.79491,0.0,0.0,0.0,-51.10783,-30.30947,-1.66158,10.65,-0.32,3.26,4.0
1758077233.00872,1758077232.80491,0.0,0.0,0.0,-52.884,-34.26288,1.14592,10.65,-0.32,3.26,4.0
1758077233.02555,1758077232.81491,0.0,0.0,0.0,-54.94666,-36.32552,3.26586,11.78,-0.2,3.09,4.0
1758077233.02603,1758077232.82491,0.0,0.0,0.0,-58.72818,-46.1231,2.23454,11.78,-0.2,3.09,4.0
1758077233.05563,1758077232.83491,0.0,0.0,0.0,-59.41573,-44.9199,-0.22918,11.48,0.08,1.85,4.0
1758077233.05819,1758077232.84491,0.0,0.0,0.0,-58.09792,-35.3515,-2.97938,11.48,0.08,1.85,4.0
1758077233.05881,1758077232.85491,0.0,0.0,0.0,-54.77477,-20.51189,-6.13065,13.44,0.34,-0.08,4.0
1758077233.06149,1758077232.86491,0.0,0.0,0.0,-47.09713,1.48969,-10.37054,13.89,0.0,-0.72,4.0
1758077233.07682,1758077232.87491,0.0,0.0,0.0,-41.08107,15.75634,-11.91752,13.89,0.0,-0.72,4.0
1758077233.09349,1758077232.88491,0.0,0.0,0.0,-35.58068,29.50733,-11.57375,14.71,-0.1,0.37,4.0
1758077233.0963,1758077232.89491,0.0,0.0,0.0,-30.30947,36.89849,-10.48513,14.71,-0.1,0.37,4.0
1758077233.11179,1758077232.90491,0.0,0.0,0.0,-20.45459,14.15206,-3.72423,15.35,-0.21,-0.01,4.0
1758077233.11355,1758077232.91491,0.0,0.0,0.0,-13.75099,-6.7609,1.83346,15.35,-0.21,-0.01,4.0
1758077233.12881,1758077232.92491,0.0,0.0,0.0,-9.74028,-8.36518,3.72423,13.16,-1.18,-0.8,4.0
1758077233.12974,1758077232.93491,0.0,0.0,0.0,-5.90147,16.10011,3.03668,13.16,-1.18,-0.8,4.0
1758077233.14629,1758077232.94491,0.0,0.0,0.0,0.34377,47.95657,-0.22918,14.74,-2.07,-0.69,4.0
1758077233.1618,1758077232.95491,0.0,0.0,0.0,3.66693,50.13381,-3.60963,11.97,-1.52,0.47,4.0
1758077233.16636,1758077232.96491,0.0,0.0,0.0,5.95876,44.28964,-5.95876,11.97,-1.52,0.47,4.0
1758077233.18163,1758077232.97491,0.0,0.0,0.0,7.21927,35.98175,-6.58902,10.82,-0.78,-0.04,4.0
1758077233.1828,1758077232.98491,0.0,0.0,0.0,7.62034,29.39274,-5.21392,10.82,-0.78,-0.04,4.0
1758077233.19789,1758077232.99491,0.0,0.0,0.0,8.25059,28.76248,-2.7502,11.65,-0.23,0.47,4.0
1758077233.19962,1758077233.00491,0.0,0.0,0.0,9.11003,27.04361,-0.85944,11.65,-0.23,0.47,4.0
1758077233.21597,1758077233.01491,0.0,0.0,0.0,11.22997,22.40265,0.68755,10.58,-0.1,0.61,4.0
1758077233.23164,1758077233.02491,0.0,0.0,0.0,12.71966,18.56383,1.20321,9.09,-0.33,0.43,4.0
1758077233.23282,1758077233.03491,0.0,0.0,0.0,13.80828,15.75634,1.14592,9.09,-0.33,0.43,4.0
1758077233.24765,1758077233.04491,0.0,0.0,0.0,14.72501,13.98017,0.80214,8.96,-0.56,0.38,4.0
1758077233.24965,1758077233.05491,0.0,0.0,0.0,16.04282,12.77696,0.68755,8.96,-0.56,0.38,4.0
1758077233.26524,1758077233.06491,0.0,0.0,0.0,17.24603,12.60507,1.03132,9.28,-0.6,0.32,4.0
1758077233.28097,1758077233.07491,0.0,0.0,0.0,18.33465,12.49048,1.48969,9.28,-0.6,0.32,4.0
1758077233.28185,1758077233.08491,0.0,0.0,0.0,19.19409,11.91752,2.34913,9.2,-0.42,-0.04,4.0
1758077233.298,1758077233.09491,0.0,0.0,0.0,19.99623,8.76626,3.72423,8.59,-0.06,-0.34,4.0
1758077233.31396,1758077233.10491,0.0,0.0,0.0,20.05352,5.78687,4.23989,8.59,-0.06,-0.34,4.0
1758077233.3156,1758077233.11491,0.0,0.0,0.0,19.76705,3.03668,4.81285,8.08,0.27,-0.44,4.0
1758077233.33093,1758077233.12491,0.0,0.0,0.0,19.25138,0.74485,5.50039,8.08,0.27,-0.44,4.0
1758077233.36483,1758077233.13491,0.0,0.0,0.0,18.33465,-2.11994,6.41713,7.98,0.45,-0.51,4.0
1758077233.39061,1758077233.14491,0.0,0.0,0.0,17.53251,-4.64096,7.16197,7.98,0.45,-0.51,4.0
1758077233.39235,1758077233.15491,0.0,0.0,0.0,16.55848,-8.136,7.79223,7.77,0.49,-0.58,4.0
1758077233.39298,1758077233.16491,0.0,0.0,0.0,15.58445,-11.86023,7.84952,7.77,0.49,-0.58,4.0
1758077233.39602,1758077233.17491,0.0,0.0,0.0,14.15206,-17.24603,8.0787,7.41,0.49,-0.51,4.0
1758077233.39649,1758077233.18491,0.0,0.0,0.0,13.23533,-20.22541,7.84952,7.12,0.52,-0.23,4.0
1758077233.40098,1758077233.19491,0.0,0.0,0.0,12.14671,-23.26209,7.50575,7.12,0.52,-0.23,4.0
1758077233.40156,1758077233.20491,0.0,0.0,0.0,10.59972,-26.06958,7.04738,7.05,0.53,-0.15,4.0
1758077233.41772,1758077233.21491,0.0,0.0,0.0,9.62569,-27.73116,6.99009,7.05,0.53,-0.15,4.0
1758077233.43377,1758077233.22491,0.0,0.0,0.0,8.76626,-26.41335,7.10468,7.57,0.45,-0.41,4.0
1758077233.43574,1758077233.23491,0.0,0.0,0.0,8.25059,-23.20479,7.44845,7.57,0.45,-0.41,4.0
1758077233.45252,1758077233.24491,0.0,0.0,0.0,7.67763,-18.44924,8.42248,8.45,0.26,-0.53,4.0
1758077233.45597,1758077233.25491,0.0,0.0,0.0,7.50575,-16.04282,9.39651,8.9,0.05,-0.52,4.0
1758077233.47262,1758077233.26491,0.0,0.0,0.0,7.44845,-14.66772,10.48513,8.9,0.05,-0.52,4.0
1758077233.47944,1758077233.27491,0.0,0.0,0.0,7.39116,-13.69369,11.57375,9.09,-0.05,-0.71,4.0
1758077233.48164,1758077233.28491,0.0,0.0,0.0,7.79223,-13.98017,12.2613,9.09,-0.05,-0.71,4.0
1758077233.50598,1758077233.29491,0.0,0.0,0.0,8.136,-15.46986,12.37589,8.95,-0.09,-0.83,4.0
1758077233.57124,1758077233.30491,0.0,0.0,0.0,9.05273,-17.24603,11.97482,8.95,-0.09,-0.83,4.0
1758077233.57195,1758077233.31491,0.0,0.0,0.0,9.85487,-17.30333,11.51645,8.83,-0.03,-0.86,4.0
1758077233.57506,1758077233.32491,0.0,0.0,0.0,11.63104,-14.43854,11.11538,9.28,0.1,-0.78,4.0
1758077233.57549,1758077233.33491,0.0,0.0,0.0,12.83425,-12.49048,10.71431,9.28,0.1,-0.78,4.0
1758077233.5766,1758077233.34491,0.0,0.0,0.0,13.98017,-10.54242,10.37054,9.35,0.19,-0.8,4.0
1758077233.57726,1758077233.35491,0.0,0.0,0.0,15.24068,-8.36518,10.02676,9.35,0.19,-0.8,4.0
1758077233.57804,1758077233.36491,0.0,0.0,0.0,17.47521,-5.4431,9.22462,9.19,0.12,-1.03,4.0
1758077233.58071,1758077233.37491,0.0,0.0,0.0,19.36597,-4.69825,8.70896,9.19,0.12,-1.03,4.0
1758077233.58146,1758077233.38491,0.0,0.0,0.0,21.37133,-5.15662,8.30789,8.72,0.07,-1.09,4.0
1758077233.59692,1758077233.39491,0.0,0.0,0.0,23.54857,-4.23989,8.136,8.72,0.07,-1.09,4.0
1758077233.61286,1758077233.40491,0.0,0.0,0.0,27.61657,-0.80214,8.0787,8.63,0.14,-1.41,4.0
1758077233.61675,1758077233.41491,0.0,0.0,0.0,29.9084,-1.03132,8.136,8.41,0.18,-1.49,4.0
1758077233.63213,1758077233.42491,0.0,0.0,0.0,32.14294,-3.83882,8.136,8.41,0.18,-1.49,4.0
1758077233.63332,1758077233.43491,0.0,0.0,0.0,34.72124,-9.85487,8.0787,7.89,0.31,-1.12,4.0
1758077233.64815,1758077233.44491,0.0,0.0,0.0,36.03905,-15.41257,7.67763,7.89,0.31,-1.12,4.0
1758077233.64985,1758077233.45491,0.0,0.0,0.0,37.01308,-23.0329,6.24524,8.28,0.26,0.38,4.0
1758077233.66593,1758077233.46491,0.0,0.0,0.0,37.64333,-30.65324,4.35448,8.28,0.26,0.38,4.0
1758077233.68187,1758077233.47491,0.0,0.0,0.0,38.44547,-38.21629,1.94806,9.85,-0.19,1.98,4.0
1758077233.6831,1758077233.48491,0.0,0.0,0.0,39.01843,-38.15899,1.48969,11.97,-0.95,2.67,4.0
1758077233.69897,1758077233.49491,0.0,0.0,0.0,39.01843,-34.26288,1.20321,11.97,-0.95,2.67,4.0
1758077233.70066,1758077233.50491,0.0,0.0,0.0,39.53409,-30.88243,1.48969,13.1,-1.94,2.33,4.0
1758077233.71716,1758077233.51491,0.0,0.0,0.0,40.16434,-45.09178,5.32851,13.1,-1.94,2.33,4.0
1758077233.73285,1758077233.52491,0.0,0.0,0.0,41.59674,-60.27517,8.93814,12.49,-2.64,2.4,4.0
1758077233.73563,1758077233.53491,0.0,0.0,0.0,43.60209,-63.88479,10.8289,12.49,-2.64,2.4,4.0
1758077233.75117,1758077233.54491,0.0,0.0,0.0,43.31561,-56.60823,10.54242,17.46,-3.92,1.5,4.0
1758077233.75289,1758077233.55491,0.0,0.0,0.0,38.73195,-48.52953,11.28727,17.96,-4.57,-2.03,4.0
1758077233.76794,1758077233.56491,0.0,0.0,0.0,33.63263,-41.02378,12.43318,17.96,-4.57,-2.03,4.0
1758077233.7839,1758077233.57491,0.0,0.0,0.0,30.53865,-22.68913,16.272,14.83,-2.54,-1.94,4.0
1758077233.78646,1758077233.58491,0.0,0.0,0.0,27.84575,-5.32851,19.82434,14.83,-2.54,-1.94,4.0
1758077233.80095,1758077233.59491,0.0,0.0,0.0,24.4653,11.74564,23.0329,13.34,-0.56,-1.33,4.0
1758077233.80329,1758077233.60491,0.0,0.0,0.0,21.37133,16.38659,23.26209,13.34,-0.56,-1.33,4.0
1758077233.81799,1758077233.61491,0.0,0.0,0.0,17.36062,17.18874,22.05888,12.37,0.56,-0.16,4.0
1758077233.82072,1758077233.62491,0.0,0.0,0.0,9.5684,15.64175,18.22006,12.37,0.56,-0.16,4.0
1758077233.83698,1758077233.63491,0.0,0.0,0.0,3.38045,11.97482,15.29797,12.62,0.49,0.14,4.0
1758077233.85471,1758077233.64491,0.0,0.0,0.0,-2.57831,11.11538,12.37589,12.13,-0.61,-0.18,4.0
1758077233.85598,1758077233.65491,0.0,0.0,0.0,-7.96411,11.34457,9.68299,12.13,-0.61,-0.18,4.0
1758077233.87101,1758077233.66491,0.0,0.0,0.0,-13.34992,18.85031,7.04738,11.1,-1.42,-0.32,4.0
1758077233.87298,1758077233.67491,0.0,0.0,0.0,-14.83961,25.15285,6.13065,11.1,-1.42,-0.32,4.0
1758077233.88925,1758077233.68491,0.0,0.0,0.0,-15.46986,26.81443,5.32851,10.89,-1.59,-0.12,4.0
1758077233.89061,1758077233.69491,0.0,0.0,0.0,-15.41257,25.21014,5.15662,10.89,-1.59,-0.12,4.0
1758077233.90635,1758077233.70491,0.0,0.0,0.0,-13.86558,25.15285,5.61499,10.13,-1.5,-0.18,4.0
1758077233.92233,1758077233.71491,0.0,0.0,0.0,-12.37589,25.7831,6.53172,10.24,-1.58,-0.16,4.0
1758077233.92351,1758077233.72491,0.0,0.0,0.0,-10.71431,24.98096,7.50575,10.24,-1.58,-0.16,4.0
1758077233.93947,1758077233.73491,0.0,0.0,0.0,-9.5684,23.0902,8.25059,9.63,-2.01,0.03,4.0
1758077233.94101,1758077233.7449,0.0,0.0,0.0,-8.0787,19.36597,9.11003,9.63,-2.01,0.03,4.0
1758077233.95769,1758077233.7549,0.0,0.0,0.0,-7.21927,16.84496,9.33921,9.04,-2.28,0.06,4.0
1758077233.96721,1758077233.7649,0.0,0.0,0.0,-6.87549,15.98552,9.22462,9.04,-2.28,0.06,4.0
1758077234.11693,1758077233.7749,0.0,0.0,0.0,-6.47442,15.41257,8.36518,8.83,-2.28,0.11,4.0
1758077234.14114,1758077233.7849,0.0,0.0,0.0,-5.78687,13.69369,6.41713,8.44,-1.97,-0.05,4.0
1758077234.14173,1758077233.7949,0.0,0.0,0.0,-5.78687,13.69369,4.92744,8.44,-1.97,-0.05,4.0
1758077234.18561,1758077233.8049,0.0,0.0,0.0,-5.90147,15.29797,2.7502,8.4,-1.57,-0.38,4.0
1758077234.18615,1758077233.8149,0.0,0.0,0.0,-5.84417,18.62113,-0.74485,8.4,-1.57,-0.38,4.0
1758077234.189,1758077233.8249,0.0,0.0,0.0,-6.70361,23.60586,-3.60963,8.54,-1.25,-0.57,4.0
1758077234.18964,1758077233.8349,0.0,0.0,0.0,-7.62034,26.06958,-6.07335,8.54,-1.25,-0.57,4.0
1758077234.19118,1758077233.8449,0.0,0.0,0.0,-7.73493,26.06958,-8.02141,8.49,-1.15,-0.36,4.0
1758077234.1923,1758077233.8549,0.0,0.0,0.0,-8.02141,18.90761,-10.08406,8.49,-1.15,-0.36,4.0
1758077234.19312,1758077233.8649,0.0,0.0,0.0,-8.02141,12.37589,-11.11538,8.15,-1.15,-0.42,4.0
1758077234.1957,1758077233.8749,0.0,0.0,0.0,-8.02141,5.95876,-11.80293,8.21,-1.18,-0.42,4.0
1758077234.19638,1758077233.8849,0.0,0.0,0.0,-7.96411,0.57296,-12.2613,8.21,-1.18,-0.42,4.0
1758077234.19783,1758077233.8949,0.0,0.0,0.0,-7.04738,-5.27121,-12.204,8.63,-1.35,-0.32,4.0
1758077234.19831,1758077233.9049,0.0,0.0,0.0,-5.95876,-8.136,-11.80293,8.63,-1.35,-0.32,4.0
1758077234.2011,1758077233.9149,0.0,0.0,0.0,-4.64096,-10.31324,-11.22997,8.81,-1.61,-0.21,4.0
1758077234.20179,1758077233.9249,0.0,0.0,0.0,-3.20856,-12.2613,-10.65701,8.81,-1.61,-0.21,4.0
1758077234.20297,1758077233.9349,0.0,0.0,0.0,-1.03132,-14.03747,-10.19865,8.73,-1.85,-0.29,4.0
1758077234.20359,1758077233.9449,0.0,0.0,0.0,0.22918,-13.75099,-10.19865,8.76,-1.91,-0.54,4.0
1758077234.20484,1758077233.9549,0.0,0.0,0.0,1.43239,-12.71966,-10.48513,8.76,-1.91,-0.54,4.0
1758077234.20626,1758077233.9649,0.0,0.0,0.0,2.29183,-11.57375,-10.8862,8.99,-1.86,-0.75,4.0
1758077234.20749,1758077233.9749,0.0,0.0,0.0,3.32316,-10.02676,-11.80293,8.99,-1.86,-0.75,4.0
1758077234.20894,1758077233.9849,0.0,0.0,0.0,3.66693,-9.28192,-12.37589,9.17,-1.79,-0.65,4.0
1758077234.20988,1758077233.9949,0.0,0.0,0.0,3.72423,-8.65166,-12.89155,9.17,-1.79,-0.65,4.0
1758077234.21082,1758077234.0049,0.0,0.0,0.0,3.83882,-7.96411,-13.34992,9.44,-1.63,-0.71,4.0
1758077234.21161,1758077234.0149,0.0,0.0,0.0,3.55234,-6.53172,-13.98017,9.71,-1.44,-0.78,4.0
1758077234.25101,1758077234.0249,0.0,0.0,0.0,3.32316,-4.98473,-14.15206,9.71,-1.44,-0.78,4.0
1758077234.25301,1758077234.0349,0.0,0.0,0.0,3.09397,-3.72423,-14.32395,9.84,-1.31,-0.69,4.0
1758077234.25559,1758077234.0449,0.0,0.0,0.0,2.46372,-2.57831,-14.32395,9.84,-1.31,-0.69,4.0
1758077234.25675,1758077234.0549,0.0,0.0,0.0,1.66158,-0.11459,-14.20935,9.81,-1.29,-0.57,4.0
1758077234.27298,1758077234.0649,0.0,0.0,0.0,0.57296,1.66158,-14.32395,9.81,-1.29,-0.57,4.0
1758077234.27532,1758077234.0749,0.0,0.0,0.0,-0.80214,2.97938,-14.20935,9.82,-1.25,-0.7,4.0
1758077234.29017,1758077234.0849,0.0,0.0,0.0,-3.26586,3.09397,-14.38124,9.82,-1.25,-0.7,4.0
1758077234.29135,1758077234.0949,0.0,0.0,0.0,-4.81285,3.03668,-14.43854,9.72,-1.15,-0.7,4.0
1758077234.30616,1758077234.1049,0.0,0.0,0.0,-6.41713,3.20856,-14.20935,9.7,-1.01,-0.74,4.0
1758077234.32324,1758077234.1149,0.0,0.0,0.0,-7.50575,3.32316,-14.20935,9.7,-1.01,-0.74,4.0
1758077234.32594,1758077234.1249,0.0,0.0,0.0,-9.28192,3.72423,-14.03747,9.69,-0.89,-0.77,4.0
1758077234.34139,1758077234.1349,0.0,0.0,0.0,-10.31324,3.89611,-13.75099,9.69,-0.89,-0.77,4.0
1758077234.34563,1758077234.1449,0.0,0.0,0.0,-11.51645,3.38045,-13.5218,9.55,-0.81,-0.76,4.0
1758077234.36119,1758077234.1549,0.0,0.0,0.0,-12.83425,2.57831,-13.23533,9.55,-0.81,-0.76,4.0
1758077234.36238,1758077234.1649,0.0,0.0,0.0,-15.24068,1.03132,-12.89155,9.23,-0.81,-0.73,4.0
1758077234.37873,1758077234.1749,0.0,0.0,0.0,-16.84496,0.51566,-12.37589,9.13,-0.83,-0.72,4.0
1758077234.38076,1758077234.1849,0.0,0.0,0.0,-18.62113,0.34377,-11.91752,9.13,-0.83,-0.72,4.0
1758077234.3962,1758077234.1949,0.0,0.0,0.0,-20.68378,-0.17189,-11.74564,9.21,-0.87,-0.68,4.0
1758077234.41303,1758077234.2049,0.0,0.0,0.0,-23.72045,-0.57296,-11.45916,9.21,-0.87,-0.68,4.0
1758077234.41577,1758077234.2149,0.0,0.0,0.0,-25.61122,-0.74485,-11.45916,9.31,-0.9,-0.89,4.0
1758077234.43119,1758077234.2249,0.0,0.0,0.0,-27.50197,-0.57296,-11.22997,9.31,-0.9,-0.89,4.0
1758077234.43238,1758077234.2349,0.0,0.0,0.0,-29.27814,-0.22918,-10.59972,9.23,-0.89,-1.05,4.0
1758077234.44906,1758077234.2449,0.0,0.0,0.0,-31.85646,-0.0573,-10.08406,9.0,-0.84,-1.05,4.0
1758077234.45081,1758077234.2549,0.0,0.0,0.0,-33.51803,-0.51566,-9.5684,9.0,-0.84,-1.05,4.0
1758077234.51603,1758077234.2649,0.0,0.0,0.0,-35.2942,-1.3751,-8.99544,8.67,-0.81,-1.08,4.0
1758077234.52251,1758077234.2749,0.0,0.0,0.0,-38.1017,-3.09397,-8.25059,8.67,-0.81,-1.08,4.0
1758077234.52582,1758077234.2849,0.0,0.0,0.0,-39.82057,-4.58366,-8.0787,8.41,-0.84,-1.26,4.0
1758077234.5286,1758077234.2949,0.0,0.0,0.0,-41.48215,-6.35983,-7.84952,8.41,-0.84,-1.26,4.0
1758077234.5298,1758077234.3049,0.0,0.0,0.0,-43.31561,-8.36518,-7.96411,8.09,-0.85,-1.45,4.0
1758077234.53105,1758077234.3149,0.0,0.0,0.0,-45.49285,-11.97482,-8.02141,8.09,-0.85,-1.24,4.0
1758077234.53163,1758077234.3249,0.0,0.0,0.0,-46.69606,-15.0115,-7.96411,7.76,-0.82,-1.24,4.0
1758077234.53248,1758077234.3349,0.0,0.0,0.0,-48.01387,-18.73572,-7.79223,7.91,-0.67,-0.5,4.0
1758077234.55062,1758077234.3449,0.0,0.0,0.0,-49.04519,-22.23076,-7.21927,7.91,-0.67,-0.5,4.0
1758077234.55181,1758077234.3549,0.0,0.0,0.0,-51.10783,-26.18417,-6.24524,8.69,-0.38,0.3,4.0
1758077234.57086,1758077234.3649,0.0,0.0,0.0,-53.05589,-27.1582,-5.72958,8.69,-0.38,0.3,4.0
1758077234.57269,1758077234.3749,0.0,0.0,0.0,-55.7488,-28.64789,-4.87014,9.86,-0.07,1.42,4.0
1758077234.58855,1758077234.3849,0.0,0.0,0.0,-58.72818,-30.65324,-4.0107,9.86,-0.07,1.42,4.0
1758077234.59101,1758077234.3949,0.0,0.0,0.0,-62.68159,-30.19488,-3.03668,10.88,0.19,2.09,4.0
1758077234.60755,1758077234.4049,0.0,0.0,0.0,-64.11398,-26.41335,-2.57831,12.13,0.32,1.47,4.0
1758077234.62591,1758077234.4149,0.0,0.0,0.0,-64.51505,-18.9649,-2.97938,12.13,0.32,1.47,4.0
1758077234.63135,1758077234.4249,0.0,0.0,0.0,-63.88479,-10.59972,-4.0107,12.95,0.17,0.33,4.0
1758077234.63175,1758077234.4349,0.0,0.0,0.0,-60.38975,5.61499,-5.4431,12.95,0.17,0.33,4.0
1758077234.65107,1758077234.4449,0.0,0.0,0.0,-57.86874,20.85567,-5.32851,14.37,0.07,0.96,4.0
1758077234.68564,1758077234.4549,0.0,0.0,0.0,-55.11855,37.24226,-4.69825,14.37,0.07,0.96,4.0
1758077234.68616,1758077234.4649,0.0,0.0,0.0,-47.09713,36.21093,-2.06265,17.19,0.34,-0.2,4.0
1758077234.6898,1758077234.4749,0.0,0.0,0.0,-37.81522,-7.50575,4.81285,12.25,-0.41,-1.52,4.0
1758077234.69042,1758077234.4849,0.0,0.0,0.0,-29.56462,-24.92367,9.39651,12.25,-0.41,-1.52,4.0
1758077234.69245,1758077234.4949,0.0,0.0,0.0,-22.40265,-1.03132,8.76626,13.3,-1.83,-1.64,4.0
1758077234.71079,1758077234.5049,0.0,0.0,0.0,-11.22997,45.60744,3.72423,13.3,-1.83,-1.64,4.0
1758077234.71165,1758077234.5149,0.0,0.0,0.0,-6.47442,48.24305,-1.94806,13.91,-1.98,-0.07,4.0
1758077234.72758,1758077234.5249,0.0,0.0,0.0,-3.32316,39.70598,-6.70361,13.91,-1.98,-0.07,4.0
1758077234.73248,1758077234.5349,0.0,0.0,0.0,-1.03132,33.00237,-9.85487,10.62,-1.58,0.05,4.0
1758077234.74839,1758077234.5449,0.0,0.0,0.0,0.51566,24.98096,-9.91217,12.2,-1.58,-0.61,4.0
1758077234.75107,1758077234.5549,0.0,0.0,0.0,1.08862,22.57454,-7.96411,12.2,-1.17,-0.61,4.0
1758077234.76761,1758077234.5649,0.0,0.0,0.0,1.43239,20.62648,-4.98473,11.69,-0.46,-0.42,4.0
1758077234.78596,1758077234.5749,0.0,0.0,0.0,1.77617,18.62113,-2.40642,11.69,-0.46,-0.42,4.0
1758077234.79142,1758077234.5849,0.0,0.0,0.0,3.09397,18.10547,0.51566,10.33,-0.24,-0.34,4.0
1758077234.7918,1758077234.5949,0.0,0.0,0.0,4.46907,19.42327,1.3751,10.33,-0.24,-0.34,4.0
1758077234.81111,1758077234.6049,0.0,0.0,0.0,6.18794,21.14215,1.3178,10.52,-0.33,-0.51,4.0
1758077234.81588,1758077234.6149,0.0,0.0,0.0,8.0787,21.94428,0.80214,10.52,-0.33,-0.51,4.0
1758077234.83116,1758077234.6249,0.0,0.0,0.0,10.65701,20.16812,-0.34377,10.83,-0.49,-0.45,4.0
1758077234.83239,1758077234.6349,0.0,0.0,0.0,12.204,17.6471,-0.97403,10.38,-0.47,-0.4,4.0
1758077234.84909,1758077234.6449,0.0,0.0,0.0,13.75099,15.29797,-0.97403,10.38,-0.47,-0.4,4.0
1758077234.85577,1758077234.6549,0.0,0.0,0.0,14.61043,13.80828,-0.51566,10.06,-0.31,-0.39,4.0
1758077234.87135,1758077234.6649,0.0,0.0,0.0,15.46986,11.45916,-0.11459,10.06,-0.31,-0.39,4.0
1758077234.99162,1758077234.6749,0.0,0.0,0.0,15.64175,10.25595,-0.0573,9.71,-0.12,-0.31,4.0
1758077234.99301,1758077234.6849,0.0,0.0,0.0,15.69904,9.62569,0.17189,9.71,-0.12,-0.31,4.0
1758077235.00061,1758077234.6949,0.0,0.0,0.0,15.29797,11.63104,0.68755,9.6,0.0,-0.44,4.0
1758077235.00115,1758077234.7049,0.0,0.0,0.0,15.06879,14.03747,0.97403,9.68,0.06,-0.5,4.0
1758077235.004,1758077234.7149,0.0,0.0,0.0,14.83961,15.98552,1.08862,9.68,0.06,-0.5,4.0
1758077235.00461,1758077234.7249,0.0,0.0,0.0,14.78231,16.84496,1.3751,9.4,0.07,-0.58,4.0
1758077235.0054,1758077234.7349,0.0,0.0,0.0,14.78231,16.50119,1.77617,9.4,0.07,-0.58,4.0
1758077235.00706,1758077234.7449,0.0,0.0,0.0,15.06879,15.98552,2.40642,8.99,0.04,-0.79,4.0
1758077235.00933,1758077234.7549,0.0,0.0,0.0,15.35527,15.92823,3.09397,8.99,0.04,-0.79,4.0
1758077235.00996,1758077234.7649,0.0,0.0,0.0,15.69904,15.41257,3.72423,8.73,0.0,-0.74,4.0
1758077235.01148,1758077234.7749,0.0,0.0,0.0,15.69904,12.2613,4.87014,8.29,0.0,-0.74,4.0
1758077235.01347,1758077234.7849,0.0,0.0,0.0,15.58445,8.25059,5.50039,8.29,0.0,-0.74,4.0
1758077235.01579,1758077234.7949,0.0,0.0,0.0,15.29797,4.18259,6.07335,7.87,0.06,-0.73,4.0
1758077235.02089,1758077234.8049,0.0,0.0,0.0,14.9542,0.0573,6.41713,7.87,0.06,-0.73,4.0
1758077235.0215,1758077234.8149,0.0,0.0,0.0,14.09476,-5.21392,6.8182,7.76,0.12,-0.7,4.0
1758077235.03067,1758077234.8249,0.0,0.0,0.0,13.5218,-7.21927,6.99009,7.76,0.12,-0.7,4.0
1758077235.03129,1758077234.8349,0.0,0.0,0.0,13.00614,-8.25059,6.99009,7.85,0.24,-0.72,4.0
1758077235.05141,1758077234.8449,0.0,0.0,0.0,12.49048,-9.62569,7.04738,7.85,0.24,-0.72,4.0
1758077235.05347,1758077234.8549,0.0,0.0,0.0,11.80293,-11.97482,7.21927,7.87,0.35,-0.71,4.0
1758077235.07146,1758077234.8649,0.0,0.0,0.0,11.63104,-13.17803,7.67763,7.89,0.39,-0.81,4.0
1758077235.07346,1758077234.8749,0.0,0.0,0.0,11.63104,-13.46451,8.25059,7.89,0.39,-0.81,4.0
1758077235.0892,1758077234.8849,0.0,0.0,0.0,12.14671,-12.89155,9.22462,8.17,0.33,-0.84,4.0
1758077235.09046,1758077234.8949,0.0,0.0,0.0,12.54778,-11.57375,9.68299,8.17,0.33,-0.84,4.0
1758077235.16133,1758077234.9049,0.0,0.0,0.0,12.89155,-10.94349,10.37054,8.44,0.19,-0.76,4.0
1758077235.18873,1758077234.9149,0.0,0.0,0.0,13.34992,-10.8289,10.71431,8.44,0.19,-0.76,4.0
1758077235.1906,1758077234.9249,0.0,0.0,0.0,13.86558,-10.48513,11.34457,8.58,0.01,-0.73,4.0
1758077235.19182,1758077234.9349,0.0,0.0,0.0,14.38124,-9.91217,11.63104,8.72,-0.12,-0.67,4.0
1758077235.19564,1758077234.9449,0.0,0.0,0.0,14.78231,-9.11003,11.74564,8.72,-0.12,-0.67,4.0
1758077235.20085,1758077234.9549,0.0,0.0,0.0,15.29797,-8.136,11.74564,8.8,-0.14,-0.54,4.0
1758077235.20145,1758077234.9649,0.0,0.0,0.0,15.92823,-6.35983,11.34457,8.8,-0.14,-0.54,4.0
1758077235.20621,1758077234.9749,0.0,0.0,0.0,16.61578,-5.4431,11.11538,8.83,-0.03,-0.44,4.0
1758077235.21047,1758077234.9849,0.0,0.0,0.0,17.30333,-5.09932,10.94349,8.83,-0.03,-0.44,4.0
1758077235.21125,1758077234.9949,0.0,0.0,0.0,18.27736,-4.0107,10.59972,8.65,0.1,-0.42,4.0
1758077235.21314,1758077235.0049,0.0,0.0,0.0,20.3973,-2.63561,10.02676,8.63,0.18,-0.57,4.0
1758077235.21537,1758077235.0149,0.0,0.0,0.0,22.00158,-2.6929,9.68299,8.63,0.18,-0.57,4.0
1758077235.23149,1758077235.0249,0.0,0.0,0.0,23.60586,-3.66693,9.28192,8.46,0.16,-0.69,4.0
1758077235.23354,1758077235.0349,0.0,0.0,0.0,25.21014,-5.61499,9.22462,8.46,0.16,-0.69,4.0
1758077235.2493,1758077235.0449,0.0,0.0,0.0,27.38738,-8.65166,9.05273,8.18,0.1,-0.67,4.0
1758077235.25135,1758077235.0549,0.0,0.0,0.0,28.59059,-10.37054,9.05273,8.18,0.1,-0.67,4.0
1758077235.27067,1758077235.0649,0.0,0.0,0.0,29.62192,-12.2613,8.88085,7.96,0.11,-0.62,4.0
1758077235.27197,1758077235.0749,0.0,0.0,0.0,30.25217,-13.80828,8.47978,7.96,0.11,-0.62,4.0
1758077235.28832,1758077235.0849,0.0,0.0,0.0,30.59595,-15.58445,8.30789,7.66,0.24,-0.59,4.0
1758077235.29114,1758077235.0949,0.0,0.0,0.0,30.59595,-16.50119,8.136,7.44,0.39,-0.21,4.0
1758077235.31053,1758077235.1049,0.0,0.0,0.0,30.82513,-17.58981,8.02141,7.44,0.39,-0.21,4.0
1758077235.31176,1758077235.1149,0.0,0.0,0.0,31.28349,-24.12152,5.95876,7.71,0.3,1.43,4.0
1758077235.32658,1758077235.1249,0.0,0.0,0.0,32.14294,-28.13223,3.72423,7.71,0.3,1.43,4.0
1758077235.33262,1758077235.1349,0.0,0.0,0.0,33.68992,-29.73651,1.60428,9.44,-0.27,2.61,4.0
1758077235.35136,1758077235.1449,0.0,0.0,0.0,37.12767,-33.46074,0.85944,9.44,-0.27,2.61,4.0
1758077235.35324,1758077235.1549,0.0,0.0,0.0,41.48215,-49.79003,2.57831,11.16,-1.27,2.36,4.0
1758077235.37104,1758077235.1649,0.0,0.0,0.0,44.28964,-60.61894,5.61499,11.27,-2.53,2.06,4.0
1758077235.37293,1758077235.1749,0.0,0.0,0.0,46.46688,-58.90006,9.91217,11.27,-2.53,2.06,4.0
1758077235.39131,1758077235.1849,0.0,0.0,0.0,47.89928,-44.748,13.46451,15.44,-3.41,1.03,4.0
1758077235.39266,1758077235.1949,0.0,0.0,0.0,49.96192,-17.6471,13.75099,15.44,-3.41,1.03,4.0
1758077235.43052,1758077235.2049,0.0,0.0,0.0,49.50356,-24.80907,10.31324,20.33,-4.59,1.17,4.0
1758077235.43491,1758077235.2149,0.0,0.0,0.0,43.77398,-40.39353,5.90147,20.33,-4.59,1.17,4.0
1758077235.43632,1758077235.2249,0.0,0.0,0.0,34.37747,-40.96649,0.0573,15.67,-4.5,-2.44,4.0
1758077235.44403,1758077235.2349,0.0,0.0,0.0,31.39809,-4.64096,8.70896,15.95,-2.38,-2.6,4.0
1758077235.44616,1758077235.2449,0.0,0.0,0.0,32.42941,20.68378,15.92823,15.95,-2.38,-2.6,4.0
1758077235.45134,1758077235.2549,0.0,0.0,0.0,32.54401,37.52874,21.14215,14.2,-0.91,-0.33,4.0
1758077235.47063,1758077235.2649,0.0,0.0,0.0,31.62727,42.62806,24.57989,14.2,-0.91,-0.33,4.0
1758077235.47179,1758077235.2749,0.0,0.0,0.0,27.50197,39.64868,26.01229,11.8,0.09,0.23,4.0
1758077235.49061,1758077235.2849,0.0,0.0,0.0,23.0902,33.17426,24.5226,11.8,0.09,0.23,4.0
1758077235.49262,1758077235.2949,0.0,0.0,0.0,19.07949,23.54857,21.37133,11.82,0.05,0.2,4.0
1758077235.5076,1758077235.3049,0.0,0.0,0.0,11.80293,13.5791,14.20935,11.82,0.05,0.2,4.0
1758077235.51123,1758077235.3149,0.0,0.0,0.0,9.28192,20.45459,10.37054,11.42,-0.93,-0.09,4.0
1758077235.52759,1758077235.3249,0.0,0.0,0.0,8.88085,32.88778,8.47978,12.22,-2.16,0.0,4.0
1758077235.53152,1758077235.3349,0.0,0.0,0.0,8.25059,34.72124,6.18794,12.22,-2.16,0.0,4.0
1758077235.55191,1758077235.3449,0.0,0.0,0.0,6.41713,21.02755,3.09397,9.81,-2.22,0.2,4.0
1758077235.56112,1758077235.3549,0.0,0.0,0.0,5.72958,14.15206,2.23454,9.81,-2.22,0.2,4.0
1758077235.56547,1758077235.3649,0.0,0.0,0.0,5.50039,10.8862,2.23454,9.51,-1.37,-0.34,4.0
1758077235.64413,1758077235.3749,0.0,0.0,0.0,5.32851,6.87549,2.92208,9.51,-1.37,-0.34,4.0
1758077235.65027,1758077235.3849,0.0,0.0,0.0,4.23989,0.80214,4.23989,9.76,-1.0,0.11,4.0
1758077235.6508,1758077235.3949,0.0,0.0,0.0,3.09397,-3.26586,4.69825,9.33,-1.08,0.16,4.0
1758077235.65292,1758077235.4049,0.0,0.0,0.0,1.83346,-6.53172,5.21392,9.33,-1.08,0.16,4.0
1758077235.65604,1758077235.4149,0.0,0.0,0.0,0.22918,-7.10468,4.81285,9.22,-1.34,-0.11,4.0
1758077235.66103,1758077235.4249,0.0,0.0,0.0,-2.29183,-7.50575,3.55234,9.22,-1.34,-0.11,4.0
1758077235.66281,1758077235.4349,0.0,0.0,0.0,-3.95341,-6.41713,2.46372,9.03,-1.43,-0.47,4.0
1758077235.66662,1758077235.4449,0.0,0.0,0.0,-6.24524,0.40107,0.45837,9.03,-1.43,-0.47,4.0
1758077235.67152,1758077235.4549,0.0,0.0,0.0,-7.44845,12.43318,-1.83346,9.53,-1.21,-0.69,4.0
1758077235.67354,1758077235.4649,0.0,0.0,0.0,-10.02676,26.52795,-6.18794,9.77,-1.12,-0.45,4.0
1758077235.67606,1758077235.4749,0.0,0.0,0.0,-10.65701,26.81443,-7.96411,9.77,-1.12,-0.45,4.0
1758077235.68595,1758077235.4849,0.0,0.0,0.0,-12.204,22.05888,-10.08406,8.34,-1.04,-0.45,4.0
1758077235.70254,1758077235.4949,0.0,0.0,0.0,-12.83425,15.06879,-11.91752,8.34,-1.04,-0.45,4.0
1758077235.70608,1758077235.5049,0.0,0.0,0.0,-14.09476,6.35983,-12.83425,7.92,-1.15,-1.0,4.0
1758077235.72596,1758077235.5149,0.0,0.0,0.0,-15.0115,3.26586,-13.17803,7.92,-1.15,-1.0,4.0
1758077235.72929,1758077235.5249,0.0,0.0,0.0,-15.35527,0.22918,-13.34992,8.29,-1.25,-0.59,4.0
1758077235.74588,1758077235.5349,0.0,0.0,0.0,-15.58445,-3.89611,-13.17803,8.29,-1.25,-0.59,4.0
1758077235.77583,1758077235.5449,0.0,0.0,0.0,-15.41257,-5.90147,-13.00614,8.54,-1.31,-0.62,4.0
1758077235.77643,1758077235.5549,0.0,0.0,0.0,-15.29797,-7.79223,-12.89155,8.88,-1.35,-0.86,4.0
1758077235.78523,1758077235.5649,0.0,0.0,0.0,-14.9542,-8.70896,-12.89155,8.88,-1.35,-0.86,4.0
1758077235.78633,1758077235.5749,0.0,0.0,0.0,-14.15206,-8.42248,-13.23533,8.98,-1.33,-1.02,4.0
1758077235.79225,1758077235.5849,0.0,0.0,0.0,-13.80828,-6.24524,-13.40721,8.98,-1.33,-1.02,4.0
1758077235.79302,1758077235.5949,0.0,0.0,0.0,-13.34992,-4.1253,-13.69369,9.0,-1.33,-0.96,4.0
1758077235.81107,1758077235.6049,0.0,0.0,0.0,-13.17803,-3.60963,-13.75099,9.0,-1.33,-0.96,4.0
1758077235.81312,1758077235.6149,0.0,0.0,0.0,-13.80828,-5.27121,-14.09476,8.56,-1.38,-0.92,4.0
1758077235.83134,1758077235.6249,0.0,0.0,0.0,-14.20935,-7.10468,-14.38124,8.03,-1.41,-1.0,4.0
1758077235.83391,1758077235.6349,0.0,0.0,0.0,-14.66772,-8.76626,-14.61043,8.03,-1.41,-1.0,4.0
1758077235.85088,1758077235.6449,0.0,0.0,0.0,-15.06879,-9.33921,-14.83961,8.12,-1.48,-1.11,4.0
1758077235.85246,1758077235.6549,0.0,0.0,0.0,-15.24068,-8.36518,-15.75634,8.12,-1.48,-1.11,4.0
1758077235.86942,1758077235.6649,0.0,0.0,0.0,-15.35527,-6.70361,-16.38659,8.67,-1.56,-1.24,4.0
1758077235.87134,1758077235.6749,0.0,0.0,0.0,-15.29797,-4.87014,-17.01685,8.67,-1.56,-1.24,4.0
1758077235.88944,1758077235.6849,0.0,0.0,0.0,-15.35527,-4.1253,-17.58981,9.06,-1.64,-1.4,4.0
1758077235.89124,1758077235.6949,0.0,0.0,0.0,-15.69904,-4.81285,-18.10547,9.07,-1.62,-1.47,4.0
1758077235.91152,1758077235.7049,0.0,0.0,0.0,-15.92823,-5.55769,-17.93358,9.07,-1.62,-1.47,4.0
1758077235.94386,1758077235.7149,0.0,0.0,0.0,-16.04282,-5.90147,-17.53251,9.09,-1.55,-1.39,4.0
1758077235.94654,1758077235.7249,0.0,0.0,0.0,-16.21471,-6.07335,-16.61578,9.09,-1.55,-1.39,4.0
1758077235.95102,1758077235.7349,0.0,0.0,0.0,-16.272,-6.47442,-15.87093,8.91,-1.47,-1.28,4.0
1758077235.95161,1758077235.7449,0.0,0.0,0.0,-16.38659,-7.33386,-15.06879,8.91,-1.47,-1.28,4.0
1758077235.95553,1758077235.7549,0.0,0.0,0.0,-16.67307,-7.84952,-14.20935,8.55,-1.43,-1.26,4.0
1758077235.97111,1758077235.7649,0.0,0.0,0.0,-17.24603,-9.05273,-13.17803,8.55,-1.43,-1.26,4.0
1758077235.97285,1758077235.7749,0.0,0.0,0.0,-17.93358,-11.11538,-12.71966,8.26,-1.41,-1.24,4.0
1758077235.98948,1758077235.7849,0.0,0.0,0.0,-19.13679,-12.60507,-12.49048,7.98,-1.39,-1.2,4.0
1758077235.99171,1758077235.7949,0.0,0.0,0.0,-20.34,-13.17803,-12.204,7.98,-1.39,-1.2,4.0
1758077236.0097,1758077235.8049,0.0,0.0,0.0,-22.40265,-13.40721,-12.37589,8.09,-1.34,-1.32,4.0
1758077236.01175,1758077235.8149,0.0,0.0,0.0,-23.94964,-14.09476,-12.2613,8.09,-1.34,-1.32,4.0
1758077236.02866,1758077235.8249,0.0,0.0,0.0,-25.72581,-15.0115,-12.2613,7.93,-1.31,-1.46,4.0
1758077236.04486,1758077235.8349,0.0,0.0,0.0,-27.38738,-16.21471,-12.43318,7.93,-1.31,-1.46,4.0
1758077236.04609,1758077235.8449,0.0,0.0,0.0,-29.22085,-18.73572,-12.43318,7.62,-1.26,-1.55,4.0
1758077236.0611,1758077235.8549,0.0,0.0,0.0,-29.9084,-20.85567,-12.37589,7.17,-1.26,-1.21,4.0
1758077236.06294,1758077235.8649,0.0,0.0,0.0,-30.25217,-23.0329,-12.204,7.17,-1.26,-1.21,4.0
1758077236.07798,1758077235.8749,0.0,0.0,0.0,-30.59595,-24.23611,-12.08941,7.12,-1.22,-0.38,4.0
1758077236.09491,1758077235.8849,0.0,0.0,0.0,-31.39809,-26.12688,-10.08406,7.12,-1.22,-0.38,4.0
1758077236.09608,1758077235.8949,0.0,0.0,0.0,-32.14294,-26.87172,-6.13065,8.7,-0.95,1.54,4.0
1758077236.11123,1758077235.9049,0.0,0.0,0.0,-34.89313,-28.01764,-1.43239,8.7,-0.95,1.54,4.0
1758077236.11311,1758077235.9149,0.0,0.0,0.0,-38.73195,-32.71589,7.10468,11.57,-0.39,3.85,4.0
1758077236.13118,1758077235.9249,0.0,0.0,0.0,-48.9306,-49.04519,11.11538,12.06,0.46,3.72,4.0
1758077236.13334,1758077235.9349,0.0,0.0,0.0,-54.431,-51.5662,13.00614,12.06,0.46,3.72,4.0
1758077236.14965,1758077235.9449,0.0,0.0,0.0,-58.26981,-45.26366,12.89155,12.99,1.39,2.21,4.0
1758077236.16509,1758077235.9549,0.0,0.0,0.0,-60.61894,-24.29341,7.62034,12.99,1.39,2.21,4.0
1758077236.16617,1758077235.9649,0.0,0.0,0.0,-59.75951,-6.53172,2.00535,15.05,1.98,0.78,4.0
1758077236.18106,1758077235.9749,0.0,0.0,0.0,-57.63955,13.12073,-3.66693,15.05,1.98,0.78,4.0
1758077236.18332,1758077235.9849,0.0,0.0,0.0,-52.42564,30.36677,-8.136,17.02,1.75,-0.54,4.0
1758077236.20061,1758077235.9949,0.0,0.0,0.0,-41.48215,17.30333,-8.70896,17.02,1.75,-1.94,4.0
1758077236.20173,1758077236.0049,0.0,0.0,0.0,-30.88243,-6.7609,-6.18794,16.26,0.87,-1.94,4.0
1758077236.21705,1758077236.0149,0.0,0.0,0.0,-20.68378,-15.06879,-3.32316,14.28,-0.9,-2.29,4.0
1758077236.23303,1758077236.0249,0.0,0.0,0.0,-12.204,13.46451,-4.64096,14.28,-0.9,-2.29,4.0
1758077236.23498,1758077236.0349,0.0,0.0,0.0,-2.23454,56.26446,-9.4538,16.91,-1.9,-1.65,4.0
1758077236.24998,1758077236.0449,0.0,0.0,0.0,1.94806,61.30648,-13.12073,16.91,-1.9,-1.65,4.0
1758077236.25117,1758077236.0549,0.0,0.0,0.0,4.64096,58.49899,-15.35527,11.59,-1.32,-0.19,4.0
1758077236.267,1758077236.0649,0.0,0.0,0.0,6.53172,54.77477,-15.69904,11.59,-1.32,-0.19,4.0
1758077236.28298,1758077236.0749,0.0,0.0,0.0,6.58902,47.95657,-13.5791,11.38,-0.57,-0.81,4.0
1758077236.28579,1758077236.0849,0.0,0.0,0.0,4.87014,42.34158,-11.17268,12.09,0.0,-0.06,4.0
1758077236.30111,1758077236.0949,0.0,0.0,0.0,3.03668,35.06502,-8.136,12.09,0.0,-0.06,4.0
1758077236.3022,1758077236.1049,0.0,0.0,0.0,0.40107,27.96034,-5.55769,11.07,0.51,0.16,4.0
1758077236.32051,1758077236.1149,0.0,0.0,0.0,-1.48969,33.11696,-1.60428,11.07,0.51,0.16,4.0
1758077236.3214,1758077236.1249,0.0,0.0,0.0,-1.60428,41.02378,-0.0573,11.4,0.4,-0.31,4.0
1758077236.3413,1758077236.1349,0.0,0.0,0.0,-1.66158,44.17505,0.34377,11.4,0.4,-0.31,4.0
1758077236.34492,1758077236.1449,0.0,0.0,0.0,-1.60428,42.34158,-1.03132,10.78,0.1,-0.18,4.0
1758077236.38579,1758077236.1549,0.0,0.0,0.0,-0.97403,34.37747,-2.34913,9.83,0.0,-0.28,4.0
1758077236.41639,1758077236.1649,0.0,0.0,0.0,0.0,28.476,-3.09397,9.83,0.0,-0.28,4.0
1758077236.4175,1758077236.1749,0.0,0.0,0.0,1.3178,23.31938,-3.49504,9.44,0.05,-0.33,4.0
1758077236.42145,1758077236.1849,0.0,0.0,0.0,3.20856,20.34,-2.92208,9.44,0.05,-0.33,4.0
1758077236.4219,1758077236.1949,0.0,0.0,0.0,4.46907,19.48057,-1.77617,9.34,0.19,-0.23,4.0
1758077236.42304,1758077236.2049,0.0,0.0,0.0,5.4431,17.53251,-0.51566,9.34,0.19,-0.23,4.0
1758077236.42366,1758077236.2149,0.0,0.0,0.0,5.95876,15.35527,0.85944,8.88,0.3,-0.12,4.0
1758077236.42445,1758077236.2249,0.0,0.0,0.0,5.95876,12.83425,2.86479,8.65,0.3,-0.15,4.0
1758077236.44134,1758077236.2349,0.0,0.0,0.0,5.4431,10.8862,3.66693,8.65,0.46,-0.15,4.0
1758077236.44549,1758077236.2449,0.0,0.0,0.0,4.69825,8.93814,4.29718,8.41,0.55,-0.11,4.0
1758077236.4611,1758077236.2549,0.0,0.0,0.0,3.66693,6.53172,4.58366,8.41,0.55,-0.11,4.0
1758077236.4626,1758077236.2649,0.0,0.0,0.0,2.63561,2.7502,4.87014,8.11,0.62,-0.17,4.0
1758077236.47804,1758077236.2749,0.0,0.0,0.0,2.00535,0.45837,5.15662,8.11,0.62,-0.17,4.0
1758077236.49518,1758077236.2849,0.0,0.0,0.0,1.48969,-1.43239,5.50039,8.05,0.55,-0.37,4.0
1758077236.49691,1758077236.2949,0.0,0.0,0.0,1.14592,-2.29183,6.24524,8.05,0.55,-0.37,4.0
1758077236.51318,1758077236.3049,0.0,0.0,0.0,1.3178,-2.86479,7.39116,8.41,0.33,-0.6,4.0
1758077236.5157,1758077236.3149,0.0,0.0,0.0,1.77617,-3.20856,8.02141,8.74,0.05,-0.58,4.0
1758077236.53137,1758077236.3249,0.0,0.0,0.0,2.46372,-3.89611,8.76626,8.74,0.05,-0.58,4.0
1758077236.53555,1758077236.3349,0.0,0.0,0.0,3.32316,-4.23989,9.74028,8.89,-0.13,-0.48,4.0
1758077236.55139,1758077236.3449,0.0,0.0,0.0,4.92744,-3.72423,10.25595,8.89,-0.13,-0.48,4.0
1758077236.55432,1758077236.3549,0.0,0.0,0.0,5.90147,-3.38045,10.71431,8.99,-0.19,-0.43,4.0
1758077236.57041,1758077236.3649,0.0,0.0,0.0,6.8182,-3.20856,11.11538,8.99,-0.19,-0.43,4.0
1758077236.57175,1758077236.3749,0.0,0.0,0.0,7.84952,-2.34913,11.63104,8.89,-0.1,-0.46,4.0
1758077236.59061,1758077236.3849,0.0,0.0,0.0,8.47978,-1.20321,11.86023,8.91,0.06,-0.58,4.0
1758077236.59172,1758077236.3949,0.0,0.0,0.0,8.76626,-0.34377,12.2613,8.91,0.06,-0.58,4.0
1758077236.60967,1758077236.4049,0.0,0.0,0.0,8.88085,0.40107,12.2613,8.83,0.23,-0.61,4.0
1758077236.63005,1758077236.4149,0.0,0.0,0.0,8.47978,1.3751,12.43318,8.83,0.23,-0.61,4.0
1758077236.63111,1758077236.4249,0.0,0.0,0.0,8.42248,2.29183,12.60507,8.92,0.36,-0.65,4.0
1758077236.72292,1758077236.4349,0.0,0.0,0.0,8.0787,3.03668,12.43318,8.92,0.36,-0.65,4.0
1758077236.72729,1758077236.4449,0.0,0.0,0.0,7.79223,4.69825,12.60507,9.22,0.38,-0.76,4.0
1758077236.72878,1758077236.4549,0.0,0.0,0.0,7.67763,5.55769,12.83425,9.69,0.25,-0.77,4.0
1758077236.7308,1758077236.4649,0.0,0.0,0.0,7.62034,6.47442,13.00614,9.69,0.25,-0.77,4.0
1758077236.73141,1758077236.4749,0.0,0.0,0.0,7.84952,8.36518,13.06344,10.11,-0.02,-0.66,4.0
1758077236.73558,1758077236.4849,0.0,0.0,0.0,8.76626,11.57375,13.5791,10.11,-0.02,-0.66,4.0
1758077236.73674,1758077236.4949,0.0,0.0,0.0,10.48513,15.12609,14.03747,10.04,-0.29,-0.43,4.0
1758077236.74061,1758077236.5049,0.0,0.0,0.0,11.74564,13.80828,13.80828,10.04,-0.29,-0.43,4.0
1758077236.74155,1758077236.5149,0.0,0.0,0.0,13.06344,10.25595,13.40721,8.98,-0.37,-0.23,4.0
1758077236.74314,1758077236.5249,0.0,0.0,0.0,14.32395,6.18794,12.60507,8.98,-0.37,-0.23,4.0
1758077236.74578,1758077236.5349,0.0,0.0,0.0,16.61578,0.40107,11.86023,8.26,-0.22,-0.34,4.0
1758077236.74699,1758077236.5449,0.0,0.0,0.0,18.16276,-1.66158,11.63104,8.18,-0.03,-0.4,4.0
1758077236.75146,1758077236.5549,0.0,0.0,0.0,19.88164,-2.7502,11.45916,8.18,-0.03,-0.4,4.0
1758077236.77056,1758077236.5649,0.0,0.0,0.0,22.57454,-3.66693,11.00079,8.29,0.11,-0.47,4.0
1758077236.77145,1758077236.5749,0.0,0.0,0.0,24.35071,-5.61499,10.94349,8.29,0.11,-0.47,4.0
1758077236.7893,1758077236.5849,0.0,0.0,0.0,26.35606,-6.99009,10.71431,8.17,0.13,-0.62,4.0
1758077236.80553,1758077236.5949,0.0,0.0,0.0,28.13223,-8.136,10.8289,8.17,0.13,-0.62,4.0
1758077236.80598,1758077236.6049,0.0,0.0,0.0,31.2262,-8.99544,10.31324,8.11,0.08,-0.68,4.0
1758077236.84926,1758077236.6149,0.0,0.0,0.0,33.00237,-9.5684,10.19865,7.98,0.08,-0.75,4.0
1758077236.85653,1758077236.6249,0.0,0.0,0.0,34.89313,-9.91217,9.91217,7.98,0.08,-0.75,4.0
1758077236.85959,1758077236.6349,0.0,0.0,0.0,36.32552,-9.91217,9.68299,7.92,0.15,-0.75,4.0
1758077236.86247,1758077236.6449,0.0,0.0,0.0,38.21629,-11.28727,9.5684,7.92,0.15,-0.75,4.0
1758077236.86301,1758077236.6549,0.0,0.0,0.0,39.4195,-13.17803,9.11003,7.74,0.28,-0.44,4.0
1758077236.86584,1758077236.6649,0.0,0.0,0.0,40.27893,-17.81899,7.96411,7.74,0.28,-0.44,4.0
1758077236.88159,1758077236.6749,0.0,0.0,0.0,41.08107,-23.83505,5.90147,8.0,0.24,0.81,4.0
1758077236.88575,1758077236.6849,0.0,0.0,0.0,42.28429,-31.79916,2.97938,9.08,-0.12,1.77,4.0
1758077236.90132,1758077236.6949,0.0,0.0,0.0,44.57612,-35.06502,1.83346,9.08,-0.12,1.77,4.0
1758077236.90277,1758077236.7049,0.0,0.0,0.0,47.09713,-35.86716,0.51566,11.0,-0.97,2.51,4.0
1758077236.92136,1758077236.7149,0.0,0.0,0.0,50.13381,-38.90384,0.11459,11.0,-0.97,2.51,4.0
1758077236.92651,1758077236.7249,0.0,0.0,0.0,54.71747,-52.71212,2.40642,11.65,-2.1,2.53,4.0
1758077236.94145,1758077236.7349,0.0,0.0,0.0,56.952,-56.49364,4.35448,11.65,-2.1,2.53,4.0
1758077236.9452,1758077236.7449,0.0,0.0,0.0,58.04062,-51.85268,6.8182,12.77,-3.02,1.41,4.0
1758077236.96134,1758077236.7549,0.0,0.0,0.0,57.81144,-41.88322,11.17268,12.77,-3.02,1.41,4.0
1758077236.96638,1758077236.7649,0.0,0.0,0.0,54.77477,-25.15285,13.98017,14.77,-3.38,0.25,4.0
1758077236.98159,1758077236.7749,0.0,0.0,0.0,52.13916,-15.29797,15.92823,14.57,-2.72,0.4,4.0
1758077236.98649,1758077236.7849,0.0,0.0,0.0,49.15978,-10.59972,16.55848,14.57,-2.72,0.4,4.0
1758077237.00142,1758077236.7949,0.0,0.0,0.0,41.99781,-12.60507,12.54778,14.69,-1.97,-0.02,4.0
1758077237.00335,1758077236.8049,0.0,0.0,0.0,37.12767,-7.73493,9.5684,14.69,-1.97,-0.02,4.0
1758077237.02101,1758077236.8149,0.0,0.0,0.0,33.68992,4.29718,7.96411,14.77,-1.49,-1.06,4.0
1758077237.02197,1758077236.8249,0.0,0.0,0.0,31.16891,18.16276,8.25059,14.77,-1.49,-1.06,4.0
1758077237.04162,1758077236.8349,0.0,0.0,0.0,27.61657,32.6013,10.54242,13.65,-1.32,-0.42,4.0
1758077237.04654,1758077236.8449,0.0,0.0,0.0,24.98096,35.06502,12.54778,12.57,-0.92,0.31,4.0
1758077237.06142,1758077236.8549,0.0,0.0,0.0,22.23076,32.6013,14.09476,12.57,-0.92,0.31,4.0
1758077237.06681,1758077236.8649,0.0,0.0,0.0,19.70975,28.41871,15.12609,12.4,-0.72,0.27,4.0
1758077237.08257,1758077236.8749,0.0,0.0,0.0,15.24068,26.52795,13.98017,12.4,-0.72,0.27,4.0
1758077237.08436,1758077236.8849,0.0,0.0,0.0,12.89155,29.8511,12.14671,12.52,-0.97,-0.05,4.0
1758077237.10042,1758077236.8949,0.0,0.0,0.0,10.65701,35.75257,9.91217,12.52,-0.97,-0.05,4.0
1758077237.10146,1758077236.9049,0.0,0.0,0.0,9.05273,39.76327,7.84952,12.23,-1.3,-0.01,4.0
1758077237.11658,1758077236.9149,0.0,0.0,0.0,6.24524,38.84654,4.87014,11.04,-1.42,0.08,4.0
1758077237.13266,1758077236.9249,0.0,0.0,0.0,4.69825,34.60666,3.55234,11.04,-1.42,0.08,4.0
1758077237.13519,1758077236.9349,0.0,0.0,0.0,3.38045,28.64789,2.57831,10.13,-1.38,-0.07,4.0
1758077237.15038,1758077236.9449,0.0,0.0,0.0,2.7502,22.57454,2.46372,10.13,-1.38,-0.07,4.0
1758077237.15159,1758077236.9549,0.0,0.0,0.0,2.34913,16.95955,3.20856,9.82,-1.41,0.12,4.0
1758077237.16674,1758077236.9649,0.0,0.0,0.0,2.40642,14.49583,3.95341,9.82,-1.41,0.12,4.0
1758077237.18585,1758077236.9749,0.0,0.0,0.0,2.34913,11.80293,4.29718,9.64,-1.47,0.4,4.0
1758077237.1889,1758077236.9849,0.0,0.0,0.0,1.83346,9.05273,4.18259,9.64,-1.47,0.4,4.0
1758077237.20371,1758077236.9949,0.0,0.0,0.0,1.77617,8.30789,4.29718,9.15,-1.4,0.22,4.0
1758077237.2062,1758077237.0049,0.0,0.0,0.0,1.20321,18.50654,1.60428,9.4,-1.38,-0.09,4.0
1758077237.22173,1758077237.0149,0.0,0.0,0.0,1.03132,26.81443,-0.74485,9.4,-1.38,-0.09,4.0
1758077237.22343,1758077237.0249,0.0,0.0,0.0,0.57296,33.63263,-4.29718,9.35,-1.31,-0.02,4.0
1758077237.24113,1758077237.0349,0.0,0.0,0.0,0.74485,29.33544,-6.53172,9.35,-1.31,-0.02,4.0
1758077237.2627,1758077237.0449,0.0,0.0,0.0,1.43239,22.00158,-7.79223,8.0,-1.39,-0.04,4.0
1758077237.2662,1758077237.0549,0.0,0.0,0.0,1.60428,16.04282,-8.99544,8.0,-1.39,-0.04,4.0
1758077237.27299,1758077237.0649,0.0,0.0,0.0,1.60428,10.8289,-9.68299,7.69,-1.5,-0.39,4.0
1758077237.27362,1758077237.0749,0.0,0.0,0.0,1.94806,7.73493,-9.74028,7.98,-1.52,-0.18,4.0
1758077237.29173,1758077237.0849,0.0,0.0,0.0,2.11994,3.83882,-9.68299,7.98,-1.52,-0.18,4.0
1758077237.29619,1758077237.0949,0.0,0.0,0.0,2.29183,0.51566,-9.68299,8.07,-1.48,-0.28,4.0
1758077237.31183,1758077237.1049,0.0,0.0,0.0,2.46372,-4.69825,-10.31324,8.07,-1.48,-0.28,4.0
1758077237.31356,1758077237.1149,0.0,0.0,0.0,2.6929,-9.33921,-10.8862,8.01,-1.39,-0.4,4.0
1758077237.32883,1758077237.1249,0.0,0.0,0.0,2.92208,-13.75099,-11.51645,8.01,-1.39,-0.4,4.0
1758077237.32975,1758077237.1349,0.0,0.0,0.0,3.49504,-16.84496,-12.08941,7.83,-1.38,-0.33,4.0
1758077237.34611,1758077237.1449,0.0,0.0,0.0,5.15662,-17.30333,-12.60507,8.1,-1.49,-0.33,4.0
1758077237.3617,1758077237.1549,0.0,0.0,0.0,6.53172,-16.272,-12.83425,8.1,-1.49,-0.33,4.0
1758077237.36352,1758077237.1649,0.0,0.0,0.0,8.136,-15.35527,-13.06344,8.22,-1.61,-0.33,4.0
1758077237.38038,1758077237.1749,0.0,0.0,0.0,9.28192,-15.12609,-13.46451,8.22,-1.61,-0.33,4.0
1758077237.38132,1758077237.1849,0.0,0.0,0.0,10.71431,-16.84496,-13.80828,7.96,-1.61,-0.36,4.0
1758077237.40556,1758077237.1949,0.0,0.0,0.0,11.63104,-17.13144,-13.98017,7.96,-1.61,-0.36,4.0
1758077237.43663,1758077237.2049,0.0,0.0,0.0,12.204,-17.18874,-14.03747,8.05,-1.56,-0.47,4.0
1758077237.43701,1758077237.2149,0.0,0.0,0.0,12.37589,-18.33465,-13.5791,8.05,-1.56,-0.47,4.0
1758077237.43889,1758077237.2249,0.0,0.0,0.0,11.74564,-19.82434,-13.12073,8.13,-1.46,-0.53,4.0
1758077237.44029,1758077237.2349,0.0,0.0,0.0,10.48513,-21.60051,-12.60507,8.18,-1.3,-0.57,4.0
1758077237.44154,1758077237.2449,0.0,0.0,0.0,9.39651,-22.23076,-12.2613,8.18,-1.3,-0.57,4.0
1758077237.45653,1758077237.2549,0.0,0.0,0.0,7.44845,-20.45459,-12.14671,8.57,-1.17,-0.64,4.0
1758077237.47362,1758077237.2649,0.0,0.0,0.0,6.24524,-18.50654,-12.204,8.57,-1.17,-0.64,4.0
1758077237.47637,1758077237.2749,0.0,0.0,0.0,4.87014,-16.55848,-12.71966,9.02,-1.15,-0.71,4.0
1758077237.49401,1758077237.2849,0.0,0.0,0.0,3.49504,-15.98552,-13.17803,9.02,-1.15,-0.71,4.0
1758077237.49597,1758077237.2949,0.0,0.0,0.0,1.3178,-16.272,-13.5218,8.97,-1.18,-0.74,4.0
1758077237.51191,1758077237.3049,0.0,0.0,0.0,-0.0573,-16.61578,-13.40721,8.79,-1.26,-0.83,4.0
1758077237.51603,1758077237.3149,0.0,0.0,0.0,-1.3178,-17.36062,-12.89155,8.79,-1.26,-0.83,4.0
1758077237.5319,1758077237.3249,0.0,0.0,0.0,-2.57831,-17.81899,-12.37589,8.58,-1.32,-0.9,4.0
1758077237.53539,1758077237.3349,0.0,0.0,0.0,-4.58366,-17.30333,-11.17268,8.58,-1.32,-0.9,4.0
1758077237.57865,1758077237.3449,0.0,0.0,0.0,-5.95876,-16.95955,-10.37054,8.51,-1.34,-1.04,4.0
1758077237.58113,1758077237.3549,0.0,0.0,0.0,-7.50575,-16.3293,-9.68299,8.51,-1.34,-1.04,4.0
1758077237.58498,1758077237.3649,0.0,0.0,0.0,-9.33921,-16.10011,-9.22462,8.36,-1.34,-1.19,4.0
1758077237.58619,1758077237.3749,0.0,0.0,0.0,-12.49048,-17.53251,-8.70896,8.07,-1.27,-1.39,4.0
1758077237.58682,1758077237.3849,0.0,0.0,0.0,-14.9542,-19.07949,-8.93814,8.07,-1.27,-1.39,4.0
1758077237.60465,1758077237.3949,0.0,0.0,0.0,-17.6471,-21.31403,-8.93814,7.76,-1.16,-1.43,4.0
1758077237.61073,1758077237.4049,0.0,0.0,0.0,-21.25674,-23.66316,-9.05273,7.76,-1.16,-1.43,4.0
1758077237.61116,1758077237.4149,0.0,0.0,0.0,-22.74642,-27.10091,-8.93814,7.68,-1.08,-0.85,4.0
1758077237.6269,1758077237.4249,0.0,0.0,0.0,-24.29341,-32.08564,-7.73493,7.68,-1.08,-0.85,4.0
1758077237.6321,1758077237.4349,0.0,0.0,0.0,-26.47065,-37.01308,-4.52637,8.75,-0.79,0.91,4.0
1758077237.64844,1758077237.4449,0.0,0.0,0.0,-30.93972,-36.15364,4.1253,8.75,-0.79,0.91,4.0
1758077237.64964,1758077237.4549,0.0,0.0,0.0,-35.52338,-33.86181,10.31324,12.57,-0.27,4.24,4.0
1758077237.66564,1758077237.4649,0.0,0.0,0.0,-39.01843,-34.43476,15.64175,14.19,0.01,4.37,4.0
1758077237.68168,1758077237.4749,0.0,0.0,0.0,-44.11775,-44.748,16.38659,14.19,0.01,4.37,4.0
1758077237.68317,1758077237.4849,0.0,0.0,0.0,-48.58683,-57.41038,13.5791,11.2,0.44,3.6,4.0
1758077237.69791,1758077237.4949,0.0,0.0,0.0,-48.30034,-50.59217,9.28192,11.2,0.44,3.6,4.0
1758077237.7013,1758077237.5049,0.0,0.0,0.0,-45.43555,-32.83048,3.09397,13.63,0.83,1.87,4.0
1758077237.71757,1758077237.5149,0.0,0.0,0.0,-40.27893,-15.12609,-2.63561,13.63,0.83,1.87,4.0
1758077237.7713,1758077237.5249,0.0,0.0,0.0,-30.76784,6.87549,-9.11003,16.39,0.37,0.12,4.0
1758077237.77295,1758077237.5349,0.0,0.0,0.0,-23.49127,7.16197,-8.30789,16.42,0.0,-0.96,4.0
1758077237.78109,1758077237.5449,0.0,0.0,0.0,-14.15206,1.20321,-4.52637,16.42,0.0,-0.96,4.0
1758077237.78468,1758077237.5549,0.0,0.0,0.0,-5.50039,0.80214,-0.45837,14.99,-0.57,-2.13,4.0
1758077237.78663,1758077237.5649,0.0,0.0,0.0,3.26586,23.66316,-0.74485,14.99,-0.57,-2.13,4.0
1758077237.79182,1758077237.5749,0.0,0.0,0.0,8.42248,44.748,-3.09397,14.82,-1.16,-1.64,4.0
1758077237.79514,1758077237.5849,0.0,0.0,0.0,12.37589,58.4417,-6.7609,14.82,-1.16,-1.64,4.0
1758077237.79686,1758077237.5949,0.0,0.0,0.0,15.98552,66.29122,-10.94349,12.73,-1.15,-0.93,4.0
1758077237.80149,1758077237.6049,0.0,0.0,0.0,19.36597,67.9528,-12.49048,11.6,-1.0,-1.0,4.0
1758077237.82652,1758077237.6149,0.0,0.0,0.0,19.76705,63.25455,-12.49048,11.6,-1.0,-1.0,4.0
1758077237.83164,1758077237.6249,0.0,0.0,0.0,18.79302,56.32175,-11.28727,11.29,-0.58,-0.49,4.0
1758077237.83505,1758077237.6349,0.0,0.0,0.0,15.92823,42.1124,-8.70896,11.29,-0.58,-0.49,4.0
1758077237.85073,1758077237.6449,0.0,0.0,0.0,13.23533,30.02299,-6.47442,10.56,0.06,0.02,4.0
1758077237.85198,1758077237.6549,0.0,0.0,0.0,10.37054,21.08485,-5.27121,10.56,0.06,0.02,4.0
1758077237.86703,1758077237.6649,0.0,0.0,0.0,8.93814,26.98631,-4.46907,9.85,0.48,-0.14,4.0
1758077237.88538,1758077237.6749,0.0,0.0,0.0,12.204,48.24305,-2.29183,9.85,0.48,-0.48,4.0
1758077237.88662,1758077237.6849,0.0,0.0,0.0,15.12609,50.59217,-2.63561,11.5,-0.02,-0.48,4.0
1758077237.90193,1758077237.6949,0.0,0.0,0.0,17.58981,43.94586,-4.0107,9.64,-0.49,0.0,4.0
1758077237.90297,1758077237.7049,0.0,0.0,0.0,20.05352,34.14828,-5.72958,9.64,-0.49,0.0,4.0
1758077237.921,1758077237.7149,0.0,0.0,0.0,23.37668,20.45459,-7.33386,8.58,-0.43,-0.49,4.0
1758077237.92602,1758077237.7249,0.0,0.0,0.0,25.21014,14.9542,-7.33386,8.58,-0.43,-0.49,4.0
1758077237.94082,1758077237.7349,0.0,0.0,0.0,26.87172,13.17803,-6.7609,8.82,-0.27,-0.31,4.0
1758077237.94469,1758077237.7449,0.0,0.0,0.0,28.24682,13.40721,-5.32851,8.82,-0.27,-0.31,4.0
1758077237.96062,1758077237.7549,0.0,0.0,0.0,29.39274,13.12073,-3.20856,9.18,-0.08,-0.17,4.0
1758077237.9637,1758077237.7649,0.0,0.0,0.0,29.56462,10.31324,-1.83346,8.74,0.08,-0.24,4.0
1758077237.98148,1758077237.7749,0.0,0.0,0.0,29.39274,6.87549,-0.68755,8.74,0.08,-0.24,4.0
1758077237.98656,1758077237.7849,0.0,0.0,0.0,28.87707,3.95341,0.11459,8.36,0.13,-0.39,4.0
1758077238.00658,1758077237.7949,0.0,0.0,0.0,27.73116,0.80214,1.3178,8.36,0.13,-0.39,4.0
1758077238.01521,1758077237.8049,0.0,0.0,0.0,26.81443,-0.40107,1.94806,8.36,0.17,-0.49,4.0
1758077238.0163,1758077237.8149,0.0,0.0,0.0,25.8404,-0.74485,2.29183,8.36,0.17,-0.49,4.0
1758077238.0264,1758077237.8249,0.0,0.0,0.0,24.29341,-1.08862,2.92208,8.44,0.26,-0.46,4.0
1758077238.04346,1758077237.8349,0.0,0.0,0.0,23.54857,-1.94806,3.38045,8.34,0.34,-0.38,4.0
1758077238.04623,1758077237.8449,0.0,0.0,0.0,22.63183,-2.46372,3.72423,8.34,0.34,-0.38,4.0
1758077238.06583,1758077237.8549,0.0,0.0,0.0,21.94428,-3.09397,4.35448,8.24,0.34,-0.27,4.0
1758077238.12684,1758077237.8649,0.0,0.0,0.0,21.37133,-4.64096,5.55769,8.24,0.34,-0.27,4.0
1758077238.129,1758077237.8749,0.0,0.0,0.0,21.31403,-6.8182,6.47442,8.09,0.26,-0.16,4.0
1758077238.13019,1758077237.8849,0.0,0.0,0.0,21.31403,-8.88085,7.21927,8.09,0.26,-0.16,4.0
1758077238.13081,1758077237.8949,0.0,0.0,0.0,21.31403,-10.02676,7.73493,8.11,0.15,-0.29,4.0
1758077238.13552,1758077237.9049,0.0,0.0,0.0,21.7151,-11.17268,8.76626,8.43,0.15,-0.53,4.0
1758077238.13589,1758077237.9149,0.0,0.0,0.0,22.28806,-11.22997,9.33921,8.43,0.03,-0.53,4.0
1758077238.13698,1758077237.9249,0.0,0.0,0.0,23.0329,-10.8862,9.85487,8.76,-0.05,-0.6,4.0
1758077238.14011,1758077237.9349,0.0,0.0,0.0,23.83505,-10.31324,10.31324,8.76,-0.05,-0.6,4.0
1758077238.14091,1758077237.9449,0.0,0.0,0.0,25.15285,-9.28192,10.65701,8.99,-0.05,-0.62,4.0
1758077238.15691,1758077237.9549,0.0,0.0,0.0,26.06958,-8.59437,10.8289,8.99,-0.05,-0.62,4.0
1758077238.16313,1758077237.9649,0.0,0.0,0.0,27.04361,-8.02141,10.8289,9.03,0.0,-0.51,4.0
1758077238.18111,1758077237.9749,0.0,0.0,0.0,27.73116,-7.44845,10.71431,9.03,0.0,-0.51,4.0
1758077238.18615,1758077237.9849,0.0,0.0,0.0,28.93437,-6.7609,10.8289,8.99,0.06,-0.5,4.0
1758077238.20247,1758077237.9949,0.0,0.0,0.0,29.73651,-6.18794,10.59972,8.93,0.16,-0.62,4.0
1758077238.2069,1758077238.0049,0.0,0.0,0.0,30.48136,-5.27121,10.8289,8.93,0.16,-0.62,4.0
