timeStamp,timeStampAlign,roll,pitch,yaw,gyro_x,gyro_y,gyro_z,acc_x,acc_y,acc_z,flag_num
1758075390.38179,1758075390.35502,0.0,0.0,0.0,11.91752,37.47144,11.97482,8.79,-0.05,0.4,2.0
1758075390.39787,1758075390.36502,0.0,0.0,0.0,9.28192,33.46074,7.10468,8.66,-0.11,0.58,2.0
1758075390.39935,1758075390.37502,0.0,0.0,0.0,7.44845,29.62192,4.0107,8.66,-0.11,0.58,2.0
1758075390.41388,1758075390.38502,0.0,0.0,0.0,5.78687,25.72581,1.48969,8.55,-0.17,0.72,2.0
1758075390.43011,1758075390.39502,0.0,0.0,0.0,4.23989,21.25674,-0.51566,8.55,-0.17,0.72,2.0
1758075390.43053,1758075390.40502,0.0,0.0,0.0,2.29183,14.72501,-2.63561,8.69,-0.28,0.79,2.0
1758075390.44595,1758075390.41502,0.0,0.0,0.0,1.3178,10.48513,-3.03668,9.04,-0.51,0.66,2.0
1758075390.44707,1758075390.42502,0.0,0.0,0.0,0.68755,7.73493,-2.97938,9.04,-0.51,0.66,2.0
1758075390.46191,1758075390.43502,0.0,0.0,0.0,0.68755,7.67763,-2.11994,9.78,-0.75,0.43,2.0
1758075390.47913,1758075390.44502,0.0,0.0,0.0,0.51566,9.22462,-1.20321,9.78,-0.75,0.43,2.0
1758075390.47961,1758075390.45502,0.0,0.0,0.0,1.03132,8.99544,-0.85944,10.27,-0.8,0.18,2.0
1758075390.49492,1758075390.46502,0.0,0.0,0.0,1.60428,6.58902,-0.80214,10.27,-0.8,0.18,2.0
1758075390.4965,1758075390.47502,0.0,0.0,0.0,2.63561,2.86479,-1.14592,9.88,-0.69,-0.16,2.0
1758075390.51217,1758075390.48502,0.0,0.0,0.0,4.81285,-5.55769,-2.11994,9.54,-0.71,-0.61,2.0
1758075390.52819,1758075390.49502,0.0,0.0,0.0,6.53172,-11.28727,-2.86479,9.54,-0.71,-0.61,2.0
1758075390.52997,1758075390.50502,0.0,0.0,0.0,8.36518,-17.01685,-3.38045,9.84,-0.95,-0.73,2.0
1758075390.545,1758075390.51502,0.0,0.0,0.0,10.94349,-23.37668,-4.29718,9.84,-0.95,-0.73,2.0
1758075390.54616,1758075390.52502,0.0,0.0,0.0,12.89155,-32.20023,-4.98473,10.35,-1.27,-0.93,2.0
1758075390.56114,1758075390.53502,0.0,0.0,0.0,14.72501,-35.2942,-5.90147,10.35,-1.27,-0.93,2.0
1758075390.57808,1758075390.54502,0.0,0.0,0.0,16.38659,-37.92981,-7.16197,11.31,-1.52,-0.6,2.0
1758075390.5792,1758075390.55502,0.0,0.0,0.0,17.6471,-46.86795,-8.0787,11.31,-1.52,-0.6,2.0
1758075390.59398,1758075390.56502,0.0,0.0,0.0,17.87628,-56.60823,-4.98473,12.3,-1.57,1.5,2.0
1758075390.59519,1758075390.57502,0.0,0.0,0.0,15.98552,-66.06203,-2.7502,14.17,-0.54,2.56,2.0
1758075390.61058,1758075390.58502,0.0,0.0,0.0,14.09476,-76.0315,0.80214,14.17,-0.54,2.56,2.0
1758075390.62734,1758075390.59502,0.0,0.0,0.0,12.2613,-83.82372,3.60963,13.79,0.58,1.44,2.0
1758075390.62925,1758075390.60502,0.0,0.0,0.0,12.89155,-86.40204,3.26586,13.79,0.58,1.44,2.0
1758075390.64432,1758075390.61502,0.0,0.0,0.0,15.29797,-86.00097,1.71887,11.07,0.37,0.92,2.0
1758075390.64522,1758075390.62502,0.0,0.0,0.0,20.05352,-82.56322,0.11459,11.07,0.37,0.92,2.0
1758075390.6606,1758075390.63502,0.0,0.0,0.0,30.65324,-65.43179,-2.57831,9.52,-0.6,1.96,2.0
1758075390.67629,1758075390.64502,0.0,0.0,0.0,38.61736,-55.57691,-3.55234,8.9,-1.81,2.32,2.0
1758075390.67996,1758075390.65502,0.0,0.0,0.0,45.77933,-48.64412,-3.20856,8.9,-1.81,2.32,2.0
1758075390.6951,1758075390.66502,0.0,0.0,0.0,51.79538,-41.36755,-0.34377,8.02,-1.91,1.94,2.0
1758075390.69701,1758075390.67502,0.0,0.0,0.0,54.88936,-12.2613,3.72423,8.02,-1.91,1.94,2.0
1758075390.71235,1758075390.68502,0.0,0.0,0.0,55.29043,5.09932,6.58902,9.95,-1.53,0.82,2.0
1758075390.71537,1758075390.69502,0.0,0.0,0.0,54.3737,24.5226,7.44845,9.95,-1.53,0.82,2.0
1758075390.73418,1758075390.70502,0.0,0.0,0.0,54.66018,33.11696,8.76626,11.23,-0.35,0.79,2.0
1758075390.73644,1758075390.71502,0.0,0.0,0.0,53.34238,17.30333,8.136,9.03,0.88,-0.67,2.0
1758075390.75413,1758075390.72502,0.0,0.0,0.0,53.80074,2.6929,8.93814,9.03,0.88,-0.67,2.0
1758075390.75611,1758075390.73502,0.0,0.0,0.0,52.36834,-1.20321,8.136,10.25,1.5,-0.69,2.0
1758075390.77166,1758075390.74502,0.0,0.0,0.0,48.52953,29.96569,4.92744,10.25,1.5,-0.69,2.0
1758075390.78742,1758075390.75502,0.0,0.0,0.0,45.09178,56.37905,1.3751,13.79,1.82,-1.07,2.0
1758075390.78912,1758075390.76502,0.0,0.0,0.0,41.36755,68.64035,-1.83346,13.79,1.82,-1.07,2.0
1758075390.80443,1758075390.77502,0.0,0.0,0.0,37.12767,67.9528,-5.27121,10.22,1.65,0.38,2.0
1758075390.80534,1758075390.78502,0.0,0.0,0.0,30.36677,64.80153,-9.62569,10.22,1.65,-0.02,2.0
1758075390.82075,1758075390.79502,0.0,0.0,0.0,26.81443,67.72362,-11.11538,7.96,1.28,-0.02,2.0
1758075390.83819,1758075390.80502,0.0,0.0,0.0,23.83505,69.3279,-11.86023,8.81,0.99,0.29,2.0
1758075390.8394,1758075390.81502,0.0,0.0,0.0,21.08485,66.29122,-11.00079,8.81,0.99,0.29,2.0
1758075390.85422,1758075390.82502,0.0,0.0,0.0,17.87628,59.18654,-7.39116,8.34,0.84,0.96,2.0
1758075390.85651,1758075390.83502,0.0,0.0,0.0,16.3293,53.45696,-3.83882,8.34,0.84,0.96,2.0
1758075390.87116,1758075390.84502,0.0,0.0,0.0,15.12609,47.15443,-0.17189,8.42,0.72,0.82,2.0
1758075390.88748,1758075390.85502,0.0,0.0,0.0,13.75099,41.65404,3.72423,8.42,0.72,0.82,2.0
1758075390.88954,1758075390.86502,0.0,0.0,0.0,9.91217,34.60666,6.35983,8.6,0.76,1.06,2.0
1758075390.90427,1758075390.87502,0.0,0.0,0.0,6.24524,31.16891,5.95876,8.86,1.11,1.15,2.0
1758075390.90544,1758075390.88502,0.0,0.0,0.0,2.23454,27.38738,4.58366,8.86,1.11,1.15,2.0
1758075390.92051,1758075390.89502,0.0,0.0,0.0,-2.34913,24.17882,2.00535,8.93,1.57,0.86,2.0
1758075390.93808,1758075390.90502,0.0,0.0,0.0,-8.93814,21.6578,-1.66158,8.93,1.57,0.86,2.0
1758075390.93997,1758075390.91502,0.0,0.0,0.0,-12.71966,19.07949,-3.66693,9.25,1.81,0.45,2.0
1758075390.95552,1758075390.92502,0.0,0.0,0.0,-15.69904,14.83961,-5.21392,9.25,1.81,0.45,2.0
1758075390.95647,1758075390.93502,0.0,0.0,0.0,-18.9649,10.08406,-6.18794,9.39,1.7,0.15,2.0
1758075390.97142,1758075390.94502,0.0,0.0,0.0,-20.51189,2.97938,-6.13065,9.8,1.33,-0.16,2.0
1758075390.98726,1758075390.95502,0.0,0.0,0.0,-21.6578,-1.71887,-4.81285,9.8,1.33,-0.16,2.0
1758075390.98928,1758075390.96502,0.0,0.0,0.0,-22.91831,-6.53172,-3.20856,10.14,0.87,-0.34,2.0
1758075391.00434,1758075390.97502,0.0,0.0,0.0,-24.98096,-12.71966,-0.11459,10.14,0.87,-0.34,2.0
1758075391.00546,1758075390.98502,0.0,0.0,0.0,-26.69983,-15.41257,2.29183,10.55,0.47,-0.52,2.0
1758075391.0236,1758075390.99502,0.0,0.0,0.0,-29.04896,-17.24603,4.46907,10.55,0.47,-0.52,2.0
1758075391.02446,1758075391.00502,0.0,0.0,0.0,-31.74186,-18.50654,6.58902,10.86,0.36,-0.77,2.0
1758075391.04141,1758075391.01502,0.0,0.0,0.0,-36.7266,-20.79837,10.54242,10.73,0.36,-0.63,2.0
1758075391.05855,1758075391.02502,0.0,0.0,0.0,-37.92981,-26.18417,12.37589,10.73,0.64,-0.63,2.0
1758075391.0595,1758075391.03502,0.0,0.0,0.0,3.49504,-42.51347,12.83425,10.17,1.25,1.19,2.0
1758075391.07428,1758075391.04502,0.0,0.0,0.0,-47.26902,-58.15522,8.25059,10.17,1.25,1.19,2.0
1758075391.07546,1758075391.05502,0.0,0.0,0.0,-47.67009,-75.00018,-5.84417,12.57,1.43,2.75,2.0
1758075391.09154,1758075391.06502,0.0,0.0,0.0,-44.86259,-69.55708,-15.46986,12.57,1.43,2.75,2.0
1758075391.10737,1758075391.07502,0.0,0.0,0.0,-40.50812,-54.14451,-22.57454,17.35,-0.37,1.94,2.0
1758075391.10928,1758075391.08502,0.0,0.0,0.0,-37.35685,-41.65404,-26.52795,17.35,-0.37,1.94,2.0
1758075391.12463,1758075391.09502,0.0,0.0,0.0,-35.2369,-55.34772,-27.84575,14.65,-1.41,1.91,2.0
1758075391.12558,1758075391.10502,0.0,0.0,0.0,-37.64333,-72.65105,-28.476,8.3,-0.92,2.7,2.0
1758075391.14165,1758075391.11502,0.0,0.0,0.0,-40.04975,-88.35009,-27.2155,8.3,-0.92,2.7,2.0
1758075391.15839,1758075391.12502,0.0,0.0,0.0,-44.28964,-99.46548,-21.42862,7.3,-0.04,2.88,2.0
1758075391.1596,1758075391.13502,0.0,0.0,0.0,-54.02992,-52.08187,-20.74107,7.3,-0.04,2.88,2.0
1758075391.17441,1758075391.14502,0.0,0.0,0.0,-63.99939,-14.15206,-19.36597,13.45,1.12,0.95,2.0
1758075391.17557,1758075391.15502,0.0,0.0,0.0,-68.75494,0.0,-18.16276,13.45,1.12,0.95,2.0
1758075391.19466,1758075391.16502,0.0,0.0,0.0,-74.59911,-1.94806,-18.62113,10.29,1.03,1.12,2.0
1758075391.19669,1758075391.17502,0.0,0.0,0.0,-75.05748,1.94806,-17.13144,8.95,0.57,1.14,2.0
1758075391.21392,1758075391.18502,0.0,0.0,0.0,-72.88023,12.83425,-14.15206,8.95,0.57,1.14,2.0
1758075391.21497,1758075391.19502,0.0,0.0,0.0,-67.60902,25.61122,-9.22462,10.69,-0.91,0.22,2.0
1758075391.23888,1758075391.20502,0.0,0.0,0.0,-56.66553,37.12767,-1.94806,10.69,-0.91,0.22,2.0
1758075391.24052,1758075391.21502,0.0,0.0,0.0,-48.35764,43.31561,2.34913,9.23,-2.32,0.46,2.0
1758075391.25775,1758075391.22502,0.0,0.0,0.0,-40.85189,49.90463,5.61499,9.23,-2.32,0.46,2.0
1758075391.25973,1758075391.23502,0.0,0.0,0.0,-34.14828,53.91533,8.25059,7.75,-2.93,0.18,2.0
1758075391.2747,1758075391.24502,0.0,0.0,0.0,-25.09555,55.34772,9.96947,6.23,-2.87,0.23,2.0
1758075391.27804,1758075391.25502,0.0,0.0,0.0,-20.11082,54.88936,10.02676,6.23,-2.87,0.23,2.0
1758075391.29446,1758075391.26502,0.0,0.0,0.0,-16.04282,53.05589,9.05273,6.07,-2.51,0.23,2.0
1758075391.29733,1758075391.27502,0.0,0.0,0.0,-12.49048,53.45696,7.39116,6.07,-2.51,0.23,2.0
1758075391.31448,1758075391.28502,0.0,0.0,0.0,-8.25059,56.26446,4.98473,7.16,-1.94,0.03,2.0
1758075391.31544,1758075391.29502,0.0,0.0,0.0,-5.72958,58.90006,3.09397,7.16,-1.94,0.03,2.0
1758075391.33471,1758075391.30502,0.0,0.0,0.0,-3.60963,60.27517,1.14592,8.39,-1.2,0.22,2.0
1758075391.33999,1758075391.31502,0.0,0.0,0.0,-1.60428,61.30648,-0.57296,8.39,-1.2,0.22,2.0
1758075391.35473,1758075391.32502,0.0,0.0,0.0,0.51566,59.75951,-3.49504,9.17,-0.53,0.3,2.0
1758075391.35679,1758075391.33502,0.0,0.0,0.0,1.94806,57.46767,-4.92744,9.75,-0.25,0.63,2.0
1758075391.37178,1758075391.34502,0.0,0.0,0.0,3.72423,53.74345,-5.84417,9.75,-0.25,0.63,2.0
1758075391.38781,1758075391.35502,0.0,0.0,0.0,7.10468,48.64412,-6.13065,9.99,-0.48,0.56,2.0
1758075391.39033,1758075391.36502,0.0,0.0,0.0,9.91217,39.13302,-5.95876,9.99,-0.48,0.56,2.0
1758075391.40556,1758075391.37502,0.0,0.0,0.0,12.60507,31.97105,-5.50039,9.67,-1.03,0.19,2.0
1758075391.40748,1758075391.38502,0.0,0.0,0.0,15.46986,27.50197,-5.09932,9.67,-1.03,0.19,2.0
1758075391.42481,1758075391.39502,0.0,0.0,0.0,18.22006,21.25674,-5.21392,9.67,-1.45,-0.48,2.0
1758075391.42686,1758075391.40502,0.0,0.0,0.0,19.25138,13.98017,-5.09932,9.56,-1.48,-0.79,2.0
1758075391.44393,1758075391.41502,0.0,0.0,0.0,19.76705,4.87014,-5.27121,9.56,-1.48,-0.79,2.0
1758075391.44517,1758075391.42502,0.0,0.0,0.0,19.88164,-4.81285,-5.09932,9.65,-1.24,-1.22,2.0
1758075391.46086,1758075391.43502,0.0,0.0,0.0,20.11082,-19.59516,-4.58366,9.65,-1.24,-1.22,2.0
1758075391.47761,1758075391.44502,0.0,0.0,0.0,20.68378,-28.36141,-4.1253,10.2,-0.73,-1.45,2.0
1758075391.48036,1758075391.45502,0.0,0.0,0.0,21.88699,-35.52338,-3.20856,10.2,-0.73,-1.45,2.0
1758075391.49795,1758075391.46502,0.0,0.0,0.0,24.12152,-41.25296,-1.77617,11.34,-0.53,-1.41,2.0
1758075391.50041,1758075391.47502,0.0,0.0,0.0,30.59595,-48.58683,0.51566,11.77,-1.03,-1.41,2.0
1758075391.51781,1758075391.48502,0.0,0.0,0.0,36.6693,-52.25375,2.40642,11.77,-1.03,-1.41,2.0
1758075391.5205,1758075391.49502,0.0,0.0,0.0,43.88857,-54.88936,4.92744,11.43,-1.79,-1.82,2.0
1758075391.53761,1758075391.50502,0.0,0.0,0.0,50.13381,-58.67088,5.72958,11.43,-1.79,-1.82,2.0
1758075391.54314,1758075391.51502,0.0,0.0,0.0,57.0093,-81.64648,5.50039,10.28,-2.69,-0.03,2.0
1758075391.55869,1758075391.52502,0.0,0.0,0.0,58.84277,-111.383,7.96411,10.28,-2.69,-0.03,2.0
1758075391.5596,1758075391.53502,0.0,0.0,0.0,58.26981,-141.34869,15.06879,10.2,-2.89,4.87,2.0
1758075391.57468,1758075391.54502,0.0,0.0,0.0,56.26446,-157.33421,33.11696,10.2,-2.89,4.87,2.0
1758075391.58003,1758075391.55502,0.0,0.0,0.0,52.54023,-137.50989,43.65939,15.21,0.8,6.83,2.0
1758075391.59488,1758075391.56502,0.0,0.0,0.0,52.02457,-113.73213,51.79538,17.06,4.14,3.65,2.0
1758075391.60008,1758075391.57502,0.0,0.0,0.0,52.54023,-96.14232,55.86338,17.06,4.14,3.65,2.0
1758075391.61648,1758075391.58502,0.0,0.0,0.0,55.7488,-86.68852,55.34772,10.45,2.74,3.73,2.0
1758075391.61976,1758075391.59502,0.0,0.0,0.0,58.04062,-95.39748,51.79538,10.45,2.74,3.73,2.0
1758075391.63495,1758075391.60502,0.0,0.0,0.0,60.50434,-117.39906,48.9306,5.88,0.21,2.38,2.0
1758075391.64011,1758075391.61502,0.0,0.0,0.0,61.53567,-112.7581,39.4195,5.88,0.21,2.38,2.0
1758075391.65491,1758075391.62502,0.0,0.0,0.0,70.01544,-56.66553,33.11696,10.43,-1.67,1.89,2.0
1758075391.66092,1758075391.63502,0.0,0.0,0.0,71.50513,-26.52795,24.29341,16.08,-2.34,-0.61,2.0
1758075391.67767,1758075391.64502,0.0,0.0,0.0,71.79161,-13.12073,17.99088,16.08,-2.34,-0.61,2.0
1758075391.67913,1758075391.65502,0.0,0.0,0.0,70.30193,-1.03132,12.14671,11.73,-1.37,0.32,2.0
1758075391.69371,1758075391.66502,0.0,0.0,0.0,64.17127,28.07493,3.03668,11.73,-1.37,0.32,2.0
1758075391.69486,1758075391.67502,0.0,0.0,0.0,57.81144,52.9986,-3.49504,10.95,0.61,-1.26,2.0
1758075391.71279,1758075391.68502,0.0,0.0,0.0,50.363,73.45319,-8.76626,10.95,0.61,-1.26,2.0
1758075391.72898,1758075391.69502,0.0,0.0,0.0,41.36755,88.52198,-13.46451,9.69,2.71,-0.95,2.0
1758075391.73035,1758075391.70502,0.0,0.0,0.0,26.64254,105.42424,-17.99088,8.1,3.74,-0.1,2.0
1758075391.74499,1758075391.71502,0.0,0.0,0.0,16.61578,116.25314,-19.48057,8.1,3.74,-0.1,2.0
1758075391.74676,1758075391.72502,0.0,0.0,0.0,7.33386,124.84751,-19.82434,7.48,3.53,0.09,2.0
1758075391.76253,1758075391.73502,0.0,0.0,0.0,-0.17189,128.22797,-18.56383,7.48,3.53,0.09,2.0
1758075391.77879,1758075391.74502,0.0,0.0,0.0,-9.62569,125.42047,-14.20935,6.62,2.67,0.1,2.0
1758075391.77998,1758075391.75502,0.0,0.0,0.0,-14.32395,121.86813,-9.85487,6.62,2.67,0.1,2.0
1758075391.79509,1758075391.76502,0.0,0.0,0.0,-18.33465,120.60761,-5.84417,7.23,1.7,0.74,2.0
1758075391.79594,1758075391.77502,0.0,0.0,0.0,-22.00158,115.96667,-0.45837,7.23,1.7,0.74,2.0
1758075391.81082,1758075391.78502,0.0,0.0,0.0,-24.23611,102.15839,1.60428,8.14,0.89,0.97,2.0
1758075391.82886,1758075391.79502,0.0,0.0,0.0,-25.43933,90.75652,3.38045,8.34,0.48,1.09,2.0
1758075391.82977,1758075391.80502,0.0,0.0,0.0,-26.81443,78.09415,2.97938,8.34,0.48,1.09,2.0
1758075391.84509,1758075391.81502,0.0,0.0,0.0,-29.67921,60.73353,0.45837,8.5,0.36,0.76,2.0
1758075391.84632,1758075391.82502,0.0,0.0,0.0,-32.77319,49.50356,-2.11994,8.5,0.36,0.76,2.0
1758075391.8626,1758075391.83502,0.0,0.0,0.0,-37.47144,39.4195,-5.61499,8.49,0.56,0.76,2.0
1758075391.87885,1758075391.84502,0.0,0.0,0.0,-42.68536,32.83048,-8.25059,8.49,0.56,0.76,2.0
1758075391.88007,1758075391.85502,0.0,0.0,0.0,-50.2484,24.12152,-11.17268,8.76,0.95,-0.02,2.0
1758075391.89504,1758075391.86502,0.0,0.0,0.0,-54.77477,16.38659,-11.91752,9.12,1.18,-0.54,2.0
1758075391.89599,1758075391.87502,0.0,0.0,0.0,-59.01466,6.47442,-11.22997,9.12,1.18,-0.54,2.0
1758075391.91083,1758075391.88502,0.0,0.0,0.0,-62.5097,-7.50575,-9.28192,9.53,1.15,-1.0,2.0
1758075391.92712,1758075391.89502,0.0,0.0,0.0,-68.52576,-23.89234,-8.88085,9.53,1.15,-1.0,2.0
1758075391.92802,1758075391.90502,0.0,0.0,0.0,-71.44785,-34.60666,-9.28192,10.4,0.94,-1.18,2.0
1758075391.94309,1758075391.91502,0.0,0.0,0.0,-74.02615,-43.31561,-11.17268,10.4,0.94,-1.18,2.0
1758075391.95993,1758075391.92502,0.0,0.0,0.0,-76.48987,-50.76406,-13.06344,11.41,0.63,-1.44,2.0
1758075391.96113,1758075391.93502,0.0,0.0,0.0,-79.35466,-55.6342,-14.78231,12.22,0.39,-2.19,2.0
1758075391.97895,1758075391.94502,0.0,0.0,0.0,-80.72976,-55.92068,-13.86558,12.22,0.39,-2.19,2.0
1758075391.98228,1758075391.95502,0.0,0.0,0.0,-82.50593,-57.75415,-11.22997,11.61,0.38,-2.87,2.0
1758075391.99894,1758075391.96502,0.0,0.0,0.0,-83.88103,-62.33781,-4.69825,11.61,0.38,-2.87,2.0
1758075392.00066,1758075391.97502,0.0,0.0,0.0,-83.47996,-88.92306,0.22918,9.0,1.01,-1.29,2.0
1758075392.01663,1758075391.98502,0.0,0.0,0.0,-78.49522,-117.05527,-0.80214,9.0,1.01,-1.29,2.0
1758075392.01866,1758075391.99502,0.0,0.0,0.0,-66.635,-151.94843,-6.7609,8.71,1.43,5.8,2.0
1758075392.03403,1758075392.00502,0.0,0.0,0.0,-51.45161,-215.37483,-37.58603,8.71,1.43,5.8,2.0
1758075392.03508,1758075392.01502,0.0,0.0,0.0,-44.46153,-218.58342,-56.83742,13.94,-1.83,8.62,2.0
1758075392.05215,1758075392.02502,0.0,0.0,0.0,-38.15899,-168.62148,-69.67168,19.84,-4.81,1.48,2.0
1758075392.06893,1758075392.03502,0.0,0.0,0.0,-35.69527,-123.75889,-78.09415,19.84,-4.81,1.48,2.0
1758075392.06992,1758075392.04502,0.0,0.0,0.0,-37.75792,-102.27297,-87.0323,13.45,-2.9,1.87,2.0
1758075392.08522,1758075392.05502,0.0,0.0,0.0,-41.02378,-89.83979,-85.02695,13.45,-2.9,1.87,2.0
1758075392.08887,1758075392.06502,0.0,0.0,0.0,-44.28964,-75.34396,-77.4066,7.5,-0.64,3.22,2.0
1758075392.10395,1758075392.07502,0.0,0.0,0.0,-45.26366,-57.46767,-62.22322,7.5,-0.64,3.22,2.0
1758075392.10557,1758075392.08502,0.0,0.0,0.0,-40.85189,-27.67386,-34.09099,9.33,-0.3,0.69,2.0
1758075392.12419,1758075392.09502,0.0,0.0,0.0,-34.09099,-9.62569,-15.0115,11.52,-1.22,0.0,2.0
1758075392.12514,1758075392.10502,0.0,0.0,0.0,-24.35071,9.39651,2.06265,11.52,-1.22,0.0,2.0
1758075392.14321,1758075392.11502,0.0,0.0,0.0,-13.5218,30.30947,16.50119,12.74,-2.25,-2.22,2.0
1758075392.15931,1758075392.12502,0.0,0.0,0.0,0.80214,60.90542,30.88243,12.74,-2.25,-2.22,2.0
1758075392.16047,1758075392.13502,0.0,0.0,0.0,8.47978,77.4066,36.03905,11.74,-2.41,-2.71,2.0
1758075392.17501,1758075392.14502,0.0,0.0,0.0,14.20935,91.043,37.98711,11.74,-2.41,-2.71,2.0
1758075392.17618,1758075392.15502,0.0,0.0,0.0,19.36597,101.8719,38.84654,9.9,-1.8,-1.6,2.0
1758075392.19101,1758075392.16502,0.0,0.0,0.0,25.61122,110.58086,37.58603,8.3,-1.35,-0.74,2.0
1758075392.20699,1758075392.17502,0.0,0.0,0.0,29.8511,113.56024,35.3515,8.3,-1.35,-0.74,2.0
1758075392.20907,1758075392.18502,0.0,0.0,0.0,34.14828,115.451,33.40344,7.37,-1.29,-0.21,2.0
1758075392.22425,1758075392.19502,0.0,0.0,0.0,41.36755,115.90937,29.8511,7.37,-1.29,-0.21,2.0
1758075392.22631,1758075392.20502,0.0,0.0,0.0,45.77933,112.47161,27.10091,6.98,-1.48,0.16,2.0
1758075392.242,1758075392.21502,0.0,0.0,0.0,48.64412,106.91393,23.0902,6.98,-1.48,0.16,2.0
1758075392.25987,1758075392.22502,0.0,0.0,0.0,50.87865,101.06976,18.79302,6.6,-1.59,0.2,2.0
1758075392.26081,1758075392.23502,0.0,0.0,0.0,52.9986,90.81382,13.5218,6.6,-1.59,0.2,2.0
1758075392.27628,1758075392.24502,0.0,0.0,0.0,53.34238,81.99026,10.54242,6.86,-1.39,0.51,2.0
1758075392.27803,1758075392.25502,0.0,0.0,0.0,52.71212,70.58841,7.79223,6.95,-0.91,0.58,2.0
1758075392.29332,1758075392.26502,0.0,0.0,0.0,51.85268,58.4417,5.50039,6.95,-0.91,0.58,2.0
1758075392.30934,1758075392.27502,0.0,0.0,0.0,50.64947,42.1124,4.52637,7.4,-0.28,0.73,2.0
1758075392.31026,1758075392.28502,0.0,0.0,0.0,50.1911,32.20023,4.98473,7.4,-0.28,0.73,2.0
1758075392.32535,1758075392.29502,0.0,0.0,0.0,49.90463,25.8404,5.15662,8.27,0.27,0.7,2.0
1758075392.3274,1758075392.30502,0.0,0.0,0.0,49.38896,21.08485,5.27121,8.27,0.27,0.7,2.0
1758075392.34206,1758075392.31502,0.0,0.0,0.0,47.03984,12.08941,3.09397,9.24,0.64,0.58,2.0
1758075392.35803,1758075392.32502,0.0,0.0,0.0,45.14908,3.09397,1.08862,9.34,0.84,0.29,2.0
1758075392.36,1758075392.33502,0.0,0.0,0.0,43.4875,-6.07335,-0.85944,9.34,0.84,0.29,2.0
1758075392.3753,1758075392.34502,0.0,0.0,0.0,42.28429,-14.66772,-1.94806,9.79,0.6,-0.65,2.0
1758075392.37707,1758075392.35502,0.0,0.0,0.0,42.22699,-27.10091,-0.80214,9.79,0.6,-0.65,2.0
1758075392.3941,1758075392.36502,0.0,0.0,0.0,42.51347,-34.72124,1.43239,10.81,0.07,-1.64,2.0
1758075392.39529,1758075392.37502,0.0,0.0,0.0,43.37291,-40.10705,4.64096,10.81,0.07,-1.64,2.0
1758075392.41111,1758075392.38502,0.0,0.0,0.0,44.8053,-44.51882,9.22462,12.2,-0.54,-2.02,2.0
1758075392.42916,1758075392.39502,0.0,0.0,0.0,48.35764,-49.50356,11.97482,12.72,-1.15,-2.45,2.0
1758075392.43006,1758075392.40502,0.0,0.0,0.0,50.99325,-51.90998,13.06344,12.72,-1.15,-2.45,2.0
1758075392.4454,1758075392.41502,0.0,0.0,0.0,53.34238,-53.80074,11.91752,11.97,-1.49,-2.85,2.0
1758075392.44976,1758075392.42502,0.0,0.0,0.0,55.97798,-57.92604,6.87549,11.97,-1.49,-2.85,2.0
1758075392.46543,1758075392.43502,0.0,0.0,0.0,55.51962,-72.19269,2.6929,10.43,-1.87,-1.2,2.0
1758075392.46706,1758075392.44502,0.0,0.0,0.0,51.45161,-96.42879,2.46372,10.43,-1.87,-1.2,2.0
1758075392.48511,1758075392.45502,0.0,0.0,0.0,45.43555,-117.97201,9.91217,10.94,-1.79,4.75,2.0
1758075392.48711,1758075392.46502,0.0,0.0,0.0,30.53865,-109.43494,27.33009,10.94,-1.79,8.08,2.0
1758075392.50208,1758075392.47502,0.0,0.0,0.0,23.54857,-102.90323,38.90384,18.3,2.45,8.08,2.0
1758075392.51945,1758075392.48502,0.0,0.0,0.0,22.57454,-109.49224,46.52417,14.16,4.62,3.06,2.0
1758075392.52036,1758075392.49502,0.0,0.0,0.0,24.17882,-128.22797,50.82136,14.16,4.62,3.06,2.0
1758075392.53518,1758075392.50502,0.0,0.0,0.0,36.21093,-129.71765,56.55093,6.72,1.18,2.44,2.0
1758075392.53998,1758075392.51502,0.0,0.0,0.0,41.71133,-106.39826,57.23849,6.72,1.18,2.44,2.0
1758075392.55518,1758075392.52502,0.0,0.0,0.0,48.01387,-77.86497,52.82671,10.27,-1.75,1.83,2.0
1758075392.55715,1758075392.53502,0.0,0.0,0.0,53.51426,-58.55629,46.46688,10.27,-1.75,1.83,2.0
1758075392.57244,1758075392.54502,0.0,0.0,0.0,58.09792,-41.76862,29.10626,9.95,-2.7,1.18,2.0
1758075392.58956,1758075392.55502,0.0,0.0,0.0,59.24384,-26.41335,18.73572,10.46,-2.25,0.72,2.0
1758075392.59084,1758075392.56502,0.0,0.0,0.0,58.67088,-8.65166,7.79223,10.46,-2.25,0.72,2.0
1758075392.60553,1758075392.57502,0.0,0.0,0.0,56.14987,11.17268,-2.40642,12.34,-0.38,-1.44,2.0
1758075392.60911,1758075392.58502,0.0,0.0,0.0,51.73809,39.01843,-14.43854,12.34,-0.38,-1.44,2.0
1758075392.62449,1758075392.59502,0.0,0.0,0.0,46.1804,58.78547,-18.56383,12.5,1.85,-2.04,2.0
1758075392.62542,1758075392.60502,0.0,0.0,0.0,37.24226,77.23472,-21.14215,12.5,1.85,-2.04,2.0
1758075392.64145,1758075392.61502,0.0,0.0,0.0,21.14215,91.84514,-22.74642,10.91,2.56,-1.15,2.0
1758075392.65798,1758075392.62502,0.0,0.0,0.0,11.57375,111.44029,-22.28806,8.43,2.26,-0.4,2.0
1758075392.65922,1758075392.63502,0.0,0.0,0.0,4.1253,122.89946,-20.85567,8.43,2.26,-0.4,2.0
1758075392.67458,1758075392.64502,0.0,0.0,0.0,-1.66158,130.23331,-17.99088,7.18,2.06,-0.22,2.0
1758075392.67544,1758075392.65502,0.0,0.0,0.0,-8.88085,131.15004,-13.34992,7.18,2.06,-0.22,2.0
1758075392.69356,1758075392.66502,0.0,0.0,0.0,-12.71966,127.02474,-9.05273,6.45,1.74,0.36,2.0
1758075392.70926,1758075392.67502,0.0,0.0,0.0,-16.10011,121.98273,-4.18259,6.45,1.74,0.36,2.0
1758075392.71077,1758075392.68502,0.0,0.0,0.0,-18.90761,115.3364,0.51566,7.04,1.18,0.41,2.0
1758075392.72556,1758075392.69502,0.0,0.0,0.0,-22.57454,104.33562,6.13065,7.98,0.76,0.83,2.0
1758075392.7276,1758075392.70502,0.0,0.0,0.0,-24.92367,94.88181,7.50575,7.98,0.76,0.83,2.0
1758075392.74456,1758075392.71502,0.0,0.0,0.0,-27.44468,83.30807,7.04738,8.47,0.69,0.96,2.0
1758075392.74545,1758075392.72502,0.0,0.0,0.0,-30.02299,70.53111,5.09932,8.47,0.69,0.96,2.0
1758075392.76452,1758075392.73502,0.0,0.0,0.0,-34.72124,51.73809,1.08862,8.88,0.89,0.97,2.0
1758075392.76549,1758075392.74502,0.0,0.0,0.0,-39.13302,38.56006,-2.7502,8.88,0.89,0.97,2.0
1758075392.78353,1758075392.75502,0.0,0.0,0.0,-44.57612,26.18417,-6.47442,8.81,1.18,0.65,2.0
1758075392.7993,1758075392.76502,0.0,0.0,0.0,-50.93595,15.24068,-10.31324,8.81,1.18,0.65,2.0
1758075392.80052,1758075392.77502,0.0,0.0,0.0,-60.38975,-4.52637,-13.75099,8.96,1.47,-0.25,2.0
1758075392.81569,1758075392.78502,0.0,0.0,0.0,-68.52576,-14.72501,-17.99088,9.35,1.64,-1.2,2.0
1758075392.81686,1758075392.79502,0.0,0.0,0.0,-75.63043,-24.98096,-22.00158,9.35,1.64,-1.2,2.0
1758075392.83133,1758075392.80502,0.0,0.0,0.0,-81.5892,-34.0337,-29.96569,9.97,1.66,-2.02,2.0
1758075392.84943,1758075392.81502,0.0,0.0,0.0,-86.51663,-54.71747,-35.40879,9.97,1.66,-2.02,2.0
1758075392.85034,1758075392.82502,0.0,0.0,0.0,-87.66255,-72.70835,-38.38818,9.78,1.33,-2.76,2.0
1758075392.86566,1758075392.83502,0.0,0.0,0.0,-87.37608,-84.68317,-39.87786,9.78,1.33,-2.76,2.0
1758075392.86683,1758075392.84502,0.0,0.0,0.0,-86.74582,-84.56858,-35.63798,10.49,0.7,-3.28,2.0
1758075392.88141,1758075392.85502,0.0,0.0,0.0,-86.17285,-71.21866,-28.76248,12.85,0.66,-3.07,2.0
1758075392.89865,1758075392.86502,0.0,0.0,0.0,-87.37608,-43.54479,-25.89769,12.85,0.66,-3.07,2.0
1758075392.89957,1758075392.87502,0.0,0.0,0.0,-84.1675,-29.22085,-16.55848,13.05,0.4,-1.07,2.0
1758075392.91451,1758075392.88502,0.0,0.0,0.0,-82.50593,-92.53268,-14.38124,13.05,0.4,-1.07,2.0
1758075392.91556,1758075392.89502,0.0,0.0,0.0,-78.89629,-153.03703,-21.37133,7.26,0.94,4.22,2.0
1758075392.93463,1758075392.90502,0.0,0.0,0.0,-76.66176,-174.17917,-42.85724,7.26,0.94,4.22,2.0
1758075392.9356,1758075392.91502,0.0,0.0,0.0,-66.92148,-147.82312,-55.11855,17.56,-1.0,6.11,2.0
1758075392.95171,1758075392.92502,0.0,0.0,0.0,-56.32175,-119.34712,-63.48372,20.14,-4.89,1.41,2.0
1758075392.96768,1758075392.93502,0.0,0.0,0.0,-49.90463,-117.16987,-63.42643,20.14,-4.89,1.41,2.0
1758075392.96934,1758075392.94502,0.0,0.0,0.0,-45.37826,-117.39906,-62.33781,10.84,-3.9,4.33,2.0
1758075392.98462,1758075392.95502,0.0,0.0,0.0,-43.88857,-103.59077,-59.07195,10.84,-3.9,4.33,2.0
1758075392.98676,1758075392.96502,0.0,0.0,0.0,-45.72203,-75.97421,-48.58683,8.64,-1.67,2.36,2.0
1758075393.00446,1758075392.97502,0.0,0.0,0.0,-47.61279,-61.99404,-38.21629,8.64,-1.67,2.36,2.0
1758075393.00676,1758075392.98502,0.0,0.0,0.0,-48.01387,-50.01921,-26.06958,8.07,-0.54,1.76,2.0
1758075393.02268,1758075392.99502,0.0,0.0,0.0,-47.03984,-35.58068,-12.89155,8.07,-0.54,1.76,2.0
1758075393.03944,1758075393.00502,0.0,0.0,0.0,-41.71133,-6.53172,7.21927,10.2,-0.57,0.25,2.0
1758075393.04044,1758075393.01502,0.0,0.0,0.0,-35.12231,13.5218,18.22006,13.2,-1.49,-1.16,2.0
1758075393.05549,1758075393.02502,0.0,0.0,0.0,-27.38738,32.20023,26.24147,13.2,-1.49,-1.16,2.0
1758075393.05743,1758075393.03502,0.0,0.0,0.0,-15.41257,55.97798,33.40344,12.58,-2.24,-1.58,2.0
1758075393.07246,1758075393.04502,0.0,0.0,0.0,-8.02141,69.15601,35.58068,12.58,-2.24,-1.58,2.0
1758075393.08879,1758075393.05502,0.0,0.0,0.0,-0.80214,79.29736,36.38282,10.11,-2.18,-0.8,2.0
1758075393.08978,1758075393.06502,0.0,0.0,0.0,5.61499,89.83979,35.63798,10.11,-2.18,-0.8,2.0
1758075393.10478,1758075393.07502,0.0,0.0,0.0,14.43854,101.70002,32.48671,8.27,-2.02,-0.53,2.0
1758075393.10652,1758075393.08502,0.0,0.0,0.0,19.59516,106.0545,29.04896,6.98,-1.88,-0.36,2.0
1758075393.12355,1758075393.09502,0.0,0.0,0.0,24.5226,107.65877,24.75178,6.98,-1.88,-0.36,2.0
1758075393.13994,1758075393.10502,0.0,0.0,0.0,29.10626,107.2004,20.34,6.2,-1.91,-0.34,2.0
1758075393.14271,1758075393.11502,0.0,0.0,0.0,35.3515,105.42424,13.12073,6.2,-1.91,-0.34,2.0
1758075393.15782,1758075393.12502,0.0,0.0,0.0,38.56006,103.93455,8.0787,6.6,-1.86,-0.33,2.0
1758075393.15878,1758075393.13502,0.0,0.0,0.0,41.42485,101.01247,3.95341,6.6,-1.86,-0.33,2.0
1758075393.17441,1758075393.14502,0.0,0.0,0.0,43.20102,96.94446,0.0,7.33,-1.68,-0.12,2.0
1758075393.17549,1758075393.15502,0.0,0.0,0.0,44.28964,88.00632,-3.95341,8.09,-1.3,0.03,2.0
1758075393.19189,1758075393.16502,0.0,0.0,0.0,44.748,77.86497,-4.23989,8.09,-1.3,0.03,2.0
1758075393.20868,1758075393.17502,0.0,0.0,0.0,45.43555,64.40046,-3.26586,8.23,-0.85,0.04,2.0
1758075393.20978,1758075393.18502,0.0,0.0,0.0,46.1804,51.10783,-1.3751,8.23,-0.85,0.04,2.0
1758075393.22486,1758075393.19502,0.0,0.0,0.0,48.41494,35.12231,1.94806,8.57,-0.51,-0.22,2.0
1758075393.2266,1758075393.20502,0.0,0.0,0.0,50.87865,29.62192,3.60963,8.57,-0.51,-0.22,2.0
1758075393.24388,1758075393.21502,0.0,0.0,0.0,53.80074,24.17882,5.32851,9.21,-0.16,-0.43,2.0
1758075393.2599,1758075393.22502,0.0,0.0,0.0,56.89471,16.61578,6.35983,9.21,-0.16,-0.43,2.0
1758075393.26078,1758075393.23502,0.0,0.0,0.0,61.1346,-0.34377,6.41713,9.03,-0.05,-0.37,2.0
1758075393.2755,1758075393.24502,0.0,0.0,0.0,64.11398,-13.06344,6.07335,8.98,-0.34,-1.3,2.0
1758075393.27681,1758075393.25502,0.0,0.0,0.0,66.74959,-25.21014,5.95876,8.98,-0.34,-1.3,2.0
1758075393.29182,1758075393.26502,0.0,0.0,0.0,68.52576,-42.39888,6.47442,9.63,-0.87,-2.12,2.0
1758075393.3087,1758075393.27502,0.0,0.0,0.0,68.98412,-53.11319,8.02141,9.63,-0.87,-2.12,2.0
1758075393.30971,1758075393.28502,0.0,0.0,0.0,68.41116,-62.68159,10.8289,10.61,-1.18,-2.14,2.0
1758075393.32492,1758075393.29502,0.0,0.0,0.0,66.97877,-75.57314,14.03747,10.61,-1.18,-2.14,2.0
1758075393.32585,1758075393.30502,0.0,0.0,0.0,64.80153,-85.77179,13.23533,10.91,-0.99,-2.62,2.0
1758075393.34294,1758075393.31502,0.0,0.0,0.0,64.28587,-75.05748,10.94349,12.13,-0.5,-3.2,2.0
1758075393.35895,1758075393.32502,0.0,0.0,0.0,64.22858,-66.34852,8.70896,12.13,-0.5,-3.2,2.0
1758075393.35936,1758075393.33502,0.0,0.0,0.0,65.2026,-57.63955,5.55769,11.82,-0.31,-2.65,2.0
1758075393.37471,1758075393.34502,0.0,0.0,0.0,62.5097,-53.97263,-3.32316,11.82,-0.31,-2.65,2.0
1758075393.37618,1758075393.35502,0.0,0.0,0.0,58.26981,-60.27517,-6.58902,9.8,-0.26,-0.09,2.0
1758075393.39275,1758075393.36502,0.0,0.0,0.0,51.16513,-65.83286,-7.10468,9.8,-0.26,-0.09,2.0
1758075393.40967,1758075393.37502,0.0,0.0,0.0,45.43555,-105.36694,-5.50039,9.56,-0.47,4.95,2.0
1758075393.41041,1758075393.38502,0.0,0.0,0.0,42.22699,-186.2686,17.6471,9.69,2.14,8.71,2.0
1758075393.4267,1758075393.39502,0.0,0.0,0.0,45.89392,-206.15024,49.90463,9.69,2.14,8.71,2.0
1758075393.43028,1758075393.40502,0.0,0.0,0.0,48.8733,-174.75215,64.74423,21.24,4.84,3.86,2.0
1758075393.4468,1758075393.41502,0.0,0.0,0.0,53.11319,-137.50989,71.27596,21.24,4.84,3.86,2.0
1758075393.44898,1758075393.42502,0.0,0.0,0.0,57.12389,-99.80926,71.67702,16.13,2.0,0.94,2.0
1758075393.46408,1758075393.43502,0.0,0.0,0.0,58.04062,-83.42266,66.74959,16.13,2.0,0.94,2.0
1758075393.48006,1758075393.44502,0.0,0.0,0.0,57.0093,-66.40582,55.6915,8.49,-0.94,1.76,2.0
1758075393.48044,1758075393.45502,0.0,0.0,0.0,50.1911,-33.00237,26.98631,8.49,-0.94,1.76,2.0
1758075393.49683,1758075393.46502,0.0,0.0,0.0,42.97184,-8.93814,7.16197,8.89,-1.84,0.11,2.0
1758075393.50041,1758075393.47502,0.0,0.0,0.0,34.0337,14.09476,-10.94349,11.23,-1.64,-0.36,2.0
1758075393.51678,1758075393.48502,0.0,0.0,0.0,24.98096,35.2369,-25.21014,11.23,-1.64,-0.36,2.0
1758075393.5194,1758075393.49502,0.0,0.0,0.0,12.54778,69.04142,-36.55471,13.78,0.35,-1.1,2.0
1758075393.53481,1758075393.50502,0.0,0.0,0.0,4.92744,89.6106,-37.52874,13.78,0.35,-1.1,2.0
1758075393.53598,1758075393.51502,0.0,0.0,0.0,-0.74485,105.9972,-32.83048,14.61,3.45,-1.71,2.0
1758075393.5508,1758075393.52502,0.0,0.0,0.0,-5.61499,118.71685,-26.52795,14.61,3.45,-1.71,2.0
1758075393.5544,1758075393.53502,0.0,0.0,0.0,-9.33921,124.56103,-15.0115,12.51,3.94,-0.98,2.0
1758075393.57042,1758075393.54502,0.0,0.0,0.0,-10.02676,123.81618,-6.47442,9.21,2.31,-0.42,2.0
1758075393.58663,1758075393.55502,0.0,0.0,0.0,-8.70896,121.63895,1.71887,9.21,2.31,-0.42,2.0
1758075393.59019,1758075393.56502,0.0,0.0,0.0,-7.10468,117.05527,8.02141,7.33,0.46,-0.5,2.0
1758075393.60598,1758075393.57502,0.0,0.0,0.0,-9.4538,110.17979,12.204,7.33,0.46,-0.5,2.0
1758075393.60705,1758075393.58502,0.0,0.0,0.0,-15.92823,105.48153,9.96947,6.02,-0.13,0.1,2.0
1758075393.62193,1758075393.59502,0.0,0.0,0.0,-24.00693,100.43951,5.95876,6.02,-0.13,0.1,2.0
1758075393.63786,1758075393.60502,0.0,0.0,0.0,-31.97105,91.73055,0.74485,5.19,-0.09,0.52,2.0
1758075393.63905,1758075393.61502,0.0,0.0,0.0,-41.76862,73.91156,-6.58902,5.07,0.75,-0.2,2.0
1758075393.65383,1758075393.62502,0.0,0.0,0.0,-48.01387,63.02536,-11.63104,5.07,0.75,-0.2,2.0
1758075393.65511,1758075393.63502,0.0,0.0,0.0,-54.60288,54.25911,-16.67307,6.46,2.03,0.0,2.0
1758075393.67079,1758075393.64502,0.0,0.0,0.0,-62.16592,45.72203,-23.20479,6.46,2.03,0.0,2.0
1758075393.6887,1758075393.65501,0.0,0.0,0.0,-72.99483,28.87707,-24.98096,7.89,2.96,-0.09,2.0
1758075393.68963,1758075393.66501,0.0,0.0,0.0,-81.76109,22.86102,-29.27814,7.89,2.96,-0.09,2.0
1758075393.70485,1758075393.67501,0.0,0.0,0.0,-89.15224,15.0115,-30.82513,9.07,3.18,-0.31,2.0
1758075393.70925,1758075393.68501,0.0,0.0,0.0,-98.03308,-1.03132,-33.74722,9.07,3.18,-0.31,2.0
1758075393.72516,1758075393.69501,0.0,0.0,0.0,-101.92919,-18.10547,-35.52338,9.02,2.54,-1.0,2.0
1758075393.7265,1758075393.70501,0.0,0.0,0.0,-103.76266,-39.19032,-34.89313,7.96,1.6,-1.81,2.0
1758075393.74091,1758075393.71501,0.0,0.0,0.0,-103.87726,-58.26981,-33.74722,7.96,1.6,-1.81,2.0
1758075393.75906,1758075393.72501,0.0,0.0,0.0,-101.92919,-72.82294,-28.99167,8.72,0.52,-2.46,2.0
1758075393.75993,1758075393.73501,0.0,0.0,0.0,-100.72599,-68.29657,-24.23611,8.72,0.52,-2.46,2.0
1758075393.77525,1758075393.74501,0.0,0.0,0.0,-97.11635,-36.6693,-23.26209,12.56,0.0,-2.43,2.0
1758075393.77613,1758075393.75501,0.0,0.0,0.0,-92.13161,-4.23989,-17.18874,12.56,0.0,-2.43,2.0
1758075393.79093,1758075393.76501,0.0,0.0,0.0,-89.6679,-24.4653,-16.95955,15.16,-0.55,-1.83,2.0
1758075393.80902,1758075393.77501,0.0,0.0,0.0,-87.43336,-47.72739,-14.43854,9.59,0.2,-2.42,2.0
1758075393.81037,1758075393.78501,0.0,0.0,0.0,-86.28745,-48.30034,-13.69369,9.59,0.2,-2.42,2.0
1758075393.8252,1758075393.79501,0.0,0.0,0.0,-84.56858,-40.33623,-11.28727,11.98,1.0,-3.36,2.0
1758075393.82694,1758075393.80501,0.0,0.0,0.0,-81.99026,-33.9764,-5.32851,11.98,1.0,-3.36,2.0
1758075393.84304,1758075393.81501,0.0,0.0,0.0,-79.41196,-38.84654,-1.03132,9.94,1.48,-1.84,2.0
1758075393.84395,1758075393.82501,0.0,0.0,0.0,-74.25533,-49.90463,0.0573,9.94,1.48,-1.84,2.0
1758075393.86054,1758075393.83501,0.0,0.0,0.0,-66.46311,-71.73432,-3.66693,8.73,1.24,2.98,2.0
1758075393.87617,1758075393.84501,0.0,0.0,0.0,-50.76406,-102.15839,-23.60586,12.24,-1.22,4.76,2.0
1758075393.87961,1758075393.85501,0.0,0.0,0.0,-38.21629,-101.8719,-38.73195,12.24,-1.22,4.76,2.0
1758075393.8953,1758075393.86501,0.0,0.0,0.0,-24.63719,-99.46548,-50.1911,17.64,-5.87,3.13,2.0
1758075393.89699,1758075393.87501,0.0,0.0,0.0,-11.00079,-110.29437,-59.47303,17.64,-5.87,3.13,2.0
1758075393.91232,1758075393.88501,0.0,0.0,0.0,-7.50575,-116.08125,-62.22322,11.8,-5.89,4.19,2.0
1758075393.91432,1758075393.89501,0.0,0.0,0.0,-9.5684,-105.71072,-61.36378,11.8,-5.89,4.19,2.0
1758075393.93008,1758075393.90501,0.0,0.0,0.0,-15.29797,-91.55866,-56.20716,8.81,-2.96,3.27,2.0
1758075393.94609,1758075393.91501,0.0,0.0,0.0,-25.55392,-75.63043,-42.22699,8.81,-2.96,3.27,2.0
1758075393.94895,1758075393.92501,0.0,0.0,0.0,-33.34615,-64.91612,-30.02299,6.93,-0.85,2.02,2.0
1758075393.96438,1758075393.93501,0.0,0.0,0.0,-36.84119,-50.64947,-15.24068,8.09,0.62,0.42,2.0
1758075393.9653,1758075393.94501,0.0,0.0,0.0,-35.40879,-31.62727,0.80214,8.09,0.62,0.42,2.0
1758075393.9803,1758075393.95501,0.0,0.0,0.0,-25.8404,-0.85944,21.42862,12.52,0.48,-1.14,2.0
1758075393.99945,1758075393.96501,0.0,0.0,0.0,-16.61578,18.9649,30.82513,12.52,0.48,-1.14,2.0
1758075394.0034,1758075393.97501,0.0,0.0,0.0,-6.58902,36.95578,35.40879,15.32,-1.01,-2.48,2.0
1758075394.01809,1758075393.98501,0.0,0.0,0.0,3.20856,53.05589,36.21093,15.32,-1.01,-2.48,2.0
1758075394.02081,1758075393.99501,0.0,0.0,0.0,16.84496,74.54182,32.14294,13.97,-1.89,-2.45,2.0
1758075394.0381,1758075394.00501,0.0,0.0,0.0,24.63719,83.19347,27.1582,11.03,-2.09,-1.78,2.0
1758075394.03927,1758075394.01501,0.0,0.0,0.0,30.99702,87.60525,21.14215,11.03,-2.09,-1.78,2.0
1758075394.05413,1758075394.02501,0.0,0.0,0.0,36.15364,87.54795,15.12609,8.13,-2.16,-1.33,2.0
1758075394.05529,1758075394.03501,0.0,0.0,0.0,42.1124,82.7924,6.8182,8.13,-2.16,-1.33,2.0
1758075394.07012,1758075394.04501,0.0,0.0,0.0,44.63341,76.83365,2.46372,6.85,-2.09,-0.62,2.0
1758075394.08613,1758075394.05501,0.0,0.0,0.0,46.46688,70.58841,-0.97403,6.85,-2.09,-0.62,2.0
1758075394.08733,1758075394.06501,0.0,0.0,0.0,48.8733,65.37449,-3.49504,7.02,-1.8,0.09,2.0
1758075394.10215,1758075394.07501,0.0,0.0,0.0,50.2484,60.04598,-2.92208,7.91,-1.17,0.1,2.0
1758075394.11848,1758075394.08501,0.0,0.0,0.0,52.02457,55.06125,-1.14592,7.91,-1.17,0.1,2.0
1758075394.11974,1758075394.09501,0.0,0.0,0.0,54.08722,47.44091,1.03132,7.83,-0.45,-0.28,2.0
1758075394.13417,1758075394.10501,0.0,0.0,0.0,58.49899,44.00316,4.87014,7.83,-0.45,-0.28,2.0
1758075394.13625,1758075394.11501,0.0,0.0,0.0,61.59297,50.47758,6.99009,8.82,-0.08,-0.87,2.0
1758075394.15137,1758075394.12501,0.0,0.0,0.0,64.22858,56.60823,9.05273,8.82,-0.08,-0.87,2.0
1758075394.16745,1758075394.13501,0.0,0.0,0.0,66.74959,59.64491,10.31324,9.4,0.0,-1.09,2.0
1758075394.16916,1758075394.14501,0.0,0.0,0.0,70.87489,59.18654,11.86023,8.91,0.0,-1.22,2.0
1758075394.18437,1758075394.15501,0.0,0.0,0.0,72.99483,56.60823,13.06344,8.91,-0.16,-1.22,2.0
1758075394.1854,1758075394.16501,0.0,0.0,0.0,74.31263,52.13916,13.98017,8.7,-0.44,-1.59,2.0
1758075394.20445,1758075394.17501,0.0,0.0,0.0,75.97421,44.9199,15.41257,8.7,-0.44,-1.59,2.0
1758075394.20542,1758075394.18501,0.0,0.0,0.0,76.43258,20.3973,18.10547,8.08,-0.58,-1.35,2.0
1758075394.22147,1758075394.19501,0.0,0.0,0.0,73.68237,-6.53172,16.55848,8.08,-0.58,-1.35,2.0
1758075394.23854,1758075394.20501,0.0,0.0,0.0,71.84892,-7.67763,16.61578,7.1,-0.27,-1.67,2.0
1758075394.23943,1758075394.21501,0.0,0.0,0.0,70.30193,-0.11459,17.99088,7.1,-0.27,-1.67,2.0
1758075394.25457,1758075394.22501,0.0,0.0,0.0,63.13995,20.16812,19.99623,10.74,0.19,-1.08,2.0
1758075394.25574,1758075394.23501,0.0,0.0,0.0,56.32175,33.40344,19.59516,11.76,1.18,-0.07,2.0
1758075394.27175,1758075394.24501,0.0,0.0,0.0,50.363,20.16812,10.48513,11.76,1.18,-0.07,2.0
1758075394.28734,1758075394.25501,0.0,0.0,0.0,42.68536,-18.44924,6.47442,6.54,1.82,-1.29,2.0
1758075394.28925,1758075394.26501,0.0,0.0,0.0,41.02378,-70.47381,10.48513,6.54,1.82,-1.29,2.0
1758075394.30457,1758075394.27501,0.0,0.0,0.0,36.89849,-69.38519,13.46451,8.19,1.48,-2.72,2.0
1758075394.30554,1758075394.28501,0.0,0.0,0.0,34.0337,-58.90006,12.83425,8.19,1.48,-2.72,2.0
1758075394.32034,1758075394.29501,0.0,0.0,0.0,29.96569,-55.57691,11.22997,11.07,0.96,-1.38,2.0
1758075394.33813,1758075394.30501,0.0,0.0,0.0,25.7831,-61.53567,8.59437,9.2,0.56,0.34,2.0
1758075394.34003,1758075394.31501,0.0,0.0,0.0,20.45459,-68.58305,5.72958,9.2,0.56,0.34,2.0
1758075394.35558,1758075394.32501,0.0,0.0,0.0,14.38124,-77.29202,2.06265,8.86,0.03,1.79,2.0
1758075394.35654,1758075394.33501,0.0,0.0,0.0,6.13065,-91.50137,0.0573,8.86,0.03,1.79,2.0
1758075394.37226,1758075394.34501,0.0,0.0,0.0,2.6929,-105.9399,3.60963,9.7,-0.04,3.97,2.0
1758075394.3894,1758075394.35501,0.0,0.0,0.0,1.3751,-117.39906,10.19865,9.7,-0.04,3.97,2.0
1758075394.39062,1758075394.36501,0.0,0.0,0.0,3.55234,-122.78486,19.13679,12.53,-0.3,5.29,2.0
1758075394.40562,1758075394.37501,0.0,0.0,0.0,11.57375,-112.58621,34.66395,15.93,0.25,2.47,2.0
1758075394.40681,1758075394.38501,0.0,0.0,0.0,20.3973,-95.91314,44.00316,15.93,0.25,2.47,2.0
1758075394.42164,1758075394.39501,0.0,0.0,0.0,29.96569,-73.73967,49.56085,15.07,0.19,-0.04,2.0
1758075394.43856,1758075394.40501,0.0,0.0,0.0,39.64868,-50.1911,50.53488,15.07,0.19,-0.04,2.0
1758075394.43986,1758075394.41501,0.0,0.0,0.0,52.02457,-15.87093,45.14908,11.19,-1.39,-1.22,2.0
1758075394.45436,1758075394.42501,0.0,0.0,0.0,56.32175,7.04738,35.69527,11.19,-1.39,-1.22,2.0
1758075394.45992,1758075394.43501,0.0,0.0,0.0,57.18119,30.99702,23.37668,10.77,-2.12,-1.07,2.0
1758075394.47441,1758075394.44501,0.0,0.0,0.0,55.92068,51.85268,11.34457,10.77,-2.12,-1.07,2.0
1758075394.47993,1758075394.45501,0.0,0.0,0.0,50.64947,69.04142,-3.09397,12.66,-1.56,-2.03,2.0
1758075394.49471,1758075394.46501,0.0,0.0,0.0,46.69606,76.83365,-9.05273,14.29,-0.54,-2.19,2.0
1758075394.49565,1758075394.47501,0.0,0.0,0.0,47.03984,82.27674,-10.94349,14.29,-0.54,-2.19,2.0
1758075394.51069,1758075394.48501,0.0,0.0,0.0,48.30034,84.39669,-8.0787,14.6,0.57,-2.25,2.0
1758075394.52669,1758075394.49501,0.0,0.0,0.0,44.86259,95.91314,-7.04738,14.6,0.57,-2.25,2.0
1758075394.52763,1758075394.50501,0.0,0.0,0.0,40.04975,103.1324,-4.64096,12.98,0.35,-0.37,2.0
1758075394.54343,1758075394.51501,0.0,0.0,0.0,32.37212,104.10643,-3.83882,12.98,0.35,-0.37,2.0
1758075394.54464,1758075394.52501,0.0,0.0,0.0,21.14215,96.88716,-2.63561,9.05,0.81,0.31,2.0
1758075394.56039,1758075394.53501,0.0,0.0,0.0,13.98017,93.56402,-3.03668,7.04,1.79,0.27,2.0
1758075394.57671,1758075394.54501,0.0,0.0,0.0,6.47442,90.29816,-5.61499,7.04,1.79,0.27,2.0
1758075394.57765,1758075394.55501,0.0,0.0,0.0,-1.83346,86.34474,-8.70896,6.69,2.49,-0.02,2.0
1758075394.59343,1758075394.56501,0.0,0.0,0.0,-16.3293,73.73967,-14.9542,6.69,2.49,-0.02,2.0
1758075394.59469,1758075394.57501,0.0,0.0,0.0,-26.41335,65.08801,-17.93358,6.3,2.88,-0.05,2.0
1758075394.61164,1758075394.58501,0.0,0.0,0.0,-37.24226,63.02536,-23.72045,6.3,2.88,-0.05,2.0
1758075394.62875,1758075394.59501,0.0,0.0,0.0,-46.1804,59.70221,-25.8404,6.95,2.87,0.03,2.0
1758075394.62964,1758075394.60501,0.0,0.0,0.0,-57.81144,53.62885,-28.64789,6.91,2.19,-0.2,2.0
1758075394.64475,1758075394.61501,0.0,0.0,0.0,-64.74423,43.37291,-29.62192,6.91,2.19,-0.2,2.0
1758075394.64688,1758075394.62501,0.0,0.0,0.0,-70.93218,24.80907,-29.27814,5.84,1.92,-1.23,2.0
1758075394.66174,1758075394.63501,0.0,0.0,0.0,-75.57314,5.50039,-28.07493,5.84,1.92,-1.23,2.0
1758075394.67773,1758075394.64501,0.0,0.0,0.0,-80.95895,-18.44924,-22.63183,5.69,1.54,-1.79,2.0
1758075394.67874,1758075394.65501,0.0,0.0,0.0,-84.2248,-17.93358,-18.79302,5.69,1.54,-1.79,2.0
1758075394.69372,1758075394.66501,0.0,0.0,0.0,-84.56858,-0.80214,-17.87628,8.94,1.17,-0.93,2.0
1758075394.69513,1758075394.67501,0.0,0.0,0.0,-83.76643,28.41871,-16.90226,8.94,1.17,-0.93,2.0
1758075394.71083,1758075394.68501,0.0,0.0,0.0,-81.5319,-1.60428,-16.50119,12.22,0.3,-0.49,2.0
1758075394.72655,1758075394.69501,0.0,0.0,0.0,-78.38063,-35.3515,-16.04282,7.67,-0.08,0.12,2.0
1758075394.7294,1758075394.70501,0.0,0.0,0.0,-73.10942,-44.51882,-18.27736,7.67,-0.08,0.12,2.0
1758075394.74485,1758075394.71501,0.0,0.0,0.0,-66.11933,-31.91375,-20.51189,12.62,-0.43,-1.59,2.0
1758075394.7458,1758075394.72501,0.0,0.0,0.0,-61.02001,-24.5226,-20.74107,12.62,-0.43,-1.59,2.0
1758075394.7607,1758075394.73501,0.0,0.0,0.0,-56.03527,-18.22006,-19.76705,12.21,-0.73,-0.65,2.0
1758075394.7778,1758075394.74501,0.0,0.0,0.0,-51.50891,-10.65701,-18.22006,12.21,-0.73,-0.65,2.0
1758075394.77877,1758075394.75501,0.0,0.0,0.0,-44.748,-2.63561,-13.17803,11.06,-0.73,-0.19,2.0
1758075394.79442,1758075394.76501,0.0,0.0,0.0,-40.45082,0.74485,-8.76626,9.41,-0.56,-0.56,2.0
1758075394.79555,1758075394.77501,0.0,0.0,0.0,-36.55471,2.57831,-4.0107,9.41,-0.56,-0.56,2.0
1758075394.81187,1758075394.78501,0.0,0.0,0.0,-32.83048,-1.03132,-0.11459,8.0,-0.48,0.56,2.0
1758075394.8289,1758075394.79501,0.0,0.0,0.0,-25.61122,-26.24147,2.29183,8.0,-0.48,0.56,2.0
1758075394.82984,1758075394.80501,0.0,0.0,0.0,-19.70975,-55.86338,-0.51566,6.52,-0.65,2.4,2.0
1758075394.84489,1758075394.81501,0.0,0.0,0.0,-13.12073,-90.87111,-7.62034,6.52,-0.65,2.4,2.0
1758075394.84581,1758075394.82501,0.0,0.0,0.0,-7.67763,-118.43038,-18.62113,7.42,-1.04,4.23,2.0
1758075394.86093,1758075394.83501,0.0,0.0,0.0,-0.17189,-136.93692,-35.52338,12.27,-1.64,4.38,2.0
1758075394.87691,1758075394.84501,0.0,0.0,0.0,1.60428,-140.83304,-45.26366,12.27,-1.64,4.38,2.0
1758075394.88023,1758075394.85501,0.0,0.0,0.0,-0.34377,-139.9736,-51.85268,14.04,-2.18,3.0,2.0
1758075394.89805,1758075394.86501,0.0,0.0,0.0,-5.84417,-132.75433,-55.11855,14.04,-2.18,3.0,2.0
1758075394.9008,1758075394.87501,0.0,0.0,0.0,-20.74107,-113.38836,-53.11319,12.19,-1.4,0.42,2.0
1758075394.91846,1758075394.88501,0.0,0.0,0.0,-28.87707,-93.96508,-49.38896,12.19,-1.4,0.42,2.0
1758075394.91969,1758075394.89501,0.0,0.0,0.0,-37.12767,-76.66176,-41.76862,10.5,-0.2,-0.86,2.0
1758075394.93463,1758075394.90501,0.0,0.0,0.0,-42.39888,-61.76485,-26.18417,10.5,-0.2,-0.86,2.0
1758075394.93776,1758075394.91501,0.0,0.0,0.0,-40.27893,-33.40344,-14.15206,11.55,0.6,-1.27,2.0
1758075394.9547,1758075394.92501,0.0,0.0,0.0,-34.37747,-11.97482,-3.26586,15.05,0.46,-2.65,2.0
1758075394.96014,1758075394.93501,0.0,0.0,0.0,-26.52795,10.02676,5.61499,15.05,0.46,-2.65,2.0
1758075394.97498,1758075394.94501,0.0,0.0,0.0,-15.87093,42.28429,13.46451,15.83,-0.34,-3.51,2.0
1758075394.97913,1758075394.95501,0.0,0.0,0.0,-10.54242,61.02001,15.92823,15.83,-0.34,-3.51,2.0
1758075394.99497,1758075394.96501,0.0,0.0,0.0,-7.33386,74.02615,15.87093,12.97,-0.87,-2.91,2.0
1758075395.00018,1758075394.97501,0.0,0.0,0.0,-5.27121,80.04221,13.69369,12.97,-0.87,-2.91,2.0
1758075395.01477,1758075394.98501,0.0,0.0,0.0,-4.29718,81.5319,7.44845,9.81,-0.91,-1.68,2.0
1758075395.02022,1758075394.99501,0.0,0.0,0.0,-4.1253,80.38599,2.7502,8.92,-0.93,-0.9,2.0
1758075395.03489,1758075395.00501,0.0,0.0,0.0,-4.18259,78.66711,-1.48969,8.92,-0.93,-0.9,2.0
1758075395.03635,1758075395.01501,0.0,0.0,0.0,-4.52637,74.771,-5.15662,8.46,-0.84,-0.47,2.0
1758075395.0508,1758075395.02501,0.0,0.0,0.0,-4.69825,65.08801,-8.42248,8.46,-0.84,-0.47,2.0
1758075395.05591,1758075395.03501,0.0,0.0,0.0,-3.72423,58.3844,-8.59437,7.5,-0.72,0.04,2.0
1758075395.0726,1758075395.04501,0.0,0.0,0.0,-1.03132,50.47758,-6.87549,7.5,-0.72,0.04,2.0
1758075395.08879,1758075395.05501,0.0,0.0,0.0,3.83882,44.51882,-3.03668,6.82,-0.84,0.45,2.0
1758075395.08979,1758075395.06501,0.0,0.0,0.0,12.43318,47.49821,2.00535,7.54,-1.08,0.06,2.0
1758075395.10508,1758075395.07501,0.0,0.0,0.0,18.79302,50.82136,5.32851,7.54,-1.08,0.06,2.0
1758075395.1091,1758075395.08501,0.0,0.0,0.0,24.86637,53.62885,8.136,7.85,-1.15,-0.17,2.0
1758075395.12505,1758075395.09501,0.0,0.0,0.0,30.76784,54.25911,11.11538,7.85,-1.15,-0.17,2.0
1758075395.12786,1758075395.10501,0.0,0.0,0.0,37.75792,53.28508,14.15206,7.82,-1.16,-0.66,2.0
1758075395.14403,1758075395.11501,0.0,0.0,0.0,40.16434,49.96192,15.58445,7.82,-1.16,-0.66,2.0
1758075395.1452,1758075395.12501,0.0,0.0,0.0,41.94051,42.91454,16.84496,8.11,-0.87,-0.69,2.0
1758075395.16403,1758075395.13501,0.0,0.0,0.0,43.60209,17.99088,19.76705,8.11,-0.87,-0.69,2.0
1758075395.16497,1758075395.14501,0.0,0.0,0.0,41.76862,-4.87014,18.50654,7.55,-0.76,-1.11,2.0
1758075395.18178,1758075395.15501,0.0,0.0,0.0,40.96649,-0.74485,18.27736,8.8,-0.58,-1.62,2.0
1758075395.18698,1758075395.16501,0.0,0.0,0.0,41.59674,7.33386,19.53786,8.8,-0.58,-1.62,2.0
1758075395.20509,1758075395.17501,0.0,0.0,0.0,37.64333,21.94428,19.59516,11.19,-0.1,-0.98,2.0
1758075395.20711,1758075395.18501,0.0,0.0,0.0,32.71589,27.67386,17.18874,11.19,-0.1,-0.98,2.0
1758075395.22287,1758075395.19501,0.0,0.0,0.0,27.50197,26.24147,14.72501,11.34,0.56,-0.51,2.0
1758075395.23994,1758075395.20501,0.0,0.0,0.0,20.3973,8.136,4.46907,11.34,0.56,-0.51,2.0
1758075395.24353,1758075395.21501,0.0,0.0,0.0,21.08485,-47.78468,-0.97403,7.82,1.0,-1.49,2.0
1758075395.24576,1758075395.22501,0.0,0.0,0.0,23.0329,-73.10942,8.59437,7.44,0.16,-3.05,2.0
1758075395.26592,1758075395.23501,0.0,0.0,0.0,21.60051,-69.38519,10.54242,7.44,0.16,-3.05,2.0
1758075395.26945,1758075395.24501,0.0,0.0,0.0,22.57454,-61.36378,14.78231,11.18,-0.97,-1.24,2.0
1758075395.28509,1758075395.25501,0.0,0.0,0.0,23.49127,-64.40046,16.95955,11.18,-0.97,-1.24,2.0
1758075395.28853,1758075395.26501,0.0,0.0,0.0,22.91831,-70.13004,17.53251,9.05,-1.48,-0.4,2.0
1758075395.30387,1758075395.27501,0.0,0.0,0.0,21.94428,-75.51585,16.55848,9.05,-1.48,-0.4,2.0
1758075395.305,1758075395.28501,0.0,0.0,0.0,20.85567,-79.81302,14.32395,7.82,-1.59,0.46,2.0
1758075395.32414,1758075395.29501,0.0,0.0,0.0,19.59516,-90.69922,11.63104,7.09,-1.33,1.91,2.0
1758075395.3251,1758075395.30501,0.0,0.0,0.0,18.90761,-101.70002,10.8862,7.09,-1.33,1.91,2.0
1758075395.34292,1758075395.31501,0.0,0.0,0.0,21.14215,-116.9407,14.09476,8.09,-0.68,4.97,2.0
1758075395.35924,1758075395.32501,0.0,0.0,0.0,29.50733,-126.05071,22.40265,8.09,-0.68,4.97,2.0
1758075395.36094,1758075395.33501,0.0,0.0,0.0,39.4195,-123.93078,30.59595,12.91,0.25,4.6,2.0
1758075395.37775,1758075395.34501,0.0,0.0,0.0,51.5662,-109.26305,40.45082,12.91,0.25,4.6,2.0
1758075395.38025,1758075395.35501,0.0,0.0,0.0,63.94209,-84.56858,49.67545,17.94,2.05,-0.84,2.0
1758075395.39623,1758075395.36501,0.0,0.0,0.0,77.52119,-36.49741,57.75415,17.94,2.05,-0.84,2.0
1758075395.39741,1758075395.37501,0.0,0.0,0.0,82.90699,-10.31324,59.07195,17.38,1.78,-3.58,2.0
1758075395.41224,1758075395.38501,0.0,0.0,0.0,84.05292,13.12073,54.3164,13.08,-0.83,-2.63,2.0
1758075395.42915,1758075395.39501,0.0,0.0,0.0,81.5319,36.89849,44.40423,13.08,-0.83,-2.63,2.0
1758075395.43014,1758075395.40501,0.0,0.0,0.0,73.68237,65.54638,28.07493,12.79,-2.55,-2.58,2.0
1758075395.44496,1758075395.41501,0.0,0.0,0.0,67.89551,74.88559,17.6471,12.79,-2.55,-2.58,2.0
1758075395.44726,1758075395.42501,0.0,0.0,0.0,61.65026,84.11021,8.88085,13.19,-2.09,-2.63,2.0
1758075395.46202,1758075395.43501,0.0,0.0,0.0,56.26446,94.07968,2.63561,13.19,-2.09,-2.63,2.0
1758075395.47911,1758075395.44501,0.0,0.0,0.0,49.15978,102.67403,-3.20856,14.35,-0.3,-2.25,2.0
1758075395.47999,1758075395.45501,0.0,0.0,0.0,45.09178,101.58542,-4.87014,12.94,1.4,-1.0,2.0
1758075395.49529,1758075395.46501,0.0,0.0,0.0,41.48215,99.06441,-4.81285,12.94,1.4,-1.0,2.0
1758075395.49702,1758075395.47501,0.0,0.0,0.0,38.44547,95.56937,-2.92208,10.73,1.96,0.3,2.0
1758075395.51198,1758075395.48501,0.0,0.0,0.0,33.23156,88.98035,1.48969,10.73,1.96,0.3,2.0
1758075395.52988,1758075395.49501,0.0,0.0,0.0,28.70519,81.87567,3.95341,8.63,1.93,1.02,2.0
1758075395.53085,1758075395.50501,0.0,0.0,0.0,22.57454,74.31263,4.87014,8.63,1.93,1.02,2.0
1758075395.54599,1758075395.51501,0.0,0.0,0.0,14.61043,68.41116,0.22918,7.29,2.09,0.95,2.0
1758075395.54916,1758075395.52501,0.0,0.0,0.0,2.6929,62.62429,-0.11459,6.62,2.13,0.43,2.0
1758075395.56403,1758075395.53501,0.0,0.0,0.0,-2.7502,48.12846,-2.57831,6.62,2.13,0.43,2.0
1758075395.56526,1758075395.54501,0.0,0.0,0.0,2.40642,52.54023,-7.33386,5.9,0.51,2.02,2.0
1758075395.58125,1758075395.55501,0.0,0.0,0.0,-4.52637,44.46153,-12.54778,5.9,0.51,2.02,2.0
1758075395.59798,1758075395.56501,0.0,0.0,0.0,-18.10547,34.89313,-18.22006,6.5,0.34,0.29,2.0
1758075395.5993,1758075395.57501,0.0,0.0,0.0,-31.74186,29.22085,-22.74642,6.5,0.34,0.29,2.0
1758075395.61411,1758075395.58501,0.0,0.0,0.0,-44.11775,25.43933,-25.38203,5.79,3.15,-2.99,2.0
1758075395.61528,1758075395.59501,0.0,0.0,0.0,-59.70221,15.46986,-24.57989,5.79,3.15,-0.88,2.0
1758075395.6319,1758075395.60501,0.0,0.0,0.0,-68.01009,5.21392,-23.20479,6.16,3.23,-0.88,2.0
1758075395.64897,1758075395.61501,0.0,0.0,0.0,-76.26069,-4.69825,-19.76705,5.96,2.21,-2.44,2.0
1758075395.65011,1758075395.62501,0.0,0.0,0.0,-83.93832,-1.08862,-16.67307,5.96,2.21,-2.44,2.0
1758075395.66541,1758075395.63501,0.0,0.0,0.0,-93.27753,34.60666,-17.58981,9.88,1.71,-1.64,2.0
1758075395.66961,1758075395.64501,0.0,0.0,0.0,-93.10565,34.72124,-13.40721,9.88,1.71,-1.64,2.0
1758075395.6854,1758075395.65501,0.0,0.0,0.0,-97.57471,4.69825,-16.84496,9.72,1.02,-0.51,2.0
1758075395.68709,1758075395.66501,0.0,0.0,0.0,-96.77258,-23.49127,-19.76705,9.72,1.02,-0.51,2.0
1758075395.70249,1758075395.67501,0.0,0.0,0.0,-91.27219,-29.96569,-26.41335,9.34,0.77,-0.97,2.0
1758075395.71839,1758075395.68501,0.0,0.0,0.0,-85.71449,-19.42327,-28.24682,13.96,0.23,-1.65,2.0
1758075395.7198,1758075395.69501,0.0,0.0,0.0,-80.55787,-8.70896,-29.39274,13.96,0.23,-1.65,2.0
1758075395.73529,1758075395.70501,0.0,0.0,0.0,-74.771,-1.71887,-28.70519,13.1,-0.46,-0.55,2.0
1758075395.73643,1758075395.71501,0.0,0.0,0.0,-66.29122,7.79223,-26.18417,13.1,-0.46,-0.55,2.0
1758075395.75111,1758075395.72501,0.0,0.0,0.0,-61.02001,11.22997,-23.66316,11.22,-0.72,-0.28,2.0
1758075395.76745,1758075395.73501,0.0,0.0,0.0,-55.86338,8.65166,-20.74107,11.22,-0.72,-0.28,2.0
1758075395.76912,1758075395.74501,0.0,0.0,0.0,-46.63877,-2.92208,-17.53251,8.53,-0.63,0.0,2.0
1758075395.78419,1758075395.75501,0.0,0.0,0.0,-38.56006,-37.75792,-18.33465,6.63,-0.8,2.59,2.0
1758075395.78537,1758075395.76501,0.0,0.0,0.0,-28.59059,-72.88023,-23.54857,6.63,-0.8,2.59,2.0
1758075395.80297,1758075395.77501,0.0,0.0,0.0,-19.70975,-108.86199,-34.49206,8.72,-1.97,5.7,2.0
1758075395.81947,1758075395.78501,0.0,0.0,0.0,-9.39651,-132.18138,-53.74345,8.72,-1.97,5.7,2.0
1758075395.82157,1758075395.79501,0.0,0.0,0.0,-6.24524,-132.69704,-62.85347,15.04,-3.47,4.31,2.0
1758075395.8373,1758075395.80501,0.0,0.0,0.0,-6.53172,-129.31659,-66.74959,15.04,-3.47,4.31,2.0
1758075395.83978,1758075395.81501,0.0,0.0,0.0,-10.19865,-124.79022,-68.06739,13.59,-2.43,2.52,2.0
1758075395.85627,1758075395.82501,0.0,0.0,0.0,-20.68378,-104.73669,-63.94209,9.75,-2.43,0.31,2.0
1758075395.86156,1758075395.83501,0.0,0.0,0.0,-29.27814,-90.87111,-56.83742,9.75,-0.34,0.31,2.0
1758075395.87732,1758075395.84501,0.0,0.0,0.0,-35.63798,-78.49522,-46.2377,8.22,0.9,-0.95,2.0
1758075395.88248,1758075395.85501,0.0,0.0,0.0,-38.61736,-65.2599,-33.17426,8.22,0.9,-0.95,2.0
1758075395.89832,1758075395.86501,0.0,0.0,0.0,-34.95043,-38.1017,-11.91752,10.95,0.94,-1.24,2.0
1758075395.90085,1758075395.87501,0.0,0.0,0.0,-28.24682,-14.03747,0.74485,10.95,0.94,-1.24,2.0
1758075395.9196,1758075395.88501,0.0,0.0,0.0,-20.11082,12.37589,10.08406,15.7,-0.53,-3.39,2.0
1758075395.92073,1758075395.89501,0.0,0.0,0.0,-12.49048,36.49741,15.35527,15.7,-0.53,-3.39,2.0
1758075395.93564,1758075395.90501,0.0,0.0,0.0,-3.49504,66.17663,16.61578,16.12,-2.02,-3.84,2.0
1758075395.93651,1758075395.91501,0.0,0.0,0.0,0.22918,76.0315,14.38124,12.72,-1.72,-2.53,2.0
1758075395.95238,1758075395.92501,0.0,0.0,0.0,3.03668,80.61517,10.54242,12.72,-1.72,-2.53,2.0
1758075395.96911,1758075395.93501,0.0,0.0,0.0,4.81285,83.30807,3.89611,10.23,-0.78,-1.24,2.0
1758075395.97073,1758075395.94501,0.0,0.0,0.0,5.61499,83.93832,-0.74485,10.23,-0.78,-1.24,2.0
1758075395.98534,1758075395.95501,0.0,0.0,0.0,5.78687,81.87567,-4.58366,9.47,-0.37,-0.79,2.0
1758075395.98657,1758075395.96501,0.0,0.0,0.0,5.95876,79.69843,-6.87549,9.47,-0.37,-0.79,2.0
1758075396.00213,1758075395.97501,0.0,0.0,0.0,6.58902,76.77635,-6.99009,8.99,-0.36,-0.33,2.0
1758075396.01837,1758075395.98501,0.0,0.0,0.0,8.88085,72.70835,-4.52637,8.37,-0.71,-0.02,2.0
1758075396.01958,1758075395.99501,0.0,0.0,0.0,13.12073,68.75494,-0.34377,8.37,-0.71,-0.02,2.0
1758075396.03459,1758075396.00501,0.0,0.0,0.0,18.44924,68.75494,3.66693,7.86,-1.18,0.11,2.0
1758075396.03559,1758075396.01501,0.0,0.0,0.0,27.33009,68.98412,10.08406,7.86,-1.18,0.11,2.0
1758075396.05164,1758075396.02501,0.0,0.0,0.0,34.60666,70.24463,14.38124,7.38,-1.56,-0.2,2.0
1758075396.06899,1758075396.03501,0.0,0.0,0.0,42.57077,68.86953,17.93358,7.38,-1.56,-0.2,2.0
1758075396.07021,1758075396.04501,0.0,0.0,0.0,49.90463,64.85883,20.51189,6.44,-1.7,0.22,2.0
1758075396.08545,1758075396.05501,0.0,0.0,0.0,60.04598,53.74345,22.51724,5.61,-1.99,-0.59,2.0
1758075396.08741,1758075396.06501,0.0,0.0,0.0,66.06203,42.05511,23.31938,5.61,-1.99,-0.59,2.0
1758075396.10243,1758075396.07501,0.0,0.0,0.0,70.58841,21.88699,24.12152,4.92,-2.17,-0.94,2.0
1758075396.1192,1758075396.08501,0.0,0.0,0.0,72.07809,-2.40642,21.94428,4.92,-2.17,-0.94,2.0
1758075396.12072,1758075396.09501,0.0,0.0,0.0,75.22936,1.83346,21.6578,6.57,-2.25,-1.79,2.0
1758075396.13669,1758075396.10501,0.0,0.0,0.0,76.77635,6.35983,23.94964,6.57,-2.25,-1.79,2.0
1758075396.13761,1758075396.11501,0.0,0.0,0.0,74.14074,19.88164,24.00693,10.08,-1.81,-0.86,2.0
1758075396.15269,1758075396.12501,0.0,0.0,0.0,70.6457,26.52795,23.37668,10.08,-1.81,-0.86,2.0
1758075396.1696,1758075396.13501,0.0,0.0,0.0,66.69229,-11.97482,21.42862,10.72,-0.53,-0.12,2.0
1758075396.17497,1758075396.14501,0.0,0.0,0.0,62.68159,-56.03527,16.67307,5.93,0.71,-1.87,2.0
1758075396.17667,1758075396.15501,0.0,0.0,0.0,62.85347,-87.94903,25.26744,5.93,0.71,-1.87,2.0
1758075396.19455,1758075396.16501,0.0,0.0,0.0,59.35843,-88.86576,31.79916,10.03,0.46,-2.66,2.0
1758075396.19545,1758075396.17501,0.0,0.0,0.0,57.52497,-81.99026,33.80451,10.03,0.46,-2.66,2.0
1758075396.21275,1758075396.18501,0.0,0.0,0.0,54.71747,-90.06896,32.77319,10.0,0.29,-1.21,2.0
1758075396.22957,1758075396.19501,0.0,0.0,0.0,50.47758,-99.00711,30.88243,10.0,0.29,-1.21,2.0
1758075396.23072,1758075396.20501,0.0,0.0,0.0,39.53409,-108.51821,26.18417,7.65,0.05,0.85,2.0
1758075396.24764,1758075396.21501,0.0,0.0,0.0,29.67921,-123.7016,24.5226,7.77,0.43,3.72,2.0
1758075396.25029,1758075396.22501,0.0,0.0,0.0,21.08485,-143.06758,28.07493,7.77,0.43,3.72,2.0
1758075396.26576,1758075396.23501,0.0,0.0,0.0,15.98552,-152.57867,37.58603,12.25,2.92,6.51,2.0
1758075396.26839,1758075396.24501,0.0,0.0,0.0,18.50654,-147.07828,51.22243,12.25,2.92,6.51,2.0
1758075396.28371,1758075396.25501,0.0,0.0,0.0,28.30412,-135.10345,58.3844,18.94,5.58,1.13,2.0
1758075396.28559,1758075396.26501,0.0,0.0,0.0,39.07573,-105.82531,57.41038,18.94,5.58,1.13,2.0
1758075396.3024,1758075396.27501,0.0,0.0,0.0,48.12846,-68.75494,50.64947,18.68,2.23,-2.65,2.0
1758075396.31885,1758075396.28501,0.0,0.0,0.0,56.83742,-17.99088,35.06502,13.86,-2.15,-2.84,2.0
1758075396.31923,1758075396.29501,0.0,0.0,0.0,58.90006,5.72958,22.34536,13.86,-2.15,-2.84,2.0
1758075396.33478,1758075396.30501,0.0,0.0,0.0,59.07195,26.18417,10.02676,11.67,-3.57,-1.5,2.0
1758075396.3369,1758075396.31501,0.0,0.0,0.0,58.72818,45.26366,0.40107,11.67,-3.57,-1.5,2.0
1758075396.35464,1758075396.32501,0.0,0.0,0.0,57.23849,76.54716,-7.04738,14.02,-2.77,-1.66,2.0
1758075396.35558,1758075396.33501,0.0,0.0,0.0,55.34772,91.21489,-8.30789,14.02,-2.77,-1.66,2.0
1758075396.37269,1758075396.34501,0.0,0.0,0.0,53.34238,97.86119,-6.13065,15.34,-0.1,-2.08,2.0
1758075396.38959,1758075396.35501,0.0,0.0,0.0,51.39432,101.06976,1.20321,15.34,-0.1,-2.08,2.0
1758075396.39034,1758075396.36501,0.0,0.0,0.0,48.9306,103.1897,7.21927,13.6,1.89,-1.09,2.0
1758075396.40587,1758075396.37501,0.0,0.0,0.0,47.95657,102.78864,12.77696,11.23,1.82,-0.24,2.0
1758075396.40869,1758075396.38501,0.0,0.0,0.0,46.35228,102.21567,16.73037,11.23,1.82,-0.24,2.0
1758075396.4239,1758075396.39501,0.0,0.0,0.0,41.71133,100.26762,18.62113,9.01,1.33,0.54,2.0
1758075396.43992,1758075396.40501,0.0,0.0,0.0,35.52338,97.7466,16.04282,9.01,1.33,0.54,2.0
1758075396.44033,1758075396.41501,0.0,0.0,0.0,27.2155,93.90779,10.71431,7.39,1.49,0.69,2.0
1758075396.45889,1758075396.42501,0.0,0.0,0.0,17.13144,89.43871,3.60963,7.39,1.49,0.69,2.0
1758075396.45925,1758075396.43501,0.0,0.0,0.0,1.3178,75.34396,-6.41713,6.4,1.91,-0.06,2.0
1758075396.47489,1758075396.44501,0.0,0.0,0.0,-12.43318,71.56243,-15.58445,5.88,2.2,-0.6,2.0
1758075396.48017,1758075396.45501,0.0,0.0,0.0,-24.75178,76.43258,-24.75178,5.88,2.2,-0.6,2.0
1758075396.49569,1758075396.46501,0.0,0.0,0.0,-31.85646,66.69229,-22.11617,5.78,2.31,-0.79,2.0
1758075396.49747,1758075396.47501,0.0,0.0,0.0,-32.6013,52.65482,-22.05888,5.78,2.31,-0.79,2.0
1758075396.51265,1758075396.48501,0.0,0.0,0.0,-22.11617,42.68536,-17.47521,5.58,-0.25,1.07,2.0
1758075396.51625,1758075396.49501,0.0,0.0,0.0,-27.61657,17.53251,-16.84496,5.58,-0.25,1.07,2.0
1758075396.53479,1758075396.50501,0.0,0.0,0.0,-36.7266,-2.57831,-13.69369,5.89,-0.13,-2.49,2.0
1758075396.54158,1758075396.51501,0.0,0.0,0.0,-47.03984,12.08941,-9.91217,8.71,2.25,-2.68,2.0
1758075396.55667,1758075396.52501,0.0,0.0,0.0,-54.94666,23.0329,-8.25059,8.71,2.25,-2.68,2.0
1758075396.55874,1758075396.53501,0.0,0.0,0.0,-61.59297,29.22085,-8.59437,9.31,2.4,-0.35,2.0
1758075396.57405,1758075396.54501,0.0,0.0,0.0,-62.56699,20.22541,-4.69825,9.31,2.4,-0.35,2.0
1758075396.57491,1758075396.55501,0.0,0.0,0.0,-65.48907,-30.76784,-7.84952,6.83,2.14,-0.11,2.0
1758075396.59029,1758075396.56501,0.0,0.0,0.0,-66.74959,-47.89928,-13.86558,6.83,2.14,-0.11,2.0
1758075396.59514,1758075396.57501,0.0,0.0,0.0,-66.80688,-49.27437,-20.22541,8.92,1.77,-2.33,2.0
1758075396.61222,1758075396.58501,0.0,0.0,0.0,-65.77556,-44.00316,-29.04896,8.92,1.77,-2.33,2.0
1758075396.61477,1758075396.59501,0.0,0.0,0.0,-65.03072,-41.88322,-31.91375,11.02,1.08,-0.78,2.0
1758075396.63032,1758075396.60501,0.0,0.0,0.0,-63.13995,-47.72739,-32.25753,9.45,0.34,-0.11,2.0
1758075396.65007,1758075396.61501,0.0,0.0,0.0,-60.73353,-55.06125,-31.56997,9.45,0.34,-0.11,2.0
1758075396.65095,1758075396.62501,0.0,0.0,0.0,-54.3164,-78.7244,-32.54401,8.05,-0.07,2.34,2.0
1758075396.66692,1758075396.63501,0.0,0.0,0.0,-47.32632,-106.0545,-37.64333,8.05,-0.07,2.34,2.0
1758075396.66957,1758075396.64501,0.0,0.0,0.0,-38.56006,-138.42662,-49.50356,8.49,-0.73,5.98,2.0
1758075396.68481,1758075396.65501,0.0,0.0,0.0,-29.67921,-155.27158,-65.2599,8.49,-0.73,5.98,2.0
1758075396.68603,1758075396.66501,0.0,0.0,0.0,-17.47521,-152.57867,-85.31342,15.8,-3.66,7.3,2.0
1758075396.70237,1758075396.67501,0.0,0.0,0.0,-13.5218,-138.82768,-89.15224,17.31,-4.98,0.95,2.0
1758075396.70433,1758075396.68501,0.0,0.0,0.0,-14.43854,-126.2799,-88.06361,17.31,-4.98,0.95,2.0
1758075396.72882,1758075396.69501,0.0,0.0,0.0,-18.44924,-110.86734,-80.67246,11.32,-2.29,-0.62,2.0
1758075396.72975,1758075396.70501,0.0,0.0,0.0,5.15662,-76.66176,-58.3844,11.32,-2.29,-0.62,2.0
1758075396.74499,1758075396.71501,0.0,0.0,0.0,-6.58902,-65.77556,-38.15899,10.91,0.05,-0.61,2.0
1758075396.7495,1758075396.72501,0.0,0.0,0.0,-22.63183,-58.78547,-17.93358,10.91,0.05,-0.61,2.0
1758075396.76513,1758075396.73501,0.0,0.0,0.0,-31.51268,-38.78925,-0.22918,12.91,1.09,-1.76,2.0
1758075396.76883,1758075396.74501,0.0,0.0,0.0,-27.33009,-1.3751,18.73572,15.98,0.62,-3.61,2.0
1758075396.78388,1758075396.75501,0.0,0.0,0.0,-23.31938,21.6578,24.00693,15.98,0.62,-3.61,2.0
1758075396.78504,1758075396.76501,0.0,0.0,0.0,-19.36597,40.68,24.4653,14.95,-0.49,-3.3,2.0
1758075396.80038,1758075396.77501,0.0,0.0,0.0,-15.24068,58.49899,19.76705,14.95,-0.49,-3.3,2.0
1758075396.81978,1758075396.78501,0.0,0.0,0.0,-10.59972,72.30728,14.38124,12.51,-0.93,-2.43,2.0
1758075396.8231,1758075396.79501,0.0,0.0,0.0,-8.59437,76.89094,8.136,12.51,-0.93,-2.43,2.0
1758075396.83791,1758075396.80501,0.0,0.0,0.0,-7.10468,81.30271,2.00535,10.49,-0.96,-1.69,2.0
1758075396.8391,1758075396.81501,0.0,0.0,0.0,-5.78687,87.71984,-5.32851,10.49,-0.96,-1.69,2.0
1758075396.85398,1758075396.82501,0.0,0.0,0.0,-4.46907,88.40739,-8.02141,9.87,-0.86,-1.31,2.0
1758075396.85536,1758075396.83501,0.0,0.0,0.0,-2.86479,86.51663,-9.33921,8.89,-0.61,-0.75,2.0
1758075396.86993,1758075396.84501,0.0,0.0,0.0,-0.40107,83.02158,-8.93814,8.89,-0.61,-0.75,2.0
1758075396.887,1758075396.85501,0.0,0.0,0.0,5.27121,77.06283,-4.81285,8.23,-0.63,-0.36,2.0
1758075396.88889,1758075396.86501,0.0,0.0,0.0,11.34457,74.25533,0.11459,8.23,-0.63,-0.36,2.0
1758075396.90394,1758075396.87501,0.0,0.0,0.0,18.62113,74.42722,5.21392,8.0,-0.96,-0.21,2.0
1758075396.90512,1758075396.88501,0.0,0.0,0.0,23.66316,74.08345,8.70896,8.0,-0.96,-0.21,2.0
1758075396.92014,1758075396.89501,0.0,0.0,0.0,33.51803,73.3386,14.49583,7.62,-1.5,-0.57,2.0
1758075396.93779,1758075396.90501,0.0,0.0,0.0,41.88322,71.84892,18.9649,6.64,-1.36,-0.18,2.0
1758075396.94031,1758075396.91501,0.0,0.0,0.0,50.64947,66.46311,22.40265,6.64,-1.36,-0.18,2.0
1758075396.95721,1758075396.92501,0.0,0.0,0.0,59.35843,56.66553,24.86637,5.32,-1.54,-0.21,2.0
1758075396.95898,1758075396.93501,0.0,0.0,0.0,70.41652,32.48671,26.75713,5.32,-1.54,-0.21,2.0
1758075396.97393,1758075396.94501,0.0,0.0,0.0,75.28666,4.29718,26.47065,3.98,-2.04,-0.82,2.0
1758075396.97629,1758075396.95501,0.0,0.0,0.0,74.08345,-8.59437,21.7151,3.98,-2.04,-0.82,2.0
1758075396.99429,1758075396.96501,0.0,0.0,0.0,65.03072,7.10468,19.07949,5.92,-0.9,-0.27,2.0
1758075396.99598,1758075396.97501,0.0,0.0,0.0,63.19725,22.34536,20.22541,9.88,-0.3,-0.19,2.0
1758075397.01295,1758075396.98501,0.0,0.0,0.0,60.73353,27.10091,17.36062,9.88,-0.3,-0.19,2.0
1758075397.02884,1758075396.99501,0.0,0.0,0.0,60.96271,4.35448,14.15206,8.02,-1.36,-1.23,2.0
1758075397.03048,1758075397.00501,0.0,0.0,0.0,58.84277,-26.69983,9.28192,8.02,-1.36,-1.23,2.0
1758075397.04527,1758075397.01501,0.0,0.0,0.0,60.61894,-77.57849,17.93358,6.14,-0.58,-2.01,2.0
1758075397.04732,1758075397.02501,0.0,0.0,0.0,59.70221,-81.5319,23.37668,6.14,-0.58,-2.01,2.0
1758075397.0621,1758075397.03501,0.0,0.0,0.0,58.49899,-74.31263,25.61122,11.07,-0.69,-1.64,2.0
1758075397.06406,1758075397.04501,0.0,0.0,0.0,55.34772,-75.63043,27.67386,11.07,-0.69,-1.64,2.0
1758075397.08035,1758075397.05501,0.0,0.0,0.0,51.45161,-83.25077,27.2155,10.8,-0.54,-1.33,2.0
1758075397.09702,1758075397.06501,0.0,0.0,0.0,45.89392,-89.20953,25.89769,9.34,-0.32,0.44,2.0
1758075397.09855,1758075397.07501,0.0,0.0,0.0,37.58603,-96.02773,24.29341,9.34,-0.32,0.44,2.0
1758075397.11394,1758075397.08501,0.0,0.0,0.0,23.26209,-118.31579,24.92367,9.66,0.48,2.48,2.0
1758075397.11528,1758075397.09501,0.0,0.0,0.0,15.35527,-130.69168,28.41871,9.66,0.48,2.48,2.0
1758075397.13008,1758075397.10501,0.0,0.0,0.0,11.17268,-137.39528,33.9764,13.19,2.65,5.45,2.0
1758075397.14614,1758075397.11501,0.0,0.0,0.0,12.37589,-139.62982,39.01843,13.19,2.65,5.45,2.0
1758075397.14889,1758075397.12501,0.0,0.0,0.0,24.92367,-122.67027,42.22699,16.84,4.12,2.81,2.0
1758075397.16439,1758075397.13501,0.0,0.0,0.0,35.69527,-91.84514,40.68,16.69,1.69,-1.22,2.0
1758075397.16532,1758075397.14501,0.0,0.0,0.0,44.9199,-54.3737,35.69527,16.69,1.69,-1.22,2.0
1758075397.18014,1758075397.15501,0.0,0.0,0.0,52.54023,-24.00693,30.76784,12.76,-2.13,-1.96,2.0
1758075397.19853,1758075397.16501,0.0,0.0,0.0,59.98868,11.34457,22.34536,12.76,-2.13,-1.96,2.0
1758075397.19971,1758075397.17501,0.0,0.0,0.0,63.19725,34.43476,17.47521,12.06,-3.57,-1.58,2.0
1758075397.21547,1758075397.18501,0.0,0.0,0.0,65.14531,55.92068,15.41257,12.06,-3.57,-1.58,2.0
1758075397.21797,1758075397.19501,0.0,0.0,0.0,66.5204,72.88023,15.58445,14.72,-2.58,-2.31,2.0
1758075397.23397,1758075397.20501,0.0,0.0,0.0,65.89015,89.78249,16.84496,15.31,-0.39,-2.56,2.0
1758075397.23776,1758075397.21501,0.0,0.0,0.0,64.51505,98.54874,19.76705,15.31,-0.39,-2.56,2.0
1758075397.25507,1758075397.22501,0.0,0.0,0.0,61.87944,106.16908,21.37133,13.9,1.24,-1.46,2.0
1758075397.25919,1758075397.23501,0.0,0.0,0.0,58.04062,109.03387,23.37668,13.9,1.24,-1.46,2.0
1758075397.27422,1758075397.24501,0.0,0.0,0.0,54.3737,107.315,23.31938,11.14,1.55,-0.56,2.0
1758075397.27568,1758075397.25501,0.0,0.0,0.0,49.96192,102.96053,22.23076,11.14,1.55,-0.56,2.0
1758075397.29123,1758075397.26501,0.0,0.0,0.0,44.23235,96.94446,19.48057,8.75,1.69,0.26,2.0
1758075397.29489,1758075397.27501,0.0,0.0,0.0,33.80451,87.66255,11.91752,8.75,1.69,0.51,2.0
1758075397.31127,1758075397.28501,0.0,0.0,0.0,24.92367,82.39134,3.89611,7.36,2.04,0.51,2.0
1758075397.32986,1758075397.29501,0.0,0.0,0.0,14.83961,76.60446,-4.98473,7.0,2.29,0.32,2.0
1758075397.3499,1758075397.30501,0.0,0.0,0.0,4.46907,65.2599,-14.09476,7.0,2.29,0.32,2.0
1758075397.35528,1758075397.31501,0.0,0.0,0.0,-13.98017,52.13916,-26.35606,6.37,2.4,-0.38,2.0
1758075397.36051,1758075397.32501,0.0,0.0,0.0,-24.92367,49.56085,-34.0337,6.37,2.4,-0.38,2.0
1758075397.36087,1758075397.33501,0.0,0.0,0.0,-35.92446,45.49285,-40.45082,6.8,2.39,-0.61,2.0
1758075397.36526,1758075397.34501,0.0,0.0,0.0,-45.55015,30.30947,-43.60209,6.8,2.39,-0.61,2.0
1758075397.38493,1758075397.35501,0.0,0.0,0.0,-56.952,0.34377,-42.51347,5.36,2.15,-1.23,2.0
1758075397.3859,1758075397.36501,0.0,0.0,0.0,-63.77021,-13.34992,-38.56006,5.43,1.74,-1.86,2.0
1758075397.4013,1758075397.37501,0.0,0.0,0.0,-70.58841,-7.16197,-33.23156,5.43,1.74,-1.86,2.0
1758075397.41809,1758075397.38501,0.0,0.0,0.0,-75.80232,9.33921,-28.76248,9.09,1.56,-1.35,2.0
1758075397.42181,1758075397.39501,0.0,0.0,0.0,-83.76643,32.37212,-24.57989,9.09,1.56,-1.35,2.0
1758075397.43998,1758075397.40501,0.0,0.0,0.0,-82.50593,28.01764,-15.24068,9.76,1.24,-0.41,2.0
1758075397.44443,1758075397.41501,0.0,0.0,0.0,-84.56858,-7.50575,-13.34992,9.76,1.24,-0.41,2.0
1758075397.44493,1758075397.42501,0.0,0.0,0.0,-83.02158,-30.59595,-9.91217,6.16,1.41,-0.59,2.0
1758075397.46037,1758075397.43501,0.0,0.0,0.0,-80.61517,-35.12231,-11.45916,10.23,1.37,-2.63,2.0
1758075397.47817,1758075397.44501,0.0,0.0,0.0,-77.29202,-33.80451,-13.86558,10.23,1.37,-2.63,2.0
1758075397.48335,1758075397.45501,0.0,0.0,0.0,-73.68237,-31.11161,-16.61578,11.39,0.72,-1.66,2.0
1758075397.49942,1758075397.46501,0.0,0.0,0.0,-67.15066,-23.83505,-19.53786,11.39,0.72,-1.66,2.0
1758075397.50309,1758075397.47501,0.0,0.0,0.0,-62.33781,-17.99088,-19.42327,11.53,-0.12,-1.51,2.0
1758075397.51864,1758075397.48501,0.0,0.0,0.0,-57.41038,-13.80828,-17.99088,11.53,-0.12,-1.51,2.0
1758075397.51982,1758075397.49501,0.0,0.0,0.0,-52.48294,-13.80828,-15.87093,10.24,-0.67,-1.7,2.0
1758075397.53438,1758075397.50501,0.0,0.0,0.0,-44.748,-21.02755,-12.60507,8.21,-0.74,-0.29,2.0
1758075397.53986,1758075397.51501,0.0,0.0,0.0,-38.15899,-34.77854,-12.49048,8.21,-0.74,-0.29,2.0
1758075397.5546,1758075397.52501,0.0,0.0,0.0,-29.50733,-56.03527,-17.13144,8.25,-1.08,3.24,2.0
1758075397.55663,1758075397.53501,0.0,0.0,0.0,-18.90761,-88.00632,-27.50197,8.25,-1.08,3.24,2.0
1758075397.57246,1758075397.54501,0.0,0.0,0.0,-4.69825,-124.84751,-53.39967,12.26,-2.95,6.92,2.0
1758075397.57495,1758075397.55501,0.0,0.0,0.0,1.83346,-132.75433,-69.67168,12.26,-2.95,6.92,2.0
1758075397.59223,1758075397.56501,0.0,0.0,0.0,5.32851,-134.5878,-78.839,16.53,-4.07,3.25,2.0
1758075397.60846,1758075397.57501,0.0,0.0,0.0,4.18259,-135.73372,-82.96429,16.53,-4.07,3.25,2.0
1758075397.60962,1758075397.58501,0.0,0.0,0.0,-4.69825,-115.50829,-79.06818,11.87,-1.61,2.2,2.0
1758075397.62445,1758075397.59501,0.0,0.0,0.0,-14.03747,-98.20497,-70.13004,9.68,0.55,0.85,2.0
1758075397.62684,1758075397.60501,0.0,0.0,0.0,-23.60586,-85.19884,-56.89471,9.68,0.55,0.85,2.0
1758075397.64174,1758075397.61501,0.0,0.0,0.0,-32.25753,-74.02615,-33.63263,8.72,1.41,-0.2,2.0
1758075397.65901,1758075397.62501,0.0,0.0,0.0,-38.56006,-46.52417,-17.47521,8.72,1.41,-0.2,2.0
1758075397.66073,1758075397.63501,0.0,0.0,0.0,-37.29956,-23.72045,-3.03668,12.54,1.05,-2.06,2.0
1758075397.6758,1758075397.64501,0.0,0.0,0.0,-31.97105,0.74485,7.79223,12.54,1.05,-2.06,2.0
1758075397.67755,1758075397.65501,0.0,0.0,0.0,-20.11082,35.2369,15.24068,16.42,-0.38,-3.51,2.0
1758075397.69254,1758075397.66501,0.0,0.0,0.0,-11.22997,54.66018,16.10011,16.0,-1.63,-3.61,2.0
1758075397.69484,1758075397.67501,0.0,0.0,0.0,-2.06265,71.50513,15.58445,16.0,-1.63,-3.61,2.0
1758075397.71181,1758075397.68501,0.0,0.0,0.0,6.47442,84.11021,15.24068,13.05,-1.79,-2.46,2.0
1758075397.72858,1758075397.69501,0.0,0.0,0.0,16.3293,91.27219,12.43318,13.05,-1.79,-2.46,2.0
1758075397.72975,1758075397.70501,0.0,0.0,0.0,21.14215,92.53268,9.62569,9.63,-1.39,-1.36,2.0
1758075397.74487,1758075397.71501,0.0,0.0,0.0,25.15285,92.93376,7.33386,9.63,-1.39,-1.36,2.0
1758075397.74656,1758075397.72501,0.0,0.0,0.0,29.22085,93.79319,5.72958,8.27,-1.13,-1.11,2.0
1758075397.76351,1758075397.73501,0.0,0.0,0.0,35.00772,92.81918,5.21392,7.92,-1.15,-0.84,2.0
1758075397.77885,1758075397.74501,0.0,0.0,0.0,39.24761,90.29816,6.35983,7.92,-1.15,-0.84,2.0
1758075397.78256,1758075397.75501,0.0,0.0,0.0,44.28964,87.37608,8.76626,7.95,-1.32,-0.28,2.0
1758075397.79788,1758075397.76501,0.0,0.0,0.0,50.01921,84.28209,12.204,7.95,-1.32,-0.28,2.0
1758075397.79878,1758075397.77501,0.0,0.0,0.0,60.04598,80.61517,18.9649,7.94,-1.49,-0.46,2.0
1758075397.81435,1758075397.78501,0.0,0.0,0.0,66.92148,81.5319,22.91831,7.94,-1.49,-0.46,2.0
1758075397.81668,1758075397.79501,0.0,0.0,0.0,72.30728,82.04756,25.89769,7.72,-1.43,-0.9,2.0
1758075397.83178,1758075397.80501,0.0,0.0,0.0,76.89094,79.35466,27.73116,7.72,-1.43,-0.9,2.0
1758075397.83514,1758075397.81501,0.0,0.0,0.0,81.70379,69.84356,27.2155,6.73,-1.28,-0.49,2.0
1758075397.85375,1758075397.82501,0.0,0.0,0.0,84.05292,61.76485,24.92367,5.89,-1.16,-0.77,2.0
1758075397.85495,1758075397.83501,0.0,0.0,0.0,85.02695,52.48294,21.42862,5.89,-1.16,-0.77,2.0
1758075397.87463,1758075397.84501,0.0,0.0,0.0,84.51128,35.2369,15.58445,5.58,-0.9,-0.98,2.0
1758075397.87608,1758075397.85501,0.0,0.0,0.0,83.13618,22.91831,11.97482,5.58,-0.9,-0.98,2.0
1758075397.89094,1758075397.86501,0.0,0.0,0.0,80.38599,10.02676,9.11003,5.92,-0.49,-1.3,2.0
1758075397.90889,1758075397.87501,0.0,0.0,0.0,76.60446,-3.66693,7.21927,5.92,-0.49,-1.3,2.0
1758075397.90984,1758075397.88501,0.0,0.0,0.0,69.38519,-23.89234,8.36518,6.99,0.09,-1.51,2.0
1758075397.92462,1758075397.89501,0.0,0.0,0.0,63.48372,-37.18496,11.00079,8.53,0.85,-1.65,2.0
1758075397.92586,1758075397.90501,0.0,0.0,0.0,55.92068,-50.76406,13.00614,8.53,0.85,-1.65,2.0
1758075397.94065,1758075397.91501,0.0,0.0,0.0,47.44091,-59.53032,14.32395,9.72,1.92,-2.18,2.0
1758075397.95801,1758075397.92501,0.0,0.0,0.0,34.09099,-57.12389,15.58445,9.72,1.92,-2.18,2.0
1758075397.95888,1758075397.93501,0.0,0.0,0.0,25.55392,-53.45696,16.84496,11.69,2.81,-2.33,2.0
1758075397.97395,1758075397.94501,0.0,0.0,0.0,16.95955,-52.71212,17.53251,11.69,2.81,-2.33,2.0
1758075397.97513,1758075397.95501,0.0,0.0,0.0,10.19865,-50.93595,17.93358,11.43,2.85,-2.08,2.0
1758075397.99174,1758075397.96501,0.0,0.0,0.0,1.71887,-60.61894,16.21471,9.36,2.24,-1.9,2.0
1758075398.00871,1758075397.97501,0.0,0.0,0.0,-5.4431,-73.91156,11.74564,9.36,2.24,-1.9,2.0
1758075398.00971,1758075397.98501,0.0,0.0,0.0,-12.60507,-86.51663,4.18259,6.63,1.51,-0.31,2.0
1758075398.02504,1758075397.99501,0.0,0.0,0.0,-18.10547,-95.85584,-3.55234,6.63,1.51,-0.31,2.0
1758075398.02592,1758075398.00501,0.0,0.0,0.0,-20.3973,-115.96667,-6.70361,8.65,-0.33,5.83,2.0
1758075398.04105,1758075398.01501,0.0,0.0,0.0,-17.30333,-133.21269,2.57831,8.65,-0.33,5.83,2.0
1758075398.05778,1758075398.02501,0.0,0.0,0.0,-11.57375,-129.60306,16.84496,14.71,-2.32,8.25,2.0
1758075398.05893,1758075398.03501,0.0,0.0,0.0,-1.77617,-104.22102,39.07573,14.71,-2.32,8.25,2.0
1758075398.07407,1758075398.04501,0.0,0.0,0.0,14.49583,-75.80232,46.2377,19.57,0.26,4.37,2.0
1758075398.07497,1758075398.05501,0.0,0.0,0.0,31.56997,-87.26147,56.03527,11.4,1.73,-0.18,2.0
1758075398.09287,1758075398.06501,0.0,0.0,0.0,44.57612,-89.95438,56.26446,11.4,1.73,-0.18,2.0
1758075398.10882,1758075398.07501,0.0,0.0,0.0,54.3737,-51.10783,52.02457,11.01,0.17,-2.3,2.0
1758075398.10995,1758075398.08501,0.0,0.0,0.0,55.92068,-9.22462,43.77398,11.01,0.17,-2.3,2.0
1758075398.1252,1758075398.09501,0.0,0.0,0.0,51.27972,28.01764,32.77319,16.6,-1.07,-2.27,2.0
1758075398.126,1758075398.10501,0.0,0.0,0.0,44.00316,47.95657,22.23076,16.6,-1.07,-2.27,2.0
1758075398.14269,1758075398.11501,0.0,0.0,0.0,29.04896,56.26446,4.98473,14.44,-0.38,-0.43,2.0
1758075398.15893,1758075398.12501,0.0,0.0,0.0,18.27736,69.27061,-3.95341,14.22,1.43,-1.55,2.0
1758075398.16026,1758075398.13501,0.0,0.0,0.0,7.84952,84.56858,-10.48513,14.22,1.43,-1.55,2.0
1758075398.17494,1758075398.14501,0.0,0.0,0.0,-1.71887,98.03308,-14.78231,14.4,2.67,-1.71,2.0
1758075398.17689,1758075398.15501,0.0,0.0,0.0,-14.15206,104.50751,-20.16812,14.4,2.67,-1.71,2.0
1758075398.19424,1758075398.16501,0.0,0.0,0.0,-21.94428,101.8719,-23.37668,10.84,2.7,-0.98,2.0
1758075398.19611,1758075398.17501,0.0,0.0,0.0,-28.24682,116.42503,-28.07493,10.84,2.7,-0.98,2.0
1758075398.21215,1758075398.18501,0.0,0.0,0.0,-30.76784,136.07747,-28.87707,10.79,2.25,-1.13,2.0
1758075398.22894,1758075398.19501,0.0,0.0,0.0,-33.23156,144.67186,-30.59595,9.93,1.27,-0.18,2.0
1758075398.22987,1758075398.20501,0.0,0.0,0.0,-33.17426,140.37466,-29.39274,9.93,1.27,-0.18,2.0
1758075398.2452,1758075398.21501,0.0,0.0,0.0,-32.6013,134.6451,-25.26744,8.62,-0.02,-0.11,2.0
1758075398.24637,1758075398.22501,0.0,0.0,0.0,-30.93972,128.45715,-20.45459,8.62,-0.02,-0.11,2.0
1758075398.26125,1758075398.23501,0.0,0.0,0.0,-29.33544,116.53963,-9.05273,9.24,-1.11,-0.37,2.0
1758075398.27978,1758075398.24501,0.0,0.0,0.0,-30.53865,94.82452,-1.66158,9.24,-1.11,-0.37,2.0
1758075398.28117,1758075398.25501,0.0,0.0,0.0,-34.49206,59.64491,2.06265,6.95,-0.37,-0.98,2.0
1758075398.29621,1758075398.26501,0.0,0.0,0.0,-36.55471,20.05352,4.92744,6.95,-0.37,-0.98,2.0
1758075398.29742,1758075398.27501,0.0,0.0,0.0,-33.80451,18.22006,6.7609,5.1,0.8,-2.51,2.0
1758075398.31224,1758075398.28501,0.0,0.0,0.0,-31.16891,25.43933,9.91217,8.02,0.41,-0.21,2.0
1758075398.32931,1758075398.29501,0.0,0.0,0.0,-28.13223,36.55471,9.33921,8.02,0.41,-0.21,2.0
1758075398.32991,1758075398.30501,0.0,0.0,0.0,-24.4653,46.52417,6.35983,9.42,-0.2,0.9,2.0
1758075398.34523,1758075398.31501,0.0,0.0,0.0,-21.94428,50.2484,2.6929,9.42,-0.2,0.9,2.0
1758075398.34696,1758075398.32501,0.0,0.0,0.0,-18.79302,48.41494,0.22918,10.14,-0.53,0.29,2.0
1758075398.36421,1758075398.33501,0.0,0.0,0.0,-14.38124,39.4768,-1.48969,10.14,-0.53,0.29,2.0
1758075398.36544,1758075398.34501,0.0,0.0,0.0,-4.92744,22.05888,-2.97938,9.18,-0.24,0.53,2.0
1758075398.38259,1758075398.35501,0.0,0.0,0.0,2.6929,11.22997,-3.83882,9.29,-0.43,3.33,2.0
1758075398.39799,1758075398.36501,0.0,0.0,0.0,12.60507,4.69825,-3.83882,9.29,-0.43,3.33,2.0
1758075398.40351,1758075398.37501,0.0,0.0,0.0,23.37668,1.20321,-3.66693,9.82,-1.42,3.14,2.0
1758075398.41803,1758075398.38501,0.0,0.0,0.0,39.87786,-17.13144,-1.14592,9.82,-1.42,3.14,2.0
1758075398.41922,1758075398.39501,0.0,0.0,0.0,50.47758,-34.37747,0.0573,7.52,-2.54,0.89,2.0
1758075398.43403,1758075398.40501,0.0,0.0,0.0,60.50434,-39.13302,0.11459,7.52,-2.54,0.89,2.0
1758075398.43523,1758075398.41501,0.0,0.0,0.0,70.18733,-33.46074,-0.11459,8.92,-3.77,-1.3,2.0
1758075398.45108,1758075398.42501,0.0,0.0,0.0,83.59455,-22.57454,-0.40107,11.67,-4.11,-1.95,2.0
1758075398.46726,1758075398.43501,0.0,0.0,0.0,90.47005,-20.34,-1.03132,11.67,-4.11,-1.95,2.0
1758075398.46989,1758075398.44501,0.0,0.0,0.0,96.4861,-17.36062,-1.60428,12.47,-2.98,-1.45,2.0
1758075398.48536,1758075398.45501,0.0,0.0,0.0,101.35624,-7.33386,-2.23454,12.47,-2.98,-1.45,2.0
1758075398.48707,1758075398.46501,0.0,0.0,0.0,104.39291,34.09099,-0.74485,14.02,-0.36,-0.56,2.0
1758075398.50201,1758075398.47501,0.0,0.0,0.0,100.32492,71.73432,1.48969,14.02,-0.36,-0.56,2.0
1758075398.51831,1758075398.48501,0.0,0.0,0.0,93.56402,90.29816,-4.1253,13.79,2.37,-1.97,2.0
1758075398.52078,1758075398.49501,0.0,0.0,0.0,84.28209,4.87014,-5.27121,13.79,2.37,-1.97,2.0
1758075398.53633,1758075398.50501,0.0,0.0,0.0,76.31798,-14.9542,4.98473,-0.16,4.22,-1.74,2.0
1758075398.53749,1758075398.51501,0.0,0.0,0.0,65.43179,5.61499,14.49583,3.94,5.02,-4.36,2.0
1758075398.55234,1758075398.52501,0.0,0.0,0.0,51.50891,19.53786,23.94964,3.94,5.02,-4.36,2.0
1758075398.56886,1758075398.53501,0.0,0.0,0.0,15.46986,0.51566,33.34615,0.3,5.4,-2.07,2.0
1758075398.57036,1758075398.54501,0.0,0.0,0.0,-15.92823,-30.59595,27.84575,0.3,5.4,-2.07,2.0
1758075398.58531,1758075398.55501,0.0,0.0,0.0,-45.60744,-93.79319,12.71966,-7.13,5.01,8.4,2.0
1758075398.58882,1758075398.56501,0.0,0.0,0.0,-72.13539,-161.11574,-11.74564,-7.13,5.01,8.4,2.0
1758075398.6044,1758075398.57501,0.0,0.0,0.0,-99.98115,-104.45021,-41.13837,0.47,5.16,18.63,2.0
1758075398.6053,1758075398.58501,0.0,0.0,0.0,-99.1217,-37.12767,-68.12468,34.23,0.71,0.83,2.0
1758075398.62306,1758075398.59501,0.0,0.0,0.0,-91.44406,6.99009,-85.77179,34.23,0.71,0.83,2.0
1758075398.63813,1758075398.60501,0.0,0.0,0.0,-84.2248,33.00237,-95.28289,33.98,-2.11,-3.65,2.0
1758075398.63936,1758075398.61501,0.0,0.0,0.0,-71.73432,56.03527,-93.44942,33.98,-2.11,-3.65,2.0
1758075398.65417,1758075398.62501,0.0,0.0,0.0,-59.12925,78.7244,-82.39134,22.77,-2.68,-1.02,2.0
1758075398.65539,1758075398.63501,0.0,0.0,0.0,-46.52417,93.04835,-68.35387,22.77,-2.68,-1.02,2.0
1758075398.67119,1758075398.64501,0.0,0.0,0.0,-35.52338,92.99106,-52.82671,15.01,-2.86,-0.86,2.0
1758075398.68931,1758075398.65501,0.0,0.0,0.0,-22.05888,78.7817,-28.93437,8.35,-3.01,-0.55,2.0
1758075398.69019,1758075398.66501,0.0,0.0,0.0,-15.75634,92.81918,-16.95955,8.35,-3.01,-0.55,2.0
1758075398.70557,1758075398.67501,0.0,0.0,0.0,-10.25595,114.36237,-3.49504,8.62,-2.79,-0.32,2.0
1758075398.70986,1758075398.68501,0.0,0.0,0.0,-5.27121,126.96745,11.00079,8.62,-2.79,-0.32,2.0
1758075398.72555,1758075398.69501,0.0,0.0,0.0,-0.51566,107.315,17.6471,5.01,-2.43,1.63,2.0
1758075398.72991,1758075398.70501,0.0,0.0,0.0,4.64096,88.63658,22.57454,5.01,-2.43,1.63,2.0
1758075398.74555,1758075398.71501,0.0,0.0,0.0,10.94349,75.97421,26.47065,2.92,-2.86,0.27,2.0
1758075398.74676,1758075398.72501,0.0,0.0,0.0,22.57454,57.12389,30.13758,2.92,-2.86,0.27,2.0
1758075398.76157,1758075398.73501,0.0,0.0,0.0,31.11161,38.38818,30.59595,3.4,-3.53,-0.63,2.0
1758075398.77926,1758075398.74501,0.0,0.0,0.0,40.16434,18.79302,29.62192,2.78,-4.01,-0.52,2.0
1758075398.78069,1758075398.75501,0.0,0.0,0.0,48.9879,-2.23454,27.2155,2.78,-4.01,-0.52,2.0
1758075398.79521,1758075398.76501,0.0,0.0,0.0,59.98868,-35.12231,19.88164,2.98,-3.75,-1.23,2.0
1758075398.79993,1758075398.77501,0.0,0.0,0.0,65.54638,-44.57612,13.40721,2.98,-3.75,-1.23,2.0
1758075398.8153,1758075398.78501,0.0,0.0,0.0,71.56243,-50.2484,10.08406,5.08,-2.81,-1.08,2.0
1758075398.81648,1758075398.79501,0.0,0.0,0.0,74.54182,-64.40046,5.50039,5.08,-2.81,-1.08,2.0
1758075398.83233,1758075398.80501,0.0,0.0,0.0,76.26069,-88.92306,5.4431,5.94,-1.85,-0.52,2.0
1758075398.84938,1758075398.81501,0.0,0.0,0.0,72.99483,-102.78864,5.72958,7.68,-0.95,-0.85,2.0
1758075398.85071,1758075398.82501,0.0,0.0,0.0,66.29122,-112.98728,6.7609,7.68,-0.95,-0.85,2.0
1758075398.86562,1758075398.83501,0.0,0.0,0.0,57.63955,-123.87349,8.0787,9.01,0.19,-1.02,2.0
1758075398.86675,1758075398.84501,0.0,0.0,0.0,41.36755,-135.61913,9.39651,9.01,0.19,-1.02,2.0
1758075398.88135,1758075398.85501,0.0,0.0,0.0,30.02299,-133.90025,8.88085,9.05,1.15,-1.25,2.0
1758075398.89832,1758075398.86501,0.0,0.0,0.0,18.22006,-139.05687,10.59972,9.05,1.15,-1.25,2.0
1758075398.89955,1758075398.87501,0.0,0.0,0.0,4.52637,-186.3259,20.74107,8.22,1.9,3.48,2.0
1758075398.91429,1758075398.88501,0.0,0.0,0.0,-18.85031,-240.12662,38.38818,12.43,6.74,10.28,2.0
1758075398.91555,1758075398.89501,0.0,0.0,0.0,-32.08564,-227.75072,57.75415,12.43,6.74,10.28,2.0
1758075398.93409,1758075398.90501,0.0,0.0,0.0,-39.82057,-196.06616,71.10406,25.5,9.54,1.72,2.0
1758075398.94959,1758075398.91501,0.0,0.0,0.0,-42.28429,-148.28148,77.4639,25.5,9.54,1.72,2.0
1758075398.95103,1758075398.92501,0.0,0.0,0.0,-39.24761,-106.28368,73.51049,20.63,2.28,3.3,2.0
1758075398.96564,1758075398.93501,0.0,0.0,0.0,-32.14294,-63.42643,65.54638,20.63,2.28,3.3,2.0
1758075398.96736,1758075398.94501,0.0,0.0,0.0,-20.22541,-26.52795,55.51962,19.58,-2.64,1.88,2.0
1758075398.98259,1758075398.95501,0.0,0.0,0.0,-0.34377,33.9764,36.38282,19.56,-2.64,1.96,2.0
1758075398.99973,1758075398.96501,0.0,0.0,0.0,8.76626,71.04677,22.28806,19.56,-3.79,1.96,2.0
1758075399.00011,1758075398.97501,0.0,0.0,0.0,17.81899,89.6106,7.67763,17.3,-2.55,2.01,2.0
1758075399.01969,1758075398.98501,0.0,0.0,0.0,23.66316,62.05133,0.45837,17.3,-2.55,2.01,2.0
1758075399.02011,1758075398.99501,0.0,0.0,0.0,37.29956,32.6013,-4.46907,11.73,-0.95,2.8,2.0
1758075399.03927,1758075399.00501,0.0,0.0,0.0,36.38282,33.17426,-8.47978,11.73,-0.95,2.8,2.0
1758075399.04021,1758075399.01501,0.0,0.0,0.0,39.13302,77.12012,-5.32851,15.01,0.6,0.98,2.0
1758075399.05728,1758075399.02501,0.0,0.0,0.0,37.52874,115.68018,-7.62034,15.01,0.6,0.98,2.0
1758075399.06247,1758075399.03501,0.0,0.0,0.0,32.48671,125.07669,-4.64096,14.48,1.71,1.16,2.0
1758075399.07902,1758075399.04501,0.0,0.0,0.0,26.24147,119.06063,-4.1253,6.8,2.02,1.57,2.0
1758075399.08027,1758075399.05501,0.0,0.0,0.0,18.90761,116.71152,-4.52637,6.8,2.02,1.57,2.0
1758075399.09573,1758075399.06501,0.0,0.0,0.0,10.94349,116.9407,-6.41713,6.17,2.47,0.0,2.0
1758075399.10059,1758075399.07501,0.0,0.0,0.0,-0.97403,114.87804,-10.31324,6.17,2.47,0.0,2.0
1758075399.11746,1758075399.08501,0.0,0.0,0.0,-8.30789,113.73213,-13.34992,5.77,2.77,0.45,2.0
1758075399.12022,1758075399.09501,0.0,0.0,0.0,-14.9542,111.66948,-16.55848,5.77,2.77,0.45,2.0
1758075399.13578,1758075399.10501,0.0,0.0,0.0,-23.83505,106.34097,-20.05352,5.65,2.54,0.33,2.0
1758075399.13744,1758075399.11501,0.0,0.0,0.0,-30.48136,101.29894,-22.00158,5.72,2.32,0.23,2.0
1758075399.15401,1758075399.12501,0.0,0.0,0.0,-37.52874,96.77258,-23.60586,5.72,2.32,0.23,2.0
1758075399.15591,1758075399.13501,0.0,0.0,0.0,-44.51882,92.76187,-24.57989,6.36,2.18,-0.48,2.0
1758075399.17256,1758075399.14501,0.0,0.0,0.0,-55.23313,79.01089,-24.12152,6.36,2.18,-0.48,2.0
1758075399.18972,1758075399.15501,0.0,0.0,0.0,-61.93674,59.75951,-22.63183,5.8,1.89,-0.87,2.0
1758075399.19011,1758075399.16501,0.0,0.0,0.0,-67.60902,34.14828,-20.11082,5.8,1.89,-0.87,2.0
1758075399.20579,1758075399.17501,0.0,0.0,0.0,-72.47916,5.50039,-16.3293,3.92,1.6,-2.31,2.0
1758075399.20676,1758075399.18501,0.0,0.0,0.0,-79.06818,-37.35685,-8.59437,3.3,1.2,-3.02,2.0
1758075399.22335,1758075399.19501,0.0,0.0,0.0,-82.90699,-58.15522,-3.49504,3.3,1.2,-3.02,2.0
1758075399.22472,1758075399.20501,0.0,0.0,0.0,-84.2248,-58.09792,-3.38045,5.73,0.89,-2.33,2.0
1758075399.24007,1758075399.21501,0.0,0.0,0.0,-87.26147,-60.79083,-0.85944,5.73,0.89,-2.33,2.0
1758075399.25581,1758075399.22501,0.0,0.0,0.0,-91.1003,-64.62964,0.45837,8.26,-0.06,-0.63,2.0
1758075399.25783,1758075399.23501,0.0,0.0,0.0,-89.26682,-85.71449,2.29183,8.26,-0.06,-0.63,2.0
1758075399.2748,1758075399.24501,0.0,0.0,0.0,-82.96429,-125.30587,1.43239,7.39,-0.85,3.87,2.0
1758075399.27601,1758075399.25501,0.0,0.0,0.0,-74.08345,-162.14706,-7.96411,7.39,-0.85,3.87,2.0
1758075399.29084,1758075399.26501,0.0,0.0,0.0,-56.14987,-158.70932,-32.14294,12.69,-3.38,8.19,2.0
1758075399.30919,1758075399.27501,0.0,0.0,0.0,-39.82057,-97.40282,-44.11775,25.5,-6.12,3.54,2.0
1758075399.31014,1758075399.28501,0.0,0.0,0.0,-29.22085,-41.31026,-54.3737,25.5,-6.12,3.54,2.0
1758075399.32668,1758075399.29501,0.0,0.0,0.0,-10.65701,-43.83128,-66.06203,16.82,-3.24,5.19,2.0
1758075399.32913,1758075399.30501,0.0,0.0,0.0,-2.00535,-110.52357,-66.46311,16.82,-3.24,5.19,2.0
1758075399.34484,1758075399.31501,0.0,0.0,0.0,2.11994,-117.34176,-59.47303,6.42,-1.72,3.99,2.0
1758075399.34579,1758075399.32501,0.0,0.0,0.0,3.72423,-91.043,-54.3164,6.42,-1.72,3.99,2.0
1758075399.36215,1758075399.33501,0.0,0.0,0.0,-2.40642,-59.35843,-39.4768,17.2,-1.24,4.05,2.0
1758075399.37782,1758075399.34501,0.0,0.0,0.0,-9.28192,-24.4653,-32.08564,19.1,-0.01,2.63,2.0
1758075399.37909,1758075399.35501,0.0,0.0,0.0,-12.71966,3.49504,-17.01685,19.1,-0.01,2.63,2.0
1758075399.39387,1758075399.36501,0.0,0.0,0.0,-19.53786,-14.20935,-8.70896,11.79,0.81,0.33,2.0
1758075399.39506,1758075399.37501,0.0,0.0,0.0,-27.73116,-36.03905,0.80214,11.79,0.81,0.33,2.0
1758075399.41019,1758075399.38501,0.0,0.0,0.0,-28.13223,-37.58603,6.41713,8.06,0.67,1.23,2.0
1758075399.42678,1758075399.39501,0.0,0.0,0.0,-26.81443,-18.10547,12.89155,8.06,0.67,1.23,2.0
1758075399.42971,1758075399.40501,0.0,0.0,0.0,-25.8404,19.48057,16.90226,11.95,-0.19,-0.21,2.0
1758075399.44469,1758075399.41501,0.0,0.0,0.0,-26.81443,62.28051,18.79302,11.23,-1.05,-0.42,2.0
1758075399.44704,1758075399.42501,0.0,0.0,0.0,-24.92367,76.48987,18.56383,11.23,-1.05,-0.42,2.0
1758075399.46281,1758075399.43501,0.0,0.0,0.0,-22.91831,85.37071,18.44924,7.27,-1.37,-0.08,2.0
1758075399.46405,1758075399.44501,0.0,0.0,0.0,-19.70975,93.04835,18.85031,7.27,-1.37,-0.08,2.0
1758075399.48032,1758075399.45501,0.0,0.0,0.0,-13.5218,98.09039,20.05352,6.3,-1.81,-0.39,2.0
1758075399.49683,1758075399.46501,0.0,0.0,0.0,-8.93814,98.83522,19.59516,6.3,-1.81,-0.39,2.0
1758075399.50093,1758075399.47501,0.0,0.0,0.0,-4.35448,98.54874,18.44924,6.29,-2.05,0.15,2.0
1758075399.51667,1758075399.48501,0.0,0.0,0.0,0.45837,97.86119,16.95955,6.29,-2.05,0.15,2.0
1758075399.51772,1758075399.49501,0.0,0.0,0.0,7.44845,93.96508,13.86558,6.72,-2.07,0.02,2.0
1758075399.5331,1758075399.50501,0.0,0.0,0.0,11.86023,87.71984,11.45916,6.39,-1.93,-0.26,2.0
1758075399.53466,1758075399.51501,0.0,0.0,0.0,15.98552,78.43793,8.59437,6.39,-1.93,-0.26,2.0
1758075399.55243,1758075399.52501,0.0,0.0,0.0,21.88699,57.52497,3.95341,5.3,-1.62,-0.43,2.0
1758075399.55431,1758075399.53501,0.0,0.0,0.0,25.43933,39.76327,0.85944,5.3,-1.62,-0.43,2.0
1758075399.57507,1758075399.54501,0.0,0.0,0.0,28.64789,18.50654,-2.23454,4.36,-1.26,-0.75,2.0
1758075399.57992,1758075399.55501,0.0,0.0,0.0,30.82513,-4.1253,-4.87014,4.36,-1.26,-0.75,2.0
1758075399.59506,1758075399.56501,0.0,0.0,0.0,31.79916,-35.3515,-8.47978,4.28,-0.69,-1.11,2.0
1758075399.59595,1758075399.57501,0.0,0.0,0.0,31.62727,-53.28508,-9.5684,5.5,0.19,-1.54,2.0
1758075399.6108,1758075399.58501,0.0,0.0,0.0,30.53865,-68.98412,-10.02676,5.5,0.19,-1.54,2.0
1758075399.6268,1758075399.59501,0.0,0.0,0.0,29.50733,-79.35466,-9.85487,7.25,1.02,-1.58,2.0
1758075399.62957,1758075399.60501,0.0,0.0,0.0,28.99167,-83.25077,-10.31324,7.25,1.02,-1.58,2.0
1758075399.64498,1758075399.61501,0.0,0.0,0.0,28.59059,-83.25077,-12.37589,8.77,1.17,-1.69,2.0
1758075399.64614,1758075399.62501,0.0,0.0,0.0,26.47065,-97.05905,-13.34992,8.77,1.17,-1.69,2.0
1758075399.661,1758075399.63501,0.0,0.0,0.0,22.86102,-131.03546,-12.83425,7.18,0.05,4.05,2.0
1758075399.67711,1758075399.64501,0.0,0.0,0.0,15.29797,-163.0638,8.42248,14.09,1.29,10.88,2.0
1758075399.678,1758075399.65501,0.0,0.0,0.0,9.85487,-158.30826,30.53865,14.09,1.29,10.88,2.0
1758075399.69362,1758075399.66501,0.0,0.0,0.0,6.47442,-138.82768,49.84733,24.32,4.58,5.43,2.0
1758075399.69479,1758075399.67501,0.0,0.0,0.0,5.78687,-120.95139,62.22322,24.32,4.58,5.43,2.0
1758075399.70992,1758075399.68501,0.0,0.0,0.0,6.8182,-94.82452,67.09336,17.66,1.01,2.56,2.0
1758075399.72593,1758075399.69501,0.0,0.0,0.0,8.30789,-71.04677,63.42643,17.66,1.01,2.56,2.0
1758075399.72744,1758075399.70501,0.0,0.0,0.0,10.02676,-45.77933,56.37905,14.93,-1.72,1.17,2.0
1758075399.74197,1758075399.71501,0.0,0.0,0.0,11.45916,-19.53786,40.16434,14.93,-1.72,1.17,2.0
1758075399.75792,1758075399.72501,0.0,0.0,0.0,10.25595,20.79837,27.44468,15.54,-2.14,2.0,2.0
1758075399.75909,1758075399.73501,0.0,0.0,0.0,6.35983,45.03448,15.0115,15.55,-0.87,1.62,2.0
1758075399.77398,1758075399.74501,0.0,0.0,0.0,0.68755,64.85883,2.7502,15.55,-0.87,1.62,2.0
1758075399.77536,1758075399.75501,0.0,0.0,0.0,-5.84417,58.55629,-12.14671,13.54,1.43,1.86,2.0
1758075399.78991,1758075399.76501,0.0,0.0,0.0,-9.05273,19.53786,-14.03747,13.54,1.43,1.86,2.0
1758075399.80877,1758075399.77501,0.0,0.0,0.0,-16.38659,3.60963,-22.05888,7.76,2.98,1.39,2.0
1758075399.80963,1758075399.78501,0.0,0.0,0.0,-18.22006,28.87707,-19.48057,7.76,2.98,1.39,2.0
1758075399.82521,1758075399.79501,0.0,0.0,0.0,-20.16812,66.17663,-22.40265,12.81,2.67,-0.06,2.0
1758075399.82607,1758075399.80501,0.0,0.0,0.0,-23.26209,68.06739,-23.83505,8.78,1.88,1.86,2.0
1758075399.84114,1758075399.81501,0.0,0.0,0.0,-27.96034,63.8275,-25.15285,8.78,1.88,1.86,2.0
1758075399.85894,1758075399.82501,0.0,0.0,0.0,-33.00237,62.5097,-26.18417,6.14,1.51,0.95,2.0
1758075399.86028,1758075399.83501,0.0,0.0,0.0,-40.45082,65.48907,-28.24682,6.14,1.51,0.95,2.0
1758075399.87518,1758075399.84501,0.0,0.0,0.0,-45.20637,66.92148,-28.36141,6.54,1.5,0.62,2.0
1758075399.87608,1758075399.85501,0.0,0.0,0.0,-49.67545,65.83286,-27.2155,6.54,1.5,0.62,2.0
1758075399.89116,1758075399.86501,0.0,0.0,0.0,-53.39967,63.42643,-24.5226,6.75,1.41,0.81,2.0
1758075399.90688,1758075399.87501,0.0,0.0,0.0,-57.75415,60.90542,-18.22006,7.22,1.0,0.17,2.0
1758075399.9092,1758075399.88501,0.0,0.0,0.0,-59.98868,61.1346,-13.46451,7.22,1.0,0.17,2.0
1758075399.92396,1758075399.89501,0.0,0.0,0.0,-61.87944,61.99404,-8.76626,7.78,0.67,-0.16,2.0
1758075399.92513,1758075399.90501,0.0,0.0,0.0,-63.59832,61.99404,-4.46907,7.78,0.67,-0.16,2.0
1758075399.9402,1758075399.91501,0.0,0.0,0.0,-66.29122,56.03527,1.08862,7.55,0.63,-0.28,2.0
1758075399.9562,1758075399.92501,0.0,0.0,0.0,-67.37984,48.24305,4.23989,7.55,0.63,-0.28,2.0
1758075399.95714,1758075399.93501,0.0,0.0,0.0,-68.01009,35.3515,7.04738,6.72,0.73,-0.63,2.0
1758075399.97235,1758075399.94501,0.0,0.0,0.0,-68.23928,5.50039,10.48513,6.72,0.73,-0.63,2.0
1758075399.98901,1758075399.95501,0.0,0.0,0.0,-66.92148,-20.79837,10.54242,5.57,0.69,-1.39,2.0
1758075399.99,1758075399.96501,0.0,0.0,0.0,-65.37449,-47.61279,9.33921,5.17,0.54,-2.03,2.0
1758075400.005,1758075399.97501,0.0,0.0,0.0,-61.59297,-68.98412,5.84417,5.17,0.54,-2.03,2.0
1758075400.00707,1758075399.98501,0.0,0.0,0.0,-56.55093,-57.29578,-1.83346,8.72,0.42,-1.63,2.0
1758075400.02197,1758075399.99501,0.0,0.0,0.0,-52.25375,-40.45082,-5.61499,8.72,0.42,-1.63,2.0
1758075400.03801,1758075400.00501,0.0,0.0,0.0,-47.95657,-29.56462,-10.59972,13.48,-0.15,0.62,2.0
1758075400.03925,1758075400.01501,0.0,0.0,0.0,-42.85724,-46.00851,-14.61043,13.48,-0.15,0.62,2.0
1758075400.05406,1758075400.02501,0.0,0.0,0.0,-32.71589,-82.96429,-22.11617,11.79,-0.82,2.98,2.0
1758075400.05644,1758075400.03501,0.0,0.0,0.0,-23.37668,-91.90244,-27.96034,15.09,-3.05,2.47,2.0
1758075400.07214,1758075400.04501,0.0,0.0,0.0,-14.61043,-94.02238,-31.16891,15.09,-3.05,2.47,2.0
1758075400.08919,1758075400.05501,0.0,0.0,0.0,-10.37054,-90.41274,-34.32018,16.64,-4.45,1.14,2.0
1758075400.09009,1758075400.06501,0.0,0.0,0.0,-8.02141,-60.16057,-33.86181,16.64,-4.45,1.14,2.0
1758075400.10538,1758075400.07501,0.0,0.0,0.0,-8.88085,-24.35071,-32.77319,15.71,-1.91,3.04,2.0
1758075400.10976,1758075400.08501,0.0,0.0,0.0,-9.5684,-18.44924,-34.0337,15.71,-1.91,3.04,2.0
1758075400.12542,1758075400.09501,0.0,0.0,0.0,-10.25595,-57.0093,-28.36141,9.22,-0.26,4.33,2.0
1758075400.12867,1758075400.10501,0.0,0.0,0.0,-12.83425,-82.67782,-21.02755,5.78,0.39,3.25,2.0
1758075400.14442,1758075400.11501,0.0,0.0,0.0,-16.84496,-64.40046,-17.01685,5.78,0.39,3.25,2.0
1758075400.14533,1758075400.12501,0.0,0.0,0.0,-21.31403,-43.20102,-15.69904,11.94,0.33,1.15,2.0
1758075400.16041,1758075400.13501,0.0,0.0,0.0,-26.47065,-26.35606,-12.89155,11.94,0.33,1.15,2.0
1758075400.17843,1758075400.14501,0.0,0.0,0.0,-25.8404,6.47442,-6.41713,13.62,-0.23,1.59,2.0
1758075400.17936,1758075400.15501,0.0,0.0,0.0,-26.64254,-9.5684,-4.35448,13.62,-0.23,1.59,2.0
1758075400.19496,1758075400.16501,0.0,0.0,0.0,-26.41335,-26.87172,-1.60428,10.08,-1.0,0.75,2.0
1758075400.19651,1758075400.17501,0.0,0.0,0.0,-21.42862,-38.50277,2.23454,10.08,-1.0,0.75,2.0
1758075400.21318,1758075400.18501,0.0,0.0,0.0,-16.61578,-24.75178,6.99009,9.7,-1.82,0.17,2.0
1758075400.21475,1758075400.19501,0.0,0.0,0.0,-12.60507,11.00079,9.74028,12.71,-2.2,-0.02,2.0
1758075400.23023,1758075400.20501,0.0,0.0,0.0,-9.62569,47.78468,11.97482,12.71,-2.2,-0.02,2.0
1758075400.247,1758075400.21501,0.0,0.0,0.0,-4.98473,62.79618,13.40721,10.15,-1.98,0.44,2.0
1758075400.24924,1758075400.22501,0.0,0.0,0.0,-1.60428,65.03072,14.09476,10.15,-1.98,0.44,2.0
1758075400.26444,1758075400.23501,0.0,0.0,0.0,2.92208,69.27061,15.58445,6.24,-1.85,0.5,2.0
1758075400.26542,1758075400.24501,0.0,0.0,0.0,8.0787,74.771,17.36062,6.24,-1.85,0.5,2.0
1758075400.28255,1758075400.25501,0.0,0.0,0.0,15.35527,78.7817,19.25138,7.15,-2.06,0.08,2.0
1758075400.29849,1758075400.26501,0.0,0.0,0.0,19.25138,78.38063,18.9649,7.83,-2.05,0.37,2.0
1758075400.29939,1758075400.27501,0.0,0.0,0.0,22.68913,77.23472,17.93358,7.83,-2.05,0.37,2.0
1758075400.31424,1758075400.28501,0.0,0.0,0.0,25.49662,76.48987,16.55848,8.64,-1.79,-0.03,2.0
1758075400.31581,1758075400.29501,0.0,0.0,0.0,28.13223,73.62508,13.23533,8.64,-1.79,-0.03,2.0
1758075400.33158,1758075400.30501,0.0,0.0,0.0,29.39274,69.21331,10.59972,9.02,-1.46,-0.17,2.0
1758075400.34886,1758075400.31501,0.0,0.0,0.0,30.53865,64.51505,8.25059,9.02,-1.46,-0.17,2.0
1758075400.35005,1758075400.32501,0.0,0.0,0.0,31.39809,59.75951,5.90147,9.04,-1.2,-0.13,2.0
1758075400.36533,1758075400.33501,0.0,0.0,0.0,32.88778,50.363,3.32316,8.84,-1.0,-0.47,2.0
1758075400.36648,1758075400.34501,0.0,0.0,0.0,33.9764,43.60209,1.94806,8.84,-1.0,-0.47,2.0
1758075400.38233,1758075400.35501,0.0,0.0,0.0,35.12231,38.1017,0.22918,8.59,-0.7,-0.78,2.0
1758075400.39832,1758075400.36501,0.0,0.0,0.0,36.89849,29.10626,-2.97938,8.59,-0.7,-0.78,2.0
1758075400.39946,1758075400.37501,0.0,0.0,0.0,38.50277,18.16276,-4.81285,8.12,-0.22,-1.24,2.0
1758075400.41431,1758075400.38501,0.0,0.0,0.0,39.19032,1.43239,-6.47442,8.12,-0.22,-1.24,2.0
1758075400.41551,1758075400.39501,0.0,0.0,0.0,38.90384,-18.73572,-8.25059,7.15,0.18,-1.68,2.0
1758075400.4303,1758075400.40501,0.0,0.0,0.0,37.52874,-45.60744,-9.05273,7.15,0.18,-1.97,2.0
1758075400.44737,1758075400.41501,0.0,0.0,0.0,36.38282,-48.9306,-7.79223,7.6,0.14,-1.97,2.0
1758075400.44933,1758075400.42501,0.0,0.0,0.0,35.98175,-50.64947,-4.58366,10.43,-0.14,-0.84,2.0
1758075400.46462,1758075400.43501,0.0,0.0,0.0,35.2942,-54.88936,-2.63561,10.43,-0.14,-0.84,2.0
1758075400.46557,1758075400.44501,0.0,0.0,0.0,34.89313,-62.39511,-1.3178,10.49,-0.25,-1.02,2.0
1758075400.48061,1758075400.45501,0.0,0.0,0.0,35.2942,-71.27596,-3.49504,10.49,-0.25,-1.02,2.0
1758075400.49981,1758075400.46501,0.0,0.0,0.0,35.75257,-81.24542,-7.62034,8.91,-0.5,-1.24,2.0
1758075400.50104,1758075400.47501,0.0,0.0,0.0,35.3515,-82.90699,-11.51645,8.91,-0.5,-1.24,2.0
1758075400.51722,1758075400.48501,0.0,0.0,0.0,31.97105,-82.56322,-9.96947,10.53,-1.14,1.85,2.0
1758075400.51837,1758075400.49501,0.0,0.0,0.0,27.50197,-98.94981,-0.97403,14.62,0.17,7.37,2.0
1758075400.53494,1758075400.50501,0.0,0.0,0.0,21.31403,-117.51365,11.74564,14.62,0.17,7.37,2.0
1758075400.53727,1758075400.51501,0.0,0.0,0.0,16.67307,-121.81084,26.81443,17.59,4.0,4.71,2.0
1758075400.55419,1758075400.52501,0.0,0.0,0.0,15.12609,-110.46626,41.88322,17.59,4.0,4.71,2.0
1758075400.55545,1758075400.53501,0.0,0.0,0.0,17.81899,-99.75195,46.69606,14.32,3.62,2.49,2.0
1758075400.57039,1758075400.54501,0.0,0.0,0.0,21.94428,-80.44328,47.44091,14.32,3.62,2.49,2.0
1758075400.58719,1758075400.55501,0.0,0.0,0.0,28.07493,-53.62885,42.85724,10.94,0.48,1.83,2.0
1758075400.5892,1758075400.56501,0.0,0.0,0.0,30.93972,-12.71966,34.26288,11.35,-1.42,1.27,2.0
1758075400.60441,1758075400.57501,0.0,0.0,0.0,31.79916,9.62569,23.66316,11.35,-1.42,1.27,2.0
1758075400.60569,1758075400.58501,0.0,0.0,0.0,30.59595,30.88243,13.12073,11.69,-1.97,0.93,2.0
1758075400.62072,1758075400.59501,0.0,0.0,0.0,27.38738,53.68615,-2.57831,11.69,-1.97,0.93,2.0
1758075400.63647,1758075400.60501,0.0,0.0,0.0,25.43933,42.51347,-10.54242,11.57,-1.44,0.73,2.0
1758075400.63847,1758075400.61501,0.0,0.0,0.0,24.35071,14.49583,-13.5218,11.57,-1.44,0.73,2.0
1758075400.65446,1758075400.62501,0.0,0.0,0.0,20.68378,-9.22462,-17.6471,8.27,0.19,0.93,2.0
1758075400.65578,1758075400.63501,0.0,0.0,0.0,18.16276,32.54401,-15.41257,13.88,0.19,-0.45,2.0
1758075400.6705,1758075400.64501,0.0,0.0,0.0,16.73037,57.23849,-15.98552,13.88,1.74,-0.45,2.0
1758075400.68643,1758075400.65501,0.0,0.0,0.0,13.80828,60.33246,-14.78231,10.87,2.47,1.42,2.0
1758075400.68878,1758075400.66501,0.0,0.0,0.0,8.59437,56.952,-13.75099,10.87,2.47,1.42,2.0
1758075400.7038,1758075400.67501,0.0,0.0,0.0,0.11459,57.75415,-12.2613,7.34,2.47,1.09,2.0
1758075400.70494,1758075400.68501,0.0,0.0,0.0,-5.21392,59.41573,-11.63104,7.34,2.47,1.09,2.0
1758075400.72078,1758075400.69501,0.0,0.0,0.0,-10.25595,59.12925,-10.54242,6.86,2.35,0.71,2.0
1758075400.73666,1758075400.70501,0.0,0.0,0.0,-15.06879,57.92604,-9.05273,6.86,2.35,0.71,2.0
1758075400.73851,1758075400.71501,0.0,0.0,0.0,-21.08485,54.60288,-6.35983,6.45,1.96,1.15,2.0
1758075400.7536,1758075400.72501,0.0,0.0,0.0,-24.12152,51.90998,-4.23989,6.98,1.33,0.78,2.0
1758075400.75464,1758075400.73501,0.0,0.0,0.0,-26.18417,50.3057,-2.00535,6.98,1.33,0.78,2.0
1758075400.77079,1758075400.74501,0.0,0.0,0.0,-27.84575,49.04519,0.51566,8.22,0.82,0.65,2.0
1758075400.78682,1758075400.75501,0.0,0.0,0.0,-28.87707,47.03984,1.3751,8.22,0.82,0.65,2.0
1758075400.78964,1758075400.76501,0.0,0.0,0.0,-28.41871,45.55015,1.71887,9.39,0.5,0.6,2.0
1758075400.80475,1758075400.77501,0.0,0.0,0.0,-27.1582,43.83128,1.71887,9.39,0.5,0.6,2.0
1758075400.80578,1758075400.78501,0.0,0.0,0.0,-24.23611,39.70598,1.48969,10.21,0.42,0.17,2.0
1758075400.82077,1758075400.79501,0.0,0.0,0.0,-22.28806,35.52338,1.77617,10.3,0.41,-0.39,2.0
1758075400.83705,1758075400.80501,0.0,0.0,0.0,-20.05352,29.33544,2.23454,10.3,0.41,-0.39,2.0
1758075400.83777,1758075400.81501,0.0,0.0,0.0,-17.81899,22.74642,3.20856,9.87,0.26,-0.98,2.0
1758075400.85415,1758075400.82501,0.0,0.0,0.0,-15.12609,6.99009,5.15662,9.87,0.26,-0.98,2.0
1758075400.85723,1758075400.83501,0.0,0.0,0.0,-14.15206,-6.13065,5.95876,9.27,0.22,-1.07,2.0
1758075400.87453,1758075400.84501,0.0,0.0,0.0,-13.80828,-19.07949,6.7609,9.27,0.22,-1.07,2.0
1758075400.876,1758075400.85501,0.0,0.0,0.0,-13.86558,-30.88243,7.39116,9.23,0.59,-0.93,2.0
1758075400.89088,1758075400.86501,0.0,0.0,0.0,-15.06879,-44.63341,7.79223,9.78,1.19,-0.56,2.0
1758075400.90656,1758075400.87501,0.0,0.0,0.0,-17.47521,-47.72739,9.28192,9.78,1.19,-0.56,2.0
1758075400.91014,1758075400.88501,0.0,0.0,0.0,-21.14215,-44.63341,10.48513,10.9,1.55,-0.54,2.0
1758075400.92584,1758075400.89501,0.0,0.0,0.0,-25.21014,-37.29956,12.83425,10.9,1.55,-0.54,2.0
1758075400.92872,1758075400.90501,0.0,0.0,0.0,-32.42941,-32.54401,16.61578,10.86,1.35,-0.1,2.0
1758075400.94387,1758075400.91501,0.0,0.0,0.0,-37.01308,-34.14828,19.07949,10.86,1.35,-0.1,2.0
1758075400.94506,1758075400.92501,0.0,0.0,0.0,-40.27893,-40.27893,20.3973,10.21,0.83,2.02,2.0
1758075400.96093,1758075400.93501,0.0,0.0,0.0,-41.02378,-50.01921,19.36597,10.21,0.83,2.02,2.0
1758075400.97695,1758075400.94501,0.0,0.0,0.0,-40.62271,-52.82671,10.31324,12.23,-0.23,4.02,2.0
1758075400.97899,1758075400.95501,0.0,0.0,0.0,-38.61736,-46.35228,2.23454,16.29,-0.8,3.95,2.0
1758075400.9938,1758075400.96501,0.0,0.0,0.0,-37.12767,-35.40879,-6.24524,16.29,-0.8,3.95,2.0
1758075400.99483,1758075400.97501,0.0,0.0,0.0,-33.40344,-39.64868,-16.95955,13.08,-0.33,4.05,2.0
1758075401.01073,1758075400.98501,0.0,0.0,0.0,6.53172,-72.99483,-20.68378,13.08,-0.33,4.05,2.0
1758075401.02687,1758075400.99501,0.0,0.0,0.0,6.99009,-102.90323,-23.26209,3.81,-0.5,3.52,2.0
1758075401.02946,1758075401.00501,0.0,0.0,0.0,-13.12073,-93.39213,-27.78845,3.81,-0.5,3.52,2.0
1758075401.04498,1758075401.01501,0.0,0.0,0.0,-37.52874,-47.03984,-26.24147,10.93,-1.13,1.7,2.0
1758075401.04586,1758075401.02501,0.0,0.0,0.0,-39.19032,-20.85567,-23.49127,12.63,-1.96,1.82,2.0
1758075401.06071,1758075401.03501,0.0,0.0,0.0,-38.90384,1.71887,-16.10011,12.63,-1.96,1.82,2.0
1758075401.07796,1758075401.04501,0.0,0.0,0.0,-37.87251,-8.47978,-8.02141,9.72,-2.01,0.1,2.0
1758075401.07889,1758075401.05501,0.0,0.0,0.0,-38.56006,-15.06879,2.34913,9.72,-2.01,0.1,2.0
1758075401.0939,1758075401.06501,0.0,0.0,0.0,-37.81522,-14.72501,7.73493,9.74,-1.44,0.28,2.0
1758075401.09486,1758075401.07501,0.0,0.0,0.0,-34.0337,-9.85487,11.97482,9.74,-1.44,0.28,2.0
1758075401.11095,1758075401.08501,0.0,0.0,0.0,-29.50733,4.81285,15.75634,10.5,-1.29,-0.95,2.0
1758075401.12775,1758075401.09501,0.0,0.0,0.0,-21.88699,34.43476,18.79302,10.49,-1.69,-1.01,2.0
1758075401.13027,1758075401.10501,0.0,0.0,0.0,-16.38659,58.21251,17.76169,10.49,-1.69,-1.01,2.0
1758075401.14652,1758075401.11501,0.0,0.0,0.0,-10.25595,80.38599,13.5218,9.35,-1.76,-0.69,2.0
1758075401.14933,1758075401.12501,0.0,0.0,0.0,-6.18794,90.29816,10.08406,9.35,-1.76,-0.69,2.0
1758075401.16475,1758075401.13501,0.0,0.0,0.0,0.74485,88.98035,2.23454,7.21,-1.87,0.18,2.0
1758075401.16594,1758075401.14501,0.0,0.0,0.0,5.55769,82.27674,-3.32316,7.21,-1.87,0.18,2.0
1758075401.18077,1758075401.15501,0.0,0.0,0.0,10.48513,77.92226,-7.21927,7.34,-2.01,0.25,2.0
1758075401.19888,1758075401.16501,0.0,0.0,0.0,15.0115,75.68773,-11.00079,7.34,-2.01,0.25,2.0
1758075401.2005,1758075401.17501,0.0,0.0,0.0,21.14215,71.84892,-11.57375,9.6,-2.11,0.16,2.0
1758075401.21659,1758075401.18501,0.0,0.0,0.0,24.23611,67.03606,-10.8862,10.33,-1.9,0.51,2.0
1758075401.22282,1758075401.19501,0.0,0.0,0.0,26.81443,61.24919,-9.22462,10.33,-1.9,0.51,2.0
1758075401.23805,1758075401.20501,0.0,0.0,0.0,29.62192,50.99325,-5.15662,9.92,-1.34,0.57,2.0
1758075401.23924,1758075401.21501,0.0,0.0,0.0,30.82513,44.23235,-1.83346,9.92,-1.34,0.57,2.0
1758075401.25378,1758075401.22501,0.0,0.0,0.0,31.28349,37.35685,1.66158,9.48,-0.65,0.77,2.0
1758075401.25499,1758075401.23501,0.0,0.0,0.0,30.99702,29.96569,4.81285,9.48,-0.65,0.77,2.0
1758075401.27508,1758075401.24501,0.0,0.0,0.0,29.22085,16.61578,8.76626,8.94,-0.01,0.77,2.0
1758075401.27713,1758075401.25501,0.0,0.0,0.0,27.38738,7.67763,10.37054,8.54,0.44,0.59,2.0
1758075401.29214,1758075401.26501,0.0,0.0,0.0,25.26744,1.60428,11.11538,8.54,0.44,0.59,2.0
1758075401.30856,1758075401.27501,0.0,0.0,0.0,22.97561,-0.0573,9.85487,9.25,0.63,0.43,2.0
1758075401.30978,1758075401.28501,0.0,0.0,0.0,20.62648,6.07335,6.99009,9.25,0.63,0.43,2.0
1758075401.32512,1758075401.29501,0.0,0.0,0.0,20.11082,13.5218,4.52637,10.68,0.41,0.82,2.0
1758075401.3272,1758075401.30501,0.0,0.0,0.0,20.3973,18.50654,1.77617,10.68,0.41,0.82,2.0
1758075401.34217,1758075401.31501,0.0,0.0,0.0,21.42862,18.79302,-0.34377,10.9,-0.21,0.83,2.0
1758075401.35795,1758075401.32501,0.0,0.0,0.0,24.00693,14.61043,-3.32316,9.85,-0.96,0.44,2.0
1758075401.36013,1758075401.33501,0.0,0.0,0.0,26.01229,11.45916,-4.64096,9.85,-0.96,0.44,2.0
1758075401.37485,1758075401.34501,0.0,0.0,0.0,28.01764,8.136,-5.32851,9.36,-1.52,0.48,2.0
1758075401.3763,1758075401.35501,0.0,0.0,0.0,30.30947,4.98473,-5.27121,9.36,-1.52,0.48,2.0
1758075401.39355,1758075401.36501,0.0,0.0,0.0,33.00237,-0.0573,-4.29718,9.14,-1.79,0.56,2.0
1758075401.40914,1758075401.37501,0.0,0.0,0.0,34.89313,-3.26586,-3.26586,9.14,-1.79,0.56,2.0
1758075401.41193,1758075401.38501,0.0,0.0,0.0,35.98175,-6.18794,-1.94806,8.98,-1.63,0.15,2.0
1758075401.42711,1758075401.39501,0.0,0.0,0.0,37.35685,-8.70896,-0.11459,8.98,-1.63,0.15,2.0
1758075401.42969,1758075401.40501,0.0,0.0,0.0,37.47144,-14.78231,0.74485,8.8,-1.05,-0.56,2.0
1758075401.44525,1758075401.41501,0.0,0.0,0.0,37.18496,-20.16812,1.83346,8.47,-0.61,-0.98,2.0
1758075401.44612,1758075401.42501,0.0,0.0,0.0,36.26823,-25.55392,2.86479,8.47,-0.61,-0.98,2.0
1758075401.4612,1758075401.43501,0.0,0.0,0.0,33.46074,-32.08564,5.21392,8.62,-0.32,-1.14,2.0
1758075401.47896,1758075401.44501,0.0,0.0,0.0,29.04896,-30.59595,5.27121,8.62,-0.32,-1.14,2.0
1758075401.4802,1758075401.45501,0.0,0.0,0.0,24.00693,-31.62727,7.16197,9.72,-0.23,-0.45,2.0
1758075401.49521,1758075401.46501,0.0,0.0,0.0,17.76169,-33.34615,8.88085,9.72,-0.23,-0.45,2.0
1758075401.4978,1758075401.47501,0.0,0.0,0.0,11.11538,-68.64035,12.49048,10.37,0.18,0.36,2.0
1758075401.51399,1758075401.48501,0.0,0.0,0.0,3.38045,-101.70002,13.23533,9.25,0.57,2.04,2.0
1758075401.51496,1758075401.49501,0.0,0.0,0.0,-2.6929,-120.72221,21.6578,9.25,0.57,2.04,2.0
1758075401.53523,1758075401.50501,0.0,0.0,0.0,-9.62569,-118.54498,27.50197,16.15,1.96,1.6,2.0
1758075401.53856,1758075401.51501,0.0,0.0,0.0,-16.3293,-114.93534,30.48136,16.15,1.96,1.6,2.0
1758075401.55513,1758075401.52501,0.0,0.0,0.0,-19.36597,-112.6435,27.84575,15.1,1.66,1.31,2.0
1758075401.55778,1758075401.53501,0.0,0.0,0.0,-20.3973,-99.92384,21.7151,15.1,1.66,1.31,2.0
1758075401.57396,1758075401.54501,0.0,0.0,0.0,-16.61578,-81.87567,17.18874,12.61,0.03,1.69,2.0
1758075401.57502,1758075401.55501,0.0,0.0,0.0,-11.17268,-86.74582,6.99009,8.94,-0.99,2.61,2.0
1758075401.59227,1758075401.56501,0.0,0.0,0.0,-8.30789,-91.73055,-2.29183,8.94,-0.99,2.61,2.0
1758075401.60989,1758075401.57501,0.0,0.0,0.0,-3.09397,-83.53725,-9.22462,7.32,-1.43,2.65,2.0
1758075401.61082,1758075401.58501,0.0,0.0,0.0,4.35448,-58.55629,-15.92823,7.32,-1.43,2.65,2.0
1758075401.626,1758075401.59501,0.0,0.0,0.0,15.58445,-9.22462,-17.87628,10.21,-1.77,0.54,2.0
1758075401.62875,1758075401.60501,0.0,0.0,0.0,21.25674,3.38045,-17.81899,10.21,-1.77,0.54,2.0
1758075401.64429,1758075401.61501,0.0,0.0,0.0,26.35606,11.63104,-16.90226,9.46,-1.63,0.21,2.0
1758075401.6452,1758075401.62501,0.0,0.0,0.0,33.63263,21.88699,-8.47978,9.46,-1.63,0.21,2.0
1758075401.6613,1758075401.63501,0.0,0.0,0.0,35.12231,31.28349,-1.94806,11.27,-1.13,-0.68,2.0
1758075401.678,1758075401.64501,0.0,0.0,0.0,33.9764,44.63341,4.46907,14.54,0.67,-1.41,2.0
1758075401.67921,1758075401.65501,0.0,0.0,0.0,30.65324,57.75415,8.76626,14.54,0.67,-1.41,2.0
1758075401.69405,1758075401.66501,0.0,0.0,0.0,25.55392,89.55331,13.23533,13.85,2.44,-1.12,2.0
1758075401.69529,1758075401.67501,0.0,0.0,0.0,22.28806,99.80926,15.46986,13.85,2.44,-1.12,2.0
1758075401.71113,1758075401.68501,0.0,0.0,0.0,17.18874,100.6114,16.04282,10.35,2.37,-0.41,2.0
1758075401.72914,1758075401.69501,0.0,0.0,0.0,11.17268,95.68395,15.98552,10.35,2.37,-0.41,2.0
1758075401.73007,1758075401.70501,0.0,0.0,0.0,1.08862,91.1003,13.86558,8.14,1.85,0.48,2.0
1758075401.74534,1758075401.71501,0.0,0.0,0.0,-5.50039,87.94903,11.28727,8.43,1.67,0.44,2.0
1758075401.74974,1758075401.72501,0.0,0.0,0.0,-11.80293,81.5892,7.73493,8.43,1.67,0.44,2.0
1758075401.76537,1758075401.73501,0.0,0.0,0.0,-17.58981,73.73967,3.83882,8.38,1.48,0.95,2.0
1758075401.76707,1758075401.74501,0.0,0.0,0.0,-23.72045,60.96271,-2.7502,8.38,1.48,0.95,2.0
1758075401.78247,1758075401.75501,0.0,0.0,0.0,-26.87172,52.36834,-7.33386,8.74,1.12,0.71,2.0
1758075401.79809,1758075401.76501,0.0,0.0,0.0,-29.27814,43.77398,-11.34457,8.74,1.12,0.71,2.0
1758075401.80007,1758075401.77501,0.0,0.0,0.0,-30.65324,35.75257,-14.83961,8.77,0.63,0.73,2.0
1758075401.81513,1758075401.78501,0.0,0.0,0.0,-31.51268,22.74642,-19.36597,8.54,0.1,0.71,2.0
1758075401.81988,1758075401.79501,0.0,0.0,0.0,-31.16891,14.61043,-20.97026,8.54,0.1,0.71,2.0
1758075401.83511,1758075401.80501,0.0,0.0,0.0,-29.9084,7.50575,-21.88699,8.46,-0.44,0.52,2.0
1758075401.83634,1758075401.81501,0.0,0.0,0.0,-27.44468,1.71887,-20.85567,8.46,-0.44,0.52,2.0
1758075401.85136,1758075401.82501,0.0,0.0,0.0,-24.57989,-8.65166,-19.59516,8.51,-0.85,0.22,2.0
1758075401.8673,1758075401.83501,0.0,0.0,0.0,-21.02755,-11.51645,-17.24603,8.51,-0.85,0.22,2.0
1758075401.86911,1758075401.84501,0.0,0.0,0.0,-17.13144,-15.0115,-14.43854,8.95,-1.0,0.0,2.0
1758075401.88446,1758075401.85501,0.0,0.0,0.0,-10.71431,-15.06879,-9.4538,8.95,-1.0,0.0,2.0
1758075401.88534,1758075401.86501,0.0,0.0,0.0,-6.99009,-12.08941,-5.95876,9.48,-0.97,-0.22,2.0
1758075401.90143,1758075401.87501,0.0,0.0,0.0,-3.38045,-7.73493,-2.29183,10.27,-0.65,-0.15,2.0
1758075401.91743,1758075401.88501,0.0,0.0,0.0,-1.03132,1.66158,2.7502,10.27,-0.65,-0.15,2.0
1758075401.91869,1758075401.89501,0.0,0.0,0.0,0.22918,23.37668,4.87014,11.65,0.04,0.21,2.0
1758075401.93347,1758075401.90501,0.0,0.0,0.0,-0.51566,33.46074,5.4431,11.65,0.04,0.21,2.0
1758075401.94955,1758075401.91501,0.0,0.0,0.0,-2.00535,36.6693,5.90147,11.13,0.74,0.46,2.0
1758075401.95043,1758075401.92501,0.0,0.0,0.0,-3.66693,33.74722,6.07335,11.13,0.74,0.46,2.0
1758075401.96556,1758075401.93501,0.0,0.0,0.0,-7.10468,25.72581,6.13065,9.52,1.24,0.31,2.0
1758075401.96756,1758075401.94501,0.0,0.0,0.0,-9.85487,22.97561,6.18794,9.18,1.37,0.05,2.0
1758075401.98255,1758075401.95501,0.0,0.0,0.0,-12.60507,21.42862,5.90147,9.18,1.37,0.05,2.0
1758075401.99823,1758075401.96501,0.0,0.0,0.0,-15.46986,20.85567,5.78687,9.22,1.32,0.06,2.0
1758075401.99903,1758075401.97501,0.0,0.0,0.0,-19.48057,17.18874,5.09932,9.22,1.32,0.06,2.0
1758075402.01427,1758075401.98501,0.0,0.0,0.0,-21.88699,12.49048,3.55234,8.9,1.3,-0.19,2.0
1758075402.01577,1758075401.99501,0.0,0.0,0.0,-23.83505,7.44845,1.77617,8.9,1.3,-0.19,2.0
1758075402.0324,1758075402.00501,0.0,0.0,0.0,-25.21014,3.72423,-1.3751,8.94,1.44,-0.47,2.0
1758075402.04851,1758075402.01501,0.0,0.0,0.0,-26.01229,0.74485,-3.66693,9.81,1.52,-0.48,2.0
1758075402.04893,1758075402.02501,0.0,0.0,0.0,-25.72581,-1.08862,-6.13065,9.81,1.52,-0.48,2.0
1758075402.06459,1758075402.03501,0.0,0.0,0.0,-24.86637,-2.92208,-7.73493,10.57,1.37,-0.54,2.0
1758075402.06554,1758075402.04501,0.0,0.0,0.0,-23.94964,-13.98017,-9.91217,10.57,1.37,-0.54,2.0
1758075402.08131,1758075402.05501,0.0,0.0,0.0,-22.97561,-26.18417,-11.34457,10.08,1.26,-0.56,2.0
1758075402.0976,1758075402.06501,0.0,0.0,0.0,-20.16812,-42.22699,-13.23533,10.08,1.26,-0.56,2.0
1758075402.09851,1758075402.07501,0.0,0.0,0.0,-15.75634,-61.53567,-18.27736,10.66,1.16,2.22,2.0
1758075402.11332,1758075402.08501,0.0,0.0,0.0,-8.02141,-77.17742,-30.13758,10.66,1.16,3.2,2.0
1758075402.12964,1758075402.09501,0.0,0.0,0.0,-1.66158,-72.30728,-35.40879,15.05,-0.65,3.2,2.0
1758075402.13018,1758075402.10501,0.0,0.0,0.0,5.32851,-62.5097,-35.63798,16.74,-2.69,0.68,2.0
1758075402.14545,1758075402.11501,0.0,0.0,0.0,12.2613,-58.09792,-31.91375,16.74,-2.69,0.68,2.0
1758075402.14679,1758075402.12501,0.0,0.0,0.0,21.02755,-47.44091,-23.72045,12.03,-2.21,-0.7,2.0
1758075402.1616,1758075402.13501,0.0,0.0,0.0,22.68913,-36.55471,-16.50119,12.03,-2.21,-0.7,2.0
1758075402.1774,1758075402.14501,0.0,0.0,0.0,22.34536,-29.56462,-6.99009,10.36,-0.44,0.3,2.0
1758075402.17889,1758075402.15501,0.0,0.0,0.0,18.62113,-24.17882,0.40107,10.36,-0.44,0.3,2.0
1758075402.19337,1758075402.16501,0.0,0.0,0.0,10.08406,-29.33544,8.30789,9.21,0.72,2.32,2.0
1758075402.20965,1758075402.17501,0.0,0.0,0.0,4.52637,-55.6915,13.5218,6.27,1.26,3.02,2.0
1758075402.21008,1758075402.18501,0.0,0.0,0.0,0.22918,-71.21866,16.55848,6.27,1.26,3.02,2.0
1758075402.22561,1758075402.19501,0.0,0.0,0.0,-4.18259,-68.86953,17.30333,7.92,1.1,2.6,2.0
1758075402.22662,1758075402.20501,0.0,0.0,0.0,-12.89155,-40.7373,13.40721,7.92,1.1,2.6,2.0
1758075402.24163,1758075402.21501,0.0,0.0,0.0,-18.10547,-26.69983,8.70896,11.2,0.37,1.09,2.0
1758075402.25841,1758075402.22501,0.0,0.0,0.0,-21.60051,-21.14215,2.92208,11.2,0.37,1.09,2.0
1758075402.25897,1758075402.23501,0.0,0.0,0.0,3.83882,-14.03747,-4.52637,10.11,-0.62,0.95,2.0
1758075402.27465,1758075402.24501,0.0,0.0,0.0,18.85031,-45.20637,-7.39116,10.77,-1.71,-0.12,2.0
1758075402.27669,1758075402.25501,0.0,0.0,0.0,-4.46907,-49.27437,-9.33921,10.77,-1.71,-0.12,2.0
1758075402.29147,1758075402.26501,0.0,0.0,0.0,-7.16197,2.97938,-9.33921,11.9,-2.45,-0.53,2.0
1758075402.29374,1758075402.27501,0.0,0.0,0.0,-10.8862,27.50197,-6.53172,11.9,-2.45,-0.53,2.0
1758075402.309,1758075402.28501,0.0,0.0,0.0,-6.58902,38.1017,-2.86479,11.22,-2.38,-0.56,2.0
1758075402.3247,1758075402.29501,0.0,0.0,0.0,-3.38045,48.12846,1.14592,11.22,-2.38,-0.56,2.0
1758075402.32563,1758075402.30501,0.0,0.0,0.0,0.0573,59.01466,5.50039,9.81,-1.86,-0.22,2.0
1758075402.34068,1758075402.31501,0.0,0.0,0.0,2.57831,82.16215,11.11538,9.86,-1.38,-0.23,2.0
1758075402.35645,1758075402.32501,0.0,0.0,0.0,4.46907,92.3035,12.71966,9.86,-1.38,-0.23,2.0
1758075402.35915,1758075402.33501,0.0,0.0,0.0,5.09932,93.27753,15.58445,8.82,-0.91,0.24,2.0
1758075402.37475,1758075402.34501,0.0,0.0,0.0,4.58366,90.69922,15.87093,8.82,-0.91,0.24,2.0
1758075402.37641,1758075402.35501,0.0,0.0,0.0,3.55234,86.05827,15.35527,8.4,-0.45,0.0,2.0
1758075402.39181,1758075402.36501,0.0,0.0,0.0,2.7502,82.16215,14.32395,8.4,-0.45,0.0,2.0
1758075402.40778,1758075402.37501,0.0,0.0,0.0,2.11994,76.66176,13.12073,8.84,-0.11,0.19,2.0
1758075402.40878,1758075402.38501,0.0,0.0,0.0,1.48969,70.53111,11.17268,8.84,-0.11,0.19,2.0
1758075402.4238,1758075402.39501,0.0,0.0,0.0,0.85944,60.90542,8.02141,8.61,0.06,0.35,2.0
1758075402.4252,1758075402.40501,0.0,0.0,0.0,0.68755,54.14451,5.50039,8.33,0.01,0.44,2.0
1758075402.44011,1758075402.41501,0.0,0.0,0.0,0.45837,47.15443,3.20856,8.33,0.01,0.44,2.0
1758075402.4558,1758075402.42501,0.0,0.0,0.0,0.34377,39.87786,-0.0573,7.96,-0.17,0.51,2.0
1758075402.45703,1758075402.43501,0.0,0.0,0.0,-0.0573,27.44468,-2.06265,7.96,-0.17,0.51,2.0
1758075402.47265,1758075402.44501,0.0,0.0,0.0,-0.74485,19.88164,-3.49504,7.76,-0.41,0.62,2.0
1758075402.47434,1758075402.45501,0.0,0.0,0.0,-1.60428,13.06344,-4.52637,7.76,-0.41,0.62,2.0
1758075402.49186,1758075402.46501,0.0,0.0,0.0,-3.26586,7.10468,-4.69825,8.18,-0.64,0.57,2.0
1758075402.50783,1758075402.47501,0.0,0.0,0.0,-4.58366,6.58902,-4.52637,9.17,-0.74,0.44,2.0
1758075402.50964,1758075402.48501,0.0,0.0,0.0,-6.13065,8.0787,-3.72423,9.17,-0.74,0.44,2.0
1758075402.52483,1758075402.49501,0.0,0.0,0.0,-7.44845,9.28192,-2.97938,9.84,-0.69,0.18,2.0
1758075402.52578,1758075402.50501,0.0,0.0,0.0,-9.28192,10.08406,-1.60428,9.84,-0.69,0.18,2.0
1758075402.54061,1758075402.51501,0.0,0.0,0.0,-9.91217,7.50575,-1.03132,9.79,-0.55,-0.07,2.0
1758075402.55658,1758075402.52501,0.0,0.0,0.0,-10.08406,1.48969,-0.80214,9.79,-0.55,-0.07,2.0
1758075402.55778,1758075402.53501,0.0,0.0,0.0,-10.25595,-6.07335,-0.97403,9.04,-0.36,-0.32,2.0
1758075402.57525,1758075402.54501,0.0,0.0,0.0,-8.99544,-14.9542,-2.11994,8.92,-0.34,-0.5,2.0
1758075402.58053,1758075402.55501,0.0,0.0,0.0,-7.73493,-15.0115,-3.26586,8.92,-0.34,-0.5,2.0
1758075402.59963,1758075402.56501,0.0,0.0,0.0,-5.50039,-12.89155,-2.11994,10.25,-0.78,-0.19,2.0
1758075402.60077,1758075402.57501,0.0,0.0,0.0,-3.32316,-10.37054,-0.85944,10.25,-0.78,-0.19,2.0
1758075402.60492,1758075402.58501,0.0,0.0,0.0,-0.40107,-13.06344,-0.74485,10.74,-1.46,-0.21,2.0
1758075402.62138,1758075402.59501,0.0,0.0,0.0,1.66158,-18.9649,-0.57296,10.74,-1.46,-0.21,2.0
1758075402.63844,1758075402.60501,0.0,0.0,0.0,4.18259,-25.49662,-1.14592,10.67,-1.79,-0.8,2.0
1758075402.63962,1758075402.61501,0.0,0.0,0.0,7.04738,-31.16891,-1.71887,10.67,-1.79,-0.8,2.0
1758075402.65488,1758075402.62501,0.0,0.0,0.0,12.89155,-35.3515,-3.66693,11.26,-1.98,-1.37,2.0
1758075402.6601,1758075402.63501,0.0,0.0,0.0,16.73037,-35.75257,-5.21392,11.9,-2.03,-1.82,2.0
1758075402.67492,1758075402.64501,0.0,0.0,0.0,19.59516,-34.26288,-6.24524,11.9,-2.03,-1.82,2.0
1758075402.68018,1758075402.65501,0.0,0.0,0.0,21.37133,-31.85646,-6.41713,13.05,-1.82,-0.56,2.0
1758075402.69494,1758075402.66501,0.0,0.0,0.0,19.88164,-27.96034,-5.27121,13.05,-1.82,-0.56,2.0
1758075402.69996,1758075402.67501,0.0,0.0,0.0,16.61578,-28.07493,-3.09397,14.65,-0.67,1.15,2.0
1758075402.71474,1758075402.68501,0.0,0.0,0.0,11.45916,-32.88778,0.17189,14.65,-0.67,1.15,2.0
1758075402.71635,1758075402.69501,0.0,0.0,0.0,1.3751,-40.7946,6.18794,14.88,0.86,2.58,2.0
1758075402.73226,1758075402.70501,0.0,0.0,0.0,-5.55769,-50.59217,8.88085,13.43,1.9,1.94,2.0
1758075402.73422,1758075402.71501,0.0,0.0,0.0,-11.80293,-60.33246,11.11538,13.43,1.9,1.94,2.0
1758075402.74998,1758075402.72501,0.0,0.0,0.0,-15.92823,-63.8275,11.57375,10.03,1.3,1.26,2.0
1758075402.76758,1758075402.73501,0.0,0.0,0.0,-17.53251,-59.47303,11.17268,10.03,1.3,1.26,2.0
1758075402.76853,1758075402.74501,0.0,0.0,0.0,-14.61043,-47.95657,9.5684,8.48,0.12,2.37,2.0
1758075402.78377,1758075402.75501,0.0,0.0,0.0,-8.93814,-33.00237,8.88085,8.48,0.12,2.37,2.0
1758075402.78547,1758075402.76501,0.0,0.0,0.0,-2.97938,-15.69904,7.33386,8.86,-1.18,3.23,2.0
1758075402.79983,1758075402.77501,0.0,0.0,0.0,6.18794,10.8862,5.09932,9.27,-2.19,2.21,2.0
1758075402.81676,1758075402.78501,0.0,0.0,0.0,10.65701,26.35606,3.26586,9.27,-2.19,2.21,2.0
1758075402.81774,1758075402.79501,0.0,0.0,0.0,15.41257,36.55471,0.22918,9.71,-2.68,1.52,2.0
1758075402.83307,1758075402.80501,0.0,0.0,0.0,22.68913,36.32552,-1.03132,9.71,-2.68,1.52,2.0
1758075402.83659,1758075402.81501,0.0,0.0,0.0,27.73116,3.03668,-1.60428,8.25,-2.44,0.98,2.0
1758075402.85208,1758075402.82501,0.0,0.0,0.0,28.93437,-15.98552,-2.06265,8.25,-2.44,0.98,2.0
1758075402.86858,1758075402.83501,0.0,0.0,0.0,29.04896,4.0107,-4.69825,9.06,-1.43,0.11,2.0
1758075402.87161,1758075402.84501,0.0,0.0,0.0,31.2262,37.01308,-3.95341,9.06,-1.43,0.11,2.0
1758075402.8868,1758075402.85501,0.0,0.0,0.0,29.96569,61.65026,-4.0107,14.45,0.15,0.44,2.0
1758075402.88831,1758075402.86501,0.0,0.0,0.0,25.49662,58.55629,-4.23989,9.14,1.51,1.28,2.0
1758075402.90409,1758075402.87501,0.0,0.0,0.0,19.59516,57.29578,-5.4431,9.14,1.51,1.28,2.0
1758075402.90526,1758075402.88501,0.0,0.0,0.0,9.68299,64.11398,-8.99544,8.44,2.24,0.45,2.0
1758075402.92006,1758075402.89501,0.0,0.0,0.0,2.97938,67.03606,-11.28727,8.44,2.24,0.45,2.0
1758075402.93611,1758075402.90501,0.0,0.0,0.0,-3.66693,67.37984,-13.34992,8.19,2.67,0.33,2.0
1758075402.93705,1758075402.91501,0.0,0.0,0.0,-9.39651,66.92148,-14.78231,8.19,2.67,0.33,2.0
1758075402.95212,1758075402.92501,0.0,0.0,0.0,-16.50119,66.06203,-16.50119,7.85,2.3,0.75,2.0
1758075402.96806,1758075402.93501,0.0,0.0,0.0,-20.05352,66.17663,-17.13144,8.06,1.53,0.62,2.0
1758075402.96903,1758075402.94501,0.0,0.0,0.0,-22.57454,66.11933,-17.6471,8.06,1.53,0.62,2.0
1758075402.98418,1758075402.95501,0.0,0.0,0.0,-24.4653,63.02536,-17.93358,8.21,0.82,1.05,2.0
1758075402.98505,1758075402.96501,0.0,0.0,0.0,-26.12688,55.57691,-17.01685,8.21,0.82,1.05,2.0
1758075403.00014,1758075402.97501,0.0,0.0,0.0,-26.52795,50.13381,-15.75634,8.21,0.39,1.26,2.0
1758075403.01613,1758075402.98501,0.0,0.0,0.0,-26.75713,44.57612,-14.03747,8.21,0.39,1.26,2.0
1758075403.01706,1758075402.99501,0.0,0.0,0.0,-27.04361,39.24761,-12.204,8.66,0.3,1.21,2.0
1758075403.03213,1758075403.00501,0.0,0.0,0.0,-27.38738,29.50733,-9.33921,9.0,0.51,1.04,2.0
1758075403.04796,1758075403.01501,0.0,0.0,0.0,-27.96034,21.31403,-7.84952,9.0,0.51,1.04,2.0
1758075403.04908,1758075403.02501,0.0,0.0,0.0,-28.70519,11.57375,-6.53172,9.01,0.84,0.46,2.0
1758075403.06417,1758075403.03501,0.0,0.0,0.0,-29.67921,2.57831,-5.32851,9.01,0.84,0.46,2.0
1758075403.06508,1758075403.04501,0.0,0.0,0.0,-31.28349,-10.37054,-4.35448,9.27,1.0,-0.34,2.0
1758075403.08016,1758075403.05501,0.0,0.0,0.0,-33.17426,-19.36597,-4.35448,9.27,1.0,-0.34,2.0
1758075403.09592,1758075403.06501,0.0,0.0,0.0,-35.3515,-27.61657,-4.98473,9.93,1.0,-0.69,2.0
1758075403.09716,1758075403.07501,0.0,0.0,0.0,-38.84654,-35.40879,-6.58902,9.93,1.0,-0.69,2.0
1758075403.11195,1758075403.08501,0.0,0.0,0.0,-41.42485,-42.74266,-7.73493,10.99,0.99,-0.92,2.0
1758075403.12822,1758075403.09501,0.0,0.0,0.0,-44.63341,-44.57612,-8.25059,12.05,1.1,-1.24,2.0
1758075403.12942,1758075403.10501,0.0,0.0,0.0,-48.12846,-46.40959,-7.67763,12.05,1.1,-1.24,2.0
1758075403.14403,1758075403.11501,0.0,0.0,0.0,-54.25911,-51.73809,-4.29718,11.64,1.14,-1.79,2.0
1758075403.14542,1758075403.12501,0.0,0.0,0.0,-58.67088,-56.32175,0.11459,11.64,1.14,-1.79,2.0
1758075403.16023,1758075403.13501,0.0,0.0,0.0,-63.13995,-61.93674,5.72958,10.17,1.07,-2.08,2.0
1758075403.17608,1758075403.14501,0.0,0.0,0.0,-66.74959,-72.07809,12.2613,10.17,1.07,-2.08,2.0
