timeStamp,timeStampAlign,roll,pitch,yaw,gyro_x,gyro_y,gyro_z,acc_x,acc_y,acc_z,flag_num
1758076839.81193,1758076839.78605,0.0,0.0,0.0,45.83662,14.43854,6.87549,8.3,-0.11,1.58,2.0
1758076839.81384,1758076839.79605,0.0,0.0,0.0,46.1231,10.25595,6.53172,8.3,-0.11,1.58,2.0
1758076839.82925,1758076839.80605,0.0,0.0,0.0,45.77933,4.23989,5.90147,8.45,0.37,1.47,2.0
1758076839.83845,1758076839.81605,0.0,0.0,0.0,45.20637,1.3178,5.55769,8.68,0.78,1.47,2.0
1758076839.839,1758076839.82605,0.0,0.0,0.0,43.94586,-1.3751,5.50039,8.68,0.78,1.47,2.0
1758076839.85578,1758076839.83605,0.0,0.0,0.0,42.1124,-4.23989,4.98473,8.9,0.97,1.52,2.0
1758076839.85892,1758076839.84605,0.0,0.0,0.0,38.50277,-6.47442,4.18259,8.9,0.97,1.52,2.0
1758076839.87938,1758076839.85605,0.0,0.0,0.0,35.52338,-5.27121,3.20856,9.14,1.01,1.52,2.0
1758076839.88108,1758076839.86605,0.0,0.0,0.0,32.25753,-4.18259,2.11994,9.14,1.01,1.52,2.0
1758076839.89629,1758076839.87605,0.0,0.0,0.0,28.64789,-2.46372,0.45837,9.26,0.99,1.52,2.0
1758076839.89826,1758076839.88605,0.0,0.0,0.0,23.20479,0.40107,-1.77617,9.27,1.0,1.45,2.0
1758076839.91354,1758076839.89605,0.0,0.0,0.0,19.76705,1.83346,-2.6929,9.27,1.0,1.45,2.0
1758076839.92959,1758076839.90605,0.0,0.0,0.0,16.38659,3.03668,-3.38045,9.36,0.87,1.26,2.0
1758076839.93439,1758076839.91605,0.0,0.0,0.0,12.49048,4.29718,-2.63561,9.36,0.87,1.26,2.0
1758076839.94929,1758076839.92605,0.0,0.0,0.0,10.71431,4.52637,-1.08862,9.58,0.56,1.06,2.0
1758076839.95447,1758076839.93605,0.0,0.0,0.0,9.28192,3.83882,0.68755,9.58,0.56,1.06,2.0
1758076839.96928,1758076839.94605,0.0,0.0,0.0,8.25059,1.66158,2.7502,9.5,0.28,1.07,2.0
1758076839.97383,1758076839.95605,0.0,0.0,0.0,7.16197,-2.29183,5.09932,9.5,0.28,1.01,2.0
1758076839.98926,1758076839.96605,0.0,0.0,0.0,6.58902,-5.32851,6.18794,9.3,0.18,1.01,2.0
1758076839.9944,1758076839.97605,0.0,0.0,0.0,6.35983,-9.11003,7.04738,9.31,0.21,0.95,2.0
1758076840.00942,1758076839.98605,0.0,0.0,0.0,6.18794,-12.43318,7.10468,9.31,0.21,0.95,2.0
1758076840.01487,1758076839.99605,0.0,0.0,0.0,6.07335,-15.29797,6.99009,9.61,0.24,0.86,2.0
1758076840.02934,1758076840.00605,0.0,0.0,0.0,6.13065,-16.50119,6.58902,9.61,0.24,0.86,2.0
1758076840.03537,1758076840.01605,0.0,0.0,0.0,5.95876,-17.47521,5.95876,10.03,0.15,0.76,2.0
1758076840.05111,1758076840.02605,0.0,0.0,0.0,5.90147,-18.62113,5.4431,10.03,0.15,0.76,2.0
1758076840.05342,1758076840.03605,0.0,0.0,0.0,5.15662,-19.88164,4.58366,10.36,-0.05,0.47,2.0
1758076840.06857,1758076840.04605,0.0,0.0,0.0,4.23989,-19.70975,4.35448,10.68,-0.14,0.29,2.0
1758076840.06954,1758076840.05605,0.0,0.0,0.0,2.6929,-19.19409,4.0107,10.68,-0.14,0.29,2.0
1758076840.08839,1758076840.06605,0.0,0.0,0.0,0.57296,-18.27736,3.38045,10.83,0.01,0.18,2.0
1758076840.0893,1758076840.07605,0.0,0.0,0.0,-3.26586,-16.04282,2.63561,10.83,0.01,0.18,2.0
1758076840.1046,1758076840.08605,0.0,0.0,0.0,-5.84417,-15.64175,1.71887,10.85,0.35,0.18,2.0
1758076840.10714,1758076840.09605,0.0,0.0,0.0,-8.47978,-16.67307,0.68755,10.85,0.35,0.18,2.0
1758076840.1233,1758076840.10605,0.0,0.0,0.0,-12.204,-19.07949,-1.83346,10.81,0.7,0.46,2.0
1758076840.13953,1758076840.11605,0.0,0.0,0.0,-13.46451,-28.93437,-3.95341,10.68,0.94,0.97,2.0
1758076840.14367,1758076840.12605,0.0,0.0,0.0,-14.15206,-36.6693,-6.13065,10.68,0.94,0.97,2.0
1758076840.15922,1758076840.13605,0.0,0.0,0.0,-14.72501,-45.49285,-8.42248,10.71,1.08,1.28,2.0
1758076840.16607,1758076840.14605,0.0,0.0,0.0,-14.20935,-60.50434,-12.83425,10.71,1.08,1.28,2.0
1758076840.16776,1758076840.15605,0.0,0.0,0.0,-13.5791,-67.55173,-16.67307,11.17,0.84,2.1,2.0
1758076840.18353,1758076840.16605,0.0,0.0,0.0,-11.80293,-70.24463,-19.53786,11.17,0.84,2.1,2.0
1758076840.19962,1758076840.17605,0.0,0.0,0.0,-9.85487,-67.9528,-21.37133,12.35,0.31,2.88,2.0
1758076840.2088,1758076840.18605,0.0,0.0,0.0,-7.21927,-60.96271,-20.51189,11.78,0.31,2.55,2.0
1758076840.20916,1758076840.19605,0.0,0.0,0.0,-6.70361,-56.49364,-17.99088,11.78,0.04,2.55,2.0
1758076840.2296,1758076840.20605,0.0,0.0,0.0,-6.58902,-54.60288,-15.0115,9.68,0.06,2.09,2.0
1758076840.23449,1758076840.21605,0.0,0.0,0.0,-7.44845,-55.7488,-11.45916,9.68,0.06,2.09,2.0
1758076840.24932,1758076840.22605,0.0,0.0,0.0,-9.68299,-57.12389,-7.10468,8.05,-0.11,2.45,2.0
1758076840.25446,1758076840.23605,0.0,0.0,0.0,-10.71431,-51.90998,-5.55769,8.05,-0.11,2.45,2.0
1758076840.26966,1758076840.24605,0.0,0.0,0.0,-12.43318,-42.74266,-6.13065,8.94,-0.39,3.22,2.0
1758076840.27446,1758076840.25605,0.0,0.0,0.0,-12.49048,-34.49206,-5.32851,8.94,-0.39,3.22,2.0
1758076840.28961,1758076840.26605,0.0,0.0,0.0,-13.46451,-51.50891,-9.05273,10.01,-0.5,3.63,2.0
1758076840.29389,1758076840.27605,0.0,0.0,0.0,-11.80293,-61.87944,-9.5684,9.3,-0.37,2.8,2.0
1758076840.30958,1758076840.28605,0.0,0.0,0.0,-10.37054,-71.16136,-9.33921,9.3,-0.37,2.8,2.0
1758076840.31445,1758076840.29605,0.0,0.0,0.0,-7.62034,-64.74423,-7.21927,11.28,-0.54,0.69,2.0
1758076840.32962,1758076840.30605,0.0,0.0,0.0,-6.47442,-7.67763,-8.42248,11.28,-0.54,0.69,2.0
1758076840.33445,1758076840.31605,0.0,0.0,0.0,-5.78687,13.69369,-5.21392,15.72,-0.27,-0.23,2.0
1758076840.34948,1758076840.32605,0.0,0.0,0.0,-2.6929,23.49127,-2.92208,15.72,-0.27,-0.23,2.0
1758076840.35475,1758076840.33605,0.0,0.0,0.0,3.03668,25.21014,-0.85944,11.37,-0.57,1.75,2.0
1758076840.36963,1758076840.34605,0.0,0.0,0.0,7.79223,30.02299,1.14592,9.94,-1.0,0.19,2.0
1758076840.37636,1758076840.35605,0.0,0.0,0.0,13.23533,37.18496,2.57831,9.94,-1.0,0.19,2.0
1758076840.37677,1758076840.36605,0.0,0.0,0.0,18.44924,41.36755,4.52637,9.94,-1.56,-0.05,2.0
1758076840.3936,1758076840.37605,0.0,0.0,0.0,25.15285,45.43555,6.7609,9.94,-1.56,-0.05,2.0
1758076840.40929,1758076840.38605,0.0,0.0,0.0,28.30412,48.41494,7.62034,9.45,-1.61,0.88,2.0
1758076840.41445,1758076840.39605,0.0,0.0,0.0,30.19488,49.33167,7.84952,9.45,-1.61,0.88,2.0
1758076840.42954,1758076840.40605,0.0,0.0,0.0,30.82513,47.67009,7.84952,8.89,-0.94,1.23,2.0
1758076840.43291,1758076840.41605,0.0,0.0,0.0,29.56462,42.68536,7.84952,8.31,-0.08,1.17,2.0
1758076840.44839,1758076840.42605,0.0,0.0,0.0,28.07493,40.04975,8.36518,8.31,-0.08,1.17,2.0
1758076840.44954,1758076840.43605,0.0,0.0,0.0,26.24147,36.95578,9.4538,8.7,0.24,1.03,2.0
1758076840.46609,1758076840.44605,0.0,0.0,0.0,24.63719,33.68992,10.71431,8.7,0.24,1.03,2.0
1758076840.47393,1758076840.45605,0.0,0.0,0.0,23.0329,28.76248,12.49048,8.76,0.04,0.74,2.0
1758076840.48965,1758076840.46605,0.0,0.0,0.0,22.74642,25.72581,13.12073,8.76,0.04,0.74,2.0
1758076840.49449,1758076840.47605,0.0,0.0,0.0,22.63183,22.57454,13.69369,8.63,-0.27,0.5,2.0
1758076840.50963,1758076840.48605,0.0,0.0,0.0,22.68913,19.76705,14.03747,8.63,-0.27,0.5,2.0
1758076840.51448,1758076840.49605,0.0,0.0,0.0,22.51724,16.38659,14.32395,8.93,-0.25,0.42,2.0
1758076840.52959,1758076840.50605,0.0,0.0,0.0,22.28806,14.38124,14.38124,9.27,-0.14,0.36,2.0
1758076840.53374,1758076840.51605,0.0,0.0,0.0,21.7724,12.43318,14.32395,9.27,-0.14,0.36,2.0
1758076840.54933,1758076840.52605,0.0,0.0,0.0,20.97026,10.71431,14.09476,9.45,0.03,0.17,2.0
1758076840.5545,1758076840.53605,0.0,0.0,0.0,20.34,8.25059,14.03747,9.45,0.03,0.17,2.0
1758076840.56961,1758076840.54605,0.0,0.0,0.0,19.48057,6.24524,13.5791,9.56,0.24,0.09,2.0
1758076840.57449,1758076840.55605,0.0,0.0,0.0,18.9649,4.29718,12.89155,9.56,0.24,0.09,2.0
1758076840.5896,1758076840.56605,0.0,0.0,0.0,18.44924,1.03132,11.28727,9.56,0.39,0.01,2.0
1758076840.59394,1758076840.57605,0.0,0.0,0.0,18.16276,-1.83346,9.91217,9.36,0.35,0.05,2.0
1758076840.60959,1758076840.58605,0.0,0.0,0.0,18.22006,-5.21392,8.36518,9.36,0.35,0.05,2.0
1758076840.61477,1758076840.59605,0.0,0.0,0.0,18.33465,-7.67763,6.87549,9.29,0.16,0.18,2.0
1758076840.63057,1758076840.60605,0.0,0.0,0.0,18.73572,-9.05273,4.52637,9.29,0.16,0.18,2.0
1758076840.63395,1758076840.61604,0.0,0.0,0.0,19.25138,-7.50575,3.20856,9.56,-0.07,0.1,2.0
1758076840.6496,1758076840.62604,0.0,0.0,0.0,20.34,-4.29718,1.83346,9.56,-0.07,0.1,2.0
1758076840.65372,1758076840.63604,0.0,0.0,0.0,21.88699,-0.45837,0.97403,10.01,-0.33,0.0,2.0
1758076840.66954,1758076840.64604,0.0,0.0,0.0,24.86637,4.58366,0.51566,10.28,-0.62,-0.1,2.0
1758076840.67372,1758076840.65604,0.0,0.0,0.0,27.50197,7.33386,0.97403,10.28,-0.62,-0.1,2.0
1758076840.68937,1758076840.66604,0.0,0.0,0.0,30.93972,9.5684,1.83346,10.41,-0.74,-0.41,2.0
1758076840.69394,1758076840.67604,0.0,0.0,0.0,34.32018,11.45916,2.92208,10.41,-0.74,-0.41,2.0
1758076840.70957,1758076840.68604,0.0,0.0,0.0,40.10705,10.02676,4.46907,10.35,-0.67,-0.71,2.0
1758076840.71402,1758076840.69604,0.0,0.0,0.0,43.77398,6.7609,5.09932,10.35,-0.67,-0.71,2.0
1758076840.7296,1758076840.70604,0.0,0.0,0.0,46.98254,2.92208,4.58366,10.06,-0.47,-0.96,2.0
1758076840.73393,1758076840.71604,0.0,0.0,0.0,49.61814,1.3178,3.60963,10.06,-0.47,-0.96,2.0
1758076840.74961,1758076840.72604,0.0,0.0,0.0,52.9986,2.00535,2.23454,10.31,-0.29,-1.06,2.0
1758076840.75398,1758076840.73604,0.0,0.0,0.0,53.91533,-0.11459,1.48969,11.08,-0.46,0.31,2.0
1758076840.76961,1758076840.74604,0.0,0.0,0.0,54.14451,-7.67763,3.09397,11.08,-0.46,0.31,2.0
1758076840.77395,1758076840.75604,0.0,0.0,0.0,51.39432,-20.34,6.24524,11.94,-0.24,2.8,2.0
1758076840.7896,1758076840.76604,0.0,0.0,0.0,47.44091,-22.40265,9.39651,11.94,-0.24,2.8,2.0
1758076840.79378,1758076840.77604,0.0,0.0,0.0,43.25832,-18.9649,12.83425,13.24,0.85,3.27,2.0
1758076840.80962,1758076840.78604,0.0,0.0,0.0,39.24761,-21.7724,14.78231,13.24,0.85,3.27,2.0
1758076840.81391,1758076840.79604,0.0,0.0,0.0,36.15364,-24.35071,12.89155,11.61,1.37,1.34,2.0
1758076840.82973,1758076840.80604,0.0,0.0,0.0,35.2369,-32.25753,10.25595,8.94,0.36,0.27,2.0
1758076840.83377,1758076840.81604,0.0,0.0,0.0,35.86716,-40.62271,8.02141,8.94,0.36,0.27,2.0
1758076840.84938,1758076840.82604,0.0,0.0,0.0,37.52874,-46.75336,6.70361,9.46,-0.99,0.93,2.0
1758076840.85397,1758076840.83604,0.0,0.0,0.0,41.48215,-48.24305,5.21392,9.46,-0.99,0.93,2.0
1758076840.86939,1758076840.84604,0.0,0.0,0.0,44.51882,-47.26902,5.27121,11.53,-2.12,2.65,2.0
1758076840.874,1758076840.85604,0.0,0.0,0.0,47.61279,-44.86259,6.24524,11.53,-2.12,2.65,2.0
1758076840.88935,1758076840.86604,0.0,0.0,0.0,51.10783,-41.65404,8.0787,11.41,-2.25,3.77,2.0
1758076840.89398,1758076840.87604,0.0,0.0,0.0,56.49364,-35.92446,11.80293,9.54,-1.54,3.24,2.0
1758076840.90967,1758076840.88604,0.0,0.0,0.0,59.64491,-30.93972,14.49583,9.54,-1.54,3.24,2.0
1758076840.91374,1758076840.89604,0.0,0.0,0.0,62.33781,-26.98631,17.53251,8.5,-0.73,2.52,2.0
1758076840.92969,1758076840.90604,0.0,0.0,0.0,64.40046,-23.94964,19.82434,8.5,-0.73,2.52,2.0
1758076840.93393,1758076840.91604,0.0,0.0,0.0,64.85883,-18.10547,20.79837,9.21,0.01,2.26,2.0
1758076840.94963,1758076840.92604,0.0,0.0,0.0,63.88479,-8.88085,19.42327,9.21,0.01,2.26,2.0
1758076840.95402,1758076840.93604,0.0,0.0,0.0,62.28051,4.0107,16.50119,11.41,0.7,1.49,2.0
1758076840.96943,1758076840.94604,0.0,0.0,0.0,59.98868,22.68913,11.45916,11.41,0.7,1.49,2.0
1758076840.97398,1758076840.95604,0.0,0.0,0.0,57.86874,31.39809,8.02141,12.48,1.11,0.73,2.0
1758076840.98965,1758076840.96604,0.0,0.0,0.0,55.6342,38.21629,4.64096,11.67,1.06,0.72,2.0
1758076840.99392,1758076840.97604,0.0,0.0,0.0,53.34238,44.46153,2.40642,11.67,1.06,0.72,2.0
1758076841.00937,1758076840.98604,0.0,0.0,0.0,48.9306,52.08187,0.0,10.97,0.9,0.67,2.0
1758076841.01542,1758076840.99604,0.0,0.0,0.0,46.2377,52.884,-0.57296,10.97,0.9,0.67,2.0
1758076841.03035,1758076841.00604,0.0,0.0,0.0,43.77398,53.17049,-0.17189,10.01,0.71,0.75,2.0
1758076841.03401,1758076841.01604,0.0,0.0,0.0,41.02378,53.68615,0.11459,10.01,0.71,0.75,2.0
1758076841.0494,1758076841.02604,0.0,0.0,0.0,37.47144,54.02992,0.85944,9.59,0.43,0.95,2.0
1758076841.05378,1758076841.03604,0.0,0.0,0.0,35.52338,53.05589,1.3751,9.04,0.21,1.01,2.0
1758076841.06962,1758076841.04604,0.0,0.0,0.0,34.0337,51.50891,1.71887,9.04,0.21,1.01,2.0
1758076841.07249,1758076841.05604,0.0,0.0,0.0,32.42941,49.27437,2.23454,8.48,0.11,1.19,2.0
1758076841.08849,1758076841.06604,0.0,0.0,0.0,30.76784,45.43555,2.34913,8.48,0.11,1.19,2.0
1758076841.0894,1758076841.07604,0.0,0.0,0.0,29.56462,44.9199,2.29183,8.3,0.13,1.15,2.0
1758076841.10524,1758076841.08604,0.0,0.0,0.0,28.476,44.40423,2.11994,8.3,0.13,1.15,2.0
1758076841.10955,1758076841.09604,0.0,0.0,0.0,27.50197,41.99781,2.23454,8.48,0.21,1.25,2.0
1758076841.12869,1758076841.10604,0.0,0.0,0.0,26.24147,37.47144,2.23454,8.42,0.34,1.03,2.0
1758076841.12961,1758076841.11604,0.0,0.0,0.0,25.49662,34.66395,2.86479,8.42,0.34,1.03,2.0
1758076841.14871,1758076841.12604,0.0,0.0,0.0,24.57989,32.83048,2.7502,8.7,0.48,0.83,2.0
1758076841.15152,1758076841.13604,0.0,0.0,0.0,23.83505,30.65324,2.97938,8.7,0.48,0.83,2.0
1758076841.1687,1758076841.14604,0.0,0.0,0.0,22.40265,26.69983,2.97938,8.76,0.56,0.77,2.0
1758076841.16962,1758076841.15604,0.0,0.0,0.0,21.42862,23.94964,2.92208,8.76,0.56,0.77,2.0
1758076841.18868,1758076841.16604,0.0,0.0,0.0,20.34,20.22541,2.7502,8.8,0.47,0.79,2.0
1758076841.18959,1758076841.17604,0.0,0.0,0.0,17.6471,16.04282,1.43239,8.8,0.47,0.79,2.0
1758076841.20554,1758076841.18604,0.0,0.0,0.0,15.87093,15.87093,0.57296,8.94,0.33,0.77,2.0
1758076841.20968,1758076841.19604,0.0,0.0,0.0,14.09476,15.58445,-0.22918,9.29,0.23,0.54,2.0
1758076841.22527,1758076841.20604,0.0,0.0,0.0,12.60507,15.46986,-0.80214,9.29,0.23,0.54,2.0
1758076841.22878,1758076841.21604,0.0,0.0,0.0,10.48513,13.75099,-1.20321,9.28,0.22,0.6,2.0
1758076841.24841,1758076841.22604,0.0,0.0,0.0,9.39651,11.86023,-1.03132,9.28,0.22,0.6,2.0
1758076841.24959,1758076841.23604,0.0,0.0,0.0,8.25059,8.59437,-0.97403,9.18,0.27,0.65,2.0
1758076841.26781,1758076841.24604,0.0,0.0,0.0,6.99009,4.92744,-1.3751,9.18,0.27,0.65,2.0
1758076841.26878,1758076841.25604,0.0,0.0,0.0,4.87014,0.40107,-1.94806,9.04,0.38,0.74,2.0
1758076841.28786,1758076841.26604,0.0,0.0,0.0,3.09397,-3.09397,-2.97938,9.02,0.56,0.94,2.0
1758076841.28877,1758076841.27604,0.0,0.0,0.0,1.08862,-5.61499,-3.95341,9.02,0.56,0.94,2.0
1758076841.30465,1758076841.28604,0.0,0.0,0.0,-1.03132,-7.21927,-4.87014,9.31,0.68,1.12,2.0
1758076841.32303,1758076841.29604,0.0,0.0,0.0,-3.89611,-9.05273,-5.21392,9.31,0.68,1.12,2.0
1758076841.32425,1758076841.30604,0.0,0.0,0.0,-4.87014,-10.54242,-4.58366,9.87,0.54,1.06,2.0
1758076841.34361,1758076841.31604,0.0,0.0,0.0,-5.61499,-10.37054,-4.1253,9.87,0.54,1.06,2.0
1758076841.34486,1758076841.32604,0.0,0.0,0.0,-6.18794,-8.47978,-3.32316,10.73,0.42,0.49,2.0
1758076841.34947,1758076841.33604,0.0,0.0,0.0,-8.0787,-5.27121,-2.7502,11.39,0.42,0.21,2.0
1758076841.36967,1758076841.34604,0.0,0.0,0.0,-10.08406,-4.35448,-2.23454,11.39,0.42,0.21,2.0
1758076841.37301,1758076841.35604,0.0,0.0,0.0,-12.43318,-5.61499,-2.46372,11.62,0.57,0.92,2.0
1758076841.38843,1758076841.36604,0.0,0.0,0.0,-15.29797,-12.2613,-3.66693,11.62,0.57,0.92,2.0
1758076841.3899,1758076841.37604,0.0,0.0,0.0,-16.3293,-18.50654,-5.84417,11.93,0.62,1.65,2.0
1758076841.40548,1758076841.38604,0.0,0.0,0.0,-15.75634,-28.64789,-8.36518,11.93,0.62,1.65,2.0
1758076841.41072,1758076841.39604,0.0,0.0,0.0,-14.38124,-42.97184,-11.74564,11.77,0.52,2.43,2.0
1758076841.42754,1758076841.40604,0.0,0.0,0.0,-12.37589,-67.09336,-18.27736,11.77,0.52,2.27,2.0
1758076841.43402,1758076841.41604,0.0,0.0,0.0,-11.57375,-74.65641,-22.23076,10.99,0.12,2.27,2.0
1758076841.45341,1758076841.42604,0.0,0.0,0.0,-10.94349,-71.21866,-24.23611,12.19,-0.42,2.07,2.0
1758076841.4546,1758076841.43604,0.0,0.0,0.0,-10.71431,-59.75951,-23.66316,12.19,-0.42,2.07,2.0
1758076841.4697,1758076841.44604,0.0,0.0,0.0,-11.63104,-43.88857,-19.82434,12.69,-0.49,2.52,2.0
1758076841.4738,1758076841.45604,0.0,0.0,0.0,-12.60507,-38.61736,-15.58445,12.69,-0.49,2.52,2.0
1758076841.49371,1758076841.46604,0.0,0.0,0.0,-14.78231,-39.99245,-12.77696,10.62,-0.18,3.28,2.0
1758076841.49782,1758076841.47604,0.0,0.0,0.0,-17.99088,-49.84733,-10.8862,10.62,-0.18,3.28,2.0
1758076841.49843,1758076841.48604,0.0,0.0,0.0,-22.57454,-61.07731,-10.08406,8.02,0.03,3.57,2.0
1758076841.52197,1758076841.49604,0.0,0.0,0.0,-25.55392,-59.98868,-11.63104,8.43,0.04,3.74,2.0
1758076841.52461,1758076841.50604,0.0,0.0,0.0,-28.13223,-50.99325,-13.75099,8.43,0.04,3.74,2.0
1758076841.52922,1758076841.51604,0.0,0.0,0.0,-31.97105,-38.78925,-15.92823,10.14,0.0,3.94,2.0
1758076841.54943,1758076841.52604,0.0,0.0,0.0,-33.74722,-43.83128,-17.01685,10.14,0.0,3.94,2.0
1758076841.55392,1758076841.53604,0.0,0.0,0.0,-36.32552,-56.32175,-16.90226,8.75,0.05,3.62,2.0
1758076841.56941,1758076841.54604,0.0,0.0,0.0,-38.27358,-65.89015,-14.9542,8.75,0.05,3.62,2.0
1758076841.57455,1758076841.55604,0.0,0.0,0.0,-39.76327,-70.53111,-9.62569,9.14,-0.08,1.57,2.0
1758076841.58971,1758076841.56604,0.0,0.0,0.0,-40.62271,-21.94428,-7.50575,14.17,-0.31,0.65,2.0
1758076841.59455,1758076841.57604,0.0,0.0,0.0,-43.14373,8.59437,-3.95341,14.17,-0.31,0.65,2.0
1758076841.60954,1758076841.58604,0.0,0.0,0.0,-44.11775,21.7151,-2.11994,13.27,-0.94,1.7,2.0
1758076841.61452,1758076841.59604,0.0,0.0,0.0,-39.76327,24.98096,-0.51566,13.27,-0.94,1.7,2.0
1758076841.63364,1758076841.60604,0.0,0.0,0.0,-34.66395,29.62192,-0.80214,9.75,-1.41,1.86,2.0
1758076841.63473,1758076841.61604,0.0,0.0,0.0,-28.99167,37.47144,0.0573,9.75,-1.41,1.86,2.0
1758076841.65211,1758076841.62604,0.0,0.0,0.0,-24.00693,45.14908,1.3751,10.06,-1.99,-0.25,2.0
1758076841.65385,1758076841.63604,0.0,0.0,0.0,-17.93358,52.25375,3.38045,9.58,-1.99,0.5,2.0
1758076841.6697,1758076841.64604,0.0,0.0,0.0,-14.61043,56.14987,4.29718,9.58,-2.04,0.5,2.0
1758076841.67243,1758076841.65604,0.0,0.0,0.0,-11.86023,59.01466,5.09932,9.04,-1.51,0.94,2.0
1758076841.68821,1758076841.66604,0.0,0.0,0.0,-10.48513,60.90542,4.92744,9.04,-1.51,0.94,2.0
1758076841.68943,1758076841.67604,0.0,0.0,0.0,-10.25595,61.87944,4.35448,8.53,-0.77,1.11,2.0
1758076841.70743,1758076841.68604,0.0,0.0,0.0,-11.28727,60.44705,4.0107,8.53,-0.77,1.11,2.0
1758076841.71404,1758076841.69604,0.0,0.0,0.0,-13.00614,58.67088,3.26586,8.05,-0.2,0.9,2.0
1758076841.72962,1758076841.70604,0.0,0.0,0.0,-15.12609,56.89471,2.40642,8.05,-0.2,0.9,2.0
1758076841.73147,1758076841.71604,0.0,0.0,0.0,-17.76169,52.9986,1.43239,8.11,0.17,1.18,2.0
1758076841.74753,1758076841.72604,0.0,0.0,0.0,-18.85031,48.12846,1.08862,8.04,0.2,1.04,2.0
1758076841.75405,1758076841.73604,0.0,0.0,0.0,-19.59516,43.4875,0.74485,8.04,0.2,1.04,2.0
1758076841.76941,1758076841.74604,0.0,0.0,0.0,-19.82434,40.16434,-0.0573,8.33,-0.13,0.96,2.0
1758076841.77146,1758076841.75604,0.0,0.0,0.0,-18.90761,35.2369,-0.45837,8.33,-0.13,0.96,2.0
1758076841.78641,1758076841.76604,0.0,0.0,0.0,-17.76169,31.39809,-1.03132,8.52,-0.69,0.78,2.0
1758076841.78789,1758076841.77604,0.0,0.0,0.0,-16.3293,27.33009,-1.71887,8.52,-0.69,0.78,2.0
1758076841.80351,1758076841.78604,0.0,0.0,0.0,-13.34992,22.00158,-2.29183,8.68,-1.22,0.71,2.0
1758076841.82381,1758076841.79604,0.0,0.0,0.0,-11.28727,18.33465,-2.40642,9.04,-1.43,0.53,2.0
1758076841.82866,1758076841.80604,0.0,0.0,0.0,-9.22462,14.49583,-2.23454,9.04,-1.43,0.53,2.0
1758076841.84692,1758076841.81604,0.0,0.0,0.0,-7.21927,10.94349,-1.48969,9.2,-1.27,0.39,2.0
1758076841.84942,1758076841.82604,0.0,0.0,0.0,-4.58366,8.76626,-0.57296,9.2,-1.27,0.39,2.0
1758076841.85298,1758076841.83604,0.0,0.0,0.0,-3.32316,8.59437,-0.34377,9.43,-0.91,0.26,2.0
1758076841.86872,1758076841.84604,0.0,0.0,0.0,-2.6929,7.96411,-0.0573,9.43,-0.91,0.26,2.0
1758076841.87149,1758076841.85604,0.0,0.0,0.0,-2.23454,6.99009,0.0573,9.24,-0.51,0.5,2.0
1758076841.88875,1758076841.86604,0.0,0.0,0.0,-2.00535,4.1253,0.0573,9.02,-0.28,0.82,2.0
1758076841.89389,1758076841.87604,0.0,0.0,0.0,-1.71887,1.66158,0.0,9.02,-0.28,0.82,2.0
1758076841.90945,1758076841.88604,0.0,0.0,0.0,-1.20321,-0.68755,0.0573,9.12,-0.39,0.88,2.0
1758076841.91441,1758076841.89604,0.0,0.0,0.0,-0.68755,-2.57831,0.0,9.12,-0.39,0.88,2.0
1758076841.92969,1758076841.90604,0.0,0.0,0.0,0.51566,-6.53172,0.45837,9.57,-0.73,0.77,2.0
1758076841.93457,1758076841.91604,0.0,0.0,0.0,1.48969,-10.02676,1.48969,9.57,-0.73,0.77,2.0
1758076841.9497,1758076841.92604,0.0,0.0,0.0,2.97938,-13.5218,2.40642,10.01,-1.09,0.6,2.0
1758076841.95489,1758076841.93604,0.0,0.0,0.0,4.35448,-17.58981,3.38045,10.01,-1.09,0.6,2.0
1758076841.97308,1758076841.94604,0.0,0.0,0.0,6.70361,-22.28806,4.23989,10.38,-1.28,0.22,2.0
1758076841.97399,1758076841.95604,0.0,0.0,0.0,7.96411,-22.97561,4.58366,10.7,-1.16,-0.25,2.0
1758076841.99341,1758076841.96604,0.0,0.0,0.0,9.96947,-21.14215,3.89611,10.7,-1.16,-0.25,2.0
1758076841.99457,1758076841.97604,0.0,0.0,0.0,13.46451,-17.93358,2.97938,11.16,-1.03,-0.18,2.0
1758076841.99844,1758076841.98604,0.0,0.0,0.0,16.10011,-15.29797,2.57831,11.16,-1.03,-0.18,2.0
1758076842.0153,1758076841.99604,0.0,0.0,0.0,18.16276,-18.10547,3.66693,11.45,-0.92,1.04,2.0
1758076842.04606,1758076842.00604,0.0,0.0,0.0,18.73572,-21.94428,5.32851,11.45,-0.92,1.04,2.0
1758076842.04938,1758076842.01604,0.0,0.0,0.0,16.90226,-25.26744,9.5684,12.79,-0.64,3.1,2.0
1758076842.05539,1758076842.02604,0.0,0.0,0.0,13.34992,-25.72581,13.5218,13.98,-0.02,4.11,2.0
1758076842.05822,1758076842.03604,0.0,0.0,0.0,10.54242,-27.38738,17.76169,13.98,-0.02,4.11,2.0
1758076842.06371,1758076842.04604,0.0,0.0,0.0,7.79223,-34.72124,20.45459,12.13,-0.12,3.59,2.0
1758076842.07877,1758076842.05604,0.0,0.0,0.0,7.84952,-43.54479,21.88699,12.13,-0.12,3.59,2.0
1758076842.08397,1758076842.06604,0.0,0.0,0.0,8.0787,-48.52953,20.16812,9.86,-1.12,1.84,2.0
1758076842.09874,1758076842.07604,0.0,0.0,0.0,10.94349,-55.57691,18.85031,9.86,-1.12,1.84,2.0
1758076842.10392,1758076842.08604,0.0,0.0,0.0,14.66772,-58.90006,16.50119,9.32,-2.0,2.32,2.0
1758076842.11872,1758076842.09604,0.0,0.0,0.0,22.40265,-57.23849,12.14671,10.2,-2.2,3.31,2.0
1758076842.12394,1758076842.10604,0.0,0.0,0.0,27.96034,-51.73809,10.48513,10.2,-2.2,3.31,2.0
1758076842.13879,1758076842.11604,0.0,0.0,0.0,32.6013,-45.60744,10.19865,10.86,-1.53,4.28,2.0
1758076842.14368,1758076842.12604,0.0,0.0,0.0,35.2369,-39.3622,11.00079,10.86,-1.53,4.28,2.0
1758076842.15845,1758076842.13604,0.0,0.0,0.0,35.92446,-29.96569,13.34992,10.39,-0.54,3.59,2.0
1758076842.16394,1758076842.14604,0.0,0.0,0.0,34.0337,-23.0902,13.80828,10.39,-0.54,3.59,2.0
1758076842.17859,1758076842.15604,0.0,0.0,0.0,30.36677,-15.06879,13.5218,9.88,0.45,2.59,2.0
1758076842.18402,1758076842.16604,0.0,0.0,0.0,26.06958,-5.27121,11.17268,9.88,0.45,2.59,2.0
1758076842.19874,1758076842.17604,0.0,0.0,0.0,18.16276,10.8289,8.36518,10.48,1.28,2.29,2.0
1758076842.20403,1758076842.18604,0.0,0.0,0.0,12.49048,20.85567,5.21392,10.73,1.68,2.05,2.0
1758076842.21869,1758076842.19604,0.0,0.0,0.0,6.8182,29.22085,2.00535,10.73,1.68,2.05,2.0
1758076842.23862,1758076842.20604,0.0,0.0,0.0,-0.34377,39.19032,-2.29183,10.2,1.56,1.57,2.0
1758076842.23906,1758076842.21604,0.0,0.0,0.0,-3.89611,44.63341,-4.52637,10.2,1.56,1.57,2.0
1758076842.2442,1758076842.22604,0.0,0.0,0.0,-6.47442,48.64412,-6.41713,9.7,1.26,1.39,2.0
1758076842.24986,1758076842.23604,0.0,0.0,0.0,-8.30789,50.93595,-7.73493,9.7,1.26,1.39,2.0
1758076842.26918,1758076842.24604,0.0,0.0,0.0,-9.62569,52.08187,-9.22462,9.22,0.81,1.72,2.0
1758076842.27434,1758076842.25604,0.0,0.0,0.0,-9.68299,51.39432,-9.33921,8.91,0.31,2.21,2.0
1758076842.28971,1758076842.26604,0.0,0.0,0.0,-9.5684,51.85268,-9.74028,8.91,0.31,2.21,2.0
1758076842.29395,1758076842.27604,0.0,0.0,0.0,-8.70896,51.5662,-9.68299,8.94,-0.18,2.23,2.0
1758076842.30969,1758076842.28604,0.0,0.0,0.0,-6.7609,47.26902,-9.85487,8.94,-0.18,2.23,2.0
1758076842.31464,1758076842.29604,0.0,0.0,0.0,-4.98473,43.60209,-9.22462,8.5,-0.52,2.13,2.0
1758076842.33397,1758076842.30604,0.0,0.0,0.0,-3.20856,40.96649,-8.25059,8.5,-0.52,2.13,2.0
1758076842.33757,1758076842.31604,0.0,0.0,0.0,-1.60428,38.38818,-7.33386,8.56,-0.72,2.09,2.0
1758076842.33795,1758076842.32604,0.0,0.0,0.0,0.0,35.40879,-6.35983,8.56,-0.65,2.01,2.0
1758076842.35347,1758076842.33604,0.0,0.0,0.0,0.74485,31.85646,-5.55769,8.56,-0.65,2.01,2.0
1758076842.36969,1758076842.34604,0.0,0.0,0.0,0.97403,27.33009,-4.98473,8.38,-0.39,1.98,2.0
1758076842.37472,1758076842.35604,0.0,0.0,0.0,1.03132,22.86102,-4.58366,8.38,-0.39,1.98,2.0
1758076842.39371,1758076842.36604,0.0,0.0,0.0,0.51566,17.6471,-4.46907,8.63,-0.05,1.69,2.0
1758076842.39507,1758076842.37604,0.0,0.0,0.0,0.17189,14.61043,-4.35448,8.63,-0.05,1.69,2.0
1758076842.4137,1758076842.38604,0.0,0.0,0.0,-0.34377,11.63104,-4.18259,8.81,0.24,1.45,2.0
1758076842.41465,1758076842.39604,0.0,0.0,0.0,-1.66158,8.47978,-3.89611,8.81,0.24,1.45,2.0
1758076842.43348,1758076842.40604,0.0,0.0,0.0,-2.97938,4.35448,-3.95341,8.76,0.39,1.38,2.0
1758076842.43541,1758076842.41604,0.0,0.0,0.0,-4.46907,3.55234,-4.52637,8.81,0.32,1.31,2.0
1758076842.45397,1758076842.42604,0.0,0.0,0.0,-5.78687,3.55234,-4.64096,8.81,0.32,1.31,2.0
1758076842.45568,1758076842.43604,0.0,0.0,0.0,-7.62034,3.95341,-4.98473,9.03,0.0,1.3,2.0
1758076842.47685,1758076842.44604,0.0,0.0,0.0,-8.65166,3.38045,-5.15662,9.03,0.0,1.3,2.0
1758076842.47847,1758076842.45604,0.0,0.0,0.0,-9.22462,2.63561,-4.58366,9.11,-0.44,1.3,2.0
1758076842.47884,1758076842.46604,0.0,0.0,0.0,-9.5684,1.08862,-3.89611,9.11,-0.44,1.3,2.0
1758076842.50394,1758076842.47604,0.0,0.0,0.0,-9.28192,-1.14592,-2.11994,9.12,-0.74,1.15,2.0
1758076842.51448,1758076842.48604,0.0,0.0,0.0,-8.99544,-4.58366,-0.97403,9.13,-1.09,0.94,2.0
1758076842.51506,1758076842.49604,0.0,0.0,0.0,-9.28192,-7.33386,0.0,9.13,-1.09,0.94,2.0
1758076842.51739,1758076842.50604,0.0,0.0,0.0,-9.4538,-9.68299,1.83346,9.45,-0.8,0.99,2.0
1758076842.53411,1758076842.51604,0.0,0.0,0.0,-9.85487,-16.10011,3.60963,9.45,-0.8,0.99,2.0
1758076842.55488,1758076842.52604,0.0,0.0,0.0,-10.8862,-19.88164,3.72423,9.61,-0.39,0.68,2.0
1758076842.55814,1758076842.53604,0.0,0.0,0.0,-12.49048,-22.40265,3.89611,9.61,-0.39,0.68,2.0
1758076842.56668,1758076842.54604,0.0,0.0,0.0,-14.78231,-23.66316,3.26586,10.23,0.14,0.76,2.0
1758076842.58451,1758076842.55604,0.0,0.0,0.0,-18.73572,-25.89769,1.48969,10.58,0.28,0.59,2.0
1758076842.60932,1758076842.56604,0.0,0.0,0.0,-21.37133,-26.18417,-0.0573,10.58,0.28,0.59,2.0
1758076842.61135,1758076842.57604,0.0,0.0,0.0,-23.89234,-26.01229,-1.48969,10.91,-0.06,0.52,2.0
1758076842.61432,1758076842.58604,0.0,0.0,0.0,-26.52795,-24.80907,-3.03668,10.91,-0.06,0.52,2.0
1758076842.61774,1758076842.59604,0.0,0.0,0.0,-30.02299,-20.11082,-3.66693,11.15,-0.29,-0.25,2.0
1758076842.61942,1758076842.60604,0.0,0.0,0.0,-32.42941,-15.75634,-3.95341,11.15,-0.29,-0.25,2.0
1758076842.63852,1758076842.61604,0.0,0.0,0.0,-34.77854,-11.00079,-3.83882,11.15,-0.26,-0.53,2.0
1758076842.63999,1758076842.62604,0.0,0.0,0.0,-37.29956,-4.46907,-3.83882,11.15,-0.26,-0.53,2.0
1758076842.65682,1758076842.63604,0.0,0.0,0.0,-37.98711,-4.64096,-4.29718,11.61,-0.23,0.07,2.0
1758076842.65766,1758076842.64604,0.0,0.0,0.0,-38.15899,-9.11003,-5.27121,11.36,-0.11,1.49,2.0
1758076842.67333,1758076842.65604,0.0,0.0,0.0,-37.47144,-16.61578,-6.99009,11.36,-0.11,1.49,2.0
1758076842.6897,1758076842.66604,0.0,0.0,0.0,-35.2369,-33.80451,-10.71431,10.73,0.11,2.51,2.0
1758076842.69396,1758076842.67604,0.0,0.0,0.0,-31.91375,-40.50812,-14.83961,10.73,0.11,2.51,2.0
1758076842.71289,1758076842.68604,0.0,0.0,0.0,-26.01229,-43.4875,-18.10547,11.54,-0.44,3.01,2.0
1758076842.71574,1758076842.69604,0.0,0.0,0.0,-20.62648,-59.64491,-23.54857,11.54,-0.44,3.01,2.0
1758076842.73364,1758076842.70604,0.0,0.0,0.0,-11.91752,-82.90699,-30.59595,10.59,-1.31,2.98,2.0
1758076842.73534,1758076842.71604,0.0,0.0,0.0,-8.30789,-84.2248,-32.20023,10.49,-0.47,2.17,2.0
1758076842.75372,1758076842.72604,0.0,0.0,0.0,-4.29718,-75.28666,-30.82513,10.49,-0.47,2.17,2.0
1758076842.75493,1758076842.73604,0.0,0.0,0.0,-1.71887,-64.85883,-27.33009,10.61,0.43,1.79,2.0
1758076842.79371,1758076842.74604,0.0,0.0,0.0,-4.1253,-49.27437,-20.74107,10.61,0.43,1.79,2.0
1758076842.79488,1758076842.75604,0.0,0.0,0.0,-9.11003,-39.82057,-17.76169,9.74,0.69,3.51,2.0
1758076842.79788,1758076842.76604,0.0,0.0,0.0,-15.46986,-30.53865,-15.98552,9.74,0.69,3.51,2.0
1758076842.79911,1758076842.77604,0.0,0.0,0.0,-21.60051,-23.89234,-14.43854,9.48,0.15,4.56,2.0
1758076842.80375,1758076842.78604,0.0,0.0,0.0,-27.73116,-16.90226,-12.43318,9.87,-0.44,2.77,2.0
1758076842.81346,1758076842.79604,0.0,0.0,0.0,-29.62192,-10.37054,-11.45916,9.87,-0.44,2.77,2.0
1758076842.82982,1758076842.80604,0.0,0.0,0.0,-29.96569,-2.7502,-10.65701,11.22,-1.07,2.0,2.0
1758076842.83579,1758076842.81604,0.0,0.0,0.0,-28.01764,8.59437,-10.02676,11.22,-1.07,2.0,2.0
1758076842.87384,1758076842.82604,0.0,0.0,0.0,-25.7831,15.75634,-9.74028,11.66,-1.29,1.77,2.0
1758076842.87592,1758076842.83604,0.0,0.0,0.0,-23.0329,22.91831,-8.93814,11.66,-1.29,1.77,2.0
1758076842.87867,1758076842.84604,0.0,0.0,0.0,-20.3973,28.24682,-7.62034,11.38,-1.07,1.66,2.0
1758076842.88389,1758076842.85604,0.0,0.0,0.0,-16.67307,36.03905,-5.72958,11.38,-1.07,1.66,2.0
1758076842.88877,1758076842.86604,0.0,0.0,0.0,-14.83961,39.4768,-3.95341,10.64,-1.0,1.14,2.0
1758076842.89323,1758076842.87604,0.0,0.0,0.0,-16.50119,39.4195,-3.09397,9.85,-1.27,1.0,2.0
1758076842.9088,1758076842.88604,0.0,0.0,0.0,-14.38124,40.85189,-1.83346,9.85,-1.27,1.0,2.0
1758076842.91166,1758076842.89604,0.0,0.0,0.0,-11.22997,39.01843,1.3751,8.99,-1.15,0.84,2.0
1758076842.9292,1758076842.90604,0.0,0.0,0.0,-7.73493,37.58603,3.89611,8.99,-1.15,0.84,2.0
1758076842.93413,1758076842.91604,0.0,0.0,0.0,-3.89611,36.49741,6.58902,8.09,-1.23,1.76,2.0
1758076842.95391,1758076842.92604,0.0,0.0,0.0,-0.45837,33.63263,8.25059,8.09,-1.23,1.76,2.0
1758076842.95572,1758076842.93604,0.0,0.0,0.0,2.86479,28.24682,9.28192,8.06,-1.29,1.2,2.0
1758076842.97157,1758076842.94604,0.0,0.0,0.0,4.29718,24.57989,9.05273,8.36,-1.08,0.92,2.0
1758076842.97495,1758076842.95604,0.0,0.0,0.0,4.81285,21.60051,8.02141,8.36,-1.08,0.92,2.0
1758076842.99138,1758076842.96604,0.0,0.0,0.0,4.64096,18.44924,6.70361,8.66,-0.57,1.03,2.0
1758076842.99255,1758076842.97604,0.0,0.0,0.0,3.09397,13.80828,4.23989,8.66,-0.57,1.03,2.0
1758076843.00835,1758076842.98604,0.0,0.0,0.0,1.48969,10.08406,2.6929,8.68,0.05,1.2,2.0
1758076843.00954,1758076842.99604,0.0,0.0,0.0,-0.34377,7.16197,1.48969,8.68,0.05,1.2,2.0
1758076843.02733,1758076843.00604,0.0,0.0,0.0,-3.89611,4.58366,0.11459,8.66,0.55,1.01,2.0
1758076843.03391,1758076843.01604,0.0,0.0,0.0,-6.35983,1.71887,0.0573,8.66,0.69,0.73,2.0
1758076843.04949,1758076843.02604,0.0,0.0,0.0,-8.76626,0.74485,0.22918,8.66,0.69,0.73,2.0
1758076843.05389,1758076843.03604,0.0,0.0,0.0,-10.94349,0.0573,0.51566,8.75,0.34,0.57,2.0
1758076843.06976,1758076843.04604,0.0,0.0,0.0,-13.40721,-0.85944,1.43239,8.75,0.34,0.57,2.0
1758076843.07453,1758076843.05604,0.0,0.0,0.0,-14.03747,-1.08862,1.77617,8.82,-0.22,0.44,2.0
1758076843.08949,1758076843.06604,0.0,0.0,0.0,-13.80828,-1.14592,1.94806,8.82,-0.22,0.44,2.0
1758076843.09227,1758076843.07604,0.0,0.0,0.0,-13.00614,-0.0573,1.60428,8.99,-0.65,0.34,2.0
1758076843.10755,1758076843.08604,0.0,0.0,0.0,-10.37054,2.86479,0.68755,9.25,-0.65,0.08,2.0
1758076843.1087,1758076843.09604,0.0,0.0,0.0,-8.30789,3.60963,-0.11459,9.25,-0.9,0.08,2.0
1758076843.12353,1758076843.10604,0.0,0.0,0.0,-5.90147,3.83882,-0.85944,9.25,-0.85,0.02,2.0
1758076843.1288,1758076843.11604,0.0,0.0,0.0,-3.38045,4.23989,-1.66158,9.25,-0.85,0.02,2.0
1758076843.14656,1758076843.12604,0.0,0.0,0.0,0.17189,6.35983,-2.57831,9.54,-0.79,-0.13,2.0
1758076843.15399,1758076843.13604,0.0,0.0,0.0,2.6929,8.02141,-3.09397,9.54,-0.79,-0.13,2.0
1758076843.16883,1758076843.14604,0.0,0.0,0.0,5.50039,8.88085,-3.26586,9.97,-0.78,-0.01,2.0
1758076843.17395,1758076843.15604,0.0,0.0,0.0,8.30789,9.22462,-3.38045,9.97,-0.78,-0.01,2.0
1758076843.18885,1758076843.16604,0.0,0.0,0.0,13.00614,7.21927,-3.09397,10.33,-0.8,0.31,2.0
1758076843.19381,1758076843.17604,0.0,0.0,0.0,16.55848,5.32851,-2.46372,10.56,-0.8,0.23,2.0
1758076843.20852,1758076843.18604,0.0,0.0,0.0,20.34,2.23454,-2.00535,10.56,-0.8,0.23,2.0
1758076843.21237,1758076843.19604,0.0,0.0,0.0,24.80907,-0.17189,-1.60428,10.57,-0.91,-0.16,2.0
1758076843.2283,1758076843.20604,0.0,0.0,0.0,31.79916,-4.29718,-1.48969,10.57,-0.91,-0.16,2.0
1758076843.2295,1758076843.21604,0.0,0.0,0.0,36.49741,-9.05273,-1.08862,10.39,-1.1,-0.62,2.0
1758076843.24881,1758076843.22604,0.0,0.0,0.0,40.16434,-14.72501,-0.51566,10.39,-1.1,-0.62,2.0
1758076843.25338,1758076843.23604,0.0,0.0,0.0,42.62806,-26.41335,2.34913,10.65,-1.33,0.1,2.0
1758076843.26885,1758076843.24604,0.0,0.0,0.0,40.96649,-38.1017,6.70361,12.29,-0.9,2.74,2.0
1758076843.27391,1758076843.25604,0.0,0.0,0.0,36.03905,-47.89928,12.60507,12.29,-0.9,2.74,2.0
1758076843.28885,1758076843.26604,0.0,0.0,0.0,29.33544,-49.90463,19.19409,14.26,0.52,4.21,2.0
1758076843.29375,1758076843.27604,0.0,0.0,0.0,19.48057,-43.4875,24.80907,14.26,0.52,4.21,2.0
1758076843.30881,1758076843.28604,0.0,0.0,0.0,15.24068,-39.4195,25.26744,13.44,1.35,2.62,2.0
1758076843.31387,1758076843.29604,0.0,0.0,0.0,13.17803,-38.21629,24.12152,13.44,1.35,2.62,2.0
1758076843.32882,1758076843.30604,0.0,0.0,0.0,12.49048,-38.15899,21.31403,10.87,0.9,2.02,2.0
1758076843.33392,1758076843.31604,0.0,0.0,0.0,15.35527,-44.17505,16.04282,9.69,-0.39,3.19,2.0
1758076843.3488,1758076843.32604,0.0,0.0,0.0,18.9649,-46.69606,11.97482,9.69,-0.39,3.19,2.0
1758076843.35375,1758076843.33604,0.0,0.0,0.0,22.86102,-45.43555,8.25059,10.01,-1.46,3.84,2.0
1758076843.36862,1758076843.34604,0.0,0.0,0.0,28.07493,-42.39888,7.04738,10.01,-1.46,3.84,2.0
1758076843.37376,1758076843.35604,0.0,0.0,0.0,33.11696,-43.77398,5.95876,9.84,-1.62,3.35,2.0
1758076843.3893,1758076843.36604,0.0,0.0,0.0,38.78925,-48.58683,7.73493,9.84,-1.62,3.35,2.0
1758076843.3963,1758076843.37604,0.0,0.0,0.0,43.31561,-53.05589,9.74028,8.42,-1.29,2.61,2.0
1758076843.42404,1758076843.38604,0.0,0.0,0.0,46.69606,-46.1804,12.54778,8.42,-1.29,2.61,2.0
1758076843.4495,1758076843.39604,0.0,0.0,0.0,47.09713,-26.81443,11.17268,11.2,-0.98,2.24,2.0
1758076843.4538,1758076843.40604,0.0,0.0,0.0,45.43555,-15.06879,9.85487,12.06,0.09,1.88,2.0
1758076843.45502,1758076843.41604,0.0,0.0,0.0,42.22699,-4.92744,8.0787,12.06,0.09,1.88,2.0
1758076843.45726,1758076843.42604,0.0,0.0,0.0,34.60666,5.84417,4.87014,10.88,1.02,0.96,2.0
1758076843.45851,1758076843.43604,0.0,0.0,0.0,28.01764,22.05888,2.23454,10.88,1.02,0.96,2.0
1758076843.45914,1758076843.44604,0.0,0.0,0.0,20.68378,31.45539,0.0573,10.24,1.76,0.29,2.0
1758076843.47736,1758076843.45604,0.0,0.0,0.0,13.80828,38.90384,-1.08862,10.24,1.76,0.29,2.0
1758076843.47896,1758076843.46604,0.0,0.0,0.0,5.15662,46.06581,-2.23454,9.87,2.07,0.5,2.0
1758076843.49358,1758076843.47604,0.0,0.0,0.0,0.97403,47.38361,-1.71887,9.5,1.62,0.69,2.0
1758076843.51063,1758076843.48604,0.0,0.0,0.0,-1.3751,48.64412,-0.80214,9.5,1.62,0.69,2.0
1758076843.51403,1758076843.49604,0.0,0.0,0.0,-3.09397,50.13381,-0.57296,9.61,0.75,0.89,2.0
1758076843.53071,1758076843.50604,0.0,0.0,0.0,-3.49504,50.59217,-0.0573,9.61,0.75,0.89,2.0
1758076843.53395,1758076843.51604,0.0,0.0,0.0,-2.7502,49.15978,0.11459,9.55,0.03,1.27,2.0
1758076843.55066,1758076843.52604,0.0,0.0,0.0,-1.77617,47.72739,0.17189,9.55,0.03,1.27,2.0
1758076843.55392,1758076843.53604,0.0,0.0,0.0,-0.80214,46.00851,-0.0573,9.09,-0.31,1.57,2.0
1758076843.57066,1758076843.54604,0.0,0.0,0.0,0.68755,42.74266,-0.45837,8.52,-0.29,1.33,2.0
1758076843.57396,1758076843.55604,0.0,0.0,0.0,0.97403,40.7373,-0.74485,8.52,-0.29,1.33,2.0
1758076843.59032,1758076843.56604,0.0,0.0,0.0,0.57296,38.61736,-1.14592,8.13,-0.08,1.35,2.0
1758076843.59399,1758076843.57604,0.0,0.0,0.0,-0.34377,35.92446,-1.20321,8.13,-0.08,1.35,2.0
1758076843.61378,1758076843.58604,0.0,0.0,0.0,-2.7502,28.59059,-1.3751,7.82,0.27,1.27,2.0
1758076843.61672,1758076843.59604,0.0,0.0,0.0,-4.58366,23.54857,-1.03132,7.82,0.27,1.27,2.0
1758076843.6171,1758076843.60604,0.0,0.0,0.0,-6.58902,18.9649,-0.97403,7.86,0.61,1.15,2.0
1758076843.63364,1758076843.61604,0.0,0.0,0.0,-8.59437,15.0115,-0.85944,7.86,0.61,1.15,2.0
1758076843.65038,1758076843.62604,0.0,0.0,0.0,-11.45916,8.0787,-1.20321,8.11,0.78,0.86,2.0
1758076843.65314,1758076843.63604,0.0,0.0,0.0,-13.34992,4.46907,-2.29183,8.35,0.67,0.76,2.0
1758076843.66886,1758076843.64604,0.0,0.0,0.0,-14.83961,3.55234,-3.60963,8.35,0.67,0.76,2.0
1758076843.67391,1758076843.65604,0.0,0.0,0.0,-16.55848,4.1253,-5.78687,8.96,0.26,0.56,2.0
1758076843.68888,1758076843.66604,0.0,0.0,0.0,-16.95955,4.1253,-6.7609,8.96,0.26,0.56,2.0
1758076843.69393,1758076843.67604,0.0,0.0,0.0,-17.18874,3.38045,-7.44845,9.13,-0.22,0.64,2.0
1758076843.70889,1758076843.68604,0.0,0.0,0.0,-17.36062,2.23454,-7.62034,9.13,-0.22,0.64,2.0
1758076843.71392,1758076843.69604,0.0,0.0,0.0,-17.24603,0.51566,-6.8182,9.14,-0.53,0.57,2.0
1758076843.72891,1758076843.70604,0.0,0.0,0.0,-17.13144,-1.03132,-5.95876,9.24,-0.58,0.51,2.0
1758076843.7338,1758076843.71604,0.0,0.0,0.0,-17.01685,-2.92208,-5.09932,9.24,-0.58,0.51,2.0
1758076843.74888,1758076843.72604,0.0,0.0,0.0,-16.90226,-5.32851,-4.35448,9.43,-0.39,0.55,2.0
1758076843.75379,1758076843.73604,0.0,0.0,0.0,-17.36062,-8.76626,-3.66693,9.43,-0.39,0.55,2.0
1758076843.76891,1758076843.74604,0.0,0.0,0.0,-17.87628,-11.80293,-3.55234,9.76,-0.07,0.58,2.0
1758076843.77379,1758076843.75604,0.0,0.0,0.0,-18.62113,-14.61043,-3.72423,9.76,-0.07,0.58,2.0
1758076843.78887,1758076843.76604,0.0,0.0,0.0,-19.48057,-16.55848,-4.18259,10.06,0.11,0.58,2.0
1758076843.79382,1758076843.77604,0.0,0.0,0.0,-21.02755,-18.56383,-5.21392,10.33,0.13,0.5,2.0
1758076843.80887,1758076843.78604,0.0,0.0,0.0,-22.05888,-21.37133,-6.07335,10.33,0.13,0.5,2.0
1758076843.81461,1758076843.79604,0.0,0.0,0.0,-23.49127,-24.63719,-6.87549,10.37,-0.03,0.37,2.0
1758076843.83395,1758076843.80604,0.0,0.0,0.0,-24.75178,-26.41335,-7.62034,10.37,-0.03,0.37,2.0
1758076843.83495,1758076843.81604,0.0,0.0,0.0,-27.04361,-24.5226,-8.59437,10.93,-0.22,-0.14,2.0
1758076843.85327,1758076843.82604,0.0,0.0,0.0,-28.476,-20.85567,-8.99544,10.93,-0.22,-0.14,2.0
1758076843.85445,1758076843.83604,0.0,0.0,0.0,-29.67921,-16.50119,-8.93814,11.68,-0.37,-0.69,2.0
1758076843.87376,1758076843.84604,0.0,0.0,0.0,-30.76784,-12.08941,-8.0787,11.68,-0.37,-0.69,2.0
1758076843.87633,1758076843.85604,0.0,0.0,0.0,-31.11161,-6.58902,-7.39116,12.07,-0.44,-0.56,2.0
1758076843.87696,1758076843.86604,0.0,0.0,0.0,-30.48136,-5.15662,-6.58902,12.59,-0.53,-0.12,2.0
1758076843.89358,1758076843.87604,0.0,0.0,0.0,-29.33544,-6.58902,-6.13065,12.59,-0.53,-0.12,2.0
1758076843.91397,1758076843.88604,0.0,0.0,0.0,-27.73116,-14.03747,-6.07335,12.06,-0.59,0.58,2.0
1758076843.9161,1758076843.89604,0.0,0.0,0.0,-26.41335,-23.49127,-6.35983,12.06,-0.59,0.58,2.0
1758076843.93392,1758076843.90604,0.0,0.0,0.0,-25.61122,-34.09099,-8.0787,10.76,-0.42,0.83,2.0
1758076843.93495,1758076843.91604,0.0,0.0,0.0,-24.29341,-41.94051,-8.99544,10.76,-0.42,0.83,2.0
1758076843.95398,1758076843.92604,0.0,0.0,0.0,-22.97561,-49.84733,-11.86023,11.26,-0.01,1.83,2.0
1758076843.95496,1758076843.93604,0.0,0.0,0.0,-21.25674,-56.78012,-13.34992,11.78,0.21,3.11,2.0
1758076843.97392,1758076843.94604,0.0,0.0,0.0,-20.68378,-68.98412,-16.67307,11.78,0.21,3.11,2.0
1758076843.9752,1758076843.95604,0.0,0.0,0.0,-20.51189,-73.68237,-17.30333,10.59,0.97,3.6,2.0
1758076843.99393,1758076843.96604,0.0,0.0,0.0,-23.60586,-70.58841,-16.38659,10.59,0.97,3.6,2.0
1758076843.9952,1758076843.97604,0.0,0.0,0.0,-28.99167,-65.66096,-15.75634,9.33,1.1,2.82,2.0
1758076844.01375,1758076843.98604,0.0,0.0,0.0,-34.95043,-58.09792,-14.49583,9.33,1.1,2.82,2.0
1758076844.01498,1758076843.99604,0.0,0.0,0.0,-41.36755,-50.2484,-14.43854,8.62,0.7,3.12,2.0
1758076844.05395,1758076844.00604,0.0,0.0,0.0,-49.96192,-41.13837,-15.58445,9.4,0.32,3.81,2.0
1758076844.05852,1758076844.01604,0.0,0.0,0.0,-53.17049,-33.40344,-16.55848,9.4,0.32,3.81,2.0
1758076844.0639,1758076844.02604,0.0,0.0,0.0,-53.91533,-24.5226,-17.58981,11.24,-0.22,2.82,2.0
1758076844.06908,1758076844.03604,0.0,0.0,0.0,-52.42564,-16.10011,-17.87628,11.24,-0.22,2.82,2.0
1758076844.07025,1758076844.04604,0.0,0.0,0.0,-47.38361,-3.20856,-17.13144,12.22,-0.71,1.46,2.0
1758076844.07586,1758076844.05604,0.0,0.0,0.0,-43.14373,6.18794,-15.29797,12.22,-0.71,1.46,2.0
1758076844.09394,1758076844.06604,0.0,0.0,0.0,-37.98711,15.06879,-12.43318,12.48,-0.86,0.75,2.0
1758076844.09684,1758076844.07604,0.0,0.0,0.0,-30.59595,28.13223,-7.10468,12.48,-0.86,0.75,2.0
1758076844.09724,1758076844.08604,0.0,0.0,0.0,-25.26744,34.09099,-2.92208,11.73,-0.83,0.56,2.0
1758076844.11365,1758076844.09604,0.0,0.0,0.0,-20.51189,42.28429,-0.0573,10.62,-1.23,0.64,2.0
1758076844.13059,1758076844.10604,0.0,0.0,0.0,-16.55848,48.01387,3.09397,10.62,-1.23,0.64,2.0
1758076844.13585,1758076844.11604,0.0,0.0,0.0,-11.74564,52.82671,6.18794,9.68,-1.54,0.53,2.0
1758076844.15391,1758076844.12604,0.0,0.0,0.0,-9.05273,54.3164,7.73493,9.68,-1.54,0.53,2.0
1758076844.15522,1758076844.13604,0.0,0.0,0.0,-6.53172,54.94666,8.59437,9.18,-1.76,0.6,2.0
1758076844.17391,1758076844.14604,0.0,0.0,0.0,-4.58366,53.39967,9.05273,9.18,-1.76,0.6,2.0
1758076844.17521,1758076844.15604,0.0,0.0,0.0,-2.40642,50.1911,8.99544,8.85,-1.59,0.49,2.0
1758076844.19394,1758076844.16604,0.0,0.0,0.0,-1.20321,48.70141,8.59437,8.76,-1.06,0.54,2.0
1758076844.19603,1758076844.17604,0.0,0.0,0.0,-0.51566,47.72739,8.136,8.76,-1.06,0.54,2.0
1758076844.21089,1758076844.18604,0.0,0.0,0.0,0.0573,47.26902,7.44845,8.73,-0.43,0.5,2.0
1758076844.21576,1758076844.19604,0.0,0.0,0.0,0.11459,45.26366,6.8182,8.73,-0.43,0.5,2.0
1758076844.21746,1758076844.20604,0.0,0.0,0.0,-0.11459,42.91454,6.41713,8.47,0.14,0.58,2.0
1758076844.23366,1758076844.21604,0.0,0.0,0.0,-0.85944,39.87786,5.95876,8.47,0.14,0.58,2.0
1758076844.24982,1758076844.22604,0.0,0.0,0.0,-2.23454,36.61201,5.78687,8.32,0.47,0.66,2.0
1758076844.25401,1758076844.23604,0.0,0.0,0.0,-5.15662,31.16891,4.98473,8.34,0.58,0.57,2.0
1758076844.2698,1758076844.24604,0.0,0.0,0.0,-7.79223,27.78845,4.1253,8.34,0.58,0.57,2.0
1758076844.27346,1758076844.25604,0.0,0.0,0.0,-10.65701,25.21014,3.03668,8.53,0.47,0.59,2.0
1758076844.28888,1758076844.26604,0.0,0.0,0.0,-14.49583,21.94428,1.20321,8.53,0.47,0.59,2.0
1758076844.29394,1758076844.27604,0.0,0.0,0.0,-16.3293,18.90761,-0.0573,8.56,0.25,0.43,2.0
1758076844.30878,1758076844.28604,0.0,0.0,0.0,-17.36062,15.87093,-1.08862,8.56,0.25,0.43,2.0
1758076844.31254,1758076844.29604,0.0,0.0,0.0,-17.36062,11.97482,-1.83346,8.51,-0.16,0.16,2.0
1758076844.3279,1758076844.30604,0.0,0.0,0.0,-15.87093,8.36518,-2.00535,8.51,-0.16,0.16,2.0
1758076844.32962,1758076844.31604,0.0,0.0,0.0,-14.38124,8.59437,-1.94806,8.72,-0.6,-0.14,2.0
1758076844.34889,1758076844.32604,0.0,0.0,0.0,-12.60507,9.5684,-1.83346,9.2,-0.79,-0.16,2.0
1758076844.35224,1758076844.33604,0.0,0.0,0.0,-10.65701,10.65701,-1.71887,9.2,-0.79,-0.16,2.0
1758076844.36789,1758076844.34604,0.0,0.0,0.0,-7.50575,12.54778,-1.60428,9.26,-0.82,0.11,2.0
1758076844.36964,1758076844.35604,0.0,0.0,0.0,-5.09932,13.86558,-1.3751,9.26,-0.82,0.11,2.0
1758076844.38488,1758076844.36604,0.0,0.0,0.0,-2.40642,13.86558,-0.74485,9.29,-0.89,0.14,2.0
1758076844.39396,1758076844.37604,0.0,0.0,0.0,-0.22918,13.23533,0.40107,9.29,-0.89,0.14,2.0
1758076844.40887,1758076844.38604,0.0,0.0,0.0,2.40642,10.54242,3.20856,9.18,-0.89,0.35,2.0
1758076844.41384,1758076844.39604,0.0,0.0,0.0,4.64096,7.79223,5.4431,9.28,-0.95,0.35,2.0
1758076844.42861,1758076844.40604,0.0,0.0,0.0,7.21927,4.58366,7.21927,9.28,-0.95,0.35,2.0
1758076844.43381,1758076844.41604,0.0,0.0,0.0,9.33921,-0.80214,8.65166,9.25,-0.93,-0.18,2.0
1758076844.44884,1758076844.42604,0.0,0.0,0.0,11.57375,-7.21927,8.65166,9.25,-0.93,-0.18,2.0
1758076844.45331,1758076844.43604,0.0,0.0,0.0,14.61043,-5.50039,8.47978,9.8,-0.72,-0.33,2.0
1758076844.46858,1758076844.44604,0.0,0.0,0.0,17.36062,-1.94806,7.44845,9.8,-0.72,-0.33,2.0
1758076844.47329,1758076844.45604,0.0,0.0,0.0,20.22541,4.52637,7.16197,11.18,-0.72,-0.19,2.0
1758076844.48891,1758076844.46604,0.0,0.0,0.0,25.7831,9.74028,6.70361,11.78,-0.81,0.22,2.0
1758076844.49497,1758076844.47604,0.0,0.0,0.0,28.87707,8.59437,6.87549,11.78,-0.81,0.22,2.0
1758076844.51126,1758076844.48604,0.0,0.0,0.0,31.11161,3.66693,7.10468,11.53,-0.96,0.9,2.0
1758076844.51583,1758076844.49604,0.0,0.0,0.0,30.82513,-9.4538,8.02141,11.53,-0.96,0.9,2.0
1758076844.53389,1758076844.50604,0.0,0.0,0.0,27.96034,-19.13679,9.5684,12.09,-0.87,2.05,2.0
1758076844.53573,1758076844.51604,0.0,0.0,0.0,23.54857,-27.2155,11.97482,12.09,-0.87,2.05,2.0
1758076844.55173,1758076844.52604,0.0,0.0,0.0,17.30333,-32.20023,15.41257,13.46,-0.24,4.02,2.0
1758076844.55417,1758076844.53604,0.0,0.0,0.0,7.96411,-37.01308,19.07949,13.21,-0.24,3.72,2.0
1758076844.56958,1758076844.54604,0.0,0.0,0.0,4.64096,-45.72203,21.6578,13.21,0.66,3.72,2.0
1758076844.57317,1758076844.55604,0.0,0.0,0.0,0.80214,-52.71212,20.3973,10.43,0.83,2.14,2.0
1758076844.58889,1758076844.56604,0.0,0.0,0.0,-0.40107,-61.99404,18.56383,10.43,0.83,2.14,2.0
1758076844.59141,1758076844.57604,0.0,0.0,0.0,2.23454,-72.0208,14.72501,8.97,-0.39,1.24,2.0
1758076844.60664,1758076844.58604,0.0,0.0,0.0,6.70361,-72.82294,11.91752,8.97,-0.39,1.24,2.0
1758076844.60941,1758076844.59604,0.0,0.0,0.0,13.34992,-69.84356,8.99544,9.86,-1.59,2.42,2.0
1758076844.62684,1758076844.60604,0.0,0.0,0.0,21.08485,-67.09336,7.50575,9.86,-1.59,2.42,2.0
1758076844.63343,1758076844.61604,0.0,0.0,0.0,32.71589,-58.90006,8.47978,10.38,-2.22,4.18,2.0
1758076844.64865,1758076844.62604,0.0,0.0,0.0,38.90384,-50.59217,10.8289,10.91,-2.07,4.14,2.0
1758076844.65385,1758076844.63604,0.0,0.0,0.0,43.14373,-41.48215,13.06344,10.91,-2.07,4.14,2.0
1758076844.68905,1758076844.64604,0.0,0.0,0.0,45.55015,-32.83048,15.29797,10.82,-1.25,2.92,2.0
1758076844.69843,1758076844.65604,0.0,0.0,0.0,45.43555,-16.84496,15.69904,10.82,-1.25,2.92,2.0
1758076844.69884,1758076844.66604,0.0,0.0,0.0,43.54479,-4.18259,14.20935,11.22,0.07,1.8,2.0
1758076844.70429,1758076844.67604,0.0,0.0,0.0,40.85189,8.76626,12.43318,11.22,0.07,1.8,2.0
1758076844.70863,1758076844.68604,0.0,0.0,0.0,35.98175,25.8404,8.47978,11.89,1.23,1.2,2.0
1758076844.72932,1758076844.69604,0.0,0.0,0.0,32.08564,35.12231,5.90147,11.32,1.59,0.85,2.0
1758076844.73041,1758076844.70604,0.0,0.0,0.0,27.96034,43.77398,2.97938,11.32,1.59,0.85,2.0
1758076844.73423,1758076844.71604,0.0,0.0,0.0,23.66316,51.6235,0.57296,10.4,1.42,0.74,2.0
1758076844.74985,1758076844.72604,0.0,0.0,0.0,17.81899,59.18654,-1.94806,10.4,1.42,0.74,2.0
1758076844.75347,1758076844.73604,0.0,0.0,0.0,14.15206,60.67623,-3.49504,9.25,1.06,1.04,2.0
1758076844.76887,1758076844.74604,0.0,0.0,0.0,11.11538,60.96271,-3.20856,9.25,1.06,1.04,2.0
1758076844.77382,1758076844.75604,0.0,0.0,0.0,7.73493,60.10328,-3.20856,8.88,0.69,1.7,2.0
1758076844.78885,1758076844.76604,0.0,0.0,0.0,4.1253,58.55629,-2.6929,8.7,0.27,1.64,2.0
1758076844.79399,1758076844.77604,0.0,0.0,0.0,2.29183,56.78012,-2.92208,8.7,0.27,1.64,2.0
1758076844.80889,1758076844.78604,0.0,0.0,0.0,0.80214,54.431,-3.20856,8.34,-0.03,1.51,2.0
1758076844.81384,1758076844.79604,0.0,0.0,0.0,-0.0573,51.50891,-3.49504,8.34,-0.03,1.51,2.0
1758076844.82867,1758076844.80604,0.0,0.0,0.0,-1.43239,47.32632,-4.35448,8.1,-0.21,1.35,2.0
1758076844.83237,1758076844.81604,0.0,0.0,0.0,-2.29183,44.8053,-4.98473,8.1,-0.21,1.35,2.0
1758076844.84764,1758076844.82604,0.0,0.0,0.0,-3.03668,41.48215,-5.61499,8.17,-0.23,1.28,2.0
1758076844.84959,1758076844.83604,0.0,0.0,0.0,-3.89611,37.24226,-6.47442,8.17,-0.23,1.28,2.0
1758076844.86867,1758076844.84604,0.0,0.0,0.0,-4.64096,30.65324,-7.33386,8.16,-0.12,1.27,2.0
1758076844.87403,1758076844.85604,0.0,0.0,0.0,-4.81285,25.7831,-7.39116,8.21,0.02,1.16,2.0
1758076844.88887,1758076844.86604,0.0,0.0,0.0,-4.64096,20.68378,-6.87549,8.21,0.02,1.16,2.0
1758076844.89385,1758076844.87604,0.0,0.0,0.0,-4.23989,16.10011,-5.84417,8.24,0.14,1.04,2.0
1758076844.90861,1758076844.88604,0.0,0.0,0.0,-4.0107,9.05273,-4.69825,8.24,0.14,1.04,2.0
1758076844.91387,1758076844.89604,0.0,0.0,0.0,-4.23989,5.55769,-4.23989,8.39,0.15,1.07,2.0
1758076844.9287,1758076844.90604,0.0,0.0,0.0,-4.92744,4.58366,-3.72423,8.39,0.15,1.07,2.0
1758076844.93398,1758076844.91604,0.0,0.0,0.0,-6.18794,4.98473,-3.09397,8.74,0.06,0.87,2.0
1758076844.94889,1758076844.92604,0.0,0.0,0.0,-7.44845,4.98473,-2.92208,8.86,-0.14,0.87,2.0
1758076844.95396,1758076844.93604,0.0,0.0,0.0,-8.76626,3.72423,-2.06265,8.86,-0.14,0.87,2.0
1758076844.96892,1758076844.94604,0.0,0.0,0.0,-10.48513,1.83346,-1.94806,8.87,-0.33,0.84,2.0
1758076844.97391,1758076844.95604,0.0,0.0,0.0,-13.69369,-1.20321,-2.00535,8.87,-0.33,0.84,2.0
1758076844.98891,1758076844.96604,0.0,0.0,0.0,-16.38659,-2.97938,-3.32316,8.96,-0.27,0.71,2.0
1758076844.99391,1758076844.97604,0.0,0.0,0.0,-19.25138,-4.18259,-4.87014,8.96,-0.27,0.71,2.0
1758076845.00886,1758076844.98604,0.0,0.0,0.0,-22.34536,-6.24524,-6.8182,9.23,0.17,0.81,2.0
1758076845.01387,1758076844.99604,0.0,0.0,0.0,-26.35606,-9.5684,-10.08406,9.61,0.61,0.91,2.0
1758076845.02898,1758076845.00604,0.0,0.0,0.0,-28.70519,-12.37589,-12.08941,9.61,0.61,0.91,2.0
1758076845.03386,1758076845.01604,0.0,0.0,0.0,-30.36677,-14.61043,-13.00614,10.11,0.5,0.73,2.0
1758076845.04897,1758076845.02604,0.0,0.0,0.0,-31.11161,-16.04282,-13.00614,10.11,0.5,0.73,2.0
1758076845.05334,1758076845.03604,0.0,0.0,0.0,-31.28349,-18.10547,-12.49048,10.58,-0.01,0.57,2.0
1758076845.06894,1758076845.04604,0.0,0.0,0.0,-30.88243,-21.31403,-11.63104,10.58,-0.01,0.57,2.0
1758076845.07231,1758076845.05604,0.0,0.0,0.0,-30.48136,-24.23611,-10.48513,10.47,-0.55,0.49,2.0
1758076845.08866,1758076845.06604,0.0,0.0,0.0,-30.59595,-25.09555,-9.22462,10.47,-0.55,0.49,2.0
1758076845.08955,1758076845.07604,0.0,0.0,0.0,-31.56997,-22.74642,-8.36518,10.62,-0.86,0.4,2.0
1758076845.10568,1758076845.08604,0.0,0.0,0.0,-32.42941,-19.42327,-7.50575,11.08,-1.02,0.19,2.0
1758076845.10822,1758076845.09604,0.0,0.0,0.0,-33.51803,-16.272,-6.47442,11.08,-1.02,0.19,2.0
1758076845.12364,1758076845.10604,0.0,0.0,0.0,-33.46074,-13.80828,-4.92744,11.75,-0.9,0.76,2.0
1758076845.1299,1758076845.11604,0.0,0.0,0.0,-32.42941,-15.46986,-5.21392,11.75,-0.9,0.76,2.0
1758076845.14665,1758076845.12604,0.0,0.0,0.0,-29.56462,-20.45459,-6.35983,11.91,-0.89,0.9,2.0
1758076845.15528,1758076845.13604,0.0,0.0,0.0,-25.61122,-26.81443,-8.59437,11.91,-0.89,0.9,2.0
1758076845.17397,1758076845.14604,0.0,0.0,0.0,-17.47521,-33.46074,-12.08941,11.66,-0.64,1.87,2.0
1758076845.17631,1758076845.15604,0.0,0.0,0.0,-10.8289,-41.59674,-14.20935,12.0,-0.76,1.71,2.0
1758076845.17837,1758076845.16604,0.0,0.0,0.0,-5.09932,-63.42643,-19.82434,12.0,-0.76,1.71,2.0
1758076845.19364,1758076845.17604,0.0,0.0,0.0,-2.6929,-70.6457,-24.86637,10.91,-0.98,0.91,2.0
1758076845.20964,1758076845.18604,0.0,0.0,0.0,-2.34913,-46.35228,-26.35606,10.91,-0.98,0.91,2.0
1758076845.21398,1758076845.19604,0.0,0.0,0.0,-2.40642,-30.88243,-24.92367,13.34,-0.26,0.04,2.0
1758076845.22962,1758076845.20604,0.0,0.0,0.0,-2.63561,-25.38203,-22.34536,13.34,-0.26,0.04,2.0
1758076845.23251,1758076845.21604,0.0,0.0,0.0,-4.29718,-25.72581,-18.56383,10.48,0.16,2.53,2.0
1758076845.24763,1758076845.22604,0.0,0.0,0.0,-9.91217,-28.93437,-14.15206,9.33,0.79,4.63,2.0
1758076845.24968,1758076845.23604,0.0,0.0,0.0,-15.12609,-31.39809,-13.34992,9.33,0.79,4.63,2.0
1758076845.26856,1758076845.24604,0.0,0.0,0.0,-20.22541,-31.85646,-14.38124,9.31,1.02,5.58,2.0
1758076845.27378,1758076845.25604,0.0,0.0,0.0,-25.26744,-31.39809,-16.10011,9.31,1.02,5.58,2.0
1758076845.28863,1758076845.26604,0.0,0.0,0.0,-31.91375,-30.53865,-18.73572,9.48,0.93,4.44,2.0
1758076845.29393,1758076845.27604,0.0,0.0,0.0,-34.95043,-29.67921,-18.79302,9.48,0.93,4.44,2.0
1758076845.30866,1758076845.28604,0.0,0.0,0.0,-37.58603,-26.12688,-17.01685,9.65,0.45,2.55,2.0
1758076845.30986,1758076845.29604,0.0,0.0,0.0,-40.96649,-18.22006,-12.77696,9.65,0.45,2.55,2.0
1758076845.32885,1758076845.30604,0.0,0.0,0.0,-43.37291,-2.57831,-10.02676,10.76,-0.11,0.96,2.0
1758076845.33391,1758076845.31604,0.0,0.0,0.0,-44.748,7.96411,-6.53172,11.44,-0.56,1.0,2.0
1758076845.34902,1758076845.32604,0.0,0.0,0.0,-45.55015,16.50119,-3.95341,11.44,-0.56,1.0,2.0
1758076845.34985,1758076845.33604,0.0,0.0,0.0,-44.11775,24.5226,-1.3178,11.06,-0.85,1.33,2.0
1758076845.36493,1758076845.34604,0.0,0.0,0.0,-41.71133,27.61657,-0.40107,11.06,-0.85,1.33,2.0
1758076845.36986,1758076845.35604,0.0,0.0,0.0,-38.84654,31.11161,0.17189,10.22,-1.15,0.89,2.0
1758076845.38474,1758076845.36604,0.0,0.0,0.0,-35.86716,35.58068,0.80214,10.22,-1.15,0.89,2.0
1758076845.39256,1758076845.37604,0.0,0.0,0.0,-32.08564,41.76862,1.20321,10.04,-1.31,0.8,2.0
1758076845.4088,1758076845.38604,0.0,0.0,0.0,-29.67921,44.8053,1.3751,9.54,-1.04,1.02,2.0
1758076845.41031,1758076845.39604,0.0,0.0,0.0,-27.73116,46.81066,1.43239,9.54,-1.04,1.02,2.0
1758076845.42812,1758076845.40604,0.0,0.0,0.0,-26.18417,47.44091,1.66158,8.8,-0.63,0.86,2.0
1758076845.42911,1758076845.41604,0.0,0.0,0.0,-25.21014,47.15443,1.94806,8.8,-0.63,0.86,2.0
1758076845.44488,1758076845.42604,0.0,0.0,0.0,-25.26744,46.63877,1.14592,8.37,-0.28,1.06,2.0
1758076845.46069,1758076845.43604,0.0,0.0,0.0,-25.55392,45.83662,0.34377,8.37,-0.28,1.06,2.0
1758076845.46228,1758076845.44604,0.0,0.0,0.0,-26.24147,44.51882,-0.74485,8.17,-0.04,1.09,2.0
1758076845.47788,1758076845.45604,0.0,0.0,0.0,-27.10091,41.71133,-2.63561,8.14,-0.01,1.17,2.0
1758076845.47887,1758076845.46604,0.0,0.0,0.0,-27.1582,39.99245,-3.95341,8.14,-0.01,1.17,2.0
1758076845.49389,1758076845.47604,0.0,0.0,0.0,-26.98631,37.81522,-4.81285,8.33,-0.25,1.15,2.0
1758076845.50987,1758076845.48604,0.0,0.0,0.0,-26.35606,36.15364,-5.15662,8.33,-0.25,1.15,2.0
1758076845.51087,1758076845.49604,0.0,0.0,0.0,-25.09555,33.9764,-5.15662,8.63,-0.66,1.07,2.0
1758076845.52562,1758076845.50604,0.0,0.0,0.0,-23.83505,31.97105,-4.92744,8.63,-0.66,1.07,2.0
1758076845.52797,1758076845.51604,0.0,0.0,0.0,-22.23076,28.87707,-4.64096,8.64,-1.03,0.98,2.0
1758076845.5447,1758076845.52604,0.0,0.0,0.0,-18.90761,23.49127,-4.29718,8.64,-1.03,0.98,2.0
1758076845.56073,1758076845.53604,0.0,0.0,0.0,-16.55848,18.9649,-3.89611,8.51,-1.28,0.75,2.0
1758076845.56194,1758076845.54604,0.0,0.0,0.0,-13.80828,13.5218,-3.03668,8.38,-1.45,0.61,2.0
1758076845.5777,1758076845.55604,0.0,0.0,0.0,-10.54242,8.88085,-2.23454,8.38,-1.45,0.61,2.0
1758076845.57865,1758076845.56604,0.0,0.0,0.0,-5.50039,4.18259,-0.45837,8.64,-1.48,0.29,2.0
1758076845.59364,1758076845.57604,0.0,0.0,0.0,-2.29183,3.95341,0.34377,8.64,-1.48,0.29,2.0
1758076845.6098,1758076845.58604,0.0,0.0,0.0,0.40107,4.58366,0.68755,9.27,-1.42,0.02,2.0
1758076845.61084,1758076845.59604,0.0,0.0,0.0,3.09397,4.18259,1.03132,9.27,-1.42,0.02,2.0
1758076845.62598,1758076845.60604,0.0,0.0,0.0,7.04738,1.08862,1.3178,9.64,-1.27,0.34,2.0
1758076845.62767,1758076845.61604,0.0,0.0,0.0,9.39651,-2.29183,1.20321,9.86,-1.15,0.36,2.0
1758076845.64296,1758076845.62604,0.0,0.0,0.0,11.74564,-6.24524,1.3178,9.86,-1.15,0.36,2.0
1758076845.65887,1758076845.63604,0.0,0.0,0.0,13.17803,-10.71431,1.20321,10.06,-1.04,0.23,2.0
1758076845.66222,1758076845.64604,0.0,0.0,0.0,14.72501,-16.61578,2.00535,10.06,-1.04,0.23,2.0
1758076845.67791,1758076845.65604,0.0,0.0,0.0,16.04282,-20.3973,2.57831,10.35,-1.0,0.07,2.0
1758076845.67926,1758076845.66604,0.0,0.0,0.0,17.36062,-24.63719,3.26586,10.35,-1.0,0.07,2.0
1758076845.69395,1758076845.67604,0.0,0.0,0.0,18.85031,-30.36677,4.23989,10.36,-1.13,-0.31,2.0
1758076845.70988,1758076845.68604,0.0,0.0,0.0,20.68378,-41.31026,6.35983,10.4,-1.42,0.23,2.0
1758076845.71094,1758076845.69604,0.0,0.0,0.0,21.7151,-49.38896,9.11003,10.4,-1.42,0.23,2.0
1758076845.72915,1758076845.70604,0.0,0.0,0.0,21.88699,-55.97798,13.46451,11.95,-1.26,1.65,2.0
1758076845.73007,1758076845.71604,0.0,0.0,0.0,20.45459,-60.27517,21.42862,11.95,-1.26,1.65,2.0
1758076845.74593,1758076845.72604,0.0,0.0,0.0,18.50654,-58.04062,26.47065,14.03,-0.2,3.31,2.0
1758076845.74919,1758076845.73604,0.0,0.0,0.0,16.61578,-53.28508,30.30947,14.03,-0.2,3.31,2.0
1758076845.76495,1758076845.74604,0.0,0.0,0.0,15.35527,-52.25375,33.40344,13.74,0.23,3.67,2.0
1758076845.78071,1758076845.75604,0.0,0.0,0.0,11.86023,-63.19725,32.20023,13.74,0.23,3.67,2.0
1758076845.78257,1758076845.76604,0.0,0.0,0.0,10.71431,-68.64035,28.70519,10.53,0.39,3.36,2.0
1758076845.79703,1758076845.77604,0.0,0.0,0.0,11.11538,-70.01544,24.92367,9.64,0.51,3.06,2.0
1758076845.79793,1758076845.78604,0.0,0.0,0.0,12.204,-64.22858,22.34536,9.64,0.51,3.06,2.0
1758076845.81292,1758076845.79604,0.0,0.0,0.0,15.29797,-42.05511,19.36597,11.57,0.23,4.36,2.0
1758076845.82866,1758076845.80604,0.0,0.0,0.0,16.95955,-21.48592,17.99088,11.57,0.23,4.36,2.0
1758076845.82995,1758076845.81604,0.0,0.0,0.0,18.16276,-0.74485,17.13144,12.54,0.25,4.07,2.0
1758076845.84467,1758076845.82604,0.0,0.0,0.0,21.60051,5.50039,17.24603,12.54,0.25,4.07,2.0
1758076845.8483,1758076845.83604,0.0,0.0,0.0,21.37133,-45.89392,16.67307,9.01,0.2,2.64,2.0
1758076845.86395,1758076845.84604,0.0,0.0,0.0,22.23076,-55.51962,11.91752,6.63,0.21,1.66,2.0
1758076845.86888,1758076845.85604,0.0,0.0,0.0,24.92367,-31.97105,17.47521,6.63,0.21,1.66,2.0
1758076845.88494,1758076845.86604,0.0,0.0,0.0,23.83505,-7.39116,12.54778,14.96,-0.22,1.12,2.0
1758076845.88911,1758076845.87604,0.0,0.0,0.0,22.28806,10.02676,6.99009,14.96,-0.22,1.12,2.0
1758076845.90896,1758076845.88604,0.0,0.0,0.0,19.99623,20.22541,4.81285,11.69,0.42,2.56,2.0
1758076845.91395,1758076845.89604,0.0,0.0,0.0,16.84496,29.04896,2.97938,11.69,0.42,2.56,2.0
1758076845.92894,1758076845.90604,0.0,0.0,0.0,10.8862,35.2942,-0.17189,9.62,0.9,1.22,2.0
1758076845.92995,1758076845.91604,0.0,0.0,0.0,1.66158,38.44547,-1.03132,8.45,1.54,0.74,2.0
1758076845.94872,1758076845.92604,0.0,0.0,0.0,-3.49504,40.62271,-1.48969,8.45,1.54,0.74,2.0
1758076845.94982,1758076845.93604,0.0,0.0,0.0,-7.50575,43.88857,-1.60428,8.89,1.48,1.3,2.0
1758076845.96467,1758076845.94604,0.0,0.0,0.0,-10.37054,44.86259,-0.74485,8.89,1.48,1.3,2.0
1758076845.96931,1758076845.95604,0.0,0.0,0.0,-10.54242,43.20102,0.34377,8.77,0.72,1.47,2.0
1758076845.98896,1758076845.96604,0.0,0.0,0.0,-8.76626,41.99781,0.68755,8.77,0.72,1.47,2.0
1758076845.99028,1758076845.97604,0.0,0.0,0.0,-6.41713,39.4768,0.80214,8.58,-0.15,1.56,2.0
1758076846.00713,1758076845.98604,0.0,0.0,0.0,-1.3178,36.7266,1.08862,8.68,-0.15,1.12,2.0
1758076846.00901,1758076845.99604,0.0,0.0,0.0,2.23454,35.00772,1.3178,8.68,-0.74,1.12,2.0
1758076846.02471,1758076846.00604,0.0,0.0,0.0,5.61499,32.88778,1.43239,8.55,-1.01,1.41,2.0
1758076846.02933,1758076846.01604,0.0,0.0,0.0,8.36518,32.08564,1.3178,8.55,-1.01,1.41,2.0
1758076846.04574,1758076846.02604,0.0,0.0,0.0,10.8289,31.2262,1.66158,8.37,-0.88,1.26,2.0
1758076846.0471,1758076846.03604,0.0,0.0,0.0,11.45916,30.48136,2.00535,8.37,-0.88,1.26,2.0
1758076846.06359,1758076846.04604,0.0,0.0,0.0,11.34457,29.10626,2.00535,8.28,-0.48,1.24,2.0
1758076846.08393,1758076846.05604,0.0,0.0,0.0,10.59972,26.87172,2.06265,8.28,-0.48,1.24,2.0
1758076846.08563,1758076846.06604,0.0,0.0,0.0,8.47978,23.49127,2.29183,8.3,0.03,0.97,2.0
1758076846.08896,1758076846.07604,0.0,0.0,0.0,7.16197,21.08485,2.40642,8.51,0.45,0.72,2.0
1758076846.10886,1758076846.08604,0.0,0.0,0.0,5.78687,18.90761,2.06265,8.51,0.45,0.72,2.0
1758076846.10991,1758076846.09604,0.0,0.0,0.0,4.52637,17.18874,1.83346,8.72,0.6,0.68,2.0
1758076846.12574,1758076846.10604,0.0,0.0,0.0,2.97938,14.66772,1.43239,8.72,0.6,0.68,2.0
1758076846.12857,1758076846.11604,0.0,0.0,0.0,2.06265,11.80293,0.97403,8.85,0.36,0.62,2.0
1758076846.14404,1758076846.12604,0.0,0.0,0.0,1.20321,9.05273,0.57296,8.85,0.36,0.62,2.0
1758076846.14838,1758076846.13604,0.0,0.0,0.0,0.57296,3.60963,0.57296,8.98,-0.03,0.39,2.0
1758076846.16398,1758076846.14604,0.0,0.0,0.0,0.57296,-0.45837,0.40107,9.17,-0.35,0.12,2.0
1758076846.16895,1758076846.15604,0.0,0.0,0.0,0.74485,-3.89611,0.51566,9.17,-0.35,0.12,2.0
1758076846.18731,1758076846.16604,0.0,0.0,0.0,1.3751,-7.04738,0.74485,9.55,-0.59,0.25,2.0
1758076846.18938,1758076846.17604,0.0,0.0,0.0,2.92208,-13.23533,1.08862,9.55,-0.59,0.25,2.0
1758076846.20893,1758076846.18604,0.0,0.0,0.0,4.0107,-17.13144,1.20321,9.79,-0.75,0.6,2.0
1758076846.20996,1758076846.19604,0.0,0.0,0.0,4.98473,-20.51189,1.3751,9.79,-0.75,0.6,2.0
1758076846.22876,1758076846.20604,0.0,0.0,0.0,5.72958,-22.63183,1.3751,10.21,-0.73,0.81,2.0
1758076846.23033,1758076846.21604,0.0,0.0,0.0,6.07335,-24.23611,0.97403,10.6,-0.57,0.76,2.0
1758076846.24897,1758076846.22604,0.0,0.0,0.0,5.50039,-24.57989,0.85944,10.6,-0.57,0.76,2.0
1758076846.24993,1758076846.23604,0.0,0.0,0.0,3.89611,-23.37668,0.34377,10.85,-0.32,0.28,2.0
1758076846.26898,1758076846.24604,0.0,0.0,0.0,2.06265,-22.28806,-0.22918,10.85,-0.32,0.28,2.0
1758076846.26995,1758076846.25604,0.0,0.0,0.0,-2.06265,-19.99623,-0.97403,10.94,-0.01,-0.41,2.0
1758076846.28895,1758076846.26604,0.0,0.0,0.0,-5.84417,-17.18874,-1.83346,10.94,-0.01,-0.41,2.0
1758076846.28994,1758076846.27604,0.0,0.0,0.0,-10.37054,-13.80828,-3.03668,10.83,0.41,-0.93,2.0
1758076846.30705,1758076846.28604,0.0,0.0,0.0,-15.69904,-9.96947,-5.09932,10.83,0.41,-0.93,2.0
1758076846.30994,1758076846.29604,0.0,0.0,0.0,-22.97561,-5.84417,-8.88085,10.9,0.83,-0.82,2.0
1758076846.3256,1758076846.30604,0.0,0.0,0.0,-26.81443,-7.39116,-11.51645,11.54,0.97,0.05,2.0
1758076846.32942,1758076846.31604,0.0,0.0,0.0,-30.02299,-13.17803,-13.40721,11.54,0.97,0.05,2.0
1758076846.34789,1758076846.32604,0.0,0.0,0.0,-32.25753,-21.7151,-16.21471,11.78,0.97,1.92,2.0
1758076846.34892,1758076846.33604,0.0,0.0,0.0,-31.56997,-39.53409,-19.13679,11.78,0.97,1.92,2.0
1758076846.36398,1758076846.34604,0.0,0.0,0.0,-28.59059,-47.78468,-22.28806,12.11,0.46,2.74,2.0
1758076846.38321,1758076846.35604,0.0,0.0,0.0,-23.26209,-50.59217,-25.15285,12.11,0.46,2.74,2.0
1758076846.38542,1758076846.36604,0.0,0.0,0.0,-16.21471,-52.48294,-28.36141,13.39,-0.43,3.55,2.0
1758076846.40341,1758076846.37604,0.0,0.0,0.0,-12.77696,-50.01921,-27.44468,12.51,-0.53,3.57,2.0
1758076846.40856,1758076846.38604,0.0,0.0,0.0,-10.08406,-50.13381,-24.86637,12.51,-0.53,3.57,2.0
1758076846.40899,1758076846.39604,0.0,0.0,0.0,-9.68299,-50.82136,-22.51724,9.87,0.04,2.99,2.0
1758076846.42871,1758076846.40604,0.0,0.0,0.0,-13.69369,-56.14987,-18.62113,9.87,0.04,2.99,2.0
1758076846.42996,1758076846.41604,0.0,0.0,0.0,-18.10547,-58.4417,-17.13144,8.14,0.06,2.92,2.0
1758076846.44736,1758076846.42604,0.0,0.0,0.0,-22.23076,-56.03527,-16.55848,8.14,0.06,2.92,2.0
1758076846.44995,1758076846.43604,0.0,0.0,0.0,-24.92367,-50.59217,-15.64175,9.26,-0.19,3.56,2.0
1758076846.46739,1758076846.44604,0.0,0.0,0.0,-26.18417,-27.84575,-13.80828,12.01,-0.22,3.05,2.0
1758076846.46991,1758076846.45604,0.0,0.0,0.0,-26.75713,-11.57375,-13.17803,12.01,-0.22,3.05,2.0
1758076846.48575,1758076846.46604,0.0,0.0,0.0,-25.49662,1.14592,-11.11538,12.3,-0.35,2.48,2.0
1758076846.48754,1758076846.47604,0.0,0.0,0.0,-23.66316,6.24524,-7.62034,12.3,-0.35,2.48,2.0
1758076846.50405,1758076846.48604,0.0,0.0,0.0,-19.82434,15.35527,-3.89611,10.8,-0.65,1.54,2.0
1758076846.50924,1758076846.49604,0.0,0.0,0.0,-16.38659,21.02755,-1.3751,10.8,-0.65,1.54,2.0
1758076846.52854,1758076846.50604,0.0,0.0,0.0,-12.204,26.47065,1.60428,10.4,-1.09,0.95,2.0
1758076846.52957,1758076846.51604,0.0,0.0,0.0,-7.33386,31.79916,4.52637,10.4,-1.09,0.95,2.0
1758076846.5494,1758076846.52604,0.0,0.0,0.0,-0.0573,40.04975,8.36518,9.89,-1.72,0.73,2.0
1758076846.55433,1758076846.53604,0.0,0.0,0.0,4.52637,44.46153,10.08406,9.56,-2.05,0.79,2.0
1758076846.57242,1758076846.54604,0.0,0.0,0.0,8.36518,47.89928,11.28727,9.56,-2.05,0.79,2.0
1758076846.57335,1758076846.55604,0.0,0.0,0.0,12.77696,51.22243,11.91752,9.25,-1.85,0.99,2.0
1758076846.58907,1758076846.56604,0.0,0.0,0.0,14.20935,50.99325,11.74564,9.25,-1.85,0.99,2.0
1758076846.58997,1758076846.57604,0.0,0.0,0.0,14.43854,49.27437,11.28727,8.76,-1.18,1.15,2.0
1758076846.60907,1758076846.58604,0.0,0.0,0.0,13.5791,47.78468,10.59972,8.76,-1.18,1.15,2.0
1758076846.60994,1758076846.59604,0.0,0.0,0.0,10.59972,45.14908,9.22462,8.67,-0.39,1.25,2.0
1758076846.62873,1758076846.60604,0.0,0.0,0.0,8.136,43.25832,7.96411,8.67,0.31,1.3,2.0
1758076846.62998,1758076846.61604,0.0,0.0,0.0,5.09932,40.7946,6.47442,8.67,0.31,1.3,2.0
1758076846.64902,1758076846.62604,0.0,0.0,0.0,2.00535,38.73195,5.15662,8.58,0.79,1.3,2.0
1758076846.64997,1758076846.63604,0.0,0.0,0.0,-2.29183,35.52338,3.26586,8.58,0.79,1.3,2.0
1758076846.66902,1758076846.64604,0.0,0.0,0.0,-4.98473,32.83048,2.57831,8.62,0.89,1.27,2.0
1758076846.66993,1758076846.65604,0.0,0.0,0.0,-6.70361,30.36677,2.29183,8.62,0.89,1.27,2.0
1758076846.68878,1758076846.66604,0.0,0.0,0.0,-8.0787,28.476,1.94806,8.65,0.55,0.86,2.0
1758076846.68992,1758076846.67604,0.0,0.0,0.0,-9.39651,25.55392,1.43239,8.73,0.0,0.64,2.0
1758076846.70902,1758076846.68604,0.0,0.0,0.0,-9.96947,23.31938,1.03132,8.73,0.0,0.64,2.0
1758076846.71034,1758076846.69604,0.0,0.0,0.0,-10.19865,21.02755,0.80214,8.75,-0.51,0.51,2.0
1758076846.72876,1758076846.70604,0.0,0.0,0.0,-9.96947,18.22006,0.57296,8.75,-0.51,0.51,2.0
1758076846.72994,1758076846.71604,0.0,0.0,0.0,-8.99544,12.89155,0.80214,8.65,-0.82,0.38,2.0
1758076846.74583,1758076846.72604,0.0,0.0,0.0,-7.96411,9.68299,1.3751,8.65,-0.82,0.38,2.0
1758076846.74917,1758076846.73604,0.0,0.0,0.0,-6.87549,6.70361,1.77617,8.66,-0.83,0.14,2.0
1758076846.76581,1758076846.74604,0.0,0.0,0.0,-4.81285,5.72958,2.34913,8.66,-0.83,0.14,2.0
1758076846.76993,1758076846.75604,0.0,0.0,0.0,-3.55234,7.84952,2.57831,8.98,-0.64,0.2,2.0
1758076846.78899,1758076846.76604,0.0,0.0,0.0,-2.11994,10.8289,2.97938,9.46,-0.39,0.43,2.0
1758076846.79267,1758076846.77604,0.0,0.0,0.0,-0.74485,13.5791,3.09397,9.46,-0.39,0.43,2.0
1758076846.80776,1758076846.78604,0.0,0.0,0.0,2.06265,15.64175,3.03668,9.71,-0.28,0.81,2.0
1758076846.80896,1758076846.79604,0.0,0.0,0.0,4.87014,15.06879,2.97938,9.71,-0.28,0.81,2.0
1758076846.82405,1758076846.80604,0.0,0.0,0.0,8.02141,13.12073,2.92208,9.82,-0.45,0.65,2.0
1758076846.82898,1758076846.81604,0.0,0.0,0.0,12.204,10.08406,3.09397,9.82,-0.45,0.65,2.0
1758076846.84736,1758076846.82604,0.0,0.0,0.0,18.56383,1.60428,2.6929,9.9,-0.87,0.23,2.0
1758076846.84754,1758076846.83604,0.0,0.0,0.0,22.74642,-6.87549,1.77617,9.55,-1.15,-0.19,2.0
1758076846.86405,1758076846.84604,0.0,0.0,0.0,25.72581,-14.49583,1.14592,9.55,-1.15,-0.19,2.0
1758076846.86922,1758076846.85604,0.0,0.0,0.0,29.10626,-15.12609,0.0573,10.0,-1.07,-0.45,2.0
1758076846.88904,1758076846.86604,0.0,0.0,0.0,34.49206,-9.62569,-0.22918,10.0,-1.07,-0.45,2.0
1758076846.89397,1758076846.87604,0.0,0.0,0.0,38.38818,-4.23989,0.40107,11.06,-0.9,-0.2,2.0
1758076846.90879,1758076846.88604,0.0,0.0,0.0,42.57077,-0.51566,1.3178,11.06,-0.9,-0.2,2.0
1758076846.91388,1758076846.89604,0.0,0.0,0.0,46.46688,1.3178,2.23454,10.97,-0.78,-0.28,2.0
1758076846.92911,1758076846.90604,0.0,0.0,0.0,52.19646,-2.92208,3.03668,9.93,-1.04,0.09,2.0
1758076846.93317,1758076846.91604,0.0,0.0,0.0,55.40502,-8.25059,4.46907,9.93,-1.04,0.09,2.0
1758076846.9492,1758076846.92604,0.0,0.0,0.0,57.29578,-13.86558,6.24524,10.53,-1.17,0.41,2.0
1758076846.95397,1758076846.93604,0.0,0.0,0.0,57.12389,-20.68378,11.28727,10.53,-1.17,0.41,2.0
1758076846.96913,1758076846.94604,0.0,0.0,0.0,52.25375,-30.53865,16.10011,12.19,-0.96,3.58,2.0
1758076846.97394,1758076846.95604,0.0,0.0,0.0,44.23235,-36.89849,22.23076,12.19,-0.96,3.58,2.0
1758076846.98911,1758076846.96604,0.0,0.0,0.0,35.3515,-50.2484,28.64789,13.41,0.07,5.91,2.0
1758076846.99402,1758076846.97604,0.0,0.0,0.0,25.49662,-77.4639,34.60666,13.41,0.07,5.91,2.0
1758076847.00914,1758076846.98604,0.0,0.0,0.0,20.51189,-88.00632,33.00237,10.38,1.23,4.31,2.0
1758076847.01397,1758076846.99604,0.0,0.0,0.0,18.22006,-90.12627,28.30412,8.58,1.03,1.37,2.0
1758076847.0288,1758076847.00604,0.0,0.0,0.0,17.13144,-85.37071,20.97026,8.58,1.03,1.37,2.0
1758076847.03395,1758076847.01604,0.0,0.0,0.0,17.76169,-74.771,8.76626,9.48,-0.42,1.99,2.0
1758076847.04911,1758076847.02604,0.0,0.0,0.0,21.31403,-71.56243,4.1253,9.48,-0.42,1.99,2.0
1758076847.05399,1758076847.03604,0.0,0.0,0.0,25.7831,-67.15066,2.6929,10.59,-1.56,4.71,2.0
1758076847.06906,1758076847.04604,0.0,0.0,0.0,30.48136,-58.55629,3.09397,10.59,-1.56,4.71,2.0
1758076847.07399,1758076847.05604,0.0,0.0,0.0,36.6693,-42.05511,5.95876,12.2,-1.73,3.89,2.0
1758076847.08905,1758076847.06604,0.0,0.0,0.0,39.4768,-32.54401,8.30789,11.56,-0.95,2.44,2.0
1758076847.0939,1758076847.07604,0.0,0.0,0.0,41.31026,-22.97561,9.96947,11.56,-0.95,2.44,2.0
1758076847.1089,1758076847.08604,0.0,0.0,0.0,40.96649,-11.86023,10.37054,11.37,-0.03,1.75,2.0
1758076847.11391,1758076847.09604,0.0,0.0,0.0,38.56006,9.11003,9.68299,11.37,-0.03,1.75,2.0
1758076847.12909,1758076847.10604,0.0,0.0,0.0,36.49741,22.34536,8.30789,12.08,0.38,1.54,2.0
1758076847.13397,1758076847.11604,0.0,0.0,0.0,33.51803,33.11696,6.7609,12.08,0.38,1.54,2.0
1758076847.14882,1758076847.12604,0.0,0.0,0.0,30.36677,42.97184,5.78687,11.36,0.5,1.18,2.0
1758076847.15405,1758076847.13604,0.0,0.0,0.0,24.86637,57.0093,4.52637,10.72,0.64,0.72,2.0
1758076847.16905,1758076847.14604,0.0,0.0,0.0,20.16812,64.57235,3.95341,10.72,0.64,0.72,2.0
1758076847.17396,1758076847.15604,0.0,0.0,0.0,14.66772,66.92148,3.95341,9.72,1.05,0.74,2.0
1758076847.18908,1758076847.16604,0.0,0.0,0.0,5.72958,68.06739,3.38045,9.72,1.05,0.74,2.0
1758076847.19393,1758076847.17604,0.0,0.0,0.0,0.40107,67.55173,2.7502,9.08,1.24,1.38,2.0
1758076847.20909,1758076847.18604,0.0,0.0,0.0,-3.60963,65.77556,1.43239,9.08,1.24,1.38,2.0
1758076847.21559,1758076847.19604,0.0,0.0,0.0,-6.7609,62.91077,0.0,8.52,0.93,1.06,2.0
1758076847.23326,1758076847.20604,0.0,0.0,0.0,-9.62569,57.29578,-3.20856,8.52,0.93,1.06,2.0
1758076847.23638,1758076847.21604,0.0,0.0,0.0,-10.8289,53.51426,-4.92744,8.23,0.58,1.27,2.0
1758076847.25344,1758076847.22604,0.0,0.0,0.0,-11.57375,49.50356,-6.87549,8.28,0.21,1.65,2.0
1758076847.25529,1758076847.23604,0.0,0.0,0.0,-12.14671,46.1804,-8.47978,8.28,0.21,1.65,2.0
1758076847.27319,1758076847.24604,0.0,0.0,0.0,-12.60507,42.22699,-9.96947,8.43,-0.09,1.71,2.0
1758076847.27459,1758076847.25604,0.0,0.0,0.0,-12.83425,38.84654,-10.54242,8.43,-0.09,1.71,2.0
1758076847.29379,1758076847.26604,0.0,0.0,0.0,-13.12073,35.3515,-10.8862,8.32,-0.26,1.66,2.0
1758076847.29525,1758076847.27604,0.0,0.0,0.0,-13.17803,32.54401,-10.65701,8.32,-0.26,1.66,2.0
1758076847.31325,1758076847.28604,0.0,0.0,0.0,-13.17803,27.61657,-9.91217,8.28,-0.26,1.49,2.0
1758076847.31419,1758076847.29604,0.0,0.0,0.0,-12.83425,24.80907,-8.93814,8.26,-0.15,1.26,2.0
1758076847.33246,1758076847.30604,0.0,0.0,0.0,-12.37589,21.31403,-8.0787,8.26,-0.15,1.26,2.0
1758076847.33339,1758076847.31604,0.0,0.0,0.0,-11.51645,17.13144,-6.87549,8.11,-0.08,1.08,2.0
1758076847.34882,1758076847.32604,0.0,0.0,0.0,-9.68299,9.39651,-5.21392,8.11,-0.08,1.08,2.0
1758076847.35396,1758076847.33604,0.0,0.0,0.0,-8.42248,6.70361,-4.23989,8.13,-0.2,0.86,2.0
1758076847.36908,1758076847.34604,0.0,0.0,0.0,-7.04738,5.21392,-3.32316,8.13,-0.2,0.86,2.0
1758076847.37397,1758076847.35604,0.0,0.0,0.0,-5.90147,3.38045,-2.34913,8.59,-0.49,0.75,2.0
1758076847.38914,1758076847.36604,0.0,0.0,0.0,-4.58366,0.0573,-1.71887,8.76,-0.81,0.8,2.0
1758076847.39315,1758076847.37604,0.0,0.0,0.0,-4.29718,-2.34913,-1.20321,8.76,-0.81,0.8,2.0
1758076847.40911,1758076847.38604,0.0,0.0,0.0,-4.52637,-3.95341,-1.03132,9.18,-0.89,0.9,2.0
1758076847.41323,1758076847.39604,0.0,0.0,0.0,-5.90147,-6.47442,-0.85944,9.18,-0.89,0.9,2.0
1758076847.42909,1758076847.40604,0.0,0.0,0.0,-7.50575,-7.79223,-1.14592,9.64,-0.71,0.99,2.0
1758076847.43238,1758076847.41604,0.0,0.0,0.0,-9.5684,-8.65166,-1.94806,9.64,-0.71,0.99,2.0
1758076847.44882,1758076847.42604,0.0,0.0,0.0,-11.45916,-10.31324,-2.46372,9.94,-0.37,0.84,2.0
1758076847.45382,1758076847.43604,0.0,0.0,0.0,-13.98017,-14.78231,-3.66693,9.94,-0.37,0.65,2.0
1758076847.46911,1758076847.44604,0.0,0.0,0.0,-15.24068,-22.91831,-4.0107,9.83,-0.04,0.65,2.0
1758076847.47405,1758076847.45604,0.0,0.0,0.0,-16.21471,-31.45539,-4.0107,9.38,0.0,0.25,2.0
1758076847.48912,1758076847.46604,0.0,0.0,0.0,-16.67307,-36.6693,-3.83882,9.38,0.0,0.25,2.0
1758076847.49408,1758076847.47604,0.0,0.0,0.0,-18.62113,-39.19032,-3.38045,10.1,-0.35,-0.16,2.0
1758076847.5091,1758076847.48604,0.0,0.0,0.0,-20.51189,-36.26823,-2.63561,10.1,-0.35,-0.16,2.0
1758076847.51401,1758076847.49604,0.0,0.0,0.0,-22.86102,-29.50733,-2.63561,11.18,-0.71,-0.17,2.0
1758076847.52912,1758076847.50604,0.0,0.0,0.0,-24.5226,-21.48592,-2.7502,11.18,-0.71,-0.17,2.0
1758076847.53407,1758076847.51604,0.0,0.0,0.0,-26.41335,-9.74028,-4.58366,11.55,-1.15,0.13,2.0
1758076847.54883,1758076847.52604,0.0,0.0,0.0,-27.2155,-3.89611,-6.47442,11.47,-1.12,0.27,2.0
1758076847.55406,1758076847.53604,0.0,0.0,0.0,-27.33009,-2.00535,-8.93814,11.47,-1.12,0.27,2.0
1758076847.5691,1758076847.54604,0.0,0.0,0.0,-27.44468,-4.52637,-11.74564,11.8,-0.45,1.75,2.0
1758076847.57407,1758076847.55604,0.0,0.0,0.0,-28.59059,-18.85031,-14.72501,11.8,-0.45,1.75,2.0
1758076847.59434,1758076847.56604,0.0,0.0,0.0,-31.11161,-37.64333,-17.24603,11.58,1.12,2.68,2.0
1758076847.5977,1758076847.57604,0.0,0.0,0.0,-31.79916,-50.01921,-18.90761,11.58,1.12,2.68,2.0
1758076847.5982,1758076847.58604,0.0,0.0,0.0,-30.48136,-56.66553,-22.63183,12.6,0.67,1.8,2.0
1758076847.61397,1758076847.59604,0.0,0.0,0.0,-28.07493,-53.45696,-24.23611,14.18,-0.54,2.36,2.0
1758076847.63376,1758076847.60604,0.0,0.0,0.0,-24.80907,-47.67009,-23.83505,14.18,-0.54,2.36,2.0
1758076847.63502,1758076847.61604,0.0,0.0,0.0,-21.60051,-43.02913,-20.68378,12.98,-0.31,3.74,2.0
1758076847.65333,1758076847.62604,0.0,0.0,0.0,-18.85031,-37.81522,-15.24068,12.98,-0.31,3.74,2.0
1758076847.65738,1758076847.63604,0.0,0.0,0.0,-20.11082,-36.26823,-11.28727,10.32,0.51,3.8,2.0
1758076847.65803,1758076847.64604,0.0,0.0,0.0,-24.00693,-40.10705,-9.22462,10.32,0.51,3.8,2.0
1758076847.67401,1758076847.65604,0.0,0.0,0.0,-29.56462,-44.9199,-8.76626,7.53,0.6,3.57,2.0
1758076847.69377,1758076847.66604,0.0,0.0,0.0,-37.01308,-44.00316,-10.48513,7.87,0.5,3.69,2.0
1758076847.69506,1758076847.67604,0.0,0.0,0.0,-41.48215,-41.99781,-12.204,7.87,0.5,3.69,2.0
1758076847.71381,1758076847.68604,0.0,0.0,0.0,-44.23235,-38.44547,-13.5791,9.49,0.09,2.93,2.0
1758076847.71501,1758076847.69604,0.0,0.0,0.0,-45.83662,-31.51268,-14.61043,9.49,0.09,2.93,2.0
1758076847.73378,1758076847.70604,0.0,0.0,0.0,-46.2377,-17.87628,-15.87093,10.89,-0.35,1.88,2.0
1758076847.7369,1758076847.71604,0.0,0.0,0.0,-45.03448,-10.71431,-15.0115,10.89,-0.35,1.88,2.0
1758076847.73732,1758076847.72604,0.0,0.0,0.0,-42.97184,-2.34913,-14.43854,11.01,-0.65,1.29,2.0
1758076847.75315,1758076847.73604,0.0,0.0,0.0,-39.53409,3.32316,-12.43318,11.01,-0.65,1.29,2.0
1758076847.76889,1758076847.74604,0.0,0.0,0.0,-32.20023,10.71431,-8.136,10.61,-0.87,1.35,2.0
1758076847.77252,1758076847.75604,0.0,0.0,0.0,-26.75713,15.24068,-4.92744,10.01,-1.41,1.04,2.0
1758076847.78869,1758076847.76604,0.0,0.0,0.0,-20.51189,20.22541,-1.60428,10.01,-1.41,1.04,2.0
1758076847.79386,1758076847.77604,0.0,0.0,0.0,-15.0115,24.17882,2.40642,9.61,-2.01,0.79,2.0
1758076847.80907,1758076847.78604,0.0,0.0,0.0,-7.16197,30.19488,4.69825,9.61,-2.01,0.79,2.0
1758076847.81408,1758076847.79604,0.0,0.0,0.0,-3.20856,33.23156,6.18794,9.49,-2.19,0.9,2.0
1758076847.82917,1758076847.80604,0.0,0.0,0.0,0.22918,35.06502,7.04738,9.49,-2.19,0.9,2.0
1758076847.83405,1758076847.81604,0.0,0.0,0.0,2.97938,37.18496,7.50575,9.24,-1.71,0.88,2.0
1758076847.84919,1758076847.82604,0.0,0.0,0.0,3.32316,37.75792,7.62034,9.08,-0.97,0.91,2.0
1758076847.85399,1758076847.83604,0.0,0.0,0.0,2.7502,37.64333,7.16197,9.08,-0.97,0.91,2.0
1758076847.86915,1758076847.84604,0.0,0.0,0.0,1.48969,37.24226,6.35983,8.91,-0.26,1.0,2.0
1758076847.874,1758076847.85604,0.0,0.0,0.0,-1.08862,36.49741,4.81285,8.91,-0.26,1.0,2.0
1758076847.88914,1758076847.86604,0.0,0.0,0.0,-2.86479,35.06502,3.66693,8.91,0.28,1.16,2.0
1758076847.89402,1758076847.87604,0.0,0.0,0.0,-4.64096,33.00237,2.6929,8.91,0.28,1.16,2.0
1758076847.91393,1758076847.88604,0.0,0.0,0.0,-6.41713,31.56997,2.06265,8.79,0.48,1.06,2.0
1758076847.91694,1758076847.89604,0.0,0.0,0.0,-8.47978,30.93972,1.14592,8.92,0.26,0.92,2.0
1758076847.91728,1758076847.90604,0.0,0.0,0.0,-9.62569,29.27814,0.51566,8.92,0.26,0.92,2.0
1758076847.93314,1758076847.91604,0.0,0.0,0.0,-10.25595,27.67386,0.0573,8.74,-0.19,0.74,2.0
1758076847.9492,1758076847.92604,0.0,0.0,0.0,-10.54242,25.43933,-0.40107,8.74,-0.19,0.74,2.0
1758076847.95402,1758076847.93604,0.0,0.0,0.0,-10.02676,21.42862,-0.57296,8.73,-0.66,0.66,2.0
1758076847.97304,1758076847.94604,0.0,0.0,0.0,-8.93814,19.25138,-0.40107,8.73,-0.66,0.66,2.0
1758076847.97425,1758076847.95604,0.0,0.0,0.0,-7.67763,16.90226,-0.22918,8.8,-1.0,0.51,2.0
1758076847.99303,1758076847.96604,0.0,0.0,0.0,-5.72958,14.43854,0.40107,8.8,-1.0,0.51,2.0
1758076847.9947,1758076847.97604,0.0,0.0,0.0,-2.40642,11.17268,1.43239,8.77,-1.03,0.3,2.0
1758076848.01385,1758076847.98604,0.0,0.0,0.0,-0.34377,9.5684,2.00535,8.75,-0.81,0.13,2.0
1758076848.01536,1758076847.99604,0.0,0.0,0.0,1.60428,10.31324,2.23454,8.75,-0.81,0.13,2.0
1758076848.03395,1758076848.00604,0.0,0.0,0.0,3.60963,14.78231,1.71887,9.06,-0.43,0.15,2.0
1758076848.03538,1758076848.01604,0.0,0.0,0.0,4.18259,17.93358,1.14592,9.06,-0.43,0.15,2.0
1758076848.05393,1758076848.02604,0.0,0.0,0.0,4.35448,20.05352,1.03132,9.48,-0.09,0.4,2.0
1758076848.05615,1758076848.03604,0.0,0.0,0.0,4.64096,21.25674,1.20321,9.48,-0.09,0.4,2.0
1758076848.07356,1758076848.04604,0.0,0.0,0.0,4.92744,20.16812,2.00535,10.07,-0.25,0.4,2.0
1758076848.07448,1758076848.05604,0.0,0.0,0.0,5.95876,16.04282,2.63561,10.16,-0.7,0.05,2.0
1758076848.0933,1758076848.06604,0.0,0.0,0.0,7.33386,7.21927,3.20856,10.16,-0.7,0.05,2.0
1758076848.09448,1758076848.07604,0.0,0.0,0.0,8.76626,-1.83346,3.26586,9.46,-1.02,-0.37,2.0
1758076848.09843,1758076848.08604,0.0,0.0,0.0,12.43318,-7.39116,2.57831,9.46,-1.02,-0.37,2.0
1758076848.11383,1758076848.09604,0.0,0.0,0.0,15.98552,-6.41713,1.83346,10.2,-1.01,-0.36,2.0
1758076848.13244,1758076848.10604,0.0,0.0,0.0,20.34,-2.6929,1.94806,10.2,-1.01,-0.36,2.0
1758076848.13346,1758076848.11604,0.0,0.0,0.0,26.12688,-0.85944,2.00535,11.05,-0.95,0.22,2.0
1758076848.14914,1758076848.12604,0.0,0.0,0.0,35.06502,-3.66693,2.23454,10.83,-1.09,0.56,2.0
1758076848.15411,1758076848.13604,0.0,0.0,0.0,40.50812,-9.4538,2.86479,10.83,-1.09,0.56,2.0
1758076848.16908,1758076848.14604,0.0,0.0,0.0,44.11775,-16.50119,3.89611,10.85,-1.21,1.16,2.0
1758076848.17322,1758076848.15604,0.0,0.0,0.0,45.26366,-24.63719,5.61499,10.85,-1.21,1.16,2.0
1758076848.18921,1758076848.16604,0.0,0.0,0.0,43.20102,-31.85646,9.39651,11.89,-0.77,2.62,2.0
1758076848.19095,1758076848.17604,0.0,0.0,0.0,39.53409,-32.48671,12.71966,11.89,-0.77,2.62,2.0
1758076848.20866,1758076848.18604,0.0,0.0,0.0,36.03905,-35.12231,16.73037,13.23,-0.18,3.93,2.0
1758076848.20992,1758076848.19604,0.0,0.0,0.0,30.30947,-45.20637,21.94428,13.23,-0.18,3.93,2.0
1758076848.22849,1758076848.20604,0.0,0.0,0.0,28.70519,-57.75415,23.37668,12.11,0.34,3.27,2.0
1758076848.2313,1758076848.21604,0.0,0.0,0.0,27.67386,-63.65561,22.68913,10.54,-0.12,2.26,2.0
1758076848.24767,1758076848.22604,0.0,0.0,0.0,28.01764,-66.5204,19.76705,10.54,-0.12,2.26,2.0
1758076848.25162,1758076848.23604,0.0,0.0,0.0,34.09099,-73.10942,14.9542,9.62,-1.0,2.52,2.0
1758076848.26865,1758076848.24604,0.0,0.0,0.0,40.62271,-71.84892,12.49048,9.62,-1.0,2.52,2.0
1758076848.27368,1758076848.25604,0.0,0.0,0.0,47.03984,-67.43713,11.22997,10.1,-1.62,3.6,2.0
1758076848.28895,1758076848.26604,0.0,0.0,0.0,53.34238,-62.05133,11.86023,10.1,-1.62,3.6,2.0
1758076848.29408,1758076848.27604,0.0,0.0,0.0,60.67623,-50.76406,15.46986,10.54,-1.58,3.91,2.0
1758076848.30916,1758076848.28604,0.0,0.0,0.0,63.48372,-43.37291,19.53786,10.45,-1.08,2.85,2.0
1758076848.31361,1758076848.29604,0.0,0.0,0.0,64.45775,-35.2369,22.05888,10.45,-1.08,2.85,2.0
1758076848.32923,1758076848.30604,0.0,0.0,0.0,64.11398,-28.24682,23.72045,10.37,-0.22,1.77,2.0
1758076848.3341,1758076848.31604,0.0,0.0,0.0,61.1346,-13.46451,22.68913,10.37,-0.22,1.77,2.0
1758076848.34924,1758076848.32604,0.0,0.0,0.0,58.21251,-2.46372,20.16812,11.14,0.7,1.27,2.0
1758076848.37379,1758076848.33604,0.0,0.0,0.0,54.431,7.79223,16.04282,11.14,0.7,1.27,2.0
1758076848.3776,1758076848.34604,0.0,0.0,0.0,50.13381,16.21471,11.22997,11.18,1.47,0.99,2.0
1758076848.38388,1758076848.35604,0.0,0.0,0.0,42.85724,27.1582,4.29718,10.49,1.79,0.78,2.0
1758076848.38827,1758076848.36604,0.0,0.0,0.0,38.15899,34.37747,0.51566,10.49,1.79,0.78,2.0
1758076848.39372,1758076848.37604,0.0,0.0,0.0,33.34615,41.13837,-2.40642,10.05,1.7,0.59,2.0
1758076848.40915,1758076848.38604,0.0,0.0,0.0,28.99167,46.35228,-4.23989,10.05,1.7,0.59,2.0
1758076848.41406,1758076848.39604,0.0,0.0,0.0,23.31938,51.5662,-4.87014,9.54,1.33,0.73,2.0
1758076848.42929,1758076848.40604,0.0,0.0,0.0,20.3973,52.884,-4.1253,9.54,1.33,0.73,2.0
1758076848.43409,1758076848.41604,0.0,0.0,0.0,17.87628,52.884,-2.63561,9.14,0.78,0.94,2.0
1758076848.44899,1758076848.42604,0.0,0.0,0.0,15.12609,53.62885,-0.0573,9.14,0.78,0.94,2.0
1758076848.45407,1758076848.43604,0.0,0.0,0.0,13.69369,52.9986,1.3751,9.09,0.33,1.15,2.0
1758076848.46925,1758076848.44604,0.0,0.0,0.0,12.49048,51.79538,2.29183,8.79,0.05,1.4,2.0
1758076848.47412,1758076848.45604,0.0,0.0,0.0,11.45916,50.13381,2.97938,8.79,0.05,1.4,2.0
1758076848.48928,1758076848.46604,0.0,0.0,0.0,10.48513,46.06581,3.03668,8.54,-0.03,1.51,2.0
1758076848.49408,1758076848.47604,0.0,0.0,0.0,9.74028,42.62806,2.46372,8.54,-0.03,1.51,2.0
1758076848.50901,1758076848.48604,0.0,0.0,0.0,9.11003,39.01843,1.71887,8.35,0.02,1.52,2.0
1758076848.51412,1758076848.49604,0.0,0.0,0.0,8.65166,34.60666,1.20321,8.35,0.02,1.52,2.0
1758076848.52923,1758076848.50604,0.0,0.0,0.0,7.62034,25.8404,0.34377,8.32,0.18,1.45,2.0
1758076848.53402,1758076848.51604,0.0,0.0,0.0,6.87549,19.76705,0.34377,8.29,0.36,1.24,2.0
1758076848.53724,1758076848.52604,0.0,0.0,0.0,5.90147,14.61043,0.11459,8.29,0.36,1.24,2.0
1758076848.55404,1758076848.53604,0.0,0.0,0.0,4.98473,9.28192,0.22918,8.32,0.45,1.19,2.0
1758076848.57364,1758076848.54604,0.0,0.0,0.0,3.09397,2.7502,0.22918,8.32,0.45,1.19,2.0
1758076848.57403,1758076848.55604,0.0,0.0,0.0,2.34913,0.22918,0.74485,8.34,0.43,1.06,2.0
1758076848.57734,1758076848.56604,0.0,0.0,0.0,1.60428,-1.43239,1.3178,8.34,0.43,1.06,2.0
1758076848.59393,1758076848.57604,0.0,0.0,0.0,0.80214,-2.7502,1.77617,8.62,0.23,1.16,2.0
1758076848.61338,1758076848.58604,0.0,0.0,0.0,0.0573,-6.70361,2.63561,8.64,-0.02,1.17,2.0
1758076848.61381,1758076848.59604,0.0,0.0,0.0,-0.57296,-10.71431,3.20856,8.64,-0.02,1.17,2.0
1758076848.63359,1758076848.60604,0.0,0.0,0.0,-1.66158,-13.80828,2.92208,8.78,-0.2,0.87,2.0
1758076848.63391,1758076848.61604,0.0,0.0,0.0,-4.1253,-17.13144,2.34913,8.78,-0.2,0.87,2.0
1758076848.65201,1758076848.62604,0.0,0.0,0.0,-6.70361,-22.57454,1.48969,9.12,-0.16,0.67,2.0
1758076848.65239,1758076848.63604,0.0,0.0,0.0,-9.5684,-24.75178,-0.0573,9.12,-0.16,0.67,2.0
1758076848.669,1758076848.64604,0.0,0.0,0.0,-12.77696,-26.98631,-1.43239,9.66,0.08,0.39,2.0
1758076848.67414,1758076848.65604,0.0,0.0,0.0,-17.24603,-30.13758,-4.46907,9.66,0.08,0.39,2.0
1758076848.68901,1758076848.66604,0.0,0.0,0.0,-19.88164,-31.85646,-6.58902,10.09,0.33,0.25,2.0
1758076848.69417,1758076848.67604,0.0,0.0,0.0,-21.7151,-36.15364,-7.96411,10.13,0.45,-0.03,2.0
1758076848.6973,1758076848.68604,0.0,0.0,0.0,-23.0329,-39.4195,-8.30789,10.13,0.45,-0.03,2.0
1758076848.71373,1758076848.69604,0.0,0.0,0.0,-24.92367,-38.50277,-7.96411,10.32,0.23,-0.48,2.0
1758076848.73203,1758076848.70604,0.0,0.0,0.0,-25.7831,-33.80451,-7.16197,10.32,0.23,-0.48,2.0
1758076848.7343,1758076848.71604,0.0,0.0,0.0,-27.04361,-27.96034,-6.07335,10.96,-0.16,-0.61,2.0
1758076848.73837,1758076848.72604,0.0,0.0,0.0,-28.59059,-21.08485,-4.64096,10.96,-0.16,-0.61,2.0
1758076848.75396,1758076848.73604,0.0,0.0,0.0,-32.08564,-9.5684,-3.55234,11.18,-0.32,-0.41,2.0
1758076848.75852,1758076848.74604,0.0,0.0,0.0,-34.60666,-3.32316,-3.89611,11.18,-0.03,0.28,2.0
1758076848.77404,1758076848.75604,0.0,0.0,0.0,-37.47144,0.51566,-5.84417,11.18,-0.03,0.28,2.0
1758076848.80864,1758076848.76604,0.0,0.0,0.0,-39.70598,-2.00535,-8.02141,11.57,0.53,1.15,2.0
1758076848.81388,1758076848.77604,0.0,0.0,0.0,-41.13837,-12.60507,-10.02676,11.57,0.53,1.15,2.0
1758076848.81525,1758076848.78604,0.0,0.0,0.0,-39.4195,-30.53865,-10.8862,12.0,0.27,2.04,2.0
1758076848.82371,1758076848.79604,0.0,0.0,0.0,-38.84654,-53.51426,-16.10011,12.0,0.27,2.04,2.0
1758076848.8241,1758076848.80604,0.0,0.0,0.0,-35.63798,-66.29122,-22.74642,11.64,-0.19,1.5,2.0
1758076848.83398,1758076848.81604,0.0,0.0,0.0,-30.30947,-66.11933,-26.06958,13.62,-0.56,1.14,2.0
1758076848.84908,1758076848.82604,0.0,0.0,0.0,-24.63719,-52.9986,-27.78845,13.62,-0.56,1.14,2.0
1758076848.85418,1758076848.83604,0.0,0.0,0.0,-18.90761,-39.76327,-27.50197,13.28,-0.55,2.19,2.0
1758076848.87337,1758076848.84604,0.0,0.0,0.0,-12.89155,-26.35606,-23.94964,13.28,-0.55,2.19,2.0
1758076848.87415,1758076848.85604,0.0,0.0,0.0,-12.71966,-23.72045,-20.97026,10.47,-0.01,2.81,2.0
1758076848.89362,1758076848.86604,0.0,0.0,0.0,-15.29797,-26.06958,-18.10547,10.47,-0.01,2.81,2.0
1758076848.89404,1758076848.87604,0.0,0.0,0.0,-20.05352,-26.35606,-16.10011,8.4,0.0,3.24,2.0
1758076848.89849,1758076848.88604,0.0,0.0,0.0,-28.93437,-16.50119,-15.64175,8.4,0.0,3.46,2.0
1758076848.91454,1758076848.89604,0.0,0.0,0.0,-34.60666,-10.94349,-16.272,9.53,-0.06,3.46,2.0
1758076848.93343,1758076848.90604,0.0,0.0,0.0,-38.44547,-8.88085,-15.98552,10.1,-0.14,3.11,2.0
1758076848.93389,1758076848.91604,0.0,0.0,0.0,-40.27893,-7.67763,-15.24068,10.1,-0.14,3.11,2.0
1758076848.9534,1758076848.92604,0.0,0.0,0.0,-40.10705,-0.80214,-13.17803,10.82,-0.24,2.13,2.0
1758076848.95413,1758076848.93604,0.0,0.0,0.0,-38.56006,5.27121,-11.86023,10.82,-0.24,2.13,2.0
1758076848.97337,1758076848.94604,0.0,0.0,0.0,-35.69527,11.45916,-9.39651,11.41,-0.51,1.34,2.0
1758076848.97387,1758076848.95604,0.0,0.0,0.0,-32.37212,17.24603,-7.16197,11.41,-0.51,1.34,2.0
1758076848.99332,1758076848.96604,0.0,0.0,0.0,-26.18417,24.00693,-4.0107,11.1,-1.0,1.34,2.0
1758076848.99385,1758076848.97604,0.0,0.0,0.0,-21.7724,26.75713,-2.29183,10.04,-1.56,0.68,2.0
1758076849.01338,1758076848.98604,0.0,0.0,0.0,-17.81899,29.04896,-0.74485,10.04,-1.56,0.68,2.0
1758076849.01385,1758076848.99604,0.0,0.0,0.0,-13.80828,31.45539,0.45837,9.26,-1.99,0.56,2.0
1758076849.01717,1758076849.00604,0.0,0.0,0.0,-8.65166,32.54401,1.83346,9.26,-1.99,0.56,2.0
1758076849.0338,1758076849.01604,0.0,0.0,0.0,-5.61499,32.08564,2.23454,8.7,-2.08,0.55,2.0
1758076849.03803,1758076849.02604,0.0,0.0,0.0,-3.09397,30.88243,2.7502,8.7,-2.08,0.55,2.0
1758076849.05396,1758076849.03604,0.0,0.0,0.0,-0.34377,29.04896,3.32316,8.57,-1.7,0.74,2.0
1758076849.05851,1758076849.04604,0.0,0.0,0.0,0.80214,26.47065,3.38045,8.68,-1.0,0.81,2.0
1758076849.07331,1758076849.05604,0.0,0.0,0.0,1.60428,24.75178,3.60963,8.68,-1.0,0.81,2.0
1758076849.08926,1758076849.06604,0.0,0.0,0.0,2.00535,23.49127,3.60963,8.93,-0.33,0.78,2.0
1758076849.11909,1758076849.07604,0.0,0.0,0.0,1.60428,22.86102,3.49504,8.93,-0.33,0.78,2.0
1758076849.12372,1758076849.08604,0.0,0.0,0.0,0.80214,21.94428,3.38045,9.1,0.04,0.72,2.0
1758076849.13353,1758076849.09604,0.0,0.0,0.0,0.17189,20.97026,3.38045,9.1,0.04,0.72,2.0
1758076849.13405,1758076849.10604,0.0,0.0,0.0,-0.22918,19.76705,3.32316,9.05,0.09,0.81,2.0
1758076849.1375,1758076849.11604,0.0,0.0,0.0,-1.14592,18.79302,3.03668,9.08,-0.1,0.76,2.0
1758076849.13829,1758076849.12604,0.0,0.0,0.0,-1.66158,18.62113,2.6929,9.08,-0.1,0.76,2.0
1758076849.15431,1758076849.13604,0.0,0.0,0.0,-2.29183,18.85031,2.46372,9.19,-0.33,0.55,2.0
1758076849.17402,1758076849.14604,0.0,0.0,0.0,-2.7502,19.19409,2.29183,9.19,-0.33,0.55,2.0
1758076849.17561,1758076849.15604,0.0,0.0,0.0,-3.26586,18.9649,1.83346,9.26,-0.51,0.28,2.0
1758076849.19366,1758076849.16604,0.0,0.0,0.0,-3.20856,18.50654,1.60428,9.26,-0.51,0.28,2.0
1758076849.19406,1758076849.17604,0.0,0.0,0.0,-2.7502,17.36062,1.43239,9.17,-0.58,0.06,2.0
1758076849.21363,1758076849.18604,0.0,0.0,0.0,-1.83346,15.69904,1.48969,9.17,-0.58,0.06,2.0
1758076849.21405,1758076849.19604,0.0,0.0,0.0,0.0,13.69369,1.48969,8.99,-0.53,0.0,2.0
1758076849.21821,1758076849.20604,0.0,0.0,0.0,1.71887,11.80293,1.60428,8.88,-0.44,-0.03,2.0
1758076849.2339,1758076849.21604,0.0,0.0,0.0,3.55234,10.08406,1.60428,8.88,-0.44,-0.03,2.0
1758076849.25397,1758076849.22604,0.0,0.0,0.0,5.27121,10.48513,1.43239,8.99,-0.47,0.07,2.0
1758076849.2545,1758076849.23604,0.0,0.0,0.0,7.50575,12.89155,1.48969,8.99,-0.47,0.07,2.0
1758076849.27341,1758076849.24604,0.0,0.0,0.0,8.76626,15.75634,2.00535,9.38,-0.66,0.11,2.0
1758076849.27386,1758076849.25604,0.0,0.0,0.0,9.74028,18.10547,2.40642,9.38,-0.66,0.11,2.0
1758076849.29347,1758076849.26604,0.0,0.0,0.0,10.59972,19.36597,3.38045,9.67,-0.87,0.2,2.0
1758076849.29389,1758076849.27604,0.0,0.0,0.0,11.00079,18.56383,4.0107,9.79,-1.01,0.05,2.0
1758076849.29882,1758076849.28604,0.0,0.0,0.0,11.28727,16.61578,4.52637,9.79,-1.01,0.05,2.0
1758076849.31392,1758076849.29604,0.0,0.0,0.0,12.14671,11.63104,5.55769,9.86,-0.88,-0.21,2.0
1758076849.31781,1758076849.30604,0.0,0.0,0.0,12.204,0.74485,5.84417,9.86,-0.88,-0.21,2.0
1758076849.33398,1758076849.31604,0.0,0.0,0.0,13.12073,-2.06265,4.92744,9.84,-0.54,-0.61,2.0
1758076849.35342,1758076849.32604,0.0,0.0,0.0,16.04282,-0.97403,4.81285,9.84,-0.54,-0.61,2.0
1758076849.35399,1758076849.33604,0.0,0.0,0.0,20.74107,2.63561,3.72423,10.96,-0.67,-0.61,2.0
1758076849.35749,1758076849.34604,0.0,0.0,0.0,31.39809,5.09932,2.63561,10.83,-1.28,-0.22,2.0
1758076849.37403,1758076849.35604,0.0,0.0,0.0,39.64868,2.92208,2.06265,10.83,-1.28,-0.22,2.0
1758076849.379,1758076849.36604,0.0,0.0,0.0,46.81066,-2.6929,2.00535,10.41,-1.76,0.83,2.0
1758076849.39802,1758076849.37604,0.0,0.0,0.0,52.19646,-12.49048,2.97938,10.41,-1.76,0.83,2.0
1758076849.3992,1758076849.38604,0.0,0.0,0.0,55.51962,-30.65324,7.04738,10.81,-1.68,2.17,2.0
1758076849.41402,1758076849.39604,0.0,0.0,0.0,54.08722,-41.65404,11.00079,10.81,-1.68,2.17,2.0
1758076849.41843,1758076849.40604,0.0,0.0,0.0,49.67545,-49.79003,16.73037,12.28,-1.31,3.37,2.0
1758076849.43435,1758076849.41604,0.0,0.0,0.0,41.99781,-53.11319,22.40265,12.28,-1.31,3.37,2.0
1758076849.45321,1758076849.42604,0.0,0.0,0.0,30.48136,-54.3737,28.01764,13.54,-0.09,3.72,2.0
1758076849.45376,1758076849.43604,0.0,0.0,0.0,23.94964,-56.20716,28.41871,11.3,1.25,2.06,2.0
1758076849.45882,1758076849.44604,0.0,0.0,0.0,19.88164,-55.92068,25.61122,11.3,1.25,2.06,2.0
1758076849.47402,1758076849.45604,0.0,0.0,0.0,16.73037,-67.32255,17.6471,8.66,1.32,1.33,2.0
1758076849.4903,1758076849.46604,0.0,0.0,0.0,17.99088,-79.92762,12.43318,8.66,1.32,1.33,2.0
1758076849.49145,1758076849.47604,0.0,0.0,0.0,20.45459,-81.93298,9.05273,7.59,0.01,2.85,2.0
1758076849.50863,1758076849.48604,0.0,0.0,0.0,23.72045,-75.91692,8.59437,7.59,0.01,2.85,2.0
1758076849.51385,1758076849.49604,0.0,0.0,0.0,29.56462,-64.40046,8.70896,10.85,-1.28,3.68,2.0
1758076849.52932,1758076849.50604,0.0,0.0,0.0,33.51803,-57.41038,10.25595,11.22,-1.15,3.67,2.0
1758076849.53346,1758076849.51604,0.0,0.0,0.0,37.18496,-48.64412,11.34457,11.22,-1.15,3.67,2.0
1758076849.54931,1758076849.52604,0.0,0.0,0.0,38.90384,-36.61201,10.71431,10.86,-0.51,2.14,2.0
1758076849.5542,1758076849.53604,0.0,0.0,0.0,38.56006,-15.41257,8.76626,10.86,-0.51,2.14,2.0
1758076849.56912,1758076849.54604,0.0,0.0,0.0,37.47144,-1.94806,6.87549,11.45,0.18,1.04,2.0
1758076849.57415,1758076849.55604,0.0,0.0,0.0,35.92446,10.31324,5.21392,11.45,0.18,1.04,2.0
1758076849.58935,1758076849.56604,0.0,0.0,0.0,34.32018,21.60051,3.72423,11.71,0.61,0.9,2.0
1758076849.59448,1758076849.57604,0.0,0.0,0.0,31.2262,36.84119,2.40642,11.76,0.85,0.49,2.0
1758076849.60903,1758076849.58604,0.0,0.0,0.0,28.93437,44.46153,2.46372,11.76,0.85,0.49,2.0
1758076849.61429,1758076849.59604,0.0,0.0,0.0,25.8404,50.53488,3.66693,11.17,1.07,0.53,2.0
1758076849.62918,1758076849.60604,0.0,0.0,0.0,22.57454,55.00395,4.52637,11.17,1.07,0.53,2.0
1758076849.6342,1758076849.61604,0.0,0.0,0.0,18.62113,60.33246,4.81285,10.16,0.98,0.93,2.0
1758076849.64931,1758076849.62604,0.0,0.0,0.0,17.13144,61.24919,5.15662,10.16,0.98,0.93,2.0
1758076849.65255,1758076849.63604,0.0,0.0,0.0,15.58445,61.65026,4.23989,9.29,0.55,0.72,2.0
1758076849.66903,1758076849.64604,0.0,0.0,0.0,13.98017,60.90542,2.57831,9.29,0.55,0.72,2.0
1758076849.67397,1758076849.65604,0.0,0.0,0.0,11.57375,56.55093,0.80214,8.88,0.09,1.09,2.0
1758076849.68933,1758076849.66604,0.0,0.0,0.0,9.74028,53.45696,-0.57296,8.58,-0.03,1.0,2.0
1758076849.69368,1758076849.67604,0.0,0.0,0.0,7.79223,49.79003,-2.00535,8.58,-0.03,1.0,2.0
1758076849.70902,1758076849.68604,0.0,0.0,0.0,4.64096,43.88857,-3.89611,8.44,0.11,1.1,2.0
1758076849.71421,1758076849.69604,0.0,0.0,0.0,2.46372,40.33623,-4.69825,8.44,0.11,1.1,2.0
1758076849.72903,1758076849.70604,0.0,0.0,0.0,0.51566,36.7266,-5.21392,8.34,0.38,1.02,2.0
1758076849.73421,1758076849.71604,0.0,0.0,0.0,-1.08862,32.6013,-5.72958,8.34,0.38,1.02,2.0
1758076849.74909,1758076849.72604,0.0,0.0,0.0,-3.20856,24.5226,-6.07335,8.27,0.54,1.11,2.0
1758076849.75421,1758076849.73604,0.0,0.0,0.0,-4.1253,19.42327,-5.84417,8.32,0.43,0.91,2.0
1758076849.76903,1758076849.74604,0.0,0.0,0.0,-4.52637,15.12609,-5.78687,8.32,0.43,0.91,2.0
1758076849.77339,1758076849.75604,0.0,0.0,0.0,-4.64096,11.11538,-5.61499,8.49,0.18,0.69,2.0
1758076849.78931,1758076849.76604,0.0,0.0,0.0,-4.92744,7.04738,-5.50039,8.49,0.18,0.69,2.0
1758076849.79344,1758076849.77604,0.0,0.0,0.0,-4.92744,6.24524,-5.09932,8.65,-0.06,0.58,2.0
1758076849.80934,1758076849.78604,0.0,0.0,0.0,-5.09932,6.07335,-4.64096,8.65,-0.06,0.58,2.0
1758076849.81534,1758076849.79604,0.0,0.0,0.0,-5.32851,6.24524,-4.0107,8.86,-0.27,0.62,2.0
1758076849.81569,1758076849.80604,0.0,0.0,0.0,-6.07335,6.7609,-2.23454,9.1,-0.37,0.6,2.0
1758076849.83396,1758076849.81604,0.0,0.0,0.0,-6.87549,6.70361,-0.97403,9.1,-0.37,0.6,2.0
1758076849.84354,1758076849.82604,0.0,0.0,0.0,-8.02141,6.18794,0.34377,9.25,-0.35,0.43,2.0
1758076849.85932,1758076849.83604,0.0,0.0,0.0,-9.62569,5.27121,1.08862,9.25,-0.35,0.43,2.0
1758076849.88863,1758076849.84604,0.0,0.0,0.0,-12.37589,3.03668,1.3751,9.42,-0.26,0.35,2.0
1758076849.88906,1758076849.85604,0.0,0.0,0.0,-14.15206,1.3751,0.57296,9.42,-0.26,0.35,2.0
1758076849.89907,1758076849.86604,0.0,0.0,0.0,-16.04282,-1.3751,-0.68755,9.68,-0.11,0.41,2.0
1758076849.90405,1758076849.87604,0.0,0.0,0.0,-18.73572,-5.4431,-3.60963,9.68,-0.11,0.41,2.0
1758076849.90577,1758076849.88604,0.0,0.0,0.0,-19.53786,-8.30789,-5.72958,9.87,0.04,0.45,2.0
1758076849.90641,1758076849.89604,0.0,0.0,0.0,-20.62648,-11.97482,-8.25059,9.81,0.21,0.37,2.0
1758076849.92284,1758076849.90604,0.0,0.0,0.0,-20.34,-19.53786,-9.22462,9.81,0.21,0.37,2.0
1758076849.93935,1758076849.91604,0.0,0.0,0.0,-20.79837,-28.70519,-10.31324,9.47,0.25,0.19,2.0
1758076849.9686,1758076849.92604,0.0,0.0,0.0,-21.48592,-30.59595,-10.8862,9.47,0.25,0.19,2.0
1758076849.96905,1758076849.93604,0.0,0.0,0.0,-22.97561,-28.93437,-12.14671,10.17,0.25,0.31,2.0
1758076849.97415,1758076849.94604,0.0,0.0,0.0,-25.26744,-22.57454,-12.83425,10.17,0.25,0.31,2.0
1758076849.9767,1758076849.95604,0.0,0.0,0.0,-27.1582,-13.12073,-11.97482,11.44,0.4,0.35,2.0
1758076849.97843,1758076849.96604,0.0,0.0,0.0,-28.36141,-7.62034,-11.00079,11.76,-0.5,0.1,2.0
1758076849.99401,1758076849.97604,0.0,0.0,0.0,-28.87707,-5.15662,-10.08406,11.76,-0.5,0.1,2.0
1758076849.99693,1758076849.98604,0.0,0.0,0.0,-28.64789,-5.72958,-8.93814,11.16,-1.55,0.27,2.0
1758076850.0131,1758076849.99604,0.0,0.0,0.0,-26.69983,-10.71431,-8.136,11.16,-1.55,0.27,2.0
1758076850.029,1758076850.00604,0.0,0.0,0.0,-25.15285,-11.17268,-8.59437,11.22,-1.76,0.37,2.0
1758076850.03427,1758076850.01604,0.0,0.0,0.0,-23.0329,-11.51645,-8.59437,11.22,-1.76,0.37,2.0
1758076850.05394,1758076850.02604,0.0,0.0,0.0,-21.25674,-20.22541,-8.99544,11.39,-1.06,0.95,2.0
1758076850.08388,1758076850.03604,0.0,0.0,0.0,-19.13679,-36.89849,-11.34457,11.02,-0.18,1.6,2.0
1758076850.08869,1758076850.04604,0.0,0.0,0.0,-17.30333,-44.28964,-14.09476,11.02,-0.18,1.6,2.0
1758076850.09395,1758076850.05604,0.0,0.0,0.0,-14.38124,-48.52953,-17.30333,13.01,0.19,2.11,2.0
1758076850.09434,1758076850.06604,0.0,0.0,0.0,-9.33921,-47.44091,-21.37133,13.01,0.19,2.11,2.0
1758076850.0986,1758076850.07604,0.0,0.0,0.0,-5.55769,-42.05511,-22.23076,13.53,0.28,2.67,2.0
1758076850.10429,1758076850.08604,0.0,0.0,0.0,-2.00535,-35.75257,-21.14215,13.53,0.28,2.67,2.0
1758076850.10919,1758076850.09604,0.0,0.0,0.0,0.40107,-32.08564,-18.90761,11.05,0.37,1.98,2.0
1758076850.1435,1758076850.10604,0.0,0.0,0.0,-0.22918,-31.51268,-14.9542,11.05,0.37,1.98,2.0
1758076850.14855,1758076850.11604,0.0,0.0,0.0,-3.60963,-33.00237,-13.46451,8.08,0.21,2.08,2.0
1758076850.14914,1758076850.12604,0.0,0.0,0.0,-8.0787,-32.71589,-12.54778,7.61,0.13,3.88,2.0
1758076850.17818,1758076850.13604,0.0,0.0,0.0,-13.40721,-31.28349,-12.43318,7.61,0.13,3.88,2.0
1758076850.17869,1758076850.14604,0.0,0.0,0.0,-21.08485,-27.67386,-13.34992,9.23,0.15,4.18,2.0
1758076850.17993,1758076850.15604,0.0,0.0,0.0,-24.75178,-25.21014,-13.69369,9.23,0.15,4.18,2.0
1758076850.18411,1758076850.16604,0.0,0.0,0.0,-27.10091,-20.62648,-13.5218,10.51,0.22,2.75,2.0
1758076850.18904,1758076850.17604,0.0,0.0,0.0,-28.76248,-13.12073,-13.17803,10.51,0.22,2.75,2.0
1758076850.20807,1758076850.18604,0.0,0.0,0.0,-30.02299,-1.3178,-11.51645,11.47,0.31,1.45,2.0
1758076850.20924,1758076850.19604,0.0,0.0,0.0,-30.25217,6.47442,-10.54242,11.51,0.01,1.17,2.0
1758076850.25368,1758076850.20604,0.0,0.0,0.0,-29.22085,12.83425,-8.36518,11.51,0.01,1.17,2.0
1758076850.25568,1758076850.21604,0.0,0.0,0.0,-27.04361,17.76169,-5.78687,10.93,-0.31,0.96,2.0
1758076850.25861,1758076850.22604,0.0,0.0,0.0,-22.51724,24.80907,-1.77617,10.93,-0.31,0.96,2.0
1758076850.26391,1758076850.23604,0.0,0.0,0.0,-18.73572,29.04896,-0.11459,10.15,-1.01,0.67,2.0
1758076850.26774,1758076850.24604,0.0,0.0,0.0,-15.29797,32.54401,1.77617,10.15,-1.01,0.67,2.0
1758076850.26906,1758076850.25604,0.0,0.0,0.0,-12.37589,36.7266,3.55234,9.54,-1.51,0.46,2.0
1758076850.28432,1758076850.26604,0.0,0.0,0.0,-9.39651,40.68,4.92744,9.31,-1.41,0.82,2.0
1758076850.29399,1758076850.27604,0.0,0.0,0.0,-8.42248,40.50812,5.4431,9.31,-1.41,0.82,2.0
1758076850.29649,1758076850.28604,0.0,0.0,0.0,-8.36518,40.39353,5.50039,8.92,-0.8,0.73,2.0
1758076850.31411,1758076850.29604,0.0,0.0,0.0,-9.22462,39.64868,4.64096,8.92,-0.8,0.73,2.0
1758076850.32939,1758076850.30604,0.0,0.0,0.0,-10.31324,38.38818,3.66693,8.82,-0.1,0.8,2.0
1758076850.33616,1758076850.31604,0.0,0.0,0.0,-11.45916,37.92981,2.6929,8.82,-0.1,0.8,2.0
1758076850.33806,1758076850.32604,0.0,0.0,0.0,-12.77696,37.47144,1.60428,8.76,0.39,0.78,2.0
1758076850.3541,1758076850.33604,0.0,0.0,0.0,-14.38124,34.32018,0.74485,8.76,0.39,0.95,2.0
1758076850.35722,1758076850.34604,0.0,0.0,0.0,-15.35527,32.37212,0.74485,8.62,0.53,0.95,2.0
1758076850.37332,1758076850.35604,0.0,0.0,0.0,-15.92823,31.28349,1.08862,8.82,0.23,0.98,2.0
1758076850.38935,1758076850.36604,0.0,0.0,0.0,-16.3293,29.96569,1.66158,8.82,0.23,0.98,2.0
1758076850.39341,1758076850.37604,0.0,0.0,0.0,-16.50119,27.67386,2.63561,8.98,-0.26,0.77,2.0
1758076850.40933,1758076850.38604,0.0,0.0,0.0,-16.3293,25.72581,3.03668,8.98,-0.26,0.77,2.0
1758076850.41348,1758076850.39604,0.0,0.0,0.0,-15.92823,23.66316,3.49504,8.99,-0.69,0.52,2.0
1758076850.42938,1758076850.40604,0.0,0.0,0.0,-15.06879,20.97026,3.83882,8.99,-0.69,0.52,2.0
1758076850.43353,1758076850.41604,0.0,0.0,0.0,-13.40721,17.13144,4.46907,8.91,-0.91,0.16,2.0
1758076850.44913,1758076850.42604,0.0,0.0,0.0,-11.57375,14.61043,4.87014,8.99,-0.94,0.19,2.0
1758076850.45853,1758076850.43604,0.0,0.0,0.0,-9.62569,11.86023,5.27121,8.99,-0.94,0.19,2.0
1758076850.45888,1758076850.44604,0.0,0.0,0.0,-7.39116,9.11003,5.72958,9.0,-0.79,0.11,2.0
1758076850.47939,1758076850.45604,0.0,0.0,0.0,-4.69825,8.36518,6.13065,9.0,-0.79,0.11,2.0
1758076850.48779,1758076850.46604,0.0,0.0,0.0,-3.55234,10.02676,6.07335,9.34,-0.54,0.36,2.0
1758076850.4882,1758076850.47604,0.0,0.0,0.0,-3.55234,12.37589,5.78687,9.34,-0.54,0.36,2.0
1758076850.50443,1758076850.48604,0.0,0.0,0.0,-5.21392,13.69369,5.90147,9.6,-0.07,0.77,2.0
1758076850.51242,1758076850.49604,0.0,0.0,0.0,-7.44845,13.5218,6.53172,9.82,0.33,1.09,2.0
1758076850.52834,1758076850.50604,0.0,0.0,0.0,-9.39651,12.83425,7.04738,9.82,0.33,1.09,2.0
1758076850.52928,1758076850.51604,0.0,0.0,0.0,-10.02676,10.31324,6.58902,9.7,-0.17,0.45,2.0
1758076850.54435,1758076850.52604,0.0,0.0,0.0,-9.22462,1.08862,5.61499,9.7,-0.17,0.45,2.0
1758076850.55353,1758076850.53604,0.0,0.0,0.0,-7.50575,-7.10468,4.23989,8.98,-0.92,-0.62,2.0
1758076850.56838,1758076850.54604,0.0,0.0,0.0,-5.84417,-14.49583,2.6929,8.98,-0.92,-0.62,2.0
1758076850.57415,1758076850.55604,0.0,0.0,0.0,-2.57831,-16.61578,0.97403,9.23,-1.12,-0.91,2.0
1758076850.58941,1758076850.56604,0.0,0.0,0.0,3.72423,-15.41257,-1.3751,10.57,-1.12,-0.56,2.0
1758076850.59428,1758076850.57604,0.0,0.0,0.0,9.74028,-12.89155,-2.34913,10.57,-1.12,-0.56,2.0
1758076850.60939,1758076850.58604,0.0,0.0,0.0,16.84496,-12.14671,-3.49504,11.16,-1.26,-0.09,2.0
1758076850.61626,1758076850.59604,0.0,0.0,0.0,23.54857,-14.03747,-3.89611,11.16,-1.26,-0.09,2.0
1758076850.61669,1758076850.60604,0.0,0.0,0.0,29.67921,-23.20479,-2.34913,11.73,-1.26,1.38,2.0
1758076850.63454,1758076850.61604,0.0,0.0,0.0,29.62192,-32.25753,0.45837,11.73,-1.26,1.38,2.0
1758076850.63613,1758076850.62604,0.0,0.0,0.0,26.41335,-39.3622,4.29718,12.81,-0.57,3.62,2.0
1758076850.65323,1758076850.63604,0.0,0.0,0.0,21.14215,-43.4875,9.11003,12.81,-0.57,3.62,2.0
1758076850.6691,1758076850.64604,0.0,0.0,0.0,14.78231,-48.01387,15.0115,13.38,0.0,3.86,2.0
1758076850.67431,1758076850.65604,0.0,0.0,0.0,11.63104,-53.80074,18.16276,11.57,-0.04,2.95,2.0
1758076850.68917,1758076850.66604,0.0,0.0,0.0,9.68299,-59.70221,20.11082,11.57,-0.04,2.95,2.0
1758076850.69377,1758076850.67604,0.0,0.0,0.0,9.4538,-63.19725,20.62648,9.74,-0.52,2.66,2.0
1758076850.70913,1758076850.68604,0.0,0.0,0.0,12.83425,-65.43179,19.13679,9.74,-0.52,2.66,2.0
1758076850.71361,1758076850.69604,0.0,0.0,0.0,17.18874,-71.50513,18.85031,9.12,-1.16,2.85,2.0
1758076850.72935,1758076850.70604,0.0,0.0,0.0,22.00158,-74.88559,17.58981,9.12,-1.16,2.85,2.0
1758076850.73425,1758076850.71604,0.0,0.0,0.0,29.39274,-71.50513,18.9649,8.89,-1.41,3.41,2.0
1758076850.74943,1758076850.72604,0.0,0.0,0.0,33.46074,-64.57235,20.11082,10.32,-1.36,2.6,2.0
1758076850.75483,1758076850.73604,0.0,0.0,0.0,36.03905,-56.03527,20.85567,10.32,-1.36,2.6,2.0
1758076850.76938,1758076850.74604,0.0,0.0,0.0,36.49741,-47.03984,20.22541,11.03,-0.67,2.83,2.0
1758076850.77698,1758076850.75604,0.0,0.0,0.0,33.11696,-31.11161,18.27736,11.03,-0.67,2.83,2.0
1758076850.77736,1758076850.76604,0.0,0.0,0.0,29.10626,-16.84496,15.92823,11.23,0.35,1.91,2.0
1758076850.79318,1758076850.77604,0.0,0.0,0.0,24.12152,-2.46372,13.23533,11.23,0.35,1.91,2.0
1758076850.80944,1758076850.78604,0.0,0.0,0.0,18.56383,9.91217,10.54242,11.41,1.36,0.82,2.0
1758076850.81779,1758076850.79604,0.0,0.0,0.0,9.5684,25.26744,6.8182,10.99,1.9,0.26,2.0
1758076850.81819,1758076850.80604,0.0,0.0,0.0,3.89611,34.14828,4.81285,10.99,1.9,0.26,2.0
1758076850.83415,1758076850.81604,0.0,0.0,0.0,-1.14592,42.97184,3.09397,10.82,1.78,0.1,2.0
1758076850.83883,1758076850.82604,0.0,0.0,0.0,-5.09932,49.90463,1.83346,10.82,1.78,0.1,2.0
1758076850.85844,1758076850.83604,0.0,0.0,0.0,-8.136,55.34772,0.0573,10.24,1.11,0.56,2.0
1758076850.86363,1758076850.84604,0.0,0.0,0.0,-8.36518,57.0093,-0.97403,10.24,1.11,0.56,2.0
1758076850.8793,1758076850.85604,0.0,0.0,0.0,-7.39116,56.89471,-1.48969,9.61,0.29,1.0,2.0
1758076850.88443,1758076850.86604,0.0,0.0,0.0,-6.07335,58.15522,-2.23454,9.61,0.29,1.0,2.0
1758076850.89355,1758076850.87604,0.0,0.0,0.0,-2.97938,58.3844,-2.97938,9.53,-0.37,1.42,2.0
1758076850.90912,1758076850.88604,0.0,0.0,0.0,-0.57296,56.55093,-3.38045,9.05,-0.77,1.59,2.0
1758076850.91927,1758076850.89604,0.0,0.0,0.0,1.20321,53.68615,-3.83882,9.05,-0.77,1.59,2.0
1758076850.92615,1758076850.90604,0.0,0.0,0.0,3.09397,51.45161,-4.52637,8.65,-0.85,1.58,2.0
1758076850.93403,1758076850.91604,0.0,0.0,0.0,3.72423,48.01387,-4.64096,8.65,-0.85,1.58,2.0
1758076850.94945,1758076850.92604,0.0,0.0,0.0,3.66693,44.40423,-4.81285,8.35,-0.58,1.39,2.0
1758076850.95431,1758076850.93604,0.0,0.0,0.0,3.32316,39.99245,-4.23989,8.35,-0.58,1.39,2.0
1758076850.96942,1758076850.94604,0.0,0.0,0.0,1.94806,30.53865,-2.97938,7.97,-0.17,1.29,2.0
1758076850.97428,1758076850.95604,0.0,0.0,0.0,0.51566,23.66316,-2.11994,7.74,0.22,1.13,2.0
1758076850.98919,1758076850.96604,0.0,0.0,0.0,-0.57296,17.36062,-0.80214,7.74,0.22,1.13,2.0
1758076850.99427,1758076850.97604,0.0,0.0,0.0,-2.00535,11.11538,0.0573,7.85,0.49,1.01,2.0
1758076851.00921,1758076850.98604,0.0,0.0,0.0,-4.18259,3.83882,0.34377,7.85,0.49,1.01,2.0
1758076851.01432,1758076850.99604,0.0,0.0,0.0,-5.55769,0.0,-0.11459,8.13,0.49,0.91,2.0
1758076851.02945,1758076851.00604,0.0,0.0,0.0,-7.10468,-1.20321,-0.85944,8.13,0.49,0.91,2.0
1758076851.03435,1758076851.01604,0.0,0.0,0.0,-8.36518,-1.48969,-2.06265,8.69,0.23,0.87,2.0
1758076851.04944,1758076851.02604,0.0,0.0,0.0,-9.96947,-2.6929,-3.32316,8.96,-0.11,0.91,2.0
1758076851.05436,1758076851.03604,0.0,0.0,0.0,-10.65701,-4.35448,-4.0107,8.96,-0.11,0.91,2.0
1758076851.06944,1758076851.04604,0.0,0.0,0.0,-11.28727,-7.04738,-4.29718,8.96,-0.33,0.76,2.0
1758076851.0743,1758076851.05604,0.0,0.0,0.0,-11.86023,-9.28192,-4.18259,8.96,-0.33,0.76,2.0
1758076851.08919,1758076851.06604,0.0,0.0,0.0,-12.43318,-13.80828,-3.20856,9.12,-0.4,0.56,2.0
1758076851.0968,1758076851.07604,0.0,0.0,0.0,-13.00614,-15.98552,-2.34913,9.12,-0.4,0.56,2.0
1758076851.09815,1758076851.08604,0.0,0.0,0.0,-13.75099,-18.10547,-1.20321,9.52,-0.39,0.35,2.0
1758076851.11452,1758076851.09604,0.0,0.0,0.0,-14.49583,-19.70975,-0.74485,9.52,-0.39,0.35,2.0
1758076851.11613,1758076851.10603,0.0,0.0,0.0,-16.10011,-21.48592,-0.85944,10.0,-0.35,0.15,2.0
1758076851.13345,1758076851.11603,0.0,0.0,0.0,-17.76169,-22.51724,-1.60428,10.39,-0.16,0.01,2.0
1758076851.14915,1758076851.12603,0.0,0.0,0.0,-19.82434,-22.34536,-2.97938,10.39,-0.16,0.01,2.0
1758076851.15429,1758076851.13603,0.0,0.0,0.0,-23.94964,-23.0902,-5.72958,10.68,0.34,0.03,2.0
1758076851.16921,1758076851.14603,0.0,0.0,0.0,-27.04361,-23.60586,-7.67763,10.68,0.34,0.03,2.0
1758076851.17435,1758076851.15603,0.0,0.0,0.0,-30.36677,-23.72045,-8.76626,10.87,0.87,-0.22,2.0
1758076851.18932,1758076851.16603,0.0,0.0,0.0,-33.23156,-23.37668,-9.11003,10.87,0.87,-0.22,2.0
1758076851.19435,1758076851.17603,0.0,0.0,0.0,-36.7266,-21.42862,-8.25059,11.32,0.4,-0.66,2.0
1758076851.20954,1758076851.18603,0.0,0.0,0.0,-38.1017,-19.53786,-7.21927,11.74,-0.32,-0.2,2.0
1758076851.21434,1758076851.19603,0.0,0.0,0.0,-38.15899,-17.99088,-6.58902,11.74,-0.32,-0.2,2.0
1758076851.22956,1758076851.20603,0.0,0.0,0.0,-37.24226,-18.10547,-7.04738,12.28,-0.95,0.35,2.0
1758076851.23549,1758076851.21603,0.0,0.0,0.0,-34.43476,-21.37133,-8.70896,12.28,-0.95,0.35,2.0
1758076851.23778,1758076851.22603,0.0,0.0,0.0,-32.14294,-26.75713,-10.37054,11.99,-1.22,1.11,2.0
1758076851.2542,1758076851.23603,0.0,0.0,0.0,-29.8511,-33.17426,-12.43318,11.99,-1.22,1.11,2.0
1758076851.26017,1758076851.24603,0.0,0.0,0.0,-27.33009,-35.52338,-14.15206,11.73,-0.98,1.42,2.0
1758076851.28864,1758076851.25603,0.0,0.0,0.0,-24.5226,-44.46153,-18.10547,12.41,-0.62,2.3,2.0
1758076851.2939,1758076851.26603,0.0,0.0,0.0,-22.57454,-53.05589,-20.11082,12.41,-0.62,2.3,2.0
1758076851.29433,1758076851.27603,0.0,0.0,0.0,-21.94428,-56.26446,-20.45459,11.5,0.24,1.74,2.0
1758076851.30381,1758076851.28603,0.0,0.0,0.0,-22.34536,-57.41038,-19.82434,11.5,0.24,1.74,2.0
1758076851.43869,1758076851.29603,0.0,0.0,0.0,-24.98096,-56.49364,-17.87628,9.91,0.82,1.58,2.0
1758076851.44363,1758076851.30603,0.0,0.0,0.0,-28.07493,-55.97798,-14.9542,9.91,0.82,1.58,2.0
1758076851.44423,1758076851.31603,0.0,0.0,0.0,-33.86181,-50.87865,-13.23533,8.65,0.9,2.15,2.0
1758076851.45365,1758076851.32603,0.0,0.0,0.0,-43.77398,-33.9764,-12.71966,8.65,0.9,2.15,2.0
1758076851.45405,1758076851.33603,0.0,0.0,0.0,-49.61814,-27.44468,-13.40721,9.57,0.39,3.69,2.0
1758076851.45783,1758076851.34603,0.0,0.0,0.0,-53.45696,-24.75178,-14.09476,9.52,-0.28,3.72,2.0
1758076851.45821,1758076851.35603,0.0,0.0,0.0,-54.3737,-21.37133,-14.03747,9.52,-0.28,3.72,2.0
1758076851.45946,1758076851.36603,0.0,0.0,0.0,-51.50891,-13.80828,-12.43318,10.57,-0.9,2.17,2.0
1758076851.46399,1758076851.37603,0.0,0.0,0.0,-47.61279,-6.8182,-10.31324,10.57,-0.9,2.17,2.0
1758076851.46891,1758076851.38603,0.0,0.0,0.0,-42.62806,1.3751,-7.84952,11.4,-1.47,1.03,2.0
1758076851.47392,1758076851.39603,0.0,0.0,0.0,-37.35685,9.5684,-4.87014,11.4,-1.47,1.03,2.0
1758076851.47453,1758076851.40603,0.0,0.0,0.0,-28.476,21.60051,-0.11459,11.53,-1.68,0.84,2.0
1758076851.47806,1758076851.41603,0.0,0.0,0.0,-22.91831,29.73651,2.6929,11.4,-1.65,0.73,2.0
1758076851.47921,1758076851.42603,0.0,0.0,0.0,-18.27736,35.75257,4.81285,11.4,-1.65,0.73,2.0
1758076851.48321,1758076851.43603,0.0,0.0,0.0,-14.43854,39.19032,6.58902,10.62,-1.66,0.45,2.0
1758076851.48378,1758076851.44603,0.0,0.0,0.0,-11.11538,43.25832,8.0787,10.62,-1.66,0.45,2.0
1758076851.48923,1758076851.45603,0.0,0.0,0.0,-9.96947,46.35228,8.136,10.26,-1.61,0.59,2.0
1758076851.49363,1758076851.46603,0.0,0.0,0.0,-9.05273,48.75871,7.84952,10.26,-1.61,0.59,2.0
1758076851.49806,1758076851.47603,0.0,0.0,0.0,-8.47978,49.79003,7.04738,9.83,-1.35,0.68,2.0
1758076851.49861,1758076851.48603,0.0,0.0,0.0,-7.79223,48.58683,5.72958,9.03,-0.95,0.81,2.0
1758076851.51841,1758076851.49603,0.0,0.0,0.0,-7.50575,46.63877,4.81285,9.03,-0.95,0.81,2.0
1758076851.52366,1758076851.50603,0.0,0.0,0.0,-7.16197,44.8053,3.83882,8.46,-0.61,0.72,2.0
1758076851.5382,1758076851.51603,0.0,0.0,0.0,-6.87549,42.22699,2.86479,8.46,-0.61,0.72,2.0
1758076851.54371,1758076851.52603,0.0,0.0,0.0,-7.04738,38.78925,2.11994,8.25,-0.35,0.59,2.0
1758076851.55845,1758076851.53603,0.0,0.0,0.0,-7.39116,36.21093,1.3751,8.25,-0.35,0.59,2.0
1758076851.56371,1758076851.54603,0.0,0.0,0.0,-7.84952,33.11696,1.03132,8.36,-0.26,0.66,2.0
1758076851.57823,1758076851.55603,0.0,0.0,0.0,-8.65166,28.07493,0.80214,8.36,-0.26,0.66,2.0
1758076851.58371,1758076851.56603,0.0,0.0,0.0,-8.70896,25.26744,1.03132,8.52,-0.36,0.58,2.0
1758076851.59851,1758076851.57603,0.0,0.0,0.0,-8.59437,22.74642,1.77617,8.77,-0.57,0.39,2.0
1758076851.60365,1758076851.58603,0.0,0.0,0.0,-8.42248,20.51189,2.63561,8.77,-0.57,0.39,2.0
1758076851.61825,1758076851.59603,0.0,0.0,0.0,-7.67763,17.30333,4.23989,8.83,-0.78,0.23,2.0
1758076851.62133,1758076851.60603,0.0,0.0,0.0,-6.99009,14.72501,5.09932,8.83,-0.78,0.23,2.0
1758076851.63731,1758076851.61603,0.0,0.0,0.0,-6.13065,12.43318,5.95876,8.79,-0.82,0.12,2.0
1758076851.63821,1758076851.62603,0.0,0.0,0.0,-5.27121,10.25595,6.53172,8.79,-0.82,0.12,2.0
1758076851.65348,1758076851.63603,0.0,0.0,0.0,-4.69825,7.62034,6.53172,8.83,-0.63,0.13,2.0
1758076851.66918,1758076851.64603,0.0,0.0,0.0,-4.81285,5.84417,6.24524,8.9,-0.12,0.25,2.0
1758076851.67443,1758076851.65603,0.0,0.0,0.0,-5.90147,5.27121,5.32851,8.9,-0.12,0.25,2.0
1758076851.68924,1758076851.66603,0.0,0.0,0.0,-8.136,5.84417,4.46907,9.23,0.45,0.43,2.0
1758076851.69389,1758076851.67603,0.0,0.0,0.0,-10.94349,8.47978,2.06265,9.23,0.45,0.43,2.0
1758076851.71321,1758076851.68603,0.0,0.0,0.0,-10.8289,10.54242,0.57296,9.46,0.16,0.27,2.0
1758076851.76883,1758076851.69603,0.0,0.0,0.0,-8.65166,11.74564,-0.68755,9.46,0.16,0.27,2.0
1758076851.76922,1758076851.70603,0.0,0.0,0.0,-4.92744,12.83425,-1.3178,9.45,-0.78,-0.54,2.0
1758076851.77634,1758076851.71603,0.0,0.0,0.0,2.06265,14.03747,-1.60428,9.76,-1.46,-0.43,2.0
1758076851.77731,1758076851.72603,0.0,0.0,0.0,7.04738,13.23533,-0.85944,9.76,-1.46,-0.43,2.0
1758076851.77856,1758076851.73603,0.0,0.0,0.0,11.63104,11.51645,-0.11459,9.93,-1.58,-0.08,2.0
1758076851.7792,1758076851.74603,0.0,0.0,0.0,17.53251,7.10468,1.03132,9.93,-1.58,-0.08,2.0
1758076851.77995,1758076851.75603,0.0,0.0,0.0,20.51189,1.03132,1.60428,10.01,-1.28,0.0,2.0
1758076851.78375,1758076851.76603,0.0,0.0,0.0,22.74642,-5.72958,1.94806,10.01,-1.28,0.0,2.0
1758076851.78903,1758076851.77603,0.0,0.0,0.0,24.4653,-11.00079,2.06265,9.81,-0.88,-0.38,2.0
1758076851.80851,1758076851.78603,0.0,0.0,0.0,27.1582,-12.204,1.43239,9.81,-0.88,-0.38,2.0
1758076851.80941,1758076851.79603,0.0,0.0,0.0,29.27814,-10.94349,1.08862,10.47,-0.61,-0.6,2.0
1758076851.82851,1758076851.80603,0.0,0.0,0.0,31.51268,-10.37054,0.57296,10.7,-0.62,-0.02,2.0
1758076851.8468,1758076851.81603,0.0,0.0,0.0,33.9764,-11.74564,0.51566,10.7,-0.62,-0.02,2.0
1758076851.84819,1758076851.82603,0.0,0.0,0.0,35.69527,-15.06879,1.71887,10.93,-0.89,1.2,2.0
1758076851.85101,1758076851.83603,0.0,0.0,0.0,34.72124,-19.88164,3.32316,10.93,-0.89,1.2,2.0
1758076851.86844,1758076851.84603,0.0,0.0,0.0,31.91375,-24.57989,5.50039,11.83,-0.56,2.87,2.0
1758076851.87265,1758076851.85603,0.0,0.0,0.0,27.33009,-26.12688,7.79223,11.83,-0.56,2.87,2.0
1758076851.88828,1758076851.86603,0.0,0.0,0.0,19.99623,-33.11696,11.11538,12.82,0.0,3.76,2.0
1758076851.89268,1758076851.87603,0.0,0.0,0.0,17.18874,-43.77398,13.98017,11.7,0.39,2.17,2.0
1758076851.90851,1758076851.88603,0.0,0.0,0.0,13.17803,-55.23313,13.69369,11.7,0.39,2.17,2.0
1758076851.91064,1758076851.89603,0.0,0.0,0.0,10.59972,-63.48372,14.32395,9.76,0.13,0.16,2.0
1758076851.92866,1758076851.90603,0.0,0.0,0.0,8.76626,-63.42643,13.69369,9.76,0.13,0.16,2.0
1758076851.93476,1758076851.91603,0.0,0.0,0.0,9.62569,-60.96271,12.43318,10.45,-0.66,1.19,2.0
1758076851.94927,1758076851.92603,0.0,0.0,0.0,11.97482,-59.41573,11.51645,10.45,-0.66,1.19,2.0
1758076851.95442,1758076851.93603,0.0,0.0,0.0,17.6471,-57.52497,10.54242,10.77,-1.42,3.33,2.0
1758076851.9695,1758076851.94603,0.0,0.0,0.0,21.60051,-51.16513,11.11538,11.05,-1.47,4.59,2.0
1758076851.97521,1758076851.95603,0.0,0.0,0.0,25.21014,-45.43555,11.91752,11.05,-1.47,4.59,2.0
1758076851.97773,1758076851.96603,0.0,0.0,0.0,27.84575,-39.24761,12.83425,10.16,-0.9,3.33,2.0
1758076851.99361,1758076851.97603,0.0,0.0,0.0,29.9084,-31.16891,13.86558,10.16,-0.9,3.33,2.0
1758076852.00957,1758076851.98603,0.0,0.0,0.0,29.73651,-25.55392,13.69369,9.48,-0.35,2.1,2.0
1758076852.01377,1758076851.99603,0.0,0.0,0.0,28.59059,-15.92823,12.54778,9.48,-0.35,2.1,2.0
1758076852.02963,1758076852.00603,0.0,0.0,0.0,26.64254,-2.92208,11.11538,11.03,0.24,1.62,2.0
1758076852.03399,1758076852.01603,0.0,0.0,0.0,22.00158,17.81899,8.25059,12.4,0.24,0.98,2.0
1758076852.04958,1758076852.02603,0.0,0.0,0.0,18.27736,28.24682,6.8182,12.4,0.74,0.98,2.0
1758076852.05364,1758076852.03603,0.0,0.0,0.0,14.61043,36.49741,4.98473,11.64,0.83,0.7,2.0
1758076852.06959,1758076852.04603,0.0,0.0,0.0,11.00079,43.54479,3.03668,11.64,0.83,0.7,2.0
1758076852.07443,1758076852.05603,0.0,0.0,0.0,6.99009,51.73809,0.0573,10.51,0.62,0.44,2.0
1758076852.07915,1758076852.06603,0.0,0.0,0.0,4.87014,53.39967,-0.85944,10.51,0.62,0.44,2.0
1758076852.09766,1758076852.07603,0.0,0.0,0.0,3.49504,52.9986,-1.77617,9.72,0.42,0.76,2.0
1758076852.09886,1758076852.08603,0.0,0.0,0.0,2.6929,52.54023,-1.20321,9.72,0.42,0.76,2.0
1758076852.11459,1758076852.09603,0.0,0.0,0.0,1.66158,52.25375,-1.3178,9.63,0.13,1.38,2.0
1758076852.1158,1758076852.10603,0.0,0.0,0.0,1.14592,51.73809,-1.20321,9.35,-0.13,1.06,2.0
1758076852.13358,1758076852.11603,0.0,0.0,0.0,0.85944,50.59217,-0.85944,9.35,-0.13,1.06,2.0
1758076852.14956,1758076852.12603,0.0,0.0,0.0,0.97403,47.89928,-0.57296,8.81,-0.35,1.21,2.0
1758076852.15367,1758076852.13603,0.0,0.0,0.0,0.80214,43.20102,-0.40107,8.81,-0.35,1.21,2.0
1758076852.16926,1758076852.14603,0.0,0.0,0.0,0.85944,40.7946,-0.45837,8.29,-0.45,1.12,2.0
1758076852.17362,1758076852.15603,0.0,0.0,0.0,0.74485,38.56006,-0.51566,8.29,-0.45,1.12,2.0
1758076852.18925,1758076852.16603,0.0,0.0,0.0,0.85944,34.66395,-0.97403,8.09,-0.45,1.16,2.0
1758076852.19371,1758076852.17603,0.0,0.0,0.0,1.3178,30.76784,-1.3178,7.99,-0.39,0.98,2.0
1758076852.20957,1758076852.18603,0.0,0.0,0.0,2.06265,26.41335,-1.03132,7.99,-0.39,0.98,2.0
1758076852.21359,1758076852.19603,0.0,0.0,0.0,2.92208,21.7151,-0.68755,8.21,-0.3,0.79,2.0
1758076852.22931,1758076852.20603,0.0,0.0,0.0,4.69825,16.90226,-0.0573,8.21,-0.3,0.79,2.0
1758076852.23388,1758076852.21603,0.0,0.0,0.0,5.61499,14.38124,0.45837,8.76,-0.23,0.69,2.0
1758076852.25358,1758076852.22603,0.0,0.0,0.0,6.41713,11.45916,0.97403,8.76,-0.23,0.69,2.0
1758076852.25469,1758076852.23603,0.0,0.0,0.0,6.70361,8.76626,0.85944,9.04,-0.21,0.7,2.0
1758076852.25776,1758076852.24603,0.0,0.0,0.0,6.8182,8.36518,1.3751,9.31,-0.25,0.6,2.0
1758076852.27361,1758076852.25603,0.0,0.0,0.0,6.99009,8.76626,1.20321,9.31,-0.25,0.6,2.0
1758076852.28963,1758076852.26603,0.0,0.0,0.0,7.04738,9.22462,1.14592,9.38,-0.4,0.55,2.0
1758076852.29372,1758076852.27603,0.0,0.0,0.0,6.87549,7.96411,1.3751,9.38,-0.4,0.55,2.0
1758076852.30959,1758076852.28603,0.0,0.0,0.0,6.47442,5.32851,0.97403,9.21,-0.48,0.39,2.0
1758076852.31392,1758076852.29603,0.0,0.0,0.0,5.78687,3.26586,0.85944,9.21,-0.48,0.39,2.0
1758076852.32962,1758076852.30603,0.0,0.0,0.0,4.92744,0.40107,0.97403,9.26,-0.35,0.17,2.0
1758076852.3339,1758076852.31603,0.0,0.0,0.0,3.72423,-2.63561,1.08862,9.26,-0.35,0.17,2.0
1758076852.3533,1758076852.32603,0.0,0.0,0.0,1.08862,-6.41713,0.74485,9.42,-0.04,0.22,2.0
1758076852.35447,1758076852.33603,0.0,0.0,0.0,-0.74485,-7.96411,0.0573,9.64,0.35,0.27,2.0
1758076852.35626,1758076852.34603,0.0,0.0,0.0,-2.92208,-9.96947,-0.68755,9.64,0.35,0.27,2.0
1758076852.37329,1758076852.35603,0.0,0.0,0.0,-6.8182,-11.45916,-2.97938,9.58,0.75,0.25,2.0
1758076852.3943,1758076852.36603,0.0,0.0,0.0,-9.85487,-17.58981,-4.92744,9.58,0.75,0.25,2.0
1758076852.3977,1758076852.37603,0.0,0.0,0.0,-13.40721,-22.34536,-7.44845,9.0,1.18,0.28,2.0
1758076852.39869,1758076852.38603,0.0,0.0,0.0,-18.22006,-22.86102,-10.8289,9.0,1.18,0.28,2.0
1758076852.41456,1758076852.39603,0.0,0.0,0.0,-26.12688,-21.48592,-15.41257,9.19,1.78,0.26,2.0
1758076852.41798,1758076852.40603,0.0,0.0,0.0,-30.76784,-19.82434,-16.73037,9.91,1.7,-0.46,2.0
1758076852.4336,1758076852.41603,0.0,0.0,0.0,-35.06502,-19.07949,-16.10011,9.91,1.7,-0.46,2.0
1758076852.45331,1758076852.42603,0.0,0.0,0.0,-38.38818,-20.05352,-14.43854,10.73,0.56,0.56,2.0
1758076852.45445,1758076852.43603,0.0,0.0,0.0,-39.53409,-25.21014,-11.00079,10.73,0.56,0.56,2.0
1758076852.45783,1758076852.44603,0.0,0.0,0.0,-37.52874,-30.99702,-9.4538,11.62,-0.72,1.0,2.0
1758076852.47366,1758076852.45603,0.0,0.0,0.0,-34.14828,-37.12767,-10.02676,11.62,-0.72,1.0,2.0
1758076852.49337,1758076852.46603,0.0,0.0,0.0,-28.07493,-36.7266,-10.8862,12.86,-1.88,3.14,2.0
1758076852.49448,1758076852.47603,0.0,0.0,0.0,-16.73037,-31.85646,-15.06879,14.63,-2.23,3.06,2.0
1758076852.50963,1758076852.48603,0.0,0.0,0.0,-8.0787,-33.46074,-17.53251,14.63,-2.23,3.06,2.0
1758076852.51382,1758076852.49603,0.0,0.0,0.0,-3.66693,-38.56006,-19.53786,12.41,-1.35,1.77,2.0
1758076852.52965,1758076852.50603,0.0,0.0,0.0,-1.83346,-42.05511,-19.25138,12.41,-1.35,1.77,2.0
1758076852.5321,1758076852.51603,0.0,0.0,0.0,-3.49504,-46.81066,-17.99088,10.57,-0.14,0.63,2.0
1758076852.54836,1758076852.52603,0.0,0.0,0.0,-6.07335,-46.40959,-16.3293,10.57,-0.14,0.63,2.0
1758076852.55199,1758076852.53603,0.0,0.0,0.0,-9.96947,-46.1231,-15.12609,10.63,0.26,1.29,2.0
1758076852.56841,1758076852.54603,0.0,0.0,0.0,-14.15206,-46.06581,-14.66772,10.63,0.26,1.29,2.0
1758076852.56936,1758076852.55603,0.0,0.0,0.0,-20.68378,-45.55015,-15.64175,10.35,0.31,3.15,2.0
1758076852.58838,1758076852.56603,0.0,0.0,0.0,-24.23611,-43.88857,-17.13144,9.79,0.14,4.06,2.0
1758076852.5896,1758076852.57603,0.0,0.0,0.0,-27.78845,-41.08107,-19.36597,9.79,0.14,4.06,2.0
1758076852.60544,1758076852.58603,0.0,0.0,0.0,-32.77319,-35.63798,-22.34536,9.16,-0.18,3.58,2.0
1758076852.60956,1758076852.59603,0.0,0.0,0.0,-35.52338,-33.23156,-23.20479,9.16,-0.18,3.58,2.0
1758076852.62781,1758076852.60603,0.0,0.0,0.0,-37.24226,-30.36677,-22.74642,8.99,-0.53,2.73,2.0
1758076852.63146,1758076852.61603,0.0,0.0,0.0,-37.92981,-24.17882,-20.51189,8.99,-0.53,2.73,2.0
1758076852.64835,1758076852.62603,0.0,0.0,0.0,-37.24226,-10.8289,-14.49583,10.34,-0.99,1.72,2.0
1758076852.65382,1758076852.63603,0.0,0.0,0.0,-35.06502,0.51566,-9.68299,11.65,-1.58,0.99,2.0
1758076852.66859,1758076852.64603,0.0,0.0,0.0,-31.62727,10.8862,-4.64096,11.65,-1.58,0.99,2.0
1758076852.67375,1758076852.65603,0.0,0.0,0.0,-27.73116,19.36597,-0.40107,11.59,-1.8,0.7,2.0
1758076852.68866,1758076852.66603,0.0,0.0,0.0,-21.25674,29.39274,3.83882,11.59,-1.8,0.7,2.0
1758076852.69385,1758076852.67603,0.0,0.0,0.0,-17.58981,36.21093,5.21392,10.7,-1.86,0.22,2.0
1758076852.70863,1758076852.68603,0.0,0.0,0.0,-14.66772,42.91454,5.27121,10.7,-1.86,0.22,2.0
1758076852.71361,1758076852.69603,0.0,0.0,0.0,-12.204,48.70141,4.58366,10.22,-1.81,0.05,2.0
1758076852.72864,1758076852.70603,0.0,0.0,0.0,-10.08406,55.92068,2.57831,9.81,-1.5,0.23,2.0
1758076852.73382,1758076852.71603,0.0,0.0,0.0,-9.74028,59.01466,1.08862,9.81,-1.5,0.23,2.0
