timeStamp,timeStampAlign,roll,pitch,yaw,gyro_x,gyro_y,gyro_z,acc_x,acc_y,acc_z,flag_num
1758088988.42464,1758088986.59652,0.0,0.0,0.0,14.61043,-39.70598,3.49504,10.19,-0.31,2.42,4.0
1758088988.42603,1758088986.60652,0.0,0.0,0.0,13.23533,-38.73195,5.78687,10.7,-0.02,1.97,4.0
1758088988.42887,1758088986.61652,0.0,0.0,0.0,12.204,-33.05967,7.39116,10.7,-0.02,1.97,4.0
1758088988.44403,1758088986.62652,0.0,0.0,0.0,11.45916,-27.67386,8.76626,10.61,0.16,1.23,4.0
1758088988.46957,1758088986.63652,0.0,0.0,0.0,11.22997,-20.05352,9.22462,9.74,0.0,0.99,4.0
1758088988.47667,1758088986.64652,0.0,0.0,0.0,12.08941,-19.53786,8.59437,9.74,0.0,0.99,4.0
1758088988.47779,1758088986.65652,0.0,0.0,0.0,12.37589,-21.25674,6.24524,9.36,-0.24,1.26,4.0
1758088988.47981,1758088986.66652,0.0,0.0,0.0,13.12073,-21.25674,3.20856,9.36,-0.24,1.26,4.0
1758088988.49519,1758088986.67652,0.0,0.0,0.0,14.43854,-20.05352,1.60428,10.13,-0.36,1.39,4.0
1758088988.49706,1758088986.68652,0.0,0.0,0.0,15.41257,-20.05352,0.68755,10.13,-0.36,1.39,4.0
1758088988.51447,1758088986.69652,0.0,0.0,0.0,16.73037,-19.19409,0.68755,10.27,-0.23,1.41,4.0
1758088988.5173,1758088986.70652,0.0,0.0,0.0,18.22006,-16.50119,1.66158,10.27,-0.23,1.41,4.0
1758088988.53283,1758088986.71652,0.0,0.0,0.0,19.07949,-12.77696,2.86479,10.03,-0.07,1.3,4.0
1758088988.53651,1758088986.72652,0.0,0.0,0.0,19.48057,-8.59437,4.35448,9.89,0.09,1.25,4.0
1758088988.5601,1758088986.73652,0.0,0.0,0.0,19.70975,-2.7502,6.07335,9.89,0.09,1.25,4.0
1758088988.58005,1758088986.74652,0.0,0.0,0.0,19.13679,7.67763,7.62034,10.03,0.42,1.1,4.0
1758088988.58309,1758088986.75652,0.0,0.0,0.0,18.73572,14.66772,8.25059,10.03,0.42,1.1,4.0
1758088988.61564,1758088986.76652,0.0,0.0,0.0,17.53251,19.19409,8.65166,10.05,0.79,0.93,4.0
1758088988.61841,1758088986.77652,0.0,0.0,0.0,16.3293,22.40265,8.99544,10.05,0.79,0.93,4.0
1758088988.6244,1758088986.78652,0.0,0.0,0.0,14.38124,24.5226,8.25059,10.12,1.01,1.09,4.0
1758088988.62583,1758088986.79652,0.0,0.0,0.0,13.06344,24.17882,7.10468,10.38,1.03,1.2,4.0
1758088988.65611,1758088986.80652,0.0,0.0,0.0,11.97482,22.57454,5.50039,10.38,1.03,1.2,4.0
1758088988.6595,1758088986.81652,0.0,0.0,0.0,10.59972,21.02755,3.55234,10.54,0.9,1.17,4.0
1758088988.66224,1758088986.82652,0.0,0.0,0.0,9.11003,17.81899,0.40107,10.54,0.9,1.17,4.0
1758088988.66874,1758088986.83652,0.0,0.0,0.0,8.70896,14.72501,-1.77617,10.42,0.75,1.03,4.0
1758088988.67023,1758088986.84652,0.0,0.0,0.0,8.02141,11.00079,-3.83882,10.42,0.75,1.03,4.0
1758088988.67841,1758088986.85652,0.0,0.0,0.0,7.79223,7.67763,-5.55769,10.16,0.66,1.04,4.0
1758088988.68238,1758088986.86652,0.0,0.0,0.0,7.73493,4.46907,-7.39116,10.3,0.55,0.94,4.0
1758088988.68964,1758088986.87652,0.0,0.0,0.0,7.84952,4.69825,-7.96411,10.3,0.55,0.94,4.0
1758088988.69803,1758088986.88652,0.0,0.0,0.0,8.136,6.47442,-8.136,10.53,0.41,0.85,4.0
1758088988.7142,1758088986.89652,0.0,0.0,0.0,8.25059,11.74564,-7.73493,10.53,0.41,0.85,4.0
1758088988.71539,1758088986.90652,0.0,0.0,0.0,8.36518,13.98017,-6.8182,10.46,0.24,0.86,4.0
1758088988.73414,1758088986.91652,0.0,0.0,0.0,8.25059,13.69369,-5.84417,10.46,0.24,0.86,4.0
1758088988.73938,1758088986.92652,0.0,0.0,0.0,7.96411,11.45916,-4.81285,9.87,0.21,1.0,4.0
1758088988.75422,1758088986.93652,0.0,0.0,0.0,7.10468,7.21927,-3.38045,9.87,0.21,1.0,4.0
1758088988.75542,1758088986.94652,0.0,0.0,0.0,6.24524,4.92744,-2.63561,9.74,0.26,0.95,4.0
1758088988.77528,1758088986.95652,0.0,0.0,0.0,5.50039,2.86479,-1.83346,9.9,0.35,0.97,4.0
1758088988.78261,1758088986.96652,0.0,0.0,0.0,4.69825,1.08862,-1.20321,9.9,0.35,0.97,4.0
1758088988.80004,1758088986.97652,0.0,0.0,0.0,4.1253,-1.3751,-0.57296,9.97,0.34,1.01,4.0
1758088988.80462,1758088986.98652,0.0,0.0,0.0,4.0107,-2.46372,-0.45837,9.97,0.34,1.01,4.0
1758088988.8096,1758088986.99652,0.0,0.0,0.0,4.23989,-3.20856,-0.57296,9.93,0.22,1.08,4.0
1758088988.81525,1758088987.00652,0.0,0.0,0.0,4.69825,-3.66693,-0.74485,9.93,0.22,1.08,4.0
1758088988.83224,1758088987.01652,0.0,0.0,0.0,5.78687,-4.64096,-1.3178,9.9,0.08,1.13,4.0
1758088988.83819,1758088987.02652,0.0,0.0,0.0,6.58902,-4.81285,-1.60428,9.94,-0.07,1.03,4.0
1758088988.85405,1758088987.03652,0.0,0.0,0.0,7.67763,-4.18259,-1.66158,9.94,-0.07,1.03,4.0
1758088988.87742,1758088987.04652,0.0,0.0,0.0,7.79223,-4.64096,-1.83346,10.0,-0.15,0.94,4.0
1758088988.87799,1758088987.05652,0.0,0.0,0.0,8.59437,-6.7609,-1.43239,10.0,-0.15,0.94,4.0
1758088988.88514,1758088987.06652,0.0,0.0,0.0,8.42248,-9.28192,-1.3178,9.84,-0.13,0.91,4.0
1758088988.90531,1758088987.07652,0.0,0.0,0.0,8.25059,-9.91217,-1.20321,9.84,-0.13,0.91,4.0
1758088988.91528,1758088987.08652,0.0,0.0,0.0,7.44845,-8.0787,-0.57296,10.01,-0.01,0.77,4.0
1758088988.91883,1758088987.09652,0.0,0.0,0.0,6.99009,-2.23454,0.0573,10.37,0.11,0.59,4.0
1758088988.92428,1758088987.10652,0.0,0.0,0.0,6.41713,1.3751,0.68755,10.37,0.11,0.59,4.0
1758088988.92467,1758088987.11652,0.0,0.0,0.0,5.95876,4.23989,1.14592,10.19,0.13,0.65,4.0
1758088988.94148,1758088987.12652,0.0,0.0,0.0,5.55769,7.39116,1.71887,10.19,0.13,0.65,4.0
1758088988.95024,1758088987.13652,0.0,0.0,0.0,5.55769,8.25059,1.94806,9.95,0.11,0.71,4.0
1758088988.96409,1758088987.14652,0.0,0.0,0.0,5.55769,8.36518,1.94806,9.95,0.11,0.71,4.0
1758088988.96876,1758088987.15652,0.0,0.0,0.0,5.78687,8.30789,1.71887,9.76,0.11,0.73,4.0
1758088988.97788,1758088987.16652,0.0,0.0,0.0,5.78687,8.30789,1.14592,9.69,0.11,0.63,4.0
1758088988.99429,1758088987.17652,0.0,0.0,0.0,5.95876,8.42248,0.97403,9.69,0.07,0.63,4.0
1758088989.00439,1758088987.18652,0.0,0.0,0.0,6.35983,8.59437,0.57296,9.67,0.02,0.58,4.0
1758088989.00643,1758088987.19652,0.0,0.0,0.0,6.41713,8.30789,0.22918,9.67,0.02,0.58,4.0
1758088989.01889,1758088987.20652,0.0,0.0,0.0,6.18794,6.18794,0.11459,9.57,-0.01,0.58,4.0
1758088989.0736,1758088987.21652,0.0,0.0,0.0,5.90147,4.92744,0.0573,9.57,-0.01,0.58,4.0
1758088989.12432,1758088987.22652,0.0,0.0,0.0,5.4431,4.35448,0.34377,9.49,0.01,0.53,4.0
1758088989.12748,1758088987.23652,0.0,0.0,0.0,4.98473,4.64096,0.68755,9.49,0.01,0.53,4.0
1758088989.13815,1758088987.24652,0.0,0.0,0.0,4.18259,4.92744,1.48969,9.63,0.06,0.42,4.0
1758088989.13983,1758088987.25652,0.0,0.0,0.0,3.55234,4.58366,2.23454,9.55,0.11,0.35,4.0
1758088989.14237,1758088987.26652,0.0,0.0,0.0,2.97938,3.95341,2.7502,9.55,0.11,0.35,4.0
1758088989.14573,1758088987.27652,0.0,0.0,0.0,2.63561,3.89611,3.32316,9.58,0.16,0.3,4.0
1758088989.15033,1758088987.28652,0.0,0.0,0.0,2.00535,2.86479,3.66693,9.58,0.16,0.3,4.0
1758088989.15915,1758088987.29652,0.0,0.0,0.0,1.3751,2.11994,3.95341,9.49,0.18,0.3,4.0
1758088989.16031,1758088987.30652,0.0,0.0,0.0,0.97403,1.14592,4.18259,9.49,0.18,0.3,4.0
1758088989.16744,1758088987.31652,0.0,0.0,0.0,0.68755,0.22918,4.1253,9.45,0.17,0.4,4.0
1758088989.1747,1758088987.32652,0.0,0.0,0.0,0.40107,0.40107,4.1253,9.5,0.11,0.44,4.0
1758088989.18041,1758088987.33652,0.0,0.0,0.0,0.40107,1.83346,4.18259,9.5,0.11,0.44,4.0
1758088989.1893,1758088987.34652,0.0,0.0,0.0,0.40107,4.23989,4.35448,9.71,0.0,0.5,4.0
1758088989.19025,1758088987.35652,0.0,0.0,0.0,0.45837,6.41713,4.87014,9.71,0.0,0.5,4.0
1758088989.19805,1758088987.36652,0.0,0.0,0.0,0.57296,5.4431,5.09932,9.51,-0.1,0.56,4.0
1758088989.20897,1758088987.37652,0.0,0.0,0.0,0.80214,2.7502,5.4431,9.51,-0.1,0.56,4.0
1758088989.21019,1758088987.38652,0.0,0.0,0.0,0.51566,-0.97403,5.09932,9.1,-0.11,0.58,4.0
1758088989.21389,1758088987.39652,0.0,0.0,0.0,0.11459,-5.84417,4.69825,9.14,-0.01,0.53,4.0
1758088989.21531,1758088987.40652,0.0,0.0,0.0,-0.34377,-7.50575,4.52637,9.14,-0.01,0.53,4.0
1758088989.2326,1758088987.41652,0.0,0.0,0.0,-0.85944,-8.93814,4.46907,9.52,0.06,0.45,4.0
1758088989.23694,1758088987.42652,0.0,0.0,0.0,-1.66158,-9.33921,4.46907,9.52,0.06,0.45,4.0
1758088989.25492,1758088987.43652,0.0,0.0,0.0,-2.6929,-9.4538,4.29718,9.87,0.08,0.47,4.0
1758088989.25604,1758088987.44652,0.0,0.0,0.0,-3.20856,-10.08406,4.23989,9.87,0.08,0.47,4.0
1758088989.27299,1758088987.45652,0.0,0.0,0.0,-3.72423,-10.94349,4.35448,9.93,0.04,0.58,4.0
1758088989.27737,1758088987.46652,0.0,0.0,0.0,-3.83882,-11.34457,4.46907,9.93,0.04,0.58,4.0
1758088989.29484,1758088987.47652,0.0,0.0,0.0,-3.66693,-10.54242,4.52637,9.97,-0.03,0.62,4.0
1758088989.2982,1758088987.48652,0.0,0.0,0.0,-3.38045,-9.4538,4.52637,10.16,-0.11,0.61,4.0
1758088989.31438,1758088987.49652,0.0,0.0,0.0,-2.86479,-8.47978,4.64096,10.16,-0.11,0.61,4.0
1758088989.31648,1758088987.50652,0.0,0.0,0.0,-2.00535,-7.79223,4.52637,10.26,-0.2,0.64,4.0
1758088989.33262,1758088987.51652,0.0,0.0,0.0,-1.3751,-6.53172,4.52637,10.26,-0.2,0.64,4.0
1758088989.33463,1758088987.52652,0.0,0.0,0.0,-0.57296,-6.18794,4.23989,10.34,-0.26,0.66,4.0
1758088989.35218,1758088987.53651,0.0,0.0,0.0,0.11459,-5.27121,3.95341,10.34,-0.26,0.66,4.0
1758088989.35418,1758088987.54651,0.0,0.0,0.0,1.71887,-5.09932,3.55234,10.38,-0.33,0.72,4.0
1758088989.37266,1758088987.55651,0.0,0.0,0.0,2.63561,-4.81285,3.20856,10.29,-0.37,0.72,4.0
1758088989.37466,1758088987.56651,0.0,0.0,0.0,3.60963,-4.52637,3.09397,10.29,-0.37,0.72,4.0
1758088989.3934,1758088987.57651,0.0,0.0,0.0,4.52637,-4.0107,2.92208,10.31,-0.38,0.67,4.0
1758088989.3959,1758088987.58651,0.0,0.0,0.0,5.90147,-2.97938,2.97938,10.31,-0.38,0.67,4.0
1758088989.41308,1758088987.59651,0.0,0.0,0.0,6.7609,-2.57831,2.97938,10.4,-0.4,0.63,4.0
1758088989.41511,1758088987.60651,0.0,0.0,0.0,7.33386,-1.71887,3.03668,10.4,-0.4,0.63,4.0
1758088989.43388,1758088987.61651,0.0,0.0,0.0,8.0787,-1.08862,3.20856,10.51,-0.4,0.62,4.0
1758088989.43509,1758088987.62651,0.0,0.0,0.0,8.76626,-0.40107,3.49504,10.53,-0.38,0.6,4.0
1758088989.45244,1758088987.63651,0.0,0.0,0.0,9.28192,-0.0573,3.66693,10.53,-0.38,0.6,4.0
1758088989.45501,1758088987.64651,0.0,0.0,0.0,9.74028,0.0573,3.60963,10.4,-0.39,0.62,4.0
1758088989.47067,1758088987.65651,0.0,0.0,0.0,10.08406,0.51566,3.60963,10.4,-0.39,0.62,4.0
1758088989.4744,1758088987.66651,0.0,0.0,0.0,10.65701,1.3751,3.38045,10.23,-0.38,0.61,4.0
1758088989.49373,1758088987.67651,0.0,0.0,0.0,10.8862,1.3178,3.38045,10.23,-0.38,0.61,4.0
1758088989.49714,1758088987.68651,0.0,0.0,0.0,11.22997,1.03132,3.26586,9.93,-0.32,0.57,4.0
1758088989.51368,1758088987.69651,0.0,0.0,0.0,11.34457,0.80214,2.97938,9.93,-0.32,0.57,4.0
1758088989.51958,1758088987.70651,0.0,0.0,0.0,11.28727,1.14592,2.86479,9.85,-0.26,0.58,4.0
1758088989.53801,1758088987.71651,0.0,0.0,0.0,11.17268,2.00535,2.7502,10.01,-0.14,0.51,4.0
1758088989.70021,1758088987.72651,0.0,0.0,0.0,11.00079,2.57831,2.86479,10.01,-0.14,0.51,4.0
1758088989.70152,1758088987.73651,0.0,0.0,0.0,10.59972,3.38045,2.97938,10.04,-0.08,0.47,4.0
1758088989.70358,1758088987.74651,0.0,0.0,0.0,10.19865,3.95341,3.03668,10.04,-0.08,0.47,4.0
1758088989.70421,1758088987.75651,0.0,0.0,0.0,10.02676,4.52637,3.09397,10.03,-0.12,0.45,4.0
1758088989.70625,1758088987.76651,0.0,0.0,0.0,9.74028,4.18259,3.20856,10.03,-0.12,0.45,4.0
1758088989.70681,1758088987.77651,0.0,0.0,0.0,9.28192,2.6929,3.03668,9.85,-0.22,0.48,4.0
1758088989.70749,1758088987.78651,0.0,0.0,0.0,9.22462,1.83346,2.6929,9.64,-0.3,0.47,4.0
1758088989.70948,1758088987.79651,0.0,0.0,0.0,9.11003,0.80214,2.29183,9.64,-0.3,0.47,4.0
1758088989.71016,1758088987.80651,0.0,0.0,0.0,8.88085,-0.17189,1.77617,9.51,-0.31,0.43,4.0
1758088989.71455,1758088987.81651,0.0,0.0,0.0,8.42248,-1.20321,0.85944,9.51,-0.31,0.43,4.0
1758088989.71531,1758088987.82651,0.0,0.0,0.0,8.30789,-0.57296,0.57296,9.6,-0.28,0.36,4.0
1758088989.71642,1758088987.83651,0.0,0.0,0.0,8.02141,0.22918,0.51566,9.6,-0.28,0.36,4.0
1758088989.71884,1758088987.84651,0.0,0.0,0.0,7.79223,0.97403,0.68755,9.78,-0.2,0.29,4.0
1758088989.71992,1758088987.85651,0.0,0.0,0.0,7.50575,1.3178,1.14592,9.78,-0.17,0.28,4.0
1758088989.72402,1758088987.86651,0.0,0.0,0.0,7.21927,0.97403,1.71887,9.78,-0.17,0.28,4.0
1758088989.72498,1758088987.87651,0.0,0.0,0.0,6.8182,0.80214,2.06265,9.72,-0.19,0.28,4.0
1758088989.72978,1758088987.88651,0.0,0.0,0.0,6.53172,0.22918,2.29183,9.72,-0.19,0.28,4.0
1758088989.73261,1758088987.89651,0.0,0.0,0.0,5.90147,-0.97403,2.23454,9.59,-0.22,0.26,4.0
1758088989.73301,1758088987.90651,0.0,0.0,0.0,5.61499,-1.83346,2.11994,9.59,-0.22,0.26,4.0
1758088989.73436,1758088987.91651,0.0,0.0,0.0,5.15662,-2.00535,1.77617,9.49,-0.23,0.24,4.0
1758088989.73491,1758088987.92651,0.0,0.0,0.0,4.81285,-1.20321,1.77617,9.49,-0.23,0.24,4.0
1758088989.75187,1758088987.93651,0.0,0.0,0.0,4.46907,-0.0573,2.23454,9.53,-0.2,0.14,4.0
1758088989.75394,1758088987.94651,0.0,0.0,0.0,4.1253,0.0573,2.63561,9.48,-0.16,0.11,4.0
1758088989.76991,1758088987.95651,0.0,0.0,0.0,3.55234,-0.11459,2.97938,9.48,-0.16,0.11,4.0
1758088989.77538,1758088987.96651,0.0,0.0,0.0,2.92208,-0.22918,3.32316,9.59,-0.12,0.1,4.0
1758088989.79437,1758088987.97651,0.0,0.0,0.0,2.29183,-0.34377,3.49504,9.59,-0.12,0.1,4.0
1758088989.79644,1758088987.98651,0.0,0.0,0.0,2.00535,-0.22918,3.38045,9.78,-0.14,0.13,4.0
1758088989.811,1758088987.99651,0.0,0.0,0.0,1.48969,-0.17189,3.60963,9.78,-0.14,0.13,4.0
1758088989.82783,1758088988.00651,0.0,0.0,0.0,1.08862,-0.85944,3.26586,9.74,-0.17,0.2,4.0
1758088989.82906,1758088988.01651,0.0,0.0,0.0,0.80214,-1.48969,3.09397,9.54,-0.26,0.21,4.0
1758088989.84423,1758088988.02651,0.0,0.0,0.0,0.80214,-1.60428,3.03668,9.54,-0.26,0.21,4.0
1758088989.84596,1758088988.03651,0.0,0.0,0.0,0.57296,-1.60428,3.09397,9.58,-0.31,0.13,4.0
1758088989.86479,1758088988.04651,0.0,0.0,0.0,0.45837,-1.94806,3.38045,9.58,-0.31,0.13,4.0
1758088989.86963,1758088988.05651,0.0,0.0,0.0,0.34377,-1.48969,3.89611,9.58,-0.3,0.13,4.0
1758088989.885,1758088988.06651,0.0,0.0,0.0,0.34377,-0.80214,4.46907,9.58,-0.3,0.13,4.0
1758088989.89445,1758088988.07651,0.0,0.0,0.0,0.11459,0.22918,4.87014,9.73,-0.23,0.09,4.0
1758088989.89484,1758088988.08651,0.0,0.0,0.0,0.0,1.3178,5.50039,9.76,-0.1,0.1,4.0
1758088989.91898,1758088988.09651,0.0,0.0,0.0,-0.11459,2.00535,5.84417,9.76,-0.1,0.1,4.0
1758088990.00926,1758088988.10651,0.0,0.0,0.0,-0.22918,2.7502,6.13065,9.79,0.02,0.16,4.0
1758088990.00966,1758088988.11651,0.0,0.0,0.0,-0.22918,2.57831,6.35983,9.79,0.02,0.16,4.0
1758088990.01506,1758088988.12651,0.0,0.0,0.0,-0.11459,1.60428,6.24524,9.57,0.05,0.18,4.0
1758088990.01547,1758088988.13651,0.0,0.0,0.0,-0.0573,1.71887,6.07335,9.57,0.05,0.18,4.0
1758088990.01759,1758088988.14651,0.0,0.0,0.0,0.11459,2.11994,5.55769,9.55,0.03,0.08,4.0
1758088990.01886,1758088988.15651,0.0,0.0,0.0,0.57296,3.32316,5.15662,9.55,0.03,0.08,4.0
1758088990.01961,1758088988.16651,0.0,0.0,0.0,0.80214,4.29718,5.15662,9.67,-0.01,-0.02,4.0
1758088990.04479,1758088988.17651,0.0,0.0,0.0,1.60428,5.15662,5.15662,9.85,-0.07,0.08,4.0
1758088990.04616,1758088988.18651,0.0,0.0,0.0,2.29183,4.64096,5.27121,9.85,-0.07,0.08,4.0
1758088990.05042,1758088988.19651,0.0,0.0,0.0,3.38045,4.0107,5.21392,9.95,-0.12,0.17,4.0
1758088990.05438,1758088988.20651,0.0,0.0,0.0,4.23989,3.95341,5.15662,9.95,-0.12,0.17,4.0
1758088990.05627,1758088988.21651,0.0,0.0,0.0,4.98473,3.38045,5.09932,10.41,-0.11,0.45,4.0
1758088990.05701,1758088988.22651,0.0,0.0,0.0,6.18794,3.32316,4.58366,10.41,-0.11,0.45,4.0
1758088990.05884,1758088988.23651,0.0,0.0,0.0,7.73493,2.6929,4.1253,10.65,-0.11,0.55,4.0
1758088990.05947,1758088988.24651,0.0,0.0,0.0,8.65166,2.6929,3.66693,10.65,-0.12,0.42,4.0
1758088990.20511,1758088988.25651,0.0,0.0,0.0,9.28192,2.86479,3.38045,10.65,-0.12,0.42,4.0
1758088990.22451,1758088988.26651,0.0,0.0,0.0,9.68299,3.32316,3.09397,10.62,-0.09,0.19,4.0
1758088990.22654,1758088988.27651,0.0,0.0,0.0,10.19865,3.72423,2.86479,10.62,-0.09,0.19,4.0
1758088990.23408,1758088988.28651,0.0,0.0,0.0,10.25595,3.60963,2.92208,10.46,0.0,0.0,4.0
1758088990.23631,1758088988.29651,0.0,0.0,0.0,10.02676,3.89611,3.03668,10.46,0.0,0.0,4.0
1758088990.2391,1758088988.30651,0.0,0.0,0.0,9.96947,5.15662,3.49504,10.18,0.16,0.07,4.0
1758088990.23969,1758088988.31651,0.0,0.0,0.0,10.08406,7.44845,3.95341,9.8,0.19,0.25,4.0
1758088990.2418,1758088988.32651,0.0,0.0,0.0,10.25595,6.53172,4.18259,9.8,0.19,0.25,4.0
1758088990.24486,1758088988.33651,0.0,0.0,0.0,10.71431,2.86479,3.83882,9.29,0.03,1.05,4.0
1758088990.25042,1758088988.34651,0.0,0.0,0.0,11.57375,-9.62569,1.94806,9.29,0.03,1.05,4.0
1758088990.2558,1758088988.35651,0.0,0.0,0.0,12.54778,-20.3973,-0.74485,9.73,-0.26,2.29,4.0
1758088990.25618,1758088988.36651,0.0,0.0,0.0,13.5218,-30.53865,-3.95341,9.73,-0.26,2.29,4.0
1758088990.25896,1758088988.37651,0.0,0.0,0.0,14.32395,-38.73195,-7.21927,11.05,-0.6,1.9,4.0
1758088990.26011,1758088988.38651,0.0,0.0,0.0,15.69904,-43.60209,-10.31324,11.05,-0.6,1.9,4.0
1758088990.26475,1758088988.39651,0.0,0.0,0.0,16.73037,-41.88322,-10.59972,10.9,-0.52,1.03,4.0
1758088990.267,1758088988.40651,0.0,0.0,0.0,17.53251,-38.38818,-10.08406,9.69,-0.36,0.55,4.0
1758088990.27652,1758088988.41651,0.0,0.0,0.0,18.56383,-32.6013,-7.73493,9.69,-0.36,0.55,4.0
1758088990.27693,1758088988.42651,0.0,0.0,0.0,19.13679,-22.86102,-3.38045,9.47,-0.4,0.74,4.0
1758088990.28207,1758088988.43651,0.0,0.0,0.0,18.85031,-16.10011,-0.57296,9.47,-0.4,0.74,4.0
1758088990.28588,1758088988.44651,0.0,0.0,0.0,17.93358,-7.73493,1.03132,10.05,-0.51,0.7,4.0
1758088990.2982,1758088988.45651,0.0,0.0,0.0,16.61578,3.55234,1.43239,10.05,-0.51,0.7,4.0
1758088990.29962,1758088988.46651,0.0,0.0,0.0,14.49583,17.36062,0.11459,11.19,-0.54,0.53,4.0
1758088990.30197,1758088988.47651,0.0,0.0,0.0,13.23533,18.27736,-0.85944,10.88,-0.55,1.31,4.0
1758088990.31212,1758088988.48651,0.0,0.0,0.0,12.14671,14.61043,-1.94806,10.88,-0.55,1.31,4.0
1758088990.3152,1758088988.49651,0.0,0.0,0.0,10.08406,8.42248,-3.09397,10.22,-0.45,1.33,4.0
1758088990.31847,1758088988.50651,0.0,0.0,0.0,6.7609,4.1253,-4.87014,10.22,-0.45,1.33,4.0
1758088990.32932,1758088988.51651,0.0,0.0,0.0,4.23989,4.69825,-5.78687,10.48,-0.22,0.8,4.0
1758088990.33768,1758088988.52651,0.0,0.0,0.0,1.94806,7.16197,-6.07335,10.48,-0.22,0.8,4.0
1758088990.38551,1758088988.53651,0.0,0.0,0.0,-1.43239,10.37054,-6.07335,10.45,-0.07,0.73,4.0
1758088990.57979,1758088988.54651,0.0,0.0,0.0,-2.92208,14.43854,-5.72958,10.05,-0.26,0.49,4.0
1758088990.5849,1758088988.55651,0.0,0.0,0.0,-4.58366,17.01685,-5.4431,10.05,-0.26,0.49,4.0
1758088990.60894,1758088988.56651,0.0,0.0,0.0,-6.35983,18.9649,-4.69825,10.01,-0.46,0.3,4.0
1758088990.60954,1758088988.57651,0.0,0.0,0.0,-8.36518,21.37133,-4.23989,10.01,-0.46,0.3,4.0
1758088990.61487,1758088988.58651,0.0,0.0,0.0,-9.74028,21.25674,-4.23989,9.78,-0.65,0.24,4.0
1758088990.61545,1758088988.59651,0.0,0.0,0.0,-10.59972,19.19409,-3.83882,9.78,-0.65,0.24,4.0
1758088990.61701,1758088988.60651,0.0,0.0,0.0,-11.74564,18.16276,-3.83882,9.32,-0.71,0.0,4.0
1758088990.62681,1758088988.61651,0.0,0.0,0.0,-12.89155,16.73037,-3.83882,9.41,-0.71,-0.01,4.0
1758088990.63011,1758088988.62651,0.0,0.0,0.0,-13.5218,14.9542,-3.95341,9.41,-0.74,-0.01,4.0
1758088990.63427,1758088988.63651,0.0,0.0,0.0,-14.09476,13.06344,-3.89611,9.56,-0.66,0.13,4.0
1758088990.63503,1758088988.64651,0.0,0.0,0.0,-14.43854,12.2613,-4.29718,9.56,-0.66,0.13,4.0
1758088990.68948,1758088988.65651,0.0,0.0,0.0,-14.83961,10.65701,-4.92744,9.54,-0.5,-0.07,4.0
1758088990.69422,1758088988.66651,0.0,0.0,0.0,-15.06879,9.39651,-6.24524,9.54,-0.5,-0.07,4.0
1758088990.70176,1758088988.67651,0.0,0.0,0.0,-15.12609,9.85487,-7.39116,9.07,-0.36,-0.28,4.0
1758088990.70475,1758088988.68651,0.0,0.0,0.0,-15.24068,16.90226,-9.68299,9.07,-0.36,-0.28,4.0
1758088990.706,1758088988.69651,0.0,0.0,0.0,-15.46986,28.76248,-13.86558,9.41,-0.33,-0.37,4.0
1758088990.71227,1758088988.70651,0.0,0.0,0.0,-15.12609,29.04896,-16.61578,8.81,-0.31,-0.04,4.0
1758088990.71581,1758088988.71651,0.0,0.0,0.0,-14.43854,21.7151,-19.19409,8.81,-0.31,-0.04,4.0
1758088990.71643,1758088988.72651,0.0,0.0,0.0,-13.12073,13.23533,-20.85567,7.96,-0.41,-0.04,4.0
1758088990.72201,1758088988.73651,0.0,0.0,0.0,-10.65701,5.15662,-22.34536,7.96,-0.41,-0.04,4.0
1758088990.72472,1758088988.74651,0.0,0.0,0.0,-8.36518,0.0,-22.51724,8.81,-0.7,-0.33,4.0
1758088990.7256,1758088988.75651,0.0,0.0,0.0,-6.18794,-7.50575,-21.88699,8.81,-0.7,-0.33,4.0
1758088990.7339,1758088988.76651,0.0,0.0,0.0,-3.20856,-21.02755,-20.22541,8.55,-0.89,0.47,4.0
1758088990.73457,1758088988.77651,0.0,0.0,0.0,-1.03132,-26.41335,-18.33465,8.3,-0.77,0.77,4.0
1758088990.73649,1758088988.78651,0.0,0.0,0.0,0.45837,-27.84575,-16.3293,8.3,-0.77,0.77,4.0
1758088990.73718,1758088988.79651,0.0,0.0,0.0,2.46372,-27.50197,-13.98017,8.74,-0.67,0.8,4.0
1758088990.74069,1758088988.80651,0.0,0.0,0.0,5.4431,-25.43933,-11.51645,8.74,-0.67,0.8,4.0
1758088990.74388,1758088988.81651,0.0,0.0,0.0,7.10468,-23.66316,-10.48513,9.02,-0.77,0.42,4.0
1758088990.74493,1758088988.82651,0.0,0.0,0.0,8.70896,-21.94428,-9.85487,9.02,-0.77,0.42,4.0
1758088990.74667,1758088988.83651,0.0,0.0,0.0,9.5684,-19.70975,-10.02676,9.43,-0.83,0.0,4.0
1758088990.7487,1758088988.84651,0.0,0.0,0.0,10.37054,-17.01685,-11.57375,9.6,-0.54,-0.08,4.0
1758088990.7491,1758088988.85651,0.0,0.0,0.0,10.37054,-16.10011,-12.49048,9.6,-0.54,-0.08,4.0
1758088990.75026,1758088988.86651,0.0,0.0,0.0,10.37054,-15.69904,-13.23533,9.66,-0.21,0.11,4.0
1758088990.75354,1758088988.87651,0.0,0.0,0.0,10.48513,-15.12609,-14.09476,9.66,-0.21,0.11,4.0
1758088990.75454,1758088988.88651,0.0,0.0,0.0,10.19865,-14.09476,-15.0115,9.58,0.13,0.15,4.0
1758088990.75645,1758088988.89651,0.0,0.0,0.0,10.02676,-13.12073,-15.24068,9.58,0.13,0.15,4.0
1758088990.75681,1758088988.90651,0.0,0.0,0.0,10.02676,-11.57375,-15.46986,9.67,0.13,0.19,4.0
1758088990.75784,1758088988.91651,0.0,0.0,0.0,9.96947,-9.33921,-15.58445,9.67,0.13,0.19,4.0
1758088990.75859,1758088988.92651,0.0,0.0,0.0,10.08406,-4.87014,-15.75634,9.95,-0.28,-0.1,4.0
1758088990.76367,1758088988.93651,0.0,0.0,0.0,9.96947,-2.29183,-15.46986,10.2,-0.73,-0.18,4.0
1758088990.76445,1758088988.94651,0.0,0.0,0.0,9.74028,-0.11459,-15.06879,10.2,-0.73,-0.18,4.0
1758088990.76639,1758088988.95651,0.0,0.0,0.0,8.70896,1.3751,-13.86558,10.18,-0.81,-0.08,4.0
1758088990.78366,1758088988.96651,0.0,0.0,0.0,7.62034,2.6929,-12.77696,10.18,-0.81,-0.08,4.0
1758088990.78477,1758088988.97651,0.0,0.0,0.0,6.07335,3.26586,-11.28727,9.98,-0.5,-0.07,4.0
1758088990.80485,1758088988.98651,0.0,0.0,0.0,4.35448,3.72423,-9.62569,9.98,-0.5,-0.07,4.0
1758088990.81617,1758088988.99651,0.0,0.0,0.0,1.3178,4.18259,-6.53172,9.89,-0.11,0.0,4.0
1758088990.83402,1758088989.00651,0.0,0.0,0.0,-0.68755,4.0107,-4.52637,10.03,0.09,0.51,4.0
1758088990.84008,1758088989.01651,0.0,0.0,0.0,-2.97938,2.63561,-2.46372,10.03,0.09,0.51,4.0
1758088990.8407,1758088989.02651,0.0,0.0,0.0,-5.09932,1.77617,-0.57296,11.17,0.19,1.88,4.0
1758088990.85743,1758088989.03651,0.0,0.0,0.0,-8.93814,1.77617,2.34913,11.17,0.19,1.88,4.0
1758088990.87336,1758088989.04651,0.0,0.0,0.0,-12.204,1.71887,4.46907,13.07,0.5,2.49,4.0
1758088990.87459,1758088989.05651,0.0,0.0,0.0,-16.272,0.57296,6.13065,13.07,0.5,2.49,4.0
1758088990.87583,1758088989.06651,0.0,0.0,0.0,-19.88164,-3.60963,8.02141,13.28,1.15,2.01,4.0
1758088990.89381,1758088989.07651,0.0,0.0,0.0,-24.86637,-16.10011,9.22462,11.44,1.53,1.1,4.0
1758088990.8953,1758088989.08651,0.0,0.0,0.0,-26.41335,-26.24147,9.68299,11.44,1.53,1.1,4.0
1758088990.91336,1758088989.09651,0.0,0.0,0.0,-26.98631,-32.77319,9.28192,10.66,1.26,-0.41,4.0
1758088990.91584,1758088989.10651,0.0,0.0,0.0,-27.04361,-30.76784,7.96411,10.66,1.26,-0.41,4.0
1758088990.93245,1758088989.11651,0.0,0.0,0.0,-26.98631,-19.13679,5.84417,11.84,0.67,-1.37,4.0
1758088990.94863,1758088989.12651,0.0,0.0,0.0,-26.35606,-12.71966,4.87014,11.84,0.67,-1.37,4.0
1758088990.94989,1758088989.13651,0.0,0.0,0.0,-25.61122,-10.31324,4.35448,11.54,0.39,-0.72,4.0
1758088990.96469,1758088989.14651,0.0,0.0,0.0,-25.55392,-10.31324,4.52637,11.54,0.39,-0.72,4.0
1758088990.96987,1758088989.15651,0.0,0.0,0.0,-26.18417,-13.40721,5.09932,11.35,0.28,0.46,4.0
1758088990.98474,1758088989.16651,0.0,0.0,0.0,-27.78845,-18.27736,5.27121,11.39,0.41,0.72,4.0
1758088990.98934,1758088989.17651,0.0,0.0,0.0,-30.19488,-22.05888,5.4431,11.39,0.41,0.72,4.0
1758088991.005,1758088989.18651,0.0,0.0,0.0,-33.68992,-23.31938,5.95876,11.04,0.96,0.52,4.0
1758088991.01029,1758088989.19651,0.0,0.0,0.0,-36.55471,-18.16276,5.61499,11.04,0.96,0.52,4.0
1758088991.07476,1758088989.20651,0.0,0.0,0.0,-39.87786,-9.05273,4.35448,11.11,1.72,0.42,4.0
1758088991.07676,1758088989.21651,0.0,0.0,0.0,-41.76862,-3.89611,3.49504,11.11,1.72,0.42,4.0
1758088991.07979,1758088989.22651,0.0,0.0,0.0,-43.37291,-6.13065,2.23454,10.23,2.18,0.76,4.0
1758088991.08981,1758088989.23651,0.0,0.0,0.0,-43.20102,-9.74028,1.48969,9.3,2.24,0.83,4.0
1758088991.09291,1758088989.24651,0.0,0.0,0.0,-42.39888,-12.54778,0.68755,9.3,2.24,0.83,4.0
1758088991.09409,1758088989.25651,0.0,0.0,0.0,-40.85189,-13.40721,-0.11459,9.83,1.68,1.0,4.0
1758088991.09478,1758088989.26651,0.0,0.0,0.0,-37.81522,-13.5791,-1.48969,9.83,1.68,1.0,4.0
1758088991.09591,1758088989.27651,0.0,0.0,0.0,-34.43476,-15.35527,-2.11994,10.2,0.82,1.41,4.0
1758088991.0974,1758088989.28651,0.0,0.0,0.0,-30.93972,-19.13679,-2.92208,10.2,0.82,1.41,4.0
1758088991.11462,1758088989.29651,0.0,0.0,0.0,-27.44468,-23.66316,-3.38045,9.92,0.0,1.73,4.0
1758088991.11607,1758088989.30651,0.0,0.0,0.0,-21.94428,-26.87172,-3.55234,10.03,-0.54,1.49,4.0
1758088991.13268,1758088989.31651,0.0,0.0,0.0,-18.44924,-24.86637,-2.97938,10.03,-0.54,1.49,4.0
1758088991.13516,1758088989.32651,0.0,0.0,0.0,-15.06879,-21.60051,-1.66158,10.48,-0.65,1.16,4.0
1758088991.15488,1758088989.33651,0.0,0.0,0.0,-11.74564,-18.10547,0.45837,10.48,-0.65,1.16,4.0
1758088991.15661,1758088989.34651,0.0,0.0,0.0,-7.79223,-15.58445,3.95341,10.3,-0.52,1.18,4.0
1758088991.1753,1758088989.35651,0.0,0.0,0.0,-5.21392,-14.43854,6.13065,10.3,-0.52,1.18,4.0
1758088991.17939,1758088989.36651,0.0,0.0,0.0,-2.7502,-12.37589,7.79223,10.25,-0.36,1.13,4.0
1758088991.2247,1758088989.37651,0.0,0.0,0.0,0.57296,-8.88085,9.39651,10.25,-0.36,1.13,4.0
1758088991.22955,1758088989.38651,0.0,0.0,0.0,2.86479,-5.90147,9.4538,10.57,-0.14,0.77,4.0
1758088991.23417,1758088989.39651,0.0,0.0,0.0,4.87014,-1.77617,9.11003,10.5,0.11,0.29,4.0
1758088991.25914,1758088989.40651,0.0,0.0,0.0,7.04738,3.49504,8.70896,10.5,0.11,0.29,4.0
1758088991.26131,1758088989.41651,0.0,0.0,0.0,9.5684,11.91752,7.67763,10.32,0.25,0.14,4.0
1758088991.26885,1758088989.42651,0.0,0.0,0.0,11.28727,16.73037,6.8182,10.32,0.25,0.14,4.0
1758088991.26923,1758088989.43651,0.0,0.0,0.0,12.60507,21.25674,5.95876,9.97,0.19,0.26,4.0
1758088991.26999,1758088989.44651,0.0,0.0,0.0,13.69369,24.92367,5.21392,9.97,0.19,0.26,4.0
1758088991.27507,1758088989.45651,0.0,0.0,0.0,14.66772,29.62192,4.58366,9.66,0.05,0.39,4.0
1758088991.27622,1758088989.46651,0.0,0.0,0.0,14.9542,31.79916,4.29718,9.58,-0.03,0.31,4.0
1758088991.29607,1758088989.47651,0.0,0.0,0.0,15.12609,33.05967,4.35448,9.58,-0.03,0.31,4.0
1758088991.34441,1758088989.48651,0.0,0.0,0.0,15.0115,33.11696,4.64096,9.48,0.03,0.17,4.0
1758088991.34581,1758088989.49651,0.0,0.0,0.0,13.98017,28.99167,4.87014,9.48,0.03,0.17,4.0
1758088991.35422,1758088989.50651,0.0,0.0,0.0,13.34992,26.18417,4.69825,8.98,0.15,0.01,4.0
1758088991.35486,1758088989.51651,0.0,0.0,0.0,12.204,24.63719,4.29718,8.98,0.15,0.01,4.0
1758088991.35935,1758088989.52651,0.0,0.0,0.0,11.22997,31.16891,4.23989,9.2,0.32,-0.08,4.0
1758088991.36036,1758088989.53651,0.0,0.0,0.0,10.94349,37.29956,4.87014,9.36,0.33,-0.38,4.0
1758088991.36484,1758088989.54651,0.0,0.0,0.0,11.51645,29.56462,6.7609,9.36,0.33,-0.38,4.0
1758088991.36911,1758088989.55651,0.0,0.0,0.0,11.80293,19.07949,7.73493,7.6,0.19,0.06,4.0
1758088991.38512,1758088989.56651,0.0,0.0,0.0,11.28727,14.61043,8.42248,7.6,0.19,0.06,4.0
1758088991.39014,1758088989.57651,0.0,0.0,0.0,9.62569,16.3293,7.96411,8.62,0.16,-0.49,4.0
1758088991.40897,1758088989.58651,0.0,0.0,0.0,8.136,14.32395,7.04738,8.62,0.16,-0.49,4.0
1758088991.4097,1758088989.59651,0.0,0.0,0.0,6.70361,8.25059,5.78687,8.37,0.18,-0.51,4.0
1758088991.41534,1758088989.60651,0.0,0.0,0.0,3.89611,-3.83882,4.0107,8.37,0.18,-0.51,4.0
1758088991.43224,1758088989.61651,0.0,0.0,0.0,2.06265,-10.59972,2.7502,7.79,0.16,-0.6,4.0
1758088991.44923,1758088989.62651,0.0,0.0,0.0,0.22918,-14.72501,1.71887,8.21,0.05,-0.71,4.0
1758088991.44977,1758088989.63651,0.0,0.0,0.0,-1.08862,-17.76169,1.20321,8.21,0.05,-0.71,4.0
1758088991.46929,1758088989.64651,0.0,0.0,0.0,-2.6929,-20.62648,0.68755,8.65,-0.04,-0.42,4.0
1758088991.46974,1758088989.65651,0.0,0.0,0.0,-3.49504,-21.02755,0.80214,8.65,-0.04,-0.42,4.0
1758088991.47625,1758088989.66651,0.0,0.0,0.0,-3.95341,-22.23076,0.80214,8.98,-0.13,-0.21,4.0
1758088991.49468,1758088989.67651,0.0,0.0,0.0,-4.1253,-23.54857,0.57296,8.98,-0.13,-0.21,4.0
1758088991.49823,1758088989.68651,0.0,0.0,0.0,-3.66693,-24.4653,0.22918,9.09,-0.17,-0.12,4.0
1758088991.51573,1758088989.69651,0.0,0.0,0.0,-3.09397,-23.83505,-0.0573,9.42,-0.24,-0.25,4.0
1758088991.69843,1758088989.70651,0.0,0.0,0.0,-2.40642,-21.7724,-0.34377,9.42,-0.24,-0.25,4.0
1758088991.70494,1758088989.71651,0.0,0.0,0.0,-1.71887,-18.79302,-0.22918,9.99,-0.37,-0.31,4.0
1758088991.71488,1758088989.72651,0.0,0.0,0.0,-0.45837,-14.09476,0.40107,9.99,-0.37,-0.31,4.0
1758088991.71603,1758088989.73651,0.0,0.0,0.0,0.57296,-11.80293,1.3751,10.24,-0.58,-0.54,4.0
1758088991.71805,1758088989.74651,0.0,0.0,0.0,1.60428,-9.85487,2.40642,10.24,-0.58,-0.54,4.0
1758088991.71869,1758088989.75651,0.0,0.0,0.0,2.46372,-8.65166,3.55234,10.32,-0.73,-0.9,4.0
1758088991.72025,1758088989.76651,0.0,0.0,0.0,3.49504,-9.28192,4.92744,10.05,-0.78,-0.9,4.0
1758088991.72487,1758088989.77651,0.0,0.0,0.0,4.0107,-11.63104,5.27121,10.05,-0.78,-0.9,4.0
1758088991.72612,1758088989.78651,0.0,0.0,0.0,4.52637,-13.98017,5.50039,9.71,-0.63,-0.72,4.0
1758088991.73446,1758088989.79651,0.0,0.0,0.0,5.90147,-14.72501,5.55769,9.71,-0.63,-0.72,4.0
1758088991.73514,1758088989.80651,0.0,0.0,0.0,7.04738,-12.43318,5.55769,9.87,-0.41,-0.73,4.0
1758088991.7379,1758088989.81651,0.0,0.0,0.0,8.0787,-8.65166,5.61499,9.87,-0.41,-0.73,4.0
1758088991.73922,1758088989.82651,0.0,0.0,0.0,9.11003,-3.83882,5.84417,10.31,-0.24,-0.75,4.0
1758088991.74005,1758088989.83651,0.0,0.0,0.0,10.94349,2.46372,5.78687,10.31,-0.24,-0.83,4.0
1758088991.74128,1758088989.84651,0.0,0.0,0.0,12.37589,5.4431,5.55769,10.57,-0.17,-0.83,4.0
1758088991.74427,1758088989.85651,0.0,0.0,0.0,14.03747,6.70361,5.50039,10.59,-0.2,-0.87,4.0
1758088991.74467,1758088989.86651,0.0,0.0,0.0,15.46986,7.44845,5.4431,10.59,-0.2,-0.87,4.0
1758088991.74585,1758088989.87651,0.0,0.0,0.0,17.99088,7.84952,5.32851,10.66,-0.25,-0.88,4.0
1758088991.74647,1758088989.88651,0.0,0.0,0.0,19.70975,7.16197,5.21392,10.66,-0.25,-0.88,4.0
1758088991.74849,1758088989.89651,0.0,0.0,0.0,21.25674,5.78687,5.09932,10.48,-0.23,-0.82,4.0
1758088991.74917,1758088989.90651,0.0,0.0,0.0,22.63183,4.18259,4.92744,10.48,-0.23,-0.82,4.0
1758088991.75365,1758088989.91651,0.0,0.0,0.0,24.5226,2.46372,4.46907,10.27,-0.07,-0.82,4.0
1758088991.7542,1758088989.92651,0.0,0.0,0.0,25.38203,1.83346,4.1253,10.19,0.21,-0.99,4.0
1758088991.75536,1758088989.93651,0.0,0.0,0.0,26.12688,2.63561,3.95341,10.19,0.21,-0.99,4.0
1758088991.75844,1758088989.94651,0.0,0.0,0.0,26.75713,4.46907,3.55234,10.16,0.49,-1.07,4.0
1758088991.76374,1758088989.95651,0.0,0.0,0.0,27.78845,8.42248,3.38045,10.16,0.49,-1.07,4.0
1758088991.77982,1758088989.96651,0.0,0.0,0.0,28.41871,12.49048,3.83882,10.36,0.67,-0.87,4.0
1758088991.81952,1758088989.97651,0.0,0.0,0.0,29.04896,16.55848,3.83882,10.36,0.67,-0.87,4.0
1758088991.82472,1758088989.98651,0.0,0.0,0.0,29.33544,17.30333,3.55234,10.8,0.74,-0.42,4.0
1758088991.82535,1758088989.99651,0.0,0.0,0.0,29.27814,14.32395,2.63561,10.97,0.69,-0.07,4.0
1758088991.83378,1758088990.00651,0.0,0.0,0.0,28.87707,11.00079,1.3178,10.97,0.69,-0.07,4.0
1758088991.83438,1758088990.01651,0.0,0.0,0.0,28.476,7.62034,-0.40107,11.17,0.69,-0.18,4.0
1758088991.83888,1758088990.02651,0.0,0.0,0.0,27.61657,3.32316,-3.55234,11.17,0.69,-0.18,4.0
1758088991.85429,1758088990.03651,0.0,0.0,0.0,26.64254,0.97403,-5.4431,10.82,0.79,-0.38,4.0
1758088991.85656,1758088990.04651,0.0,0.0,0.0,25.49662,-0.11459,-6.87549,10.82,0.79,-0.38,4.0
1758088991.87232,1758088990.05651,0.0,0.0,0.0,24.4653,-0.80214,-8.02141,10.18,0.86,-0.66,4.0
1758088991.87648,1758088990.06651,0.0,0.0,0.0,22.68913,3.72423,-8.59437,10.09,0.86,0.15,4.0
1758088991.89388,1758088990.07651,0.0,0.0,0.0,21.42862,4.23989,-9.05273,10.09,0.88,0.15,4.0
1758088991.89507,1758088990.08651,0.0,0.0,0.0,19.48057,-4.64096,-10.8862,10.85,0.57,2.73,4.0
1758088991.91545,1758088990.09651,0.0,0.0,0.0,16.04282,-16.50119,-15.12609,10.85,0.57,2.73,4.0
1758088992.09778,1758088990.10651,0.0,0.0,0.0,11.63104,-26.41335,-20.62648,13.64,0.01,2.99,4.0
1758088992.15926,1758088990.11651,0.0,0.0,0.0,9.05273,-33.05967,-23.94964,13.64,0.01,2.99,4.0
1758088992.16127,1758088990.12651,0.0,0.0,0.0,8.36518,-41.08107,-25.43933,12.07,0.33,1.37,4.0
1758088992.16245,1758088990.13651,0.0,0.0,0.0,8.42248,-53.51426,-23.72045,12.07,0.33,1.37,4.0
1758088992.16689,1758088990.14651,0.0,0.0,0.0,9.85487,-54.48829,-16.3293,8.83,0.62,1.1,4.0
1758088992.16986,1758088990.15651,0.0,0.0,0.0,9.4538,-38.27358,-12.2613,11.22,0.33,0.2,4.0
1758088992.17503,1758088990.16651,0.0,0.0,0.0,8.136,-21.88699,-9.11003,11.22,0.33,0.2,4.0
1758088992.17994,1758088990.17651,0.0,0.0,0.0,6.8182,-13.34992,-6.24524,11.8,-0.01,0.83,4.0
1758088992.18131,1758088990.18651,0.0,0.0,0.0,3.20856,-3.49504,-5.50039,11.8,-0.01,0.83,4.0
1758088992.18477,1758088990.19651,0.0,0.0,0.0,0.85944,5.32851,-4.0107,11.78,-0.19,0.84,4.0
1758088992.18553,1758088990.20651,0.0,0.0,0.0,-1.48969,10.25595,-2.57831,11.78,-0.19,0.84,4.0
1758088992.189,1758088990.21651,0.0,0.0,0.0,-6.53172,10.59972,-1.14592,11.21,0.02,0.48,4.0
1758088992.18983,1758088990.22651,0.0,0.0,0.0,-10.48513,7.16197,-1.71887,9.67,0.28,0.63,4.0
1758088992.19408,1758088990.23651,0.0,0.0,0.0,-14.32395,3.49504,-2.57831,9.67,0.28,0.63,4.0
1758088992.1947,1758088990.24651,0.0,0.0,0.0,-17.58981,5.90147,-3.20856,9.64,0.41,0.43,4.0
1758088992.19674,1758088990.25651,0.0,0.0,0.0,-21.25674,14.03747,-4.18259,9.64,0.41,0.43,4.0
1758088992.1974,1758088990.26651,0.0,0.0,0.0,-23.66316,19.88164,-3.95341,10.15,0.44,0.07,4.0
1758088992.19939,1758088990.27651,0.0,0.0,0.0,-25.55392,23.0329,-4.18259,10.15,0.44,0.07,4.0
1758088992.19999,1758088990.28651,0.0,0.0,0.0,-27.1582,23.20479,-4.29718,9.3,0.22,0.07,4.0
1758088992.20202,1758088990.29651,0.0,0.0,0.0,-29.33544,23.20479,-4.46907,8.85,0.05,-0.13,4.0
1758088992.20347,1758088990.30651,0.0,0.0,0.0,-30.30947,23.31938,-4.46907,8.85,0.05,-0.13,4.0
1758088992.20426,1758088990.31651,0.0,0.0,0.0,-31.16891,22.57454,-4.1253,8.92,-0.05,-0.42,4.0
1758088992.20535,1758088990.32651,0.0,0.0,0.0,-31.97105,21.60051,-3.32316,8.92,-0.05,-0.42,4.0
1758088992.20614,1758088990.33651,0.0,0.0,0.0,-32.48671,24.12152,-3.38045,8.85,-0.19,-0.61,4.0
1758088992.20723,1758088990.34651,0.0,0.0,0.0,-33.05967,27.44468,-3.03668,8.85,-0.19,-0.61,4.0
1758088992.20804,1758088990.35651,0.0,0.0,0.0,-33.68992,35.63798,-3.66693,8.86,-0.2,-0.67,4.0
1758088992.2099,1758088990.36651,0.0,0.0,0.0,-34.43476,41.36755,-4.81285,8.86,-0.2,-0.67,4.0
1758088992.21214,1758088990.37651,0.0,0.0,0.0,-35.06502,37.98711,-6.41713,8.22,-0.13,-0.79,4.0
1758088992.21331,1758088990.38651,0.0,0.0,0.0,-34.32018,32.77319,-7.79223,7.26,-0.19,-0.86,4.0
1758088992.21393,1758088990.39651,0.0,0.0,0.0,-32.77319,28.99167,-9.05273,7.26,-0.19,-0.86,4.0
1758088992.21517,1758088990.40651,0.0,0.0,0.0,-28.99167,25.55392,-10.65701,7.83,-0.5,-1.21,4.0
1758088992.23219,1758088990.41651,0.0,0.0,0.0,-25.72581,16.73037,-11.57375,7.83,-0.5,-1.21,4.0
1758088992.23605,1758088990.42651,0.0,0.0,0.0,-21.7724,7.39116,-12.54778,7.64,-0.84,-0.58,4.0
1758088992.25413,1758088990.43651,0.0,0.0,0.0,-17.87628,-1.77617,-12.89155,7.64,-0.84,-0.58,4.0
1758088992.26046,1758088990.44651,0.0,0.0,0.0,-11.17268,-9.4538,-12.89155,7.4,-0.95,-0.22,4.0
1758088992.29693,1758088990.45651,0.0,0.0,0.0,-7.33386,-9.85487,-12.49048,8.13,-0.95,0.03,4.0
1758088992.30185,1758088990.46651,0.0,0.0,0.0,-2.7502,-11.11538,-11.45916,8.13,-0.95,0.03,4.0
1758088992.30415,1758088990.47651,0.0,0.0,0.0,0.97403,-12.60507,-9.74028,7.97,-0.88,0.11,4.0
1758088992.30614,1758088990.48651,0.0,0.0,0.0,5.50039,-16.73037,-8.02141,7.97,-0.88,0.11,4.0
1758088992.30675,1758088990.49651,0.0,0.0,0.0,7.62034,-19.88164,-7.67763,7.96,-0.72,-0.15,4.0
1758088992.32453,1758088990.50651,0.0,0.0,0.0,9.05273,-20.68378,-7.67763,7.96,-0.72,-0.15,4.0
1758088992.33275,1758088990.51651,0.0,0.0,0.0,9.96947,-20.11082,-8.136,8.69,-0.5,-0.4,4.0
1758088992.34873,1758088990.52651,0.0,0.0,0.0,10.8289,-17.99088,-10.37054,9.73,-0.17,-0.55,4.0
1758088992.35481,1758088990.53651,0.0,0.0,0.0,10.71431,-17.01685,-12.60507,9.73,-0.17,-0.55,4.0
1758088992.35668,1758088990.54651,0.0,0.0,0.0,10.25595,-16.55848,-14.78231,10.58,0.36,-0.59,4.0
1758088992.37872,1758088990.55651,0.0,0.0,0.0,9.5684,-16.10011,-16.95955,10.58,0.36,-0.59,4.0
1758088992.37966,1758088990.56651,0.0,0.0,0.0,7.50575,-14.20935,-19.76705,11.23,0.95,-0.74,4.0
1758088992.39467,1758088990.57651,0.0,0.0,0.0,5.84417,-13.00614,-20.79837,11.23,0.95,-0.74,4.0
1758088992.3959,1758088990.58651,0.0,0.0,0.0,3.38045,-11.17268,-20.85567,10.93,1.32,-0.5,4.0
1758088992.41164,1758088990.59651,0.0,0.0,0.0,0.74485,-8.30789,-19.82434,10.93,1.32,-0.5,4.0
1758088992.42798,1758088990.60651,0.0,0.0,0.0,-3.38045,-4.1253,-18.22006,10.14,1.15,-0.27,4.0
1758088992.42892,1758088990.61651,0.0,0.0,0.0,-5.95876,-1.77617,-16.10011,9.71,0.38,-0.35,4.0
1758088992.44372,1758088990.62651,0.0,0.0,0.0,-8.136,0.34377,-13.69369,9.71,0.38,-0.35,4.0
1758088992.44493,1758088990.63651,0.0,0.0,0.0,-10.25595,2.23454,-10.08406,9.79,-0.63,-0.64,4.0
1758088992.46442,1758088990.64651,0.0,0.0,0.0,-11.17268,2.00535,-8.02141,9.79,-0.63,-0.64,4.0
1758088992.46965,1758088990.65651,0.0,0.0,0.0,-11.57375,0.57296,-6.24524,9.61,-1.28,-0.93,4.0
1758088992.48476,1758088990.66651,0.0,0.0,0.0,-11.86023,-1.77617,-4.69825,9.61,-1.28,-0.93,4.0
1758088992.48702,1758088990.67651,0.0,0.0,0.0,-11.97482,-4.29718,-2.46372,9.04,-1.2,-0.7,4.0
1758088992.50173,1758088990.68651,0.0,0.0,0.0,-11.63104,-5.15662,-0.45837,9.29,-0.73,0.65,4.0
1758088992.51773,1758088990.69651,0.0,0.0,0.0,-10.65701,-6.87549,2.23454,9.29,-0.73,0.65,4.0
1758088992.51888,1758088990.70651,0.0,0.0,0.0,-9.68299,-9.96947,4.64096,10.08,-0.33,1.83,4.0
1758088992.53374,1758088990.71651,0.0,0.0,0.0,-8.136,-15.24068,8.65166,10.08,-0.33,1.83,4.0
1758088992.53497,1758088990.72651,0.0,0.0,0.0,-6.87549,-18.85031,10.59972,10.89,0.13,2.04,4.0
1758088992.54975,1758088990.73651,0.0,0.0,0.0,-5.84417,-24.86637,12.43318,10.89,0.13,2.04,4.0
1758088992.56942,1758088990.74651,0.0,0.0,0.0,-4.81285,-32.83048,13.5791,10.84,0.72,1.87,4.0
1758088992.57623,1758088990.75651,0.0,0.0,0.0,-4.64096,-49.96192,13.5218,10.37,1.26,1.44,4.0
1758088992.57898,1758088990.76651,0.0,0.0,0.0,-4.81285,-58.72818,11.80293,10.37,1.26,1.44,4.0
1758088992.59504,1758088990.77651,0.0,0.0,0.0,-5.72958,-57.23849,8.30789,12.69,2.06,1.25,4.0
1758088992.59599,1758088990.78651,0.0,0.0,0.0,-6.87549,-48.8733,4.58366,12.69,2.06,1.25,4.0
1758088992.61252,1758088990.79651,0.0,0.0,0.0,-8.42248,-32.6013,0.68755,15.23,2.99,-0.54,4.0
1758088992.62856,1758088990.80651,0.0,0.0,0.0,-9.11003,-18.62113,-1.20321,15.23,2.99,-0.54,4.0
1758088992.62983,1758088990.81651,0.0,0.0,0.0,-9.96947,-4.52637,-2.29183,14.0,2.89,-1.14,4.0
1758088992.64469,1758088990.82651,0.0,0.0,0.0,-10.71431,12.49048,-1.48969,14.0,2.89,-1.14,4.0
1758088992.64593,1758088990.83651,0.0,0.0,0.0,-10.8289,19.25138,-0.74485,12.11,2.32,0.05,4.0
1758088992.66272,1758088990.84651,0.0,0.0,0.0,-10.31324,22.86102,-0.45837,11.65,1.85,0.82,4.0
1758088992.66522,1758088990.85651,0.0,0.0,0.0,-8.88085,22.63183,-0.74485,11.65,1.85,0.82,4.0
1758088992.68111,1758088990.86651,0.0,0.0,0.0,-5.15662,19.82434,-2.11994,11.41,1.37,0.52,4.0
1758088992.69686,1758088990.87651,0.0,0.0,0.0,-2.00535,20.97026,-2.6929,11.41,1.37,0.52,4.0
1758088992.69857,1758088990.88651,0.0,0.0,0.0,1.14592,24.00693,-2.7502,11.77,1.12,0.16,4.0
1758088992.71315,1758088990.89651,0.0,0.0,0.0,4.58366,26.69983,-2.06265,11.77,1.12,0.16,4.0
1758088992.71437,1758088990.90651,0.0,0.0,0.0,8.99544,29.22085,-0.97403,11.4,0.85,0.0,4.0
1758088992.72996,1758088990.91651,0.0,0.0,0.0,11.22997,28.41871,0.0573,10.47,0.67,0.11,4.0
1758088992.74787,1758088990.92651,0.0,0.0,0.0,12.83425,26.64254,1.08862,10.47,0.67,0.11,4.0
1758088992.74908,1758088990.93651,0.0,0.0,0.0,13.86558,24.4653,2.40642,9.94,0.69,0.19,4.0
1758088992.76416,1758088990.94651,0.0,0.0,0.0,13.86558,21.31403,3.55234,9.94,0.69,0.19,4.0
1758088992.76534,1758088990.95651,0.0,0.0,0.0,12.14671,29.39274,3.72423,10.01,0.92,-0.04,4.0
1758088992.77998,1758088990.96651,0.0,0.0,0.0,11.80293,42.28429,5.78687,10.01,0.92,-0.04,4.0
1758088992.79706,1758088990.97651,0.0,0.0,0.0,11.97482,50.1911,8.42248,10.76,1.09,-0.51,4.0
1758088992.79971,1758088990.98651,0.0,0.0,0.0,11.34457,42.57077,10.8862,8.66,1.16,-0.06,4.0
1758088992.81491,1758088990.99651,0.0,0.0,0.0,10.71431,32.20023,12.204,8.66,1.16,-0.06,4.0
1758088992.81768,1758088991.00651,0.0,0.0,0.0,9.74028,26.18417,13.06344,8.2,1.16,-0.34,4.0
1758088992.83296,1758088991.01651,0.0,0.0,0.0,7.50575,24.57989,13.23533,8.2,1.16,-0.34,4.0
1758088992.83414,1758088991.02651,0.0,0.0,0.0,5.78687,22.63183,13.23533,8.86,1.22,-0.33,4.0
1758088992.84994,1758088991.03651,0.0,0.0,0.0,4.1253,18.79302,13.5218,8.86,1.22,-0.33,4.0
1758088992.86962,1758088991.04651,0.0,0.0,0.0,2.06265,12.54778,13.5218,8.1,1.11,-0.31,4.0
1758088992.87505,1758088991.05651,0.0,0.0,0.0,-0.68755,1.14592,12.83425,8.1,1.11,-0.31,4.0
1758088992.87544,1758088991.06651,0.0,0.0,0.0,-2.40642,-6.35983,12.49048,7.28,0.93,-0.6,4.0
1758088992.89441,1758088991.07651,0.0,0.0,0.0,-4.1253,-13.34992,11.86023,7.13,0.82,-0.78,4.0
1758088992.89714,1758088991.08651,0.0,0.0,0.0,-5.27121,-19.70975,11.34457,7.13,0.82,-0.78,4.0
1758088992.91205,1758088991.09651,0.0,0.0,0.0,-6.87549,-27.2155,10.8289,7.3,0.78,-0.69,4.0
1758088992.92804,1758088991.10651,0.0,0.0,0.0,-7.62034,-32.25753,10.31324,7.3,0.78,-0.69,4.0
1758088992.92918,1758088991.11651,0.0,0.0,0.0,-7.73493,-36.6693,9.96947,7.44,0.78,-0.23,4.0
1758088992.94439,1758088991.12651,0.0,0.0,0.0,-7.44845,-40.16434,9.5684,7.44,0.78,-0.23,4.0
1758088992.94521,1758088991.13651,0.0,0.0,0.0,-6.24524,-42.51347,8.93814,7.51,0.72,0.04,4.0
1758088992.96028,1758088991.14651,0.0,0.0,0.0,-5.50039,-39.13302,8.65166,8.16,0.59,0.09,4.0
1758088992.96548,1758088991.15651,0.0,0.0,0.0,-4.29718,-32.6013,8.76626,8.16,0.59,0.09,4.0
1758088992.98178,1758088991.16651,0.0,0.0,0.0,-2.86479,-23.60586,8.99544,9.19,0.45,-0.16,4.0
1758088993.00355,1758088991.17651,0.0,0.0,0.0,-0.51566,-8.36518,10.19865,9.19,0.45,-0.16,4.0
1758088993.00661,1758088991.18651,0.0,0.0,0.0,2.23454,-8.0787,11.63104,9.67,0.28,-0.37,4.0
1758088993.00806,1758088991.19651,0.0,0.0,0.0,2.57831,-17.53251,10.19865,9.67,0.28,-0.37,4.0
1758088993.02395,1758088991.20651,0.0,0.0,0.0,4.46907,-19.13679,10.19865,8.73,0.22,-0.4,4.0
1758088993.02519,1758088991.21651,0.0,0.0,0.0,6.41713,-9.74028,10.02676,10.68,0.25,-0.87,4.0
1758088993.04033,1758088991.22651,0.0,0.0,0.0,8.02141,-2.23454,10.8289,10.68,0.25,-0.87,4.0
1758088993.05638,1758088991.23651,0.0,0.0,0.0,10.02676,3.49504,11.86023,10.54,0.5,-0.78,4.0
1758088993.05809,1758088991.24651,0.0,0.0,0.0,13.86558,8.47978,13.75099,10.54,0.5,-0.78,4.0
1758088993.07332,1758088991.25651,0.0,0.0,0.0,16.55848,11.45916,14.83961,9.92,0.45,-1.0,4.0
1758088993.07507,1758088991.26651,0.0,0.0,0.0,19.19409,13.5791,15.75634,9.92,0.45,-1.0,4.0
1758088993.09276,1758088991.27651,0.0,0.0,0.0,21.60051,13.75099,16.21471,10.01,0.47,-1.0,4.0
1758088993.0947,1758088991.28651,0.0,0.0,0.0,24.98096,9.5684,15.69904,10.01,0.47,-0.71,4.0
1758088993.11217,1758088991.29651,0.0,0.0,0.0,26.81443,6.24524,14.61043,9.84,0.62,-0.71,4.0
1758088993.1284,1758088991.30651,0.0,0.0,0.0,28.87707,4.87014,12.83425,10.09,0.72,-0.04,4.0
1758088993.13015,1758088991.31651,0.0,0.0,0.0,30.25217,3.89611,10.48513,10.09,0.72,-0.04,4.0
1758088993.14502,1758088991.32651,0.0,0.0,0.0,33.40344,-0.97403,6.35983,10.83,0.55,1.18,4.0
1758088993.14631,1758088991.33651,0.0,0.0,0.0,34.95043,-7.50575,2.86479,10.83,0.55,1.18,4.0
1758088993.16193,1758088991.34651,0.0,0.0,0.0,35.75257,-14.32395,-0.11459,11.13,0.07,1.49,4.0
1758088993.17818,1758088991.35651,0.0,0.0,0.0,35.92446,-18.9649,-2.34913,11.13,0.07,1.49,4.0
1758088993.1794,1758088991.36651,0.0,0.0,0.0,34.66395,-18.62113,-3.49504,11.28,-0.13,0.83,4.0
1758088993.19416,1758088991.37651,0.0,0.0,0.0,33.40344,-12.2613,-2.7502,11.03,0.25,0.4,4.0
1758088993.19774,1758088991.38651,0.0,0.0,0.0,32.08564,-4.58366,-1.43239,11.03,0.25,0.4,4.0
1758088993.21399,1758088991.39651,0.0,0.0,0.0,31.79916,-8.88085,0.22918,10.41,0.67,2.82,4.0
1758088993.21523,1758088991.40651,0.0,0.0,0.0,29.73651,-52.9986,1.3178,10.41,0.67,2.82,4.0
1758088993.23017,1758088991.41651,0.0,0.0,0.0,26.98631,-75.34396,1.83346,11.99,0.06,2.99,4.0
1758088993.23459,1758088991.42651,0.0,0.0,0.0,23.49127,-71.73432,-0.68755,11.99,0.06,2.99,4.0
1758088993.25022,1758088991.43651,0.0,0.0,0.0,19.88164,-49.04519,-4.64096,18.4,-0.33,-1.32,4.0
1758088993.25462,1758088991.44651,0.0,0.0,0.0,19.25138,-11.74564,-6.70361,15.67,-0.05,-0.81,4.0
1758088993.2745,1758088991.45651,0.0,0.0,0.0,19.76705,0.97403,-7.10468,15.67,-0.05,-0.81,4.0
1758088993.2754,1758088991.46651,0.0,0.0,0.0,20.62648,5.84417,-4.92744,11.2,-0.22,1.27,4.0
1758088993.29047,1758088991.47651,0.0,0.0,0.0,20.97026,7.50575,1.03132,11.2,-0.22,1.27,4.0
1758088993.29537,1758088991.48651,0.0,0.0,0.0,20.16812,10.02676,5.21392,11.56,-0.22,1.19,4.0
1758088993.31194,1758088991.49651,0.0,0.0,0.0,18.44924,13.23533,8.76626,11.56,-0.22,1.19,4.0
1758088993.32849,1758088991.50651,0.0,0.0,0.0,15.69904,16.10011,10.19865,12.41,-0.08,0.2,4.0
1758088993.3295,1758088991.51651,0.0,0.0,0.0,11.28727,19.36597,10.31324,11.28,-0.08,0.21,4.0
1758088993.34457,1758088991.52651,0.0,0.0,0.0,9.05273,18.22006,9.96947,11.28,-0.01,0.21,4.0
1758088993.34959,1758088991.53651,0.0,0.0,0.0,6.8182,19.36597,7.96411,9.81,-0.23,0.1,4.0
1758088993.36459,1758088991.54651,0.0,0.0,0.0,5.09932,19.13679,5.90147,9.81,-0.23,0.1,4.0
1758088993.36986,1758088991.55651,0.0,0.0,0.0,3.09397,17.13144,2.86479,9.07,-0.28,-0.08,4.0
1758088993.38433,1758088991.56651,0.0,0.0,0.0,2.06265,15.29797,1.08862,9.07,-0.28,-0.08,4.0
1758088993.38642,1758088991.57651,0.0,0.0,0.0,1.48969,14.20935,-0.45837,9.03,-0.4,-0.16,4.0
1758088993.4021,1758088991.58651,0.0,0.0,0.0,0.74485,12.83425,-1.77617,9.03,-0.4,-0.16,4.0
1758088993.41836,1758088991.59651,0.0,0.0,0.0,0.45837,11.00079,-3.09397,9.16,-0.29,-0.24,4.0
1758088993.41945,1758088991.60651,0.0,0.0,0.0,0.34377,10.65701,-3.09397,8.99,-0.17,-0.44,4.0
1758088993.43432,1758088991.61651,0.0,0.0,0.0,-0.74485,13.00614,-3.95341,8.99,-0.17,-0.44,4.0
1758088993.43633,1758088991.62651,0.0,0.0,0.0,-0.51566,17.13144,-3.95341,8.84,-0.15,-0.73,4.0
1758088993.45222,1758088991.63651,0.0,0.0,0.0,-0.80214,29.73651,-4.58366,8.84,-0.15,-0.73,4.0
1758088993.4694,1758088991.64651,0.0,0.0,0.0,-1.83346,37.64333,-4.64096,8.93,-0.06,-0.89,4.0
1758088993.47068,1758088991.65651,0.0,0.0,0.0,-2.6929,36.89849,-4.58366,8.93,-0.06,-0.89,4.0
1758088993.48723,1758088991.66651,0.0,0.0,0.0,-4.92744,20.85567,-6.41713,7.56,-0.06,-0.34,4.0
1758088993.49244,1758088991.67651,0.0,0.0,0.0,-6.35983,14.66772,-7.96411,7.39,-0.1,-0.7,4.0
1758088993.50867,1758088991.68651,0.0,0.0,0.0,-7.62034,12.77696,-9.28192,7.39,-0.1,-0.7,4.0
1758088993.51043,1758088991.69651,0.0,0.0,0.0,-8.88085,12.08941,-10.48513,8.82,-0.18,-0.89,4.0
1758088993.52571,1758088991.70651,0.0,0.0,0.0,-9.5684,6.8182,-11.34457,8.82,-0.18,-0.89,4.0
1758088993.53296,1758088991.71651,0.0,0.0,0.0,-9.28192,0.74485,-11.34457,8.61,-0.29,-0.56,4.0
1758088993.54833,1758088991.72651,0.0,0.0,0.0,-8.76626,-6.99009,-11.00079,8.61,-0.29,-0.56,4.0
1758088993.54952,1758088991.73651,0.0,0.0,0.0,-8.70896,-14.9542,-10.94349,8.1,-0.26,-0.65,4.0
1758088993.5647,1758088991.74651,0.0,0.0,0.0,-8.65166,-21.42862,-10.08406,8.36,-0.17,-0.64,4.0
1758088993.56641,1758088991.75651,0.0,0.0,0.0,-8.47978,-20.85567,-9.4538,8.36,-0.17,-0.64,4.0
1758088993.58422,1758088991.76651,0.0,0.0,0.0,-8.25059,-19.70975,-8.65166,9.14,-0.18,-0.31,4.0
1758088993.58541,1758088991.77651,0.0,0.0,0.0,-8.0787,-19.70975,-7.16197,9.14,-0.18,-0.31,4.0
1758088993.60043,1758088991.78651,0.0,0.0,0.0,-9.85487,-17.6471,-6.58902,9.13,-0.11,-0.22,4.0
1758088993.60481,1758088991.79651,0.0,0.0,0.0,-10.8289,-18.10547,-5.72958,9.13,-0.11,-0.22,4.0
1758088993.62777,1758088991.80651,0.0,0.0,0.0,-11.86023,-17.53251,-4.92744,8.75,0.09,-0.34,4.0
1758088993.62866,1758088991.81651,0.0,0.0,0.0,-12.89155,-15.58445,-4.58366,8.75,0.09,-0.34,4.0
1758088993.64436,1758088991.82651,0.0,0.0,0.0,-13.86558,-10.71431,-4.87014,8.79,0.11,-0.41,4.0
1758088993.64656,1758088991.83651,0.0,0.0,0.0,-14.72501,-7.73493,-5.78687,9.2,-0.05,-0.83,4.0
1758088993.66139,1758088991.84651,0.0,0.0,0.0,-15.35527,-6.24524,-7.33386,9.2,-0.05,-0.83,4.0
1758088993.68035,1758088991.85651,0.0,0.0,0.0,-16.73037,-5.90147,-10.25595,9.72,-0.2,-1.18,4.0
1758088993.74912,1758088991.86651,0.0,0.0,0.0,-17.93358,-5.72958,-12.14671,9.72,-0.2,-1.18,4.0
1758088993.74952,1758088991.87651,0.0,0.0,0.0,-19.07949,-5.32851,-13.86558,10.22,-0.16,-1.34,4.0
1758088993.7507,1758088991.88651,0.0,0.0,0.0,-20.34,-4.58366,-15.58445,10.22,-0.16,-1.34,4.0
1758088993.75316,1758088991.89651,0.0,0.0,0.0,-22.34536,-2.6929,-16.73037,10.48,0.01,-1.13,4.0
1758088993.75434,1758088991.90651,0.0,0.0,0.0,-23.54857,-1.60428,-16.90226,10.21,0.12,-0.86,4.0
1758088993.75483,1758088991.91651,0.0,0.0,0.0,-24.29341,-0.80214,-16.3293,10.21,0.12,-0.86,4.0
1758088993.75557,1758088991.92651,0.0,0.0,0.0,-24.98096,-0.45837,-15.87093,10.0,-0.03,-0.89,4.0
1758088993.75666,1758088991.93651,0.0,0.0,0.0,-25.89769,1.08862,-14.66772,10.0,-0.03,-0.89,4.0
1758088993.76023,1758088991.94651,0.0,0.0,0.0,-26.52795,4.46907,-13.5218,10.2,-0.29,-0.9,4.0
1758088993.77658,1758088991.95651,0.0,0.0,0.0,-27.38738,8.93814,-12.49048,10.2,-0.29,-0.9,4.0
1758088993.77932,1758088991.96651,0.0,0.0,0.0,-28.24682,13.00614,-11.34457,10.24,-0.44,-0.87,4.0
1758088993.79489,1758088991.97651,0.0,0.0,0.0,-29.10626,13.23533,-9.05273,9.38,-0.55,-0.8,4.0
1758088993.79657,1758088991.98651,0.0,0.0,0.0,-29.27814,10.31324,-7.04738,9.38,-0.55,-0.8,4.0
1758088993.81315,1758088991.99651,0.0,0.0,0.0,-29.39274,7.16197,-5.09932,8.79,-0.76,-0.98,4.0
1758088993.82857,1758088992.00651,0.0,0.0,0.0,-29.10626,4.46907,-3.38045,8.79,-0.76,-0.98,4.0
1758088993.8298,1758088992.01651,0.0,0.0,0.0,-27.84575,2.23454,-1.08862,8.79,-0.97,-1.08,4.0
1758088993.84463,1758088992.02651,0.0,0.0,0.0,-26.41335,0.11459,0.17189,8.79,-0.97,-1.08,4.0
1758088993.84582,1758088992.03651,0.0,0.0,0.0,-24.63719,-4.29718,1.20321,8.68,-1.06,-0.44,4.0
1758088993.86465,1758088992.04651,0.0,0.0,0.0,-22.57454,-10.8289,2.63561,8.68,-1.06,-0.44,4.0
1758088993.86985,1758088992.05651,0.0,0.0,0.0,-18.85031,-19.99623,3.26586,8.78,-0.94,0.92,4.0
1758088993.88465,1758088992.06651,0.0,0.0,0.0,-16.50119,-22.40265,3.32316,10.35,-0.58,2.31,4.0
1758088993.88987,1758088992.07651,0.0,0.0,0.0,-13.86558,-23.83505,4.29718,10.35,-0.58,2.31,4.0
1758088993.90456,1758088992.08651,0.0,0.0,0.0,-10.71431,-36.84119,5.90147,11.46,-0.05,3.36,4.0
1758088993.90586,1758088992.09651,0.0,0.0,0.0,-9.62569,-57.23849,4.81285,11.46,-0.05,3.36,4.0
1758088993.92064,1758088992.10651,0.0,0.0,0.0,-8.76626,-70.87489,4.29718,11.13,0.49,3.42,4.0
1758088993.92509,1758088992.11651,0.0,0.0,0.0,-8.59437,-72.13539,2.63561,11.13,0.49,3.42,4.0
1758088993.94173,1758088992.12651,0.0,0.0,0.0,-8.30789,-53.45696,0.34377,14.19,1.53,1.39,4.0
1758088993.95894,1758088992.13651,0.0,0.0,0.0,-8.42248,-33.40344,0.11459,16.07,2.58,-0.46,4.0
1758088993.96016,1758088992.14651,0.0,0.0,0.0,-8.88085,-12.60507,0.74485,16.07,2.58,-0.46,4.0
1758088993.97874,1758088992.15651,0.0,0.0,0.0,-9.68299,4.87014,2.29183,14.48,2.98,-0.96,4.0
1758088993.98137,1758088992.16651,0.0,0.0,0.0,-10.71431,17.36062,4.87014,14.48,2.98,-0.96,4.0
1758088993.99672,1758088992.17651,0.0,0.0,0.0,-11.11538,21.31403,5.84417,12.42,2.32,0.11,4.0
1758088993.99872,1758088992.18651,0.0,0.0,0.0,-10.94349,24.4653,6.07335,12.42,2.32,0.11,4.0
1758088994.0136,1758088992.19651,0.0,0.0,0.0,-10.02676,27.33009,4.87014,12.73,1.46,0.35,4.0
1758088994.01485,1758088992.20651,0.0,0.0,0.0,-7.10468,31.79916,2.29183,12.74,0.64,-0.16,4.0
1758088994.03367,1758088992.21651,0.0,0.0,0.0,-4.52637,35.2369,1.14592,12.74,0.64,-0.16,4.0
1758088994.03498,1758088992.22651,0.0,0.0,0.0,-1.66158,36.89849,0.40107,11.99,0.22,-0.26,4.0
1758088994.05169,1758088992.23651,0.0,0.0,0.0,1.3178,35.58068,0.34377,11.99,0.22,-0.26,4.0
1758088994.05614,1758088992.24651,0.0,0.0,0.0,5.21392,28.64789,0.85944,10.64,0.16,-0.17,4.0
1758088994.07257,1758088992.25651,0.0,0.0,0.0,7.44845,23.89234,1.71887,10.64,0.16,-0.17,4.0
1758088994.08984,1758088992.26651,0.0,0.0,0.0,8.99544,21.6578,2.63561,9.95,0.31,-0.2,4.0
1758088994.09346,1758088992.27651,0.0,0.0,0.0,10.54242,38.38818,5.15662,9.95,0.31,-0.2,4.0
1758088994.10899,1758088992.28651,0.0,0.0,0.0,10.94349,49.04519,6.41713,10.68,0.52,-0.28,4.0
1758088994.11031,1758088992.29651,0.0,0.0,0.0,11.63104,51.45161,8.02141,9.55,0.65,0.05,4.0
1758088994.12779,1758088992.30651,0.0,0.0,0.0,11.11538,44.57612,8.42248,9.55,0.65,0.05,4.0
1758088994.12891,1758088992.31651,0.0,0.0,0.0,10.02676,27.84575,9.11003,7.37,0.77,-0.1,4.0
1758088994.14387,1758088992.32651,0.0,0.0,0.0,7.96411,23.83505,8.42248,7.37,0.77,-0.1,4.0
1758088994.14504,1758088992.33651,0.0,0.0,0.0,5.15662,21.6578,6.8182,7.89,1.26,-0.46,4.0
1758088994.19491,1758088992.34651,0.0,0.0,0.0,3.26586,17.81899,6.24524,7.89,1.26,-0.46,4.0
1758088994.20305,1758088992.35651,0.0,0.0,0.0,0.68755,11.86023,5.27121,8.03,1.3,-0.7,4.0
1758088994.20444,1758088992.36651,0.0,0.0,0.0,-1.03132,9.05273,4.98473,7.89,1.05,-0.62,4.0
1758088994.20993,1758088992.37651,0.0,0.0,0.0,-2.6929,5.55769,4.92744,7.89,1.05,-0.62,4.0
1758088994.21221,1758088992.38651,0.0,0.0,0.0,-4.35448,0.74485,4.81285,7.32,0.91,-0.71,4.0
1758088994.21396,1758088992.39651,0.0,0.0,0.0,-6.8182,-9.96947,5.90147,7.32,0.91,-0.71,4.0
1758088994.22987,1758088992.40651,0.0,0.0,0.0,-8.136,-17.18874,6.41713,6.39,0.8,-0.79,4.0
1758088994.2325,1758088992.41651,0.0,0.0,0.0,-9.68299,-22.63183,7.33386,6.39,0.8,-0.79,4.0
1758088994.24951,1758088992.42651,0.0,0.0,0.0,-10.71431,-26.64254,7.96411,6.24,0.76,-0.86,4.0
1758088994.25226,1758088992.43651,0.0,0.0,0.0,-12.37589,-32.83048,8.36518,6.28,0.78,-0.87,4.0
1758088994.26948,1758088992.44651,0.0,0.0,0.0,-13.17803,-36.32552,8.136,6.28,0.78,-0.87,4.0
1758088994.27216,1758088992.45651,0.0,0.0,0.0,-13.80828,-38.50277,7.67763,6.76,0.8,-0.53,4.0
1758088994.28948,1758088992.46651,0.0,0.0,0.0,-14.15206,-39.24761,6.8182,6.76,0.8,-0.53,4.0
1758088994.29336,1758088992.47651,0.0,0.0,0.0,-14.09476,-35.69527,6.18794,7.83,0.72,-0.42,4.0
1758088994.31261,1758088992.48651,0.0,0.0,0.0,-13.40721,-29.67921,5.95876,7.83,0.72,-0.42,4.0
1758088994.32013,1758088992.49651,0.0,0.0,0.0,-12.83425,-22.63183,6.47442,9.3,0.56,-0.52,4.0
1758088994.32475,1758088992.50651,0.0,0.0,0.0,-10.71431,-13.40721,8.136,9.3,0.56,-0.52,4.0
1758088994.3308,1758088992.51651,0.0,0.0,0.0,-9.5684,-15.24068,9.68299,9.75,0.27,-0.94,4.0
1758088994.34888,1758088992.52651,0.0,0.0,0.0,-8.70896,-25.38203,9.85487,8.72,0.04,-1.03,4.0
1758088994.3497,1758088992.53651,0.0,0.0,0.0,-7.33386,-30.02299,10.08406,8.72,0.04,-1.03,4.0
1758088994.36918,1758088992.54651,0.0,0.0,0.0,-4.64096,-23.83505,10.94349,10.3,-0.24,-1.15,4.0
1758088994.36961,1758088992.55651,0.0,0.0,0.0,-2.6929,-14.61043,11.80293,10.3,-0.24,-1.15,4.0
1758088994.37568,1758088992.56651,0.0,0.0,0.0,-0.40107,-5.90147,12.54778,11.83,-0.29,-1.2,4.0
1758088994.43864,1758088992.57651,0.0,0.0,0.0,2.11994,-0.68755,13.00614,11.83,-0.29,-1.2,4.0
1758088994.443,1758088992.58651,0.0,0.0,0.0,6.87549,3.95341,12.89155,10.93,-0.27,-1.04,4.0
1758088994.44373,1758088992.59651,0.0,0.0,0.0,10.02676,6.13065,12.49048,10.08,-0.26,-0.93,4.0
1758088994.44493,1758088992.60651,0.0,0.0,0.0,13.5791,8.36518,11.97482,10.08,-0.26,-0.93,4.0
1758088994.4464,1758088992.61651,0.0,0.0,0.0,17.13144,10.54242,11.74564,9.82,-0.07,-0.9,4.0
1758088994.44996,1758088992.62651,0.0,0.0,0.0,22.00158,12.204,11.17268,9.82,-0.07,-0.9,4.0
1758088994.45295,1758088992.63651,0.0,0.0,0.0,25.49662,11.57375,10.8862,9.77,0.1,-1.09,4.0
1758088994.45536,1758088992.64651,0.0,0.0,0.0,28.70519,10.31324,10.37054,9.77,0.1,-1.09,4.0
1758088994.47299,1758088992.65651,0.0,0.0,0.0,31.85646,8.65166,9.5684,9.76,0.21,-1.34,4.0
1758088994.47896,1758088992.66651,0.0,0.0,0.0,36.32552,8.42248,8.47978,10.06,0.2,-1.34,4.0
1758088994.51774,1758088992.67651,0.0,0.0,0.0,39.07573,9.96947,7.62034,10.06,0.2,-1.34,4.0
1758088994.52002,1758088992.68651,0.0,0.0,0.0,41.99781,12.49048,7.21927,10.59,0.01,-0.65,4.0
1758088994.52035,1758088992.69651,0.0,0.0,0.0,46.86795,13.5218,5.90147,10.59,0.01,-0.65,4.0
1758088994.5248,1758088992.70651,0.0,0.0,0.0,49.96192,9.85487,4.1253,11.14,-0.44,0.74,4.0
1758088994.52541,1758088992.71651,0.0,0.0,0.0,53.11319,2.46372,1.43239,11.14,-0.44,0.74,4.0
1758088994.54131,1758088992.72651,0.0,0.0,0.0,55.40502,-6.87549,-1.83346,11.36,-0.98,1.18,4.0
1758088994.55702,1758088992.73651,0.0,0.0,0.0,57.86874,-18.9649,-6.87549,11.36,-0.98,0.86,4.0
1758088994.55905,1758088992.74651,0.0,0.0,0.0,58.72818,-22.97561,-9.68299,11.44,-1.14,0.86,4.0
1758088994.62597,1758088992.75651,0.0,0.0,0.0,59.24384,-23.60586,-11.00079,11.71,-0.76,0.43,4.0
1758088994.62868,1758088992.76651,0.0,0.0,0.0,59.87409,-21.25674,-11.00079,11.71,-0.76,0.43,4.0
1758088994.62941,1758088992.77651,0.0,0.0,0.0,60.73353,-19.59516,-8.36518,12.43,-0.32,1.43,4.0
1758088994.63459,1758088992.78651,0.0,0.0,0.0,60.61894,-21.25674,-6.53172,12.43,-0.32,1.43,4.0
1758088994.63521,1758088992.79651,0.0,0.0,0.0,58.78547,-22.05888,-6.13065,14.58,-0.45,1.92,4.0
1758088994.6381,1758088992.80651,0.0,0.0,0.0,55.51962,-16.272,-7.39116,14.58,-0.45,1.92,4.0
1758088994.63868,1758088992.81651,0.0,0.0,0.0,50.64947,-2.92208,-9.5684,16.13,-0.71,-0.34,4.0
1758088994.63997,1758088992.82651,0.0,0.0,0.0,47.67009,3.49504,-10.48513,13.61,-0.38,-0.49,4.0
1758088994.65541,1758088992.83651,0.0,0.0,0.0,45.14908,7.33386,-10.37054,13.61,-0.38,-0.49,4.0
1758088994.65639,1758088992.84651,0.0,0.0,0.0,42.34158,7.50575,-9.68299,11.55,-0.03,0.72,4.0
1758088994.67306,1758088992.85651,0.0,0.0,0.0,38.56006,13.17803,-6.53172,11.55,-0.03,0.72,4.0
1758088994.67438,1758088992.86651,0.0,0.0,0.0,35.63798,17.18874,-3.83882,12.14,0.13,1.06,4.0
1758088994.68969,1758088992.87651,0.0,0.0,0.0,32.83048,18.33465,-0.97403,12.14,0.13,1.06,4.0
1758088994.70515,1758088992.88651,0.0,0.0,0.0,28.41871,15.75634,2.92208,11.88,0.15,0.75,4.0
1758088994.70641,1758088992.89651,0.0,0.0,0.0,25.49662,7.73493,4.58366,10.58,0.2,0.69,4.0
1758088994.72418,1758088992.90651,0.0,0.0,0.0,22.74642,4.1253,5.09932,10.58,0.2,0.69,4.0
1758088994.72867,1758088992.91651,0.0,0.0,0.0,20.68378,2.92208,5.21392,9.86,0.23,0.56,4.0
1758088994.7442,1758088992.92651,0.0,0.0,0.0,18.10547,4.92744,4.81285,9.86,0.23,0.56,4.0
1758088994.74598,1758088992.93651,0.0,0.0,0.0,16.95955,7.50575,4.69825,9.37,0.07,0.31,4.0
1758088994.76442,1758088992.94651,0.0,0.0,0.0,16.04282,10.08406,4.64096,9.37,0.07,0.31,4.0
1758088994.76535,1758088992.95651,0.0,0.0,0.0,15.75634,11.51645,4.64096,8.8,-0.31,0.19,4.0
1758088994.7842,1758088992.96651,0.0,0.0,0.0,15.64175,11.28727,3.95341,8.41,-0.31,0.22,4.0
1758088994.78539,1758088992.97651,0.0,0.0,0.0,15.69904,9.74028,3.66693,8.41,-0.59,0.22,4.0
1758088994.80011,1758088992.98651,0.0,0.0,0.0,16.04282,8.02141,3.20856,8.45,-0.67,0.13,4.0
1758088994.80449,1758088992.99651,0.0,0.0,0.0,16.61578,4.87014,2.86479,8.45,-0.67,0.13,4.0
1758088994.82022,1758088993.00651,0.0,0.0,0.0,17.76169,2.40642,2.63561,8.33,-0.66,-0.16,4.0
1758088994.82457,1758088993.01651,0.0,0.0,0.0,18.27736,1.66158,2.34913,8.33,-0.66,-0.16,4.0
1758088994.84263,1758088993.02651,0.0,0.0,0.0,18.79302,1.94806,1.83346,8.31,-0.58,-0.51,4.0
1758088994.84463,1758088993.03651,0.0,0.0,0.0,19.42327,2.06265,1.14592,8.31,-0.58,-0.51,4.0
1758088994.86444,1758088993.04651,0.0,0.0,0.0,19.48057,-2.06265,0.74485,8.16,-0.48,-0.66,4.0
1758088994.86616,1758088993.05651,0.0,0.0,0.0,19.59516,-2.97938,1.3178,8.05,-0.38,-0.63,4.0
1758088994.88425,1758088993.06651,0.0,0.0,0.0,18.62113,5.72958,-0.51566,8.05,-0.38,-0.63,4.0
1758088994.88944,1758088993.07651,0.0,0.0,0.0,17.76169,19.36597,-2.06265,9.22,-0.16,-0.93,4.0
1758088994.90435,1758088993.08651,0.0,0.0,0.0,14.83961,32.48671,-2.6929,9.22,-0.16,-0.93,4.0
1758088994.90627,1758088993.09651,0.0,0.0,0.0,13.40721,21.48592,-3.26586,8.09,0.0,-0.61,4.0
1758088994.92362,1758088993.10651,0.0,0.0,0.0,10.94349,7.79223,-4.92744,8.09,0.0,-0.61,4.0
1758088994.9248,1758088993.11651,0.0,0.0,0.0,7.84952,-5.72958,-6.58902,6.62,-0.01,-0.77,4.0
1758088994.94031,1758088993.12651,0.0,0.0,0.0,6.18794,-10.19865,-7.44845,8.08,-0.11,-1.05,4.0
1758088994.95795,1758088993.13651,0.0,0.0,0.0,4.92744,-12.49048,-7.62034,8.08,-0.11,-1.05,4.0
1758088994.95986,1758088993.14651,0.0,0.0,0.0,4.23989,-16.61578,-7.44845,8.76,-0.37,-0.48,4.0
1758088994.97559,1758088993.15651,0.0,0.0,0.0,3.03668,-28.87707,-6.24524,8.76,-0.37,-0.48,4.0
1758088994.97888,1758088993.16651,0.0,0.0,0.0,1.94806,-34.43476,-4.52637,8.38,-0.47,-0.44,4.0
1758088994.99456,1758088993.17651,0.0,0.0,0.0,0.22918,-37.64333,-2.86479,8.38,-0.47,-0.44,4.0
1758088994.99668,1758088993.18651,0.0,0.0,0.0,-0.45837,-35.2942,-0.80214,8.94,-0.45,-0.59,4.0
1758088995.01213,1758088993.19651,0.0,0.0,0.0,-2.86479,-26.64254,1.48969,9.7,-0.37,-0.31,4.0
1758088995.01412,1758088993.20651,0.0,0.0,0.0,-4.92744,-19.82434,2.29183,9.7,-0.37,-0.31,4.0
1758088995.03294,1758088993.21651,0.0,0.0,0.0,-7.04738,-14.49583,1.71887,9.53,-0.18,-0.46,4.0
1758088995.03407,1758088993.22651,0.0,0.0,0.0,-9.22462,-11.17268,0.74485,9.53,-0.18,-0.46,4.0
1758088995.04941,1758088993.23651,0.0,0.0,0.0,-12.08941,-6.47442,-1.71887,9.47,-0.02,-0.9,4.0
1758088995.06895,1758088993.24651,0.0,0.0,0.0,-14.03747,-4.52637,-3.95341,9.47,-0.02,-0.9,4.0
1758088995.07494,1758088993.25651,0.0,0.0,0.0,-15.75634,-3.38045,-6.41713,9.83,-0.02,-1.27,4.0
1758088995.12997,1758088993.26651,0.0,0.0,0.0,-17.99088,-2.29183,-9.33921,9.83,-0.02,-1.27,4.0
1758088995.13512,1758088993.27651,0.0,0.0,0.0,-20.68378,-2.46372,-13.46451,10.38,-0.15,-1.29,4.0
1758088995.13573,1758088993.28651,0.0,0.0,0.0,-22.05888,-3.20856,-15.69904,10.39,-0.19,-1.34,4.0
1758088995.13777,1758088993.29651,0.0,0.0,0.0,-23.26209,-3.72423,-17.18874,10.39,-0.19,-1.34,4.0
1758088995.13999,1758088993.30651,0.0,0.0,0.0,-24.63719,-2.63561,-17.58981,10.04,-0.19,-1.18,4.0
1758088995.14438,1758088993.31651,0.0,0.0,0.0,-25.21014,-0.80214,-16.84496,10.04,-0.19,-1.18,4.0
1758088995.14854,1758088993.32651,0.0,0.0,0.0,-25.43933,0.45837,-15.58445,9.69,-0.44,-1.0,4.0
1758088995.14889,1758088993.33651,0.0,0.0,0.0,-25.61122,2.06265,-14.20935,9.69,-0.44,-1.0,4.0
1758088995.16644,1758088993.34651,0.0,0.0,0.0,-25.8404,4.69825,-11.97482,9.62,-0.87,-0.92,4.0
1758088995.1751,1758088993.35651,0.0,0.0,0.0,-25.72581,7.16197,-10.59972,9.6,-1.28,-1.2,4.0
1758088995.17626,1758088993.36651,0.0,0.0,0.0,-25.61122,10.37054,-9.4538,9.6,-1.28,-1.2,4.0
1758088995.19346,1758088993.37651,0.0,0.0,0.0,-26.12688,13.5791,-8.70896,9.69,-1.45,-1.46,4.0
1758088995.19624,1758088993.38651,0.0,0.0,0.0,-26.81443,16.04282,-7.96411,9.69,-1.45,-1.46,4.0
1758088995.21394,1758088993.39651,0.0,0.0,0.0,-27.38738,15.64175,-7.67763,9.46,-1.34,-1.3,4.0
1758088995.21633,1758088993.40651,0.0,0.0,0.0,-27.73116,11.91752,-7.10468,9.46,-1.34,-1.3,4.0
1758088995.23309,1758088993.41651,0.0,0.0,0.0,-27.96034,6.13065,-5.90147,9.41,-1.01,-0.22,4.0
1758088995.2343,1758088993.42651,0.0,0.0,0.0,-27.78845,-3.83882,-2.92208,10.28,-0.53,1.08,4.0
1758088995.36893,1758088993.43651,0.0,0.0,0.0,-27.33009,-9.39651,-0.22918,10.28,-0.53,1.08,4.0
1758088995.38378,1758088993.44651,0.0,0.0,0.0,-26.75713,-14.49583,2.06265,11.41,0.01,2.02,4.0
1758088995.405,1758088993.45651,0.0,0.0,0.0,-25.55392,-17.93358,4.87014,11.41,0.01,2.02,4.0
1758088995.4099,1758088993.46651,0.0,0.0,0.0,-24.35071,-23.83505,7.50575,11.61,0.47,2.31,4.0
1758088995.41241,1758088993.47651,0.0,0.0,0.0,-23.54857,-34.66395,8.47978,11.61,0.47,2.31,4.0
1758088995.41417,1758088993.48651,0.0,0.0,0.0,-23.49127,-48.8733,7.50575,10.41,0.67,1.62,4.0
1758088995.41644,1758088993.49651,0.0,0.0,0.0,-23.31938,-57.92604,3.20856,10.41,0.67,1.62,4.0
1758088995.41716,1758088993.50651,0.0,0.0,0.0,-22.91831,-43.54479,-1.94806,11.35,0.81,0.63,4.0
1758088995.41905,1758088993.51651,0.0,0.0,0.0,-22.05888,-25.21014,-7.50575,14.71,1.39,-0.13,4.0
1758088995.42021,1758088993.52651,0.0,0.0,0.0,-21.02755,-11.00079,-12.204,14.71,1.39,-0.13,4.0
1758088995.42411,1758088993.53651,0.0,0.0,0.0,-18.16276,10.37054,-14.49583,15.08,2.37,-0.63,4.0
1758088995.42529,1758088993.54651,0.0,0.0,0.0,-16.3293,25.55392,-13.40721,15.08,2.37,-0.63,4.0
1758088995.42599,1758088993.55651,0.0,0.0,0.0,-14.66772,34.43476,-10.48513,15.07,2.67,-1.01,4.0
1758088995.42675,1758088993.56651,0.0,0.0,0.0,-12.71966,37.29956,-7.50575,15.07,2.67,-1.01,4.0
1758088995.42784,1758088993.57651,0.0,0.0,0.0,-9.85487,36.21093,-3.20856,12.93,1.9,0.44,4.0
1758088995.42849,1758088993.58651,0.0,0.0,0.0,-7.73493,32.71589,-0.97403,11.71,1.06,0.61,4.0
1758088995.42968,1758088993.59651,0.0,0.0,0.0,-5.32851,28.01764,0.45837,11.71,1.06,0.61,4.0
1758088995.43086,1758088993.60651,0.0,0.0,0.0,-2.57831,22.51724,1.03132,10.52,0.52,0.32,4.0
1758088995.43243,1758088993.61651,0.0,0.0,0.0,1.83346,14.38124,0.40107,10.52,0.52,0.32,4.0
1758088995.44848,1758088993.62651,0.0,0.0,0.0,4.1253,12.43318,-0.74485,9.82,0.42,0.15,4.0
1758088995.44965,1758088993.63651,0.0,0.0,0.0,6.87549,13.86558,-1.43239,9.82,0.42,0.15,4.0
1758088995.46467,1758088993.64651,0.0,0.0,0.0,8.99544,17.24603,-2.29183,10.38,0.53,0.0,4.0
1758088995.46664,1758088993.65651,0.0,0.0,0.0,11.45916,26.18417,-2.46372,10.62,0.69,-0.13,4.0
1758088995.48158,1758088993.66651,0.0,0.0,0.0,12.77696,30.59595,-2.23454,10.62,0.69,-0.13,4.0
1758088995.49847,1758088993.67651,0.0,0.0,0.0,13.5791,31.2262,-2.11994,9.77,0.76,-0.07,4.0
1758088995.49969,1758088993.68651,0.0,0.0,0.0,14.15206,28.59059,-1.83346,9.77,0.76,-0.07,4.0
1758088995.51465,1758088993.69651,0.0,0.0,0.0,14.32395,22.00158,-1.3178,8.84,0.78,-0.11,4.0
1758088995.51693,1758088993.70651,0.0,0.0,0.0,14.32395,18.85031,-0.74485,8.84,0.78,-0.11,4.0
1758088995.53431,1758088993.71651,0.0,0.0,0.0,13.98017,17.93358,0.0,8.85,0.83,-0.39,4.0
1758088995.53733,1758088993.72651,0.0,0.0,0.0,13.75099,17.81899,1.14592,8.85,0.83,-0.39,4.0
1758088995.55747,1758088993.73651,0.0,0.0,0.0,13.17803,17.01685,2.11994,8.92,0.86,-0.57,4.0
1758088995.56455,1758088993.74651,0.0,0.0,0.0,12.71966,14.32395,2.6929,8.46,0.89,-0.57,4.0
1758088995.56917,1758088993.75651,0.0,0.0,0.0,12.08941,11.51645,3.38045,8.46,0.89,-0.57,4.0
1758088995.58969,1758088993.76651,0.0,0.0,0.0,10.59972,9.39651,4.18259,8.36,0.94,-0.56,4.0
1758088995.59221,1758088993.77651,0.0,0.0,0.0,9.11003,9.22462,4.81285,8.36,0.94,-0.56,4.0
1758088995.60944,1758088993.78651,0.0,0.0,0.0,7.44845,8.47978,5.78687,8.52,1.02,-0.53,4.0
1758088995.61291,1758088993.79651,0.0,0.0,0.0,6.07335,6.58902,6.8182,8.52,1.02,-0.53,4.0
1758088995.62925,1758088993.80651,0.0,0.0,0.0,3.60963,2.92208,9.05273,8.31,1.01,-0.41,4.0
1758088995.63296,1758088993.81651,0.0,0.0,0.0,2.29183,0.68755,10.54242,8.28,0.85,-0.49,4.0
1758088995.64792,1758088993.82651,0.0,0.0,0.0,1.14592,-1.83346,11.97482,8.28,0.85,-0.49,4.0
1758088995.649,1758088993.83651,0.0,0.0,0.0,0.0,-5.4431,13.06344,8.15,0.7,-0.48,4.0
1758088995.6638,1758088993.84651,0.0,0.0,0.0,-1.08862,-10.31324,14.09476,8.15,0.7,-0.48,4.0
1758088995.66505,1758088993.85651,0.0,0.0,0.0,-1.60428,-13.40721,14.03747,8.02,0.57,-0.46,4.0
1758088995.68003,1758088993.86651,0.0,0.0,0.0,-1.77617,-15.75634,13.80828,8.02,0.57,-0.46,4.0
1758088995.69583,1758088993.87651,0.0,0.0,0.0,-1.71887,-17.36062,13.12073,8.07,0.45,-0.41,4.0
1758088995.69701,1758088993.88651,0.0,0.0,0.0,-1.08862,-19.07949,11.57375,8.36,0.36,-0.31,4.0
1758088995.71192,1758088993.89651,0.0,0.0,0.0,-0.51566,-18.90761,10.31324,8.36,0.36,-0.31,4.0
1758088995.72825,1758088993.90651,0.0,0.0,0.0,0.40107,-17.30333,9.28192,8.94,0.29,-0.37,4.0
1758088995.72987,1758088993.91651,0.0,0.0,0.0,1.77617,-14.43854,8.36518,8.94,0.29,-0.37,4.0
1758088995.74471,1758088993.92651,0.0,0.0,0.0,2.6929,-10.59972,8.42248,9.71,0.24,-0.58,4.0
1758088995.74596,1758088993.93651,0.0,0.0,0.0,3.89611,-9.68299,8.76626,9.71,0.24,-0.58,4.0
1758088995.76245,1758088993.94651,0.0,0.0,0.0,5.15662,-8.76626,9.5684,10.15,0.1,-0.71,4.0
1758088995.80961,1758088993.95651,0.0,0.0,0.0,7.21927,-8.36518,11.11538,10.15,0.1,-0.71,4.0
1758088995.81904,1758088993.96651,0.0,0.0,0.0,8.76626,-7.67763,12.08941,10.53,-0.16,-0.78,4.0
1758088995.81955,1758088993.97651,0.0,0.0,0.0,10.59972,-7.10468,12.77696,10.52,-0.36,-0.64,4.0
1758088995.82464,1758088993.98651,0.0,0.0,0.0,12.43318,-6.41713,13.12073,10.52,-0.36,-0.64,4.0
1758088995.82872,1758088993.99651,0.0,0.0,0.0,15.24068,-4.52637,13.17803,10.15,-0.39,-0.36,4.0
1758088995.8337,1758088994.00651,0.0,0.0,0.0,17.01685,-3.89611,13.17803,10.15,-0.39,-0.36,4.0
1758088995.83428,1758088994.01651,0.0,0.0,0.0,18.79302,-3.60963,12.71966,9.64,-0.21,-0.23,4.0
1758088995.83501,1758088994.02651,0.0,0.0,0.0,20.16812,-4.1253,12.2613,9.64,-0.21,-0.23,4.0
1758088995.85277,1758088994.03651,0.0,0.0,0.0,22.28806,-3.60963,11.86023,9.4,0.0,-0.33,4.0
1758088995.8562,1758088994.04651,0.0,0.0,0.0,23.54857,-1.83346,11.51645,9.65,0.18,-0.54,4.0
1758088995.8951,1758088994.05651,0.0,0.0,0.0,24.5226,0.57296,11.17268,9.65,0.18,-0.54,4.0
1758088995.90827,1758088994.06651,0.0,0.0,0.0,25.61122,3.60963,10.94349,9.82,0.3,-0.78,4.0
1758088995.92558,1758088994.07651,0.0,0.0,0.0,27.33009,7.79223,10.71431,9.82,0.3,-0.78,4.0
1758088995.93492,1758088994.08651,0.0,0.0,0.0,28.24682,10.37054,10.65701,9.83,0.32,-1.12,4.0
1758088995.93534,1758088994.09651,0.0,0.0,0.0,29.22085,12.204,10.65701,9.83,0.32,-1.12,4.0
1758088995.93837,1758088994.10651,0.0,0.0,0.0,30.19488,12.83425,10.48513,9.82,0.27,-1.29,4.0
1758088995.93875,1758088994.11651,0.0,0.0,0.0,31.51268,10.65701,10.31324,9.57,0.2,-1.26,4.0
1758088995.94069,1758088994.12651,0.0,0.0,0.0,32.42941,7.73493,10.08406,9.57,0.2,-1.26,4.0
1758088995.96161,1758088994.13651,0.0,0.0,0.0,33.23156,5.72958,9.39651,9.35,0.18,-1.04,4.0
1758088995.96438,1758088994.14651,0.0,0.0,0.0,34.09099,5.50039,8.42248,9.35,0.18,-1.04,4.0
1758088995.96743,1758088994.15651,0.0,0.0,0.0,35.06502,7.04738,7.84952,9.51,0.16,-0.55,4.0
1758088995.99984,1758088994.16651,0.0,0.0,0.0,35.98175,7.10468,6.99009,9.51,0.16,-0.55,4.0
1758088996.01751,1758088994.17651,0.0,0.0,0.0,37.01308,4.81285,5.50039,9.84,0.05,0.38,4.0
1758088996.01808,1758088994.18651,0.0,0.0,0.0,37.64333,-3.66693,2.46372,9.84,0.05,0.91,4.0
1758088996.0204,1758088994.19651,0.0,0.0,0.0,37.92981,-10.8862,0.74485,10.25,-0.17,0.91,4.0
1758088996.02483,1758088994.20651,0.0,0.0,0.0,38.15899,-17.30333,-0.97403,10.76,-0.39,0.96,4.0
1758088996.02995,1758088994.21651,0.0,0.0,0.0,37.98711,-22.34536,-2.46372,10.76,-0.39,0.96,4.0
1758088996.03457,1758088994.22651,0.0,0.0,0.0,37.64333,-27.1582,-4.35448,11.22,-0.5,0.72,4.0
1758088996.05202,1758088994.23651,0.0,0.0,0.0,37.18496,-28.24682,-5.21392,11.22,-0.5,0.72,4.0
1758088996.06833,1758088994.24651,0.0,0.0,0.0,36.38282,-27.84575,-5.4431,11.24,-0.4,0.66,4.0
1758088996.07001,1758088994.25651,0.0,0.0,0.0,35.12231,-26.64254,-5.09932,11.24,-0.4,0.66,4.0
1758088996.08741,1758088994.26651,0.0,0.0,0.0,33.40344,-22.57454,-5.4431,11.87,-0.2,1.85,4.0
1758088996.09017,1758088994.27651,0.0,0.0,0.0,32.37212,-12.77696,-6.24524,15.12,-0.53,1.55,4.0
1758088996.105,1758088994.28651,0.0,0.0,0.0,31.28349,-5.84417,-8.136,15.12,-0.53,1.55,4.0
1758088996.10705,1758088994.29651,0.0,0.0,0.0,29.33544,-8.30789,-10.37054,14.62,-0.83,-0.26,4.0
1758088996.12395,1758088994.30651,0.0,0.0,0.0,25.26744,-18.10547,-16.84496,14.62,-0.83,-0.26,4.0
1758088996.12509,1758088994.31651,0.0,0.0,0.0,22.97561,-13.69369,-17.93358,11.96,-0.36,-0.05,4.0
1758088996.14276,1758088994.32651,0.0,0.0,0.0,22.86102,-1.71887,-17.99088,11.96,-0.36,-0.05,4.0
1758088996.15889,1758088994.33651,0.0,0.0,0.0,23.72045,9.05273,-14.43854,12.37,-0.11,0.64,4.0
1758088996.16244,1758088994.34651,0.0,0.0,0.0,24.17882,23.54857,-10.25595,12.26,-0.25,0.88,4.0
1758088996.16469,1758088994.35651,0.0,0.0,0.0,23.94964,26.12688,-6.07335,12.26,-0.25,0.88,4.0
1758088996.18412,1758088994.36651,0.0,0.0,0.0,24.00693,22.57454,-2.29183,11.33,-0.45,0.63,4.0
1758088996.18532,1758088994.37651,0.0,0.0,0.0,24.57989,13.40721,0.68755,11.33,-0.45,0.63,4.0
1758088996.20413,1758088994.38651,0.0,0.0,0.0,24.92367,8.30789,0.68755,10.93,-0.55,0.69,4.0
1758088996.20541,1758088994.39651,0.0,0.0,0.0,25.72581,6.13065,0.57296,10.93,-0.55,0.69,4.0
1758088996.2234,1758088994.40651,0.0,0.0,0.0,26.41335,3.72423,-0.17189,10.47,-0.65,0.58,4.0
1758088996.22633,1758088994.41651,0.0,0.0,0.0,28.64789,3.03668,-0.97403,9.41,-0.65,0.5,4.0
1758088996.24592,1758088994.42651,0.0,0.0,0.0,30.13758,4.35448,-0.97403,9.41,-0.84,0.5,4.0
1758088996.25033,1758088994.43651,0.0,0.0,0.0,31.56997,6.8182,-0.51566,8.94,-0.99,0.3,4.0
1758088996.26939,1758088994.44651,0.0,0.0,0.0,32.6013,9.62569,0.17189,8.94,-0.99,0.3,4.0
1758088996.27277,1758088994.45651,0.0,0.0,0.0,34.43476,11.28727,1.94806,8.82,-0.88,0.26,4.0
1758088996.28926,1758088994.46651,0.0,0.0,0.0,35.2369,10.02676,3.26586,8.82,-0.88,0.26,4.0
1758088996.29021,1758088994.47651,0.0,0.0,0.0,35.92446,8.42248,4.46907,8.6,-0.52,0.06,4.0
1758088996.30843,1758088994.48651,0.0,0.0,0.0,36.38282,7.33386,5.4431,8.6,-0.52,0.06,4.0
1758088996.31017,1758088994.49651,0.0,0.0,0.0,36.6693,8.136,5.72958,8.61,-0.17,-0.24,4.0
1758088996.32978,1758088994.50651,0.0,0.0,0.0,37.01308,7.04738,5.4431,8.61,-0.05,-0.46,4.0
1758088996.33492,1758088994.51651,0.0,0.0,0.0,37.24226,4.29718,5.21392,8.61,-0.05,-0.46,4.0
1758088996.33713,1758088994.52651,0.0,0.0,0.0,37.18496,1.60428,4.46907,8.49,-0.21,-0.47,4.0
1758088996.35482,1758088994.53651,0.0,0.0,0.0,36.6693,8.65166,1.83346,8.49,-0.21,-0.47,4.0
1758088996.35842,1758088994.54651,0.0,0.0,0.0,36.15364,18.85031,0.34377,9.62,-0.32,-0.82,4.0
1758088996.37323,1758088994.55651,0.0,0.0,0.0,35.3515,26.41335,-0.85944,9.62,-0.32,-0.82,4.0
1758088996.37445,1758088994.56651,0.0,0.0,0.0,33.86181,14.03747,-3.26586,9.24,-0.33,-0.54,4.0
1758088996.39057,1758088994.57651,0.0,0.0,0.0,33.05967,5.55769,-4.46907,7.95,-0.29,-0.33,4.0
1758088996.40913,1758088994.58651,0.0,0.0,0.0,32.20023,-1.43239,-5.32851,7.95,-0.29,-0.33,4.0
1758088996.41025,1758088994.59651,0.0,0.0,0.0,31.91375,-5.55769,-5.4431,8.95,-0.27,-0.56,4.0
1758088996.4287,1758088994.60651,0.0,0.0,0.0,32.25753,-9.96947,-4.35448,8.95,-0.27,-0.56,4.0
1758088996.43043,1758088994.61651,0.0,0.0,0.0,33.17426,-15.64175,-3.26586,9.63,-0.37,-0.21,4.0
1758088996.43539,1758088994.62651,0.0,0.0,0.0,33.74722,-23.31938,-2.57831,9.63,-0.37,-0.21,4.0
1758088996.45116,1758088994.63651,0.0,0.0,0.0,33.9764,-27.38738,-1.66158,9.33,-0.4,-0.08,4.0
1758088996.45479,1758088994.64651,0.0,0.0,0.0,33.86181,-30.25217,-0.11459,9.49,-0.28,-0.16,4.0
1758088996.4713,1758088994.65651,0.0,0.0,0.0,33.63263,-27.96034,0.80214,9.49,-0.28,-0.16,4.0
1758088996.47489,1758088994.66651,0.0,0.0,0.0,33.05967,-23.49127,2.29183,9.73,-0.15,0.07,4.0
1758088996.49058,1758088994.67651,0.0,0.0,0.0,32.48671,-18.9649,3.72423,9.73,-0.15,0.07,4.0
1758088996.50845,1758088994.68651,0.0,0.0,0.0,31.45539,-13.23533,5.4431,9.43,-0.07,0.01,4.0
1758088996.51047,1758088994.69651,0.0,0.0,0.0,30.88243,-10.48513,5.78687,9.43,-0.07,0.01,4.0
1758088996.52535,1758088994.70651,0.0,0.0,0.0,30.76784,-8.99544,5.27121,9.34,-0.11,-0.1,4.0
1758088996.52741,1758088994.71651,0.0,0.0,0.0,30.82513,-7.96411,4.35448,9.34,-0.11,-0.1,4.0
1758088996.54258,1758088994.72651,0.0,0.0,0.0,30.93972,-5.95876,2.34913,9.58,-0.26,-0.23,4.0
1758088996.55861,1758088994.73651,0.0,0.0,0.0,31.28349,-5.09932,0.85944,9.87,-0.44,-0.32,4.0
1758088996.56118,1758088994.74651,0.0,0.0,0.0,31.85646,-4.98473,-0.45837,9.87,-0.44,-0.32,4.0
1758088996.57834,1758088994.75651,0.0,0.0,0.0,32.48671,-6.70361,-2.6929,9.69,-0.52,-0.23,4.0
1758088996.57944,1758088994.76651,0.0,0.0,0.0,33.23156,-8.47978,-3.72423,9.69,-0.52,-0.23,4.0
1758088996.59474,1758088994.77651,0.0,0.0,0.0,34.14828,-10.25595,-4.98473,9.52,-0.5,-0.2,4.0
1758088996.5956,1758088994.78651,0.0,0.0,0.0,35.2369,-10.48513,-5.90147,9.52,-0.5,-0.2,4.0
1758088996.61049,1758088994.79651,0.0,0.0,0.0,36.21093,-6.41713,-6.99009,9.86,-0.55,-0.3,4.0
1758088996.62745,1758088994.80651,0.0,0.0,0.0,37.24226,-2.06265,-7.10468,10.65,-0.65,-0.62,4.0
1758088996.6289,1758088994.81651,0.0,0.0,0.0,37.29956,3.03668,-7.67763,10.65,-0.65,-0.62,4.0
1758088996.64331,1758088994.82651,0.0,0.0,0.0,37.12767,7.16197,-7.84952,11.06,-0.63,-0.65,4.0
1758088996.64453,1758088994.83651,0.0,0.0,0.0,35.69527,11.00079,-8.30789,11.06,-0.63,-0.65,4.0
1758088996.66069,1758088994.84651,0.0,0.0,0.0,34.32018,11.80293,-8.47978,11.0,-0.33,-0.42,4.0
1758088996.6767,1758088994.85651,0.0,0.0,0.0,32.71589,11.74564,-8.59437,11.0,-0.33,-0.42,4.0
1758088996.67764,1758088994.86651,0.0,0.0,0.0,30.93972,11.11538,-8.47978,10.63,0.0,-0.27,4.0
1758088996.69247,1758088994.87651,0.0,0.0,0.0,29.10626,12.43318,-7.96411,10.48,0.02,-0.04,4.0
1758088996.70854,1758088994.88651,0.0,0.0,0.0,28.30412,13.34992,-7.21927,10.48,0.02,-0.04,4.0
1758088996.71073,1758088994.89651,0.0,0.0,0.0,27.84575,13.46451,-6.58902,10.09,-0.28,-0.07,4.0
1758088996.72544,1758088994.90651,0.0,0.0,0.0,27.96034,13.46451,-5.95876,10.09,-0.28,-0.07,4.0
1758088996.72984,1758088994.91651,0.0,0.0,0.0,27.84575,13.00614,-5.55769,9.72,-0.67,-0.2,4.0
1758088996.74546,1758088994.92651,0.0,0.0,0.0,27.78845,13.80828,-5.50039,9.72,-0.67,-0.2,4.0
1758088996.74668,1758088994.93651,0.0,0.0,0.0,27.50197,14.9542,-5.55769,9.7,-0.9,-0.37,4.0
1758088996.76143,1758088994.94651,0.0,0.0,0.0,27.10091,15.98552,-6.07335,9.7,-0.9,-0.37,4.0
1758088996.77849,1758088994.95651,0.0,0.0,0.0,26.18417,16.67307,-6.47442,9.6,-0.9,-0.38,4.0
1758088996.78008,1758088994.96651,0.0,0.0,0.0,25.49662,16.90226,-6.99009,9.29,-0.76,-0.45,4.0
1758088996.79478,1758088994.97651,0.0,0.0,0.0,24.57989,16.84496,-7.21927,9.29,-0.76,-0.45,4.0
1758088996.79595,1758088994.98651,0.0,0.0,0.0,22.74642,16.67307,-8.0787,9.04,-0.58,-0.55,4.0
1758088996.81074,1758088994.99651,0.0,0.0,0.0,21.60051,16.73037,-8.30789,9.04,-0.58,-0.55,4.0
1758088996.82856,1758088995.00651,0.0,0.0,0.0,20.16812,16.61578,-8.65166,8.91,-0.51,-0.63,4.0
1758088996.8296,1758088995.01651,0.0,0.0,0.0,18.85031,16.38659,-8.93814,8.91,-0.51,-0.63,4.0
1758088996.84453,1758088995.02651,0.0,0.0,0.0,16.90226,16.3293,-9.11003,8.82,-0.52,-0.67,4.0
1758088996.84888,1758088995.03651,0.0,0.0,0.0,15.75634,15.98552,-9.33921,9.04,-0.55,-0.46,4.0
1758088996.86479,1758088995.04651,0.0,0.0,0.0,14.72501,16.38659,-9.33921,9.04,-0.55,-0.46,4.0
1758088996.8697,1758088995.05651,0.0,0.0,0.0,13.5791,16.10011,-9.39651,9.91,-0.49,0.15,4.0
1758088996.88484,1758088995.06651,0.0,0.0,0.0,12.204,14.43854,-8.36518,9.91,-0.49,0.15,4.0
1758088996.88847,1758088995.07651,0.0,0.0,0.0,11.11538,11.63104,-7.44845,10.86,-0.31,0.72,4.0
1758088996.95934,1758088995.08651,0.0,0.0,0.0,10.08406,7.79223,-5.95876,10.86,-0.31,0.72,4.0
1758088996.9821,1758088995.09651,0.0,0.0,0.0,9.11003,2.29183,-4.1253,11.56,-0.03,1.14,4.0
1758088996.98355,1758088995.10651,0.0,0.0,0.0,7.04738,-5.50039,-1.08862,11.61,0.27,0.98,4.0
1758088996.98642,1758088995.11651,0.0,0.0,0.0,5.90147,-9.33921,0.80214,11.61,0.27,0.98,4.0
1758088997.04172,1758088995.12651,0.0,0.0,0.0,4.92744,-11.45916,2.06265,10.92,0.53,0.51,4.0
1758088997.04593,1758088995.13651,0.0,0.0,0.0,4.1253,-11.63104,2.11994,10.92,0.53,0.51,4.0
1758088997.04694,1758088995.14651,0.0,0.0,0.0,3.55234,-10.65701,0.74485,9.75,0.7,-0.16,4.0
1758088997.04894,1758088995.15651,0.0,0.0,0.0,3.26586,-9.74028,-1.20321,9.75,0.7,-0.16,4.0
1758088997.05396,1758088995.16651,0.0,0.0,0.0,3.55234,-9.28192,-4.29718,8.92,0.88,0.02,4.0
1758088997.05616,1758088995.17651,0.0,0.0,0.0,4.0107,-9.74028,-8.25059,8.92,0.88,0.02,4.0
1758088997.05743,1758088995.18651,0.0,0.0,0.0,4.87014,-10.37054,-9.39651,10.49,1.17,1.81,4.0
1758088997.05984,1758088995.19651,0.0,0.0,0.0,4.92744,-5.4431,-10.25595,15.28,1.79,0.01,4.0
1758088997.06249,1758088995.20651,0.0,0.0,0.0,4.69825,-3.83882,-9.39651,15.28,1.79,0.01,4.0
1758088997.06485,1758088995.21651,0.0,0.0,0.0,5.21392,-9.39651,-6.7609,14.5,2.18,-0.89,4.0
1758088997.06993,1758088995.22651,0.0,0.0,0.0,6.53172,-13.34992,-4.64096,14.5,2.18,-0.89,4.0
1758088997.07394,1758088995.23651,0.0,0.0,0.0,7.96411,-12.83425,-2.6929,11.0,1.56,-0.12,4.0
1758088997.07497,1758088995.24651,0.0,0.0,0.0,10.02676,-9.39651,-1.66158,11.0,1.56,-0.12,4.0
1758088997.07641,1758088995.25651,0.0,0.0,0.0,14.03747,5.21392,0.17189,11.53,1.18,0.0,4.0
1758088997.07837,1758088995.26651,0.0,0.0,0.0,17.6471,11.28727,0.97403,12.23,1.21,0.01,4.0
1758088997.09394,1758088995.27651,0.0,0.0,0.0,22.05888,11.91752,0.97403,12.23,1.21,0.01,4.0
1758088997.09488,1758088995.28651,0.0,0.0,0.0,26.35606,7.16197,0.51566,11.17,1.19,0.21,4.0
1758088997.11194,1758088995.29651,0.0,0.0,0.0,31.85646,2.34913,0.11459,11.17,1.19,0.21,4.0
1758088997.12984,1758088995.30651,0.0,0.0,0.0,34.26288,9.05273,-0.22918,10.93,0.92,0.21,4.0
1758088997.13066,1758088995.31651,0.0,0.0,0.0,35.2942,17.36062,-0.45837,10.93,0.92,0.21,4.0
1758088997.13667,1758088995.32651,0.0,0.0,0.0,35.75257,18.33465,0.51566,10.47,0.79,0.26,4.0
1758088997.15792,1758088995.33651,0.0,0.0,0.0,35.3515,16.50119,-0.0573,8.75,0.8,0.65,4.0
1758088997.20105,1758088995.34651,0.0,0.0,0.0,34.14828,10.48513,-0.17189,8.75,0.8,0.65,4.0
1758088997.20396,1758088995.35651,0.0,0.0,0.0,32.88778,5.27121,-0.74485,8.29,0.88,0.28,4.0
1758088997.21242,1758088995.36651,0.0,0.0,0.0,30.82513,3.32316,-2.40642,8.29,0.88,0.28,4.0
1758088997.21465,1758088995.37651,0.0,0.0,0.0,29.62192,4.64096,-3.38045,9.34,0.94,-0.07,4.0
1758088997.21751,1758088995.38651,0.0,0.0,0.0,28.99167,6.47442,-3.95341,9.34,0.94,-0.07,4.0
1758088997.21813,1758088995.39651,0.0,0.0,0.0,28.36141,8.136,-4.18259,9.81,0.98,-0.23,4.0
1758088997.22009,1758088995.40651,0.0,0.0,0.0,28.36141,9.4538,-3.66693,9.81,0.98,-0.23,4.0
1758088997.23599,1758088995.41651,0.0,0.0,0.0,28.24682,9.96947,-2.7502,9.7,0.94,-0.33,4.0
1758088997.23855,1758088995.42651,0.0,0.0,0.0,28.13223,9.74028,-1.71887,9.65,0.82,-0.44,4.0
1758088997.25379,1758088995.43651,0.0,0.0,0.0,28.13223,9.62569,-0.40107,9.65,0.82,-0.44,4.0
1758088997.25497,1758088995.44651,0.0,0.0,0.0,27.78845,9.28192,1.71887,9.73,0.7,-0.5,4.0
1758088997.27202,1758088995.45651,0.0,0.0,0.0,26.87172,15.46986,3.09397,9.73,0.7,-0.5,4.0
1758088997.28806,1758088995.46651,0.0,0.0,0.0,26.47065,24.00693,4.98473,10.35,0.66,-0.68,4.0
1758088997.28931,1758088995.47651,0.0,0.0,0.0,26.18417,30.99702,7.50575,10.35,0.66,-0.68,4.0
1758088997.30482,1758088995.48651,0.0,0.0,0.0,25.21014,34.49206,10.37054,10.14,0.64,-0.6,4.0
1758088997.30599,1758088995.49651,0.0,0.0,0.0,24.63719,33.34615,11.91752,9.48,0.63,-0.44,4.0
1758088997.32111,1758088995.50651,0.0,0.0,0.0,24.5226,30.48136,13.17803,9.48,0.63,-0.44,4.0
1758088997.33781,1758088995.51651,0.0,0.0,0.0,24.57989,27.10091,13.98017,9.31,0.54,-0.49,4.0
1758088997.33836,1758088995.52651,0.0,0.0,0.0,25.38203,23.31938,14.61043,9.31,0.54,-0.49,4.0
1758088997.35479,1758088995.53651,0.0,0.0,0.0,26.18417,20.97026,14.66772,9.61,0.43,-0.33,4.0
1758088997.35768,1758088995.54651,0.0,0.0,0.0,27.10091,18.27736,14.38124,9.61,0.43,-0.33,4.0
1758088997.3731,1758088995.55651,0.0,0.0,0.0,28.30412,15.41257,13.69369,9.66,0.33,-0.37,4.0
1758088997.38889,1758088995.56651,0.0,0.0,0.0,30.48136,11.74564,13.00614,9.57,0.3,-0.46,4.0
1758088997.38944,1758088995.57651,0.0,0.0,0.0,31.62727,10.54242,11.97482,9.57,0.3,-0.46,4.0
1758088997.40487,1758088995.58651,0.0,0.0,0.0,32.83048,9.68299,10.8862,9.66,0.35,-0.36,4.0
1758088997.40688,1758088995.59651,0.0,0.0,0.0,34.37747,8.47978,8.76626,9.66,0.35,-0.36,4.0
1758088997.42197,1758088995.60651,0.0,0.0,0.0,35.58068,7.96411,7.39116,9.84,0.48,-0.29,4.0
1758088997.42462,1758088995.61651,0.0,0.0,0.0,36.55471,6.41713,6.13065,9.84,0.48,-0.29,4.0
1758088997.44176,1758088995.62651,0.0,0.0,0.0,37.81522,4.1253,5.27121,9.88,0.58,-0.27,4.0
1758088997.44391,1758088995.63651,0.0,0.0,0.0,39.4195,0.0573,3.95341,9.88,0.58,-0.23,4.0
1758088997.45948,1758088995.64651,0.0,0.0,0.0,40.39353,-2.57831,3.49504,9.71,0.58,-0.23,4.0
1758088997.51882,1758088995.65651,0.0,0.0,0.0,41.02378,-4.29718,2.7502,9.72,0.54,-0.32,4.0
1758088997.52731,1758088995.66651,0.0,0.0,0.0,41.88322,-5.09932,2.29183,9.72,0.54,-0.32,4.0
1758088997.52781,1758088995.67651,0.0,0.0,0.0,42.85724,-4.29718,1.66158,9.97,0.48,-0.41,4.0
1758088997.53793,1758088995.68651,0.0,0.0,0.0,43.4875,-3.55234,1.3751,9.97,0.48,-0.41,4.0
1758088997.53848,1758088995.69651,0.0,0.0,0.0,44.28964,-2.23454,1.20321,10.14,0.4,-0.48,4.0
1758088997.53999,1758088995.70651,0.0,0.0,0.0,44.9199,-1.14592,1.20321,10.14,0.4,-0.48,4.0
1758088997.54034,1758088995.71651,0.0,0.0,0.0,46.1804,0.51566,1.48969,10.07,0.32,-0.62,4.0
1758088997.54193,1758088995.72651,0.0,0.0,0.0,46.98254,1.48969,1.71887,9.92,0.27,-0.69,4.0
1758088997.54542,1758088995.73651,0.0,0.0,0.0,47.61279,2.29183,1.94806,9.92,0.27,-0.69,4.0
1758088997.56385,1758088995.74651,0.0,0.0,0.0,48.35764,2.11994,2.29183,9.88,0.24,-0.43,4.0
1758088997.59893,1758088995.75651,0.0,0.0,0.0,49.15978,1.77617,2.40642,9.88,0.24,-0.43,4.0
1758088997.6003,1758088995.76651,0.0,0.0,0.0,50.1911,1.20321,1.77617,10.46,0.12,0.36,4.0
1758088997.6264,1758088995.77651,0.0,0.0,0.0,51.6235,0.40107,0.22918,10.46,0.12,0.36,4.0
1758088997.62857,1758088995.78651,0.0,0.0,0.0,54.14451,-3.32316,-3.49504,11.76,-0.1,0.97,4.0
1758088997.63225,1758088995.79651,0.0,0.0,0.0,55.51962,-11.57375,-6.41713,11.62,-0.12,0.78,4.0
1758088997.63362,1758088995.80651,0.0,0.0,0.0,56.78012,-14.03747,-8.42248,11.62,-0.12,0.78,4.0
1758088997.63424,1758088995.81651,0.0,0.0,0.0,58.04062,-15.06879,-9.5684,10.74,0.31,0.16,4.0
1758088997.63777,1758088995.82651,0.0,0.0,0.0,58.15522,-14.9542,-9.11003,10.74,0.31,0.16,4.0
1758088997.65405,1758088995.83651,0.0,0.0,0.0,57.41038,-13.40721,-7.73493,10.41,0.7,0.48,4.0
1758088997.65527,1758088995.84651,0.0,0.0,0.0,56.37905,-6.18794,-4.98473,10.41,0.7,0.48,4.0
1758088997.67209,1758088995.85651,0.0,0.0,0.0,54.60288,6.18794,-1.43239,11.46,1.07,0.98,4.0
1758088997.67308,1758088995.86651,0.0,0.0,0.0,53.45696,2.00535,2.7502,10.23,1.21,1.73,4.0
1758088997.6904,1758088995.87651,0.0,0.0,0.0,52.884,-17.36062,6.53172,10.23,1.21,1.73,4.0
1758088997.70616,1758088995.88651,0.0,0.0,0.0,52.13916,-30.19488,9.33921,8.19,1.12,2.34,4.0
1758088997.70733,1758088995.89651,0.0,0.0,0.0,50.64947,-34.89313,11.80293,8.19,1.12,2.34,4.0
1758088997.72212,1758088995.90651,0.0,0.0,0.0,47.78468,-28.93437,12.43318,10.14,1.05,1.83,4.0
1758088997.72492,1758088995.91651,0.0,0.0,0.0,46.1231,-24.63719,11.57375,10.14,1.05,1.83,4.0
1758088997.74116,1758088995.92651,0.0,0.0,0.0,44.9199,-21.88699,9.96947,9.94,0.89,1.6,4.0
1758088997.75705,1758088995.93651,0.0,0.0,0.0,42.91454,-19.88164,7.62034,9.94,0.89,1.6,4.0
1758088997.75908,1758088995.94651,0.0,0.0,0.0,40.68,-8.02141,5.21392,9.47,0.63,1.09,4.0
1758088997.77415,1758088995.95651,0.0,0.0,0.0,39.82057,-3.66693,4.64096,10.0,0.33,0.74,4.0
1758088997.77542,1758088995.96651,0.0,0.0,0.0,39.70598,-6.58902,4.64096,10.0,0.33,0.74,4.0
1758088997.79052,1758088995.97651,0.0,0.0,0.0,38.1017,-16.38659,2.7502,9.16,0.19,1.17,4.0
1758088997.80624,1758088995.98651,0.0,0.0,0.0,38.73195,-20.05352,3.38045,9.16,0.19,1.17,4.0
1758088997.80749,1758088995.99651,0.0,0.0,0.0,39.01843,-16.10011,3.83882,10.5,0.14,0.65,4.0
1758088997.82222,1758088996.00651,0.0,0.0,0.0,39.4768,-7.04738,5.21392,10.5,0.14,0.65,4.0
1758088997.82415,1758088996.01651,0.0,0.0,0.0,41.08107,3.38045,7.67763,11.5,0.03,0.64,4.0
1758088997.8394,1758088996.02651,0.0,0.0,0.0,42.51347,5.4431,9.33921,10.32,-0.1,0.78,4.0
1758088997.85548,1758088996.03651,0.0,0.0,0.0,43.60209,4.1253,10.71431,10.32,-0.1,0.78,4.0
1758088997.8564,1758088996.04651,0.0,0.0,0.0,44.748,1.03132,11.97482,9.64,-0.28,0.83,4.0
1758088997.89922,1758088996.05651,0.0,0.0,0.0,45.72203,-2.11994,14.03747,9.64,-0.28,0.83,4.0
1758088997.90015,1758088996.06651,0.0,0.0,0.0,46.00851,-3.95341,15.0115,10.04,-0.35,0.67,4.0
1758088997.90074,1758088996.07651,0.0,0.0,0.0,46.35228,-2.97938,15.69904,10.04,-0.35,0.67,4.0
1758088997.90237,1758088996.08651,0.0,0.0,0.0,45.89392,-0.0573,15.46986,10.44,-0.33,0.64,4.0
1758088997.91725,1758088996.09651,0.0,0.0,0.0,44.86259,7.79223,15.35527,10.44,-0.16,0.41,4.0
1758088997.91953,1758088996.10651,0.0,0.0,0.0,43.60209,11.34457,14.72501,10.44,-0.16,0.41,4.0
1758088997.93423,1758088996.11651,0.0,0.0,0.0,41.94051,10.94349,14.09476,9.65,0.07,0.42,4.0
1758088997.9355,1758088996.12651,0.0,0.0,0.0,39.76327,8.30789,13.00614,9.65,0.07,0.42,4.0
1758088997.95025,1758088996.13651,0.0,0.0,0.0,35.75257,4.64096,10.8862,9.32,0.34,0.31,4.0
1758088997.96626,1758088996.14651,0.0,0.0,0.0,32.37212,3.49504,9.22462,9.32,0.34,0.31,4.0
1758088997.96994,1758088996.15651,0.0,0.0,0.0,28.76248,2.00535,7.50575,9.69,0.59,0.04,4.0
1758088997.98527,1758088996.16651,0.0,0.0,0.0,25.15285,-0.17189,5.72958,9.69,0.59,0.04,4.0
1758088997.9888,1758088996.17651,0.0,0.0,0.0,19.82434,-3.32316,3.38045,9.48,0.65,-0.05,4.0
1758088998.00427,1758088996.18651,0.0,0.0,0.0,16.55848,-4.23989,1.94806,9.47,0.55,-0.24,4.0
1758088998.00631,1758088996.19651,0.0,0.0,0.0,13.5218,-2.6929,0.40107,9.47,0.55,-0.24,4.0
1758088998.02229,1758088996.20651,0.0,0.0,0.0,9.74028,0.34377,-1.60428,9.74,0.41,-0.4,4.0
1758088998.0243,1758088996.21651,0.0,0.0,0.0,7.39116,2.06265,-2.92208,9.74,0.41,-0.4,4.0
1758088998.03932,1758088996.22651,0.0,0.0,0.0,5.21392,3.09397,-4.1253,9.61,0.27,-0.57,4.0
1758088998.05532,1758088996.23651,0.0,0.0,0.0,3.66693,3.83882,-5.15662,9.61,0.27,-0.57,4.0
1758088998.05973,1758088996.24651,0.0,0.0,0.0,1.60428,4.23989,-6.47442,9.45,0.13,-0.7,4.0
1758088998.07534,1758088996.25651,0.0,0.0,0.0,0.22918,5.27121,-6.87549,9.56,0.0,-0.68,4.0
1758088998.07739,1758088996.26651,0.0,0.0,0.0,-0.80214,5.32851,-7.50575,9.56,0.0,-0.68,4.0
1758088998.09434,1758088996.27651,0.0,0.0,0.0,-2.06265,5.72958,-8.136,9.61,-0.15,-0.65,4.0
1758088998.09669,1758088996.28651,0.0,0.0,0.0,-4.29718,7.50575,-9.05273,9.61,-0.15,-0.65,4.0
1758088998.1349,1758088996.29651,0.0,0.0,0.0,-5.95876,8.59437,-9.62569,9.75,-0.18,-0.57,4.0
1758088998.13768,1758088996.30651,0.0,0.0,0.0,-7.73493,8.25059,-9.96947,9.75,-0.18,-0.57,4.0
1758088998.1383,1758088996.31651,0.0,0.0,0.0,-9.62569,6.13065,-10.02676,9.55,-0.13,-0.53,4.0
1758088998.1404,1758088996.32651,0.0,0.0,0.0,-12.37589,1.48969,-9.28192,9.37,-0.15,-0.67,4.0
1758088998.15569,1758088996.33651,0.0,0.0,0.0,-14.03747,-0.85944,-8.30789,9.37,-0.15,-0.67,4.0
1758088998.15738,1758088996.34651,0.0,0.0,0.0,-15.46986,-2.86479,-7.21927,9.6,-0.21,-0.63,4.0
1758088998.17467,1758088996.35651,0.0,0.0,0.0,-17.13144,-5.15662,-6.24524,9.6,-0.21,-0.63,4.0
1758088998.17666,1758088996.36651,0.0,0.0,0.0,-19.82434,-8.36518,-4.98473,9.92,-0.19,-0.03,4.0
1758088998.19242,1758088996.37651,0.0,0.0,0.0,-21.25674,-11.74564,-4.0107,9.92,-0.19,-0.03,4.0
1758088998.19363,1758088996.38651,0.0,0.0,0.0,-22.68913,-14.20935,-2.92208,10.82,-0.05,0.95,4.0
1758088998.23228,1758088996.39651,0.0,0.0,0.0,-25.09555,-16.73037,-1.48969,10.82,-0.05,0.95,4.0
1758088998.23348,1758088996.40651,0.0,0.0,0.0,-26.35606,-18.50654,-0.51566,11.49,0.17,0.63,4.0
1758088998.2341,1758088996.41651,0.0,0.0,0.0,-27.1582,-18.9649,0.11459,10.64,0.24,-0.12,4.0
1758088998.23536,1758088996.42651,0.0,0.0,0.0,-27.50197,-17.18874,0.34377,10.64,0.24,-0.12,4.0
1758088998.25046,1758088996.43651,0.0,0.0,0.0,-27.67386,-11.57375,-0.74485,10.04,0.21,-0.47,4.0
1758088998.26648,1758088996.44651,0.0,0.0,0.0,-27.73116,-4.46907,-2.57831,10.04,0.21,-0.47,4.0
1758088998.26847,1758088996.45651,0.0,0.0,0.0,-26.64254,2.6929,-4.52637,11.24,0.21,0.4,4.0
1758088998.2835,1758088996.46651,0.0,0.0,0.0,-26.52795,6.07335,-6.18794,11.24,0.21,0.4,4.0
1758088998.28467,1758088996.47651,0.0,0.0,0.0,-25.55392,-16.04282,-8.88085,11.89,0.21,1.66,4.0
1758088998.29951,1758088996.48651,0.0,0.0,0.0,-25.72581,-26.12688,-8.99544,10.83,0.19,2.42,4.0
1758088998.3171,1758088996.49651,0.0,0.0,0.0,-25.8404,-24.00693,-9.22462,10.83,0.19,2.42,4.0
1758088998.31935,1758088996.50651,0.0,0.0,0.0,-25.72581,-12.60507,-7.84952,12.32,0.21,1.51,4.0
1758088998.33477,1758088996.51651,0.0,0.0,0.0,-25.21014,-3.72423,-5.78687,12.32,0.21,1.51,4.0
1758088998.33596,1758088996.52651,0.0,0.0,0.0,-24.17882,-3.03668,-4.23989,9.63,0.49,1.77,4.0
1758088998.3504,1758088996.53651,0.0,0.0,0.0,-21.88699,-3.03668,-1.71887,9.63,0.49,1.77,4.0
1758088998.36683,1758088996.54651,0.0,0.0,0.0,-18.27736,-0.74485,1.43239,7.88,0.45,1.75,4.0
1758088998.36774,1758088996.55651,0.0,0.0,0.0,-11.34457,10.19865,6.35983,8.62,0.28,1.34,4.0
1758088998.38256,1758088996.56651,0.0,0.0,0.0,-6.35983,23.49127,8.42248,8.62,0.28,1.34,4.0
1758088998.38374,1758088996.57651,0.0,0.0,0.0,-1.83346,36.32552,9.62569,9.71,0.52,1.23,4.0
1758088998.39961,1758088996.58651,0.0,0.0,0.0,2.7502,43.37291,10.02676,9.71,0.52,1.23,4.0
1758088998.41593,1758088996.59651,0.0,0.0,0.0,10.25595,40.85189,8.65166,8.94,0.57,1.43,4.0
1758088998.41762,1758088996.60651,0.0,0.0,0.0,15.0115,33.86181,6.47442,8.94,0.57,1.43,4.0
1758088998.4326,1758088996.61651,0.0,0.0,0.0,19.25138,27.96034,3.66693,9.21,0.52,1.35,4.0
1758088998.43382,1758088996.62651,0.0,0.0,0.0,25.26744,17.01685,-0.17189,9.21,0.52,1.35,4.0
1758088998.44966,1758088996.63651,0.0,0.0,0.0,29.27814,10.08406,-2.63561,10.09,0.24,1.29,4.0
1758088998.46644,1758088996.64651,0.0,0.0,0.0,32.14294,5.78687,-5.09932,10.07,0.05,1.17,4.0
1758088998.4692,1758088996.65651,0.0,0.0,0.0,34.72124,4.64096,-6.99009,10.07,0.05,1.17,4.0
1758088998.48477,1758088996.66651,0.0,0.0,0.0,37.92981,7.50575,-8.93814,10.0,0.19,1.24,4.0
1758088998.48583,1758088996.67651,0.0,0.0,0.0,40.45082,13.34992,-8.70896,10.0,0.19,1.24,4.0
1758088998.50081,1758088996.68651,0.0,0.0,0.0,42.62806,17.36062,-8.02141,9.77,0.41,1.03,4.0
1758088998.51671,1758088996.69651,0.0,0.0,0.0,44.9199,17.58981,-6.87549,9.77,0.41,1.03,4.0
1758088998.5194,1758088996.70651,0.0,0.0,0.0,47.67009,13.40721,-4.81285,8.93,0.47,1.13,4.0
1758088998.53463,1758088996.71651,0.0,0.0,0.0,49.27437,10.8289,-3.60963,8.96,0.49,1.02,4.0
1758088998.53584,1758088996.72651,0.0,0.0,0.0,50.47758,9.74028,-2.46372,8.96,0.49,1.02,4.0
1758088998.55099,1758088996.73651,0.0,0.0,0.0,51.27972,9.85487,-1.48969,9.69,0.54,0.82,4.0
1758088998.57878,1758088996.74651,0.0,0.0,0.0,51.6235,9.5684,-0.22918,9.69,0.54,0.82,4.0
1758088998.58018,1758088996.75651,0.0,0.0,0.0,51.50891,8.99544,0.40107,9.62,0.61,0.7,4.0
1758088998.58106,1758088996.76651,0.0,0.0,0.0,50.93595,8.36518,0.80214,9.62,0.61,0.7,4.0
1758088998.59698,1758088996.77651,0.0,0.0,0.0,49.96192,8.36518,1.20321,9.21,0.66,0.6,4.0
1758088998.59956,1758088996.78651,0.0,0.0,0.0,47.78468,8.42248,1.43239,8.93,0.77,0.53,4.0
1758088998.61474,1758088996.79651,0.0,0.0,0.0,46.2377,8.25059,1.77617,8.93,0.77,0.53,4.0
1758088998.61675,1758088996.80651,0.0,0.0,0.0,44.11775,8.25059,2.06265,8.69,0.92,0.48,4.0
1758088998.63167,1758088996.81651,0.0,0.0,0.0,40.50812,7.04738,2.63561,8.69,0.92,0.48,4.0
1758088998.64781,1758088996.82651,0.0,0.0,0.0,37.87251,4.69825,3.03668,8.59,1.07,0.37,4.0
1758088998.64895,1758088996.83651,0.0,0.0,0.0,35.3515,3.55234,3.72423,8.59,1.07,0.37,4.0
1758088998.66409,1758088996.84651,0.0,0.0,0.0,32.48671,2.40642,4.81285,8.87,1.2,0.18,4.0
1758088998.66498,1758088996.85651,0.0,0.0,0.0,28.30412,0.51566,6.70361,8.87,1.2,0.18,4.0
1758088998.68001,1758088996.86651,0.0,0.0,0.0,25.38203,-1.14592,8.136,9.18,1.22,0.16,4.0
1758088998.69604,1758088996.87651,0.0,0.0,0.0,22.63183,-2.46372,9.68299,9.34,1.12,0.33,4.0
1758088998.69701,1758088996.88651,0.0,0.0,0.0,19.76705,-4.1253,10.8862,9.34,1.12,0.33,4.0
1758088998.71209,1758088996.89651,0.0,0.0,0.0,15.75634,-7.04738,11.86023,9.19,0.98,0.42,4.0
1758088998.72889,1758088996.90651,0.0,0.0,0.0,13.17803,-9.11003,12.14671,9.19,0.98,0.42,4.0
1758088998.72979,1758088996.91651,0.0,0.0,0.0,10.65701,-11.45916,11.80293,8.89,0.88,0.5,4.0
1758088998.74476,1758088996.92651,0.0,0.0,0.0,8.36518,-13.40721,11.11538,8.89,0.88,0.5,4.0
1758088998.74599,1758088996.93651,0.0,0.0,0.0,5.21392,-15.98552,9.68299,8.68,0.84,0.53,4.0
1758088998.76105,1758088996.94651,0.0,0.0,0.0,3.26586,-16.95955,8.65166,8.81,0.87,0.48,4.0
1758088998.77711,1758088996.95651,0.0,0.0,0.0,1.60428,-17.13144,7.50575,8.81,0.87,0.48,4.0
1758088998.77805,1758088996.96651,0.0,0.0,0.0,0.34377,-16.61578,6.41713,9.23,0.93,0.33,4.0
1758088998.79314,1758088996.97651,0.0,0.0,0.0,-1.71887,-14.61043,4.92744,9.23,0.93,0.33,4.0
1758088998.79407,1758088996.98651,0.0,0.0,0.0,-2.6929,-12.83425,4.46907,9.71,0.93,0.12,4.0
1758088998.80987,1758088996.99651,0.0,0.0,0.0,-3.66693,-11.51645,4.1253,9.71,0.93,0.12,4.0
1758088998.82589,1758088997.00651,0.0,0.0,0.0,-4.64096,-10.71431,4.52637,10.02,0.88,0.07,4.0
1758088998.82756,1758088997.01651,0.0,0.0,0.0,-5.72958,-11.17268,5.15662,10.02,0.75,0.16,4.0
1758088998.84186,1758088997.02651,0.0,0.0,0.0,-6.13065,-11.45916,5.95876,10.02,0.75,0.16,4.0
1758088998.84496,1758088997.03651,0.0,0.0,0.0,-6.24524,-12.204,6.99009,9.9,0.59,0.27,4.0
1758088998.86481,1758088997.04651,0.0,0.0,0.0,-5.72958,-13.75099,8.136,9.9,0.59,0.27,4.0
1758088998.87001,1758088997.05651,0.0,0.0,0.0,-4.98473,-15.0115,8.76626,9.58,0.47,0.17,4.0
1758088998.88585,1758088997.06651,0.0,0.0,0.0,-4.23989,-16.50119,9.05273,9.58,0.47,0.17,4.0
1758088998.88768,1758088997.07651,0.0,0.0,0.0,-2.97938,-17.30333,9.05273,9.39,0.44,0.11,4.0
1758088998.90517,1758088997.08651,0.0,0.0,0.0,-1.03132,-17.76169,8.76626,9.39,0.44,0.13,4.0
1758088998.90717,1758088997.09651,0.0,0.0,0.0,0.57296,-17.24603,8.47978,9.46,0.47,0.13,4.0
1758088998.92196,1758088997.10651,0.0,0.0,0.0,2.11994,-15.98552,8.0787,9.7,0.56,0.08,4.0
1758088998.93798,1758088997.11651,0.0,0.0,0.0,3.60963,-14.20935,7.62034,9.7,0.56,0.08,4.0
1758088998.93977,1758088997.12651,0.0,0.0,0.0,5.84417,-11.97482,7.16197,9.9,0.62,-0.04,4.0
1758088998.95427,1758088997.13651,0.0,0.0,0.0,7.04738,-10.71431,6.87549,9.9,0.62,-0.04,4.0
1758088998.95516,1758088997.14651,0.0,0.0,0.0,7.96411,-9.85487,6.58902,9.88,0.66,-0.17,4.0
1758088998.96995,1758088997.15651,0.0,0.0,0.0,8.70896,-9.5684,6.47442,9.88,0.66,-0.17,4.0
1758088998.98587,1758088997.16651,0.0,0.0,0.0,9.22462,-9.39651,6.53172,9.66,0.71,-0.33,4.0
1758088998.98709,1758088997.17651,0.0,0.0,0.0,9.39651,-9.96947,6.70361,9.37,0.8,-0.6,4.0
1758088999.00198,1758088997.18651,0.0,0.0,0.0,9.5684,-10.08406,6.70361,9.37,0.8,-0.6,4.0
1758088999.01927,1758088997.19651,0.0,0.0,0.0,9.28192,-10.02676,6.58902,9.17,0.92,-0.83,4.0
1758088999.02038,1758088997.20651,0.0,0.0,0.0,9.11003,-9.68299,6.70361,9.17,0.92,-0.83,4.0
1758088999.03498,1758088997.21651,0.0,0.0,0.0,8.88085,-8.36518,7.16197,9.14,1.03,-1.01,4.0
1758088999.03619,1758088997.22651,0.0,0.0,0.0,8.36518,-5.78687,6.87549,9.14,1.03,-1.01,4.0
1758088999.0513,1758088997.23651,0.0,0.0,0.0,7.84952,-4.69825,6.87549,9.2,1.14,-1.04,4.0
1758088999.06729,1758088997.24651,0.0,0.0,0.0,7.73493,-5.95876,6.58902,8.56,1.14,-0.71,4.0
1758088999.0685,1758088997.25651,0.0,0.0,0.0,7.67763,-8.36518,6.41713,8.56,1.14,-0.71,4.0
1758088999.08303,1758088997.26651,0.0,0.0,0.0,7.39116,-11.91752,6.07335,8.08,1.01,-0.04,4.0
1758088999.08583,1758088997.27651,0.0,0.0,0.0,7.21927,-18.79302,5.09932,8.08,1.01,-0.04,4.0
1758088999.10093,1758088997.28651,0.0,0.0,0.0,7.33386,-22.34536,4.35448,8.44,0.71,0.63,4.0
1758088999.11754,1758088997.29651,0.0,0.0,0.0,7.67763,-23.37668,3.66693,8.44,0.71,0.63,4.0
1758088999.11985,1758088997.30651,0.0,0.0,0.0,8.136,-21.7724,3.20856,9.68,0.34,0.62,4.0
1758088999.1351,1758088997.31651,0.0,0.0,0.0,8.70896,-17.53251,2.6929,10.2,0.16,1.21,4.0
1758088999.13639,1758088997.32651,0.0,0.0,0.0,9.96947,-16.73037,2.11994,10.2,0.16,1.21,4.0
1758088999.15128,1758088997.33651,0.0,0.0,0.0,12.37589,-18.10547,-1.43239,11.79,-0.03,4.59,4.0
1758088999.1671,1758088997.34651,0.0,0.0,0.0,16.95955,-16.84496,-5.61499,11.79,-0.03,4.59,4.0
1758088999.16829,1758088997.35651,0.0,0.0,0.0,22.97561,-71.50513,-11.51645,17.06,-1.75,2.86,4.0
1758088999.1831,1758088997.36651,0.0,0.0,0.0,26.69983,-106.16908,-12.204,17.06,-1.75,2.86,4.0
1758088999.18472,1758088997.37651,0.0,0.0,0.0,27.67386,-101.81461,-12.89155,16.22,-2.85,-1.45,4.0
1758088999.20015,1758088997.38651,0.0,0.0,0.0,26.81443,-73.96885,-12.60507,16.22,-2.85,-1.45,4.0
1758088999.25848,1758088997.39651,0.0,0.0,0.0,24.92367,-22.86102,-10.94349,16.17,-0.84,-2.58,4.0
1758088999.26206,1758088997.40651,0.0,0.0,0.0,25.8404,-6.7609,-5.72958,10.86,0.06,0.02,4.0
1758088999.26262,1758088997.41651,0.0,0.0,0.0,27.33009,-1.77617,1.14592,10.86,0.06,0.02,4.0
1758088999.26392,1758088997.42651,0.0,0.0,0.0,28.07493,-0.85944,12.77696,8.89,-0.62,1.09,4.0
1758088999.26454,1758088997.43651,0.0,0.0,0.0,25.89769,4.46907,19.59516,8.89,-0.62,1.09,4.0
1758088999.26576,1758088997.44651,0.0,0.0,0.0,22.51724,9.91217,24.86637,12.79,-0.61,0.04,4.0
1758088999.26639,1758088997.45651,0.0,0.0,0.0,17.47521,13.69369,26.75713,12.79,-0.61,0.04,4.0
1758088999.28442,1758088997.46651,0.0,0.0,0.0,9.5684,20.97026,24.00693,14.58,-0.11,-1.16,4.0
1758088999.28539,1758088997.47651,0.0,0.0,0.0,4.52637,23.37668,20.62648,11.85,0.06,-0.73,4.0
1758088999.30019,1758088997.48651,0.0,0.0,0.0,-0.40107,22.86102,16.61578,11.85,0.06,-0.73,4.0
1758088999.31646,1758088997.49651,0.0,0.0,0.0,-4.87014,20.05352,12.204,8.97,0.03,0.11,4.0
1758088999.31824,1758088997.50651,0.0,0.0,0.0,-9.5684,14.15206,5.78687,8.97,0.03,0.11,4.0
1758088999.33331,1758088997.51651,0.0,0.0,0.0,-10.71431,10.71431,2.11994,8.58,-0.21,-0.13,4.0
1758088999.33434,1758088997.52651,0.0,0.0,0.0,-12.08941,9.91217,-1.43239,8.58,-0.21,-0.13,4.0
1758088999.35024,1758088997.53651,0.0,0.0,0.0,-12.49048,9.4538,-4.46907,9.58,-0.46,-0.44,4.0
1758088999.36625,1758088997.54651,0.0,0.0,0.0,-12.43318,10.71431,-8.25059,9.87,-0.65,-0.41,4.0
1758088999.36748,1758088997.55651,0.0,0.0,0.0,-11.57375,11.86023,-8.93814,9.87,-0.65,-0.41,4.0
1758088999.38325,1758088997.56651,0.0,0.0,0.0,-11.11538,12.14671,-9.22462,9.28,-0.52,-0.5,4.0
1758088999.38445,1758088997.57651,0.0,0.0,0.0,-9.68299,19.76705,-9.05273,9.28,-0.52,-0.5,4.0
1758088999.40024,1758088997.58651,0.0,0.0,0.0,-9.22462,37.18496,-8.76626,9.6,-0.43,-0.85,4.0
1758088999.41626,1758088997.59651,0.0,0.0,0.0,-9.11003,37.12767,-9.5684,9.6,-0.43,-0.85,4.0
1758088999.41744,1758088997.60651,0.0,0.0,0.0,-8.88085,26.87172,-10.19865,8.04,-0.4,-0.23,4.0
1758088999.43255,1758088997.61651,0.0,0.0,0.0,-8.0787,17.36062,-11.11538,8.04,-0.4,-0.23,4.0
1758088999.44985,1758088997.62651,0.0,0.0,0.0,-6.35983,15.69904,-12.71966,7.68,-0.7,-0.53,4.0
1758088999.45382,1758088997.63651,0.0,0.0,0.0,-4.46907,15.12609,-13.06344,9.3,-1.04,-0.62,4.0
1758088999.46829,1758088997.64651,0.0,0.0,0.0,-1.94806,11.57375,-12.77696,9.3,-1.04,-0.62,4.0
1758088999.46952,1758088997.65651,0.0,0.0,0.0,2.46372,3.32316,-11.63104,9.05,-1.25,-0.3,4.0
1758088999.48433,1758088997.66651,0.0,0.0,0.0,5.50039,-2.97938,-10.37054,9.05,-1.25,-0.3,4.0
1758088999.48632,1758088997.67651,0.0,0.0,0.0,8.02141,-8.42248,-9.33921,8.71,-1.11,-0.63,4.0
1758088999.50135,1758088997.68651,0.0,0.0,0.0,10.31324,-12.37589,-7.79223,8.71,-1.11,-0.63,4.0
1758088999.51744,1758088997.69651,0.0,0.0,0.0,13.46451,-15.69904,-5.72958,8.63,-0.84,-0.45,4.0
1758088999.5193,1758088997.70651,0.0,0.0,0.0,14.66772,-16.73037,-4.29718,8.81,-0.69,-0.17,4.0
1758088999.53438,1758088997.71651,0.0,0.0,0.0,15.98552,-17.76169,-2.86479,8.81,-0.69,-0.17,4.0
1758088999.53644,1758088997.72651,0.0,0.0,0.0,16.21471,-16.67307,-2.34913,9.15,-0.59,-0.24,4.0
1758088999.5523,1758088997.73651,0.0,0.0,0.0,15.29797,-16.38659,-1.77617,9.15,-0.59,-0.24,4.0
1758088999.56838,1758088997.74651,0.0,0.0,0.0,14.09476,-14.43854,-1.83346,9.65,-0.38,-0.46,4.0
1758088999.56953,1758088997.75651,0.0,0.0,0.0,12.49048,-12.43318,-2.11994,9.65,-0.38,-0.46,4.0
1758088999.58446,1758088997.76651,0.0,0.0,0.0,10.54242,-10.8862,-2.46372,10.17,-0.08,-0.64,4.0
1758088999.58639,1758088997.77651,0.0,0.0,0.0,7.04738,-9.5684,-3.72423,10.1,0.26,-0.66,4.0
1758088999.6021,1758088997.78651,0.0,0.0,0.0,4.87014,-9.22462,-4.81285,10.1,0.26,-0.66,4.0
1758088999.61835,1758088997.79651,0.0,0.0,0.0,2.40642,-8.59437,-6.07335,10.05,0.47,-0.74,4.0
1758088999.61953,1758088997.80651,0.0,0.0,0.0,0.11459,-7.16197,-7.39116,10.05,0.47,-0.74,4.0
1758088999.63444,1758088997.81651,0.0,0.0,0.0,-3.03668,-4.1253,-9.11003,10.22,0.49,-0.91,4.0
1758088999.63639,1758088997.82651,0.0,0.0,0.0,-4.69825,-1.83346,-10.02676,10.22,0.49,-0.91,4.0
1758088999.65243,1758088997.83651,0.0,0.0,0.0,-6.18794,0.0573,-10.59972,10.2,0.31,-0.95,4.0
1758088999.70914,1758088997.84651,0.0,0.0,0.0,-8.36518,1.77617,-10.8862,10.2,0.31,-0.95,4.0
1758088999.71832,1758088997.85651,0.0,0.0,0.0,-9.5684,3.95341,-10.94349,10.11,0.01,-1.0,4.0
1758088999.71886,1758088997.86651,0.0,0.0,0.0,-10.37054,4.69825,-10.8289,10.05,-0.25,-0.93,4.0
1758088999.72258,1758088997.87651,0.0,0.0,0.0,-11.17268,4.98473,-10.54242,10.05,-0.25,-0.93,4.0
1758088999.72479,1758088997.88651,0.0,0.0,0.0,-11.74564,5.50039,-10.02676,10.0,-0.38,-0.9,4.0
1758088999.72603,1758088997.89651,0.0,0.0,0.0,-11.86023,5.50039,-9.62569,10.0,-0.38,-0.9,4.0
1758088999.72748,1758088997.90651,0.0,0.0,0.0,-11.86023,5.27121,-9.11003,9.86,-0.35,-0.82,4.0
1758088999.72944,1758088997.91651,0.0,0.0,0.0,-11.74564,5.09932,-8.59437,9.86,-0.35,-0.82,4.0
1758088999.74451,1758088997.92651,0.0,0.0,0.0,-11.45916,5.55769,-7.79223,9.74,-0.26,-0.81,4.0
1758088999.74568,1758088997.93651,0.0,0.0,0.0,-11.22997,6.41713,-7.21927,9.83,-0.17,-0.8,4.0
1758088999.76077,1758088997.94651,0.0,0.0,0.0,-11.17268,7.21927,-7.04738,9.83,-0.17,-0.8,4.0
1758088999.77759,1758088997.95651,0.0,0.0,0.0,-11.17268,7.84952,-6.70361,9.69,-0.18,-0.7,4.0
1758088999.77849,1758088997.96651,0.0,0.0,0.0,-11.34457,8.136,-6.53172,9.69,-0.18,-0.7,4.0
1758088999.79353,1758088997.97651,0.0,0.0,0.0,-11.74564,8.0787,-6.47442,9.48,-0.22,-0.61,4.0
1758088999.79471,1758088997.98651,0.0,0.0,0.0,-12.2613,8.99544,-6.8182,9.48,-0.22,-0.61,4.0
1758088999.81237,1758088997.99651,0.0,0.0,0.0,-12.60507,10.02676,-6.99009,9.51,-0.2,-0.67,4.0
1758088999.85247,1758088998.00651,0.0,0.0,0.0,-13.46451,13.06344,-7.79223,9.65,-0.19,-0.75,4.0
1758088999.85347,1758088998.01651,0.0,0.0,0.0,-14.20935,14.61043,-8.30789,9.65,-0.19,-0.75,4.0
1758088999.85409,1758088998.0265,0.0,0.0,0.0,-14.61043,15.58445,-8.99544,9.7,-0.15,-0.84,4.0
1758088999.8553,1758088998.0365,0.0,0.0,0.0,-14.66772,15.29797,-9.74028,9.7,-0.15,-0.84,4.0
1758088999.85596,1758088998.0465,0.0,0.0,0.0,-14.66772,14.72501,-10.71431,9.7,-0.09,-0.91,4.0
1758088999.87284,1758088998.0565,0.0,0.0,0.0,-14.72501,13.69369,-10.94349,9.7,-0.09,-0.91,4.0
1758088999.88881,1758088998.0665,0.0,0.0,0.0,-14.32395,12.204,-11.00079,9.83,-0.13,-1.0,4.0
1758088999.88978,1758088998.0765,0.0,0.0,0.0,-13.46451,10.94349,-10.65701,9.83,-0.13,-1.0,4.0
1758088999.90964,1758088998.0865,0.0,0.0,0.0,-12.71966,11.17268,-10.19865,9.88,-0.22,-0.97,4.0
1758088999.91259,1758088998.0965,0.0,0.0,0.0,-12.08941,11.34457,-9.4538,9.81,-0.33,-1.12,4.0
1758088999.92859,1758088998.1065,0.0,0.0,0.0,-11.45916,11.86023,-8.65166,9.81,-0.33,-1.12,4.0
1758088999.92981,1758088998.1165,0.0,0.0,0.0,-10.65701,11.63104,-7.16197,9.61,-0.39,-1.16,4.0
1758088999.9446,1758088998.1265,0.0,0.0,0.0,-10.54242,11.11538,-6.41713,9.61,-0.39,-1.16,4.0
1758088999.9458,1758088998.1365,0.0,0.0,0.0,-10.37054,10.19865,-5.78687,9.51,-0.41,-1.25,4.0
1758088999.9609,1758088998.1465,0.0,0.0,0.0,-10.59972,8.88085,-5.21392,9.51,-0.41,-1.25,4.0
1758088999.97894,1758088998.1565,0.0,0.0,0.0,-10.94349,7.16197,-4.81285,9.47,-0.37,-1.36,4.0
1758088999.97937,1758088998.1665,0.0,0.0,0.0,-11.57375,5.90147,-4.81285,9.44,-0.27,-1.36,4.0
1758088999.99461,1758088998.1765,0.0,0.0,0.0,-11.97482,4.92744,-4.58366,9.44,-0.27,-1.36,4.0
1758088999.99584,1758088998.1865,0.0,0.0,0.0,-12.54778,3.89611,-4.58366,9.18,-0.23,-1.29,4.0
1758089000.01067,1758088998.1965,0.0,0.0,0.0,-13.00614,2.00535,-4.23989,9.18,-0.23,-1.29,4.0
1758089000.02771,1758088998.2065,0.0,0.0,0.0,-13.06344,0.17189,-3.95341,8.63,-0.21,-1.15,4.0
1758089000.03026,1758088998.2165,0.0,0.0,0.0,-12.60507,-1.71887,-4.23989,8.63,-0.21,-1.15,4.0
1758089000.04601,1758088998.2265,0.0,0.0,0.0,-11.97482,-3.95341,-4.87014,8.11,-0.11,-0.35,4.0
1758089000.04845,1758088998.2365,0.0,0.0,0.0,-11.22997,-13.00614,-4.18259,8.1,-0.19,0.94,4.0
1758089000.06455,1758088998.2465,0.0,0.0,0.0,-9.91217,-20.97026,-2.7502,8.1,-0.19,0.94,4.0
1758089000.08702,1758088998.2565,0.0,0.0,0.0,-8.0787,-29.39274,-2.11994,8.97,-0.35,1.98,4.0
1758089000.08924,1758088998.2665,0.0,0.0,0.0,-7.39116,-41.25296,0.68755,8.97,-0.35,1.98,4.0
1758089000.09127,1758088998.2765,0.0,0.0,0.0,-7.16197,-51.90998,1.43239,10.41,-0.61,2.35,4.0
1758089000.10836,1758088998.2865,0.0,0.0,0.0,-6.53172,-55.92068,1.43239,10.41,-0.61,2.35,4.0
1758089000.10958,1758088998.2965,0.0,0.0,0.0,-6.99009,-55.51962,0.57296,11.57,0.08,1.85,4.0
1758089000.12477,1758088998.3065,0.0,0.0,0.0,-8.25059,-46.63877,-0.51566,11.57,0.08,1.85,4.0
1758089000.126,1758088998.3165,0.0,0.0,0.0,-9.39651,-30.99702,-1.94806,11.94,1.09,1.12,4.0
1758089000.14107,1758088998.3265,0.0,0.0,0.0,-11.63104,-7.50575,-3.32316,14.51,2.49,1.38,4.0
1758089000.15705,1758088998.3365,0.0,0.0,0.0,-14.83961,13.5791,-4.18259,14.51,2.49,1.38,4.0
1758089000.15911,1758088998.3465,0.0,0.0,0.0,-17.87628,18.33465,-4.69825,15.35,3.88,-0.41,4.0
1758089000.17373,1758088998.3565,0.0,0.0,0.0,-19.59516,-1.71887,-2.92208,15.35,3.88,-0.41,4.0
1758089000.1758,1758088998.3665,0.0,0.0,0.0,-15.41257,-13.5791,-0.17189,11.28,3.21,-0.05,4.0
1758089000.19078,1758088998.3765,0.0,0.0,0.0,-12.71966,-15.41257,1.60428,11.28,3.21,-0.05,4.0
1758089000.20844,1758088998.3865,0.0,0.0,0.0,-9.28192,0.68755,0.85944,12.5,1.32,0.53,4.0
1758089000.20954,1758088998.3965,0.0,0.0,0.0,-6.70361,14.49583,-1.08862,13.0,0.28,0.17,4.0
1758089000.22498,1758088998.4065,0.0,0.0,0.0,-4.23989,24.4653,-2.92208,13.0,0.28,0.17,4.0
1758089000.2293,1758088998.4165,0.0,0.0,0.0,-1.08862,27.78845,-4.0107,10.78,-0.04,0.09,4.0
1758089000.24516,1758088998.4265,0.0,0.0,0.0,3.38045,27.33009,-5.09932,10.78,-0.04,0.09,4.0
1758089000.24607,1758088998.4365,0.0,0.0,0.0,5.72958,26.24147,-5.09932,10.34,0.03,0.26,4.0
1758089000.26166,1758088998.4465,0.0,0.0,0.0,7.33386,25.26744,-4.69825,10.34,0.03,0.26,4.0
1758089000.26396,1758088998.4565,0.0,0.0,0.0,8.25059,23.31938,-3.49504,10.48,0.39,0.14,4.0
1758089000.27947,1758088998.4665,0.0,0.0,0.0,9.33921,21.08485,-2.34913,9.87,0.79,-0.07,4.0
1758089000.29485,1758088998.4765,0.0,0.0,0.0,9.62569,21.08485,-1.08862,9.87,0.79,-0.07,4.0
1758089000.29691,1758088998.4865,0.0,0.0,0.0,9.68299,21.37133,0.22918,9.64,0.99,-0.01,4.0
1758089000.31188,1758088998.4965,0.0,0.0,0.0,9.22462,20.68378,1.66158,9.64,0.99,-0.01,4.0
1758089000.31314,1758088998.5065,0.0,0.0,0.0,9.11003,20.34,2.06265,9.53,1.01,0.05,4.0
1758089000.32842,1758088998.5165,0.0,0.0,0.0,9.62569,18.85031,2.46372,9.53,1.01,0.05,4.0
1758089000.3442,1758088998.5265,0.0,0.0,0.0,9.68299,19.07949,1.83346,9.52,0.88,-0.17,4.0
1758089000.34515,1758088998.5365,0.0,0.0,0.0,10.8289,32.08564,2.57831,9.52,0.88,-0.55,4.0
1758089000.36018,1758088998.5465,0.0,0.0,0.0,11.74564,37.64333,3.03668,10.17,0.72,-0.55,4.0
1758089000.37671,1758088998.5565,0.0,0.0,0.0,12.77696,33.63263,4.18259,8.98,0.48,-0.11,4.0
1758089000.37849,1758088998.5665,0.0,0.0,0.0,14.03747,24.75178,5.15662,8.98,0.48,-0.11,4.0
1758089000.39319,1758088998.5765,0.0,0.0,0.0,14.78231,17.93358,6.53172,8.18,0.39,-0.05,4.0
1758089000.39441,1758088998.5865,0.0,0.0,0.0,14.9542,17.76169,7.21927,8.18,0.39,-0.05,4.0
1758089000.40949,1758088998.5965,0.0,0.0,0.0,14.78231,15.64175,7.84952,8.8,0.48,-0.23,4.0
1758089000.42523,1758088998.6065,0.0,0.0,0.0,14.61043,10.94349,8.65166,8.8,0.48,-0.23,4.0
1758089000.42692,1758088998.6165,0.0,0.0,0.0,13.5791,1.03132,8.99544,8.09,0.62,0.0,4.0
1758089000.46588,1758088998.6265,0.0,0.0,0.0,12.54778,-6.41713,8.76626,7.59,0.77,-0.22,4.0
1758089000.46689,1758088998.6365,0.0,0.0,0.0,11.80293,-13.12073,8.136,7.59,0.77,-0.22,4.0
1758089000.46753,1758088998.6465,0.0,0.0,0.0,10.71431,-17.53251,7.21927,7.76,0.88,-0.39,4.0
1758089000.46879,1758088998.6565,0.0,0.0,0.0,9.33921,-22.28806,5.21392,7.76,0.88,-0.39,4.0
1758089000.484,1758088998.6665,0.0,0.0,0.0,8.42248,-23.54857,3.72423,8.28,0.91,-0.17,4.0
1758089000.48601,1758088998.6765,0.0,0.0,0.0,7.33386,-23.31938,2.11994,8.28,0.91,-0.17,4.0
1758089000.5041,1758088998.6865,0.0,0.0,0.0,6.07335,-22.57454,0.17189,8.89,0.88,0.04,4.0
1758089000.50515,1758088998.6965,0.0,0.0,0.0,5.15662,-20.11082,-0.51566,9.22,0.88,-0.24,4.0
1758089000.52029,1758088998.7065,0.0,0.0,0.0,4.23989,-16.50119,-0.85944,9.22,0.88,-0.24,4.0
1758089000.5363,1758088998.7165,0.0,0.0,0.0,3.38045,-11.86023,-0.74485,9.83,0.91,-0.57,4.0
1758089000.53724,1758088998.7265,0.0,0.0,0.0,2.40642,-7.21927,0.17189,9.83,0.91,-0.57,4.0
1758089000.55205,1758088998.7365,0.0,0.0,0.0,2.06265,-6.35983,1.60428,10.05,0.92,-0.6,4.0
1758089000.55327,1758088998.7465,0.0,0.0,0.0,2.00535,-6.18794,2.86479,10.05,0.92,-0.6,4.0
1758089000.56922,1758088998.7565,0.0,0.0,0.0,1.83346,-8.02141,4.1253,9.97,0.79,-0.5,4.0
1758089000.58527,1758088998.7665,0.0,0.0,0.0,1.94806,-13.5791,5.78687,9.45,0.63,-0.38,4.0
1758089000.58624,1758088998.7765,0.0,0.0,0.0,1.94806,-16.38659,6.18794,9.45,0.63,-0.38,4.0
1758089000.60186,1758088998.7865,0.0,0.0,0.0,2.29183,-16.95955,6.47442,9.41,0.53,-0.33,4.0
1758089000.63194,1758088998.7965,0.0,0.0,0.0,2.40642,-14.43854,6.24524,9.41,0.53,-0.33,4.0
1758089000.63297,1758088998.8065,0.0,0.0,0.0,2.86479,-8.02141,6.35983,9.79,0.61,-0.45,4.0
1758089000.63363,1758088998.8165,0.0,0.0,0.0,3.20856,-4.1253,6.13065,9.79,0.61,-0.45,4.0
1758089000.6353,1758088998.8265,0.0,0.0,0.0,3.49504,-0.85944,6.07335,9.85,0.74,-0.45,4.0
1758089000.65012,1758088998.8365,0.0,0.0,0.0,4.0107,1.3751,6.41713,9.85,0.74,-0.45,4.0
1758089000.66795,1758088998.8465,0.0,0.0,0.0,5.15662,3.32316,7.16197,9.79,0.81,-0.66,4.0
1758089000.66913,1758088998.8565,0.0,0.0,0.0,6.18794,3.72423,7.96411,9.8,0.83,-0.84,4.0
1758089000.68441,1758088998.8665,0.0,0.0,0.0,7.33386,3.32316,8.30789,9.8,0.83,-0.84,4.0
1758089000.69009,1758088998.8765,0.0,0.0,0.0,8.76626,1.83346,8.93814,9.64,0.85,-0.95,4.0
1758089000.73216,1758088998.8865,0.0,0.0,0.0,10.65701,-1.71887,8.76626,9.64,0.85,-0.95,4.0
1758089000.73387,1758088998.8965,0.0,0.0,0.0,12.14671,-3.32316,8.70896,9.46,0.89,-1.01,4.0
1758089000.73447,1758088998.9065,0.0,0.0,0.0,13.5791,-3.72423,8.42248,9.46,0.89,-1.01,4.0
1758089000.73577,1758088998.9165,0.0,0.0,0.0,15.92823,-0.51566,8.93814,9.48,0.87,-1.07,4.0
1758089000.73687,1758088998.9265,0.0,0.0,0.0,17.53251,4.0107,9.39651,9.62,0.83,-1.11,4.0
1758089000.75316,1758088998.9365,0.0,0.0,0.0,18.79302,9.05273,9.91217,9.62,0.83,-1.11,4.0
1758089000.75478,1758088998.9465,0.0,0.0,0.0,20.05352,10.54242,10.71431,9.13,0.8,-1.01,4.0
1758089000.7695,1758088998.9565,0.0,0.0,0.0,21.7151,7.79223,11.28727,9.13,0.8,-1.01,4.0
1758089000.78547,1758088998.9665,0.0,0.0,0.0,22.34536,2.63561,11.51645,8.18,0.8,-0.45,4.0
1758089000.78644,1758088998.9765,0.0,0.0,0.0,22.63183,-4.23989,11.57375,8.18,0.8,-0.45,4.0
1758089000.80134,1758088998.9865,0.0,0.0,0.0,22.63183,-12.37589,11.17268,7.59,0.76,0.48,4.0
1758089000.81709,1758088998.9965,0.0,0.0,0.0,21.7151,-25.15285,9.62569,8.08,0.56,1.52,4.0
1758089000.81845,1758088999.0065,0.0,0.0,0.0,20.74107,-31.2262,8.47978,8.08,0.56,1.52,4.0
1758089000.83329,1758088999.0165,0.0,0.0,0.0,19.59516,-33.63263,7.10468,9.86,0.2,1.72,4.0
1758089000.83441,1758088999.0265,0.0,0.0,0.0,19.88164,-37.47144,6.24524,9.86,0.2,1.72,4.0
1758089000.84951,1758088999.0365,0.0,0.0,0.0,19.53786,-50.76406,5.84417,10.58,0.0,1.42,4.0
1758089000.86528,1758088999.0465,0.0,0.0,0.0,20.85567,-57.58226,7.10468,10.58,0.0,1.42,4.0
1758089000.88022,1758088999.0565,0.0,0.0,0.0,23.0902,-58.15522,9.05273,11.45,-0.24,1.95,4.0
1758089000.88205,1758088999.0665,0.0,0.0,0.0,25.8404,-53.34238,9.4538,11.45,-0.24,1.95,4.0
1758089000.88329,1758088999.0765,0.0,0.0,0.0,29.27814,-31.11161,8.70896,17.04,-1.01,2.76,4.0
1758089000.89958,1758088999.0865,0.0,0.0,0.0,29.10626,-41.48215,4.1253,16.91,-1.78,-2.68,4.0
1758089000.91551,1758088999.0965,0.0,0.0,0.0,25.8404,-50.76406,-1.20321,16.91,-1.78,-2.68,4.0
1758089000.91651,1758088999.1065,0.0,0.0,0.0,21.02755,-40.50812,-6.7609,12.31,-0.37,-1.66,4.0
1758089000.93157,1758088999.1165,0.0,0.0,0.0,21.14215,-15.12609,-4.46907,12.31,-0.37,-1.66,4.0
1758089000.9473,1758088999.1265,0.0,0.0,0.0,20.51189,11.63104,-0.17189,13.51,-0.39,-0.77,4.0
1758089000.94842,1758088999.1365,0.0,0.0,0.0,19.82434,34.49206,5.27121,13.51,-0.39,-0.77,4.0
1758089000.96359,1758088999.1465,0.0,0.0,0.0,16.90226,53.34238,14.15206,12.26,-0.49,-0.04,4.0
1758089000.96447,1758088999.1565,0.0,0.0,0.0,14.66772,41.65404,20.05352,10.45,-0.39,0.09,4.0
1758089000.97925,1758088999.1665,0.0,0.0,0.0,11.00079,22.28806,24.80907,10.45,-0.39,0.09,4.0
1758089000.99548,1758088999.1765,0.0,0.0,0.0,8.47978,10.54242,28.64789,11.6,-0.29,-0.24,4.0
1758089000.99652,1758088999.1865,0.0,0.0,0.0,1.66158,13.40721,25.8404,11.6,-0.29,-0.24,4.0
1758089001.01166,1758088999.1965,0.0,0.0,0.0,-2.34913,16.3293,22.57454,13.39,0.01,-1.11,4.0
1758089001.02757,1758088999.2065,0.0,0.0,0.0,-5.50039,19.48057,18.50654,13.39,0.01,-1.11,4.0
1758089001.02853,1758088999.2165,0.0,0.0,0.0,-8.42248,22.28806,14.38124,11.0,0.16,-0.12,4.0
1758089001.04439,1758088999.2265,0.0,0.0,0.0,-11.80293,23.72045,8.70896,9.3,0.0,-0.42,4.0
1758089001.0454,1758088999.2365,0.0,0.0,0.0,-13.17803,22.28806,5.61499,9.3,0.0,-0.42,4.0
1758089001.06037,1758088999.2465,0.0,0.0,0.0,-14.66772,19.59516,1.77617,8.79,-0.33,-0.47,4.0
1758089001.07657,1758088999.2565,0.0,0.0,0.0,-15.75634,15.87093,-1.3178,8.79,-0.33,-0.47,4.0
1758089001.07945,1758088999.2665,0.0,0.0,0.0,-16.50119,10.94349,-5.55769,8.88,-0.5,-0.49,4.0
1758089001.09467,1758088999.2765,0.0,0.0,0.0,-15.92823,9.11003,-7.33386,8.88,-0.5,-0.49,4.0
1758089001.09666,1758088999.2865,0.0,0.0,0.0,-15.75634,11.11538,-8.65166,9.17,-0.5,-0.67,4.0
1758089001.1125,1758088999.2965,0.0,0.0,0.0,-14.9542,10.71431,-8.136,9.17,-0.5,-0.67,4.0
1758089001.11345,1758088999.3065,0.0,0.0,0.0,-15.0115,24.57989,-11.34457,9.13,-0.37,-0.75,4.0
1758089001.12973,1758088999.3165,0.0,0.0,0.0,-12.60507,35.52338,-11.57375,9.71,-0.39,-1.05,4.0
1758089001.14573,1758088999.3265,0.0,0.0,0.0,-12.14671,45.14908,-13.5218,9.71,-0.39,-1.05,4.0
1758089001.14688,1758088999.3365,0.0,0.0,0.0,-10.31324,41.25296,-14.32395,8.47,-0.39,-0.46,4.0
1758089001.18208,1758088999.3465,0.0,0.0,0.0,-7.96411,27.61657,-14.15206,8.47,-0.39,-0.46,4.0
1758089001.19019,1758088999.3565,0.0,0.0,0.0,-7.04738,13.69369,-15.29797,6.82,-0.48,-0.67,4.0
1758089001.1929,1758088999.3665,0.0,0.0,0.0,-5.55769,6.7609,-16.50119,6.82,-0.48,-0.67,4.0
1758089001.20035,1758088999.3765,0.0,0.0,0.0,-3.09397,2.29183,-17.99088,7.9,-0.64,-1.36,4.0
1758089001.20498,1758088999.3865,0.0,0.0,0.0,-1.20321,-1.60428,-18.44924,8.6,-0.73,-0.99,4.0
1758089001.21288,1758088999.3965,0.0,0.0,0.0,0.51566,-7.21927,-18.33465,8.6,-0.73,-0.99,4.0
1758089001.22778,1758088999.4065,0.0,0.0,0.0,2.34913,-13.5791,-17.53251,8.52,-0.76,-0.74,4.0
1758089001.22944,1758088999.4165,0.0,0.0,0.0,4.18259,-24.80907,-15.69904,8.52,-0.76,-0.74,4.0
1758089001.24457,1758088999.4265,0.0,0.0,0.0,4.69825,-29.62192,-13.86558,8.49,-0.57,-0.73,4.0
1758089001.24568,1758088999.4365,0.0,0.0,0.0,5.09932,-31.62727,-12.60507,8.49,-0.57,-0.73,4.0
1758089001.26209,1758088999.4465,0.0,0.0,0.0,5.32851,-29.73651,-10.94349,9.24,-0.45,-0.58,4.0
1758089001.26407,1758088999.4565,0.0,0.0,0.0,5.50039,-21.48592,-9.4538,10.14,-0.3,-0.38,4.0
1758089001.27978,1758088999.4665,0.0,0.0,0.0,5.09932,-14.9542,-9.05273,10.14,-0.3,-0.38,4.0
1758089001.29626,1758088999.4765,0.0,0.0,0.0,4.52637,-10.71431,-9.11003,10.31,-0.13,-0.7,4.0
1758089001.29744,1758088999.4865,0.0,0.0,0.0,3.49504,-7.73493,-10.08406,10.31,-0.13,-0.7,4.0
1758089001.31281,1758088999.4965,0.0,0.0,0.0,1.77617,-4.81285,-11.97482,9.85,0.12,-1.02,4.0
1758089001.33506,1758088999.5065,0.0,0.0,0.0,0.51566,-2.97938,-13.75099,9.85,0.12,-1.02,4.0
1758089001.33785,1758088999.5165,0.0,0.0,0.0,-0.68755,-1.66158,-15.64175,9.71,0.23,-1.13,4.0
1758089001.33849,1758088999.5265,0.0,0.0,0.0,-2.06265,-0.11459,-17.6471,9.71,0.23,-1.13,4.0
1758089001.35458,1758088999.5365,0.0,0.0,0.0,-3.26586,1.3751,-18.33465,9.71,0.15,-1.11,4.0
1758089001.35605,1758088999.5465,0.0,0.0,0.0,-4.18259,2.86479,-18.62113,9.96,-0.03,-0.98,4.0
1758089001.37059,1758088999.5565,0.0,0.0,0.0,-4.69825,4.29718,-18.62113,9.96,-0.03,-0.98,4.0
1758089001.38808,1758088999.5665,0.0,0.0,0.0,-4.81285,4.81285,-17.99088,9.94,-0.35,-1.0,4.0
1758089001.38878,1758088999.5765,0.0,0.0,0.0,-4.29718,4.18259,-16.90226,9.94,-0.35,-1.0,4.0
1758089001.40358,1758088999.5865,0.0,0.0,0.0,-3.83882,3.66693,-15.64175,9.76,-0.65,-0.85,4.0
1758089001.40478,1758088999.5965,0.0,0.0,0.0,-3.49504,4.0107,-14.43854,9.76,-0.65,-0.85,4.0
