timeStamp,timeStampAlign,roll,pitch,yaw,gyro_x,gyro_y,gyro_z,acc_x,acc_y,acc_z,flag_num
1758088343.26577,1758088340.72639,0.0,0.0,0.0,1.48969,7.44845,19.25138,14.26,-1.08,3.57,3.0
1758088343.2817,1758088340.73639,0.0,0.0,0.0,-0.68755,18.62113,20.34,14.26,-1.08,3.57,3.0
1758088343.2825,1758088340.74639,0.0,0.0,0.0,-3.09397,23.60586,14.20935,11.82,-1.75,1.8,3.0
1758088343.29782,1758088340.75639,0.0,0.0,0.0,-2.97938,24.80907,8.136,11.82,-1.75,1.8,3.0
1758088343.29899,1758088340.76639,0.0,0.0,0.0,-1.60428,25.72581,1.66158,10.37,-2.09,2.35,3.0
1758088343.314,1758088340.77639,0.0,0.0,0.0,1.03132,28.01764,-4.35448,10.37,-2.09,2.35,3.0
1758088343.33005,1758088340.78639,0.0,0.0,0.0,5.27121,27.84575,-11.86023,10.55,-2.13,2.46,3.0
1758088343.33102,1758088340.79639,0.0,0.0,0.0,7.96411,25.7831,-14.61043,11.0,-2.07,3.69,3.0
1758088343.34599,1758088340.80639,0.0,0.0,0.0,9.91217,23.37668,-15.46986,11.0,-2.07,3.69,3.0
1758088343.36183,1758088340.81639,0.0,0.0,0.0,11.22997,21.60051,-14.38124,11.67,-1.97,3.55,3.0
1758088343.36253,1758088340.82639,0.0,0.0,0.0,12.14671,20.51189,-10.8862,11.67,-1.97,3.55,3.0
1758088343.37885,1758088340.83639,0.0,0.0,0.0,12.49048,20.51189,-8.30789,11.97,-1.79,3.5,3.0
1758088343.38029,1758088340.84639,0.0,0.0,0.0,12.49048,20.16812,-5.78687,11.97,-1.79,3.5,3.0
1758088343.39481,1758088340.85639,0.0,0.0,0.0,11.22997,16.67307,-2.97938,11.33,-1.57,3.35,3.0
1758088343.41109,1758088340.86639,0.0,0.0,0.0,9.91217,12.2613,-1.83346,10.23,-1.36,3.32,3.0
1758088343.41155,1758088340.87639,0.0,0.0,0.0,8.65166,7.50575,-1.08862,10.23,-1.36,3.32,3.0
1758088343.42684,1758088340.88639,0.0,0.0,0.0,7.33386,3.26586,-0.97403,9.5,-1.28,3.05,3.0
1758088343.42804,1758088340.89639,0.0,0.0,0.0,5.95876,-2.57831,-1.94806,9.5,-1.28,3.05,3.0
1758088343.44303,1758088340.90639,0.0,0.0,0.0,5.50039,-8.25059,-3.49504,8.78,-1.41,3.22,3.0
1758088343.45883,1758088340.91639,0.0,0.0,0.0,5.55769,-14.61043,-4.98473,8.78,-1.41,3.22,3.0
1758088343.46,1758088340.92639,0.0,0.0,0.0,5.72958,-20.79837,-6.24524,7.98,-1.41,3.51,3.0
1758088343.47481,1758088340.93639,0.0,0.0,0.0,6.18794,-30.93972,-7.39116,7.78,-1.29,3.66,3.0
1758088343.49078,1758088340.94639,0.0,0.0,0.0,6.70361,-37.58603,-7.62034,7.78,-1.29,3.66,3.0
1758088343.49139,1758088340.95639,0.0,0.0,0.0,7.33386,-43.60209,-7.33386,7.96,-1.18,3.66,3.0
1758088343.50712,1758088340.96639,0.0,0.0,0.0,7.79223,-49.21708,-6.70361,7.96,-1.18,3.66,3.0
1758088343.50827,1758088340.97639,0.0,0.0,0.0,8.70896,-55.92068,-5.4431,8.23,-1.22,3.64,3.0
1758088343.5231,1758088340.98639,0.0,0.0,0.0,9.05273,-59.87409,-4.58366,8.23,-1.22,3.64,3.0
1758088343.53913,1758088340.99639,0.0,0.0,0.0,9.62569,-63.02536,-4.0107,8.31,-1.31,3.87,3.0
1758088343.54047,1758088341.00639,0.0,0.0,0.0,10.37054,-65.08801,-3.38045,8.31,-1.31,3.87,3.0
1758088343.55504,1758088341.01639,0.0,0.0,0.0,12.14671,-66.11933,-2.40642,8.46,-1.37,3.98,3.0
1758088343.57106,1758088341.02639,0.0,0.0,0.0,13.5791,-65.66096,-1.77617,8.82,-1.35,3.99,3.0
1758088343.57144,1758088341.03639,0.0,0.0,0.0,15.69904,-64.57235,-0.85944,8.82,-1.35,3.99,3.0
1758088343.58681,1758088341.04639,0.0,0.0,0.0,18.62113,-62.5097,0.0573,9.16,-1.2,3.75,3.0
1758088343.588,1758088341.05639,0.0,0.0,0.0,20.51189,-57.86874,0.51566,9.16,-1.2,3.75,3.0
1758088343.60364,1758088341.06639,0.0,0.0,0.0,22.28806,-53.45696,0.45837,9.62,-1.02,3.52,3.0
1758088343.61987,1758088341.07639,0.0,0.0,0.0,23.60586,-48.9879,0.40107,9.62,-1.02,3.52,3.0
1758088343.62107,1758088341.08639,0.0,0.0,0.0,24.92367,-40.96649,-0.11459,9.77,-0.81,3.08,3.0
1758088343.63603,1758088341.09639,0.0,0.0,0.0,24.86637,-33.9764,-0.85944,9.69,-0.6,2.7,3.0
1758088343.6385,1758088341.10639,0.0,0.0,0.0,24.12152,-26.06958,-1.83346,9.69,-0.6,2.7,3.0
1758088343.65386,1758088341.11639,0.0,0.0,0.0,22.74642,-18.50654,-3.26586,9.44,-0.37,2.43,3.0
1758088343.66985,1758088341.12639,0.0,0.0,0.0,19.88164,-7.67763,-5.50039,9.44,-0.37,2.43,3.0
1758088343.67105,1758088341.13639,0.0,0.0,0.0,17.53251,-0.45837,-6.87549,9.22,-0.13,2.33,3.0
1758088343.68582,1758088341.14639,0.0,0.0,0.0,15.0115,6.8182,-8.02141,9.22,-0.13,2.33,3.0
1758088343.68882,1758088341.15639,0.0,0.0,0.0,12.54778,13.34992,-9.39651,9.36,0.02,2.16,3.0
1758088343.70491,1758088341.16639,0.0,0.0,0.0,9.5684,22.28806,-10.94349,9.41,0.08,2.1,3.0
1758088343.72101,1758088341.17639,0.0,0.0,0.0,7.79223,27.2155,-11.86023,9.41,0.08,2.1,3.0
1758088343.7214,1758088341.18639,0.0,0.0,0.0,6.41713,32.08564,-12.43318,9.38,0.09,2.13,3.0
1758088343.73685,1758088341.19639,0.0,0.0,0.0,5.4431,35.75257,-12.89155,9.38,0.09,2.13,3.0
1758088343.73849,1758088341.20639,0.0,0.0,0.0,4.1253,39.87786,-13.5791,9.27,0.02,2.17,3.0
1758088343.75287,1758088341.21639,0.0,0.0,0.0,3.66693,40.39353,-14.09476,9.27,0.02,2.17,3.0
1758088343.76884,1758088341.22639,0.0,0.0,0.0,3.32316,39.82057,-14.43854,8.97,-0.03,2.29,3.0
1758088343.77003,1758088341.23639,0.0,0.0,0.0,3.03668,38.56006,-14.49583,8.97,-0.03,2.29,3.0
1758088343.78485,1758088341.24639,0.0,0.0,0.0,2.63561,36.26823,-14.61043,8.86,-0.05,2.36,3.0
1758088343.80085,1758088341.25639,0.0,0.0,0.0,2.46372,34.14828,-14.49583,8.87,-0.01,2.45,3.0
1758088343.80139,1758088341.26639,0.0,0.0,0.0,1.94806,30.30947,-14.72501,8.87,-0.01,2.45,3.0
1758088343.81709,1758088341.27639,0.0,0.0,0.0,0.68755,23.20479,-15.41257,8.61,0.05,2.54,3.0
1758088343.81803,1758088341.28639,0.0,0.0,0.0,-0.45837,18.50654,-16.04282,8.61,0.05,2.54,3.0
1758088343.83309,1758088341.29639,0.0,0.0,0.0,-2.06265,14.78231,-17.01685,8.63,0.23,2.4,3.0
1758088343.84885,1758088341.30639,0.0,0.0,0.0,-3.60963,11.34457,-18.16276,8.63,0.23,2.4,3.0
1758088343.85041,1758088341.31639,0.0,0.0,0.0,-5.61499,5.32851,-19.36597,8.69,0.45,2.3,3.0
1758088343.86491,1758088341.32639,0.0,0.0,0.0,-6.35983,1.71887,-19.76705,8.65,0.47,2.27,3.0
1758088343.88103,1758088341.33639,0.0,0.0,0.0,-6.58902,-1.66158,-19.70975,8.65,0.47,2.27,3.0
1758088343.8814,1758088341.34639,0.0,0.0,0.0,-6.47442,-5.09932,-19.07949,8.8,0.22,2.25,3.0
1758088343.89708,1758088341.35639,0.0,0.0,0.0,-5.32851,-9.62569,-17.36062,8.8,0.22,2.25,3.0
1758088343.89841,1758088341.36639,0.0,0.0,0.0,-4.58366,-11.74564,-16.10011,8.9,-0.14,2.19,3.0
1758088343.91285,1758088341.37639,0.0,0.0,0.0,-3.55234,-13.23533,-14.83961,8.9,-0.14,2.19,3.0
1758088343.92917,1758088341.38639,0.0,0.0,0.0,-2.6929,-14.03747,-13.86558,9.06,-0.44,2.26,3.0
1758088343.9301,1758088341.39639,0.0,0.0,0.0,-1.77617,-13.5218,-13.12073,9.26,-0.45,2.32,3.0
1758088343.945,1758088341.40639,0.0,0.0,0.0,-1.48969,-12.77696,-12.89155,9.26,-0.45,2.32,3.0
1758088343.96086,1758088341.41639,0.0,0.0,0.0,-1.94806,-12.08941,-13.12073,9.41,-0.14,2.27,3.0
1758088343.96142,1758088341.42639,0.0,0.0,0.0,-3.03668,-11.22997,-13.06344,9.41,-0.14,2.27,3.0
1758088343.97799,1758088341.43639,0.0,0.0,0.0,-4.92744,-9.62569,-13.23533,9.46,0.26,2.11,3.0
1758088343.97935,1758088341.44639,0.0,0.0,0.0,-6.7609,-8.136,-12.89155,9.46,0.26,2.11,3.0
1758088343.99466,1758088341.45639,0.0,0.0,0.0,-8.65166,-6.53172,-12.54778,9.48,0.46,1.94,3.0
1758088343.99613,1758088341.46639,0.0,0.0,0.0,-11.22997,-4.69825,-11.11538,9.48,0.46,1.94,3.0
1758088344.01286,1758088341.47639,0.0,0.0,0.0,-12.49048,-2.00535,-9.91217,9.41,0.38,1.76,3.0
1758088344.02917,1758088341.48639,0.0,0.0,0.0,-13.75099,0.0,-9.5684,9.51,0.2,2.05,3.0
1758088344.03008,1758088341.49639,0.0,0.0,0.0,-14.32395,-1.71887,-9.39651,9.51,0.2,2.05,3.0
1758088344.04513,1758088341.50639,0.0,0.0,0.0,-16.21471,-1.48969,-12.71966,9.33,0.2,2.01,3.0
1758088344.04607,1758088341.51639,0.0,0.0,0.0,-17.53251,-2.11994,-14.15206,9.33,0.2,2.01,3.0
1758088344.06232,1758088341.52639,0.0,0.0,0.0,-18.10547,-4.52637,-15.0115,9.28,0.39,1.84,3.0
1758088344.07791,1758088341.53639,0.0,0.0,0.0,-19.25138,-4.58366,-16.67307,9.28,0.39,1.84,3.0
1758088344.0799,1758088341.54639,0.0,0.0,0.0,-21.42862,-4.92744,-17.93358,9.37,0.51,1.75,3.0
1758088344.09517,1758088341.55639,0.0,0.0,0.0,-22.86102,-4.18259,-18.85031,9.61,0.66,1.69,3.0
1758088344.0972,1758088341.56639,0.0,0.0,0.0,-24.80907,-2.6929,-19.76705,9.61,0.66,1.69,3.0
1758088344.1125,1758088341.57639,0.0,0.0,0.0,-26.69983,-0.80214,-20.79837,9.73,0.73,1.6,3.0
1758088344.12991,1758088341.58639,0.0,0.0,0.0,-29.56462,3.60963,-21.48592,9.73,0.73,1.6,3.0
1758088344.13132,1758088341.59639,0.0,0.0,0.0,-30.99702,4.69825,-20.74107,9.74,0.76,1.52,3.0
1758088344.14598,1758088341.60639,0.0,0.0,0.0,-32.88778,5.72958,-19.59516,9.74,0.76,1.52,3.0
1758088344.14792,1758088341.61639,0.0,0.0,0.0,-34.0337,7.33386,-16.90226,9.54,0.61,1.21,3.0
1758088344.16392,1758088341.62639,0.0,0.0,0.0,-35.00772,0.51566,-12.89155,9.28,0.26,1.39,3.0
1758088344.1659,1758088341.63639,0.0,0.0,0.0,-34.77854,-10.71431,-10.8862,9.28,0.26,1.39,3.0
1758088344.18146,1758088341.64639,0.0,0.0,0.0,-35.58068,-20.05352,-7.67763,9.46,0.09,1.77,3.0
1758088344.19795,1758088341.65639,0.0,0.0,0.0,-35.3515,-3.26586,-10.8862,9.46,0.09,1.77,3.0
1758088344.19889,1758088341.66639,0.0,0.0,0.0,-35.40879,28.87707,-10.71431,13.11,0.18,1.38,3.0
1758088344.2139,1758088341.67639,0.0,0.0,0.0,-37.92981,39.3622,-15.12609,13.11,0.18,1.38,3.0
1758088344.21697,1758088341.68639,0.0,0.0,0.0,-39.13302,30.53865,-17.01685,11.45,0.73,2.74,3.0
1758088344.23335,1758088341.69639,0.0,0.0,0.0,-37.58603,-7.04738,-18.10547,11.45,0.73,2.74,3.0
1758088344.25149,1758088341.70639,0.0,0.0,0.0,-40.7373,-20.62648,-24.80907,8.36,1.53,3.67,3.0
1758088344.25273,1758088341.71639,0.0,0.0,0.0,-41.02378,3.49504,-24.92367,13.13,1.49,1.95,3.0
1758088344.2687,1758088341.72639,0.0,0.0,0.0,-40.16434,29.56462,-21.7724,13.13,1.49,1.95,3.0
1758088344.26991,1758088341.73639,0.0,0.0,0.0,-39.99245,30.88243,-15.24068,12.93,0.66,0.42,3.0
1758088344.28649,1758088341.74639,0.0,0.0,0.0,-40.16434,24.5226,-11.34457,12.93,0.66,0.42,3.0
1758088344.29166,1758088341.75639,0.0,0.0,0.0,-40.04975,24.5226,-7.44845,10.95,-0.17,3.11,3.0
1758088344.30691,1758088341.76639,0.0,0.0,0.0,-39.4768,29.04896,-3.26586,10.95,-0.17,3.11,3.0
1758088344.30902,1758088341.77639,0.0,0.0,0.0,-38.21629,33.00237,1.60428,12.87,-0.51,2.48,3.0
1758088344.32416,1758088341.78639,0.0,0.0,0.0,-37.01308,31.62727,2.97938,12.95,-0.28,3.61,3.0
1758088344.32674,1758088341.79639,0.0,0.0,0.0,-35.06502,30.30947,3.66693,12.95,-0.28,3.61,3.0
1758088344.34252,1758088341.80639,0.0,0.0,0.0,-32.88778,27.2155,3.49504,12.88,0.41,3.82,3.0
1758088344.35796,1758088341.81639,0.0,0.0,0.0,-29.9084,22.51724,1.14592,12.88,0.41,3.82,3.0
1758088344.36027,1758088341.82639,0.0,0.0,0.0,-28.476,19.99623,-0.74485,12.77,0.97,4.1,3.0
1758088344.37524,1758088341.83639,0.0,0.0,0.0,-27.67386,16.55848,-2.7502,12.77,0.97,4.1,3.0
1758088344.37638,1758088341.84639,0.0,0.0,0.0,-27.50197,12.49048,-4.64096,12.24,1.06,3.77,3.0
1758088344.39154,1758088341.85639,0.0,0.0,0.0,-28.30412,5.78687,-6.87549,11.24,0.76,3.64,3.0
1758088344.40736,1758088341.86639,0.0,0.0,0.0,-29.62192,-0.11459,-7.84952,11.24,0.76,3.64,3.0
1758088344.40817,1758088341.87639,0.0,0.0,0.0,-31.62727,-6.8182,-8.59437,9.95,0.35,3.38,3.0
1758088344.42319,1758088341.88639,0.0,0.0,0.0,-35.00772,-15.24068,-8.99544,9.95,0.35,3.38,3.0
1758088344.43899,1758088341.89639,0.0,0.0,0.0,-37.35685,-19.99623,-9.11003,9.08,0.12,3.46,3.0
1758088344.44094,1758088341.90639,0.0,0.0,0.0,-39.4768,-24.57989,-8.76626,9.08,0.12,3.46,3.0
1758088344.45608,1758088341.91639,0.0,0.0,0.0,-41.13837,-28.99167,-8.136,8.45,0.01,3.48,3.0
1758088344.45714,1758088341.92639,0.0,0.0,0.0,-41.99781,-35.92446,-6.7609,8.45,0.01,3.43,3.0
1758088344.47253,1758088341.93639,0.0,0.0,0.0,-41.99781,-41.13837,-5.84417,8.1,-0.14,3.43,3.0
1758088344.48814,1758088341.94639,0.0,0.0,0.0,-41.25296,-46.52417,-5.09932,7.77,-0.44,3.19,3.0
1758088344.48913,1758088341.95639,0.0,0.0,0.0,-39.82057,-51.39432,-4.64096,7.77,-0.44,3.19,3.0
1758088344.5042,1758088341.96639,0.0,0.0,0.0,-36.7266,-56.49364,-4.81285,7.75,-0.75,3.14,3.0
1758088344.51994,1758088341.97639,0.0,0.0,0.0,-34.89313,-57.81144,-5.50039,7.75,-0.75,3.14,3.0
1758088344.52114,1758088341.98639,0.0,0.0,0.0,-32.88778,-58.55629,-6.47442,7.88,-0.94,2.97,3.0
1758088344.53631,1758088341.99639,0.0,0.0,0.0,-31.51268,-58.84277,-7.96411,7.88,-0.94,2.97,3.0
1758088344.53715,1758088342.00639,0.0,0.0,0.0,-29.9084,-59.53032,-9.91217,7.83,-0.93,2.98,3.0
1758088344.55255,1758088342.01639,0.0,0.0,0.0,-29.22085,-60.04598,-10.54242,7.83,-0.72,2.74,3.0
1758088344.56822,1758088342.02639,0.0,0.0,0.0,-28.64789,-58.72818,-10.71431,7.83,-0.72,2.74,3.0
1758088344.56995,1758088342.03639,0.0,0.0,0.0,-28.30412,-55.57691,-10.02676,8.5,-0.5,2.57,3.0
1758088344.58518,1758088342.04639,0.0,0.0,0.0,-27.78845,-50.3057,-7.73493,8.5,-0.5,2.57,3.0
1758088344.58738,1758088342.05639,0.0,0.0,0.0,-28.07493,-45.60744,-5.4431,8.9,-0.48,2.37,3.0
1758088344.60411,1758088342.06639,0.0,0.0,0.0,-28.13223,-39.70598,-2.97938,8.9,-0.48,2.37,3.0
1758088344.619,1758088342.07639,0.0,0.0,0.0,-28.24682,-34.26288,0.80214,9.25,-0.62,2.36,3.0
1758088344.62421,1758088342.08639,0.0,0.0,0.0,-27.78845,-25.38203,3.09397,9.37,-0.8,2.26,3.0
1758088344.63895,1758088342.09639,0.0,0.0,0.0,-27.50197,-18.33465,4.98473,9.37,-0.8,2.26,3.0
1758088344.64091,1758088342.10639,0.0,0.0,0.0,-26.87172,-11.11538,6.24524,9.59,-0.89,2.03,3.0
1758088344.65623,1758088342.11639,0.0,0.0,0.0,-25.38203,-0.11459,7.39116,9.59,-0.89,2.03,3.0
1758088344.65796,1758088342.12639,0.0,0.0,0.0,-24.17882,6.7609,7.84952,9.65,-0.87,1.85,3.0
1758088344.67398,1758088342.13639,0.0,0.0,0.0,-22.91831,13.98017,8.25059,9.65,-0.87,1.85,3.0
1758088344.68992,1758088342.14639,0.0,0.0,0.0,-21.48592,21.14215,8.65166,9.79,-0.81,1.73,3.0
1758088344.69175,1758088342.15639,0.0,0.0,0.0,-20.05352,33.17426,9.05273,9.87,-0.77,1.64,3.0
1758088344.70761,1758088342.16639,0.0,0.0,0.0,-19.48057,40.50812,9.33921,9.87,-0.77,1.64,3.0
1758088344.71226,1758088342.17639,0.0,0.0,0.0,-19.13679,45.60744,9.28192,9.63,-0.72,1.76,3.0
1758088344.72692,1758088342.18639,0.0,0.0,0.0,-18.85031,49.38896,8.99544,9.63,-0.72,1.76,3.0
1758088344.72819,1758088342.19639,0.0,0.0,0.0,-18.85031,52.13916,8.30789,9.42,-0.65,1.8,3.0
1758088344.74321,1758088342.20639,0.0,0.0,0.0,-18.85031,52.19646,7.62034,9.42,-0.65,1.8,3.0
1758088344.76084,1758088342.21639,0.0,0.0,0.0,-19.48057,50.76406,6.70361,9.24,-0.62,1.78,3.0
1758088344.76175,1758088342.22639,0.0,0.0,0.0,-19.82434,49.67545,5.78687,9.24,-0.62,1.78,3.0
1758088344.77701,1758088342.23639,0.0,0.0,0.0,-20.97026,49.04519,4.46907,9.18,-0.63,1.7,3.0
1758088344.77815,1758088342.24639,0.0,0.0,0.0,-21.48592,48.75871,3.89611,9.02,-0.63,1.76,3.0
1758088344.79395,1758088342.25639,0.0,0.0,0.0,-22.34536,47.78468,3.49504,9.02,-0.63,1.76,3.0
1758088344.80998,1758088342.26639,0.0,0.0,0.0,-22.74642,46.06581,3.49504,8.61,-0.62,2.06,3.0
1758088344.81147,1758088342.27639,0.0,0.0,0.0,-23.20479,43.94586,3.72423,8.61,-0.62,2.06,3.0
1758088344.82649,1758088342.28639,0.0,0.0,0.0,-23.49127,42.68536,4.18259,8.5,-0.65,2.03,3.0
1758088344.82807,1758088342.29639,0.0,0.0,0.0,-23.26209,41.59674,4.58366,8.5,-0.65,2.03,3.0
1758088344.84405,1758088342.30639,0.0,0.0,0.0,-22.68913,39.99245,4.87014,8.55,-0.76,1.99,3.0
1758088344.84599,1758088342.31639,0.0,0.0,0.0,-22.00158,38.27358,5.09932,8.51,-0.89,2.02,3.0
1758088344.86261,1758088342.32639,0.0,0.0,0.0,-21.14215,36.6693,4.92744,8.51,-0.89,2.02,3.0
1758088344.87927,1758088342.33639,0.0,0.0,0.0,-20.05352,34.60666,4.64096,8.45,-0.99,2.03,3.0
1758088344.88098,1758088342.34639,0.0,0.0,0.0,-18.44924,31.79916,4.23989,8.45,-0.99,2.03,3.0
1758088344.89602,1758088342.35639,0.0,0.0,0.0,-17.36062,29.8511,4.1253,8.5,-1.0,2.04,3.0
1758088344.89802,1758088342.36639,0.0,0.0,0.0,-16.272,27.2155,4.0107,8.5,-1.0,2.04,3.0
1758088344.91503,1758088342.37639,0.0,0.0,0.0,-15.12609,23.37668,3.95341,8.5,-1.02,2.08,3.0
1758088344.91622,1758088342.38639,0.0,0.0,0.0,-14.43854,13.75099,3.09397,8.37,-1.0,2.13,3.0
1758088344.93257,1758088342.39639,0.0,0.0,0.0,-14.32395,-1.08862,3.20856,8.37,-1.0,2.13,3.0
1758088344.9483,1758088342.40639,0.0,0.0,0.0,-13.06344,-7.39116,3.89611,8.44,-0.98,2.17,3.0
1758088344.95161,1758088342.41639,0.0,0.0,0.0,-11.34457,-3.55234,4.23989,8.44,-0.98,2.17,3.0
1758088344.96698,1758088342.42639,0.0,0.0,0.0,-9.4538,8.42248,4.23989,9.85,-1.22,1.59,3.0
1758088344.96905,1758088342.43639,0.0,0.0,0.0,-7.62034,15.69904,4.52637,9.85,-1.22,1.59,3.0
1758088344.9842,1758088342.44639,0.0,0.0,0.0,-5.72958,17.93358,4.87014,9.75,-1.3,2.63,3.0
1758088345.0003,1758088342.45639,0.0,0.0,0.0,-3.55234,15.46986,5.32851,9.75,-1.3,2.63,3.0
1758088345.00123,1758088342.46639,0.0,0.0,0.0,0.0,9.62569,5.27121,9.2,-1.37,2.72,3.0
1758088345.01623,1758088342.47639,0.0,0.0,0.0,2.23454,7.16197,5.27121,9.43,-1.63,2.1,3.0
1758088345.01796,1758088342.48639,0.0,0.0,0.0,4.64096,6.41713,5.61499,9.43,-1.63,2.1,3.0
1758088345.03439,1758088342.49639,0.0,0.0,0.0,8.93814,5.95876,7.96411,9.8,-1.96,1.79,3.0
1758088345.04998,1758088342.50639,0.0,0.0,0.0,11.80293,5.55769,10.08406,9.8,-1.96,1.79,3.0
1758088345.0512,1758088342.51639,0.0,0.0,0.0,14.83961,3.60963,12.08941,9.87,-2.17,2.1,3.0
1758088345.06637,1758088342.52639,0.0,0.0,0.0,17.36062,-1.83346,12.60507,9.87,-2.17,2.1,3.0
1758088345.0672,1758088342.53639,0.0,0.0,0.0,21.60051,-16.84496,7.96411,9.58,-2.15,2.1,3.0
1758088345.08228,1758088342.54639,0.0,0.0,0.0,27.44468,-15.24068,7.10468,9.68,-2.22,3.15,3.0
1758088345.09799,1758088342.55639,0.0,0.0,0.0,27.78845,-6.70361,8.25059,9.68,-2.22,3.15,3.0
1758088345.1009,1758088342.56639,0.0,0.0,0.0,24.29341,-2.00535,10.8289,12.96,-1.02,6.81,3.0
1758088345.11627,1758088342.57639,0.0,0.0,0.0,16.21471,-25.72581,18.27736,12.96,-1.02,6.81,3.0
1758088345.11749,1758088342.58639,0.0,0.0,0.0,12.89155,-39.99245,21.88699,12.12,0.28,6.25,3.0
1758088345.13257,1758088342.59639,0.0,0.0,0.0,9.28192,-35.98175,25.21014,12.12,0.28,6.25,3.0
1758088345.14929,1758088342.60639,0.0,0.0,0.0,7.73493,-27.44468,21.94428,14.62,-0.72,3.78,3.0
1758088345.16774,1758088342.61639,0.0,0.0,0.0,12.2613,-28.99167,15.46986,12.05,-2.47,3.1,3.0
1758088345.16797,1758088342.62639,0.0,0.0,0.0,16.73037,-26.12688,9.22462,12.05,-2.47,3.1,3.0
1758088345.16812,1758088342.63639,0.0,0.0,0.0,20.74107,-17.13144,2.97938,12.23,-2.6,4.8,3.0
1758088345.18409,1758088342.64639,0.0,0.0,0.0,23.66316,-10.31324,-2.7502,12.23,-2.6,4.8,3.0
1758088345.20003,1758088342.65639,0.0,0.0,0.0,26.98631,-4.98473,-8.59437,11.73,-1.38,4.71,3.0
1758088345.20125,1758088342.66639,0.0,0.0,0.0,28.41871,-0.11459,-8.76626,11.73,-1.38,4.71,3.0
1758088345.21614,1758088342.67639,0.0,0.0,0.0,29.10626,2.23454,-7.62034,11.48,-0.5,4.27,3.0
1758088345.21726,1758088342.68639,0.0,0.0,0.0,30.48136,0.80214,-3.89611,11.48,-0.5,4.27,3.0
1758088345.23237,1758088342.69639,0.0,0.0,0.0,31.2262,-3.55234,-1.20321,10.07,-0.48,3.31,3.0
1758088345.2481,1758088342.70639,0.0,0.0,0.0,32.25753,-5.27121,1.3178,9.02,-0.85,2.89,3.0
1758088345.24928,1758088342.71639,0.0,0.0,0.0,33.11696,-6.13065,4.18259,9.02,-0.85,2.89,3.0
1758088345.26404,1758088342.72639,0.0,0.0,0.0,34.72124,-10.48513,7.73493,8.24,-1.07,2.83,3.0
1758088345.28031,1758088342.73639,0.0,0.0,0.0,35.3515,-13.80828,9.28192,8.24,-1.07,2.83,3.0
1758088345.28125,1758088342.74639,0.0,0.0,0.0,35.69527,-16.67307,9.85487,7.64,-0.95,3.31,3.0
1758088345.29616,1758088342.75639,0.0,0.0,0.0,35.63798,-20.34,9.68299,7.64,-0.95,3.31,3.0
1758088345.29728,1758088342.76639,0.0,0.0,0.0,34.72124,-25.89769,8.65166,7.52,-0.5,3.44,3.0
1758088345.31231,1758088342.77639,0.0,0.0,0.0,34.0337,-27.44468,7.39116,7.74,-0.04,3.31,3.0
1758088345.32837,1758088342.78639,0.0,0.0,0.0,33.11696,-27.78845,6.07335,7.74,-0.04,3.31,3.0
1758088345.3301,1758088342.79639,0.0,0.0,0.0,32.25753,-28.41871,4.23989,7.91,0.16,3.14,3.0
1758088345.34534,1758088342.80639,0.0,0.0,0.0,31.62727,-30.53865,2.34913,7.91,0.16,3.14,3.0
1758088345.34705,1758088342.81639,0.0,0.0,0.0,31.74186,-31.62727,2.00535,7.89,0.07,3.09,3.0
1758088345.36333,1758088342.82639,0.0,0.0,0.0,32.08564,-31.56997,1.94806,7.89,0.07,3.09,3.0
1758088345.37911,1758088342.83639,0.0,0.0,0.0,32.6013,-31.11161,2.40642,8.43,-0.09,3.05,3.0
1758088345.38025,1758088342.84639,0.0,0.0,0.0,33.74722,-28.07493,3.66693,9.01,-0.26,3.01,3.0
1758088345.3955,1758088342.85639,0.0,0.0,0.0,34.32018,-24.75178,4.29718,9.01,-0.26,3.01,3.0
1758088345.3979,1758088342.86639,0.0,0.0,0.0,34.77854,-20.68378,4.87014,9.27,-0.37,2.99,3.0
1758088345.41411,1758088342.87639,0.0,0.0,0.0,34.72124,-16.73037,5.21392,9.27,-0.37,2.99,3.0
1758088345.43008,1758088342.88639,0.0,0.0,0.0,34.09099,-11.80293,5.09932,9.07,-0.34,2.81,3.0
1758088345.43138,1758088342.89639,0.0,0.0,0.0,33.23156,-8.93814,4.87014,9.07,-0.34,2.81,3.0
1758088345.44611,1758088342.90639,0.0,0.0,0.0,32.25753,-6.24524,4.29718,8.95,-0.2,2.67,3.0
1758088345.44762,1758088342.91639,0.0,0.0,0.0,30.82513,-1.20321,3.49504,8.95,-0.2,2.67,3.0
1758088345.46248,1758088342.92639,0.0,0.0,0.0,29.9084,1.60428,2.92208,9.14,0.0,2.56,3.0
1758088345.47822,1758088342.93639,0.0,0.0,0.0,29.10626,3.89611,2.29183,9.27,0.08,2.58,3.0
1758088345.48086,1758088342.94639,0.0,0.0,0.0,28.70519,5.95876,1.94806,9.27,0.08,2.58,3.0
1758088345.49636,1758088342.95639,0.0,0.0,0.0,27.84575,9.5684,1.20321,9.51,0.1,2.54,3.0
1758088345.49837,1758088342.96639,0.0,0.0,0.0,27.61657,11.57375,0.74485,9.51,0.1,2.54,3.0
1758088345.51396,1758088342.97639,0.0,0.0,0.0,27.1582,13.5218,0.40107,9.53,0.09,2.61,3.0
1758088345.5301,1758088342.98639,0.0,0.0,0.0,26.75713,14.61043,0.17189,9.53,0.09,2.61,3.0
1758088345.53133,1758088342.99639,0.0,0.0,0.0,25.89769,16.90226,-0.34377,9.38,0.12,2.67,3.0
1758088345.54614,1758088343.00639,0.0,0.0,0.0,25.15285,17.47521,-0.51566,9.27,0.23,2.68,3.0
1758088345.54734,1758088343.01639,0.0,0.0,0.0,24.23611,17.53251,-0.57296,9.27,0.23,2.68,3.0
1758088345.56213,1758088343.02639,0.0,0.0,0.0,23.37668,17.30333,-0.57296,9.13,0.3,2.71,3.0
1758088345.57807,1758088343.03639,0.0,0.0,0.0,21.94428,16.67307,-0.34377,9.13,0.3,2.71,3.0
1758088345.58086,1758088343.04639,0.0,0.0,0.0,21.14215,15.24068,-0.17189,9.01,0.26,2.68,3.0
1758088345.59641,1758088343.05639,0.0,0.0,0.0,20.3973,13.23533,0.22918,9.01,0.26,2.68,3.0
1758088345.59736,1758088343.06639,0.0,0.0,0.0,19.53786,11.51645,0.74485,8.82,0.19,2.67,3.0
1758088345.61214,1758088343.07639,0.0,0.0,0.0,17.76169,10.48513,0.17189,8.94,0.22,2.81,3.0
1758088345.62841,1758088343.08639,0.0,0.0,0.0,16.04282,8.93814,-0.97403,8.94,0.22,2.81,3.0
1758088345.63013,1758088343.09639,0.0,0.0,0.0,14.49583,6.7609,-2.40642,8.7,0.42,2.49,3.0
1758088345.64517,1758088343.10639,0.0,0.0,0.0,12.08941,3.38045,-4.64096,8.7,0.42,2.49,3.0
1758088345.6464,1758088343.11639,0.0,0.0,0.0,10.8862,0.85944,-5.78687,8.72,0.67,2.51,3.0
1758088345.66218,1758088343.12639,0.0,0.0,0.0,9.91217,-1.66158,-6.58902,8.72,0.67,2.51,3.0
1758088345.67809,1758088343.13639,0.0,0.0,0.0,9.5684,-4.0107,-7.04738,8.79,0.7,2.36,3.0
1758088345.68003,1758088343.14639,0.0,0.0,0.0,9.39651,-6.99009,-6.53172,8.79,0.7,2.36,3.0
1758088345.69533,1758088343.15639,0.0,0.0,0.0,9.74028,-8.42248,-5.50039,8.9,0.45,2.32,3.0
1758088345.69664,1758088343.16639,0.0,0.0,0.0,10.25595,-9.91217,-4.35448,8.99,0.07,2.32,3.0
1758088345.71241,1758088343.17639,0.0,0.0,0.0,11.00079,-11.28727,-3.09397,8.99,0.07,2.32,3.0
1758088345.7284,1758088343.18639,0.0,0.0,0.0,12.204,-13.23533,-1.71887,9.02,-0.2,2.41,3.0
1758088345.73014,1758088343.19639,0.0,0.0,0.0,12.71966,-13.5791,-1.14592,9.02,-0.2,2.41,3.0
1758088345.74505,1758088343.20639,0.0,0.0,0.0,13.12073,-13.40721,-0.97403,9.08,-0.25,2.37,3.0
1758088345.74664,1758088343.21639,0.0,0.0,0.0,13.17803,-13.06344,-1.08862,9.08,-0.25,2.37,3.0
1758088345.76214,1758088343.22639,0.0,0.0,0.0,12.77696,-11.74564,-1.83346,9.1,-0.03,2.26,3.0
1758088345.77817,1758088343.23639,0.0,0.0,0.0,11.97482,-10.65701,-2.34913,9.12,0.3,2.14,3.0
1758088345.77967,1758088343.24639,0.0,0.0,0.0,11.28727,-9.39651,-2.7502,9.12,0.3,2.14,3.0
1758088345.79415,1758088343.25639,0.0,0.0,0.0,10.54242,-7.96411,-2.97938,9.18,0.53,2.01,3.0
1758088345.81016,1758088343.26639,0.0,0.0,0.0,9.22462,-4.87014,-2.11994,9.18,0.53,2.01,3.0
1758088345.81141,1758088343.27639,0.0,0.0,0.0,8.136,-2.57831,-1.60428,9.33,0.53,2.0,3.0
1758088345.82617,1758088343.28639,0.0,0.0,0.0,7.16197,-0.22918,-1.08862,9.33,0.53,2.0,3.0
1758088345.82738,1758088343.29639,0.0,0.0,0.0,6.35983,-2.23454,-0.68755,9.5,0.43,2.3,3.0
1758088345.84369,1758088343.30639,0.0,0.0,0.0,3.60963,-2.92208,-4.18259,9.25,0.44,2.3,3.0
1758088345.86038,1758088343.31639,0.0,0.0,0.0,3.26586,-4.46907,-5.72958,9.25,0.44,2.3,3.0
1758088345.86135,1758088343.32639,0.0,0.0,0.0,2.23454,-4.35448,-8.136,9.3,0.63,1.93,3.0
1758088345.8763,1758088343.33639,0.0,0.0,0.0,1.03132,-3.09397,-10.54242,9.3,0.63,1.93,3.0
1758088345.87735,1758088343.34639,0.0,0.0,0.0,-0.57296,-1.14592,-13.06344,9.39,0.72,1.88,3.0
1758088345.8924,1758088343.35639,0.0,0.0,0.0,-2.00535,-0.11459,-13.75099,9.39,0.72,1.88,3.0
1758088345.90923,1758088343.36639,0.0,0.0,0.0,-3.38045,0.57296,-15.0115,9.35,0.79,2.09,3.0
1758088345.91015,1758088343.37639,0.0,0.0,0.0,-6.35983,2.86479,-15.87093,9.3,0.79,1.75,3.0
1758088345.9254,1758088343.38639,0.0,0.0,0.0,-8.30789,5.09932,-16.3293,9.3,0.81,1.75,3.0
1758088345.92636,1758088343.39639,0.0,0.0,0.0,-9.62569,5.78687,-15.69904,9.31,0.77,1.59,3.0
1758088345.94214,1758088343.40639,0.0,0.0,0.0,-11.28727,5.90147,-14.61043,9.31,0.77,1.59,3.0
1758088345.95838,1758088343.41639,0.0,0.0,0.0,-12.2613,2.86479,-10.19865,9.1,0.49,1.26,3.0
1758088345.96048,1758088343.42639,0.0,0.0,0.0,-13.5791,-2.7502,-8.88085,9.1,0.49,1.26,3.0
1758088345.97511,1758088343.43639,0.0,0.0,0.0,-13.34992,-11.97482,-4.69825,8.94,0.25,1.47,3.0
1758088345.97637,1758088343.44639,0.0,0.0,0.0,-14.03747,-14.03747,-0.45837,8.94,0.25,1.47,3.0
1758088345.99226,1758088343.45639,0.0,0.0,0.0,-15.46986,19.59516,-3.09397,10.66,0.15,1.88,3.0
1758088346.00819,1758088343.46639,0.0,0.0,0.0,-15.87093,35.00772,-6.13065,12.39,0.18,1.67,3.0
1758088346.00936,1758088343.47639,0.0,0.0,0.0,-17.93358,36.26823,-9.62569,12.39,0.18,1.67,3.0
1758088346.02438,1758088343.48639,0.0,0.0,0.0,-21.14215,26.75713,-14.66772,9.78,0.81,3.68,3.0
1758088346.0261,1758088343.49639,0.0,0.0,0.0,-21.6578,11.57375,-11.51645,9.78,0.81,3.68,3.0
1758088346.04238,1758088343.50639,0.0,0.0,0.0,-21.37133,-21.60051,-11.57375,8.65,1.42,2.07,3.0
1758088346.05818,1758088343.51639,0.0,0.0,0.0,-24.5226,-24.5226,-16.61578,8.65,1.42,2.07,3.0
1758088346.06054,1758088343.52639,0.0,0.0,0.0,-22.68913,20.22541,-15.12609,11.41,1.13,2.07,3.0
1758088346.07577,1758088343.53639,0.0,0.0,0.0,-19.70975,27.44468,-11.17268,12.93,0.34,1.66,3.0
1758088346.07639,1758088343.54639,0.0,0.0,0.0,-17.99088,19.36597,-8.30789,12.93,0.34,1.66,3.0
1758088346.09215,1758088343.55639,0.0,0.0,0.0,-16.73037,14.9542,-5.55769,10.45,-0.31,4.03,3.0
1758088346.10839,1758088343.56639,0.0,0.0,0.0,-14.66772,23.0329,-0.0573,10.45,-0.31,4.03,3.0
1758088346.10939,1758088343.57639,0.0,0.0,0.0,-14.20935,28.36141,4.1253,12.69,-0.45,2.84,3.0
1758088346.12443,1758088343.58639,0.0,0.0,0.0,-14.43854,28.476,7.21927,12.69,-0.45,2.84,3.0
1758088346.12619,1758088343.59639,0.0,0.0,0.0,-14.9542,25.38203,9.28192,12.36,0.04,3.53,3.0
1758088346.14219,1758088343.60639,0.0,0.0,0.0,-15.69904,23.37668,9.85487,12.78,0.7,3.93,3.0
1758088346.16023,1758088343.61639,0.0,0.0,0.0,-16.04282,22.68913,8.99544,12.78,0.7,3.93,3.0
1758088346.16119,1758088343.62639,0.0,0.0,0.0,-16.04282,21.42862,7.33386,13.3,1.12,4.33,3.0
1758088346.17641,1758088343.63639,0.0,0.0,0.0,-15.75634,20.22541,5.09932,13.3,1.12,4.33,3.0
1758088346.17743,1758088343.64639,0.0,0.0,0.0,-16.04282,16.55848,2.00535,13.19,1.23,4.5,3.0
1758088346.19245,1758088343.65639,0.0,0.0,0.0,-16.90226,13.46451,0.22918,13.19,1.23,4.5,3.0
1758088346.20846,1758088343.66639,0.0,0.0,0.0,-17.99088,9.4538,-1.08862,12.42,1.0,4.11,3.0
1758088346.21016,1758088343.67639,0.0,0.0,0.0,-19.70975,4.52637,-1.66158,12.42,1.0,4.11,3.0
1758088346.22542,1758088343.68639,0.0,0.0,0.0,-23.26209,-5.09932,-2.29183,11.12,0.62,3.97,3.0
1758088346.22666,1758088343.69639,0.0,0.0,0.0,-26.12688,-10.94349,-2.46372,9.87,0.34,3.8,3.0
1758088346.24249,1758088343.70639,0.0,0.0,0.0,-29.10626,-16.21471,-2.57831,9.87,0.34,3.8,3.0
1758088346.2582,1758088343.71639,0.0,0.0,0.0,-33.17426,-20.74107,-2.7502,9.05,0.14,3.58,3.0
1758088346.25943,1758088343.72639,0.0,0.0,0.0,-35.2942,-27.2155,-3.03668,9.05,0.14,3.58,3.0
1758088346.27421,1758088343.73639,0.0,0.0,0.0,-36.7266,-30.88243,-3.32316,8.42,-0.08,3.38,3.0
1758088346.29014,1758088343.74639,0.0,0.0,0.0,-37.52874,-34.95043,-3.38045,8.42,-0.08,3.38,3.0
1758088346.29135,1758088343.75639,0.0,0.0,0.0,-37.29956,-42.74266,-3.72423,7.93,-0.29,3.02,3.0
1758088346.3065,1758088343.76639,0.0,0.0,0.0,-36.26823,-47.78468,-3.83882,7.53,-0.52,2.68,3.0
1758088346.30736,1758088343.77639,0.0,0.0,0.0,-34.66395,-52.13916,-3.95341,7.53,-0.52,2.68,3.0
1758088346.32214,1758088343.78639,0.0,0.0,0.0,-32.54401,-56.37905,-4.23989,7.42,-0.73,2.4,3.0
1758088346.33819,1758088343.79639,0.0,0.0,0.0,-29.10626,-62.56699,-4.69825,7.42,-0.73,2.4,3.0
1758088346.3394,1758088343.80639,0.0,0.0,0.0,-27.04361,-66.00475,-5.21392,7.24,-0.9,2.33,3.0
1758088346.35419,1758088343.81639,0.0,0.0,0.0,-24.98096,-68.98412,-5.78687,7.24,-0.9,2.33,3.0
1758088346.37015,1758088343.82639,0.0,0.0,0.0,-23.49127,-72.30728,-6.35983,7.24,-0.95,2.38,3.0
1758088346.37142,1758088343.83639,0.0,0.0,0.0,-21.94428,-76.66176,-6.70361,7.51,-0.87,2.4,3.0
1758088346.38618,1758088343.84639,0.0,0.0,0.0,-21.48592,-77.4066,-6.7609,7.51,-0.87,2.4,3.0
1758088346.38736,1758088343.85639,0.0,0.0,0.0,-21.42862,-76.31798,-5.95876,8.39,-0.67,2.33,3.0
1758088346.40219,1758088343.86639,0.0,0.0,0.0,-21.94428,-73.79697,-4.87014,8.39,-0.67,2.33,3.0
1758088346.41821,1758088343.87639,0.0,0.0,0.0,-23.49127,-67.89551,-2.23454,9.2,-0.56,2.2,3.0
1758088346.41939,1758088343.88639,0.0,0.0,0.0,-24.29341,-62.96807,-0.34377,9.2,-0.56,2.2,3.0
1758088346.43437,1758088343.89639,0.0,0.0,0.0,-25.21014,-57.52497,1.3178,9.52,-0.61,2.04,3.0
1758088346.45021,1758088343.90639,0.0,0.0,0.0,-25.7831,-50.53488,3.09397,9.52,-0.61,2.04,3.0
1758088346.45137,1758088343.91639,0.0,0.0,0.0,-25.72581,-39.19032,4.29718,9.69,-0.71,1.9,3.0
1758088346.4662,1758088343.92639,0.0,0.0,0.0,-24.92367,-31.45539,5.27121,9.66,-0.79,1.51,3.0
1758088346.4674,1758088343.93639,0.0,0.0,0.0,-23.49127,-22.34536,5.90147,9.66,-0.79,1.51,3.0
1758088346.48219,1758088343.94639,0.0,0.0,0.0,-20.62648,-7.79223,6.87549,9.95,-0.92,1.3,3.0
1758088346.49942,1758088343.95639,0.0,0.0,0.0,-18.27736,1.94806,7.62034,9.95,-0.92,1.3,3.0
1758088346.5007,1758088343.96639,0.0,0.0,0.0,-16.21471,11.97482,8.136,10.1,-1.07,1.16,3.0
1758088346.51517,1758088343.97639,0.0,0.0,0.0,-14.09476,21.6578,8.65166,10.1,-1.07,1.16,3.0
1758088346.51639,1758088343.98639,0.0,0.0,0.0,-11.45916,35.58068,9.11003,10.11,-1.09,1.18,3.0
1758088346.53247,1758088343.99639,0.0,0.0,0.0,-10.25595,43.37291,9.33921,10.07,-0.98,1.27,3.0
1758088346.54849,1758088344.00639,0.0,0.0,0.0,-9.5684,48.8733,9.05273,10.07,-0.98,1.27,3.0
1758088346.54941,1758088344.01639,0.0,0.0,0.0,-9.5684,51.73809,7.84952,9.86,-0.75,1.49,3.0
1758088346.56579,1758088344.02639,0.0,0.0,0.0,-10.8862,48.9879,5.4431,9.86,-0.75,1.49,3.0
1758088346.56707,1758088344.03639,0.0,0.0,0.0,-11.57375,45.72203,3.95341,9.64,-0.58,1.66,3.0
1758088346.58243,1758088344.04639,0.0,0.0,0.0,-12.54778,43.20102,2.92208,9.64,-0.58,1.66,3.0
1758088346.59851,1758088344.05639,0.0,0.0,0.0,-13.69369,41.59674,2.06265,9.84,-0.53,1.48,3.0
1758088346.60048,1758088344.06639,0.0,0.0,0.0,-15.24068,40.27893,1.66158,9.66,-0.58,1.58,3.0
1758088346.61547,1758088344.07639,0.0,0.0,0.0,-15.87093,38.44547,1.83346,9.66,-0.58,1.58,3.0
1758088346.61644,1758088344.08639,0.0,0.0,0.0,-16.10011,37.35685,2.46372,9.2,-0.71,1.82,3.0
1758088346.63225,1758088344.09639,0.0,0.0,0.0,-15.87093,37.01308,3.32316,9.2,-0.71,1.82,3.0
1758088346.64902,1758088344.10639,0.0,0.0,0.0,-15.06879,37.87251,4.64096,9.11,-0.9,1.75,3.0
1758088346.6518,1758088344.11639,0.0,0.0,0.0,-14.43854,38.73195,5.50039,9.11,-0.9,1.75,3.0
1758088346.67456,1758088344.12639,0.0,0.0,0.0,-13.80828,39.19032,6.07335,9.0,-0.99,1.7,3.0
1758088346.67609,1758088344.13639,0.0,0.0,0.0,-12.60507,39.07573,6.24524,9.0,-0.99,1.7,3.0
1758088346.67651,1758088344.14639,0.0,0.0,0.0,-11.86023,39.4195,6.07335,8.85,-1.01,1.78,3.0
1758088346.69328,1758088344.15639,0.0,0.0,0.0,-11.17268,39.3622,5.50039,8.85,-0.97,1.69,3.0
1758088346.7092,1758088344.16639,0.0,0.0,0.0,-10.65701,39.4195,4.87014,8.85,-0.97,1.69,3.0
1758088346.7104,1758088344.17639,0.0,0.0,0.0,-10.08406,38.73195,3.38045,8.77,-0.9,1.74,3.0
1758088346.72549,1758088344.18639,0.0,0.0,0.0,-9.91217,37.64333,2.34913,8.77,-0.9,1.74,3.0
1758088346.72666,1758088344.19639,0.0,0.0,0.0,-9.91217,36.15364,1.60428,8.65,-0.81,1.8,3.0
1758088346.74348,1758088344.20639,0.0,0.0,0.0,-9.85487,34.60666,1.03132,8.65,-0.81,1.8,3.0
1758088346.75926,1758088344.21639,0.0,0.0,0.0,-9.62569,31.91375,0.51566,8.67,-0.74,1.83,3.0
1758088346.76121,1758088344.22639,0.0,0.0,0.0,-9.5684,29.56462,0.11459,8.72,-0.75,1.85,3.0
1758088346.77672,1758088344.23639,0.0,0.0,0.0,-9.28192,26.12688,0.34377,8.72,-0.75,1.85,3.0
1758088346.77748,1758088344.24639,0.0,0.0,0.0,-9.05273,20.11082,0.85944,8.62,-0.84,2.0,3.0
1758088346.79225,1758088344.25639,0.0,0.0,0.0,-8.42248,8.136,2.63561,8.62,-0.84,2.0,3.0
1758088346.80852,1758088344.26639,0.0,0.0,0.0,-7.21927,3.95341,4.64096,8.63,-1.07,1.85,3.0
1758088346.80949,1758088344.27639,0.0,0.0,0.0,-6.24524,3.72423,5.95876,8.63,-1.07,1.85,3.0
1758088346.82428,1758088344.28639,0.0,0.0,0.0,-5.32851,3.89611,7.62034,9.32,-1.35,1.5,3.0
1758088346.84029,1758088344.29639,0.0,0.0,0.0,-3.66693,3.49504,9.5684,9.41,-1.4,1.87,3.0
1758088346.84145,1758088344.30639,0.0,0.0,0.0,-2.34913,2.63561,10.65701,9.41,-1.4,1.87,3.0
1758088346.85651,1758088344.31639,0.0,0.0,0.0,-1.14592,1.60428,11.51645,9.6,-1.36,1.94,3.0
1758088346.85745,1758088344.32639,0.0,0.0,0.0,0.80214,1.3178,11.86023,9.6,-1.36,1.94,3.0
1758088346.87224,1758088344.33639,0.0,0.0,0.0,2.63561,2.23454,12.08941,9.82,-1.37,1.73,3.0
1758088346.88827,1758088344.34639,0.0,0.0,0.0,4.81285,3.26586,12.37589,9.82,-1.37,1.73,3.0
1758088346.88946,1758088344.35639,0.0,0.0,0.0,7.10468,1.60428,12.204,9.89,-1.47,1.55,3.0
1758088346.9045,1758088344.36639,0.0,0.0,0.0,9.85487,-6.7609,10.37054,9.89,-1.47,1.55,3.0
1758088346.92025,1758088344.37639,0.0,0.0,0.0,11.45916,-9.68299,7.84952,9.39,-1.56,1.52,3.0
1758088346.92145,1758088344.38639,0.0,0.0,0.0,12.89155,-0.40107,4.23989,10.65,-1.67,1.51,3.0
1758088346.93626,1758088344.39639,0.0,0.0,0.0,17.01685,21.48592,1.48969,10.65,-1.67,1.51,3.0
1758088346.9375,1758088344.40639,0.0,0.0,0.0,19.99623,22.28806,0.68755,11.46,-1.83,3.37,3.0
1758088346.95255,1758088344.41639,0.0,0.0,0.0,16.04282,-0.40107,3.49504,11.46,-1.83,3.37,3.0
1758088346.96854,1758088344.42639,0.0,0.0,0.0,14.09476,-23.60586,8.136,9.32,-1.5,5.63,3.0
1758088346.9695,1758088344.43639,0.0,0.0,0.0,14.9542,-38.56006,18.62113,9.32,-1.5,5.63,3.0
1758088346.98426,1758088344.44639,0.0,0.0,0.0,12.89155,-22.00158,25.89769,12.67,-1.57,4.6,3.0
1758088347.00054,1758088344.45639,0.0,0.0,0.0,11.11538,-1.48969,29.04896,15.43,-1.46,2.04,3.0
1758088347.00149,1758088344.46639,0.0,0.0,0.0,10.37054,3.95341,26.98631,15.43,-1.46,2.04,3.0
1758088347.01655,1758088344.47639,0.0,0.0,0.0,10.48513,3.66693,22.28806,12.49,-1.5,3.68,3.0
1758088347.01749,1758088344.48639,0.0,0.0,0.0,9.91217,9.91217,10.19865,12.49,-1.5,3.68,3.0
1758088347.03254,1758088344.49639,0.0,0.0,0.0,9.68299,16.272,1.71887,12.64,-1.58,4.46,3.0
1758088347.04852,1758088344.50639,0.0,0.0,0.0,9.91217,20.74107,-5.90147,12.64,-1.58,4.46,3.0
1758088347.04944,1758088344.51639,0.0,0.0,0.0,11.11538,22.23076,-12.49048,12.41,-1.19,4.28,3.0
1758088347.06451,1758088344.52639,0.0,0.0,0.0,14.9542,19.70975,-13.06344,11.67,-1.21,4.29,3.0
1758088347.08041,1758088344.53639,0.0,0.0,0.0,17.81899,15.64175,-11.45916,11.67,-1.21,4.29,3.0
1758088347.08146,1758088344.54639,0.0,0.0,0.0,20.62648,10.71431,-8.76626,10.71,-1.55,3.73,3.0
1758088347.09625,1758088344.55639,0.0,0.0,0.0,25.38203,3.49504,-4.87014,10.71,-1.55,3.73,3.0
1758088347.09765,1758088344.56639,0.0,0.0,0.0,28.41871,0.45837,-2.40642,9.8,-1.8,3.22,3.0
1758088347.11229,1758088344.57639,0.0,0.0,0.0,31.39809,-2.40642,-0.17189,9.8,-1.8,3.22,3.0
1758088347.1283,1758088344.58639,0.0,0.0,0.0,34.09099,-6.8182,1.71887,8.77,-1.63,3.25,3.0
1758088347.12948,1758088344.59639,0.0,0.0,0.0,36.89849,-15.12609,4.52637,8.77,-1.63,3.48,3.0
1758088347.14454,1758088344.60639,0.0,0.0,0.0,37.81522,-21.94428,5.78687,7.53,-1.12,3.48,3.0
1758088347.16054,1758088344.61639,0.0,0.0,0.0,37.58603,-28.93437,6.58902,6.83,-0.57,3.37,3.0
1758088347.16148,1758088344.62639,0.0,0.0,0.0,36.61201,-35.69527,7.16197,6.83,-0.57,3.37,3.0
1758088347.17644,1758088344.63639,0.0,0.0,0.0,34.0337,-41.94051,7.16197,6.84,-0.08,3.1,3.0
1758088347.17745,1758088344.64639,0.0,0.0,0.0,32.14294,-43.37291,7.39116,6.84,-0.08,3.1,3.0
1758088347.19254,1758088344.65639,0.0,0.0,0.0,30.02299,-44.57612,7.33386,7.57,0.25,3.01,3.0
1758088347.20832,1758088344.66639,0.0,0.0,0.0,27.96034,-46.35228,7.04738,7.57,0.25,3.01,3.0
1758088347.20951,1758088344.67639,0.0,0.0,0.0,25.89769,-48.24305,6.8182,7.91,0.38,3.07,3.0
1758088347.22438,1758088344.68639,0.0,0.0,0.0,25.21014,-47.95657,6.7609,8.45,0.2,3.13,3.0
1758088347.24064,1758088344.69639,0.0,0.0,0.0,24.92367,-46.86795,6.41713,8.45,0.2,3.13,3.0
1758088347.24152,1758088344.70639,0.0,0.0,0.0,25.09555,-44.51882,5.90147,8.95,-0.08,3.14,3.0
1758088347.25652,1758088344.71639,0.0,0.0,0.0,25.26744,-38.27358,4.29718,8.95,-0.08,3.14,3.0
1758088347.25752,1758088344.72639,0.0,0.0,0.0,25.61122,-33.86181,2.86479,9.22,-0.22,3.1,3.0
1758088347.2726,1758088344.73639,0.0,0.0,0.0,25.72581,-29.33544,1.43239,9.22,-0.22,3.1,3.0
1758088347.28831,1758088344.74639,0.0,0.0,0.0,25.55392,-22.40265,-0.74485,9.15,-0.21,2.84,3.0
1758088347.28947,1758088344.75639,0.0,0.0,0.0,25.26744,-17.81899,-2.00535,9.13,-0.12,2.7,3.0
1758088347.30436,1758088344.76639,0.0,0.0,0.0,24.57989,-13.00614,-2.86479,9.13,-0.12,2.7,3.0
1758088347.32029,1758088344.77639,0.0,0.0,0.0,23.83505,-8.47978,-3.20856,9.24,-0.01,2.51,3.0
1758088347.32151,1758088344.78639,0.0,0.0,0.0,22.57454,-1.83346,-2.97938,9.24,-0.01,2.51,3.0
1758088347.33649,1758088344.79639,0.0,0.0,0.0,21.94428,1.60428,-2.34913,9.44,0.0,2.46,3.0
1758088347.33752,1758088344.80639,0.0,0.0,0.0,21.08485,5.4431,-1.60428,9.44,0.0,2.46,3.0
1758088347.35258,1758088344.81639,0.0,0.0,0.0,20.34,9.33921,-0.97403,9.52,-0.03,2.43,3.0
1758088347.36857,1758088344.82639,0.0,0.0,0.0,19.70975,15.12609,-0.17189,9.46,-0.1,2.46,3.0
1758088347.37114,1758088344.83639,0.0,0.0,0.0,19.53786,17.81899,0.0,9.46,-0.1,2.46,3.0
1758088347.38633,1758088344.84639,0.0,0.0,0.0,19.19409,20.79837,-0.22918,9.31,-0.14,2.58,3.0
1758088347.38777,1758088344.85639,0.0,0.0,0.0,19.13679,23.60586,-0.68755,9.31,-0.14,2.58,3.0
1758088347.40261,1758088344.86639,0.0,0.0,0.0,19.13679,24.63719,-1.60428,9.19,-0.09,2.61,3.0
1758088347.41868,1758088344.87639,0.0,0.0,0.0,19.07949,24.63719,-2.00535,9.19,-0.09,2.61,3.0
1758088347.42041,1758088344.88639,0.0,0.0,0.0,19.07949,25.38203,-2.46372,9.13,-0.01,2.69,3.0
1758088347.43558,1758088344.89639,0.0,0.0,0.0,19.25138,25.15285,-2.63561,9.13,-0.01,2.69,3.0
1758088347.4365,1758088344.90639,0.0,0.0,0.0,19.36597,22.68913,-2.6929,9.17,0.04,2.62,3.0
1758088347.45328,1758088344.91639,0.0,0.0,0.0,19.36597,21.08485,-2.23454,9.11,0.04,2.64,3.0
1758088347.46935,1758088344.92639,0.0,0.0,0.0,19.19409,19.59516,-1.71887,9.11,0.04,2.64,3.0
1758088347.4705,1758088344.93639,0.0,0.0,0.0,18.56383,17.36062,-0.85944,9.12,0.0,2.61,3.0
1758088347.4853,1758088344.94639,0.0,0.0,0.0,18.22006,14.32395,-0.22918,9.12,0.0,2.61,3.0
1758088347.48648,1758088344.95639,0.0,0.0,0.0,17.30333,11.97482,0.0,9.03,0.01,2.6,3.0
1758088347.50258,1758088344.96639,0.0,0.0,0.0,16.21471,9.91217,0.0,9.03,0.01,2.6,3.0
1758088347.51859,1758088344.97639,0.0,0.0,0.0,13.46451,4.64096,-2.06265,8.92,0.14,2.71,3.0
1758088347.51954,1758088344.98639,0.0,0.0,0.0,11.57375,0.0573,-3.55234,8.56,0.44,2.41,3.0
1758088347.53434,1758088344.99639,0.0,0.0,0.0,9.96947,-3.89611,-5.21392,8.56,0.44,2.41,3.0
1758088347.55059,1758088345.00639,0.0,0.0,0.0,8.88085,-7.04738,-6.41713,8.61,0.7,2.24,3.0
1758088347.55187,1758088345.01639,0.0,0.0,0.0,7.96411,-11.34457,-7.62034,8.61,0.7,2.24,3.0
1758088347.56653,1758088345.02639,0.0,0.0,0.0,8.02141,-14.20935,-7.73493,8.7,0.62,2.11,3.0
1758088347.56782,1758088345.03639,0.0,0.0,0.0,8.59437,-16.73037,-6.87549,8.7,0.62,2.11,3.0
1758088347.5826,1758088345.04639,0.0,0.0,0.0,9.22462,-18.73572,-5.72958,8.84,0.21,2.03,3.0
1758088347.59867,1758088345.05639,0.0,0.0,0.0,10.54242,-20.74107,-3.72423,9.03,-0.24,2.03,3.0
1758088347.60004,1758088345.06639,0.0,0.0,0.0,11.51645,-21.02755,-2.63561,9.03,-0.24,2.03,3.0
1758088347.61427,1758088345.07639,0.0,0.0,0.0,11.63104,-19.82434,-2.23454,9.21,-0.5,2.05,3.0
1758088347.63057,1758088345.08639,0.0,0.0,0.0,11.74564,-17.93358,-2.34913,9.21,-0.5,2.05,3.0
1758088347.63151,1758088345.09639,0.0,0.0,0.0,10.8862,-15.0115,-3.49504,9.19,-0.34,1.92,3.0
1758088347.64637,1758088345.10639,0.0,0.0,0.0,10.08406,-12.71966,-4.23989,9.19,-0.34,1.92,3.0
1758088347.64783,1758088345.11639,0.0,0.0,0.0,8.88085,-10.71431,-5.09932,9.17,0.07,1.76,3.0
1758088347.66257,1758088345.12639,0.0,0.0,0.0,7.33386,-8.30789,-5.78687,9.17,0.07,1.76,3.0
1758088347.67859,1758088345.13639,0.0,0.0,0.0,4.92744,-4.64096,-5.72958,9.24,0.44,1.56,3.0
1758088347.67958,1758088345.14639,0.0,0.0,0.0,3.38045,-2.29183,-5.21392,9.36,0.5,1.49,3.0
1758088347.69434,1758088345.15639,0.0,0.0,0.0,1.94806,0.17189,-4.29718,9.36,0.5,1.49,3.0
1758088347.71033,1758088345.16639,0.0,0.0,0.0,0.34377,4.18259,-2.63561,9.48,0.3,1.55,3.0
1758088347.71155,1758088345.17639,0.0,0.0,0.0,-0.68755,6.24524,-2.40642,9.48,0.3,1.55,3.0
1758088347.7263,1758088345.18639,0.0,0.0,0.0,-0.57296,1.71887,-2.86479,9.53,0.08,2.0,3.0
1758088347.72751,1758088345.19639,0.0,0.0,0.0,-1.43239,-2.57831,-3.55234,9.53,0.08,2.0,3.0
1758088347.7426,1758088345.20639,0.0,0.0,0.0,-2.57831,-3.89611,-5.90147,9.28,0.04,1.85,3.0
1758088347.75877,1758088345.21639,0.0,0.0,0.0,-3.49504,-1.3751,-7.73493,9.87,0.21,1.71,3.0
1758088347.75997,1758088345.22639,0.0,0.0,0.0,-3.89611,0.40107,-9.74028,9.87,0.21,1.71,3.0
1758088347.77457,1758088345.23639,0.0,0.0,0.0,-4.64096,1.48969,-11.51645,9.74,0.39,1.52,3.0
1758088347.79052,1758088345.24639,0.0,0.0,0.0,-7.50575,3.83882,-13.86558,9.74,0.39,1.52,3.0
1758088347.79178,1758088345.25639,0.0,0.0,0.0,-9.5684,4.98473,-15.12609,9.75,0.6,1.72,3.0
1758088347.80635,1758088345.26639,0.0,0.0,0.0,-11.45916,6.41713,-15.46986,9.75,0.6,1.72,3.0
1758088347.80761,1758088345.27639,0.0,0.0,0.0,-13.46451,6.99009,-16.38659,9.64,0.74,1.21,3.0
1758088347.82233,1758088345.28639,0.0,0.0,0.0,-15.35527,4.23989,-14.9542,9.4,0.65,1.05,3.0
1758088347.83831,1758088345.29639,0.0,0.0,0.0,-16.272,1.60428,-13.00614,9.4,0.65,1.05,3.0
1758088347.84036,1758088345.30639,0.0,0.0,0.0,-16.90226,-0.40107,-10.02676,9.38,0.28,0.9,3.0
1758088347.85592,1758088345.31639,0.0,0.0,0.0,-17.13144,-2.40642,-6.58902,9.38,0.28,0.9,3.0
1758088347.85652,1758088345.32639,0.0,0.0,0.0,-17.47521,-7.21927,-1.94806,9.62,-0.12,1.24,3.0
1758088347.87239,1758088345.33639,0.0,0.0,0.0,-17.99088,7.67763,-0.45837,9.62,-0.12,1.24,3.0
1758088347.8887,1758088345.34639,0.0,0.0,0.0,-18.10547,25.43933,-2.46372,11.87,-0.22,1.76,3.0
1758088347.88954,1758088345.35639,0.0,0.0,0.0,-16.95955,34.14828,-3.32316,11.87,-0.22,1.76,3.0
1758088347.90461,1758088345.36639,0.0,0.0,0.0,-16.21471,-13.00614,-4.58366,11.13,0.21,2.5,3.0
1758088347.92043,1758088345.37639,0.0,0.0,0.0,-22.91831,-49.90463,-19.82434,7.4,1.17,4.99,3.0
1758088347.92158,1758088345.38639,0.0,0.0,0.0,-22.86102,-26.12688,-24.57989,7.4,1.17,4.99,3.0
1758088347.93673,1758088345.39639,0.0,0.0,0.0,-18.56383,24.4653,-22.68913,16.4,1.37,0.75,3.0
1758088347.93758,1758088345.40639,0.0,0.0,0.0,-17.58981,20.05352,-18.9649,16.4,1.37,0.75,3.0
1758088347.95249,1758088345.41639,0.0,0.0,0.0,-18.27736,13.12073,-14.43854,10.32,0.71,0.9,3.0
1758088347.96879,1758088345.42639,0.0,0.0,0.0,-18.90761,20.85567,-8.99544,10.32,0.71,0.9,3.0
1758088347.97039,1758088345.43639,0.0,0.0,0.0,-19.59516,32.71589,0.40107,12.3,-0.16,3.25,3.0
1758088347.9857,1758088345.44639,0.0,0.0,0.0,-21.25674,34.09099,5.21392,12.65,-0.22,2.76,3.0
1758088347.98652,1758088345.45639,0.0,0.0,0.0,-22.05888,32.14294,9.22462,12.65,-0.22,2.76,3.0
1758088348.00244,1758088345.46639,0.0,0.0,0.0,-22.28806,28.70519,10.94349,12.83,0.17,4.47,3.0
1758088348.0184,1758088345.47639,0.0,0.0,0.0,-20.68378,25.49662,11.11538,12.83,0.17,4.47,3.0
1758088348.01958,1758088345.48639,0.0,0.0,0.0,-19.25138,23.83505,8.88085,13.18,0.53,3.32,3.0
1758088348.03468,1758088345.49639,0.0,0.0,0.0,-17.93358,22.23076,5.61499,13.18,0.53,3.32,3.0
1758088348.05074,1758088345.50639,0.0,0.0,0.0,-16.95955,19.42327,2.06265,13.15,0.66,3.68,3.0
1758088348.05155,1758088345.51639,0.0,0.0,0.0,-16.55848,14.83961,-2.34913,12.44,0.76,3.55,3.0
1758088348.06643,1758088345.52639,0.0,0.0,0.0,-17.18874,10.37054,-4.18259,12.44,0.76,3.55,3.0
1758088348.06758,1758088345.53639,0.0,0.0,0.0,-18.62113,4.35448,-5.09932,11.26,0.82,3.67,3.0
1758088348.08241,1758088345.54639,0.0,0.0,0.0,-21.02755,-3.03668,-5.32851,11.26,0.82,3.67,3.0
1758088348.09969,1758088345.55639,0.0,0.0,0.0,-25.61122,-13.5218,-5.27121,9.85,0.75,3.48,3.0
1758088348.10054,1758088345.56639,0.0,0.0,0.0,-29.10626,-19.70975,-5.21392,9.85,0.75,3.48,3.0
1758088348.11567,1758088345.57639,0.0,0.0,0.0,-32.54401,-26.01229,-5.27121,8.78,0.51,3.26,3.0
1758088348.1168,1758088345.58639,0.0,0.0,0.0,-37.01308,-34.49206,-5.55769,8.78,0.51,3.26,3.0
1758088348.13247,1758088345.59639,0.0,0.0,0.0,-39.13302,-39.82057,-5.78687,8.05,0.24,3.16,3.0
1758088348.14866,1758088345.60639,0.0,0.0,0.0,-40.33623,-46.00851,-5.84417,7.68,-0.06,2.97,3.0
1758088348.15037,1758088345.61639,0.0,0.0,0.0,-40.7946,-53.11319,-5.95876,7.68,-0.06,2.97,3.0
1758088348.16543,1758088345.62639,0.0,0.0,0.0,-40.10705,-62.28051,-5.78687,7.42,-0.42,2.7,3.0
1758088348.16655,1758088345.63639,0.0,0.0,0.0,-39.13302,-66.11933,-6.41713,7.42,-0.42,2.7,3.0
1758088348.18263,1758088345.64639,0.0,0.0,0.0,-37.81522,-68.41116,-7.10468,7.65,-0.78,2.5,3.0
1758088348.19845,1758088345.65639,0.0,0.0,0.0,-36.26823,-69.3279,-8.30789,7.65,-0.78,2.5,3.0
1758088348.19953,1758088345.66639,0.0,0.0,0.0,-34.72124,-70.76029,-10.8289,7.78,-0.99,2.4,3.0
1758088348.21439,1758088345.67639,0.0,0.0,0.0,-33.80451,-70.87489,-12.49048,7.77,-1.01,2.37,3.0
1758088348.23067,1758088345.68639,0.0,0.0,0.0,-32.83048,-70.58841,-13.80828,7.77,-1.01,2.37,3.0
1758088348.23189,1758088345.69639,0.0,0.0,0.0,-32.14294,-69.21331,-14.83961,8.03,-0.83,2.23,3.0
1758088348.24656,1758088345.70639,0.0,0.0,0.0,-30.88243,-64.22858,-14.15206,8.03,-0.83,2.23,3.0
1758088348.24793,1758088345.71639,0.0,0.0,0.0,-30.25217,-59.07195,-12.49048,8.78,-0.62,2.0,3.0
1758088348.26269,1758088345.72639,0.0,0.0,0.0,-29.56462,-53.51426,-9.96947,8.78,-0.62,2.0,3.0
1758088348.27845,1758088345.73639,0.0,0.0,0.0,-28.59059,-47.26902,-6.7609,9.35,-0.66,1.96,3.0
1758088348.27985,1758088345.74639,0.0,0.0,0.0,-27.1582,-36.55471,-1.94806,9.81,-0.84,1.93,3.0
1758088348.29443,1758088345.75639,0.0,0.0,0.0,-26.35606,-28.41871,1.43239,9.81,-0.84,1.93,3.0
1758088348.3107,1758088345.76639,0.0,0.0,0.0,-25.38203,-19.59516,4.18259,10.11,-0.92,1.68,3.0
1758088348.31185,1758088345.77639,0.0,0.0,0.0,-23.72045,-6.58902,7.67763,10.11,-0.92,1.68,3.0
1758088348.32645,1758088345.78639,0.0,0.0,0.0,-22.68913,2.06265,9.22462,10.2,-0.9,1.36,3.0
1758088348.32787,1758088345.79639,0.0,0.0,0.0,-21.6578,10.37054,9.74028,10.2,-0.9,1.36,3.0
1758088348.34243,1758088345.80639,0.0,0.0,0.0,-20.79837,18.33465,10.19865,10.3,-0.86,1.3,3.0
1758088348.36038,1758088345.81639,0.0,0.0,0.0,-19.99623,30.88243,9.4538,10.3,-0.86,1.21,3.0
1758088348.36137,1758088345.82639,0.0,0.0,0.0,-19.76705,39.07573,8.47978,10.41,-0.78,1.21,3.0
1758088348.3764,1758088345.83639,0.0,0.0,0.0,-19.76705,47.26902,7.62034,10.47,-0.69,1.27,3.0
1758088348.37753,1758088345.84639,0.0,0.0,0.0,-20.11082,52.884,6.24524,10.47,-0.69,1.27,3.0
1758088348.39243,1758088345.85639,0.0,0.0,0.0,-21.48592,55.7488,3.95341,10.02,-0.54,1.43,3.0
1758088348.41016,1758088345.86639,0.0,0.0,0.0,-22.11617,57.52497,2.34913,10.02,-0.54,1.43,3.0
1758088348.41131,1758088345.87639,0.0,0.0,0.0,-23.0329,59.64491,0.80214,10.04,-0.47,1.47,3.0
1758088348.42643,1758088345.88639,0.0,0.0,0.0,-24.12152,61.53567,-0.68755,10.04,-0.47,1.47,3.0
1758088348.42759,1758088345.89639,0.0,0.0,0.0,-25.15285,59.87409,-1.3751,10.01,-0.45,1.54,3.0
1758088348.44268,1758088345.90639,0.0,0.0,0.0,-25.21014,57.23849,-1.03132,9.28,-0.49,1.71,3.0
1758088348.45842,1758088345.91639,0.0,0.0,0.0,-25.09555,54.25911,0.11459,9.28,-0.49,1.71,3.0
1758088348.46061,1758088345.92639,0.0,0.0,0.0,-24.63719,51.39432,1.14592,8.86,-0.71,1.63,3.0
1758088348.47542,1758088345.93639,0.0,0.0,0.0,-24.00693,48.64412,2.63561,8.86,-0.71,1.63,3.0
1758088348.4766,1758088345.94639,0.0,0.0,0.0,-23.26209,47.78468,3.38045,8.77,-0.93,1.7,3.0
1758088348.49266,1758088345.95639,0.0,0.0,0.0,-22.34536,46.52417,3.89611,8.77,-0.93,1.7,3.0
1758088348.5085,1758088345.96639,0.0,0.0,0.0,-20.74107,44.86259,4.58366,8.6,-1.08,1.76,3.0
1758088348.50963,1758088345.97639,0.0,0.0,0.0,-19.59516,43.14373,4.81285,8.48,-1.08,1.77,3.0
1758088348.52465,1758088345.98639,0.0,0.0,0.0,-18.50654,42.34158,4.81285,8.48,-1.08,1.77,3.0
1758088348.54043,1758088345.99639,0.0,0.0,0.0,-17.6471,41.08107,4.58366,8.39,-0.96,1.78,3.0
1758088348.54164,1758088346.00639,0.0,0.0,0.0,-16.3293,37.98711,3.72423,8.39,-0.96,1.78,3.0
1758088348.55647,1758088346.01639,0.0,0.0,0.0,-15.64175,35.86716,3.09397,8.26,-0.86,1.79,3.0
1758088348.55764,1758088346.02639,0.0,0.0,0.0,-15.0115,33.86181,2.34913,8.26,-0.86,1.79,3.0
1758088348.57282,1758088346.03639,0.0,0.0,0.0,-14.32395,30.82513,1.94806,8.36,-0.8,1.81,3.0
1758088348.58846,1758088346.04639,0.0,0.0,0.0,-13.5791,24.35071,0.74485,8.27,-0.8,1.79,3.0
1758088348.58965,1758088346.05639,0.0,0.0,0.0,-13.12073,20.62648,0.22918,8.27,-0.81,1.79,3.0
1758088348.60444,1758088346.06639,0.0,0.0,0.0,-12.60507,16.84496,-0.17189,8.45,-0.87,1.91,3.0
1758088348.62039,1758088346.07639,0.0,0.0,0.0,-12.204,11.51645,-0.51566,8.45,-0.87,1.91,3.0
1758088348.62162,1758088346.08639,0.0,0.0,0.0,-11.34457,4.52637,-0.51566,8.46,-0.93,1.88,3.0
1758088348.63667,1758088346.09639,0.0,0.0,0.0,-10.19865,2.23454,0.22918,8.46,-0.93,1.88,3.0
1758088348.63762,1758088346.10639,0.0,0.0,0.0,-8.76626,5.95876,0.80214,9.05,-1.09,1.95,3.0
1758088348.65244,1758088346.11639,0.0,0.0,0.0,-6.99009,14.03747,2.23454,9.05,-1.09,1.95,3.0
1758088348.66844,1758088346.12639,0.0,0.0,0.0,-4.29718,21.37133,4.0107,9.84,-1.32,1.84,3.0
1758088348.66966,1758088346.13639,0.0,0.0,0.0,-2.46372,21.7151,5.27121,9.32,-1.39,2.25,3.0
1758088348.68448,1758088346.14639,0.0,0.0,0.0,-0.45837,21.6578,6.7609,9.32,-1.39,2.25,3.0
1758088348.70068,1758088346.15639,0.0,0.0,0.0,1.48969,21.7151,8.99544,9.56,-1.42,2.32,3.0
1758088348.70168,1758088346.16639,0.0,0.0,0.0,4.92744,20.51189,10.31324,9.56,-1.42,2.32,3.0
1758088348.71673,1758088346.17639,0.0,0.0,0.0,7.50575,21.25674,11.97482,9.86,-1.55,1.97,3.0
1758088348.71768,1758088346.18639,0.0,0.0,0.0,10.65701,22.00158,13.80828,9.86,-1.55,1.97,3.0
1758088348.73273,1758088346.19639,0.0,0.0,0.0,15.69904,18.16276,16.21471,10.17,-1.74,2.2,3.0
1758088348.74867,1758088346.20639,0.0,0.0,0.0,18.85031,10.48513,16.50119,9.67,-1.82,2.19,3.0
1758088348.7505,1758088346.21639,0.0,0.0,0.0,20.51189,0.45837,14.72501,9.67,-1.82,2.19,3.0
1758088348.76568,1758088346.22639,0.0,0.0,0.0,23.54857,-9.91217,9.05273,9.02,-1.78,2.32,3.0
1758088348.76696,1758088346.23639,0.0,0.0,0.0,28.76248,-7.84952,7.44845,9.02,-1.78,2.32,3.0
1758088348.78273,1758088346.24639,0.0,0.0,0.0,25.55392,3.55234,7.44845,11.31,-1.54,3.83,3.0
1758088348.79874,1758088346.25639,0.0,0.0,0.0,19.42327,6.07335,8.42248,11.31,-1.54,3.83,3.0
1758088348.8005,1758088346.26639,0.0,0.0,0.0,15.12609,-12.71966,13.23533,12.03,0.0,7.85,3.0
1758088348.81547,1758088346.27639,0.0,0.0,0.0,6.87549,-29.22085,18.56383,12.23,0.22,4.34,3.0
1758088348.81669,1758088346.28639,0.0,0.0,0.0,2.63561,-22.05888,20.97026,12.23,0.22,4.34,3.0
1758088348.84075,1758088346.29639,0.0,0.0,0.0,0.0573,-15.24068,18.90761,14.22,-0.96,3.9,3.0
1758088348.85276,1758088346.30639,0.0,0.0,0.0,0.22918,-15.75634,14.32395,14.22,-0.96,3.9,3.0
1758088348.85499,1758088346.31639,0.0,0.0,0.0,4.29718,-17.36062,6.47442,11.71,-2.38,3.86,3.0
1758088348.85943,1758088346.32639,0.0,0.0,0.0,6.53172,-11.86023,0.40107,11.71,-2.38,3.86,3.0
1758088348.87573,1758088346.33639,0.0,0.0,0.0,8.30789,-8.0787,-5.61499,12.49,-2.2,5.85,3.0
1758088348.87668,1758088346.34639,0.0,0.0,0.0,9.68299,-7.79223,-9.33921,12.49,-2.2,5.85,3.0
1758088348.89252,1758088346.35639,0.0,0.0,0.0,11.45916,-5.72958,-9.28192,11.62,-1.09,4.76,3.0
1758088348.90876,1758088346.36639,0.0,0.0,0.0,12.49048,-5.4431,-7.50575,11.06,-0.62,4.37,3.0
1758088348.90965,1758088346.37639,0.0,0.0,0.0,14.09476,-8.30789,-4.98473,11.06,-0.62,4.37,3.0
1758088348.92476,1758088346.38639,0.0,0.0,0.0,17.53251,-13.5791,-1.03132,9.38,-0.84,3.34,3.0
1758088348.94077,1758088346.39639,0.0,0.0,0.0,20.16812,-15.06879,1.71887,9.38,-0.84,3.34,3.0
1758088348.9417,1758088346.40639,0.0,0.0,0.0,22.86102,-16.73037,3.95341,8.46,-1.14,3.19,3.0
1758088348.95685,1758088346.41639,0.0,0.0,0.0,25.43933,-20.79837,6.07335,8.46,-1.14,3.19,3.0
1758088348.95763,1758088346.42639,0.0,0.0,0.0,28.13223,-26.35606,8.59437,7.28,-1.07,3.13,3.0
1758088348.97274,1758088346.43639,0.0,0.0,0.0,28.64789,-28.99167,9.22462,7.06,-0.74,3.34,3.0
1758088348.98875,1758088346.44639,0.0,0.0,0.0,27.96034,-30.82513,9.05273,7.06,-0.74,3.34,3.0
1758088348.98965,1758088346.45639,0.0,0.0,0.0,26.12688,-33.00237,7.84952,7.16,-0.23,3.36,3.0
1758088349.00476,1758088346.46639,0.0,0.0,0.0,21.7151,-33.86181,5.09932,7.16,-0.23,3.36,3.0
1758088349.02057,1758088346.47639,0.0,0.0,0.0,18.16276,-33.51803,2.86479,7.63,0.34,3.38,3.0
1758088349.02167,1758088346.48639,0.0,0.0,0.0,14.61043,-33.46074,0.34377,7.63,0.34,3.38,3.0
1758088349.03696,1758088346.49639,0.0,0.0,0.0,11.57375,-33.68992,-1.66158,8.07,0.6,3.34,3.0
1758088349.0377,1758088346.50639,0.0,0.0,0.0,9.05273,-33.05967,-3.55234,8.7,0.35,3.4,3.0
1758088349.05258,1758088346.51639,0.0,0.0,0.0,8.47978,-31.2262,-4.0107,8.7,0.35,3.4,3.0
1758088349.06883,1758088346.52639,0.0,0.0,0.0,8.59437,-29.04896,-4.1253,9.42,-0.11,3.43,3.0
1758088349.07085,1758088346.53639,0.0,0.0,0.0,9.28192,-25.38203,-4.1253,9.42,-0.11,3.43,3.0
1758088349.08576,1758088346.54639,0.0,0.0,0.0,10.8862,-17.53251,-3.95341,9.81,-0.48,3.25,3.0
1758088349.08668,1758088346.55639,0.0,0.0,0.0,11.91752,-12.2613,-3.72423,9.81,-0.48,3.25,3.0
1758088349.10253,1758088346.56639,0.0,0.0,0.0,12.60507,-7.44845,-4.0107,9.6,-0.57,3.1,3.0
1758088349.11874,1758088346.57639,0.0,0.0,0.0,13.5791,-3.26586,-4.23989,9.6,-0.57,3.1,3.0
1758088349.1205,1758088346.58639,0.0,0.0,0.0,13.75099,1.83346,-4.35448,9.24,-0.46,2.93,3.0
1758088349.13599,1758088346.59639,0.0,0.0,0.0,13.80828,5.15662,-4.69825,9.24,-0.29,2.83,3.0
1758088349.13668,1758088346.60639,0.0,0.0,0.0,13.98017,8.47978,-4.87014,9.24,-0.29,2.83,3.0
1758088349.15282,1758088346.61639,0.0,0.0,0.0,13.80828,12.204,-5.09932,9.33,-0.17,2.75,3.0
1758088349.16881,1758088346.62639,0.0,0.0,0.0,13.86558,13.5791,-5.27121,9.33,-0.17,2.75,3.0
1758088349.16969,1758088346.63639,0.0,0.0,0.0,14.38124,14.72501,-5.4431,9.18,-0.21,2.72,3.0
1758088349.18482,1758088346.64639,0.0,0.0,0.0,14.9542,15.58445,-5.09932,9.18,-0.21,2.72,3.0
1758088349.2005,1758088346.65639,0.0,0.0,0.0,15.75634,15.64175,-5.15662,9.11,-0.29,2.75,3.0
1758088349.20169,1758088346.66639,0.0,0.0,0.0,16.38659,15.35527,-4.81285,8.93,-0.3,2.7,3.0
1758088349.21678,1758088346.67639,0.0,0.0,0.0,16.90226,14.72501,-4.58366,8.93,-0.3,2.7,3.0
1758088349.21768,1758088346.68639,0.0,0.0,0.0,17.18874,13.98017,-4.52637,8.94,-0.24,2.79,3.0
1758088349.23253,1758088346.69639,0.0,0.0,0.0,17.36062,11.86023,-4.58366,8.94,-0.24,2.79,3.0
1758088349.24865,1758088346.70639,0.0,0.0,0.0,17.13144,10.65701,-4.87014,8.92,-0.12,2.68,3.0
1758088349.2497,1758088346.71639,0.0,0.0,0.0,16.90226,9.5684,-5.09932,8.92,-0.12,2.68,3.0
1758088349.26452,1758088346.72639,0.0,0.0,0.0,16.61578,9.22462,-5.27121,9.0,0.0,2.62,3.0
1758088349.28055,1758088346.73639,0.0,0.0,0.0,15.75634,8.70896,-5.32851,9.05,0.06,2.52,3.0
1758088349.28172,1758088346.74639,0.0,0.0,0.0,15.35527,8.136,-5.09932,9.05,0.06,2.52,3.0
1758088349.29677,1758088346.75639,0.0,0.0,0.0,14.9542,8.02141,-5.09932,9.03,0.05,2.55,3.0
1758088349.29876,1758088346.76639,0.0,0.0,0.0,13.98017,7.67763,-5.61499,9.03,0.05,2.55,3.0
1758088349.31361,1758088346.77639,0.0,0.0,0.0,12.54778,6.53172,-6.41713,8.99,0.08,2.58,3.0
1758088349.32978,1758088346.78639,0.0,0.0,0.0,11.86023,6.07335,-7.84952,8.99,0.08,2.58,3.0
1758088349.33103,1758088346.79639,0.0,0.0,0.0,11.17268,4.81285,-9.11003,8.85,0.22,2.25,3.0
1758088349.34656,1758088346.80639,0.0,0.0,0.0,10.8862,3.38045,-10.25595,8.85,0.22,2.25,3.0
1758088349.34757,1758088346.81639,0.0,0.0,0.0,11.00079,2.63561,-10.02676,8.81,0.26,2.29,3.0
1758088349.36282,1758088346.82639,0.0,0.0,0.0,11.34457,1.43239,-9.22462,8.78,0.11,2.11,3.0
1758088349.37981,1758088346.83639,0.0,0.0,0.0,11.63104,0.97403,-7.96411,8.78,0.11,2.11,3.0
1758088349.38077,1758088346.84639,0.0,0.0,0.0,11.97482,0.57296,-5.50039,8.88,-0.12,2.15,3.0
1758088349.39557,1758088346.85639,0.0,0.0,0.0,11.97482,0.80214,-3.89611,8.88,-0.12,2.15,3.0
1758088349.39677,1758088346.86639,0.0,0.0,0.0,11.91752,0.80214,-2.86479,8.98,-0.25,2.19,3.0
1758088349.4126,1758088346.87639,0.0,0.0,0.0,11.63104,0.97403,-2.29183,8.98,-0.25,2.19,3.0
1758088349.4297,1758088346.88639,0.0,0.0,0.0,11.22997,2.00535,-1.94806,8.96,-0.16,2.15,3.0
1758088349.43079,1758088346.89639,0.0,0.0,0.0,10.59972,1.83346,-2.23454,8.88,0.1,2.12,3.0
1758088349.44559,1758088346.90639,0.0,0.0,0.0,9.96947,2.06265,-2.40642,8.88,0.1,2.12,3.0
1758088349.44675,1758088346.91639,0.0,0.0,0.0,8.99544,2.06265,-3.03668,8.91,0.36,1.99,3.0
1758088349.46261,1758088346.92639,0.0,0.0,0.0,7.21927,2.29183,-3.60963,8.91,0.36,1.99,3.0
1758088349.47882,1758088346.93639,0.0,0.0,0.0,5.90147,2.86479,-3.83882,9.06,0.47,1.92,3.0
1758088349.48053,1758088346.94639,0.0,0.0,0.0,4.81285,3.09397,-3.55234,9.06,0.47,1.92,3.0
1758088349.49587,1758088346.95639,0.0,0.0,0.0,3.72423,3.60963,-2.92208,9.15,0.34,1.95,3.0
1758088349.49676,1758088346.96639,0.0,0.0,0.0,2.40642,3.60963,-1.03132,9.28,0.14,2.1,3.0
1758088349.51258,1758088346.97639,0.0,0.0,0.0,1.43239,4.98473,-0.68755,9.28,0.14,2.1,3.0
1758088349.52886,1758088346.98639,0.0,0.0,0.0,0.85944,4.35448,-2.00535,9.37,0.1,2.34,3.0
1758088349.53059,1758088346.99639,0.0,0.0,0.0,0.74485,0.85944,-2.46372,9.37,0.1,2.34,3.0
1758088349.54565,1758088347.00639,0.0,0.0,0.0,-0.45837,0.80214,-4.52637,9.18,0.26,1.89,3.0
1758088349.54675,1758088347.01639,0.0,0.0,0.0,-1.03132,-1.71887,-5.4431,9.18,0.26,1.89,3.0
1758088349.56284,1758088347.02639,0.0,0.0,0.0,-1.94806,-3.60963,-6.7609,9.03,0.45,2.09,3.0
1758088349.5786,1758088347.03639,0.0,0.0,0.0,-3.38045,-3.83882,-8.65166,9.03,0.45,2.09,3.0
1758088349.58058,1758088347.04639,0.0,0.0,0.0,-4.92744,-3.09397,-10.54242,9.36,0.57,1.72,3.0
1758088349.5967,1758088347.05639,0.0,0.0,0.0,-7.10468,-2.23454,-11.63104,9.67,0.71,1.71,3.0
1758088349.59758,1758088347.06639,0.0,0.0,0.0,-8.59437,-2.06265,-12.71966,9.67,0.71,1.71,3.0
1758088349.61275,1758088347.07639,0.0,0.0,0.0,-9.96947,-4.0107,-12.43318,9.81,0.85,1.65,3.0
1758088349.62884,1758088347.08639,0.0,0.0,0.0,-10.65701,-6.87549,-11.11538,9.81,0.85,1.65,3.0
1758088349.62981,1758088347.09639,0.0,0.0,0.0,-11.45916,-9.96947,-8.65166,9.76,0.67,1.48,3.0
1758088349.64488,1758088347.10639,0.0,0.0,0.0,-11.74564,-13.17803,-5.61499,9.76,0.67,1.48,3.0
1758088349.66064,1758088347.11639,0.0,0.0,0.0,-13.00614,-13.40721,-0.34377,10.11,0.36,1.63,3.0
1758088349.66179,1758088347.12639,0.0,0.0,0.0,-13.80828,-1.3751,1.83346,11.68,0.12,2.09,3.0
1758088349.67695,1758088347.13639,0.0,0.0,0.0,-14.43854,21.60051,0.97403,11.68,0.12,2.09,3.0
1758088349.67782,1758088347.14639,0.0,0.0,0.0,-13.46451,20.51189,3.89611,11.86,0.26,2.98,3.0
1758088349.6926,1758088347.15639,0.0,0.0,0.0,-14.38124,-35.92446,-3.20856,11.86,0.26,2.98,3.0
1758088349.70887,1758088347.16639,0.0,0.0,0.0,-19.53786,-45.09178,-16.272,8.4,1.16,5.26,3.0
1758088349.70985,1758088347.17639,0.0,0.0,0.0,-19.36597,-15.0115,-19.88164,8.4,1.16,5.26,3.0
1758088349.72468,1758088347.18639,0.0,0.0,0.0,-17.13144,8.65166,-19.13679,15.88,1.5,2.41,3.0
1758088349.74071,1758088347.19639,0.0,0.0,0.0,-17.87628,13.80828,-15.92823,12.13,0.81,1.8,3.0
1758088349.74183,1758088347.20639,0.0,0.0,0.0,-19.25138,19.99623,-11.11538,12.13,0.81,1.8,3.0
1758088349.75698,1758088347.21639,0.0,0.0,0.0,-20.74107,27.33009,-4.87014,13.25,-0.14,4.49,3.0
1758088349.75783,1758088347.22639,0.0,0.0,0.0,-24.12152,31.2262,5.55769,13.25,-0.14,4.49,3.0
1758088349.77264,1758088347.23639,0.0,0.0,0.0,-26.47065,33.34615,10.59972,13.23,-0.19,3.62,3.0
1758088349.7887,1758088347.24639,0.0,0.0,0.0,-27.84575,33.11696,13.40721,13.23,-0.19,3.62,3.0
1758088349.79063,1758088347.25639,0.0,0.0,0.0,-28.30412,27.1582,13.98017,12.96,0.27,4.79,3.0
1758088349.8059,1758088347.26639,0.0,0.0,0.0,-27.2155,18.85031,10.8862,12.24,0.27,4.22,3.0
1758088349.80713,1758088347.27639,0.0,0.0,0.0,-26.06958,15.24068,7.84952,12.24,0.71,4.22,3.0
1758088349.82265,1758088347.28639,0.0,0.0,0.0,-24.98096,11.74564,4.46907,11.93,0.9,4.09,3.0
1758088349.83861,1758088347.29639,0.0,0.0,0.0,-24.4653,6.41713,1.48969,11.93,0.9,4.09,3.0
1758088349.84067,1758088347.30639,0.0,0.0,0.0,-25.38203,-4.64096,-2.29183,10.31,0.78,3.74,3.0
1758088349.85561,1758088347.31639,0.0,0.0,0.0,-27.10091,-12.83425,-4.29718,10.31,0.78,3.74,3.0
1758088349.85706,1758088347.32639,0.0,0.0,0.0,-29.62192,-21.02755,-5.72958,8.97,0.4,3.72,3.0
1758088349.87289,1758088347.33639,0.0,0.0,0.0,-32.54401,-29.22085,-6.47442,8.97,0.4,3.72,3.0
1758088349.88955,1758088347.34639,0.0,0.0,0.0,-36.26823,-39.4768,-6.47442,8.25,0.06,3.55,3.0
1758088349.89064,1758088347.35639,0.0,0.0,0.0,-37.64333,-45.26366,-5.50039,7.93,-0.18,3.32,3.0
1758088349.90593,1758088347.36639,0.0,0.0,0.0,-38.38818,-50.53488,-4.35448,7.93,-0.18,3.32,3.0
1758088349.90682,1758088347.37639,0.0,0.0,0.0,-38.44547,-55.86338,-3.20856,7.53,-0.49,3.18,3.0
1758088349.92268,1758088347.38639,0.0,0.0,0.0,-37.47144,-61.30648,-2.57831,7.53,-0.49,3.18,3.0
1758088349.93898,1758088347.39639,0.0,0.0,0.0,-36.38282,-63.94209,-3.09397,7.36,-0.75,2.9,3.0
1758088349.94013,1758088347.40639,0.0,0.0,0.0,-35.2942,-66.34852,-4.29718,7.36,-0.75,2.9,3.0
1758088349.95492,1758088347.41639,0.0,0.0,0.0,-33.17426,-68.98412,-7.16197,7.29,-0.88,2.64,3.0
1758088349.97109,1758088347.42639,0.0,0.0,0.0,-31.56997,-69.84356,-8.93814,7.45,-0.81,2.51,3.0
1758088349.97188,1758088347.43639,0.0,0.0,0.0,-29.8511,-69.90086,-10.31324,7.45,-0.81,2.51,3.0
1758088349.98664,1758088347.44639,0.0,0.0,0.0,-27.96034,-68.75494,-10.59972,7.99,-0.63,2.29,3.0
1758088349.98814,1758088347.45639,0.0,0.0,0.0,-25.55392,-62.62429,-9.74028,7.99,-0.63,2.29,3.0
1758088350.00344,1758088347.46639,0.0,0.0,0.0,-24.4653,-56.55093,-8.36518,8.81,-0.55,2.05,3.0
1758088350.01992,1758088347.47639,0.0,0.0,0.0,-23.83505,-50.1911,-6.53172,8.81,-0.55,2.05,3.0
1758088350.02084,1758088347.48639,0.0,0.0,0.0,-23.49127,-43.88857,-4.23989,9.07,-0.64,1.95,3.0
1758088350.03563,1758088347.49639,0.0,0.0,0.0,-23.0902,-34.32018,-0.97403,9.05,-0.85,1.83,3.0
1758088350.03684,1758088347.50639,0.0,0.0,0.0,-22.68913,-26.81443,1.60428,9.05,-0.85,1.83,3.0
1758088350.05268,1758088347.51639,0.0,0.0,0.0,-21.94428,-18.22006,3.32316,9.44,-1.08,1.62,3.0
1758088350.0689,1758088347.52639,0.0,0.0,0.0,-20.97026,-10.25595,4.92744,9.44,-1.08,1.62,3.0
1758088350.0699,1758088347.53639,0.0,0.0,0.0,-19.19409,1.94806,6.7609,9.66,-1.13,1.49,3.0
1758088350.08484,1758088347.54639,0.0,0.0,0.0,-17.87628,10.71431,7.73493,9.66,-1.13,1.49,3.0
1758088350.10081,1758088347.55639,0.0,0.0,0.0,-16.61578,18.85031,8.36518,9.93,-1.0,1.47,3.0
1758088350.10189,1758088347.56639,0.0,0.0,0.0,-15.58445,26.69983,8.65166,9.93,-1.0,1.47,3.0
1758088350.11694,1758088347.57639,0.0,0.0,0.0,-14.38124,38.84654,8.47978,10.07,-0.83,1.5,3.0
1758088350.1179,1758088347.58639,0.0,0.0,0.0,-14.15206,44.9199,8.02141,10.1,-0.69,1.67,3.0
1758088350.13298,1758088347.59639,0.0,0.0,0.0,-13.86558,48.12846,7.33386,10.1,-0.69,1.67,3.0
1758088350.14868,1758088347.60639,0.0,0.0,0.0,-14.32395,49.96192,5.32851,9.82,-0.6,1.83,3.0
1758088350.16724,1758088347.61639,0.0,0.0,0.0,-14.83961,53.28508,3.55234,9.82,-0.6,1.83,3.0
1758088350.16748,1758088347.62639,0.0,0.0,0.0,-15.64175,54.3164,1.71887,10.03,-0.55,1.69,3.0
1758088350.18098,1758088347.63639,0.0,0.0,0.0,-16.38659,52.82671,0.45837,10.03,-0.55,1.69,3.0
1758088350.18192,1758088347.64639,0.0,0.0,0.0,-16.90226,49.21708,-0.74485,9.54,-0.53,1.87,3.0
1758088350.19673,1758088347.65639,0.0,0.0,0.0,-17.24603,46.69606,-0.74485,9.21,-0.58,1.78,3.0
1758088350.19843,1758088347.66639,0.0,0.0,0.0,-17.30333,45.43555,-0.34377,9.21,-0.58,1.78,3.0
1758088350.21275,1758088347.67639,0.0,0.0,0.0,-17.18874,44.11775,0.34377,9.09,-0.73,1.97,3.0
1758088350.22898,1758088347.68639,0.0,0.0,0.0,-16.73037,41.71133,1.94806,9.09,-0.73,1.97,3.0
1758088350.23096,1758088347.69639,0.0,0.0,0.0,-16.04282,40.16434,3.20856,8.78,-0.9,2.03,3.0
1758088350.24592,1758088347.70639,0.0,0.0,0.0,-15.41257,39.24761,4.35448,8.78,-0.9,2.03,3.0
1758088350.24715,1758088347.71639,0.0,0.0,0.0,-14.61043,38.84654,5.4431,8.67,-1.01,2.0,3.0
1758088350.2627,1758088347.72639,0.0,0.0,0.0,-13.80828,38.27358,6.41713,8.56,-0.99,1.85,3.0
1758088350.27893,1758088347.73639,0.0,0.0,0.0,-13.23533,36.7266,6.53172,8.56,-0.99,1.85,3.0
1758088350.28069,1758088347.74639,0.0,0.0,0.0,-13.06344,34.14828,6.13065,8.4,-0.86,1.94,3.0
1758088350.29574,1758088347.75639,0.0,0.0,0.0,-13.06344,32.08564,5.27121,8.4,-0.86,1.94,3.0
1758088350.29692,1758088347.76639,0.0,0.0,0.0,-13.17803,29.96569,3.60963,8.6,-0.68,1.89,3.0
1758088350.31398,1758088347.77639,0.0,0.0,0.0,-13.69369,26.52795,2.23454,8.6,-0.68,1.89,3.0
1758088350.33127,1758088347.78639,0.0,0.0,0.0,-14.09476,22.57454,0.80214,8.44,-0.5,1.99,3.0
1758088350.37057,1758088347.79639,0.0,0.0,0.0,-14.49583,18.85031,-0.68755,8.44,-0.5,1.99,3.0
1758088350.37117,1758088347.80639,0.0,0.0,0.0,-15.58445,11.00079,-1.60428,8.43,-0.41,2.02,3.0
1758088350.37242,1758088347.81639,0.0,0.0,0.0,-16.10011,2.23454,-1.66158,8.12,-0.44,2.07,3.0
1758088350.37383,1758088347.82639,0.0,0.0,0.0,-16.04282,-7.33386,-0.80214,8.12,-0.44,2.07,3.0
1758088350.37527,1758088347.83639,0.0,0.0,0.0,-15.0115,-7.04738,-0.34377,8.53,-0.72,1.73,3.0
1758088350.39174,1758088347.84639,0.0,0.0,0.0,-14.20935,-0.45837,-0.11459,8.53,-0.72,1.73,3.0
1758088350.39271,1758088347.85639,0.0,0.0,0.0,-13.06344,7.16197,0.0,9.46,-1.15,1.65,3.0
1758088350.40961,1758088347.86639,0.0,0.0,0.0,-11.74564,14.72501,0.45837,9.46,-1.15,1.65,3.0
1758088350.4123,1758088347.87639,0.0,0.0,0.0,-9.22462,17.47521,2.34913,9.6,-1.25,2.45,3.0
1758088350.42793,1758088347.88639,0.0,0.0,0.0,-7.21927,16.04282,3.60963,9.04,-1.16,2.33,3.0
1758088350.42893,1758088347.89639,0.0,0.0,0.0,-5.55769,14.49583,4.81285,9.04,-1.16,2.33,3.0
1758088350.44397,1758088347.90639,0.0,0.0,0.0,-4.1253,12.60507,5.72958,9.1,-1.21,2.02,3.0
1758088350.46057,1758088347.91639,0.0,0.0,0.0,-2.00535,11.45916,6.70361,9.1,-1.21,2.02,3.0
1758088350.4617,1758088347.92639,0.0,0.0,0.0,-0.51566,12.71966,7.67763,9.4,-1.32,1.8,3.0
1758088350.47697,1758088347.93639,0.0,0.0,0.0,1.14592,14.32395,9.33921,9.4,-1.32,1.8,3.0
1758088350.47788,1758088347.94639,0.0,0.0,0.0,3.83882,14.61043,10.59972,9.78,-1.5,2.09,3.0
1758088350.49274,1758088347.95639,0.0,0.0,0.0,7.04738,7.10468,12.204,9.37,-1.67,1.86,3.0
1758088350.50898,1758088347.96639,0.0,0.0,0.0,8.36518,2.92208,11.11538,9.37,-1.67,1.86,3.0
1758088350.51074,1758088347.97639,0.0,0.0,0.0,10.59972,7.10468,9.11003,10.14,-1.66,1.74,3.0
1758088350.52569,1758088347.98639,0.0,0.0,0.0,13.17803,25.61122,7.44845,10.14,-1.66,1.74,3.0
1758088350.52726,1758088347.99639,0.0,0.0,0.0,17.24603,55.97798,5.32851,12.48,-1.54,1.97,3.0
1758088350.54302,1758088348.00639,0.0,0.0,0.0,17.30333,55.29043,-0.68755,12.48,-1.54,1.97,3.0
1758088350.55898,1758088348.01639,0.0,0.0,0.0,14.32395,5.61499,-0.11459,9.09,-1.0,5.27,3.0
1758088350.56069,1758088348.02639,0.0,0.0,0.0,12.08941,-36.38282,13.5791,9.09,-1.0,5.27,3.0
1758088350.57597,1758088348.03639,0.0,0.0,0.0,7.04738,-23.49127,20.68378,9.76,-1.17,4.88,3.0
1758088350.57692,1758088348.04639,0.0,0.0,0.0,1.43239,-5.27121,22.05888,15.91,-1.13,3.91,3.0
1758088350.59298,1758088348.05639,0.0,0.0,0.0,-0.68755,4.35448,24.98096,15.91,-1.13,3.91,3.0
1758088350.60954,1758088348.06639,0.0,0.0,0.0,-7.21927,17.81899,18.56383,13.83,-0.73,2.34,3.0
1758088350.61079,1758088348.07639,0.0,0.0,0.0,-11.51645,24.5226,11.00079,13.83,-0.73,2.34,3.0
1758088350.62571,1758088348.08639,0.0,0.0,0.0,-13.5791,28.41871,2.46372,13.24,-0.31,5.78,3.0
1758088350.627,1758088348.09639,0.0,0.0,0.0,-14.38124,32.25753,-6.47442,13.24,-0.31,5.78,3.0
1758088350.64376,1758088348.10639,0.0,0.0,0.0,-13.12073,36.89849,-15.64175,12.48,-0.3,4.28,3.0
1758088350.65973,1758088348.11639,0.0,0.0,0.0,-10.8862,34.95043,-17.58981,12.14,-0.65,5.54,3.0
1758088350.66091,1758088348.12639,0.0,0.0,0.0,-8.59437,29.33544,-17.24603,12.14,-0.65,5.54,3.0
1758088350.67576,1758088348.13639,0.0,0.0,0.0,-6.53172,23.60586,-14.20935,10.97,-1.26,4.4,3.0
1758088350.67697,1758088348.14639,0.0,0.0,0.0,-4.0107,18.44924,-9.11003,10.97,-1.26,4.4,3.0
1758088350.69301,1758088348.15639,0.0,0.0,0.0,-1.83346,16.272,-5.4431,10.38,-1.98,4.51,3.0
1758088350.70976,1758088348.16639,0.0,0.0,0.0,0.57296,12.83425,-2.11994,10.38,-1.98,4.51,3.0
1758088350.71075,1758088348.17639,0.0,0.0,0.0,2.6929,10.31324,0.97403,9.32,-2.13,4.07,3.0
