timeStamp,timeStampAlign,roll,pitch,yaw,gyro_x,gyro_y,gyro_z,acc_x,acc_y,acc_z,flag_num
1758077942.05534,1758077941.26567,0.0,0.0,0.0,13.5791,2.29183,-2.7502,9.83,0.33,-0.38,2.0
1758077942.05885,1758077941.27567,0.0,0.0,0.0,13.98017,-13.23533,-3.66693,9.83,0.33,-0.38,2.0
1758077942.07423,1758077941.28567,0.0,0.0,0.0,13.98017,-18.44924,-2.34913,10.53,-0.32,0.94,2.0
1758077942.08029,1758077941.29567,0.0,0.0,0.0,12.49048,-9.11003,1.3178,10.53,-0.32,0.94,2.0
1758077942.13564,1758077941.30567,0.0,0.0,0.0,8.0787,18.22006,3.66693,14.22,-0.39,2.28,2.0
1758077942.13978,1758077941.31567,0.0,0.0,0.0,4.52637,25.43933,4.29718,12.64,0.45,2.51,2.0
1758077942.14015,1758077941.32567,0.0,0.0,0.0,3.20856,23.94964,3.95341,12.64,0.45,2.51,2.0
1758077942.14122,1758077941.33567,0.0,0.0,0.0,3.32316,19.70975,2.6929,8.51,1.12,2.93,2.0
1758077942.14175,1758077941.34567,0.0,0.0,0.0,7.44845,20.62648,2.06265,8.51,1.12,2.93,2.0
1758077942.14488,1758077941.35567,0.0,0.0,0.0,11.57375,23.60586,1.71887,8.45,1.09,2.16,2.0
1758077942.14527,1758077941.36567,0.0,0.0,0.0,16.04282,24.35071,1.3751,8.45,1.09,2.16,2.0
1758077942.18786,1758077941.37567,0.0,0.0,0.0,20.34,25.72581,0.74485,8.78,0.54,2.4,2.0
1758077942.19496,1758077941.38567,0.0,0.0,0.0,25.09555,27.50197,-1.48969,9.47,0.12,1.79,2.0
1758077942.20006,1758077941.39567,0.0,0.0,0.0,27.04361,27.61657,-2.97938,9.47,0.12,1.79,2.0
1758077942.21003,1758077941.40567,0.0,0.0,0.0,28.59059,27.44468,-4.35448,9.79,0.13,1.26,2.0
1758077942.2155,1758077941.41567,0.0,0.0,0.0,29.56462,25.38203,-5.32851,9.79,0.13,1.26,2.0
1758077942.21906,1758077941.42567,0.0,0.0,0.0,29.39274,21.7151,-6.99009,9.59,0.56,0.9,2.0
1758077942.21968,1758077941.43567,0.0,0.0,0.0,28.76248,19.42327,-7.73493,9.59,0.56,0.9,2.0
1758077942.23558,1758077941.44567,0.0,0.0,0.0,28.13223,21.02755,-8.30789,9.18,1.05,0.76,2.0
1758077942.23899,1758077941.45567,0.0,0.0,0.0,27.33009,23.49127,-8.30789,9.18,1.05,0.76,2.0
1758077942.25549,1758077941.46567,0.0,0.0,0.0,25.49662,26.52795,-8.47978,9.18,1.35,1.04,2.0
1758077942.25641,1758077941.47567,0.0,0.0,0.0,23.66316,25.43933,-8.65166,8.66,1.38,1.41,2.0
1758077942.27252,1758077941.48567,0.0,0.0,0.0,22.00158,22.23076,-8.93814,8.66,1.38,1.41,2.0
1758077942.2777,1758077941.49567,0.0,0.0,0.0,19.70975,16.38659,-9.39651,8.26,1.19,1.43,2.0
1758077942.29353,1758077941.50567,0.0,0.0,0.0,18.50654,12.71966,-9.4538,8.26,1.19,1.43,2.0
1758077942.29605,1758077941.51567,0.0,0.0,0.0,17.93358,9.85487,-9.5684,8.34,0.85,1.37,2.0
1758077942.31229,1758077941.52567,0.0,0.0,0.0,17.93358,6.8182,-9.33921,8.34,0.85,1.37,2.0
1758077942.31904,1758077941.53567,0.0,0.0,0.0,18.62113,1.83346,-8.70896,8.53,0.52,1.34,2.0
1758077942.33527,1758077941.54567,0.0,0.0,0.0,19.53786,-0.45837,-8.02141,8.79,0.28,1.31,2.0
1758077942.33645,1758077941.55567,0.0,0.0,0.0,20.68378,-2.00535,-7.33386,8.79,0.28,1.31,2.0
1758077942.35234,1758077941.56567,0.0,0.0,0.0,21.7724,-3.49504,-6.41713,9.09,0.21,1.18,2.0
1758077942.35931,1758077941.57567,0.0,0.0,0.0,23.54857,-3.38045,-5.21392,9.09,0.21,1.18,2.0
1758077942.40255,1758077941.58567,0.0,0.0,0.0,24.5226,-2.7502,-4.58366,9.42,0.31,1.12,2.0
1758077942.40733,1758077941.59567,0.0,0.0,0.0,25.38203,-1.3751,-3.95341,9.42,0.31,1.12,2.0
1758077942.4091,1758077941.60567,0.0,0.0,0.0,26.06958,0.57296,-3.32316,9.68,0.44,0.96,2.0
1758077942.41264,1758077941.61567,0.0,0.0,0.0,26.52795,4.87014,-2.57831,9.95,0.55,0.78,2.0
1758077942.41626,1758077941.62567,0.0,0.0,0.0,26.64254,8.02141,-1.94806,9.95,0.55,0.78,2.0
1758077942.47955,1758077941.63567,0.0,0.0,0.0,26.18417,10.8862,-1.08862,10.16,0.62,0.62,2.0
1758077942.47988,1758077941.64567,0.0,0.0,0.0,25.49662,13.98017,-0.45837,10.16,0.62,0.62,2.0
1758077942.48066,1758077941.65567,0.0,0.0,0.0,24.17882,17.36062,0.80214,10.22,0.74,0.5,2.0
1758077942.48492,1758077941.66567,0.0,0.0,0.0,23.0902,18.73572,1.66158,10.22,0.74,0.5,2.0
1758077942.48566,1758077941.67567,0.0,0.0,0.0,21.60051,20.45459,2.00535,10.16,0.97,0.43,2.0
1758077942.48762,1758077941.68567,0.0,0.0,0.0,19.70975,23.89234,3.20856,10.16,0.97,0.43,2.0
1758077942.48834,1758077941.69567,0.0,0.0,0.0,18.27736,26.87172,4.18259,10.37,1.17,0.17,2.0
1758077942.49026,1758077941.70567,0.0,0.0,0.0,16.61578,27.04361,4.87014,10.07,1.21,0.0,2.0
1758077942.50688,1758077941.71567,0.0,0.0,0.0,15.0115,26.01229,5.72958,10.07,1.21,0.0,2.0
1758077942.50807,1758077941.72567,0.0,0.0,0.0,12.14671,23.60586,6.99009,9.84,1.18,-0.33,2.0
1758077942.5227,1758077941.73567,0.0,0.0,0.0,10.25595,21.08485,7.73493,9.84,1.18,-0.33,2.0
1758077942.52695,1758077941.74567,0.0,0.0,0.0,8.30789,17.87628,8.42248,9.67,1.21,-0.46,2.0
1758077942.5429,1758077941.75567,0.0,0.0,0.0,6.53172,13.98017,9.11003,9.67,1.21,-0.46,2.0
1758077942.54618,1758077941.76567,0.0,0.0,0.0,4.29718,6.99009,9.96947,9.46,1.32,-0.5,2.0
1758077942.56591,1758077941.77567,0.0,0.0,0.0,2.97938,1.94806,10.37054,9.34,1.4,-0.49,2.0
1758077942.57075,1758077941.78567,0.0,0.0,0.0,1.71887,-3.89611,11.00079,9.34,1.4,-0.49,2.0
1758077942.61285,1758077941.79567,0.0,0.0,0.0,0.22918,-10.65701,11.74564,9.16,1.24,-0.69,2.0
1758077942.61401,1758077941.80567,0.0,0.0,0.0,-3.20856,-20.3973,12.204,9.16,1.24,-0.69,2.0
1758077942.61436,1758077941.81567,0.0,0.0,0.0,-6.70361,-25.55392,13.12073,9.14,0.68,-0.95,2.0
1758077942.6159,1758077941.82567,0.0,0.0,0.0,-11.17268,-30.76784,13.98017,9.14,0.68,-0.95,2.0
1758077942.6162,1758077941.83567,0.0,0.0,0.0,-15.98552,-35.40879,15.06879,9.49,0.52,-0.26,2.0
1758077942.63522,1758077941.84567,0.0,0.0,0.0,-21.42862,-39.99245,15.35527,11.86,0.5,1.41,2.0
1758077942.63673,1758077941.85567,0.0,0.0,0.0,-22.34536,-42.1124,13.69369,11.86,0.5,1.41,2.0
1758077942.65168,1758077941.86567,0.0,0.0,0.0,-20.45459,-43.60209,10.31324,14.48,0.39,4.33,2.0
1758077942.67471,1758077941.87567,0.0,0.0,0.0,-17.47521,-49.38896,-0.11459,14.48,0.39,4.33,2.0
1758077942.67588,1758077941.88567,0.0,0.0,0.0,-9.62569,-52.65482,-7.62034,15.43,0.18,5.03,2.0
1758077942.67694,1758077941.89567,0.0,0.0,0.0,-4.87014,-50.87865,-12.43318,15.43,0.18,5.03,2.0
1758077942.69189,1758077941.90567,0.0,0.0,0.0,-2.00535,-47.67009,-14.03747,12.05,-0.06,3.07,2.0
1758077942.69865,1758077941.91567,0.0,0.0,0.0,-1.83346,-44.00316,-13.06344,12.05,-0.06,3.07,2.0
1758077942.7137,1758077941.92567,0.0,0.0,0.0,-2.34913,-50.363,-10.94349,7.67,-0.13,2.3,2.0
1758077942.71657,1758077941.93567,0.0,0.0,0.0,-4.69825,-67.55173,-7.84952,5.02,-0.42,1.65,2.0
1758077942.73165,1758077941.94567,0.0,0.0,0.0,-6.35983,-75.57314,-1.66158,5.02,-0.42,1.65,2.0
1758077942.73555,1758077941.95567,0.0,0.0,0.0,-9.68299,-58.26981,5.09932,8.17,-0.76,1.38,2.0
1758077942.75105,1758077941.96567,0.0,0.0,0.0,-11.51645,-45.26366,8.88085,8.17,-0.76,1.38,2.0
1758077942.78065,1758077941.97567,0.0,0.0,0.0,-13.46451,-35.98175,10.54242,11.08,-0.98,1.81,2.0
1758077942.78588,1758077941.98567,0.0,0.0,0.0,-13.80828,-22.00158,11.34457,11.08,-0.98,1.81,2.0
1758077942.78747,1758077941.99567,0.0,0.0,0.0,-12.71966,-5.72958,11.28727,11.59,-1.0,1.49,2.0
1758077942.79085,1758077942.00567,0.0,0.0,0.0,-11.97482,-0.22918,10.08406,10.41,-0.56,0.84,2.0
1758077942.80577,1758077942.01567,0.0,0.0,0.0,-10.8862,0.0,8.136,10.41,-0.56,0.84,2.0
1758077942.80812,1758077942.02567,0.0,0.0,0.0,-10.65701,0.34377,5.50039,9.49,-0.23,0.79,2.0
1758077942.82596,1758077942.03567,0.0,0.0,0.0,-10.19865,5.21392,2.40642,9.49,-0.23,0.79,2.0
1758077942.82793,1758077942.04567,0.0,0.0,0.0,-9.5684,10.65701,1.60428,10.14,-0.23,0.76,2.0
1758077942.84297,1758077942.05567,0.0,0.0,0.0,-8.99544,17.18874,1.66158,10.14,-0.23,0.76,2.0
1758077942.84718,1758077942.06567,0.0,0.0,0.0,-8.59437,23.0902,2.00535,10.16,-0.69,0.82,2.0
1758077942.86295,1758077942.07567,0.0,0.0,0.0,-8.30789,26.01229,3.32316,9.48,-1.06,0.84,2.0
1758077942.86481,1758077942.08567,0.0,0.0,0.0,-8.02141,23.0329,3.89611,9.48,-1.06,0.84,2.0
1758077942.88007,1758077942.09567,0.0,0.0,0.0,-7.79223,18.16276,4.58366,8.72,-1.26,0.81,2.0
1758077942.89865,1758077942.10567,0.0,0.0,0.0,-7.04738,12.08941,5.32851,8.72,-1.26,0.81,2.0
1758077942.89994,1758077942.11567,0.0,0.0,0.0,-5.95876,5.90147,5.78687,8.76,-1.25,0.56,2.0
1758077942.91475,1758077942.12567,0.0,0.0,0.0,-4.92744,2.46372,5.72958,8.76,-1.25,0.56,2.0
1758077942.91882,1758077942.13567,0.0,0.0,0.0,-4.0107,-0.40107,5.61499,8.93,-1.16,0.56,2.0
1758077942.9586,1758077942.14567,0.0,0.0,0.0,-2.06265,3.83882,4.81285,8.93,-1.16,0.56,2.0
1758077942.96058,1758077942.15567,0.0,0.0,0.0,-0.45837,12.71966,4.58366,9.52,-1.07,0.68,2.0
1758077942.96163,1758077942.16567,0.0,0.0,0.0,1.03132,18.90761,3.95341,10.07,-1.07,0.91,2.0
1758077942.96555,1758077942.17567,0.0,0.0,0.0,2.11994,18.85031,3.20856,10.07,-1.07,0.91,2.0
1758077942.96625,1758077942.18567,0.0,0.0,0.0,3.09397,13.17803,1.60428,8.97,-0.96,0.98,2.0
1758077942.98414,1758077942.19567,0.0,0.0,0.0,3.95341,8.65166,0.51566,8.97,-0.96,0.98,2.0
1758077942.98587,1758077942.20567,0.0,0.0,0.0,4.58366,5.78687,-0.0573,9.03,-0.89,0.33,2.0
1758077943.00116,1758077942.21567,0.0,0.0,0.0,5.21392,3.89611,-0.57296,9.03,-0.89,0.33,2.0
1758077943.00398,1758077942.22567,0.0,0.0,0.0,6.18794,12.49048,-1.14592,9.67,-0.93,0.15,2.0
1758077943.02121,1758077942.23567,0.0,0.0,0.0,6.18794,20.74107,-2.34913,10.72,-0.89,0.29,2.0
1758077943.02569,1758077942.24567,0.0,0.0,0.0,6.07335,23.31938,-3.38045,10.72,-0.89,0.29,2.0
1758077943.04119,1758077942.25567,0.0,0.0,0.0,6.47442,22.28806,-3.95341,9.79,-0.84,0.6,2.0
1758077943.04489,1758077942.26567,0.0,0.0,0.0,7.79223,20.45459,-4.46907,9.79,-0.84,0.6,2.0
1758077943.06019,1758077942.27567,0.0,0.0,0.0,8.42248,19.76705,-4.81285,9.69,-0.9,-0.04,2.0
1758077943.07621,1758077942.28567,0.0,0.0,0.0,9.5684,18.56383,-4.98473,9.69,-0.9,-0.04,2.0
1758077943.07735,1758077942.29567,0.0,0.0,0.0,11.00079,16.50119,-4.92744,9.64,-1.04,-0.24,2.0
1758077943.09379,1758077942.30567,0.0,0.0,0.0,14.03747,11.34457,-4.64096,9.4,-1.29,-0.25,2.0
1758077943.09468,1758077942.31567,0.0,0.0,0.0,16.73037,6.53172,-4.35448,9.4,-1.29,-0.25,2.0
1758077943.1102,1758077942.32567,0.0,0.0,0.0,19.59516,0.40107,-3.95341,9.1,-1.64,-0.43,2.0
1758077943.12621,1758077942.33567,0.0,0.0,0.0,23.49127,-10.8862,-3.20856,9.1,-1.64,-0.43,2.0
1758077943.12666,1758077942.34567,0.0,0.0,0.0,25.72581,-18.9649,-2.6929,8.86,-2.0,-0.5,2.0
1758077943.14271,1758077942.35567,0.0,0.0,0.0,27.44468,-26.69983,-2.00535,8.86,-2.0,-0.5,2.0
1758077943.14628,1758077942.36567,0.0,0.0,0.0,28.93437,-30.99702,-1.14592,9.21,-1.99,-0.43,2.0
1758077943.18394,1758077942.37567,0.0,0.0,0.0,29.9084,-28.93437,-0.97403,9.21,-1.99,-0.44,2.0
1758077943.18577,1758077942.38567,0.0,0.0,0.0,30.88243,-23.54857,-1.66158,10.48,-1.54,-0.44,2.0
1758077943.18631,1758077942.39567,0.0,0.0,0.0,31.56997,-16.61578,-2.7502,11.45,-0.73,0.19,2.0
1758077943.1884,1758077942.40567,0.0,0.0,0.0,34.37747,-17.36062,-4.81285,11.45,-0.73,0.19,2.0
1758077943.2048,1758077942.41567,0.0,0.0,0.0,38.38818,-49.15978,-8.25059,10.81,-0.33,0.96,2.0
1758077943.20598,1758077942.42567,0.0,0.0,0.0,43.65939,-75.85962,-1.60428,10.81,-0.33,0.96,2.0
1758077943.22125,1758077942.43567,0.0,0.0,0.0,45.37826,-76.77635,5.72958,12.88,-0.09,1.37,2.0
1758077943.22295,1758077942.44567,0.0,0.0,0.0,45.49285,-60.79083,11.51645,12.88,-0.09,1.37,2.0
1758077943.23985,1758077942.45567,0.0,0.0,0.0,44.11775,-32.71589,15.69904,17.7,-0.51,-0.19,2.0
1758077943.2558,1758077942.46567,0.0,0.0,0.0,41.42485,-20.05352,13.00614,13.57,-1.09,0.05,2.0
1758077943.2611,1758077942.47567,0.0,0.0,0.0,39.64868,-16.84496,8.47978,13.57,-1.09,0.05,2.0
1758077943.28621,1758077942.48567,0.0,0.0,0.0,38.73195,-14.66772,2.00535,9.07,-1.1,0.03,2.0
1758077943.28672,1758077942.49567,0.0,0.0,0.0,40.39353,-5.21392,-6.24524,9.07,-1.1,0.03,2.0
1758077943.29671,1758077942.50567,0.0,0.0,0.0,42.91454,-0.17189,-9.22462,9.08,-0.98,0.66,2.0
1758077943.29733,1758077942.51567,0.0,0.0,0.0,45.60744,3.03668,-10.37054,9.08,-0.98,0.66,2.0
1758077943.31547,1758077942.52567,0.0,0.0,0.0,49.90463,5.72958,-8.70896,9.46,-0.62,1.67,2.0
1758077943.317,1758077942.53567,0.0,0.0,0.0,54.3164,6.58902,-4.92744,9.3,0.03,1.99,2.0
1758077943.33238,1758077942.54567,0.0,0.0,0.0,59.01466,7.16197,0.0,9.3,0.03,1.99,2.0
1758077943.33355,1758077942.55567,0.0,0.0,0.0,62.85347,9.68299,4.81285,9.24,0.43,2.43,2.0
1758077943.35015,1758077942.56567,0.0,0.0,0.0,65.43179,14.78231,10.08406,9.24,0.43,2.43,2.0
1758077943.35142,1758077942.57567,0.0,0.0,0.0,64.80153,17.18874,11.74564,9.23,0.7,2.16,2.0
1758077943.36676,1758077942.58567,0.0,0.0,0.0,62.22322,19.53786,10.65701,9.23,0.7,2.16,2.0
1758077943.38479,1758077942.59567,0.0,0.0,0.0,57.75415,22.40265,8.136,9.38,0.88,1.86,2.0
1758077943.38597,1758077942.60567,0.0,0.0,0.0,48.75871,25.72581,3.03668,9.83,1.12,1.43,2.0
1758077943.40143,1758077942.61567,0.0,0.0,0.0,41.88322,27.61657,-0.40107,9.83,1.12,1.43,2.0
1758077943.40595,1758077942.62567,0.0,0.0,0.0,34.60666,29.8511,-3.38045,10.29,1.74,0.98,2.0
1758077943.42143,1758077942.63567,0.0,0.0,0.0,27.67386,31.16891,-5.27121,10.29,1.74,0.98,2.0
1758077943.42235,1758077942.64567,0.0,0.0,0.0,18.56383,31.11161,-6.7609,10.06,2.34,0.7,2.0
1758077943.43862,1758077942.65567,0.0,0.0,0.0,13.5791,30.19488,-7.39116,10.06,2.34,0.7,2.0
1758077943.45441,1758077942.66567,0.0,0.0,0.0,9.96947,28.24682,-7.73493,9.54,2.41,0.78,2.0
1758077943.45563,1758077942.67567,0.0,0.0,0.0,7.33386,25.55392,-8.02141,9.54,2.41,0.78,2.0
1758077943.47016,1758077942.68567,0.0,0.0,0.0,4.58366,25.61122,-7.33386,9.29,1.91,0.82,2.0
1758077943.47181,1758077942.69567,0.0,0.0,0.0,2.86479,19.88164,-5.72958,8.85,1.19,0.85,2.0
1758077943.50861,1758077942.70567,0.0,0.0,0.0,1.43239,13.69369,-5.78687,8.85,1.19,0.85,2.0
1758077943.51047,1758077942.71567,0.0,0.0,0.0,0.0,10.71431,-5.84417,8.77,0.65,0.91,2.0
1758077943.51259,1758077942.72567,0.0,0.0,0.0,-1.77617,7.50575,-6.41713,8.77,0.65,0.91,2.0
1758077943.51394,1758077942.73567,0.0,0.0,0.0,-2.63561,5.32851,-7.21927,8.82,0.57,1.01,2.0
1758077943.53022,1758077942.74567,0.0,0.0,0.0,-3.09397,2.46372,-8.02141,8.82,0.57,1.01,2.0
1758077943.5325,1758077942.75567,0.0,0.0,0.0,-3.49504,-2.06265,-8.59437,8.57,0.72,0.9,2.0
1758077943.5512,1758077942.76567,0.0,0.0,0.0,-3.55234,-3.32316,-8.59437,8.87,0.81,0.65,2.0
1758077943.55479,1758077942.77567,0.0,0.0,0.0,-3.55234,-3.60963,-8.02141,8.87,0.81,0.65,2.0
1758077943.5962,1758077942.78567,0.0,0.0,0.0,-3.72423,-2.92208,-7.50575,9.46,0.76,0.56,2.0
1758077943.60139,1758077942.79567,0.0,0.0,0.0,-3.95341,-1.3751,-6.70361,9.46,0.76,0.56,2.0
1758077943.606,1758077942.80567,0.0,0.0,0.0,-4.35448,-0.11459,-5.78687,9.89,0.62,0.55,2.0
1758077943.60738,1758077942.81567,0.0,0.0,0.0,-4.92744,1.3178,-4.69825,9.89,0.62,0.55,2.0
1758077943.60775,1758077942.82567,0.0,0.0,0.0,-5.95876,2.40642,-3.55234,10.17,0.5,0.6,2.0
1758077943.62347,1758077942.83567,0.0,0.0,0.0,-9.28192,7.04738,-2.63561,10.6,0.65,0.57,2.0
1758077943.626,1758077942.84567,0.0,0.0,0.0,-12.60507,11.51645,-3.26586,10.6,0.65,0.57,2.0
1758077943.64155,1758077942.85567,0.0,0.0,0.0,-16.272,13.12073,-4.52637,10.49,1.19,0.49,2.0
1758077943.646,1758077942.86567,0.0,0.0,0.0,-20.3973,11.97482,-5.90147,10.49,1.19,0.49,2.0
1758077943.66156,1758077942.87567,0.0,0.0,0.0,-27.2155,10.31324,-7.73493,9.94,1.73,0.18,2.0
1758077943.66843,1758077942.88567,0.0,0.0,0.0,-32.42941,7.73493,-8.88085,9.94,1.73,0.18,2.0
1758077943.6849,1758077942.89567,0.0,0.0,0.0,-38.44547,3.49504,-9.33921,9.56,1.96,-0.17,2.0
1758077943.6861,1758077942.90567,0.0,0.0,0.0,-44.57612,-2.00535,-8.99544,9.56,1.96,-0.17,2.0
1758077943.70163,1758077942.91567,0.0,0.0,0.0,-53.80074,-13.5791,-7.84952,9.16,1.96,-0.9,2.0
1758077943.70439,1758077942.92567,0.0,0.0,0.0,-59.24384,-21.7724,-6.41713,8.89,1.63,-1.41,2.0
1758077943.71965,1758077942.93567,0.0,0.0,0.0,-63.59832,-27.50197,-4.64096,8.89,1.63,-1.41,2.0
1758077943.73556,1758077942.94567,0.0,0.0,0.0,-67.43713,-31.39809,-1.77617,9.2,1.13,-1.46,2.0
1758077943.73656,1758077942.95567,0.0,0.0,0.0,-61.99404,-17.87628,3.32316,9.2,1.13,-1.46,2.0
1758077943.75139,1758077942.96567,0.0,0.0,0.0,-61.1346,-11.00079,4.87014,10.65,-0.28,-0.52,2.0
1758077943.75342,1758077942.97567,0.0,0.0,0.0,-61.76485,-19.48057,6.87549,10.65,-0.28,-0.52,2.0
1758077943.76865,1758077942.98567,0.0,0.0,0.0,-64.22858,-43.25832,6.13065,9.11,0.64,-1.67,2.0
1758077943.78535,1758077942.99567,0.0,0.0,0.0,-66.69229,-28.36141,3.66693,10.53,1.42,-1.65,2.0
1758077943.79673,1758077943.00567,0.0,0.0,0.0,-73.2813,-16.38659,-0.22918,10.53,1.42,-1.65,2.0
1758077943.79988,1758077943.01567,0.0,0.0,0.0,-79.46925,-14.83961,-1.3178,10.24,2.18,-1.57,2.0
1758077943.81537,1758077943.02567,0.0,0.0,0.0,-85.42801,-17.93358,-0.74485,10.24,2.18,-1.57,2.0
1758077943.81846,1758077943.03567,0.0,0.0,0.0,-87.0323,-17.93358,1.3178,9.46,2.12,0.65,2.0
1758077943.83621,1758077943.04567,0.0,0.0,0.0,-88.17821,-18.16276,2.7502,9.46,2.12,0.65,2.0
1758077943.84093,1758077943.05567,0.0,0.0,0.0,-87.66255,-23.94964,3.95341,12.28,0.73,1.46,2.0
1758077943.88499,1758077943.06567,0.0,0.0,0.0,-84.39669,-44.11775,2.06265,14.3,-1.61,3.72,2.0
1758077943.88604,1758077943.07567,0.0,0.0,0.0,-79.98491,-52.08187,-3.49504,14.3,-1.61,3.72,2.0
1758077943.8866,1758077943.08567,0.0,0.0,0.0,-72.99483,-51.90998,-10.08406,17.15,-3.61,3.46,2.0
1758077943.88938,1758077943.09567,0.0,0.0,0.0,-64.80153,-50.87865,-15.92823,17.15,-3.61,3.46,2.0
1758077943.89002,1758077943.10567,0.0,0.0,0.0,-55.57691,-49.27437,-19.25138,14.12,-3.34,1.79,2.0
1758077943.90573,1758077943.11567,0.0,0.0,0.0,-52.65482,-48.41494,-19.42327,14.12,-3.34,1.79,2.0
1758077943.90663,1758077943.12567,0.0,0.0,0.0,-52.48294,-45.55015,-18.16276,8.96,-0.81,1.19,2.0
1758077943.92528,1758077943.13567,0.0,0.0,0.0,-54.48829,-42.05511,-15.46986,8.96,-0.81,1.19,2.0
1758077943.92622,1758077943.14567,0.0,0.0,0.0,-59.18654,-32.08564,-12.71966,7.05,0.49,1.21,2.0
1758077943.94455,1758077943.15567,0.0,0.0,0.0,-62.62429,-22.97561,-9.39651,6.99,1.08,1.0,2.0
1758077943.94621,1758077943.16567,0.0,0.0,0.0,-66.00475,-13.17803,-5.90147,6.99,1.08,1.0,2.0
1758077943.96569,1758077943.17567,0.0,0.0,0.0,-70.01544,4.69825,-1.14592,7.76,1.11,0.51,2.0
1758077943.96856,1758077943.18567,0.0,0.0,0.0,-71.79161,17.81899,0.45837,7.76,1.11,0.51,2.0
1758077943.98373,1758077943.19567,0.0,0.0,0.0,-72.13539,29.56462,0.51566,10.05,0.07,-0.05,2.0
1758077943.98467,1758077943.20567,0.0,0.0,0.0,-71.50513,39.4768,-1.03132,10.05,0.07,-0.05,2.0
1758077943.99946,1758077943.21567,0.0,0.0,0.0,-68.41116,54.3164,-4.69825,11.83,-1.36,-0.1,2.0
1758077944.01554,1758077943.22567,0.0,0.0,0.0,-64.80153,60.16057,-6.87549,12.02,-2.3,-0.12,2.0
1758077944.01915,1758077943.23567,0.0,0.0,0.0,-61.02001,60.10328,-8.70896,12.02,-2.3,-0.12,2.0
1758077944.03536,1758077943.24567,0.0,0.0,0.0,-57.18119,58.55629,-9.74028,10.68,-2.4,-0.1,2.0
1758077944.03685,1758077943.25567,0.0,0.0,0.0,-52.884,55.34772,-10.19865,10.68,-2.4,-0.1,2.0
1758077944.05489,1758077943.26567,0.0,0.0,0.0,-50.13381,51.5662,-9.62569,10.14,-2.01,0.08,2.0
1758077944.056,1758077943.27567,0.0,0.0,0.0,-47.67009,48.01387,-8.0787,10.14,-2.01,0.08,2.0
1758077944.07096,1758077943.28567,0.0,0.0,0.0,-45.49285,44.40423,-5.90147,9.58,-1.68,0.23,2.0
1758077944.07174,1758077943.29567,0.0,0.0,0.0,-42.68536,39.07573,-2.00535,9.18,-1.52,0.14,2.0
1758077944.08761,1758077943.30567,0.0,0.0,0.0,-41.31026,35.58068,0.11459,9.18,-1.52,0.14,2.0
1758077944.10564,1758077943.31567,0.0,0.0,0.0,-40.45082,31.56997,1.71887,8.88,-1.35,-0.05,2.0
1758077944.10758,1758077943.32567,0.0,0.0,0.0,-40.04975,27.84575,2.40642,8.88,-1.35,-0.05,2.0
1758077944.12263,1758077943.33567,0.0,0.0,0.0,-39.87786,26.52795,1.48969,8.79,-1.19,-0.2,2.0
1758077944.12615,1758077943.34567,0.0,0.0,0.0,-39.82057,26.87172,-0.17189,8.79,-1.19,-0.2,2.0
1758077944.14189,1758077943.35567,0.0,0.0,0.0,-39.76327,26.24147,-2.00535,8.87,-1.04,0.0,2.0
1758077944.14549,1758077943.36567,0.0,0.0,0.0,-39.13302,22.00158,-4.98473,8.87,-1.04,0.0,2.0
1758077944.16095,1758077943.37567,0.0,0.0,0.0,-37.87251,17.18874,-6.41713,8.56,-1.0,0.18,2.0
1758077944.1661,1758077943.38567,0.0,0.0,0.0,-36.21093,13.12073,-7.21927,8.59,-1.23,0.08,2.0
1758077944.18571,1758077943.39567,0.0,0.0,0.0,-33.86181,9.85487,-6.99009,8.59,-1.23,0.08,2.0
1758077944.19035,1758077943.40567,0.0,0.0,0.0,-29.39274,8.76626,-5.61499,9.13,-1.67,0.01,2.0
1758077944.23028,1758077943.41567,0.0,0.0,0.0,-26.24147,9.91217,-4.58366,9.13,-1.67,0.01,2.0
1758077944.23115,1758077943.42567,0.0,0.0,0.0,-23.20479,11.22997,-4.0107,9.52,-1.97,-0.06,2.0
1758077944.24089,1758077943.43567,0.0,0.0,0.0,-19.88164,12.77696,-3.95341,9.52,-1.97,-0.06,2.0
1758077944.24596,1758077943.44567,0.0,0.0,0.0,-15.29797,15.06879,-4.64096,9.58,-1.9,-0.18,2.0
1758077944.24711,1758077943.45567,0.0,0.0,0.0,-12.2613,15.46986,-5.50039,9.45,-1.71,-0.4,2.0
1758077944.25093,1758077943.46567,0.0,0.0,0.0,-9.39651,14.9542,-6.18794,9.45,-1.71,-0.4,2.0
1758077944.26592,1758077943.47567,0.0,0.0,0.0,-6.41713,13.12073,-6.87549,8.99,-1.63,-0.42,2.0
1758077944.26796,1758077943.48567,0.0,0.0,0.0,-2.29183,5.50039,-7.84952,8.99,-1.63,-0.42,2.0
1758077944.28587,1758077943.49567,0.0,0.0,0.0,1.43239,4.52637,-9.05273,8.61,-1.6,-0.56,2.0
1758077944.29134,1758077943.50567,0.0,0.0,0.0,5.55769,14.38124,-9.28192,8.61,-1.6,-0.56,2.0
1758077944.29165,1758077943.51567,0.0,0.0,0.0,11.00079,30.76784,-7.50575,10.41,-1.81,-0.55,2.0
1758077944.32591,1758077943.52567,0.0,0.0,0.0,16.272,52.19646,-8.42248,10.66,-2.03,0.25,2.0
1758077944.32761,1758077943.53567,0.0,0.0,0.0,21.42862,52.25375,-11.74564,10.66,-2.03,0.25,2.0
1758077944.33007,1758077943.54567,0.0,0.0,0.0,27.50197,17.18874,-12.14671,6.79,-1.95,0.36,2.0
1758077944.34603,1758077943.55567,0.0,0.0,0.0,39.4195,-21.48592,-3.20856,6.79,-1.95,0.36,2.0
1758077944.34766,1758077943.56567,0.0,0.0,0.0,44.9199,-38.78925,2.86479,7.58,-2.66,-1.78,2.0
1758077944.36539,1758077943.57567,0.0,0.0,0.0,49.27437,-34.43476,9.4538,7.58,-2.66,-1.78,2.0
1758077944.36633,1758077943.58567,0.0,0.0,0.0,51.39432,-32.48671,11.91752,10.59,-3.27,-0.68,2.0
1758077944.38542,1758077943.59567,0.0,0.0,0.0,52.65482,-35.3515,11.74564,10.59,-3.27,-0.68,2.0
1758077944.38634,1758077943.60567,0.0,0.0,0.0,51.73809,-35.3515,10.19865,10.0,-2.78,0.5,2.0
1758077944.40601,1758077943.61567,0.0,0.0,0.0,49.61814,-37.18496,8.25059,10.26,-1.8,0.55,2.0
1758077944.40806,1758077943.62567,0.0,0.0,0.0,46.86795,-40.27893,6.13065,10.26,-1.8,0.55,2.0
1758077944.42605,1758077943.63567,0.0,0.0,0.0,41.13837,-41.59674,3.49504,10.05,-0.8,-0.29,2.0
1758077944.42931,1758077943.64567,0.0,0.0,0.0,36.84119,-40.16434,3.89611,10.05,-0.8,-0.29,2.0
1758077944.44582,1758077943.65567,0.0,0.0,0.0,30.88243,-37.18496,5.15662,12.59,-0.07,1.9,2.0
1758077944.44758,1758077943.66567,0.0,0.0,0.0,22.74642,-33.05967,8.136,12.59,-0.07,1.9,2.0
1758077944.46271,1758077943.67567,0.0,0.0,0.0,9.28192,-43.14373,15.29797,16.55,1.89,2.86,2.0
1758077944.46562,1758077943.68567,0.0,0.0,0.0,4.35448,-55.7488,22.23076,15.61,2.87,3.22,2.0
1758077944.48077,1758077943.69567,0.0,0.0,0.0,0.97403,-54.88936,27.38738,15.61,2.87,3.22,2.0
1758077944.48556,1758077943.70567,0.0,0.0,0.0,-2.06265,-44.8053,28.30412,14.01,1.37,0.91,2.0
1758077944.50127,1758077943.71567,0.0,0.0,0.0,-8.70896,-25.43933,23.20479,14.01,1.37,0.91,2.0
1758077944.50311,1758077943.72567,0.0,0.0,0.0,-13.75099,-13.34992,16.84496,10.97,0.17,-0.47,2.0
1758077944.5189,1758077943.73567,0.0,0.0,0.0,-17.13144,-3.66693,10.19865,10.97,0.17,-0.47,2.0
1758077944.53482,1758077943.74567,0.0,0.0,0.0,-17.93358,4.92744,4.0107,8.7,-0.83,0.14,2.0
1758077944.53655,1758077943.75567,0.0,0.0,0.0,-13.5218,10.54242,-0.85944,8.61,-1.12,0.39,2.0
1758077944.55081,1758077943.76567,0.0,0.0,0.0,-8.88085,13.5218,-0.34377,8.61,-1.12,0.39,2.0
1758077944.55241,1758077943.77567,0.0,0.0,0.0,-3.55234,15.92823,2.97938,10.09,-1.08,2.41,2.0
1758077944.57055,1758077943.78567,0.0,0.0,0.0,4.69825,17.01685,10.25595,10.09,-1.08,2.41,2.0
1758077944.58589,1758077943.79567,0.0,0.0,0.0,10.25595,17.13144,16.10011,10.8,-0.56,3.57,2.0
1758077944.58901,1758077943.80567,0.0,0.0,0.0,15.87093,18.56383,21.08485,10.8,-0.56,3.57,2.0
1758077944.60459,1758077943.81567,0.0,0.0,0.0,19.99623,21.60051,24.29341,10.73,0.11,3.08,2.0
1758077944.60581,1758077943.82567,0.0,0.0,0.0,23.26209,24.98096,24.00693,10.73,0.11,3.08,2.0
1758077944.62114,1758077943.83567,0.0,0.0,0.0,22.97561,28.01764,21.37133,9.99,0.63,2.41,2.0
1758077944.62236,1758077943.84567,0.0,0.0,0.0,21.37133,32.6013,17.13144,9.82,1.18,2.05,2.0
1758077944.63886,1758077943.85567,0.0,0.0,0.0,18.27736,37.52874,12.14671,9.82,1.18,2.05,2.0
1758077944.65602,1758077943.86567,0.0,0.0,0.0,11.28727,45.55015,4.58366,9.89,1.77,1.39,2.0
1758077944.66015,1758077943.87567,0.0,0.0,0.0,6.35983,48.8733,1.83346,9.89,1.77,1.39,2.0
1758077944.67491,1758077943.88567,0.0,0.0,0.0,0.74485,48.30034,-0.80214,9.52,2.43,0.78,2.0
1758077944.67661,1758077943.89567,0.0,0.0,0.0,-4.29718,48.52953,-2.00535,9.52,2.43,0.78,2.0
1758077944.69092,1758077943.90567,0.0,0.0,0.0,-9.91217,49.04519,-3.20856,9.3,2.65,0.32,2.0
1758077944.69567,1758077943.91567,0.0,0.0,0.0,-12.71966,47.44091,-4.46907,9.07,2.03,0.33,2.0
1758077944.71099,1758077943.92567,0.0,0.0,0.0,-14.43854,46.06581,-5.90147,9.07,2.03,0.33,2.0
1758077944.71532,1758077943.93567,0.0,0.0,0.0,-15.58445,43.88857,-7.39116,9.06,1.04,0.65,2.0
1758077944.73099,1758077943.94567,0.0,0.0,0.0,-15.92823,40.39353,-8.93814,9.06,1.04,0.65,2.0
1758077944.73618,1758077943.95567,0.0,0.0,0.0,-15.98552,37.47144,-9.68299,8.89,0.2,0.94,2.0
1758077944.75494,1758077943.96567,0.0,0.0,0.0,-15.87093,33.9764,-10.31324,8.89,0.2,0.94,2.0
1758077944.76029,1758077943.97567,0.0,0.0,0.0,-15.64175,29.73651,-10.71431,8.52,-0.17,1.09,2.0
1758077944.77581,1758077943.98567,0.0,0.0,0.0,-15.24068,23.60586,-10.37054,8.36,-0.18,0.99,2.0
1758077944.77938,1758077943.99567,0.0,0.0,0.0,-14.43854,17.87628,-9.28192,8.36,-0.18,0.99,2.0
1758077944.79582,1758077944.00567,0.0,0.0,0.0,-13.17803,10.31324,-7.62034,8.04,-0.07,0.84,2.0
1758077944.79881,1758077944.01567,0.0,0.0,0.0,-10.54242,-0.97403,-3.20856,8.04,-0.07,0.84,2.0
1758077944.81478,1758077944.02567,0.0,0.0,0.0,-8.30789,-7.39116,-0.0573,8.1,-0.08,0.75,2.0
1758077944.81842,1758077944.03567,0.0,0.0,0.0,-6.70361,-12.14671,2.00535,8.1,-0.08,0.75,2.0
1758077944.83987,1758077944.04567,0.0,0.0,0.0,-5.09932,-16.3293,2.92208,8.62,-0.08,0.87,2.0
1758077944.84104,1758077944.05567,0.0,0.0,0.0,-4.98473,-14.72501,2.29183,9.3,-0.08,0.74,2.0
1758077944.85636,1758077944.06567,0.0,0.0,0.0,-5.90147,-14.49583,0.34377,9.3,0.16,0.74,2.0
1758077944.85981,1758077944.07567,0.0,0.0,0.0,-7.10468,-15.75634,-1.03132,9.18,0.45,0.73,2.0
1758077944.87614,1758077944.08567,0.0,0.0,0.0,-8.99544,-16.73037,-3.38045,9.18,0.45,0.73,2.0
1758077944.87882,1758077944.09567,0.0,0.0,0.0,-11.91752,-19.99623,-5.4431,8.95,0.67,0.36,2.0
1758077944.89488,1758077944.10567,0.0,0.0,0.0,-13.98017,-20.05352,-6.70361,8.95,0.67,0.36,2.0
1758077944.89631,1758077944.11567,0.0,0.0,0.0,-16.272,-22.28806,-7.44845,8.96,0.81,0.01,2.0
1758077944.91104,1758077944.12567,0.0,0.0,0.0,-18.50654,-28.24682,-7.44845,8.96,0.81,0.01,2.0
1758077944.91269,1758077944.13567,0.0,0.0,0.0,-21.60051,-31.56997,-6.87549,8.3,0.91,-0.45,2.0
1758077944.92838,1758077944.14567,0.0,0.0,0.0,-23.31938,-33.11696,-5.32851,8.68,1.07,-0.46,2.0
1758077944.94441,1758077944.15567,0.0,0.0,0.0,-25.15285,-32.48671,-5.4431,8.68,1.07,-0.46,2.0
1758077944.94555,1758077944.16567,0.0,0.0,0.0,-27.10091,-32.48671,-4.1253,8.85,1.14,-0.5,2.0
1758077944.96033,1758077944.17567,0.0,0.0,0.0,-28.87707,-26.18417,-2.6929,8.85,1.14,-0.5,2.0
1758077944.96458,1758077944.18567,0.0,0.0,0.0,-29.67921,-10.71431,-1.20321,9.92,1.07,-0.23,2.0
1758077944.98009,1758077944.19567,0.0,0.0,0.0,-31.11161,-5.15662,-0.74485,9.92,1.07,-0.23,2.0
1758077944.99638,1758077944.20567,0.0,0.0,0.0,-27.84575,-2.23454,-0.11459,10.52,0.84,0.45,2.0
1758077944.99743,1758077944.21567,0.0,0.0,0.0,-28.99167,-11.17268,-3.26586,9.41,0.28,0.87,2.0
1758077945.01467,1758077944.22567,0.0,0.0,0.0,-31.74186,-14.72501,-5.95876,9.41,0.28,0.87,2.0
1758077945.01593,1758077944.23567,0.0,0.0,0.0,-35.2942,-7.67763,-7.44845,10.74,1.37,-1.71,2.0
1758077945.03113,1758077944.24567,0.0,0.0,0.0,-41.08107,7.84952,-6.7609,10.74,1.37,-1.71,2.0
1758077945.03631,1758077944.25567,0.0,0.0,0.0,-44.57612,12.08941,-5.32851,11.41,1.7,-0.46,2.0
1758077945.05205,1758077944.26567,0.0,0.0,0.0,-46.63877,9.91217,-3.60963,11.41,1.7,-0.46,2.0
1758077945.05567,1758077944.27567,0.0,0.0,0.0,-47.61279,3.83882,-2.57831,10.34,1.7,0.65,2.0
1758077945.07105,1758077944.28567,0.0,0.0,0.0,-47.72739,-3.32316,-1.60428,10.37,1.35,0.62,2.0
1758077945.07468,1758077944.29567,0.0,0.0,0.0,-47.95657,-3.83882,-1.48969,10.37,1.35,0.62,2.0
1758077945.09092,1758077944.30567,0.0,0.0,0.0,-48.35764,-2.06265,-1.3751,11.21,0.82,0.0,2.0
1758077945.09614,1758077944.31567,0.0,0.0,0.0,-49.27437,0.22918,-1.60428,11.21,0.82,0.0,2.0
1758077945.11472,1758077944.32567,0.0,0.0,0.0,-51.85268,4.69825,-0.97403,11.22,0.53,-0.82,2.0
1758077945.117,1758077944.33567,0.0,0.0,0.0,-53.97263,8.93814,-0.17189,11.22,0.53,-0.82,2.0
1758077945.13219,1758077944.34567,0.0,0.0,0.0,-55.97798,12.77696,0.51566,11.2,0.8,-1.29,2.0
1758077945.13344,1758077944.35567,0.0,0.0,0.0,-56.952,16.272,0.85944,11.2,0.8,-1.29,2.0
1758077945.14827,1758077944.36567,0.0,0.0,0.0,-55.6915,15.69904,-1.3178,11.85,1.05,-0.84,2.0
1758077945.1652,1758077944.37567,0.0,0.0,0.0,-53.39967,7.39116,-4.1253,13.09,0.48,1.93,2.0
1758077945.16641,1758077944.38567,0.0,0.0,0.0,-50.64947,-10.8862,-8.65166,13.09,0.48,1.93,2.0
1758077945.18123,1758077944.39567,0.0,0.0,0.0,-47.38361,-25.7831,-19.76705,15.02,-1.05,4.92,2.0
1758077945.18567,1758077944.40567,0.0,0.0,0.0,-41.65404,-26.35606,-28.01764,15.02,-1.05,4.92,2.0
1758077945.20155,1758077944.41567,0.0,0.0,0.0,-33.40344,-22.40265,-34.89313,19.8,-3.34,7.76,2.0
1758077945.20594,1758077944.42567,0.0,0.0,0.0,-24.92367,-15.58445,-37.92981,19.8,-3.34,7.76,2.0
1758077945.2213,1758077944.43567,0.0,0.0,0.0,-16.3293,-3.89611,-30.76784,18.52,-4.35,5.79,2.0
1758077945.22568,1758077944.44567,0.0,0.0,0.0,-13.80828,-3.60963,-24.63719,12.09,-1.59,2.35,2.0
1758077945.24557,1758077944.45567,0.0,0.0,0.0,-12.49048,-3.83882,-18.85031,12.09,-1.59,2.35,2.0
1758077945.24657,1758077944.46567,0.0,0.0,0.0,-14.66772,-0.45837,-13.69369,9.06,-0.5,0.42,2.0
1758077945.26156,1758077944.47567,0.0,0.0,0.0,-24.98096,6.35983,-7.50575,9.06,-0.5,0.42,2.0
1758077945.26593,1758077944.48567,0.0,0.0,0.0,-35.86716,8.99544,-5.15662,8.34,0.0,0.85,2.0
1758077945.28558,1758077944.49567,0.0,0.0,0.0,-47.95657,11.17268,-3.66693,8.34,0.0,0.85,2.0
1758077945.28661,1758077944.50567,0.0,0.0,0.0,-59.18654,13.5218,-2.63561,8.39,0.9,2.36,2.0
1758077945.30162,1758077944.51567,0.0,0.0,0.0,-72.65105,15.58445,-2.46372,8.85,1.72,1.98,2.0
1758077945.30412,1758077944.52567,0.0,0.0,0.0,-78.89629,15.87093,-3.66693,8.85,1.72,1.98,2.0
1758077945.32032,1758077944.53567,0.0,0.0,0.0,-83.65184,15.92823,-5.72958,8.14,1.53,1.54,2.0
1758077945.33683,1758077944.54567,0.0,0.0,0.0,-87.54795,14.83961,-8.25059,8.14,1.53,1.54,2.0
1758077945.34101,1758077944.55567,0.0,0.0,0.0,-91.44406,9.11003,-11.11538,6.93,0.54,1.75,2.0
1758077945.35673,1758077944.56567,0.0,0.0,0.0,-92.70457,1.60428,-12.204,6.93,0.54,1.75,2.0
1758077945.35993,1758077944.57567,0.0,0.0,0.0,-92.99106,-5.78687,-12.83425,6.02,-0.98,2.35,2.0
1758077945.3754,1758077944.58567,0.0,0.0,0.0,-92.13161,-10.37054,-12.54778,6.02,-0.98,2.35,2.0
1758077945.38078,1758077944.59567,0.0,0.0,0.0,-88.57928,-11.97482,-11.22997,7.13,-2.75,2.52,2.0
1758077945.39564,1758077944.60567,0.0,0.0,0.0,-85.77179,-9.33921,-9.11003,8.57,-3.73,1.83,2.0
1758077945.40012,1758077944.61567,0.0,0.0,0.0,-83.19347,-4.23989,-6.41713,8.57,-3.73,1.83,2.0
1758077945.41537,1758077944.62567,0.0,0.0,0.0,-80.67246,6.58902,-1.77617,9.34,-2.95,0.91,2.0
1758077945.41771,1758077944.63567,0.0,0.0,0.0,-80.38599,14.78231,0.74485,9.34,-2.95,0.91,2.0
1758077945.43244,1758077944.64567,0.0,0.0,0.0,-80.95895,23.37668,2.46372,9.72,-1.48,0.45,2.0
1758077945.4336,1758077944.65567,0.0,0.0,0.0,-82.21945,30.76784,3.49504,9.72,-1.48,0.45,2.0
1758077945.44835,1758077944.66567,0.0,0.0,0.0,-85.82908,41.31026,2.57831,10.07,-0.42,0.6,2.0
1758077945.45313,1758077944.67567,0.0,0.0,0.0,-88.98035,48.12846,0.57296,10.31,0.19,0.61,2.0
1758077945.49038,1758077944.68567,0.0,0.0,0.0,-92.76187,53.17049,-2.29183,10.31,0.19,0.61,2.0
1758077945.49243,1758077944.69567,0.0,0.0,0.0,-96.88716,56.89471,-5.95876,9.84,0.34,0.56,2.0
1758077945.49297,1758077944.70567,0.0,0.0,0.0,-102.44486,56.78012,-12.37589,9.84,0.34,0.56,2.0
1758077945.4958,1758077944.71567,0.0,0.0,0.0,-105.08047,54.71747,-16.50119,8.99,0.01,0.49,2.0
1758077945.51251,1758077944.72567,0.0,0.0,0.0,-106.68475,52.48294,-20.05352,8.99,0.01,0.49,2.0
1758077945.51584,1758077944.73567,0.0,0.0,0.0,-107.08582,50.2484,-22.97561,8.73,-0.53,0.35,2.0
1758077945.53234,1758077944.74567,0.0,0.0,0.0,-105.76801,46.81066,-26.01229,8.61,-1.11,0.36,2.0
1758077945.53588,1758077944.75567,0.0,0.0,0.0,-103.247,43.4875,-27.10091,8.61,-1.11,0.36,2.0
1758077945.55237,1758077944.76567,0.0,0.0,0.0,-99.63737,40.10705,-27.2155,8.36,-1.65,0.37,2.0
1758077945.55662,1758077944.77567,0.0,0.0,0.0,-94.99641,36.95578,-26.87172,8.36,-1.65,0.37,2.0
1758077945.57257,1758077944.78567,0.0,0.0,0.0,-86.63122,32.14294,-25.8404,8.39,-2.09,0.31,2.0
1758077945.57618,1758077944.79567,0.0,0.0,0.0,-80.55787,28.13223,-25.26744,8.39,-2.09,0.31,2.0
1758077945.59147,1758077944.80567,0.0,0.0,0.0,-74.36993,23.66316,-25.43933,8.46,-2.42,0.27,2.0
1758077945.59346,1758077944.81567,0.0,0.0,0.0,-65.2026,19.70975,-26.52795,8.46,-2.42,0.27,2.0
1758077945.61063,1758077944.82567,0.0,0.0,0.0,-58.55629,14.72501,-27.1582,8.78,-2.67,0.17,2.0
1758077945.62657,1758077944.83567,0.0,0.0,0.0,-51.50891,12.37589,-27.44468,9.14,-2.92,0.27,2.0
1758077945.62821,1758077944.84567,0.0,0.0,0.0,-43.94586,8.42248,-26.64254,9.14,-2.92,0.27,2.0
1758077945.64522,1758077944.85567,0.0,0.0,0.0,-32.20023,2.11994,-24.4653,8.92,-3.13,0.26,2.0
1758077945.64636,1758077944.86567,0.0,0.0,0.0,-24.86637,2.29183,-22.28806,8.92,-3.13,0.26,2.0
1758077945.66164,1758077944.87567,0.0,0.0,0.0,-18.10547,4.29718,-20.51189,9.24,-3.32,0.28,2.0
1758077945.66268,1758077944.88567,0.0,0.0,0.0,-11.63104,5.61499,-19.13679,9.24,-3.32,0.28,2.0
1758077945.68066,1758077944.89567,0.0,0.0,0.0,-3.66693,4.46907,-18.27736,9.14,-3.38,0.59,2.0
1758077945.70003,1758077944.90567,0.0,0.0,0.0,-0.40107,3.95341,-19.42327,8.83,-2.84,0.88,2.0
1758077945.70121,1758077944.91567,0.0,0.0,0.0,1.77617,0.80214,-21.14215,8.83,-2.84,0.88,2.0
1758077945.7197,1758077944.92567,0.0,0.0,0.0,3.60963,-2.63561,-22.28806,8.82,-1.74,0.61,2.0
1758077945.72122,1758077944.93567,0.0,0.0,0.0,2.57831,-10.31324,-24.86637,8.82,-1.74,0.61,2.0
1758077945.74002,1758077944.94567,0.0,0.0,0.0,1.48969,-11.86023,-25.8404,8.91,-0.65,0.47,2.0
1758077945.74092,1758077944.95567,0.0,0.0,0.0,2.00535,-10.71431,-25.55392,8.91,-0.65,0.47,2.0
1758077945.7791,1758077944.96567,0.0,0.0,0.0,4.23989,-7.04738,-24.35071,9.88,-1.2,-0.34,2.0
1758077945.78268,1758077944.97567,0.0,0.0,0.0,9.5684,3.55234,-22.05888,10.49,-3.08,-0.4,2.0
1758077945.78441,1758077944.98567,0.0,0.0,0.0,11.74564,9.11003,-20.45459,10.49,-3.08,-0.4,2.0
1758077945.78622,1758077944.99567,0.0,0.0,0.0,15.0115,9.91217,-19.19409,10.47,-3.6,0.61,2.0
1758077945.78675,1758077945.00567,0.0,0.0,0.0,18.56383,-11.57375,-17.76169,10.47,-3.6,0.61,2.0
1758077945.80558,1758077945.01567,0.0,0.0,0.0,22.51724,-52.36834,-11.97482,8.13,-3.11,0.31,2.0
1758077945.8087,1758077945.02567,0.0,0.0,0.0,24.57989,-56.78012,-5.4431,8.13,-3.11,0.31,2.0
1758077945.82461,1758077945.03567,0.0,0.0,0.0,24.5226,-50.53488,-1.20321,11.43,-2.54,-0.6,2.0
1758077945.82557,1758077945.04567,0.0,0.0,0.0,26.24147,-40.7373,3.26586,11.43,-2.54,-0.6,2.0
1758077945.84095,1758077945.05567,0.0,0.0,0.0,28.476,-40.50812,3.09397,11.81,-2.52,-0.38,2.0
1758077945.85662,1758077945.06567,0.0,0.0,0.0,30.88243,-39.53409,1.48969,10.38,-2.61,-0.21,2.0
1758077945.85939,1758077945.07567,0.0,0.0,0.0,32.71589,-35.86716,-2.29183,10.38,-2.61,-0.21,2.0
1758077945.87503,1758077945.08567,0.0,0.0,0.0,32.71589,-29.10626,-7.79223,10.03,-2.45,-0.69,2.0
1758077945.87624,1758077945.09567,0.0,0.0,0.0,28.87707,-35.06502,-8.02141,10.03,-2.45,-0.69,2.0
1758077945.89087,1758077945.10567,0.0,0.0,0.0,22.00158,-53.05589,1.94806,12.2,-2.71,4.65,2.0
1758077945.89615,1758077945.11567,0.0,0.0,0.0,9.62569,-73.51049,11.11538,12.2,-2.71,4.65,2.0
1758077945.91465,1758077945.12567,0.0,0.0,0.0,5.78687,-125.07669,41.65404,17.28,0.55,12.05,2.0
1758077945.91903,1758077945.13567,0.0,0.0,0.0,3.95341,-100.72599,49.56085,19.26,4.25,4.6,2.0
1758077945.93492,1758077945.14567,0.0,0.0,0.0,0.17189,-68.41116,47.44091,19.26,4.25,4.6,2.0
1758077945.93929,1758077945.15567,0.0,0.0,0.0,-6.18794,-50.87865,42.39888,12.97,3.25,-2.18,2.0
1758077945.95479,1758077945.16567,0.0,0.0,0.0,-13.69369,-37.12767,29.8511,12.97,3.25,-2.18,2.0
1758077945.95707,1758077945.17567,0.0,0.0,0.0,-15.75634,-38.90384,21.08485,6.5,1.12,1.94,2.0
1758077945.97202,1758077945.18567,0.0,0.0,0.0,-14.78231,-38.38818,15.29797,6.5,1.12,1.94,2.0
1758077945.9788,1758077945.19567,0.0,0.0,0.0,-12.54778,-23.0329,11.45916,6.76,0.41,2.43,2.0
1758077945.99643,1758077945.20567,0.0,0.0,0.0,-7.79223,-1.08862,7.50575,11.92,-0.44,5.34,2.0
1758077945.99896,1758077945.21567,0.0,0.0,0.0,-3.49504,2.34913,5.15662,11.92,-0.44,5.34,2.0
1758077946.01467,1758077945.22567,0.0,0.0,0.0,2.63561,7.21927,4.69825,12.39,-0.62,3.06,2.0
1758077946.01573,1758077945.23567,0.0,0.0,0.0,8.0787,19.36597,1.94806,12.39,-0.62,3.06,2.0
1758077946.0307,1758077945.24567,0.0,0.0,0.0,9.22462,37.75792,-0.17189,12.5,-0.26,1.15,2.0
1758077946.0402,1758077945.25567,0.0,0.0,0.0,8.59437,47.15443,-2.57831,12.5,-0.26,1.15,2.0
1758077946.05604,1758077945.26567,0.0,0.0,0.0,7.04738,55.40502,-4.98473,10.95,0.65,1.49,2.0
1758077946.05869,1758077945.27567,0.0,0.0,0.0,3.03668,65.48907,-8.99544,10.95,0.65,1.49,2.0
1758077946.07407,1758077945.28567,0.0,0.0,0.0,-0.68755,70.6457,-11.28727,10.1,1.45,1.76,2.0
1758077946.07613,1758077945.29567,0.0,0.0,0.0,-5.32851,72.70835,-13.17803,8.97,1.96,1.62,2.0
1758077946.09074,1758077945.30567,0.0,0.0,0.0,-10.48513,71.56243,-14.09476,8.97,1.96,1.62,2.0
1758077946.10695,1758077945.31567,0.0,0.0,0.0,-18.33465,67.43713,-14.9542,7.77,2.14,1.26,2.0
1758077946.11119,1758077945.32567,0.0,0.0,0.0,-23.72045,63.25455,-15.29797,7.77,2.14,1.26,2.0
1758077946.14282,1758077945.33567,0.0,0.0,0.0,-28.87707,57.92604,-15.64175,7.18,2.11,1.19,2.0
1758077946.14623,1758077945.34567,0.0,0.0,0.0,-33.80451,49.33167,-15.06879,7.18,2.11,1.19,2.0
1758077946.14961,1758077945.35567,0.0,0.0,0.0,-39.82057,35.63798,-14.78231,6.76,1.93,1.44,2.0
1758077946.15087,1758077945.36567,0.0,0.0,0.0,-43.54479,25.55392,-14.38124,6.72,1.69,1.78,2.0
1758077946.15626,1758077945.37567,0.0,0.0,0.0,-47.44091,14.9542,-14.38124,6.72,1.69,1.78,2.0
1758077946.17308,1758077945.38567,0.0,0.0,0.0,-51.39432,4.64096,-15.0115,6.85,1.49,1.99,2.0
1758077946.17878,1758077945.39567,0.0,0.0,0.0,-56.49364,-9.68299,-16.272,6.85,1.49,1.99,2.0
1758077946.19378,1758077945.40567,0.0,0.0,0.0,-59.12925,-17.76169,-17.47521,7.12,1.38,1.86,2.0
1758077946.1998,1758077945.41567,0.0,0.0,0.0,-61.42108,-25.15285,-18.22006,7.12,1.38,1.86,2.0
1758077946.21475,1758077945.42567,0.0,0.0,0.0,-62.22322,-27.33009,-20.62648,7.7,1.33,1.74,2.0
1758077946.21601,1758077945.43567,0.0,0.0,0.0,-62.91077,-30.88243,-21.42862,8.3,1.15,1.35,2.0
1758077946.23083,1758077945.44567,0.0,0.0,0.0,-62.33781,-31.97105,-22.05888,8.3,1.15,1.35,2.0
1758077946.24702,1758077945.45567,0.0,0.0,0.0,-61.65026,-30.36677,-22.00158,9.19,0.69,1.19,2.0
1758077946.24755,1758077945.46567,0.0,0.0,0.0,-59.12925,-24.57989,-20.51189,9.19,0.69,1.19,2.0
1758077946.26374,1758077945.47567,0.0,0.0,0.0,-57.18119,-19.70975,-18.50654,10.1,-0.08,0.93,2.0
1758077946.2648,1758077945.48567,0.0,0.0,0.0,-54.77477,-14.20935,-15.98552,10.1,-0.08,0.93,2.0
1758077946.28007,1758077945.49567,0.0,0.0,0.0,-52.13916,-8.25059,-13.06344,10.39,-0.87,0.73,2.0
1758077946.29581,1758077945.50567,0.0,0.0,0.0,-48.35764,0.17189,-8.47978,10.39,-0.87,0.63,2.0
1758077946.29645,1758077945.51567,0.0,0.0,0.0,-46.46688,7.10468,-6.13065,10.36,-1.36,0.63,2.0
1758077946.31299,1758077945.52567,0.0,0.0,0.0,-45.43555,13.98017,-4.29718,10.72,-1.17,0.7,2.0
1758077946.31471,1758077945.53567,0.0,0.0,0.0,-45.49285,17.99088,-3.83882,10.72,-1.17,0.7,2.0
1758077946.33094,1758077945.54567,0.0,0.0,0.0,-47.38361,14.38124,-4.87014,10.16,-0.27,0.73,2.0
1758077946.33669,1758077945.55567,0.0,0.0,0.0,-49.61814,8.136,-6.8182,10.16,-0.27,0.73,2.0
1758077946.35279,1758077945.56567,0.0,0.0,0.0,-52.02457,1.43239,-8.99544,9.38,0.9,0.31,2.0
1758077946.3571,1758077945.57567,0.0,0.0,0.0,-54.3737,-5.4431,-11.22997,9.38,0.9,0.31,2.0
1758077946.37294,1758077945.58567,0.0,0.0,0.0,-57.29578,-15.75634,-13.12073,9.22,1.73,-0.16,2.0
1758077946.37815,1758077945.59567,0.0,0.0,0.0,-57.63955,-24.23611,-12.89155,9.1,1.4,-0.26,2.0
1758077946.394,1758077945.60567,0.0,0.0,0.0,-52.54023,-26.12688,-7.79223,9.1,1.4,-0.26,2.0
1758077946.39649,1758077945.61567,0.0,0.0,0.0,-51.85268,-30.76784,-7.21927,9.89,0.05,0.14,2.0
1758077946.413,1758077945.62567,0.0,0.0,0.0,-54.60288,-37.18496,-6.07335,9.89,0.05,0.14,2.0
1758077946.41865,1758077945.63567,0.0,0.0,0.0,-57.23849,-41.36755,-5.21392,10.62,0.6,-1.71,2.0
1758077946.43558,1758077945.64567,0.0,0.0,0.0,-60.73353,-41.88322,-4.92744,10.62,0.6,-1.71,2.0
1758077946.43944,1758077945.65567,0.0,0.0,0.0,-66.80688,-42.39888,-3.26586,10.81,0.26,-1.12,2.0
1758077946.45422,1758077945.66567,0.0,0.0,0.0,-71.44785,-25.89769,-2.00535,11.58,0.13,-1.25,2.0
1758077946.45569,1758077945.67567,0.0,0.0,0.0,-76.31798,-9.4538,-1.3178,11.58,0.13,-1.25,2.0
1758077946.47027,1758077945.68567,0.0,0.0,0.0,-82.21945,-14.83961,-1.94806,10.7,0.59,-0.88,2.0
1758077946.47466,1758077945.69567,0.0,0.0,0.0,-92.70457,-31.74186,-2.6929,10.7,0.59,-0.88,2.0
1758077946.49038,1758077945.70567,0.0,0.0,0.0,-96.42879,-41.25296,-1.83346,8.92,1.32,0.51,2.0
1758077946.49123,1758077945.71567,0.0,0.0,0.0,-98.72063,-50.13381,0.0,8.92,1.32,0.51,2.0
1758077946.51063,1758077945.72567,0.0,0.0,0.0,-99.35089,-65.89015,0.17189,11.54,1.16,1.79,2.0
1758077946.51611,1758077945.73567,0.0,0.0,0.0,-98.94981,-98.31956,-9.62569,13.9,0.16,5.69,2.0
1758077946.53104,1758077945.74567,0.0,0.0,0.0,-94.25156,-103.30429,-19.88164,13.9,0.16,5.69,2.0
1758077946.53334,1758077945.75567,0.0,0.0,0.0,-86.00097,-99.69466,-31.51268,19.84,-2.07,7.05,2.0
1758077946.54914,1758077945.76567,0.0,0.0,0.0,-77.12012,-95.1683,-40.68,19.84,-2.07,7.05,2.0
1758077946.55484,1758077945.77567,0.0,0.0,0.0,-69.3279,-80.0995,-45.03448,15.26,-2.92,3.96,2.0
1758077946.5703,1758077945.78567,0.0,0.0,0.0,-69.3279,-72.65105,-43.54479,15.26,-2.92,3.96,2.0
1758077946.57124,1758077945.79567,0.0,0.0,0.0,-71.39055,-67.89551,-40.7373,8.43,-1.2,1.94,2.0
1758077946.58662,1758077945.80567,0.0,0.0,0.0,-75.51585,-55.11855,-34.49206,8.43,-1.2,1.94,2.0
1758077946.60233,1758077945.81567,0.0,0.0,0.0,-83.88103,-33.40344,-19.19409,8.08,-0.53,1.31,2.0
1758077946.60563,1758077945.82567,0.0,0.0,0.0,-88.86576,-20.3973,-6.99009,8.74,0.11,0.39,2.0
1758077946.62139,1758077945.83567,0.0,0.0,0.0,-92.07432,-6.99009,3.32316,8.74,0.11,0.39,2.0
1758077946.62229,1758077945.84567,0.0,0.0,0.0,-92.99106,6.35983,14.66772,9.61,0.39,0.29,2.0
1758077946.63923,1758077945.85567,0.0,0.0,0.0,-89.43871,25.21014,18.62113,9.61,0.39,0.29,2.0
1758077946.65438,1758077945.86567,0.0,0.0,0.0,-83.93832,37.87251,20.22541,10.24,-0.32,0.22,2.0
1758077946.65558,1758077945.87567,0.0,0.0,0.0,-76.83365,49.21708,19.07949,10.24,-0.32,0.22,2.0
1758077946.67037,1758077945.88567,0.0,0.0,0.0,-65.14531,57.29578,14.61043,10.37,-1.88,0.17,2.0
1758077946.67156,1758077945.89567,0.0,0.0,0.0,-58.26981,58.09792,10.25595,9.01,-2.76,-0.39,2.0
1758077946.68814,1758077945.90567,0.0,0.0,0.0,-52.76942,57.75415,6.24524,9.01,-2.76,-0.39,2.0
1758077946.7041,1758077945.91567,0.0,0.0,0.0,-48.8733,56.60823,2.57831,8.15,-2.5,-0.56,2.0
1758077946.70531,1758077945.92567,0.0,0.0,0.0,-44.86259,54.14451,-1.60428,8.15,-2.5,-0.56,2.0
1758077946.72028,1758077945.93567,0.0,0.0,0.0,-42.62806,52.82671,-2.92208,8.13,-1.65,-0.31,2.0
1758077946.7222,1758077945.94567,0.0,0.0,0.0,-40.7946,51.73809,-4.18259,8.13,-1.65,-0.31,2.0
1758077946.74037,1758077945.95567,0.0,0.0,0.0,-39.13302,48.58683,-4.69825,8.56,-0.9,-0.03,2.0
1758077946.74461,1758077945.96567,0.0,0.0,0.0,-37.29956,44.51882,-4.92744,8.85,-0.48,-0.12,2.0
1758077946.76018,1758077945.97567,0.0,0.0,0.0,-36.95578,42.28429,-4.87014,8.85,-0.48,-0.12,2.0
1758077946.76257,1758077945.98567,0.0,0.0,0.0,-37.24226,38.61736,-4.98473,9.04,-0.47,0.01,2.0
1758077946.77844,1758077945.99567,0.0,0.0,0.0,-37.64333,35.98175,-5.32851,9.04,-0.47,0.01,2.0
1758077946.79441,1758077946.00567,0.0,0.0,0.0,-38.84654,33.34615,-6.41713,9.07,-0.72,0.18,2.0
1758077946.79538,1758077946.01567,0.0,0.0,0.0,-39.24761,32.88778,-7.21927,9.07,-0.72,0.18,2.0
1758077946.81054,1758077946.02567,0.0,0.0,0.0,-39.3622,32.42941,-8.0787,9.24,-1.03,0.18,2.0
1758077946.81139,1758077946.03567,0.0,0.0,0.0,-38.84654,30.30947,-8.59437,9.24,-1.03,0.18,2.0
1758077946.82746,1758077946.04567,0.0,0.0,0.0,-36.89849,25.89769,-8.88085,8.83,-1.26,0.13,2.0
1758077946.84485,1758077946.05567,0.0,0.0,0.0,-34.77854,23.66316,-8.99544,8.46,-1.44,0.0,2.0
1758077946.846,1758077946.06567,0.0,0.0,0.0,-32.08564,22.00158,-8.76626,8.46,-1.44,0.0,2.0
1758077946.86123,1758077946.07567,0.0,0.0,0.0,-27.04361,17.76169,-9.39651,8.41,-1.59,-0.16,2.0
1758077946.86401,1758077946.08567,0.0,0.0,0.0,-23.0902,14.09476,-10.02676,8.41,-1.59,-0.16,2.0
1758077946.87922,1758077946.09567,0.0,0.0,0.0,-18.56383,12.43318,-11.17268,8.67,-1.72,0.28,2.0
1758077946.89553,1758077946.10567,0.0,0.0,0.0,-13.23533,12.2613,-11.86023,8.67,-1.72,0.28,2.0
1758077946.89644,1758077946.11567,0.0,0.0,0.0,-3.89611,12.14671,-11.63104,9.25,-2.01,0.41,2.0
1758077946.91126,1758077946.12567,0.0,0.0,0.0,4.0107,9.33921,-10.48513,9.39,-2.42,0.19,2.0
1758077946.91322,1758077946.13567,0.0,0.0,0.0,13.06344,6.13065,-7.84952,9.39,-2.42,0.19,2.0
1758077946.93028,1758077946.14567,0.0,0.0,0.0,22.23076,0.51566,-4.81285,9.41,-3.01,-0.39,2.0
1758077946.93147,1758077946.15567,0.0,0.0,0.0,34.89313,-12.60507,-0.68755,9.41,-3.01,-0.39,2.0
1758077946.9493,1758077946.16567,0.0,0.0,0.0,42.57077,-24.12152,1.83346,9.09,-3.63,-0.84,2.0
1758077946.96562,1758077946.17567,0.0,0.0,0.0,48.41494,-41.25296,4.98473,9.09,-3.63,-0.84,2.0
1758077946.96652,1758077946.18567,0.0,0.0,0.0,51.22243,-56.26446,6.35983,9.0,-3.71,-1.23,2.0
1758077946.98132,1758077946.19567,0.0,0.0,0.0,52.54023,-52.76942,8.59437,11.39,-3.27,-1.8,2.0
1758077946.98328,1758077946.20567,0.0,0.0,0.0,52.42564,-42.57077,11.17268,11.39,-3.27,-1.8,2.0
1758077946.99834,1758077946.21567,0.0,0.0,0.0,50.2484,-34.60666,13.12073,12.26,-2.53,-0.76,2.0
1758077947.01437,1758077946.22567,0.0,0.0,0.0,47.49821,-29.27814,14.15206,12.26,-2.53,-0.76,2.0
1758077947.0156,1758077946.23567,0.0,0.0,0.0,43.25832,-24.80907,13.98017,11.01,-1.57,-0.69,2.0
1758077947.0306,1758077946.24567,0.0,0.0,0.0,39.76327,-23.89234,13.23533,11.01,-1.57,-0.69,2.0
1758077947.03186,1758077946.25567,0.0,0.0,0.0,35.98175,-27.50197,14.32395,10.32,-0.9,-0.51,2.0
1758077947.04927,1758077946.26567,0.0,0.0,0.0,30.48136,-41.08107,19.25138,10.32,-0.9,-0.51,2.0
1758077947.05172,1758077946.27567,0.0,0.0,0.0,24.57989,-109.83601,29.10626,11.9,0.93,4.1,2.0
1758077947.06839,1758077946.28567,0.0,0.0,0.0,26.87172,-141.17682,48.9306,15.64,3.94,5.67,2.0
1758077947.0854,1758077946.29567,0.0,0.0,0.0,24.29341,-122.09731,59.24384,15.64,3.94,5.67,2.0
1758077947.08637,1758077946.30567,0.0,0.0,0.0,16.50119,-73.3386,59.18654,22.61,3.41,2.87,2.0
1758077947.10169,1758077946.31567,0.0,0.0,0.0,7.50575,-61.42108,53.39967,22.61,3.41,2.87,2.0
1758077947.10256,1758077946.32567,0.0,0.0,0.0,1.20321,-56.78012,46.63877,12.59,1.45,2.5,2.0
1758077947.11896,1758077946.33567,0.0,0.0,0.0,-0.57296,-54.71747,36.21093,12.59,1.45,2.5,2.0
1758077947.1355,1758077946.34567,0.0,0.0,0.0,4.92744,-51.22243,23.26209,6.34,-0.1,2.6,2.0
1758077947.13829,1758077946.35567,0.0,0.0,0.0,11.11538,-36.38282,16.90226,8.68,-0.39,3.37,2.0
1758077947.15452,1758077946.36567,0.0,0.0,0.0,18.85031,-19.36597,11.86023,8.68,-0.39,3.37,2.0
1758077947.15541,1758077946.37567,0.0,0.0,0.0,27.1582,-8.36518,7.62034,12.27,0.14,3.48,2.0
1758077947.17064,1758077946.38567,0.0,0.0,0.0,38.78925,8.47978,4.64096,12.27,0.14,3.48,2.0
1758077947.17189,1758077946.39567,0.0,0.0,0.0,43.20102,26.52795,3.83882,13.13,0.56,1.01,2.0
1758077947.1887,1758077946.40567,0.0,0.0,0.0,44.23235,44.28964,3.03668,13.13,0.56,1.01,2.0
1758077947.20541,1758077946.41567,0.0,0.0,0.0,43.14373,55.11855,2.63561,12.12,0.62,0.56,2.0
1758077947.20663,1758077946.42567,0.0,0.0,0.0,39.07573,66.11933,0.85944,10.05,0.93,1.26,2.0
1758077947.22162,1758077946.43567,0.0,0.0,0.0,35.52338,72.07809,0.11459,10.05,0.93,1.26,2.0
1758077947.22579,1758077946.44567,0.0,0.0,0.0,30.76784,77.4066,-0.97403,8.93,1.55,0.92,2.0
1758077947.24145,1758077946.45567,0.0,0.0,0.0,25.7831,80.1568,-1.3178,8.93,1.55,0.92,2.0
1758077947.24668,1758077946.46567,0.0,0.0,0.0,17.30333,78.89629,-1.71887,7.82,2.2,1.02,2.0
1758077947.26403,1758077946.47567,0.0,0.0,0.0,12.2613,76.0315,-1.77617,7.82,2.2,1.02,2.0
1758077947.26598,1758077946.48567,0.0,0.0,0.0,7.39116,72.99483,-2.00535,7.28,2.58,1.19,2.0
1758077947.28258,1758077946.49567,0.0,0.0,0.0,1.66158,67.78091,-3.95341,7.28,2.58,1.19,2.0
1758077947.28503,1758077946.50567,0.0,0.0,0.0,-1.48969,61.24919,-4.92744,7.35,2.38,1.01,2.0
1758077947.30079,1758077946.51567,0.0,0.0,0.0,-4.1253,53.68615,-5.84417,7.13,1.73,1.18,2.0
1758077947.30196,1758077946.52567,0.0,0.0,0.0,-6.24524,45.55015,-5.55769,7.13,1.73,1.18,2.0
1758077947.31861,1758077946.53567,0.0,0.0,0.0,-9.28192,32.48671,-4.52637,7.34,1.05,1.29,2.0
1758077947.33484,1758077946.54567,0.0,0.0,0.0,-11.45916,24.75178,-3.60963,7.34,1.05,1.29,2.0
1758077947.33593,1758077946.55567,0.0,0.0,0.0,-13.17803,16.61578,-2.86479,7.7,0.57,1.48,2.0
1758077947.35084,1758077946.56567,0.0,0.0,0.0,-14.66772,8.59437,-2.46372,7.7,0.57,1.48,2.0
1758077947.35172,1758077946.57567,0.0,0.0,0.0,-15.64175,-1.14592,-1.60428,7.93,0.38,1.35,2.0
1758077947.37021,1758077946.58567,0.0,0.0,0.0,-15.41257,-6.35983,-0.85944,8.23,0.37,1.07,2.0
1758077947.38573,1758077946.59567,0.0,0.0,0.0,-14.78231,-10.02676,0.11459,8.23,0.37,1.07,2.0
1758077947.39095,1758077946.60567,0.0,0.0,0.0,-13.5218,-13.00614,1.66158,8.49,0.31,0.68,2.0
1758077947.40594,1758077946.61567,0.0,0.0,0.0,-10.8862,-14.43854,3.89611,8.49,0.31,0.68,2.0
1758077947.41031,1758077946.62567,0.0,0.0,0.0,-8.76626,-11.22997,5.50039,9.02,0.05,0.39,2.0
1758077947.4259,1758077946.63567,0.0,0.0,0.0,-6.07335,-7.73493,7.62034,9.02,0.05,0.39,2.0
1758077947.42851,1758077946.64567,0.0,0.0,0.0,-3.89611,-4.35448,9.39651,9.72,-0.31,0.44,2.0
1758077947.45023,1758077946.65567,0.0,0.0,0.0,-1.66158,0.11459,11.86023,10.13,-0.47,0.58,2.0
1758077947.45116,1758077946.66567,0.0,0.0,0.0,-1.94806,3.38045,12.204,10.13,-0.47,0.58,2.0
1758077947.45607,1758077946.67567,0.0,0.0,0.0,-3.38045,2.97938,11.57375,10.19,-0.01,0.7,2.0
1758077947.4732,1758077946.68567,0.0,0.0,0.0,-6.58902,0.0,8.25059,10.19,-0.01,0.7,2.0
1758077947.47956,1758077946.69567,0.0,0.0,0.0,-13.80828,-9.85487,5.61499,9.45,0.95,0.31,2.0
1758077947.4949,1758077946.70567,0.0,0.0,0.0,-19.25138,-14.9542,2.63561,9.45,0.95,0.31,2.0
1758077947.50563,1758077946.71567,0.0,0.0,0.0,-24.86637,-17.6471,-0.11459,9.57,1.9,-0.06,2.0
1758077947.50597,1758077946.72567,0.0,0.0,0.0,-32.14294,-19.99623,-2.97938,9.57,1.9,-0.06,2.0
1758077947.52546,1758077946.73567,0.0,0.0,0.0,-35.75257,-26.18417,-3.66693,10.03,2.23,-0.31,2.0
1758077947.5272,1758077946.74567,0.0,0.0,0.0,-38.1017,-30.48136,-2.97938,10.04,1.62,-0.19,2.0
1758077947.54607,1758077946.75567,0.0,0.0,0.0,-39.4195,-28.24682,-3.95341,10.04,1.62,-0.19,2.0
1758077947.58059,1758077946.76567,0.0,0.0,0.0,-40.04975,-20.22541,-3.09397,11.46,1.08,-0.56,2.0
1758077947.5809,1758077946.77567,0.0,0.0,0.0,-39.76327,-14.38124,-2.57831,11.46,1.08,-0.56,2.0
1758077947.58687,1758077946.78567,0.0,0.0,0.0,-39.70598,-13.23533,-2.40642,12.06,0.75,-0.31,2.0
1758077947.58781,1758077946.79567,0.0,0.0,0.0,-37.52874,-25.61122,-1.08862,12.06,0.75,-0.31,2.0
1758077947.58879,1758077946.80567,0.0,0.0,0.0,-37.35685,-41.71133,1.3178,10.31,0.41,-0.27,2.0
1758077947.60445,1758077946.81567,0.0,0.0,0.0,-38.61736,-27.67386,-1.71887,11.96,0.27,-0.64,2.0
1758077947.60565,1758077946.82567,0.0,0.0,0.0,-40.7373,-12.43318,-3.72423,11.96,0.27,-0.64,2.0
1758077947.62065,1758077946.83567,0.0,0.0,0.0,-42.05511,-7.10468,-4.87014,11.83,0.4,-0.48,2.0
1758077947.62304,1758077946.84567,0.0,0.0,0.0,-43.83128,-1.71887,-5.15662,11.83,0.4,-0.48,2.0
1758077947.64057,1758077946.85567,0.0,0.0,0.0,-44.17505,6.87549,-3.49504,11.22,0.39,0.56,2.0
1758077947.65597,1758077946.86567,0.0,0.0,0.0,-42.62806,7.79223,0.17189,11.22,0.39,0.56,2.0
1758077947.66042,1758077946.87567,0.0,0.0,0.0,-40.27893,-1.71887,3.49504,11.42,-0.23,0.86,2.0
1758077947.67595,1758077946.88567,0.0,0.0,0.0,-34.43476,-28.30412,6.53172,10.12,-0.87,2.22,2.0
1758077947.67719,1758077946.89567,0.0,0.0,0.0,-32.6013,-43.88857,1.71887,10.12,-0.87,2.22,2.0
1758077947.692,1758077946.90567,0.0,0.0,0.0,-27.50197,-41.42485,-1.3178,12.02,-1.71,1.33,2.0
1758077947.69376,1758077946.91567,0.0,0.0,0.0,-19.36597,-34.0337,-6.58902,12.02,-1.71,1.33,2.0
1758077947.71102,1758077946.92567,0.0,0.0,0.0,-14.78231,-34.43476,-9.22462,10.94,-1.96,0.28,2.0
1758077947.71305,1758077946.93567,0.0,0.0,0.0,-11.57375,-37.58603,-10.48513,10.94,-1.96,0.28,2.0
1758077947.729,1758077946.94567,0.0,0.0,0.0,-10.31324,-40.04975,-11.28727,8.25,-1.03,1.0,2.0
1758077947.74496,1758077946.95567,0.0,0.0,0.0,-11.97482,-36.7266,-11.28727,8.25,-1.03,1.0,2.0
1758077947.74594,1758077946.96567,0.0,0.0,0.0,-15.58445,-29.73651,-10.8289,9.04,-0.34,1.15,2.0
1758077947.76108,1758077946.97567,0.0,0.0,0.0,-20.62648,-22.28806,-9.96947,10.94,0.2,2.55,2.0
1758077947.76236,1758077946.98567,0.0,0.0,0.0,-26.06958,-16.04282,-8.99544,10.94,0.2,2.55,2.0
1758077947.77888,1758077946.99567,0.0,0.0,0.0,-34.66395,-7.79223,-8.30789,11.59,0.86,2.75,2.0
1758077947.79499,1758077947.00567,0.0,0.0,0.0,-39.3622,-1.94806,-8.25059,11.59,0.86,2.75,2.0
1758077947.79602,1758077947.01567,0.0,0.0,0.0,-43.54479,3.20856,-7.96411,11.39,1.14,1.6,2.0
1758077947.81096,1758077947.02567,0.0,0.0,0.0,-46.86795,7.21927,-8.25059,11.39,1.14,1.6,2.0
1758077947.8152,1758077947.03567,0.0,0.0,0.0,-49.61814,16.10011,-7.50575,10.93,0.45,1.06,2.0
1758077947.83079,1758077947.04567,0.0,0.0,0.0,-50.01921,20.74107,-6.47442,10.82,-0.82,0.84,2.0
1758077947.8323,1758077947.05567,0.0,0.0,0.0,-49.27437,24.75178,-5.21392,10.82,-0.82,0.84,2.0
1758077947.85032,1758077947.06567,0.0,0.0,0.0,-46.81066,27.67386,-3.95341,10.38,-2.07,0.8,2.0
1758077947.86611,1758077947.07567,0.0,0.0,0.0,-40.68,30.93972,-1.3751,10.38,-2.07,0.8,2.0
1758077947.87104,1758077947.08567,0.0,0.0,0.0,-35.2369,32.42941,0.80214,9.62,-2.82,0.99,2.0
1758077947.88586,1758077947.09567,0.0,0.0,0.0,-29.22085,33.63263,3.26586,9.62,-2.82,0.99,2.0
1758077947.8874,1758077947.10567,0.0,0.0,0.0,-20.05352,33.86181,6.7609,8.8,-3.05,0.83,2.0
1758077947.90265,1758077947.11567,0.0,0.0,0.0,-14.32395,32.37212,8.70896,8.25,-2.79,0.57,2.0
1758077947.90543,1758077947.12567,0.0,0.0,0.0,-9.39651,29.96569,9.96947,8.25,-2.79,0.57,2.0
1758077947.92113,1758077947.13567,0.0,0.0,0.0,-5.15662,26.47065,10.94349,8.13,-2.19,0.48,2.0
1758077947.92198,1758077947.14567,0.0,0.0,0.0,-0.57296,20.68378,11.57375,8.13,-2.19,0.48,2.0
1758077947.9387,1758077947.15567,0.0,0.0,0.0,1.43239,18.33465,11.74564,8.51,-1.53,0.6,2.0
1758077947.95496,1758077947.16567,0.0,0.0,0.0,3.32316,17.13144,11.86023,8.51,-1.53,0.6,2.0
1758077947.95635,1758077947.17567,0.0,0.0,0.0,4.52637,16.61578,11.57375,9.08,-1.08,0.56,2.0
1758077947.9709,1758077947.18567,0.0,0.0,0.0,4.64096,16.272,10.54242,9.27,-1.08,0.55,2.0
1758077947.97406,1758077947.19567,0.0,0.0,0.0,3.89611,16.3293,9.33921,9.27,-0.79,0.55,2.0
1758077947.99088,1758077947.20567,0.0,0.0,0.0,2.23454,16.272,7.79223,9.21,-0.57,0.47,2.0
1758077947.99244,1758077947.21567,0.0,0.0,0.0,0.0573,15.69904,5.95876,9.21,-0.57,0.47,2.0
1758077948.00901,1758077947.22567,0.0,0.0,0.0,-3.60963,14.43854,2.6929,9.08,-0.39,0.4,2.0
1758077948.0252,1758077947.23567,0.0,0.0,0.0,-5.95876,13.12073,0.85944,9.08,-0.39,0.4,2.0
1758077948.02644,1758077947.24567,0.0,0.0,0.0,-7.50575,11.00079,-0.22918,9.11,-0.26,0.33,2.0
1758077948.0451,1758077947.25567,0.0,0.0,0.0,-8.59437,7.79223,-1.03132,9.11,-0.26,0.33,2.0
1758077948.0462,1758077947.26567,0.0,0.0,0.0,-8.93814,6.07335,-1.3751,9.06,-0.26,0.13,2.0
1758077948.06122,1758077947.27567,0.0,0.0,0.0,-8.70896,8.93814,-1.71887,9.47,-0.4,-0.19,2.0
1758077948.06216,1758077947.28567,0.0,0.0,0.0,-8.30789,13.46451,-2.11994,9.47,-0.4,-0.19,2.0
1758077948.07903,1758077947.29567,0.0,0.0,0.0,-7.67763,17.99088,-2.46372,9.62,-0.61,-0.07,2.0
1758077948.09627,1758077947.30567,0.0,0.0,0.0,-5.90147,22.11617,-3.03668,9.62,-0.61,-0.07,2.0
1758077948.09715,1758077947.31567,0.0,0.0,0.0,-4.18259,22.68913,-3.60963,9.32,-0.88,-0.01,2.0
1758077948.11303,1758077947.32567,0.0,0.0,0.0,-2.23454,21.60051,-4.1253,9.32,-0.88,-0.01,2.0
1758077948.11633,1758077947.33567,0.0,0.0,0.0,0.51566,15.12609,-4.92744,8.99,-1.17,-0.2,2.0
1758077948.13224,1758077947.34567,0.0,0.0,0.0,1.71887,8.42248,-6.13065,8.44,-1.36,-0.53,2.0
1758077948.13328,1758077947.35567,0.0,0.0,0.0,2.86479,4.81285,-8.42248,8.44,-1.36,-0.53,2.0
1758077948.1483,1758077947.36567,0.0,0.0,0.0,4.58366,5.15662,-10.8862,8.83,-1.45,-0.73,2.0
1758077948.16514,1758077947.37567,0.0,0.0,0.0,9.62569,20.05352,-10.02676,8.83,-1.45,-0.73,2.0
1758077948.16631,1758077947.38567,0.0,0.0,0.0,12.2613,33.51803,-9.96947,10.34,-1.71,-0.14,2.0
1758077948.18115,1758077947.39567,0.0,0.0,0.0,13.80828,41.08107,-10.8862,10.34,-1.71,-0.14,2.0
1758077948.18384,1758077947.40567,0.0,0.0,0.0,15.24068,34.43476,-13.23533,9.51,-1.79,0.73,2.0
1758077948.20037,1758077947.41567,0.0,0.0,0.0,21.94428,-17.53251,-15.41257,5.81,-1.75,0.07,2.0
1758077948.21637,1758077947.42567,0.0,0.0,0.0,29.04896,-49.84733,-9.68299,5.81,-1.75,0.07,2.0
1758077948.21909,1758077947.43567,0.0,0.0,0.0,34.95043,-53.45696,-3.60963,8.93,-2.45,-1.47,2.0
1758077948.23436,1758077947.44567,0.0,0.0,0.0,38.90384,-47.89928,0.68755,8.93,-2.45,-1.47,2.0
1758077948.23651,1758077947.45567,0.0,0.0,0.0,43.14373,-44.46153,3.49504,10.94,-2.57,-0.88,2.0
1758077948.25107,1758077947.46567,0.0,0.0,0.0,44.748,-44.28964,2.46372,10.94,-2.57,-0.88,2.0
1758077948.25659,1758077947.47567,0.0,0.0,0.0,44.8053,-42.39888,0.22918,11.23,-1.97,0.33,2.0
1758077948.27609,1758077947.48567,0.0,0.0,0.0,43.65939,-40.04975,-3.09397,11.23,-1.97,0.33,2.0
1758077948.28045,1758077947.49567,0.0,0.0,0.0,40.96649,-35.86716,-9.74028,11.36,-1.2,-0.9,2.0
1758077948.32127,1758077947.50567,0.0,0.0,0.0,39.4768,-32.48671,-13.98017,10.68,-0.39,-2.08,2.0
1758077948.32623,1758077947.51567,0.0,0.0,0.0,38.50277,-29.10626,-17.01685,10.68,-0.39,-2.08,2.0
1758077948.33084,1758077947.52567,0.0,0.0,0.0,39.76327,-22.51724,-19.13679,11.02,-0.46,-1.22,2.0
1758077948.33602,1758077947.53567,0.0,0.0,0.0,38.90384,-13.23533,-19.19409,11.02,-0.46,-1.22,2.0
1758077948.34098,1758077947.54567,0.0,0.0,0.0,36.55471,-12.37589,-15.46986,13.33,-1.05,0.71,2.0
1758077948.34584,1758077947.55567,0.0,0.0,0.0,30.93972,-15.64175,-11.00079,13.33,-1.05,0.71,2.0
1758077948.34653,1758077947.56567,0.0,0.0,0.0,23.0329,-45.60744,-0.45837,15.31,-0.77,3.29,2.0
1758077948.36542,1758077947.57566,0.0,0.0,0.0,24.86637,-68.98412,17.53251,14.41,-0.55,4.41,2.0
1758077948.36633,1758077947.58566,0.0,0.0,0.0,25.26744,-63.8275,29.62192,14.41,-0.55,4.41,2.0
1758077948.38124,1758077947.59566,0.0,0.0,0.0,23.94964,-43.37291,34.95043,17.37,0.56,2.1,2.0
1758077948.38509,1758077947.60566,0.0,0.0,0.0,18.22006,-26.01229,30.82513,17.37,0.56,2.1,2.0
1758077948.40131,1758077947.61566,0.0,0.0,0.0,14.20935,-20.51189,28.13223,10.74,1.45,0.74,2.0
1758077948.40236,1758077947.62566,0.0,0.0,0.0,9.74028,-11.51645,21.14215,10.74,1.45,0.74,2.0
1758077948.42044,1758077947.63566,0.0,0.0,0.0,8.99544,-8.25059,15.41257,6.66,0.78,2.17,2.0
1758077948.43654,1758077947.64566,0.0,0.0,0.0,11.34457,-2.23454,9.91217,6.02,0.41,2.01,2.0
1758077948.43898,1758077947.65566,0.0,0.0,0.0,13.5218,7.79223,8.59437,6.02,0.41,2.01,2.0
1758077948.45455,1758077947.66566,0.0,0.0,0.0,14.9542,15.24068,8.136,10.55,0.09,4.18,2.0
1758077948.45897,1758077947.67566,0.0,0.0,0.0,15.98552,19.76705,8.02141,10.55,0.09,4.18,2.0
1758077948.47458,1758077947.68566,0.0,0.0,0.0,16.04282,31.2262,7.79223,13.34,0.32,2.29,2.0
1758077948.47623,1758077947.69566,0.0,0.0,0.0,13.98017,40.16434,6.13065,13.34,0.32,2.29,2.0
1758077948.49129,1758077947.70566,0.0,0.0,0.0,10.31324,47.89928,2.57831,12.79,0.56,0.77,2.0
1758077948.49362,1758077947.71566,0.0,0.0,0.0,6.7609,53.45696,-1.48969,12.79,0.56,0.77,2.0
1758077948.51038,1758077947.72566,0.0,0.0,0.0,1.94806,58.4417,-7.79223,10.46,0.91,0.78,2.0
1758077948.52656,1758077947.73566,0.0,0.0,0.0,-1.71887,61.24919,-10.65701,8.81,1.47,1.24,2.0
1758077948.53017,1758077947.74566,0.0,0.0,0.0,-5.72958,61.59297,-12.83425,8.81,1.47,1.24,2.0
1758077948.54556,1758077947.75566,0.0,0.0,0.0,-12.77696,57.81144,-13.69369,7.59,1.99,1.19,2.0
1758077948.5465,1758077947.76566,0.0,0.0,0.0,-18.22006,51.27972,-13.34992,7.59,1.99,1.19,2.0
1758077948.5616,1758077947.77566,0.0,0.0,0.0,-23.89234,43.83128,-11.45916,7.07,2.32,1.39,2.0
1758077948.56521,1758077947.78566,0.0,0.0,0.0,-29.56462,36.61201,-9.39651,7.07,2.32,1.39,2.0
1758077948.58059,1758077947.79566,0.0,0.0,0.0,-37.87251,26.41335,-6.99009,7.64,2.32,1.32,2.0
1758077948.59651,1758077947.80566,0.0,0.0,0.0,-42.68536,17.81899,-6.47442,8.02,2.0,0.85,2.0
1758077948.5991,1758077947.81566,0.0,0.0,0.0,-46.2377,8.47978,-6.99009,8.02,2.0,0.85,2.0
1758077948.61626,1758077947.82566,0.0,0.0,0.0,-49.04519,2.23454,-8.47978,8.26,1.38,0.18,2.0
1758077948.61736,1758077947.83566,0.0,0.0,0.0,-50.76406,-1.3751,-11.63104,8.26,1.38,0.18,2.0
1758077948.63264,1758077947.84566,0.0,0.0,0.0,-50.01921,-0.74485,-13.69369,9.06,0.48,0.07,2.0
1758077948.63358,1758077947.85566,0.0,0.0,0.0,-48.64412,-0.40107,-15.24068,9.06,0.48,0.07,2.0
1758077948.64836,1758077947.86566,0.0,0.0,0.0,-46.40959,0.22918,-15.87093,9.42,-0.31,0.28,2.0
1758077948.66533,1758077947.87566,0.0,0.0,0.0,-41.99781,1.83346,-15.06879,9.73,-0.79,0.41,2.0
1758077948.66813,1758077947.88566,0.0,0.0,0.0,-38.78925,6.13065,-13.23533,9.73,-0.79,0.41,2.0
1758077948.68333,1758077947.89566,0.0,0.0,0.0,-35.52338,11.22997,-10.71431,10.14,-0.99,0.33,2.0
1758077948.68534,1758077947.90566,0.0,0.0,0.0,-31.74186,14.72501,-7.39116,10.14,-0.99,0.33,2.0
1758077948.70147,1758077947.91566,0.0,0.0,0.0,-26.41335,14.9542,-1.94806,9.69,-1.06,0.43,2.0
1758077948.70424,1758077947.92566,0.0,0.0,0.0,-23.20479,14.66772,1.3178,9.69,-1.06,0.43,2.0
1758077948.72025,1758077947.93566,0.0,0.0,0.0,-20.16812,11.28727,3.89611,9.32,-1.12,0.35,2.0
1758077948.7364,1758077947.94566,0.0,0.0,0.0,-17.6471,8.36518,4.98473,9.32,-1.12,0.35,2.0
1758077948.73913,1758077947.95566,0.0,0.0,0.0,-16.50119,3.83882,4.0107,9.13,-0.83,-0.08,2.0
1758077948.7546,1758077947.96566,0.0,0.0,0.0,-15.87093,-1.71887,2.57831,9.06,-0.27,-0.36,2.0
1758077948.75585,1758077947.97566,0.0,0.0,0.0,-15.35527,-11.22997,1.14592,9.06,-0.27,-0.36,2.0
1758077948.77067,1758077947.98566,0.0,0.0,0.0,-15.12609,-24.86637,-0.34377,8.45,0.21,-0.77,2.0
1758077948.78642,1758077947.99566,0.0,0.0,0.0,-15.35527,-31.91375,-1.20321,8.45,0.21,-0.77,2.0
1758077948.78759,1758077948.00566,0.0,0.0,0.0,-15.75634,-36.26823,-2.7502,8.82,0.7,-0.62,2.0
1758077948.80243,1758077948.01566,0.0,0.0,0.0,-15.87093,-39.24761,-2.23454,8.82,0.7,-0.62,2.0
1758077948.80549,1758077948.02566,0.0,0.0,0.0,-15.41257,-10.31324,1.43239,9.57,0.53,-0.3,2.0
1758077948.82037,1758077948.03566,0.0,0.0,0.0,-18.44924,3.60963,3.38045,12.32,1.01,0.32,2.0
1758077948.83663,1758077948.04566,0.0,0.0,0.0,-28.59059,-8.76626,-3.26586,12.32,1.01,0.32,2.0
1758077948.83946,1758077948.05566,0.0,0.0,0.0,-33.05967,-16.10011,-4.18259,9.22,1.91,-0.07,2.0
1758077948.85551,1758077948.06566,0.0,0.0,0.0,-38.50277,-17.18874,-7.39116,9.22,1.91,-0.07,2.0
1758077948.85671,1758077948.07566,0.0,0.0,0.0,-42.28429,-13.40721,-8.02141,10.59,2.06,-0.21,2.0
1758077948.87169,1758077948.08566,0.0,0.0,0.0,-46.75336,-7.44845,-7.21927,10.59,2.06,-0.21,2.0
1758077948.87267,1758077948.09566,0.0,0.0,0.0,-50.64947,-1.08862,-5.09932,11.55,1.81,-0.24,2.0
1758077948.88873,1758077948.10566,0.0,0.0,0.0,-54.25911,5.50039,-0.11459,11.74,1.13,0.0,2.0
1758077948.90577,1758077948.11566,0.0,0.0,0.0,-55.06125,6.07335,2.86479,11.74,1.13,0.0,2.0
1758077948.90665,1758077948.12566,0.0,0.0,0.0,-54.94666,6.7609,4.81285,11.21,0.47,-0.06,2.0
1758077948.92174,1758077948.13566,0.0,0.0,0.0,-54.60288,6.70361,5.90147,11.21,0.47,-0.06,2.0
1758077948.9227,1758077948.14566,0.0,0.0,0.0,-54.02992,1.77617,5.95876,10.91,0.12,0.1,2.0
1758077948.94175,1758077948.15566,0.0,0.0,0.0,-53.28508,-5.50039,6.07335,10.91,0.12,0.1,2.0
1758077948.94271,1758077948.16566,0.0,0.0,0.0,-51.73809,-17.87628,6.53172,10.86,-0.28,0.33,2.0
1758077948.96049,1758077948.17566,0.0,0.0,0.0,-48.58683,-50.82136,5.90147,10.86,-0.28,0.33,2.0
1758077948.97681,1758077948.18566,0.0,0.0,0.0,-46.69606,-72.36457,-0.17189,10.51,-0.7,2.08,2.0
1758077948.97895,1758077948.19566,0.0,0.0,0.0,-42.39888,-75.57314,-7.50575,13.48,-1.04,3.01,2.0
1758077948.99391,1758077948.20566,0.0,0.0,0.0,-36.49741,-68.06739,-14.66772,13.48,-1.04,3.01,2.0
1758077948.99472,1758077948.21566,0.0,0.0,0.0,-27.38738,-60.67623,-23.0329,16.01,-1.92,2.75,2.0
1758077949.01108,1758077948.22566,0.0,0.0,0.0,-22.57454,-58.67088,-24.57989,16.01,-1.92,2.75,2.0
1758077949.02688,1758077948.23566,0.0,0.0,0.0,-20.11082,-56.952,-23.26209,12.81,-1.53,1.57,2.0
1758077949.03096,1758077948.24566,0.0,0.0,0.0,-19.88164,-54.25911,-20.22541,12.81,-1.53,1.57,2.0
1758077949.04686,1758077948.25566,0.0,0.0,0.0,-23.66316,-43.60209,-14.78231,9.77,-0.76,1.1,2.0
1758077949.05096,1758077948.26566,0.0,0.0,0.0,-29.10626,-35.06502,-12.204,8.99,-0.37,1.74,2.0
1758077949.06664,1758077948.27566,0.0,0.0,0.0,-36.26823,-25.38203,-9.39651,8.99,-0.37,1.74,2.0
1758077949.06856,1758077948.28566,0.0,0.0,0.0,-44.40423,-16.55848,-6.18794,8.26,0.7,1.19,2.0
1758077949.08384,1758077948.29566,0.0,0.0,0.0,-55.6915,-4.98473,-1.83346,8.26,0.7,1.19,2.0
1758077949.08637,1758077948.30566,0.0,0.0,0.0,-61.59297,1.94806,0.40107,8.33,1.57,0.74,2.0
1758077949.10242,1758077948.31566,0.0,0.0,0.0,-66.00475,9.85487,1.43239,8.33,1.57,0.74,2.0
1758077949.10627,1758077948.32566,0.0,0.0,0.0,-68.58305,18.16276,1.20321,9.79,1.3,0.96,2.0
1758077949.12235,1758077948.33566,0.0,0.0,0.0,-67.43713,31.85646,0.11459,11.04,-0.23,1.1,2.0
1758077949.12359,1758077948.34566,0.0,0.0,0.0,-63.13995,41.65404,-1.20321,11.04,-0.23,1.1,2.0
1758077949.14094,1758077948.35566,0.0,0.0,0.0,-56.60823,48.75871,-1.66158,10.99,-2.31,0.79,2.0
1758077949.15854,1758077948.36566,0.0,0.0,0.0,-46.75336,50.3057,-2.40642,10.99,-2.31,0.79,2.0
1758077949.16502,1758077948.37566,0.0,0.0,0.0,-41.02378,46.00851,-2.7502,9.24,-3.63,0.09,2.0
1758077949.16561,1758077948.38566,0.0,0.0,0.0,-36.21093,42.1124,-3.03668,9.24,-3.63,0.09,2.0
1758077949.18184,1758077948.39566,0.0,0.0,0.0,-32.08564,37.47144,-2.63561,8.35,-3.5,-0.06,2.0
1758077949.18439,1758077948.40566,0.0,0.0,0.0,-26.98631,31.28349,-1.66158,8.35,-3.5,-0.06,2.0
1758077949.19994,1758077948.41566,0.0,0.0,0.0,-24.23611,28.13223,-1.08862,8.2,-2.32,0.04,2.0
1758077949.21561,1758077948.42566,0.0,0.0,0.0,-22.05888,24.80907,-0.40107,8.36,-1.21,0.15,2.0
1758077949.21635,1758077948.43566,0.0,0.0,0.0,-19.70975,20.79837,0.17189,8.36,-1.21,0.15,2.0
1758077949.23396,1758077948.44566,0.0,0.0,0.0,-16.61578,13.34992,0.97403,8.23,-0.73,0.24,2.0
1758077949.23645,1758077948.45566,0.0,0.0,0.0,-14.72501,10.25595,1.3178,8.23,-0.73,0.24,2.0
1758077949.252,1758077948.46566,0.0,0.0,0.0,-13.17803,10.31324,1.03132,8.58,-0.77,0.2,2.0
1758077949.25523,1758077948.47566,0.0,0.0,0.0,-11.97482,11.80293,0.34377,8.58,-0.77,0.2,2.0
1758077949.27087,1758077948.48566,0.0,0.0,0.0,-11.28727,13.75099,-1.66158,9.05,-1.04,0.3,2.0
1758077949.28673,1758077948.49566,0.0,0.0,0.0,-11.51645,14.78231,-3.32316,8.95,-1.16,0.4,2.0
1758077949.28945,1758077948.50566,0.0,0.0,0.0,-12.43318,15.29797,-5.21392,8.95,-1.16,0.4,2.0
1758077949.30703,1758077948.51566,0.0,0.0,0.0,-13.69369,14.49583,-7.21927,8.82,-1.03,0.28,2.0
1758077949.3084,1758077948.52566,0.0,0.0,0.0,-16.04282,13.00614,-10.48513,8.82,-1.03,0.28,2.0
1758077949.32407,1758077948.53566,0.0,0.0,0.0,-17.01685,12.2613,-11.91752,9.0,-0.76,0.19,2.0
1758077949.32577,1758077948.54566,0.0,0.0,0.0,-17.47521,11.45916,-12.83425,9.0,-0.76,0.19,2.0
1758077949.34104,1758077948.55566,0.0,0.0,0.0,-16.55848,11.51645,-11.74564,9.42,-0.65,0.22,2.0
1758077949.35706,1758077948.56566,0.0,0.0,0.0,-13.00614,13.23533,-10.25595,9.74,-0.96,0.05,2.0
1758077949.3574,1758077948.57566,0.0,0.0,0.0,-10.08406,14.20935,-8.70896,9.74,-0.96,0.05,2.0
1758077949.37295,1758077948.58566,0.0,0.0,0.0,-6.35983,15.24068,-7.10468,9.71,-1.45,-0.05,2.0
1758077949.37644,1758077948.59566,0.0,0.0,0.0,-0.17189,15.87093,-5.32851,9.71,-1.45,-0.05,2.0
1758077949.39207,1758077948.60566,0.0,0.0,0.0,4.87014,13.5218,-4.52637,9.57,-1.93,-0.1,2.0
1758077949.3954,1758077948.61566,0.0,0.0,0.0,10.25595,9.68299,-3.83882,9.57,-1.93,-0.1,2.0
1758077949.41079,1758077948.62566,0.0,0.0,0.0,15.98552,5.78687,-3.38045,9.2,-2.31,-0.37,2.0
1758077949.41522,1758077948.63566,0.0,0.0,0.0,24.57989,-4.35448,-3.09397,9.2,-2.31,-0.63,2.0
1758077949.43081,1758077948.64566,0.0,0.0,0.0,30.36677,-17.01685,-2.92208,8.77,-2.54,-0.63,2.0
1758077949.43237,1758077948.65566,0.0,0.0,0.0,35.06502,-30.99702,-2.92208,8.0,-2.54,-0.96,2.0
1758077949.44819,1758077948.66566,0.0,0.0,0.0,40.04975,-37.75792,-3.32316,8.0,-2.54,-0.96,2.0
1758077949.46385,1758077948.67566,0.0,0.0,0.0,47.44091,-28.99167,-1.94806,9.62,-2.5,-1.0,2.0
1758077949.46534,1758077948.68566,0.0,0.0,0.0,52.19646,-14.03747,0.0,9.62,-2.5,-1.0,2.0
1758077949.4801,1758077948.69566,0.0,0.0,0.0,54.88936,-0.85944,0.11459,11.58,-2.5,-0.12,2.0
1758077949.48104,1758077948.70566,0.0,0.0,0.0,57.75415,1.3751,-3.55234,11.58,-2.5,-0.12,2.0
1758077949.49641,1758077948.71566,0.0,0.0,0.0,62.96807,-46.40959,-3.72423,9.7,-1.98,0.24,2.0
1758077949.51467,1758077948.72566,0.0,0.0,0.0,70.24463,-74.25533,1.60428,8.14,-1.83,-1.77,2.0
1758077949.51613,1758077948.73566,0.0,0.0,0.0,73.96885,-73.2813,6.47442,8.14,-1.83,-1.77,2.0
1758077949.53087,1758077948.74566,0.0,0.0,0.0,75.63043,-62.56699,8.59437,12.46,-2.11,-1.85,2.0
1758077949.53633,1758077948.75566,0.0,0.0,0.0,77.92226,-52.9986,8.02141,12.46,-2.11,-1.85,2.0
1758077949.55089,1758077948.76566,0.0,0.0,0.0,79.41196,-46.2377,5.4431,11.2,-1.73,-1.61,2.0
1758077949.5522,1758077948.77566,0.0,0.0,0.0,80.0995,-37.98711,2.40642,11.2,-1.73,-1.61,2.0
1758077949.57069,1758077948.78566,0.0,0.0,0.0,77.23472,-30.76784,-3.26586,10.8,-1.28,-0.98,2.0
1758077949.5761,1758077948.79566,0.0,0.0,0.0,73.2813,-23.54857,-4.87014,12.11,-0.2,0.62,2.0
1758077949.59598,1758077948.80566,0.0,0.0,0.0,67.60902,-25.26744,-2.97938,12.11,-0.2,0.62,2.0
1758077949.59962,1758077948.81566,0.0,0.0,0.0,61.30648,-40.33623,-0.97403,14.49,1.33,3.09,2.0
1758077949.61602,1758077948.82566,0.0,0.0,0.0,58.3844,-72.47916,13.06344,14.49,1.33,3.09,2.0
1758077949.61889,1758077948.83566,0.0,0.0,0.0,56.14987,-63.59832,22.97561,15.09,1.36,2.36,2.0
1758077949.63466,1758077948.84566,0.0,0.0,0.0,53.05589,-49.50356,28.76248,15.09,1.36,2.36,2.0
1758077949.63598,1758077948.85566,0.0,0.0,0.0,49.67545,-43.77398,30.65324,15.82,0.93,0.75,2.0
1758077949.65096,1758077948.86566,0.0,0.0,0.0,45.03448,-39.01843,28.41871,10.68,0.62,0.57,2.0
1758077949.65235,1758077948.87566,0.0,0.0,0.0,42.51347,-29.33544,22.63183,10.68,0.62,0.57,2.0
1758077949.66831,1758077948.88566,0.0,0.0,0.0,43.02913,-23.54857,16.04282,7.94,0.27,1.17,2.0
1758077949.68505,1758077948.89566,0.0,0.0,0.0,45.09178,-17.58981,10.59972,7.94,0.27,1.17,2.0
1758077949.68676,1758077948.90566,0.0,0.0,0.0,48.70141,0.45837,5.90147,7.82,0.69,2.07,2.0
1758077949.70226,1758077948.91566,0.0,0.0,0.0,51.16513,12.14671,5.61499,7.82,0.69,2.07,2.0
1758077949.70597,1758077948.92566,0.0,0.0,0.0,53.17049,19.99623,7.33386,9.98,1.04,2.83,2.0
1758077949.72128,1758077948.93566,0.0,0.0,0.0,54.48829,26.12688,9.62569,9.98,1.04,2.83,2.0
1758077949.72574,1758077948.94566,0.0,0.0,0.0,53.11319,37.01308,10.37054,11.96,1.03,1.59,2.0
1758077949.74131,1758077948.95566,0.0,0.0,0.0,49.50356,44.8053,8.65166,12.95,0.82,0.8,2.0
1758077949.74574,1758077948.96566,0.0,0.0,0.0,44.748,51.73809,5.61499,12.95,0.82,0.8,2.0
1758077949.76132,1758077948.97566,0.0,0.0,0.0,39.07573,57.75415,-0.34377,11.53,0.98,0.38,2.0
1758077949.765,1758077948.98566,0.0,0.0,0.0,30.82513,65.43179,-4.0107,11.53,0.98,0.38,2.0
1758077949.78029,1758077948.99566,0.0,0.0,0.0,25.38203,68.29657,-6.7609,9.86,1.61,0.32,2.0
1758077949.78121,1758077949.00566,0.0,0.0,0.0,19.48057,67.37984,-8.93814,9.86,1.61,0.32,2.0
1758077949.79979,1758077949.01566,0.0,0.0,0.0,11.00079,62.85347,-9.62569,8.3,2.36,0.27,2.0
1758077949.80534,1758077949.02566,0.0,0.0,0.0,5.50039,59.01466,-9.68299,7.9,2.72,0.32,2.0
1758077949.82108,1758077949.03566,0.0,0.0,0.0,0.45837,55.11855,-8.93814,7.9,2.72,0.32,2.0
1758077949.82221,1758077949.04566,0.0,0.0,0.0,-4.1253,49.27437,-8.30789,8.05,2.45,0.48,2.0
1758077949.84041,1758077949.05566,0.0,0.0,0.0,-10.19865,38.61736,-7.10468,8.05,2.45,0.48,2.0
1758077949.84257,1758077949.06566,0.0,0.0,0.0,-14.09476,32.77319,-7.04738,8.27,1.74,0.86,2.0
1758077949.86055,1758077949.07566,0.0,0.0,0.0,-17.6471,23.60586,-6.07335,8.27,1.74,0.86,2.0
1758077949.86125,1758077949.08566,0.0,0.0,0.0,-21.25674,13.80828,-7.50575,8.2,1.12,0.87,2.0
1758077949.88003,1758077949.09566,0.0,0.0,0.0,-25.38203,5.4431,-8.88085,8.45,0.76,0.6,2.0
1758077949.88128,1758077949.10566,0.0,0.0,0.0,-26.69983,0.51566,-9.85487,8.45,0.76,0.6,2.0
1758077949.90132,1758077949.11566,0.0,0.0,0.0,-26.75713,-3.72423,-10.31324,8.46,0.46,0.37,2.0
1758077949.90228,1758077949.12566,0.0,0.0,0.0,-25.7831,-7.16197,-10.25595,8.46,0.46,0.37,2.0
1758077949.91881,1758077949.13566,0.0,0.0,0.0,-22.34536,-8.42248,-8.88085,8.86,0.05,0.19,2.0
1758077949.92257,1758077949.14566,0.0,0.0,0.0,-19.13679,-7.62034,-7.79223,8.86,0.05,0.19,2.0
1758077949.94116,1758077949.15566,0.0,0.0,0.0,-15.75634,-2.86479,-6.35983,9.55,-0.38,-0.04,2.0
1758077949.94398,1758077949.16566,0.0,0.0,0.0,-11.91752,3.32316,-4.35448,9.55,-0.38,-0.04,2.0
1758077949.95911,1758077949.17566,0.0,0.0,0.0,-7.79223,11.34457,-1.94806,10.18,-0.76,-0.23,2.0
1758077949.97515,1758077949.18566,0.0,0.0,0.0,-5.90147,15.35527,-0.74485,10.09,-0.77,-0.5,2.0
1758077949.9763,1758077949.19566,0.0,0.0,0.0,-4.92744,20.74107,0.22918,10.09,-0.77,-0.5,2.0
1758077949.99101,1758077949.20566,0.0,0.0,0.0,-4.46907,27.04361,0.51566,10.16,-0.52,-0.37,2.0
1758077949.99305,1758077949.21566,0.0,0.0,0.0,-4.87014,30.48136,0.11459,10.16,-0.52,-0.37,2.0
1758077950.0104,1758077949.22566,0.0,0.0,0.0,-6.18794,27.2155,-0.85944,9.6,-0.09,-0.24,2.0
1758077950.01218,1758077949.23566,0.0,0.0,0.0,-8.36518,21.02755,-1.3178,9.6,-0.09,-0.24,2.0
1758077950.03112,1758077949.24566,0.0,0.0,0.0,-13.86558,11.57375,-3.09397,9.13,0.53,-0.45,2.0
1758077950.03306,1758077949.25566,0.0,0.0,0.0,-17.87628,4.92744,-4.81285,9.04,1.2,-0.5,2.0
1758077950.051,1758077949.26566,0.0,0.0,0.0,-21.88699,-1.83346,-6.8182,9.04,1.2,-0.5,2.0
1758077950.05603,1758077949.27566,0.0,0.0,0.0,-25.21014,-13.00614,-8.76626,8.73,1.62,-0.61,2.0
1758077950.07119,1758077949.28566,0.0,0.0,0.0,-27.33009,-32.14294,-8.02141,8.73,1.62,-0.61,2.0
1758077950.07668,1758077949.29566,0.0,0.0,0.0,-24.5226,-33.74722,-6.35983,8.69,0.92,-0.53,2.0
1758077950.09121,1758077949.30566,0.0,0.0,0.0,-24.80907,-34.89313,-6.35983,8.69,0.92,-0.53,2.0
1758077950.10116,1758077949.31566,0.0,0.0,0.0,-26.24147,-34.09099,-6.35983,9.83,0.36,-0.52,2.0
1758077950.10612,1758077949.32566,0.0,0.0,0.0,-28.36141,-30.48136,-6.47442,10.36,0.6,-0.52,2.0
1758077950.1367,1758077949.33566,0.0,0.0,0.0,-29.62192,-28.41871,-6.53172,10.36,0.6,-0.52,2.0
1758077950.14582,1758077949.34566,0.0,0.0,0.0,-30.30947,-31.39809,-4.81285,10.2,0.45,-0.08,2.0
1758077950.14616,1758077949.35566,0.0,0.0,0.0,-32.71589,-29.39274,-5.61499,10.2,0.45,-0.08,2.0
1758077950.15056,1758077949.36566,0.0,0.0,0.0,-37.47144,-16.84496,-6.53172,11.37,0.48,-0.02,2.0
1758077950.16655,1758077949.37566,0.0,0.0,0.0,-40.85189,-13.5218,-5.78687,11.37,0.48,-0.02,2.0
1758077950.17256,1758077949.38566,0.0,0.0,0.0,-44.51882,-8.47978,-4.18259,11.06,0.7,-0.59,2.0
1758077950.17363,1758077949.39566,0.0,0.0,0.0,-47.72739,-2.6929,0.51566,11.06,0.7,-0.59,2.0
1758077950.19055,1758077949.40566,0.0,0.0,0.0,-51.85268,2.63561,3.89611,11.27,0.71,-0.6,2.0
1758077950.19259,1758077949.41566,0.0,0.0,0.0,-54.08722,3.60963,6.47442,10.59,0.59,-0.68,2.0
1758077950.2106,1758077949.42566,0.0,0.0,0.0,-55.40502,2.97938,8.0787,10.59,0.59,-0.68,2.0
1758077950.21146,1758077949.43566,0.0,0.0,0.0,-55.57691,-1.60428,9.11003,10.71,0.56,0.28,2.0
1758077950.22915,1758077949.44566,0.0,0.0,0.0,-55.23313,-10.02676,8.93814,10.71,0.56,0.28,2.0
1758077950.24556,1758077949.45566,0.0,0.0,0.0,-54.48829,-26.75713,8.136,11.09,0.06,1.8,2.0
1758077950.25081,1758077949.46566,0.0,0.0,0.0,-54.48829,-46.46688,3.26586,11.09,0.06,1.8,2.0
1758077950.26554,1758077949.47566,0.0,0.0,0.0,-49.38896,-63.31184,-8.25059,11.35,0.13,3.2,2.0
1758077950.26848,1758077949.48566,0.0,0.0,0.0,-44.40423,-63.65561,-16.95955,13.5,-0.5,3.05,2.0
1758077950.28491,1758077949.49566,0.0,0.0,0.0,-39.76327,-62.39511,-24.4653,13.5,-0.5,3.05,2.0
1758077950.28612,1758077949.50566,0.0,0.0,0.0,-36.38282,-61.36378,-28.87707,11.74,-0.56,1.78,2.0
1758077950.30162,1758077949.51566,0.0,0.0,0.0,-36.26823,-53.97263,-29.56462,11.74,-0.56,1.78,2.0
1758077950.30575,1758077949.52566,0.0,0.0,0.0,-39.4195,-42.97184,-26.52795,9.02,-0.08,1.18,2.0
1758077950.3216,1758077949.53566,0.0,0.0,0.0,-44.23235,-29.56462,-22.00158,9.02,-0.08,1.18,2.0
1758077950.32571,1758077949.54566,0.0,0.0,0.0,-49.27437,-16.84496,-17.18874,8.73,0.39,0.88,2.0
1758077950.3456,1758077949.55566,0.0,0.0,0.0,-56.60823,3.32316,-10.8289,10.32,0.87,0.63,2.0
1758077950.35057,1758077949.56566,0.0,0.0,0.0,-60.50434,15.06879,-7.50575,10.32,0.87,0.63,2.0
1758077950.36562,1758077949.57566,0.0,0.0,0.0,-63.13995,24.4653,-6.41713,12.22,1.48,-0.06,2.0
1758077950.36658,1758077949.58566,0.0,0.0,0.0,-64.57235,33.46074,-8.136,12.22,1.48,-0.06,2.0
1758077950.38643,1758077949.59566,0.0,0.0,0.0,-64.45775,43.4875,-13.00614,13.04,1.57,0.31,2.0
1758077950.41084,1758077949.60566,0.0,0.0,0.0,-61.99404,48.75871,-15.75634,13.04,1.57,0.31,2.0
1758077950.41574,1758077949.61566,0.0,0.0,0.0,-58.67088,54.08722,-17.58981,12.23,0.59,0.76,2.0
1758077950.41994,1758077949.62566,0.0,0.0,0.0,-51.39432,55.7488,-16.04282,12.23,0.59,0.76,2.0
1758077950.42058,1758077949.63566,0.0,0.0,0.0,-46.2377,49.38896,-13.40721,10.61,-1.28,0.73,2.0
1758077950.42523,1758077949.64566,0.0,0.0,0.0,-41.71133,42.39888,-10.31324,8.75,-2.9,0.16,2.0
1758077950.44068,1758077949.65566,0.0,0.0,0.0,-37.29956,37.87251,-6.41713,8.75,-2.9,0.16,2.0
1758077950.44508,1758077949.66566,0.0,0.0,0.0,-31.2262,31.62727,-0.51566,8.42,-3.32,0.16,2.0
1758077950.46069,1758077949.67566,0.0,0.0,0.0,-26.75713,27.44468,3.09397,8.42,-3.32,0.16,2.0
1758077950.46195,1758077949.68566,0.0,0.0,0.0,-22.23076,24.5226,6.07335,8.08,-2.61,0.12,2.0
1758077950.4794,1758077949.69566,0.0,0.0,0.0,-17.81899,21.25674,8.136,8.08,-2.61,0.12,2.0
1758077950.49575,1758077949.70566,0.0,0.0,0.0,-12.37589,15.98552,8.25059,8.2,-1.44,0.06,2.0
1758077950.49907,1758077949.71566,0.0,0.0,0.0,-9.33921,15.0115,7.39116,8.43,-0.52,0.01,2.0
1758077950.51447,1758077949.72566,0.0,0.0,0.0,-7.16197,16.21471,5.90147,8.43,-0.52,0.01,2.0
1758077950.51602,1758077949.73566,0.0,0.0,0.0,-5.84417,17.18874,4.0107,8.8,-0.1,0.02,2.0
1758077950.53068,1758077949.74566,0.0,0.0,0.0,-5.84417,17.36062,0.11459,8.8,-0.1,0.02,2.0
1758077950.53169,1758077949.75566,0.0,0.0,0.0,-6.99009,17.13144,-2.97938,8.85,0.0,0.18,2.0
1758077950.54848,1758077949.76566,0.0,0.0,0.0,-8.88085,16.38659,-6.35983,8.85,0.0,0.18,2.0
1758077950.56589,1758077949.77566,0.0,0.0,0.0,-10.37054,16.21471,-9.28192,9.14,-0.06,0.37,2.0
1758077950.56674,1758077949.78566,0.0,0.0,0.0,-13.06344,17.99088,-12.83425,9.66,-0.24,0.31,2.0
1758077950.58566,1758077949.79566,0.0,0.0,0.0,-14.49583,20.05352,-13.98017,9.66,-0.24,0.31,2.0
1758077950.58864,1758077949.80566,0.0,0.0,0.0,-15.58445,20.68378,-14.32395,9.88,-0.42,0.5,2.0
1758077950.60538,1758077949.81566,0.0,0.0,0.0,-15.87093,19.88164,-13.23533,9.88,-0.42,0.5,2.0
1758077950.60899,1758077949.82566,0.0,0.0,0.0,-14.78231,20.79837,-12.204,9.81,-0.58,0.39,2.0
1758077950.62579,1758077949.83566,0.0,0.0,0.0,-13.17803,21.14215,-10.8289,9.81,-0.58,0.39,2.0
1758077950.62666,1758077949.84566,0.0,0.0,0.0,-10.8289,20.68378,-9.33921,9.82,-0.81,0.3,2.0
1758077950.64582,1758077949.85566,0.0,0.0,0.0,-5.09932,17.36062,-6.24524,9.82,-0.81,0.3,2.0
1758077950.64758,1758077949.86566,0.0,0.0,0.0,0.80214,13.17803,-3.89611,9.63,-1.16,0.31,2.0
1758077950.66276,1758077949.87566,0.0,0.0,0.0,7.84952,7.10468,-1.60428,9.13,-1.77,-0.12,2.0
1758077950.66611,1758077949.88566,0.0,0.0,0.0,15.75634,1.71887,0.51566,9.13,-1.77,-0.12,2.0
1758077950.68544,1758077949.89566,0.0,0.0,0.0,29.04896,-8.70896,3.26586,8.76,-2.5,-0.54,2.0
1758077950.68754,1758077949.90566,0.0,0.0,0.0,38.38818,-22.63183,4.87014,8.76,-2.5,-0.54,2.0
1758077950.70573,1758077949.91566,0.0,0.0,0.0,46.35228,-37.81522,5.55769,7.77,-2.95,-0.93,2.0
1758077950.70803,1758077949.92566,0.0,0.0,0.0,53.45696,-47.78468,4.35448,7.77,-2.95,-0.93,2.0
1758077950.73546,1758077949.93566,0.0,0.0,0.0,63.65561,-27.67386,3.95341,8.51,-2.92,-1.39,2.0
1758077950.74493,1758077949.94566,0.0,0.0,0.0,69.55708,-8.99544,5.4431,11.41,-2.68,-0.34,2.0
1758077950.74526,1758077949.95566,0.0,0.0,0.0,72.99483,5.55769,4.98473,11.41,-2.68,-0.34,2.0
1758077950.74652,1758077949.96566,0.0,0.0,0.0,74.42722,11.91752,6.41713,10.86,-2.12,0.85,2.0
1758077950.76478,1758077949.97566,0.0,0.0,0.0,77.92226,-16.90226,5.61499,10.86,-2.12,0.85,2.0
1758077950.76595,1758077949.98566,0.0,0.0,0.0,82.90699,-50.01921,8.36518,7.24,-1.66,0.04,2.0
1758077950.78184,1758077949.99566,0.0,0.0,0.0,88.17821,-61.76485,15.69904,7.24,-1.66,0.04,2.0
1758077950.78514,1758077950.00566,0.0,0.0,0.0,90.58463,-48.35764,19.42327,10.24,-2.14,-2.0,2.0
1758077950.80074,1758077950.01566,0.0,0.0,0.0,93.6786,-28.64789,19.48057,11.29,-2.13,-1.34,2.0
1758077950.80296,1758077950.02566,0.0,0.0,0.0,95.0537,-21.7151,17.93358,11.29,-2.13,-1.34,2.0
1758077950.82087,1758077950.03566,0.0,0.0,0.0,94.59533,-19.70975,16.61578,10.82,-1.44,0.58,2.0
1758077950.82608,1758077950.04566,0.0,0.0,0.0,87.77714,-23.60586,15.75634,10.82,-1.44,0.58,2.0
1758077950.84589,1758077950.05566,0.0,0.0,0.0,81.36001,-35.06502,16.84496,13.92,0.8,2.16,2.0
1758077950.84764,1758077950.06566,0.0,0.0,0.0,76.48987,-52.13916,21.37133,13.92,0.8,2.16,2.0
1758077950.86685,1758077950.07566,0.0,0.0,0.0,71.56243,-54.94666,26.24147,16.07,3.21,1.88,2.0
1758077950.88872,1758077950.08566,0.0,0.0,0.0,63.31184,-41.71133,29.9084,16.07,3.21,1.88,2.0
1758077950.891,1758077950.09566,0.0,0.0,0.0,57.81144,-35.3515,27.78845,17.47,3.67,2.45,2.0
1758077950.89328,1758077950.10566,0.0,0.0,0.0,53.05589,-33.40344,22.68913,12.3,2.64,0.56,2.0
1758077950.89358,1758077950.11566,0.0,0.0,0.0,49.04519,-30.53865,17.30333,12.3,2.64,0.56,2.0
1758077950.9097,1758077950.12566,0.0,0.0,0.0,42.22699,-25.38203,5.90147,8.83,0.65,0.17,2.0
1758077950.92592,1758077950.13566,0.0,0.0,0.0,39.19032,-25.72581,-1.03132,8.83,0.65,0.17,2.0
1758077950.92896,1758077950.14566,0.0,0.0,0.0,38.56006,-23.54857,-5.50039,7.75,-0.16,-0.05,2.0
1758077950.94478,1758077950.15566,0.0,0.0,0.0,39.07573,-17.18874,-7.62034,7.75,-0.16,-0.05,2.0
1758077950.94569,1758077950.16566,0.0,0.0,0.0,41.94051,-10.59972,-6.70361,10.43,0.06,0.87,2.0
1758077950.96071,1758077950.17566,0.0,0.0,0.0,46.40959,-7.62034,-3.03668,11.95,0.87,1.7,2.0
1758077950.96284,1758077950.18566,0.0,0.0,0.0,52.9986,-5.78687,1.14592,11.95,0.87,1.7,2.0
1758077950.98071,1758077950.19566,0.0,0.0,0.0,60.44705,-1.20321,6.07335,11.12,1.27,1.44,2.0
1758077950.98542,1758077950.20566,0.0,0.0,0.0,71.04677,6.7609,11.00079,11.12,1.27,1.44,2.0
1758077951.00091,1758077950.21566,0.0,0.0,0.0,76.20339,12.37589,12.54778,9.2,1.36,1.08,2.0
1758077951.00194,1758077950.22566,0.0,0.0,0.0,80.0995,17.30333,13.12073,9.2,1.36,1.08,2.0
1758077951.02578,1758077950.23566,0.0,0.0,0.0,82.16215,22.05888,10.8862,7.94,1.31,1.08,2.0
1758077951.0308,1758077950.24566,0.0,0.0,0.0,82.21945,30.65324,7.79223,8.4,1.22,0.95,2.0
1758077951.04581,1758077950.25566,0.0,0.0,0.0,79.92762,37.35685,3.89611,8.4,1.22,0.95,2.0
1758077951.04698,1758077950.26566,0.0,0.0,0.0,75.91692,44.17505,0.0,9.65,1.53,0.45,2.0
1758077951.0649,1758077950.27566,0.0,0.0,0.0,67.60902,53.62885,-4.46907,9.65,1.53,0.45,2.0
1758077951.06627,1758077950.28566,0.0,0.0,0.0,61.02001,58.4417,-5.95876,10.19,2.25,-0.1,2.0
1758077951.08519,1758077950.29566,0.0,0.0,0.0,54.08722,62.68159,-6.99009,10.19,2.25,-0.1,2.0
1758077951.08617,1758077950.30566,0.0,0.0,0.0,47.38361,63.31184,-7.21927,9.87,2.8,-0.31,2.0
1758077951.10607,1758077950.31566,0.0,0.0,0.0,39.07573,58.84277,-6.07335,8.9,2.8,-0.34,2.0
1758077951.10738,1758077950.32566,0.0,0.0,0.0,35.00772,55.23313,-5.15662,8.9,2.83,-0.34,2.0
1758077951.12609,1758077950.33566,0.0,0.0,0.0,31.2262,51.27972,-4.23989,8.78,2.6,-0.12,2.0
1758077951.12888,1758077950.34566,0.0,0.0,0.0,28.76248,45.60744,-3.32316,8.78,2.6,-0.12,2.0
1758077951.14613,1758077950.35566,0.0,0.0,0.0,25.09555,34.43476,-3.09397,8.66,2.25,0.35,2.0
1758077951.15099,1758077950.36566,0.0,0.0,0.0,22.68913,25.21014,-3.83882,8.66,2.25,0.35,2.0
1758077951.16616,1758077950.37566,0.0,0.0,0.0,20.79837,15.41257,-4.92744,8.5,1.91,0.5,2.0
1758077951.17061,1758077950.38566,0.0,0.0,0.0,19.36597,6.7609,-5.95876,8.5,1.91,0.5,2.0
1758077951.18592,1758077950.39566,0.0,0.0,0.0,16.95955,-0.80214,-8.0787,8.78,1.61,0.41,2.0
1758077951.18738,1758077950.40566,0.0,0.0,0.0,15.46986,-3.95341,-9.4538,9.11,1.39,0.23,2.0
1758077951.20583,1758077950.41566,0.0,0.0,0.0,14.20935,-5.21392,-10.59972,9.11,1.39,0.23,2.0
1758077951.21062,1758077950.42566,0.0,0.0,0.0,13.34992,-5.78687,-11.22997,9.23,1.18,0.06,2.0
1758077951.22614,1758077950.43566,0.0,0.0,0.0,12.49048,-4.52637,-11.28727,9.23,1.18,0.06,2.0
1758077951.23025,1758077950.44566,0.0,0.0,0.0,12.204,-3.09397,-10.48513,9.31,0.97,-0.02,2.0
1758077951.24621,1758077950.45566,0.0,0.0,0.0,12.54778,-2.23454,-9.22462,9.31,0.97,-0.02,2.0
1758077951.24898,1758077950.46566,0.0,0.0,0.0,13.00614,0.40107,-5.72958,9.39,0.74,-0.11,2.0
1758077951.26579,1758077950.47566,0.0,0.0,0.0,12.60507,6.24524,-3.66693,10.04,0.58,-0.08,2.0
1758077951.27019,1758077950.48566,0.0,0.0,0.0,11.74564,13.46451,-2.06265,10.04,0.58,-0.08,2.0
1758077951.28577,1758077950.49566,0.0,0.0,0.0,10.48513,18.9649,-0.68755,10.27,0.62,-0.14,2.0
1758077951.2869,1758077950.50566,0.0,0.0,0.0,8.36518,24.98096,1.43239,10.27,0.62,-0.14,2.0
1758077951.3027,1758077950.51566,0.0,0.0,0.0,6.24524,28.24682,2.6929,9.99,0.79,-0.17,2.0
1758077951.30627,1758077950.52566,0.0,0.0,0.0,3.55234,29.73651,3.60963,9.99,0.79,-0.17,2.0
1758077951.32291,1758077950.53566,0.0,0.0,0.0,0.17189,30.48136,4.23989,9.86,1.11,-0.22,2.0
1758077951.3272,1758077950.54566,0.0,0.0,0.0,-5.84417,28.24682,4.23989,9.61,1.6,-0.34,2.0
1758077951.34517,1758077950.55566,0.0,0.0,0.0,-10.31324,24.98096,3.83882,9.61,1.6,-0.34,2.0
1758077951.34634,1758077950.56566,0.0,0.0,0.0,-14.72501,17.47521,3.20856,9.04,2.08,-0.45,2.0
1758077951.36223,1758077950.57566,0.0,0.0,0.0,-18.9649,5.21392,2.7502,9.04,2.08,-0.45,2.0
1758077951.36517,1758077950.58566,0.0,0.0,0.0,-24.57989,-13.5218,2.57831,8.11,2.27,-0.8,2.0
1758077951.3802,1758077950.59566,0.0,0.0,0.0,-28.30412,-24.75178,2.97938,8.11,2.27,-0.8,2.0
1758077951.39622,1758077950.60566,0.0,0.0,0.0,-33.00237,-32.08564,3.60963,8.44,2.09,-0.77,2.0
1758077951.40063,1758077950.61566,0.0,0.0,0.0,-37.75792,-32.37212,4.18259,8.44,2.09,-0.77,2.0
1758077951.41635,1758077950.62566,0.0,0.0,0.0,-46.06581,6.70361,3.95341,10.37,2.01,-0.6,2.0
1758077951.42046,1758077950.63566,0.0,0.0,0.0,-50.363,16.55848,5.4431,11.77,2.11,0.53,2.0
1758077951.46084,1758077950.64566,0.0,0.0,0.0,-57.23849,-9.05273,1.03132,11.77,2.11,0.53,2.0
1758077951.46603,1758077950.65566,0.0,0.0,0.0,-63.94209,-26.24147,-3.60963,7.67,2.54,0.28,2.0
1758077951.46641,1758077950.66566,0.0,0.0,0.0,-68.69764,-34.89313,-7.04738,7.67,2.54,0.28,2.0
1758077951.46787,1758077950.67566,0.0,0.0,0.0,-72.42187,-31.2262,-8.42248,10.2,2.71,-0.92,2.0
1758077951.46822,1758077950.68566,0.0,0.0,0.0,-75.34396,-25.8404,-8.0787,10.2,2.71,-0.92,2.0
1758077951.48602,1758077950.69566,0.0,0.0,0.0,-76.60446,-15.98552,-4.0107,11.28,2.22,-0.47,2.0
1758077951.49397,1758077950.70566,0.0,0.0,0.0,-75.57314,-9.4538,0.51566,11.84,1.33,-0.14,2.0
1758077951.49431,1758077950.71566,0.0,0.0,0.0,-73.91156,-2.86479,5.72958,11.84,1.33,-0.14,2.0
1758077951.53569,1758077950.72566,0.0,0.0,0.0,-71.90621,3.95341,10.94349,11.79,0.44,-0.94,2.0
1758077951.54105,1758077950.73566,0.0,0.0,0.0,-70.01544,10.37054,16.21471,11.79,0.44,-0.94,2.0
1758077951.54495,1758077950.74566,0.0,0.0,0.0,-68.52576,11.00079,17.6471,11.41,0.04,-0.87,2.0
1758077951.54578,1758077950.75566,0.0,0.0,0.0,-66.00475,7.10468,17.99088,11.41,0.04,-0.87,2.0
1758077951.5464,1758077950.76566,0.0,0.0,0.0,-62.16592,-0.85944,17.01685,11.93,0.01,-0.53,2.0
1758077951.56528,1758077950.77566,0.0,0.0,0.0,-55.97798,-24.92367,11.17268,11.74,0.09,1.21,2.0
1758077951.56627,1758077950.78566,0.0,0.0,0.0,-53.51426,-47.03984,2.11994,11.74,0.09,1.21,2.0
1758077951.58113,1758077950.79566,0.0,0.0,0.0,-50.2484,-57.86874,-8.93814,12.52,0.63,2.25,2.0
1758077951.58566,1758077950.80566,0.0,0.0,0.0,-46.2377,-54.94666,-18.79302,12.52,0.63,2.25,2.0
1758077951.6052,1758077950.81566,0.0,0.0,0.0,-39.53409,-50.1911,-27.50197,14.05,0.01,2.05,2.0
1758077951.6063,1758077950.82566,0.0,0.0,0.0,-36.21093,-48.52953,-28.59059,14.05,0.01,2.05,2.0
1758077951.62138,1758077950.83566,0.0,0.0,0.0,-34.72124,-49.33167,-26.18417,11.53,-0.45,1.39,2.0
1758077951.62231,1758077950.84566,0.0,0.0,0.0,-34.89313,-50.76406,-21.37133,11.53,-0.45,1.39,2.0
1758077951.64143,1758077950.85566,0.0,0.0,0.0,-36.03905,-49.90463,-10.71431,8.86,-0.12,0.23,2.0
1758077951.64587,1758077950.86566,0.0,0.0,0.0,-37.81522,-47.26902,-3.32316,7.68,0.02,-0.21,2.0
1758077951.66148,1758077950.87566,0.0,0.0,0.0,-40.85189,-43.77398,2.6929,7.68,0.02,-0.21,2.0
1758077951.66878,1758077950.88566,0.0,0.0,0.0,-48.30034,-39.13302,7.67763,7.1,0.14,0.62,2.0
1758077951.68593,1758077950.89566,0.0,0.0,0.0,-54.02992,-35.3515,7.96411,7.1,0.14,0.62,2.0
1758077951.69114,1758077950.90566,0.0,0.0,0.0,-60.38975,-31.2262,6.35983,7.52,0.64,1.82,2.0
1758077951.69893,1758077950.91566,0.0,0.0,0.0,-67.15066,-27.96034,2.40642,7.52,0.64,1.82,2.0
1758077951.71519,1758077950.92566,0.0,0.0,0.0,-76.43258,-20.45459,-3.89611,8.77,1.41,2.09,2.0
1758077951.71667,1758077950.93566,0.0,0.0,0.0,-80.61517,-11.97482,-7.50575,10.89,1.4,1.19,2.0
1758077951.73117,1758077950.94566,0.0,0.0,0.0,-82.84971,-0.57296,-9.4538,10.89,1.4,1.19,2.0
1758077951.73311,1758077950.95566,0.0,0.0,0.0,-83.13618,13.17803,-10.8289,12.84,0.15,0.0,2.0
1758077951.75028,1758077950.96566,0.0,0.0,0.0,-79.69843,33.40344,-10.8862,12.84,0.15,0.0,2.0
1758077951.7663,1758077950.97566,0.0,0.0,0.0,-75.85962,44.23235,-9.68299,13.05,-1.45,-0.6,2.0
1758077951.76979,1758077950.98566,0.0,0.0,0.0,-71.27596,49.50356,-7.96411,13.05,-1.45,-0.6,2.0
1758077951.79314,1758077950.99566,0.0,0.0,0.0,-66.74959,50.82136,-6.35983,11.55,-2.32,-0.59,2.0
1758077951.81022,1758077951.00566,0.0,0.0,0.0,-60.73353,50.3057,-3.83882,10.35,-2.22,-0.31,2.0
1758077951.81065,1758077951.01566,0.0,0.0,0.0,-57.23849,48.64412,-2.7502,10.35,-2.22,-0.31,2.0
1758077951.81613,1758077951.02566,0.0,0.0,0.0,-54.14451,44.51882,-2.40642,9.47,-1.75,0.03,2.0
1758077951.81878,1758077951.03566,0.0,0.0,0.0,-50.99325,39.76327,-2.06265,9.47,-1.75,0.03,2.0
1758077951.83425,1758077951.04566,0.0,0.0,0.0,-45.60744,32.25753,-1.03132,8.68,-1.48,0.0,2.0
1758077951.83944,1758077951.05566,0.0,0.0,0.0,-42.05511,26.98631,0.0,8.68,-1.48,0.0,2.0
1758077951.8546,1758077951.06566,0.0,0.0,0.0,-38.56006,21.94428,1.3178,8.1,-1.45,-0.2,2.0
1758077951.85574,1758077951.07566,0.0,0.0,0.0,-33.23156,19.48057,3.03668,8.1,-1.45,-0.2,2.0
1758077951.87053,1758077951.08566,0.0,0.0,0.0,-29.27814,18.73572,3.55234,8.26,-1.52,-0.1,2.0
1758077951.88901,1758077951.09566,0.0,0.0,0.0,-25.38203,19.48057,3.55234,8.56,-1.56,-0.13,2.0
1758077951.89097,1758077951.10566,0.0,0.0,0.0,-21.6578,20.11082,3.03668,8.56,-1.56,-0.13,2.0
1758077951.90636,1758077951.11566,0.0,0.0,0.0,-16.67307,21.42862,0.74485,8.71,-1.55,-0.02,2.0
1758077951.91017,1758077951.12566,0.0,0.0,0.0,-14.20935,22.86102,-1.43239,8.71,-1.55,-0.02,2.0
1758077951.9256,1758077951.13566,0.0,0.0,0.0,-12.54778,24.4653,-3.89611,9.01,-1.39,-0.1,2.0
1758077951.92657,1758077951.14566,0.0,0.0,0.0,-11.28727,25.7831,-6.53172,9.01,-1.39,-0.1,2.0
1758077951.94133,1758077951.15566,0.0,0.0,0.0,-10.59972,26.69983,-9.91217,9.25,-1.07,-0.16,2.0
1758077951.94525,1758077951.16566,0.0,0.0,0.0,-10.59972,26.69983,-11.00079,9.46,-0.75,-0.19,2.0
1758077951.96067,1758077951.17566,0.0,0.0,0.0,-11.11538,26.75713,-11.91752,9.46,-0.75,-0.19,2.0
1758077951.97664,1758077951.18566,0.0,0.0,0.0,-11.51645,25.38203,-11.86023,9.74,-0.54,-0.22,2.0
1758077951.98074,1758077951.19566,0.0,0.0,0.0,-11.80293,19.42327,-10.8289,9.74,-0.54,-0.22,2.0
1758077951.99636,1758077951.20566,0.0,0.0,0.0,-10.94349,17.01685,-9.39651,9.63,-0.56,-0.24,2.0
1758077952.00073,1758077951.21566,0.0,0.0,0.0,-9.91217,17.36062,-8.02141,9.63,-0.56,-0.24,2.0
1758077952.01669,1758077951.22566,0.0,0.0,0.0,-8.25059,17.76169,-6.8182,9.93,-0.86,-0.42,2.0
1758077952.02075,1758077951.23566,0.0,0.0,0.0,-4.64096,15.58445,-5.50039,9.52,-1.23,-0.22,2.0
1758077952.04067,1758077951.24566,0.0,0.0,0.0,-0.97403,12.2613,-4.81285,9.52,-1.23,-0.22,2.0
1758077952.0459,1758077951.25566,0.0,0.0,0.0,3.66693,7.33386,-3.72423,8.96,-1.59,-0.25,2.0
1758077952.04626,1758077951.26566,0.0,0.0,0.0,8.65166,0.68755,-2.97938,8.96,-1.59,-0.25,2.0
1758077952.06569,1758077951.27566,0.0,0.0,0.0,17.30333,-10.25595,-1.77617,8.49,-1.91,-0.71,2.0
1758077952.06659,1758077951.28566,0.0,0.0,0.0,22.91831,-20.51189,-0.0573,8.49,-1.91,-0.71,2.0
1758077952.0825,1758077951.29566,0.0,0.0,0.0,27.44468,-35.63798,1.20321,7.98,-2.13,-0.97,2.0
1758077952.08773,1758077951.30566,0.0,0.0,0.0,34.37747,-43.83128,2.23454,7.98,-2.13,-0.97,2.0
1758077952.10561,1758077951.31566,0.0,0.0,0.0,39.07573,-31.28349,3.26586,8.62,-2.25,-1.34,2.0
1758077952.11092,1758077951.32566,0.0,0.0,0.0,42.34158,-12.2613,4.64096,11.63,-2.29,-0.32,2.0
1758077952.15565,1758077951.33566,0.0,0.0,0.0,44.46153,0.40107,5.50039,11.63,-2.29,-0.32,2.0
1758077952.16091,1758077951.34566,0.0,0.0,0.0,48.64412,-0.68755,2.57831,10.83,-2.04,0.73,2.0
1758077952.16124,1758077951.35566,0.0,0.0,0.0,49.79003,-30.19488,0.97403,10.83,-2.04,0.73,2.0
1758077952.17068,1758077951.36566,0.0,0.0,0.0,54.14451,-55.29043,3.55234,7.74,-1.66,-0.33,2.0
1758077952.17105,1758077951.37566,0.0,0.0,0.0,58.4417,-58.21251,8.70896,7.74,-1.66,-0.33,2.0
1758077952.17648,1758077951.38566,0.0,0.0,0.0,59.98868,-40.7373,8.02141,11.52,-2.06,-2.09,2.0
1758077952.18008,1758077951.39566,0.0,0.0,0.0,61.36378,-30.65324,6.07335,12.19,-1.84,-2.18,2.0
1758077952.20076,1758077951.40566,0.0,0.0,0.0,61.76485,-23.31938,2.92208,12.19,-1.84,-2.18,2.0
1758077952.20572,1758077951.41566,0.0,0.0,0.0,59.41573,-21.02755,0.68755,12.0,-1.28,0.85,2.0
1758077952.20902,1758077951.42566,0.0,0.0,0.0,51.39432,-29.9084,3.83882,12.0,-1.28,0.85,2.0
1758077952.23034,1758077951.43566,0.0,0.0,0.0,43.88857,-41.59674,9.11003,14.8,0.46,3.19,2.0
1758077952.23192,1758077951.44566,0.0,0.0,0.0,37.58603,-53.62885,17.76169,14.8,0.46,3.19,2.0
1758077952.24662,1758077951.45566,0.0,0.0,0.0,31.85646,-52.71212,23.54857,16.74,2.66,2.45,2.0
1758077952.25087,1758077951.46566,0.0,0.0,0.0,23.26209,-35.52338,25.21014,14.62,2.16,-0.52,2.0
1758077952.2707,1758077951.47566,0.0,0.0,0.0,17.47521,-27.2155,21.48592,14.62,2.16,-0.52,2.0
1758077952.27115,1758077951.48566,0.0,0.0,0.0,12.49048,-26.01229,17.24603,9.66,1.39,-0.71,2.0
1758077952.27791,1758077951.49566,0.0,0.0,0.0,8.47978,-24.4653,9.28192,9.66,1.39,-0.71,2.0
1758077952.29514,1758077951.50566,0.0,0.0,0.0,9.39651,-25.15285,4.35448,7.81,0.53,0.08,2.0
1758077952.29637,1758077951.51566,0.0,0.0,0.0,12.83425,-28.24682,1.60428,7.81,0.53,0.08,2.0
1758077952.31343,1758077951.52566,0.0,0.0,0.0,16.84496,-24.92367,0.85944,8.69,-0.07,1.27,2.0
1758077952.31611,1758077951.53566,0.0,0.0,0.0,23.26209,-16.10011,3.32316,8.69,-0.07,1.27,2.0
1758077952.33161,1758077951.54566,0.0,0.0,0.0,29.04896,-14.78231,6.99009,12.18,-0.6,3.18,2.0
1758077952.33453,1758077951.55566,0.0,0.0,0.0,35.58068,-15.06879,10.8862,12.0,-0.55,2.71,2.0
1758077952.3509,1758077951.56566,0.0,0.0,0.0,42.1124,-10.8289,14.20935,12.0,-0.55,2.71,2.0
1758077952.35601,1758077951.57566,0.0,0.0,0.0,50.2484,0.57296,16.272,10.56,-0.15,1.78,2.0
1758077952.3709,1758077951.58566,0.0,0.0,0.0,54.3164,6.87549,16.21471,10.56,-0.15,1.78,2.0
1758077952.37259,1758077951.59566,0.0,0.0,0.0,56.49364,12.54778,14.32395,8.83,0.41,1.6,2.0
1758077952.39589,1758077951.60566,0.0,0.0,0.0,56.78012,18.79302,11.17268,8.83,0.41,1.6,2.0
1758077952.40109,1758077951.61566,0.0,0.0,0.0,53.34238,28.93437,4.18259,9.04,1.06,1.46,2.0
1758077952.40634,1758077951.62566,0.0,0.0,0.0,48.75871,35.98175,-0.17189,10.22,1.74,0.66,2.0
1758077952.42261,1758077951.63566,0.0,0.0,0.0,42.74266,43.54479,-4.23989,10.22,1.74,0.66,2.0
1758077952.42596,1758077951.64566,0.0,0.0,0.0,35.75257,50.1911,-7.10468,11.1,2.49,0.16,2.0
1758077952.44592,1758077951.65566,0.0,0.0,0.0,25.72581,57.23849,-9.22462,11.1,2.49,0.16,2.0
1758077952.44777,1758077951.66566,0.0,0.0,0.0,19.76705,60.04598,-9.91217,10.65,2.88,0.01,2.0
1758077952.46555,1758077951.67566,0.0,0.0,0.0,14.9542,61.42108,-9.68299,10.65,2.88,0.01,2.0
1758077952.46645,1758077951.68566,0.0,0.0,0.0,11.28727,61.70755,-9.62569,9.71,2.62,0.0,2.0
1758077952.48247,1758077951.69566,0.0,0.0,0.0,7.62034,62.28051,-9.39651,9.36,1.96,0.01,2.0
1758077952.48612,1758077951.70566,0.0,0.0,0.0,6.24524,62.22322,-9.39651,9.36,1.96,0.01,2.0
1758077952.50199,1758077951.71566,0.0,0.0,0.0,5.61499,59.75951,-9.33921,9.02,1.07,0.18,2.0
1758077952.50524,1758077951.72566,0.0,0.0,0.0,5.95876,50.82136,-8.88085,9.02,1.07,0.18,2.0
1758077952.52103,1758077951.73566,0.0,0.0,0.0,6.70361,42.97184,-8.70896,8.27,0.21,0.47,2.0
1758077952.52538,1758077951.74566,0.0,0.0,0.0,7.73493,34.49206,-8.36518,8.27,0.21,0.47,2.0
1758077952.54106,1758077951.75566,0.0,0.0,0.0,9.05273,24.00693,-8.02141,7.79,-0.26,0.6,2.0
1758077952.5421,1758077951.76566,0.0,0.0,0.0,11.22997,8.02141,-7.50575,7.79,-0.26,0.61,2.0
1758077952.56082,1758077951.77566,0.0,0.0,0.0,12.43318,-2.00535,-6.70361,7.39,-0.29,0.61,2.0
1758077952.56117,1758077951.78566,0.0,0.0,0.0,13.12073,-10.54242,-5.84417,7.45,0.14,0.54,2.0
1758077952.57971,1758077951.79566,0.0,0.0,0.0,13.5218,-18.10547,-4.98473,7.45,0.14,0.54,2.0
1758077952.58094,1758077951.80566,0.0,0.0,0.0,13.06344,-24.63719,-4.46907,7.85,0.74,0.53,2.0
1758077952.59798,1758077951.81566,0.0,0.0,0.0,12.43318,-24.17882,-4.0107,7.85,0.74,0.53,2.0
1758077952.61375,1758077951.82566,0.0,0.0,0.0,11.34457,-20.79837,-3.60963,8.79,1.17,0.43,2.0
1758077952.61847,1758077951.83566,0.0,0.0,0.0,10.02676,-15.0115,-3.03668,8.79,1.17,0.43,2.0
1758077952.63418,1758077951.84566,0.0,0.0,0.0,7.84952,-3.38045,-1.43239,9.58,1.22,0.28,2.0
1758077952.63937,1758077951.85566,0.0,0.0,0.0,5.90147,5.61499,-0.17189,9.97,0.97,-0.01,2.0
1758077952.65568,1758077951.86566,0.0,0.0,0.0,4.0107,14.66772,0.85944,9.97,0.97,-0.01,2.0
1758077952.65926,1758077951.87566,0.0,0.0,0.0,2.11994,23.0902,1.48969,10.12,0.73,-0.23,2.0
1758077952.67458,1758077951.88566,0.0,0.0,0.0,-0.74485,29.9084,1.83346,10.12,0.73,-0.23,2.0
1758077952.67578,1758077951.89566,0.0,0.0,0.0,-2.57831,29.22085,2.06265,9.74,0.67,-0.38,2.0
1758077952.69077,1758077951.90566,0.0,0.0,0.0,-4.87014,27.73116,2.46372,9.74,0.67,-0.38,2.0
1758077952.69637,1758077951.91566,0.0,0.0,0.0,-8.93814,25.38203,2.92208,9.67,0.81,-0.45,2.0
1758077952.71099,1758077951.92566,0.0,0.0,0.0,-11.97482,16.10011,3.32316,9.7,1.12,-0.51,2.0
1758077952.71281,1758077951.93566,0.0,0.0,0.0,-15.87093,9.33921,2.86479,9.7,1.12,-0.51,2.0
1758077952.7297,1758077951.94566,0.0,0.0,0.0,-19.76705,3.72423,1.71887,9.67,1.54,-0.61,2.0
1758077952.73255,1758077951.95566,0.0,0.0,0.0,-25.72581,-6.47442,-0.74485,9.67,1.54,-0.61,2.0
1758077952.75097,1758077951.96566,0.0,0.0,0.0,-28.93437,-16.3293,-2.57831,9.39,1.91,-0.75,2.0
1758077952.75527,1758077951.97566,0.0,0.0,0.0,-31.79916,-29.67921,-2.7502,9.39,1.91,-0.75,2.0
1758077952.77094,1758077951.98566,0.0,0.0,0.0,-34.77854,-36.84119,-3.20856,9.25,1.83,-1.0,2.0
1758077952.77237,1758077951.99566,0.0,0.0,0.0,-38.73195,-38.44547,-2.86479,10.78,1.83,-0.97,2.0
1758077952.79011,1758077952.00566,0.0,0.0,0.0,-40.7373,-37.98711,-1.83346,10.78,1.53,-0.97,2.0
1758077952.7914,1758077952.01566,0.0,0.0,0.0,-44.00316,-33.40344,-0.74485,11.83,1.19,-1.04,2.0
1758077952.8159,1758077952.02566,0.0,0.0,0.0,-46.52417,-26.47065,0.85944,11.83,1.19,-1.04,2.0
1758077952.81992,1758077952.03566,0.0,0.0,0.0,-50.82136,-13.69369,4.1253,12.32,0.99,-1.28,2.0
1758077952.83568,1758077952.04566,0.0,0.0,0.0,-54.14451,-7.62034,5.95876,12.32,0.99,-1.28,2.0
1758077952.83929,1758077952.05566,0.0,0.0,0.0,-57.0093,-1.66158,7.79223,11.64,1.01,-1.08,2.0
1758077952.85487,1758077952.06566,0.0,0.0,0.0,-59.87409,-5.61499,9.05273,11.64,1.01,-1.08,2.0
1758077952.85604,1758077952.07566,0.0,0.0,0.0,-64.45775,-14.32395,7.73493,11.19,1.29,0.14,2.0
1758077952.87101,1758077952.08566,0.0,0.0,0.0,-65.71826,-20.68378,5.78687,12.22,1.05,0.95,2.0
1758077952.87607,1758077952.09566,0.0,0.0,0.0,-65.66096,-28.13223,3.66693,12.22,1.05,0.95,2.0
1758077952.89094,1758077952.10566,0.0,0.0,0.0,-64.51505,-40.7946,-1.66158,11.8,0.61,2.1,2.0
1758077952.89458,1758077952.11566,0.0,0.0,0.0,-60.90542,-60.61894,-7.67763,11.8,0.61,2.1,2.0
1758077952.91392,1758077952.12566,0.0,0.0,0.0,-56.14987,-65.08801,-14.78231,13.19,-0.02,3.62,2.0
1758077952.91511,1758077952.13566,0.0,0.0,0.0,-49.15978,-63.19725,-20.68378,13.19,-0.02,3.62,2.0
1758077952.92999,1758077952.14566,0.0,0.0,0.0,-39.82057,-59.64491,-23.94964,14.94,-1.48,3.18,2.0
1758077952.93115,1758077952.15566,0.0,0.0,0.0,-36.15364,-58.72818,-23.49127,11.13,-1.06,2.18,2.0
1758077952.95573,1758077952.16566,0.0,0.0,0.0,-35.00772,-52.884,-20.97026,11.13,-1.06,2.18,2.0
1758077952.95961,1758077952.17566,0.0,0.0,0.0,-36.55471,-44.11775,-16.61578,8.19,-0.41,1.3,2.0
1758077952.97582,1758077952.18566,0.0,0.0,0.0,-42.1124,-28.59059,-8.59437,8.19,-0.41,1.3,2.0
1758077952.98102,1758077952.19566,0.0,0.0,0.0,-46.75336,-17.13144,-2.86479,7.22,0.05,0.74,2.0
1758077952.9856,1758077952.20566,0.0,0.0,0.0,-51.27972,-5.78687,2.06265,7.22,0.05,0.74,2.0
1758077953.0013,1758077952.21566,0.0,0.0,0.0,-55.29043,5.50039,6.24524,7.79,0.59,0.37,2.0
1758077953.02583,1758077952.22566,0.0,0.0,0.0,-59.12925,23.83505,9.22462,9.56,0.51,0.11,2.0
1758077953.02657,1758077952.23566,0.0,0.0,0.0,-59.41573,34.0337,8.59437,9.56,0.51,0.11,2.0
1758077953.03096,1758077952.24566,0.0,0.0,0.0,-58.21251,42.57077,6.35983,10.73,-0.27,0.24,2.0
1758077953.03156,1758077952.25566,0.0,0.0,0.0,-55.51962,48.70141,3.09397,10.73,-0.27,0.24,2.0
1758077953.04876,1758077952.26566,0.0,0.0,0.0,-50.64947,49.61814,-2.11994,10.51,-1.09,0.37,2.0
1758077953.06609,1758077952.27566,0.0,0.0,0.0,-47.26902,47.44091,-5.21392,10.51,-1.09,0.37,2.0
1758077953.06708,1758077952.28566,0.0,0.0,0.0,-43.94586,44.57612,-7.16197,9.63,-1.47,0.25,2.0
1758077953.08224,1758077952.29566,0.0,0.0,0.0,-41.08107,40.7946,-8.02141,9.63,-1.47,0.25,2.0
1758077953.08568,1758077952.30566,0.0,0.0,0.0,-37.64333,33.86181,-7.73493,9.1,-1.45,0.19,2.0
1758077953.10104,1758077952.31566,0.0,0.0,0.0,-35.58068,29.04896,-6.8182,8.62,-1.22,0.27,2.0
1758077953.10543,1758077952.32566,0.0,0.0,0.0,-33.34615,23.66316,-5.4431,8.62,-1.22,0.27,2.0
1758077953.12134,1758077952.33566,0.0,0.0,0.0,-30.19488,18.44924,-3.38045,8.34,-1.07,0.28,2.0
1758077953.12581,1758077952.34566,0.0,0.0,0.0,-27.84575,12.83425,-2.23454,8.34,-1.07,0.28,2.0
1758077953.14132,1758077952.35566,0.0,0.0,0.0,-25.61122,11.34457,-1.20321,8.49,-1.1,0.27,2.0
1758077953.14583,1758077952.36566,0.0,0.0,0.0,-23.31938,10.94349,-0.34377,8.49,-1.1,0.27,2.0
1758077953.16139,1758077952.37566,0.0,0.0,0.0,-19.99623,11.28727,-0.0573,8.83,-1.24,0.35,2.0
1758077953.16481,1758077952.38566,0.0,0.0,0.0,-18.10547,11.63104,-0.40107,8.95,-1.3,0.26,2.0
1758077953.18038,1758077952.39566,0.0,0.0,0.0,-16.3293,12.08941,-1.3751,8.95,-1.3,0.26,2.0
1758077953.18136,1758077952.40566,0.0,0.0,0.0,-15.12609,12.37589,-2.57831,9.0,-1.16,0.16,2.0
1758077953.199,1758077952.41566,0.0,0.0,0.0,-14.09476,11.51645,-4.87014,9.0,-1.16,0.16,2.0
1758077953.21416,1758077952.42566,0.0,0.0,0.0,-13.5218,11.34457,-6.18794,8.91,-0.9,0.02,2.0
1758077953.21887,1758077952.43566,0.0,0.0,0.0,-13.34992,11.57375,-7.44845,8.91,-0.9,0.02,2.0
1758077953.23446,1758077952.44566,0.0,0.0,0.0,-13.06344,11.74564,-8.47978,9.05,-0.68,-0.03,2.0
1758077953.24085,1758077952.45566,0.0,0.0,0.0,-11.86023,11.91752,-9.5684,9.2,-0.6,-0.05,2.0
1758077953.24156,1758077952.46566,0.0,0.0,0.0,-10.59972,13.46451,-9.74028,9.2,-0.6,-0.05,2.0
1758077953.26044,1758077952.47566,0.0,0.0,0.0,-8.99544,14.32395,-10.08406,9.4,-0.72,-0.05,2.0
1758077953.2617,1758077952.48566,0.0,0.0,0.0,-6.70361,17.76169,-10.25595,9.4,-0.72,-0.05,2.0
1758077953.27872,1758077952.49566,0.0,0.0,0.0,-3.55234,25.21014,-11.74564,9.69,-0.95,-0.11,2.0
1758077953.2944,1758077952.50566,0.0,0.0,0.0,-0.68755,29.9084,-12.54778,9.69,-0.95,-0.11,2.0
1758077953.29649,1758077952.51566,0.0,0.0,0.0,2.6929,32.14294,-13.34992,9.65,-1.23,0.14,2.0
1758077953.31423,1758077952.52566,0.0,0.0,0.0,7.10468,30.76784,-13.12073,9.65,-1.23,0.14,2.0
1758077953.31542,1758077952.53566,0.0,0.0,0.0,15.58445,19.36597,-11.97482,9.17,-1.61,0.21,2.0
1758077953.33018,1758077952.54566,0.0,0.0,0.0,22.00158,9.33921,-10.37054,8.74,-2.12,-0.31,2.0
1758077953.33138,1758077952.55566,0.0,0.0,0.0,28.87707,0.11459,-8.36518,8.74,-2.12,-0.31,2.0
1758077953.34746,1758077952.56566,0.0,0.0,0.0,39.70598,-12.71966,-4.81285,9.08,-2.61,-0.55,2.0
1758077953.36587,1758077952.57566,0.0,0.0,0.0,46.46688,-23.20479,-1.77617,9.08,-2.61,-0.55,2.0
1758077953.36784,1758077952.58566,0.0,0.0,0.0,52.25375,-40.7373,1.77617,8.85,-2.82,-0.47,2.0
1758077953.38568,1758077952.59566,0.0,0.0,0.0,55.6342,-54.25911,3.89611,8.85,-2.82,-0.47,2.0
1758077953.3876,1758077952.60566,0.0,0.0,0.0,58.49899,-46.52417,5.90147,9.53,-2.6,-0.85,2.0
1758077953.40593,1758077952.61566,0.0,0.0,0.0,59.35843,-30.48136,7.33386,12.68,-2.19,-0.9,2.0
1758077953.40791,1758077952.62566,0.0,0.0,0.0,57.63955,-15.58445,7.67763,12.68,-2.19,-0.9,2.0
1758077953.42511,1758077952.63566,0.0,0.0,0.0,54.88936,-5.84417,7.21927,12.37,-1.4,-0.24,2.0
1758077953.42788,1758077952.64566,0.0,0.0,0.0,52.13916,-4.98473,3.89611,12.37,-1.4,-0.24,2.0
1758077953.44481,1758077952.65566,0.0,0.0,0.0,53.34238,-22.28806,3.60963,10.08,-0.71,-1.39,2.0
1758077953.44608,1758077952.66566,0.0,0.0,0.0,55.97798,-38.1017,4.69825,10.08,-0.71,-1.39,2.0
1758077953.46158,1758077952.67566,0.0,0.0,0.0,55.51962,-37.58603,4.52637,9.57,-0.44,-2.28,2.0
1758077953.46836,1758077952.68566,0.0,0.0,0.0,53.05589,-38.50277,7.73493,13.57,0.33,0.82,2.0
1758077953.48648,1758077952.69566,0.0,0.0,0.0,52.02457,-59.12925,12.43318,13.57,0.33,0.82,2.0
1758077953.49091,1758077952.70566,0.0,0.0,0.0,52.42564,-82.90699,21.31403,14.49,1.31,3.35,2.0
1758077953.49258,1758077952.71566,0.0,0.0,0.0,51.39432,-88.29281,31.79916,14.49,1.31,3.35,2.0
1758077953.51566,1758077952.72566,0.0,0.0,0.0,44.9199,-71.90621,42.51347,19.28,1.59,4.51,2.0
1758077953.52091,1758077952.73566,0.0,0.0,0.0,38.27358,-60.27517,40.45082,19.28,1.59,4.51,2.0
1758077953.55094,1758077952.74566,0.0,0.0,0.0,31.79916,-55.40502,35.75257,15.1,2.23,1.14,2.0
1758077953.55593,1758077952.75566,0.0,0.0,0.0,25.43933,-48.52953,25.7831,15.1,2.23,1.14,2.0
1758077953.56038,1758077952.76566,0.0,0.0,0.0,26.18417,-37.29956,17.53251,8.84,1.29,1.39,2.0
1758077953.56102,1758077952.77566,0.0,0.0,0.0,30.30947,-35.06502,10.31324,6.4,0.9,1.46,2.0
1758077953.56593,1758077952.78566,0.0,0.0,0.0,37.01308,-27.2155,4.69825,6.4,0.9,1.46,2.0
1758077953.58533,1758077952.79566,0.0,0.0,0.0,49.96192,-3.49504,-0.0573,10.22,0.52,3.25,2.0
1758077953.58652,1758077952.80566,0.0,0.0,0.0,57.75415,9.5684,-1.08862,10.22,0.52,3.25,2.0
1758077953.60594,1758077952.81566,0.0,0.0,0.0,63.25455,20.74107,-0.74485,12.83,0.49,1.52,2.0
1758077953.60694,1758077952.82566,0.0,0.0,0.0,64.91612,34.32018,0.22918,12.83,0.49,1.52,2.0
1758077953.62588,1758077952.83566,0.0,0.0,0.0,61.1346,55.7488,0.0573,12.95,0.69,0.15,2.0
1758077953.62862,1758077952.84566,0.0,0.0,0.0,56.20716,66.11933,-0.57296,11.15,1.16,-0.12,2.0
1758077953.64603,1758077952.85566,0.0,0.0,0.0,50.13381,72.65105,-2.11994,11.15,1.16,-0.12,2.0
1758077953.64694,1758077952.86566,0.0,0.0,0.0,44.51882,77.57849,-3.66693,9.26,1.85,0.31,2.0
1758077953.66608,1758077952.87566,0.0,0.0,0.0,36.38282,81.01624,-6.18794,9.26,1.85,0.31,2.0
1758077953.66756,1758077952.88566,0.0,0.0,0.0,31.56997,80.61517,-6.47442,8.16,2.39,0.31,2.0
1758077953.68566,1758077952.89566,0.0,0.0,0.0,27.10091,78.43793,-6.47442,8.16,2.39,0.31,2.0
1758077953.68672,1758077952.90566,0.0,0.0,0.0,22.91831,75.34396,-6.24524,7.59,2.59,0.44,2.0
1758077953.70567,1758077952.91566,0.0,0.0,0.0,17.36062,68.75494,-5.27121,7.48,2.53,0.41,2.0
1758077953.70661,1758077952.92566,0.0,0.0,0.0,14.72501,65.14531,-4.81285,7.48,2.53,0.41,2.0
1758077953.72539,1758077952.93566,0.0,0.0,0.0,12.49048,61.24919,-4.29718,7.85,2.09,0.77,2.0
1758077953.72663,1758077952.94566,0.0,0.0,0.0,10.37054,55.86338,-3.66693,7.85,2.09,0.77,2.0
1758077953.74564,1758077952.95566,0.0,0.0,0.0,7.96411,43.65939,-3.32316,7.83,1.46,1.08,2.0
1758077953.74663,1758077952.96566,0.0,0.0,0.0,5.95876,34.66395,-2.92208,7.83,1.46,1.08,2.0
1758077953.76572,1758077952.97566,0.0,0.0,0.0,4.23989,25.38203,-2.46372,7.72,0.95,0.99,2.0
1758077953.76859,1758077952.98566,0.0,0.0,0.0,2.23454,12.83425,-2.34913,7.72,0.95,0.99,2.0
1758077953.78596,1758077952.99566,0.0,0.0,0.0,1.66158,5.4431,-2.29183,7.82,0.68,0.76,2.0
1758077953.79612,1758077953.00566,0.0,0.0,0.0,1.48969,-1.60428,-1.71887,8.02,0.62,0.67,2.0
1758077953.8015,1758077953.01566,0.0,0.0,0.0,2.06265,-7.50575,-0.68755,8.02,0.62,0.67,2.0
1758077953.80639,1758077953.02566,0.0,0.0,0.0,3.72423,-14.61043,1.60428,8.38,0.64,0.47,2.0
1758077953.82579,1758077953.03566,0.0,0.0,0.0,5.4431,-16.38659,2.7502,8.38,0.64,0.47,2.0
1758077953.83069,1758077953.04566,0.0,0.0,0.0,7.44845,-14.72501,4.1253,8.98,0.58,0.34,2.0
1758077953.8457,1758077953.05566,0.0,0.0,0.0,9.91217,-10.19865,5.50039,8.98,0.58,0.34,2.0
1758077953.85061,1758077953.06566,0.0,0.0,0.0,13.80828,-0.51566,8.02141,9.67,0.27,0.26,2.0
1758077953.86665,1758077953.07566,0.0,0.0,0.0,16.04282,6.24524,9.96947,9.91,-0.23,0.26,2.0
1758077953.87657,1758077953.08566,0.0,0.0,0.0,17.36062,14.49583,11.91752,9.91,-0.23,0.26,2.0
1758077953.87926,1758077953.09566,0.0,0.0,0.0,17.93358,23.0329,14.03747,10.08,-0.46,0.33,2.0
1758077953.89577,1758077953.10566,0.0,0.0,0.0,16.38659,30.36677,15.41257,10.08,-0.46,0.33,2.0
1758077953.89836,1758077953.11566,0.0,0.0,0.0,14.09476,29.27814,15.46986,9.66,-0.06,0.28,2.0
1758077953.91512,1758077953.12566,0.0,0.0,0.0,10.54242,24.57989,14.49583,9.66,-0.06,0.28,2.0
1758077953.91643,1758077953.13566,0.0,0.0,0.0,5.84417,18.33465,13.06344,9.19,0.88,0.12,2.0
1758077953.9355,1758077953.14566,0.0,0.0,0.0,-2.97938,9.39651,8.88085,9.43,2.01,-0.09,2.0
1758077953.94095,1758077953.15566,0.0,0.0,0.0,-9.28192,3.09397,4.69825,9.43,2.01,-0.09,2.0
1758077953.95562,1758077953.16566,0.0,0.0,0.0,-15.12609,-9.05273,1.3178,9.13,2.93,-0.28,2.0
1758077953.96738,1758077953.17566,0.0,0.0,0.0,-22.91831,-26.75713,-1.60428,9.13,2.93,-0.28,2.0
1758077953.97045,1758077953.18566,0.0,0.0,0.0,-28.01764,-33.63263,-3.26586,9.3,2.77,-0.3,2.0
1758077954.00118,1758077953.19566,0.0,0.0,0.0,-32.6013,-37.98711,-4.1253,9.3,2.77,-0.3,2.0
1758077954.0058,1758077953.20566,0.0,0.0,0.0,-37.01308,-38.78925,-3.95341,10.25,2.14,-0.42,2.0
1758077954.00761,1758077953.21566,0.0,0.0,0.0,-42.85724,-31.79916,-1.77617,10.25,2.14,-0.42,2.0
1758077954.00814,1758077953.22566,0.0,0.0,0.0,-46.00851,-15.46986,-0.22918,11.68,1.41,-0.01,2.0
1758077954.02596,1758077953.23566,0.0,0.0,0.0,-49.79003,0.85944,0.34377,13.34,0.83,0.24,2.0
1758077954.02839,1758077953.24566,0.0,0.0,0.0,-49.96192,-12.60507,1.77617,13.34,0.83,0.24,2.0
1758077954.04547,1758077953.25566,0.0,0.0,0.0,-54.02992,-26.41335,-1.03132,10.28,0.77,0.21,2.0
1758077954.04641,1758077953.26566,0.0,0.0,0.0,-55.7488,-23.89234,-4.58366,10.28,0.77,0.21,2.0
1758077954.06608,1758077953.27566,0.0,0.0,0.0,-56.37905,-16.84496,-5.90147,11.64,0.92,-1.26,2.0
1758077954.06872,1758077953.28566,0.0,0.0,0.0,-56.32175,-8.93814,-6.24524,11.64,0.92,-1.26,2.0
1758077954.08547,1758077953.29566,0.0,0.0,0.0,-55.06125,1.08862,-4.35448,11.49,0.73,-0.91,2.0
1758077954.08644,1758077953.30566,0.0,0.0,0.0,-52.65482,5.90147,-1.77617,11.74,0.23,0.36,2.0
1758077954.10592,1758077953.31566,0.0,0.0,0.0,-48.58683,5.27121,1.14592,11.74,0.23,0.36,2.0
1758077954.10845,1758077953.32566,0.0,0.0,0.0,-42.62806,-1.94806,3.55234,11.67,-0.75,1.46,2.0
1758077954.12555,1758077953.33566,0.0,0.0,0.0,-30.93972,-26.87172,3.95341,11.67,-0.75,1.46,2.0
1758077954.12646,1758077953.34566,0.0,0.0,0.0,-24.92367,-49.61814,-3.38045,11.06,-1.8,3.71,2.0
1758077954.1459,1758077953.35566,0.0,0.0,0.0,-17.13144,-56.83742,-10.71431,11.06,-1.8,3.71,2.0
1758077954.14876,1758077953.36566,0.0,0.0,0.0,-8.65166,-54.48829,-19.19409,12.8,-2.44,2.95,2.0
1758077954.16634,1758077953.37566,0.0,0.0,0.0,1.71887,-54.25911,-21.7151,10.29,-1.67,1.25,2.0
1758077954.169,1758077953.38566,0.0,0.0,0.0,6.47442,-54.88936,-22.05888,10.29,-1.67,1.25,2.0
1758077954.18572,1758077953.39566,0.0,0.0,0.0,8.0787,-54.66018,-21.31403,7.83,-0.19,1.54,2.0
1758077954.18885,1758077953.40566,0.0,0.0,0.0,4.98473,-46.63877,-18.10547,7.83,-0.19,1.54,2.0
1758077954.20619,1758077953.41566,0.0,0.0,0.0,0.17189,-34.66395,-15.06879,8.26,0.44,1.43,2.0
1758077954.21047,1758077953.42566,0.0,0.0,0.0,-6.24524,-22.05888,-11.74564,8.26,0.44,1.43,2.0
1758077954.22598,1758077953.43566,0.0,0.0,0.0,-13.98017,-12.2613,-8.88085,10.68,1.13,2.24,2.0
1758077954.22886,1758077953.44566,0.0,0.0,0.0,-26.12688,-0.34377,-6.07335,11.89,1.13,1.45,2.0
1758077954.24478,1758077953.45566,0.0,0.0,0.0,-33.63263,8.30789,-5.55769,11.89,1.98,1.45,2.0
1758077954.24613,1758077953.46566,0.0,0.0,0.0,-40.04975,16.10011,-6.53172,11.87,2.31,0.85,2.0
1758077954.26104,1758077953.47566,0.0,0.0,0.0,-45.49285,24.17882,-8.36518,11.87,2.31,0.85,2.0
1758077954.26537,1758077953.48566,0.0,0.0,0.0,-50.13381,33.74722,-11.91752,11.48,1.68,1.18,2.0
1758077954.28092,1758077953.49566,0.0,0.0,0.0,-50.99325,37.92981,-13.69369,11.48,1.68,1.18,2.0
1758077954.28194,1758077953.50566,0.0,0.0,0.0,-50.01921,42.28429,-14.66772,10.82,0.39,1.17,2.0
1758077954.29976,1758077953.51566,0.0,0.0,0.0,-47.38361,44.57612,-14.32395,10.82,0.39,1.17,2.0
1758077954.31575,1758077953.52566,0.0,0.0,0.0,-41.99781,44.51882,-12.60507,9.98,-1.17,0.84,2.0
1758077954.31936,1758077953.53566,0.0,0.0,0.0,-37.58603,41.36755,-10.8289,8.74,-2.37,0.51,2.0
1758077954.33498,1758077953.54566,0.0,0.0,0.0,-32.77319,38.56006,-8.65166,8.74,-2.37,0.51,2.0
1758077954.33866,1758077953.55566,0.0,0.0,0.0,-27.67386,36.03905,-6.35983,7.97,-2.74,0.25,2.0
1758077954.35409,1758077953.56566,0.0,0.0,0.0,-19.76705,32.77319,-3.20856,7.97,-2.74,0.25,2.0
1758077954.35527,1758077953.57566,0.0,0.0,0.0,-14.83961,30.02299,-1.94806,7.82,-2.29,0.22,2.0
1758077954.37271,1758077953.58566,0.0,0.0,0.0,-9.96947,25.7831,-1.3178,7.82,-2.29,0.22,2.0
1758077954.37524,1758077953.59566,0.0,0.0,0.0,-3.38045,18.9649,-1.08862,7.75,-1.36,0.26,2.0
1758077954.39101,1758077953.60566,0.0,0.0,0.0,0.45837,15.29797,-1.08862,8.06,-0.66,0.17,2.0
1758077954.39631,1758077953.61566,0.0,0.0,0.0,4.0107,13.23533,-1.60428,8.06,-0.66,0.17,2.0
1758077954.41595,1758077953.62566,0.0,0.0,0.0,7.10468,11.57375,-2.11994,8.7,-0.45,0.36,2.0
1758077954.41926,1758077953.63566,0.0,0.0,0.0,10.8862,9.11003,-3.20856,8.7,-0.45,0.36,2.0
1758077954.43594,1758077953.64566,0.0,0.0,0.0,12.77696,8.25059,-4.0107,9.07,-0.65,0.54,2.0
1758077954.46638,1758077953.65566,0.0,0.0,0.0,14.38124,7.67763,-5.09932,9.07,-0.65,0.54,2.0
1758077954.46888,1758077953.66566,0.0,0.0,0.0,15.35527,7.96411,-5.95876,9.33,-0.98,0.4,2.0
1758077954.47058,1758077953.67566,0.0,0.0,0.0,16.272,6.87549,-7.04738,9.3,-1.07,0.38,2.0
1758077954.4715,1758077953.68566,0.0,0.0,0.0,16.3293,5.61499,-7.44845,9.3,-1.07,0.38,2.0
1758077954.47895,1758077953.69566,0.0,0.0,0.0,16.55848,4.92744,-7.62034,9.32,-0.91,0.26,2.0
1758077954.49416,1758077953.70566,0.0,0.0,0.0,16.67307,3.89611,-7.21927,9.32,-0.91,0.26,2.0
1758077954.501,1758077953.71566,0.0,0.0,0.0,17.18874,8.02141,-6.41713,9.6,-0.78,0.13,2.0
1758077954.51617,1758077953.72566,0.0,0.0,0.0,17.58981,13.17803,-6.07335,9.6,-0.78,0.13,2.0
1758077954.59845,1758077953.73566,0.0,0.0,0.0,18.10547,17.6471,-6.13065,10.03,-0.69,0.16,2.0
1758077954.60093,1758077953.74566,0.0,0.0,0.0,19.25138,19.88164,-6.13065,10.03,-0.69,0.16,2.0
1758077954.60579,1758077953.75566,0.0,0.0,0.0,23.31938,18.85031,-5.32851,9.75,-0.67,0.4,2.0
1758077954.6073,1758077953.76566,0.0,0.0,0.0,28.24682,13.98017,-3.66693,9.2,-1.01,0.2,2.0
1758077954.61093,1758077953.77566,0.0,0.0,0.0,34.49206,4.23989,-1.08862,9.2,-1.01,0.2,2.0
1758077954.61401,1758077953.78566,0.0,0.0,0.0,41.48215,-6.8182,3.26586,8.32,-1.78,-0.5,2.0
1758077954.61469,1758077953.79566,0.0,0.0,0.0,52.36834,-20.34,6.53172,8.32,-1.78,-0.5,2.0
1758077954.6161,1758077953.80566,0.0,0.0,0.0,59.64491,-32.20023,9.96947,8.45,-2.6,-0.73,2.0
1758077954.621,1758077953.81566,0.0,0.0,0.0,65.54638,-53.05589,13.5791,8.45,-2.6,-0.73,2.0
1758077954.62165,1758077953.82566,0.0,0.0,0.0,70.41652,-77.17742,16.38659,7.75,-2.82,-0.78,2.0
1758077954.6224,1758077953.83566,0.0,0.0,0.0,72.42187,-68.23928,15.0115,10.35,-2.39,-1.1,2.0
1758077954.62516,1758077953.84566,0.0,0.0,0.0,73.79697,-50.1911,15.75634,10.35,-2.39,-1.1,2.0
1758077954.64102,1758077953.85566,0.0,0.0,0.0,75.40125,-36.6693,15.64175,12.45,-2.1,-0.54,2.0
1758077954.64296,1758077953.86566,0.0,0.0,0.0,77.06283,-31.45539,14.09476,12.45,-2.1,-0.54,2.0
1758077954.66128,1758077953.87566,0.0,0.0,0.0,78.55252,-33.34615,12.49048,10.95,-1.69,-0.55,2.0
1758077954.66536,1758077953.88566,0.0,0.0,0.0,80.27139,-35.58068,10.8862,10.95,-1.69,-0.55,2.0
1758077954.68103,1758077953.89566,0.0,0.0,0.0,82.39134,-35.58068,8.99544,10.18,-1.04,-2.64,2.0
1758077954.6862,1758077953.90566,0.0,0.0,0.0,87.60525,-24.57989,6.87549,11.24,-1.1,-2.34,2.0
1758077954.70591,1758077953.91566,0.0,0.0,0.0,92.64729,-16.04282,6.99009,11.24,-1.1,-2.34,2.0
1758077954.70797,1758077953.92566,0.0,0.0,0.0,95.79855,-26.06958,6.58902,12.72,-1.26,1.08,2.0
1758077954.74538,1758077953.93566,0.0,0.0,0.0,99.63737,-62.33781,11.57375,12.72,-1.26,1.08,2.0
1758077954.74657,1758077953.94566,0.0,0.0,0.0,107.2004,-121.18058,31.85646,13.66,0.48,4.0,2.0
1758077954.75066,1758077953.95566,0.0,0.0,0.0,105.02316,-105.9399,41.13837,13.66,0.48,4.0,2.0
1758077954.75162,1758077953.96566,0.0,0.0,0.0,98.43416,-70.24463,40.45082,21.94,2.39,2.53,2.0
1758077954.75224,1758077953.97566,0.0,0.0,0.0,92.07432,-51.39432,37.18496,21.94,2.39,2.53,2.0
1758077954.76836,1758077953.98566,0.0,0.0,0.0,79.92762,-45.43555,28.476,14.71,3.42,-0.96,2.0
1758077954.78512,1758077953.99566,0.0,0.0,0.0,73.45319,-40.50812,20.68378,7.98,1.7,0.51,2.0
1758077954.78634,1758077954.00566,0.0,0.0,0.0,70.47381,-39.76327,12.60507,7.98,1.7,0.51,2.0
1758077954.80136,1758077954.01566,0.0,0.0,0.0,72.82294,-30.02299,5.4431,7.28,1.15,0.6,2.0
1758077954.8023,1758077954.02566,0.0,0.0,0.0,78.09415,-14.61043,3.83882,7.28,1.15,0.6,2.0
1758077954.82038,1758077954.03566,0.0,0.0,0.0,85.54259,-4.29718,3.66693,11.35,1.08,2.7,2.0
1758077954.83639,1758077954.04566,0.0,0.0,0.0,94.59533,-0.85944,4.52637,11.35,1.08,2.7,2.0
1758077954.84093,1758077954.05566,0.0,0.0,0.0,107.08582,8.88085,5.72958,11.78,0.87,2.17,2.0
1758077954.85643,1758077954.06566,0.0,0.0,0.0,112.29974,20.74107,5.61499,11.99,0.61,0.48,2.0
1758077954.86055,1758077954.07566,0.0,0.0,0.0,114.70615,32.20023,5.21392,11.99,0.61,0.48,2.0
1758077954.87639,1758077954.08566,0.0,0.0,0.0,115.04993,41.36755,3.89611,10.76,0.86,0.45,2.0
1758077954.87894,1758077954.09566,0.0,0.0,0.0,111.84137,53.51426,-0.17189,10.76,0.86,0.45,2.0
1758077954.89444,1758077954.10566,0.0,0.0,0.0,107.4296,62.79618,-3.83882,10.06,1.62,0.22,2.0
1758077954.90051,1758077954.11566,0.0,0.0,0.0,101.18435,71.04677,-7.21927,10.06,1.62,0.22,2.0
1758077954.91517,1758077954.12566,0.0,0.0,0.0,93.6786,76.54716,-9.68299,9.52,2.49,-0.22,2.0
1758077954.92035,1758077954.13566,0.0,0.0,0.0,81.5892,78.09415,-10.94349,8.52,3.36,-0.08,2.0
1758077954.93518,1758077954.14566,0.0,0.0,0.0,73.73967,75.57314,-9.91217,8.52,3.36,-0.08,2.0
