timeStamp,timeStampAlign,roll,pitch,yaw,gyro_x,gyro_y,gyro_z,acc_x,acc_y,acc_z,flag_num
1758089342.73864,1758089332.78164,0.0,0.0,0.0,-14.9542,11.74564,9.68299,9.35,1.66,0.36,2.0
1758089342.73987,1758089332.79164,0.0,0.0,0.0,-16.3293,6.53172,10.54242,9.35,1.66,0.36,2.0
1758089342.75471,1758089332.80164,0.0,0.0,0.0,-17.76169,2.34913,10.71431,9.39,1.6,0.17,2.0
1758089342.77147,1758089332.81164,0.0,0.0,0.0,-18.85031,-2.00535,10.8862,9.39,1.6,0.17,2.0
1758089342.77268,1758089332.82164,0.0,0.0,0.0,-19.82434,-7.50575,10.37054,9.59,1.47,-0.07,2.0
1758089342.78768,1758089332.83164,0.0,0.0,0.0,-20.22541,-9.68299,10.25595,9.72,1.19,-0.24,2.0
1758089342.78889,1758089332.84164,0.0,0.0,0.0,-20.51189,-8.99544,10.8862,9.72,1.19,-0.24,2.0
1758089342.80395,1758089332.85164,0.0,0.0,0.0,-20.3973,-6.99009,11.51645,10.08,0.79,-0.23,2.0
1758089342.81996,1758089332.86164,0.0,0.0,0.0,-20.05352,-5.90147,13.23533,10.08,0.79,-0.23,2.0
1758089342.82184,1758089332.87164,0.0,0.0,0.0,-19.59516,-5.84417,14.78231,10.14,0.5,0.4,2.0
1758089342.83751,1758089332.88164,0.0,0.0,0.0,-18.90761,-4.87014,16.61578,10.14,0.5,0.4,2.0
1758089342.83871,1758089332.89164,0.0,0.0,0.0,-18.27736,-4.35448,18.27736,10.61,0.18,0.65,2.0
1758089342.85358,1758089332.90164,0.0,0.0,0.0,-16.95955,-4.0107,20.51189,11.09,0.16,1.38,2.0
1758089342.86968,1758089332.91164,0.0,0.0,0.0,-15.35527,-4.64096,21.25674,11.09,0.16,1.38,2.0
1758089342.8709,1758089332.92164,0.0,0.0,0.0,-12.43318,-6.70361,20.16812,12.19,0.27,2.7,2.0
1758089342.88603,1758089332.93164,0.0,0.0,0.0,-9.5684,-10.48513,17.36062,12.19,0.27,2.7,2.0
1758089342.88692,1758089332.94164,0.0,0.0,0.0,-4.0107,-14.03747,12.71966,13.24,-0.36,3.17,2.0
1758089342.90371,1758089332.95164,0.0,0.0,0.0,-0.34377,-14.09476,10.25595,13.24,-0.36,3.17,2.0
1758089342.91972,1758089332.96164,0.0,0.0,0.0,1.43239,-13.23533,8.70896,12.96,-1.03,2.2,2.0
1758089342.92091,1758089332.97164,0.0,0.0,0.0,2.23454,-14.20935,9.11003,12.96,-1.03,2.2,2.0
1758089342.93572,1758089332.98164,0.0,0.0,0.0,1.71887,-21.37133,8.0787,10.68,-0.69,1.42,2.0
1758089342.93771,1758089332.99164,0.0,0.0,0.0,1.20321,-31.62727,9.74028,7.91,-0.5,0.85,2.0
1758089342.95399,1758089333.00164,0.0,0.0,0.0,3.49504,-40.85189,12.83425,7.91,-0.5,0.85,2.0
1758089342.96982,1758089333.01164,0.0,0.0,0.0,7.62034,-39.3622,20.85567,7.72,-0.65,0.9,2.0
1758089342.97085,1758089333.02164,0.0,0.0,0.0,7.39116,-39.19032,21.25674,7.72,-0.65,0.9,2.0
1758089342.98583,1758089333.03164,0.0,0.0,0.0,4.69825,-39.76327,18.85031,7.2,-0.71,2.59,2.0
1758089342.98854,1758089333.04164,0.0,0.0,0.0,1.20321,-39.64868,15.29797,7.2,-0.71,2.59,2.0
1758089343.00374,1758089333.05164,0.0,0.0,0.0,-5.27121,-38.1017,6.99009,6.91,-0.33,2.49,2.0
1758089343.01995,1758089333.06164,0.0,0.0,0.0,-6.47442,-28.01764,4.18259,8.99,-0.1,1.93,2.0
1758089343.02169,1758089333.07164,0.0,0.0,0.0,-6.35983,-16.21471,4.81285,8.99,-0.1,1.93,2.0
1758089343.0383,1758089333.08164,0.0,0.0,0.0,-2.86479,-27.04361,7.67763,9.64,-0.8,1.9,2.0
1758089343.03965,1758089333.09164,0.0,0.0,0.0,-2.06265,-64.11398,5.27121,9.64,-0.8,1.9,2.0
1758089343.05498,1758089333.10164,0.0,0.0,0.0,-1.71887,-63.31184,6.07335,8.57,-1.63,1.63,2.0
1758089343.07156,1758089333.11164,0.0,0.0,0.0,-1.08862,-23.37668,3.89611,8.57,-1.63,1.63,2.0
1758089343.07272,1758089333.12164,0.0,0.0,0.0,-2.46372,3.03668,1.08862,14.83,-2.24,0.13,2.0
1758089343.08763,1758089333.13164,0.0,0.0,0.0,0.11459,4.52637,-0.45837,10.37,-2.68,3.41,2.0
1758089343.08894,1758089333.14164,0.0,0.0,0.0,4.29718,6.7609,0.0573,10.37,-2.68,3.41,2.0
1758089343.10374,1758089333.15164,0.0,0.0,0.0,9.28192,11.63104,2.46372,10.48,-2.38,2.05,2.0
1758089343.12003,1758089333.16164,0.0,0.0,0.0,14.38124,13.00614,5.32851,10.48,-2.38,2.05,2.0
1758089343.12104,1758089333.17164,0.0,0.0,0.0,21.02755,10.08406,8.59437,9.78,-1.98,0.78,2.0
1758089343.13599,1758089333.18164,0.0,0.0,0.0,24.23611,11.17268,9.33921,9.78,-1.98,0.78,2.0
1758089343.13777,1758089333.19164,0.0,0.0,0.0,26.41335,12.83425,9.4538,9.75,-1.69,1.19,2.0
1758089343.15379,1758089333.20164,0.0,0.0,0.0,27.78845,11.97482,8.02141,9.75,-1.69,1.19,2.0
1758089343.16995,1758089333.21164,0.0,0.0,0.0,27.44468,10.48513,6.47442,9.44,-1.46,1.57,2.0
1758089343.17126,1758089333.22164,0.0,0.0,0.0,26.41335,8.36518,4.87014,9.15,-1.12,1.38,2.0
1758089343.18592,1758089333.23164,0.0,0.0,0.0,24.86637,7.44845,3.49504,9.15,-1.12,1.38,2.0
1758089343.18772,1758089333.24164,0.0,0.0,0.0,21.94428,4.87014,2.06265,9.09,-0.79,1.1,2.0
1758089343.20365,1758089333.25164,0.0,0.0,0.0,20.3973,2.86479,1.66158,9.09,-0.79,1.1,2.0
1758089343.22002,1758089333.26164,0.0,0.0,0.0,19.19409,0.0,1.48969,8.81,-0.63,1.2,2.0
1758089343.22257,1758089333.27164,0.0,0.0,0.0,18.56383,-2.92208,1.94806,8.81,-0.63,1.2,2.0
1758089343.23779,1758089333.28164,0.0,0.0,0.0,19.36597,-5.61499,3.66693,8.79,-0.76,1.2,2.0
1758089343.23903,1758089333.29164,0.0,0.0,0.0,20.85567,-6.87549,4.92744,9.16,-1.21,1.16,2.0
1758089343.25385,1758089333.30164,0.0,0.0,0.0,22.57454,-8.25059,5.95876,9.16,-1.21,1.16,2.0
1758089343.27003,1758089333.31164,0.0,0.0,0.0,24.17882,-8.93814,6.53172,9.45,-1.6,1.05,2.0
1758089343.27126,1758089333.32164,0.0,0.0,0.0,26.24147,-8.42248,6.87549,9.45,-1.6,1.05,2.0
1758089343.28573,1758089333.33164,0.0,0.0,0.0,26.98631,-6.99009,6.18794,9.89,-1.64,0.85,2.0
1758089343.28774,1758089333.34164,0.0,0.0,0.0,26.87172,-4.69825,4.64096,9.89,-1.64,0.85,2.0
1758089343.30408,1758089333.35164,0.0,0.0,0.0,26.18417,-2.00535,3.09397,10.2,-1.3,0.81,2.0
1758089343.32003,1758089333.36164,0.0,0.0,0.0,24.63719,1.43239,0.57296,10.15,-0.87,0.65,2.0
1758089343.32125,1758089333.37164,0.0,0.0,0.0,23.83505,3.49504,-0.45837,10.15,-0.87,0.65,2.0
1758089343.33571,1758089333.38164,0.0,0.0,0.0,23.31938,6.99009,-1.3178,10.19,-0.61,0.54,2.0
1758089343.3377,1758089333.39164,0.0,0.0,0.0,23.26209,11.63104,-2.29183,10.19,-0.61,0.54,2.0
1758089343.35377,1758089333.40164,0.0,0.0,0.0,23.66316,19.42327,-2.97938,10.24,-0.65,0.5,2.0
1758089343.37,1758089333.41164,0.0,0.0,0.0,24.57989,23.72045,-3.83882,10.24,-0.65,0.5,2.0
1758089343.37104,1758089333.42164,0.0,0.0,0.0,25.49662,27.50197,-4.87014,9.95,-0.85,0.67,2.0
1758089343.38592,1758089333.43164,0.0,0.0,0.0,27.10091,29.22085,-5.90147,9.95,-0.85,0.67,2.0
1758089343.38778,1758089333.44164,0.0,0.0,0.0,28.76248,26.69983,-6.35983,9.64,-0.99,0.76,2.0
1758089343.40304,1758089333.45164,0.0,0.0,0.0,30.93972,21.7724,-6.07335,9.2,-1.19,0.54,2.0
1758089343.41879,1758089333.46164,0.0,0.0,0.0,33.17426,16.3293,-5.32851,9.2,-1.19,0.54,2.0
1758089343.4203,1758089333.47164,0.0,0.0,0.0,38.1017,8.136,-3.72423,9.1,-1.51,0.01,2.0
1758089343.43587,1758089333.48164,0.0,0.0,0.0,39.76327,-4.29718,-3.38045,9.1,-1.51,0.01,2.0
1758089343.43784,1758089333.49164,0.0,0.0,0.0,39.87786,-17.13144,-2.11994,8.16,-1.71,-0.29,2.0
1758089343.45373,1758089333.50164,0.0,0.0,0.0,38.90384,-10.31324,-6.13065,8.16,-1.71,-0.29,2.0
1758089343.46976,1758089333.51164,0.0,0.0,0.0,41.88322,23.20479,-4.64096,10.51,-1.6,-0.46,2.0
1758089343.471,1758089333.52164,0.0,0.0,0.0,42.68536,37.12767,-4.87014,11.95,-1.42,1.71,2.0
1758089343.48576,1758089333.53164,0.0,0.0,0.0,44.40423,33.46074,-7.39116,11.95,-1.42,1.71,2.0
1758089343.48779,1758089333.54164,0.0,0.0,0.0,42.57077,4.23989,-11.63104,7.6,-1.17,1.5,2.0
1758089343.50407,1758089333.55164,0.0,0.0,0.0,52.19646,-47.72739,-4.23989,7.6,-1.17,1.5,2.0
1758089343.52002,1758089333.56164,0.0,0.0,0.0,54.88936,-42.34158,-0.40107,8.36,-1.51,-1.35,2.0
1758089343.521,1758089333.57164,0.0,0.0,0.0,55.92068,-25.89769,0.80214,8.36,-1.51,-1.35,2.0
1758089343.53606,1758089333.58164,0.0,0.0,0.0,55.34772,-19.19409,-0.68755,12.01,-1.45,-2.08,2.0
1758089343.53725,1758089333.59164,0.0,0.0,0.0,52.9986,-18.73572,-2.92208,9.58,-0.96,0.4,2.0
1758089343.55285,1758089333.60164,0.0,0.0,0.0,49.67545,-13.34992,-5.50039,9.58,-0.96,0.4,2.0
1758089343.56884,1758089333.61164,0.0,0.0,0.0,46.1231,-8.93814,-8.93814,10.43,-0.52,0.93,2.0
1758089343.57002,1758089333.62164,0.0,0.0,0.0,41.59674,-6.99009,-13.06344,10.43,-0.52,0.93,2.0
1758089343.58473,1758089333.63164,0.0,0.0,0.0,39.24761,-7.39116,-14.03747,10.01,-0.01,-0.01,2.0
1758089343.60083,1758089333.64164,0.0,0.0,0.0,36.7266,-11.91752,-13.86558,10.01,-0.01,-0.01,2.0
1758089343.60202,1758089333.65164,0.0,0.0,0.0,33.9764,-22.23076,-12.37589,10.17,0.31,0.71,2.0
1758089343.61683,1758089333.66164,0.0,0.0,0.0,29.62192,-41.13837,-4.87014,10.17,0.31,1.73,2.0
1758089343.61802,1758089333.67164,0.0,0.0,0.0,25.38203,-46.00851,1.94806,11.03,0.48,1.73,2.0
1758089343.63284,1758089333.68164,0.0,0.0,0.0,19.76705,-45.77933,7.67763,14.44,0.86,2.69,2.0
1758089343.64915,1758089333.69164,0.0,0.0,0.0,14.61043,-45.77933,10.65701,14.44,0.86,2.69,2.0
1758089343.64998,1758089333.70164,0.0,0.0,0.0,9.74028,-45.37826,8.65166,13.92,0.66,2.21,2.0
1758089343.6664,1758089333.71164,0.0,0.0,0.0,9.74028,-44.748,3.66693,13.92,0.66,2.21,2.0
1758089343.66768,1758089333.72164,0.0,0.0,0.0,12.54778,-42.39888,-1.83346,10.69,-0.14,1.78,2.0
1758089343.68285,1758089333.73164,0.0,0.0,0.0,17.36062,-38.1017,-6.99009,10.69,-0.14,1.78,2.0
1758089343.6991,1758089333.74164,0.0,0.0,0.0,27.2155,-25.15285,-10.8862,8.73,-0.25,1.98,2.0
1758089343.7003,1758089333.75164,0.0,0.0,0.0,33.86181,-16.21471,-10.59972,8.7,-0.03,2.79,2.0
1758089343.71594,1758089333.76164,0.0,0.0,0.0,38.56006,-7.04738,-6.53172,8.7,-0.03,2.79,2.0
1758089343.71766,1758089333.77164,0.0,0.0,0.0,43.94586,-0.74485,-4.0107,9.62,0.29,2.3,2.0
1758089343.73386,1758089333.78164,0.0,0.0,0.0,45.20637,11.74564,2.00535,9.62,0.29,2.3,2.0
1758089343.74978,1758089333.79164,0.0,0.0,0.0,44.57612,19.76705,3.55234,11.5,0.72,1.85,2.0
1758089343.75105,1758089333.80164,0.0,0.0,0.0,42.51347,28.24682,4.52637,11.5,0.72,1.85,2.0
1758089343.76597,1758089333.81164,0.0,0.0,0.0,38.73195,38.44547,3.89611,12.07,1.21,1.16,2.0
1758089343.76813,1758089333.82164,0.0,0.0,0.0,36.21093,43.83128,3.26586,11.11,1.34,1.22,2.0
1758089343.78386,1758089333.83164,0.0,0.0,0.0,34.0337,47.26902,2.46372,11.11,1.34,1.22,2.0
1758089343.79987,1758089333.84164,0.0,0.0,0.0,31.91375,48.58683,2.11994,9.89,1.23,1.31,2.0
1758089343.80109,1758089333.85164,0.0,0.0,0.0,29.56462,48.52953,1.48969,9.89,1.23,1.31,2.0
1758089343.8159,1758089333.86164,0.0,0.0,0.0,28.64789,46.75336,1.77617,9.12,1.05,1.23,2.0
1758089343.81786,1758089333.87164,0.0,0.0,0.0,27.67386,44.00316,1.83346,9.12,1.05,1.23,2.0
1758089343.83391,1758089333.88164,0.0,0.0,0.0,27.73116,39.4195,2.7502,8.73,0.94,1.35,2.0
1758089343.84996,1758089333.89164,0.0,0.0,0.0,28.13223,31.45539,4.18259,8.46,0.91,1.28,2.0
1758089343.85186,1758089333.90164,0.0,0.0,0.0,28.01764,26.98631,4.69825,8.46,0.91,1.28,2.0
1758089343.86753,1758089333.91164,0.0,0.0,0.0,27.84575,21.08485,5.4431,8.42,0.89,1.28,2.0
1758089343.86876,1758089333.92164,0.0,0.0,0.0,26.69983,14.72501,4.69825,8.42,0.89,1.28,2.0
1758089343.88392,1758089333.93164,0.0,0.0,0.0,25.26744,4.64096,3.83882,7.89,0.94,0.93,2.0
1758089343.90089,1758089333.94164,0.0,0.0,0.0,24.4653,-1.14592,3.60963,7.89,0.94,0.93,2.0
1758089343.90396,1758089333.95164,0.0,0.0,0.0,23.94964,-7.04738,3.60963,8.0,0.95,0.93,2.0
1758089343.91897,1758089333.96164,0.0,0.0,0.0,23.66316,-12.54778,3.83882,8.0,0.95,0.93,2.0
1758089343.92086,1758089333.97164,0.0,0.0,0.0,24.12152,-18.73572,4.92744,8.39,0.79,0.83,2.0
1758089343.93691,1758089333.98164,0.0,0.0,0.0,24.4653,-21.08485,6.07335,9.25,0.35,1.08,2.0
1758089343.93782,1758089333.99164,0.0,0.0,0.0,24.92367,-23.72045,6.7609,9.25,0.35,1.08,2.0
1758089343.95292,1758089334.00164,0.0,0.0,0.0,25.8404,-22.51724,7.44845,9.85,0.3,0.69,2.0
1758089343.96885,1758089334.01164,0.0,0.0,0.0,26.35606,-10.8862,8.0787,9.85,0.3,0.69,2.0
1758089343.97006,1758089334.02164,0.0,0.0,0.0,26.75713,-1.66158,9.05273,11.0,0.72,0.98,2.0
1758089343.98476,1758089334.03164,0.0,0.0,0.0,26.35606,8.0787,8.65166,11.0,0.72,0.98,2.0
1758089344.00096,1758089334.04164,0.0,0.0,0.0,23.83505,17.47521,7.44845,11.13,0.87,1.12,2.0
1758089344.00212,1758089334.05164,0.0,0.0,0.0,21.37133,19.19409,6.99009,10.37,1.04,0.71,2.0
1758089344.01699,1758089334.06164,0.0,0.0,0.0,18.44924,20.05352,6.70361,10.37,1.04,0.71,2.0
1758089344.01811,1758089334.07164,0.0,0.0,0.0,15.06879,20.85567,6.7609,9.97,1.25,0.26,2.0
1758089344.03291,1758089334.08164,0.0,0.0,0.0,9.4538,18.9649,6.8182,9.97,1.25,0.26,2.0
1758089344.04914,1758089334.09164,0.0,0.0,0.0,5.50039,15.92823,6.7609,9.35,1.54,0.09,2.0
1758089344.05008,1758089334.10164,0.0,0.0,0.0,1.20321,10.65701,5.55769,9.35,1.54,0.09,2.0
1758089344.0651,1758089334.11164,0.0,0.0,0.0,-2.23454,-1.66158,4.81285,8.45,1.73,-0.05,2.0
1758089344.06774,1758089334.12164,0.0,0.0,0.0,-5.21392,-22.11617,5.32851,7.27,1.73,-1.14,2.0
1758089344.08389,1758089334.13164,0.0,0.0,0.0,-7.10468,-31.97105,5.78687,7.27,1.73,-1.14,2.0
1758089344.09979,1758089334.14164,0.0,0.0,0.0,-8.70896,-37.64333,8.42248,7.86,1.8,-1.38,2.0
1758089344.101,1758089334.15164,0.0,0.0,0.0,-11.57375,-32.37212,11.63104,7.86,1.8,-1.38,2.0
1758089344.11615,1758089334.16164,0.0,0.0,0.0,-16.90226,4.69825,14.09476,10.94,1.89,-0.36,2.0
1758089344.1187,1758089334.17164,0.0,0.0,0.0,-21.25674,-9.74028,12.54778,10.94,1.89,-0.36,2.0
1758089344.13577,1758089334.18164,0.0,0.0,0.0,-27.33009,-21.48592,10.94349,8.91,2.02,0.71,2.0
1758089344.13812,1758089334.19164,0.0,0.0,0.0,-31.51268,-24.4653,5.84417,8.91,2.02,0.71,2.0
1758089344.1539,1758089334.20164,0.0,0.0,0.0,-36.15364,-21.7151,4.46907,10.34,2.3,0.22,2.0
1758089344.16988,1758089334.21164,0.0,0.0,0.0,-38.15899,-15.92823,4.18259,11.2,2.15,-1.06,2.0
1758089344.17116,1758089334.22164,0.0,0.0,0.0,-39.64868,-8.65166,5.21392,11.2,2.15,-1.06,2.0
1758089344.18589,1758089334.23164,0.0,0.0,0.0,-39.99245,-3.20856,9.11003,11.04,1.75,0.02,2.0
1758089344.1871,1758089334.24164,0.0,0.0,0.0,-39.4195,-3.20856,12.54778,11.04,1.75,0.02,2.0
1758089344.20289,1758089334.25164,0.0,0.0,0.0,-37.47144,-6.18794,16.21471,10.54,1.21,1.3,2.0
1758089344.21886,1758089334.26164,0.0,0.0,0.0,-34.26288,-12.60507,18.73572,10.54,1.21,1.3,2.0
1758089344.22007,1758089334.27164,0.0,0.0,0.0,-28.41871,-30.53865,17.53251,11.3,0.38,2.79,2.0
1758089344.23572,1758089334.28164,0.0,0.0,0.0,-24.29341,-42.62806,12.49048,13.18,-0.76,4.15,2.0
1758089344.2377,1758089334.29164,0.0,0.0,0.0,-18.79302,-46.1231,5.95876,13.18,-0.76,4.15,2.0
1758089344.25391,1758089334.30164,0.0,0.0,0.0,-11.22997,-43.60209,-0.22918,16.76,-3.02,3.21,2.0
1758089344.26992,1758089334.31164,0.0,0.0,0.0,0.22918,-41.71133,-7.67763,16.76,-3.02,3.21,2.0
1758089344.27188,1758089334.32164,0.0,0.0,0.0,8.76626,-34.95043,-7.62034,15.64,-3.7,0.96,2.0
1758089344.28801,1758089334.33164,0.0,0.0,0.0,14.03747,-35.63798,-6.18794,15.64,-3.7,0.96,2.0
1758089344.28892,1758089334.34164,0.0,0.0,0.0,17.93358,-40.39353,-3.09397,10.51,-1.71,0.08,2.0
1758089344.30416,1758089334.35164,0.0,0.0,0.0,17.13144,-38.84654,0.68755,7.69,-0.24,-0.02,2.0
1758089344.3202,1758089334.36164,0.0,0.0,0.0,12.14671,-37.75792,2.06265,7.69,-0.24,-0.02,2.0
1758089344.32186,1758089334.37164,0.0,0.0,0.0,5.4431,-38.27358,2.6929,6.76,0.51,1.42,2.0
1758089344.33681,1758089334.38164,0.0,0.0,0.0,-2.00535,-38.56006,2.11994,6.76,0.51,1.42,2.0
1758089344.33807,1758089334.39164,0.0,0.0,0.0,-11.57375,-36.89849,1.83346,6.96,0.58,3.26,2.0
1758089344.35296,1758089334.40164,0.0,0.0,0.0,-16.10011,-35.06502,1.43239,6.96,0.58,3.26,2.0
1758089344.36892,1758089334.41164,0.0,0.0,0.0,-18.73572,-32.08564,1.60428,7.98,0.11,2.69,2.0
1758089344.37052,1758089334.42164,0.0,0.0,0.0,-18.33465,-27.2155,1.43239,7.98,0.11,2.69,2.0
1758089344.38515,1758089334.43164,0.0,0.0,0.0,-15.24068,-16.95955,1.83346,9.76,-0.94,1.85,2.0
1758089344.40132,1758089334.44164,0.0,0.0,0.0,-9.96947,-10.02676,2.40642,11.02,-2.32,0.91,2.0
1758089344.40244,1758089334.45164,0.0,0.0,0.0,-3.03668,-2.11994,2.6929,11.02,-2.32,0.91,2.0
1758089344.41707,1758089334.46164,0.0,0.0,0.0,7.84952,10.54242,3.20856,11.04,-3.21,0.09,2.0
1758089344.4185,1758089334.47164,0.0,0.0,0.0,13.86558,18.79302,2.97938,11.04,-3.21,0.09,2.0
1758089344.4332,1758089334.48164,0.0,0.0,0.0,18.79302,26.52795,2.7502,10.64,-3.14,0.03,2.0
1758089344.44892,1758089334.49164,0.0,0.0,0.0,22.00158,32.20023,2.57831,10.64,-3.14,0.03,2.0
1758089344.45011,1758089334.50164,0.0,0.0,0.0,23.54857,34.60666,2.23454,10.33,-2.47,0.39,2.0
1758089344.46497,1758089334.51164,0.0,0.0,0.0,22.91831,34.49206,1.94806,10.13,-1.76,0.67,2.0
1758089344.48097,1758089334.52164,0.0,0.0,0.0,21.37133,33.63263,1.43239,10.13,-1.76,0.67,2.0
1758089344.48217,1758089334.53164,0.0,0.0,0.0,19.25138,31.85646,1.20321,9.93,-1.16,0.73,2.0
1758089344.49734,1758089334.54164,0.0,0.0,0.0,17.30333,28.24682,1.94806,9.93,-1.16,0.73,2.0
1758089344.49818,1758089334.55164,0.0,0.0,0.0,16.04282,23.49127,2.00535,9.34,-0.84,0.7,2.0
1758089344.51324,1758089334.56164,0.0,0.0,0.0,15.75634,19.82434,2.57831,9.34,-0.84,0.7,2.0
1758089344.52922,1758089334.57164,0.0,0.0,0.0,16.3293,16.84496,3.03668,8.87,-0.87,0.46,2.0
1758089344.53044,1758089334.58164,0.0,0.0,0.0,17.87628,14.03747,3.38045,8.91,-1.18,0.52,2.0
1758089344.54491,1758089334.59164,0.0,0.0,0.0,19.59516,13.46451,3.60963,8.91,-1.18,0.52,2.0
1758089344.56101,1758089334.60164,0.0,0.0,0.0,21.37133,13.5218,3.89611,9.12,-1.51,0.37,2.0
1758089344.5622,1758089334.61164,0.0,0.0,0.0,23.20479,13.80828,4.18259,9.12,-1.51,0.37,2.0
1758089344.57745,1758089334.62164,0.0,0.0,0.0,25.38203,13.80828,4.23989,9.26,-1.59,0.39,2.0
1758089344.57814,1758089334.63164,0.0,0.0,0.0,26.52795,13.00614,4.0107,9.26,-1.59,0.39,2.0
1758089344.59308,1758089334.64164,0.0,0.0,0.0,27.33009,12.37589,4.0107,9.26,-1.43,0.34,2.0
1758089344.6091,1758089334.65164,0.0,0.0,0.0,28.01764,11.51645,3.60963,9.26,-1.43,0.34,2.0
1758089344.61022,1758089334.66164,0.0,0.0,0.0,28.01764,10.59972,3.20856,9.44,-1.2,0.38,2.0
1758089344.62504,1758089334.67164,0.0,0.0,0.0,28.59059,7.33386,3.49504,9.37,-1.01,0.46,2.0
1758089344.64105,1758089334.68164,0.0,0.0,0.0,29.04896,2.92208,3.72423,9.37,-1.01,0.46,2.0
1758089344.64339,1758089334.69164,0.0,0.0,0.0,30.53865,4.1253,3.89611,9.5,-0.99,0.34,2.0
1758089344.65803,1758089334.70164,0.0,0.0,0.0,31.62727,8.65166,3.32316,9.5,-0.99,0.34,2.0
1758089344.6591,1758089334.71164,0.0,0.0,0.0,33.23156,12.204,2.7502,10.02,-1.09,0.37,2.0
1758089344.67404,1758089334.72164,0.0,0.0,0.0,35.12231,14.32395,2.23454,10.02,-1.09,0.37,2.0
1758089344.69008,1758089334.73164,0.0,0.0,0.0,39.01843,16.3293,1.77617,9.81,-1.19,0.76,2.0
1758089344.69202,1758089334.74164,0.0,0.0,0.0,42.05511,17.01685,1.77617,9.77,-1.34,0.59,2.0
1758089344.7078,1758089334.75164,0.0,0.0,0.0,45.09178,16.95955,1.94806,9.77,-1.34,0.59,2.0
1758089344.70899,1758089334.76164,0.0,0.0,0.0,48.41494,15.92823,1.83346,9.52,-1.46,0.12,2.0
1758089344.72407,1758089334.77164,0.0,0.0,0.0,52.48294,7.16197,2.11994,9.52,-1.46,0.12,2.0
1758089344.74133,1758089334.78164,0.0,0.0,0.0,52.48294,0.22918,-0.0573,8.82,-1.44,-0.24,2.0
1758089344.7422,1758089334.79164,0.0,0.0,0.0,51.90998,-6.7609,-0.17189,8.82,-1.44,-0.24,2.0
1758089344.7578,1758089334.80164,0.0,0.0,0.0,50.363,0.34377,-4.92744,9.01,-1.22,-0.62,2.0
1758089344.75902,1758089334.81164,0.0,0.0,0.0,53.34238,20.34,-5.09932,11.05,-1.15,-0.35,2.0
1758089344.77438,1758089334.82164,0.0,0.0,0.0,54.3737,33.80451,-5.21392,11.05,-1.15,-0.35,2.0
1758089344.79002,1758089334.83164,0.0,0.0,0.0,53.74345,40.04975,-6.47442,10.31,-1.11,1.64,2.0
1758089344.79199,1758089334.84164,0.0,0.0,0.0,54.3737,27.33009,-8.36518,10.31,-1.11,1.64,2.0
1758089344.80775,1758089334.85164,0.0,0.0,0.0,52.36834,-8.88085,-9.11003,7.5,-0.96,1.53,2.0
1758089344.80893,1758089334.86164,0.0,0.0,0.0,55.6342,-41.31026,-4.0107,7.5,-0.96,1.53,2.0
1758089344.82431,1758089334.87164,0.0,0.0,0.0,59.75951,-48.07116,2.46372,7.57,-1.29,-0.96,2.0
1758089344.84004,1758089334.88164,0.0,0.0,0.0,60.04598,-30.19488,5.72958,7.57,-1.29,-0.96,2.0
1758089344.84146,1758089334.89164,0.0,0.0,0.0,59.01466,-26.35606,7.16197,11.92,-1.61,-1.35,2.0
1758089344.85608,1758089334.90164,0.0,0.0,0.0,56.03527,-27.78845,6.70361,10.2,-1.25,0.75,2.0
1758089344.85722,1758089334.91164,0.0,0.0,0.0,51.85268,-25.09555,5.27121,10.2,-1.25,0.75,2.0
1758089344.87302,1758089334.92164,0.0,0.0,0.0,43.65939,-19.36597,0.97403,10.97,-0.75,2.51,2.0
1758089344.88911,1758089334.93164,0.0,0.0,0.0,38.44547,-16.84496,-2.40642,10.97,-0.75,2.51,2.0
1758089344.89022,1758089334.94164,0.0,0.0,0.0,33.40344,-12.89155,-5.27121,10.69,-0.01,0.66,2.0
1758089344.90504,1758089334.95164,0.0,0.0,0.0,28.99167,-7.62034,-7.39116,10.69,-0.01,0.66,2.0
1758089344.92101,1758089334.96164,0.0,0.0,0.0,24.86637,0.0,-9.33921,10.62,0.36,0.11,2.0
1758089344.92226,1758089334.97164,0.0,0.0,0.0,23.31938,4.81285,-10.19865,10.58,0.22,-0.23,2.0
1758089344.9378,1758089334.98164,0.0,0.0,0.0,22.05888,9.33921,-10.25595,10.58,0.22,-0.23,2.0
1758089344.93905,1758089334.99164,0.0,0.0,0.0,20.97026,12.77696,-10.54242,10.83,-0.24,0.24,2.0
1758089344.95405,1758089335.00164,0.0,0.0,0.0,18.33465,16.3293,-11.00079,10.83,-0.24,0.24,2.0
1758089344.97005,1758089335.01164,0.0,0.0,0.0,16.55848,16.04282,-11.00079,11.03,-0.56,0.48,2.0
1758089344.97237,1758089335.02164,0.0,0.0,0.0,14.61043,13.06344,-11.45916,11.03,-0.56,0.48,2.0
1758089344.98732,1758089335.03164,0.0,0.0,0.0,12.54778,8.0787,-10.25595,10.65,-0.76,0.57,2.0
1758089344.9885,1758089335.04164,0.0,0.0,0.0,11.28727,0.17189,-7.96411,10.54,-0.9,0.92,2.0
1758089345.00332,1758089335.05164,0.0,0.0,0.0,9.28192,-1.14592,-5.15662,10.54,-0.9,0.92,2.0
1758089345.01934,1758089335.06164,0.0,0.0,0.0,5.32851,-0.74485,-3.20856,12.11,-0.42,1.31,2.0
1758089345.0205,1758089335.07164,0.0,0.0,0.0,-1.48969,-4.46907,-1.48969,12.11,-0.42,1.31,2.0
1758089345.03514,1758089335.08164,0.0,0.0,0.0,-4.81285,-9.39651,-1.43239,12.26,0.15,1.52,2.0
1758089345.05102,1758089335.09164,0.0,0.0,0.0,-6.47442,-13.46451,-2.29183,12.26,0.15,1.52,2.0
1758089345.05231,1758089335.10164,0.0,0.0,0.0,-6.41713,-15.92823,-4.0107,11.18,-0.12,0.53,2.0
1758089345.06789,1758089335.11164,0.0,0.0,0.0,-2.34913,-19.88164,-6.53172,9.65,-0.12,0.22,2.0
1758089345.06904,1758089335.12164,0.0,0.0,0.0,2.86479,-22.28806,-7.39116,9.65,-0.62,0.22,2.0
1758089345.08404,1758089335.13164,0.0,0.0,0.0,9.68299,-23.83505,-7.79223,8.67,-0.83,1.08,2.0
1758089345.1003,1758089335.14164,0.0,0.0,0.0,17.93358,-24.12152,-7.04738,8.67,-0.83,1.08,2.0
1758089345.1013,1758089335.15164,0.0,0.0,0.0,30.88243,-23.83505,-4.87014,8.34,-0.9,2.45,2.0
1758089345.11605,1758089335.16164,0.0,0.0,0.0,38.50277,-22.51724,-2.7502,8.34,-0.9,2.45,2.0
1758089345.11848,1758089335.17164,0.0,0.0,0.0,44.00316,-19.59516,-0.34377,8.44,-0.67,2.92,2.0
1758089345.13438,1758089335.18164,0.0,0.0,0.0,47.09713,-14.72501,3.60963,8.44,-0.67,2.92,2.0
1758089345.15031,1758089335.19164,0.0,0.0,0.0,50.01921,-7.16197,5.84417,9.55,-0.05,2.27,2.0
1758089345.1513,1758089335.20164,0.0,0.0,0.0,47.72739,-0.80214,6.53172,11.34,0.6,2.04,2.0
1758089345.16764,1758089335.21164,0.0,0.0,0.0,44.8053,5.78687,5.84417,11.34,0.6,2.04,2.0
1758089345.16887,1758089335.22164,0.0,0.0,0.0,39.99245,13.86558,3.55234,12.09,1.47,1.31,2.0
1758089345.18413,1758089335.23164,0.0,0.0,0.0,32.48671,23.0902,1.60428,12.09,1.47,1.31,2.0
1758089345.20089,1758089335.24164,0.0,0.0,0.0,27.78845,27.04361,0.17189,11.33,1.96,1.09,2.0
1758089345.20209,1758089335.25164,0.0,0.0,0.0,23.49127,29.8511,-0.85944,11.33,1.96,1.09,2.0
1758089345.21712,1758089335.26164,0.0,0.0,0.0,18.44924,33.17426,-2.57831,10.17,2.17,1.07,2.0
1758089345.21872,1758089335.27164,0.0,0.0,0.0,16.61578,32.08564,-3.55234,9.24,2.08,1.16,2.0
1758089345.23327,1758089335.28164,0.0,0.0,0.0,15.87093,28.64789,-4.0107,9.24,2.08,1.16,2.0
1758089345.24961,1758089335.29164,0.0,0.0,0.0,15.75634,25.7831,-4.46907,8.68,1.55,1.21,2.0
1758089345.2503,1758089335.30164,0.0,0.0,0.0,17.13144,22.28806,-4.23989,8.68,1.55,1.21,2.0
1758089345.26511,1758089335.31164,0.0,0.0,0.0,17.87628,18.22006,-4.46907,8.62,0.66,0.92,2.0
1758089345.28099,1758089335.32164,0.0,0.0,0.0,18.79302,14.66772,-4.23989,8.62,0.66,0.92,2.0
1758089345.28223,1758089335.33164,0.0,0.0,0.0,19.25138,13.40721,-3.72423,8.36,0.37,0.56,2.0
1758089345.29708,1758089335.34164,0.0,0.0,0.0,19.36597,12.49048,-2.23454,8.68,0.5,0.52,2.0
1758089345.2983,1758089335.35164,0.0,0.0,0.0,18.27736,13.69369,-2.00535,8.68,0.5,0.52,2.0
1758089345.31311,1758089335.36164,0.0,0.0,0.0,17.01685,15.58445,-1.83346,9.05,0.62,0.52,2.0
1758089345.32924,1758089335.37164,0.0,0.0,0.0,15.69904,17.13144,-1.77617,9.05,0.62,0.52,2.0
1758089345.3303,1758089335.38164,0.0,0.0,0.0,14.20935,16.73037,-1.03132,9.22,0.67,0.49,2.0
1758089345.34539,1758089335.39164,0.0,0.0,0.0,14.03747,14.66772,0.45837,9.22,0.67,0.49,2.0
1758089345.34814,1758089335.40164,0.0,0.0,0.0,14.32395,12.37589,2.86479,9.22,0.67,0.56,2.0
1758089345.36439,1758089335.41164,0.0,0.0,0.0,14.78231,10.8289,5.55769,9.22,0.67,0.56,2.0
1758089345.3804,1758089335.42164,0.0,0.0,0.0,15.58445,8.136,9.11003,9.78,0.57,0.53,2.0
1758089345.38129,1758089335.43164,0.0,0.0,0.0,15.75634,7.50575,10.48513,10.23,0.57,0.74,2.0
1758089345.39599,1758089335.44164,0.0,0.0,0.0,15.41257,7.96411,10.8289,10.23,0.57,0.74,2.0
1758089345.39804,1758089335.45164,0.0,0.0,0.0,13.46451,12.2613,9.33921,10.65,0.79,0.79,2.0
1758089345.41413,1758089335.46164,0.0,0.0,0.0,11.97482,24.86637,8.65166,10.65,0.79,0.79,2.0
1758089345.43037,1758089335.47164,0.0,0.0,0.0,10.54242,32.42941,8.76626,10.81,1.19,0.71,2.0
1758089345.4321,1758089335.48164,0.0,0.0,0.0,9.22462,36.32552,8.70896,10.81,1.19,0.71,2.0
1758089345.44734,1758089335.49164,0.0,0.0,0.0,6.58902,33.86181,8.47978,10.07,1.31,1.06,2.0
1758089345.4484,1758089335.50164,0.0,0.0,0.0,3.72423,29.33544,8.59437,9.41,1.35,0.83,2.0
1758089345.46341,1758089335.51164,0.0,0.0,0.0,0.45837,21.88699,9.11003,9.41,1.35,0.83,2.0
1758089345.47912,1758089335.52164,0.0,0.0,0.0,-5.32851,18.62113,7.67763,9.51,1.69,0.36,2.0
1758089345.48114,1758089335.53164,0.0,0.0,0.0,-14.20935,8.30789,6.13065,9.51,1.69,0.36,2.0
1758089345.49637,1758089335.54164,0.0,0.0,0.0,-20.05352,1.03132,4.81285,9.05,2.26,0.38,2.0
1758089345.49731,1758089335.55164,0.0,0.0,0.0,-25.89769,-6.35983,3.32316,9.05,2.26,0.38,2.0
1758089345.51301,1758089335.56164,0.0,0.0,0.0,-31.11161,-12.77696,1.66158,8.78,2.68,0.29,2.0
1758089345.52903,1758089335.57164,0.0,0.0,0.0,-36.38282,-27.67386,0.22918,8.56,2.68,-0.26,2.0
1758089345.53191,1758089335.58164,0.0,0.0,0.0,-38.21629,-37.18496,-0.0573,8.56,2.68,-0.26,2.0
1758089345.54738,1758089335.59164,0.0,0.0,0.0,-39.01843,-42.1124,-0.22918,9.04,2.17,-0.82,2.0
1758089345.54916,1758089335.60164,0.0,0.0,0.0,-39.13302,-41.31026,0.0573,9.04,2.17,-0.82,2.0
1758089345.56412,1758089335.61164,0.0,0.0,0.0,-38.56006,-35.3515,1.48969,10.23,1.44,-0.63,2.0
1758089345.58375,1758089335.62164,0.0,0.0,0.0,-37.98711,-28.30412,3.60963,10.23,1.44,-0.63,2.0
1758089345.58745,1758089335.63164,0.0,0.0,0.0,-37.01308,-27.33009,7.10468,10.7,0.83,-0.4,2.0
1758089345.58783,1758089335.64164,0.0,0.0,0.0,-37.64333,-42.28429,8.59437,10.7,0.83,-0.4,2.0
1758089345.60435,1758089335.65164,0.0,0.0,0.0,-41.48215,-33.46074,6.87549,9.04,0.66,0.14,2.0
1758089345.62136,1758089335.66164,0.0,0.0,0.0,-46.00851,-21.14215,4.87014,11.3,1.17,-1.82,2.0
1758089345.62401,1758089335.67164,0.0,0.0,0.0,-49.04519,-14.15206,4.29718,11.3,1.17,-1.82,2.0
1758089345.63916,1758089335.68164,0.0,0.0,0.0,-49.27437,-15.35527,6.41713,10.36,1.23,0.22,2.0
1758089345.64034,1758089335.69164,0.0,0.0,0.0,-47.49821,-20.05352,8.136,10.36,1.23,0.22,2.0
1758089345.65669,1758089335.70164,0.0,0.0,0.0,-45.55015,-25.89769,9.62569,10.57,0.84,1.58,2.0
1758089345.6579,1758089335.71164,0.0,0.0,0.0,-43.14373,-38.90384,8.65166,10.57,0.84,1.58,2.0
1758089345.67309,1758089335.72164,0.0,0.0,0.0,-36.89849,-45.60744,4.29718,11.18,0.17,2.32,2.0
1758089345.68914,1758089335.73164,0.0,0.0,0.0,-28.13223,-47.15443,1.08862,13.51,-1.19,2.46,2.0
1758089345.69031,1758089335.74164,0.0,0.0,0.0,-17.13144,-51.50891,-2.06265,13.51,-1.19,2.46,2.0
1758089345.70539,1758089335.75164,0.0,0.0,0.0,-5.78687,-57.23849,-5.4431,13.43,-3.23,2.84,2.0
1758089345.70948,1758089335.76164,0.0,0.0,0.0,6.7609,-54.02992,-7.84952,13.43,-3.23,2.84,2.0
1758089345.72523,1758089335.77164,0.0,0.0,0.0,10.48513,-52.82671,-7.79223,12.43,-3.49,1.36,2.0
1758089345.74381,1758089335.78164,0.0,0.0,0.0,10.8862,-49.90463,-6.47442,12.43,-3.49,1.36,2.0
1758089345.74557,1758089335.79164,0.0,0.0,0.0,9.05273,-43.25832,-4.92744,9.96,-1.66,0.81,2.0
1758089345.76355,1758089335.80164,0.0,0.0,0.0,2.11994,-33.63263,-3.95341,8.84,-0.3,2.13,2.0
1758089345.76557,1758089335.81164,0.0,0.0,0.0,-3.38045,-27.33009,-3.66693,8.84,-0.3,2.13,2.0
1758089345.78349,1758089335.82164,0.0,0.0,0.0,-9.05273,-21.31403,-3.32316,8.39,0.33,2.9,2.0
1758089345.78546,1758089335.83164,0.0,0.0,0.0,-14.38124,-15.98552,-2.92208,8.39,0.33,2.9,2.0
1758089345.80112,1758089335.84164,0.0,0.0,0.0,-20.68378,-6.58902,-1.3178,9.32,0.37,2.43,2.0
1758089345.80395,1758089335.85164,0.0,0.0,0.0,-23.31938,1.43239,-0.51566,9.32,0.37,2.43,2.0
1758089345.81918,1758089335.86164,0.0,0.0,0.0,-24.23611,9.28192,0.11459,11.16,-0.32,1.85,2.0
1758089345.82352,1758089335.87164,0.0,0.0,0.0,-22.00158,20.3973,0.11459,11.16,-0.32,1.85,2.0
1758089345.83938,1758089335.88164,0.0,0.0,0.0,-18.73572,27.84575,-0.0573,11.93,-1.62,1.17,2.0
1758089345.84304,1758089335.89164,0.0,0.0,0.0,-15.0115,34.60666,-0.34377,11.58,-2.54,0.61,2.0
1758089345.8585,1758089335.90164,0.0,0.0,0.0,-11.34457,39.24761,-0.97403,11.58,-2.54,0.61,2.0
1758089345.85935,1758089335.91164,0.0,0.0,0.0,-6.58902,41.36755,-1.08862,10.25,-2.4,0.54,2.0
1758089345.87415,1758089335.92164,0.0,0.0,0.0,-4.29718,41.48215,-1.14592,10.25,-2.4,0.54,2.0
1758089345.89193,1758089335.93164,0.0,0.0,0.0,-2.6929,41.31026,-1.14592,9.38,-1.9,0.62,2.0
1758089345.89314,1758089335.94164,0.0,0.0,0.0,-2.00535,41.08107,-1.03132,9.38,-1.9,0.62,2.0
1758089345.90844,1758089335.95164,0.0,0.0,0.0,-1.43239,40.27893,-0.85944,9.31,-1.54,0.93,2.0
1758089345.90938,1758089335.96164,0.0,0.0,0.0,-1.14592,38.84654,-1.03132,9.21,-1.36,1.05,2.0
1758089345.92426,1758089335.97164,0.0,0.0,0.0,-0.40107,36.38282,-0.80214,9.21,-1.36,1.05,2.0
1758089345.94138,1758089335.98164,0.0,0.0,0.0,0.51566,33.51803,-0.57296,9.02,-1.4,0.94,2.0
1758089345.94427,1758089335.99164,0.0,0.0,0.0,2.97938,30.02299,0.57296,9.02,-1.4,0.94,2.0
1758089345.95946,1758089336.00164,0.0,0.0,0.0,4.58366,28.01764,1.3751,9.03,-1.5,0.73,2.0
1758089345.96118,1758089336.01164,0.0,0.0,0.0,6.18794,25.38203,2.06265,9.03,-1.5,0.73,2.0
1758089345.9782,1758089336.02164,0.0,0.0,0.0,7.50575,21.7724,2.63561,8.82,-1.49,0.83,2.0
1758089345.97962,1758089336.03164,0.0,0.0,0.0,8.88085,15.0115,3.38045,8.62,-1.38,0.71,2.0
1758089345.99416,1758089336.04164,0.0,0.0,0.0,8.93814,9.62569,3.66693,8.62,-1.38,0.71,2.0
1758089345.99866,1758089336.05164,0.0,0.0,0.0,8.70896,4.52637,3.83882,8.64,-1.25,0.57,2.0
1758089346.01405,1758089336.06164,0.0,0.0,0.0,8.42248,-0.51566,3.95341,8.64,-1.25,0.57,2.0
1758089346.03151,1758089336.07164,0.0,0.0,0.0,8.30789,-6.87549,3.89611,8.88,-1.12,0.38,2.0
1758089346.03241,1758089336.08164,0.0,0.0,0.0,8.0787,-10.65701,3.66693,8.88,-1.12,0.38,2.0
1758089346.04748,1758089336.09164,0.0,0.0,0.0,8.36518,-11.22997,3.26586,9.13,-0.99,0.36,2.0
1758089346.05243,1758089336.10164,0.0,0.0,0.0,8.47978,-6.24524,1.71887,9.13,-0.99,0.36,2.0
1758089346.06727,1758089336.11164,0.0,0.0,0.0,8.70896,-1.66158,0.17189,9.78,-0.87,0.4,2.0
1758089346.06841,1758089336.12164,0.0,0.0,0.0,9.11003,3.32316,-1.3751,10.01,-0.73,0.67,2.0
1758089346.08323,1758089336.13164,0.0,0.0,0.0,9.91217,8.99544,-2.97938,10.01,-0.73,0.67,2.0
1758089346.09918,1758089336.14164,0.0,0.0,0.0,11.22997,17.81899,-5.61499,10.16,-0.66,0.7,2.0
1758089346.10119,1758089336.15164,0.0,0.0,0.0,13.00614,22.11617,-6.87549,10.16,-0.66,0.7,2.0
1758089346.11823,1758089336.16164,0.0,0.0,0.0,15.24068,23.66316,-7.73493,9.98,-0.77,0.58,2.0
1758089346.11941,1758089336.17164,0.0,0.0,0.0,18.16276,22.51724,-7.84952,9.98,-0.77,0.58,2.0
1758089346.13417,1758089336.18164,0.0,0.0,0.0,23.20479,19.19409,-7.04738,9.61,-1.11,0.54,2.0
1758089346.1512,1758089336.19164,0.0,0.0,0.0,27.33009,16.04282,-5.72958,9.45,-1.57,0.3,2.0
1758089346.15314,1758089336.20164,0.0,0.0,0.0,31.56997,11.63104,-4.0107,9.45,-1.57,0.3,2.0
1758089346.16822,1758089336.21164,0.0,0.0,0.0,35.86716,6.7609,-2.23454,9.13,-2.04,-0.05,2.0
1758089346.16961,1758089336.22164,0.0,0.0,0.0,41.25296,-1.14592,-0.57296,9.13,-2.04,-0.05,2.0
1758089346.1842,1758089336.23164,0.0,0.0,0.0,44.8053,-7.62034,-0.57296,8.88,-2.25,-0.27,2.0
1758089346.20122,1758089336.24164,0.0,0.0,0.0,46.69606,-18.50654,-0.57296,8.88,-2.25,-0.27,2.0
1758089346.20431,1758089336.25164,0.0,0.0,0.0,46.46688,-24.75178,-1.3178,8.45,-2.01,-0.45,2.0
1758089346.21951,1758089336.26164,0.0,0.0,0.0,45.55015,-28.01764,-3.83882,9.29,-1.48,-0.42,2.0
1758089346.22289,1758089336.27164,0.0,0.0,0.0,46.1231,-19.25138,-2.97938,9.29,-1.48,-0.42,2.0
1758089346.23859,1758089336.28164,0.0,0.0,0.0,46.69606,-8.30789,-2.97938,10.9,-1.06,0.28,2.0
1758089346.23946,1758089336.29164,0.0,0.0,0.0,45.72203,8.02141,-3.03668,10.9,-1.06,0.28,2.0
1758089346.25454,1758089336.30164,0.0,0.0,0.0,44.00316,13.46451,-4.92744,10.75,-0.65,1.33,2.0
1758089346.27122,1758089336.31164,0.0,0.0,0.0,45.20637,8.42248,-5.09932,10.75,-0.65,1.33,2.0
1758089346.27244,1758089336.32164,0.0,0.0,0.0,41.36755,-15.92823,-9.85487,8.65,-0.59,0.56,2.0
1758089346.28724,1758089336.33164,0.0,0.0,0.0,49.84733,-52.71212,-3.83882,8.65,-0.59,-1.45,2.0
1758089346.29007,1758089336.34164,0.0,0.0,0.0,52.02457,-46.35228,-0.97403,7.83,-1.0,-1.45,2.0
1758089346.30524,1758089336.35164,0.0,0.0,0.0,52.65482,-30.76784,-0.51566,12.32,-1.42,-1.84,2.0
1758089346.30805,1758089336.36164,0.0,0.0,0.0,52.54023,-21.37133,-0.57296,12.32,-1.42,-1.84,2.0
1758089346.32422,1758089336.37164,0.0,0.0,0.0,49.50356,-15.87093,-2.40642,10.81,-1.24,-0.8,2.0
1758089346.34287,1758089336.38164,0.0,0.0,0.0,46.00851,-8.42248,-3.66693,10.81,-1.24,-0.8,2.0
1758089346.34401,1758089336.39164,0.0,0.0,0.0,41.42485,-1.20321,-5.72958,11.44,-0.88,1.03,2.0
1758089346.35924,1758089336.40164,0.0,0.0,0.0,36.26823,1.03132,-7.79223,11.44,-0.88,1.03,2.0
1758089346.36047,1758089336.41164,0.0,0.0,0.0,28.13223,-6.35983,-7.50575,11.38,0.13,0.35,2.0
1758089346.37632,1758089336.42164,0.0,0.0,0.0,23.37668,-16.73037,-3.89611,10.98,0.75,1.37,2.0
1758089346.37806,1758089336.43164,0.0,0.0,0.0,18.90761,-24.5226,1.43239,10.98,0.75,1.37,2.0
1758089346.39424,1758089336.44164,0.0,0.0,0.0,12.71966,-27.50197,7.04738,12.68,1.16,1.88,2.0
1758089346.41129,1758089336.45164,0.0,0.0,0.0,1.60428,-29.8511,13.80828,12.68,1.16,1.88,2.0
1758089346.41246,1758089336.46164,0.0,0.0,0.0,-5.32851,-31.45539,15.35527,13.92,1.85,2.32,2.0
1758089346.42718,1758089336.47164,0.0,0.0,0.0,-11.00079,-33.80451,13.06344,13.92,1.85,2.32,2.0
1758089346.42839,1758089336.48164,0.0,0.0,0.0,-13.98017,-37.12767,6.13065,12.43,0.74,1.63,2.0
1758089346.44357,1758089336.49164,0.0,0.0,0.0,-10.94349,-37.12767,0.68755,9.98,-0.55,1.4,2.0
1758089346.45966,1758089336.50164,0.0,0.0,0.0,-4.58366,-35.3515,-4.0107,9.98,-0.55,1.4,2.0
1758089346.46394,1758089336.51164,0.0,0.0,0.0,4.18259,-32.6013,-7.62034,8.53,-0.79,1.72,2.0
1758089346.47951,1758089336.52164,0.0,0.0,0.0,18.90761,-24.98096,-9.33921,8.53,-0.79,1.72,2.0
1758089346.48528,1758089336.53164,0.0,0.0,0.0,28.13223,-19.13679,-8.42248,8.48,-0.69,2.81,2.0
1758089346.48909,1758089336.54164,0.0,0.0,0.0,35.52338,-14.32395,-6.58902,8.48,-0.69,2.81,2.0
1758089346.50872,1758089336.55164,0.0,0.0,0.0,40.45082,-8.99544,-4.1253,8.88,-0.41,2.43,2.0
1758089346.50967,1758089336.56164,0.0,0.0,0.0,41.59674,2.6929,1.3178,10.0,0.47,1.69,2.0
1758089346.52528,1758089336.57164,0.0,0.0,0.0,40.7373,11.22997,1.03132,10.0,0.47,1.69,2.0
1758089346.54136,1758089336.58164,0.0,0.0,0.0,37.75792,22.74642,3.20856,11.78,1.46,1.43,2.0
1758089346.54437,1758089336.59164,0.0,0.0,0.0,31.91375,28.30412,0.17189,11.78,1.46,1.43,2.0
1758089346.54953,1758089336.60164,0.0,0.0,0.0,23.0902,29.56462,-1.03132,10.52,2.22,1.0,2.0
1758089346.56525,1758089336.61164,0.0,0.0,0.0,17.93358,30.02299,-1.94806,10.52,2.22,1.0,2.0
1758089346.56881,1758089336.62164,0.0,0.0,0.0,13.23533,29.8511,-3.03668,9.81,2.14,0.71,2.0
1758089346.58895,1758089336.63164,0.0,0.0,0.0,8.93814,30.65324,-4.23989,9.81,2.14,0.71,2.0
1758089346.59255,1758089336.64164,0.0,0.0,0.0,3.38045,34.66395,-5.21392,9.86,1.86,0.67,2.0
1758089346.60732,1758089336.65164,0.0,0.0,0.0,0.34377,36.15364,-5.55769,10.4,1.62,1.12,2.0
1758089346.60848,1758089336.66164,0.0,0.0,0.0,-1.71887,36.95578,-5.21392,10.4,1.62,1.12,2.0
1758089346.62329,1758089336.67164,0.0,0.0,0.0,-3.38045,38.38818,-4.81285,10.69,1.07,1.32,2.0
1758089346.63956,1758089336.68164,0.0,0.0,0.0,-4.46907,41.31026,-4.18259,10.69,1.07,1.32,2.0
1758089346.64051,1758089336.69164,0.0,0.0,0.0,-4.52637,42.1124,-3.66693,10.65,0.36,1.25,2.0
1758089346.6555,1758089336.70164,0.0,0.0,0.0,-4.0107,41.88322,-2.92208,10.65,0.36,1.25,2.0
1758089346.65731,1758089336.71164,0.0,0.0,0.0,-2.40642,39.76327,-0.85944,9.73,0.4,0.95,2.0
1758089346.67352,1758089336.72164,0.0,0.0,0.0,-1.14592,37.01308,0.0,9.08,0.53,1.07,2.0
1758089346.68924,1758089336.73164,0.0,0.0,0.0,-0.0573,33.00237,0.57296,9.08,0.53,1.07,2.0
1758089346.69208,1758089336.74164,0.0,0.0,0.0,0.57296,28.07493,0.57296,8.35,0.6,0.75,2.0
1758089346.70741,1758089336.75164,0.0,0.0,0.0,0.80214,18.90761,0.11459,8.35,0.6,0.75,2.0
1758089346.70849,1758089336.76164,0.0,0.0,0.0,0.85944,12.43318,0.0,7.76,0.7,0.64,2.0
1758089346.72329,1758089336.77164,0.0,0.0,0.0,0.68755,5.72958,0.17189,7.76,0.7,0.64,2.0
1758089346.73957,1758089336.78164,0.0,0.0,0.0,0.51566,-0.97403,1.14592,7.67,0.66,0.8,2.0
1758089346.74048,1758089336.79164,0.0,0.0,0.0,0.11459,-9.5684,3.83882,8.07,0.64,1.0,2.0
1758089346.75607,1758089336.80164,0.0,0.0,0.0,-0.45837,-15.06879,5.72958,8.07,0.64,1.0,2.0
1758089346.75941,1758089336.81164,0.0,0.0,0.0,-1.48969,-14.61043,6.47442,8.99,0.78,1.15,2.0
1758089346.77452,1758089336.82164,0.0,0.0,0.0,-2.57831,-8.76626,7.16197,8.99,0.78,1.15,2.0
1758089346.79208,1758089336.83164,0.0,0.0,0.0,-4.52637,2.63561,6.53172,10.26,0.95,1.04,2.0
1758089346.79326,1758089336.84164,0.0,0.0,0.0,-5.84417,12.43318,5.78687,10.26,0.95,1.04,2.0
1758089346.80826,1758089336.85164,0.0,0.0,0.0,-7.33386,22.57454,4.87014,10.76,0.81,0.86,2.0
1758089346.80949,1758089336.86164,0.0,0.0,0.0,-8.30789,29.67921,4.18259,10.76,0.81,0.86,2.0
1758089346.8245,1758089336.87164,0.0,0.0,0.0,-8.88085,33.11696,3.89611,10.13,0.46,0.42,2.0
1758089346.84197,1758089336.88164,0.0,0.0,0.0,-8.76626,30.99702,4.46907,9.3,0.34,-0.18,2.0
1758089346.84582,1758089336.89164,0.0,0.0,0.0,-8.88085,27.96034,5.84417,9.3,0.34,-0.18,2.0
1758089346.86194,1758089336.90164,0.0,0.0,0.0,-9.4538,21.88699,8.47978,9.39,0.47,-0.36,2.0
1758089346.86576,1758089336.91164,0.0,0.0,0.0,-10.65701,16.04282,9.96947,9.39,0.47,-0.36,2.0
1758089346.88298,1758089336.92164,0.0,0.0,0.0,-12.49048,8.70896,11.34457,9.46,0.81,-0.25,2.0
1758089346.88406,1758089336.93164,0.0,0.0,0.0,-14.38124,-2.11994,13.34992,9.46,0.81,-0.25,2.0
1758089346.90357,1758089336.94164,0.0,0.0,0.0,-19.53786,-14.15206,12.37589,9.43,1.28,0.02,2.0
1758089346.90528,1758089336.95164,0.0,0.0,0.0,-24.00693,-20.45459,10.59972,9.49,1.79,0.08,2.0
1758089346.92021,1758089336.96164,0.0,0.0,0.0,-28.24682,-26.12688,8.02141,9.49,1.79,0.08,2.0
1758089346.92392,1758089336.97164,0.0,0.0,0.0,-32.71589,-31.79916,4.87014,9.35,2.03,-0.04,2.0
1758089346.93928,1758089336.98164,0.0,0.0,0.0,-38.1017,-37.52874,-0.57296,9.35,2.03,-0.04,2.0
1758089346.94055,1758089336.99164,0.0,0.0,0.0,-40.68,-40.04975,-4.46907,9.38,1.69,-0.15,2.0
1758089346.9561,1758089337.00164,0.0,0.0,0.0,-41.13837,-43.65939,-6.24524,9.38,1.69,-0.15,2.0
1758089346.95817,1758089337.01164,0.0,0.0,0.0,-40.27893,-42.39888,-6.35983,9.52,1.28,-0.69,2.0
1758089346.97434,1758089337.02164,0.0,0.0,0.0,-37.81522,-33.63263,-3.72423,10.33,0.87,-1.03,2.0
1758089346.99113,1758089337.03164,0.0,0.0,0.0,-35.3515,-28.93437,0.85944,10.33,0.87,-1.03,2.0
1758089346.99237,1758089337.04164,0.0,0.0,0.0,-34.77854,-27.44468,4.18259,10.01,0.58,-0.45,2.0
1758089347.00728,1758089337.05164,0.0,0.0,0.0,-33.34615,-38.15899,7.73493,10.01,0.58,-0.45,2.0
1758089347.00855,1758089337.06164,0.0,0.0,0.0,-37.12767,-39.4195,11.86023,8.96,0.44,-0.33,2.0
1758089347.02335,1758089337.07164,0.0,0.0,0.0,-38.38818,-20.11082,11.74564,8.96,0.44,-0.33,2.0
1758089347.03924,1758089337.08163,0.0,0.0,0.0,-40.7373,-14.9542,12.60507,11.97,0.59,-0.81,2.0
1758089347.04047,1758089337.09163,0.0,0.0,0.0,-40.45082,-20.79837,11.00079,11.97,0.59,-0.81,2.0
1758089347.05538,1758089337.10163,0.0,0.0,0.0,-40.85189,-34.0337,7.44845,10.69,0.32,1.57,2.0
1758089347.07139,1758089337.11163,0.0,0.0,0.0,-38.21629,-35.3515,5.15662,12.75,0.24,2.48,2.0
1758089347.07347,1758089337.12163,0.0,0.0,0.0,-34.95043,-39.01843,1.3751,12.75,0.24,2.48,2.0
1758089347.08866,1758089337.13163,0.0,0.0,0.0,-23.72045,-45.26366,-3.26586,14.07,-0.78,2.31,2.0
1758089347.08955,1758089337.14163,0.0,0.0,0.0,-13.69369,-50.64947,-6.24524,14.07,-0.78,2.31,2.0
1758089347.10518,1758089337.15163,0.0,0.0,0.0,-2.40642,-50.76406,-8.65166,13.98,-2.57,2.68,2.0
1758089347.10954,1758089337.16163,0.0,0.0,0.0,7.21927,-48.52953,-8.88085,13.98,-2.57,2.68,2.0
1758089347.12721,1758089337.17163,0.0,0.0,0.0,16.73037,-45.77933,-6.8182,12.78,-3.43,1.25,2.0
1758089347.13002,1758089337.18163,0.0,0.0,0.0,19.13679,-41.31026,-4.29718,10.45,-2.08,0.95,2.0
1758089347.14564,1758089337.19163,0.0,0.0,0.0,18.16276,-35.63798,-1.83346,10.45,-2.08,0.95,2.0
1758089347.16318,1758089337.20163,0.0,0.0,0.0,14.09476,-31.16891,0.0,9.3,-0.61,1.92,2.0
1758089347.16434,1758089337.21163,0.0,0.0,0.0,4.0107,-20.16812,-0.0573,9.3,-0.61,1.92,2.0
1758089347.17937,1758089337.22163,0.0,0.0,0.0,-2.92208,-12.37589,0.34377,9.3,0.22,3.21,2.0
1758089347.18058,1758089337.23163,0.0,0.0,0.0,-10.65701,-10.48513,-0.11459,9.3,0.22,3.21,2.0
1758089347.19563,1758089337.24163,0.0,0.0,0.0,-17.76169,-8.136,-1.03132,8.66,0.6,2.94,2.0
1758089347.2114,1758089337.25163,0.0,0.0,0.0,-25.89769,1.08862,-1.3751,10.11,0.51,2.18,2.0
1758089347.21416,1758089337.26163,0.0,0.0,0.0,-28.41871,8.65166,-0.85944,10.11,0.51,2.18,2.0
1758089347.22932,1758089337.27163,0.0,0.0,0.0,-28.76248,17.24603,-0.45837,11.38,-0.47,1.44,2.0
1758089347.23303,1758089337.28163,0.0,0.0,0.0,-26.81443,24.75178,0.11459,11.38,-0.47,1.44,2.0
1758089347.24865,1758089337.29163,0.0,0.0,0.0,-20.97026,35.52338,0.11459,11.52,-1.86,1.08,2.0
1758089347.24963,1758089337.30163,0.0,0.0,0.0,-16.55848,41.42485,0.0573,11.52,-1.86,1.08,2.0
1758089347.26514,1758089337.31163,0.0,0.0,0.0,-12.83425,46.75336,-0.11459,10.98,-2.52,0.59,2.0
1758089347.27309,1758089337.32163,0.0,0.0,0.0,-8.36518,50.76406,-0.57296,10.98,-2.52,0.59,2.0
1758089347.2887,1758089337.33163,0.0,0.0,0.0,-6.87549,49.67545,-1.14592,10.05,-2.25,0.72,2.0
1758089347.29311,1758089337.34163,0.0,0.0,0.0,-6.07335,47.61279,-1.3751,9.09,-1.68,0.89,2.0
1758089347.30854,1758089337.35163,0.0,0.0,0.0,-6.13065,45.72203,-1.48969,9.09,-1.68,0.89,2.0
1758089347.31312,1758089337.36163,0.0,0.0,0.0,-6.99009,44.11775,-1.48969,9.06,-1.33,0.98,2.0
1758089347.32841,1758089337.37163,0.0,0.0,0.0,-7.21927,41.99781,-1.83346,9.06,-1.33,0.98,2.0
1758089347.33272,1758089337.38163,0.0,0.0,0.0,-7.16197,37.18496,-1.66158,8.86,-1.25,1.09,2.0
1758089347.34839,1758089337.39163,0.0,0.0,0.0,-6.47442,30.88243,-1.3751,8.86,-1.25,1.09,2.0
1758089347.35282,1758089337.40163,0.0,0.0,0.0,-3.89611,23.66316,-0.45837,8.47,-1.37,0.98,2.0
1758089347.36871,1758089337.41163,0.0,0.0,0.0,-1.77617,20.51189,0.22918,8.63,-1.56,0.66,2.0
1758089347.37239,1758089337.42163,0.0,0.0,0.0,0.51566,18.10547,1.20321,8.63,-1.56,0.66,2.0
1758089347.38743,1758089337.43163,0.0,0.0,0.0,3.03668,16.10011,2.11994,8.68,-1.66,0.8,2.0
1758089347.38941,1758089337.44163,0.0,0.0,0.0,6.18794,13.17803,2.92208,8.68,-1.66,0.8,2.0
1758089347.40841,1758089337.45163,0.0,0.0,0.0,7.73493,11.28727,3.38045,8.73,-1.54,0.81,2.0
1758089347.41319,1758089337.46163,0.0,0.0,0.0,8.59437,8.93814,3.20856,8.73,-1.54,0.81,2.0
1758089347.42846,1758089337.47163,0.0,0.0,0.0,8.59437,6.41713,2.57831,8.91,-1.21,0.68,2.0
1758089347.43302,1758089337.48163,0.0,0.0,0.0,7.84952,4.46907,1.48969,9.36,-0.83,0.57,2.0
1758089347.44843,1758089337.49163,0.0,0.0,0.0,7.21927,3.55234,0.74485,9.36,-0.83,0.57,2.0
1758089347.44965,1758089337.50163,0.0,0.0,0.0,6.13065,2.23454,-0.0573,9.56,-0.5,0.49,2.0
1758089347.46457,1758089337.51163,0.0,0.0,0.0,4.52637,1.48969,-1.3751,9.56,-0.5,0.49,2.0
1758089347.48314,1758089337.52163,0.0,0.0,0.0,3.60963,0.85944,-2.29183,9.66,-0.35,0.5,2.0
1758089347.48444,1758089337.53163,0.0,0.0,0.0,3.38045,2.06265,-3.26586,9.66,-0.35,0.5,2.0
1758089347.49985,1758089337.54163,0.0,0.0,0.0,3.26586,5.4431,-4.58366,10.01,-0.49,0.33,2.0
1758089347.5034,1758089337.55163,0.0,0.0,0.0,3.95341,12.204,-6.41713,10.01,-0.49,0.33,2.0
1758089347.51848,1758089337.56163,0.0,0.0,0.0,4.81285,16.10011,-7.62034,10.37,-0.8,0.27,2.0
1758089347.51967,1758089337.57163,0.0,0.0,0.0,5.78687,20.62648,-8.88085,10.21,-0.98,0.27,2.0
1758089347.53675,1758089337.58163,0.0,0.0,0.0,6.87549,26.06958,-9.5684,10.21,-0.98,0.27,2.0
1758089347.53879,1758089337.59163,0.0,0.0,0.0,8.93814,30.25217,-10.19865,10.17,-1.02,0.46,2.0
1758089347.55528,1758089337.60163,0.0,0.0,0.0,11.22997,29.39274,-9.4538,10.17,-1.02,0.46,2.0
1758089347.558,1758089337.61163,0.0,0.0,0.0,13.69369,27.61657,-8.76626,9.69,-1.09,0.58,2.0
1758089347.57336,1758089337.62163,0.0,0.0,0.0,16.55848,25.72581,-7.73493,9.69,-1.09,0.58,2.0
1758089347.58948,1758089337.63163,0.0,0.0,0.0,21.6578,20.22541,-5.78687,9.62,-1.27,0.62,2.0
1758089347.59308,1758089337.64163,0.0,0.0,0.0,24.98096,14.78231,-4.52637,9.17,-1.51,0.4,2.0
1758089347.60857,1758089337.65163,0.0,0.0,0.0,28.41871,8.30789,-3.32316,9.17,-1.51,0.4,2.0
1758089347.61234,1758089337.66163,0.0,0.0,0.0,31.85646,0.74485,-3.09397,8.78,-1.68,0.0,2.0
1758089347.62839,1758089337.67163,0.0,0.0,0.0,33.63263,-18.44924,-3.55234,8.78,-1.68,0.0,2.0
1758089347.62948,1758089337.68163,0.0,0.0,0.0,32.54401,-27.33009,-2.97938,8.29,-1.53,-0.56,2.0
1758089347.64858,1758089337.69163,0.0,0.0,0.0,30.59595,-24.29341,-6.24524,8.29,-1.53,-0.56,2.0
1758089347.65187,1758089337.70163,0.0,0.0,0.0,30.59595,-12.83425,-5.61499,10.14,-1.21,-0.67,2.0
1758089347.66747,1758089337.71163,0.0,0.0,0.0,30.36677,4.46907,-5.50039,11.08,-0.95,0.67,2.0
1758089347.66869,1758089337.72163,0.0,0.0,0.0,28.87707,11.11538,-6.35983,11.08,-0.95,0.67,2.0
1758089347.68342,1758089337.73163,0.0,0.0,0.0,26.98631,14.61043,-7.44845,10.1,-0.67,1.46,2.0
1758089347.68939,1758089337.74163,0.0,0.0,0.0,26.69983,6.47442,-10.54242,10.1,-0.67,1.46,2.0
1758089347.70853,1758089337.75163,0.0,0.0,0.0,27.73116,-24.4653,-9.5684,7.99,-0.61,0.36,2.0
1758089347.71187,1758089337.76163,0.0,0.0,0.0,29.39274,-46.46688,-7.21927,7.99,-0.61,0.36,2.0
1758089347.72937,1758089337.77163,0.0,0.0,0.0,34.60666,-47.95657,-0.68755,8.02,-1.07,-1.57,2.0
1758089347.73349,1758089337.78163,0.0,0.0,0.0,36.7266,-30.13758,2.23454,11.4,-1.07,-1.77,2.0
1758089347.74861,1758089337.79163,0.0,0.0,0.0,37.81522,-24.23611,3.32316,11.4,-1.47,-1.77,2.0
1758089347.75213,1758089337.80163,0.0,0.0,0.0,37.98711,-21.88699,3.32316,9.7,-1.45,-0.37,2.0
1758089347.76831,1758089337.81163,0.0,0.0,0.0,37.29956,-16.95955,3.03668,9.7,-1.45,-0.37,2.0
1758089347.77269,1758089337.82163,0.0,0.0,0.0,35.00772,-9.85487,1.3178,9.95,-1.18,0.96,2.0
1758089347.78751,1758089337.83163,0.0,0.0,0.0,33.00237,-7.33386,-0.11459,9.95,-1.18,0.96,2.0
1758089347.78876,1758089337.84163,0.0,0.0,0.0,30.53865,-6.13065,-1.71887,9.66,-0.64,0.59,2.0
1758089347.80343,1758089337.85163,0.0,0.0,0.0,27.84575,-5.21392,-2.92208,9.66,-0.64,0.59,2.0
1758089347.80864,1758089337.86163,0.0,0.0,0.0,22.63183,-11.28727,-4.1253,9.75,-0.1,1.38,2.0
1758089347.82613,1758089337.87163,0.0,0.0,0.0,17.87628,-23.26209,-3.95341,9.7,0.46,2.31,2.0
1758089347.83243,1758089337.88163,0.0,0.0,0.0,15.41257,-39.01843,0.74485,9.7,0.46,2.31,2.0
1758089347.8486,1758089337.89163,0.0,0.0,0.0,11.80293,-44.51882,6.53172,12.52,0.83,3.87,2.0
1758089347.85034,1758089337.90163,0.0,0.0,0.0,1.83346,-33.34615,11.28727,12.52,0.83,3.87,2.0
1758089347.86559,1758089337.91163,0.0,0.0,0.0,-6.18794,-25.38203,10.54242,16.72,1.64,2.42,2.0
1758089347.86797,1758089337.92163,0.0,0.0,0.0,-13.46451,-22.91831,7.04738,16.72,1.64,2.42,2.0
1758089347.88455,1758089337.93163,0.0,0.0,0.0,-20.3973,-20.79837,-2.40642,14.82,1.25,1.15,2.0
1758089347.90057,1758089337.94163,0.0,0.0,0.0,-22.05888,-18.90761,-9.74028,11.47,0.04,-0.07,2.0
1758089347.9036,1758089337.95163,0.0,0.0,0.0,-21.48592,-16.272,-14.9542,11.47,0.04,-0.07,2.0
1758089347.91855,1758089337.96163,0.0,0.0,0.0,-19.36597,-13.80828,-18.22006,9.72,-0.33,0.28,2.0
1758089347.92051,1758089337.97163,0.0,0.0,0.0,-12.89155,-11.11538,-18.27736,9.72,-0.33,0.28,2.0
1758089347.93869,1758089337.98163,0.0,0.0,0.0,-6.58902,-11.11538,-15.98552,9.19,-0.53,2.02,2.0
1758089347.9399,1758089337.99163,0.0,0.0,0.0,0.51566,-11.97482,-12.60507,9.19,-0.53,2.02,2.0
1758089347.95555,1758089338.00163,0.0,0.0,0.0,7.79223,-12.77696,-8.65166,8.25,-0.69,2.44,2.0
1758089347.9586,1758089338.01163,0.0,0.0,0.0,18.16276,-14.72501,-2.34913,7.18,-0.57,2.24,2.0
1758089347.97483,1758089338.02163,0.0,0.0,0.0,23.54857,-14.38124,1.14592,7.18,-0.57,2.24,2.0
1758089347.99204,1758089338.03163,0.0,0.0,0.0,27.33009,-11.51645,4.35448,7.54,-0.28,1.89,2.0
1758089347.99328,1758089338.04163,0.0,0.0,0.0,27.2155,-5.27121,7.62034,7.54,-0.28,1.89,2.0
1758089348.0085,1758089338.05163,0.0,0.0,0.0,24.75178,-0.22918,6.41713,8.99,0.44,1.94,2.0
1758089348.01138,1758089338.06163,0.0,0.0,0.0,19.48057,5.61499,5.09932,8.99,0.44,1.94,2.0
1758089348.02659,1758089338.07163,0.0,0.0,0.0,13.00614,13.40721,1.77617,11.01,1.5,1.68,2.0
1758089348.02772,1758089338.08163,0.0,0.0,0.0,5.32851,20.68378,-2.00535,11.01,1.5,1.68,2.0
1758089348.0474,1758089338.09163,0.0,0.0,0.0,-3.83882,23.54857,-7.21927,11.41,2.28,0.71,2.0
1758089348.04858,1758089338.10163,0.0,0.0,0.0,-8.0787,23.37668,-8.65166,10.56,2.34,0.68,2.0
1758089348.06361,1758089338.11163,0.0,0.0,0.0,-10.71431,23.60586,-8.99544,10.56,2.34,0.68,2.0
1758089348.08361,1758089338.12163,0.0,0.0,0.0,-11.97482,23.94964,-8.136,10.72,1.62,0.84,2.0
1758089348.08564,1758089338.13163,0.0,0.0,0.0,-11.91752,21.08485,-7.79223,10.72,1.62,0.84,2.0
1758089348.10138,1758089338.14163,0.0,0.0,0.0,-11.17268,18.22006,-7.04738,10.4,0.73,0.47,2.0
1758089348.10421,1758089338.15163,0.0,0.0,0.0,-9.96947,16.67307,-6.13065,10.4,0.73,0.47,2.0
1758089348.12158,1758089338.16163,0.0,0.0,0.0,-7.84952,15.24068,-5.21392,10.07,0.73,0.58,2.0
1758089348.1236,1758089338.17163,0.0,0.0,0.0,-6.7609,15.06879,-4.92744,9.77,0.67,0.55,2.0
1758089348.13892,1758089338.18163,0.0,0.0,0.0,-6.18794,15.46986,-4.98473,9.77,0.67,0.55,2.0
1758089348.14174,1758089338.19163,0.0,0.0,0.0,-5.95876,16.38659,-5.09932,9.48,0.67,0.75,2.0
1758089348.15817,1758089338.20163,0.0,0.0,0.0,-6.47442,15.98552,-5.27121,9.48,0.67,0.75,2.0
1758089348.15937,1758089338.21163,0.0,0.0,0.0,-6.99009,14.61043,-4.98473,8.89,0.68,0.62,2.0
1758089348.17488,1758089338.22163,0.0,0.0,0.0,-7.73493,14.20935,-4.92744,8.89,0.68,0.62,2.0
1758089348.19259,1758089338.23163,0.0,0.0,0.0,-7.84952,13.80828,-4.64096,8.74,0.63,0.56,2.0
1758089348.19364,1758089338.24163,0.0,0.0,0.0,-7.96411,12.49048,-4.69825,8.65,0.62,0.59,2.0
1758089348.20847,1758089338.25163,0.0,0.0,0.0,-8.136,11.45916,-4.46907,8.65,0.62,0.59,2.0
1758089348.21455,1758089338.26163,0.0,0.0,0.0,-8.47978,9.91217,-4.18259,8.84,0.66,0.62,2.0
1758089348.21917,1758089338.27163,0.0,0.0,0.0,-8.76626,8.136,-3.49504,8.84,0.66,0.62,2.0
1758089348.23937,1758089338.28163,0.0,0.0,0.0,-9.28192,5.21392,-2.46372,9.18,0.71,0.54,2.0
1758089348.26357,1758089338.29163,0.0,0.0,0.0,-9.85487,3.83882,-2.06265,9.18,0.71,0.54,2.0
1758089348.26397,1758089338.30163,0.0,0.0,0.0,-10.02676,4.69825,-1.77617,9.72,0.7,0.41,2.0
1758089348.26943,1758089338.31163,0.0,0.0,0.0,-9.74028,6.47442,-1.20321,9.72,0.7,0.41,2.0
1758089348.27397,1758089338.32163,0.0,0.0,0.0,-9.28192,10.59972,-0.34377,10.2,0.63,0.3,2.0
1758089348.29302,1758089338.33163,0.0,0.0,0.0,-8.76626,14.66772,0.68755,10.49,0.48,0.46,2.0
1758089348.2944,1758089338.34163,0.0,0.0,0.0,-8.88085,19.36597,1.71887,10.49,0.48,0.46,2.0
1758089348.3128,1758089338.35163,0.0,0.0,0.0,-9.39651,20.05352,2.57831,10.49,0.45,0.62,2.0
1758089348.31403,1758089338.36163,0.0,0.0,0.0,-10.59972,16.272,2.63561,10.49,0.45,0.62,2.0
1758089348.33278,1758089338.37163,0.0,0.0,0.0,-12.54778,11.11538,2.63561,9.74,0.6,0.49,2.0
1758089348.33407,1758089338.38163,0.0,0.0,0.0,-14.61043,6.35983,2.46372,9.74,0.6,0.49,2.0
1758089348.35312,1758089338.39163,0.0,0.0,0.0,-17.93358,-1.14592,1.94806,9.69,0.79,0.27,2.0
1758089348.3559,1758089338.40163,0.0,0.0,0.0,-20.22541,-6.7609,0.85944,9.22,1.1,-0.1,2.0
1758089348.37297,1758089338.41163,0.0,0.0,0.0,-22.68913,-11.97482,-0.97403,9.22,1.1,-0.1,2.0
1758089348.37429,1758089338.42163,0.0,0.0,0.0,-24.17882,-20.34,-2.86479,8.61,1.23,-0.33,2.0
1758089348.39284,1758089338.43163,0.0,0.0,0.0,-24.29341,-35.63798,-4.35448,8.61,1.23,-0.33,2.0
1758089348.39453,1758089338.44163,0.0,0.0,0.0,-22.00158,-39.24761,-3.38045,8.38,1.01,-1.06,2.0
1758089348.41283,1758089338.45163,0.0,0.0,0.0,-20.11082,-40.10705,-3.20856,8.38,1.01,-1.06,2.0
1758089348.41731,1758089338.46163,0.0,0.0,0.0,-19.25138,-40.33623,-1.60428,9.21,0.62,-0.87,2.0
1758089348.41942,1758089338.47163,0.0,0.0,0.0,-18.73572,-33.46074,2.29183,10.1,0.42,-0.58,2.0
1758089348.4393,1758089338.48163,0.0,0.0,0.0,-18.44924,-30.82513,2.57831,10.1,0.42,-0.58,2.0
1758089348.44056,1758089338.49163,0.0,0.0,0.0,-23.20479,-23.66316,0.57296,10.76,0.99,-0.01,2.0
1758089348.45567,1758089338.50163,0.0,0.0,0.0,-26.69983,-16.21471,-0.45837,10.76,0.99,-0.01,2.0
1758089348.47408,1758089338.51163,0.0,0.0,0.0,-30.53865,-11.45916,-1.03132,10.53,1.35,-0.04,2.0
1758089348.47638,1758089338.52163,0.0,0.0,0.0,-31.62727,-6.13065,0.0573,10.53,1.35,-0.04,2.0
1758089348.49191,1758089338.53163,0.0,0.0,0.0,-32.83048,0.22918,0.85944,10.38,1.44,-0.2,2.0
1758089348.49681,1758089338.54163,0.0,0.0,0.0,-31.97105,7.04738,3.95341,10.38,1.44,-0.2,2.0
1758089348.60355,1758089338.55163,0.0,0.0,0.0,-30.82513,9.5684,5.78687,10.38,1.28,0.28,2.0
1758089348.60882,1758089338.56163,0.0,0.0,0.0,-28.99167,9.85487,6.87549,10.22,1.02,0.48,2.0
1758089348.61494,1758089338.57163,0.0,0.0,0.0,-26.01229,9.85487,7.44845,10.22,1.02,0.48,2.0
1758089348.61644,1758089338.58163,0.0,0.0,0.0,-20.3973,-1.20321,6.8182,11.15,0.66,0.91,2.0
1758089348.61947,1758089338.59163,0.0,0.0,0.0,-15.35527,-7.84952,6.13065,11.15,0.66,0.91,2.0
1758089348.6228,1758089338.60163,0.0,0.0,0.0,-11.80293,-19.25138,3.38045,12.31,-0.09,1.3,2.0
1758089348.62343,1758089338.61163,0.0,0.0,0.0,-7.21927,-31.45539,-0.40107,12.31,-0.09,1.3,2.0
1758089348.62421,1758089338.62163,0.0,0.0,0.0,-2.06265,-42.51347,-7.50575,12.75,-0.79,0.92,2.0
1758089348.62609,1758089338.63163,0.0,0.0,0.0,1.60428,-45.72203,-10.8289,13.15,-1.56,0.41,2.0
1758089348.62776,1758089338.64163,0.0,0.0,0.0,5.15662,-48.52953,-12.49048,13.15,-1.56,0.41,2.0
1758089348.62873,1758089338.65163,0.0,0.0,0.0,8.25059,-48.58683,-11.22997,11.38,-1.29,0.15,2.0
1758089348.6336,1758089338.66163,0.0,0.0,0.0,10.94349,-48.52953,-6.35983,11.38,-1.29,0.15,2.0
1758089348.63461,1758089338.67163,0.0,0.0,0.0,10.65701,-48.8733,-2.63561,9.07,-0.22,-0.06,2.0
1758089348.63536,1758089338.68163,0.0,0.0,0.0,8.70896,-48.35764,0.97403,9.07,-0.22,-0.06,2.0
1758089348.65148,1758089338.69163,0.0,0.0,0.0,4.87014,-47.61279,3.20856,7.66,0.72,0.1,2.0
1758089348.65346,1758089338.70163,0.0,0.0,0.0,-2.11994,-40.50812,6.7609,7.6,1.12,1.14,2.0
1758089348.66899,1758089338.71163,0.0,0.0,0.0,-8.0787,-39.64868,8.65166,7.6,1.12,1.14,2.0
1758089348.67168,1758089338.72163,0.0,0.0,0.0,-14.03747,-37.98711,9.74028,7.36,1.13,2.25,2.0
1758089348.68668,1758089338.73163,0.0,0.0,0.0,-19.48057,-35.12231,10.71431,7.36,1.13,2.25,2.0
1758089348.69344,1758089338.74163,0.0,0.0,0.0,-25.89769,-26.81443,10.71431,8.68,0.9,2.7,2.0
1758089348.70866,1758089338.75163,0.0,0.0,0.0,-28.30412,-21.08485,9.85487,8.68,0.9,2.7,2.0
1758089348.71386,1758089338.76163,0.0,0.0,0.0,-28.64789,-12.83425,8.30789,10.64,0.25,1.55,2.0
1758089348.72867,1758089338.77163,0.0,0.0,0.0,-24.98096,3.20856,6.13065,10.64,0.25,1.55,2.0
1758089348.73388,1758089338.78163,0.0,0.0,0.0,-20.05352,12.77696,5.32851,12.75,-1.01,0.28,2.0
1758089348.74869,1758089338.79163,0.0,0.0,0.0,-14.09476,20.16812,4.92744,12.84,-2.19,-0.3,2.0
1758089348.75384,1758089338.80163,0.0,0.0,0.0,-8.76626,24.29341,5.15662,12.84,-2.19,-0.3,2.0
1758089348.76869,1758089338.81163,0.0,0.0,0.0,-2.86479,28.476,5.84417,11.71,-2.26,-0.25,2.0
1758089348.77262,1758089338.82163,0.0,0.0,0.0,-0.68755,31.39809,6.07335,11.71,-2.26,-0.25,2.0
1758089348.78774,1758089338.83163,0.0,0.0,0.0,0.85944,35.06502,6.8182,11.25,-1.54,-0.17,2.0
1758089348.79322,1758089338.84163,0.0,0.0,0.0,1.77617,35.63798,7.62034,11.25,-1.54,-0.17,2.0
1758089348.80762,1758089338.85163,0.0,0.0,0.0,2.11994,34.72124,8.0787,10.64,-1.08,-0.11,2.0
1758089348.80893,1758089338.86163,0.0,0.0,0.0,2.46372,34.32018,8.42248,10.26,-0.84,0.09,2.0
1758089348.82387,1758089338.87163,0.0,0.0,0.0,2.6929,32.83048,8.30789,10.26,-0.84,0.09,2.0
1758089348.82889,1758089338.88163,0.0,0.0,0.0,2.6929,30.48136,8.136,9.78,-0.7,0.0,2.0
1758089348.84869,1758089338.89163,0.0,0.0,0.0,2.40642,30.25217,6.8182,9.78,-0.7,0.0,2.0
1758089348.85471,1758089338.90163,0.0,0.0,0.0,2.06265,30.88243,5.78687,9.8,-0.57,0.18,2.0
1758089348.85847,1758089338.91163,0.0,0.0,0.0,1.83346,30.13758,4.69825,9.8,-0.57,0.18,2.0
1758089348.8751,1758089338.92163,0.0,0.0,0.0,1.77617,28.59059,3.49504,9.15,-0.41,0.21,2.0
1758089348.87831,1758089338.93163,0.0,0.0,0.0,1.66158,26.01229,1.71887,8.66,-0.34,0.4,2.0
1758089348.89885,1758089338.94163,0.0,0.0,0.0,2.06265,23.49127,1.03132,8.66,-0.34,0.4,2.0
1758089348.90131,1758089338.95163,0.0,0.0,0.0,2.46372,20.45459,0.45837,8.39,-0.4,0.29,2.0
1758089348.92308,1758089338.96163,0.0,0.0,0.0,3.83882,16.21471,0.0,8.39,-0.4,0.29,2.0
1758089348.92502,1758089338.97163,0.0,0.0,0.0,5.32851,13.34992,0.22918,8.54,-0.62,0.28,2.0
1758089348.94069,1758089338.98163,0.0,0.0,0.0,6.8182,10.02676,0.57296,8.54,-0.62,0.28,2.0
1758089348.95135,1758089338.99163,0.0,0.0,0.0,8.76626,6.70361,1.03132,8.87,-0.95,0.24,2.0
1758089348.9528,1758089339.00163,0.0,0.0,0.0,11.57375,3.55234,1.71887,8.87,-0.95,0.0,2.0
1758089348.9737,1758089339.01163,0.0,0.0,0.0,12.71966,5.78687,1.71887,9.46,-1.16,0.0,2.0
1758089348.9789,1758089339.02163,0.0,0.0,0.0,12.83425,9.91217,0.80214,10.29,-0.97,0.04,2.0
1758089348.98671,1758089339.03163,0.0,0.0,0.0,12.43318,14.49583,-0.22918,10.29,-0.97,0.04,2.0
1758089349.03187,1758089339.04163,0.0,0.0,0.0,11.34457,21.25674,-2.46372,10.48,-0.51,0.27,2.0
1758089349.03309,1758089339.05163,0.0,0.0,0.0,10.48513,25.72581,-4.1253,10.48,-0.51,0.27,2.0
1758089349.03431,1758089339.06163,0.0,0.0,0.0,10.19865,29.22085,-5.32851,10.46,-0.19,0.23,2.0
1758089349.03814,1758089339.07163,0.0,0.0,0.0,10.37054,28.93437,-5.95876,10.46,-0.19,0.23,2.0
1758089349.04698,1758089339.08163,0.0,0.0,0.0,13.06344,23.54857,-5.90147,9.9,-0.3,0.17,2.0
1758089349.06143,1758089339.09163,0.0,0.0,0.0,16.21471,19.53786,-4.98473,9.43,-0.91,-0.21,2.0
1758089349.06299,1758089339.10163,0.0,0.0,0.0,20.3973,13.86558,-3.55234,9.43,-0.91,-0.21,2.0
1758089349.0641,1758089339.11163,0.0,0.0,0.0,25.21014,7.33386,-2.06265,8.75,-1.68,-0.71,2.0
1758089349.08199,1758089339.12163,0.0,0.0,0.0,33.11696,-3.38045,0.0573,8.75,-1.68,-0.71,2.0
1758089349.08614,1758089339.13163,0.0,0.0,0.0,39.01843,-9.85487,0.57296,8.36,-2.24,-1.14,2.0
1758089349.08916,1758089339.14163,0.0,0.0,0.0,42.74266,-18.16276,2.40642,8.36,-2.24,-1.14,2.0
1758089349.10677,1758089339.15163,0.0,0.0,0.0,43.4875,-24.98096,1.83346,8.42,-2.35,-1.65,2.0
1758089349.11347,1758089339.16163,0.0,0.0,0.0,42.57077,-27.44468,0.40107,9.32,-1.85,-1.17,2.0
1758089349.12898,1758089339.17163,0.0,0.0,0.0,42.68536,-21.6578,-1.20321,9.32,-1.85,-1.17,2.0
1758089349.13232,1758089339.18163,0.0,0.0,0.0,42.22699,-11.34457,-2.34913,10.81,-1.23,-0.92,2.0
1758089349.14799,1758089339.19163,0.0,0.0,0.0,42.28429,6.18794,-2.92208,10.81,-1.23,-0.92,2.0
1758089349.15297,1758089339.20163,0.0,0.0,0.0,41.76862,15.12609,-3.20856,11.35,-0.85,0.31,2.0
1758089349.16796,1758089339.21163,0.0,0.0,0.0,40.68,20.79837,-3.95341,11.35,-0.85,0.31,2.0
1758089349.17289,1758089339.22163,0.0,0.0,0.0,40.10705,19.48057,-5.4431,10.6,-0.62,0.53,2.0
1758089349.18799,1758089339.23163,0.0,0.0,0.0,40.62271,-6.41713,-8.88085,7.93,-0.62,-0.33,2.0
1758089349.19132,1758089339.24163,0.0,0.0,0.0,45.72203,-30.36677,-4.69825,7.93,-0.89,-0.33,2.0
1758089349.20668,1758089339.25163,0.0,0.0,0.0,51.45161,-33.9764,0.45837,8.61,-1.89,-1.86,2.0
1758089349.2138,1758089339.26163,0.0,0.0,0.0,53.62885,-25.55392,2.29183,8.61,-1.89,-1.86,2.0
1758089349.22898,1758089339.27163,0.0,0.0,0.0,56.89471,-25.72581,3.83882,10.28,-2.29,-0.68,2.0
1758089349.23182,1758089339.28163,0.0,0.0,0.0,56.89471,-33.74722,5.27121,10.28,-2.29,-0.68,2.0
1758089349.247,1758089339.29163,0.0,0.0,0.0,55.34772,-45.77933,7.33386,10.1,-1.66,2.11,2.0
1758089349.2535,1758089339.30163,0.0,0.0,0.0,53.68615,-54.3164,12.60507,10.1,-1.66,2.11,2.0
1758089349.26913,1758089339.31163,0.0,0.0,0.0,44.40423,-44.17505,17.30333,13.94,-0.35,4.8,2.0
1758089349.27389,1758089339.32163,0.0,0.0,0.0,34.66395,-35.3515,17.24603,18.31,2.45,3.09,2.0
1758089349.28877,1758089339.33163,0.0,0.0,0.0,24.57989,-30.99702,15.24068,18.31,2.45,3.09,2.0
1758089349.29658,1758089339.34163,0.0,0.0,0.0,15.41257,-29.50733,6.13065,15.69,3.66,1.3,2.0
1758089349.31203,1758089339.35163,0.0,0.0,0.0,6.8182,-31.11161,-0.68755,15.69,3.66,1.3,2.0
1758089349.31538,1758089339.36163,0.0,0.0,0.0,5.09932,-27.61657,-7.21927,10.51,2.11,-0.4,2.0
1758089349.33182,1758089339.37163,0.0,0.0,0.0,5.72958,-19.88164,-12.49048,10.51,2.11,-0.4,2.0
1758089349.33354,1758089339.38163,0.0,0.0,0.0,11.63104,-8.42248,-17.47521,8.93,0.96,0.0,2.0
1758089349.34903,1758089339.39163,0.0,0.0,0.0,17.6471,-2.97938,-18.33465,8.22,0.43,1.22,2.0
1758089349.3524,1758089339.40163,0.0,0.0,0.0,24.63719,3.09397,-17.30333,8.22,0.43,1.22,2.0
1758089349.36774,1758089339.41163,0.0,0.0,0.0,31.45539,10.19865,-14.66772,8.14,0.12,1.97,2.0
1758089349.37295,1758089339.42163,0.0,0.0,0.0,40.39353,19.48057,-9.22462,8.14,0.12,1.97,2.0
1758089349.3877,1758089339.43163,0.0,0.0,0.0,44.8053,23.66316,-4.98473,7.93,0.09,1.56,2.0
1758089349.39315,1758089339.44163,0.0,0.0,0.0,47.49821,29.27814,-1.66158,7.93,0.09,1.56,2.0
1758089349.40775,1758089339.45163,0.0,0.0,0.0,47.78468,35.98175,1.08862,9.07,0.44,1.32,2.0
1758089349.41327,1758089339.46163,0.0,0.0,0.0,43.77398,43.77398,3.60963,10.54,1.24,0.98,2.0
1758089349.42779,1758089339.47163,0.0,0.0,0.0,39.19032,48.30034,4.23989,10.54,1.24,0.98,2.0
1758089349.42907,1758089339.48163,0.0,0.0,0.0,33.11696,53.51426,2.00535,11.35,1.93,0.5,2.0
1758089349.4441,1758089339.49163,0.0,0.0,0.0,27.67386,55.51962,0.11459,11.35,1.93,0.5,2.0
1758089349.45387,1758089339.50163,0.0,0.0,0.0,21.42862,55.11855,-4.29718,10.75,1.84,0.67,2.0
1758089349.47321,1758089339.51163,0.0,0.0,0.0,18.62113,53.45696,-6.70361,10.75,1.84,0.67,2.0
1758089349.49473,1758089339.52163,0.0,0.0,0.0,17.53251,51.45161,-7.84952,9.98,1.39,0.73,2.0
1758089349.49893,1758089339.53163,0.0,0.0,0.0,17.76169,49.21708,-8.0787,9.98,1.39,0.73,2.0
1758089349.5044,1758089339.54163,0.0,0.0,0.0,19.13679,43.94586,-6.18794,9.21,2.08,1.45,2.0
1758089349.509,1758089339.55163,0.0,0.0,0.0,20.74107,35.06502,-4.29718,8.5,1.89,1.38,2.0
1758089349.51397,1758089339.56163,0.0,0.0,0.0,21.7724,26.69983,-2.11994,8.5,1.89,1.38,2.0
1758089349.52879,1758089339.57163,0.0,0.0,0.0,21.94428,22.23076,0.68755,8.62,1.54,1.45,2.0
1758089349.60841,1758089339.58163,0.0,0.0,0.0,20.85567,16.67307,0.85944,8.62,1.54,1.45,2.0
1758089349.61323,1758089339.59163,0.0,0.0,0.0,18.9649,10.37054,0.17189,8.63,1.38,1.33,2.0
1758089349.63387,1758089339.60163,0.0,0.0,0.0,16.55848,4.58366,-0.68755,8.63,1.38,1.33,2.0
1758089349.7715,1758089339.61163,0.0,0.0,0.0,12.37589,1.94806,-2.92208,8.39,1.23,0.98,2.0
1758089349.77675,1758089339.62163,0.0,0.0,0.0,9.91217,1.08862,-3.95341,8.87,1.11,0.88,2.0
1758089349.77916,1758089339.63163,0.0,0.0,0.0,8.0787,0.85944,-4.64096,8.87,1.11,0.88,2.0
1758089349.78416,1758089339.64163,0.0,0.0,0.0,7.16197,0.74485,-4.46907,9.23,0.98,0.6,2.0
1758089349.78876,1758089339.65163,0.0,0.0,0.0,7.04738,2.46372,-3.20856,9.23,0.98,0.6,2.0
1758089349.79372,1758089339.66163,0.0,0.0,0.0,7.67763,3.55234,-1.66158,9.82,0.74,0.41,2.0
1758089349.80411,1758089339.67163,0.0,0.0,0.0,8.59437,4.87014,0.17189,9.82,0.74,0.41,2.0
1758089349.82538,1758089339.68163,0.0,0.0,0.0,9.74028,6.24524,2.57831,10.2,0.48,0.24,2.0
1758089349.89875,1758089339.69163,0.0,0.0,0.0,11.45916,7.33386,6.24524,10.32,0.28,0.23,2.0
1758089349.90366,1758089339.70163,0.0,0.0,0.0,11.91752,8.30789,8.0787,10.32,0.28,0.23,2.0
1758089349.90613,1758089339.71163,0.0,0.0,0.0,11.97482,11.00079,9.4538,10.26,0.32,0.26,2.0
1758089349.9089,1758089339.72163,0.0,0.0,0.0,11.74564,14.61043,10.65701,10.26,0.32,0.26,2.0
1758089349.91432,1758089339.73163,0.0,0.0,0.0,10.8862,19.36597,11.86023,10.02,0.68,0.36,2.0
1758089349.91577,1758089339.74163,0.0,0.0,0.0,9.96947,23.0902,12.14671,10.02,0.68,0.36,2.0
1758089349.91932,1758089339.75163,0.0,0.0,0.0,8.70896,26.24147,12.60507,9.85,1.16,0.38,2.0
1758089349.92002,1758089339.76163,0.0,0.0,0.0,6.99009,28.76248,12.37589,9.85,1.16,0.38,2.0
1758089349.9229,1758089339.77163,0.0,0.0,0.0,4.46907,27.61657,12.71966,9.66,1.44,0.46,2.0
1758089349.92348,1758089339.78163,0.0,0.0,0.0,2.63561,23.26209,12.89155,9.1,1.37,0.24,2.0
1758089349.92879,1758089339.79163,0.0,0.0,0.0,0.45837,17.53251,13.34992,9.1,1.37,0.24,2.0
1758089349.93176,1758089339.80163,0.0,0.0,0.0,-3.03668,7.50575,14.38124,9.1,1.21,0.14,2.0
1758089349.93425,1758089339.81163,0.0,0.0,0.0,-6.99009,1.60428,13.23533,9.1,1.21,0.14,2.0
1758089349.93603,1758089339.82163,0.0,0.0,0.0,-11.17268,-3.20856,12.14671,9.27,1.23,-0.11,2.0
1758089349.93689,1758089339.83163,0.0,0.0,0.0,-15.06879,-7.33386,10.59972,9.27,1.23,-0.11,2.0
1758089349.9394,1758089339.84163,0.0,0.0,0.0,-20.45459,-14.20935,8.36518,9.43,1.39,-0.2,2.0
1758089349.94022,1758089339.85163,0.0,0.0,0.0,-23.54857,-18.33465,6.41713,9.24,1.52,-0.44,2.0
1758089349.94132,1758089339.86163,0.0,0.0,0.0,-25.38203,-25.7831,5.50039,9.24,1.52,-0.44,2.0
1758089349.94292,1758089339.87163,0.0,0.0,0.0,-25.89769,-34.09099,5.27121,8.8,1.45,-0.67,2.0
1758089349.94406,1758089339.88163,0.0,0.0,0.0,-25.38203,-41.08107,6.47442,8.8,1.45,-0.67,2.0
1758089349.94464,1758089339.89163,0.0,0.0,0.0,-24.75178,-41.02378,7.62034,9.53,1.27,-0.46,2.0
1758089349.95229,1758089339.90163,0.0,0.0,0.0,-24.29341,-39.19032,9.68299,9.53,1.27,-0.46,2.0
1758089349.95362,1758089339.91163,0.0,0.0,0.0,-23.94964,-33.34615,10.65701,10.37,1.17,0.21,2.0
1758089349.95569,1758089339.92163,0.0,0.0,0.0,-23.49127,-19.59516,12.49048,10.95,1.1,0.31,2.0
1758089349.95873,1758089339.93163,0.0,0.0,0.0,-23.20479,-21.6578,14.15206,10.95,1.1,0.31,2.0
1758089349.96154,1758089339.94163,0.0,0.0,0.0,-24.92367,-35.00772,9.62569,8.93,1.26,0.13,2.0
1758089349.96374,1758089339.95163,0.0,0.0,0.0,-25.26744,-37.18496,8.65166,8.93,1.26,0.13,2.0
1758089349.96529,1758089339.96163,0.0,0.0,0.0,-31.85646,-15.41257,2.11994,11.79,2.11,-1.2,2.0
1758089349.96721,1758089339.97163,0.0,0.0,0.0,-34.49206,-9.74028,-0.97403,11.79,2.11,-1.2,2.0
1758089349.96798,1758089339.98163,0.0,0.0,0.0,-34.32018,-11.28727,-0.34377,12.33,1.77,0.23,2.0
1758089349.9691,1758089339.99163,0.0,0.0,0.0,-31.45539,-26.81443,-0.74485,12.33,1.77,0.23,2.0
1758089349.97153,1758089340.00163,0.0,0.0,0.0,-29.73651,-30.48136,-2.63561,11.83,0.84,1.97,2.0
1758089349.97335,1758089340.01163,0.0,0.0,0.0,-26.69983,-27.78845,-4.98473,14.39,-0.33,2.46,2.0
1758089349.97475,1758089340.02163,0.0,0.0,0.0,-20.68378,-23.49127,-6.58902,14.39,-0.33,2.46,2.0
1758089349.9932,1758089340.03163,0.0,0.0,0.0,-8.30789,-23.60586,-8.0787,14.29,-2.41,1.79,2.0
1758089349.99481,1758089340.04163,0.0,0.0,0.0,-0.68755,-24.23611,-8.02141,14.29,-2.41,1.79,2.0
1758089349.99808,1758089340.05163,0.0,0.0,0.0,5.15662,-25.49662,-6.07335,11.23,-2.34,1.06,2.0
1758089350.01591,1758089340.06163,0.0,0.0,0.0,8.42248,-28.76248,-4.1253,11.23,-2.34,1.06,2.0
1758089350.01925,1758089340.07163,0.0,0.0,0.0,8.42248,-30.02299,-1.71887,8.24,-0.68,-0.11,2.0
1758089350.03565,1758089340.08163,0.0,0.0,0.0,5.50039,-29.10626,-0.22918,7.78,0.33,0.57,2.0
1758089350.03843,1758089340.09163,0.0,0.0,0.0,0.34377,-29.50733,0.0573,7.78,0.33,0.57,2.0
1758089350.05387,1758089340.10163,0.0,0.0,0.0,-6.13065,-29.56462,-0.11459,7.77,0.96,1.9,2.0
1758089350.07192,1758089340.11163,0.0,0.0,0.0,-17.13144,-30.59595,-0.85944,7.77,0.96,1.9,2.0
1758089350.07229,1758089340.12163,0.0,0.0,0.0,-24.17882,-32.37212,-1.08862,7.87,1.22,2.89,2.0
1758089350.08835,1758089340.13163,0.0,0.0,0.0,-30.30947,-32.48671,-1.48969,7.87,1.22,2.89,2.0
1758089350.08904,1758089340.14163,0.0,0.0,0.0,-34.77854,-30.93972,-1.71887,8.58,0.99,2.69,2.0
1758089350.10415,1758089340.15163,0.0,0.0,0.0,-38.15899,-24.92367,-1.66158,10.45,0.12,2.04,2.0
1758089350.11164,1758089340.16163,0.0,0.0,0.0,-37.52874,-17.6471,-1.77617,10.45,0.12,2.04,2.0
1758089350.12881,1758089340.17163,0.0,0.0,0.0,-34.89313,-9.05273,-1.60428,12.17,-1.35,1.25,2.0
1758089350.13408,1758089340.18163,0.0,0.0,0.0,-27.78845,-0.40107,-1.48969,12.17,-1.35,1.25,2.0
1758089350.14913,1758089340.19163,0.0,0.0,0.0,-22.68913,13.00614,-1.14592,12.29,-2.52,0.48,2.0
1758089350.15329,1758089340.20163,0.0,0.0,0.0,-17.93358,20.97026,-1.20321,12.29,-2.52,0.48,2.0
1758089350.16894,1758089340.21163,0.0,0.0,0.0,-14.09476,29.73651,-0.80214,11.56,-2.62,0.33,2.0
1758089350.17399,1758089340.22163,0.0,0.0,0.0,-10.31324,39.87786,0.17189,11.56,-2.62,0.33,2.0
1758089350.18913,1758089340.23163,0.0,0.0,0.0,-9.68299,42.51347,0.51566,11.05,-1.97,0.57,2.0
1758089350.19324,1758089340.24163,0.0,0.0,0.0,-10.02676,44.00316,0.68755,10.59,-1.35,0.81,2.0
1758089350.20916,1758089340.25163,0.0,0.0,0.0,-11.11538,45.03448,0.80214,10.59,-1.35,0.81,2.0
1758089350.21353,1758089340.26163,0.0,0.0,0.0,-13.12073,44.8053,0.80214,10.69,-1.0,0.78,2.0
1758089350.22888,1758089340.27163,0.0,0.0,0.0,-14.09476,44.00316,0.68755,10.69,-1.0,0.78,2.0
1758089350.23397,1758089340.28163,0.0,0.0,0.0,-14.78231,43.14373,0.34377,10.31,-0.81,0.67,2.0
1758089350.24912,1758089340.29163,0.0,0.0,0.0,-14.78231,43.4875,0.0,10.31,-0.81,0.67,2.0
1758089350.2541,1758089340.30163,0.0,0.0,0.0,-13.46451,45.14908,-0.34377,9.82,-0.78,0.51,2.0
1758089350.26884,1758089340.31163,0.0,0.0,0.0,-11.91752,45.60744,-0.51566,9.14,-0.89,0.56,2.0
1758089350.27328,1758089340.32163,0.0,0.0,0.0,-10.59972,44.57612,-0.85944,9.14,-0.89,0.56,2.0
1758089350.28913,1758089340.33163,0.0,0.0,0.0,-9.05273,42.57077,-1.14592,8.32,-1.02,0.53,2.0
1758089350.2942,1758089340.34163,0.0,0.0,0.0,-7.73493,37.81522,-2.06265,8.32,-1.02,0.53,2.0
1758089350.30915,1758089340.35163,0.0,0.0,0.0,-6.7609,34.72124,-2.29183,7.97,-1.04,0.46,2.0
1758089350.31813,1758089340.36163,0.0,0.0,0.0,-6.18794,31.16891,-2.7502,7.97,-1.04,0.46,2.0
1758089350.3214,1758089340.37163,0.0,0.0,0.0,-5.72958,27.38738,-2.92208,8.1,-1.06,0.41,2.0
1758089350.33969,1758089340.38163,0.0,0.0,0.0,-4.58366,21.31403,-2.86479,8.49,-1.09,0.51,2.0
1758089350.36872,1758089340.39163,0.0,0.0,0.0,-3.66693,18.33465,-2.46372,8.49,-1.09,0.51,2.0
1758089350.46367,1758089340.40163,0.0,0.0,0.0,-2.63561,16.84496,-2.06265,9.21,-1.14,0.46,2.0
1758089350.46457,1758089340.41163,0.0,0.0,0.0,-1.48969,21.14215,-2.06265,9.21,-1.14,0.46,2.0
1758089350.46947,1758089340.42163,0.0,0.0,0.0,-1.48969,26.98631,-2.86479,10.01,-1.12,0.37,2.0
1758089350.4791,1758089340.43163,0.0,0.0,0.0,-1.60428,32.25753,-4.0107,10.01,-1.12,0.37,2.0
1758089350.48146,1758089340.44163,0.0,0.0,0.0,-1.71887,36.89849,-5.09932,10.21,-0.89,0.7,2.0
1758089350.48299,1758089340.45163,0.0,0.0,0.0,-1.94806,41.25296,-6.41713,10.21,-0.89,0.7,2.0
1758089350.48406,1758089340.46163,0.0,0.0,0.0,-2.00535,40.10705,-7.50575,10.02,-0.65,0.7,2.0
1758089350.48484,1758089340.47163,0.0,0.0,0.0,-1.83346,33.9764,-8.136,9.23,-0.6,0.59,2.0
1758089350.4867,1758089340.48163,0.0,0.0,0.0,-0.85944,25.09555,-8.36518,9.23,-0.6,0.59,2.0
1758089350.48892,1758089340.49163,0.0,0.0,0.0,2.6929,10.48513,-6.87549,8.86,-0.98,0.14,2.0
1758089350.49336,1758089340.50163,0.0,0.0,0.0,6.35983,0.68755,-5.4431,8.86,-0.98,0.14,2.0
1758089350.4942,1758089340.51163,0.0,0.0,0.0,10.94349,-7.50575,-3.60963,8.85,-1.75,-0.37,2.0
1758089350.49522,1758089340.52163,0.0,0.0,0.0,15.98552,-15.12609,-1.71887,8.85,-1.75,-0.37,2.0
1758089350.49826,1758089340.53163,0.0,0.0,0.0,23.0902,-25.26744,0.17189,8.74,-2.48,-0.43,2.0
1758089350.49948,1758089340.54163,0.0,0.0,0.0,25.72581,-32.83048,0.74485,8.76,-2.52,-0.54,2.0
1758089350.50012,1758089340.55163,0.0,0.0,0.0,26.52795,-43.02913,0.51566,8.76,-2.52,-0.54,2.0
1758089350.51906,1758089340.56163,0.0,0.0,0.0,25.72581,-47.61279,0.34377,8.99,-2.04,-0.12,2.0
1758089350.61355,1758089340.57163,0.0,0.0,0.0,24.00693,-43.14373,-2.40642,8.99,-2.04,-0.12,2.0
1758089350.61395,1758089340.58163,0.0,0.0,0.0,24.23611,-32.42941,-2.86479,10.41,-1.48,-0.12,2.0
1758089350.61826,1758089340.59163,0.0,0.0,0.0,24.92367,-22.23076,-2.86479,10.41,-1.48,-0.12,2.0
1758089350.61887,1758089340.60163,0.0,0.0,0.0,25.09555,-12.77696,-4.18259,10.59,-1.24,0.95,2.0
1758089350.62408,1758089340.61163,0.0,0.0,0.0,24.80907,-4.87014,-5.21392,9.35,-1.19,1.16,2.0
1758089350.63346,1758089340.62163,0.0,0.0,0.0,25.61122,-5.32851,-7.21927,9.35,-1.19,1.16,2.0
1758089350.63876,1758089340.63163,0.0,0.0,0.0,28.87707,-9.22462,-8.99544,8.05,-1.27,0.36,2.0
1758089350.64141,1758089340.64163,0.0,0.0,0.0,34.09099,-48.24305,-8.136,8.05,-1.27,0.36,2.0
1758089350.64188,1758089340.65163,0.0,0.0,0.0,37.98711,-66.29122,-3.66693,6.99,-1.22,0.21,2.0
1758089350.64356,1758089340.66163,0.0,0.0,0.0,40.16434,-75.51585,3.38045,6.99,-1.22,0.21,2.0
1758089350.64433,1758089340.67163,0.0,0.0,0.0,41.02378,-84.51128,11.00079,12.08,-1.07,2.34,2.0
1758089350.64713,1758089340.68163,0.0,0.0,0.0,37.24226,-85.6572,21.02755,17.15,0.6,4.07,2.0
1758089350.64778,1758089340.69163,0.0,0.0,0.0,29.22085,-77.4639,23.20479,17.15,0.6,4.07,2.0
1758089350.64892,1758089340.70163,0.0,0.0,0.0,19.59516,-69.95815,21.25674,18.35,2.49,3.2,2.0
1758089350.67372,1758089340.71163,0.0,0.0,0.0,9.96947,-66.92148,14.66772,18.35,2.49,3.2,2.0
1758089350.69944,1758089340.72163,0.0,0.0,0.0,0.74485,-62.62429,2.40642,12.37,1.91,1.38,2.0
1758089350.70435,1758089340.73163,0.0,0.0,0.0,-1.20321,-51.90998,-5.55769,12.37,1.91,1.38,2.0
1758089350.80874,1758089340.74163,0.0,0.0,0.0,0.11459,-36.49741,-12.43318,9.41,0.89,0.95,2.0
1758089350.8092,1758089340.75163,0.0,0.0,0.0,5.21392,-24.12152,-16.90226,9.41,0.89,0.95,2.0
1758089350.92839,1758089340.76163,0.0,0.0,0.0,15.69904,-10.02676,-17.81899,8.01,0.48,1.86,2.0
1758089350.94858,1758089340.77163,0.0,0.0,0.0,22.86102,1.94806,-14.66772,8.03,0.18,1.78,2.0
1758089350.94893,1758089340.78163,0.0,0.0,0.0,28.87707,14.49583,-12.37589,8.03,0.18,1.78,2.0
1758089350.9581,1758089340.79163,0.0,0.0,0.0,33.68992,25.8404,-6.47442,9.78,0.14,1.29,2.0
1758089350.95891,1758089340.80163,0.0,0.0,0.0,35.92446,42.68536,-3.26586,9.78,0.14,1.29,2.0
1758089350.96734,1758089340.81163,0.0,0.0,0.0,34.89313,50.59217,-1.3178,11.53,0.97,1.05,2.0
1758089350.96906,1758089340.82163,0.0,0.0,0.0,33.00237,54.71747,0.11459,11.53,0.97,1.05,2.0
1758089350.97166,1758089340.83163,0.0,0.0,0.0,29.8511,55.6915,1.03132,11.89,1.75,0.67,2.0
1758089350.97294,1758089340.84163,0.0,0.0,0.0,28.24682,55.57691,1.14592,11.2,1.53,0.79,2.0
1758089350.97753,1758089340.85163,0.0,0.0,0.0,27.1582,55.23313,0.57296,11.2,1.53,0.79,2.0
1758089350.98344,1758089340.86163,0.0,0.0,0.0,26.01229,54.48829,-0.11459,10.3,0.95,0.79,2.0
1758089350.98543,1758089340.87163,0.0,0.0,0.0,24.12152,52.76942,-1.43239,10.3,0.95,0.79,2.0
1758089351.10526,1758089340.88163,0.0,0.0,0.0,22.97561,53.28508,-1.83346,9.71,0.82,1.05,2.0
1758089351.1073,1758089340.89163,0.0,0.0,0.0,21.7724,51.22243,-2.40642,9.71,0.82,1.05,2.0
1758089351.10872,1758089340.90163,0.0,0.0,0.0,19.88164,47.49821,-2.63561,9.3,0.86,1.25,2.0
1758089351.11396,1758089340.91163,0.0,0.0,0.0,16.84496,42.85724,-3.20856,8.81,1.09,1.06,2.0
1758089351.11776,1758089340.92163,0.0,0.0,0.0,15.12609,40.16434,-3.26586,8.81,1.09,1.06,2.0
1758089351.11929,1758089340.93163,0.0,0.0,0.0,14.09476,36.03905,-3.03668,8.34,1.25,0.86,2.0
1758089351.12281,1758089340.94163,0.0,0.0,0.0,13.75099,29.50733,-2.00535,8.34,1.25,0.86,2.0
1758089351.12362,1758089340.95163,0.0,0.0,0.0,14.66772,15.0115,1.14592,7.51,1.12,0.84,2.0
1758089351.12548,1758089340.96163,0.0,0.0,0.0,15.75634,4.81285,3.72423,7.51,1.12,0.84,2.0
1758089351.12706,1758089340.97163,0.0,0.0,0.0,17.18874,-4.18259,5.95876,7.22,0.83,0.69,2.0
1758089351.12927,1758089340.98163,0.0,0.0,0.0,18.44924,-11.63104,7.39116,7.22,0.83,0.69,2.0
1758089351.13395,1758089340.99163,0.0,0.0,0.0,18.90761,-16.38659,7.10468,7.97,0.76,0.81,2.0
1758089351.13559,1758089341.00163,0.0,0.0,0.0,18.27736,-12.54778,5.84417,9.42,0.97,1.03,2.0
1758089351.13941,1758089341.01163,0.0,0.0,0.0,17.36062,-3.89611,4.58366,9.42,0.97,1.03,2.0
1758089351.14149,1758089341.02163,0.0,0.0,0.0,15.92823,9.5684,3.26586,10.72,0.96,1.08,2.0
1758089351.14286,1758089341.03163,0.0,0.0,0.0,15.06879,17.24603,3.20856,10.72,0.96,1.08,2.0
1758089351.14412,1758089341.04163,0.0,0.0,0.0,14.43854,23.20479,3.20856,10.76,0.6,0.97,2.0
1758089351.1487,1758089341.05163,0.0,0.0,0.0,14.20935,26.06958,3.95341,10.76,0.6,0.97,2.0
1758089351.1515,1758089341.06163,0.0,0.0,0.0,14.32395,27.73116,5.4431,10.23,0.28,0.26,2.0
1758089351.15371,1758089341.07163,0.0,0.0,0.0,14.32395,28.99167,6.99009,10.08,0.32,-0.02,2.0
1758089351.15452,1758089341.08163,0.0,0.0,0.0,14.20935,28.59059,8.76626,10.08,0.32,-0.02,2.0
1758089351.15813,1758089341.09163,0.0,0.0,0.0,13.80828,26.69983,10.8289,9.92,0.64,0.0,2.0
1758089351.15953,1758089341.10163,0.0,0.0,0.0,12.60507,19.36597,14.03747,9.92,0.64,0.0,2.0
1758089351.16064,1758089341.11163,0.0,0.0,0.0,11.45916,11.11538,14.9542,9.49,1.08,0.33,2.0
1758089351.16305,1758089341.12163,0.0,0.0,0.0,9.91217,0.45837,14.61043,9.49,1.08,0.33,2.0
1758089351.17286,1758089341.13163,0.0,0.0,0.0,8.25059,-10.65701,13.5218,8.89,1.5,0.07,2.0
1758089351.17349,1758089341.14163,0.0,0.0,0.0,4.69825,-24.98096,11.11538,8.85,1.9,-0.17,2.0
1758089351.17876,1758089341.15163,0.0,0.0,0.0,1.94806,-32.14294,8.93814,8.85,1.9,-0.17,2.0
1758089351.18333,1758089341.16163,0.0,0.0,0.0,-1.03132,-37.58603,6.47442,9.31,2.08,-0.01,2.0
1758089351.20395,1758089341.17163,0.0,0.0,0.0,-4.23989,-40.7373,3.95341,9.31,2.08,-0.01,2.0
1758089351.20702,1758089341.18163,0.0,0.0,0.0,-8.30789,-44.748,0.11459,9.78,1.99,-0.09,2.0
1758089351.20815,1758089341.19163,0.0,0.0,0.0,-9.85487,-45.89392,-1.94806,9.78,1.99,-0.09,2.0
1758089351.20878,1758089341.20163,0.0,0.0,0.0,-8.70896,-39.53409,-0.85944,9.99,1.57,-0.38,2.0
1758089351.21402,1758089341.21163,0.0,0.0,0.0,-7.10468,-30.65324,0.45837,9.99,1.57,-0.38,2.0
1758089351.21465,1758089341.22163,0.0,0.0,0.0,-4.98473,-29.50733,5.95876,10.45,0.91,-0.35,2.0
1758089351.21742,1758089341.23163,0.0,0.0,0.0,-7.84952,-43.54479,3.26586,8.48,0.75,-0.16,2.0
1758089351.22373,1758089341.24163,0.0,0.0,0.0,-9.96947,-41.08107,6.53172,8.48,0.75,-0.16,2.0
1758089351.22445,1758089341.25163,0.0,0.0,0.0,-19.19409,-5.90147,4.23989,11.65,1.61,-1.14,2.0
1758089351.22635,1758089341.26163,0.0,0.0,0.0,-26.75713,3.03668,5.27121,11.65,1.61,-1.14,2.0
1758089351.2279,1758089341.27163,0.0,0.0,0.0,-34.60666,7.44845,4.87014,11.09,2.22,-0.17,2.0
1758089351.22906,1758089341.28163,0.0,0.0,0.0,-37.64333,16.90226,8.02141,11.09,2.22,-0.17,2.0
1758089351.24913,1758089341.29163,0.0,0.0,0.0,-41.42485,11.28727,10.71431,11.49,2.69,1.86,2.0
1758089351.25727,1758089341.30163,0.0,0.0,0.0,-42.05511,-3.38045,11.22997,10.82,2.19,3.18,2.0
1758089351.25953,1758089341.31163,0.0,0.0,0.0,-41.31026,-20.16812,10.02676,10.82,2.19,3.18,2.0
1758089351.28403,1758089341.32163,0.0,0.0,0.0,-38.90384,-38.56006,5.78687,11.99,0.88,3.21,2.0
1758089351.28663,1758089341.33163,0.0,0.0,0.0,-34.37747,-46.1231,-3.09397,11.99,0.88,3.21,2.0
1758089351.28718,1758089341.34163,0.0,0.0,0.0,-28.41871,-46.40959,-7.44845,14.77,-1.03,1.95,2.0
1758089351.3091,1758089341.35163,0.0,0.0,0.0,-22.40265,-50.13381,-10.25595,14.77,-1.03,1.95,2.0
1758089351.31425,1758089341.36163,0.0,0.0,0.0,-17.76169,-51.73809,-11.74564,12.75,-2.28,0.94,2.0
1758089351.32909,1758089341.37163,0.0,0.0,0.0,-13.80828,-46.46688,-9.39651,9.78,-1.17,-0.03,2.0
1758089351.33341,1758089341.38163,0.0,0.0,0.0,-13.75099,-40.85189,-6.7609,9.78,-1.17,-0.03,2.0
1758089351.34909,1758089341.39163,0.0,0.0,0.0,-16.50119,-39.53409,-3.95341,7.47,0.06,0.28,2.0
1758089351.49379,1758089341.40163,0.0,0.0,0.0,-21.14215,-33.23156,-0.80214,7.47,0.06,0.28,2.0
1758089351.69843,1758089341.41163,0.0,0.0,0.0,-28.93437,-29.10626,0.57296,6.92,0.58,1.95,2.0
1758089351.72902,1758089341.42163,0.0,0.0,0.0,-34.09099,-31.62727,0.85944,6.92,0.58,1.95,2.0
1758089351.8236,1758089341.43163,0.0,0.0,0.0,-37.64333,-21.37133,-0.0573,7.08,0.68,2.49,2.0
1758089351.83387,1758089341.44163,0.0,0.0,0.0,-39.53409,-13.80828,0.85944,7.08,0.68,2.49,2.0
1758089351.83426,1758089341.45163,0.0,0.0,0.0,-38.61736,-9.68299,0.68755,9.61,-0.52,2.32,2.0
1758089351.83822,1758089341.46163,0.0,0.0,0.0,-35.98175,-2.92208,0.22918,11.53,-1.73,1.52,2.0
1758089351.84162,1758089341.47163,0.0,0.0,0.0,-31.79916,3.49504,-0.11459,11.53,-1.73,1.52,2.0
1758089351.84241,1758089341.48163,0.0,0.0,0.0,-22.51724,10.54242,-0.34377,12.21,-2.51,0.84,2.0
1758089351.84698,1758089341.49163,0.0,0.0,0.0,-15.75634,15.98552,-0.11459,12.21,-2.51,0.84,2.0
1758089351.85345,1758089341.50163,0.0,0.0,0.0,-9.96947,22.86102,0.17189,11.39,-2.56,0.61,2.0
1758089351.85416,1758089341.51163,0.0,0.0,0.0,-5.50039,26.87172,0.74485,11.39,-2.56,0.61,2.0
1758089351.85569,1758089341.52163,0.0,0.0,0.0,-1.48969,27.10091,1.60428,10.43,-2.09,0.61,2.0
1758089351.85839,1758089341.53163,0.0,0.0,0.0,-0.51566,26.24147,2.29183,9.88,-1.59,0.86,2.0
1758089351.85904,1758089341.54163,0.0,0.0,0.0,-0.68755,25.43933,2.7502,9.88,-1.59,0.86,2.0
1758089351.86193,1758089341.55163,0.0,0.0,0.0,-1.20321,22.97561,3.49504,9.69,-1.24,0.82,2.0
1758089351.8641,1758089341.56163,0.0,0.0,0.0,-2.00535,19.07949,4.35448,9.69,-1.24,0.82,2.0
1758089351.89398,1758089341.57163,0.0,0.0,0.0,-2.06265,16.61578,4.81285,9.23,-1.05,0.79,2.0
1758089351.89847,1758089341.58163,0.0,0.0,0.0,-1.43239,15.75634,4.92744,9.23,-1.05,0.79,2.0
1758089351.90326,1758089341.59163,0.0,0.0,0.0,-0.40107,17.24603,4.92744,9.21,-0.99,0.63,2.0
1758089351.90538,1758089341.60163,0.0,0.0,0.0,2.06265,19.88164,4.29718,9.34,-1.01,0.62,2.0
1758089351.90581,1758089341.61163,0.0,0.0,0.0,3.89611,20.85567,3.49504,9.34,-1.01,0.62,2.0
1758089351.91415,1758089341.62163,0.0,0.0,0.0,5.61499,21.02755,2.40642,9.21,-0.97,0.5,2.0
1758089351.9393,1758089341.63163,0.0,0.0,0.0,7.50575,21.14215,0.85944,9.21,-0.97,0.5,2.0
1758089351.96462,1758089341.64163,0.0,0.0,0.0,8.36518,20.45459,-0.17189,9.35,-0.86,0.34,2.0
1758089351.96547,1758089341.65163,0.0,0.0,0.0,8.76626,18.85031,-0.97403,9.35,-0.86,0.34,2.0
1758089351.96894,1758089341.66163,0.0,0.0,0.0,9.05273,16.67307,-1.48969,9.4,-0.74,0.21,2.0
1758089352.03399,1758089341.67163,0.0,0.0,0.0,9.22462,12.71966,-1.66158,9.4,-0.74,0.21,2.0
1758089352.06082,1758089341.68163,0.0,0.0,0.0,9.5684,9.74028,-1.14592,9.54,-0.69,0.16,2.0
1758089352.13656,1758089341.69163,0.0,0.0,0.0,9.85487,6.47442,-0.68755,9.7,-0.76,0.13,2.0
1758089352.14414,1758089341.70163,0.0,0.0,0.0,10.08406,3.72423,-0.11459,9.7,-0.76,0.13,2.0
1758089352.14868,1758089341.71163,0.0,0.0,0.0,10.65701,1.43239,0.17189,9.88,-0.87,0.12,2.0
1758089352.15394,1758089341.72163,0.0,0.0,0.0,10.8862,2.7502,0.0,9.88,-0.87,0.12,2.0
1758089352.15856,1758089341.73163,0.0,0.0,0.0,10.54242,5.21392,-0.68755,10.21,-0.81,0.18,2.0
1758089352.16635,1758089341.74163,0.0,0.0,0.0,10.19865,8.30789,-1.60428,10.21,-0.81,0.18,2.0
1758089352.29879,1758089341.75163,0.0,0.0,0.0,9.4538,14.03747,-3.49504,10.22,-0.66,0.44,2.0
1758089352.30009,1758089341.76163,0.0,0.0,0.0,9.62569,18.79302,-4.69825,10.25,-0.6,0.64,2.0
1758089352.30432,1758089341.77163,0.0,0.0,0.0,10.71431,23.72045,-5.27121,10.25,-0.6,0.64,2.0
1758089352.30831,1758089341.78163,0.0,0.0,0.0,12.83425,24.80907,-5.15662,10.0,-0.74,0.75,2.0
1758089352.31817,1758089341.79163,0.0,0.0,0.0,17.58981,21.42862,-4.18259,10.0,-0.74,0.75,2.0
1758089352.31942,1758089341.80163,0.0,0.0,0.0,21.6578,18.33465,-2.86479,9.37,-1.07,0.45,2.0
1758089352.37315,1758089341.81163,0.0,0.0,0.0,26.64254,15.98552,-1.43239,9.37,-1.07,0.45,2.0
1758089352.37388,1758089341.82163,0.0,0.0,0.0,31.51268,12.49048,0.80214,9.24,-1.5,0.05,2.0
1758089352.37818,1758089341.83163,0.0,0.0,0.0,39.4195,4.69825,1.77617,8.69,-1.91,-0.34,2.0
1758089352.37877,1758089341.84163,0.0,0.0,0.0,43.4875,-3.49504,2.29183,8.69,-1.91,-0.34,2.0
1758089352.38083,1758089341.85163,0.0,0.0,0.0,45.89392,-15.58445,2.86479,8.09,-2.05,-0.81,2.0
1758089352.38225,1758089341.86163,0.0,0.0,0.0,46.00851,-23.94964,1.77617,8.09,-2.05,-0.81,2.0
1758089352.38508,1758089341.87163,0.0,0.0,0.0,45.89392,-18.62113,-0.22918,9.17,-1.8,-1.03,2.0
1758089352.38569,1758089341.88163,0.0,0.0,0.0,45.77933,-7.44845,-0.34377,9.17,-1.8,-1.03,2.0
1758089352.38854,1758089341.89163,0.0,0.0,0.0,45.55015,3.38045,-0.68755,11.08,-1.44,-0.59,2.0
1758089352.3892,1758089341.90163,0.0,0.0,0.0,43.83128,15.92823,-1.77617,10.9,-1.44,1.02,2.0
1758089352.39408,1758089341.91163,0.0,0.0,0.0,41.25296,19.70975,-3.32316,10.9,-1.08,1.02,2.0
1758089352.3977,1758089341.92163,0.0,0.0,0.0,40.85189,13.34992,-5.4431,9.64,-0.63,0.87,2.0
1758089352.39897,1758089341.93163,0.0,0.0,0.0,39.07573,-16.3293,-6.8182,9.64,-0.63,0.87,2.0
1758089352.40003,1758089341.94163,0.0,0.0,0.0,47.09713,-52.9986,2.97938,6.93,-0.85,-0.76,2.0
1758089352.40082,1758089341.95163,0.0,0.0,0.0,47.32632,-44.86259,6.47442,6.93,-0.85,-0.76,2.0
1758089352.40507,1758089341.96163,0.0,0.0,0.0,48.01387,-32.71589,7.96411,11.61,-1.45,-1.8,2.0
1758089352.40925,1758089341.97163,0.0,0.0,0.0,48.30034,-25.49662,9.39651,11.61,-1.45,-1.8,2.0
1758089352.41416,1758089341.98163,0.0,0.0,0.0,45.43555,-23.20479,8.47978,10.7,-1.42,-0.52,2.0
1758089352.41556,1758089341.99163,0.0,0.0,0.0,40.62271,-23.49127,7.50575,10.67,-0.79,2.82,2.0
1758089352.42411,1758089342.00163,0.0,0.0,0.0,34.43476,-27.67386,5.78687,10.67,-0.79,2.82,2.0
1758089352.42653,1758089342.01163,0.0,0.0,0.0,28.70519,-32.54401,5.78687,11.98,0.16,3.42,2.0
1758089352.47869,1758089342.02163,0.0,0.0,0.0,19.76705,-28.70519,6.99009,11.98,0.16,3.42,2.0
1758089352.47904,1758089342.03163,0.0,0.0,0.0,13.23533,-22.51724,8.02141,15.14,1.7,2.31,2.0
1758089352.48343,1758089342.04163,0.0,0.0,0.0,6.8182,-19.13679,7.96411,15.14,1.7,2.31,2.0
1758089352.48405,1758089342.05163,0.0,0.0,0.0,-0.45837,-16.38659,4.1253,15.45,2.65,1.12,2.0
1758089352.48478,1758089342.06163,0.0,0.0,0.0,-2.57831,-15.12609,-0.68755,12.45,1.35,0.43,2.0
1758089352.49231,1758089342.07163,0.0,0.0,0.0,-2.11994,-13.34992,-4.87014,12.45,1.35,0.43,2.0
1758089352.49382,1758089342.08163,0.0,0.0,0.0,0.45837,-10.48513,-8.65166,9.92,0.02,0.44,2.0
1758089352.49891,1758089342.09163,0.0,0.0,0.0,8.30789,-4.69825,-11.28727,9.92,0.02,0.44,2.0
1758089352.50363,1758089342.10163,0.0,0.0,0.0,15.64175,-1.14592,-11.80293,8.68,-0.6,1.19,2.0
1758089352.50864,1758089342.11163,0.0,0.0,0.0,24.00693,2.11994,-11.22997,8.68,-0.6,1.19,2.0
1758089352.51362,1758089342.12163,0.0,0.0,0.0,32.25753,5.95876,-9.62569,7.66,-0.88,1.63,2.0
1758089352.51847,1758089342.13163,0.0,0.0,0.0,43.02913,12.204,-6.7609,7.14,-0.72,1.79,2.0
1758089352.52066,1758089342.14163,0.0,0.0,0.0,48.01387,16.95955,-3.66693,7.14,-0.72,1.79,2.0
1758089352.59866,1758089342.15163,0.0,0.0,0.0,51.45161,21.60051,-0.0573,7.96,-0.22,1.71,2.0
1758089352.60379,1758089342.16163,0.0,0.0,0.0,51.45161,25.8404,3.03668,7.96,-0.22,1.71,2.0
1758089352.63373,1758089342.17163,0.0,0.0,0.0,48.8733,32.37212,5.50039,9.63,0.8,1.45,2.0
1758089352.63428,1758089342.18163,0.0,0.0,0.0,44.9199,37.98711,6.7609,9.63,0.8,1.45,2.0
1758089352.64347,1758089342.19163,0.0,0.0,0.0,39.4195,43.02913,5.21392,11.59,1.68,1.05,2.0
1758089352.6441,1758089342.20163,0.0,0.0,0.0,34.14828,46.46688,4.29718,11.59,1.68,1.05,2.0
1758089352.64837,1758089342.21163,0.0,0.0,0.0,26.06958,47.03984,2.00535,11.52,2.28,0.62,2.0
1758089352.64914,1758089342.22163,0.0,0.0,0.0,22.23076,44.9199,-0.68755,10.5,2.71,0.78,2.0
1758089352.65403,1758089342.23163,0.0,0.0,0.0,19.76705,46.00851,-1.66158,10.5,2.71,0.78,2.0
1758089352.72383,1758089342.24163,0.0,0.0,0.0,17.24603,44.46153,-2.97938,10.41,1.97,1.65,2.0
1758089352.72826,1758089342.25163,0.0,0.0,0.0,16.90226,36.89849,-3.89611,10.41,1.97,1.65,2.0
1758089352.93458,1758089342.26163,0.0,0.0,0.0,17.24603,34.66395,-3.60963,9.6,1.37,1.35,2.0
1758089352.93938,1758089342.27163,0.0,0.0,0.0,17.93358,29.8511,-3.20856,9.6,1.37,1.35,2.0
1758089352.94566,1758089342.28163,0.0,0.0,0.0,19.25138,19.13679,-2.34913,9.24,1.02,1.59,2.0
1758089352.95342,1758089342.29163,0.0,0.0,0.0,19.07949,14.72501,-2.40642,8.64,0.95,1.13,2.0
1758089352.95575,1758089342.30163,0.0,0.0,0.0,18.9649,11.22997,-2.29183,8.64,0.95,1.13,2.0
1758089352.95845,1758089342.31163,0.0,0.0,0.0,17.99088,8.76626,-2.6929,8.55,1.08,1.07,2.0
1758089352.96129,1758089342.32163,0.0,0.0,0.0,16.3293,5.09932,-3.38045,8.55,1.08,1.07,2.0
1758089352.96273,1758089342.33163,0.0,0.0,0.0,15.12609,2.23454,-3.60963,8.39,1.24,0.84,2.0
1758089352.96419,1758089342.34163,0.0,0.0,0.0,13.86558,-1.3178,-3.38045,8.39,1.24,0.84,2.0
1758089352.96457,1758089342.35163,0.0,0.0,0.0,13.12073,-3.83882,-2.46372,8.45,1.22,0.63,2.0
1758089352.96933,1758089342.36163,0.0,0.0,0.0,11.97482,-5.27121,-0.85944,9.02,1.0,0.43,2.0
1758089352.97442,1758089342.37163,0.0,0.0,0.0,11.63104,-5.32851,0.22918,9.02,1.0,0.43,2.0
1758089352.97516,1758089342.38163,0.0,0.0,0.0,11.11538,-4.23989,1.20321,9.69,0.73,0.45,2.0
1758089352.98052,1758089342.39163,0.0,0.0,0.0,10.59972,-2.11994,2.34913,9.69,0.73,0.45,2.0
1758089352.98461,1758089342.40163,0.0,0.0,0.0,9.28192,2.00535,3.89611,10.19,0.57,0.57,2.0
1758089353.01859,1758089342.41163,0.0,0.0,0.0,7.73493,6.8182,5.15662,10.19,0.57,0.57,2.0
1758089353.02022,1758089342.42163,0.0,0.0,0.0,6.41713,11.51645,6.24524,10.4,0.57,0.57,2.0
1758089353.02372,1758089342.43163,0.0,0.0,0.0,4.98473,16.3293,8.02141,10.4,0.57,0.57,2.0
1758089353.02514,1758089342.44163,0.0,0.0,0.0,2.97938,24.35071,8.70896,10.2,0.77,0.61,2.0
1758089353.02875,1758089342.45163,0.0,0.0,0.0,1.77617,29.22085,9.28192,10.11,1.06,0.69,2.0
1758089353.03344,1758089342.46163,0.0,0.0,0.0,0.34377,32.88778,9.5684,10.11,1.06,0.69,2.0
1758089353.03463,1758089342.47163,0.0,0.0,0.0,-1.48969,31.11161,9.5684,9.81,1.34,0.76,2.0
1758089353.03844,1758089342.48163,0.0,0.0,0.0,-3.03668,25.72581,9.91217,9.81,1.34,0.76,2.0
1758089353.03965,1758089342.49163,0.0,0.0,0.0,-5.4431,20.05352,10.02676,9.39,1.5,0.61,2.0
1758089353.04028,1758089342.50163,0.0,0.0,0.0,-8.25059,14.83961,10.02676,9.39,1.5,0.61,2.0
1758089353.04108,1758089342.51163,0.0,0.0,0.0,-14.15206,4.18259,9.5684,9.69,1.65,0.46,2.0
1758089353.04618,1758089342.52163,0.0,0.0,0.0,-18.79302,-1.03132,8.88085,9.69,1.92,0.23,2.0
1758089353.04675,1758089342.53163,0.0,0.0,0.0,-23.83505,-5.09932,7.67763,9.69,1.92,0.23,2.0
1758089353.04874,1758089342.54163,0.0,0.0,0.0,-28.76248,-10.08406,6.35983,9.64,2.08,0.31,2.0
1758089353.05441,1758089342.55163,0.0,0.0,0.0,-34.66395,-17.53251,4.18259,9.64,2.08,0.31,2.0
1758089353.10024,1758089342.56163,0.0,0.0,0.0,-36.15364,-26.64254,2.7502,9.21,1.89,0.0,2.0
1758089353.10388,1758089342.57163,0.0,0.0,0.0,-35.40879,-35.75257,2.06265,9.21,1.89,0.0,2.0
1758089353.10609,1758089342.58163,0.0,0.0,0.0,-33.23156,-37.75792,2.23454,8.95,1.42,-0.48,2.0
1758089353.10751,1758089342.59163,0.0,0.0,0.0,-29.39274,-33.9764,3.20856,9.95,0.98,-0.32,2.0
1758089353.11307,1758089342.60163,0.0,0.0,0.0,-27.78845,-30.76784,5.15662,9.95,0.98,-0.32,2.0
1758089353.11347,1758089342.61163,0.0,0.0,0.0,-27.61657,-40.62271,4.46907,9.16,0.95,0.25,2.0
1758089353.11541,1758089342.62163,0.0,0.0,0.0,-29.10626,-52.25375,4.23989,9.16,0.95,0.25,2.0
1758089353.11867,1758089342.63163,0.0,0.0,0.0,-30.99702,-39.13302,2.40642,9.47,1.28,-0.2,2.0
1758089353.11967,1758089342.64163,0.0,0.0,0.0,-35.2942,-24.12152,-0.22918,9.47,1.28,-0.2,2.0
1758089353.12029,1758089342.65163,0.0,0.0,0.0,-38.84654,-18.56383,-0.11459,11.09,1.69,-0.88,2.0
1758089353.12185,1758089342.66163,0.0,0.0,0.0,-44.28964,-14.38124,0.45837,11.09,1.69,-0.88,2.0
1758089353.12455,1758089342.67163,0.0,0.0,0.0,-45.26366,2.40642,4.0107,10.48,1.99,0.27,2.0
1758089353.12953,1758089342.68163,0.0,0.0,0.0,-45.60744,3.83882,7.73493,10.78,1.48,0.77,2.0
1758089353.13285,1758089342.69163,0.0,0.0,0.0,-44.51882,-2.6929,11.74564,10.78,1.48,0.77,2.0
1758089353.13364,1758089342.70163,0.0,0.0,0.0,-41.99781,-20.3973,14.66772,9.97,0.77,1.47,2.0
1758089353.13468,1758089342.71163,0.0,0.0,0.0,-40.62271,-31.45539,13.17803,9.97,0.77,1.47,2.0
1758089353.13627,1758089342.72163,0.0,0.0,0.0,-36.89849,-35.3515,10.65701,11.95,-0.01,2.05,2.0
1758089353.14057,1758089342.73163,0.0,0.0,0.0,-30.76784,-38.15899,6.07335,11.95,-0.01,2.05,2.0
1758089353.14116,1758089342.74163,0.0,0.0,0.0,-16.55848,-40.27893,-0.80214,15.02,-1.97,2.48,2.0
1758089353.14402,1758089342.75163,0.0,0.0,0.0,-7.16197,-43.54479,-5.15662,14.7,-3.95,2.5,2.0
1758089353.14462,1758089342.76163,0.0,0.0,0.0,0.17189,-42.85724,-6.99009,14.7,-3.95,2.5,2.0
1758089353.15377,1758089342.77163,0.0,0.0,0.0,4.87014,-40.68,-6.13065,11.67,-2.58,0.45,2.0
1758089353.15521,1758089342.78163,0.0,0.0,0.0,7.44845,-38.56006,-2.6929,11.67,-2.58,0.45,2.0
1758089353.15883,1758089342.79163,0.0,0.0,0.0,5.15662,-35.69527,-0.80214,8.83,-0.62,0.01,2.0
1758089353.15947,1758089342.80163,0.0,0.0,0.0,1.14592,-30.53865,0.74485,8.83,-0.62,0.01,2.0
1758089353.16181,1758089342.81163,0.0,0.0,0.0,-4.29718,-27.33009,1.83346,8.25,0.38,1.6,2.0
1758089353.16367,1758089342.82163,0.0,0.0,0.0,-14.03747,-27.10091,2.23454,7.65,0.52,2.74,2.0
1758089353.19417,1758089342.83163,0.0,0.0,0.0,-21.14215,-26.75713,1.77617,7.65,0.52,2.74,2.0
1758089353.2192,1758089342.84163,0.0,0.0,0.0,-27.1582,-23.94964,1.08862,8.32,0.41,2.33,2.0
1758089353.21962,1758089342.85163,0.0,0.0,0.0,-31.45539,-20.74107,0.34377,8.32,0.41,2.33,2.0
1758089353.22399,1758089342.86163,0.0,0.0,0.0,-33.80451,-15.41257,-0.17189,9.6,-0.18,1.76,2.0
1758089353.22553,1758089342.87163,0.0,0.0,0.0,-32.54401,-10.8862,-0.51566,9.6,-0.18,1.76,2.0
1758089353.22744,1758089342.88163,0.0,0.0,0.0,-29.67921,-5.72958,-0.57296,10.72,-1.26,1.42,2.0
1758089353.22912,1758089342.89163,0.0,0.0,0.0,-22.68913,1.71887,-0.57296,10.72,-1.26,1.42,2.0
1758089353.2381,1758089342.90163,0.0,0.0,0.0,-17.47521,6.7609,-0.45837,10.92,-2.26,0.83,2.0
1758089353.23866,1758089342.91163,0.0,0.0,0.0,-12.54778,12.60507,-0.40107,10.47,-2.58,0.29,2.0
1758089353.24461,1758089342.92163,0.0,0.0,0.0,-8.42248,18.56383,-0.0573,10.47,-2.58,0.29,2.0
1758089353.24886,1758089342.93163,0.0,0.0,0.0,-4.52637,25.8404,0.68755,10.16,-2.25,0.36,2.0
1758089353.25294,1758089342.94163,0.0,0.0,0.0,-3.49504,29.39274,1.14592,10.16,-2.25,0.36,2.0
1758089353.25354,1758089342.95163,0.0,0.0,0.0,-3.32316,31.11161,1.43239,9.99,-1.75,0.64,2.0
1758089353.25478,1758089342.96163,0.0,0.0,0.0,-3.60963,30.53865,1.66158,9.99,-1.75,0.64,2.0
1758089353.26341,1758089342.97163,0.0,0.0,0.0,-4.64096,26.47065,1.77617,9.7,-1.38,0.68,2.0
1758089353.26418,1758089342.98163,0.0,0.0,0.0,-4.87014,24.75178,1.66158,9.56,-1.19,0.38,2.0
1758089353.2695,1758089342.99163,0.0,0.0,0.0,-5.15662,25.26744,1.20321,9.56,-1.19,0.38,2.0
1758089353.27409,1758089343.00163,0.0,0.0,0.0,-5.09932,26.98631,0.85944,9.67,-1.12,0.25,2.0
1758089353.27906,1758089343.01163,0.0,0.0,0.0,-4.46907,28.13223,0.0573,9.67,-1.12,0.25,2.0
1758089353.27978,1758089343.02163,0.0,0.0,0.0,-3.60963,28.24682,-0.34377,9.21,-1.08,0.42,2.0
1758089353.28433,1758089343.03163,0.0,0.0,0.0,-3.03668,26.81443,-1.08862,9.21,-1.08,0.42,2.0
1758089353.28576,1758089343.04163,0.0,0.0,0.0,-2.63561,25.43933,-1.83346,8.84,-1.02,0.48,2.0
1758089353.28779,1758089343.05163,0.0,0.0,0.0,-2.23454,22.91831,-2.34913,8.95,-0.98,0.34,2.0
1758089353.28816,1758089343.06163,0.0,0.0,0.0,-1.71887,20.34,-2.40642,8.95,-0.98,0.34,2.0
1758089353.29342,1758089343.07163,0.0,0.0,0.0,-1.60428,18.27736,-2.40642,9.17,-1.03,0.3,2.0
1758089353.29567,1758089343.08163,0.0,0.0,0.0,-1.20321,15.46986,-1.94806,9.17,-1.03,0.3,2.0
1758089353.29843,1758089343.09163,0.0,0.0,0.0,-0.97403,13.46451,-1.66158,9.46,-1.13,0.28,2.0
1758089353.29908,1758089343.10163,0.0,0.0,0.0,-0.57296,11.45916,-1.3178,9.46,-1.13,0.28,2.0
1758089353.30145,1758089343.11163,0.0,0.0,0.0,-0.22918,9.33921,-0.80214,9.65,-1.19,0.26,2.0
1758089353.30424,1758089343.12163,0.0,0.0,0.0,0.40107,7.50575,-0.22918,9.65,-1.19,0.26,2.0
1758089353.30731,1758089343.13163,0.0,0.0,0.0,0.51566,8.76626,-0.57296,9.86,-1.19,0.18,2.0
1758089353.30918,1758089343.14163,0.0,0.0,0.0,0.85944,11.17268,-1.08862,10.16,-1.12,0.25,2.0
1758089353.31589,1758089343.15163,0.0,0.0,0.0,1.03132,14.9542,-2.00535,10.16,-1.12,0.25,2.0
1758089353.31818,1758089343.16163,0.0,0.0,0.0,1.60428,21.7151,-3.89611,10.25,-1.0,0.49,2.0
1758089353.31897,1758089343.17163,0.0,0.0,0.0,2.40642,27.50197,-5.32851,10.25,-1.0,0.49,2.0
1758089353.32005,1758089343.18163,0.0,0.0,0.0,4.18259,30.53865,-6.53172,10.32,-0.98,0.67,2.0
1758089353.32229,1758089343.19163,0.0,0.0,0.0,6.58902,29.22085,-6.58902,10.32,-0.98,0.67,2.0
1758089353.32514,1758089343.20163,0.0,0.0,0.0,11.57375,23.89234,-5.95876,9.61,-1.17,0.74,2.0
1758089353.42537,1758089343.21163,0.0,0.0,0.0,15.75634,19.88164,-4.64096,9.28,-1.64,0.33,2.0
1758089353.42823,1758089343.22163,0.0,0.0,0.0,20.3973,14.38124,-2.57831,9.28,-1.64,0.33,2.0
1758089353.42881,1758089343.23163,0.0,0.0,0.0,24.98096,7.96411,-0.40107,8.72,-2.22,-0.13,2.0
1758089353.48859,1758089343.24163,0.0,0.0,0.0,31.97105,-0.57296,1.71887,8.72,-2.22,-0.13,2.0
1758089353.48912,1758089343.25163,0.0,0.0,0.0,35.63798,-9.28192,2.92208,8.57,-2.53,-0.58,2.0
1758089353.49402,1758089343.26163,0.0,0.0,0.0,36.95578,-18.56383,2.46372,8.57,-2.53,-0.58,2.0
1758089353.49926,1758089343.27163,0.0,0.0,0.0,36.15364,-22.63183,0.85944,8.71,-2.28,-0.54,2.0
1758089353.49968,1758089343.28163,0.0,0.0,0.0,36.95578,-14.83961,0.40107,10.2,-1.74,-0.4,2.0
1758089353.50399,1758089343.29163,0.0,0.0,0.0,37.52874,-4.58366,-0.34377,10.2,-1.74,-0.4,2.0
1758089353.50477,1758089343.30163,0.0,0.0,0.0,37.24226,6.41713,-1.14592,10.97,-1.32,0.8,2.0
1758089353.50911,1758089343.31163,0.0,0.0,0.0,35.86716,18.9649,-3.60963,10.97,-1.32,0.8,2.0
1758089353.5134,1758089343.32163,0.0,0.0,0.0,37.52874,16.272,-4.0107,10.19,-0.92,1.15,2.0
1758089353.51445,1758089343.33163,0.0,0.0,0.0,34.09099,-3.49504,-9.74028,10.19,-0.92,1.15,2.0
1758089353.51791,1758089343.34163,0.0,0.0,0.0,38.90384,-29.56462,-7.44845,7.49,-0.78,-0.4,2.0
1758089353.5239,1758089343.35163,0.0,0.0,0.0,46.00851,-34.95043,-1.20321,9.88,-0.78,-1.86,2.0
1758089353.52452,1758089343.36163,0.0,0.0,0.0,48.24305,-22.11617,-0.57296,9.88,-1.57,-1.86,2.0
1758089353.52819,1758089343.37163,0.0,0.0,0.0,49.61814,-12.60507,-1.14592,11.19,-1.62,-1.81,2.0
1758089353.53284,1758089343.38163,0.0,0.0,0.0,49.50356,-10.08406,-2.46372,11.19,-1.62,-1.81,2.0
1758089353.53961,1758089343.39163,0.0,0.0,0.0,45.77933,-6.18794,-5.21392,10.07,-1.41,0.96,2.0
1758089353.56734,1758089343.40163,0.0,0.0,0.0,41.42485,-5.95876,-6.7609,10.07,-1.41,0.96,2.0
1758089353.74872,1758089343.41163,0.0,0.0,0.0,36.38282,-12.60507,-6.70361,11.13,-0.55,2.09,2.0
1758089353.75366,1758089343.42163,0.0,0.0,0.0,31.16891,-28.99167,-4.23989,11.13,-0.55,2.09,2.0
1758089353.75906,1758089343.43163,0.0,0.0,0.0,23.26209,-40.68,5.55769,11.45,0.45,2.35,2.0
1758089353.76355,1758089343.44163,0.0,0.0,0.0,15.87093,-36.32552,10.37054,15.45,1.52,2.07,2.0
1758089353.76424,1758089343.45163,0.0,0.0,0.0,8.02141,-35.12231,12.08941,15.45,1.52,2.07,2.0
1758089353.77892,1758089343.46163,0.0,0.0,0.0,2.40642,-37.75792,8.136,14.07,1.9,1.83,2.0
1758089353.78042,1758089343.47163,0.0,0.0,0.0,0.0573,-38.56006,2.86479,14.07,1.9,1.83,2.0
1758089353.78708,1758089343.48163,0.0,0.0,0.0,2.29183,-33.86181,-2.97938,10.76,0.62,1.52,2.0
1758089353.78768,1758089343.49163,0.0,0.0,0.0,7.10468,-26.18417,-8.59437,10.76,0.62,1.52,2.0
1758089353.78892,1758089343.50163,0.0,0.0,0.0,17.58981,-14.9542,-14.49583,9.01,-0.09,1.33,2.0
1758089353.7927,1758089343.51163,0.0,0.0,0.0,25.49662,-8.70896,-15.87093,7.83,-0.27,2.13,2.0
1758089353.79907,1758089343.52163,0.0,0.0,0.0,32.77319,-2.06265,-14.49583,7.83,-0.27,2.13,2.0
1758089353.8002,1758089343.53163,0.0,0.0,0.0,38.90384,5.78687,-11.11538,8.43,-0.18,2.11,2.0
1758089353.80461,1758089343.54163,0.0,0.0,0.0,43.02913,15.75634,-3.55234,8.43,-0.18,2.11,2.0
1758089353.80952,1758089343.55163,0.0,0.0,0.0,42.28429,23.54857,-0.11459,10.3,0.54,2.11,2.0
1758089353.81414,1758089343.56163,0.0,0.0,0.0,40.16434,29.10626,3.26586,10.3,0.54,2.11,2.0
1758089353.81831,1758089343.57163,0.0,0.0,0.0,36.32552,33.63263,4.46907,12.08,1.33,1.95,2.0
1758089353.81949,1758089343.58163,0.0,0.0,0.0,29.9084,40.16434,2.86479,11.75,1.63,1.51,2.0
1758089353.82413,1758089343.59163,0.0,0.0,0.0,25.49662,42.39888,0.51566,11.75,1.63,1.51,2.0
1758089353.83414,1758089343.60163,0.0,0.0,0.0,21.48592,42.28429,-2.34913,10.23,1.51,1.48,2.0
1758089353.8391,1758089343.61163,0.0,0.0,0.0,18.33465,40.39353,-4.35448,10.23,1.51,1.48,2.0
1758089353.84472,1758089343.62163,0.0,0.0,0.0,14.9542,40.50812,-6.70361,9.49,1.55,1.44,2.0
1758089353.90409,1758089343.63163,0.0,0.0,0.0,13.46451,39.82057,-6.87549,9.49,1.55,1.44,2.0
1758089353.90528,1758089343.64163,0.0,0.0,0.0,12.43318,37.24226,-6.41713,9.28,1.41,1.56,2.0
1758089353.90851,1758089343.65163,0.0,0.0,0.0,11.86023,35.2369,-5.32851,9.28,1.41,1.56,2.0
1758089353.90885,1758089343.66163,0.0,0.0,0.0,11.22997,31.97105,-3.49504,9.01,1.26,1.48,2.0
1758089353.91234,1758089343.67163,0.0,0.0,0.0,10.94349,28.41871,-2.00535,8.75,1.06,1.37,2.0
1758089353.91298,1758089343.68163,0.0,0.0,0.0,10.71431,23.31938,-0.68755,8.75,1.06,1.37,2.0
1758089353.91424,1758089343.69163,0.0,0.0,0.0,10.25595,18.22006,0.34377,8.5,0.88,1.12,2.0
1758089353.91564,1758089343.70163,0.0,0.0,0.0,9.68299,10.71431,0.22918,8.5,0.88,1.12,2.0
1758089353.9192,1758089343.71163,0.0,0.0,0.0,9.39651,5.32851,0.11459,8.45,0.75,0.95,2.0
1758089353.92224,1758089343.72163,0.0,0.0,0.0,8.99544,-0.40107,-0.17189,8.45,0.75,0.95,2.0
1758089353.92431,1758089343.73163,0.0,0.0,0.0,8.47978,-7.16197,-0.17189,8.28,0.69,0.66,2.0
1758089353.92491,1758089343.74163,0.0,0.0,0.0,8.65166,-11.34457,0.40107,8.55,0.65,0.74,2.0
1758089353.92572,1758089343.75163,0.0,0.0,0.0,8.76626,-15.46986,1.14592,8.55,0.65,0.74,2.0
1758089353.92758,1758089343.76163,0.0,0.0,0.0,8.99544,-18.79302,2.23454,8.83,0.58,0.81,2.0
1758089353.92919,1758089343.77163,0.0,0.0,0.0,8.70896,-19.19409,4.18259,8.83,0.58,0.81,2.0
1758089353.93343,1758089343.78163,0.0,0.0,0.0,8.47978,-15.35527,5.90147,9.55,0.61,0.88,2.0
1758089353.93444,1758089343.79163,0.0,0.0,0.0,8.42248,-10.02676,7.62034,9.55,0.61,0.88,2.0
1758089353.93687,1758089343.80163,0.0,0.0,0.0,8.25059,-3.09397,8.88085,10.15,0.67,1.14,2.0
1758089353.93859,1758089343.81163,0.0,0.0,0.0,7.04738,9.68299,10.19865,10.46,0.74,1.4,2.0
1758089353.93977,1758089343.82163,0.0,0.0,0.0,5.84417,18.33465,10.8862,10.46,0.74,1.4,2.0
1758089353.94179,1758089343.83163,0.0,0.0,0.0,4.69825,26.06958,10.94349,10.17,0.86,1.25,2.0
1758089353.94461,1758089343.84163,0.0,0.0,0.0,3.09397,31.79916,9.74028,10.17,0.86,1.25,2.0
1758089353.94683,1758089343.85163,0.0,0.0,0.0,0.68755,30.19488,8.25059,9.42,1.12,0.98,2.0
1758089353.94762,1758089343.86163,0.0,0.0,0.0,-0.57296,26.47065,7.44845,9.42,1.12,0.98,2.0
1758089353.9487,1758089343.87163,0.0,0.0,0.0,-2.00535,23.89234,7.50575,8.98,1.21,0.37,2.0
1758089353.95187,1758089343.88163,0.0,0.0,0.0,-3.55234,21.14215,7.84952,8.98,1.21,0.37,2.0
1758089353.9588,1758089343.89163,0.0,0.0,0.0,-6.07335,14.43854,8.36518,9.1,1.18,0.08,2.0
1758089353.95924,1758089343.90163,0.0,0.0,0.0,-7.96411,5.61499,9.22462,8.88,1.19,-0.03,2.0
1758089353.96357,1758089343.91163,0.0,0.0,0.0,-10.8289,-1.60428,10.08406,8.88,1.19,-0.03,2.0
1758089353.96471,1758089343.92163,0.0,0.0,0.0,-16.10011,-13.46451,10.8289,9.08,1.35,-0.09,2.0
1758089353.97341,1758089343.93163,0.0,0.0,0.0,-19.88164,-19.53786,10.48513,9.08,1.35,-0.09,2.0
1758089353.97405,1758089343.94163,0.0,0.0,0.0,-23.94964,-25.43933,9.22462,9.54,1.59,-0.41,2.0
1758089353.9785,1758089343.95163,0.0,0.0,0.0,-27.61657,-29.22085,7.73493,9.54,1.59,-0.41,2.0
1758089353.97907,1758089343.96163,0.0,0.0,0.0,-32.25753,-28.64789,4.46907,9.94,1.9,-0.5,2.0
1758089353.98347,1758089343.97163,0.0,0.0,0.0,-34.77854,-29.56462,2.63561,10.31,2.03,-0.19,2.0
1758089353.98412,1758089343.98163,0.0,0.0,0.0,-35.98175,-34.0337,1.43239,10.31,2.03,-0.19,2.0
1758089353.9885,1758089343.99163,0.0,0.0,0.0,-36.49741,-35.75257,1.71887,10.01,1.85,-0.76,2.0
1758089353.98917,1758089344.00163,0.0,0.0,0.0,-36.7266,-30.59595,3.32316,10.01,1.85,-0.76,2.0
1758089353.99395,1758089344.01163,0.0,0.0,0.0,-36.38282,-26.87172,5.84417,10.78,1.44,-0.61,2.0
1758089353.99773,1758089344.02163,0.0,0.0,0.0,-36.38282,-23.0902,6.87549,10.78,1.44,-0.61,2.0
1758089353.99824,1758089344.03163,0.0,0.0,0.0,-35.58068,-19.70975,7.84952,11.1,1.24,0.03,2.0
1758089353.99927,1758089344.04163,0.0,0.0,0.0,-34.32018,-12.14671,7.79223,12.75,0.83,1.86,2.0
1758089353.99989,1758089344.05163,0.0,0.0,0.0,-27.84575,-21.60051,10.8862,12.75,0.83,1.86,2.0
1758089354.01565,1758089344.06163,0.0,0.0,0.0,-31.56997,-50.2484,1.3178,12.01,0.06,3.79,2.0
1758089354.02076,1758089344.07163,0.0,0.0,0.0,-30.65324,-70.76029,-5.84417,12.01,0.06,3.79,2.0
1758089354.03582,1758089344.08163,0.0,0.0,0.0,-29.67921,-69.38519,-21.60051,15.01,-1.02,2.42,2.0
1758089354.0384,1758089344.09163,0.0,0.0,0.0,-25.26744,-58.78547,-24.12152,15.01,-1.02,2.42,2.0
1758089354.05467,1758089344.10163,0.0,0.0,0.0,-19.25138,-50.47758,-22.34536,14.84,-2.12,0.23,2.0
1758089354.07307,1758089344.11163,0.0,0.0,0.0,-9.22462,-39.01843,-14.09476,14.84,-2.12,0.23,2.0
1758089354.0746,1758089344.12163,0.0,0.0,0.0,-3.38045,-34.89313,-7.04738,10.27,-1.55,0.29,2.0
1758089354.09305,1758089344.13163,0.0,0.0,0.0,0.34377,-33.00237,-0.11459,7.06,-0.74,0.54,2.0
1758089354.09405,1758089344.14163,0.0,0.0,0.0,0.80214,-30.13758,4.64096,7.06,-0.74,0.54,2.0
1758089354.11305,1758089344.15163,0.0,0.0,0.0,-4.64096,-25.72581,7.79223,6.93,-0.16,1.31,2.0
1758089354.11402,1758089344.16163,0.0,0.0,0.0,-12.2613,-21.7151,4.35448,6.93,-0.16,1.31,2.0
1758089354.13303,1758089344.17163,0.0,0.0,0.0,-17.81899,-16.55848,3.32316,8.22,0.34,2.79,2.0
1758089354.13406,1758089344.18163,0.0,0.0,0.0,-25.09555,-12.49048,-0.68755,8.22,0.34,2.79,2.0
1758089354.15284,1758089344.19163,0.0,0.0,0.0,-31.56997,-9.11003,-1.77617,9.76,0.23,2.96,2.0
1758089354.15919,1758089344.20163,0.0,0.0,0.0,-34.32018,-7.04738,-2.92208,10.48,-0.4,1.69,2.0
1758089354.15957,1758089344.21163,0.0,0.0,0.0,-35.3515,-1.3178,-3.55234,10.48,-0.4,1.69,2.0
1758089354.17909,1758089344.22163,0.0,0.0,0.0,-33.51803,7.04738,-3.09397,11.4,-1.41,0.89,2.0
1758089354.18425,1758089344.23163,0.0,0.0,0.0,-27.33009,17.18874,-1.43239,11.4,-1.41,0.89,2.0
1758089354.193,1758089344.24163,0.0,0.0,0.0,-21.94428,23.31938,-0.0573,10.6,-2.36,0.47,2.0
1758089354.20865,1758089344.25163,0.0,0.0,0.0,-16.55848,28.41871,1.20321,10.6,-2.36,0.47,2.0
1758089354.21389,1758089344.26163,0.0,0.0,0.0,-12.14671,32.08564,2.23454,10.07,-2.64,0.44,2.0
1758089354.22881,1758089344.27163,0.0,0.0,0.0,-7.73493,35.98175,1.94806,10.12,-2.29,0.68,2.0
1758089354.23243,1758089344.28163,0.0,0.0,0.0,-6.18794,38.1017,1.08862,10.12,-2.29,0.68,2.0
1758089354.24754,1758089344.29163,0.0,0.0,0.0,-5.84417,37.24226,0.0,10.36,-1.67,1.03,2.0
1758089354.2488,1758089344.30163,0.0,0.0,0.0,-6.8182,35.69527,-2.92208,10.36,-1.67,1.03,2.0
1758089354.26385,1758089344.31163,0.0,0.0,0.0,-7.21927,39.07573,-3.20856,10.85,-1.06,1.18,2.0
1758089354.26915,1758089344.32163,0.0,0.0,0.0,-7.67763,37.18496,-3.38045,10.85,-1.06,1.18,2.0
1758089354.28796,1758089344.33163,0.0,0.0,0.0,-8.47978,35.00772,-4.0107,10.29,-0.82,1.01,2.0
1758089354.29394,1758089344.34163,0.0,0.0,0.0,-9.05273,33.34615,-4.29718,10.29,-0.82,1.01,2.0
1758089354.30895,1758089344.35163,0.0,0.0,0.0,-8.42248,30.53865,-4.18259,9.9,-0.73,1.05,2.0
1758089354.31233,1758089344.36163,0.0,0.0,0.0,-7.10468,27.10091,-3.95341,9.12,-0.97,0.63,2.0
1758089354.3277,1758089344.37163,0.0,0.0,0.0,-5.78687,23.0329,-3.60963,9.12,-0.97,0.63,2.0
1758089354.33342,1758089344.38163,0.0,0.0,0.0,-3.89611,17.36062,-3.55234,8.74,-1.25,0.63,2.0
1758089354.34772,1758089344.39163,0.0,0.0,0.0,-2.97938,13.12073,-3.95341,8.74,-1.25,0.63,2.0
1758089354.35288,1758089344.40163,0.0,0.0,0.0,-2.11994,8.30789,-3.83882,8.62,-1.39,0.56,2.0
1758089354.36768,1758089344.41163,0.0,0.0,0.0,-1.66158,3.55234,-3.66693,8.62,-1.39,0.56,2.0
1758089354.37289,1758089344.42163,0.0,0.0,0.0,-0.74485,-2.34913,-3.32316,8.61,-1.36,0.57,2.0
1758089354.38764,1758089344.43163,0.0,0.0,0.0,0.0,-5.09932,-2.7502,8.81,-1.29,0.57,2.0
1758089354.39296,1758089344.44163,0.0,0.0,0.0,1.08862,-6.8182,-2.29183,8.81,-1.29,0.57,2.0
1758089354.40768,1758089344.45163,0.0,0.0,0.0,2.40642,-7.84952,-1.83346,9.02,-1.29,0.56,2.0
1758089354.40884,1758089344.46163,0.0,0.0,0.0,4.98473,-4.87014,-1.60428,9.02,-1.29,0.56,2.0
1758089354.42383,1758089344.47163,0.0,0.0,0.0,6.70361,-0.11459,-1.77617,9.45,-1.32,0.45,2.0
1758089354.43968,1758089344.48163,0.0,0.0,0.0,8.136,5.90147,-2.63561,9.45,-1.32,0.45,2.0
1758089354.44407,1758089344.49163,0.0,0.0,0.0,10.02676,12.60507,-4.1253,9.8,-1.25,0.57,2.0
1758089354.45375,1758089344.50163,0.0,0.0,0.0,12.54778,21.7151,-5.21392,9.85,-1.14,0.59,2.0
1758089354.47306,1758089344.51163,0.0,0.0,0.0,13.86558,27.84575,-6.24524,9.85,-1.14,0.59,2.0
1758089354.4781,1758089344.52163,0.0,0.0,0.0,15.12609,33.11696,-7.10468,9.82,-1.0,0.45,2.0
1758089354.48349,1758089344.53163,0.0,0.0,0.0,17.13144,37.52874,-7.62034,9.82,-1.0,0.45,2.0
1758089354.49419,1758089344.54163,0.0,0.0,0.0,18.50654,36.15364,-7.50575,9.55,-1.0,0.39,2.0
1758089354.50347,1758089344.55163,0.0,0.0,0.0,20.05352,30.99702,-6.70361,9.55,-1.0,0.39,2.0
1758089354.51376,1758089344.56163,0.0,0.0,0.0,22.11617,23.49127,-5.84417,9.08,-1.14,0.21,2.0
1758089354.53285,1758089344.57163,0.0,0.0,0.0,26.47065,12.54778,-3.95341,9.08,-1.14,-0.17,2.0
1758089354.53406,1758089344.58163,0.0,0.0,0.0,30.13758,4.92744,-2.46372,9.28,-1.53,-0.17,2.0
1758089354.55289,1758089344.59163,0.0,0.0,0.0,34.43476,-2.57831,-1.20321,9.37,-2.01,-0.39,2.0
1758089354.55407,1758089344.60163,0.0,0.0,0.0,38.78925,-9.05273,0.0573,9.37,-2.01,-0.39,2.0
1758089354.57366,1758089344.61163,0.0,0.0,0.0,43.94586,-18.16276,2.23454,9.48,-2.25,-0.38,2.0
1758089354.5979,1758089344.62163,0.0,0.0,0.0,47.15443,-22.28806,2.97938,9.48,-2.25,-0.38,2.0
1758089354.59908,1758089344.63163,0.0,0.0,0.0,48.75871,-27.44468,4.52637,9.64,-2.08,-0.51,2.0
1758089354.60347,1758089344.64163,0.0,0.0,0.0,48.70141,-33.34615,4.58366,9.64,-2.08,-0.51,2.0
1758089354.60404,1758089344.65163,0.0,0.0,0.0,47.03984,-36.32552,4.64096,9.61,-1.72,-0.16,2.0
1758089354.61407,1758089344.66163,0.0,0.0,0.0,46.75336,-29.27814,3.55234,10.47,-1.34,-0.5,2.0
1758089354.65398,1758089344.67163,0.0,0.0,0.0,46.63877,-14.78231,2.86479,10.47,-1.34,-0.5,2.0
1758089354.66111,1758089344.68163,0.0,0.0,0.0,45.89392,1.08862,1.14592,11.65,-1.19,0.21,2.0
1758089354.66837,1758089344.69163,0.0,0.0,0.0,45.26366,12.49048,-2.46372,11.65,-1.19,0.21,2.0
1758089354.67425,1758089344.70163,0.0,0.0,0.0,46.63877,10.19865,-5.61499,10.03,-1.01,0.54,2.0
1758089354.67556,1758089344.71163,0.0,0.0,0.0,47.89928,5.90147,-11.45916,10.03,-1.01,0.54,2.0
1758089354.67843,1758089344.72163,0.0,0.0,0.0,52.71212,-23.94964,-9.28192,7.84,-1.02,-0.48,2.0
1758089354.67908,1758089344.73163,0.0,0.0,0.0,56.66553,-41.13837,-4.58366,8.76,-1.36,-1.56,2.0
1758089354.69876,1758089344.74163,0.0,0.0,0.0,56.89471,-38.56006,-0.74485,8.76,-1.36,-1.56,2.0
1758089354.70073,1758089344.75163,0.0,0.0,0.0,57.41038,-48.30034,3.83882,11.24,-1.05,0.02,2.0
1758089354.74886,1758089344.76163,0.0,0.0,0.0,56.49364,-76.83365,14.66772,11.24,-1.05,0.02,2.0
1758089354.8493,1758089344.77163,0.0,0.0,0.0,52.19646,-81.30271,21.08485,12.18,-0.44,2.94,2.0
1758089354.85394,1758089344.78163,0.0,0.0,0.0,44.00316,-75.17207,25.09555,12.18,-0.44,2.94,2.0
1758089354.85624,1758089344.79163,0.0,0.0,0.0,33.23156,-72.65105,25.49662,17.04,1.7,4.14,2.0
1758089354.8566,1758089344.80163,0.0,0.0,0.0,17.53251,-72.76565,18.85031,14.35,3.47,2.19,2.0
1758089354.86062,1758089344.81163,0.0,0.0,0.0,9.39651,-68.92683,10.71431,14.35,3.47,2.19,2.0
1758089354.86163,1758089344.82163,0.0,0.0,0.0,4.64096,-62.05133,2.63561,10.64,2.73,1.24,2.0
1758089354.86239,1758089344.83163,0.0,0.0,0.0,4.0107,-49.84733,-5.4431,10.64,2.73,1.24,2.0
1758089354.86749,1758089344.84163,0.0,0.0,0.0,9.62569,-30.99702,-13.98017,8.71,1.75,1.34,2.0
1758089354.86945,1758089344.85163,0.0,0.0,0.0,16.21471,-22.91831,-16.3293,8.71,1.75,1.34,2.0
1758089354.87409,1758089344.86163,0.0,0.0,0.0,23.54857,-14.15206,-15.69904,8.36,1.07,2.44,2.0
1758089354.87609,1758089344.87163,0.0,0.0,0.0,29.67921,-2.46372,-13.5218,8.36,1.07,2.44,2.0
1758089354.8792,1758089344.88163,0.0,0.0,0.0,35.00772,18.27736,-7.04738,10.34,0.5,1.82,2.0
1758089354.88416,1758089344.89163,0.0,0.0,0.0,36.21093,29.33544,-4.92744,11.89,0.43,1.04,2.0
1758089354.88902,1758089344.90163,0.0,0.0,0.0,36.55471,39.82057,-1.08862,11.89,0.43,1.04,2.0
1758089354.89361,1758089344.91163,0.0,0.0,0.0,34.09099,49.79003,-0.17189,12.09,0.76,0.65,2.0
1758089354.89713,1758089344.92163,0.0,0.0,0.0,29.73651,55.57691,-0.40107,12.09,0.76,0.65,2.0
1758089354.90446,1758089344.93163,0.0,0.0,0.0,26.81443,55.86338,-0.80214,10.54,1.14,0.44,2.0
1758089354.9335,1758089344.94163,0.0,0.0,0.0,24.5226,54.60288,-0.97403,10.54,1.14,0.44,2.0
1758089354.93414,1758089344.95163,0.0,0.0,0.0,21.7151,54.08722,-1.71887,9.5,1.22,0.37,2.0
1758089354.96322,1758089344.96163,0.0,0.0,0.0,20.05352,53.11319,-2.11994,9.13,1.27,0.61,2.0
1758089354.9636,1758089344.97163,0.0,0.0,0.0,18.44924,51.73809,-2.11994,9.13,1.27,0.61,2.0
1758089354.96428,1758089344.98163,0.0,0.0,0.0,16.61578,50.53488,-2.29183,8.91,1.29,0.88,2.0
1758089354.97414,1758089344.99163,0.0,0.0,0.0,13.98017,47.89928,-1.77617,8.91,1.29,0.88,2.0
1758089354.97933,1758089345.00163,0.0,0.0,0.0,12.14671,42.91454,-1.3178,8.78,1.24,1.01,2.0
1758089354.9841,1758089345.01163,0.0,0.0,0.0,10.02676,37.24226,-1.20321,8.78,1.24,1.01,2.0
1758089354.98474,1758089345.02163,0.0,0.0,0.0,7.73493,33.17426,-1.48969,8.49,1.2,0.93,2.0
1758089355.04422,1758089345.03163,0.0,0.0,0.0,4.81285,28.99167,-2.40642,8.66,1.24,0.61,2.0
1758089355.05212,1758089345.04163,0.0,0.0,0.0,3.03668,25.21014,-3.03668,8.66,1.24,0.61,2.0
1758089355.0563,1758089345.05163,0.0,0.0,0.0,2.11994,19.53786,-2.97938,8.26,1.23,0.51,2.0
1758089355.05852,1758089345.06163,0.0,0.0,0.0,1.77617,13.17803,-2.11994,8.26,1.23,0.51,2.0
1758089355.06056,1758089345.07163,0.0,0.0,0.0,2.86479,2.6929,0.0,8.25,1.03,0.4,2.0
1758089355.06272,1758089345.08163,0.0,0.0,0.0,4.23989,-4.64096,1.94806,8.25,1.03,0.4,2.0
1758089355.06399,1758089345.09163,0.0,0.0,0.0,5.55769,-10.31324,3.26586,8.73,0.76,0.3,2.0
1758089355.06457,1758089345.10163,0.0,0.0,0.0,7.04738,-14.38124,4.35448,8.73,0.76,0.3,2.0
1758089355.0756,1758089345.11163,0.0,0.0,0.0,7.79223,-11.63104,5.32851,9.61,0.64,0.35,2.0
1758089355.07844,1758089345.12163,0.0,0.0,0.0,8.25059,-6.58902,5.84417,10.42,0.61,0.51,2.0
1758089355.0797,1758089345.13163,0.0,0.0,0.0,8.0787,-0.22918,5.90147,10.42,0.61,0.51,2.0
1758089355.09865,1758089345.14163,0.0,0.0,0.0,6.87549,11.74564,6.18794,10.68,0.49,0.79,2.0
1758089355.10315,1758089345.15163,0.0,0.0,0.0,5.4431,19.99623,6.41713,10.68,0.49,0.79,2.0
1758089355.11784,1758089345.16163,0.0,0.0,0.0,3.72423,26.01229,6.35983,10.48,0.42,0.85,2.0
1758089355.11937,1758089345.17163,0.0,0.0,0.0,2.11994,27.2155,6.53172,10.48,0.42,0.85,2.0
1758089355.13387,1758089345.18163,0.0,0.0,0.0,-0.74485,24.00693,7.16197,9.5,0.59,0.4,2.0
1758089355.15254,1758089345.19163,0.0,0.0,0.0,-2.46372,22.23076,8.0787,9.37,0.81,0.12,2.0
1758089355.15508,1758089345.20163,0.0,0.0,0.0,-4.0107,19.99623,8.99544,9.37,0.81,0.12,2.0
1758089355.17151,1758089345.21163,0.0,0.0,0.0,-5.32851,13.5218,9.4538,9.24,1.06,-0.03,2.0
1758089355.17345,1758089345.22163,0.0,0.0,0.0,-7.84952,1.3178,9.28192,9.24,1.06,-0.03,2.0
1758089355.18886,1758089345.23163,0.0,0.0,0.0,-9.62569,-8.42248,8.93814,8.93,1.36,0.09,2.0
1758089355.19405,1758089345.24163,0.0,0.0,0.0,-11.57375,-17.58981,8.02141,8.93,1.36,0.09,2.0
1758089355.20885,1758089345.25163,0.0,0.0,0.0,-13.75099,-25.49662,6.7609,9.11,1.61,-0.2,2.0
1758089355.21404,1758089345.26163,0.0,0.0,0.0,-17.53251,-33.34615,4.1253,9.55,1.8,-0.07,2.0
1758089355.22896,1758089345.27163,0.0,0.0,0.0,-20.05352,-35.75257,1.94806,9.55,1.8,-0.07,2.0
1758089355.23406,1758089345.28163,0.0,0.0,0.0,-22.86102,-36.26823,-0.80214,10.0,1.76,0.09,2.0
1758089355.23871,1758089345.29163,0.0,0.0,0.0,-24.92367,-38.1017,-3.55234,10.0,1.76,0.09,2.0
1758089355.25906,1758089345.30163,0.0,0.0,0.0,-25.61122,-43.83128,-5.61499,9.68,1.48,-0.09,2.0
1758089355.26436,1758089345.31163,0.0,0.0,0.0,-25.55392,-39.07573,-5.61499,9.68,1.48,-0.09,2.0
1758089355.27917,1758089345.32163,0.0,0.0,0.0,-24.75178,-31.45539,-4.58366,10.49,0.89,-0.46,2.0
1758089355.28431,1758089345.33163,0.0,0.0,0.0,-23.83505,-24.29341,-1.20321,10.49,0.89,-0.46,2.0
1758089355.29375,1758089345.34163,0.0,0.0,0.0,-21.88699,-24.98096,3.66693,10.62,0.57,-0.01,2.0
1758089355.30892,1758089345.35163,0.0,0.0,0.0,-25.09555,-33.17426,3.26586,9.11,0.35,0.07,2.0
1758089355.31406,1758089345.36163,0.0,0.0,0.0,-26.64254,-26.18417,4.35448,9.11,0.35,0.07,2.0
1758089355.32886,1758089345.37163,0.0,0.0,0.0,-32.54401,-6.35983,3.32316,11.46,1.04,-1.22,2.0
1758089355.33412,1758089345.38163,0.0,0.0,0.0,-34.66395,0.51566,3.26586,11.46,1.04,-1.22,2.0
1758089355.35305,1758089345.39163,0.0,0.0,0.0,-36.84119,4.64096,3.55234,10.82,1.41,-0.1,2.0
1758089355.35593,1758089345.40163,0.0,0.0,0.0,-37.01308,11.45916,4.81285,10.82,1.41,-0.1,2.0
1758089355.37335,1758089345.41163,0.0,0.0,0.0,-35.75257,9.28192,6.41713,11.32,1.58,0.8,2.0
1758089355.38116,1758089345.42163,0.0,0.0,0.0,-34.49206,1.66158,6.7609,11.14,1.13,1.58,2.0
1758089355.38338,1758089345.43163,0.0,0.0,0.0,-31.51268,-8.65166,6.99009,11.14,1.13,1.58,2.0
1758089355.39918,1758089345.44163,0.0,0.0,0.0,-28.476,-21.25674,4.52637,11.85,0.47,1.72,2.0
1758089355.40356,1758089345.45163,0.0,0.0,0.0,-22.05888,-28.64789,-1.48969,11.85,0.47,1.72,2.0
1758089355.4192,1758089345.46163,0.0,0.0,0.0,-15.87093,-29.96569,-5.27121,13.83,-0.73,1.31,2.0
1758089355.4244,1758089345.47163,0.0,0.0,0.0,-9.33921,-33.05967,-7.73493,13.83,-0.73,1.31,2.0
1758089355.42892,1758089345.48163,0.0,0.0,0.0,-4.18259,-35.00772,-8.76626,12.82,-2.08,0.62,2.0
1758089355.44506,1758089345.49163,0.0,0.0,0.0,-0.34377,-31.39809,-6.99009,10.37,-1.48,-0.39,2.0
1758089355.46098,1758089345.50163,0.0,0.0,0.0,-0.57296,-28.64789,-4.81285,10.37,-1.48,-0.39,2.0
1758089355.4629,1758089345.51163,0.0,0.0,0.0,-2.34913,-26.06958,-2.46372,8.28,-0.38,-0.45,2.0
1758089355.47875,1758089345.52163,0.0,0.0,0.0,-5.84417,-24.12152,0.0573,8.28,-0.38,-0.45,2.0
1758089355.48007,1758089345.53163,0.0,0.0,0.0,-13.23533,-23.31938,0.97403,7.35,0.39,0.92,2.0
1758089355.49682,1758089345.54163,0.0,0.0,0.0,-18.44924,-22.63183,1.03132,7.35,0.39,0.92,2.0
1758089355.4993,1758089345.55163,0.0,0.0,0.0,-22.86102,-22.57454,0.97403,7.48,0.74,2.21,2.0
1758089355.51526,1758089345.56163,0.0,0.0,0.0,-27.67386,-22.28806,0.51566,7.48,0.74,2.21,2.0
1758089355.5338,1758089345.57163,0.0,0.0,0.0,-29.10626,-19.76705,0.0,8.49,0.39,2.74,2.0
1758089355.5361,1758089345.58163,0.0,0.0,0.0,-28.93437,-15.87093,-0.0573,10.51,-0.49,2.11,2.0
1758089355.58408,1758089345.59163,0.0,0.0,0.0,-27.1582,-11.11538,0.0,10.51,-0.49,2.11,2.0
1758089355.58917,1758089345.60163,0.0,0.0,0.0,-21.94428,-2.97938,0.22918,11.73,-1.64,1.04,2.0
1758089355.594,1758089345.61163,0.0,0.0,0.0,-17.47521,2.00535,0.51566,11.73,-1.64,1.04,2.0
1758089355.59826,1758089345.62163,0.0,0.0,0.0,-12.37589,6.99009,1.08862,11.57,-2.24,0.47,2.0
1758089355.5989,1758089345.63163,0.0,0.0,0.0,-7.73493,12.54778,1.71887,11.57,-2.24,0.47,2.0
1758089355.60011,1758089345.64163,0.0,0.0,0.0,-1.83346,20.85567,2.92208,11.01,-2.1,0.19,2.0
1758089355.60393,1758089345.65163,0.0,0.0,0.0,0.34377,25.26744,3.72423,10.55,-1.63,0.25,2.0
1758089355.62838,1758089345.66163,0.0,0.0,0.0,1.83346,28.476,4.46907,10.55,-1.63,0.25,2.0
1758089355.70341,1758089345.67163,0.0,0.0,0.0,2.46372,30.93972,5.15662,10.32,-1.3,0.42,2.0
1758089355.70404,1758089345.68163,0.0,0.0,0.0,2.57831,32.77319,4.98473,10.32,-1.3,0.42,2.0
1758089355.70848,1758089345.69163,0.0,0.0,0.0,2.6929,31.28349,4.69825,10.2,-1.13,0.52,2.0
1758089355.70912,1758089345.70163,0.0,0.0,0.0,2.7502,28.99167,4.23989,10.2,-1.13,0.52,2.0
1758089355.7176,1758089345.71163,0.0,0.0,0.0,3.09397,28.01764,3.49504,10.01,-1.04,0.48,2.0
1758089355.71812,1758089345.72163,0.0,0.0,0.0,4.35448,28.476,2.34913,10.08,-1.0,0.32,2.0
1758089355.71937,1758089345.73163,0.0,0.0,0.0,5.72958,27.96034,1.66158,10.08,-1.0,0.32,2.0
1758089355.72321,1758089345.74163,0.0,0.0,0.0,6.53172,26.52795,0.85944,9.49,-0.9,0.31,2.0
1758089355.72403,1758089345.75163,0.0,0.0,0.0,7.73493,26.18417,-0.17189,9.49,-0.9,0.31,2.0
