timeStamp,timeStampAlign,roll,pitch,yaw,gyro_x,gyro_y,gyro_z,acc_x,acc_y,acc_z,flag_num
1758078563.57417,1758078563.48431,0.0,0.0,0.0,20.85567,26.87172,-7.50575,9.98,-0.65,0.66,4.0
1758078563.57693,1758078563.49431,0.0,0.0,0.0,18.90761,28.13223,-8.0787,9.98,-0.65,0.66,4.0
1758078563.57993,1758078563.50431,0.0,0.0,0.0,16.90226,29.22085,-6.99009,9.77,-0.58,0.67,4.0
1758078563.58121,1758078563.51431,0.0,0.0,0.0,15.98552,27.84575,-5.27121,9.38,-0.43,0.72,4.0
1758078563.58183,1758078563.52431,0.0,0.0,0.0,15.69904,24.29341,-3.20856,9.38,-0.43,0.72,4.0
1758078563.58387,1758078563.53431,0.0,0.0,0.0,16.21471,19.07949,-0.80214,8.37,-0.52,0.67,4.0
1758078563.5862,1758078563.54431,0.0,0.0,0.0,17.58981,12.2613,2.34913,8.37,-0.52,0.67,4.0
1758078563.58687,1758078563.55431,0.0,0.0,0.0,18.62113,10.37054,3.55234,7.75,-0.87,0.56,4.0
1758078563.59432,1758078563.56431,0.0,0.0,0.0,19.48057,9.4538,4.1253,7.75,-0.87,0.56,4.0
1758078563.59509,1758078563.57431,0.0,0.0,0.0,20.34,7.33386,3.72423,7.63,-1.15,0.6,4.0
1758078563.59697,1758078563.58431,0.0,0.0,0.0,20.45459,5.90147,3.03668,7.56,-1.12,0.56,4.0
1758078563.61438,1758078563.59431,0.0,0.0,0.0,20.62648,5.21392,2.40642,7.56,-1.12,0.56,4.0
1758078563.63029,1758078563.60431,0.0,0.0,0.0,20.16812,3.72423,1.77617,8.03,-0.76,0.3,4.0
1758078563.63209,1758078563.61431,0.0,0.0,0.0,19.53786,2.7502,1.03132,8.03,-0.76,0.3,4.0
1758078563.64676,1758078563.62431,0.0,0.0,0.0,19.13679,2.97938,1.03132,8.62,-0.36,0.23,4.0
1758078563.64793,1758078563.63431,0.0,0.0,0.0,18.73572,3.03668,1.14592,8.62,-0.36,0.23,4.0
1758078563.66655,1758078563.64431,0.0,0.0,0.0,18.10547,3.09397,0.85944,8.88,-0.2,0.22,4.0
1758078563.66802,1758078563.65431,0.0,0.0,0.0,17.53251,1.43239,0.97403,8.7,-0.24,-0.01,4.0
1758078563.68248,1758078563.66431,0.0,0.0,0.0,17.01685,0.85944,0.85944,8.7,-0.24,-0.01,4.0
1758078563.69951,1758078563.67431,0.0,0.0,0.0,16.10011,0.0,0.57296,8.62,-0.41,-0.31,4.0
1758078563.70072,1758078563.68431,0.0,0.0,0.0,15.06879,-1.3178,-0.11459,8.62,-0.41,-0.31,4.0
1758078563.71579,1758078563.69431,0.0,0.0,0.0,13.5791,-4.23989,-1.3751,8.45,-0.55,-0.32,4.0
1758078563.71698,1758078563.70431,0.0,0.0,0.0,12.83425,-6.99009,-2.06265,8.45,-0.55,-0.32,4.0
1758078563.73479,1758078563.71431,0.0,0.0,0.0,11.97482,-9.11003,-2.97938,8.35,-0.59,-0.39,4.0
1758078563.75087,1758078563.72431,0.0,0.0,0.0,11.45916,-9.96947,-3.49504,8.35,-0.59,-0.39,4.0
1758078563.75197,1758078563.73431,0.0,0.0,0.0,10.71431,-11.11538,-3.83882,8.5,-0.48,-0.42,4.0
1758078563.76676,1758078563.74431,0.0,0.0,0.0,10.48513,-12.49048,-3.72423,8.54,-0.37,-0.24,4.0
1758078563.76798,1758078563.75431,0.0,0.0,0.0,10.19865,-13.46451,-3.83882,8.54,-0.37,-0.24,4.0
1758078563.78355,1758078563.76431,0.0,0.0,0.0,9.62569,-14.61043,-4.1253,8.72,-0.33,-0.13,4.0
1758078563.83538,1758078563.77431,0.0,0.0,0.0,9.33921,-16.21471,-4.29718,8.72,-0.33,-0.13,4.0
1758078563.83812,1758078563.78431,0.0,0.0,0.0,9.05273,-17.13144,-4.64096,8.99,-0.33,-0.05,4.0
1758078563.84213,1758078563.79431,0.0,0.0,0.0,8.36518,-17.24603,-4.64096,8.99,-0.33,-0.05,4.0
1758078563.84323,1758078563.80431,0.0,0.0,0.0,7.21927,-13.46451,-4.69825,9.3,-0.32,-0.04,4.0
1758078563.84385,1758078563.81431,0.0,0.0,0.0,6.18794,-9.22462,-4.69825,9.78,-0.26,0.09,4.0
1758078563.84669,1758078563.82431,0.0,0.0,0.0,4.69825,-5.72958,-4.46907,9.78,-0.26,0.09,4.0
1758078563.85086,1758078563.83431,0.0,0.0,0.0,3.32316,-3.66693,-4.46907,9.51,-0.05,0.35,4.0
1758078563.86656,1758078563.84431,0.0,0.0,0.0,0.80214,-3.55234,-4.64096,9.51,-0.05,0.35,4.0
1758078563.86885,1758078563.85431,0.0,0.0,0.0,0.0,-7.67763,-5.4431,8.86,0.03,0.22,4.0
1758078563.88351,1758078563.86431,0.0,0.0,0.0,-0.57296,-13.17803,-6.53172,8.86,0.03,0.22,4.0
1758078563.89956,1758078563.87431,0.0,0.0,0.0,0.22918,-22.23076,-5.4431,7.93,-0.11,-0.4,4.0
1758078563.90078,1758078563.88431,0.0,0.0,0.0,1.94806,-26.81443,-4.0107,8.31,-0.57,-0.76,4.0
1758078563.91588,1758078563.89431,0.0,0.0,0.0,3.49504,-21.31403,-3.83882,8.31,-0.57,-0.76,4.0
1758078563.91676,1758078563.90431,0.0,0.0,0.0,4.23989,-14.61043,-4.46907,9.6,-0.86,-0.81,4.0
1758078563.93381,1758078563.91431,0.0,0.0,0.0,4.46907,-9.5684,-5.50039,9.6,-0.86,-0.81,4.0
1758078563.95325,1758078563.92431,0.0,0.0,0.0,3.66693,-4.98473,-7.04738,9.48,-0.84,-0.54,4.0
1758078563.95896,1758078563.93431,0.0,0.0,0.0,2.92208,-4.29718,-7.50575,9.48,-0.84,-0.54,4.0
1758078563.96148,1758078563.94431,0.0,0.0,0.0,2.23454,-5.27121,-7.62034,9.16,-0.74,-0.71,4.0
1758078563.97789,1758078563.95431,0.0,0.0,0.0,1.43239,-7.33386,-6.99009,9.16,-0.74,-0.71,4.0
1758078563.97877,1758078563.96431,0.0,0.0,0.0,0.22918,-10.65701,-4.58366,8.94,-0.53,-0.5,4.0
1758078563.99464,1758078563.97431,0.0,0.0,0.0,-0.97403,-13.5218,-2.11994,9.25,-0.11,0.32,4.0
1758078564.01068,1758078563.98431,0.0,0.0,0.0,-2.00535,-16.73037,-0.0573,9.25,-0.11,0.32,4.0
1758078564.01182,1758078563.99431,0.0,0.0,0.0,-4.1253,-20.62648,1.77617,9.32,0.25,1.21,4.0
1758078564.02674,1758078564.00431,0.0,0.0,0.0,-5.4431,-23.0329,2.29183,9.32,0.25,1.21,4.0
1758078564.0278,1758078564.01431,0.0,0.0,0.0,-6.07335,-26.41335,3.32316,10.05,0.8,2.2,4.0
1758078564.0445,1758078564.02431,0.0,0.0,0.0,-7.10468,-26.75713,3.32316,10.05,0.8,2.2,4.0
1758078564.07185,1758078564.03431,0.0,0.0,0.0,-10.48513,-18.22006,1.08862,11.34,1.36,1.62,4.0
1758078564.07514,1758078564.04431,0.0,0.0,0.0,-12.60507,-11.00079,-1.71887,12.21,1.55,1.38,4.0
1758078564.07654,1758078564.05431,0.0,0.0,0.0,-15.06879,-5.09932,-5.78687,12.21,1.55,1.38,4.0
1758078564.08126,1758078564.06431,0.0,0.0,0.0,-17.81899,-3.72423,-9.39651,11.29,1.42,1.12,4.0
1758078564.09695,1758078564.07431,0.0,0.0,0.0,-23.31938,-5.90147,-10.37054,11.29,1.42,1.12,4.0
1758078564.09786,1758078564.08431,0.0,0.0,0.0,-28.30412,-11.00079,-5.50039,13.58,2.29,3.55,4.0
1758078564.1127,1758078564.09431,0.0,0.0,0.0,-32.71589,-23.66316,3.49504,13.58,2.29,3.55,4.0
1758078564.13043,1758078564.10431,0.0,0.0,0.0,-33.23156,-36.21093,10.19865,18.08,4.08,2.15,4.0
1758078564.13165,1758078564.11431,0.0,0.0,0.0,-28.36141,-37.35685,8.47978,16.74,0.55,-2.57,4.0
1758078564.14689,1758078564.12431,0.0,0.0,0.0,-27.61657,-7.21927,-2.00535,16.74,0.55,-2.57,4.0
1758078564.14788,1758078564.13431,0.0,0.0,0.0,-24.63719,19.25138,-8.76626,16.01,-2.5,-1.32,4.0
1758078564.16292,1758078564.14431,0.0,0.0,0.0,-24.63719,35.06502,-19.48057,16.01,-2.5,-1.32,4.0
1758078564.17899,1758078564.15431,0.0,0.0,0.0,-23.94964,41.71133,-27.50197,10.57,-1.38,0.66,4.0
1758078564.17988,1758078564.16431,0.0,0.0,0.0,-23.0329,40.27893,-26.52795,10.57,-1.38,0.66,4.0
1758078564.19468,1758078564.17431,0.0,0.0,0.0,-21.7724,39.13302,-22.11617,9.88,0.45,1.05,4.0
1758078564.21098,1758078564.18431,0.0,0.0,0.0,-20.16812,38.1017,-12.14671,9.88,0.45,1.05,4.0
1758078564.2119,1758078564.19431,0.0,0.0,0.0,-19.76705,35.00772,-5.72958,12.14,1.93,0.37,4.0
1758078564.22667,1758078564.20431,0.0,0.0,0.0,-19.76705,34.0337,-0.74485,13.25,1.76,0.62,4.0
1758078564.23188,1758078564.21431,0.0,0.0,0.0,-19.70975,35.92446,1.03132,13.25,1.76,0.62,4.0
1758078564.24669,1758078564.22431,0.0,0.0,0.0,-18.56383,41.13837,-0.51566,12.75,0.66,-0.02,4.0
1758078564.25112,1758078564.23431,0.0,0.0,0.0,-16.95955,40.7373,-3.89611,12.75,0.66,-0.02,4.0
1758078564.26669,1758078564.24431,0.0,0.0,0.0,-15.41257,38.44547,-8.30789,10.75,-0.13,0.08,4.0
1758078564.27263,1758078564.25431,0.0,0.0,0.0,-13.23533,33.00237,-11.51645,10.75,-0.13,0.08,4.0
1758078564.28798,1758078564.26431,0.0,0.0,0.0,-10.25595,22.63183,-14.09476,8.71,-0.26,0.32,4.0
1758078564.2892,1758078564.27431,0.0,0.0,0.0,-8.42248,16.73037,-14.03747,8.0,0.04,0.6,4.0
1758078564.3037,1758078564.28431,0.0,0.0,0.0,-7.21927,11.80293,-13.00614,8.0,0.04,0.6,4.0
1758078564.3208,1758078564.29431,0.0,0.0,0.0,-6.41713,8.25059,-11.51645,8.44,0.48,0.72,4.0
1758078564.32172,1758078564.30431,0.0,0.0,0.0,-6.18794,6.18794,-8.59437,8.44,0.48,0.72,4.0
1758078564.33701,1758078564.31431,0.0,0.0,0.0,-6.18794,5.50039,-6.87549,9.08,0.7,0.67,4.0
1758078564.33874,1758078564.32431,0.0,0.0,0.0,-6.24524,5.15662,-5.55769,9.08,0.7,0.67,4.0
1758078564.35405,1758078564.33431,0.0,0.0,0.0,-6.35983,5.15662,-4.58366,9.11,0.73,0.48,4.0
1758078564.37004,1758078564.34431,0.0,0.0,0.0,-6.24524,6.35983,-3.66693,9.26,0.7,0.29,4.0
1758078564.37098,1758078564.35431,0.0,0.0,0.0,-6.13065,7.62034,-3.20856,9.26,0.7,0.29,4.0
1758078564.38576,1758078564.36431,0.0,0.0,0.0,-5.84417,7.96411,-3.09397,9.26,0.57,0.13,4.0
1758078564.38696,1758078564.37431,0.0,0.0,0.0,-5.50039,8.47978,-2.86479,9.26,0.57,0.13,4.0
1758078564.40593,1758078564.38431,0.0,0.0,0.0,-4.64096,8.0787,-2.40642,9.16,0.33,0.19,4.0
1758078564.40694,1758078564.39431,0.0,0.0,0.0,-4.0107,7.16197,-1.94806,9.16,0.33,0.19,4.0
1758078564.42294,1758078564.40431,0.0,0.0,0.0,-3.26586,5.84417,-1.20321,9.18,0.24,0.21,4.0
1758078564.43894,1758078564.41431,0.0,0.0,0.0,-2.11994,4.23989,-0.22918,9.18,0.24,0.21,4.0
1758078564.44232,1758078564.42431,0.0,0.0,0.0,-1.3178,3.26586,0.17189,9.45,0.34,0.22,4.0
1758078564.45794,1758078564.43431,0.0,0.0,0.0,-0.57296,2.7502,0.68755,9.5,0.52,0.06,4.0
1758078564.45976,1758078564.44431,0.0,0.0,0.0,-0.11459,1.3751,0.85944,9.5,0.52,0.06,4.0
1758078564.47496,1758078564.45431,0.0,0.0,0.0,0.57296,-1.83346,0.85944,9.04,0.71,-0.09,4.0
1758078564.49089,1758078564.46431,0.0,0.0,0.0,0.57296,-3.95341,0.80214,9.04,0.71,-0.09,4.0
1758078564.49198,1758078564.47431,0.0,0.0,0.0,0.45837,-5.50039,0.74485,8.52,0.85,-0.16,4.0
1758078564.50691,1758078564.48431,0.0,0.0,0.0,0.11459,-6.35983,0.85944,8.52,0.85,-0.16,4.0
1758078564.51143,1758078564.49431,0.0,0.0,0.0,-0.80214,-7.39116,1.3751,8.3,0.94,-0.06,4.0
1758078564.52679,1758078564.50431,0.0,0.0,0.0,-1.43239,-7.96411,2.00535,8.36,0.97,0.0,4.0
1758078564.52906,1758078564.51431,0.0,0.0,0.0,-2.11994,-7.79223,2.97938,8.36,0.97,0.0,4.0
1758078564.54378,1758078564.52431,0.0,0.0,0.0,-2.6929,-7.84952,3.89611,8.78,0.91,0.11,4.0
1758078564.56086,1758078564.53431,0.0,0.0,0.0,-3.20856,-8.30789,5.32851,8.78,0.91,0.11,4.0
1758078564.56208,1758078564.54431,0.0,0.0,0.0,-3.09397,-9.05273,6.18794,9.2,0.85,0.35,4.0
1758078564.5768,1758078564.55431,0.0,0.0,0.0,-2.7502,-9.5684,6.58902,9.2,0.85,0.35,4.0
1758078564.57886,1758078564.56431,0.0,0.0,0.0,-2.57831,-10.94349,6.47442,9.48,0.74,0.55,4.0
1758078564.59387,1758078564.57431,0.0,0.0,0.0,-1.94806,-13.40721,6.18794,9.28,0.63,0.56,4.0
1758078564.60981,1758078564.58431,0.0,0.0,0.0,-1.60428,-16.84496,5.95876,9.28,0.63,0.56,4.0
1758078564.61133,1758078564.59431,0.0,0.0,0.0,-1.60428,-21.60051,5.78687,8.82,0.74,0.51,4.0
1758078564.76209,1758078564.60431,0.0,0.0,0.0,-2.57831,-25.26744,5.72958,8.82,0.74,0.51,4.0
1758078564.76536,1758078564.61431,0.0,0.0,0.0,-3.03668,-25.15285,6.47442,8.95,0.94,0.3,4.0
1758078564.76596,1758078564.62431,0.0,0.0,0.0,-3.95341,-21.94428,7.67763,8.95,0.94,0.3,4.0
1758078564.76723,1758078564.63431,0.0,0.0,0.0,-4.98473,-17.53251,8.99544,9.51,1.09,0.18,4.0
1758078564.77062,1758078564.64431,0.0,0.0,0.0,-6.7609,-10.8289,10.65701,9.51,1.09,0.18,4.0
1758078564.77227,1758078564.65431,0.0,0.0,0.0,-7.62034,-7.33386,11.28727,9.69,1.04,0.17,4.0
1758078564.7729,1758078564.66431,0.0,0.0,0.0,-7.67763,-4.92744,11.86023,9.54,0.66,0.0,4.0
1758078564.77368,1758078564.67431,0.0,0.0,0.0,-7.39116,-3.32316,11.91752,9.54,0.66,0.0,4.0
1758078564.77478,1758078564.68431,0.0,0.0,0.0,-5.84417,-2.00535,11.80293,9.42,0.27,-0.06,4.0
1758078564.77553,1758078564.69431,0.0,0.0,0.0,-4.81285,-1.43239,11.51645,9.42,0.27,-0.06,4.0
1758078564.77665,1758078564.70431,0.0,0.0,0.0,-3.83882,-0.74485,11.57375,9.43,0.15,-0.05,4.0
1758078564.7782,1758078564.71431,0.0,0.0,0.0,-3.09397,-0.68755,11.51645,9.43,0.15,-0.05,4.0
1758078564.77934,1758078564.72431,0.0,0.0,0.0,-2.6929,0.51566,11.57375,9.28,0.32,0.01,4.0
1758078564.7801,1758078564.73431,0.0,0.0,0.0,-2.57831,1.43239,11.63104,9.1,0.58,-0.2,4.0
1758078564.7812,1758078564.74431,0.0,0.0,0.0,-2.46372,1.71887,11.74564,9.1,0.58,-0.2,4.0
1758078564.78182,1758078564.75431,0.0,0.0,0.0,-2.34913,0.80214,11.91752,8.62,0.69,-0.5,4.0
1758078564.78626,1758078564.76431,0.0,0.0,0.0,-1.77617,-0.57296,12.08941,8.62,0.69,-0.5,4.0
1758078564.78687,1758078564.77431,0.0,0.0,0.0,-1.20321,-2.06265,12.43318,8.13,0.65,-0.68,4.0
1758078564.80618,1758078564.78431,0.0,0.0,0.0,-0.80214,-3.55234,12.77696,8.13,0.65,-0.68,4.0
1758078564.80709,1758078564.79431,0.0,0.0,0.0,-0.51566,-5.84417,13.17803,7.73,0.57,-0.73,4.0
1758078564.82294,1758078564.80431,0.0,0.0,0.0,0.0573,-7.62034,13.5791,7.53,0.45,-0.91,4.0
1758078564.85063,1758078564.81431,0.0,0.0,0.0,0.22918,-9.96947,13.75099,7.53,0.45,-0.91,4.0
1758078564.85124,1758078564.82431,0.0,0.0,0.0,0.57296,-12.49048,13.5791,7.39,0.22,-0.88,4.0
1758078564.85406,1758078564.83431,0.0,0.0,0.0,1.43239,-16.61578,13.06344,7.39,0.22,-0.88,4.0
1758078564.86923,1758078564.84431,0.0,0.0,0.0,2.40642,-20.11082,12.2613,7.93,-0.3,-0.47,4.0
1758078564.87202,1758078564.85431,0.0,0.0,0.0,3.66693,-24.4653,11.51645,7.93,-0.3,-0.47,4.0
1758078564.88696,1758078564.86431,0.0,0.0,0.0,5.27121,-28.41871,10.19865,9.05,-0.66,0.57,4.0
1758078564.88812,1758078564.87431,0.0,0.0,0.0,8.36518,-32.25753,7.73493,9.05,-0.66,1.47,4.0
1758078564.90295,1758078564.88431,0.0,0.0,0.0,10.8289,-32.42941,5.78687,10.8,-0.83,1.47,4.0
1758078564.92157,1758078564.89431,0.0,0.0,0.0,13.98017,-31.74186,4.18259,12.54,-0.91,1.88,4.0
1758078564.94852,1758078564.90431,0.0,0.0,0.0,17.13144,-31.97105,2.7502,12.54,-0.91,1.88,4.0
1758078564.94893,1758078564.91431,0.0,0.0,0.0,22.05888,-33.00237,1.94806,12.81,-0.85,1.66,4.0
1758078564.95135,1758078564.92431,0.0,0.0,0.0,24.98096,-31.51268,2.11994,12.81,-0.85,1.66,4.0
1758078564.95173,1758078564.93431,0.0,0.0,0.0,27.50197,-29.27814,2.11994,13.18,-0.86,1.47,4.0
1758078564.96906,1758078564.94431,0.0,0.0,0.0,29.62192,-27.44468,0.97403,13.18,-0.86,1.47,4.0
1758078564.97347,1758078564.95431,0.0,0.0,0.0,30.99702,-26.41335,-1.94806,15.31,-1.57,1.83,4.0
1758078564.98882,1758078564.96431,0.0,0.0,0.0,29.33544,-26.35606,-2.57831,17.15,-2.08,0.54,4.0
1758078564.99152,1758078564.97431,0.0,0.0,0.0,26.64254,-21.88699,-0.74485,17.15,-2.08,0.54,4.0
1758078565.00805,1758078564.98431,0.0,0.0,0.0,23.94964,-8.59437,2.40642,16.52,-0.11,-0.76,4.0
1758078565.01133,1758078564.99431,0.0,0.0,0.0,21.7724,14.9542,6.8182,16.52,-0.11,-0.76,4.0
1758078565.02697,1758078565.00431,0.0,0.0,0.0,20.79837,26.87172,8.47978,14.24,0.96,-0.56,4.0
1758078565.03178,1758078565.01431,0.0,0.0,0.0,19.13679,35.06502,8.02141,14.24,0.96,-0.56,4.0
1758078565.04728,1758078565.02431,0.0,0.0,0.0,17.81899,36.55471,5.4431,11.9,0.61,0.18,4.0
1758078565.05135,1758078565.03431,0.0,0.0,0.0,16.95955,30.88243,2.7502,10.68,-0.07,0.48,4.0
1758078565.06815,1758078565.04431,0.0,0.0,0.0,15.98552,25.72581,0.68755,10.68,-0.07,0.48,4.0
1758078565.07163,1758078565.05431,0.0,0.0,0.0,15.0115,22.05888,-0.17189,11.07,-0.78,0.44,4.0
1758078565.08695,1758078565.06431,0.0,0.0,0.0,14.09476,18.27736,0.34377,11.07,-0.78,0.44,4.0
1758078565.08822,1758078565.07431,0.0,0.0,0.0,13.80828,18.33465,1.66158,11.33,-1.13,0.5,4.0
1758078565.10301,1758078565.08431,0.0,0.0,0.0,12.89155,24.12152,2.34913,11.33,-1.13,0.5,4.0
1758078565.1211,1758078565.09431,0.0,0.0,0.0,11.63104,29.73651,2.86479,11.44,-1.01,0.46,4.0
1758078565.12245,1758078565.10431,0.0,0.0,0.0,9.68299,29.22085,3.60963,10.03,-1.01,0.67,4.0
1758078565.13731,1758078565.11431,0.0,0.0,0.0,8.70896,24.23611,3.66693,10.03,-0.5,0.67,4.0
1758078565.13992,1758078565.12431,0.0,0.0,0.0,7.96411,18.73572,3.89611,8.59,-0.24,0.52,4.0
1758078565.15498,1758078565.13431,0.0,0.0,0.0,7.44845,14.38124,4.18259,8.59,-0.24,0.52,4.0
1758078565.17099,1758078565.14431,0.0,0.0,0.0,6.53172,9.39651,4.18259,8.48,-0.38,0.34,4.0
1758078565.17275,1758078565.15431,0.0,0.0,0.0,6.18794,7.96411,3.72423,8.48,-0.38,0.34,4.0
1758078565.19057,1758078565.16431,0.0,0.0,0.0,5.84417,9.22462,3.55234,8.88,-0.62,0.46,4.0
1758078565.1957,1758078565.17431,0.0,0.0,0.0,5.61499,11.00079,3.32316,8.88,-0.62,0.46,4.0
1758078565.21212,1758078565.18431,0.0,0.0,0.0,5.50039,13.12073,3.32316,9.35,-0.8,0.49,4.0
1758078565.21859,1758078565.19431,0.0,0.0,0.0,5.32851,14.20935,3.26586,9.27,-0.91,0.41,4.0
1758078565.2219,1758078565.20431,0.0,0.0,0.0,5.27121,14.9542,3.38045,9.27,-0.91,0.41,4.0
1758078565.28108,1758078565.21431,0.0,0.0,0.0,5.15662,14.72501,3.20856,9.1,-0.91,0.29,4.0
1758078565.28433,1758078565.22431,0.0,0.0,0.0,4.69825,13.80828,2.63561,9.1,-0.91,0.29,4.0
1758078565.29165,1758078565.23431,0.0,0.0,0.0,4.23989,14.20935,2.00535,9.06,-0.78,0.2,4.0
1758078565.29416,1758078565.24431,0.0,0.0,0.0,3.95341,15.29797,1.48969,9.06,-0.78,0.2,4.0
1758078565.29479,1758078565.25431,0.0,0.0,0.0,4.1253,17.01685,0.40107,9.21,-0.62,0.16,4.0
1758078565.29605,1758078565.26431,0.0,0.0,0.0,4.35448,17.81899,-0.11459,9.2,-0.57,0.11,4.0
1758078565.29666,1758078565.27431,0.0,0.0,0.0,4.87014,17.30333,-0.80214,9.2,-0.57,0.11,4.0
1758078565.29871,1758078565.28431,0.0,0.0,0.0,5.78687,17.30333,-1.14592,9.03,-0.68,0.01,4.0
1758078565.31694,1758078565.29431,0.0,0.0,0.0,7.10468,16.84496,-1.3751,9.03,-0.68,0.01,4.0
1758078565.32075,1758078565.30431,0.0,0.0,0.0,8.0787,16.10011,-1.03132,8.93,-0.85,0.01,4.0
1758078565.40411,1758078565.31431,0.0,0.0,0.0,8.88085,16.10011,-1.43239,8.93,-0.85,0.01,4.0
1758078565.40662,1758078565.32431,0.0,0.0,0.0,9.74028,14.20935,-1.20321,8.82,-0.97,0.0,4.0
1758078565.40725,1758078565.33431,0.0,0.0,0.0,10.37054,12.49048,-1.3178,8.64,-0.93,0.0,4.0
1758078565.4144,1758078565.34431,0.0,0.0,0.0,10.71431,10.31324,-1.66158,8.64,-0.93,0.0,4.0
1758078565.41483,1758078565.35431,0.0,0.0,0.0,10.59972,7.16197,-2.06265,8.29,-0.76,0.05,4.0
1758078565.41673,1758078565.36431,0.0,0.0,0.0,10.31324,4.18259,-2.40642,8.29,-0.76,0.05,4.0
1758078565.41892,1758078565.37431,0.0,0.0,0.0,9.68299,0.80214,-3.26586,8.33,-0.63,0.12,4.0
1758078565.42009,1758078565.38431,0.0,0.0,0.0,9.62569,-0.68755,-3.95341,8.33,-0.63,0.12,4.0
1758078565.42198,1758078565.39431,0.0,0.0,0.0,9.33921,-1.83346,-4.69825,8.71,-0.57,0.09,4.0
1758078565.42247,1758078565.40431,0.0,0.0,0.0,9.39651,-2.7502,-5.50039,8.71,-0.57,0.09,4.0
1758078565.44148,1758078565.41431,0.0,0.0,0.0,9.11003,-3.72423,-6.7609,9.1,-0.58,0.15,4.0
1758078565.45068,1758078565.42431,0.0,0.0,0.0,8.93814,-4.0107,-7.33386,9.33,-0.57,0.18,4.0
1758078565.47198,1758078565.43431,0.0,0.0,0.0,8.93814,-4.1253,-7.79223,9.33,-0.57,0.18,4.0
1758078565.47694,1758078565.44431,0.0,0.0,0.0,8.25059,-4.18259,-8.0787,9.41,-0.51,0.26,4.0
1758078565.48181,1758078565.45431,0.0,0.0,0.0,7.67763,-4.1253,-8.0787,9.41,-0.51,0.26,4.0
1758078565.50834,1758078565.46431,0.0,0.0,0.0,7.04738,-3.20856,-8.0787,9.39,-0.39,0.23,4.0
1758078565.5088,1758078565.47431,0.0,0.0,0.0,6.24524,-2.06265,-8.0787,9.39,-0.39,0.23,4.0
1758078565.51064,1758078565.48431,0.0,0.0,0.0,5.09932,-0.97403,-8.59437,9.35,-0.3,0.25,4.0
1758078565.51173,1758078565.49431,0.0,0.0,0.0,4.18259,-0.85944,-8.88085,9.15,-0.28,0.21,4.0
1758078565.52712,1758078565.50431,0.0,0.0,0.0,3.32316,-0.85944,-9.22462,9.15,-0.28,0.21,4.0
1758078565.52994,1758078565.51431,0.0,0.0,0.0,2.57831,-1.20321,-9.5684,8.87,-0.34,0.08,4.0
1758078565.54676,1758078565.52431,0.0,0.0,0.0,2.06265,-2.34913,-9.96947,8.87,-0.34,0.08,4.0
1758078565.55034,1758078565.53431,0.0,0.0,0.0,2.06265,-3.20856,-10.08406,8.53,-0.47,-0.01,4.0
1758078565.56617,1758078565.54431,0.0,0.0,0.0,2.29183,-2.92208,-10.37054,8.53,-0.47,-0.01,4.0
1758078565.56751,1758078565.55431,0.0,0.0,0.0,2.63561,-1.08862,-10.31324,8.48,-0.63,-0.06,4.0
1758078565.58907,1758078565.56431,0.0,0.0,0.0,3.26586,2.29183,-10.48513,8.67,-0.75,-0.05,4.0
1758078565.598,1758078565.57431,0.0,0.0,0.0,3.95341,3.09397,-10.48513,8.67,-0.75,-0.05,4.0
1758078565.60031,1758078565.58431,0.0,0.0,0.0,4.0107,2.92208,-10.19865,8.43,-0.68,-0.19,4.0
1758078565.61618,1758078565.59431,0.0,0.0,0.0,3.49504,1.77617,-9.68299,8.43,-0.68,-0.19,4.0
1758078565.61813,1758078565.60431,0.0,0.0,0.0,2.29183,-0.85944,-8.88085,8.28,-0.4,-0.33,4.0
1758078565.63419,1758078565.61431,0.0,0.0,0.0,0.97403,-2.92208,-8.30789,8.28,-0.4,-0.33,4.0
1758078565.65099,1758078565.62431,0.0,0.0,0.0,-0.40107,-4.46907,-7.73493,8.28,-0.15,-0.44,4.0
1758078565.65247,1758078565.63431,0.0,0.0,0.0,-2.00535,-5.50039,-7.16197,8.28,-0.15,-0.44,4.0
1758078565.66761,1758078565.64431,0.0,0.0,0.0,-3.83882,-8.25059,-6.7609,8.37,-0.11,-0.37,4.0
1758078565.6692,1758078565.65431,0.0,0.0,0.0,-4.69825,-10.48513,-6.70361,8.12,-0.23,-0.24,4.0
1758078565.68445,1758078565.66431,0.0,0.0,0.0,-5.55769,-12.71966,-6.99009,8.12,-0.23,-0.24,4.0
1758078565.70126,1758078565.67431,0.0,0.0,0.0,-6.47442,-17.13144,-6.70361,8.2,-0.26,0.22,4.0
1758078565.70352,1758078565.68431,0.0,0.0,0.0,-6.99009,-19.99623,-6.24524,8.2,-0.26,0.22,4.0
1758078565.72398,1758078565.69431,0.0,0.0,0.0,-7.84952,-22.05888,-5.72958,8.89,-0.03,1.05,4.0
1758078565.73075,1758078565.70431,0.0,0.0,0.0,-8.70896,-22.86102,-4.18259,8.89,-0.03,1.05,4.0
1758078565.73132,1758078565.71431,0.0,0.0,0.0,-10.8289,-23.26209,-1.43239,10.76,0.44,2.1,4.0
1758078565.74752,1758078565.72431,0.0,0.0,0.0,-13.5791,-22.34536,-0.45837,12.59,1.14,2.19,4.0
1758078565.75438,1758078565.73431,0.0,0.0,0.0,-16.55848,-19.88164,-0.40107,12.59,1.14,2.19,4.0
1758078565.76924,1758078565.74431,0.0,0.0,0.0,-19.88164,-18.33465,-2.23454,12.69,1.43,1.96,4.0
1758078565.77043,1758078565.75431,0.0,0.0,0.0,-22.86102,-17.87628,-7.10468,12.69,1.43,1.96,4.0
1758078565.78631,1758078565.76431,0.0,0.0,0.0,-23.54857,-15.41257,-10.25595,12.02,1.22,1.48,4.0
1758078565.78725,1758078565.77431,0.0,0.0,0.0,-24.29341,-11.74564,-10.71431,12.02,1.22,1.48,4.0
1758078565.80725,1758078565.78431,0.0,0.0,0.0,-26.18417,-8.59437,-7.73493,14.46,1.36,3.09,4.0
1758078565.80847,1758078565.79431,0.0,0.0,0.0,-28.30412,-14.72501,1.43239,18.49,2.8,3.21,4.0
1758078565.82327,1758078565.80431,0.0,0.0,0.0,-28.24682,-24.80907,3.55234,18.49,2.8,3.21,4.0
1758078565.85919,1758078565.81431,0.0,0.0,0.0,-24.57989,-30.93972,2.06265,15.67,1.36,-0.77,4.0
1758078565.9152,1758078565.82431,0.0,0.0,0.0,-22.74642,-14.20935,-4.18259,15.67,1.36,-0.77,4.0
1758078565.9158,1758078565.83431,0.0,0.0,0.0,-19.70975,28.24682,-10.8862,15.06,-1.34,-0.49,4.0
1758078565.92133,1758078565.84431,0.0,0.0,0.0,-17.36062,39.82057,-15.29797,15.06,-1.34,-0.49,4.0
1758078565.92167,1758078565.85431,0.0,0.0,0.0,-15.06879,41.71133,-16.95955,11.64,-1.99,1.24,4.0
1758078565.92607,1758078565.86431,0.0,0.0,0.0,-12.14671,41.13837,-11.86023,11.64,-1.99,1.24,4.0
1758078565.92668,1758078565.87431,0.0,0.0,0.0,-10.65701,39.82057,-6.70361,11.16,-0.95,1.05,4.0
1758078565.93191,1758078565.88431,0.0,0.0,0.0,-9.96947,37.52874,-1.94806,12.24,0.88,0.37,4.0
1758078565.9343,1758078565.8943,0.0,0.0,0.0,-9.68299,34.26288,1.66158,12.24,0.88,0.37,4.0
1758078565.93568,1758078565.9043,0.0,0.0,0.0,-9.68299,29.96569,4.52637,11.82,1.54,1.14,4.0
1758078565.94035,1758078565.9143,0.0,0.0,0.0,-9.74028,28.93437,4.29718,11.82,1.54,1.14,4.0
1758078565.94233,1758078565.9243,0.0,0.0,0.0,-9.5684,26.81443,2.7502,11.14,1.01,0.93,4.0
1758078565.97034,1758078565.9343,0.0,0.0,0.0,-9.28192,23.83505,0.45837,11.14,1.01,0.93,4.0
1758078565.97115,1758078565.9443,0.0,0.0,0.0,-8.88085,17.13144,-3.26586,9.85,0.26,0.85,4.0
1758078565.97495,1758078565.9543,0.0,0.0,0.0,-8.0787,11.80293,-5.21392,8.63,-0.11,0.79,4.0
1758078565.9906,1758078565.9643,0.0,0.0,0.0,-7.33386,8.0787,-6.8182,8.63,-0.11,0.79,4.0
1758078565.99417,1758078565.9743,0.0,0.0,0.0,-6.13065,5.15662,-7.44845,8.28,-0.04,1.0,4.0
1758078566.01093,1758078565.9843,0.0,0.0,0.0,-4.29718,0.45837,-7.21927,8.28,-0.04,1.0,4.0
1758078566.01457,1758078565.9943,0.0,0.0,0.0,-3.09397,-0.74485,-6.18794,8.33,0.29,1.21,4.0
1758078566.02931,1758078566.0043,0.0,0.0,0.0,-1.94806,-0.34377,-4.35448,8.33,0.29,1.21,4.0
1758078566.03133,1758078566.0143,0.0,0.0,0.0,-1.03132,0.51566,-2.63561,8.7,0.6,1.21,4.0
1758078566.04662,1758078566.0243,0.0,0.0,0.0,-0.0573,5.15662,-0.45837,9.09,0.72,1.06,4.0
1758078566.04798,1758078566.0343,0.0,0.0,0.0,0.40107,7.96411,0.22918,9.09,0.72,1.06,4.0
1758078566.06447,1758078566.0443,0.0,0.0,0.0,0.80214,10.31324,0.40107,9.26,0.65,0.92,4.0
1758078566.08166,1758078566.0543,0.0,0.0,0.0,0.85944,11.86023,-0.0573,9.26,0.65,0.92,4.0
1758078566.0821,1758078566.0643,0.0,0.0,0.0,1.08862,10.02676,-0.57296,9.07,0.52,0.68,4.0
1758078566.09841,1758078566.0743,0.0,0.0,0.0,1.08862,9.5684,-0.45837,9.07,0.52,0.68,4.0
1758078566.09936,1758078566.0843,0.0,0.0,0.0,0.80214,9.11003,-0.57296,9.13,0.38,0.6,4.0
1758078566.11462,1758078566.0943,0.0,0.0,0.0,0.11459,6.7609,-0.34377,9.13,0.38,0.6,4.0
1758078566.13061,1758078566.1043,0.0,0.0,0.0,-0.34377,4.35448,-0.11459,9.3,0.42,0.64,4.0
1758078566.13104,1758078566.1143,0.0,0.0,0.0,-1.14592,3.09397,0.17189,9.46,0.65,0.52,4.0
1758078566.14654,1758078566.1243,0.0,0.0,0.0,-2.11994,2.06265,0.45837,9.46,0.65,0.52,4.0
1758078566.15089,1758078566.1343,0.0,0.0,0.0,-3.49504,-0.0573,0.51566,9.39,0.86,0.28,4.0
1758078566.1667,1758078566.1443,0.0,0.0,0.0,-4.35448,-2.06265,0.57296,9.39,0.86,0.28,4.0
1758078566.16812,1758078566.1543,0.0,0.0,0.0,-5.15662,-4.18259,0.51566,8.95,0.89,0.2,4.0
1758078566.1857,1758078566.1643,0.0,0.0,0.0,-5.95876,-4.92744,0.45837,8.95,0.89,0.2,4.0
1758078566.20167,1758078566.1743,0.0,0.0,0.0,-7.04738,-5.95876,0.57296,8.59,0.78,0.14,4.0
1758078566.20378,1758078566.1843,0.0,0.0,0.0,-7.62034,-6.7609,0.80214,8.4,0.62,0.35,4.0
1758078566.22175,1758078566.1943,0.0,0.0,0.0,-8.36518,-7.16197,1.14592,8.4,0.62,0.35,4.0
1758078566.22213,1758078566.2043,0.0,0.0,0.0,-8.99544,-6.58902,1.66158,8.63,0.56,0.47,4.0
1758078566.23824,1758078566.2143,0.0,0.0,0.0,-9.85487,-5.90147,2.86479,8.63,0.56,0.47,4.0
1758078566.24134,1758078566.2243,0.0,0.0,0.0,-10.19865,-5.84417,3.66693,8.89,0.55,0.58,4.0
1758078566.25669,1758078566.2343,0.0,0.0,0.0,-10.37054,-5.27121,4.23989,8.89,0.55,0.58,4.0
1758078566.25863,1758078566.2443,0.0,0.0,0.0,-10.59972,-4.69825,4.92744,9.22,0.59,0.68,4.0
1758078566.27443,1758078566.2543,0.0,0.0,0.0,-10.94349,-4.52637,5.4431,9.41,0.63,0.73,4.0
1758078566.29153,1758078566.2643,0.0,0.0,0.0,-10.8862,-5.4431,5.95876,9.41,0.63,0.73,4.0
1758078566.29191,1758078566.2743,0.0,0.0,0.0,-11.22997,-10.08406,5.90147,8.93,0.63,0.74,4.0
1758078566.30977,1758078566.2843,0.0,0.0,0.0,-11.80293,-18.44924,4.69825,8.93,0.63,0.74,4.0
1758078566.31063,1758078566.2943,0.0,0.0,0.0,-11.80293,-25.7831,4.64096,8.18,0.63,0.61,4.0
1758078566.32626,1758078566.3043,0.0,0.0,0.0,-11.91752,-24.63719,4.81285,8.18,0.63,0.61,4.0
1758078566.32863,1758078566.3143,0.0,0.0,0.0,-12.14671,-22.28806,5.4431,8.94,0.59,0.36,4.0
1758078566.34347,1758078566.3243,0.0,0.0,0.0,-12.77696,-18.44924,6.58902,8.94,0.59,0.36,4.0
1758078566.36136,1758078566.3343,0.0,0.0,0.0,-13.40721,-13.80828,8.0787,9.33,0.61,0.54,4.0
1758078566.36223,1758078566.3443,0.0,0.0,0.0,-14.9542,-1.08862,8.0787,10.17,0.62,0.42,4.0
1758078566.3783,1758078566.3543,0.0,0.0,0.0,-15.64175,6.58902,8.76626,10.17,0.62,0.42,4.0
1758078566.37945,1758078566.3643,0.0,0.0,0.0,-16.04282,9.4538,8.42248,9.67,0.4,0.52,4.0
1758078566.39446,1758078566.3743,0.0,0.0,0.0,-15.46986,8.36518,8.70896,9.67,0.4,0.52,4.0
1758078566.41051,1758078566.3843,0.0,0.0,0.0,-13.98017,7.33386,9.28192,8.76,0.16,0.29,4.0
1758078566.41104,1758078566.3943,0.0,0.0,0.0,-11.91752,6.18794,9.85487,8.76,0.16,0.29,4.0
1758078566.42729,1758078566.4043,0.0,0.0,0.0,-9.11003,4.52637,10.37054,8.7,-0.1,-0.34,4.0
1758078566.43485,1758078566.4143,0.0,0.0,0.0,-7.44845,3.55234,10.94349,8.8,-0.14,-0.19,4.0
1758078566.45632,1758078566.4243,0.0,0.0,0.0,-5.84417,3.03668,11.57375,8.8,-0.14,-0.19,4.0
1758078566.45822,1758078566.4343,0.0,0.0,0.0,-4.64096,1.48969,11.97482,8.97,0.02,0.11,4.0
1758078566.46187,1758078566.4443,0.0,0.0,0.0,-3.38045,-2.29183,12.77696,8.97,0.02,0.11,4.0
1758078566.4783,1758078566.4543,0.0,0.0,0.0,-3.26586,-4.98473,12.89155,8.77,0.31,0.22,4.0
1758078566.48108,1758078566.4643,0.0,0.0,0.0,-3.66693,-8.25059,13.06344,8.77,0.31,0.22,4.0
1758078566.49674,1758078566.4743,0.0,0.0,0.0,-4.18259,-10.94349,13.06344,8.33,0.55,0.12,4.0
1758078566.49799,1758078566.4843,0.0,0.0,0.0,-5.21392,-14.9542,13.23533,7.78,0.58,-0.16,4.0
1758078566.51441,1758078566.4943,0.0,0.0,0.0,-6.07335,-17.24603,13.46451,7.78,0.58,-0.16,4.0
1758078566.51863,1758078566.5043,0.0,0.0,0.0,-6.7609,-19.36597,13.80828,7.41,0.39,-0.2,4.0
1758078566.53591,1758078566.5143,0.0,0.0,0.0,-7.39116,-22.00158,13.00614,7.41,0.39,-0.2,4.0
1758078566.53953,1758078566.5243,0.0,0.0,0.0,-7.50575,-23.72045,12.37589,7.64,-0.08,0.19,4.0
1758078566.56129,1758078566.5343,0.0,0.0,0.0,-7.33386,-24.63719,11.17268,7.64,-0.08,0.19,4.0
1758078566.56642,1758078566.5443,0.0,0.0,0.0,-6.53172,-25.09555,9.96947,8.77,-0.55,0.88,4.0
1758078566.5668,1758078566.5543,0.0,0.0,0.0,-4.81285,-25.21014,6.24524,8.77,-0.55,1.67,4.0
1758078566.58578,1758078566.5643,0.0,0.0,0.0,-2.92208,-23.94964,3.60963,10.4,-0.79,1.67,4.0
1758078566.5867,1758078566.5743,0.0,0.0,0.0,-0.51566,-21.7724,0.85944,12.17,-0.93,2.14,4.0
1758078566.69684,1758078566.5843,0.0,0.0,0.0,2.92208,-19.36597,-1.14592,12.17,-0.93,2.14,4.0
1758078566.70058,1758078566.5943,0.0,0.0,0.0,8.65166,-15.29797,-3.38045,13.2,-1.26,2.28,4.0
1758078566.70184,1758078566.6043,0.0,0.0,0.0,12.77696,-12.204,-4.1253,13.2,-1.26,2.28,4.0
1758078566.70544,1758078566.6143,0.0,0.0,0.0,17.13144,-10.02676,-4.98473,14.2,-1.62,2.63,4.0
1758078566.70691,1758078566.6243,0.0,0.0,0.0,21.88699,-8.70896,-6.13065,14.2,-1.62,2.63,4.0
1758078566.7082,1758078566.6343,0.0,0.0,0.0,26.64254,-11.57375,-7.62034,16.61,-2.41,3.17,4.0
1758078566.7088,1758078566.6443,0.0,0.0,0.0,26.12688,-11.51645,-6.13065,17.82,-2.27,1.48,4.0
1758078566.70944,1758078566.6543,0.0,0.0,0.0,23.89234,-5.72958,-2.23454,17.82,-2.27,1.48,4.0
1758078566.71067,1758078566.6643,0.0,0.0,0.0,21.7151,4.69825,3.32316,16.41,0.01,0.01,4.0
1758078566.71134,1758078566.6743,0.0,0.0,0.0,20.68378,22.97561,10.65701,16.41,0.01,0.01,4.0
1758078566.72083,1758078566.6843,0.0,0.0,0.0,20.05352,33.05967,13.69369,14.32,0.84,0.27,4.0
1758078566.72124,1758078566.6943,0.0,0.0,0.0,19.70975,40.50812,14.83961,14.32,0.84,0.27,4.0
1758078566.72424,1758078566.7043,0.0,0.0,0.0,18.44924,43.31561,11.86023,13.36,0.26,0.48,4.0
1758078566.7395,1758078566.7143,0.0,0.0,0.0,17.81899,40.39353,7.73493,12.15,-0.52,0.77,4.0
1758078566.74188,1758078566.7243,0.0,0.0,0.0,17.13144,38.15899,3.26586,12.15,-0.52,0.77,4.0
1758078566.75688,1758078566.7343,0.0,0.0,0.0,16.50119,36.61201,-0.0573,11.0,-1.05,0.75,4.0
1758078566.76206,1758078566.7443,0.0,0.0,0.0,15.24068,35.40879,-2.7502,11.0,-1.05,0.75,4.0
1758078566.80417,1758078566.7543,0.0,0.0,0.0,14.78231,33.51803,-3.20856,9.84,-1.13,0.98,4.0
1758078566.81813,1758078566.7643,0.0,0.0,0.0,14.72501,30.02299,-2.34913,9.84,-1.13,0.98,4.0
1758078566.81857,1758078566.7743,0.0,0.0,0.0,14.9542,26.47065,-0.85944,8.75,-0.96,1.07,4.0
1758078566.82202,1758078566.7843,0.0,0.0,0.0,15.98552,19.82434,2.00535,8.0,-0.96,0.78,4.0
1758078566.8226,1758078566.7943,0.0,0.0,0.0,16.95955,16.3293,3.60963,8.0,-0.73,0.78,4.0
1758078566.82552,1758078566.8043,0.0,0.0,0.0,17.93358,14.66772,4.58366,7.58,-0.64,0.8,4.0
1758078566.82612,1758078566.8143,0.0,0.0,0.0,18.73572,13.00614,4.64096,7.58,-0.64,0.8,4.0
1758078566.84231,1758078566.8243,0.0,0.0,0.0,19.53786,9.5684,3.83882,7.6,-0.71,1.08,4.0
1758078566.85797,1758078566.8343,0.0,0.0,0.0,19.88164,6.99009,2.97938,7.6,-0.71,1.08,4.0
1758078566.85987,1758078566.8443,0.0,0.0,0.0,19.88164,4.69825,2.23454,8.0,-0.68,1.02,4.0
1758078566.87493,1758078566.8543,0.0,0.0,0.0,19.70975,2.97938,1.77617,8.0,-0.68,1.02,4.0
1758078566.87584,1758078566.8643,0.0,0.0,0.0,18.90761,0.51566,1.77617,8.64,-0.53,0.78,4.0
1758078566.89493,1758078566.8743,0.0,0.0,0.0,18.16276,-0.97403,2.00535,8.96,-0.43,0.67,4.0
1758078566.91156,1758078566.8843,0.0,0.0,0.0,17.47521,-2.6929,2.57831,8.96,-0.43,0.67,4.0
1758078566.91431,1758078566.8943,0.0,0.0,0.0,16.73037,-3.38045,2.86479,9.19,-0.46,0.6,4.0
1758078566.93124,1758078566.9043,0.0,0.0,0.0,16.50119,-4.29718,3.32316,9.19,-0.46,0.6,4.0
1758078566.93481,1758078566.9143,0.0,0.0,0.0,16.272,-4.23989,3.32316,9.35,-0.56,0.62,4.0
1758078566.95151,1758078566.9243,0.0,0.0,0.0,16.21471,-3.89611,3.49504,9.35,-0.56,0.62,4.0
1758078566.95433,1758078566.9343,0.0,0.0,0.0,15.41257,-4.52637,2.97938,9.46,-0.58,0.57,4.0
1758078566.97124,1758078566.9443,0.0,0.0,0.0,14.9542,-4.23989,2.06265,9.26,-0.51,0.43,4.0
1758078566.97748,1758078566.9543,0.0,0.0,0.0,14.66772,-4.58366,1.71887,9.26,-0.51,0.43,4.0
1758078566.97862,1758078566.9643,0.0,0.0,0.0,14.32395,-3.72423,1.20321,9.22,-0.44,0.25,4.0
1758078567.00166,1758078566.9743,0.0,0.0,0.0,13.46451,-2.7502,0.45837,9.22,-0.44,0.25,4.0
1758078567.00723,1758078566.9843,0.0,0.0,0.0,12.77696,-3.20856,0.0573,9.14,-0.4,0.13,4.0
1758078567.01127,1758078566.9943,0.0,0.0,0.0,12.14671,-3.89611,-0.17189,9.14,-0.4,0.13,4.0
1758078567.01595,1758078567.0043,0.0,0.0,0.0,11.22997,-4.46907,-0.40107,8.97,-0.36,0.11,4.0
1758078567.03191,1758078567.0143,0.0,0.0,0.0,10.19865,-3.83882,-0.97403,9.19,-0.41,0.18,4.0
1758078567.04797,1758078567.0243,0.0,0.0,0.0,9.91217,-3.72423,-1.43239,9.19,-0.41,0.18,4.0
1758078567.05551,1758078567.0343,0.0,0.0,0.0,9.39651,-3.66693,-2.11994,9.41,-0.51,0.36,4.0
1758078567.05861,1758078567.0443,0.0,0.0,0.0,9.33921,-4.29718,-2.6929,9.41,-0.51,0.36,4.0
1758078567.10337,1758078567.0543,0.0,0.0,0.0,8.70896,-6.41713,-3.60963,9.52,-0.52,0.47,4.0
1758078567.11186,1758078567.0643,0.0,0.0,0.0,8.136,-7.96411,-4.18259,9.52,-0.52,0.47,4.0
1758078567.11221,1758078567.0743,0.0,0.0,0.0,7.73493,-9.39651,-4.52637,9.57,-0.47,0.53,4.0
1758078567.1142,1758078567.0843,0.0,0.0,0.0,6.99009,-10.08406,-4.81285,9.57,-0.47,0.53,4.0
1758078567.11483,1758078567.0943,0.0,0.0,0.0,5.84417,-10.31324,-4.29718,9.57,-0.41,0.57,4.0
1758078567.11648,1758078567.1043,0.0,0.0,0.0,5.09932,-10.8862,-4.0107,9.41,-0.31,0.53,4.0
1758078567.13196,1758078567.1143,0.0,0.0,0.0,3.95341,-11.80293,-3.89611,9.41,-0.31,0.53,4.0
1758078567.14894,1758078567.1243,0.0,0.0,0.0,2.40642,-12.43318,-4.0107,9.11,-0.22,0.51,4.0
1758078567.15428,1758078567.1343,0.0,0.0,0.0,1.3751,-13.17803,-4.29718,9.11,-0.22,0.51,4.0
1758078567.1706,1758078567.1443,0.0,0.0,0.0,0.68755,-12.204,-4.69825,8.96,-0.22,0.45,4.0
1758078567.17398,1758078567.1543,0.0,0.0,0.0,0.22918,-9.68299,-5.27121,8.96,-0.22,0.45,4.0
1758078567.18902,1758078567.1643,0.0,0.0,0.0,0.74485,-4.23989,-6.24524,9.26,-0.32,0.33,4.0
1758078567.19427,1758078567.1743,0.0,0.0,0.0,1.08862,-1.3751,-6.99009,9.42,-0.46,0.29,4.0
1758078567.20972,1758078567.1843,0.0,0.0,0.0,1.77617,-1.08862,-7.79223,9.42,-0.46,0.29,4.0
1758078567.21173,1758078567.1943,0.0,0.0,0.0,2.57831,-3.03668,-8.47978,8.84,-0.5,0.2,4.0
1758078567.22669,1758078567.2043,0.0,0.0,0.0,3.49504,-6.70361,-9.11003,8.84,-0.5,0.2,4.0
1758078567.2319,1758078567.2143,0.0,0.0,0.0,4.1253,-8.88085,-9.11003,8.42,-0.46,-0.09,4.0
1758078567.27472,1758078567.2243,0.0,0.0,0.0,4.64096,-9.68299,-9.22462,8.42,-0.46,-0.09,4.0
1758078567.27569,1758078567.2343,0.0,0.0,0.0,5.09932,-9.68299,-9.11003,8.5,-0.43,-0.14,4.0
1758078567.27626,1758078567.2443,0.0,0.0,0.0,5.4431,-10.08406,-9.05273,8.5,-0.41,-0.15,4.0
1758078567.27835,1758078567.2543,0.0,0.0,0.0,5.27121,-10.65701,-8.99544,8.5,-0.41,-0.15,4.0
1758078567.28086,1758078567.2643,0.0,0.0,0.0,4.64096,-10.94349,-8.99544,8.28,-0.35,-0.24,4.0
1758078567.29706,1758078567.2743,0.0,0.0,0.0,4.35448,-10.8862,-8.76626,8.28,-0.35,-0.24,4.0
1758078567.29876,1758078567.2843,0.0,0.0,0.0,3.55234,-10.48513,-8.42248,8.26,-0.27,-0.32,4.0
1758078567.31375,1758078567.2943,0.0,0.0,0.0,2.7502,-10.02676,-7.96411,8.26,-0.27,-0.32,4.0
1758078567.33002,1758078567.3043,0.0,0.0,0.0,1.83346,-10.25595,-7.50575,8.23,-0.25,-0.39,4.0
1758078567.33414,1758078567.3143,0.0,0.0,0.0,0.85944,-10.65701,-7.10468,8.23,-0.25,-0.39,4.0
1758078567.3498,1758078567.3243,0.0,0.0,0.0,-0.40107,-11.80293,-5.95876,8.11,-0.27,-0.47,4.0
1758078567.35132,1758078567.3343,0.0,0.0,0.0,-1.43239,-12.49048,-5.09932,8.21,-0.24,-0.22,4.0
1758078567.36605,1758078567.3443,0.0,0.0,0.0,-2.46372,-12.89155,-4.18259,8.21,-0.24,-0.22,4.0
1758078567.37226,1758078567.3543,0.0,0.0,0.0,-4.29718,-13.40721,-2.63561,8.85,-0.09,0.36,4.0
1758078567.39142,1758078567.3643,0.0,0.0,0.0,-6.07335,-15.29797,-1.03132,8.85,-0.09,0.36,4.0
1758078567.42285,1758078567.3743,0.0,0.0,0.0,-8.25059,-17.18874,1.08862,10.06,0.28,1.7,4.0
1758078567.42332,1758078567.3843,0.0,0.0,0.0,-10.71431,-17.47521,3.55234,10.06,0.28,1.7,4.0
1758078567.43274,1758078567.3943,0.0,0.0,0.0,-15.0115,-13.40721,5.21392,12.42,0.92,2.13,4.0
1758078567.43638,1758078567.4043,0.0,0.0,0.0,-17.87628,-9.74028,4.29718,13.62,0.97,1.95,4.0
1758078567.44107,1758078567.4143,0.0,0.0,0.0,-20.16812,-8.99544,1.43239,13.62,0.97,1.95,4.0
1758078567.44147,1758078567.4243,0.0,0.0,0.0,-20.79837,-11.17268,-2.63561,12.32,0.53,1.35,4.0
1758078567.45818,1758078567.4343,0.0,0.0,0.0,-18.79302,-14.03747,-8.76626,12.32,0.53,1.35,4.0
1758078567.46142,1758078567.4443,0.0,0.0,0.0,-16.61578,-11.97482,-11.51645,11.06,-0.06,0.61,4.0
1758078567.47687,1758078567.4543,0.0,0.0,0.0,-14.72501,-7.16197,-12.08941,11.06,-0.06,0.61,4.0
1758078567.48073,1758078567.4643,0.0,0.0,0.0,-13.34992,-4.18259,-9.62569,12.34,-0.26,1.78,4.0
1758078567.49614,1758078567.4743,0.0,0.0,0.0,-12.71966,-5.27121,-1.20321,15.42,0.77,3.26,4.0
1758078567.49704,1758078567.4843,0.0,0.0,0.0,-12.43318,-12.08941,5.4431,15.42,0.77,3.26,4.0
1758078567.51215,1758078567.4943,0.0,0.0,0.0,-11.86023,-22.11617,8.25059,15.42,1.77,1.01,4.0
1758078567.52884,1758078567.5043,0.0,0.0,0.0,-9.39651,-24.23611,7.10468,15.42,1.77,1.01,4.0
1758078567.53007,1758078567.5143,0.0,0.0,0.0,-7.73493,3.26586,-0.22918,14.05,0.08,-0.41,4.0
1758078567.54507,1758078567.5243,0.0,0.0,0.0,-5.55769,22.05888,-3.09397,14.05,0.08,-0.41,4.0
1758078567.54921,1758078567.5343,0.0,0.0,0.0,-2.97938,31.91375,-5.4431,13.3,-1.4,0.81,4.0
1758078567.5661,1758078567.5443,0.0,0.0,0.0,0.34377,35.69527,-5.50039,13.3,-1.4,0.81,4.0
1758078567.58167,1758078567.5543,0.0,0.0,0.0,2.29183,35.3515,-3.32316,11.41,-1.4,1.42,4.0
1758078567.60135,1758078567.5643,0.0,0.0,0.0,4.23989,34.32018,-0.57296,11.45,-0.26,0.54,4.0
1758078567.60322,1758078567.5743,0.0,0.0,0.0,5.84417,33.23156,1.66158,11.45,-0.26,0.54,4.0
1758078567.60558,1758078567.5843,0.0,0.0,0.0,8.0787,30.48136,4.1253,11.72,0.6,0.99,4.0
1758078567.60661,1758078567.5943,0.0,0.0,0.0,9.39651,28.76248,4.58366,11.72,0.6,0.99,4.0
1758078567.62213,1758078567.6043,0.0,0.0,0.0,10.71431,27.44468,4.23989,11.27,0.55,0.97,4.0
1758078567.63786,1758078567.6143,0.0,0.0,0.0,12.08941,25.7831,3.38045,11.27,0.55,0.97,4.0
1758078567.64177,1758078567.6243,0.0,0.0,0.0,14.03747,23.54857,1.20321,10.52,0.03,0.76,4.0
1758078567.65711,1758078567.6343,0.0,0.0,0.0,15.41257,21.60051,-0.34377,9.95,-0.33,0.78,4.0
1758078567.65889,1758078567.6443,0.0,0.0,0.0,17.13144,19.42327,-1.77617,9.95,-0.33,0.78,4.0
1758078567.67423,1758078567.6543,0.0,0.0,0.0,18.79302,17.01685,-2.86479,9.56,-0.36,0.87,4.0
1758078567.69009,1758078567.6643,0.0,0.0,0.0,21.25674,13.80828,-3.26586,9.56,-0.36,0.87,4.0
1758078567.69221,1758078567.6743,0.0,0.0,0.0,22.28806,12.14671,-2.6929,9.37,-0.04,0.97,4.0
1758078567.70691,1758078567.6843,0.0,0.0,0.0,23.31938,9.74028,-1.94806,9.37,-0.04,0.97,4.0
1758078567.70812,1758078567.6943,0.0,0.0,0.0,23.83505,9.28192,-0.85944,9.18,0.33,1.02,4.0
1758078567.72302,1758078567.7043,0.0,0.0,0.0,24.29341,9.11003,0.57296,9.17,0.58,0.89,4.0
1758078567.7399,1758078567.7143,0.0,0.0,0.0,24.23611,9.39651,1.48969,9.17,0.58,0.89,4.0
1758078567.74115,1758078567.7243,0.0,0.0,0.0,24.00693,10.08406,2.29183,9.15,0.65,0.66,4.0
1758078567.75695,1758078567.7343,0.0,0.0,0.0,23.54857,10.71431,2.63561,9.15,0.65,0.66,4.0
1758078567.75864,1758078567.7443,0.0,0.0,0.0,22.40265,13.40721,2.97938,9.25,0.61,0.36,4.0
1758078567.77621,1758078567.7543,0.0,0.0,0.0,21.60051,15.58445,3.20856,9.25,0.61,0.36,4.0
1758078567.77756,1758078567.7643,0.0,0.0,0.0,20.74107,17.76169,3.38045,9.3,0.49,0.32,4.0
1758078567.79559,1758078567.7743,0.0,0.0,0.0,19.70975,20.22541,3.83882,9.3,0.49,0.32,4.0
1758078567.84617,1758078567.7843,0.0,0.0,0.0,19.13679,19.82434,3.95341,8.99,0.42,0.26,4.0
1758078567.8524,1758078567.7943,0.0,0.0,0.0,18.50654,17.6471,4.23989,8.28,0.43,0.15,4.0
1758078567.85647,1758078567.8043,0.0,0.0,0.0,18.10547,14.15206,4.87014,8.28,0.43,0.15,4.0
1758078567.8574,1758078567.8143,0.0,0.0,0.0,17.36062,6.53172,5.55769,7.71,0.45,0.05,4.0
1758078567.86551,1758078567.8243,0.0,0.0,0.0,16.61578,2.06265,6.18794,7.71,0.45,0.05,4.0
1758078567.86801,1758078567.8343,0.0,0.0,0.0,15.35527,-1.66158,6.70361,7.89,0.62,-0.31,4.0
1758078567.86916,1758078567.8443,0.0,0.0,0.0,13.86558,-4.1253,6.7609,7.89,0.62,-0.31,4.0
1758078567.86951,1758078567.8543,0.0,0.0,0.0,11.57375,-7.39116,6.53172,8.23,0.81,-0.34,4.0
1758078567.88598,1758078567.8643,0.0,0.0,0.0,10.02676,-9.33921,6.13065,7.99,0.91,-0.07,4.0
1758078567.88716,1758078567.8743,0.0,0.0,0.0,8.99544,-12.2613,5.50039,7.99,0.91,-0.07,4.0
1758078567.90231,1758078567.8843,0.0,0.0,0.0,8.02141,-15.41257,4.98473,7.6,0.87,0.38,4.0
1758078567.92082,1758078567.8943,0.0,0.0,0.0,6.41713,-18.9649,4.58366,7.6,0.87,0.38,4.0
1758078567.92175,1758078567.9043,0.0,0.0,0.0,5.15662,-19.70975,4.69825,7.74,0.76,0.46,4.0
1758078567.9373,1758078567.9143,0.0,0.0,0.0,3.83882,-18.9649,5.09932,7.74,0.76,0.46,4.0
1758078567.93817,1758078567.9243,0.0,0.0,0.0,2.34913,-17.87628,5.55769,8.27,0.73,0.2,4.0
1758078567.95409,1758078567.9343,0.0,0.0,0.0,0.45837,-16.67307,6.41713,8.49,0.71,0.19,4.0
1758078567.97083,1758078567.9443,0.0,0.0,0.0,-0.68755,-17.30333,7.10468,8.49,0.71,0.19,4.0
1758078567.97394,1758078567.9543,0.0,0.0,0.0,-1.48969,-18.85031,7.21927,8.33,0.61,0.16,4.0
1758078567.99006,1758078567.9643,0.0,0.0,0.0,-2.40642,-24.17882,7.04738,8.33,0.61,0.16,4.0
1758078567.99099,1758078567.9743,0.0,0.0,0.0,-2.46372,-32.71589,7.04738,7.91,0.56,0.06,4.0
1758078568.00768,1758078567.9843,0.0,0.0,0.0,-2.86479,-35.2369,6.7609,7.91,0.56,0.06,4.0
1758078568.00906,1758078567.9943,0.0,0.0,0.0,-2.86479,-36.03905,6.87549,8.41,0.56,0.06,4.0
1758078568.02434,1758078568.0043,0.0,0.0,0.0,-2.92208,-34.95043,6.99009,8.41,0.56,0.06,4.0
1758078568.026,1758078568.0143,0.0,0.0,0.0,-2.97938,-34.09099,6.7609,8.84,0.62,0.04,4.0
1758078568.04225,1758078568.0243,0.0,0.0,0.0,-3.20856,-32.77319,6.70361,8.64,0.68,-0.09,4.0
1758078568.05815,1758078568.0343,0.0,0.0,0.0,-3.55234,-30.65324,6.24524,8.64,0.68,-0.09,4.0
1758078568.08615,1758078568.0443,0.0,0.0,0.0,-3.89611,-22.57454,6.8182,8.51,0.56,-0.2,4.0
1758078568.08678,1758078568.0543,0.0,0.0,0.0,-3.72423,-15.24068,6.87549,8.51,0.56,-0.2,4.0
1758078568.09202,1758078568.0643,0.0,0.0,0.0,-3.26586,-11.45916,6.18794,8.58,0.33,-0.36,4.0
1758078568.09262,1758078568.0743,0.0,0.0,0.0,-1.43239,-14.15206,7.04738,8.58,0.33,-0.36,4.0
1758078568.10977,1758078568.0843,0.0,0.0,0.0,2.63561,-13.5218,8.136,7.83,0.1,-0.58,4.0
1758078568.11185,1758078568.0943,0.0,0.0,0.0,6.35983,-13.06344,8.76626,8.31,-0.25,-1.21,4.0
1758078568.12729,1758078568.1043,0.0,0.0,0.0,9.91217,-12.60507,8.59437,8.31,-0.25,-1.21,4.0
1758078568.13175,1758078568.1143,0.0,0.0,0.0,13.5791,-12.71966,8.42248,8.59,-0.63,-1.01,4.0
1758078568.14738,1758078568.1243,0.0,0.0,0.0,18.73572,-13.5791,6.7609,8.59,-0.63,-1.01,4.0
1758078568.14868,1758078568.1343,0.0,0.0,0.0,21.37133,-15.35527,4.69825,9.55,-1.02,0.36,4.0
1758078568.1661,1758078568.1443,0.0,0.0,0.0,23.72045,-18.16276,2.00535,9.55,-1.02,0.36,4.0
1758078568.17061,1758078568.1543,0.0,0.0,0.0,26.35606,-20.85567,-1.43239,11.62,-1.35,2.54,4.0
1758078568.18633,1758078568.1643,0.0,0.0,0.0,30.13758,-28.76248,-6.87549,14.05,-1.85,3.78,4.0
1758078568.19131,1758078568.1743,0.0,0.0,0.0,32.88778,-37.98711,-9.33921,14.05,-1.85,3.78,4.0
1758078568.2064,1758078568.1843,0.0,0.0,0.0,34.72124,-46.75336,-11.11538,13.78,-1.48,2.85,4.0
1758078568.22963,1758078568.1943,0.0,0.0,0.0,38.21629,-43.60209,-9.85487,13.78,-1.48,2.85,4.0
1758078568.23021,1758078568.2043,0.0,0.0,0.0,39.87786,-30.99702,-7.50575,14.74,-1.02,1.0,4.0
1758078568.23147,1758078568.2143,0.0,0.0,0.0,41.02378,-19.76705,-4.23989,14.74,-1.02,1.0,4.0
1758078568.24747,1758078568.2243,0.0,0.0,0.0,41.99781,-12.71966,-1.20321,15.22,-0.9,0.34,4.0
1758078568.2483,1758078568.2343,0.0,0.0,0.0,42.85724,-0.51566,2.46372,15.22,-0.9,-0.21,4.0
1758078568.26309,1758078568.2443,0.0,0.0,0.0,43.14373,7.84952,4.1253,14.46,-0.5,-0.21,4.0
1758078568.27914,1758078568.2543,0.0,0.0,0.0,42.91454,15.58445,5.32851,14.2,-0.56,-0.54,4.0
1758078568.28186,1758078568.2643,0.0,0.0,0.0,41.99781,22.11617,4.64096,14.2,-0.56,-0.54,4.0
1758078568.2974,1758078568.2743,0.0,0.0,0.0,40.04975,27.1582,3.03668,14.45,-0.92,0.0,4.0
1758078568.29916,1758078568.2843,0.0,0.0,0.0,38.90384,27.96034,0.68755,14.45,-0.92,0.0,4.0
1758078568.31493,1758078568.2943,0.0,0.0,0.0,38.27358,24.92367,-1.60428,14.69,-0.94,0.72,4.0
1758078568.31641,1758078568.3043,0.0,0.0,0.0,38.44547,22.23076,-3.60963,14.69,-0.94,0.72,4.0
1758078568.33423,1758078568.3143,0.0,0.0,0.0,40.27893,24.98096,-4.1253,14.02,-0.67,0.87,4.0
1758078568.35036,1758078568.3243,0.0,0.0,0.0,40.68,29.67921,-3.55234,13.4,-0.71,0.81,4.0
1758078568.35137,1758078568.3343,0.0,0.0,0.0,40.68,31.2262,-1.60428,13.4,-0.71,0.81,4.0
1758078568.36619,1758078568.3443,0.0,0.0,0.0,40.16434,30.30947,0.51566,11.63,-0.75,1.02,4.0
1758078568.36847,1758078568.3543,0.0,0.0,0.0,39.4768,26.12688,3.89611,11.63,-0.75,1.02,4.0
1758078568.42914,1758078568.3643,0.0,0.0,0.0,39.13302,22.68913,5.55769,10.17,-0.75,1.0,4.0
1758078568.43095,1758078568.3743,0.0,0.0,0.0,38.90384,18.73572,6.47442,10.17,-0.75,1.0,4.0
1758078568.43198,1758078568.3843,0.0,0.0,0.0,38.61736,16.04282,6.99009,9.15,-0.71,0.9,4.0
1758078568.43366,1758078568.3943,0.0,0.0,0.0,38.21629,13.75099,6.8182,8.46,-0.68,0.91,4.0
1758078568.43423,1758078568.4043,0.0,0.0,0.0,37.75792,12.37589,6.7609,8.46,-0.68,0.91,4.0
1758078568.43541,1758078568.4143,0.0,0.0,0.0,37.01308,11.74564,6.70361,7.86,-0.62,0.97,4.0
1758078568.4504,1758078568.4243,0.0,0.0,0.0,35.75257,10.71431,6.70361,7.86,-0.62,0.97,4.0
1758078568.45175,1758078568.4343,0.0,0.0,0.0,34.89313,9.28192,6.53172,7.63,-0.5,0.9,4.0
1758078568.46625,1758078568.4443,0.0,0.0,0.0,33.86181,6.87549,6.13065,7.63,-0.5,0.9,4.0
1758078568.47146,1758078568.4543,0.0,0.0,0.0,32.83048,5.21392,5.32851,7.71,-0.4,0.68,4.0
1758078568.48652,1758078568.4643,0.0,0.0,0.0,31.2262,6.99009,3.89611,8.51,-0.4,0.42,4.0
1758078568.49173,1758078568.4743,0.0,0.0,0.0,30.48136,9.91217,3.09397,8.51,-0.33,0.42,4.0
1758078568.50667,1758078568.4843,0.0,0.0,0.0,29.73651,12.204,2.34913,9.09,-0.36,0.49,4.0
1758078568.50858,1758078568.4943,0.0,0.0,0.0,29.22085,13.23533,1.83346,9.09,-0.36,0.49,4.0
1758078568.52432,1758078568.5043,0.0,0.0,0.0,28.36141,15.46986,1.66158,9.16,-0.47,0.38,4.0
1758078568.54072,1758078568.5143,0.0,0.0,0.0,27.84575,16.61578,1.71887,9.16,-0.47,0.38,4.0
1758078568.5414,1758078568.5243,0.0,0.0,0.0,27.38738,18.27736,2.00535,9.25,-0.59,0.2,4.0
1758078568.5563,1758078568.5343,0.0,0.0,0.0,27.04361,20.34,2.29183,9.25,-0.59,0.2,4.0
1758078568.55747,1758078568.5443,0.0,0.0,0.0,27.10091,22.00158,2.7502,9.42,-0.71,0.16,4.0
1758078568.57233,1758078568.5543,0.0,0.0,0.0,27.44468,22.00158,3.09397,9.44,-0.84,0.18,4.0
1758078568.58953,1758078568.5643,0.0,0.0,0.0,28.36141,21.7151,3.09397,9.44,-0.84,0.18,4.0
1758078568.59472,1758078568.5743,0.0,0.0,0.0,29.10626,21.25674,3.20856,9.47,-0.93,0.15,4.0
1758078568.60922,1758078568.5843,0.0,0.0,0.0,30.36677,19.99623,2.6929,9.47,-0.93,0.15,4.0
1758078568.61045,1758078568.5943,0.0,0.0,0.0,30.99702,19.76705,1.94806,9.37,-0.92,0.17,4.0
