timeStamp,timeStampAlign,roll,pitch,yaw,gyro_x,gyro_y,gyro_z,acc_x,acc_y,acc_z,flag_num
1758076588.63571,1758076588.6567,0.0,0.0,0.0,47.09713,-28.41871,2.92208,11.02,-1.35,-0.21,2.0
1758076588.63768,1758076588.6667,0.0,0.0,0.0,46.2377,-36.6693,5.21392,11.02,-1.35,-0.21,2.0
1758076588.65371,1758076588.6767,0.0,0.0,0.0,43.88857,-41.25296,5.4431,11.37,-1.3,-0.83,2.0
1758076588.65567,1758076588.6867,0.0,0.0,0.0,39.99245,-37.47144,4.0107,11.37,-1.3,-0.83,2.0
1758076588.67297,1758076588.6967,0.0,0.0,0.0,38.56006,-29.50733,2.11994,12.02,-0.92,-1.79,2.0
1758076588.68871,1758076588.7067,0.0,0.0,0.0,37.29956,-21.25674,-0.51566,11.43,-0.56,-2.24,2.0
1758076588.6899,1758076588.7167,0.0,0.0,0.0,36.38282,-15.24068,-3.20856,11.43,-0.56,-2.24,2.0
1758076588.70507,1758076588.7267,0.0,0.0,0.0,34.77854,-7.39116,-5.27121,10.44,-0.47,-1.03,2.0
1758076588.70594,1758076588.7367,0.0,0.0,0.0,32.20023,-7.39116,-5.4431,10.44,-0.47,-1.03,2.0
1758076588.72779,1758076588.7467,0.0,0.0,0.0,27.1582,-10.94349,-3.03668,9.9,-0.85,1.43,2.0
1758076588.73112,1758076588.7567,0.0,0.0,0.0,19.82434,-15.46986,2.97938,9.9,-0.85,1.43,2.0
1758076588.74997,1758076588.7667,0.0,0.0,0.0,10.37054,-58.4417,19.82434,11.51,-0.12,5.31,2.0
1758076588.75149,1758076588.7767,0.0,0.0,0.0,4.18259,-92.81918,32.08564,10.01,1.27,5.9,2.0
1758076588.76706,1758076588.7867,0.0,0.0,0.0,2.63561,-113.27376,52.25375,10.01,1.27,5.9,2.0
1758076588.76796,1758076588.7967,0.0,0.0,0.0,-2.7502,-100.5541,58.84277,13.22,2.02,3.62,2.0
1758076588.78306,1758076588.8067,0.0,0.0,0.0,-7.33386,-86.34474,59.64491,13.22,2.02,3.62,2.0
1758076588.79982,1758076588.8167,0.0,0.0,0.0,-8.65166,-86.68852,54.14451,11.42,2.12,2.76,2.0
1758076588.80276,1758076588.8267,0.0,0.0,0.0,-8.02141,-83.59455,46.46688,11.42,2.12,2.76,2.0
1758076588.81779,1758076588.8367,0.0,0.0,0.0,-5.95876,-74.65641,35.98175,9.94,1.46,3.51,2.0
1758076588.82055,1758076588.8467,0.0,0.0,0.0,-0.22918,-59.24384,20.97026,10.95,0.91,2.98,2.0
1758076588.83587,1758076588.8567,0.0,0.0,0.0,3.60963,-49.84733,10.31324,10.95,0.91,2.98,2.0
1758076588.83704,1758076588.8667,0.0,0.0,0.0,7.84952,-40.85189,2.34913,11.77,0.83,3.14,2.0
1758076588.85363,1758076588.8767,0.0,0.0,0.0,11.45916,-29.22085,-6.58902,11.77,0.83,3.14,2.0
1758076588.86883,1758076588.8867,0.0,0.0,0.0,12.54778,-6.99009,-10.31324,12.91,0.54,1.68,2.0
1758076588.87002,1758076588.8967,0.0,0.0,0.0,12.54778,5.55769,-11.97482,12.91,0.54,1.68,2.0
1758076588.88485,1758076588.9067,0.0,0.0,0.0,12.08941,16.84496,-11.91752,11.96,0.29,0.59,2.0
1758076588.88645,1758076588.9167,0.0,0.0,0.0,11.80293,32.6013,-9.74028,11.96,0.29,0.59,2.0
1758076588.90368,1758076588.9267,0.0,0.0,0.0,13.23533,42.57077,-6.24524,10.74,0.09,0.06,2.0
1758076588.9062,1758076588.9367,0.0,0.0,0.0,13.12073,53.80074,-4.69825,9.97,0.1,-0.15,2.0
1758076588.92264,1758076588.9467,0.0,0.0,0.0,13.86558,62.5097,-1.66158,9.97,0.1,-0.15,2.0
1758076588.94014,1758076588.9567,0.0,0.0,0.0,13.80828,75.34396,1.43239,8.97,0.27,0.02,2.0
1758076588.94093,1758076588.9667,0.0,0.0,0.0,14.83961,80.0995,4.1253,8.97,0.27,0.02,2.0
1758076588.95624,1758076588.9767,0.0,0.0,0.0,15.35527,83.47996,5.15662,8.17,0.51,0.55,2.0
1758076588.95791,1758076588.9867,0.0,0.0,0.0,15.92823,86.63122,5.84417,8.17,0.51,0.55,2.0
1758076588.97367,1758076588.9967,0.0,0.0,0.0,16.10011,90.58463,6.87549,7.9,0.56,1.14,2.0
1758076588.98998,1758076589.0067,0.0,0.0,0.0,15.64175,90.92841,8.36518,7.44,0.71,0.7,2.0
1758076588.9914,1758076589.0167,0.0,0.0,0.0,14.66772,88.06361,10.31324,7.44,0.71,0.7,2.0
1758076589.00596,1758076589.0267,0.0,0.0,0.0,12.54778,85.42801,10.65701,7.43,0.76,0.81,2.0
1758076589.00787,1758076589.0367,0.0,0.0,0.0,8.76626,78.38063,10.71431,7.43,0.76,0.81,2.0
1758076589.02319,1758076589.0467,0.0,0.0,0.0,6.13065,71.67702,10.08406,7.86,0.82,0.68,2.0
1758076589.04021,1758076589.0567,0.0,0.0,0.0,3.38045,65.2026,8.88085,7.86,0.82,0.68,2.0
1758076589.0419,1758076589.0667,0.0,0.0,0.0,1.03132,58.90006,5.95876,8.32,0.9,0.9,2.0
1758076589.0572,1758076589.0767,0.0,0.0,0.0,-1.03132,47.38361,3.49504,8.47,0.97,1.16,2.0
1758076589.05994,1758076589.0867,0.0,0.0,0.0,-1.83346,37.01308,0.57296,8.47,0.97,1.16,2.0
1758076589.07523,1758076589.0967,0.0,0.0,0.0,-2.63561,25.09555,-1.83346,8.38,0.95,1.1,2.0
1758076589.07614,1758076589.1067,0.0,0.0,0.0,-5.21392,13.17803,-4.81285,8.38,0.95,1.1,2.0
1758076589.09524,1758076589.1167,0.0,0.0,0.0,-7.44845,7.84952,-4.98473,9.2,0.87,0.63,2.0
1758076589.09721,1758076589.1267,0.0,0.0,0.0,-10.37054,2.7502,-4.87014,9.2,0.87,0.63,2.0
1758076589.11309,1758076589.1367,0.0,0.0,0.0,-14.09476,-2.29183,-4.46907,9.53,0.79,0.25,2.0
1758076589.12899,1758076589.1467,0.0,0.0,0.0,-19.19409,-13.12073,-4.64096,9.53,0.79,0.12,2.0
1758076589.13568,1758076589.1567,0.0,0.0,0.0,-21.08485,-24.92367,-4.46907,9.49,0.84,0.12,2.0
1758076589.13634,1758076589.1667,0.0,0.0,0.0,-21.7151,-39.01843,-3.66693,9.21,0.9,-0.45,2.0
1758076589.15526,1758076589.1767,0.0,0.0,0.0,-22.40265,-48.58683,-1.48969,9.21,0.9,-0.45,2.0
1758076589.15667,1758076589.1867,0.0,0.0,0.0,-23.66316,-53.11319,2.7502,10.51,0.73,-0.62,2.0
1758076589.17383,1758076589.1967,0.0,0.0,0.0,-25.43933,-44.63341,4.87014,10.51,0.73,-0.62,2.0
1758076589.19002,1758076589.2067,0.0,0.0,0.0,-27.73116,-18.27736,2.11994,13.25,1.11,0.0,2.0
1758076589.19526,1758076589.2167,0.0,0.0,0.0,-29.50733,2.11994,5.21392,13.25,1.11,0.0,2.0
1758076589.2111,1758076589.2267,0.0,0.0,0.0,-30.65324,-15.35527,6.99009,13.77,0.99,0.54,2.0
1758076589.21553,1758076589.2367,0.0,0.0,0.0,-37.87251,-29.50733,2.97938,9.46,1.31,0.78,2.0
1758076589.23002,1758076589.2467,0.0,0.0,0.0,-42.1124,-30.25217,2.6929,9.46,1.31,0.78,2.0
1758076589.2355,1758076589.2567,0.0,0.0,0.0,-45.37826,-33.23156,1.20321,10.32,1.33,-1.15,2.0
1758076589.25035,1758076589.2667,0.0,0.0,0.0,-48.58683,-29.39274,1.66158,10.32,1.33,-1.15,2.0
1758076589.2556,1758076589.2767,0.0,0.0,0.0,-49.84733,-30.82513,2.23454,9.13,1.31,-0.67,2.0
1758076589.27008,1758076589.2867,0.0,0.0,0.0,-48.9879,-39.76327,2.06265,9.13,1.31,-0.67,2.0
1758076589.27555,1758076589.2967,0.0,0.0,0.0,-44.00316,-52.71212,-0.85944,7.77,1.04,1.33,2.0
1758076589.29098,1758076589.3067,0.0,0.0,0.0,-35.98175,-87.08958,-5.90147,8.4,0.03,4.13,2.0
1758076589.29526,1758076589.3167,0.0,0.0,0.0,-29.56462,-114.53426,-18.33465,8.4,0.03,4.13,2.0
1758076589.31096,1758076589.3267,0.0,0.0,0.0,-22.68913,-120.55033,-31.91375,11.72,-1.76,5.8,2.0
1758076589.31527,1758076589.3367,0.0,0.0,0.0,-11.17268,-107.94526,-45.03448,11.72,-1.76,5.8,2.0
1758076589.33012,1758076589.3467,0.0,0.0,0.0,-4.64096,-101.92919,-47.26902,13.28,-3.22,4.29,2.0
1758076589.33237,1758076589.3567,0.0,0.0,0.0,-0.34377,-101.58542,-46.2377,13.28,-3.22,4.29,2.0
1758076589.34839,1758076589.3667,0.0,0.0,0.0,1.77617,-98.72063,-42.97184,9.86,-3.68,3.94,2.0
1758076589.3501,1758076589.3767,0.0,0.0,0.0,-1.03132,-84.28209,-32.54401,10.55,-3.68,3.18,2.0
1758076589.36514,1758076589.3867,0.0,0.0,0.0,-2.40642,-72.70835,-22.51724,10.55,-2.38,3.18,2.0
1758076589.3683,1758076589.3967,0.0,0.0,0.0,-4.52637,-62.56699,-10.71431,12.1,-0.63,2.3,2.0
1758076589.38721,1758076589.4067,0.0,0.0,0.0,-5.27121,-50.01921,0.45837,12.1,-0.63,2.3,2.0
1758076589.39481,1758076589.4167,0.0,0.0,0.0,-4.1253,-23.66316,12.77696,14.34,0.5,1.24,2.0
1758076589.43546,1758076589.4267,0.0,0.0,0.0,-2.00535,-5.55769,16.73037,14.34,0.5,1.24,2.0
1758076589.44068,1758076589.4367,0.0,0.0,0.0,0.45837,9.96947,17.18874,14.17,0.75,0.04,2.0
1758076589.44106,1758076589.4467,0.0,0.0,0.0,3.26586,23.66316,14.49583,14.17,0.75,0.04,2.0
1758076589.44501,1758076589.4567,0.0,0.0,0.0,6.41713,41.36755,9.33921,11.97,0.25,-0.07,2.0
1758076589.4454,1758076589.4667,0.0,0.0,0.0,8.02141,51.79538,5.95876,10.58,-0.48,-0.2,2.0
1758076589.44916,1758076589.4767,0.0,0.0,0.0,8.36518,62.68159,2.86479,10.58,-0.48,-0.2,2.0
1758076589.46541,1758076589.4867,0.0,0.0,0.0,8.65166,72.13539,-0.68755,9.69,-0.93,-0.09,2.0
1758076589.46641,1758076589.4967,0.0,0.0,0.0,8.76626,81.24542,-3.03668,9.69,-0.93,-0.09,2.0
1758076589.55021,1758076589.5067,0.0,0.0,0.0,9.28192,84.39669,-4.58366,8.55,-1.02,0.34,2.0
1758076589.5545,1758076589.5167,0.0,0.0,0.0,9.33921,87.77714,-6.18794,8.55,-1.02,0.34,2.0
1758076589.55592,1758076589.5267,0.0,0.0,0.0,9.74028,92.41809,-7.96411,8.14,-0.95,0.64,2.0
1758076589.56196,1758076589.5367,0.0,0.0,0.0,11.11538,92.13161,-8.70896,7.66,-0.91,0.95,2.0
1758076589.56577,1758076589.5467,0.0,0.0,0.0,12.89155,90.24085,-9.68299,7.66,-0.91,0.95,2.0
1758076589.56734,1758076589.5567,0.0,0.0,0.0,15.29797,86.74582,-10.02676,7.13,-0.88,1.0,2.0
1758076589.56957,1758076589.5667,0.0,0.0,0.0,19.59516,74.771,-10.19865,7.13,-0.88,1.0,2.0
1758076589.57077,1758076589.5767,0.0,0.0,0.0,23.0902,65.03072,-9.11003,6.81,-0.83,1.01,2.0
1758076589.57585,1758076589.5867,0.0,0.0,0.0,26.35606,57.18119,-7.33386,6.81,-0.83,1.01,2.0
1758076589.5774,1758076589.5967,0.0,0.0,0.0,29.56462,50.93595,-4.58366,7.5,-0.92,0.77,2.0
1758076589.58105,1758076589.6067,0.0,0.0,0.0,33.86181,40.45082,0.57296,8.29,-1.16,0.93,2.0
1758076589.60057,1758076589.6167,0.0,0.0,0.0,37.01308,33.11696,4.92744,8.29,-1.16,0.93,2.0
1758076589.60572,1758076589.6267,0.0,0.0,0.0,39.99245,29.50733,9.5684,8.96,-1.24,0.79,2.0
1758076589.62058,1758076589.6367,0.0,0.0,0.0,42.91454,28.41871,13.80828,8.96,-1.24,0.79,2.0
1758076589.62231,1758076589.6467,0.0,0.0,0.0,46.35228,25.72581,18.79302,9.53,-1.05,0.37,2.0
1758076589.63729,1758076589.6567,0.0,0.0,0.0,48.58683,22.34536,20.85567,9.53,-1.05,0.37,2.0
1758076589.63927,1758076589.6667,0.0,0.0,0.0,50.82136,18.79302,22.34536,9.67,-0.84,0.31,2.0
1758076589.65539,1758076589.6767,0.0,0.0,0.0,52.48294,13.86558,22.34536,9.67,-0.84,0.31,2.0
1758076589.65738,1758076589.6867,0.0,0.0,0.0,54.431,4.58366,20.79837,9.85,-0.74,-0.08,2.0
1758076589.67367,1758076589.6967,0.0,0.0,0.0,54.25911,-6.41713,18.10547,9.6,-0.44,-0.34,2.0
1758076589.69058,1758076589.7067,0.0,0.0,0.0,52.19646,-15.64175,14.20935,9.6,-0.44,-0.34,2.0
1758076589.69501,1758076589.7167,0.0,0.0,0.0,48.58683,-17.01685,6.99009,10.13,0.02,-0.78,2.0
1758076589.71036,1758076589.7267,0.0,0.0,0.0,45.26366,-5.21392,2.06265,10.13,0.02,-0.78,2.0
1758076589.71344,1758076589.7367,0.0,0.0,0.0,43.14373,4.92744,-0.34377,11.64,0.35,-0.57,2.0
1758076589.72914,1758076589.7467,0.0,0.0,0.0,40.7373,16.10011,-3.60963,11.64,0.35,-0.57,2.0
1758076589.73033,1758076589.7567,0.0,0.0,0.0,37.18496,29.39274,-8.88085,11.77,0.31,0.57,2.0
1758076589.74533,1758076589.7667,0.0,0.0,0.0,34.32018,28.36141,-14.32395,10.71,0.3,0.93,2.0
1758076589.74738,1758076589.7767,0.0,0.0,0.0,34.37747,-2.7502,-14.72501,10.71,0.3,0.93,2.0
1758076589.76351,1758076589.7867,0.0,0.0,0.0,38.27358,-37.87251,-14.66772,6.8,0.01,-0.35,2.0
1758076589.78066,1758076589.7967,0.0,0.0,0.0,38.61736,-48.9879,-3.26586,6.8,0.01,-0.35,2.0
1758076589.78159,1758076589.8067,0.0,0.0,0.0,38.90384,-35.92446,-1.71887,10.82,-0.89,-1.04,2.0
1758076589.79665,1758076589.8167,0.0,0.0,0.0,41.48215,-23.89234,2.06265,10.82,-0.89,-1.04,2.0
1758076589.79759,1758076589.8267,0.0,0.0,0.0,42.91454,-20.97026,2.34913,10.65,-1.01,-1.81,2.0
1758076589.81401,1758076589.8367,0.0,0.0,0.0,41.08107,-25.15285,2.86479,8.78,-0.96,1.21,2.0
1758076589.82967,1758076589.8467,0.0,0.0,0.0,36.49741,-33.74722,4.23989,8.78,-0.96,1.21,2.0
1758076589.83061,1758076589.8567,0.0,0.0,0.0,29.8511,-52.71212,8.30789,9.53,-0.49,3.69,2.0
1758076589.84566,1758076589.8667,0.0,0.0,0.0,22.91831,-76.54716,19.36597,9.53,-0.49,3.69,2.0
1758076589.84777,1758076589.8767,0.0,0.0,0.0,10.37054,-87.77714,40.68,13.07,0.41,5.6,2.0
1758076589.86548,1758076589.8867,0.0,0.0,0.0,0.51566,-87.0323,50.93595,13.07,0.41,5.6,2.0
1758076589.86681,1758076589.8967,0.0,0.0,0.0,-8.47978,-82.96429,55.6915,14.36,1.97,5.16,2.0
1758076589.88431,1758076589.9067,0.0,0.0,0.0,-15.64175,-79.06818,53.51426,14.36,1.97,5.16,2.0
1758076589.90071,1758076589.9167,0.0,0.0,0.0,-21.94428,-78.7817,49.56085,10.88,3.13,4.15,2.0
1758076589.90351,1758076589.9267,0.0,0.0,0.0,-21.37133,-75.97421,43.60209,8.77,2.69,4.34,2.0
1758076589.91872,1758076589.9367,0.0,0.0,0.0,-17.30333,-69.15601,35.2942,8.77,2.69,4.34,2.0
1758076589.92079,1758076589.9467,0.0,0.0,0.0,-6.35983,-57.46767,19.70975,9.67,1.13,4.03,2.0
1758076589.93541,1758076589.9567,0.0,0.0,0.0,0.57296,-48.35764,8.93814,9.67,1.13,4.03,2.0
1758076589.93666,1758076589.9667,0.0,0.0,0.0,5.72958,-34.60666,-1.3751,11.79,-0.47,3.0,2.0
1758076589.95359,1758076589.9767,0.0,0.0,0.0,8.70896,-18.73572,-10.08406,11.79,-0.47,3.0,2.0
1758076589.96976,1758076589.9867,0.0,0.0,0.0,10.31324,2.11994,-18.73572,13.75,-1.5,1.55,2.0
1758076589.97068,1758076589.9967,0.0,0.0,0.0,10.8289,14.09476,-20.51189,12.62,-1.83,0.22,2.0
1758076589.98574,1758076590.0067,0.0,0.0,0.0,10.65701,26.35606,-20.11082,12.62,-1.83,0.22,2.0
1758076589.98669,1758076590.0167,0.0,0.0,0.0,10.25595,38.21629,-18.16276,11.49,-1.43,-0.08,2.0
1758076590.00255,1758076590.0267,0.0,0.0,0.0,10.59972,54.431,-13.69369,11.49,-1.43,-0.08,2.0
1758076590.02035,1758076590.0367,0.0,0.0,0.0,10.94349,63.31184,-10.19865,10.34,-0.54,0.03,2.0
1758076590.02131,1758076590.04669,0.0,0.0,0.0,11.22997,71.39055,-5.50039,10.34,-0.54,0.03,2.0
1758076590.04015,1758076590.05669,0.0,0.0,0.0,11.97482,75.34396,-2.57831,8.84,0.37,0.54,2.0
1758076590.04138,1758076590.06669,0.0,0.0,0.0,12.83425,80.38599,1.66158,7.91,0.86,1.47,2.0
1758076590.05766,1758076590.07669,0.0,0.0,0.0,12.89155,80.55787,3.49504,7.91,0.86,1.47,2.0
1758076590.06098,1758076590.08669,0.0,0.0,0.0,12.2613,77.92226,4.35448,7.0,1.38,1.33,2.0
1758076590.07737,1758076590.09669,0.0,0.0,0.0,11.45916,73.16672,5.50039,7.0,1.38,1.33,2.0
1758076590.08013,1758076590.10669,0.0,0.0,0.0,7.62034,66.06203,5.55769,6.91,1.67,1.26,2.0
1758076590.09583,1758076590.11669,0.0,0.0,0.0,4.52637,63.31184,4.64096,6.91,1.67,1.26,2.0
1758076590.09865,1758076590.12669,0.0,0.0,0.0,0.97403,60.61894,2.46372,7.81,1.64,0.4,2.0
1758076590.11581,1758076590.13669,0.0,0.0,0.0,-4.92744,57.18119,-0.80214,7.81,1.64,0.4,2.0
1758076590.11677,1758076590.14669,0.0,0.0,0.0,-8.93814,50.64947,-3.95341,8.54,1.5,0.2,2.0
1758076590.1336,1758076590.15669,0.0,0.0,0.0,-13.17803,48.30034,-8.136,9.47,1.13,0.64,2.0
1758076590.15068,1758076590.16669,0.0,0.0,0.0,-16.73037,46.35228,-12.77696,9.47,1.13,0.64,2.0
1758076590.15325,1758076590.17669,0.0,0.0,0.0,-20.45459,42.62806,-17.87628,9.94,0.64,0.78,2.0
1758076590.16858,1758076590.18669,0.0,0.0,0.0,-22.57454,42.05511,-19.99623,9.94,0.64,0.78,2.0
1758076590.16994,1758076590.19669,0.0,0.0,0.0,-24.5226,41.76862,-20.11082,10.17,0.38,0.85,2.0
1758076590.18465,1758076590.20669,0.0,0.0,0.0,-26.24147,39.53409,-18.85031,10.17,0.38,0.85,2.0
1758076590.2009,1758076590.21669,0.0,0.0,0.0,-28.59059,29.96569,-15.24068,9.74,0.4,0.62,2.0
1758076590.20294,1758076590.22669,0.0,0.0,0.0,-29.27814,17.58981,-12.08941,8.63,0.46,0.46,2.0
1758076590.21789,1758076590.23669,0.0,0.0,0.0,-29.56462,1.14592,-8.36518,8.63,0.46,0.46,2.0
1758076590.22038,1758076590.24669,0.0,0.0,0.0,-28.93437,-14.43854,-4.29718,7.83,0.46,-0.44,2.0
1758076590.23673,1758076590.25669,0.0,0.0,0.0,-27.73116,-28.99167,1.60428,7.83,0.46,-0.44,2.0
1758076590.23766,1758076590.26669,0.0,0.0,0.0,-27.38738,-34.26288,5.95876,8.67,0.24,-0.78,2.0
1758076590.25271,1758076590.27669,0.0,0.0,0.0,-27.84575,-31.11161,9.4538,8.67,0.24,-0.78,2.0
1758076590.26947,1758076590.28669,0.0,0.0,0.0,-28.64789,-8.30789,4.69825,11.43,0.55,-0.13,2.0
1758076590.27495,1758076590.29669,0.0,0.0,0.0,-30.65324,18.62113,7.67763,13.42,0.18,0.44,2.0
1758076590.29077,1758076590.30669,0.0,0.0,0.0,-30.93972,-11.22997,3.60963,13.42,0.18,0.44,2.0
1758076590.29358,1758076590.31669,0.0,0.0,0.0,-31.74186,-29.10626,0.68755,9.48,0.49,1.27,2.0
1758076590.30966,1758076590.32669,0.0,0.0,0.0,-35.12231,-38.56006,-7.50575,9.48,0.49,1.27,2.0
1758076590.31339,1758076590.33669,0.0,0.0,0.0,-38.27358,-30.36677,-9.91217,11.51,0.86,-0.24,2.0
1758076590.32881,1758076590.34669,0.0,0.0,0.0,-40.10705,-20.51189,-9.68299,11.51,0.86,-0.24,2.0
1758076590.32994,1758076590.35669,0.0,0.0,0.0,-42.05511,-15.46986,-7.84952,10.76,1.02,-1.72,2.0
1758076590.34507,1758076590.36669,0.0,0.0,0.0,-42.05511,-15.06879,-3.66693,10.76,1.02,-1.72,2.0
1758076590.36082,1758076590.37669,0.0,0.0,0.0,-39.01843,-22.74642,-1.66158,8.45,0.87,0.28,2.0
1758076590.36547,1758076590.38669,0.0,0.0,0.0,-34.0337,-39.13302,-1.83346,7.59,0.51,2.3,2.0
1758076590.38108,1758076590.39669,0.0,0.0,0.0,-27.44468,-69.49979,-6.53172,7.59,0.51,2.3,2.0
1758076590.38195,1758076590.40669,0.0,0.0,0.0,-17.53251,-107.94526,-22.91831,8.54,-0.79,5.56,2.0
1758076590.39703,1758076590.41669,0.0,0.0,0.0,-8.65166,-111.95596,-34.49206,8.54,-0.79,5.56,2.0
1758076590.39796,1758076590.42669,0.0,0.0,0.0,0.80214,-112.01324,-44.51882,12.98,-2.64,5.04,2.0
1758076590.41361,1758076590.43669,0.0,0.0,0.0,8.59437,-110.0652,-48.9879,12.98,-2.64,5.04,2.0
1758076590.4308,1758076590.44669,0.0,0.0,0.0,15.35527,-113.27376,-46.46688,12.02,-3.45,5.06,2.0
1758076590.43495,1758076590.45669,0.0,0.0,0.0,16.61578,-115.62289,-41.48215,9.36,-2.72,3.7,2.0
1758076590.45058,1758076590.46669,0.0,0.0,0.0,14.72501,-110.40897,-34.66395,9.36,-2.72,3.7,2.0
1758076590.45501,1758076590.47669,0.0,0.0,0.0,9.68299,-100.78329,-26.18417,10.38,-1.1,3.76,2.0
1758076590.47006,1758076590.48669,0.0,0.0,0.0,-0.57296,-86.68852,-11.74564,10.38,-1.1,3.76,2.0
1758076590.47529,1758076590.49669,0.0,0.0,0.0,-7.16197,-75.34396,-2.29183,11.85,0.68,2.84,2.0
1758076590.49088,1758076590.50669,0.0,0.0,0.0,32.20023,-74.54182,5.78687,11.85,0.68,2.84,2.0
1758076590.49535,1758076590.51669,0.0,0.0,0.0,11.45916,-71.56243,11.34457,13.69,1.81,1.52,2.0
1758076590.50992,1758076590.52669,0.0,0.0,0.0,-18.73572,-15.87093,13.46451,13.84,1.75,-0.26,2.0
1758076590.51133,1758076590.53669,0.0,0.0,0.0,-19.59516,0.11459,10.8862,13.84,1.75,-0.26,2.0
1758076590.52913,1758076590.54669,0.0,0.0,0.0,-19.99623,16.272,6.53172,12.13,0.82,-0.53,2.0
1758076590.5305,1758076590.55669,0.0,0.0,0.0,-20.79837,29.96569,0.80214,12.13,0.82,-0.53,2.0
1758076590.54501,1758076590.56669,0.0,0.0,0.0,-21.02755,49.79003,-1.60428,10.78,-0.29,-0.39,2.0
1758076590.55096,1758076590.57669,0.0,0.0,0.0,-21.37133,61.42108,-2.7502,10.78,-0.29,-0.39,2.0
1758076590.56892,1758076590.58669,0.0,0.0,0.0,-22.05888,71.56243,-3.49504,9.72,-0.98,-0.28,2.0
1758076590.57164,1758076590.59669,0.0,0.0,0.0,-23.31938,82.33404,-4.1253,9.72,-0.98,-0.28,2.0
1758076590.58899,1758076590.60669,0.0,0.0,0.0,-23.66316,85.77179,-4.92744,8.53,-1.17,0.07,2.0
1758076590.59039,1758076590.61669,0.0,0.0,0.0,-23.54857,88.80846,-5.55769,7.75,-1.08,0.54,2.0
1758076590.60527,1758076590.62669,0.0,0.0,0.0,-23.20479,91.84514,-7.10468,7.75,-1.08,0.54,2.0
1758076590.62121,1758076590.63669,0.0,0.0,0.0,-21.14215,90.41274,-8.99544,7.61,-0.91,1.06,2.0
1758076590.62285,1758076590.64669,0.0,0.0,0.0,-18.9649,86.17285,-10.25595,7.61,-0.91,1.06,2.0
1758076590.63794,1758076590.65669,0.0,0.0,0.0,-16.67307,81.76109,-11.74564,7.12,-0.74,1.04,2.0
1758076590.63929,1758076590.66669,0.0,0.0,0.0,-14.38124,77.86497,-12.89155,7.12,-0.74,1.04,2.0
1758076590.65475,1758076590.67669,0.0,0.0,0.0,-9.28192,71.90621,-12.89155,7.54,-0.76,0.87,2.0
1758076590.6712,1758076590.68669,0.0,0.0,0.0,-4.92744,67.89551,-11.80293,8.08,-1.08,0.57,2.0
1758076590.67452,1758076590.69669,0.0,0.0,0.0,-0.45837,65.2026,-9.39651,8.08,-1.08,0.57,2.0
1758076590.68993,1758076590.70669,0.0,0.0,0.0,4.0107,63.42643,-6.07335,9.33,-1.58,0.93,2.0
1758076590.6911,1758076590.71669,0.0,0.0,0.0,11.45916,61.87944,0.34377,9.33,-1.58,0.93,2.0
1758076590.7093,1758076590.72669,0.0,0.0,0.0,16.67307,61.30648,4.81285,10.46,-1.92,1.21,2.0
1758076590.71012,1758076590.73669,0.0,0.0,0.0,22.23076,61.1346,8.88085,10.46,-1.92,1.21,2.0
1758076590.72524,1758076590.74669,0.0,0.0,0.0,27.1582,61.24919,12.71966,10.87,-1.94,0.97,2.0
1758076590.74124,1758076590.75669,0.0,0.0,0.0,33.86181,57.81144,14.32395,10.52,-1.75,0.74,2.0
1758076590.74487,1758076590.76669,0.0,0.0,0.0,38.21629,52.42564,15.06879,10.52,-1.75,0.74,2.0
1758076590.76007,1758076590.77669,0.0,0.0,0.0,41.65404,45.83662,14.66772,9.82,-1.62,0.65,2.0
1758076590.76121,1758076590.78669,0.0,0.0,0.0,46.40959,26.01229,13.5218,9.82,-1.62,0.65,2.0
1758076590.77607,1758076590.79669,0.0,0.0,0.0,47.89928,7.50575,11.28727,8.62,-1.22,0.21,2.0
1758076590.87082,1758076590.80669,0.0,0.0,0.0,47.95657,-6.87549,8.25059,8.62,-1.22,0.21,2.0
1758076590.87492,1758076590.81669,0.0,0.0,0.0,45.83662,-1.71887,5.15662,9.13,-0.7,-0.49,2.0
1758076590.87585,1758076590.82669,0.0,0.0,0.0,44.57612,6.99009,5.15662,9.13,-0.7,-0.23,2.0
1758076590.87726,1758076590.83669,0.0,0.0,0.0,42.05511,9.91217,4.46907,11.49,-0.49,-0.23,2.0
1758076590.87971,1758076590.84669,0.0,0.0,0.0,39.53409,16.50119,4.92744,11.63,-0.41,0.95,2.0
1758076590.88009,1758076590.85669,0.0,0.0,0.0,35.2369,20.85567,3.38045,11.63,-0.41,0.95,2.0
1758076590.88072,1758076590.86669,0.0,0.0,0.0,31.11161,4.58366,-3.26586,10.69,-0.3,1.11,2.0
1758076590.88179,1758076590.87669,0.0,0.0,0.0,30.13758,-30.19488,-4.64096,10.69,-0.3,1.11,2.0
1758076590.88255,1758076590.88669,0.0,0.0,0.0,31.85646,-52.884,2.11994,6.8,-0.41,-0.42,2.0
1758076590.88608,1758076590.89669,0.0,0.0,0.0,32.08564,-50.64947,5.50039,6.8,-0.41,-0.42,2.0
1758076590.88718,1758076590.90669,0.0,0.0,0.0,32.88778,-38.15899,6.53172,9.54,-0.92,-0.88,2.0
1758076590.88793,1758076590.91669,0.0,0.0,0.0,33.46074,-33.86181,8.47978,8.82,-0.58,-1.51,2.0
1758076590.90415,1758076590.92669,0.0,0.0,0.0,29.8511,-38.15899,9.68299,8.82,-0.58,-1.51,2.0
1758076590.92035,1758076590.93669,0.0,0.0,0.0,23.37668,-57.86874,13.86558,7.75,0.26,4.12,2.0
1758076590.92133,1758076590.94669,0.0,0.0,0.0,15.69904,-97.28824,31.51268,7.75,0.26,4.12,2.0
1758076590.93735,1758076590.95669,0.0,0.0,0.0,9.39651,-99.35089,46.00851,10.97,0.82,6.07,2.0
1758076590.9407,1758076590.96669,0.0,0.0,0.0,0.57296,-90.87111,57.23849,10.97,0.82,6.07,2.0
1758076590.95638,1758076590.97669,0.0,0.0,0.0,-14.38124,-86.40204,63.99939,15.29,2.21,6.15,2.0
1758076590.96069,1758076590.98669,0.0,0.0,0.0,-21.37133,-87.94903,62.5097,11.46,2.79,5.19,2.0
1758076590.97796,1758076590.99669,0.0,0.0,0.0,-26.01229,-88.69387,57.29578,11.46,2.79,5.19,2.0
1758076590.98234,1758076591.00669,0.0,0.0,0.0,-26.75713,-86.975,50.99325,9.28,2.19,3.56,2.0
1758076591.00045,1758076591.01669,0.0,0.0,0.0,-22.11617,-79.12547,35.69527,9.28,2.19,3.56,2.0
1758076591.00219,1758076591.02669,0.0,0.0,0.0,-15.69904,-73.51049,24.35071,9.3,1.22,3.55,2.0
1758076591.01745,1758076591.03669,0.0,0.0,0.0,-7.79223,-65.08801,13.12073,9.3,1.22,3.55,2.0
1758076591.02012,1758076591.04669,0.0,0.0,0.0,0.11459,-54.88936,2.23454,11.05,0.0,3.98,2.0
1758076591.03517,1758076591.05669,0.0,0.0,0.0,9.39651,-37.47144,-10.59972,12.92,-0.71,3.02,2.0
1758076591.06228,1758076591.06669,0.0,0.0,0.0,13.34992,-23.72045,-15.92823,12.92,-0.71,3.02,2.0
1758076591.11064,1758076591.07669,0.0,0.0,0.0,15.35527,-9.96947,-17.87628,13.36,-0.84,1.64,2.0
1758076591.11527,1758076591.08669,0.0,0.0,0.0,15.24068,4.52637,-17.30333,13.36,-0.84,1.64,2.0
1758076591.11604,1758076591.09669,0.0,0.0,0.0,13.23533,26.06958,-13.40721,12.25,-0.47,0.45,2.0
1758076591.16695,1758076591.10669,0.0,0.0,0.0,11.22997,38.21629,-10.59972,12.25,-0.47,0.45,2.0
1758076591.17101,1758076591.11669,0.0,0.0,0.0,9.91217,49.33167,-7.16197,10.45,-0.02,0.09,2.0
1758076591.17512,1758076591.12669,0.0,0.0,0.0,8.59437,61.30648,-4.58366,10.45,-0.02,0.09,2.0
1758076591.17591,1758076591.13669,0.0,0.0,0.0,9.4538,76.48987,-0.0573,9.21,0.43,0.41,2.0
1758076591.18045,1758076591.14669,0.0,0.0,0.0,10.08406,83.93832,1.77617,8.61,0.8,1.12,2.0
1758076591.18106,1758076591.15669,0.0,0.0,0.0,9.96947,91.50137,2.86479,8.61,0.8,1.12,2.0
1758076591.18693,1758076591.16669,0.0,0.0,0.0,10.48513,96.02773,4.64096,8.42,0.95,1.4,2.0
1758076591.18854,1758076591.17669,0.0,0.0,0.0,10.25595,98.37686,5.78687,8.42,0.95,1.4,2.0
1758076591.1895,1758076591.18669,0.0,0.0,0.0,10.59972,96.77258,6.87549,8.12,0.96,1.16,2.0
1758076591.19012,1758076591.19669,0.0,0.0,0.0,10.54242,94.53805,7.04738,8.12,0.96,1.16,2.0
1758076591.1946,1758076591.20669,0.0,0.0,0.0,10.65701,87.14688,7.39116,8.43,0.69,1.35,2.0
1758076591.19521,1758076591.21669,0.0,0.0,0.0,9.96947,79.64114,6.70361,8.41,0.32,1.57,2.0
1758076591.23349,1758076591.22669,0.0,0.0,0.0,8.47978,72.36457,5.72958,8.41,0.32,1.57,2.0
1758076591.2357,1758076591.23669,0.0,0.0,0.0,6.58902,65.08801,4.0107,8.51,0.15,1.52,2.0
1758076591.2449,1758076591.24669,0.0,0.0,0.0,4.29718,50.82136,0.40107,8.51,0.15,1.52,2.0
1758076591.24874,1758076591.25669,0.0,0.0,0.0,2.7502,42.68536,-2.34913,8.68,0.27,2.07,2.0
1758076591.27574,1758076591.26669,0.0,0.0,0.0,0.0573,37.75792,-6.53172,8.68,0.27,2.07,2.0
1758076591.27668,1758076591.27669,0.0,0.0,0.0,-3.32316,33.86181,-9.5684,9.28,0.71,2.36,2.0
1758076591.28136,1758076591.28669,0.0,0.0,0.0,-9.74028,24.35071,-12.89155,8.81,1.18,1.46,2.0
1758076591.28252,1758076591.29669,0.0,0.0,0.0,-15.35527,17.24603,-14.72501,8.81,1.18,1.46,2.0
1758076591.283,1758076591.30669,0.0,0.0,0.0,-21.42862,10.54242,-16.04282,8.27,1.54,1.01,2.0
1758076591.30161,1758076591.31669,0.0,0.0,0.0,-26.87172,1.77617,-17.24603,8.27,1.54,1.01,2.0
1758076591.30597,1758076591.32669,0.0,0.0,0.0,-32.77319,-20.85567,-16.38659,7.59,1.58,0.09,2.0
1758076591.31378,1758076591.33669,0.0,0.0,0.0,-34.77854,-35.69527,-15.24068,7.59,1.58,0.09,2.0
1758076591.33453,1758076591.34669,0.0,0.0,0.0,-35.63798,-46.81066,-12.37589,7.65,0.98,-0.46,2.0
1758076591.33511,1758076591.35669,0.0,0.0,0.0,-35.92446,-51.5662,-8.93814,7.65,0.98,-0.46,2.0
1758076591.33624,1758076591.36669,0.0,0.0,0.0,-34.26288,-43.14373,-3.38045,9.56,0.35,-0.74,2.0
1758076591.35568,1758076591.37669,0.0,0.0,0.0,-34.14828,-20.68378,-4.29718,12.68,-0.15,0.24,2.0
1758076591.35604,1758076591.38669,0.0,0.0,0.0,-33.46074,-0.17189,-1.77617,12.68,-0.15,0.24,2.0
1758076591.37631,1758076591.39669,0.0,0.0,0.0,-32.6013,-9.05273,-0.51566,11.51,-0.29,0.89,2.0
1758076591.37749,1758076591.40669,0.0,0.0,0.0,-32.42941,-30.02299,-0.11459,11.51,-0.29,0.89,2.0
1758076591.39564,1758076591.41669,0.0,0.0,0.0,-33.80451,-36.95578,-1.3751,9.82,-0.04,0.72,2.0
1758076591.39769,1758076591.42669,0.0,0.0,0.0,-35.69527,-37.29956,-2.86479,9.82,-0.04,0.72,2.0
1758076591.41528,1758076591.43669,0.0,0.0,0.0,-37.47144,-27.61657,-2.40642,10.23,0.38,-0.92,2.0
1758076591.41714,1758076591.44669,0.0,0.0,0.0,-38.1017,-25.38203,-1.60428,9.29,0.7,0.16,2.0
1758076591.43551,1758076591.45669,0.0,0.0,0.0,-37.18496,-31.45539,-1.66158,9.29,0.7,0.16,2.0
1758076591.43773,1758076591.46669,0.0,0.0,0.0,-34.32018,-44.17505,-3.09397,8.54,0.59,2.93,2.0
1758076591.45553,1758076591.47669,0.0,0.0,0.0,-28.13223,-80.0995,-13.00614,8.54,0.59,2.93,2.0
1758076591.4564,1758076591.48669,0.0,0.0,0.0,-22.23076,-98.49145,-24.23611,10.02,-0.43,5.4,2.0
1758076591.47999,1758076591.49669,0.0,0.0,0.0,-14.20935,-103.70537,-35.63798,10.02,-0.43,5.4,2.0
1758076591.50089,1758076591.50669,0.0,0.0,0.0,-5.90147,-101.01247,-42.74266,13.99,-2.44,6.0,2.0
1758076591.50343,1758076591.51669,0.0,0.0,0.0,2.86479,-95.28289,-43.65939,13.36,-3.52,4.45,2.0
1758076591.50569,1758076591.52669,0.0,0.0,0.0,4.52637,-96.42879,-39.3622,13.36,-3.52,4.45,2.0
1758076591.5361,1758076591.53669,0.0,0.0,0.0,3.03668,-98.09039,-32.48671,9.95,-2.83,3.83,2.0
1758076591.53717,1758076591.54669,0.0,0.0,0.0,-1.83346,-93.62132,-24.80907,9.95,-2.83,3.83,2.0
1758076591.5408,1758076591.55669,0.0,0.0,0.0,-14.09476,-78.15145,-11.80293,10.34,-1.08,3.34,2.0
1758076591.54144,1758076591.56669,0.0,0.0,0.0,-23.89234,-69.27061,-3.60963,10.34,-1.08,3.34,2.0
1758076591.54587,1758076591.57669,0.0,0.0,0.0,-32.83048,-59.81679,3.72423,11.59,1.06,3.11,2.0
1758076591.5635,1758076591.58669,0.0,0.0,0.0,-40.04975,-46.86795,10.37054,11.59,1.06,3.11,2.0
1758076591.56803,1758076591.59669,0.0,0.0,0.0,-47.03984,-24.17882,11.51645,13.85,2.36,2.14,2.0
1758076591.58893,1758076591.60669,0.0,0.0,0.0,-49.15978,-9.74028,9.68299,13.86,1.97,0.85,2.0
1758076591.59329,1758076591.61669,0.0,0.0,0.0,-49.79003,4.23989,6.07335,13.86,1.97,0.85,2.0
1758076591.63039,1758076591.62669,0.0,0.0,0.0,-48.75871,23.54857,0.11459,11.84,0.56,0.04,2.0
1758076591.6614,1758076591.63669,0.0,0.0,0.0,-47.61279,33.23156,-2.97938,11.84,0.56,0.04,2.0
1758076591.66412,1758076591.64669,0.0,0.0,0.0,-46.75336,42.57077,-5.32851,10.01,-0.8,0.0,2.0
1758076591.66857,1758076591.65669,0.0,0.0,0.0,-46.1231,51.39432,-7.10468,10.01,-0.8,0.0,2.0
1758076591.67099,1758076591.66669,0.0,0.0,0.0,-45.55015,61.65026,-9.74028,8.87,-1.44,0.06,2.0
1758076591.67507,1758076591.67669,0.0,0.0,0.0,-45.55015,67.55173,-11.45916,7.91,-1.4,0.1,2.0
1758076591.6757,1758076591.68669,0.0,0.0,0.0,-45.37826,71.50513,-13.06344,7.91,-1.4,0.1,2.0
1758076591.67857,1758076591.69669,0.0,0.0,0.0,-45.03448,75.68773,-15.35527,7.36,-1.12,0.26,2.0
1758076591.68084,1758076591.70669,0.0,0.0,0.0,-43.20102,78.20874,-17.81899,7.36,-1.12,0.26,2.0
1758076591.69763,1758076591.71669,0.0,0.0,0.0,-41.36755,75.57314,-18.33465,6.91,-0.93,0.57,2.0
1758076591.70047,1758076591.72669,0.0,0.0,0.0,-39.4195,69.95815,-18.22006,6.91,-0.93,0.57,2.0
1758076591.71588,1758076591.73669,0.0,0.0,0.0,-37.24226,64.17127,-17.6471,6.41,-0.98,0.57,2.0
1758076591.71706,1758076591.74669,0.0,0.0,0.0,-33.46074,59.07195,-15.58445,7.28,-1.17,0.53,2.0
1758076591.78023,1758076591.75669,0.0,0.0,0.0,-29.96569,56.89471,-13.23533,7.28,-1.17,0.53,2.0
1758076591.86042,1758076591.76669,0.0,0.0,0.0,-25.26744,53.05589,-10.08406,8.28,-1.43,0.34,2.0
1758076591.86085,1758076591.77669,0.0,0.0,0.0,-20.34,52.36834,-6.35983,8.28,-1.43,0.34,2.0
1758076591.86596,1758076591.78669,0.0,0.0,0.0,-12.2613,52.82671,-0.74485,9.8,-1.77,0.67,2.0
1758076591.8706,1758076591.79669,0.0,0.0,0.0,-7.04738,52.08187,2.6929,9.8,-1.77,0.67,2.0
1758076591.87584,1758076591.80669,0.0,0.0,0.0,-2.11994,54.60288,5.72958,10.51,-1.84,0.79,2.0
1758076591.87637,1758076591.81669,0.0,0.0,0.0,2.7502,59.75951,7.44845,10.51,-1.84,0.79,2.0
1758076591.87853,1758076591.82669,0.0,0.0,0.0,5.4431,59.01466,7.67763,10.95,-1.72,0.52,2.0
1758076591.88065,1758076591.83669,0.0,0.0,0.0,7.39116,56.03527,6.99009,10.2,-1.6,0.61,2.0
1758076591.88505,1758076591.84669,0.0,0.0,0.0,8.93814,51.10783,5.09932,10.2,-1.6,0.61,2.0
1758076591.89002,1758076591.85669,0.0,0.0,0.0,10.37054,37.81522,2.00535,9.74,-1.56,0.74,2.0
1758076591.89046,1758076591.86669,0.0,0.0,0.0,10.59972,22.34536,-1.20321,9.74,-1.56,0.74,2.0
1758076592.08666,1758076591.87669,0.0,0.0,0.0,10.59972,9.4538,-4.64096,8.68,-1.29,0.22,2.0
1758076592.09124,1758076591.88669,0.0,0.0,0.0,9.33921,9.5684,-10.71431,8.68,-1.29,0.22,2.0
1758076592.09533,1758076591.89669,0.0,0.0,0.0,9.74028,23.49127,-10.31324,10.17,-0.96,-0.12,2.0
1758076592.09594,1758076591.90669,0.0,0.0,0.0,10.54242,22.74642,-9.96947,10.16,-1.07,0.78,2.0
1758076592.10068,1758076591.91669,0.0,0.0,0.0,10.8289,26.12688,-9.05273,10.16,-1.07,0.78,2.0
1758076592.10107,1758076591.92669,0.0,0.0,0.0,8.42248,30.25217,-10.19865,10.8,-1.35,2.3,2.0
1758076592.10734,1758076591.93669,0.0,0.0,0.0,4.58366,16.38659,-15.46986,10.8,-1.35,2.3,2.0
1758076592.1088,1758076591.94669,0.0,0.0,0.0,5.84417,-22.11617,-13.40721,8.55,-1.21,2.06,2.0
1758076592.11048,1758076591.95669,0.0,0.0,0.0,10.19865,-51.45161,-5.4431,8.55,-1.21,2.06,2.0
1758076592.11377,1758076591.96669,0.0,0.0,0.0,12.49048,-54.60288,2.46372,8.54,-1.34,-0.22,2.0
1758076592.11585,1758076591.97669,0.0,0.0,0.0,12.83425,-38.21629,6.53172,11.71,-1.3,0.05,2.0
1758076592.12019,1758076591.98669,0.0,0.0,0.0,13.86558,-30.36677,7.62034,11.71,-1.3,0.05,2.0
1758076592.12089,1758076591.99669,0.0,0.0,0.0,13.86558,-28.76248,6.99009,10.06,-0.92,-0.22,2.0
1758076592.126,1758076592.00669,0.0,0.0,0.0,10.94349,-29.27814,4.46907,10.06,-0.92,-0.22,2.0
1758076592.12876,1758076592.01669,0.0,0.0,0.0,0.74485,-36.32552,3.09397,9.72,-0.23,2.46,2.0
1758076592.13023,1758076592.02669,0.0,0.0,0.0,-7.04738,-49.21708,4.69825,9.72,-0.23,2.46,2.0
1758076592.13103,1758076592.03669,0.0,0.0,0.0,-13.5791,-64.51505,10.8862,10.65,0.8,3.44,2.0
1758076592.13528,1758076592.04669,0.0,0.0,0.0,-22.23076,-74.36993,25.89769,10.65,0.8,3.44,2.0
1758076592.1359,1758076592.05669,0.0,0.0,0.0,-28.13223,-75.57314,34.09099,13.38,1.7,5.34,2.0
1758076592.13794,1758076592.06669,0.0,0.0,0.0,-32.88778,-77.23472,39.19032,12.74,2.21,4.41,2.0
1758076592.14102,1758076592.07669,0.0,0.0,0.0,-36.32552,-78.38063,40.10705,12.74,2.21,4.41,2.0
1758076592.14972,1758076592.08669,0.0,0.0,0.0,-37.64333,-80.90164,37.18496,9.74,1.58,3.54,2.0
1758076592.1508,1758076592.09669,0.0,0.0,0.0,-34.77854,-79.69843,33.23156,9.74,1.58,3.54,2.0
1758076592.15514,1758076592.10669,0.0,0.0,0.0,-30.59595,-76.20339,26.24147,8.6,0.24,2.7,2.0
1758076592.15589,1758076592.11669,0.0,0.0,0.0,-24.12152,-73.62508,20.22541,8.6,0.24,2.7,2.0
1758076592.15741,1758076592.12669,0.0,0.0,0.0,-13.12073,-65.03072,11.74564,8.63,-0.79,3.31,2.0
1758076592.16121,1758076592.13669,0.0,0.0,0.0,-4.69825,-56.20716,8.30789,10.08,-1.38,4.05,2.0
1758076592.1625,1758076592.14669,0.0,0.0,0.0,2.29183,-45.72203,5.55769,10.08,-1.38,4.05,2.0
1758076592.18593,1758076592.15669,0.0,0.0,0.0,8.0787,-34.49206,3.95341,11.48,-1.54,3.21,2.0
1758076592.18647,1758076592.16669,0.0,0.0,0.0,13.06344,-17.13144,2.40642,11.48,-1.54,3.21,2.0
1758076592.21109,1758076592.17669,0.0,0.0,0.0,14.43854,-5.32851,2.06265,11.81,-1.11,2.04,2.0
1758076592.21492,1758076592.18669,0.0,0.0,0.0,14.83961,6.99009,2.34913,11.81,-1.11,2.04,2.0
1758076592.23555,1758076592.19669,0.0,0.0,0.0,14.32395,19.25138,2.92208,11.52,-0.35,0.75,2.0
1758076592.236,1758076592.20669,0.0,0.0,0.0,12.37589,35.40879,2.97938,10.79,0.4,0.33,2.0
1758076592.23927,1758076592.21669,0.0,0.0,0.0,11.34457,45.20637,2.92208,10.79,0.4,0.33,2.0
1758076592.2414,1758076592.22669,0.0,0.0,0.0,10.19865,55.23313,2.06265,9.99,0.87,0.33,2.0
1758076592.24559,1758076592.23669,0.0,0.0,0.0,9.91217,69.78626,0.97403,9.99,0.87,0.33,2.0
1758076592.25092,1758076592.24669,0.0,0.0,0.0,10.65701,80.44328,1.20321,9.37,1.14,0.28,2.0
1758076592.25533,1758076592.25669,0.0,0.0,0.0,11.51645,84.85506,2.00535,9.37,1.14,0.28,2.0
1758076592.25591,1758076592.26669,0.0,0.0,0.0,11.97482,86.11556,1.43239,8.75,0.86,1.3,2.0
1758076592.26012,1758076592.27669,0.0,0.0,0.0,12.54778,88.98035,2.29183,8.75,0.86,1.3,2.0
1758076592.26527,1758076592.28669,0.0,0.0,0.0,12.77696,88.57928,3.49504,8.48,0.69,1.16,2.0
1758076592.2686,1758076592.29669,0.0,0.0,0.0,12.37589,85.37071,4.81285,8.17,0.52,1.32,2.0
1758076592.28504,1758076592.30669,0.0,0.0,0.0,11.63104,79.98491,7.04738,8.17,0.52,1.32,2.0
1758076592.286,1758076592.31669,0.0,0.0,0.0,10.08406,67.78091,9.33921,7.89,0.39,1.32,2.0
1758076592.30595,1758076592.32669,0.0,0.0,0.0,8.65166,57.86874,10.02676,7.89,0.39,1.32,2.0
1758076592.30798,1758076592.33669,0.0,0.0,0.0,6.35983,48.01387,9.68299,7.73,0.28,1.47,2.0
1758076592.32483,1758076592.34669,0.0,0.0,0.0,3.60963,39.24761,8.02141,7.73,0.28,1.47,2.0
1758076592.33998,1758076592.35669,0.0,0.0,0.0,-0.85944,26.47065,3.20856,8.14,0.4,1.23,2.0
1758076592.34204,1758076592.36669,0.0,0.0,0.0,-5.61499,23.0902,-2.63561,9.05,0.79,1.45,2.0
1758076592.3573,1758076592.37669,0.0,0.0,0.0,-10.25595,20.22541,-7.73493,9.05,0.79,1.45,2.0
1758076592.3582,1758076592.38669,0.0,0.0,0.0,-14.83961,20.16812,-12.204,9.73,1.32,1.23,2.0
1758076592.37487,1758076592.39669,0.0,0.0,0.0,-21.60051,19.25138,-16.10011,9.73,1.32,1.23,2.0
1758076592.39006,1758076592.40669,0.0,0.0,0.0,-25.89769,17.6471,-17.81899,9.84,1.57,1.01,2.0
1758076592.39397,1758076592.41669,0.0,0.0,0.0,-29.67921,12.37589,-17.93358,9.84,1.57,1.01,2.0
1758076592.40909,1758076592.42669,0.0,0.0,0.0,-33.00237,2.34913,-15.87093,9.3,1.58,0.67,2.0
1758076592.41021,1758076592.43669,0.0,0.0,0.0,-36.61201,-17.76169,-13.12073,8.5,1.47,0.08,2.0
1758076592.42536,1758076592.44669,0.0,0.0,0.0,-37.81522,-30.82513,-9.5684,8.5,1.47,0.08,2.0
1758076592.42782,1758076592.45669,0.0,0.0,0.0,-39.07573,-39.19032,-5.78687,8.83,1.02,-0.64,2.0
1758076592.44605,1758076592.46669,0.0,0.0,0.0,-39.24761,-46.35228,0.11459,8.83,1.02,-0.64,2.0
1758076592.44734,1758076592.47669,0.0,0.0,0.0,-39.53409,-42.05511,3.09397,10.37,0.72,-0.26,2.0
1758076592.46555,1758076592.48669,0.0,0.0,0.0,-39.4768,-20.05352,-0.85944,10.37,0.72,-0.26,2.0
1758076592.47553,1758076592.49669,0.0,0.0,0.0,-38.73195,4.18259,0.40107,13.68,0.32,0.16,2.0
1758076592.4808,1758076592.50669,0.0,0.0,0.0,-39.4768,-24.23611,-0.97403,10.67,0.32,1.07,2.0
1758076592.48752,1758076592.51669,0.0,0.0,0.0,-41.42485,-42.62806,-4.98473,10.67,0.43,1.07,2.0
1758076592.50535,1758076592.52669,0.0,0.0,0.0,-42.68536,-42.51347,-9.74028,11.59,0.57,0.76,2.0
1758076592.50823,1758076592.53669,0.0,0.0,0.0,-42.34158,-39.82057,-13.5791,11.59,0.57,0.76,2.0
1758076592.52725,1758076592.54669,0.0,0.0,0.0,-42.05511,-29.62192,-15.24068,11.55,0.9,-1.21,2.0
1758076592.53528,1758076592.55669,0.0,0.0,0.0,-42.68536,-20.97026,-12.60507,11.55,0.9,-1.21,2.0
1758076592.55015,1758076592.56669,0.0,0.0,0.0,-42.34158,-15.87093,-8.36518,9.96,0.87,-0.78,2.0
1758076592.5529,1758076592.57669,0.0,0.0,0.0,-39.64868,-16.73037,-4.18259,9.96,0.87,-0.78,2.0
1758076592.56916,1758076592.58669,0.0,0.0,0.0,-30.99702,-35.86716,-3.26586,8.09,0.38,0.28,2.0
1758076592.57104,1758076592.59669,0.0,0.0,0.0,-24.4653,-61.53567,-7.73493,8.8,-0.95,4.17,2.0
1758076592.58613,1758076592.60669,0.0,0.0,0.0,-18.44924,-88.00632,-17.13144,8.8,-0.95,4.17,2.0
1758076592.5877,1758076592.61669,0.0,0.0,0.0,-11.97482,-99.63737,-30.65324,11.99,-2.78,5.88,2.0
1758076592.6022,1758076592.62669,0.0,0.0,0.0,1.3751,-95.79855,-43.88857,11.99,-2.78,5.88,2.0
1758076592.62078,1758076592.63669,0.0,0.0,0.0,8.0787,-95.0537,-46.52417,13.94,-3.73,5.59,2.0
1758076592.64816,1758076592.64669,0.0,0.0,0.0,11.80293,-97.7466,-44.40423,13.94,-3.73,5.59,2.0
1758076592.65127,1758076592.65669,0.0,0.0,0.0,11.63104,-100.32492,-36.55471,10.54,-2.99,4.64,2.0
1758076592.65543,1758076592.66669,0.0,0.0,0.0,7.50575,-92.64729,-29.22085,10.04,-1.38,3.85,2.0
1758076592.65595,1758076592.67669,0.0,0.0,0.0,1.08862,-83.82372,-20.62648,10.04,-1.38,3.85,2.0
1758076592.66066,1758076592.68669,0.0,0.0,0.0,-6.8182,-75.22936,-11.86023,10.79,0.25,2.79,2.0
1758076592.6752,1758076592.69669,0.0,0.0,0.0,-17.58981,-60.10328,0.80214,10.79,0.25,2.79,2.0
1758076592.67671,1758076592.70669,0.0,0.0,0.0,-14.49583,-78.09415,7.39116,12.09,1.53,2.31,2.0
1758076592.69521,1758076592.71669,0.0,0.0,0.0,-4.64096,-54.71747,11.51645,12.09,1.53,2.31,2.0
1758076592.69728,1758076592.72669,0.0,0.0,0.0,-15.46986,-34.09099,13.06344,12.91,1.76,0.89,2.0
1758076592.71529,1758076592.73669,0.0,0.0,0.0,-27.10091,4.35448,10.48513,11.89,0.87,0.57,2.0
1758076592.7164,1758076592.74669,0.0,0.0,0.0,-24.75178,17.6471,6.41713,11.89,0.87,0.57,2.0
1758076592.73342,1758076592.75669,0.0,0.0,0.0,-21.7724,28.99167,2.7502,10.73,-0.32,0.37,2.0
1758076592.75025,1758076592.76669,0.0,0.0,0.0,-18.79302,40.10705,-0.11459,10.73,-0.32,0.37,2.0
1758076592.75495,1758076592.77669,0.0,0.0,0.0,-14.03747,53.74345,-2.00535,9.58,-1.38,0.32,2.0
1758076592.7705,1758076592.78669,0.0,0.0,0.0,-11.45916,60.96271,-2.34913,9.58,-1.38,0.32,2.0
1758076592.77329,1758076592.79669,0.0,0.0,0.0,-9.39651,65.03072,-2.63561,8.29,-1.88,0.61,2.0
1758076592.78848,1758076592.80669,0.0,0.0,0.0,-6.8182,67.78091,-2.6929,8.29,-1.88,0.61,2.0
1758076592.78946,1758076592.81669,0.0,0.0,0.0,-3.32316,70.47381,-2.92208,7.26,-1.91,0.85,2.0
1758076592.80536,1758076592.82669,0.0,0.0,0.0,-0.40107,71.84892,-2.6929,7.13,-1.73,1.24,2.0
1758076592.81533,1758076592.83669,0.0,0.0,0.0,2.63561,72.0208,-2.29183,7.13,-1.73,1.24,2.0
1758076592.82054,1758076592.84669,0.0,0.0,0.0,6.13065,68.69764,-2.11994,7.02,-1.56,1.08,2.0
1758076592.83658,1758076592.85669,0.0,0.0,0.0,10.8289,63.94209,-2.11994,7.02,-1.56,1.08,2.0
1758076592.84474,1758076592.86669,0.0,0.0,0.0,13.98017,60.79083,-2.11994,7.7,-1.4,0.77,2.0
1758076592.86299,1758076592.87669,0.0,0.0,0.0,16.95955,57.58226,-1.43239,7.7,-1.4,0.77,2.0
1758076592.86822,1758076592.88669,0.0,0.0,0.0,21.60051,54.88936,0.11459,8.68,-1.21,0.38,2.0
1758076592.90328,1758076592.89669,0.0,0.0,0.0,24.57989,56.32175,1.60428,10.06,-1.02,0.42,2.0
1758076592.90588,1758076592.90669,0.0,0.0,0.0,27.38738,57.63955,3.60963,10.06,-1.02,0.42,2.0
1758076592.90739,1758076592.91669,0.0,0.0,0.0,29.73651,58.72818,5.72958,10.74,-0.7,0.76,2.0
1758076592.90835,1758076592.92669,0.0,0.0,0.0,32.88778,58.72818,8.36518,10.74,-0.7,0.76,2.0
1758076592.90896,1758076592.93669,0.0,0.0,0.0,35.2942,59.18654,10.02676,10.61,-0.45,0.92,2.0
1758076592.92555,1758076592.94669,0.0,0.0,0.0,37.58603,60.33246,10.65701,10.61,-0.45,0.92,2.0
1758076592.92637,1758076592.95669,0.0,0.0,0.0,39.87786,60.61894,10.8289,10.4,-0.55,0.62,2.0
1758076592.94662,1758076592.96669,0.0,0.0,0.0,43.02913,56.26446,10.37054,9.59,-0.78,0.55,2.0
1758076592.95395,1758076592.97669,0.0,0.0,0.0,45.20637,50.59217,9.62569,9.59,-0.78,0.55,2.0
1758076592.97043,1758076592.98669,0.0,0.0,0.0,47.44091,42.57077,8.59437,8.88,-0.91,0.67,2.0
1758076592.97349,1758076592.99669,0.0,0.0,0.0,49.67545,31.91375,7.62034,8.88,-0.91,0.67,2.0
1758076592.98864,1758076593.00669,0.0,0.0,0.0,52.36834,5.61499,5.90147,8.0,-0.91,0.36,2.0
1758076592.98962,1758076593.01669,0.0,0.0,0.0,52.48294,-11.57375,5.09932,8.0,-0.91,0.36,2.0
1758076593.00545,1758076593.02669,0.0,0.0,0.0,51.27972,-16.73037,0.68755,8.03,-0.63,-0.02,2.0
1758076593.00669,1758076593.03669,0.0,0.0,0.0,50.93595,-9.28192,2.97938,8.03,-0.63,-0.02,2.0
1758076593.02672,1758076593.04669,0.0,0.0,0.0,48.64412,0.51566,4.64096,11.41,-0.55,0.03,2.0
1758076593.03079,1758076593.05669,0.0,0.0,0.0,46.40959,9.4538,4.69825,12.17,-0.4,1.65,2.0
1758076593.04644,1758076593.06669,0.0,0.0,0.0,42.85724,17.53251,3.60963,12.17,-0.4,1.65,2.0
1758076593.05404,1758076593.07669,0.0,0.0,0.0,38.56006,-4.1253,-1.71887,10.95,-0.04,1.53,2.0
1758076593.06968,1758076593.08669,0.0,0.0,0.0,40.10705,-42.74266,-0.68755,10.95,-0.04,1.53,2.0
1758076593.07393,1758076593.09669,0.0,0.0,0.0,40.45082,-62.91077,5.78687,7.16,0.03,-0.79,2.0
1758076593.09029,1758076593.10669,0.0,0.0,0.0,39.24761,-57.81144,10.02676,7.16,0.03,-0.79,2.0
1758076593.09492,1758076593.11669,0.0,0.0,0.0,40.33623,-35.86716,10.94349,10.99,-0.47,-1.2,2.0
1758076593.10943,1758076593.12669,0.0,0.0,0.0,40.39353,-29.67921,9.33921,9.75,-0.17,-2.65,2.0
1758076593.11299,1758076593.13669,0.0,0.0,0.0,38.15899,-30.48136,8.59437,9.75,-0.17,-2.65,2.0
1758076593.12926,1758076593.14669,0.0,0.0,0.0,31.91375,-35.58068,8.136,8.59,0.4,2.52,2.0
1758076593.13048,1758076593.15669,0.0,0.0,0.0,20.62648,-65.37449,13.17803,8.59,0.4,2.52,2.0
1758076593.14572,1758076593.16669,0.0,0.0,0.0,13.34992,-92.01703,24.00693,9.46,0.8,4.89,2.0
1758076593.14996,1758076593.17669,0.0,0.0,0.0,5.4431,-100.26762,38.50277,9.46,0.8,4.89,2.0
1758076593.1655,1758076593.18669,0.0,0.0,0.0,-3.95341,-95.79855,49.15978,14.27,1.38,6.81,2.0
1758076593.16698,1758076593.19669,0.0,0.0,0.0,-17.6471,-90.92841,55.6342,13.37,2.24,5.29,2.0
1758076593.18494,1758076593.20669,0.0,0.0,0.0,-23.0902,-90.69922,54.94666,13.37,2.24,5.29,2.0
1758076593.20072,1758076593.21669,0.0,0.0,0.0,-26.18417,-91.55866,51.90998,9.96,2.05,4.87,2.0
1758076593.20175,1758076593.22669,0.0,0.0,0.0,-25.61122,-90.81382,47.61279,9.96,2.05,4.87,2.0
1758076593.22212,1758076593.23669,0.0,0.0,0.0,-18.90761,-79.75573,36.15364,9.19,1.18,3.83,2.0
1758076593.22568,1758076593.24669,0.0,0.0,0.0,-11.80293,-71.79161,27.44468,9.19,1.18,3.83,2.0
1758076593.2409,1758076593.25669,0.0,0.0,0.0,-3.89611,-63.25455,17.76169,10.47,0.16,3.48,2.0
1758076593.24177,1758076593.26669,0.0,0.0,0.0,2.40642,-51.22243,2.7502,10.47,0.16,3.48,2.0
1758076593.25764,1758076593.27669,0.0,0.0,0.0,7.96411,-27.10091,-6.13065,12.74,-0.79,2.74,2.0
1758076593.28967,1758076593.28669,0.0,0.0,0.0,9.4538,-12.54778,-12.89155,13.39,-1.15,1.29,2.0
1758076593.31605,1758076593.29669,0.0,0.0,0.0,10.02676,0.0573,-16.55848,13.39,-1.15,1.29,2.0
1758076593.31885,1758076593.30669,0.0,0.0,0.0,9.91217,18.50654,-17.24603,11.7,-0.91,0.21,2.0
1758076593.32031,1758076593.31669,0.0,0.0,0.0,10.19865,30.65324,-15.12609,11.7,-0.91,0.21,2.0
1758076593.32201,1758076593.32669,0.0,0.0,0.0,11.17268,42.57077,-11.97482,10.59,-0.32,-0.39,2.0
1758076593.32373,1758076593.33669,0.0,0.0,0.0,12.60507,53.34238,-8.136,10.59,-0.32,-0.39,2.0
1758076593.32625,1758076593.34669,0.0,0.0,0.0,15.75634,67.55173,-2.11994,9.48,0.21,-0.16,2.0
1758076593.32695,1758076593.35669,0.0,0.0,0.0,17.81899,72.88023,0.57296,8.13,0.42,0.66,2.0
1758076593.34264,1758076593.36669,0.0,0.0,0.0,19.25138,77.75038,4.18259,8.13,0.42,0.66,2.0
1758076593.36055,1758076593.37669,0.0,0.0,0.0,20.05352,80.72976,6.99009,7.51,0.51,1.28,2.0
1758076593.36571,1758076593.38669,0.0,0.0,0.0,19.88164,80.27139,10.37054,7.51,0.51,1.28,2.0
1758076593.40525,1758076593.39669,0.0,0.0,0.0,19.19409,76.54716,12.43318,6.97,0.54,1.47,2.0
1758076593.4627,1758076593.40669,0.0,0.0,0.0,18.50654,70.53111,13.69369,6.97,0.54,1.47,2.0
1758076593.51485,1758076593.41669,0.0,0.0,0.0,17.18874,65.54638,13.75099,6.95,0.51,1.14,2.0
1758076593.52137,1758076593.42669,0.0,0.0,0.0,15.12609,58.67088,12.2613,7.75,0.55,0.5,2.0
1758076593.52314,1758076593.43669,0.0,0.0,0.0,13.00614,54.71747,9.68299,7.75,0.55,0.5,2.0
1758076593.5291,1758076593.44669,0.0,0.0,0.0,9.85487,53.45696,5.84417,8.88,0.65,0.19,2.0
1758076593.52948,1758076593.45669,0.0,0.0,0.0,5.95876,53.34238,1.3751,8.88,0.65,0.19,2.0
1758076593.53015,1758076593.46669,0.0,0.0,0.0,0.68755,51.73809,-5.95876,10.03,0.71,0.27,2.0
1758076593.53475,1758076593.47669,0.0,0.0,0.0,-3.32316,50.87865,-11.00079,10.03,0.71,0.27,2.0
1758076593.53513,1758076593.48669,0.0,0.0,0.0,-7.33386,50.64947,-15.24068,10.35,0.8,0.89,2.0
1758076593.53634,1758076593.49669,0.0,0.0,0.0,-12.43318,50.87865,-18.50654,10.35,0.8,0.89,2.0
1758076593.53709,1758076593.50669,0.0,0.0,0.0,-15.98552,46.86795,-18.44924,10.22,0.9,0.89,2.0
1758076593.54063,1758076593.51669,0.0,0.0,0.0,-19.76705,38.78925,-17.99088,9.12,1.07,0.53,2.0
1758076593.54163,1758076593.52669,0.0,0.0,0.0,-23.31938,25.43933,-15.87093,9.12,1.07,0.53,2.0
1758076593.54435,1758076593.53669,0.0,0.0,0.0,-28.24682,-0.11459,-10.48513,8.07,1.17,0.47,2.0
1758076593.54547,1758076593.54669,0.0,0.0,0.0,-30.36677,-17.87628,-6.53172,8.07,1.17,0.47,2.0
1758076593.55075,1758076593.55669,0.0,0.0,0.0,-31.45539,-32.25753,-2.6929,7.76,1.06,-0.45,2.0
1758076593.55454,1758076593.56669,0.0,0.0,0.0,-32.08564,-40.39353,0.22918,7.76,1.06,-0.45,2.0
1758076593.55597,1758076593.57669,0.0,0.0,0.0,-31.97105,-45.14908,4.0107,9.42,0.83,-0.52,2.0
1758076593.57099,1758076593.58669,0.0,0.0,0.0,-32.37212,-36.26823,4.64096,12.36,0.87,0.29,2.0
1758076593.57382,1758076593.59669,0.0,0.0,0.0,-32.54401,-13.75099,0.34377,12.36,0.87,0.29,2.0
1758076593.58907,1758076593.60669,0.0,0.0,0.0,-31.51268,3.32316,1.20321,14.35,0.51,0.22,2.0
1758076593.59029,1758076593.61669,0.0,0.0,0.0,-35.2369,-22.74642,-4.58366,14.35,0.51,0.22,2.0
1758076593.605,1758076593.62669,0.0,0.0,0.0,-35.58068,-31.39809,-6.58902,10.88,0.85,1.01,2.0
1758076593.62076,1758076593.63669,0.0,0.0,0.0,-39.24761,-34.37747,-12.204,10.88,0.85,1.01,2.0
1758076593.62195,1758076593.64669,0.0,0.0,0.0,-40.7373,-26.81443,-13.34992,11.76,1.11,-0.32,2.0
1758076593.63703,1758076593.65669,0.0,0.0,0.0,-41.65404,-12.77696,-11.74564,10.91,0.98,-1.94,2.0
1758076593.63915,1758076593.66669,0.0,0.0,0.0,-39.99245,-10.54242,-9.68299,10.91,0.98,-1.94,2.0
1758076593.65457,1758076593.67669,0.0,0.0,0.0,-36.55471,-17.87628,-9.39651,8.46,0.6,0.95,2.0
1758076593.67081,1758076593.68669,0.0,0.0,0.0,-30.59595,-33.40344,-13.23533,8.46,0.6,0.95,2.0
1758076593.67521,1758076593.69669,0.0,0.0,0.0,-20.85567,-76.1461,-21.7151,8.37,-0.34,3.45,2.0
1758076593.69084,1758076593.70669,0.0,0.0,0.0,-14.43854,-93.6786,-35.69527,8.37,-0.34,3.45,2.0
1758076593.69521,1758076593.71669,0.0,0.0,0.0,-5.61499,-87.89172,-45.89392,11.93,-2.12,5.7,2.0
1758076593.71109,1758076593.72669,0.0,0.0,0.0,7.21927,-86.91771,-52.25375,11.93,-2.12,5.7,2.0
1758076593.71312,1758076593.73669,0.0,0.0,0.0,11.74564,-92.76187,-51.10783,13.02,-3.68,4.98,2.0
1758076593.72969,1758076593.74669,0.0,0.0,0.0,13.34992,-97.7466,-46.2377,9.49,-3.33,5.0,2.0
1758076593.73336,1758076593.75669,0.0,0.0,0.0,12.2613,-99.75195,-39.53409,9.49,-3.33,5.0,2.0
1758076593.7481,1758076593.76669,0.0,0.0,0.0,5.4431,-92.93376,-28.13223,9.25,-2.01,3.68,2.0
1758076593.74932,1758076593.77669,0.0,0.0,0.0,-2.46372,-84.79775,-20.05352,9.25,-2.01,3.68,2.0
1758076593.76495,1758076593.78669,0.0,0.0,0.0,-11.00079,-77.17742,-11.63104,10.77,-0.35,3.71,2.0
1758076593.78116,1758076593.79669,0.0,0.0,0.0,-13.98017,-72.76565,-4.18259,10.77,-0.35,3.71,2.0
1758076593.78525,1758076593.80669,0.0,0.0,0.0,-13.86558,-52.13916,4.35448,12.96,1.04,2.91,2.0
1758076593.80119,1758076593.81669,0.0,0.0,0.0,2.06265,-50.76406,7.10468,14.53,1.63,1.27,2.0
1758076593.80472,1758076593.82669,0.0,0.0,0.0,-31.51268,-21.60051,7.50575,14.53,1.63,1.27,2.0
1758076593.82021,1758076593.83669,0.0,0.0,0.0,-32.71589,-0.85944,5.72958,12.77,1.24,0.21,2.0
1758076593.82109,1758076593.84669,0.0,0.0,0.0,-33.05967,20.05352,1.20321,12.77,1.24,0.21,2.0
1758076593.83613,1758076593.85669,0.0,0.0,0.0,-33.23156,31.39809,-1.77617,10.7,0.41,0.09,2.0
1758076593.83867,1758076593.86669,0.0,0.0,0.0,-33.51803,41.88322,-3.83882,10.7,0.41,0.09,2.0
1758076593.85522,1758076593.87669,0.0,0.0,0.0,-33.46074,51.27972,-5.15662,9.4,-0.41,0.08,2.0
1758076593.87125,1758076593.88669,0.0,0.0,0.0,-35.00772,64.22858,-5.90147,8.52,-0.93,0.22,2.0
1758076593.87477,1758076593.89669,0.0,0.0,0.0,-35.86716,70.53111,-5.72958,8.52,-0.93,0.22,2.0
1758076593.88996,1758076593.90669,0.0,0.0,0.0,-36.55471,75.28666,-6.35983,7.47,-1.08,0.45,2.0
1758076593.89147,1758076593.91669,0.0,0.0,0.0,-36.21093,78.49522,-7.21927,7.47,-1.08,0.45,2.0
1758076593.90593,1758076593.92669,0.0,0.0,0.0,-34.89313,80.90164,-8.136,6.99,-1.12,0.69,2.0
1758076593.90902,1758076593.93669,0.0,0.0,0.0,-32.88778,83.65184,-10.19865,6.99,-1.12,0.69,2.0
1758076593.9252,1758076593.94669,0.0,0.0,0.0,-30.48136,85.08423,-12.14671,7.25,-1.06,0.77,2.0
1758076593.9411,1758076593.95669,0.0,0.0,0.0,-26.35606,84.74047,-14.83961,7.25,-1.06,0.77,2.0
1758076593.94484,1758076593.96669,0.0,0.0,0.0,-23.37668,81.5892,-16.04282,7.44,-0.98,0.52,2.0
1758076593.96028,1758076593.97669,0.0,0.0,0.0,-20.34,78.38063,-16.50119,7.8,-0.94,0.29,2.0
1758076593.96196,1758076593.98669,0.0,0.0,0.0,-17.18874,75.80232,-16.38659,7.8,-0.94,0.29,2.0
1758076593.97699,1758076593.99669,0.0,0.0,0.0,-12.83425,72.70835,-14.78231,8.72,-1.02,0.27,2.0
1758076593.98091,1758076594.00669,0.0,0.0,0.0,-9.74028,72.19269,-13.00614,8.72,-1.02,0.27,2.0
1758076593.9963,1758076594.01669,0.0,0.0,0.0,-6.07335,71.84892,-10.54242,9.85,-1.17,0.8,2.0
1758076594.02598,1758076594.02669,0.0,0.0,0.0,-2.23454,70.93218,-8.02141,9.85,-1.17,0.8,2.0
1758076594.03543,1758076594.03669,0.0,0.0,0.0,3.95341,65.2026,-3.20856,10.34,-1.27,1.05,2.0
1758076594.03587,1758076594.04669,0.0,0.0,0.0,8.59437,63.48372,-0.22918,10.3,-1.43,0.96,2.0
1758076594.03944,1758076594.05669,0.0,0.0,0.0,13.75099,61.42108,2.11994,10.3,-1.43,0.96,2.0
1758076594.04075,1758076594.06669,0.0,0.0,0.0,18.56383,57.18119,4.0107,9.98,-1.66,0.48,2.0
1758076594.06071,1758076594.07669,0.0,0.0,0.0,25.7831,46.46688,5.27121,9.98,-1.66,0.48,2.0
1758076594.06165,1758076594.08669,0.0,0.0,0.0,30.02299,35.86716,5.09932,9.15,-1.89,0.52,2.0
1758076594.07731,1758076594.09669,0.0,0.0,0.0,34.0337,22.91831,4.46907,9.15,-1.89,0.52,2.0
1758076594.08068,1758076594.10669,0.0,0.0,0.0,36.84119,5.4431,1.71887,8.68,-1.84,0.05,2.0
1758076594.0963,1758076594.11669,0.0,0.0,0.0,38.27358,-18.33465,0.45837,8.77,-1.49,-0.66,2.0
1758076594.09725,1758076594.12669,0.0,0.0,0.0,36.55471,-23.66316,-2.11994,8.77,-1.49,-0.66,2.0
1758076594.11491,1758076594.13669,0.0,0.0,0.0,33.9764,-18.85031,-3.72423,11.24,-1.05,-0.7,2.0
1758076594.13004,1758076594.14669,0.0,0.0,0.0,29.9084,-12.89155,-4.18259,11.24,-1.05,-0.7,2.0
1758076594.13081,1758076594.15669,0.0,0.0,0.0,27.67386,-5.72958,-2.6929,11.98,-0.57,0.17,2.0
1758076594.14813,1758076594.16669,0.0,0.0,0.0,23.89234,4.1253,-3.03668,11.98,-0.57,0.17,2.0
1758076594.14997,1758076594.17669,0.0,0.0,0.0,20.85567,11.51645,-3.55234,12.12,-0.15,0.68,2.0
1758076594.16544,1758076594.18669,0.0,0.0,0.0,18.10547,-4.81285,-7.62034,9.08,-0.15,0.39,2.0
1758076594.18138,1758076594.19669,0.0,0.0,0.0,17.47521,-29.50733,-7.73493,9.08,0.26,0.39,2.0
1758076594.18182,1758076594.20669,0.0,0.0,0.0,20.05352,-57.63955,-0.40107,6.53,0.01,-0.05,2.0
1758076594.19712,1758076594.21669,0.0,0.0,0.0,17.36062,-64.85883,6.99009,6.53,0.01,-0.05,2.0
1758076594.20022,1758076594.22669,0.0,0.0,0.0,6.7609,-86.975,18.44924,9.74,0.14,3.92,2.0
1758076594.2163,1758076594.23669,0.0,0.0,0.0,2.11994,-112.35703,37.58603,9.74,0.14,3.92,2.0
1758076594.27076,1758076594.24669,0.0,0.0,0.0,-4.46907,-119.69088,53.68615,12.1,1.53,7.27,2.0
1758076594.27113,1758076594.25669,0.0,0.0,0.0,-12.71966,-110.75274,64.91612,12.1,1.53,7.27,2.0
1758076594.27627,1758076594.26669,0.0,0.0,0.0,-25.55392,-96.77258,66.74959,15.19,2.34,7.99,2.0
1758076594.277,1758076594.27669,0.0,0.0,0.0,-32.48671,-94.70992,61.59297,10.86,2.34,5.0,2.0
1758076594.28052,1758076594.28669,0.0,0.0,0.0,-35.63798,-93.6786,55.51962,10.86,2.34,5.0,2.0
1758076594.28116,1758076594.29669,0.0,0.0,0.0,-37.18496,-86.975,45.83662,8.99,1.15,4.38,2.0
1758076594.28394,1758076594.30669,0.0,0.0,0.0,-31.28349,-82.84971,29.10626,8.99,1.15,4.38,2.0
1758076594.29117,1758076594.31669,0.0,0.0,0.0,-23.0329,-78.839,18.90761,8.72,0.09,3.4,2.0
1758076594.30726,1758076594.32669,0.0,0.0,0.0,-13.5791,-67.43713,10.19865,8.72,0.09,3.4,2.0
1758076594.31567,1758076594.33669,0.0,0.0,0.0,-0.40107,-52.48294,-1.14592,12.01,-1.14,4.12,2.0
1758076594.35541,1758076594.34669,0.0,0.0,0.0,6.35983,-40.96649,-6.99009,13.36,-1.72,2.59,2.0
1758076594.35581,1758076594.35669,0.0,0.0,0.0,11.51645,-26.47065,-10.37054,13.36,-1.72,2.59,2.0
1758076594.36123,1758076594.36669,0.0,0.0,0.0,15.06879,-12.54778,-11.28727,12.91,-1.43,1.28,2.0
1758076594.36313,1758076594.37669,0.0,0.0,0.0,17.93358,7.21927,-9.39651,12.91,-1.43,1.28,2.0
1758076594.36596,1758076594.38669,0.0,0.0,0.0,18.50654,21.60051,-6.70361,11.36,-0.53,0.12,2.0
1758076594.37055,1758076594.39669,0.0,0.0,0.0,18.27736,35.63798,-3.95341,11.36,-0.53,0.12,2.0
1758076594.37574,1758076594.40669,0.0,0.0,0.0,18.33465,47.78468,-1.43239,10.33,0.38,-0.2,2.0
1758076594.39564,1758076594.41669,0.0,0.0,0.0,17.53251,62.68159,0.85944,8.77,1.01,0.13,2.0
1758076594.39598,1758076594.42669,0.0,0.0,0.0,17.99088,73.3386,3.55234,8.77,1.01,0.13,2.0
1758076594.41579,1758076594.43669,0.0,0.0,0.0,18.56383,79.75573,4.1253,7.86,1.33,0.54,2.0
1758076594.42077,1758076594.44669,0.0,0.0,0.0,18.79302,85.37071,5.55769,7.86,1.33,0.54,2.0
1758076594.46751,1758076594.45669,0.0,0.0,0.0,16.55848,94.07968,5.55769,7.54,1.25,1.0,2.0
1758076594.46879,1758076594.46669,0.0,0.0,0.0,14.78231,97.51743,5.50039,7.54,1.25,1.0,2.0
1758076594.46942,1758076594.47669,0.0,0.0,0.0,12.37589,99.92384,5.95876,7.32,1.31,0.94,2.0
1758076594.47067,1758076594.48669,0.0,0.0,0.0,8.93814,99.98115,5.72958,7.32,1.31,0.94,2.0
1758076594.47477,1758076594.49669,0.0,0.0,0.0,3.72423,94.82452,5.84417,7.44,1.28,1.37,2.0
1758076594.4773,1758076594.50669,0.0,0.0,0.0,0.0,87.60525,5.4431,7.56,1.12,1.63,2.0
1758076594.49534,1758076594.51669,0.0,0.0,0.0,-3.72423,78.09415,5.09932,7.56,1.12,1.63,2.0
1758076594.49657,1758076594.52669,0.0,0.0,0.0,-9.68299,69.27061,2.97938,7.88,1.03,1.66,2.0
1758076594.51576,1758076594.53669,0.0,0.0,0.0,-13.40721,56.37905,0.22918,7.88,1.03,1.66,2.0
1758076594.51764,1758076594.54669,0.0,0.0,0.0,-16.61578,47.09713,-2.34913,8.54,1.13,1.52,2.0
1758076594.53527,1758076594.55669,0.0,0.0,0.0,-20.74107,41.08107,-6.87549,8.54,1.13,1.52,2.0
1758076594.5373,1758076594.56669,0.0,0.0,0.0,-27.2155,35.63798,-12.60507,9.18,1.38,1.68,2.0
1758076594.55561,1758076594.57669,0.0,0.0,0.0,-31.16891,33.34615,-14.66772,9.57,1.53,1.34,2.0
1758076594.5574,1758076594.58669,0.0,0.0,0.0,-35.75257,29.39274,-16.50119,9.57,1.53,1.34,2.0
1758076594.57569,1758076594.59669,0.0,0.0,0.0,-40.04975,24.4653,-18.56383,9.31,1.51,0.95,2.0
1758076594.57764,1758076594.60669,0.0,0.0,0.0,-44.9199,5.15662,-18.79302,9.31,1.51,0.95,2.0
1758076594.59341,1758076594.61669,0.0,0.0,0.0,-46.2377,-13.5791,-17.01685,8.66,1.28,0.18,2.0
1758076594.59535,1758076594.62669,0.0,0.0,0.0,-46.46688,-29.96569,-13.80828,8.66,1.28,0.18,2.0
1758076594.61619,1758076594.63669,0.0,0.0,0.0,-46.35228,-40.27893,-10.08406,9.02,0.67,-0.87,2.0
1758076594.62006,1758076594.64669,0.0,0.0,0.0,-44.57612,-43.20102,-1.71887,11.31,0.16,-0.61,2.0
1758076594.63555,1758076594.65669,0.0,0.0,0.0,-42.62806,-30.93972,1.03132,11.31,0.16,-0.61,2.0
1758076594.6373,1758076594.66669,0.0,0.0,0.0,-40.45082,-12.14671,1.3751,13.76,-0.31,0.09,2.0
1758076594.65558,1758076594.67669,0.0,0.0,0.0,-37.75792,7.50575,2.97938,13.76,-0.31,0.09,2.0
1758076594.65798,1758076594.68669,0.0,0.0,0.0,-36.32552,-28.41871,2.57831,11.28,-0.29,1.0,2.0
1758076594.67665,1758076594.69669,0.0,0.0,0.0,-36.49741,-41.36755,2.40642,11.28,-0.29,1.0,2.0
1758076594.67926,1758076594.70669,0.0,0.0,0.0,-38.84654,-44.00316,-1.20321,9.64,0.08,0.95,2.0
1758076594.6955,1758076594.71669,0.0,0.0,0.0,-39.07573,-44.17505,-2.97938,9.64,0.08,0.95,2.0
1758076594.69636,1758076594.72669,0.0,0.0,0.0,-40.45082,-38.44547,-2.97938,9.8,0.6,-1.76,2.0
1758076594.71417,1758076594.73669,0.0,0.0,0.0,-39.99245,-40.7946,-1.94806,8.03,0.85,0.18,2.0
1758076594.7297,1758076594.74669,0.0,0.0,0.0,-37.01308,-51.27972,-1.94806,8.03,0.85,0.18,2.0
1758076594.73386,1758076594.75669,0.0,0.0,0.0,-27.73116,-79.92762,-6.99009,7.41,0.54,3.44,2.0
1758076594.74947,1758076594.76669,0.0,0.0,0.0,-21.14215,-106.34097,-17.58981,7.41,0.54,3.44,2.0
1758076594.75391,1758076594.77669,0.0,0.0,0.0,-13.34992,-119.69088,-31.39809,9.48,-1.26,7.11,2.0
1758076594.76949,1758076594.78669,0.0,0.0,0.0,-4.0107,-118.94605,-45.03448,9.48,-1.26,7.11,2.0
1758076594.77468,1758076594.79669,0.0,0.0,0.0,9.85487,-103.87726,-54.94666,13.79,-3.33,5.75,2.0
1758076594.78947,1758076594.80669,0.0,0.0,0.0,17.18874,-100.43951,-54.88936,12.08,-3.93,4.9,2.0
1758076594.79317,1758076594.81669,0.0,0.0,0.0,21.25674,-100.6114,-51.90998,12.08,-3.93,4.9,2.0
1758076594.80883,1758076594.82669,0.0,0.0,0.0,21.7724,-95.85584,-46.46688,10.73,-2.97,4.14,2.0
1758076594.8113,1758076594.83669,0.0,0.0,0.0,29.22085,-70.01544,-33.74722,10.73,-2.97,4.14,2.0
1758076594.82782,1758076594.84669,0.0,0.0,0.0,98.49145,-76.0315,-22.57454,12.63,-0.85,3.69,2.0
1758076594.83107,1758076594.85669,0.0,0.0,0.0,6.35983,-63.54102,-10.8289,12.63,-0.85,3.69,2.0
1758076594.84921,1758076594.86669,0.0,0.0,0.0,3.83882,-63.02536,-0.74485,13.78,0.85,2.76,2.0
1758076594.85166,1758076594.87669,0.0,0.0,0.0,-5.72958,-26.41335,10.59972,14.17,1.61,1.2,2.0
1758076594.86873,1758076594.88669,0.0,0.0,0.0,-7.67763,-10.48513,14.32395,14.17,1.61,1.2,2.0
1758076594.86966,1758076594.89669,0.0,0.0,0.0,-8.88085,4.29718,14.9542,11.99,1.37,0.55,2.0
1758076594.8858,1758076594.90669,0.0,0.0,0.0,-9.22462,17.18874,13.75099,11.99,1.37,0.55,2.0
1758076594.891,1758076594.91669,0.0,0.0,0.0,-9.22462,34.60666,9.68299,10.54,0.58,0.31,2.0
1758076594.90576,1758076594.92669,0.0,0.0,0.0,-9.05273,45.77933,6.7609,10.54,0.58,0.31,2.0
1758076594.91105,1758076594.93669,0.0,0.0,0.0,-9.5684,56.32175,3.72423,9.63,-0.22,0.16,2.0
1758076594.92569,1758076594.94669,0.0,0.0,0.0,-10.08406,64.62964,0.85944,9.63,-0.22,0.16,2.0
1758076594.92705,1758076594.95669,0.0,0.0,0.0,-10.65701,73.62508,-0.85944,8.39,-0.71,0.21,2.0
1758076594.94339,1758076594.96669,0.0,0.0,0.0,-10.31324,76.0315,-2.06265,7.27,-1.0,0.71,2.0
1758076594.95983,1758076594.97669,0.0,0.0,0.0,-10.37054,77.17742,-3.60963,7.27,-1.0,0.71,2.0
1758076594.96075,1758076594.98669,0.0,0.0,0.0,-8.76626,78.38063,-5.21392,6.7,-1.03,1.13,2.0
1758076594.97566,1758076594.99669,0.0,0.0,0.0,-7.33386,78.20874,-6.53172,6.7,-1.03,1.13,2.0
1758076594.97676,1758076595.00669,0.0,0.0,0.0,-5.09932,78.38063,-7.39116,6.74,-1.03,1.38,2.0
1758076594.99583,1758076595.01669,0.0,0.0,0.0,-2.40642,78.09415,-8.0787,6.74,-1.03,1.38,2.0
1758076594.99678,1758076595.02669,0.0,0.0,0.0,2.57831,74.65641,-8.0787,7.11,-1.06,1.29,2.0
1758076595.01346,1758076595.03669,0.0,0.0,0.0,6.13065,71.39055,-8.0787,7.68,-1.08,0.99,2.0
1758076595.02942,1758076595.04669,0.0,0.0,0.0,9.91217,68.41116,-6.18794,7.68,-1.08,0.99,2.0
1758076595.03394,1758076595.05669,0.0,0.0,0.0,12.77696,65.71826,-4.46907,8.86,-1.15,1.16,2.0
1758076595.04968,1758076595.06669,0.0,0.0,0.0,17.36062,62.79618,-0.34377,8.86,-1.15,1.16,2.0
1758076595.05107,1758076595.07669,0.0,0.0,0.0,21.08485,60.67623,2.97938,9.89,-1.16,1.1,2.0
1758076595.06574,1758076595.08669,0.0,0.0,0.0,24.23611,57.81144,6.35983,9.89,-1.16,1.1,2.0
1758076595.07106,1758076595.09669,0.0,0.0,0.0,28.01764,55.06125,9.96947,10.26,-1.07,1.1,2.0
1758076595.08588,1758076595.10669,0.0,0.0,0.0,33.74722,51.16513,14.03747,10.29,-0.89,0.77,2.0
1758076595.09112,1758076595.11669,0.0,0.0,0.0,37.98711,45.83662,16.10011,10.29,-0.89,0.77,2.0
1758076595.10591,1758076595.12669,0.0,0.0,0.0,42.28429,38.84654,17.24603,9.77,-0.85,0.44,2.0
1758076595.10689,1758076595.13669,0.0,0.0,0.0,46.00851,30.36677,17.30333,9.77,-0.85,0.44,2.0
1758076595.12197,1758076595.14669,0.0,0.0,0.0,50.363,10.8862,15.92823,9.29,-0.67,0.28,2.0
1758076595.13844,1758076595.15669,0.0,0.0,0.0,50.93595,-5.50039,13.00614,9.29,-0.67,0.28,2.0
1758076595.14044,1758076595.16669,0.0,0.0,0.0,50.53488,-17.13144,10.25595,8.86,-0.34,-0.36,2.0
1758076595.15572,1758076595.17669,0.0,0.0,0.0,47.03984,-17.76169,5.84417,8.86,-0.34,-0.36,2.0
1758076595.15855,1758076595.18669,0.0,0.0,0.0,44.86259,-10.65701,4.18259,10.74,-0.15,-0.53,2.0
1758076595.17366,1758076595.19669,0.0,0.0,0.0,42.62806,-5.15662,3.03668,12.02,-0.03,0.0,2.0
1758076595.17611,1758076595.20669,0.0,0.0,0.0,40.68,1.60428,2.11994,12.02,-0.03,0.0,2.0
1758076595.19173,1758076595.21669,0.0,0.0,0.0,36.26823,10.65701,-1.14592,11.99,-0.01,0.72,2.0
1758076595.20869,1758076595.22669,0.0,0.0,0.0,33.86181,11.51645,-4.52637,11.99,-0.01,0.72,2.0
1758076595.21102,1758076595.23669,0.0,0.0,0.0,34.89313,-4.98473,-7.21927,10.13,0.05,0.43,2.0
1758076595.22573,1758076595.24669,0.0,0.0,0.0,34.66395,-31.11161,-8.70896,10.13,0.05,0.43,2.0
1758076595.22801,1758076595.25669,0.0,0.0,0.0,36.89849,-63.42643,0.40107,6.29,-0.16,-0.55,2.0
1758076595.2427,1758076595.26669,0.0,0.0,0.0,32.6013,-67.03606,6.07335,8.97,-0.51,1.67,2.0
1758076595.26082,1758076595.27669,0.0,0.0,0.0,27.38738,-81.70379,15.06879,8.97,-0.51,1.67,2.0
1758076595.26315,1758076595.28669,0.0,0.0,0.0,21.02755,-109.66413,30.13758,10.04,0.69,5.44,2.0
1758076595.2788,1758076595.29669,0.0,0.0,0.0,12.08941,-119.34712,56.78012,10.04,0.69,5.44,2.0
1758076595.2803,1758076595.30669,0.0,0.0,0.0,3.55234,-105.19505,67.26525,15.11,1.36,7.77,2.0
1758076595.29479,1758076595.31669,0.0,0.0,0.0,-3.95341,-94.07968,70.30193,15.11,1.36,7.77,2.0
1758076595.29624,1758076595.32669,0.0,0.0,0.0,-10.54242,-91.73055,66.34852,14.17,1.68,5.95,2.0
1758076595.31485,1758076595.33669,0.0,0.0,0.0,-16.67307,-90.92841,56.49364,10.26,1.86,4.9,2.0
1758076595.31605,1758076595.34669,0.0,0.0,0.0,-16.90226,-84.74047,47.15443,10.26,1.86,4.9,2.0
1758076595.33288,1758076595.35669,0.0,0.0,0.0,-12.77696,-77.23472,36.38282,10.14,1.15,3.88,2.0
1758076595.34881,1758076595.36669,0.0,0.0,0.0,-3.38045,-70.76029,18.9649,10.14,1.15,3.88,2.0
1758076595.35094,1758076595.37669,0.0,0.0,0.0,3.32316,-58.72818,7.44845,10.71,0.44,3.53,2.0
1758076595.36602,1758076595.38669,0.0,0.0,0.0,9.33921,-46.52417,-2.97938,10.71,0.44,3.53,2.0
1758076595.36704,1758076595.39669,0.0,0.0,0.0,14.32395,-33.05967,-10.71431,12.56,-0.28,2.59,2.0
1758076595.38182,1758076595.40669,0.0,0.0,0.0,19.36597,-13.80828,-16.55848,12.56,-0.28,2.59,2.0
1758076595.39891,1758076595.41669,0.0,0.0,0.0,21.48592,-1.3178,-16.61578,12.48,-0.75,1.33,2.0
1758076595.40954,1758076595.42669,0.0,0.0,0.0,22.91831,11.57375,-14.83961,11.14,-0.78,0.28,2.0
1758076595.4111,1758076595.43669,0.0,0.0,0.0,24.17882,25.8404,-11.74564,11.14,-0.78,0.28,2.0
1758076595.42036,1758076595.44669,0.0,0.0,0.0,26.01229,45.26366,-6.18794,9.81,-0.49,-0.37,2.0
1758076595.4359,1758076595.45669,0.0,0.0,0.0,26.98631,58.15522,-2.46372,9.81,-0.49,-0.37,2.0
1758076595.44507,1758076595.46669,0.0,0.0,0.0,29.10626,67.26525,1.14592,8.36,-0.06,-0.32,2.0
1758076595.4602,1758076595.47669,0.0,0.0,0.0,30.02299,74.88559,3.49504,8.36,-0.06,-0.32,2.0
1758076595.46192,1758076595.48669,0.0,0.0,0.0,31.74186,83.42266,7.79223,7.58,0.22,0.74,2.0
1758076595.47688,1758076595.49669,0.0,0.0,0.0,32.42941,88.57928,10.37054,7.27,0.55,0.73,2.0
1758076595.47991,1758076595.50669,0.0,0.0,0.0,31.79916,93.62132,12.54778,7.27,0.55,0.73,2.0
1758076595.49519,1758076595.51669,0.0,0.0,0.0,30.48136,95.39748,14.20935,7.41,0.75,1.48,2.0
1758076595.49631,1758076595.52669,0.0,0.0,0.0,27.33009,95.51206,15.69904,7.41,0.75,1.48,2.0
1758076595.5135,1758076595.53669,0.0,0.0,0.0,24.75178,93.7359,15.75634,7.78,0.93,1.51,2.0
1758076595.51625,1758076595.54669,0.0,0.0,0.0,21.6578,89.6679,15.69904,7.78,0.93,1.51,2.0
1758076595.53521,1758076595.55669,0.0,0.0,0.0,18.33465,83.42266,14.72501,8.24,1.22,1.53,2.0
1758076595.5361,1758076595.56669,0.0,0.0,0.0,12.37589,71.27596,12.89155,8.52,1.4,1.31,2.0
1758076595.55386,1758076595.57669,0.0,0.0,0.0,7.73493,65.83286,10.54242,8.52,1.4,1.31,2.0
1758076595.55626,1758076595.58669,0.0,0.0,0.0,3.72423,62.22322,6.99009,9.55,1.51,1.24,2.0
1758076595.57475,1758076595.59669,0.0,0.0,0.0,-1.66158,55.7488,1.03132,9.55,1.51,1.24,2.0
1758076595.58997,1758076595.60669,0.0,0.0,0.0,-7.50575,54.88936,-5.4431,10.12,1.58,1.52,2.0
1758076595.59361,1758076595.61669,0.0,0.0,0.0,-12.204,50.76406,-8.88085,10.12,1.58,1.52,2.0
1758076595.609,1758076595.62669,0.0,0.0,0.0,-17.36062,44.8053,-12.08941,9.76,1.73,1.56,2.0
1758076595.61016,1758076595.63669,0.0,0.0,0.0,-26.35606,29.67921,-15.29797,9.76,1.73,1.11,2.0
1758076595.62527,1758076595.64669,0.0,0.0,0.0,-31.74186,14.43854,-16.272,8.73,1.86,1.11,2.0
1758076595.62804,1758076595.65669,0.0,0.0,0.0,-35.52338,-5.72958,-15.92823,7.94,1.83,0.21,2.0
1758076595.64394,1758076595.66669,0.0,0.0,0.0,-37.29956,-27.50197,-14.09476,7.94,1.83,0.21,2.0
1758076595.65103,1758076595.67669,0.0,0.0,0.0,-37.64333,-48.70141,-9.85487,8.26,1.41,-1.17,2.0
1758076595.66602,1758076595.68669,0.0,0.0,0.0,-35.63798,-52.65482,-5.72958,8.26,1.41,-1.17,2.0
1758076595.66797,1758076595.69669,0.0,0.0,0.0,-33.74722,-51.5662,-2.11994,10.74,0.84,-0.65,2.0
1758076595.6833,1758076595.70669,0.0,0.0,0.0,-33.00237,-39.4768,-1.43239,10.74,0.84,-0.65,2.0
1758076595.68769,1758076595.71669,0.0,0.0,0.0,-31.56997,-10.59972,-2.23454,12.78,0.22,-0.02,2.0
1758076595.70328,1758076595.72669,0.0,0.0,0.0,-29.50733,-14.32395,3.55234,11.54,0.02,0.31,2.0
1758076595.72028,1758076595.73669,0.0,0.0,0.0,-32.20023,-36.15364,1.60428,11.54,0.02,0.31,2.0
1758076595.72125,1758076595.74669,0.0,0.0,0.0,-35.69527,-46.86795,1.83346,8.47,0.25,0.6,2.0
1758076595.73718,1758076595.75669,0.0,0.0,0.0,-40.7373,-54.14451,-0.22918,8.47,0.25,0.6,2.0
1758076595.73962,1758076595.76669,0.0,0.0,0.0,-41.71133,-60.27517,-2.92208,8.64,0.62,0.06,2.0
1758076595.75535,1758076595.77669,0.0,0.0,0.0,-39.4195,-73.3959,-7.10468,8.64,0.62,0.06,2.0
1758076595.75623,1758076595.78669,0.0,0.0,0.0,-33.23156,-103.30429,-22.86102,8.36,0.36,4.35,2.0
1758076595.77495,1758076595.79669,0.0,0.0,0.0,-28.24682,-123.587,-37.24226,12.19,-1.03,7.35,2.0
1758076595.79006,1758076595.80669,0.0,0.0,0.0,-20.62648,-107.2004,-49.38896,12.19,-1.03,7.35,2.0
1758076595.79324,1758076595.81669,0.0,0.0,0.0,-11.86023,-92.3035,-54.77477,16.54,-2.61,6.63,2.0
1758076595.80833,1758076595.82669,0.0,0.0,0.0,-0.97403,-86.80311,-52.08187,16.54,-2.61,6.63,2.0
1758076595.8104,1758076595.83669,0.0,0.0,0.0,2.57831,-89.6106,-46.63877,11.46,-3.23,4.97,2.0
1758076595.82625,1758076595.84669,0.0,0.0,0.0,2.06265,-88.57928,-39.13302,11.46,-3.23,4.97,2.0
1758076595.83108,1758076595.85669,0.0,0.0,0.0,-1.20321,-80.0995,-29.50733,9.92,-2.53,3.37,2.0
1758076595.84606,1758076595.86669,0.0,0.0,0.0,-6.8182,-64.85883,-13.12073,11.42,-2.53,3.23,2.0
1758076595.84729,1758076595.87669,0.0,0.0,0.0,68.75494,-75.28666,-3.55234,11.42,-1.08,3.23,2.0
1758076595.86211,1758076595.88669,0.0,0.0,0.0,-4.23989,-72.76565,4.98473,13.18,0.23,2.98,2.0
1758076595.87811,1758076595.89669,0.0,0.0,0.0,-20.51189,-51.50891,10.37054,13.18,0.23,2.98,2.0
1758076595.87933,1758076595.90669,0.0,0.0,0.0,-32.20023,-13.46451,12.08941,14.54,0.85,1.55,2.0
1758076595.89446,1758076595.91669,0.0,0.0,0.0,-32.20023,-0.68755,9.5684,14.54,0.85,1.55,2.0
1758076595.91036,1758076595.92669,0.0,0.0,0.0,-31.45539,10.65701,5.4431,12.34,0.61,0.75,2.0
1758076595.91174,1758076595.93669,0.0,0.0,0.0,-29.96569,20.79837,1.03132,12.34,0.61,0.75,2.0
1758076595.92885,1758076595.94669,0.0,0.0,0.0,-28.41871,35.86716,-4.58366,10.25,-0.13,0.31,2.0
1758076595.93053,1758076595.95669,0.0,0.0,0.0,-28.30412,45.72203,-7.39116,8.83,-0.8,0.18,2.0
1758076595.9472,1758076595.96669,0.0,0.0,0.0,-28.13223,52.65482,-9.4538,8.83,-0.8,0.18,2.0
1758076595.95138,1758076595.97669,0.0,0.0,0.0,-28.13223,56.952,-10.54242,7.32,-1.2,0.41,2.0
1758076595.96715,1758076595.98669,0.0,0.0,0.0,-28.07493,62.16592,-11.63104,7.32,-1.2,0.41,2.0
1758076595.97377,1758076595.99669,0.0,0.0,0.0,-28.59059,64.45775,-12.49048,6.57,-1.2,0.68,2.0
1758076595.98943,1758076596.00669,0.0,0.0,0.0,-28.30412,66.06203,-13.00614,6.57,-1.2,0.68,2.0
1758076595.99041,1758076596.01669,0.0,0.0,0.0,-27.38738,68.52576,-14.09476,6.4,-0.96,0.78,2.0
1758076596.00544,1758076596.02669,0.0,0.0,0.0,-25.7831,68.29657,-14.78231,6.59,-0.9,0.94,2.0
1758076596.00688,1758076596.03669,0.0,0.0,0.0,-23.54857,67.78091,-15.24068,6.59,-0.9,0.94,2.0
1758076596.02252,1758076596.04669,0.0,0.0,0.0,-20.97026,67.37984,-15.29797,7.17,-1.06,1.05,2.0
1758076596.03826,1758076596.05669,0.0,0.0,0.0,-15.87093,65.54638,-13.86558,7.17,-1.06,1.05,2.0
1758076596.0398,1758076596.06669,0.0,0.0,0.0,-11.45916,63.25455,-11.34457,7.94,-1.46,1.09,2.0
1758076596.0555,1758076596.07669,0.0,0.0,0.0,-7.21927,58.90006,-8.70896,7.94,-1.46,1.09,2.0
1758076596.0576,1758076596.08669,0.0,0.0,0.0,-3.49504,53.34238,-5.55769,8.5,-1.8,1.15,2.0
1758076596.07358,1758076596.09669,0.0,0.0,0.0,1.71887,48.9306,-1.14592,9.36,-1.76,0.92,2.0
1758076596.0903,1758076596.10669,0.0,0.0,0.0,5.32851,48.24305,2.40642,9.36,-1.76,0.92,2.0
1758076596.09346,1758076596.11669,0.0,0.0,0.0,8.70896,49.50356,5.21392,10.03,-1.46,0.52,2.0
1758076596.11007,1758076596.12669,0.0,0.0,0.0,12.204,50.82136,7.84952,10.03,-1.46,0.52,2.0
1758076596.11138,1758076596.13669,0.0,0.0,0.0,16.55848,50.76406,10.02676,10.2,-1.17,0.4,2.0
1758076596.12822,1758076596.14669,0.0,0.0,0.0,19.19409,47.32632,10.71431,10.2,-1.17,0.4,2.0
1758076596.13429,1758076596.15669,0.0,0.0,0.0,21.88699,41.36755,10.08406,9.83,-1.12,0.36,2.0
1758076596.15009,1758076596.16669,0.0,0.0,0.0,24.4653,32.14294,8.42248,9.83,-1.12,0.36,2.0
1758076596.15126,1758076596.17669,0.0,0.0,0.0,26.52795,7.67763,3.66693,9.27,-1.05,0.19,2.0
1758076596.16661,1758076596.18669,0.0,0.0,0.0,26.81443,-4.1253,-0.57296,9.25,-0.61,-0.49,2.0
1758076596.1694,1758076596.19669,0.0,0.0,0.0,25.49662,-2.34913,-5.90147,9.25,-0.61,-0.49,2.0
1758076596.1845,1758076596.20669,0.0,0.0,0.0,25.89769,2.11994,-11.22997,11.08,-0.31,-0.67,2.0
1758076596.20058,1758076596.21669,0.0,0.0,0.0,26.18417,4.87014,-11.97482,11.08,-0.31,-0.67,2.0
1758076596.20267,1758076596.22669,0.0,0.0,0.0,26.18417,7.96411,-11.91752,10.79,-0.39,0.25,2.0
1758076596.21764,1758076596.23669,0.0,0.0,0.0,25.38203,12.37589,-12.60507,10.79,-0.39,0.25,2.0
1758076596.21933,1758076596.24669,0.0,0.0,0.0,22.86102,16.21471,-14.61043,11.18,-0.5,1.34,2.0
1758076596.2346,1758076596.25669,0.0,0.0,0.0,22.91831,-2.11994,-17.99088,9.21,-0.17,0.56,2.0
1758076596.25069,1758076596.26669,0.0,0.0,0.0,24.5226,-34.72124,-16.21471,9.21,-0.17,0.56,2.0
1758076596.25323,1758076596.27669,0.0,0.0,0.0,28.13223,-66.69229,-5.72958,7.13,-0.52,-0.69,2.0
1758076596.26949,1758076596.28669,0.0,0.0,0.0,30.65324,-51.22243,1.83346,7.13,-0.52,-0.69,2.0
1758076596.27039,1758076596.29669,0.0,0.0,0.0,29.33544,-44.748,6.87549,11.54,-1.2,-0.1,2.0
1758076596.28565,1758076596.30669,0.0,0.0,0.0,25.09555,-51.10783,11.34457,11.54,-1.2,-0.1,2.0
1758076596.29056,1758076596.31669,0.0,0.0,0.0,17.30333,-71.39055,18.50654,10.41,-0.47,3.69,2.0
1758076596.30879,1758076596.32669,0.0,0.0,0.0,5.95876,-97.7466,37.12767,13.13,0.39,7.8,2.0
1758076596.31041,1758076596.33669,0.0,0.0,0.0,-2.29183,-96.25692,46.81066,13.13,0.39,7.8,2.0
1758076596.32575,1758076596.34669,0.0,0.0,0.0,-11.45916,-86.51663,50.82136,15.1,1.05,5.27,2.0
1758076596.33065,1758076596.35669,0.0,0.0,0.0,-19.99623,-77.06283,49.61814,15.1,1.05,5.27,2.0
1758076596.35071,1758076596.36669,0.0,0.0,0.0,-29.50733,-72.88023,42.34158,11.26,1.6,4.71,2.0
1758076596.35516,1758076596.37669,0.0,0.0,0.0,-31.74186,-71.50513,37.12767,11.26,1.6,4.71,2.0
1758076596.37077,1758076596.38669,0.0,0.0,0.0,-30.99702,-68.52576,30.59595,9.29,1.11,5.19,2.0
1758076596.37324,1758076596.39669,0.0,0.0,0.0,-25.8404,-65.2599,23.89234,9.29,1.11,5.19,2.0
1758076596.38874,1758076596.40669,0.0,0.0,0.0,-14.72501,-55.6342,14.15206,10.06,0.38,4.48,2.0
1758076596.38967,1758076596.41669,0.0,0.0,0.0,-8.0787,-45.37826,7.62034,12.43,-0.38,3.77,2.0
1758076596.40474,1758076596.42669,0.0,0.0,0.0,-2.23454,-32.48671,1.60428,12.43,-0.38,3.77,2.0
1758076596.42043,1758076596.43669,0.0,0.0,0.0,3.95341,-12.2613,-4.92744,13.35,-0.86,2.41,2.0
1758076596.42251,1758076596.44669,0.0,0.0,0.0,6.47442,-0.0573,-7.04738,13.35,-0.86,2.41,2.0
1758076596.43933,1758076596.45669,0.0,0.0,0.0,7.96411,11.28727,-7.39116,11.98,-0.82,1.4,2.0
1758076596.44103,1758076596.46669,0.0,0.0,0.0,8.30789,22.68913,-7.39116,11.98,-0.82,1.4,2.0
1758076596.45763,1758076596.47669,0.0,0.0,0.0,8.88085,39.24761,-6.07335,10.43,-0.4,0.56,2.0
1758076596.46108,1758076596.48669,0.0,0.0,0.0,8.93814,49.04519,-4.64096,9.07,0.08,0.23,2.0
1758076596.48075,1758076596.49669,0.0,0.0,0.0,8.30789,58.21251,-4.0107,9.07,0.08,0.23,2.0
1758076596.48757,1758076596.50669,0.0,0.0,0.0,7.73493,68.41116,-2.23454,7.88,0.52,0.35,2.0
1758076596.51111,1758076596.51669,0.0,0.0,0.0,7.67763,79.35466,1.03132,7.88,0.52,0.35,2.0
1758076596.51516,1758076596.52669,0.0,0.0,0.0,7.16197,81.70379,2.23454,7.0,0.84,1.03,2.0
1758076596.51587,1758076596.53669,0.0,0.0,0.0,6.35983,83.76643,3.66693,7.0,0.84,1.03,2.0
1758076596.51896,1758076596.54669,0.0,0.0,0.0,5.15662,86.45934,4.35448,6.81,0.85,1.32,2.0
1758076596.53458,1758076596.55669,0.0,0.0,0.0,2.23454,86.91771,5.55769,7.22,0.84,1.42,2.0
1758076596.55237,1758076596.56669,0.0,0.0,0.0,-0.34377,84.68317,6.07335,7.22,0.84,1.42,2.0
1758076596.55568,1758076596.57669,0.0,0.0,0.0,-3.03668,81.5319,5.90147,7.68,0.81,1.55,2.0
1758076596.57079,1758076596.58669,0.0,0.0,0.0,-5.61499,75.00018,5.95876,7.68,0.81,1.55,2.0
1758076596.57516,1758076596.59669,0.0,0.0,0.0,-10.31324,60.10328,4.69825,8.01,0.77,1.77,2.0
1758076596.59054,1758076596.60669,0.0,0.0,0.0,-13.40721,51.85268,2.92208,8.01,0.77,1.77,2.0
1758076596.59736,1758076596.61669,0.0,0.0,0.0,-16.50119,46.1231,0.11459,8.91,0.78,1.47,2.0
1758076596.59907,1758076596.62669,0.0,0.0,0.0,-21.08485,43.65939,-7.21927,8.91,0.78,1.47,2.0
1758076596.61583,1758076596.63669,0.0,0.0,0.0,-24.5226,41.71133,-13.23533,10.01,0.97,1.37,2.0
1758076596.61675,1758076596.64669,0.0,0.0,0.0,-27.73116,40.62271,-17.53251,10.22,1.02,1.42,2.0
1758076596.63369,1758076596.65669,0.0,0.0,0.0,-31.28349,38.15899,-21.31403,10.22,1.02,1.42,2.0
1758076596.64962,1758076596.66669,0.0,0.0,0.0,-36.7266,30.30947,-23.49127,9.63,1.08,1.19,2.0
1758076596.6508,1758076596.67669,0.0,0.0,0.0,-40.10705,19.53786,-24.23611,9.63,1.08,1.19,2.0
1758076596.66588,1758076596.68669,0.0,0.0,0.0,-42.22699,1.77617,-22.74642,8.66,1.03,0.73,2.0
1758076596.6903,1758076596.69669,0.0,0.0,0.0,-43.20102,-17.87628,-20.05352,8.66,1.03,0.73,2.0
1758076596.69586,1758076596.70669,0.0,0.0,0.0,-44.8053,-40.85189,-13.80828,7.72,0.67,-0.29,2.0
1758076596.70044,1758076596.71669,0.0,0.0,0.0,-44.17505,-47.15443,-9.5684,9.11,0.39,-0.81,2.0
1758076596.70329,1758076596.72669,0.0,0.0,0.0,-42.91454,-42.62806,-3.20856,9.11,0.39,-0.81,2.0
1758076596.719,1758076596.73669,0.0,0.0,0.0,-41.36755,-22.86102,-3.60963,12.66,0.43,-0.28,2.0
1758076596.72566,1758076596.74669,0.0,0.0,0.0,-38.84654,11.11538,-0.97403,12.66,0.43,-0.28,2.0
1758076596.74071,1758076596.75669,0.0,0.0,0.0,-34.66395,-14.72501,-0.74485,12.75,0.18,1.05,2.0
1758076596.74271,1758076596.76669,0.0,0.0,0.0,-35.69527,-36.38282,-3.60963,12.75,0.18,1.05,2.0
1758076596.75849,1758076596.77669,0.0,0.0,0.0,-36.89849,-43.4875,-6.13065,9.78,0.22,1.5,2.0
1758076596.76129,1758076596.78669,0.0,0.0,0.0,-39.4195,-39.19032,-7.96411,11.15,0.39,-0.66,2.0
1758076596.77999,1758076596.79669,0.0,0.0,0.0,-41.88322,-33.46074,-6.24524,11.15,0.39,-0.66,2.0
1758076596.78092,1758076596.80669,0.0,0.0,0.0,-43.31561,-30.53865,-3.20856,9.07,0.36,-1.03,2.0
1758076596.79597,1758076596.81669,0.0,0.0,0.0,-43.31561,-36.49741,-2.00535,9.07,0.36,-1.03,2.0
1758076596.80033,1758076596.82669,0.0,0.0,0.0,-38.73195,-63.99939,-4.92744,7.46,-0.03,3.15,2.0
1758076596.81605,1758076596.83669,0.0,0.0,0.0,-33.63263,-94.30885,-11.80293,7.46,-0.03,3.15,2.0
1758076596.81722,1758076596.84669,0.0,0.0,0.0,-29.04896,-112.47161,-27.1582,9.24,-1.58,6.27,2.0
1758076596.83502,1758076596.85669,0.0,0.0,0.0,-16.95955,-98.37686,-45.49285,9.24,-1.58,6.27,2.0
1758076596.85079,1758076596.86669,0.0,0.0,0.0,-8.47978,-92.81918,-50.53488,15.64,-3.36,6.66,2.0
1758076596.85546,1758076596.87669,0.0,0.0,0.0,-2.92208,-90.58463,-50.363,12.97,-3.1,5.39,2.0
1758076596.87102,1758076596.88669,0.0,0.0,0.0,-1.3178,-90.92841,-45.77933,12.97,-3.1,5.39,2.0
1758076596.87361,1758076596.89669,0.0,0.0,0.0,-7.04738,-92.53268,-35.06502,9.61,-1.79,3.75,2.0
1758076596.88911,1758076596.90669,0.0,0.0,0.0,-15.41257,-86.00097,-26.35606,9.61,-1.79,3.75,2.0
1758076596.89003,1758076596.91669,0.0,0.0,0.0,-26.41335,-76.94823,-16.95955,10.44,-0.14,2.61,2.0
1758076596.90478,1758076596.92669,0.0,0.0,0.0,-56.60823,-53.80074,-7.84952,10.44,-0.14,2.61,2.0
1758076596.92112,1758076596.93669,0.0,0.0,0.0,-35.40879,-78.26604,3.26586,11.96,1.21,2.7,2.0
1758076596.92521,1758076596.94669,0.0,0.0,0.0,-46.00851,-42.1124,7.50575,13.5,1.52,2.24,2.0
1758076596.94109,1758076596.95669,0.0,0.0,0.0,-54.48829,-30.13758,8.65166,13.5,1.52,2.24,2.0
1758076596.94521,1758076596.96669,0.0,0.0,0.0,-53.45696,-18.22006,7.33386,12.29,0.91,1.0,2.0
1758076596.96117,1758076596.97669,0.0,0.0,0.0,-49.61814,-1.03132,2.46372,12.29,0.91,1.0,2.0
1758076596.96523,1758076596.98669,0.0,0.0,0.0,-46.40959,11.11538,-0.80214,10.55,-0.09,0.37,2.0
1758076596.98127,1758076596.99669,0.0,0.0,0.0,-42.68536,21.7151,-3.55234,10.55,-0.09,0.37,2.0
1758076596.98535,1758076597.00669,0.0,0.0,0.0,-40.04975,30.82513,-5.50039,9.19,-1.12,0.07,2.0
1758076597.00121,1758076597.01669,0.0,0.0,0.0,-36.38282,42.05511,-7.33386,7.92,-1.8,0.35,2.0
1758076597.00475,1758076597.02669,0.0,0.0,0.0,-34.26288,47.72739,-7.84952,7.92,-1.8,0.35,2.0
1758076597.02026,1758076597.03669,0.0,0.0,0.0,-31.85646,52.54023,-8.30789,7.09,-2.0,0.5,2.0
1758076597.02108,1758076597.04669,0.0,0.0,0.0,-28.41871,56.14987,-8.30789,7.09,-2.0,0.5,2.0
1758076597.03627,1758076597.05669,0.0,0.0,0.0,-26.12688,61.24919,-8.70896,6.96,-1.94,0.81,2.0
1758076597.03873,1758076597.06669,0.0,0.0,0.0,-23.49127,64.11398,-9.74028,6.96,-1.94,0.81,2.0
1758076597.05498,1758076597.07669,0.0,0.0,0.0,-20.85567,67.26525,-11.17268,7.27,-1.69,0.86,2.0
1758076597.0713,1758076597.08669,0.0,0.0,0.0,-15.58445,72.53646,-11.74564,7.27,-1.69,0.86,2.0
1758076597.07215,1758076597.09669,0.0,0.0,0.0,-11.45916,73.68237,-11.45916,7.95,-1.5,0.76,2.0
1758076597.08902,1758076597.10669,0.0,0.0,0.0,-7.04738,69.3279,-10.19865,7.92,-1.4,0.99,2.0
1758076597.08995,1758076597.11669,0.0,0.0,0.0,-2.40642,63.19725,-8.25059,7.92,-1.4,0.99,2.0
1758076597.10531,1758076597.12669,0.0,0.0,0.0,4.29718,60.27517,-4.69825,8.56,-1.44,1.26,2.0
1758076597.12126,1758076597.13669,0.0,0.0,0.0,9.33921,60.90542,-1.94806,8.56,-1.44,1.26,2.0
1758076597.12246,1758076597.14669,0.0,0.0,0.0,14.61043,61.1346,1.48969,9.86,-1.6,1.19,2.0
1758076597.13797,1758076597.15669,0.0,0.0,0.0,20.05352,61.93674,4.87014,9.86,-1.6,1.19,2.0
1758076597.14158,1758076597.16669,0.0,0.0,0.0,27.2155,64.57235,8.99544,10.29,-1.55,1.11,2.0
1758076597.15732,1758076597.17669,0.0,0.0,0.0,31.85646,65.83286,11.00079,10.4,-1.44,0.51,2.0
1758076597.15903,1758076597.18669,0.0,0.0,0.0,35.58068,65.66096,11.28727,10.4,-1.44,0.51,2.0
1758076597.17399,1758076597.19669,0.0,0.0,0.0,39.07573,62.56699,11.00079,10.15,-1.4,0.35,2.0
1758076597.19004,1758076597.20669,0.0,0.0,0.0,41.88322,42.28429,7.33386,10.15,-1.4,0.35,2.0
1758076597.19073,1758076597.21669,0.0,0.0,0.0,43.14373,27.50197,3.03668,9.08,-1.29,0.22,2.0
1758076597.20631,1758076597.22669,0.0,0.0,0.0,42.85724,19.99623,-3.72423,9.08,-1.29,0.22,2.0
1758076597.20881,1758076597.23669,0.0,0.0,0.0,42.74266,24.86637,-7.39116,10.4,-0.72,-0.45,2.0
1758076597.22427,1758076597.24669,0.0,0.0,0.0,42.51347,31.62727,-9.28192,11.74,-0.4,-0.74,2.0
1758076597.24003,1758076597.25669,0.0,0.0,0.0,39.99245,35.3515,-9.5684,11.74,-0.4,-0.74,2.0
1758076597.24063,1758076597.26669,0.0,0.0,0.0,35.75257,33.63263,-9.91217,11.4,-0.36,1.42,2.0
1758076597.25628,1758076597.27669,0.0,0.0,0.0,28.30412,14.09476,-14.03747,11.4,-0.36,1.42,2.0
1758076597.26041,1758076597.28669,0.0,0.0,0.0,25.38203,-26.41335,-11.80293,8.61,-0.38,0.94,2.0
1758076597.27633,1758076597.29669,0.0,0.0,0.0,24.35071,-53.74345,-3.89611,8.61,-0.38,0.94,2.0
1758076597.27724,1758076597.30669,0.0,0.0,0.0,24.17882,-59.41573,2.92208,8.2,-0.62,-0.95,2.0
1758076597.29209,1758076597.31669,0.0,0.0,0.0,24.17882,-44.23235,8.93814,8.2,-0.62,-1.37,2.0
1758076597.30905,1758076597.32669,0.0,0.0,0.0,22.97561,-41.65404,10.37054,10.85,-0.78,-1.37,2.0
1758076597.31036,1758076597.33669,0.0,0.0,0.0,18.79302,-46.06581,13.75099,9.58,-0.16,0.61,2.0
1758076597.32522,1758076597.34669,0.0,0.0,0.0,10.37054,-59.75951,18.27736,9.58,-0.16,0.61,2.0
1758076597.32625,1758076597.35669,0.0,0.0,0.0,-1.20321,-94.99641,34.43476,10.84,1.07,7.22,2.0
1758076597.34719,1758076597.36669,0.0,0.0,0.0,-8.42248,-101.8719,47.26902,10.84,1.07,7.22,2.0
1758076597.35042,1758076597.37669,0.0,0.0,0.0,-17.93358,-90.75652,54.3164,14.78,2.08,6.86,2.0
1758076597.36723,1758076597.38669,0.0,0.0,0.0,-26.81443,-78.38063,56.32175,14.78,2.08,6.86,2.0
1758076597.3713,1758076597.39669,0.0,0.0,0.0,-36.7266,-77.29202,50.64947,13.35,2.75,5.94,2.0
1758076597.38903,1758076597.40669,0.0,0.0,0.0,-38.15899,-81.5319,46.46688,8.52,1.67,4.73,2.0
1758076597.39013,1758076597.41669,0.0,0.0,0.0,-36.6693,-76.94823,39.19032,8.52,1.67,4.73,2.0
1758076597.40548,1758076597.42669,0.0,0.0,0.0,-29.8511,-73.3386,31.91375,8.74,0.25,4.38,2.0
1758076597.41064,1758076597.43669,0.0,0.0,0.0,-15.92823,-69.27061,19.13679,8.74,0.25,4.38,2.0
1758076597.42636,1758076597.44669,0.0,0.0,0.0,-5.95876,-63.31184,12.204,10.25,-0.87,4.13,2.0
1758076597.42993,1758076597.45669,0.0,0.0,0.0,1.66158,-51.10783,5.27121,10.25,-0.87,4.13,2.0
1758076597.44515,1758076597.46669,0.0,0.0,0.0,8.02141,-35.3515,-2.7502,13.66,-1.37,3.38,2.0
1758076597.44631,1758076597.47669,0.0,0.0,0.0,9.22462,-13.34992,-5.72958,13.71,-1.05,1.74,2.0
1758076597.46253,1758076597.48669,0.0,0.0,0.0,8.88085,-0.57296,-6.58902,13.71,-1.05,1.74,2.0
1758076597.47999,1758076597.49669,0.0,0.0,0.0,7.62034,11.51645,-6.47442,11.43,-0.4,0.64,2.0
1758076597.48258,1758076597.50669,0.0,0.0,0.0,5.15662,28.13223,-5.4431,11.43,-0.4,0.64,2.0
1758076597.49817,1758076597.51669,0.0,0.0,0.0,3.72423,39.01843,-4.58366,9.72,0.15,-0.05,2.0
1758076597.50011,1758076597.52669,0.0,0.0,0.0,2.00535,50.2484,-3.83882,9.72,0.15,-0.05,2.0
1758076597.51518,1758076597.53669,0.0,0.0,0.0,2.92208,60.27517,-1.66158,8.51,0.64,-0.14,2.0
1758076597.51738,1758076597.54669,0.0,0.0,0.0,3.83882,70.24463,-1.03132,7.34,0.64,0.54,2.0
1758076597.53444,1758076597.55669,0.0,0.0,0.0,4.98473,73.51049,-0.11459,7.34,0.72,0.54,2.0
1758076597.53538,1758076597.56669,0.0,0.0,0.0,5.72958,77.75038,0.17189,6.7,0.73,0.78,2.0
1758076597.55176,1758076597.57669,0.0,0.0,0.0,6.13065,81.07353,0.51566,6.7,0.73,0.78,2.0
1758076597.56749,1758076597.58669,0.0,0.0,0.0,5.32851,82.33404,2.63561,6.75,0.67,1.28,2.0
1758076597.56868,1758076597.59669,0.0,0.0,0.0,3.55234,81.18813,3.49504,6.75,0.67,1.28,2.0
1758076597.58438,1758076597.60669,0.0,0.0,0.0,0.45837,75.51585,4.18259,6.91,0.65,1.75,2.0
1758076597.58523,1758076597.61669,0.0,0.0,0.0,-2.97938,67.43713,4.81285,6.91,0.65,1.75,2.0
1758076597.60149,1758076597.62669,0.0,0.0,0.0,-8.42248,54.71747,5.21392,7.2,0.71,1.7,2.0
1758076597.61848,1758076597.63669,0.0,0.0,0.0,-12.77696,49.84733,3.26586,8.6,0.95,1.24,2.0
1758076597.62024,1758076597.64669,0.0,0.0,0.0,-17.01685,46.1804,-0.40107,8.6,0.95,1.24,2.0
1758076597.63557,1758076597.65669,0.0,0.0,0.0,-21.48592,44.46153,-6.13065,9.81,1.29,0.84,2.0
1758076597.63762,1758076597.66669,0.0,0.0,0.0,-27.50197,44.46153,-15.24068,9.81,1.29,0.84,2.0
1758076597.65354,1758076597.67669,0.0,0.0,0.0,-30.82513,45.43555,-20.3973,10.39,1.5,0.95,2.0
1758076597.6693,1758076597.68669,0.0,0.0,0.0,-33.80451,46.00851,-23.60586,10.39,1.5,0.95,2.0
1758076597.67049,1758076597.69669,0.0,0.0,0.0,-36.89849,37.24226,-24.86637,10.28,1.33,0.88,2.0
1758076597.68539,1758076597.70669,0.0,0.0,0.0,-38.56006,22.86102,-23.31938,9.17,1.05,0.52,2.0
1758076597.68732,1758076597.71669,0.0,0.0,0.0,-39.4195,6.53172,-20.11082,9.17,1.05,0.52,2.0
1758076597.70366,1758076597.72669,0.0,0.0,0.0,-40.62271,-7.04738,-16.10011,8.79,0.46,-0.52,2.0
1758076597.70533,1758076597.73669,0.0,0.0,0.0,-42.91454,-21.88699,-7.79223,8.79,0.46,-0.52,2.0
1758076597.72158,1758076597.74669,0.0,0.0,0.0,-44.63341,-28.01764,-1.3178,9.44,0.1,-1.22,2.0
1758076597.73764,1758076597.75669,0.0,0.0,0.0,-45.60744,-19.07949,2.46372,9.44,0.1,-1.22,2.0
1758076597.74045,1758076597.76669,0.0,0.0,0.0,-47.44091,-8.0787,1.14592,11.61,0.1,-0.62,2.0
1758076597.75565,1758076597.77669,0.0,0.0,0.0,-46.63877,17.87628,1.66158,13.13,0.11,0.62,2.0
1758076597.75768,1758076597.78669,0.0,0.0,0.0,-44.51882,-16.90226,0.45837,13.13,0.11,0.62,2.0
1758076597.77394,1758076597.79669,0.0,0.0,0.0,-48.12846,-38.56006,-3.55234,9.0,0.48,1.26,2.0
1758076597.78963,1758076597.80669,0.0,0.0,0.0,-50.1911,-46.69606,-8.70896,9.0,0.48,1.26,2.0
1758076597.79134,1758076597.81669,0.0,0.0,0.0,-49.61814,-48.64412,-14.43854,11.33,0.56,-0.2,2.0
1758076597.80666,1758076597.82669,0.0,0.0,0.0,-49.96192,-43.77398,-15.69904,11.33,0.56,-0.2,2.0
1758076597.81344,1758076597.83669,0.0,0.0,0.0,-50.87865,-39.24761,-14.43854,10.26,0.58,-1.0,2.0
1758076597.83096,1758076597.84669,0.0,0.0,0.0,-50.3057,-39.99245,-11.11538,10.26,0.58,-1.0,2.0
1758076597.83229,1758076597.85669,0.0,0.0,0.0,-43.65939,-52.76942,-8.59437,7.84,0.09,-0.04,2.0
1758076597.84741,1758076597.86669,0.0,0.0,0.0,-35.75257,-73.96885,-10.65701,7.23,-1.02,3.58,2.0
1758076597.85097,1758076597.87669,0.0,0.0,0.0,-28.476,-104.85127,-18.10547,7.23,-1.02,3.58,2.0
1758076597.86643,1758076597.88669,0.0,0.0,0.0,-16.21471,-123.7016,-38.61736,9.42,-3.27,7.31,2.0
1758076597.87079,1758076597.89669,0.0,0.0,0.0,-6.70361,-121.58166,-51.50891,9.42,-3.27,7.31,2.0
1758076597.89041,1758076597.90669,0.0,0.0,0.0,2.06265,-112.12785,-58.4417,14.6,-4.66,7.13,2.0
1758076597.89404,1758076597.91669,0.0,0.0,0.0,8.42248,-108.00255,-57.81144,14.6,-4.66,7.13,2.0
1758076597.90955,1758076597.92669,0.0,0.0,0.0,12.204,-111.95596,-48.9879,12.05,-3.14,6.16,2.0
1758076597.91398,1758076597.93669,0.0,0.0,0.0,10.02676,-109.54953,-40.7946,10.35,-0.65,4.09,2.0
1758076597.9298,1758076597.94669,0.0,0.0,0.0,4.92744,-100.5541,-29.73651,10.35,-0.65,4.09,2.0
1758076597.93358,1758076597.95669,0.0,0.0,0.0,-3.20856,-90.12627,-18.33465,12.54,1.43,2.61,2.0
1758076597.9498,1758076597.96669,0.0,0.0,0.0,-15.0115,-71.50513,-2.00535,12.54,1.43,2.61,2.0
1758076597.95309,1758076597.97669,0.0,0.0,0.0,-21.60051,-56.49364,6.53172,14.28,2.44,1.82,2.0
1758076597.9696,1758076597.98669,0.0,0.0,0.0,-26.75713,-40.10705,12.2613,14.28,2.44,1.82,2.0
1758076597.97081,1758076597.99669,0.0,0.0,0.0,-69.61437,-21.6578,15.06879,13.9,2.3,0.53,2.0
1758076597.98579,1758076598.00669,0.0,0.0,0.0,-33.17426,-25.55392,13.98017,11.76,1.26,0.12,2.0
1758076597.98671,1758076598.01669,0.0,0.0,0.0,-2.34913,-1.20321,11.11538,11.76,1.26,0.12,2.0
1758076598.00178,1758076598.02669,0.0,0.0,0.0,-34.26288,24.5226,7.84952,10.58,0.07,0.1,2.0
1758076598.0176,1758076598.03669,0.0,0.0,0.0,-33.23156,37.12767,4.98473,10.58,0.07,0.1,2.0
1758076598.01985,1758076598.04669,0.0,0.0,0.0,-31.11161,49.38896,2.00535,8.86,-0.85,0.31,2.0
1758076598.03455,1758076598.05669,0.0,0.0,0.0,-29.9084,55.86338,0.11459,8.86,-0.85,0.31,2.0
1758076598.03575,1758076598.06669,0.0,0.0,0.0,-28.13223,60.79083,-1.94806,7.47,-1.36,0.57,2.0
1758076598.05155,1758076598.07669,0.0,0.0,0.0,-25.8404,63.19725,-3.09397,7.47,-1.36,0.57,2.0
1758076598.06865,1758076598.08669,0.0,0.0,0.0,-21.42862,67.37984,-4.46907,6.64,-1.7,1.1,2.0
1758076598.06977,1758076598.09669,0.0,0.0,0.0,-17.87628,69.84356,-5.78687,6.66,-2.01,1.44,2.0
1758076598.08485,1758076598.10669,0.0,0.0,0.0,-13.23533,72.76565,-7.04738,6.66,-2.01,1.44,2.0
1758076598.08578,1758076598.11669,0.0,0.0,0.0,-4.69825,75.34396,-8.65166,6.84,-2.24,1.18,2.0
1758076598.10183,1758076598.12669,0.0,0.0,0.0,2.00535,73.73967,-9.11003,6.84,-2.24,1.18,2.0
1758076598.11764,1758076598.13669,0.0,0.0,0.0,8.70896,71.79161,-9.39651,6.99,-2.26,0.75,2.0
1758076598.11957,1758076598.14669,0.0,0.0,0.0,15.58445,72.19269,-8.65166,6.99,-2.26,0.75,2.0
1758076598.13487,1758076598.15669,0.0,0.0,0.0,25.89769,73.73967,-4.92744,8.43,-2.16,0.79,2.0
1758076598.13581,1758076598.16669,0.0,0.0,0.0,32.88778,76.48987,-1.20321,10.02,-1.98,0.67,2.0
1758076598.15293,1758076598.17669,0.0,0.0,0.0,39.07573,78.89629,3.03668,10.02,-1.98,0.67,2.0
1758076598.16994,1758076598.18669,0.0,0.0,0.0,44.57612,81.41731,7.21927,10.98,-1.59,0.79,2.0
1758076598.17092,1758076598.19669,0.0,0.0,0.0,50.82136,81.93298,11.97482,10.98,-1.59,0.79,2.0
1758076598.18591,1758076598.20669,0.0,0.0,0.0,54.02992,79.81302,13.46451,10.89,-1.04,0.61,2.0
1758076598.18703,1758076598.21669,0.0,0.0,0.0,56.83742,73.45319,14.9542,10.89,-1.04,0.61,2.0
1758076598.20189,1758076598.22669,0.0,0.0,0.0,58.3844,61.53567,14.66772,10.08,-0.66,0.27,2.0
1758076598.21997,1758076598.23669,0.0,0.0,0.0,57.46767,46.81066,11.22997,9.57,-0.49,-0.11,2.0
1758076598.22052,1758076598.24669,0.0,0.0,0.0,56.83742,41.94051,7.50575,9.57,-0.49,-0.11,2.0
1758076598.23599,1758076598.25669,0.0,0.0,0.0,55.6915,46.35228,3.60963,10.48,-0.25,-0.54,2.0
1758076598.23764,1758076598.26669,0.0,0.0,0.0,55.86338,46.63877,1.20321,10.48,-0.25,-0.54,2.0
1758076598.25272,1758076598.27669,0.0,0.0,0.0,54.14451,46.63877,0.34377,10.67,-0.21,-0.04,2.0
1758076598.26948,1758076598.28669,0.0,0.0,0.0,50.3057,46.35228,-0.51566,10.67,-0.21,-0.04,2.0
1758076598.2707,1758076598.29669,0.0,0.0,0.0,44.63341,39.01843,-1.71887,11.35,-0.17,1.72,2.0
1758076598.28569,1758076598.30669,0.0,0.0,0.0,36.21093,15.98552,-6.47442,11.35,-0.17,1.72,2.0
1758076598.2878,1758076598.31669,0.0,0.0,0.0,36.15364,-42.22699,-0.74485,8.54,0.01,0.92,2.0
1758076598.30354,1758076598.32669,0.0,0.0,0.0,34.14828,-55.29043,6.70361,8.7,-0.46,-1.18,2.0
1758076598.31996,1758076598.33669,0.0,0.0,0.0,30.76784,-54.3737,9.96947,8.7,-0.46,-1.18,2.0
1758076598.32094,1758076598.34669,0.0,0.0,0.0,31.16891,-38.84654,13.5791,10.75,-0.51,-1.47,2.0
1758076598.33604,1758076598.35669,0.0,0.0,0.0,28.93437,-36.6693,13.5218,10.75,-0.51,-1.47,2.0
1758076598.33733,1758076598.36669,0.0,0.0,0.0,22.23076,-43.83128,16.38659,9.3,0.2,-0.85,2.0
1758076598.35176,1758076598.37669,0.0,0.0,0.0,11.63104,-61.70755,20.97026,9.3,0.2,-0.85,2.0
1758076598.36901,1758076598.38669,0.0,0.0,0.0,-1.77617,-98.49145,36.84119,9.63,1.68,6.08,2.0
1758076598.37033,1758076598.39669,0.0,0.0,0.0,-11.57375,-102.33027,47.67009,13.14,2.94,6.83,2.0
1758076598.38503,1758076598.40669,0.0,0.0,0.0,-23.26209,-92.4754,54.14451,13.14,2.94,6.83,2.0
1758076598.38598,1758076598.41669,0.0,0.0,0.0,-33.86181,-83.93832,55.92068,14.11,3.58,7.0,2.0
1758076598.40503,1758076598.42669,0.0,0.0,0.0,-44.40423,-85.19884,50.1911,14.11,3.58,7.0,2.0
1758076598.406,1758076598.43669,0.0,0.0,0.0,-45.09178,-88.98035,46.46688,9.43,2.48,5.04,2.0
1758076598.42509,1758076598.44669,0.0,0.0,0.0,-42.74266,-84.85506,39.53409,9.43,2.48,5.04,2.0
1758076598.42601,1758076598.45669,0.0,0.0,0.0,-35.63798,-81.18813,33.11696,9.08,0.98,4.54,2.0
1758076598.44189,1758076598.46669,0.0,0.0,0.0,-20.74107,-74.02615,22.57454,10.01,-0.18,3.44,2.0
1758076598.45794,1758076598.47669,0.0,0.0,0.0,-9.85487,-67.26525,16.38659,10.01,-0.18,3.44,2.0
1758076598.45988,1758076598.48669,0.0,0.0,0.0,-0.80214,-55.6915,10.02676,12.71,-1.14,3.56,2.0
1758076598.47515,1758076598.49669,0.0,0.0,0.0,5.61499,-41.76862,0.97403,12.71,-1.14,3.56,2.0
1758076598.47604,1758076598.50669,0.0,0.0,0.0,11.11538,-22.11617,-3.26586,13.56,-1.47,1.81,2.0
1758076598.49283,1758076598.51669,0.0,0.0,0.0,12.60507,-11.00079,-5.55769,13.56,-1.47,1.81,2.0
1758076598.50901,1758076598.52669,0.0,0.0,0.0,13.17803,-0.17189,-6.24524,11.51,-1.06,0.88,2.0
1758076598.51044,1758076598.53669,0.0,0.0,0.0,13.23533,16.67307,-5.61499,11.51,-1.06,0.88,2.0
1758076598.52514,1758076598.54669,0.0,0.0,0.0,12.77696,27.2155,-5.09932,9.8,-0.38,0.06,2.0
1758076598.52714,1758076598.55669,0.0,0.0,0.0,12.14671,35.63798,-3.66693,8.38,0.26,-0.04,2.0
1758076598.5451,1758076598.56669,0.0,0.0,0.0,11.74564,43.60209,-2.63561,8.38,0.26,-0.04,2.0
1758076598.54603,1758076598.57669,0.0,0.0,0.0,11.57375,56.952,1.14592,7.47,0.73,0.15,2.0
1758076598.56195,1758076598.58669,0.0,0.0,0.0,11.45916,60.67623,2.46372,7.47,0.73,0.15,2.0
1758076598.5779,1758076598.59669,0.0,0.0,0.0,11.57375,63.94209,3.49504,6.76,1.02,1.06,2.0
1758076598.57992,1758076598.60669,0.0,0.0,0.0,10.48513,68.41116,4.87014,6.76,1.02,1.06,2.0
1758076598.59526,1758076598.61669,0.0,0.0,0.0,6.47442,71.79161,7.16197,6.95,1.2,1.51,2.0
1758076598.5961,1758076598.62669,0.0,0.0,0.0,2.7502,71.84892,7.96411,7.1,1.5,1.67,2.0
1758076598.61223,1758076598.63669,0.0,0.0,0.0,-2.00535,67.15066,7.79223,7.1,1.5,1.67,2.0
1758076598.62927,1758076598.64669,0.0,0.0,0.0,-6.7609,60.33246,7.10468,7.31,1.63,1.51,2.0
1758076598.63166,1758076598.65669,0.0,0.0,0.0,-13.5791,51.10783,4.92744,7.31,1.63,1.51,2.0
1758076598.6472,1758076598.66669,0.0,0.0,0.0,-18.33465,48.41494,1.3751,8.51,1.62,1.04,2.0
1758076598.64813,1758076598.67669,0.0,0.0,0.0,-22.91831,47.89928,-3.66693,8.51,1.62,1.04,2.0
1758076598.66318,1758076598.68669,0.0,0.0,0.0,-27.2155,48.75871,-10.08406,9.82,1.52,0.73,2.0
1758076598.67899,1758076598.69669,0.0,0.0,0.0,-33.11696,52.08187,-18.79302,10.63,1.13,0.82,2.0
1758076598.68016,1758076598.70669,0.0,0.0,0.0,-36.38282,54.48829,-23.37668,10.63,1.13,0.82,2.0
1758076598.69519,1758076598.71669,0.0,0.0,0.0,-39.01843,55.7488,-25.8404,10.89,0.74,0.88,2.0
1758076598.69643,1758076598.72669,0.0,0.0,0.0,-41.59674,50.53488,-24.00693,10.89,0.74,0.88,2.0
1758076598.71224,1758076598.73669,0.0,0.0,0.0,-42.22699,30.02299,-20.3973,9.73,0.6,0.6,2.0
1758076598.72921,1758076598.74669,0.0,0.0,0.0,-42.05511,15.12609,-15.58445,9.73,0.6,0.6,2.0
1758076598.73173,1758076598.75669,0.0,0.0,0.0,-42.62806,2.97938,-9.91217,8.96,0.19,-0.16,2.0
1758076598.74721,1758076598.76669,0.0,0.0,0.0,-42.57077,-10.8289,-0.40107,8.96,0.19,-0.16,2.0
1758076598.74816,1758076598.77669,0.0,0.0,0.0,-42.97184,-16.50119,6.99009,9.43,-0.01,-0.72,2.0
1758076598.76325,1758076598.78669,0.0,0.0,0.0,-41.94051,-4.98473,5.4431,11.37,-0.05,-0.8,2.0
1758076598.78023,1758076598.79669,0.0,0.0,0.0,-42.1124,13.80828,4.0107,11.37,-0.05,-0.8,2.0
1758076598.78119,1758076598.80669,0.0,0.0,0.0,-37.87251,6.7609,7.84952,12.87,0.16,0.34,2.0
1758076598.79631,1758076598.81669,0.0,0.0,0.0,-42.28429,-28.01764,-0.74485,12.87,0.16,0.34,2.0
1758076598.79831,1758076598.82669,0.0,0.0,0.0,-42.51347,-43.31561,-4.1253,8.43,0.69,1.03,2.0
1758076598.81329,1758076598.83669,0.0,0.0,0.0,-42.39888,-46.69606,-9.68299,8.43,0.69,1.03,2.0
1758076598.83026,1758076598.84669,0.0,0.0,0.0,-43.14373,-43.77398,-15.64175,11.21,0.84,-0.44,2.0
1758076598.83125,1758076598.85669,0.0,0.0,0.0,-45.09178,-37.52874,-16.21471,10.32,0.84,-1.36,2.0
1758076598.84733,1758076598.86669,0.0,0.0,0.0,-47.89928,-33.17426,-14.49583,10.32,0.84,-1.36,2.0
1758076598.8485,1758076598.87669,0.0,0.0,0.0,-48.41494,-32.77319,-10.94349,7.98,0.28,-0.72,2.0
1758076598.86304,1758076598.88669,0.0,0.0,0.0,-43.60209,-50.76406,-9.28192,7.98,0.28,-0.72,2.0
1758076598.8804,1758076598.89669,0.0,0.0,0.0,-36.38282,-76.26069,-11.80293,6.7,-0.69,2.56,2.0
1758076598.8813,1758076598.90669,0.0,0.0,0.0,-30.19488,-106.0545,-21.31403,6.7,-0.69,2.56,2.0
1758076598.89807,1758076598.91669,0.0,0.0,0.0,-21.48592,-126.39449,-44.51882,8.54,-2.33,6.61,2.0
1758076598.90085,1758076598.92669,0.0,0.0,0.0,-6.13065,-117.34176,-56.14987,14.41,-3.79,6.78,2.0
1758076598.91644,1758076598.93669,0.0,0.0,0.0,2.92208,-111.09652,-62.85347,14.41,-3.79,6.78,2.0
1758076598.91731,1758076598.94669,0.0,0.0,0.0,8.76626,-109.77872,-62.68159,12.52,-3.35,6.64,2.0
1758076598.93238,1758076598.95669,0.0,0.0,0.0,9.91217,-112.70081,-54.08722,12.52,-3.35,6.64,2.0
1758076598.95098,1758076598.96669,0.0,0.0,0.0,6.13065,-108.23174,-44.9199,10.89,-1.47,4.77,2.0
1758076598.9543,1758076598.97669,0.0,0.0,0.0,-0.80214,-99.29359,-33.11696,10.89,-1.47,4.77,2.0
1758076598.96997,1758076598.98669,0.0,0.0,0.0,-9.5684,-92.41809,-20.62648,12.93,0.72,3.3,2.0
1758076598.97147,1758076598.99669,0.0,0.0,0.0,-18.90761,-95.28289,-2.57831,12.93,0.72,1.63,2.0
1758076598.98993,1758076599.00669,0.0,0.0,0.0,-19.99623,-48.9879,6.70361,14.17,1.96,1.63,2.0
1758076598.99109,1758076599.01669,0.0,0.0,0.0,-29.67921,-39.3622,11.86023,14.82,2.16,0.48,2.0
1758076599.00615,1758076599.02669,0.0,0.0,0.0,-30.30947,-23.89234,13.86558,14.82,2.16,0.48,2.0
1758076599.00771,1758076599.03669,0.0,0.0,0.0,-29.73651,-3.49504,11.57375,12.2,1.28,0.08,2.0
1758076599.02319,1758076599.04669,0.0,0.0,0.0,-28.76248,11.00079,8.02141,12.2,1.28,0.08,2.0
1758076599.0402,1758076599.05669,0.0,0.0,0.0,-27.2155,25.09555,4.18259,10.88,0.14,0.01,2.0
1758076599.04115,1758076599.06669,0.0,0.0,0.0,-26.01229,36.84119,0.68755,10.88,0.14,0.01,2.0
1758076599.05719,1758076599.07669,0.0,0.0,0.0,-23.83505,51.6235,-2.57831,9.13,-0.72,-0.1,2.0
1758076599.05815,1758076599.08669,0.0,0.0,0.0,-22.74642,60.10328,-4.69825,7.71,-1.3,0.18,2.0
1758076599.0732,1758076599.09669,0.0,0.0,0.0,-21.37133,65.14531,-5.78687,7.71,-1.3,0.18,2.0
1758076599.09,1758076599.10669,0.0,0.0,0.0,-19.36597,69.90086,-6.58902,6.8,-1.5,0.55,2.0
1758076599.09146,1758076599.11669,0.0,0.0,0.0,-15.29797,75.97421,-7.67763,6.8,-1.5,0.55,2.0
1758076599.10618,1758076599.12669,0.0,0.0,0.0,-11.17268,79.06818,-8.0787,6.52,-1.58,0.99,2.0
1758076599.1077,1758076599.13669,0.0,0.0,0.0,-6.35983,81.41731,-8.88085,6.52,-1.58,0.99,2.0
1758076599.12488,1758076599.14669,0.0,0.0,0.0,2.92208,80.1568,-8.42248,6.5,-1.76,0.96,2.0
1758076599.1405,1758076599.15669,0.0,0.0,0.0,9.74028,75.68773,-7.67763,6.8,-1.95,0.83,2.0
1758076599.14142,1758076599.16669,0.0,0.0,0.0,16.84496,73.68237,-6.18794,6.8,-1.95,0.83,2.0
1758076599.15845,1758076599.17669,0.0,0.0,0.0,24.23611,72.19269,-3.72423,8.3,-2.19,0.58,2.0
1758076599.16053,1758076599.18669,0.0,0.0,0.0,34.60666,72.99483,2.23454,8.3,-2.19,0.58,2.0
1758076599.17551,1758076599.19669,0.0,0.0,0.0,40.7946,74.31263,6.8182,9.85,-2.32,0.43,2.0
1758076599.17991,1758076599.20669,0.0,0.0,0.0,45.89392,75.51585,11.51645,9.85,-2.32,0.43,2.0
1758076599.19522,1758076599.21669,0.0,0.0,0.0,49.84733,75.68773,15.41257,10.52,-2.0,0.39,2.0
1758076599.1972,1758076599.22669,0.0,0.0,0.0,53.34238,71.04677,18.73572,10.28,-2.0,0.37,2.0
1758076599.21423,1758076599.23669,0.0,0.0,0.0,54.431,59.12925,19.48057,10.28,-1.33,0.37,2.0
1758076599.23053,1758076599.24669,0.0,0.0,0.0,53.05589,44.11775,17.99088,9.17,-0.73,0.37,2.0
1758076599.23174,1758076599.25669,0.0,0.0,0.0,51.16513,37.75792,12.89155,9.17,-0.73,0.37,2.0
1758076599.24649,1758076599.26669,0.0,0.0,0.0,49.27437,52.884,7.39116,11.11,-0.2,-0.51,2.0
1758076599.2499,1758076599.27669,0.0,0.0,0.0,48.41494,55.11855,3.55234,11.11,-0.2,-0.51,2.0
1758076599.26532,1758076599.28669,0.0,0.0,0.0,47.78468,50.76406,1.48969,10.76,0.28,-0.34,2.0
1758076599.26761,1758076599.29669,0.0,0.0,0.0,45.20637,47.09713,-1.77617,10.76,0.28,-0.34,2.0
1758076599.28436,1758076599.30669,0.0,0.0,0.0,41.59674,39.99245,-3.95341,10.1,0.39,0.46,2.0
1758076599.3006,1758076599.31669,0.0,0.0,0.0,37.35685,35.69527,-5.09932,10.38,0.43,0.03,2.0
1758076599.30157,1758076599.32669,0.0,0.0,0.0,33.34615,23.0329,-7.67763,10.38,0.43,0.03,2.0
1758076599.31654,1758076599.33669,0.0,0.0,0.0,31.62727,-12.08941,-6.70361,8.17,0.18,-0.25,2.0
1758076599.31945,1758076599.34669,0.0,0.0,0.0,34.77854,-58.67088,2.06265,8.17,0.18,-0.25,2.0
1758076599.3346,1758076599.35669,0.0,0.0,0.0,34.32018,-58.90006,6.41713,9.14,-0.47,-1.49,2.0
1758076599.35037,1758076599.36669,0.0,0.0,0.0,35.52338,-45.26366,10.48513,9.14,-0.47,-1.49,2.0
1758076599.35485,1758076599.37669,0.0,0.0,0.0,36.84119,-38.1017,14.9542,11.96,-0.61,-1.5,2.0
1758076599.3704,1758076599.38669,0.0,0.0,0.0,37.18496,-36.26823,16.38659,9.84,-0.51,-0.47,2.0
1758076599.37159,1758076599.39669,0.0,0.0,0.0,34.14828,-38.27358,16.90226,9.84,-0.51,-0.47,2.0
1758076599.38665,1758076599.40669,0.0,0.0,0.0,27.33009,-45.77933,17.01685,9.77,-0.05,2.48,2.0
1758076599.38787,1758076599.41669,0.0,0.0,0.0,14.49583,-78.55252,24.35071,9.77,-0.05,2.48,2.0
1758076599.40241,1758076599.42669,0.0,0.0,0.0,6.53172,-99.00711,36.49741,10.72,1.11,5.51,2.0
1758076599.42035,1758076599.43669,0.0,0.0,0.0,-1.83346,-100.6114,47.95657,10.72,1.11,5.51,2.0
1758076599.4264,1758076599.44669,0.0,0.0,0.0,-10.08406,-96.19962,57.18119,14.77,2.03,6.72,2.0
1758076599.42679,1758076599.45669,0.0,0.0,0.0,-21.14215,-91.44406,60.04598,12.22,2.76,5.78,2.0
1758076599.44527,1758076599.46669,0.0,0.0,0.0,-26.24147,-94.30885,57.92604,12.22,2.76,5.78,2.0
1758076599.46281,1758076599.47669,0.0,0.0,0.0,-26.98631,-96.77258,55.51962,8.54,2.28,5.71,2.0
1758076599.46905,1758076599.48669,0.0,0.0,0.0,-26.35606,-91.78784,48.70141,8.54,2.28,5.71,2.0
1758076599.4702,1758076599.49669,0.0,0.0,0.0,-18.22006,-82.50593,37.01308,8.79,1.28,4.5,2.0
1758076599.48746,1758076599.50669,0.0,0.0,0.0,-11.74564,-74.36993,27.04361,8.79,1.28,4.5,2.0
1758076599.49008,1758076599.51669,0.0,0.0,0.0,-6.18794,-62.39511,16.38659,10.91,0.2,3.62,2.0
1758076599.50555,1758076599.52669,0.0,0.0,0.0,-2.57831,-46.81066,5.15662,10.91,0.2,3.62,2.0
1758076599.51096,1758076599.53669,0.0,0.0,0.0,-0.80214,-18.79302,-9.28192,13.64,-0.6,2.05,2.0
1758076599.53074,1758076599.54669,0.0,0.0,0.0,-1.14592,-1.66158,-15.06879,13.78,-0.86,0.51,2.0
1758076599.53565,1758076599.55669,0.0,0.0,0.0,-2.86479,13.17803,-18.22006,13.78,-0.86,0.51,2.0
1758076599.55051,1758076599.56669,0.0,0.0,0.0,-4.58366,26.98631,-17.58981,11.88,-0.71,-0.31,2.0
1758076599.55495,1758076599.57669,0.0,0.0,0.0,-5.27121,47.95657,-15.75634,11.88,-0.71,-0.31,2.0
1758076599.57051,1758076599.58669,0.0,0.0,0.0,-5.09932,59.87409,-13.00614,10.65,-0.36,-0.64,2.0
1758076599.57496,1758076599.59669,0.0,0.0,0.0,-4.92744,72.13539,-9.62569,10.65,-0.36,-0.64,2.0
1758076599.59077,1758076599.60669,0.0,0.0,0.0,-2.57831,84.68317,-5.21392,9.18,0.06,-0.43,2.0
1758076599.59171,1758076599.61669,0.0,0.0,0.0,-1.20321,89.83979,-3.38045,7.77,0.26,0.67,2.0
1758076599.61056,1758076599.62669,0.0,0.0,0.0,0.22918,92.3035,-0.74485,7.77,0.26,0.67,2.0
1758076599.61198,1758076599.63669,0.0,0.0,0.0,0.74485,93.6786,0.57296,6.79,0.54,1.23,2.0
1758076599.62758,1758076599.64669,0.0,0.0,0.0,0.45837,86.68852,3.09397,6.79,0.54,1.23,2.0
1758076599.62964,1758076599.65669,0.0,0.0,0.0,-0.17189,77.57849,5.27121,5.78,0.78,1.46,2.0
1758076599.64479,1758076599.66669,0.0,0.0,0.0,-3.20856,69.15601,5.61499,5.78,0.78,1.46,2.0
1758076599.66078,1758076599.67669,0.0,0.0,0.0,-6.7609,63.42643,5.4431,5.99,1.02,1.24,2.0
1758076599.66175,1758076599.68669,0.0,0.0,0.0,-13.80828,58.09792,2.00535,7.33,1.32,0.48,2.0
1758076599.67737,1758076599.69669,0.0,0.0,0.0,-19.07949,56.26446,-2.11994,7.33,1.32,0.48,2.0
1758076599.68129,1758076599.70669,0.0,0.0,0.0,-24.75178,55.51962,-8.02141,8.6,1.66,0.26,2.0
1758076599.69734,1758076599.71669,0.0,0.0,0.0,-30.25217,54.3737,-13.5218,8.6,1.66,0.26,2.0
1758076599.7001,1758076599.72669,0.0,0.0,0.0,-37.47144,54.71747,-22.28806,9.52,1.78,0.51,2.0
1758076599.71589,1758076599.73669,0.0,0.0,0.0,-40.7946,54.08722,-27.1582,9.52,1.78,0.51,2.0
1758076599.71671,1758076599.74669,0.0,0.0,0.0,-42.1124,46.40959,-28.59059,10.04,1.46,0.37,2.0
1758076599.73264,1758076599.75669,0.0,0.0,0.0,-42.1124,35.3515,-26.41335,10.04,1.46,0.37,2.0
1758076599.7486,1758076599.76669,0.0,0.0,0.0,-41.65404,18.85031,-22.34536,9.49,0.91,0.12,2.0
1758076599.74975,1758076599.77669,0.0,0.0,0.0,-41.13837,11.11538,-17.18874,9.73,0.4,-0.41,2.0
1758076599.7646,1758076599.78669,0.0,0.0,0.0,-41.13837,6.53172,-11.00079,9.73,0.4,-0.41,2.0
1758076599.78061,1758076599.79669,0.0,0.0,0.0,-40.68,19.25138,-4.64096,11.29,-0.06,-0.51,2.0
1758076599.78291,1758076599.80669,0.0,0.0,0.0,-41.88322,25.72581,-2.00535,11.29,-0.06,-0.51,2.0
1758076599.79946,1758076599.81669,0.0,0.0,0.0,-42.97184,32.48671,0.0573,12.11,-0.49,-0.36,2.0
1758076599.80044,1758076599.82669,0.0,0.0,0.0,-41.31026,20.34,3.72423,12.11,-0.49,-0.36,2.0
1758076599.81569,1758076599.83669,0.0,0.0,0.0,-40.7373,-17.58981,-1.94806,10.27,0.1,0.75,2.0
1758076599.81796,1758076599.84669,0.0,0.0,0.0,-41.42485,-29.56462,-5.55769,10.78,0.47,0.05,2.0
1758076599.83492,1758076599.85669,0.0,0.0,0.0,-40.7946,-35.2942,-8.93814,10.78,0.47,0.05,2.0
1758076599.85093,1758076599.86669,0.0,0.0,0.0,-39.24761,-39.01843,-11.63104,11.18,0.75,-0.48,2.0
1758076599.85266,1758076599.87669,0.0,0.0,0.0,-38.78925,-42.91454,-14.72501,11.18,0.75,-0.48,2.0
1758076599.86785,1758076599.88669,0.0,0.0,0.0,-40.04975,-43.4875,-14.61043,10.04,0.58,0.23,2.0
1758076599.86919,1758076599.89669,0.0,0.0,0.0,-40.10705,-44.51882,-13.12073,10.04,0.58,0.23,2.0
1758076599.88473,1758076599.90669,0.0,0.0,0.0,-37.18496,-50.64947,-11.28727,8.48,-0.07,0.26,2.0
1758076599.901,1758076599.91669,0.0,0.0,0.0,-29.04896,-79.64114,-13.80828,7.75,-1.49,3.96,2.0
1758076599.90195,1758076599.92669,0.0,0.0,0.0,-23.0329,-105.48153,-20.68378,7.75,-1.49,3.96,2.0
1758076599.91773,1758076599.93669,0.0,0.0,0.0,-17.13144,-119.06063,-31.85646,10.03,-3.42,6.51,2.0
1758076599.91902,1758076599.94669,0.0,0.0,0.0,-9.22462,-120.37844,-42.62806,10.03,-3.42,6.51,2.0
1758076599.93368,1758076599.95669,0.0,0.0,0.0,3.09397,-112.35703,-52.13916,13.19,-3.55,6.34,2.0
1758076599.94992,1758076599.96669,0.0,0.0,0.0,9.22462,-109.77872,-52.82671,13.19,-3.55,6.34,2.0
1758076599.95113,1758076599.97669,0.0,0.0,0.0,11.97482,-108.80469,-50.76406,10.92,-2.03,5.55,2.0
1758076599.96592,1758076599.98669,0.0,0.0,0.0,9.11003,-105.36694,-43.54479,10.92,-2.03,5.55,2.0
1758076599.97122,1758076599.99669,0.0,0.0,0.0,2.97938,-96.02773,-36.84119,10.31,-0.28,4.1,2.0
1758076599.98702,1758076600.00669,0.0,0.0,0.0,38.15899,-83.53725,-28.70519,12.29,1.23,3.21,2.0
1758076599.98797,1758076600.01669,0.0,0.0,0.0,-4.69825,-86.00097,-19.76705,12.29,1.23,3.21,2.0
1758076600.00276,1758076600.02669,0.0,0.0,0.0,3.49504,-71.10406,-6.35983,14.68,1.85,1.82,2.0
1758076600.02063,1758076600.03669,0.0,0.0,0.0,-24.35071,-38.61736,0.51566,14.68,1.85,1.82,2.0
1758076600.02274,1758076600.04669,0.0,0.0,0.0,-26.64254,-24.35071,5.4431,14.38,1.67,0.41,2.0
1758076600.03904,1758076600.05669,0.0,0.0,0.0,-27.38738,-10.94349,7.67763,14.38,1.67,0.41,2.0
1758076600.04105,1758076600.06669,0.0,0.0,0.0,-27.33009,9.62569,7.96411,11.58,0.87,0.25,2.0
1758076600.05597,1758076600.07669,0.0,0.0,0.0,-25.89769,24.17882,7.16197,10.12,-0.02,0.17,2.0
1758076600.06046,1758076600.08669,0.0,0.0,0.0,-24.4653,36.15364,6.35983,10.12,-0.02,0.17,2.0
1758076600.07586,1758076600.09669,0.0,0.0,0.0,-22.74642,45.49285,5.84417,8.33,-0.66,0.07,2.0
1758076600.07777,1758076600.10669,0.0,0.0,0.0,-21.31403,55.97798,3.89611,8.33,-0.66,0.07,2.0
1758076600.09392,1758076600.11669,0.0,0.0,0.0,-20.11082,61.42108,2.40642,7.02,-1.02,0.39,2.0
1758076600.1098,1758076600.12669,0.0,0.0,0.0,-18.33465,65.48907,1.43239,7.02,-1.02,0.39,2.0
1758076600.11104,1758076600.13669,0.0,0.0,0.0,-16.84496,70.47381,0.0,6.63,-1.36,0.85,2.0
1758076600.12583,1758076600.14669,0.0,0.0,0.0,-12.89155,76.1461,-2.7502,6.52,-1.68,1.25,2.0
1758076600.13132,1758076600.15669,0.0,0.0,0.0,-8.93814,78.20874,-4.64096,6.52,-1.68,1.25,2.0
1758076600.14712,1758076600.16669,0.0,0.0,0.0,-4.23989,77.52119,-5.95876,6.5,-1.9,0.99,2.0
1758076600.14801,1758076600.17669,0.0,0.0,0.0,1.14592,75.80232,-7.16197,6.5,-1.9,0.99,2.0
1758076600.16287,1758076600.18669,0.0,0.0,0.0,10.8289,75.63043,-6.70361,7.27,-1.92,0.76,2.0
1758076600.1812,1758076600.19669,0.0,0.0,0.0,17.99088,76.94823,-4.46907,7.27,-1.92,0.76,2.0
1758076600.18358,1758076600.20669,0.0,0.0,0.0,25.15285,79.12547,-1.03132,8.92,-1.83,0.33,2.0
1758076600.20012,1758076600.21669,0.0,0.0,0.0,35.12231,84.45398,5.15662,8.92,-1.83,0.33,2.0
1758076600.20054,1758076600.22669,0.0,0.0,0.0,41.08107,87.66255,9.28192,10.49,-1.7,0.43,2.0
1758076600.21589,1758076600.23669,0.0,0.0,0.0,45.83662,89.26682,12.14671,11.01,-1.31,0.22,2.0
1758076600.21787,1758076600.24669,0.0,0.0,0.0,49.04519,87.94903,13.46451,11.01,-1.31,0.22,2.0
1758076600.23319,1758076600.25669,0.0,0.0,0.0,52.884,70.93218,14.9542,10.29,-0.92,0.22,2.0
1758076600.24996,1758076600.26669,0.0,0.0,0.0,52.76942,53.74345,13.40721,10.29,-0.92,0.22,2.0
1758076600.2505,1758076600.27669,0.0,0.0,0.0,52.13916,42.97184,10.8862,9.32,-0.81,-0.04,2.0
1758076600.266,1758076600.28669,0.0,0.0,0.0,48.9306,49.04519,5.61499,9.32,-0.81,-0.04,2.0
1758076600.2711,1758076600.29669,0.0,0.0,0.0,49.61814,54.08722,0.57296,11.63,-0.55,-0.64,2.0
1758076600.28599,1758076600.30669,0.0,0.0,0.0,49.15978,46.98254,-0.17189,10.91,-0.18,-0.18,2.0
1758076600.28788,1758076600.31669,0.0,0.0,0.0,46.2377,40.39353,-1.66158,10.91,-0.18,-0.18,2.0
1758076600.30323,1758076600.32669,0.0,0.0,0.0,42.05511,35.52338,-1.94806,11.28,-0.12,1.48,2.0
1758076600.31926,1758076600.33669,0.0,0.0,0.0,34.89313,26.64254,-2.6929,11.28,-0.12,1.48,2.0
1758076600.32037,1758076600.34669,0.0,0.0,0.0,31.28349,11.91752,-3.38045,10.93,0.13,0.41,2.0
1758076600.33513,1758076600.35669,0.0,0.0,0.0,24.80907,-14.72501,-5.90147,10.93,0.13,0.41,2.0
1758076600.33636,1758076600.36669,0.0,0.0,0.0,24.92367,-44.11775,1.60428,8.05,0.35,-0.51,2.0
1758076600.35149,1758076600.37669,0.0,0.0,0.0,22.86102,-52.54023,9.05273,9.57,-0.38,-0.9,2.0
1758076600.36821,1758076600.38669,0.0,0.0,0.0,22.00158,-48.75871,15.06879,9.57,-0.38,-0.9,2.0
1758076600.3707,1758076600.39669,0.0,0.0,0.0,16.67307,-52.76942,18.50654,10.2,-0.12,0.35,2.0
1758076600.386,1758076600.40669,0.0,0.0,0.0,5.4431,-70.53111,32.54401,10.2,-0.12,0.35,2.0
1758076600.38904,1758076600.41669,0.0,0.0,0.0,-1.43239,-102.78864,46.2377,10.89,1.33,6.66,2.0
1758076600.406,1758076600.42669,0.0,0.0,0.0,-9.96947,-106.97123,56.37905,10.89,1.33,6.66,2.0
1758076600.40717,1758076600.43669,0.0,0.0,0.0,-19.70975,-100.09573,60.44705,14.0,2.15,7.11,2.0
1758076600.42543,1758076600.44669,0.0,0.0,0.0,-33.74722,-90.92841,56.78012,14.0,2.15,7.11,2.0
1758076600.42635,1758076600.45669,0.0,0.0,0.0,-39.64868,-92.18892,51.79538,12.04,2.52,6.34,2.0
1758076600.44305,1758076600.46669,0.0,0.0,0.0,-40.33623,-94.25156,47.49821,8.33,1.82,5.28,2.0
1758076600.44593,1758076600.47669,0.0,0.0,0.0,-38.78925,-91.50137,40.04975,8.33,1.82,5.28,2.0
1758076600.46161,1758076600.48669,0.0,0.0,0.0,-26.87172,-90.18356,30.82513,8.18,0.74,4.44,2.0
1758076600.47728,1758076600.49669,0.0,0.0,0.0,-16.55848,-84.91235,23.89234,8.18,0.74,4.44,2.0
1758076600.47826,1758076600.50669,0.0,0.0,0.0,-6.18794,-76.94823,16.67307,10.37,-0.19,3.98,2.0
1758076600.49325,1758076600.51669,0.0,0.0,0.0,2.6929,-67.37984,9.33921,10.37,-0.19,3.98,2.0
1758076600.50911,1758076600.52668,0.0,0.0,0.0,11.86023,-48.70141,-0.40107,12.73,-0.88,2.91,2.0
1758076600.51027,1758076600.53668,0.0,0.0,0.0,15.41257,-34.37747,-4.69825,13.05,-0.95,1.52,2.0
1758076600.52532,1758076600.54668,0.0,0.0,0.0,16.61578,-19.48057,-7.10468,13.05,-0.95,1.52,2.0
1758076600.52626,1758076600.55668,0.0,0.0,0.0,16.21471,-4.46907,-8.25059,11.51,-0.49,0.4,2.0
1758076600.54255,1758076600.56668,0.0,0.0,0.0,13.5791,15.92823,-7.79223,11.51,-0.49,0.4,2.0
1758076600.5463,1758076600.57668,0.0,0.0,0.0,10.94349,28.64789,-6.87549,9.58,0.07,-0.05,2.0
1758076600.56335,1758076600.58668,0.0,0.0,0.0,8.93814,40.62271,-5.61499,9.58,0.07,-0.05,2.0
1758076600.56506,1758076600.59668,0.0,0.0,0.0,6.70361,51.79538,-4.1253,8.21,0.61,0.02,2.0
1758076600.58175,1758076600.60668,0.0,0.0,0.0,3.20856,68.58305,-2.92208,7.46,1.17,0.17,2.0
1758076600.59738,1758076600.61668,0.0,0.0,0.0,1.66158,78.03686,-0.97403,7.46,1.17,0.17,2.0
1758076600.59912,1758076600.62668,0.0,0.0,0.0,0.17189,83.47996,-0.34377,7.05,1.54,0.87,2.0
1758076600.61407,1758076600.63668,0.0,0.0,0.0,-2.11994,88.35009,0.97403,7.05,1.54,0.87,2.0
1758076600.61536,1758076600.64668,0.0,0.0,0.0,-3.60963,91.21489,2.46372,7.38,1.56,1.44,2.0
1758076600.63486,1758076600.65668,0.0,0.0,0.0,-5.4431,92.36081,3.66693,7.38,1.56,1.44,2.0
1758076600.63585,1758076600.66668,0.0,0.0,0.0,-7.73493,87.66255,4.18259,7.75,1.47,1.76,2.0
1758076600.65167,1758076600.67668,0.0,0.0,0.0,-11.00079,76.89094,4.87014,7.75,1.47,1.6,2.0
1758076600.65573,1758076600.68668,0.0,0.0,0.0,-13.5791,71.04677,4.18259,7.67,1.21,1.6,2.0
1758076600.6733,1758076600.69668,0.0,0.0,0.0,-16.67307,67.72362,2.29183,8.92,0.98,1.45,2.0
1758076600.68835,1758076600.70668,0.0,0.0,0.0,-20.22541,65.89015,-1.60428,8.92,0.98,1.45,2.0
1758076600.68936,1758076600.71668,0.0,0.0,0.0,-26.12688,66.17663,-9.33921,10.25,0.77,1.23,2.0
1758076600.70546,1758076600.72668,0.0,0.0,0.0,-29.8511,65.2026,-13.69369,10.25,0.77,1.23,2.0
1758076600.71122,1758076600.73668,0.0,0.0,0.0,-33.63263,63.31184,-17.6471,10.82,0.68,1.23,2.0
1758076600.72941,1758076600.74668,0.0,0.0,0.0,-37.12767,60.96271,-19.36597,10.82,0.68,1.23,2.0
1758076600.73136,1758076600.75668,0.0,0.0,0.0,-41.99781,51.73809,-20.74107,10.71,0.78,0.84,2.0
1758076600.74809,1758076600.76668,0.0,0.0,0.0,-43.94586,36.89849,-19.76705,9.71,0.9,0.04,2.0
1758076600.75386,1758076600.77668,0.0,0.0,0.0,-44.46153,18.44924,-17.01685,9.71,0.9,0.04,2.0
1758076600.76931,1758076600.78668,0.0,0.0,0.0,-44.57612,2.23454,-12.83425,9.03,0.56,-0.78,2.0
1758076600.77044,1758076600.79668,0.0,0.0,0.0,-43.77398,-14.9542,-6.07335,9.03,0.56,-0.78,2.0
1758076600.78527,1758076600.80668,0.0,0.0,0.0,-42.68536,-22.68913,-0.57296,9.42,0.11,-1.12,2.0
1758076600.79047,1758076600.81668,0.0,0.0,0.0,-40.68,-14.38124,1.60428,9.42,0.11,-1.12,2.0
1758076600.8056,1758076600.82668,0.0,0.0,0.0,-36.15364,2.23454,-0.22918,11.32,0.06,-0.66,2.0
1758076600.80758,1758076600.83668,0.0,0.0,0.0,-31.28349,8.25059,4.35448,11.04,0.0,0.62,2.0
1758076600.82537,1758076600.84668,0.0,0.0,0.0,-32.48671,-28.36141,-2.97938,11.04,0.0,0.62,2.0
1758076600.82625,1758076600.85668,0.0,0.0,0.0,-31.56997,-46.1231,-4.92744,7.45,0.0,0.93,2.0
1758076600.8456,1758076600.86668,0.0,0.0,0.0,-33.17426,-50.93595,-9.62569,7.45,0.0,0.93,2.0
1758076600.8516,1758076600.87668,0.0,0.0,0.0,-35.2942,-52.02457,-10.48513,9.15,0.0,-1.14,2.0
1758076600.86652,1758076600.88668,0.0,0.0,0.0,-35.06502,-54.14451,-10.08406,9.15,0.0,-1.14,2.0
1758076600.86751,1758076600.89668,0.0,0.0,0.0,-32.71589,-67.66632,-11.57375,7.29,-0.26,0.62,2.0
1758076600.88233,1758076600.90668,0.0,0.0,0.0,-24.29341,-103.93455,-19.25138,7.55,-0.26,6.81,2.0
1758076600.89834,1758076600.91668,0.0,0.0,0.0,-17.30333,-122.32648,-31.45539,7.55,-1.21,6.81,2.0
1758076600.90105,1758076600.92668,0.0,0.0,0.0,-8.30789,-116.13856,-43.31561,13.86,-3.56,8.87,2.0
1758076600.91661,1758076600.93668,0.0,0.0,0.0,1.77617,-97.11635,-50.93595,13.86,-3.56,8.87,2.0
1758076600.91858,1758076600.94668,0.0,0.0,0.0,16.38659,-87.26147,-50.59217,15.6,-3.83,7.92,2.0
1758076600.93415,1758076600.95668,0.0,0.0,0.0,21.37133,-94.07968,-46.46688,15.6,-3.83,7.92,2.0
1758076600.93577,1758076600.96668,0.0,0.0,0.0,22.57454,-97.17365,-39.82057,10.58,-2.12,5.18,2.0
1758076600.95156,1758076600.97668,0.0,0.0,0.0,19.88164,-91.1003,-31.85646,10.58,-2.12,5.18,2.0
1758076600.96866,1758076600.98668,0.0,0.0,0.0,10.48513,-77.4639,-18.33465,12.11,-0.33,2.89,2.0
1758076600.97384,1758076600.99668,0.0,0.0,0.0,3.26586,-67.15066,-9.22462,13.64,0.81,2.44,2.0
1758076600.98841,1758076601.00668,0.0,0.0,0.0,-4.29718,-55.6915,-1.14592,13.64,0.81,2.44,2.0
1758076600.99071,1758076601.01668,0.0,0.0,0.0,-6.47442,-48.30034,6.53172,14.21,1.49,1.84,2.0
1758076601.0057,1758076601.02668,0.0,0.0,0.0,-29.96569,-37.98711,8.47978,14.21,1.49,1.84,2.0
1758076601.01095,1758076601.03668,0.0,0.0,0.0,5.4431,-51.16513,8.36518,12.28,1.57,1.02,2.0
1758076601.0257,1758076601.04668,0.0,0.0,0.0,-25.7831,-0.85944,7.50575,12.28,1.57,1.02,2.0
1758076601.02666,1758076601.05668,0.0,0.0,0.0,-26.12688,13.86558,5.15662,10.79,0.93,0.68,2.0
1758076601.04169,1758076601.06668,0.0,0.0,0.0,-25.43933,23.26209,2.97938,9.32,0.07,1.04,2.0
1758076601.04582,1758076601.07668,0.0,0.0,0.0,-24.63719,32.08564,1.03132,9.32,0.07,1.04,2.0
1758076601.0657,1758076601.08668,0.0,0.0,0.0,-24.12152,38.27358,-0.68755,7.83,-0.66,1.03,2.0
1758076601.07092,1758076601.09668,0.0,0.0,0.0,-22.11617,44.748,-2.92208,7.83,-0.66,1.03,2.0
1758076601.08573,1758076601.10668,0.0,0.0,0.0,-21.02755,48.12846,-4.52637,6.79,-1.28,1.11,2.0
1758076601.09096,1758076601.11668,0.0,0.0,0.0,-19.42327,51.90998,-5.32851,6.79,-1.28,1.11,2.0
1758076601.10573,1758076601.12668,0.0,0.0,0.0,-17.30333,55.7488,-6.8182,6.6,-1.64,1.07,2.0
1758076601.1069,1758076601.13668,0.0,0.0,0.0,-13.12073,58.84277,-9.39651,6.47,-1.69,1.1,2.0
1758076601.12252,1758076601.14668,0.0,0.0,0.0,-9.74028,60.73353,-11.22997,6.47,-1.69,1.1,2.0
1758076601.14053,1758076601.15668,0.0,0.0,0.0,-6.41713,62.39511,-13.12073,6.9,-1.54,1.18,2.0
1758076601.14239,1758076601.16668,0.0,0.0,0.0,-2.92208,64.91612,-14.66772,6.9,-1.54,1.18,2.0
1758076601.15777,1758076601.17668,0.0,0.0,0.0,3.20856,66.69229,-14.72501,7.61,-1.33,1.31,2.0
1758076601.1587,1758076601.18668,0.0,0.0,0.0,7.67763,64.17127,-13.23533,7.61,-1.33,1.31,2.0
1758076601.17455,1758076601.19668,0.0,0.0,0.0,12.14671,61.42108,-11.22997,7.93,-1.19,1.26,2.0
1758076601.17585,1758076601.20668,0.0,0.0,0.0,16.50119,59.01466,-8.25059,7.93,-1.19,1.26,2.0
1758076601.19327,1758076601.21668,0.0,0.0,0.0,23.72045,57.46767,-2.40642,9.07,-1.15,1.16,2.0
1758076601.21035,1758076601.22668,0.0,0.0,0.0,29.22085,55.6342,2.06265,9.75,-1.12,0.54,2.0
1758076601.21393,1758076601.23668,0.0,0.0,0.0,34.72124,54.3164,5.55769,9.75,-1.12,0.54,2.0
1758076601.23037,1758076601.24668,0.0,0.0,0.0,42.28429,52.71212,9.68299,10.08,-1.18,0.24,2.0
1758076601.23402,1758076601.25668,0.0,0.0,0.0,46.52417,47.32632,11.00079,10.08,-1.18,0.24,2.0
1758076601.2506,1758076601.26668,0.0,0.0,0.0,49.96192,40.7373,11.80293,10.22,-1.23,0.23,2.0
1758076601.25402,1758076601.27668,0.0,0.0,0.0,52.54023,25.55392,11.97482,10.22,-1.23,0.23,2.0
1758076601.26962,1758076601.28668,0.0,0.0,0.0,52.08187,-1.66158,9.68299,9.35,-1.06,-0.08,2.0
1758076601.27081,1758076601.29668,0.0,0.0,0.0,48.9879,-7.44845,4.35448,10.54,-0.6,-0.92,2.0
1758076601.28581,1758076601.30668,0.0,0.0,0.0,45.83662,3.72423,4.69825,10.54,-0.6,-0.92,2.0
1758076601.29107,1758076601.31668,0.0,0.0,0.0,41.42485,10.94349,1.77617,13.19,-0.31,-0.78,2.0
1758076601.30585,1758076601.32668,0.0,0.0,0.0,35.06502,15.12609,-1.08862,13.19,-0.31,-0.78,2.0
1758076601.30683,1758076601.33668,0.0,0.0,0.0,30.93972,17.58981,-3.03668,12.22,-0.01,0.3,2.0
1758076601.32241,1758076601.34668,0.0,0.0,0.0,26.69983,18.73572,-4.98473,12.22,-0.01,0.3,2.0
1758076601.33994,1758076601.35668,0.0,0.0,0.0,23.37668,4.98473,-8.30789,11.35,0.4,0.44,2.0
1758076601.3411,1758076601.36668,0.0,0.0,0.0,24.00693,-37.64333,-8.47978,6.98,0.45,-0.85,2.0
1758076601.37634,1758076601.37668,0.0,0.0,0.0,25.26744,-60.67623,1.3751,6.98,0.45,-0.85,2.0
1758076601.38516,1758076601.38668,0.0,0.0,0.0,22.34536,-67.55173,9.05273,8.98,-0.28,0.44,2.0
1758076601.38564,1758076601.39668,0.0,0.0,0.0,16.3293,-70.81759,15.98552,8.98,-0.28,0.44,2.0
1758076601.3913,1758076601.40668,0.0,0.0,0.0,9.05273,-93.7359,38.15899,11.49,0.86,4.24,2.0
1758076601.39399,1758076601.41668,0.0,0.0,0.0,4.46907,-102.67403,53.28508,11.49,0.86,4.24,2.0
1758076601.40984,1758076601.42668,0.0,0.0,0.0,-1.08862,-94.25156,62.79618,13.68,1.79,6.91,2.0
1758076601.41124,1758076601.43668,0.0,0.0,0.0,-7.84952,-83.30807,62.16592,13.68,1.79,6.91,2.0
1758076601.42568,1758076601.44668,0.0,0.0,0.0,-16.38659,-87.14688,56.55093,12.38,1.79,5.17,2.0
1758076601.42964,1758076601.45668,0.0,0.0,0.0,-19.25138,-88.63658,51.16513,8.71,1.24,5.04,2.0
1758076601.44498,1758076601.46668,0.0,0.0,0.0,-20.16812,-82.56322,44.40423,8.71,1.24,5.04,2.0
1758076601.44589,1758076601.47668,0.0,0.0,0.0,-16.73037,-74.88559,33.34615,9.67,0.67,4.26,2.0
1758076601.46571,1758076601.48668,0.0,0.0,0.0,-11.80293,-69.04142,26.98631,9.67,0.67,4.26,2.0
1758076601.46687,1758076601.49668,0.0,0.0,0.0,-6.13065,-59.53032,21.14215,11.38,0.32,3.98,2.0
1758076601.48168,1758076601.50668,0.0,0.0,0.0,-1.08862,-50.2484,14.9542,11.38,0.32,3.98,2.0
1758076601.49792,1758076601.51668,0.0,0.0,0.0,4.52637,-31.74186,6.47442,13.5,-0.01,3.13,2.0
1758076601.4998,1758076601.52668,0.0,0.0,0.0,7.21927,-16.95955,2.46372,14.01,-0.26,1.42,2.0
1758076601.51503,1758076601.53668,0.0,0.0,0.0,8.99544,-2.86479,-0.74485,14.01,-0.26,1.42,2.0
