timeStamp,timeStampAlign,roll,pitch,yaw,gyro_x,gyro_y,gyro_z,acc_x,acc_y,acc_z,flag_num
1758076271.7651,1758076271.64098,0.0,0.0,0.0,23.37668,5.21392,5.78687,9.97,0.63,1.21,3.0
1758076271.76632,1758076271.65098,0.0,0.0,0.0,22.86102,4.81285,6.13065,10.04,0.78,1.26,3.0
1758076271.78214,1758076271.66098,0.0,0.0,0.0,22.23076,4.0107,6.41713,10.04,0.78,1.26,3.0
1758076271.78331,1758076271.67098,0.0,0.0,0.0,21.48592,2.97938,6.35983,9.93,0.9,1.35,3.0
1758076271.79832,1758076271.68098,0.0,0.0,0.0,20.62648,0.85944,5.90147,9.93,0.9,1.35,3.0
1758076271.8003,1758076271.69098,0.0,0.0,0.0,19.99623,-1.3751,5.72958,9.73,0.95,1.35,3.0
1758076271.81732,1758076271.70098,0.0,0.0,0.0,19.53786,-4.0107,5.4431,9.73,0.95,1.35,3.0
1758076271.83332,1758076271.71098,0.0,0.0,0.0,19.13679,-6.47442,5.21392,9.46,0.9,1.29,3.0
1758076271.83455,1758076271.72098,0.0,0.0,0.0,18.56383,-7.73493,5.55769,9.58,0.77,1.26,3.0
1758076271.84957,1758076271.73098,0.0,0.0,0.0,18.16276,-6.53172,5.90147,9.58,0.77,1.26,3.0
1758076271.85181,1758076271.74098,0.0,0.0,0.0,17.47521,-5.15662,6.35983,9.81,0.73,1.24,3.0
1758076271.86763,1758076271.75098,0.0,0.0,0.0,16.61578,-3.26586,6.8182,9.81,0.73,1.24,3.0
1758076271.88336,1758076271.76098,0.0,0.0,0.0,14.83961,0.34377,6.53172,9.9,0.78,1.24,3.0
1758076271.88531,1758076271.77098,0.0,0.0,0.0,13.80828,2.97938,6.70361,9.9,0.78,1.24,3.0
1758076271.90042,1758076271.78098,0.0,0.0,0.0,12.60507,5.61499,6.35983,9.83,0.82,1.16,3.0
1758076271.90234,1758076271.79098,0.0,0.0,0.0,11.22997,10.48513,5.09932,9.83,0.82,1.16,3.0
1758076271.91762,1758076271.80098,0.0,0.0,0.0,10.65701,13.12073,4.52637,9.93,0.87,1.1,3.0
1758076271.93333,1758076271.81098,0.0,0.0,0.0,9.91217,13.34992,3.83882,9.83,0.85,1.38,3.0
1758076271.93452,1758076271.82098,0.0,0.0,0.0,9.91217,9.96947,3.55234,9.83,0.85,1.38,3.0
1758076271.94936,1758076271.83098,0.0,0.0,0.0,9.39651,3.20856,2.11994,9.34,0.7,1.8,3.0
1758076271.95379,1758076271.84098,0.0,0.0,0.0,9.5684,1.60428,1.48969,9.34,0.7,1.8,3.0
1758076271.96967,1758076271.85098,0.0,0.0,0.0,9.74028,2.34913,0.80214,9.87,0.45,1.84,3.0
1758076271.97374,1758076271.86098,0.0,0.0,0.0,10.48513,1.14592,0.57296,9.87,0.45,1.84,3.0
1758076271.98944,1758076271.87098,0.0,0.0,0.0,11.80293,-1.60428,0.51566,9.9,0.27,1.93,3.0
1758076271.9906,1758076271.88098,0.0,0.0,0.0,12.54778,-2.97938,1.08862,9.75,0.2,1.8,3.0
1758076272.0075,1758076271.89098,0.0,0.0,0.0,13.34992,-4.58366,1.71887,9.75,0.2,1.8,3.0
1758076272.02361,1758076271.90098,0.0,0.0,0.0,14.03747,-5.90147,2.63561,9.66,0.2,1.7,3.0
1758076272.02725,1758076271.91098,0.0,0.0,0.0,14.15206,-7.62034,3.49504,9.66,0.2,1.7,3.0
1758076272.04276,1758076271.92098,0.0,0.0,0.0,14.15206,-8.30789,3.95341,9.75,0.3,1.88,3.0
1758076272.04358,1758076271.93098,0.0,0.0,0.0,13.5218,-8.65166,3.89611,9.75,0.3,1.88,3.0
1758076272.05868,1758076271.94098,0.0,0.0,0.0,12.60507,-7.84952,3.49504,9.86,0.49,1.96,3.0
1758076272.06283,1758076271.95098,0.0,0.0,0.0,10.65701,-5.61499,2.92208,9.91,0.68,1.93,3.0
1758076272.07834,1758076271.96098,0.0,0.0,0.0,9.22462,-4.1253,2.40642,9.91,0.68,1.93,3.0
1758076272.08113,1758076271.97098,0.0,0.0,0.0,7.39116,-3.26586,1.83346,9.77,0.81,2.01,3.0
1758076272.09748,1758076271.98098,0.0,0.0,0.0,4.64096,-3.83882,1.43239,9.77,0.81,2.01,3.0
1758076272.11343,1758076271.99098,0.0,0.0,0.0,2.63561,-3.38045,1.03132,9.7,0.83,2.06,3.0
1758076272.11617,1758076272.00098,0.0,0.0,0.0,0.68755,-2.40642,0.74485,9.7,0.83,2.06,3.0
1758076272.13168,1758076272.01098,0.0,0.0,0.0,-1.3178,-1.03132,0.51566,9.94,0.79,2.06,3.0
1758076272.13259,1758076272.02098,0.0,0.0,0.0,-3.89611,1.43239,-0.11459,9.94,0.79,2.06,3.0
1758076272.14772,1758076272.03098,0.0,0.0,0.0,-5.15662,2.00535,-0.40107,10.09,0.69,2.1,3.0
1758076272.16374,1758076272.04098,0.0,0.0,0.0,-5.90147,1.60428,-0.74485,9.9,0.53,2.04,3.0
1758076272.16546,1758076272.05098,0.0,0.0,0.0,-6.18794,0.45837,-1.03132,9.9,0.53,2.04,3.0
1758076272.18205,1758076272.06098,0.0,0.0,0.0,-6.18794,-0.34377,-1.3751,9.78,0.32,1.9,3.0
1758076272.18433,1758076272.07098,0.0,0.0,0.0,-6.07335,-0.45837,-1.60428,9.78,0.32,1.9,3.0
1758076272.20014,1758076272.08098,0.0,0.0,0.0,-5.78687,-0.11459,-1.66158,9.89,0.18,1.76,3.0
1758076272.20138,1758076272.09098,0.0,0.0,0.0,-5.50039,0.40107,-1.71887,9.89,0.18,1.76,3.0
1758076272.21671,1758076272.10098,0.0,0.0,0.0,-5.15662,1.3178,-1.71887,9.97,0.15,1.71,3.0
1758076272.23275,1758076272.11098,0.0,0.0,0.0,-4.92744,1.66158,-1.77617,9.99,0.21,1.57,3.0
1758076272.23368,1758076272.12098,0.0,0.0,0.0,-4.98473,2.06265,-1.77617,9.99,0.21,1.57,3.0
1758076272.25049,1758076272.13098,0.0,0.0,0.0,-4.92744,2.46372,-2.00535,10.05,0.33,1.48,3.0
1758076272.25325,1758076272.14098,0.0,0.0,0.0,-5.27121,2.92208,-2.34913,10.05,0.33,1.48,3.0
1758076272.2685,1758076272.15098,0.0,0.0,0.0,-5.50039,3.32316,-2.57831,10.13,0.43,1.4,3.0
1758076272.27371,1758076272.16098,0.0,0.0,0.0,-5.78687,3.38045,-2.7502,10.13,0.43,1.4,3.0
1758076272.28878,1758076272.17098,0.0,0.0,0.0,-5.84417,3.32316,-3.09397,10.21,0.49,1.35,3.0
1758076272.29046,1758076272.18098,0.0,0.0,0.0,-6.07335,3.03668,-3.09397,10.2,0.53,1.33,3.0
1758076272.30759,1758076272.19098,0.0,0.0,0.0,-6.07335,2.7502,-3.20856,10.2,0.53,1.33,3.0
1758076272.32381,1758076272.20098,0.0,0.0,0.0,-5.95876,2.63561,-3.26586,10.11,0.57,1.27,3.0
1758076272.32503,1758076272.21098,0.0,0.0,0.0,-5.72958,2.63561,-3.89611,10.11,0.57,1.27,3.0
1758076272.34189,1758076272.22098,0.0,0.0,0.0,-5.4431,2.6929,-4.46907,9.99,0.53,1.14,3.0
1758076272.34386,1758076272.23098,0.0,0.0,0.0,-4.98473,2.7502,-4.98473,9.99,0.53,1.14,3.0
1758076272.35951,1758076272.24098,0.0,0.0,0.0,-4.81285,2.86479,-5.50039,9.95,0.45,1.07,3.0
1758076272.3607,1758076272.25098,0.0,0.0,0.0,-3.95341,2.00535,-6.53172,9.95,0.45,1.13,3.0
1758076272.37676,1758076272.26098,0.0,0.0,0.0,-3.49504,0.34377,-7.73493,9.97,0.44,1.13,3.0
1758076272.39253,1758076272.27098,0.0,0.0,0.0,-2.92208,-2.7502,-8.99544,9.86,0.48,1.24,3.0
1758076272.39374,1758076272.28098,0.0,0.0,0.0,-2.6929,-4.52637,-10.19865,9.86,0.48,1.24,3.0
1758076272.40857,1758076272.29098,0.0,0.0,0.0,-2.23454,-7.04738,-11.28727,10.12,0.55,1.14,3.0
1758076272.41056,1758076272.30098,0.0,0.0,0.0,-2.23454,-6.99009,-11.80293,10.12,0.55,1.14,3.0
1758076272.42658,1758076272.31098,0.0,0.0,0.0,-2.00535,-9.85487,-13.23533,10.2,0.65,1.42,3.0
1758076272.44285,1758076272.32098,0.0,0.0,0.0,-1.14592,-10.48513,-13.23533,10.2,0.65,1.42,3.0
1758076272.44373,1758076272.33098,0.0,0.0,0.0,0.11459,-10.37054,-13.34992,10.12,0.69,1.07,3.0
1758076272.45886,1758076272.34098,0.0,0.0,0.0,0.34377,-9.96947,-13.5218,10.06,0.75,0.85,3.0
1758076272.47455,1758076272.35098,0.0,0.0,0.0,1.20321,-8.93814,-13.17803,10.06,0.75,0.85,3.0
1758076272.47579,1758076272.36098,0.0,0.0,0.0,1.60428,-7.04738,-13.23533,10.04,0.8,0.67,3.0
1758076272.49164,1758076272.37098,0.0,0.0,0.0,2.23454,-2.06265,-13.00614,10.04,0.8,0.67,3.0
1758076272.49257,1758076272.38098,0.0,0.0,0.0,2.34913,1.83346,-12.89155,10.17,0.82,0.56,3.0
1758076272.50757,1758076272.39098,0.0,0.0,0.0,2.29183,5.50039,-12.77696,10.17,0.82,0.56,3.0
1758076272.5235,1758076272.40098,0.0,0.0,0.0,2.23454,8.42248,-11.34457,10.12,0.89,0.41,3.0
1758076272.5247,1758076272.41098,0.0,0.0,0.0,1.83346,13.46451,-9.85487,10.02,0.99,0.14,3.0
1758076272.53984,1758076272.42098,0.0,0.0,0.0,1.14592,17.13144,-8.02141,10.02,0.99,0.14,3.0
1758076272.54085,1758076272.43098,0.0,0.0,0.0,0.40107,20.11082,-6.13065,10.18,1.19,0.22,3.0
1758076272.55765,1758076272.44098,0.0,0.0,0.0,-1.03132,23.72045,-3.38045,10.18,1.19,0.22,3.0
1758076272.57394,1758076272.45098,0.0,0.0,0.0,-1.94806,25.43933,-1.83346,10.35,1.4,0.49,3.0
1758076272.57485,1758076272.46098,0.0,0.0,0.0,-3.09397,26.75713,-0.80214,10.35,1.4,0.49,3.0
1758076272.58992,1758076272.47098,0.0,0.0,0.0,-4.1253,27.84575,0.11459,10.39,1.52,0.73,3.0
1758076272.5909,1758076272.48098,0.0,0.0,0.0,-5.72958,28.64789,0.68755,10.33,1.52,0.76,3.0
1758076272.60664,1758076272.49098,0.0,0.0,0.0,-6.41713,28.59059,0.80214,10.33,1.48,0.76,3.0
1758076272.62291,1758076272.50098,0.0,0.0,0.0,-7.04738,27.04361,0.74485,10.21,1.38,0.97,3.0
1758076272.62391,1758076272.51098,0.0,0.0,0.0,-7.62034,23.89234,0.0573,10.21,1.38,0.97,3.0
1758076272.63854,1758076272.52098,0.0,0.0,0.0,-7.04738,15.87093,-2.29183,9.92,1.23,1.48,3.0
1758076272.65518,1758076272.53098,0.0,0.0,0.0,-6.58902,13.75099,-4.35448,9.92,1.23,1.48,3.0
1758076272.6567,1758076272.54098,0.0,0.0,0.0,-5.90147,14.43854,-5.90147,10.54,1.17,1.89,3.0
1758076272.67193,1758076272.55098,0.0,0.0,0.0,-4.98473,15.87093,-6.47442,10.54,1.17,1.89,3.0
1758076272.6729,1758076272.56098,0.0,0.0,0.0,-4.1253,15.75634,-5.61499,11.06,1.14,1.55,3.0
1758076272.68762,1758076272.57098,0.0,0.0,0.0,-3.95341,17.36062,-4.64096,11.24,1.04,1.39,3.0
1758076272.70388,1758076272.58098,0.0,0.0,0.0,-4.1253,20.45459,-3.20856,11.24,1.04,1.39,3.0
1758076272.70481,1758076272.59098,0.0,0.0,0.0,-4.81285,23.31938,-1.83346,11.83,1.08,1.3,3.0
1758076272.72173,1758076272.60098,0.0,0.0,0.0,-5.78687,26.98631,-1.08862,11.83,1.08,1.3,3.0
1758076272.72262,1758076272.61098,0.0,0.0,0.0,-6.41713,29.9084,-0.17189,12.2,1.42,1.52,3.0
1758076272.73801,1758076272.62098,0.0,0.0,0.0,-6.87549,31.39809,0.51566,12.2,1.42,1.52,3.0
1758076272.75392,1758076272.63098,0.0,0.0,0.0,-7.73493,30.19488,0.97403,12.45,1.65,1.88,3.0
1758076272.75513,1758076272.64098,0.0,0.0,0.0,-8.0787,30.65324,0.57296,12.57,1.7,2.24,3.0
1758076272.76966,1758076272.65098,0.0,0.0,0.0,-8.30789,30.59595,0.22918,12.57,1.7,2.24,3.0
1758076272.77088,1758076272.66098,0.0,0.0,0.0,-8.30789,29.9084,-0.11459,12.53,1.52,2.39,3.0
1758076272.78808,1758076272.67098,0.0,0.0,0.0,-8.70896,27.84575,-0.85944,12.53,1.52,2.39,3.0
1758076272.80363,1758076272.68098,0.0,0.0,0.0,-8.93814,26.06958,-1.14592,12.21,1.22,2.58,3.0
1758076272.80481,1758076272.69098,0.0,0.0,0.0,-9.28192,23.94964,-1.20321,12.21,1.22,2.58,3.0
1758076272.81975,1758076272.70098,0.0,0.0,0.0,-9.68299,22.68913,-1.03132,11.96,1.05,2.75,3.0
1758076272.82089,1758076272.71098,0.0,0.0,0.0,-11.11538,21.31403,-0.45837,11.83,1.18,2.77,3.0
1758076272.83776,1758076272.72098,0.0,0.0,0.0,-12.89155,20.11082,0.0573,11.83,1.18,2.77,3.0
1758076272.85367,1758076272.73098,0.0,0.0,0.0,-14.9542,18.44924,1.08862,11.34,1.4,2.82,3.0
1758076272.85493,1758076272.74098,0.0,0.0,0.0,-17.47521,17.18874,2.23454,11.34,1.4,2.82,3.0
1758076272.86968,1758076272.75098,0.0,0.0,0.0,-22.00158,13.69369,3.66693,10.73,1.5,2.93,3.0
1758076272.87094,1758076272.76098,0.0,0.0,0.0,-25.21014,10.02676,4.46907,10.73,1.5,2.93,3.0
1758076272.88701,1758076272.77098,0.0,0.0,0.0,-28.59059,5.95876,4.58366,9.83,1.38,3.05,3.0
1758076272.90298,1758076272.78098,0.0,0.0,0.0,-31.62727,2.57831,4.58366,9.83,1.38,3.05,3.0
1758076272.90421,1758076272.79098,0.0,0.0,0.0,-35.75257,-2.29183,4.0107,9.0,1.15,3.07,3.0
1758076272.91899,1758076272.80098,0.0,0.0,0.0,-38.15899,-5.78687,3.49504,8.31,1.02,2.98,3.0
1758076272.93474,1758076272.81098,0.0,0.0,0.0,-39.82057,-8.47978,3.03668,8.31,1.02,2.98,3.0
1758076272.93762,1758076272.82098,0.0,0.0,0.0,-41.71133,-11.22997,2.40642,7.79,0.88,2.87,3.0
1758076272.95264,1758076272.83098,0.0,0.0,0.0,-41.99781,-12.204,2.46372,7.79,0.88,2.87,3.0
1758076272.95385,1758076272.84098,0.0,0.0,0.0,-41.76862,-12.77696,2.7502,7.68,0.56,2.82,3.0
1758076272.96876,1758076272.85098,0.0,0.0,0.0,-41.02378,-14.20935,2.7502,7.68,0.56,2.82,3.0
1758076272.98502,1758076272.86098,0.0,0.0,0.0,-39.19032,-17.53251,3.09397,7.3,0.03,2.96,3.0
1758076272.98591,1758076272.87098,0.0,0.0,0.0,-37.52874,-19.48057,3.26586,7.01,-0.47,3.0,3.0
1758076273.001,1758076272.88098,0.0,0.0,0.0,-35.2369,-20.85567,3.60963,7.01,-0.47,3.0,3.0
1758076273.00233,1758076272.89098,0.0,0.0,0.0,-32.48671,-22.97561,3.95341,7.15,-0.88,3.13,3.0
1758076273.01677,1758076272.90098,0.0,0.0,0.0,-28.36141,-24.17882,4.64096,7.15,-0.88,3.13,3.0
1758076273.033,1758076272.91098,0.0,0.0,0.0,-25.55392,-23.37668,4.87014,7.73,-1.12,3.03,3.0
1758076273.03394,1758076272.92098,0.0,0.0,0.0,-22.97561,-21.94428,5.27121,7.73,-1.12,3.03,3.0
1758076273.04907,1758076272.93098,0.0,0.0,0.0,-20.3973,-20.34,5.50039,8.27,-1.22,3.05,3.0
1758076273.06553,1758076272.94098,0.0,0.0,0.0,-16.73037,-18.56383,5.4431,8.5,-1.18,3.03,3.0
1758076273.06751,1758076272.95098,0.0,0.0,0.0,-14.78231,-16.67307,4.87014,8.5,-1.18,3.03,3.0
1758076273.08294,1758076272.96098,0.0,0.0,0.0,-12.83425,-13.69369,5.78687,8.61,-1.0,2.76,3.0
1758076273.08507,1758076272.97098,0.0,0.0,0.0,-10.59972,-13.12073,6.24524,8.61,-1.0,2.76,3.0
1758076273.09977,1758076272.98098,0.0,0.0,0.0,-7.62034,-9.91217,7.33386,8.54,-1.04,2.7,3.0
1758076273.10255,1758076272.99098,0.0,0.0,0.0,-5.50039,-7.39116,7.79223,8.54,-1.04,2.7,3.0
1758076273.1187,1758076273.00098,0.0,0.0,0.0,-3.20856,-4.81285,7.84952,8.92,-1.24,2.69,3.0
1758076273.13474,1758076273.01098,0.0,0.0,0.0,-0.97403,-1.48969,7.84952,8.92,-1.24,2.69,3.0
1758076273.13675,1758076273.02098,0.0,0.0,0.0,1.94806,1.66158,7.62034,9.1,-1.32,2.6,3.0
1758076273.152,1758076273.03098,0.0,0.0,0.0,4.1253,3.32316,7.21927,8.96,-1.13,2.51,3.0
1758076273.15319,1758076273.04098,0.0,0.0,0.0,5.72958,5.09932,7.10468,8.96,-1.13,2.51,3.0
1758076273.168,1758076273.05098,0.0,0.0,0.0,7.62034,7.67763,7.21927,9.07,-0.91,2.46,3.0
1758076273.184,1758076273.06098,0.0,0.0,0.0,8.42248,9.28192,7.39116,9.07,-0.91,2.46,3.0
1758076273.18522,1758076273.07098,0.0,0.0,0.0,8.99544,10.94349,7.62034,9.26,-0.72,2.46,3.0
1758076273.19995,1758076273.08098,0.0,0.0,0.0,9.11003,11.86023,7.67763,9.26,-0.72,2.46,3.0
1758076273.20095,1758076273.09098,0.0,0.0,0.0,9.5684,13.34992,7.96411,9.43,-0.55,2.58,3.0
1758076273.21679,1758076273.10098,0.0,0.0,0.0,9.5684,14.03747,8.0787,9.52,-0.45,2.53,3.0
1758076273.23305,1758076273.11098,0.0,0.0,0.0,9.22462,14.43854,8.02141,9.52,-0.45,2.53,3.0
1758076273.23438,1758076273.12098,0.0,0.0,0.0,8.88085,15.35527,8.136,9.56,-0.35,2.51,3.0
1758076273.24876,1758076273.13098,0.0,0.0,0.0,8.76626,14.83961,8.70896,9.56,-0.35,2.51,3.0
1758076273.25082,1758076273.14098,0.0,0.0,0.0,8.59437,11.63104,8.76626,9.33,-0.29,2.53,3.0
1758076273.2681,1758076273.15098,0.0,0.0,0.0,8.70896,8.59437,9.28192,9.33,-0.29,2.53,3.0
1758076273.28409,1758076273.16098,0.0,0.0,0.0,9.96947,6.53172,10.54242,9.2,-0.4,2.45,3.0
1758076273.28498,1758076273.17098,0.0,0.0,0.0,12.08941,5.15662,12.71966,9.35,-0.66,2.35,3.0
1758076273.30003,1758076273.18098,0.0,0.0,0.0,13.40721,3.66693,13.98017,9.35,-0.66,2.35,3.0
1758076273.30183,1758076273.19098,0.0,0.0,0.0,14.78231,1.43239,14.61043,9.23,-0.81,2.29,3.0
1758076273.31777,1758076273.20098,0.0,0.0,0.0,15.64175,-2.6929,13.98017,9.23,-0.81,2.29,3.0
1758076273.33403,1758076273.21098,0.0,0.0,0.0,16.90226,-9.4538,11.74564,9.01,-0.7,2.19,3.0
1758076273.33507,1758076273.22098,0.0,0.0,0.0,17.53251,-11.51645,9.5684,9.01,-0.7,2.19,3.0
1758076273.35016,1758076273.23098,0.0,0.0,0.0,17.93358,-11.45916,6.87549,9.31,-0.44,2.06,3.0
1758076273.35094,1758076273.24098,0.0,0.0,0.0,17.76169,-9.68299,2.7502,9.31,-0.44,2.06,3.0
1758076273.36688,1758076273.25098,0.0,0.0,0.0,17.6471,-3.72423,0.45837,9.58,-0.23,2.12,3.0
1758076273.38292,1758076273.26098,0.0,0.0,0.0,17.58981,1.71887,-1.43239,9.7,-0.14,2.17,3.0
1758076273.38404,1758076273.27098,0.0,0.0,0.0,18.10547,8.76626,-2.06265,9.7,-0.14,2.17,3.0
1758076273.4012,1758076273.28098,0.0,0.0,0.0,19.36597,17.87628,-2.34913,9.59,-0.24,2.28,3.0
1758076273.40205,1758076273.29098,0.0,0.0,0.0,19.48057,22.86102,-2.6929,9.59,-0.24,2.28,3.0
1758076273.41719,1758076273.30098,0.0,0.0,0.0,19.48057,26.87172,-3.03668,9.4,-0.21,2.2,3.0
1758076273.43319,1758076273.31098,0.0,0.0,0.0,19.88164,27.50197,-2.86479,9.4,-0.21,2.2,3.0
1758076273.43407,1758076273.32098,0.0,0.0,0.0,20.79837,23.49127,-2.86479,8.89,-0.29,2.28,3.0
1758076273.4492,1758076273.33098,0.0,0.0,0.0,22.91831,19.99623,-1.83346,8.56,-0.56,2.46,3.0
1758076273.46519,1758076273.34098,0.0,0.0,0.0,26.01229,14.83961,-0.11459,8.56,-0.56,2.46,3.0
1758076273.46687,1758076273.35098,0.0,0.0,0.0,29.73651,8.136,2.40642,8.2,-1.13,2.28,3.0
1758076273.48186,1758076273.36098,0.0,0.0,0.0,36.89849,-1.3178,6.47442,8.2,-1.13,2.28,3.0
1758076273.48299,1758076273.37098,0.0,0.0,0.0,42.85724,-8.99544,9.4538,7.93,-1.76,1.92,3.0
1758076273.49831,1758076273.38098,0.0,0.0,0.0,47.95657,-17.6471,11.97482,7.93,-1.76,1.92,3.0
1758076273.51516,1758076273.39098,0.0,0.0,0.0,53.28508,-29.8511,14.43854,7.65,-2.04,2.08,3.0
1758076273.51606,1758076273.40098,0.0,0.0,0.0,58.84277,-50.93595,17.81899,7.91,-1.82,2.79,3.0
1758076273.53125,1758076273.41098,0.0,0.0,0.0,61.70755,-73.3386,22.00158,7.91,-1.82,2.79,3.0
1758076273.53204,1758076273.42098,0.0,0.0,0.0,60.50434,-83.93832,22.23076,8.45,-1.19,2.82,3.0
1758076273.54712,1758076273.43098,0.0,0.0,0.0,59.98868,-92.01703,25.38203,8.45,-1.19,2.82,3.0
1758076273.5632,1758076273.44098,0.0,0.0,0.0,56.78012,-69.15601,27.78845,10.75,-0.22,2.59,3.0
1758076273.56407,1758076273.45098,0.0,0.0,0.0,54.08722,-39.82057,28.24682,10.75,-0.22,2.59,3.0
1758076273.57889,1758076273.46098,0.0,0.0,0.0,49.61814,-9.62569,28.476,13.84,0.78,3.15,3.0
1758076273.59566,1758076273.47098,0.0,0.0,0.0,45.03448,-4.46907,24.00693,13.84,0.78,3.15,3.0
1758076273.5964,1758076273.48098,0.0,0.0,0.0,40.27893,-36.84119,18.16276,10.41,1.41,2.86,3.0
1758076273.61222,1758076273.49098,0.0,0.0,0.0,40.45082,-66.06203,21.60051,6.24,1.05,1.47,3.0
1758076273.61314,1758076273.50098,0.0,0.0,0.0,40.39353,-59.87409,22.00158,6.24,1.05,1.47,3.0
1758076273.62796,1758076273.51098,0.0,0.0,0.0,39.07573,-35.92446,22.11617,12.3,0.05,1.3,3.0
1758076273.63181,1758076273.52098,0.0,0.0,0.0,37.18496,-27.33009,21.02755,12.3,0.05,1.3,3.0
1758076273.64716,1758076273.53098,0.0,0.0,0.0,34.89313,-21.48592,18.50654,11.29,-0.43,1.93,3.0
1758076273.66322,1758076273.54098,0.0,0.0,0.0,32.83048,-12.60507,16.3293,11.29,-0.43,1.93,3.0
1758076273.66412,1758076273.55098,0.0,0.0,0.0,28.76248,2.6929,10.94349,11.25,-0.43,2.38,3.0
1758076273.67927,1758076273.56098,0.0,0.0,0.0,25.72581,10.48513,6.8182,10.57,-0.08,1.72,3.0
1758076273.68253,1758076273.57098,0.0,0.0,0.0,23.26209,15.0115,3.66693,10.57,-0.08,1.72,3.0
1758076273.69795,1758076273.58098,0.0,0.0,0.0,20.97026,18.73572,1.60428,9.72,0.02,2.18,3.0
1758076273.71395,1758076273.59098,0.0,0.0,0.0,18.16276,20.22541,-0.22918,9.72,0.02,2.18,3.0
1758076273.71467,1758076273.60098,0.0,0.0,0.0,17.13144,19.53786,-0.45837,9.29,-0.05,2.18,3.0
1758076273.73125,1758076273.61098,0.0,0.0,0.0,16.90226,18.22006,0.0573,9.29,-0.05,2.18,3.0
1758076273.73244,1758076273.62098,0.0,0.0,0.0,17.36062,16.95955,1.3751,9.09,-0.27,2.21,3.0
1758076273.74684,1758076273.63098,0.0,0.0,0.0,19.13679,14.83961,3.55234,9.22,-0.57,2.33,3.0
1758076273.76323,1758076273.64098,0.0,0.0,0.0,21.02755,13.17803,4.92744,9.22,-0.57,2.33,3.0
1758076273.76415,1758076273.65098,0.0,0.0,0.0,22.68913,11.57375,5.55769,9.5,-0.7,2.4,3.0
1758076273.77902,1758076273.66098,0.0,0.0,0.0,24.63719,11.22997,6.41713,9.5,-0.7,2.4,3.0
1758076273.79611,1758076273.67098,0.0,0.0,0.0,26.41335,11.22997,6.13065,9.87,-0.61,2.46,3.0
1758076273.79649,1758076273.68098,0.0,0.0,0.0,27.1582,10.19865,5.55769,9.87,-0.61,2.46,3.0
1758076273.81222,1758076273.69098,0.0,0.0,0.0,27.44468,8.65166,4.69825,9.71,-0.36,2.45,3.0
1758076273.81317,1758076273.70098,0.0,0.0,0.0,26.81443,5.90147,3.55234,9.71,-0.36,2.45,3.0
1758076273.82791,1758076273.71098,0.0,0.0,0.0,25.89769,5.09932,2.6929,9.55,-0.03,2.41,3.0
1758076273.84427,1758076273.72098,0.0,0.0,0.0,24.5226,3.72423,1.94806,9.6,0.28,2.31,3.0
1758076273.84466,1758076273.73098,0.0,0.0,0.0,23.0329,1.66158,1.08862,9.6,0.28,2.31,3.0
1758076273.86004,1758076273.74098,0.0,0.0,0.0,20.51189,1.20321,0.22918,9.56,0.45,2.15,3.0
1758076273.86198,1758076273.75098,0.0,0.0,0.0,19.19409,0.22918,-0.11459,9.56,0.45,2.15,3.0
1758076273.87723,1758076273.76098,0.0,0.0,0.0,17.6471,-0.40107,-0.51566,9.64,0.4,2.11,3.0
1758076273.8933,1758076273.77098,0.0,0.0,0.0,16.10011,-0.17189,-0.97403,9.64,0.4,2.11,3.0
1758076273.89423,1758076273.78098,0.0,0.0,0.0,14.03747,-0.45837,-1.14592,9.77,0.27,2.14,3.0
1758076273.90984,1758076273.79098,0.0,0.0,0.0,12.08941,2.29183,-2.34913,10.01,0.23,2.32,3.0
1758076273.91344,1758076273.80098,0.0,0.0,0.0,10.37054,4.98473,-3.83882,10.01,0.23,2.32,3.0
1758076273.93164,1758076273.81098,0.0,0.0,0.0,9.33921,5.50039,-4.92744,9.84,0.22,2.22,3.0
1758076273.93339,1758076273.82098,0.0,0.0,0.0,8.25059,4.46907,-5.84417,9.84,0.22,2.22,3.0
1758076273.94976,1758076273.83098,0.0,0.0,0.0,7.73493,3.72423,-5.95876,9.58,0.13,2.32,3.0
1758076273.95142,1758076273.84098,0.0,0.0,0.0,7.04738,2.6929,-6.07335,9.58,0.13,2.32,3.0
1758076273.96607,1758076273.85098,0.0,0.0,0.0,6.58902,1.03132,-5.95876,9.45,0.08,2.28,3.0
1758076273.98317,1758076273.86098,0.0,0.0,0.0,5.84417,-1.60428,-5.72958,9.32,0.04,2.36,3.0
1758076273.98522,1758076273.87098,0.0,0.0,0.0,5.4431,-2.7502,-5.61499,9.32,0.04,2.36,3.0
1758076274.00025,1758076273.88098,0.0,0.0,0.0,5.32851,-4.58366,-5.32851,9.27,0.0,2.37,3.0
1758076274.00119,1758076273.89098,0.0,0.0,0.0,5.27121,-7.84952,-4.98473,9.27,0.0,2.37,3.0
1758076274.01601,1758076273.90098,0.0,0.0,0.0,5.72958,-8.76626,-4.23989,9.21,-0.09,2.29,3.0
1758076274.03202,1758076273.91098,0.0,0.0,0.0,5.84417,-8.47978,-3.38045,9.21,-0.09,2.29,3.0
1758076274.03321,1758076273.92098,0.0,0.0,0.0,6.13065,-7.33386,-2.6929,9.53,-0.23,2.19,3.0
1758076274.04827,1758076273.93098,0.0,0.0,0.0,6.47442,-6.13065,-2.00535,9.53,-0.23,2.19,3.0
1758076274.04922,1758076273.94098,0.0,0.0,0.0,6.35983,-4.0107,-1.60428,9.67,-0.31,2.03,3.0
1758076274.06457,1758076273.95098,0.0,0.0,0.0,5.90147,-3.32316,-2.46372,9.86,-0.2,2.06,3.0
1758076274.08031,1758076273.96098,0.0,0.0,0.0,4.98473,-6.87549,-3.66693,9.86,-0.2,2.06,3.0
1758076274.08204,1758076273.97098,0.0,0.0,0.0,3.09397,-16.3293,-5.4431,9.25,0.11,1.97,3.0
1758076274.09696,1758076273.98098,0.0,0.0,0.0,0.97403,-19.76705,-7.39116,9.25,0.11,1.97,3.0
1758076274.11311,1758076273.99098,0.0,0.0,0.0,-0.45837,-23.94964,-7.39116,9.53,0.5,1.84,3.0
1758076274.11426,1758076274.00098,0.0,0.0,0.0,-3.89611,-23.0902,-10.48513,9.53,0.5,1.84,3.0
1758076274.12907,1758076274.01098,0.0,0.0,0.0,-6.41713,-24.35071,-12.2613,9.86,0.85,1.96,3.0
1758076274.13054,1758076274.02098,0.0,0.0,0.0,-8.47978,-24.75178,-13.86558,9.96,1.09,1.99,3.0
1758076274.14836,1758076274.03098,0.0,0.0,0.0,-10.25595,-24.4653,-15.41257,9.96,1.09,1.99,3.0
1758076274.14928,1758076274.04098,0.0,0.0,0.0,-11.51645,-24.17882,-17.30333,9.69,1.22,1.54,3.0
1758076274.16468,1758076274.05098,0.0,0.0,0.0,-13.06344,-23.0329,-19.07949,9.69,1.22,1.54,3.0
1758076274.18013,1758076274.06098,0.0,0.0,0.0,-13.75099,-20.79837,-19.99623,9.47,1.14,1.19,3.0
1758076274.1829,1758076274.07098,0.0,0.0,0.0,-14.38124,-16.50119,-20.85567,9.47,1.14,1.19,3.0
1758076274.19816,1758076274.08098,0.0,0.0,0.0,-14.66772,-9.96947,-20.68378,9.75,1.01,0.81,3.0
1758076274.19934,1758076274.09098,0.0,0.0,0.0,-14.43854,0.45837,-20.16812,10.31,0.88,0.68,3.0
1758076274.21541,1758076274.10098,0.0,0.0,0.0,-14.03747,4.98473,-18.90761,10.31,0.88,0.68,3.0
1758076274.23116,1758076274.11098,0.0,0.0,0.0,-14.83961,4.92744,-18.73572,10.06,0.87,0.94,3.0
1758076274.23231,1758076274.12098,0.0,0.0,0.0,-15.64175,-7.62034,-18.85031,10.06,0.87,0.94,3.0
1758076274.24732,1758076274.13098,0.0,0.0,0.0,-16.95955,-18.85031,-19.82434,9.28,0.93,1.13,3.0
1758076274.2634,1758076274.14098,0.0,0.0,0.0,-17.18874,-28.07493,-19.82434,9.28,0.93,1.13,3.0
1758076274.26458,1758076274.15098,0.0,0.0,0.0,-16.67307,-35.2942,-19.48057,9.51,0.79,0.81,3.0
1758076274.28021,1758076274.16098,0.0,0.0,0.0,-15.98552,-38.21629,-18.10547,9.51,0.79,0.73,3.0
1758076274.28116,1758076274.17098,0.0,0.0,0.0,-16.50119,-16.73037,-17.58981,10.38,0.47,0.73,3.0
1758076274.29638,1758076274.18098,0.0,0.0,0.0,-17.30333,5.27121,-17.24603,12.86,1.0,0.68,3.0
1758076274.31241,1758076274.19098,0.0,0.0,0.0,-22.23076,21.88699,-19.88164,12.86,1.0,0.68,3.0
1758076274.31337,1758076274.20098,0.0,0.0,0.0,-27.61657,12.08941,-23.60586,10.26,1.5,1.62,3.0
1758076274.32816,1758076274.21098,0.0,0.0,0.0,-29.56462,0.51566,-24.75178,10.26,1.5,1.62,3.0
1758076274.32938,1758076274.22098,0.0,0.0,0.0,-29.73651,-2.86479,-23.94964,8.74,1.58,1.43,3.0
1758076274.34583,1758076274.23098,0.0,0.0,0.0,-29.10626,0.40107,-22.28806,8.74,1.58,1.43,3.0
1758076274.36124,1758076274.24098,0.0,0.0,0.0,-27.73116,6.53172,-19.19409,10.73,1.01,0.93,3.0
1758076274.36239,1758076274.25098,0.0,0.0,0.0,-26.35606,7.04738,-17.36062,10.77,0.53,1.6,3.0
1758076274.37724,1758076274.26098,0.0,0.0,0.0,-24.5226,4.29718,-15.98552,10.77,0.53,1.6,3.0
1758076274.39321,1758076274.27098,0.0,0.0,0.0,-22.57454,0.80214,-14.9542,10.13,0.34,1.57,3.0
1758076274.39443,1758076274.28098,0.0,0.0,0.0,-20.05352,-1.71887,-14.09476,10.13,0.34,1.57,3.0
1758076274.40918,1758076274.29098,0.0,0.0,0.0,-18.62113,-1.60428,-13.86558,10.05,0.34,1.49,3.0
1758076274.41077,1758076274.30098,0.0,0.0,0.0,-17.6471,-0.68755,-14.03747,10.05,0.34,1.49,3.0
1758076274.42581,1758076274.31098,0.0,0.0,0.0,-16.73037,0.85944,-14.15206,10.1,0.54,1.71,3.0
1758076274.4412,1758076274.32098,0.0,0.0,0.0,-15.98552,3.32316,-13.98017,10.2,0.75,1.87,3.0
1758076274.44243,1758076274.33098,0.0,0.0,0.0,-15.29797,4.92744,-14.03747,10.2,0.75,1.87,3.0
1758076274.45733,1758076274.34098,0.0,0.0,0.0,-14.43854,6.70361,-13.98017,10.17,0.87,1.89,3.0
1758076274.47339,1758076274.35098,0.0,0.0,0.0,-12.71966,8.88085,-13.98017,10.17,0.87,1.89,3.0
1758076274.47444,1758076274.36098,0.0,0.0,0.0,-11.11538,10.25595,-13.75099,10.03,0.84,1.82,3.0
1758076274.49027,1758076274.37098,0.0,0.0,0.0,-9.39651,11.57375,-13.46451,10.03,0.84,1.82,3.0
1758076274.49179,1758076274.38098,0.0,0.0,0.0,-7.62034,12.49048,-13.06344,9.91,0.7,1.74,3.0
1758076274.50617,1758076274.39098,0.0,0.0,0.0,-4.98473,12.43318,-12.60507,9.78,0.7,1.69,3.0
1758076274.52276,1758076274.40098,0.0,0.0,0.0,-3.26586,11.63104,-12.49048,9.78,0.6,1.69,3.0
1758076274.52344,1758076274.41098,0.0,0.0,0.0,-1.60428,10.94349,-12.14671,9.74,0.63,1.65,3.0
1758076274.53852,1758076274.42098,0.0,0.0,0.0,-0.0573,10.48513,-11.86023,9.74,0.63,1.65,3.0
1758076274.54024,1758076274.43098,0.0,0.0,0.0,1.66158,9.5684,-11.74564,9.78,0.75,1.6,3.0
1758076274.55763,1758076274.44098,0.0,0.0,0.0,2.92208,8.93814,-11.51645,9.78,0.75,1.6,3.0
1758076274.5733,1758076274.45098,0.0,0.0,0.0,3.60963,9.28192,-11.57375,9.74,0.94,1.55,3.0
1758076274.57448,1758076274.46098,0.0,0.0,0.0,4.52637,8.36518,-10.48513,9.74,0.94,1.55,3.0
1758076274.58928,1758076274.47098,0.0,0.0,0.0,4.64096,7.21927,-10.19865,9.63,1.07,1.48,3.0
1758076274.59049,1758076274.48098,0.0,0.0,0.0,4.81285,8.02141,-9.4538,9.71,1.21,1.53,3.0
1758076274.60612,1758076274.49098,0.0,0.0,0.0,4.52637,7.44845,-8.93814,9.71,1.21,1.53,3.0
1758076274.62229,1758076274.50098,0.0,0.0,0.0,4.29718,5.95876,-7.79223,9.42,1.25,1.41,3.0
1758076274.6235,1758076274.51098,0.0,0.0,0.0,4.0107,4.64096,-7.16197,9.42,1.25,1.41,3.0
1758076274.6386,1758076274.52098,0.0,0.0,0.0,3.83882,3.95341,-6.47442,9.47,1.23,1.45,3.0
1758076274.63945,1758076274.53098,0.0,0.0,0.0,3.66693,3.72423,-5.78687,9.47,1.23,1.45,3.0
1758076274.65553,1758076274.54098,0.0,0.0,0.0,3.32316,4.58366,-5.55769,9.63,1.23,1.4,3.0
1758076274.6715,1758076274.55098,0.0,0.0,0.0,3.26586,5.27121,-5.72958,9.75,1.36,1.49,3.0
1758076274.67273,1758076274.56098,0.0,0.0,0.0,3.03668,5.21392,-6.18794,9.75,1.36,1.49,3.0
1758076274.68726,1758076274.57098,0.0,0.0,0.0,2.92208,4.69825,-6.70361,9.59,1.48,1.55,3.0
1758076274.70352,1758076274.58098,0.0,0.0,0.0,2.86479,4.1253,-7.10468,9.59,1.48,1.55,3.0
1758076274.70448,1758076274.59098,0.0,0.0,0.0,2.57831,3.60963,-7.33386,9.5,1.48,1.5,3.0
1758076274.71928,1758076274.60098,0.0,0.0,0.0,2.23454,3.03668,-6.99009,9.5,1.48,1.5,3.0
1758076274.72049,1758076274.61098,0.0,0.0,0.0,1.94806,2.63561,-6.24524,9.48,1.47,1.54,3.0
1758076274.73527,1758076274.62098,0.0,0.0,0.0,1.3178,1.14592,-5.09932,9.46,1.47,1.54,3.0
1758076274.75153,1758076274.63098,0.0,0.0,0.0,0.97403,0.57296,-3.95341,9.46,1.47,1.54,3.0
1758076274.7533,1758076274.64098,0.0,0.0,0.0,0.40107,0.22918,-2.97938,9.52,1.47,1.49,3.0
1758076274.7683,1758076274.65098,0.0,0.0,0.0,0.0,-0.40107,-1.94806,9.52,1.47,1.49,3.0
1758076274.76953,1758076274.66098,0.0,0.0,0.0,-0.97403,-1.3178,-0.40107,9.47,1.5,1.41,3.0
1758076274.78528,1758076274.67098,0.0,0.0,0.0,-1.60428,-1.48969,0.45837,9.47,1.5,1.41,3.0
1758076274.80131,1758076274.68098,0.0,0.0,0.0,-2.63561,-1.83346,1.14592,9.51,1.55,1.41,3.0
1758076274.80252,1758076274.69098,0.0,0.0,0.0,-3.55234,-2.7502,1.94806,9.51,1.55,1.41,3.0
1758076274.81758,1758076274.70098,0.0,0.0,0.0,-4.58366,-3.03668,2.7502,9.5,1.53,1.52,3.0
1758076274.83358,1758076274.71098,0.0,0.0,0.0,-5.4431,-2.29183,3.55234,9.79,1.49,1.56,3.0
1758076274.83454,1758076274.72098,0.0,0.0,0.0,-6.35983,-0.45837,4.29718,9.79,1.49,1.56,3.0
1758076274.84961,1758076274.73098,0.0,0.0,0.0,-7.96411,1.3751,4.87014,10.09,1.5,1.62,3.0
1758076274.85078,1758076274.74098,0.0,0.0,0.0,-9.05273,3.66693,4.98473,10.09,1.5,1.62,3.0
1758076274.86543,1758076274.75098,0.0,0.0,0.0,-10.08406,4.52637,5.21392,10.12,1.58,1.66,3.0
1758076274.88171,1758076274.76098,0.0,0.0,0.0,-11.17268,4.98473,5.09932,10.12,1.58,1.66,3.0
1758076274.88254,1758076274.77098,0.0,0.0,0.0,-12.49048,5.84417,4.64096,10.02,1.61,1.67,3.0
1758076274.89768,1758076274.78098,0.0,0.0,0.0,-13.40721,7.21927,4.23989,10.03,1.62,1.61,3.0
1758076274.91363,1758076274.79098,0.0,0.0,0.0,-14.15206,8.25059,3.83882,10.03,1.62,1.61,3.0
1758076274.91452,1758076274.80098,0.0,0.0,0.0,-14.72501,8.0787,3.38045,9.78,1.52,1.61,3.0
1758076274.92937,1758076274.81098,0.0,0.0,0.0,-14.72501,6.41713,2.46372,9.78,1.52,1.61,3.0
1758076274.93085,1758076274.82098,0.0,0.0,0.0,-14.09476,3.38045,1.66158,9.36,1.3,1.67,3.0
1758076274.94535,1758076274.83098,0.0,0.0,0.0,-13.12073,1.14592,0.80214,9.36,1.3,1.67,3.0
1758076274.96137,1758076274.84098,0.0,0.0,0.0,-11.91752,0.34377,0.11459,9.22,1.0,1.67,3.0
1758076274.96256,1758076274.85098,0.0,0.0,0.0,-9.62569,1.3751,-0.40107,9.48,0.78,1.5,3.0
1758076274.97736,1758076274.86098,0.0,0.0,0.0,-8.0787,2.29183,0.0,9.48,0.78,1.5,3.0
1758076274.99366,1758076274.87098,0.0,0.0,0.0,-6.58902,2.11994,0.68755,9.56,0.77,1.34,3.0
1758076274.99461,1758076274.88098,0.0,0.0,0.0,-5.27121,2.11994,1.66158,9.56,0.77,1.34,3.0
1758076275.00965,1758076274.89098,0.0,0.0,0.0,-3.89611,2.34913,3.38045,9.73,0.93,1.23,3.0
1758076275.01062,1758076274.90098,0.0,0.0,0.0,-3.20856,2.40642,4.52637,9.73,0.93,1.23,3.0
1758076275.0257,1758076274.91098,0.0,0.0,0.0,-2.57831,3.26586,5.32851,9.94,1.15,1.17,3.0
1758076275.04175,1758076274.92098,0.0,0.0,0.0,-2.23454,4.46907,6.24524,9.94,1.15,1.17,3.0
1758076275.04252,1758076274.93098,0.0,0.0,0.0,-1.66158,6.58902,6.99009,10.21,1.25,1.15,3.0
1758076275.05766,1758076274.94098,0.0,0.0,0.0,-1.08862,7.73493,7.62034,10.27,1.17,1.15,3.0
1758076275.07366,1758076274.95098,0.0,0.0,0.0,-0.57296,8.76626,7.96411,10.27,1.17,1.15,3.0
1758076275.07464,1758076274.96098,0.0,0.0,0.0,0.45837,10.02676,8.47978,10.32,1.04,1.09,3.0
1758076275.08944,1758076274.97098,0.0,0.0,0.0,1.60428,10.8862,8.88085,10.32,1.04,1.09,3.0
1758076275.09061,1758076274.98098,0.0,0.0,0.0,2.7502,11.97482,9.22462,10.38,0.91,1.13,3.0
1758076275.10568,1758076274.99098,0.0,0.0,0.0,3.55234,13.23533,9.4538,10.38,0.91,1.13,3.0
1758076275.12168,1758076275.00098,0.0,0.0,0.0,4.92744,15.12609,9.74028,10.43,0.86,1.21,3.0
1758076275.1226,1758076275.01098,0.0,0.0,0.0,5.61499,16.10011,9.96947,10.33,0.87,1.32,3.0
1758076275.13757,1758076275.02098,0.0,0.0,0.0,6.24524,15.98552,10.02676,10.33,0.87,1.32,3.0
1758076275.15346,1758076275.03098,0.0,0.0,0.0,6.7609,14.9542,9.85487,10.18,1.01,1.45,3.0
1758076275.1547,1758076275.04098,0.0,0.0,0.0,6.99009,13.75099,9.5684,10.18,1.01,1.45,3.0
1758076275.16948,1758076275.05098,0.0,0.0,0.0,6.7609,13.06344,8.99544,10.31,1.22,1.57,3.0
1758076275.17064,1758076275.06098,0.0,0.0,0.0,6.24524,12.08941,8.02141,10.31,1.22,1.57,3.0
1758076275.18565,1758076275.07098,0.0,0.0,0.0,5.55769,11.57375,6.87549,10.37,1.42,1.71,3.0
1758076275.20169,1758076275.08098,0.0,0.0,0.0,4.23989,10.59972,5.50039,10.47,1.56,1.98,3.0
1758076275.20267,1758076275.09098,0.0,0.0,0.0,2.92208,10.37054,4.64096,10.47,1.56,1.98,3.0
1758076275.21755,1758076275.10098,0.0,0.0,0.0,1.3178,11.11538,4.0107,10.81,1.72,2.23,3.0
1758076275.23356,1758076275.11098,0.0,0.0,0.0,-0.22918,11.57375,3.49504,10.81,1.72,2.23,3.0
1758076275.23466,1758076275.12098,0.0,0.0,0.0,-2.6929,12.83425,3.32316,11.1,1.89,2.45,3.0
1758076275.24974,1758076275.13098,0.0,0.0,0.0,-4.46907,13.00614,3.32316,11.1,1.89,2.45,3.0
1758076275.25091,1758076275.14097,0.0,0.0,0.0,-5.90147,13.40721,3.66693,11.26,1.93,2.72,3.0
1758076275.26626,1758076275.15097,0.0,0.0,0.0,-7.73493,14.15206,4.29718,11.26,1.93,2.72,3.0
1758076275.28244,1758076275.16097,0.0,0.0,0.0,-8.88085,16.21471,4.69825,11.55,1.83,2.85,3.0
1758076275.28374,1758076275.17097,0.0,0.0,0.0,-9.85487,16.61578,5.21392,11.88,1.68,3.12,3.0
1758076275.2985,1758076275.18097,0.0,0.0,0.0,-10.71431,15.98552,5.61499,11.88,1.68,3.12,3.0
1758076275.29998,1758076275.19097,0.0,0.0,0.0,-11.91752,15.24068,6.53172,12.15,1.57,3.27,3.0
1758076275.31578,1758076275.20097,0.0,0.0,0.0,-12.54778,14.38124,6.99009,12.15,1.57,3.27,3.0
1758076275.33178,1758076275.21097,0.0,0.0,0.0,-13.00614,14.49583,7.04738,12.45,1.44,3.26,3.0
1758076275.33272,1758076275.22097,0.0,0.0,0.0,-13.46451,14.66772,6.70361,12.45,1.44,3.26,3.0
1758076275.34752,1758076275.23097,0.0,0.0,0.0,-14.15206,14.09476,5.4431,12.56,1.3,3.38,3.0
1758076275.3635,1758076275.24097,0.0,0.0,0.0,-14.61043,12.77696,4.46907,12.27,1.17,3.63,3.0
1758076275.36466,1758076275.25097,0.0,0.0,0.0,-14.83961,11.00079,3.66693,12.27,1.17,3.63,3.0
1758076275.37971,1758076275.26097,0.0,0.0,0.0,-15.41257,9.5684,3.20856,11.94,1.06,3.64,3.0
1758076275.38069,1758076275.27097,0.0,0.0,0.0,-16.38659,7.96411,2.57831,11.94,1.06,3.64,3.0
1758076275.39578,1758076275.28097,0.0,0.0,0.0,-16.95955,7.10468,1.94806,11.54,0.93,3.67,3.0
1758076275.4115,1758076275.29097,0.0,0.0,0.0,-17.6471,5.95876,1.71887,11.54,0.93,3.67,3.0
1758076275.4127,1758076275.30097,0.0,0.0,0.0,-18.33465,3.89611,1.43239,10.72,0.73,3.55,3.0
1758076275.4275,1758076275.31097,0.0,0.0,0.0,-19.48057,-0.11459,1.08862,9.51,0.53,3.33,3.0
1758076275.44377,1758076275.32097,0.0,0.0,0.0,-20.3973,-1.48969,0.51566,9.51,0.53,3.33,3.0
1758076275.44505,1758076275.33097,0.0,0.0,0.0,-21.42862,-2.40642,0.17189,8.66,0.5,3.28,3.0
1758076275.45949,1758076275.34097,0.0,0.0,0.0,-22.74642,-2.92208,-0.34377,8.66,0.5,3.28,3.0
1758076275.46073,1758076275.35097,0.0,0.0,0.0,-24.12152,-5.15662,-0.68755,7.89,0.63,3.41,3.0
1758076275.47579,1758076275.36097,0.0,0.0,0.0,-25.21014,-6.99009,-1.03132,7.89,0.63,3.41,3.0
1758076275.4918,1758076275.37097,0.0,0.0,0.0,-26.06958,-7.62034,-0.74485,7.47,0.62,3.44,3.0
1758076275.49274,1758076275.38097,0.0,0.0,0.0,-26.06958,-8.99544,1.14592,7.47,0.62,3.44,3.0
1758076275.50783,1758076275.39097,0.0,0.0,0.0,-25.38203,-10.71431,2.97938,7.48,0.27,3.15,3.0
1758076275.5239,1758076275.40097,0.0,0.0,0.0,-24.29341,-12.37589,4.87014,7.48,-0.28,3.04,3.0
1758076275.52476,1758076275.41097,0.0,0.0,0.0,-22.68913,-13.23533,7.33386,7.48,-0.28,3.04,3.0
1758076275.53956,1758076275.42097,0.0,0.0,0.0,-19.59516,-12.08941,10.8289,7.9,-0.73,2.87,3.0
1758076275.54071,1758076275.43097,0.0,0.0,0.0,-17.36062,-10.65701,12.71966,7.9,-0.73,2.87,3.0
1758076275.55584,1758076275.44097,0.0,0.0,0.0,-14.9542,-8.93814,13.98017,8.29,-0.97,2.7,3.0
1758076275.57158,1758076275.45097,0.0,0.0,0.0,-12.71966,-7.96411,14.03747,8.29,-0.97,2.7,3.0
1758076275.57276,1758076275.46097,0.0,0.0,0.0,-10.8862,-4.98473,12.54778,8.35,-0.93,2.65,3.0
1758076275.58759,1758076275.47097,0.0,0.0,0.0,-9.28192,-2.97938,11.51645,8.39,-0.64,2.56,3.0
1758076275.60355,1758076275.48097,0.0,0.0,0.0,-7.62034,-0.34377,10.59972,8.39,-0.64,2.56,3.0
1758076275.60476,1758076275.49097,0.0,0.0,0.0,-5.95876,1.83346,10.08406,8.45,-0.54,2.56,3.0
1758076275.61961,1758076275.50097,0.0,0.0,0.0,-4.0107,3.83882,9.68299,8.45,-0.54,2.56,3.0
1758076275.63558,1758076275.51097,0.0,0.0,0.0,-2.97938,4.98473,9.85487,8.59,-0.64,2.58,3.0
1758076275.63702,1758076275.52097,0.0,0.0,0.0,-2.11994,6.18794,10.02676,8.59,-0.64,2.58,3.0
1758076275.65186,1758076275.53097,0.0,0.0,0.0,-1.48969,8.02141,10.48513,8.83,-0.68,2.55,3.0
1758076275.65287,1758076275.54097,0.0,0.0,0.0,-0.57296,9.85487,11.22997,8.79,-0.62,2.67,3.0
1758076275.66788,1758076275.55097,0.0,0.0,0.0,0.17189,10.19865,11.45916,8.79,-0.62,2.67,3.0
1758076275.68399,1758076275.56097,0.0,0.0,0.0,0.68755,10.31324,11.74564,8.58,-0.55,2.79,3.0
1758076275.68515,1758076275.57097,0.0,0.0,0.0,1.43239,10.48513,12.08941,8.58,-0.55,2.79,3.0
1758076275.69988,1758076275.58097,0.0,0.0,0.0,2.63561,9.33921,12.08941,8.53,-0.51,2.83,3.0
1758076275.70114,1758076275.59097,0.0,0.0,0.0,3.20856,9.05273,12.14671,8.53,-0.51,2.83,3.0
1758076275.7159,1758076275.60097,0.0,0.0,0.0,3.95341,8.76626,12.2613,8.7,-0.46,2.84,3.0
1758076275.73163,1758076275.61097,0.0,0.0,0.0,4.46907,7.16197,12.2613,8.7,-0.46,2.84,3.0
1758076275.73316,1758076275.62097,0.0,0.0,0.0,4.52637,5.55769,11.91752,8.85,-0.38,2.82,3.0
1758076275.74784,1758076275.63097,0.0,0.0,0.0,4.0107,4.81285,11.57375,8.96,-0.26,2.8,3.0
1758076275.76367,1758076275.64097,0.0,0.0,0.0,3.60963,3.60963,10.94349,8.96,-0.26,2.8,3.0
1758076275.76486,1758076275.65097,0.0,0.0,0.0,2.29183,1.20321,9.62569,8.99,-0.12,2.85,3.0
1758076275.77997,1758076275.66097,0.0,0.0,0.0,1.14592,-0.45837,8.70896,8.99,-0.12,2.85,3.0
1758076275.78094,1758076275.67097,0.0,0.0,0.0,0.0,-1.77617,7.79223,9.02,-0.01,2.85,3.0
1758076275.79564,1758076275.68097,0.0,0.0,0.0,-1.08862,-3.20856,6.7609,9.02,-0.01,2.85,3.0
1758076275.81196,1758076275.69097,0.0,0.0,0.0,-2.86479,-6.13065,5.84417,9.09,0.02,2.79,3.0
1758076275.81393,1758076275.70097,0.0,0.0,0.0,-3.72423,-8.42248,5.4431,9.06,-0.03,2.75,3.0
1758076275.82887,1758076275.71097,0.0,0.0,0.0,-4.35448,-9.28192,5.4431,9.06,-0.03,2.75,3.0
1758076275.82985,1758076275.72097,0.0,0.0,0.0,-4.92744,-8.99544,5.55769,9.22,-0.17,2.64,3.0
1758076275.84595,1758076275.73097,0.0,0.0,0.0,-5.78687,-8.59437,5.27121,9.22,-0.17,2.64,3.0
1758076275.86183,1758076275.74097,0.0,0.0,0.0,-6.18794,-8.0787,4.92744,9.23,-0.28,2.67,3.0
1758076275.86284,1758076275.75097,0.0,0.0,0.0,-6.53172,-6.99009,4.35448,9.23,-0.28,2.67,3.0
1758076275.87759,1758076275.76097,0.0,0.0,0.0,-6.41713,-5.55769,3.60963,9.28,-0.36,2.63,3.0
1758076275.89388,1758076275.77097,0.0,0.0,0.0,-6.58902,-2.6929,2.86479,9.37,-0.43,2.6,3.0
1758076275.89492,1758076275.78097,0.0,0.0,0.0,-6.41713,-0.97403,2.11994,9.37,-0.43,2.6,3.0
1758076275.90992,1758076275.79097,0.0,0.0,0.0,-6.24524,1.03132,1.3751,9.38,-0.4,2.5,3.0
1758076275.91089,1758076275.80097,0.0,0.0,0.0,-6.58902,3.72423,0.17189,9.38,-0.4,2.5,3.0
1758076275.92568,1758076275.81097,0.0,0.0,0.0,-6.53172,5.55769,-0.45837,9.35,-0.34,2.4,3.0
1758076275.94174,1758076275.82097,0.0,0.0,0.0,-6.53172,6.53172,-1.3751,9.35,-0.34,2.4,3.0
1758076275.94315,1758076275.83097,0.0,0.0,0.0,-6.58902,7.44845,-2.34913,9.17,-0.35,2.35,3.0
1758076275.95774,1758076275.84097,0.0,0.0,0.0,-6.35983,7.73493,-3.60963,9.17,-0.35,2.35,3.0
1758076275.97386,1758076275.85097,0.0,0.0,0.0,-6.13065,7.39116,-4.52637,9.0,-0.45,2.31,3.0
1758076275.97532,1758076275.86097,0.0,0.0,0.0,-5.55769,6.8182,-5.55769,8.87,-0.59,2.21,3.0
1758076275.98966,1758076275.87097,0.0,0.0,0.0,-5.15662,5.84417,-6.70361,8.87,-0.59,2.21,3.0
1758076275.99092,1758076275.88097,0.0,0.0,0.0,-3.89611,2.97938,-8.25059,8.76,-0.77,2.12,3.0
1758076276.00588,1758076275.89097,0.0,0.0,0.0,-2.40642,1.71887,-9.39651,8.76,-0.77,2.12,3.0
1758076276.02194,1758076275.90097,0.0,0.0,0.0,-0.85944,1.43239,-10.37054,8.75,-0.92,2.02,3.0
1758076276.02294,1758076275.91097,0.0,0.0,0.0,0.68755,0.85944,-11.74564,8.75,-0.92,2.02,3.0
1758076276.03775,1758076275.92097,0.0,0.0,0.0,3.26586,0.0573,-13.12073,8.82,-1.07,1.99,3.0
1758076276.054,1758076275.93097,0.0,0.0,0.0,5.21392,-1.20321,-13.86558,8.75,-1.14,1.99,3.0
1758076276.05521,1758076275.94097,0.0,0.0,0.0,6.8182,-3.83882,-14.32395,8.75,-1.14,1.99,3.0
1758076276.06992,1758076275.95097,0.0,0.0,0.0,8.59437,-6.87549,-14.32395,8.68,-1.13,2.07,3.0
1758076276.07094,1758076275.96097,0.0,0.0,0.0,10.94349,-12.89155,-14.20935,8.68,-1.13,2.07,3.0
1758076276.08594,1758076275.97097,0.0,0.0,0.0,12.204,-18.27736,-13.34992,8.87,-0.96,2.34,3.0
1758076276.10169,1758076275.98097,0.0,0.0,0.0,13.34992,-22.68913,-12.54778,8.87,-0.96,2.34,3.0
1758076276.10323,1758076275.99097,0.0,0.0,0.0,14.20935,-26.06958,-11.11538,9.34,-0.52,2.42,3.0
1758076276.11796,1758076276.00097,0.0,0.0,0.0,14.66772,-25.55392,-10.8862,9.91,0.05,2.08,3.0
1758076276.13371,1758076276.01097,0.0,0.0,0.0,14.43854,-23.94964,-10.71431,9.91,0.05,2.08,3.0
1758076276.13494,1758076276.02097,0.0,0.0,0.0,14.03747,-24.5226,-10.65701,10.12,0.55,2.47,3.0
1758076276.14972,1758076276.03097,0.0,0.0,0.0,13.46451,-28.13223,-10.08406,10.12,0.55,2.47,3.0
1758076276.15095,1758076276.04097,0.0,0.0,0.0,13.06344,-30.59595,-9.33921,10.17,0.92,2.7,3.0
1758076276.16591,1758076276.05097,0.0,0.0,0.0,12.14671,-32.37212,-8.47978,10.17,0.92,2.7,3.0
1758076276.1819,1758076276.06097,0.0,0.0,0.0,11.00079,-33.68992,-7.44845,10.26,1.08,2.56,3.0
1758076276.18298,1758076276.07097,0.0,0.0,0.0,8.42248,-34.77854,-5.95876,10.26,1.08,2.41,3.0
1758076276.19791,1758076276.08097,0.0,0.0,0.0,6.24524,-35.3515,-4.87014,9.98,0.95,2.41,3.0
1758076276.21375,1758076276.09097,0.0,0.0,0.0,4.23989,-36.38282,-4.1253,9.56,0.72,2.34,3.0
1758076276.21529,1758076276.10097,0.0,0.0,0.0,2.23454,-37.18496,-3.66693,9.56,0.72,2.34,3.0
1758076276.22981,1758076276.11097,0.0,0.0,0.0,0.0,-37.35685,-3.55234,9.29,0.52,2.22,3.0
1758076276.231,1758076276.12097,0.0,0.0,0.0,-1.60428,-37.18496,-4.0107,9.29,0.52,2.22,3.0
1758076276.24578,1758076276.13097,0.0,0.0,0.0,-2.63561,-36.21093,-4.58366,9.31,0.45,2.26,3.0
1758076276.26179,1758076276.14097,0.0,0.0,0.0,-3.38045,-34.26288,-5.09932,9.31,0.45,2.26,3.0
1758076276.26301,1758076276.15097,0.0,0.0,0.0,-4.58366,-30.53865,-5.95876,9.64,0.51,2.35,3.0
1758076276.27779,1758076276.16097,0.0,0.0,0.0,-4.81285,-27.84575,-6.24524,10.0,0.62,2.41,3.0
1758076276.29382,1758076276.17097,0.0,0.0,0.0,-4.81285,-25.43933,-6.47442,10.0,0.62,2.41,3.0
1758076276.295,1758076276.18097,0.0,0.0,0.0,-4.52637,-23.20479,-5.90147,10.17,0.63,2.34,3.0
1758076276.30998,1758076276.19097,0.0,0.0,0.0,-3.38045,-20.45459,-4.98473,10.17,0.63,2.34,3.0
1758076276.31102,1758076276.20097,0.0,0.0,0.0,-2.34913,-18.16276,-4.23989,10.21,0.52,2.14,3.0
1758076276.32582,1758076276.21097,0.0,0.0,0.0,-0.85944,-16.55848,-3.03668,10.21,0.52,2.14,3.0
1758076276.3418,1758076276.22097,0.0,0.0,0.0,0.85944,-14.61043,-2.00535,10.27,0.33,1.97,3.0
1758076276.343,1758076276.23097,0.0,0.0,0.0,2.23454,-11.17268,-1.14592,10.31,0.22,1.86,3.0
1758076276.3581,1758076276.24097,0.0,0.0,0.0,3.32316,-8.93814,-0.57296,10.31,0.22,1.86,3.0
1758076276.37386,1758076276.25097,0.0,0.0,0.0,4.0107,-8.136,-0.17189,10.1,0.24,1.87,3.0
1758076276.37505,1758076276.26097,0.0,0.0,0.0,4.46907,-7.96411,-0.0573,10.1,0.24,1.87,3.0
1758076276.38981,1758076276.27097,0.0,0.0,0.0,4.23989,-6.70361,-0.34377,9.91,0.38,1.89,3.0
1758076276.39102,1758076276.28097,0.0,0.0,0.0,3.83882,-4.87014,-0.74485,9.91,0.38,1.89,3.0
1758076276.40585,1758076276.29097,0.0,0.0,0.0,3.38045,-4.1253,-1.03132,9.94,0.6,1.95,3.0
1758076276.42189,1758076276.30097,0.0,0.0,0.0,2.23454,-5.32851,-1.48969,9.68,0.6,1.93,3.0
1758076276.42303,1758076276.31097,0.0,0.0,0.0,1.48969,-5.95876,-1.77617,9.68,0.72,1.93,3.0
1758076276.43793,1758076276.32097,0.0,0.0,0.0,0.80214,-5.55769,-1.94806,9.81,0.73,1.74,3.0
1758076276.45393,1758076276.33097,0.0,0.0,0.0,0.34377,-4.92744,-1.83346,9.81,0.73,1.74,3.0
1758076276.45509,1758076276.34097,0.0,0.0,0.0,0.0,-5.61499,-1.3751,9.81,0.66,1.75,3.0
1758076276.46993,1758076276.35097,0.0,0.0,0.0,0.17189,-5.61499,-0.97403,9.81,0.66,1.75,3.0
1758076276.47103,1758076276.36097,0.0,0.0,0.0,0.68755,-5.21392,-0.34377,9.89,0.49,1.72,3.0
1758076276.486,1758076276.37097,0.0,0.0,0.0,1.14592,-4.98473,0.0573,9.89,0.49,1.72,3.0
1758076276.50196,1758076276.38097,0.0,0.0,0.0,2.23454,-5.84417,0.85944,9.92,0.36,1.75,3.0
1758076276.50307,1758076276.39097,0.0,0.0,0.0,3.09397,-5.4431,1.43239,9.98,0.29,1.78,3.0
1758076276.51797,1758076276.40097,0.0,0.0,0.0,3.72423,-5.09932,1.60428,9.98,0.29,1.78,3.0
1758076276.5339,1758076276.41097,0.0,0.0,0.0,4.46907,-5.09932,2.00535,10.07,0.27,1.89,3.0
1758076276.53533,1758076276.42097,0.0,0.0,0.0,5.84417,-5.61499,2.40642,10.07,0.27,1.89,3.0
1758076276.5499,1758076276.43097,0.0,0.0,0.0,6.70361,-6.24524,2.63561,10.04,0.25,1.89,3.0
1758076276.55133,1758076276.44097,0.0,0.0,0.0,7.62034,-7.96411,3.09397,10.04,0.25,1.89,3.0
1758076276.56593,1758076276.45097,0.0,0.0,0.0,8.99544,-9.39651,3.38045,9.91,0.24,1.82,3.0
1758076276.58185,1758076276.46097,0.0,0.0,0.0,9.91217,-10.59972,3.66693,9.95,0.24,1.79,3.0
1758076276.583,1758076276.47097,0.0,0.0,0.0,10.71431,-11.22997,3.60963,9.95,0.24,1.79,3.0
1758076276.59792,1758076276.48097,0.0,0.0,0.0,11.51645,-11.86023,3.89611,9.99,0.25,1.75,3.0
1758076276.61396,1758076276.49097,0.0,0.0,0.0,12.60507,-12.43318,4.23989,9.99,0.25,1.75,3.0
1758076276.61513,1758076276.50097,0.0,0.0,0.0,13.06344,-12.54778,4.35448,10.0,0.27,1.69,3.0
1758076276.62993,1758076276.51097,0.0,0.0,0.0,13.40721,-12.60507,4.81285,10.0,0.27,1.69,3.0
1758076276.63112,1758076276.52097,0.0,0.0,0.0,13.69369,-12.60507,5.32851,9.96,0.28,1.58,3.0
1758076276.64593,1758076276.53097,0.0,0.0,0.0,13.80828,-11.63104,6.24524,9.96,0.33,1.48,3.0
1758076276.66189,1758076276.54097,0.0,0.0,0.0,14.03747,-10.8289,6.58902,9.96,0.33,1.48,3.0
1758076276.66337,1758076276.55097,0.0,0.0,0.0,14.15206,-10.31324,6.99009,9.92,0.39,1.43,3.0
1758076276.67796,1758076276.56097,0.0,0.0,0.0,14.09476,-9.74028,7.33386,9.92,0.39,1.43,3.0
1758076276.69382,1758076276.57097,0.0,0.0,0.0,13.86558,-8.30789,7.39116,9.93,0.43,1.38,3.0
1758076276.69503,1758076276.58097,0.0,0.0,0.0,13.86558,-7.84952,7.39116,9.93,0.43,1.38,3.0
1758076276.70991,1758076276.59097,0.0,0.0,0.0,13.75099,-7.16197,7.39116,9.94,0.42,1.24,3.0
1758076276.71138,1758076276.60097,0.0,0.0,0.0,13.5218,-6.13065,7.21927,9.94,0.42,1.24,3.0
1758076276.72595,1758076276.61097,0.0,0.0,0.0,13.5791,-4.46907,7.04738,10.02,0.38,1.21,3.0
1758076276.74191,1758076276.62097,0.0,0.0,0.0,13.69369,-3.60963,6.87549,10.03,0.33,1.13,3.0
1758076276.74313,1758076276.63097,0.0,0.0,0.0,13.69369,-2.86479,6.87549,10.03,0.33,1.13,3.0
1758076276.75793,1758076276.64097,0.0,0.0,0.0,13.75099,-2.6929,7.04738,10.04,0.29,1.13,3.0
1758076276.77395,1758076276.65097,0.0,0.0,0.0,13.5791,-2.57831,6.99009,10.04,0.29,1.13,3.0
1758076276.77511,1758076276.66097,0.0,0.0,0.0,13.69369,-2.46372,6.8182,10.01,0.27,1.12,3.0
1758076276.78994,1758076276.67097,0.0,0.0,0.0,13.5791,-2.46372,6.53172,10.01,0.27,1.12,3.0
1758076276.79109,1758076276.68097,0.0,0.0,0.0,13.46451,-1.77617,6.18794,10.0,0.27,1.11,3.0
1758076276.80593,1758076276.69097,0.0,0.0,0.0,13.46451,-1.20321,6.07335,10.05,0.25,1.16,3.0
1758076276.82194,1758076276.70097,0.0,0.0,0.0,13.5218,-1.03132,5.72958,10.05,0.25,1.16,3.0
1758076276.82314,1758076276.71097,0.0,0.0,0.0,13.34992,-0.0573,5.4431,10.05,0.23,1.15,3.0
1758076276.8379,1758076276.72097,0.0,0.0,0.0,13.5218,1.20321,4.81285,10.05,0.23,1.15,3.0
1758076276.85391,1758076276.73097,0.0,0.0,0.0,13.5218,1.94806,4.52637,10.04,0.21,1.12,3.0
1758076276.85508,1758076276.74097,0.0,0.0,0.0,13.5791,3.32316,4.1253,10.04,0.21,1.12,3.0
1758076276.86998,1758076276.75097,0.0,0.0,0.0,13.46451,4.87014,3.83882,10.07,0.18,1.08,3.0
1758076276.87147,1758076276.76097,0.0,0.0,0.0,13.5218,6.13065,3.55234,10.07,0.2,1.13,3.0
1758076276.88601,1758076276.77097,0.0,0.0,0.0,13.69369,6.8182,3.32316,10.07,0.2,1.13,3.0
1758076276.902,1758076276.78097,0.0,0.0,0.0,13.69369,7.33386,3.26586,10.02,0.25,1.06,3.0
1758076276.90321,1758076276.79097,0.0,0.0,0.0,13.40721,7.79223,3.09397,10.02,0.25,1.06,3.0
1758076276.91833,1758076276.80097,0.0,0.0,0.0,12.60507,8.47978,2.86479,10.01,0.32,1.15,3.0
1758076276.93402,1758076276.81097,0.0,0.0,0.0,12.14671,9.33921,2.40642,10.01,0.32,1.15,3.0
1758076276.93519,1758076276.82097,0.0,0.0,0.0,11.63104,9.91217,1.94806,10.03,0.39,1.17,3.0
1758076276.94986,1758076276.83097,0.0,0.0,0.0,10.8862,9.74028,1.83346,10.03,0.39,1.17,3.0
1758076276.9514,1758076276.84097,0.0,0.0,0.0,9.85487,8.25059,1.60428,9.88,0.4,1.19,3.0
1758076276.96596,1758076276.85097,0.0,0.0,0.0,9.33921,7.73493,1.60428,9.79,0.38,1.18,3.0
1758076276.98196,1758076276.86097,0.0,0.0,0.0,8.70896,7.44845,1.60428,9.79,0.38,1.18,3.0
1758076276.98316,1758076276.87097,0.0,0.0,0.0,8.02141,6.99009,1.60428,9.84,0.32,1.2,3.0
1758076276.99797,1758076276.88097,0.0,0.0,0.0,7.67763,6.35983,1.71887,9.84,0.32,1.2,3.0
1758076277.014,1758076276.89097,0.0,0.0,0.0,7.21927,5.21392,1.71887,9.79,0.25,1.2,3.0
1758076277.0152,1758076276.90097,0.0,0.0,0.0,6.99009,4.1253,1.43239,9.79,0.25,1.2,3.0
1758076277.03001,1758076276.91097,0.0,0.0,0.0,6.58902,3.72423,1.3178,9.78,0.21,1.1,3.0
1758076277.03147,1758076276.92097,0.0,0.0,0.0,6.35983,4.1253,1.08862,9.97,0.21,1.06,3.0
1758076277.04606,1758076276.93097,0.0,0.0,0.0,6.13065,4.0107,1.03132,9.97,0.21,1.06,3.0
1758076277.06194,1758076276.94097,0.0,0.0,0.0,5.78687,3.95341,0.97403,9.95,0.21,1.04,3.0
1758076277.06314,1758076276.95097,0.0,0.0,0.0,5.27121,3.20856,0.68755,9.95,0.21,1.04,3.0
1758076277.07827,1758076276.96097,0.0,0.0,0.0,4.92744,2.40642,0.51566,9.86,0.22,1.02,3.0
1758076277.09402,1758076276.97097,0.0,0.0,0.0,4.52637,1.94806,0.22918,9.86,0.22,1.02,3.0
1758076277.0952,1758076276.98097,0.0,0.0,0.0,4.0107,1.94806,0.0,9.85,0.22,1.03,3.0
1758076277.11002,1758076276.99097,0.0,0.0,0.0,3.32316,2.11994,-0.17189,9.91,0.22,1.11,3.0
1758076277.11122,1758076277.00097,0.0,0.0,0.0,2.86479,2.34913,-0.34377,9.91,0.22,1.11,3.0
1758076277.12602,1758076277.01097,0.0,0.0,0.0,2.40642,2.63561,-0.34377,9.92,0.23,1.17,3.0
1758076277.14202,1758076277.02097,0.0,0.0,0.0,2.00535,2.6929,-0.40107,9.92,0.23,1.17,3.0
1758076277.14324,1758076277.03097,0.0,0.0,0.0,1.43239,2.57831,-0.40107,9.94,0.24,1.18,3.0
1758076277.15804,1758076277.04097,0.0,0.0,0.0,0.97403,2.57831,-0.40107,9.94,0.24,1.18,3.0
1758076277.17401,1758076277.05097,0.0,0.0,0.0,0.68755,2.40642,-0.22918,9.94,0.23,1.21,3.0
1758076277.17523,1758076277.06097,0.0,0.0,0.0,0.34377,2.34913,-0.34377,9.94,0.23,1.21,3.0
1758076277.19026,1758076277.07097,0.0,0.0,0.0,0.11459,2.7502,-0.34377,9.94,0.21,1.23,3.0
1758076277.19123,1758076277.08097,0.0,0.0,0.0,0.0,3.03668,-0.45837,9.96,0.16,1.26,3.0
1758076277.20604,1758076277.09097,0.0,0.0,0.0,-0.17189,3.03668,-0.51566,9.96,0.16,1.26,3.0
1758076277.22207,1758076277.10097,0.0,0.0,0.0,-0.34377,2.23454,-0.57296,9.88,0.14,1.27,3.0
1758076277.22326,1758076277.11097,0.0,0.0,0.0,-0.45837,1.77617,-0.51566,9.88,0.14,1.27,3.0
1758076277.238,1758076277.12097,0.0,0.0,0.0,-0.74485,1.3751,-0.68755,9.85,0.14,1.27,3.0
1758076277.25405,1758076277.13097,0.0,0.0,0.0,-1.03132,1.14592,-0.57296,9.85,0.14,1.27,3.0
1758076277.25526,1758076277.14097,0.0,0.0,0.0,-1.20321,1.03132,-0.40107,9.85,0.16,1.28,3.0
1758076277.27007,1758076277.15097,0.0,0.0,0.0,-1.48969,1.03132,-0.34377,9.87,0.19,1.28,3.0
1758076277.27127,1758076277.16097,0.0,0.0,0.0,-1.77617,1.08862,-0.34377,9.87,0.19,1.28,3.0
1758076277.28609,1758076277.17097,0.0,0.0,0.0,-1.83346,1.43239,-0.34377,9.87,0.19,1.29,3.0
1758076277.30207,1758076277.18097,0.0,0.0,0.0,-2.00535,2.23454,-0.34377,9.87,0.19,1.29,3.0
1758076277.30326,1758076277.19097,0.0,0.0,0.0,-1.94806,2.6929,-0.40107,9.87,0.15,1.3,3.0
1758076277.3183,1758076277.20097,0.0,0.0,0.0,-2.00535,2.7502,-0.34377,9.87,0.15,1.3,3.0
1758076277.33408,1758076277.21097,0.0,0.0,0.0,-1.94806,2.92208,-0.22918,9.86,0.11,1.3,3.0
1758076277.33529,1758076277.22097,0.0,0.0,0.0,-1.71887,3.95341,-0.17189,9.99,0.07,1.34,3.0
1758076277.3501,1758076277.23097,0.0,0.0,0.0,-1.48969,4.52637,-0.11459,9.99,0.07,1.34,3.0
1758076277.35131,1758076277.24097,0.0,0.0,0.0,-1.20321,4.52637,-0.0573,9.97,0.07,1.39,3.0
1758076277.36643,1758076277.25097,0.0,0.0,0.0,-1.14592,3.55234,-0.11459,9.97,0.07,1.39,3.0
1758076277.38207,1758076277.26097,0.0,0.0,0.0,-1.03132,1.14592,-0.22918,9.79,0.09,1.4,3.0
1758076277.38328,1758076277.27097,0.0,0.0,0.0,-1.03132,-0.0573,-0.40107,9.79,0.09,1.4,3.0
1758076277.398,1758076277.28097,0.0,0.0,0.0,-1.03132,-0.34377,-0.45837,9.81,0.1,1.38,3.0
1758076277.41411,1758076277.29097,0.0,0.0,0.0,-0.85944,0.22918,-0.51566,9.81,0.1,1.38,3.0
1758076277.41529,1758076277.30097,0.0,0.0,0.0,-1.08862,0.68755,-0.51566,9.96,0.11,1.43,3.0
1758076277.4301,1758076277.31097,0.0,0.0,0.0,-0.97403,0.74485,-0.51566,9.93,0.11,1.46,3.0
1758076277.43151,1758076277.32097,0.0,0.0,0.0,-0.85944,0.57296,-0.45837,9.93,0.11,1.46,3.0
1758076277.44638,1758076277.33097,0.0,0.0,0.0,-0.80214,0.40107,-0.45837,9.91,0.12,1.45,3.0
1758076277.46244,1758076277.34097,0.0,0.0,0.0,-0.85944,0.40107,-0.51566,9.91,0.12,1.45,3.0
1758076277.46335,1758076277.35097,0.0,0.0,0.0,-0.74485,0.34377,-0.40107,9.9,0.11,1.44,3.0
1758076277.47817,1758076277.36097,0.0,0.0,0.0,-0.68755,0.22918,-0.40107,9.9,0.11,1.44,3.0
1758076277.49416,1758076277.37097,0.0,0.0,0.0,-0.57296,0.40107,-0.40107,9.86,0.1,1.45,3.0
1758076277.49534,1758076277.38097,0.0,0.0,0.0,-0.45837,0.45837,-0.34377,9.85,0.09,1.46,3.0
1758076277.51034,1758076277.39097,0.0,0.0,0.0,-0.40107,0.51566,-0.22918,9.85,0.09,1.46,3.0
1758076277.51158,1758076277.40097,0.0,0.0,0.0,-0.17189,0.57296,-0.22918,9.87,0.07,1.46,3.0
1758076277.52642,1758076277.41097,0.0,0.0,0.0,-0.0573,0.74485,-0.22918,9.87,0.07,1.46,3.0
1758076277.54217,1758076277.42097,0.0,0.0,0.0,-0.0573,0.80214,-0.17189,9.9,0.07,1.45,3.0
1758076277.54333,1758076277.43097,0.0,0.0,0.0,0.0573,0.80214,-0.34377,9.9,0.07,1.45,3.0
1758076277.55824,1758076277.44097,0.0,0.0,0.0,0.22918,0.85944,-0.34377,9.92,0.05,1.44,3.0
1758076277.57417,1758076277.45097,0.0,0.0,0.0,0.40107,0.97403,-0.34377,9.92,0.04,1.45,3.0
1758076277.5753,1758076277.46097,0.0,0.0,0.0,0.57296,0.85944,-0.40107,9.92,0.04,1.45,3.0
1758076277.59054,1758076277.47097,0.0,0.0,0.0,0.51566,0.74485,-0.34377,9.9,0.05,1.47,3.0
1758076277.59218,1758076277.48097,0.0,0.0,0.0,0.74485,0.74485,-0.34377,9.9,0.05,1.47,3.0
1758076277.60744,1758076277.49097,0.0,0.0,0.0,0.80214,0.45837,-0.22918,9.88,0.07,1.48,3.0
1758076277.62344,1758076277.50097,0.0,0.0,0.0,0.85944,0.22918,-0.0573,9.88,0.07,1.48,3.0
1758076277.6244,1758076277.51097,0.0,0.0,0.0,0.85944,0.11459,0.0,9.87,0.11,1.5,3.0
1758076277.64018,1758076277.52097,0.0,0.0,0.0,0.97403,0.0,0.0573,9.87,0.11,1.5,3.0
1758076277.64141,1758076277.53097,0.0,0.0,0.0,0.97403,0.0573,0.0,9.86,0.12,1.51,3.0
1758076277.65647,1758076277.54097,0.0,0.0,0.0,1.03132,0.0,0.0,9.87,0.11,1.5,3.0
1758076277.67249,1758076277.55097,0.0,0.0,0.0,0.97403,0.22918,-0.11459,9.87,0.11,1.5,3.0
1758076277.67341,1758076277.56097,0.0,0.0,0.0,1.08862,0.22918,-0.34377,9.88,0.08,1.48,3.0
1758076277.68827,1758076277.57097,0.0,0.0,0.0,1.08862,0.11459,-0.22918,9.88,0.08,1.48,3.0
1758076277.70447,1758076277.58097,0.0,0.0,0.0,1.03132,0.17189,-0.34377,9.88,0.07,1.47,3.0
1758076277.70541,1758076277.59097,0.0,0.0,0.0,1.14592,0.22918,-0.40107,9.88,0.07,1.47,3.0
1758076277.72049,1758076277.60097,0.0,0.0,0.0,1.20321,0.97403,-0.40107,9.9,0.08,1.47,3.0
1758076277.72146,1758076277.61097,0.0,0.0,0.0,1.3751,1.48969,-0.34377,9.94,0.1,1.5,3.0
1758076277.73653,1758076277.62097,0.0,0.0,0.0,1.48969,2.11994,-0.22918,9.94,0.1,1.5,3.0
1758076277.7523,1758076277.63097,0.0,0.0,0.0,1.77617,2.86479,-0.0573,9.94,0.08,1.52,3.0
1758076277.75345,1758076277.64097,0.0,0.0,0.0,1.94806,2.92208,-0.0573,9.94,0.08,1.52,3.0
1758076277.76825,1758076277.65097,0.0,0.0,0.0,2.06265,2.46372,0.0,9.84,0.06,1.53,3.0
1758076277.78464,1758076277.66097,0.0,0.0,0.0,2.11994,2.57831,-0.11459,9.84,0.06,1.53,3.0
1758076277.78549,1758076277.67097,0.0,0.0,0.0,2.40642,2.34913,-0.0573,9.85,0.06,1.52,3.0
1758076277.80033,1758076277.68097,0.0,0.0,0.0,2.23454,1.83346,0.0,9.85,0.09,1.54,3.0
1758076277.80149,1758076277.69097,0.0,0.0,0.0,2.29183,1.08862,0.0573,9.85,0.09,1.54,3.0
1758076277.81655,1758076277.70097,0.0,0.0,0.0,2.00535,-0.11459,0.0573,9.78,0.13,1.52,3.0
1758076277.8323,1758076277.71097,0.0,0.0,0.0,1.66158,-1.3751,-0.11459,9.78,0.13,1.52,3.0
1758076277.83349,1758076277.72097,0.0,0.0,0.0,1.60428,-1.14592,-0.11459,9.84,0.17,1.5,3.0
1758076277.84826,1758076277.73097,0.0,0.0,0.0,1.43239,-0.85944,-0.22918,9.84,0.17,1.5,3.0
1758076277.86433,1758076277.74097,0.0,0.0,0.0,1.3178,-0.57296,-0.34377,9.95,0.17,1.54,3.0
1758076277.86555,1758076277.75097,0.0,0.0,0.0,1.20321,-0.57296,-0.40107,9.95,0.17,1.54,3.0
1758076277.88037,1758076277.76097,0.0,0.0,0.0,1.14592,-0.74485,-0.34377,9.89,0.16,1.55,3.0
1758076277.88155,1758076277.77097,0.0,0.0,0.0,1.14592,-0.97403,-0.22918,9.84,0.12,1.54,3.0
1758076277.89663,1758076277.78097,0.0,0.0,0.0,1.14592,-1.14592,-0.34377,9.84,0.12,1.54,3.0
1758076277.91256,1758076277.79097,0.0,0.0,0.0,1.20321,-1.3178,-0.34377,9.83,0.11,1.53,3.0
1758076277.91422,1758076277.80097,0.0,0.0,0.0,1.3751,-1.3751,-0.22918,9.83,0.11,1.53,3.0
1758076277.92861,1758076277.81097,0.0,0.0,0.0,1.43239,-1.3751,-0.17189,9.84,0.1,1.53,3.0
1758076277.94436,1758076277.82097,0.0,0.0,0.0,1.48969,-1.48969,-0.22918,9.84,0.1,1.53,3.0
1758076277.94632,1758076277.83097,0.0,0.0,0.0,1.66158,-1.48969,-0.22918,9.86,0.11,1.53,3.0
1758076277.96129,1758076277.84097,0.0,0.0,0.0,1.60428,-1.60428,-0.34377,9.88,0.11,1.51,3.0
1758076277.96255,1758076277.85097,0.0,0.0,0.0,1.48969,-1.66158,-0.40107,9.88,0.11,1.51,3.0
1758076277.97729,1758076277.86097,0.0,0.0,0.0,1.66158,-1.60428,-0.40107,9.9,0.12,1.5,3.0
1758076277.99361,1758076277.87097,0.0,0.0,0.0,1.60428,-1.66158,-0.51566,9.9,0.12,1.5,3.0
1758076277.9948,1758076277.88097,0.0,0.0,0.0,1.60428,-1.60428,-0.68755,9.92,0.14,1.49,3.0
1758076278.00964,1758076277.89097,0.0,0.0,0.0,1.3751,-1.48969,-0.68755,9.92,0.14,1.49,3.0
1758076278.01083,1758076277.90097,0.0,0.0,0.0,1.3751,-1.43239,-0.57296,9.92,0.16,1.48,3.0
1758076278.02735,1758076277.91097,0.0,0.0,0.0,1.3751,-1.43239,-0.57296,9.91,0.17,1.48,3.0
1758076278.04341,1758076277.92097,0.0,0.0,0.0,1.20321,-1.3751,-0.57296,9.91,0.17,1.48,3.0
1758076278.04455,1758076277.93097,0.0,0.0,0.0,1.14592,-1.3751,-0.57296,9.9,0.17,1.48,3.0
1758076278.05942,1758076277.94097,0.0,0.0,0.0,1.14592,-1.3178,-0.51566,9.9,0.17,1.48,3.0
1758076278.06054,1758076277.95097,0.0,0.0,0.0,1.03132,-1.20321,-0.57296,9.87,0.18,1.47,3.0
1758076278.07738,1758076277.96097,0.0,0.0,0.0,0.85944,-1.14592,-0.57296,9.87,0.18,1.47,3.0
1758076278.09367,1758076277.97097,0.0,0.0,0.0,0.80214,-1.08862,-0.57296,9.87,0.18,1.47,3.0
1758076278.09456,1758076277.98097,0.0,0.0,0.0,0.74485,-0.97403,-0.57296,9.87,0.18,1.46,3.0
1758076278.10937,1758076277.99097,0.0,0.0,0.0,0.57296,-0.97403,-0.45837,9.87,0.19,1.46,3.0
1758076278.11091,1758076278.00097,0.0,0.0,0.0,0.51566,-0.85944,-0.45837,9.88,0.2,1.46,3.0
1758076278.12727,1758076278.01097,0.0,0.0,0.0,0.34377,-0.85944,-0.45837,9.88,0.2,1.46,3.0
1758076278.14337,1758076278.02097,0.0,0.0,0.0,0.17189,-0.68755,-0.51566,9.9,0.2,1.46,3.0
1758076278.14495,1758076278.03097,0.0,0.0,0.0,0.0573,-0.74485,-0.51566,9.9,0.2,1.46,3.0
1758076278.15963,1758076278.04097,0.0,0.0,0.0,0.0573,-0.74485,-0.57296,9.91,0.18,1.46,3.0
1758076278.16058,1758076278.05097,0.0,0.0,0.0,0.0,-0.74485,-0.57296,9.91,0.18,1.46,3.0
1758076278.17666,1758076278.06097,0.0,0.0,0.0,-0.11459,-0.74485,-0.68755,9.92,0.17,1.46,3.0
1758076278.19265,1758076278.07097,0.0,0.0,0.0,-0.11459,-0.97403,-0.68755,9.92,0.17,1.45,3.0
1758076278.19362,1758076278.08097,0.0,0.0,0.0,-0.0573,-0.85944,-0.57296,9.92,0.17,1.45,3.0
1758076278.21034,1758076278.09097,0.0,0.0,0.0,-0.0573,-1.03132,-0.51566,9.91,0.17,1.45,3.0
1758076278.21314,1758076278.10097,0.0,0.0,0.0,-0.11459,-1.03132,-0.40107,9.91,0.17,1.45,3.0
1758076278.22868,1758076278.11097,0.0,0.0,0.0,0.0,-1.20321,-0.34377,9.9,0.16,1.44,3.0
1758076278.23356,1758076278.12097,0.0,0.0,0.0,0.0,-1.20321,-0.22918,9.9,0.16,1.44,3.0
1758076278.26889,1758076278.13097,0.0,0.0,0.0,0.0,-1.3751,-0.17189,9.89,0.15,1.43,3.0
1758076278.27411,1758076278.14097,0.0,0.0,0.0,0.0,-1.3751,-0.22918,9.89,0.15,1.41,3.0
1758076278.27584,1758076278.15097,0.0,0.0,0.0,-0.11459,-1.3751,-0.17189,9.89,0.15,1.41,3.0
1758076278.27675,1758076278.16097,0.0,0.0,0.0,-0.11459,-1.43239,-0.34377,9.91,0.17,1.39,3.0
1758076278.29272,1758076278.17097,0.0,0.0,0.0,-0.17189,-1.3751,-0.17189,9.91,0.17,1.39,3.0
1758076278.29362,1758076278.18097,0.0,0.0,0.0,-0.17189,-1.3178,-0.17189,9.91,0.18,1.36,3.0
1758076278.30835,1758076278.19097,0.0,0.0,0.0,-0.22918,-1.20321,-0.22918,9.91,0.18,1.36,3.0
1758076278.31035,1758076278.20097,0.0,0.0,0.0,-0.17189,-1.08862,-0.11459,9.92,0.16,1.34,3.0
1758076278.32641,1758076278.21097,0.0,0.0,0.0,0.0,-0.97403,-0.17189,9.94,0.16,1.32,3.0
1758076278.34247,1758076278.22097,0.0,0.0,0.0,0.11459,-0.74485,-0.11459,9.94,0.12,1.32,3.0
1758076278.34365,1758076278.23097,0.0,0.0,0.0,0.11459,-0.80214,-0.11459,9.96,0.11,1.31,3.0
1758076278.35867,1758076278.24097,0.0,0.0,0.0,0.34377,-0.74485,-0.0573,9.96,0.11,1.31,3.0
1758076278.36122,1758076278.25097,0.0,0.0,0.0,0.51566,-0.74485,0.0,9.94,0.1,1.31,3.0
1758076278.38498,1758076278.26097,0.0,0.0,0.0,0.74485,-0.85944,0.0573,9.94,0.1,1.31,3.0
1758076278.40063,1758076278.27097,0.0,0.0,0.0,0.97403,-0.85944,0.0573,9.91,0.11,1.33,3.0
1758076278.4012,1758076278.28097,0.0,0.0,0.0,0.97403,-0.80214,0.11459,9.91,0.11,1.33,3.0
1758076278.40292,1758076278.29097,0.0,0.0,0.0,1.03132,-0.85944,0.0,9.92,0.13,1.35,3.0
1758076278.41845,1758076278.30097,0.0,0.0,0.0,0.97403,-0.85944,0.0,9.94,0.13,1.35,3.0
1758076278.43478,1758076278.31097,0.0,0.0,0.0,1.08862,-0.97403,-0.11459,9.94,0.13,1.35,3.0
1758076278.43581,1758076278.32097,0.0,0.0,0.0,1.08862,-1.03132,-0.0573,9.93,0.16,1.34,3.0
1758076278.45038,1758076278.33097,0.0,0.0,0.0,1.03132,-1.08862,-0.11459,9.93,0.16,1.34,3.0
1758076278.45242,1758076278.34097,0.0,0.0,0.0,0.97403,-1.03132,-0.11459,9.9,0.17,1.34,3.0
1758076278.46774,1758076278.35097,0.0,0.0,0.0,0.80214,-1.03132,-0.0573,9.9,0.17,1.34,3.0
1758076278.48349,1758076278.36097,0.0,0.0,0.0,0.80214,-1.03132,0.0,9.89,0.18,1.36,3.0
1758076278.48461,1758076278.37097,0.0,0.0,0.0,0.68755,-1.14592,0.0573,9.9,0.19,1.35,3.0
1758076278.4995,1758076278.38097,0.0,0.0,0.0,0.68755,-1.03132,0.11459,9.9,0.19,1.35,3.0
1758076278.50062,1758076278.39097,0.0,0.0,0.0,0.51566,-1.03132,0.0573,9.91,0.18,1.35,3.0
1758076278.51779,1758076278.40097,0.0,0.0,0.0,0.40107,-0.97403,0.11459,9.91,0.18,1.35,3.0
1758076278.53354,1758076278.41097,0.0,0.0,0.0,0.40107,-0.85944,0.0573,9.92,0.18,1.36,3.0
1758076278.53471,1758076278.42097,0.0,0.0,0.0,0.11459,-0.80214,0.0,9.92,0.18,1.36,3.0
1758076278.5498,1758076278.43097,0.0,0.0,0.0,0.17189,-0.74485,0.0,9.92,0.18,1.35,3.0
1758076278.5523,1758076278.44097,0.0,0.0,0.0,-0.0573,-0.51566,-0.0573,9.91,0.18,1.35,3.0
1758076278.5684,1758076278.45097,0.0,0.0,0.0,0.0,-0.57296,-0.0573,9.91,0.18,1.35,3.0
1758076278.58529,1758076278.46097,0.0,0.0,0.0,-0.11459,-0.51566,-0.11459,9.91,0.17,1.36,3.0
1758076278.64092,1758076278.47097,0.0,0.0,0.0,-0.11459,-0.68755,-0.11459,9.91,0.17,1.36,3.0
1758076278.64127,1758076278.48097,0.0,0.0,0.0,-0.11459,-0.68755,-0.11459,9.92,0.16,1.35,3.0
1758076278.64329,1758076278.49097,0.0,0.0,0.0,-0.11459,-0.74485,-0.17189,9.92,0.16,1.35,3.0
1758076278.64391,1758076278.50097,0.0,0.0,0.0,-0.11459,-0.68755,-0.17189,9.93,0.15,1.35,3.0
1758076278.64633,1758076278.51097,0.0,0.0,0.0,0.0,-0.57296,-0.11459,9.93,0.15,1.35,3.0
1758076278.64768,1758076278.52097,0.0,0.0,0.0,-0.0573,-0.68755,-0.17189,9.93,0.15,1.33,3.0
1758076278.64808,1758076278.53097,0.0,0.0,0.0,0.11459,-0.68755,-0.11459,9.94,0.14,1.33,3.0
1758076278.66483,1758076278.54097,0.0,0.0,0.0,0.22918,-0.68755,-0.11459,9.94,0.14,1.33,3.0
1758076278.66577,1758076278.55097,0.0,0.0,0.0,0.34377,-0.51566,-0.11459,9.96,0.14,1.33,3.0
1758076278.68168,1758076278.56097,0.0,0.0,0.0,0.40107,-0.57296,-0.17189,9.96,0.14,1.33,3.0
1758076278.68284,1758076278.57097,0.0,0.0,0.0,0.22918,-0.51566,-0.17189,9.95,0.14,1.33,3.0
1758076278.69762,1758076278.58097,0.0,0.0,0.0,0.40107,-0.68755,-0.17189,9.95,0.14,1.33,3.0
1758076278.7138,1758076278.59097,0.0,0.0,0.0,0.34377,-0.80214,-0.22918,9.93,0.14,1.35,3.0
1758076278.71671,1758076278.60097,0.0,0.0,0.0,0.40107,-0.85944,-0.22918,9.93,0.15,1.36,3.0
1758076278.73192,1758076278.61097,0.0,0.0,0.0,0.17189,-0.85944,-0.22918,9.93,0.15,1.36,3.0
1758076278.7336,1758076278.62097,0.0,0.0,0.0,0.17189,-1.03132,-0.22918,9.94,0.15,1.36,3.0
1758076278.7525,1758076278.63097,0.0,0.0,0.0,0.17189,-0.97403,-0.22918,9.94,0.15,1.36,3.0
1758076278.75779,1758076278.64097,0.0,0.0,0.0,0.11459,-0.97403,-0.22918,9.93,0.16,1.35,3.0
1758076278.82743,1758076278.65097,0.0,0.0,0.0,0.0573,-0.85944,-0.34377,9.93,0.16,1.35,3.0
1758076278.83284,1758076278.66097,0.0,0.0,0.0,0.0,-0.68755,-0.17189,9.93,0.18,1.33,3.0
1758076278.83328,1758076278.67097,0.0,0.0,0.0,-0.11459,-0.57296,-0.11459,9.94,0.18,1.32,3.0
1758076278.83558,1758076278.68097,0.0,0.0,0.0,-0.22918,-0.74485,-0.11459,9.94,0.18,1.32,3.0
1758076278.83596,1758076278.69097,0.0,0.0,0.0,-0.34377,-0.45837,-0.11459,9.93,0.18,1.32,3.0
1758076278.83659,1758076278.70097,0.0,0.0,0.0,-0.34377,-0.57296,-0.0573,9.93,0.18,1.32,3.0
1758076278.83769,1758076278.71097,0.0,0.0,0.0,-0.34377,-0.57296,-0.11459,9.92,0.16,1.32,3.0
1758076278.83845,1758076278.72097,0.0,0.0,0.0,-0.34377,-0.51566,-0.17189,9.92,0.16,1.32,3.0
1758076278.8547,1758076278.73097,0.0,0.0,0.0,-0.34377,-0.51566,-0.11459,9.92,0.14,1.32,3.0
1758076278.85746,1758076278.74097,0.0,0.0,0.0,-0.17189,-0.45837,-0.11459,9.92,0.14,1.32,3.0
1758076278.87293,1758076278.75097,0.0,0.0,0.0,-0.0573,-0.51566,-0.11459,9.92,0.14,1.32,3.0
1758076278.87396,1758076278.76097,0.0,0.0,0.0,-0.11459,-0.45837,-0.0573,9.92,0.14,1.31,3.0
1758076278.88877,1758076278.77097,0.0,0.0,0.0,0.0573,-0.40107,-0.0573,9.92,0.14,1.31,3.0
1758076278.90573,1758076278.78097,0.0,0.0,0.0,0.11459,-0.45837,0.0,9.92,0.14,1.31,3.0
1758076278.90612,1758076278.79097,0.0,0.0,0.0,0.17189,-0.51566,0.0,9.92,0.14,1.31,3.0
1758076278.92166,1758076278.80097,0.0,0.0,0.0,0.17189,-0.57296,0.0573,9.91,0.14,1.32,3.0
1758076278.92363,1758076278.81097,0.0,0.0,0.0,0.34377,-0.57296,0.0573,9.91,0.14,1.32,3.0
1758076278.93895,1758076278.82097,0.0,0.0,0.0,0.40107,-0.51566,0.0573,9.92,0.13,1.32,3.0
1758076278.95499,1758076278.83097,0.0,0.0,0.0,0.45837,-0.57296,0.0573,9.93,0.12,1.32,3.0
1758076278.95653,1758076278.84097,0.0,0.0,0.0,0.40107,-0.51566,0.0573,9.93,0.12,1.32,3.0
1758076278.97171,1758076278.85097,0.0,0.0,0.0,0.45837,-0.45837,0.11459,9.94,0.13,1.32,3.0
1758076278.97289,1758076278.86097,0.0,0.0,0.0,0.40107,-0.45837,0.22918,9.94,0.13,1.32,3.0
1758076278.98755,1758076278.87097,0.0,0.0,0.0,0.45837,-0.51566,0.17189,9.92,0.14,1.32,3.0
1758076279.00399,1758076278.88097,0.0,0.0,0.0,0.51566,-0.45837,0.22918,9.92,0.14,1.32,3.0
1758076279.00438,1758076278.89097,0.0,0.0,0.0,0.68755,-0.51566,0.22918,9.92,0.13,1.33,3.0
1758076279.01998,1758076278.90097,0.0,0.0,0.0,0.74485,-0.22918,0.17189,9.94,0.11,1.34,3.0
1758076279.02165,1758076278.91097,0.0,0.0,0.0,0.80214,-0.17189,0.17189,9.94,0.11,1.34,3.0
1758076279.03795,1758076278.92097,0.0,0.0,0.0,0.74485,-0.11459,0.22918,9.95,0.1,1.33,3.0
1758076279.05374,1758076278.93097,0.0,0.0,0.0,0.74485,0.0,0.40107,9.95,0.1,1.33,3.0
1758076279.05448,1758076278.94097,0.0,0.0,0.0,0.57296,0.11459,0.45837,9.93,0.12,1.31,3.0
1758076279.07279,1758076278.95097,0.0,0.0,0.0,0.68755,0.11459,0.40107,9.93,0.12,1.31,3.0
1758076279.07377,1758076278.96097,0.0,0.0,0.0,0.57296,0.11459,0.45837,9.93,0.14,1.32,3.0
1758076279.10779,1758076278.97097,0.0,0.0,0.0,0.51566,0.22918,0.34377,9.93,0.14,1.32,3.0
1758076279.1086,1758076278.98097,0.0,0.0,0.0,0.51566,0.0573,0.22918,9.92,0.15,1.32,3.0
1758076279.10918,1758076278.99097,0.0,0.0,0.0,0.57296,-0.0573,0.17189,9.89,0.11,1.35,3.0
1758076279.11357,1758076279.00097,0.0,0.0,0.0,0.68755,0.0,0.11459,9.89,0.11,1.35,3.0
1758076279.12872,1758076279.01097,0.0,0.0,0.0,0.57296,-0.0573,0.11459,9.89,0.09,1.37,3.0
1758076279.14575,1758076279.02097,0.0,0.0,0.0,0.57296,0.0573,0.11459,9.89,0.09,1.37,3.0
1758076279.14631,1758076279.03097,0.0,0.0,0.0,0.57296,0.11459,0.17189,9.91,0.08,1.38,3.0
1758076279.16194,1758076279.04097,0.0,0.0,0.0,0.57296,0.11459,0.17189,9.91,0.08,1.38,3.0
1758076279.16295,1758076279.05097,0.0,0.0,0.0,0.45837,0.17189,0.17189,9.94,0.1,1.36,3.0
1758076279.1777,1758076279.06097,0.0,0.0,0.0,0.51566,0.40107,0.22918,9.99,0.12,1.33,3.0
1758076279.19393,1758076279.07097,0.0,0.0,0.0,0.45837,0.40107,0.22918,9.99,0.12,1.33,3.0
1758076279.19431,1758076279.08097,0.0,0.0,0.0,0.40107,0.40107,0.22918,9.98,0.11,1.34,3.0
1758076279.20996,1758076279.09097,0.0,0.0,0.0,0.22918,0.45837,0.34377,9.98,0.11,1.34,3.0
1758076279.21096,1758076279.10097,0.0,0.0,0.0,0.22918,0.45837,0.34377,9.93,0.1,1.35,3.0
1758076279.2261,1758076279.11097,0.0,0.0,0.0,0.11459,0.51566,0.34377,9.93,0.1,1.35,3.0
1758076279.24307,1758076279.12097,0.0,0.0,0.0,0.0573,0.80214,0.17189,9.92,0.07,1.35,3.0
1758076279.24422,1758076279.13097,0.0,0.0,0.0,-0.0573,0.97403,0.11459,9.9,0.05,1.37,3.0
1758076279.25906,1758076279.14097,0.0,0.0,0.0,-0.0573,1.03132,0.0573,9.9,0.05,1.37,3.0
1758076279.26238,1758076279.15097,0.0,0.0,0.0,-0.0573,1.20321,0.11459,9.92,0.05,1.38,3.0
1758076279.2779,1758076279.16097,0.0,0.0,0.0,-0.17189,1.3751,0.0,9.92,0.05,1.38,3.0
1758076279.28131,1758076279.17097,0.0,0.0,0.0,-0.34377,1.60428,-0.0573,9.92,0.04,1.38,3.0
1758076279.34484,1758076279.18097,0.0,0.0,0.0,-0.45837,1.60428,0.0,9.92,0.04,1.38,3.0
1758076279.34733,1758076279.19097,0.0,0.0,0.0,-0.51566,1.3178,0.17189,9.93,0.05,1.37,3.0
1758076279.34909,1758076279.20097,0.0,0.0,0.0,-0.97403,1.08862,0.57296,9.93,0.05,1.37,3.0
1758076279.34979,1758076279.21097,0.0,0.0,0.0,-1.14592,0.80214,0.97403,9.94,0.02,1.39,3.0
1758076279.35283,1758076279.22097,0.0,0.0,0.0,-1.43239,0.80214,1.14592,9.98,0.0,1.36,3.0
1758076279.35324,1758076279.23097,0.0,0.0,0.0,-1.71887,0.74485,1.43239,9.98,0.0,1.36,3.0
1758076279.35648,1758076279.24097,0.0,0.0,0.0,-2.29183,1.14592,1.3751,10.01,-0.02,1.39,3.0
1758076279.3718,1758076279.25097,0.0,0.0,0.0,-2.7502,1.66158,1.03132,10.01,-0.02,1.39,3.0
1758076279.3786,1758076279.26097,0.0,0.0,0.0,-3.09397,1.83346,0.74485,10.05,-0.01,1.45,3.0
1758076279.37918,1758076279.27097,0.0,0.0,0.0,-3.55234,1.94806,0.22918,10.05,-0.01,1.45,3.0
1758076279.39617,1758076279.28097,0.0,0.0,0.0,-4.18259,1.48969,-0.97403,9.96,-0.02,1.52,3.0
1758076279.41384,1758076279.29097,0.0,0.0,0.0,-4.52637,1.20321,-1.94806,9.87,-0.06,1.54,3.0
1758076279.42041,1758076279.30097,0.0,0.0,0.0,-4.92744,0.45837,-2.6929,9.87,-0.06,1.54,3.0
1758076279.43744,1758076279.31097,0.0,0.0,0.0,-5.21392,0.0573,-3.72423,9.78,-0.13,1.5,3.0
1758076279.4386,1758076279.32097,0.0,0.0,0.0,-5.50039,-0.51566,-4.98473,9.78,-0.13,1.5,3.0
1758076279.43977,1758076279.33097,0.0,0.0,0.0,-5.61499,-1.3178,-5.72958,9.74,-0.19,1.53,3.0
1758076279.45615,1758076279.34097,0.0,0.0,0.0,-5.84417,-2.86479,-6.35983,9.74,-0.19,1.53,3.0
1758076279.47191,1758076279.35097,0.0,0.0,0.0,-5.55769,-5.27121,-6.47442,9.6,-0.24,1.56,3.0
1758076279.47307,1758076279.36097,0.0,0.0,0.0,-5.55769,-10.08406,-7.04738,9.4,-0.31,1.43,3.0
1758076279.48817,1758076279.37097,0.0,0.0,0.0,-5.15662,-14.61043,-7.16197,9.4,-0.31,1.43,3.0
1758076279.48985,1758076279.38097,0.0,0.0,0.0,-4.0107,-17.36062,-7.39116,9.28,-0.44,1.31,3.0
1758076279.50555,1758076279.39097,0.0,0.0,0.0,-2.92208,-16.84496,-8.0787,9.28,-0.44,1.31,3.0
1758076279.52125,1758076279.40097,0.0,0.0,0.0,-1.48969,-11.45916,-8.93814,9.91,-0.54,1.1,3.0
1758076279.5221,1758076279.41097,0.0,0.0,0.0,-0.85944,-8.02141,-10.08406,9.91,-0.54,1.1,3.0
1758076279.53698,1758076279.42097,0.0,0.0,0.0,-0.34377,-5.61499,-11.28727,10.13,-0.47,1.24,3.0
1758076279.55321,1758076279.43097,0.0,0.0,0.0,0.57296,-3.26586,-13.34992,10.13,-0.47,1.24,3.0
1758076279.55412,1758076279.44097,0.0,0.0,0.0,1.48969,-0.68755,-14.72501,10.11,-0.25,1.22,3.0
1758076279.57588,1758076279.45097,0.0,0.0,0.0,2.6929,2.34913,-16.04282,10.56,-0.05,1.29,3.0
1758076279.59588,1758076279.46097,0.0,0.0,0.0,4.29718,5.09932,-17.18874,10.56,-0.05,1.29,3.0
1758076279.59644,1758076279.47097,0.0,0.0,0.0,7.16197,7.84952,-18.50654,10.87,0.0,1.64,3.0
1758076279.59764,1758076279.48097,0.0,0.0,0.0,9.39651,8.47978,-19.07949,10.87,0.0,1.64,3.0
1758076279.61292,1758076279.49097,0.0,0.0,0.0,12.08941,8.0787,-19.13679,10.77,-0.05,1.89,3.0
1758076279.6141,1758076279.50097,0.0,0.0,0.0,14.72501,6.87549,-18.62113,10.77,-0.05,1.89,3.0
1758076279.62895,1758076279.51097,0.0,0.0,0.0,19.07949,5.84417,-16.3293,10.45,-0.22,2.07,3.0
1758076279.6325,1758076279.52097,0.0,0.0,0.0,22.11617,6.70361,-14.09476,10.28,-0.43,1.98,3.0
1758076279.64791,1758076279.53097,0.0,0.0,0.0,25.43933,8.30789,-11.57375,10.28,-0.43,1.98,3.0
1758076279.64916,1758076279.54097,0.0,0.0,0.0,28.13223,11.00079,-8.76626,9.82,-0.41,1.64,3.0
1758076279.67169,1758076279.55097,0.0,0.0,0.0,31.51268,14.83961,-3.60963,9.82,-0.41,1.64,3.0
1758076279.69826,1758076279.56097,0.0,0.0,0.0,33.00237,17.13144,-0.0573,8.85,0.05,1.18,3.0
1758076279.69885,1758076279.57097,0.0,0.0,0.0,33.00237,20.62648,3.32316,8.85,0.05,1.18,3.0
1758076279.7001,1758076279.58097,0.0,0.0,0.0,31.91375,25.7831,6.47442,8.64,0.85,0.8,3.0
1758076279.70072,1758076279.59097,0.0,0.0,0.0,27.84575,31.45539,10.19865,9.57,1.62,0.91,3.0
1758076279.76308,1758076279.60097,0.0,0.0,0.0,24.00693,31.16891,11.34457,9.57,1.62,0.91,3.0
1758076279.76518,1758076279.61097,0.0,0.0,0.0,20.11082,28.07493,11.63104,10.43,2.23,0.79,3.0
1758076279.76712,1758076279.62097,0.0,0.0,0.0,14.32395,21.42862,8.88085,10.43,2.23,0.79,3.0
1758076279.76846,1758076279.63097,0.0,0.0,0.0,9.85487,19.53786,4.46907,11.17,2.68,0.46,3.0
1758076279.76998,1758076279.64097,0.0,0.0,0.0,6.35983,20.62648,-0.40107,11.17,2.68,0.46,3.0
1758076279.7719,1758076279.65097,0.0,0.0,0.0,2.7502,21.7151,-5.55769,11.3,2.61,0.4,3.0
1758076279.77248,1758076279.66097,0.0,0.0,0.0,-0.22918,32.37212,-11.80293,11.3,2.61,0.4,3.0
1758076279.78798,1758076279.67097,0.0,0.0,0.0,-0.74485,39.70598,-13.5791,10.93,2.11,0.77,3.0
1758076279.79077,1758076279.68097,0.0,0.0,0.0,-1.3751,40.62271,-14.83961,10.25,1.31,1.13,3.0
1758076279.80799,1758076279.69097,0.0,0.0,0.0,-1.60428,36.55471,-14.78231,10.25,1.31,1.13,3.0
1758076279.80922,1758076279.70097,0.0,0.0,0.0,-1.3178,31.39809,-14.20935,9.66,0.74,1.33,3.0
1758076279.82678,1758076279.71097,0.0,0.0,0.0,-0.45837,27.2155,-13.5218,9.66,0.74,1.33,3.0
1758076279.84323,1758076279.72097,0.0,0.0,0.0,0.51566,20.85567,-12.60507,9.58,0.5,1.17,3.0
1758076279.84414,1758076279.73097,0.0,0.0,0.0,2.29183,12.77696,-10.54242,9.58,0.5,1.17,3.0
1758076279.86013,1758076279.74097,0.0,0.0,0.0,5.32851,4.1253,-6.99009,8.91,0.49,1.36,3.0
1758076279.86264,1758076279.75097,0.0,0.0,0.0,6.70361,0.57296,-4.69825,9.08,0.56,1.3,3.0
1758076279.87901,1758076279.76097,0.0,0.0,0.0,8.02141,-0.97403,-3.09397,9.08,0.56,1.3,3.0
1758076279.88036,1758076279.77097,0.0,0.0,0.0,8.59437,-1.43239,-2.40642,9.52,0.87,1.6,3.0
1758076279.92161,1758076279.78097,0.0,0.0,0.0,8.36518,4.35448,-2.63561,9.52,0.87,1.6,3.0
1758076279.92416,1758076279.79097,0.0,0.0,0.0,8.36518,11.86023,-3.55234,10.26,1.38,1.76,3.0
1758076279.92715,1758076279.80097,0.0,0.0,0.0,8.02141,19.99623,-4.87014,10.26,1.38,1.76,3.0
1758076279.93239,1758076279.81097,0.0,0.0,0.0,6.58902,21.48592,-7.21927,10.19,1.63,1.87,3.0
1758076279.93293,1758076279.82097,0.0,0.0,0.0,6.47442,13.5791,-8.36518,8.92,1.58,1.74,3.0
1758076279.95003,1758076279.83097,0.0,0.0,0.0,6.58902,4.46907,-8.99544,8.92,1.58,1.74,3.0
1758076279.95618,1758076279.84097,0.0,0.0,0.0,6.53172,-1.14592,-9.22462,8.9,1.27,1.58,3.0
1758076279.97193,1758076279.85097,0.0,0.0,0.0,6.24524,2.11994,-8.88085,8.9,1.27,1.58,3.0
1758076279.97305,1758076279.86097,0.0,0.0,0.0,6.07335,6.53172,-8.25059,10.1,1.05,1.26,3.0
1758076279.98839,1758076279.87097,0.0,0.0,0.0,6.18794,10.54242,-6.58902,10.1,1.05,1.26,3.0
1758076279.98931,1758076279.88097,0.0,0.0,0.0,6.41713,13.5791,-5.21392,10.17,1.01,1.42,3.0
1758076280.00716,1758076279.89097,0.0,0.0,0.0,6.99009,14.61043,-2.57831,10.17,1.01,1.25,3.0
1758076280.02335,1758076279.90097,0.0,0.0,0.0,7.39116,14.43854,-0.80214,9.65,1.05,1.25,3.0
1758076280.02435,1758076279.91097,0.0,0.0,0.0,7.62034,14.09476,0.68755,9.42,1.08,1.11,3.0
1758076280.03941,1758076279.92097,0.0,0.0,0.0,7.44845,13.00614,2.00535,9.42,1.08,1.11,3.0
1758076280.04072,1758076279.93097,0.0,0.0,0.0,6.8182,10.02676,3.55234,9.49,1.15,1.08,3.0
1758076280.05539,1758076279.94097,0.0,0.0,0.0,5.61499,7.96411,4.1253,9.49,1.15,1.08,3.0
1758076280.0719,1758076279.95097,0.0,0.0,0.0,3.89611,5.55769,4.29718,9.6,1.23,1.13,3.0
1758076280.07308,1758076279.96097,0.0,0.0,0.0,1.94806,3.55234,4.1253,9.6,1.23,1.13,3.0
1758076280.08833,1758076279.97097,0.0,0.0,0.0,-1.08862,2.57831,3.09397,9.64,1.59,0.98,3.0
1758076280.08932,1758076279.98097,0.0,0.0,0.0,-2.7502,3.83882,1.94806,10.0,2.02,1.16,3.0
1758076280.10739,1758076279.99097,0.0,0.0,0.0,-4.0107,4.81285,0.97403,10.0,2.02,1.16,3.0
1758076280.12345,1758076280.00097,0.0,0.0,0.0,-5.15662,6.13065,0.34377,10.14,2.1,1.35,3.0
1758076280.12432,1758076280.01097,0.0,0.0,0.0,-6.35983,8.02141,0.40107,10.14,2.1,1.35,3.0
1758076280.13942,1758076280.02097,0.0,0.0,0.0,-6.87549,9.05273,0.74485,10.28,1.86,1.36,3.0
1758076280.1406,1758076280.03097,0.0,0.0,0.0,-7.44845,10.25595,1.14592,10.28,1.86,1.36,3.0
1758076280.15514,1758076280.04097,0.0,0.0,0.0,-7.96411,11.97482,1.94806,10.45,1.57,1.29,3.0
1758076280.17195,1758076280.05097,0.0,0.0,0.0,-8.136,13.17803,2.40642,10.58,1.44,1.38,3.0
1758076280.17309,1758076280.06097,0.0,0.0,0.0,-8.70896,11.57375,2.92208,10.58,1.44,1.38,3.0
1758076280.1881,1758076280.07097,0.0,0.0,0.0,-9.74028,8.70896,2.92208,10.44,1.5,1.65,3.0
1758076280.18925,1758076280.08097,0.0,0.0,0.0,-11.45916,12.204,1.08862,10.44,1.5,1.65,3.0
1758076280.20542,1758076280.09097,0.0,0.0,0.0,-11.97482,21.37133,-0.57296,11.89,1.61,2.24,3.0
1758076280.22195,1758076280.10097,0.0,0.0,0.0,-12.60507,28.41871,-2.7502,11.89,1.61,2.24,3.0
1758076280.22343,1758076280.11097,0.0,0.0,0.0,-13.34992,30.99702,-4.52637,13.1,1.77,3.33,3.0
1758076280.23847,1758076280.12097,0.0,0.0,0.0,-14.15206,30.93972,-5.50039,13.15,1.77,4.18,3.0
1758076280.24016,1758076280.13097,0.0,0.0,0.0,-14.43854,29.73651,-5.15662,13.15,1.73,4.18,3.0
1758076280.25715,1758076280.14097,0.0,0.0,0.0,-14.61043,28.41871,-4.1253,13.29,1.69,4.57,3.0
1758076280.27342,1758076280.15097,0.0,0.0,0.0,-14.83961,26.47065,-2.34913,13.29,1.69,4.57,3.0
1758076280.27436,1758076280.16097,0.0,0.0,0.0,-15.24068,22.28806,0.68755,13.24,1.93,4.42,3.0
1758076280.28919,1758076280.17097,0.0,0.0,0.0,-15.46986,19.36597,2.29183,13.24,1.93,4.42,3.0
1758076280.29037,1758076280.18097,0.0,0.0,0.0,-15.87093,16.38659,3.38045,13.14,2.08,4.4,3.0
1758076280.30544,1758076280.19097,0.0,0.0,0.0,-15.98552,13.5791,3.95341,13.14,2.08,4.4,3.0
1758076280.32294,1758076280.20097,0.0,0.0,0.0,-16.95955,8.99544,4.1253,12.55,1.89,4.44,3.0
1758076280.32423,1758076280.21097,0.0,0.0,0.0,-17.93358,4.69825,3.83882,11.44,1.49,4.2,3.0
1758076280.33933,1758076280.22097,0.0,0.0,0.0,-18.85031,0.45837,3.49504,11.44,1.49,4.2,3.0
1758076280.36675,1758076280.23097,0.0,0.0,0.0,-19.53786,-3.83882,3.26586,10.1,1.0,3.93,3.0
1758076280.36712,1758076280.24097,0.0,0.0,0.0,-20.3973,-10.8289,3.38045,10.1,1.0,3.93,3.0
1758076280.36877,1758076280.25097,0.0,0.0,0.0,-20.68378,-16.10011,3.89611,8.47,0.48,3.69,3.0
1758076280.37318,1758076280.26097,0.0,0.0,0.0,-20.85567,-21.31403,4.35448,8.47,0.48,3.69,3.0
1758076280.39113,1758076280.27097,0.0,0.0,0.0,-21.6578,-26.47065,5.90147,6.95,0.22,3.46,3.0
1758076280.39288,1758076280.28097,0.0,0.0,0.0,-22.00158,-25.8404,7.73493,6.34,0.34,3.36,3.0
1758076280.40823,1758076280.29097,0.0,0.0,0.0,-23.0902,-28.30412,9.22462,6.34,0.34,3.36,3.0
1758076280.40945,1758076280.30097,0.0,0.0,0.0,-24.17882,-31.85646,10.54242,5.96,0.31,3.73,3.0
1758076280.42727,1758076280.31097,0.0,0.0,0.0,-25.43933,-34.89313,11.74564,5.96,0.31,3.73,3.0
1758076280.46596,1758076280.32097,0.0,0.0,0.0,-25.61122,-35.00772,11.97482,6.87,-0.05,3.83,3.0
1758076280.46702,1758076280.33097,0.0,0.0,0.0,-25.55392,-35.12231,12.54778,6.87,-0.05,3.83,3.0
1758076280.46759,1758076280.34097,0.0,0.0,0.0,-24.63719,-34.77854,13.17803,7.66,-0.41,3.39,3.0
1758076280.46888,1758076280.35097,0.0,0.0,0.0,-22.68913,-31.45539,14.38124,8.26,-0.74,3.02,3.0
1758076280.46956,1758076280.36097,0.0,0.0,0.0,-21.02755,-27.96034,14.72501,8.26,-0.74,3.02,3.0
1758076280.48732,1758076280.37097,0.0,0.0,0.0,-19.25138,-23.54857,14.72501,8.8,-1.06,2.89,3.0
1758076280.50332,1758076280.38097,0.0,0.0,0.0,-17.36062,-19.07949,14.32395,8.8,-1.06,2.89,3.0
1758076280.50477,1758076280.39097,0.0,0.0,0.0,-14.66772,-12.77696,13.69369,8.89,-0.98,2.87,3.0
1758076280.51917,1758076280.40097,0.0,0.0,0.0,-12.83425,-9.62569,12.89155,8.89,-0.98,2.87,3.0
1758076280.52038,1758076280.41097,0.0,0.0,0.0,-10.8862,-6.7609,12.08941,8.79,-0.82,2.92,3.0
1758076280.53547,1758076280.42097,0.0,0.0,0.0,-8.99544,-4.0107,11.34457,8.79,-0.82,2.92,3.0
1758076280.55139,1758076280.43097,0.0,0.0,0.0,-5.95876,-0.22918,10.8289,8.91,-0.79,2.87,3.0
1758076280.55266,1758076280.44097,0.0,0.0,0.0,-4.46907,1.66158,10.71431,9.03,-0.78,2.85,3.0
1758076280.56733,1758076280.45097,0.0,0.0,0.0,-3.09397,3.89611,11.22997,9.03,-0.78,2.85,3.0
1758076280.58354,1758076280.46097,0.0,0.0,0.0,-1.48969,5.84417,12.14671,9.09,-0.67,2.81,3.0
1758076280.58474,1758076280.47097,0.0,0.0,0.0,-1.03132,7.84952,13.00614,9.09,-0.67,2.81,3.0
1758076280.59953,1758076280.48097,0.0,0.0,0.0,-0.74485,8.65166,13.80828,9.12,-0.47,2.8,3.0
1758076280.60072,1758076280.49097,0.0,0.0,0.0,-0.80214,8.30789,14.15206,9.12,-0.47,2.8,3.0
1758076280.61532,1758076280.50097,0.0,0.0,0.0,-1.3751,6.99009,14.43854,9.13,-0.28,2.85,3.0
1758076280.63132,1758076280.51097,0.0,0.0,0.0,-1.94806,6.07335,13.98017,9.16,-0.18,2.89,3.0
1758076280.63253,1758076280.52097,0.0,0.0,0.0,-2.40642,4.81285,13.34992,9.16,-0.18,2.89,3.0
1758076280.64737,1758076280.53097,0.0,0.0,0.0,-3.26586,3.20856,12.49048,9.1,-0.12,2.86,3.0
1758076280.66325,1758076280.54097,0.0,0.0,0.0,-4.46907,0.17189,11.22997,9.1,-0.12,2.86,3.0
1758076280.66459,1758076280.55097,0.0,0.0,0.0,-5.27121,-1.43239,10.48513,9.07,-0.12,2.89,3.0
1758076280.67933,1758076280.56097,0.0,0.0,0.0,-6.47442,-3.03668,9.62569,9.07,-0.12,2.89,3.0
1758076280.68055,1758076280.57097,0.0,0.0,0.0,-7.67763,-4.69825,8.88085,9.19,-0.08,2.79,3.0
1758076280.69546,1758076280.58097,0.0,0.0,0.0,-9.68299,-8.02141,7.50575,9.15,-0.02,2.72,3.0
1758076280.71318,1758076280.59097,0.0,0.0,0.0,-11.11538,-10.71431,6.7609,9.15,-0.02,2.72,3.0
1758076280.71411,1758076280.60097,0.0,0.0,0.0,-12.204,-13.17803,6.13065,9.1,-0.02,2.6,3.0
1758076280.73271,1758076280.61097,0.0,0.0,0.0,-13.12073,-15.46986,5.72958,9.1,-0.02,2.6,3.0
1758076280.73548,1758076280.62097,0.0,0.0,0.0,-14.15206,-18.22006,5.61499,9.18,-0.11,2.48,3.0
1758076280.7505,1758076280.63097,0.0,0.0,0.0,-14.66772,-19.53786,5.61499,9.18,-0.11,2.48,3.0
1758076280.75305,1758076280.64097,0.0,0.0,0.0,-15.24068,-20.45459,5.90147,9.27,-0.27,2.33,3.0
1758076280.76858,1758076280.65097,0.0,0.0,0.0,-15.87093,-21.25674,6.13065,9.27,-0.27,2.33,3.0
1758076280.77063,1758076280.66097,0.0,0.0,0.0,-16.73037,-21.42862,6.58902,9.26,-0.39,2.18,3.0
1758076280.78635,1758076280.67097,0.0,0.0,0.0,-17.18874,-20.79837,6.70361,9.26,-0.43,2.1,3.0
1758076280.80222,1758076280.68097,0.0,0.0,0.0,-17.53251,-19.82434,6.70361,9.26,-0.43,2.1,3.0
1758076280.80346,1758076280.69097,0.0,0.0,0.0,-17.6471,-18.73572,7.21927,9.3,-0.5,2.05,3.0
1758076280.81838,1758076280.70097,0.0,0.0,0.0,-17.47521,-18.62113,8.02141,9.3,-0.5,2.05,3.0
1758076280.81956,1758076280.71097,0.0,0.0,0.0,-17.18874,-17.24603,8.59437,9.25,-0.64,1.87,3.0
1758076280.83561,1758076280.72097,0.0,0.0,0.0,-16.61578,-15.06879,9.11003,9.25,-0.64,1.87,3.0
1758076280.85167,1758076280.73097,0.0,0.0,0.0,-16.73037,-11.91752,8.42248,9.31,-0.75,1.75,3.0
1758076280.85339,1758076280.74097,0.0,0.0,0.0,-16.55848,-11.97482,7.67763,9.0,-0.73,1.76,3.0
1758076280.86868,1758076280.75097,0.0,0.0,0.0,-16.61578,-11.63104,6.7609,9.0,-0.73,1.76,3.0
1758076280.87232,1758076280.76097,0.0,0.0,0.0,-16.55848,-10.71431,5.4431,8.9,-0.66,1.69,3.0
1758076280.88744,1758076280.77097,0.0,0.0,0.0,-16.38659,-8.59437,3.66693,8.9,-0.66,1.69,3.0
1758076280.9038,1758076280.78097,0.0,0.0,0.0,-16.10011,-6.70361,2.7502,8.95,-0.65,1.61,3.0
1758076280.90537,1758076280.79097,0.0,0.0,0.0,-15.87093,-4.69825,2.11994,8.95,-0.65,1.61,3.0
1758076280.92433,1758076280.80097,0.0,0.0,0.0,-14.83961,-3.03668,1.77617,9.06,-0.75,1.62,3.0
1758076280.92876,1758076280.81097,0.0,0.0,0.0,-13.12073,-1.60428,1.83346,9.18,-0.96,1.62,3.0
1758076280.93369,1758076280.82097,0.0,0.0,0.0,-11.74564,0.74485,2.11994,9.18,-0.96,1.62,3.0
1758076280.95355,1758076280.83097,0.0,0.0,0.0,-10.19865,2.6929,2.7502,9.52,-1.13,1.57,3.0
1758076280.95762,1758076280.84097,0.0,0.0,0.0,-8.59437,2.86479,3.49504,9.52,-1.13,1.57,3.0
1758076280.97248,1758076280.85097,0.0,0.0,0.0,-7.04738,2.06265,3.55234,9.39,-1.14,1.48,3.0
1758076280.97361,1758076280.86097,0.0,0.0,0.0,-6.53172,2.57831,3.03668,9.39,-1.14,1.48,3.0
1758076280.98849,1758076280.87097,0.0,0.0,0.0,-6.35983,3.32316,2.34913,9.58,-0.95,1.29,3.0
1758076280.99073,1758076280.88097,0.0,0.0,0.0,-6.47442,3.95341,0.74485,9.58,-0.95,1.29,3.0
1758076281.00747,1758076280.89097,0.0,0.0,0.0,-6.7609,2.63561,-0.85944,9.55,-0.79,1.3,3.0
1758076281.02346,1758076280.90097,0.0,0.0,0.0,-7.04738,1.83346,-2.46372,9.42,-0.69,1.34,3.0
1758076281.02559,1758076280.91097,0.0,0.0,0.0,-6.99009,1.60428,-3.38045,9.42,-0.69,1.34,3.0
1758076281.04043,1758076280.92097,0.0,0.0,0.0,-6.07335,-1.3751,-2.63561,9.68,-0.77,1.44,3.0
1758076281.04163,1758076280.93097,0.0,0.0,0.0,-4.98473,-2.97938,-1.08862,9.68,-0.77,1.44,3.0
1758076281.05685,1758076280.94097,0.0,0.0,0.0,-3.60963,-2.06265,0.34377,9.91,-1.07,1.24,3.0
1758076281.07272,1758076280.95097,0.0,0.0,0.0,-1.94806,0.45837,1.94806,9.91,-1.07,1.24,3.0
1758076281.07362,1758076280.96097,0.0,0.0,0.0,0.80214,2.40642,3.72423,10.27,-1.34,1.14,3.0
1758076281.08864,1758076280.97097,0.0,0.0,0.0,2.97938,2.46372,4.64096,9.81,-1.48,1.2,3.0
1758076281.09044,1758076280.98097,0.0,0.0,0.0,5.21392,1.3751,5.50039,9.81,-1.48,1.2,3.0
1758076281.10652,1758076280.99097,0.0,0.0,0.0,7.39116,0.11459,6.13065,9.41,-1.52,1.13,3.0
1758076281.12275,1758076281.00097,0.0,0.0,0.0,10.31324,-3.83882,7.16197,9.41,-1.52,1.13,3.0
1758076281.12365,1758076281.01097,0.0,0.0,0.0,11.86023,-9.68299,7.16197,9.01,-1.47,0.93,3.0
1758076281.13881,1758076281.02097,0.0,0.0,0.0,12.89155,-15.75634,7.33386,9.01,-1.47,0.93,3.0
1758076281.13992,1758076281.03097,0.0,0.0,0.0,13.40721,-19.48057,6.13065,8.65,-1.29,0.66,3.0
1758076281.15575,1758076281.04097,0.0,0.0,0.0,16.61578,0.68755,4.69825,10.77,-1.29,0.66,3.0
1758076281.1715,1758076281.05097,0.0,0.0,0.0,19.88164,26.52795,4.35448,10.77,-1.29,0.66,3.0
1758076281.17261,1758076281.06097,0.0,0.0,0.0,21.6578,43.4875,4.29718,11.89,-1.58,1.32,3.0
1758076281.18776,1758076281.07097,0.0,0.0,0.0,25.61122,41.02378,3.32316,11.89,-1.58,1.32,3.0
1758076281.20348,1758076281.08097,0.0,0.0,0.0,26.98631,1.83346,1.83346,8.05,-1.43,2.15,3.0
1758076281.20469,1758076281.09097,0.0,0.0,0.0,28.36141,-16.3293,3.03668,8.05,-1.43,2.15,3.0
1758076281.21951,1758076281.10097,0.0,0.0,0.0,29.96569,-26.18417,6.35983,9.1,-1.91,1.03,3.0
1758076281.22068,1758076281.11097,0.0,0.0,0.0,32.08564,-25.49662,7.73493,9.1,-1.91,1.03,3.0
1758076281.2355,1758076281.12097,0.0,0.0,0.0,33.46074,-31.39809,7.39116,11.03,-2.0,0.63,3.0
1758076281.25198,1758076281.13097,0.0,0.0,0.0,34.95043,-36.32552,9.39651,10.25,-1.94,2.18,3.0
1758076281.25269,1758076281.14097,0.0,0.0,0.0,34.32018,-25.38203,9.74028,10.25,-1.94,2.18,3.0
1758076281.2676,1758076281.15097,0.0,0.0,0.0,30.30947,-3.60963,4.52637,12.26,-1.32,1.94,3.0
1758076281.28351,1758076281.16097,0.0,0.0,0.0,28.13223,0.0,0.0573,12.26,-1.32,1.94,3.0
1758076281.28473,1758076281.17097,0.0,0.0,0.0,26.24147,2.46372,-4.92744,10.83,-0.33,2.02,3.0
1758076281.29949,1758076281.18097,0.0,0.0,0.0,25.21014,6.99009,-8.88085,10.83,-0.33,2.02,3.0
1758076281.30068,1758076281.19097,0.0,0.0,0.0,25.15285,15.64175,-11.91752,11.91,0.11,2.19,3.0
1758076281.31782,1758076281.20097,0.0,0.0,0.0,25.38203,18.85031,-12.2613,12.79,-0.32,2.22,3.0
1758076281.33587,1758076281.21097,0.0,0.0,0.0,25.8404,19.42327,-11.51645,12.79,-0.32,2.22,3.0
1758076281.33595,1758076281.22097,0.0,0.0,0.0,26.75713,18.62113,-10.08406,12.48,-1.2,2.28,3.0
1758076281.35163,1758076281.23097,0.0,0.0,0.0,28.41871,20.22541,-7.33386,12.48,-1.2,2.28,3.0
1758076281.3525,1758076281.24097,0.0,0.0,0.0,29.9084,22.00158,-5.72958,12.62,-1.92,2.04,3.0
1758076281.36781,1758076281.25097,0.0,0.0,0.0,31.56997,23.0329,-4.18259,12.62,-1.92,2.04,3.0
1758076281.38358,1758076281.26097,0.0,0.0,0.0,32.71589,24.29341,-2.92208,12.58,-2.0,2.24,3.0
1758076281.38556,1758076281.27097,0.0,0.0,0.0,33.23156,26.24147,-1.20321,12.69,-1.5,2.54,3.0
1758076281.40087,1758076281.28097,0.0,0.0,0.0,32.88778,27.38738,-0.0573,12.69,-1.5,2.54,3.0
1758076281.4017,1758076281.29097,0.0,0.0,0.0,31.56997,27.1582,0.22918,12.52,-0.76,2.83,3.0
1758076281.41683,1758076281.30097,0.0,0.0,0.0,29.50733,26.75713,0.40107,12.52,-0.76,2.83,3.0
1758076281.4328,1758076281.31097,0.0,0.0,0.0,25.43933,26.41335,0.22918,12.28,-0.02,2.98,3.0
1758076281.43374,1758076281.32097,0.0,0.0,0.0,22.68913,24.98096,-0.22918,12.28,-0.02,2.98,3.0
1758076281.44871,1758076281.33097,0.0,0.0,0.0,20.11082,23.0329,-0.51566,11.89,0.48,3.09,3.0
1758076281.44974,1758076281.34097,0.0,0.0,0.0,16.84496,21.25674,-1.20321,11.89,0.48,3.09,3.0
1758076281.46584,1758076281.35097,0.0,0.0,0.0,15.58445,20.85567,-1.3751,11.41,0.54,3.03,3.0
1758076281.48161,1758076281.36097,0.0,0.0,0.0,15.12609,20.05352,-0.80214,10.71,0.15,3.05,3.0
1758076281.48288,1758076281.37097,0.0,0.0,0.0,15.41257,18.50654,0.11459,10.71,0.15,3.05,3.0
1758076281.49784,1758076281.38097,0.0,0.0,0.0,16.10011,16.10011,1.43239,9.64,-0.35,3.11,3.0
1758076281.51384,1758076281.39097,0.0,0.0,0.0,17.81899,12.14671,2.46372,9.64,-0.35,3.11,3.0
1758076281.51487,1758076281.40097,0.0,0.0,0.0,19.36597,7.79223,2.92208,8.32,-0.7,3.18,3.0
1758076281.52961,1758076281.41097,0.0,0.0,0.0,21.14215,4.29718,3.09397,8.32,-0.7,3.18,3.0
1758076281.53091,1758076281.42097,0.0,0.0,0.0,24.12152,0.40107,3.03668,7.57,-0.79,3.22,3.0
1758076281.54589,1758076281.43097,0.0,0.0,0.0,25.89769,-2.63561,3.03668,7.01,-0.56,3.21,3.0
1758076281.56269,1758076281.44097,0.0,0.0,0.0,27.50197,-6.13065,2.7502,7.01,-0.56,3.21,3.0
1758076281.56389,1758076281.45097,0.0,0.0,0.0,28.59059,-9.28192,2.57831,6.69,-0.11,3.18,3.0
1758076281.57854,1758076281.46097,0.0,0.0,0.0,29.50733,-13.75099,2.06265,6.69,-0.11,3.18,3.0
1758076281.58215,1758076281.47097,0.0,0.0,0.0,29.33544,-16.61578,1.77617,6.67,0.44,3.06,3.0
1758076281.59789,1758076281.48097,0.0,0.0,0.0,28.36141,-18.56383,1.83346,6.67,0.44,3.06,3.0
1758076281.61366,1758076281.49097,0.0,0.0,0.0,27.1582,-20.16812,2.11994,6.84,0.88,2.98,3.0
1758076281.61606,1758076281.50097,0.0,0.0,0.0,24.23611,-21.42862,2.46372,7.15,1.04,3.04,3.0
1758076281.6318,1758076281.51097,0.0,0.0,0.0,21.88699,-20.22541,2.34913,7.15,1.04,3.04,3.0
1758076281.63295,1758076281.52097,0.0,0.0,0.0,19.48057,-17.36062,2.29183,7.84,1.02,3.11,3.0
1758076281.64797,1758076281.53097,0.0,0.0,0.0,15.64175,-14.49583,1.48969,7.84,1.02,3.11,3.0
1758076281.66392,1758076281.54097,0.0,0.0,0.0,13.75099,-10.08406,0.68755,8.37,1.07,3.01,3.0
1758076281.6652,1758076281.55097,0.0,0.0,0.0,12.204,-7.67763,-0.0573,8.37,1.07,3.01,3.0
1758076281.67996,1758076281.56097,0.0,0.0,0.0,10.59972,-5.15662,-0.80214,8.76,1.12,2.89,3.0
1758076281.6817,1758076281.57097,0.0,0.0,0.0,8.47978,-0.97403,-1.83346,8.76,1.12,2.89,3.0
1758076281.69664,1758076281.58097,0.0,0.0,0.0,7.04738,1.60428,-2.6929,9.18,1.14,2.8,3.0
1758076281.71269,1758076281.59097,0.0,0.0,0.0,5.55769,3.72423,-3.09397,9.5,1.1,2.81,3.0
1758076281.71395,1758076281.60097,0.0,0.0,0.0,3.89611,6.41713,-4.0107,9.5,1.1,2.81,3.0
1758076281.72887,1758076281.61097,0.0,0.0,0.0,1.48969,8.59437,-4.92744,9.76,1.01,2.84,3.0
1758076281.72982,1758076281.62097,0.0,0.0,0.0,-0.11459,8.76626,-5.72958,9.76,1.01,2.84,3.0
1758076281.74698,1758076281.63097,0.0,0.0,0.0,-1.77617,8.36518,-6.35983,9.77,0.92,2.88,3.0
1758076281.76297,1758076281.64097,0.0,0.0,0.0,-3.20856,7.50575,-6.70361,9.77,0.92,2.88,3.0
1758076281.76389,1758076281.65097,0.0,0.0,0.0,-5.32851,4.52637,-7.39116,9.74,0.86,3.0,3.0
1758076281.77871,1758076281.66097,0.0,0.0,0.0,-6.24524,2.06265,-7.39116,9.56,0.74,3.03,3.0
1758076281.78015,1758076281.67097,0.0,0.0,0.0,-6.7609,-1.14592,-7.16197,9.56,0.74,3.03,3.0
1758076281.79599,1758076281.68097,0.0,0.0,0.0,-6.7609,-4.23989,-6.87549,9.38,0.57,3.03,3.0
1758076281.81274,1758076281.69097,0.0,0.0,0.0,-6.7609,-8.59437,-6.58902,9.38,0.57,3.03,3.0
1758076281.81368,1758076281.70097,0.0,0.0,0.0,-6.24524,-11.51645,-6.18794,9.28,0.39,3.03,3.0
1758076281.82969,1758076281.71097,0.0,0.0,0.0,-5.21392,-14.32395,-6.18794,9.28,0.39,3.03,3.0
1758076281.83175,1758076281.72097,0.0,0.0,0.0,-3.83882,-16.50119,-5.4431,9.22,0.21,2.95,3.0
1758076281.84771,1758076281.73097,0.0,0.0,0.0,-1.66158,-19.99623,-5.61499,9.25,0.02,2.9,3.0
1758076281.86402,1758076281.74097,0.0,0.0,0.0,-0.74485,-20.97026,-5.72958,9.25,0.02,2.9,3.0
1758076281.86496,1758076281.75097,0.0,0.0,0.0,-0.51566,-22.00158,-6.41713,9.21,0.02,2.6,3.0
1758076281.88002,1758076281.76097,0.0,0.0,0.0,-0.34377,-24.35071,-7.84952,9.21,0.02,2.6,3.0
1758076281.88175,1758076281.77097,0.0,0.0,0.0,-0.34377,-25.55392,-8.99544,8.86,0.18,2.34,3.0
1758076281.89677,1758076281.78097,0.0,0.0,0.0,-0.17189,-26.64254,-9.85487,8.86,0.18,2.34,3.0
1758076281.91308,1758076281.79097,0.0,0.0,0.0,0.0,-27.38738,-10.65701,8.79,0.32,2.23,3.0
1758076281.91589,1758076281.80097,0.0,0.0,0.0,0.45837,-26.87172,-11.45916,8.79,0.32,2.09,3.0
1758076281.93183,1758076281.81097,0.0,0.0,0.0,1.20321,-26.06958,-11.57375,8.96,0.39,2.09,3.0
1758076281.93358,1758076281.82097,0.0,0.0,0.0,2.00535,-24.86637,-11.57375,9.18,0.3,2.03,3.0
1758076281.94905,1758076281.83097,0.0,0.0,0.0,2.92208,-22.91831,-11.22997,9.18,0.3,2.03,3.0
1758076281.95234,1758076281.84097,0.0,0.0,0.0,4.0107,-18.73572,-10.59972,9.4,0.24,1.94,3.0
1758076281.96775,1758076281.85097,0.0,0.0,0.0,4.69825,-15.75634,-9.91217,9.4,0.24,1.94,3.0
1758076281.98385,1758076281.86097,0.0,0.0,0.0,5.15662,-13.06344,-9.5684,9.44,0.28,1.93,3.0
1758076281.98578,1758076281.87097,0.0,0.0,0.0,5.55769,-10.48513,-8.99544,9.44,0.28,1.93,3.0
1758076282.00259,1758076281.88097,0.0,0.0,0.0,5.72958,-6.24524,-8.76626,9.35,0.35,1.85,3.0
1758076282.00355,1758076281.89097,0.0,0.0,0.0,5.78687,-3.83882,-8.59437,9.37,0.46,1.83,3.0
1758076282.01902,1758076281.90097,0.0,0.0,0.0,5.78687,-1.3178,-8.47978,9.37,0.46,1.83,3.0
1758076282.02165,1758076281.91097,0.0,0.0,0.0,5.78687,1.08862,-8.02141,9.4,0.51,1.88,3.0
1758076282.0378,1758076281.92097,0.0,0.0,0.0,5.55769,4.58366,-7.39116,9.4,0.51,1.88,3.0
1758076282.05405,1758076281.93097,0.0,0.0,0.0,5.27121,6.99009,-6.99009,9.35,0.54,1.84,3.0
1758076282.05588,1758076281.94097,0.0,0.0,0.0,5.27121,8.93814,-6.53172,9.35,0.54,1.84,3.0
1758076282.07107,1758076281.95097,0.0,0.0,0.0,4.98473,11.11538,-5.78687,9.21,0.6,1.8,3.0
1758076282.07224,1758076281.96097,0.0,0.0,0.0,4.23989,12.14671,-6.47442,9.13,0.71,1.91,3.0
1758076282.08683,1758076281.97097,0.0,0.0,0.0,3.55234,7.21927,-7.21927,9.13,0.71,1.91,3.0
1758076282.10302,1758076281.98097,0.0,0.0,0.0,2.57831,0.40107,-8.02141,8.59,0.87,1.77,3.0
1758076282.10634,1758076281.99097,0.0,0.0,0.0,-0.68755,-1.3751,-11.57375,8.59,0.87,1.77,3.0
1758076282.12197,1758076282.00097,0.0,0.0,0.0,-2.86479,0.0,-13.17803,9.16,1.12,1.69,3.0
1758076282.12303,1758076282.01097,0.0,0.0,0.0,-5.09932,2.11994,-15.35527,9.16,1.12,1.69,3.0
1758076282.13787,1758076282.02097,0.0,0.0,0.0,-7.16197,3.60963,-16.67307,9.39,1.23,1.47,3.0
1758076282.15382,1758076282.03097,0.0,0.0,0.0,-10.25595,4.87014,-18.56383,9.27,1.23,1.49,3.0
1758076282.15703,1758076282.04097,0.0,0.0,0.0,-11.80293,5.72958,-19.48057,9.27,1.26,1.49,3.0
1758076282.17209,1758076282.05097,0.0,0.0,0.0,-13.40721,6.99009,-19.99623,9.34,1.23,1.3,3.0
1758076282.17303,1758076282.06097,0.0,0.0,0.0,-14.72501,7.50575,-19.76705,9.34,1.23,1.3,3.0
1758076282.18816,1758076282.07097,0.0,0.0,0.0,-16.3293,4.98473,-18.56383,9.34,1.19,1.23,3.0
1758076282.20393,1758076282.08097,0.0,0.0,0.0,-17.01685,1.94806,-16.3293,9.34,1.19,1.23,3.0
1758076282.20505,1758076282.09097,0.0,0.0,0.0,-17.13144,0.11459,-13.00614,9.21,0.99,1.09,3.0
1758076282.22005,1758076282.10097,0.0,0.0,0.0,-16.21471,-0.0573,-8.93814,9.21,0.99,1.09,3.0
1758076282.22265,1758076282.11097,0.0,0.0,0.0,-13.80828,1.08862,-2.63561,9.62,0.63,1.02,3.0
1758076282.23807,1758076282.12097,0.0,0.0,0.0,-9.39651,2.34913,2.46372,10.0,-0.01,1.35,3.0
1758076282.25392,1758076282.13097,0.0,0.0,0.0,-3.95341,2.86479,8.42248,10.0,-0.01,1.35,3.0
1758076282.25538,1758076282.14097,0.0,0.0,0.0,-3.60963,14.61043,5.50039,11.28,0.22,1.37,3.0
1758076282.26993,1758076282.15097,0.0,0.0,0.0,-7.39116,27.04361,0.80214,11.28,0.22,1.37,3.0
1758076282.27182,1758076282.16097,0.0,0.0,0.0,-10.59972,28.13223,-5.27121,11.97,1.33,1.43,3.0
1758076282.28694,1758076282.17097,0.0,0.0,0.0,-12.204,21.02755,-9.85487,11.97,1.33,1.43,3.0
1758076282.30317,1758076282.18097,0.0,0.0,0.0,-11.86023,13.98017,-11.80293,9.79,1.65,1.95,3.0
1758076282.30408,1758076282.19097,0.0,0.0,0.0,-11.80293,11.80293,-10.59972,9.74,1.05,1.4,3.0
1758076282.31893,1758076282.20097,0.0,0.0,0.0,-11.91752,9.68299,-9.22462,9.74,1.05,1.4,3.0
1758076282.32011,1758076282.21097,0.0,0.0,0.0,-12.14671,11.74564,-8.30789,10.15,0.94,1.47,3.0
1758076282.33698,1758076282.22097,0.0,0.0,0.0,-11.00079,18.9649,-6.87549,10.15,0.94,1.47,3.0
1758076282.35294,1758076282.23097,0.0,0.0,0.0,-10.37054,21.37133,-6.13065,11.21,1.05,2.54,3.0
1758076282.3541,1758076282.24097,0.0,0.0,0.0,-9.96947,22.05888,-5.4431,11.21,1.05,2.54,3.0
1758076282.36917,1758076282.25097,0.0,0.0,0.0,-9.5684,22.51724,-5.15662,11.25,0.73,2.57,3.0
1758076282.37121,1758076282.26097,0.0,0.0,0.0,-8.65166,23.83505,-5.55769,11.6,0.43,2.68,3.0
1758076282.3872,1758076282.27097,0.0,0.0,0.0,-8.0787,25.89769,-5.61499,11.6,0.43,2.68,3.0
1758076282.40284,1758076282.28097,0.0,0.0,0.0,-7.50575,27.84575,-5.50039,11.88,0.49,2.75,3.0
1758076282.40641,1758076282.29097,0.0,0.0,0.0,-7.67763,28.59059,-5.32851,11.88,0.49,2.75,3.0
1758076282.42194,1758076282.30097,0.0,0.0,0.0,-8.70896,28.87707,-4.98473,11.84,1.04,2.97,3.0
1758076282.42313,1758076282.31097,0.0,0.0,0.0,-9.74028,28.76248,-5.15662,11.84,1.04,2.97,3.0
1758076282.43793,1758076282.32097,0.0,0.0,0.0,-11.34457,28.07493,-4.92744,11.99,1.74,3.25,3.0
1758076282.4539,1758076282.33097,0.0,0.0,0.0,-13.40721,27.73116,-5.15662,11.99,1.74,3.25,3.0
1758076282.45513,1758076282.34097,0.0,0.0,0.0,-15.98552,27.10091,-4.81285,12.2,2.19,3.5,3.0
1758076282.46996,1758076282.35097,0.0,0.0,0.0,-17.76169,26.87172,-4.52637,12.27,2.19,3.59,3.0
1758076282.47111,1758076282.36097,0.0,0.0,0.0,-18.85031,26.47065,-4.23989,12.27,2.19,3.59,3.0
1758076282.48592,1758076282.37097,0.0,0.0,0.0,-19.88164,25.89769,-4.0107,11.99,1.78,3.68,3.0
1758076282.50195,1758076282.38097,0.0,0.0,0.0,-20.05352,24.98096,-4.0107,11.99,1.78,3.68,3.0
1758076282.50316,1758076282.39097,0.0,0.0,0.0,-19.88164,24.35071,-3.72423,11.72,1.22,3.84,3.0
1758076282.51795,1758076282.40097,0.0,0.0,0.0,-19.48057,23.0329,-3.49504,11.72,1.22,3.84,3.0
1758076282.53394,1758076282.41097,0.0,0.0,0.0,-18.33465,19.25138,-2.46372,11.31,0.64,4.0,3.0
1758076282.53519,1758076282.42097,0.0,0.0,0.0,-17.47521,16.272,-1.77617,10.8,0.31,3.97,3.0
1758076282.54996,1758076282.43097,0.0,0.0,0.0,-16.95955,12.71966,-0.85944,10.8,0.31,3.97,3.0
1758076282.55141,1758076282.44097,0.0,0.0,0.0,-16.84496,8.42248,-0.17189,10.22,0.33,3.79,3.0
1758076282.56597,1758076282.45097,0.0,0.0,0.0,-17.18874,2.23454,0.80214,10.22,0.33,3.79,3.0
1758076282.58198,1758076282.46097,0.0,0.0,0.0,-17.58981,-2.57831,1.20321,9.46,0.5,3.63,3.0
1758076282.58316,1758076282.47097,0.0,0.0,0.0,-18.27736,-7.96411,1.3178,9.46,0.5,3.63,3.0
1758076282.59796,1758076282.48097,0.0,0.0,0.0,-18.9649,-13.86558,1.43239,8.29,0.62,3.65,3.0
1758076282.61424,1758076282.49097,0.0,0.0,0.0,-20.05352,-22.28806,1.43239,7.33,0.65,3.72,3.0
1758076282.6152,1758076282.50097,0.0,0.0,0.0,-20.68378,-27.10091,1.83346,7.33,0.65,3.72,3.0
1758076282.63048,1758076282.51097,0.0,0.0,0.0,-21.60051,-30.65324,2.23454,7.01,0.59,3.78,3.0
1758076282.63227,1758076282.52097,0.0,0.0,0.0,-22.40265,-33.00237,2.7502,7.01,0.59,3.78,3.0
1758076282.64725,1758076282.53097,0.0,0.0,0.0,-23.60586,-34.77854,4.81285,7.19,0.36,3.83,3.0
1758076282.66291,1758076282.54097,0.0,0.0,0.0,-23.89234,-35.06502,6.70361,7.19,0.36,3.83,3.0
1758076282.6649,1758076282.55097,0.0,0.0,0.0,-23.89234,-35.52338,7.62034,7.46,0.05,3.65,3.0
1758076282.67994,1758076282.56097,0.0,0.0,0.0,-23.26209,-35.00772,8.02141,7.46,0.05,3.65,3.0
1758076282.68111,1758076282.57097,0.0,0.0,0.0,-21.42862,-32.88778,7.79223,8.07,-0.45,3.51,3.0
1758076282.69723,1758076282.58097,0.0,0.0,0.0,-19.82434,-30.59595,7.84952,8.46,-0.7,3.12,3.0
1758076282.71326,1758076282.59097,0.0,0.0,0.0,-17.81899,-27.84575,7.84952,8.46,-0.7,3.12,3.0
1758076282.71445,1758076282.60097,0.0,0.0,0.0,-13.5791,-23.31938,6.70361,8.66,-0.91,2.84,3.0
1758076282.72925,1758076282.61097,0.0,0.0,0.0,-10.59972,-18.16276,5.78687,8.66,-0.91,2.84,3.0
1758076282.73021,1758076282.62097,0.0,0.0,0.0,-7.79223,-13.69369,5.95876,8.94,-1.11,2.63,3.0
1758076282.74727,1758076282.63097,0.0,0.0,0.0,-5.09932,-10.8862,6.24524,8.94,-1.11,2.63,3.0
1758076282.76324,1758076282.64097,0.0,0.0,0.0,-1.03132,-5.95876,7.16197,8.55,-1.0,2.58,3.0
1758076282.76462,1758076282.65097,0.0,0.0,0.0,1.43239,-2.92208,8.0787,8.89,-1.0,2.6,3.0
1758076282.77907,1758076282.66097,0.0,0.0,0.0,3.66693,-0.11459,9.4538,8.89,-1.0,2.6,3.0
1758076282.78054,1758076282.67097,0.0,0.0,0.0,5.32851,2.29183,10.8289,9.02,-0.96,2.6,3.0
1758076282.79633,1758076282.68097,0.0,0.0,0.0,7.67763,6.47442,12.49048,9.02,-0.96,2.6,3.0
1758076282.8121,1758076282.69097,0.0,0.0,0.0,8.59437,8.136,13.69369,9.14,-0.8,2.67,3.0
1758076282.81327,1758076282.70097,0.0,0.0,0.0,9.4538,9.4538,14.66772,9.14,-0.8,2.67,3.0
1758076282.82806,1758076282.71097,0.0,0.0,0.0,10.02676,9.91217,15.12609,9.02,-0.6,2.74,3.0
1758076282.84411,1758076282.72097,0.0,0.0,0.0,11.11538,10.48513,15.69904,8.98,-0.45,2.8,3.0
1758076282.84527,1758076282.73097,0.0,0.0,0.0,11.86023,10.25595,15.58445,8.98,-0.45,2.8,3.0
1758076282.86034,1758076282.74097,0.0,0.0,0.0,12.43318,10.25595,15.35527,8.96,-0.37,2.8,3.0
1758076282.8629,1758076282.75097,0.0,0.0,0.0,12.89155,9.74028,15.0115,8.96,-0.37,2.8,3.0
1758076282.8781,1758076282.76097,0.0,0.0,0.0,13.12073,8.136,13.98017,8.9,-0.31,2.81,3.0
1758076282.89406,1758076282.77097,0.0,0.0,0.0,12.60507,6.7609,13.06344,8.9,-0.31,2.81,3.0
1758076282.89531,1758076282.78097,0.0,0.0,0.0,12.2613,5.21392,12.37589,8.86,-0.2,2.93,3.0
1758076282.91023,1758076282.79097,0.0,0.0,0.0,10.94349,3.20856,11.45916,8.86,-0.2,2.93,3.0
1758076282.91209,1758076282.80097,0.0,0.0,0.0,9.85487,-1.03132,11.00079,8.79,-0.03,3.01,3.0
1758076282.92717,1758076282.81097,0.0,0.0,0.0,8.70896,-4.58366,10.94349,8.67,0.11,2.98,3.0
1758076282.943,1758076282.82097,0.0,0.0,0.0,7.39116,-8.42248,10.8862,8.67,0.11,2.98,3.0
1758076282.94421,1758076282.83097,0.0,0.0,0.0,5.72958,-14.66772,10.71431,8.64,0.13,2.88,3.0
1758076282.95925,1758076282.84097,0.0,0.0,0.0,4.87014,-17.81899,10.8862,8.64,0.13,2.88,3.0
1758076282.96041,1758076282.85097,0.0,0.0,0.0,4.46907,-20.74107,10.65701,8.72,-0.05,2.73,3.0
1758076282.97705,1758076282.86097,0.0,0.0,0.0,4.18259,-24.12152,10.54242,8.72,-0.05,2.73,3.0
1758076282.99335,1758076282.87097,0.0,0.0,0.0,3.72423,-27.50197,10.02676,8.7,-0.28,2.51,3.0
1758076282.99454,1758076282.88097,0.0,0.0,0.0,3.38045,-29.27814,9.62569,8.86,-0.4,2.36,3.0
1758076283.00934,1758076282.89097,0.0,0.0,0.0,2.97938,-31.85646,9.05273,8.86,-0.4,2.36,3.0
1758076283.01028,1758076282.90097,0.0,0.0,0.0,2.97938,-33.11696,8.99544,8.92,-0.41,2.31,3.0
1758076283.02636,1758076282.91097,0.0,0.0,0.0,3.55234,-29.33544,8.70896,8.92,-0.41,2.31,3.0
1758076283.04212,1758076282.92097,0.0,0.0,0.0,3.66693,-25.72581,8.65166,9.33,-0.48,2.14,3.0
1758076283.04335,1758076282.93097,0.0,0.0,0.0,3.83882,-22.63183,8.47978,9.33,-0.48,2.14,3.0
1758076283.05809,1758076282.94097,0.0,0.0,0.0,4.18259,-19.82434,8.42248,9.15,-0.53,2.06,3.0
1758076283.06013,1758076282.95097,0.0,0.0,0.0,5.09932,-16.272,7.96411,9.03,-0.59,1.94,3.0
1758076283.07714,1758076282.96097,0.0,0.0,0.0,5.72958,-14.09476,7.39116,9.03,-0.59,1.94,3.0
1758076283.09336,1758076282.97097,0.0,0.0,0.0,6.47442,-11.86023,6.53172,9.09,-0.63,1.86,3.0
1758076283.09428,1758076282.98097,0.0,0.0,0.0,7.04738,-9.5684,5.55769,9.09,-0.63,1.86,3.0
1758076283.10943,1758076282.99097,0.0,0.0,0.0,8.0787,-5.72958,3.66693,9.25,-0.6,1.76,3.0
1758076283.11039,1758076283.00097,0.0,0.0,0.0,8.70896,-2.57831,2.29183,9.25,-0.6,1.76,3.0
1758076283.12707,1758076283.01097,0.0,0.0,0.0,9.39651,0.68755,0.80214,9.42,-0.57,1.78,3.0
1758076283.14343,1758076283.02097,0.0,0.0,0.0,10.71431,5.84417,-1.3178,9.42,-0.57,1.78,3.0
1758076283.14438,1758076283.03097,0.0,0.0,0.0,11.63104,10.08406,-2.34913,9.49,-0.61,1.82,3.0
1758076283.15942,1758076283.04097,0.0,0.0,0.0,12.77696,13.75099,-3.03668,9.51,-0.73,1.75,3.0
1758076283.16197,1758076283.05097,0.0,0.0,0.0,13.5791,16.73037,-3.95341,9.51,-0.73,1.75,3.0
1758076283.17819,1758076283.06097,0.0,0.0,0.0,15.75634,21.7151,-4.18259,9.4,-0.86,1.77,3.0
1758076283.1942,1758076283.07097,0.0,0.0,0.0,17.36062,24.80907,-4.18259,9.4,-0.86,1.77,3.0
1758076283.1961,1758076283.08097,0.0,0.0,0.0,19.36597,26.75713,-3.72423,9.32,-0.95,1.95,3.0
1758076283.21223,1758076283.09097,0.0,0.0,0.0,21.08485,25.61122,-3.83882,9.32,-0.95,1.95,3.0
1758076283.2132,1758076283.10097,0.0,0.0,0.0,24.17882,22.97561,-4.35448,8.94,-1.03,2.06,3.0
1758076283.23163,1758076283.11097,0.0,0.0,0.0,26.64254,19.88164,-5.27121,8.99,-1.1,2.15,3.0
1758076283.23847,1758076283.12097,0.0,0.0,0.0,29.33544,14.38124,-6.18794,8.99,-1.1,2.15,3.0
1758076283.31542,1758076283.13097,0.0,0.0,0.0,32.6013,6.99009,-7.04738,8.73,-1.22,2.27,3.0
1758076283.31766,1758076283.14097,0.0,0.0,0.0,38.15899,-5.21392,-6.8182,8.73,-1.22,2.27,3.0
1758076283.31814,1758076283.15097,0.0,0.0,0.0,42.05511,-14.66772,-5.84417,8.5,-1.38,2.07,3.0
1758076283.31955,1758076283.16097,0.0,0.0,0.0,46.46688,-24.23611,-4.1253,8.5,-1.38,2.07,3.0
1758076283.32102,1758076283.17097,0.0,0.0,0.0,50.87865,-33.11696,-2.11994,8.2,-1.53,1.53,3.0
1758076283.32362,1758076283.18097,0.0,0.0,0.0,56.89471,-43.60209,0.0,8.41,-1.73,1.39,3.0
1758076283.32503,1758076283.19097,0.0,0.0,0.0,60.96271,-49.90463,0.45837,8.41,-1.73,1.39,3.0
1758076283.3258,1758076283.20097,0.0,0.0,0.0,64.62964,-56.78012,0.40107,8.7,-1.66,1.44,3.0
1758076283.32849,1758076283.21097,0.0,0.0,0.0,67.89551,-66.635,-0.22918,8.7,-1.66,1.44,3.0
1758076283.33125,1758076283.22097,0.0,0.0,0.0,70.76029,-85.94368,0.45837,8.78,-1.3,2.01,3.0
1758076283.34723,1758076283.23097,0.0,0.0,0.0,69.95815,-88.29281,1.3751,8.78,-1.3,2.01,3.0
1758076283.36325,1758076283.24097,0.0,0.0,0.0,67.78091,-73.3386,3.49504,11.67,-0.28,2.29,3.0
1758076283.36557,1758076283.25097,0.0,0.0,0.0,60.79083,-42.57077,6.47442,11.67,-0.28,2.29,3.0
1758076283.38056,1758076283.26097,0.0,0.0,0.0,54.94666,-24.4653,9.33921,14.93,1.13,3.01,3.0
1758076283.38332,1758076283.27097,0.0,0.0,0.0,47.49821,-10.02676,11.28727,14.0,2.4,3.23,3.0
1758076283.39825,1758076283.28097,0.0,0.0,0.0,39.07573,-0.40107,11.57375,14.0,2.4,3.23,3.0
1758076283.41423,1758076283.29097,0.0,0.0,0.0,29.27814,-13.98017,7.67763,11.26,2.92,2.48,3.0
1758076283.41723,1758076283.30097,0.0,0.0,0.0,27.67386,-46.86795,6.53172,11.26,2.92,2.48,3.0
1758076283.43214,1758076283.31097,0.0,0.0,0.0,24.63719,-72.82294,6.24524,6.72,2.56,1.69,3.0
1758076283.43335,1758076283.32097,0.0,0.0,0.0,24.00693,-60.27517,8.47978,6.72,2.56,1.69,3.0
1758076283.44854,1758076283.33097,0.0,0.0,0.0,22.11617,-23.83505,9.5684,12.3,1.33,1.18,3.0
1758076283.46433,1758076283.34097,0.0,0.0,0.0,21.6578,-10.65701,10.8862,11.56,0.54,0.88,3.0
1758076283.46622,1758076283.35097,0.0,0.0,0.0,19.76705,-2.06265,12.08941,11.56,0.54,0.88,3.0
1758076283.48204,1758076283.36097,0.0,0.0,0.0,18.22006,4.98473,12.49048,9.4,0.3,1.55,3.0
1758076283.48329,1758076283.37097,0.0,0.0,0.0,16.21471,15.35527,10.02676,9.4,0.3,1.55,3.0
1758076283.49828,1758076283.38097,0.0,0.0,0.0,15.35527,21.02755,7.39116,9.04,0.55,1.42,3.0
1758076283.51426,1758076283.39097,0.0,0.0,0.0,15.06879,23.0902,4.64096,9.04,0.55,1.42,3.0
1758076283.51546,1758076283.40097,0.0,0.0,0.0,15.24068,23.54857,2.40642,8.62,0.88,1.73,3.0
1758076283.53055,1758076283.41097,0.0,0.0,0.0,16.04282,25.55392,-0.0573,9.21,0.79,1.8,3.0
1758076283.53224,1758076283.42097,0.0,0.0,0.0,17.53251,26.06958,-0.80214,9.21,0.79,1.8,3.0
1758076283.54725,1758076283.43097,0.0,0.0,0.0,19.82434,25.8404,-1.14592,9.59,0.4,1.81,3.0
1758076283.56353,1758076283.44097,0.0,0.0,0.0,23.31938,23.94964,-0.68755,9.59,0.4,1.81,3.0
1758076283.56449,1758076283.45097,0.0,0.0,0.0,26.18417,19.42327,0.45837,9.78,0.07,2.02,3.0
1758076283.57955,1758076283.46097,0.0,0.0,0.0,28.93437,17.6471,1.03132,9.78,0.07,2.02,3.0
1758076283.58047,1758076283.47097,0.0,0.0,0.0,31.11161,15.35527,1.3751,10.06,-0.14,1.86,3.0
1758076283.59726,1758076283.48097,0.0,0.0,0.0,33.34615,11.17268,1.43239,10.06,-0.14,1.86,3.0
1758076283.61354,1758076283.49097,0.0,0.0,0.0,34.26288,8.99544,1.43239,9.86,-0.04,1.76,3.0
1758076283.61476,1758076283.50097,0.0,0.0,0.0,34.37747,7.44845,1.14592,9.77,0.31,1.48,3.0
1758076283.62955,1758076283.51097,0.0,0.0,0.0,34.0337,6.41713,0.85944,9.77,0.31,1.48,3.0
1758076283.63073,1758076283.52097,0.0,0.0,0.0,32.20023,6.13065,0.74485,9.67,0.76,1.36,3.0
1758076283.64651,1758076283.53097,0.0,0.0,0.0,30.65324,6.35983,0.80214,9.67,0.76,1.36,3.0
1758076283.66225,1758076283.54097,0.0,0.0,0.0,28.476,6.18794,0.85944,9.63,1.11,1.47,3.0
1758076283.6634,1758076283.55097,0.0,0.0,0.0,26.64254,5.32851,1.14592,9.63,1.11,1.47,3.0
1758076283.67829,1758076283.56097,0.0,0.0,0.0,23.89234,4.69825,2.06265,9.47,1.19,1.57,3.0
1758076283.69431,1758076283.57097,0.0,0.0,0.0,22.00158,4.29718,2.7502,9.66,0.99,1.67,3.0
1758076283.69629,1758076283.58097,0.0,0.0,0.0,20.74107,5.27121,3.95341,9.66,0.99,1.67,3.0
1758076283.71155,1758076283.59097,0.0,0.0,0.0,19.59516,5.55769,5.09932,9.94,0.67,1.62,3.0
1758076283.71249,1758076283.60097,0.0,0.0,0.0,18.62113,4.58366,6.53172,9.94,0.67,1.62,3.0
1758076283.72733,1758076283.61097,0.0,0.0,0.0,18.16276,4.87014,7.50575,9.95,0.41,1.68,3.0
1758076283.74353,1758076283.62097,0.0,0.0,0.0,17.58981,5.95876,7.79223,9.95,0.41,1.68,3.0
1758076283.74475,1758076283.63097,0.0,0.0,0.0,16.95955,6.47442,6.53172,10.19,0.31,1.76,3.0
1758076283.75959,1758076283.64097,0.0,0.0,0.0,16.61578,6.07335,5.55769,10.04,0.34,1.74,3.0
1758076283.76208,1758076283.65097,0.0,0.0,0.0,16.84496,4.81285,5.21392,10.04,0.34,1.74,3.0
1758076283.77819,1758076283.66097,0.0,0.0,0.0,16.55848,4.81285,4.46907,10.05,0.27,1.91,3.0
1758076283.79537,1758076283.67097,0.0,0.0,0.0,16.61578,6.70361,3.60963,10.05,0.27,1.91,3.0
1758076283.7974,1758076283.68097,0.0,0.0,0.0,16.95955,8.70896,3.32316,10.18,0.13,1.96,3.0
1758076283.8123,1758076283.69097,0.0,0.0,0.0,17.6471,10.08406,3.26586,10.18,0.13,1.96,3.0
1758076283.8135,1758076283.70097,0.0,0.0,0.0,18.44924,12.08941,3.26586,10.07,-0.04,1.96,3.0
1758076283.82836,1758076283.71097,0.0,0.0,0.0,20.16812,14.61043,3.55234,10.07,-0.04,1.91,3.0
1758076283.8319,1758076283.72097,0.0,0.0,0.0,21.60051,15.12609,3.83882,9.86,-0.2,1.91,3.0
1758076283.84756,1758076283.73097,0.0,0.0,0.0,23.0902,15.35527,4.18259,9.62,-0.32,1.88,3.0
1758076283.86362,1758076283.74097,0.0,0.0,0.0,24.63719,14.72501,4.35448,9.62,-0.32,1.88,3.0
1758076283.86496,1758076283.75097,0.0,0.0,0.0,26.69983,12.71966,4.87014,9.49,-0.33,1.8,3.0
1758076283.87941,1758076283.76097,0.0,0.0,0.0,28.01764,10.25595,4.81285,9.49,-0.33,1.8,3.0
1758076283.88056,1758076283.77097,0.0,0.0,0.0,28.76248,8.25059,4.64096,9.36,-0.19,1.84,3.0
1758076283.89738,1758076283.78097,0.0,0.0,0.0,29.33544,6.47442,4.35448,9.36,-0.19,1.84,3.0
1758076283.91336,1758076283.79097,0.0,0.0,0.0,29.67921,2.57831,3.83882,9.43,-0.01,1.9,3.0
1758076283.91535,1758076283.80097,0.0,0.0,0.0,29.50733,0.0573,3.09397,9.43,0.18,1.99,3.0
1758076283.93035,1758076283.81097,0.0,0.0,0.0,29.04896,-0.51566,2.57831,9.43,0.18,1.99,3.0
1758076283.93156,1758076283.82097,0.0,0.0,0.0,28.64789,-0.68755,2.00535,9.71,0.34,1.97,3.0
1758076283.9466,1758076283.83097,0.0,0.0,0.0,27.96034,-1.20321,1.66158,9.71,0.34,1.97,3.0
1758076283.9624,1758076283.84097,0.0,0.0,0.0,27.73116,-1.60428,1.60428,9.67,0.42,2.05,3.0
1758076283.96355,1758076283.85097,0.0,0.0,0.0,27.33009,-1.60428,2.00535,9.67,0.42,2.05,3.0
1758076283.97842,1758076283.86097,0.0,0.0,0.0,26.47065,-0.17189,2.40642,9.8,0.43,2.03,3.0
1758076283.98075,1758076283.87097,0.0,0.0,0.0,25.7831,4.1253,2.63561,10.03,0.43,2.03,3.0
1758076283.99764,1758076283.88097,0.0,0.0,0.0,24.80907,6.35983,2.34913,10.03,0.43,2.03,3.0
1758076284.01339,1758076283.89097,0.0,0.0,0.0,23.54857,8.02141,1.94806,9.96,0.51,2.03,3.0
1758076284.01458,1758076283.90097,0.0,0.0,0.0,21.6578,10.08406,0.51566,9.96,0.51,2.03,3.0
1758076284.02942,1758076283.91097,0.0,0.0,0.0,20.3973,11.57375,-0.74485,9.95,0.71,1.98,3.0
1758076284.03137,1758076283.92097,0.0,0.0,0.0,19.48057,13.5218,-2.29183,9.95,0.71,1.98,3.0
1758076284.04733,1758076283.93097,0.0,0.0,0.0,19.07949,15.0115,-3.49504,9.99,0.83,2.12,3.0
1758076284.06369,1758076283.94097,0.0,0.0,0.0,19.42327,15.35527,-5.27121,10.07,0.83,2.28,3.0
1758076284.06456,1758076283.95097,0.0,0.0,0.0,20.16812,15.58445,-6.41713,10.07,0.79,2.28,3.0
1758076284.07965,1758076283.96097,0.0,0.0,0.0,21.6578,15.75634,-7.50575,10.26,0.63,2.11,3.0
1758076284.08081,1758076283.97097,0.0,0.0,0.0,23.31938,15.64175,-8.65166,10.26,0.63,2.11,3.0
1758076284.09763,1758076283.98097,0.0,0.0,0.0,26.35606,15.41257,-10.37054,10.18,0.47,1.87,3.0
1758076284.11336,1758076283.99097,0.0,0.0,0.0,28.476,15.46986,-11.51645,10.18,0.47,1.87,3.0
1758076284.11585,1758076284.00097,0.0,0.0,0.0,30.65324,15.64175,-12.49048,10.04,0.41,1.75,3.0
1758076284.13167,1758076284.01097,0.0,0.0,0.0,33.00237,15.69904,-12.71966,10.04,0.41,1.75,3.0
1758076284.13334,1758076284.02097,0.0,0.0,0.0,35.98175,14.66772,-12.43318,9.88,0.4,1.8,3.0
1758076284.14843,1758076284.03097,0.0,0.0,0.0,37.29956,13.00614,-12.204,9.59,0.49,1.78,3.0
1758076284.16458,1758076284.04097,0.0,0.0,0.0,38.90384,8.88085,-11.34457,9.59,0.49,1.78,3.0
1758076284.16599,1758076284.05097,0.0,0.0,0.0,40.10705,3.60963,-8.76626,9.02,0.71,1.62,3.0
1758076284.18243,1758076284.06097,0.0,0.0,0.0,39.76327,-9.11003,-6.35983,9.02,0.71,1.62,3.0
1758076284.18368,1758076284.07097,0.0,0.0,0.0,38.78925,-17.01685,-4.0107,8.63,1.13,1.49,3.0
1758076284.1987,1758076284.08097,0.0,0.0,0.0,36.95578,-5.90147,-2.29183,8.63,1.13,1.49,3.0
1758076284.21553,1758076284.09097,0.0,0.0,0.0,32.37212,19.25138,-2.40642,10.51,1.65,1.17,3.0
1758076284.21596,1758076284.10097,0.0,0.0,0.0,27.50197,27.96034,-3.89611,10.36,2.33,1.83,3.0
1758076284.23146,1758076284.11097,0.0,0.0,0.0,24.5226,22.91831,-4.18259,10.36,2.33,1.83,3.0
1758076284.23305,1758076284.12097,0.0,0.0,0.0,21.60051,12.89155,-3.09397,7.93,2.39,2.02,3.0
1758076284.24742,1758076284.13097,0.0,0.0,0.0,19.53786,4.18259,1.3751,7.93,2.39,2.02,3.0
1758076284.2637,1758076284.14097,0.0,0.0,0.0,18.62113,4.29718,5.55769,8.7,1.77,1.07,3.0
1758076284.26601,1758076284.15097,0.0,0.0,0.0,17.6471,5.32851,9.91217,8.7,1.77,1.07,3.0
1758076284.28237,1758076284.16097,0.0,0.0,0.0,16.61578,4.46907,14.20935,9.39,1.07,1.31,3.0
1758076284.2835,1758076284.17097,0.0,0.0,0.0,16.73037,1.20321,19.53786,9.28,0.55,1.45,3.0
1758076284.29845,1758076284.18097,0.0,0.0,0.0,17.58981,-0.11459,22.05888,9.28,0.55,1.45,3.0
1758076284.30238,1758076284.19097,0.0,0.0,0.0,19.19409,-0.74485,23.89234,9.25,0.11,1.28,3.0
1758076284.3177,1758076284.20097,0.0,0.0,0.0,21.37133,-2.23454,25.15285,9.25,0.11,1.28,3.0
1758076284.3337,1758076284.21097,0.0,0.0,0.0,25.21014,-6.07335,26.24147,9.14,-0.11,1.43,3.0
1758076284.33408,1758076284.22097,0.0,0.0,0.0,28.07493,-8.93814,26.35606,9.14,-0.11,1.43,3.0
1758076284.35154,1758076284.23097,0.0,0.0,0.0,30.82513,-12.60507,25.49662,9.56,-0.22,1.73,3.0
1758076284.35324,1758076284.24097,0.0,0.0,0.0,32.88778,-16.90226,24.12152,9.56,-0.22,1.73,3.0
1758076284.36847,1758076284.25097,0.0,0.0,0.0,35.52338,-17.36062,21.25674,10.13,-0.24,1.87,3.0
1758076284.37318,1758076284.26097,0.0,0.0,0.0,37.12767,-13.23533,19.82434,11.09,-0.15,1.9,3.0
1758076284.38851,1758076284.27097,0.0,0.0,0.0,39.07573,-7.44845,18.79302,11.09,-0.15,1.9,3.0
1758076284.40444,1758076284.28097,0.0,0.0,0.0,42.51347,-4.46907,18.27736,11.05,-0.04,1.97,3.0
1758076284.40585,1758076284.29097,0.0,0.0,0.0,45.03448,-4.92744,18.62113,11.05,-0.04,1.97,3.0
1758076284.53364,1758076284.30097,0.0,0.0,0.0,47.32632,-5.09932,19.48057,10.25,-0.03,1.57,3.0
1758076284.53574,1758076284.31097,0.0,0.0,0.0,49.33167,-4.29718,20.68378,10.25,-0.03,1.57,3.0
1758076284.53942,1758076284.32097,0.0,0.0,0.0,52.02457,-4.29718,22.97561,9.96,-0.04,1.15,3.0
1758076284.54003,1758076284.33097,0.0,0.0,0.0,53.45696,-4.1253,24.35071,9.69,0.07,1.33,3.0
1758076284.54287,1758076284.34097,0.0,0.0,0.0,54.60288,-4.81285,25.55392,9.69,0.07,1.33,3.0
1758076284.54348,1758076284.35097,0.0,0.0,0.0,55.00395,-5.55769,26.35606,9.58,0.3,1.74,3.0
1758076284.54506,1758076284.36097,0.0,0.0,0.0,54.60288,-6.24524,26.41335,9.58,0.3,1.74,3.0
1758076284.54726,1758076284.37097,0.0,0.0,0.0,54.14451,-5.95876,25.89769,9.69,0.66,2.09,3.0
1758076284.54764,1758076284.38097,0.0,0.0,0.0,53.28508,-5.95876,25.09555,9.69,0.66,2.09,3.0
1758076284.55124,1758076284.39097,0.0,0.0,0.0,52.25375,-6.35983,24.17882,9.74,0.96,2.33,3.0
1758076284.55358,1758076284.40097,0.0,0.0,0.0,50.87865,-5.4431,22.57454,9.8,1.02,2.41,3.0
1758076284.55632,1758076284.41097,0.0,0.0,0.0,50.3057,-5.50039,21.48592,9.8,1.02,2.41,3.0
1758076284.55765,1758076284.42097,0.0,0.0,0.0,50.2484,-6.13065,20.22541,9.63,0.75,2.41,3.0
1758076284.55816,1758076284.43097,0.0,0.0,0.0,50.87865,-6.41713,19.07949,9.63,0.75,2.41,3.0
1758076284.55876,1758076284.44097,0.0,0.0,0.0,52.48294,-6.87549,17.58981,9.57,0.29,2.31,3.0
1758076284.56063,1758076284.45097,0.0,0.0,0.0,53.51426,-6.70361,17.24603,9.57,0.29,2.31,3.0
1758076284.57577,1758076284.46097,0.0,0.0,0.0,55.11855,-5.84417,17.58981,9.89,-0.07,2.33,3.0
1758076284.5923,1758076284.47097,0.0,0.0,0.0,56.66553,-5.21392,18.33465,9.89,-0.07,2.33,3.0
1758076284.59347,1758076284.48097,0.0,0.0,0.0,58.84277,-4.87014,19.82434,10.16,-0.22,2.27,3.0
1758076284.6096,1758076284.49097,0.0,0.0,0.0,60.33246,-4.87014,21.08485,10.29,-0.21,2.26,3.0
1758076284.61288,1758076284.50097,0.0,0.0,0.0,61.59297,-4.92744,22.40265,10.29,-0.21,2.26,3.0
1758076284.6286,1758076284.51097,0.0,0.0,0.0,62.96807,-4.81285,24.4653,10.53,-0.15,2.26,3.0
1758076284.63284,1758076284.52097,0.0,0.0,0.0,63.59832,-3.55234,25.72581,10.53,-0.15,2.26,3.0
1758076284.64879,1758076284.53097,0.0,0.0,0.0,63.65561,-2.6929,26.87172,10.69,-0.05,2.27,3.0
1758076284.65366,1758076284.54097,0.0,0.0,0.0,63.02536,-1.77617,27.38738,10.69,-0.05,2.27,3.0
1758076284.67164,1758076284.55097,0.0,0.0,0.0,61.76485,-0.34377,27.50197,10.53,0.0,2.3,3.0
1758076284.67276,1758076284.56097,0.0,0.0,0.0,60.90542,1.66158,26.81443,10.33,0.0,2.23,3.0
1758076284.68778,1758076284.57097,0.0,0.0,0.0,59.98868,3.89611,25.26744,10.33,0.0,2.23,3.0
1758076284.68875,1758076284.58097,0.0,0.0,0.0,59.18654,5.78687,23.60586,10.07,-0.07,2.23,3.0
1758076284.70412,1758076284.59097,0.0,0.0,0.0,57.75415,8.76626,20.62648,10.07,-0.07,2.23,3.0
1758076284.72063,1758076284.60097,0.0,0.0,0.0,57.18119,10.37054,18.62113,9.84,-0.1,2.26,3.0
1758076284.72236,1758076284.61097,0.0,0.0,0.0,56.78012,11.74564,16.84496,9.84,-0.1,2.26,3.0
1758076284.73783,1758076284.62097,0.0,0.0,0.0,56.66553,12.204,15.58445,9.61,-0.29,2.27,3.0
1758076284.73913,1758076284.63097,0.0,0.0,0.0,56.83742,10.94349,14.72501,9.43,-0.56,2.28,3.0
1758076284.75407,1758076284.64097,0.0,0.0,0.0,57.41038,9.5684,14.78231,9.43,-0.56,2.28,3.0
1758076284.77083,1758076284.65097,0.0,0.0,0.0,58.49899,8.25059,15.24068,9.51,-0.94,2.21,3.0
1758076284.77178,1758076284.66097,0.0,0.0,0.0,60.10328,6.58902,16.272,9.51,-0.94,2.21,3.0
1758076284.78658,1758076284.67097,0.0,0.0,0.0,62.33781,5.84417,17.87628,9.76,-1.3,2.16,3.0
1758076284.80286,1758076284.68097,0.0,0.0,0.0,64.17127,6.58902,18.85031,9.76,-1.3,2.16,3.0
1758076284.80379,1758076284.69097,0.0,0.0,0.0,65.71826,7.79223,19.48057,10.1,-1.52,2.2,3.0
1758076284.81968,1758076284.70097,0.0,0.0,0.0,67.09336,8.59437,19.88164,10.1,-1.52,2.2,3.0
1758076284.82223,1758076284.71097,0.0,0.0,0.0,69.15601,9.68299,19.88164,10.02,-1.48,2.19,3.0
1758076284.8376,1758076284.72097,0.0,0.0,0.0,70.30193,10.19865,19.76705,9.95,-1.3,2.19,3.0
1758076284.8388,1758076284.73097,0.0,0.0,0.0,71.27596,10.37054,19.70975,9.95,-1.3,2.19,3.0
1758076284.85415,1758076284.74097,0.0,0.0,0.0,71.90621,10.25595,19.25138,9.91,-1.03,2.13,3.0
1758076284.87148,1758076284.75097,0.0,0.0,0.0,72.36457,9.05273,19.25138,9.91,-1.03,2.13,3.0
1758076284.8757,1758076284.76097,0.0,0.0,0.0,72.82294,7.79223,19.25138,9.7,-0.84,2.1,3.0
1758076284.89327,1758076284.77097,0.0,0.0,0.0,73.16672,7.67763,18.9649,9.7,-0.84,2.1,3.0
1758076284.89418,1758076284.78097,0.0,0.0,0.0,73.79697,9.11003,18.44924,9.7,-0.67,2.09,3.0
1758076284.90961,1758076284.79097,0.0,0.0,0.0,73.91156,11.34457,17.93358,9.7,-0.58,2.17,3.0
