timeStamp,timeStampAlign,roll,pitch,yaw,gyro_x,gyro_y,gyro_z,acc_x,acc_y,acc_z,flag_num
1758088643.30602,1758088640.58271,0.0,0.0,0.0,-23.0902,-27.44468,27.78845,8.0,-1.03,2.61,3.0
1758088643.30717,1758088640.59271,0.0,0.0,0.0,-22.28806,-22.57454,26.81443,8.0,-1.03,2.61,3.0
1758088643.32195,1758088640.60271,0.0,0.0,0.0,-21.31403,-15.46986,25.43933,10.01,-0.92,2.73,3.0
1758088643.32321,1758088640.61271,0.0,0.0,0.0,-19.82434,-0.80214,22.63183,12.5,-1.08,2.98,3.0
1758088643.36117,1758088640.62271,0.0,0.0,0.0,-19.19409,12.71966,21.31403,12.5,-1.08,2.98,3.0
1758088643.36296,1758088640.63271,0.0,0.0,0.0,-19.36597,26.41335,19.42327,15.31,-1.28,3.29,3.0
1758088643.36465,1758088640.64271,0.0,0.0,0.0,-19.76705,33.86181,17.93358,15.31,-1.28,3.29,3.0
1758088643.36807,1758088640.65271,0.0,0.0,0.0,-21.14215,45.72203,18.16276,17.16,-1.48,4.85,3.0
1758088643.383,1758088640.66271,0.0,0.0,0.0,-23.72045,55.86338,17.76169,17.16,-1.48,4.85,3.0
1758088643.38474,1758088640.67271,0.0,0.0,0.0,-25.7831,52.08187,17.36062,19.74,-1.62,6.96,3.0
1758088643.39923,1758088640.68271,0.0,0.0,0.0,-26.87172,37.58603,15.58445,19.74,-1.62,6.96,3.0
1758088643.41525,1758088640.69271,0.0,0.0,0.0,-27.04361,23.31938,11.80293,16.23,-2.24,6.71,3.0
1758088643.41621,1758088640.70271,0.0,0.0,0.0,-26.81443,17.36062,6.47442,12.68,-3.1,5.8,3.0
1758088643.43102,1758088640.71271,0.0,0.0,0.0,-24.75178,7.84952,2.00535,12.68,-3.1,5.8,3.0
1758088643.43386,1758088640.72271,0.0,0.0,0.0,-19.13679,-13.34992,-2.86479,8.82,-3.26,5.53,3.0
1758088643.45004,1758088640.73271,0.0,0.0,0.0,-14.66772,-28.476,-3.72423,8.82,-3.26,5.53,3.0
1758088643.45445,1758088640.74271,0.0,0.0,0.0,-10.8289,-45.37826,-2.23454,6.2,-2.98,5.62,3.0
1758088643.47088,1758088640.75271,0.0,0.0,0.0,-7.79223,-62.85347,0.68755,6.2,-2.98,5.62,3.0
1758088643.4772,1758088640.76271,0.0,0.0,0.0,-4.58366,-84.91235,6.35983,4.79,-2.46,5.34,3.0
1758088643.49513,1758088640.77271,0.0,0.0,0.0,-3.83882,-95.51206,10.19865,5.54,-1.63,5.27,3.0
1758088643.49642,1758088640.78271,0.0,0.0,0.0,-3.83882,-102.61675,13.46451,5.54,-1.63,5.27,3.0
1758088643.51161,1758088640.79271,0.0,0.0,0.0,-4.58366,-101.29894,15.29797,7.38,-0.69,5.36,3.0
1758088643.51386,1758088640.80271,0.0,0.0,0.0,-5.32851,-75.57314,14.61043,7.38,-0.69,5.36,3.0
1758088643.53031,1758088640.81271,0.0,0.0,0.0,-5.27121,-52.54023,10.48513,9.77,-0.26,4.48,3.0
1758088643.53369,1758088640.82271,0.0,0.0,0.0,-1.48969,-39.13302,7.79223,9.77,-0.26,4.48,3.0
1758088643.54936,1758088640.83271,0.0,0.0,0.0,-5.27121,-58.72818,-0.34377,7.72,-0.28,4.0,3.0
1758088643.56512,1758088640.84271,0.0,0.0,0.0,-2.34913,-124.73292,-4.29718,4.35,-0.16,4.82,3.0
1758088643.5666,1758088640.85271,0.0,0.0,0.0,-0.11459,-88.57928,-4.58366,4.35,-0.16,4.82,3.0
1758088643.58134,1758088640.86271,0.0,0.0,0.0,4.98473,-38.44547,-3.72423,15.45,-1.28,0.68,3.0
1758088643.5823,1758088640.87271,0.0,0.0,0.0,9.68299,-16.84496,-6.18794,15.45,-1.28,0.68,3.0
1758088643.59917,1758088640.88271,0.0,0.0,0.0,13.69369,-7.62034,-5.72958,9.82,-2.02,2.86,3.0
1758088643.61511,1758088640.89271,0.0,0.0,0.0,13.98017,5.55769,-8.36518,9.82,-2.02,2.86,3.0
1758088643.6171,1758088640.90271,0.0,0.0,0.0,14.15206,16.84496,-13.40721,9.72,-1.72,2.81,3.0
1758088643.63318,1758088640.91271,0.0,0.0,0.0,14.83961,27.73116,-27.61657,9.72,-1.72,2.81,3.0
1758088643.63416,1758088640.92271,0.0,0.0,0.0,15.35527,33.23156,-35.86716,9.39,-0.74,2.13,3.0
1758088643.64992,1758088640.93271,0.0,0.0,0.0,16.10011,43.02913,-42.51347,9.59,-0.62,1.95,3.0
1758088643.66782,1758088640.94271,0.0,0.0,0.0,17.47521,55.29043,-46.75336,9.59,-0.62,1.95,3.0
1758088643.6705,1758088640.95271,0.0,0.0,0.0,17.13144,72.42187,-48.24305,9.43,-0.98,1.52,3.0
1758088643.68617,1758088640.96271,0.0,0.0,0.0,17.18874,81.99026,-47.26902,9.43,-0.98,1.52,3.0
1758088643.6874,1758088640.97271,0.0,0.0,0.0,20.22541,84.45398,-43.31561,8.11,-1.01,2.03,3.0
1758088643.70221,1758088640.98271,0.0,0.0,0.0,24.23611,81.24542,-38.50277,8.11,-1.01,2.03,3.0
1758088643.70341,1758088640.99271,0.0,0.0,0.0,29.04896,80.95895,-28.87707,6.65,-0.95,2.15,3.0
1758088643.72008,1758088641.00271,0.0,0.0,0.0,31.28349,80.04221,-22.68913,6.52,-0.81,2.38,3.0
1758088643.7352,1758088641.01271,0.0,0.0,0.0,32.37212,76.20339,-17.76169,6.52,-0.81,2.38,3.0
1758088643.73751,1758088641.02271,0.0,0.0,0.0,33.11696,67.37984,-14.09476,5.5,-0.31,2.47,3.0
1758088643.75249,1758088641.03271,0.0,0.0,0.0,32.20023,47.26902,-11.57375,5.5,-0.31,2.47,3.0
1758088643.75342,1758088641.04271,0.0,0.0,0.0,31.11161,33.46074,-12.08941,5.02,0.17,2.58,3.0
1758088643.76926,1758088641.05271,0.0,0.0,0.0,29.96569,21.6578,-14.20935,5.02,0.17,2.58,3.0
1758088643.78544,1758088641.06271,0.0,0.0,0.0,28.87707,11.74564,-17.58981,5.54,0.53,2.36,3.0
1758088643.78752,1758088641.07271,0.0,0.0,0.0,26.69983,0.40107,-23.49127,6.1,0.78,2.46,3.0
1758088643.8025,1758088641.08271,0.0,0.0,0.0,24.98096,-4.87014,-27.44468,6.1,0.78,2.46,3.0
1758088643.80378,1758088641.09271,0.0,0.0,0.0,23.37668,-8.65166,-30.76784,6.57,0.9,2.5,3.0
1758088643.81825,1758088641.10271,0.0,0.0,0.0,21.31403,-12.14671,-34.09099,6.57,0.9,2.5,3.0
1758088643.85585,1758088641.11271,0.0,0.0,0.0,20.05352,-15.12609,-34.49206,7.15,0.79,2.53,3.0
1758088643.86125,1758088641.12271,0.0,0.0,0.0,18.9649,-16.73037,-33.63263,7.15,0.79,2.53,3.0
1758088643.86171,1758088641.13271,0.0,0.0,0.0,17.93358,-18.10547,-31.56997,8.25,0.41,2.51,3.0
1758088643.86285,1758088641.14271,0.0,0.0,0.0,16.55848,-16.38659,-26.87172,8.25,0.41,2.51,3.0
1758088643.86399,1758088641.15271,0.0,0.0,0.0,15.64175,-11.28727,-23.20479,10.12,0.13,2.42,3.0
1758088643.88119,1758088641.16271,0.0,0.0,0.0,14.61043,-3.66693,-19.53786,12.62,0.33,2.43,3.0
1758088643.88328,1758088641.17271,0.0,0.0,0.0,12.83425,5.84417,-16.50119,12.62,0.33,2.43,3.0
1758088643.89926,1758088641.18271,0.0,0.0,0.0,11.22997,22.97561,-12.37589,15.04,0.81,2.8,3.0
1758088643.91648,1758088641.19271,0.0,0.0,0.0,10.02676,36.89849,-9.91217,15.04,0.81,2.8,3.0
1758088643.91989,1758088641.20271,0.0,0.0,0.0,7.73493,45.72203,-5.84417,16.63,1.09,3.22,3.0
1758088643.93562,1758088641.21271,0.0,0.0,0.0,0.11459,31.62727,-3.66693,16.63,1.09,3.22,3.0
1758088643.94476,1758088641.22271,0.0,0.0,0.0,-4.64096,14.83961,-11.80293,15.15,2.0,5.25,3.0
1758088643.94777,1758088641.23271,0.0,0.0,0.0,-6.58902,10.54242,-18.79302,16.19,2.91,6.52,3.0
1758088643.96564,1758088641.24271,0.0,0.0,0.0,-7.67763,9.74028,-26.75713,16.19,2.91,6.52,3.0
1758088643.9705,1758088641.25271,0.0,0.0,0.0,-7.50575,7.04738,-31.39809,15.26,1.51,5.59,3.0
1758088643.98534,1758088641.26271,0.0,0.0,0.0,-7.39116,-14.20935,-31.39809,15.26,1.51,5.59,3.0
1758088643.98653,1758088641.27271,0.0,0.0,0.0,-7.96411,-32.54401,-29.04896,10.79,0.46,4.52,3.0
1758088644.00138,1758088641.28271,0.0,0.0,0.0,-8.42248,-47.61279,-23.94964,10.79,0.46,4.52,3.0
1758088644.00364,1758088641.29271,0.0,0.0,0.0,-10.59972,-48.30034,-15.0115,8.57,0.55,3.96,3.0
1758088644.01956,1758088641.30271,0.0,0.0,0.0,-15.24068,-18.90761,-9.11003,9.9,1.36,5.33,3.0
1758088644.03533,1758088641.31271,0.0,0.0,0.0,-20.79837,-2.63561,-4.69825,9.9,1.36,5.33,3.0
1758088644.03975,1758088641.32271,0.0,0.0,0.0,-23.66316,-9.85487,0.34377,5.99,1.42,6.65,3.0
1758088644.05556,1758088641.33271,0.0,0.0,0.0,-24.23611,-69.67168,7.50575,5.99,1.42,6.65,3.0
1758088644.05734,1758088641.34271,0.0,0.0,0.0,-25.09555,-98.83522,8.59437,1.63,0.75,5.91,3.0
1758088644.07336,1758088641.35271,0.0,0.0,0.0,-26.87172,-106.0545,9.33921,1.63,0.75,5.91,3.0
1758088644.07438,1758088641.36271,0.0,0.0,0.0,-28.07493,-101.24165,10.19865,6.57,0.17,4.03,3.0
1758088644.08941,1758088641.37271,0.0,0.0,0.0,-30.88243,-95.0537,9.28192,8.6,0.17,4.13,3.0
1758088644.10563,1758088641.38271,0.0,0.0,0.0,-32.20023,-90.06896,8.99544,8.6,0.03,4.13,3.0
1758088644.10684,1758088641.39271,0.0,0.0,0.0,-34.09099,-83.82372,7.96411,8.98,0.48,3.9,3.0
1758088644.12319,1758088641.40271,0.0,0.0,0.0,-35.3515,-74.94289,7.67763,8.98,0.48,3.9,3.0
1758088644.1258,1758088641.41271,0.0,0.0,0.0,-37.35685,-59.47303,7.33386,9.61,0.69,3.54,3.0
1758088644.14295,1758088641.42271,0.0,0.0,0.0,-38.38818,-47.95657,8.136,9.61,0.69,3.54,3.0
1758088644.145,1758088641.43271,0.0,0.0,0.0,-39.3622,-36.15364,9.11003,10.27,0.3,3.15,3.0
1758088644.16143,1758088641.44271,0.0,0.0,0.0,-40.33623,-24.63719,10.37054,10.27,0.3,3.15,3.0
1758088644.16737,1758088641.45271,0.0,0.0,0.0,-41.48215,-8.88085,12.43318,10.39,-0.04,2.82,3.0
1758088644.18365,1758088641.46271,0.0,0.0,0.0,-42.68536,2.86479,13.98017,10.43,-0.23,2.4,3.0
1758088644.18808,1758088641.47271,0.0,0.0,0.0,-44.17505,14.83961,15.35527,10.43,-0.23,2.4,3.0
1758088644.20568,1758088641.48271,0.0,0.0,0.0,-46.00851,25.72581,16.55848,10.5,-0.17,2.22,3.0
1758088644.20852,1758088641.49271,0.0,0.0,0.0,-48.9879,39.76327,17.53251,10.5,-0.17,2.22,3.0
1758088644.22803,1758088641.50271,0.0,0.0,0.0,-50.76406,48.12846,18.27736,10.09,0.0,2.33,3.0
1758088644.24017,1758088641.51271,0.0,0.0,0.0,-52.42564,53.74345,18.73572,10.09,0.0,2.33,3.0
1758088644.24319,1758088641.52271,0.0,0.0,0.0,-55.51962,59.53032,17.36062,9.25,0.27,2.39,3.0
1758088644.28076,1758088641.53271,0.0,0.0,0.0,-57.18119,62.22322,16.61578,8.28,0.41,2.43,3.0
1758088644.30507,1758088641.54271,0.0,0.0,0.0,-58.78547,65.54638,14.78231,8.28,0.41,2.43,3.0
1758088644.31504,1758088641.55271,0.0,0.0,0.0,-60.27517,67.15066,13.17803,7.48,0.25,2.37,3.0
1758088644.31542,1758088641.56271,0.0,0.0,0.0,-61.42108,67.32255,9.85487,7.48,0.25,2.37,3.0
1758088644.31694,1758088641.57271,0.0,0.0,0.0,-62.05133,65.89015,7.62034,6.61,-0.12,2.27,3.0
1758088644.32118,1758088641.58271,0.0,0.0,0.0,-61.36378,61.93674,5.15662,6.61,-0.12,2.27,3.0
1758088644.32607,1758088641.59271,0.0,0.0,0.0,-60.67623,57.18119,2.63561,5.94,-0.54,2.19,3.0
1758088644.32784,1758088641.60271,0.0,0.0,0.0,-57.63955,47.38361,0.17189,5.57,-1.08,2.05,3.0
1758088644.32905,1758088641.61271,0.0,0.0,0.0,-55.7488,40.50812,-1.03132,5.57,-1.08,2.05,3.0
1758088644.34471,1758088641.62271,0.0,0.0,0.0,-53.45696,34.14828,-1.20321,5.6,-1.4,2.15,3.0
1758088644.34565,1758088641.63271,0.0,0.0,0.0,-50.59217,27.04361,-0.57296,5.6,-1.4,2.15,3.0
1758088644.36074,1758088641.64271,0.0,0.0,0.0,-45.60744,16.04282,3.26586,5.84,-1.68,2.2,3.0
1758088644.37735,1758088641.65271,0.0,0.0,0.0,-42.05511,7.62034,6.7609,5.84,-1.68,2.2,3.0
1758088644.37959,1758088641.66271,0.0,0.0,0.0,-38.61736,-1.94806,10.48513,5.93,-1.99,2.26,3.0
1758088644.39472,1758088641.67271,0.0,0.0,0.0,-35.2369,-11.17268,13.5218,5.93,-1.99,2.26,3.0
1758088644.39578,1758088641.68271,0.0,0.0,0.0,-30.93972,-21.31403,17.30333,6.12,-2.12,2.11,3.0
1758088644.43568,1758088641.69271,0.0,0.0,0.0,-28.70519,-26.64254,18.56383,6.59,-2.02,2.01,3.0
1758088644.43933,1758088641.70271,0.0,0.0,0.0,-26.81443,-32.20023,19.07949,6.59,-2.02,2.01,3.0
1758088644.4404,1758088641.71271,0.0,0.0,0.0,-24.00693,-37.35685,18.56383,6.87,-1.97,1.83,3.0
1758088644.46321,1758088641.72271,0.0,0.0,0.0,-21.7151,-39.4195,18.50654,6.87,-1.97,1.83,3.0
1758088644.46538,1758088641.73271,0.0,0.0,0.0,-19.70975,-33.9764,17.99088,8.42,-1.91,1.7,3.0
1758088644.49087,1758088641.74271,0.0,0.0,0.0,-17.53251,-21.7151,19.07949,8.42,-1.91,1.7,3.0
1758088644.55948,1758088641.75271,0.0,0.0,0.0,-14.15206,3.20856,22.63183,11.54,-1.94,1.69,3.0
1758088644.56022,1758088641.76271,0.0,0.0,0.0,-11.63104,19.07949,26.52795,14.64,-2.28,2.22,3.0
1758088644.56483,1758088641.77271,0.0,0.0,0.0,-9.4538,33.86181,31.45539,14.64,-2.28,2.22,3.0
1758088644.56521,1758088641.78271,0.0,0.0,0.0,-7.39116,47.72739,36.32552,17.32,-2.81,3.04,3.0
1758088644.57034,1758088641.79271,0.0,0.0,0.0,-5.09932,68.41116,41.94051,17.32,-2.81,3.04,3.0
1758088644.57107,1758088641.80271,0.0,0.0,0.0,-4.1253,73.91156,41.94051,18.94,-3.1,3.56,3.0
1758088644.57298,1758088641.81271,0.0,0.0,0.0,-1.77617,60.10328,39.76327,18.94,-3.1,3.56,3.0
1758088644.57374,1758088641.82271,0.0,0.0,0.0,2.11994,29.22085,36.61201,16.49,-4.16,5.78,3.0
1758088644.57557,1758088641.83271,0.0,0.0,0.0,5.95876,-31.56997,24.35071,14.15,-5.0,6.34,3.0
1758088644.57626,1758088641.84271,0.0,0.0,0.0,7.67763,-12.89155,21.31403,14.15,-5.0,6.34,3.0
1758088644.58338,1758088641.85271,0.0,0.0,0.0,6.70361,17.87628,12.77696,18.32,-3.63,5.66,3.0
1758088644.5845,1758088641.86271,0.0,0.0,0.0,7.50575,37.92981,8.02141,18.32,-3.63,5.66,3.0
1758088644.61565,1758088641.87271,0.0,0.0,0.0,7.84952,26.12688,-5.32851,11.12,-2.38,5.98,3.0
1758088644.61786,1758088641.88271,0.0,0.0,0.0,8.0787,2.7502,-13.40721,11.12,-2.38,5.98,3.0
1758088644.61985,1758088641.89271,0.0,0.0,0.0,10.19865,-15.64175,-17.93358,5.02,-1.85,4.81,3.0
1758088644.62051,1758088641.90271,0.0,0.0,0.0,13.34992,-30.99702,-20.74107,5.02,-1.85,4.81,3.0
1758088644.6366,1758088641.91271,0.0,0.0,0.0,14.61043,-55.29043,-21.08485,4.06,-1.63,4.27,3.0
1758088644.64037,1758088641.92271,0.0,0.0,0.0,15.41257,-75.97421,-17.13144,3.97,-1.4,5.37,3.0
1758088644.65587,1758088641.93271,0.0,0.0,0.0,14.32395,-92.07432,-12.77696,3.97,-1.4,5.37,3.0
1758088644.66043,1758088641.94271,0.0,0.0,0.0,12.77696,-103.59077,-4.18259,6.81,-1.18,5.28,3.0
1758088644.6756,1758088641.95271,0.0,0.0,0.0,11.45916,-104.16373,0.34377,6.81,-1.18,5.28,3.0
1758088644.67944,1758088641.96271,0.0,0.0,0.0,11.17268,-101.9865,5.61499,8.96,-0.65,4.49,3.0
1758088644.7237,1758088641.97271,0.0,0.0,0.0,11.22997,-96.65798,8.70896,8.96,-0.65,4.49,3.0
1758088644.77782,1758088641.98271,0.0,0.0,0.0,12.08941,-87.0323,10.02676,9.07,-0.61,4.0,3.0
1758088644.77923,1758088641.99271,0.0,0.0,0.0,13.12073,-79.06818,8.47978,8.22,-0.68,3.27,3.0
1758088644.78118,1758088642.00271,0.0,0.0,0.0,14.03747,-68.75494,5.21392,8.22,-0.68,3.27,3.0
1758088644.78263,1758088642.01271,0.0,0.0,0.0,14.83961,-56.14987,0.97403,8.34,-0.48,2.88,3.0
1758088644.78385,1758088642.02271,0.0,0.0,0.0,15.35527,-35.58068,-6.70361,8.34,-0.48,2.88,3.0
1758088644.78482,1758088642.03271,0.0,0.0,0.0,15.35527,-22.51724,-11.45916,8.8,-0.3,2.51,3.0
1758088644.78519,1758088642.04271,0.0,0.0,0.0,15.75634,-8.36518,-15.46986,8.8,-0.3,2.51,3.0
1758088644.78721,1758088642.05271,0.0,0.0,0.0,15.98552,7.44845,-18.62113,9.44,-0.54,2.11,3.0
1758088644.78791,1758088642.06271,0.0,0.0,0.0,17.6471,31.16891,-21.42862,9.99,-1.05,1.89,3.0
1758088644.78907,1758088642.07271,0.0,0.0,0.0,18.9649,44.17505,-22.86102,9.99,-1.05,1.89,3.0
1758088644.80479,1758088642.08271,0.0,0.0,0.0,20.34,54.25911,-23.31938,9.72,-1.35,2.04,3.0
1758088644.8149,1758088642.09271,0.0,0.0,0.0,21.37133,61.70755,-23.94964,9.72,-1.35,2.04,3.0
1758088644.81711,1758088642.10271,0.0,0.0,0.0,22.86102,68.92683,-24.92367,9.22,-1.3,2.16,3.0
1758088644.82988,1758088642.11271,0.0,0.0,0.0,23.54857,71.56243,-24.17882,9.22,-1.3,2.16,3.0
1758088644.83329,1758088642.12271,0.0,0.0,0.0,23.83505,73.3959,-23.94964,8.62,-0.96,2.19,3.0
1758088644.84869,1758088642.13271,0.0,0.0,0.0,24.17882,75.22936,-23.49127,8.62,-0.96,2.19,3.0
1758088644.86496,1758088642.14271,0.0,0.0,0.0,24.92367,73.62508,-22.86102,7.85,-0.52,2.33,3.0
1758088644.86694,1758088642.15271,0.0,0.0,0.0,24.75178,69.67168,-21.94428,6.77,-0.12,2.44,3.0
1758088644.88168,1758088642.16271,0.0,0.0,0.0,23.72045,65.83286,-21.02755,6.77,-0.12,2.44,3.0
1758088644.8829,1758088642.17271,0.0,0.0,0.0,21.37133,58.78547,-20.51189,6.24,0.17,2.39,3.0
1758088644.89978,1758088642.18271,0.0,0.0,0.0,19.25138,53.17049,-20.16812,6.24,0.17,2.39,3.0
1758088644.9157,1758088642.19271,0.0,0.0,0.0,16.67307,45.43555,-20.34,5.89,0.5,2.32,3.0
1758088644.91627,1758088642.20271,0.0,0.0,0.0,13.69369,35.86716,-21.08485,5.89,0.5,2.32,3.0
1758088644.93182,1758088642.21271,0.0,0.0,0.0,8.70896,22.34536,-22.97561,5.72,0.82,2.33,3.0
1758088644.93382,1758088642.22271,0.0,0.0,0.0,5.61499,14.83961,-24.63719,6.04,1.05,2.21,3.0
1758088644.9487,1758088642.23271,0.0,0.0,0.0,3.20856,7.79223,-26.81443,6.04,1.05,2.21,3.0
1758088644.96504,1758088642.24271,0.0,0.0,0.0,1.43239,0.0573,-28.70519,6.1,0.97,2.38,3.0
1758088644.96596,1758088642.25271,0.0,0.0,0.0,0.0,-11.80293,-30.76784,6.1,0.97,2.38,3.0
1758088644.98105,1758088642.26271,0.0,0.0,0.0,-0.40107,-19.13679,-31.39809,6.25,0.56,2.32,3.0
1758088644.99708,1758088642.27271,0.0,0.0,0.0,-0.74485,-25.15285,-31.16891,6.25,0.56,2.32,3.0
1758088644.99749,1758088642.28271,0.0,0.0,0.0,-0.74485,-28.36141,-30.82513,7.07,0.0,2.31,3.0
1758088645.01379,1758088642.29271,0.0,0.0,0.0,-0.68755,-22.74642,-29.39274,9.17,-0.37,2.62,3.0
1758088645.01762,1758088642.30271,0.0,0.0,0.0,-0.51566,-13.5218,-28.93437,9.17,-0.37,2.62,3.0
1758088645.0338,1758088642.31271,0.0,0.0,0.0,-0.45837,-6.99009,-29.33544,11.38,-0.37,2.81,3.0
1758088645.03912,1758088642.32271,0.0,0.0,0.0,0.22918,-6.13065,-28.70519,11.38,-0.37,2.81,3.0
1758088645.05399,1758088642.33271,0.0,0.0,0.0,-0.17189,-4.64096,-29.50733,13.1,-0.34,3.02,3.0
1758088645.05525,1758088642.34271,0.0,0.0,0.0,-0.51566,0.85944,-29.22085,13.1,-0.34,3.02,3.0
1758088645.06995,1758088642.35271,0.0,0.0,0.0,-1.3178,11.91752,-29.96569,15.99,-0.21,3.08,3.0
1758088645.08611,1758088642.36271,0.0,0.0,0.0,-1.77617,25.7831,-29.62192,15.99,-0.21,3.08,3.0
1758088645.08711,1758088642.37271,0.0,0.0,0.0,-3.49504,7.16197,-26.52795,17.4,0.29,3.34,3.0
1758088645.1028,1758088642.38271,0.0,0.0,0.0,-8.59437,-37.58603,-25.8404,14.1,1.52,6.12,3.0
1758088645.10478,1758088642.39271,0.0,0.0,0.0,-11.86023,-70.47381,-23.20479,14.1,1.52,6.12,3.0
1758088645.12064,1758088642.40271,0.0,0.0,0.0,-13.86558,-48.12846,-18.10547,17.24,1.98,6.03,3.0
1758088645.12178,1758088642.41271,0.0,0.0,0.0,-13.69369,4.69825,-14.15206,17.24,1.98,6.03,3.0
1758088645.13808,1758088642.42271,0.0,0.0,0.0,-16.21471,43.4875,-9.85487,20.75,0.65,5.28,3.0
1758088645.15603,1758088642.43271,0.0,0.0,0.0,-17.01685,21.6578,-7.50575,20.75,0.65,5.28,3.0
1758088645.15892,1758088642.44271,0.0,0.0,0.0,-23.60586,-18.16276,-4.52637,9.42,0.71,5.88,3.0
1758088645.17509,1758088642.45271,0.0,0.0,0.0,-27.50197,-19.88164,-2.00535,8.45,1.53,4.4,3.0
1758088645.1779,1758088642.46271,0.0,0.0,0.0,-32.71589,-16.67307,0.80214,8.45,1.53,4.4,3.0
1758088645.241,1758088642.47271,0.0,0.0,0.0,-37.47144,-25.21014,3.38045,6.83,1.77,5.62,3.0
1758088645.24841,1758088642.48271,0.0,0.0,0.0,-40.7946,-41.25296,7.39116,6.83,1.77,5.62,3.0
1758088645.249,1758088642.49271,0.0,0.0,0.0,-40.45082,-47.89928,9.39651,5.69,1.39,6.2,3.0
1758088645.28521,1758088642.50271,0.0,0.0,0.0,-39.01843,-56.37905,11.17268,5.69,1.39,6.2,3.0
1758088645.28565,1758088642.51271,0.0,0.0,0.0,-36.7266,-64.22858,11.45916,5.87,0.31,4.95,3.0
1758088645.28864,1758088642.52271,0.0,0.0,0.0,-33.63263,-63.59832,9.96947,7.37,-0.57,3.98,3.0
1758088645.28978,1758088642.53271,0.0,0.0,0.0,-32.20023,-58.21251,8.36518,7.37,-0.57,3.98,3.0
1758088645.29055,1758088642.54271,0.0,0.0,0.0,-31.11161,-52.25375,5.50039,8.46,-0.78,3.12,3.0
1758088645.29589,1758088642.55271,0.0,0.0,0.0,-31.39809,-44.00316,-0.45837,8.46,-0.78,3.12,3.0
1758088645.2964,1758088642.56271,0.0,0.0,0.0,-30.93972,-41.25296,-4.0107,8.3,-0.58,3.04,3.0
1758088645.29751,1758088642.57271,0.0,0.0,0.0,-30.82513,-37.64333,-6.58902,8.3,-0.58,3.04,3.0
1758088645.29832,1758088642.58271,0.0,0.0,0.0,-29.96569,-31.51268,-7.50575,8.33,-0.75,3.08,3.0
1758088645.30179,1758088642.59271,0.0,0.0,0.0,-27.04361,-19.48057,-5.90147,8.33,-0.75,2.83,3.0
1758088645.31904,1758088642.60271,0.0,0.0,0.0,-24.5226,-9.39651,-2.92208,8.86,-1.27,2.83,3.0
1758088645.33383,1758088642.61271,0.0,0.0,0.0,-21.42862,1.08862,1.60428,9.48,-1.71,2.63,3.0
1758088645.33587,1758088642.62271,0.0,0.0,0.0,-18.16276,11.00079,7.21927,9.48,-1.71,2.63,3.0
1758088645.35354,1758088642.63271,0.0,0.0,0.0,-13.80828,24.75178,15.87093,9.84,-1.64,2.31,3.0
1758088645.38237,1758088642.64271,0.0,0.0,0.0,-11.17268,32.88778,20.62648,9.84,-1.64,2.31,3.0
1758088645.38335,1758088642.65271,0.0,0.0,0.0,-8.76626,40.04975,24.12152,10.04,-1.08,2.29,3.0
1758088645.38589,1758088642.66271,0.0,0.0,0.0,-7.21927,46.69606,26.35606,10.04,-1.08,2.29,3.0
1758088645.3876,1758088642.67271,0.0,0.0,0.0,-6.70361,54.431,26.75713,9.76,-0.59,2.3,3.0
1758088645.40597,1758088642.68271,0.0,0.0,0.0,-7.21927,60.38975,25.26744,8.97,-0.37,2.33,3.0
1758088645.40804,1758088642.69271,0.0,0.0,0.0,-7.50575,60.67623,23.54857,8.97,-0.37,2.33,3.0
1758088645.42519,1758088642.70271,0.0,0.0,0.0,-8.65166,61.02001,20.74107,7.84,-0.43,2.35,3.0
1758088645.42619,1758088642.71271,0.0,0.0,0.0,-10.25595,61.02001,16.50119,7.84,-0.43,2.35,3.0
1758088645.44111,1758088642.72271,0.0,0.0,0.0,-11.17268,59.70221,13.40721,7.03,-0.61,2.2,3.0
1758088645.44484,1758088642.73271,0.0,0.0,0.0,-11.57375,56.66553,10.94349,7.03,-0.61,2.2,3.0
1758088645.461,1758088642.74271,0.0,0.0,0.0,-11.34457,52.76942,7.44845,5.9,-0.9,1.96,3.0
1758088645.46279,1758088642.75271,0.0,0.0,0.0,-11.17268,45.09178,4.98473,5.01,-1.1,1.98,3.0
1758088645.4802,1758088642.76271,0.0,0.0,0.0,-10.19865,38.1017,4.1253,5.01,-1.1,1.98,3.0
1758088645.48115,1758088642.77271,0.0,0.0,0.0,-9.11003,29.56462,4.64096,4.54,-1.16,2.02,3.0
1758088645.49805,1758088642.78271,0.0,0.0,0.0,-6.53172,12.2613,8.0787,4.54,-1.16,2.02,3.0
1758088645.65084,1758088642.79271,0.0,0.0,0.0,-6.58902,-13.17803,11.86023,4.07,-1.29,2.16,3.0
1758088645.65518,1758088642.80271,0.0,0.0,0.0,-4.23989,-36.32552,19.19409,4.07,-1.29,2.16,3.0
1758088645.65579,1758088642.81271,0.0,0.0,0.0,-2.40642,-50.13381,24.98096,3.78,-1.22,2.13,3.0
1758088645.65781,1758088642.82271,0.0,0.0,0.0,-1.71887,-57.58226,31.45539,5.22,-1.22,1.1,3.0
1758088645.65952,1758088642.83271,0.0,0.0,0.0,-1.48969,-58.67088,33.11696,5.22,-1.12,1.1,3.0
1758088645.66043,1758088642.84271,0.0,0.0,0.0,-0.57296,-56.78012,33.34615,6.11,-0.96,2.1,3.0
1758088645.66107,1758088642.85271,0.0,0.0,0.0,0.45837,-48.24305,32.20023,6.11,-0.96,2.1,3.0
1758088645.66383,1758088642.86271,0.0,0.0,0.0,2.92208,-26.24147,31.51268,8.37,-1.27,2.09,3.0
1758088645.66528,1758088642.87271,0.0,0.0,0.0,5.09932,-16.272,32.83048,8.37,-1.27,2.09,3.0
1758088645.66606,1758088642.88271,0.0,0.0,0.0,7.50575,-7.67763,36.38282,10.4,-1.69,2.67,3.0
1758088645.66742,1758088642.89271,0.0,0.0,0.0,10.19865,3.55234,41.13837,10.4,-1.69,2.67,3.0
1758088645.66785,1758088642.90271,0.0,0.0,0.0,12.77696,24.17882,51.27972,14.16,-2.03,2.89,3.0
1758088645.66911,1758088642.91271,0.0,0.0,0.0,14.83961,36.6693,57.12389,17.97,-2.22,2.84,3.0
1758088645.66985,1758088642.92271,0.0,0.0,0.0,16.10011,48.58683,60.96271,17.97,-2.22,2.84,3.0
1758088645.67126,1758088642.93271,0.0,0.0,0.0,16.55848,46.63877,56.37905,19.87,-2.44,3.68,3.0
1758088645.67323,1758088642.94271,0.0,0.0,0.0,12.60507,28.99167,44.28964,19.87,-2.44,3.68,3.0
1758088645.67438,1758088642.95271,0.0,0.0,0.0,14.72501,46.1231,37.87251,19.8,-3.19,5.43,3.0
1758088645.67499,1758088642.96271,0.0,0.0,0.0,14.03747,70.87489,28.07493,19.8,-3.19,5.43,3.0
1758088645.69104,1758088642.97271,0.0,0.0,0.0,7.96411,66.5204,14.66772,21.43,-3.3,7.89,3.0
1758088645.69307,1758088642.98271,0.0,0.0,0.0,3.20856,33.80451,7.33386,13.98,-2.08,7.31,3.0
1758088645.70802,1758088642.99271,0.0,0.0,0.0,0.34377,9.68299,2.06265,13.98,-2.08,7.31,3.0
1758088645.72508,1758088643.00271,0.0,0.0,0.0,0.17189,7.39116,-3.38045,12.1,-2.22,3.68,3.0
1758088645.72606,1758088643.01271,0.0,0.0,0.0,3.32316,7.79223,-12.60507,12.1,-2.22,3.68,3.0
1758088645.74132,1758088643.02271,0.0,0.0,0.0,8.59437,-5.21392,-15.92823,7.81,-2.29,4.26,3.0
1758088645.74228,1758088643.03271,0.0,0.0,0.0,12.60507,-23.49127,-17.99088,7.81,-2.29,4.26,3.0
1758088645.75707,1758088643.04271,0.0,0.0,0.0,14.78231,-39.3622,-18.85031,3.83,-2.34,5.1,3.0
1758088645.77386,1758088643.05271,0.0,0.0,0.0,14.72501,-60.73353,-18.50654,3.72,-1.75,4.82,3.0
1758088645.77542,1758088643.06271,0.0,0.0,0.0,13.12073,-74.31263,-16.38659,3.72,-1.75,4.82,3.0
1758088645.7901,1758088643.07271,0.0,0.0,0.0,10.65701,-85.02695,-13.5218,4.73,-0.76,4.71,3.0
1758088645.79294,1758088643.08271,0.0,0.0,0.0,9.05273,-90.87111,-9.68299,4.73,-0.76,4.71,3.0
1758088645.8091,1758088643.09271,0.0,0.0,0.0,7.33386,-92.18892,-4.58366,6.91,-0.47,4.61,3.0
1758088645.81111,1758088643.10271,0.0,0.0,0.0,8.36518,-94.19427,-1.08862,6.91,-0.47,4.61,3.0
1758088645.82735,1758088643.11271,0.0,0.0,0.0,9.85487,-95.97043,1.71887,7.31,-0.73,3.88,3.0
1758088645.84313,1758088643.12271,0.0,0.0,0.0,11.74564,-94.82452,4.18259,7.31,-0.73,3.88,3.0
1758088645.84505,1758088643.13271,0.0,0.0,0.0,15.98552,-86.74582,5.61499,7.25,-0.99,3.01,3.0
1758088645.86037,1758088643.14271,0.0,0.0,0.0,19.53786,-79.12547,5.27121,7.61,-0.95,2.59,3.0
1758088645.86132,1758088643.15271,0.0,0.0,0.0,22.00158,-68.52576,3.32316,7.61,-0.95,2.59,3.0
1758088645.8771,1758088643.16271,0.0,0.0,0.0,24.29341,-55.7488,-1.94806,8.44,-0.75,2.59,3.0
1758088645.8944,1758088643.17271,0.0,0.0,0.0,24.5226,-33.46074,-6.18794,8.44,-0.75,2.59,3.0
1758088645.89562,1758088643.18271,0.0,0.0,0.0,23.94964,-16.61578,-10.71431,9.39,-0.56,2.04,3.0
1758088645.91014,1758088643.19271,0.0,0.0,0.0,23.26209,-0.40107,-14.72501,9.39,-0.56,2.04,3.0
1758088645.91373,1758088643.20271,0.0,0.0,0.0,23.0902,17.99088,-19.70975,10.0,-0.49,1.61,3.0
1758088645.93376,1758088643.21271,0.0,0.0,0.0,23.66316,28.99167,-22.34536,10.01,-0.8,1.6,3.0
1758088645.9355,1758088643.22271,0.0,0.0,0.0,24.29341,38.61736,-24.35071,10.01,-0.8,1.6,3.0
1758088645.95359,1758088643.23271,0.0,0.0,0.0,24.63719,47.89928,-25.49662,9.76,-1.03,1.48,3.0
1758088645.95475,1758088643.24271,0.0,0.0,0.0,24.86637,57.63955,-26.18417,9.76,-1.03,1.48,3.0
1758088645.97012,1758088643.25271,0.0,0.0,0.0,25.61122,61.76485,-25.49662,8.59,-0.69,1.78,3.0
1758088645.97316,1758088643.26271,0.0,0.0,0.0,26.18417,65.77556,-24.23611,8.59,-0.69,1.78,3.0
1758088645.98921,1758088643.27271,0.0,0.0,0.0,26.47065,68.35387,-22.51724,7.7,-0.24,2.07,3.0
1758088646.00541,1758088643.28271,0.0,0.0,0.0,26.35606,67.89551,-19.99623,6.75,0.16,2.2,3.0
1758088646.00752,1758088643.29271,0.0,0.0,0.0,25.09555,64.62964,-18.27736,6.75,0.16,2.2,3.0
1758088646.02325,1758088643.30271,0.0,0.0,0.0,23.0902,60.90542,-17.18874,6.06,0.54,2.13,3.0
1758088646.02491,1758088643.31271,0.0,0.0,0.0,20.34,56.37905,-15.98552,6.06,0.54,2.13,3.0
1758088646.04034,1758088643.32271,0.0,0.0,0.0,15.69904,47.15443,-14.38124,5.84,0.89,2.17,3.0
1758088646.04335,1758088643.33271,0.0,0.0,0.0,11.86023,37.64333,-14.38124,5.84,0.89,2.17,3.0
1758088646.05924,1758088643.34271,0.0,0.0,0.0,7.73493,26.52795,-14.61043,5.63,1.14,2.21,3.0
1758088646.07537,1758088643.35271,0.0,0.0,0.0,3.72423,14.72501,-16.61578,5.63,1.14,2.21,3.0
1758088646.07747,1758088643.36271,0.0,0.0,0.0,-1.08862,0.17189,-18.73572,5.8,1.26,2.19,3.0
1758088646.09382,1758088643.37271,0.0,0.0,0.0,-3.60963,-5.84417,-21.37133,6.43,1.03,1.98,3.0
1758088646.09526,1758088643.38271,0.0,0.0,0.0,-5.55769,-11.97482,-24.00693,6.43,1.03,1.98,3.0
1758088646.11021,1758088643.39271,0.0,0.0,0.0,-7.67763,-23.0329,-27.67386,6.43,0.54,2.11,3.0
1758088646.11301,1758088643.40271,0.0,0.0,0.0,-8.88085,-28.64789,-29.50733,6.43,0.54,2.11,3.0
1758088646.13,1758088643.41271,0.0,0.0,0.0,-9.85487,-30.93972,-31.28349,6.95,0.18,2.08,3.0
1758088646.13304,1758088643.42271,0.0,0.0,0.0,-10.25595,-32.37212,-32.37212,6.95,0.18,2.08,3.0
1758088646.1502,1758088643.43271,0.0,0.0,0.0,-12.89155,-26.69983,-35.2369,8.37,-0.05,2.05,3.0
1758088646.18207,1758088643.44271,0.0,0.0,0.0,-13.5218,-23.20479,-35.75257,10.1,-0.18,2.23,3.0
1758088646.18755,1758088643.45271,0.0,0.0,0.0,-14.61043,-16.73037,-36.38282,10.1,-0.18,2.23,3.0
1758088646.188,1758088643.46271,0.0,0.0,0.0,-14.78231,-5.50039,-37.75792,12.88,-0.35,2.14,3.0
1758088646.18913,1758088643.47271,0.0,0.0,0.0,-14.78231,12.71966,-37.24226,12.88,-0.35,2.14,3.0
1758088646.20531,1758088643.48271,0.0,0.0,0.0,-14.20935,21.25674,-35.2369,16.54,-0.64,2.12,3.0
1758088646.20705,1758088643.49271,0.0,0.0,0.0,-13.00614,21.7724,-30.48136,16.54,-0.64,2.12,3.0
1758088646.22344,1758088643.50271,0.0,0.0,0.0,-9.91217,16.04282,-24.63719,18.22,-1.11,2.68,3.0
1758088646.23064,1758088643.51271,0.0,0.0,0.0,-7.16197,-20.11082,-19.19409,17.45,-0.79,4.15,3.0
1758088646.23548,1758088643.52271,0.0,0.0,0.0,0.51566,-6.8182,-17.47521,17.45,-0.79,4.15,3.0
1758088646.25316,1758088643.53271,0.0,0.0,0.0,6.99009,25.61122,-21.37133,22.68,-0.5,5.83,3.0
1758088646.25408,1758088643.54271,0.0,0.0,0.0,10.08406,52.02457,-29.27814,22.68,-0.5,5.83,3.0
1758088646.26955,1758088643.55271,0.0,0.0,0.0,14.03747,56.37905,-33.23156,18.42,-0.73,5.49,3.0
1758088646.28542,1758088643.56271,0.0,0.0,0.0,12.89155,42.68536,-29.33544,18.42,-0.73,5.49,3.0
1758088646.28759,1758088643.57271,0.0,0.0,0.0,9.39651,30.30947,-23.20479,13.04,0.67,4.7,3.0
1758088646.30425,1758088643.58271,0.0,0.0,0.0,1.43239,28.70519,-11.86023,13.04,0.67,4.7,3.0
1758088646.31063,1758088643.59271,0.0,0.0,0.0,-4.81285,27.96034,-5.15662,11.55,2.28,4.77,3.0
1758088646.31124,1758088643.60271,0.0,0.0,0.0,-10.48513,21.31403,0.11459,8.46,2.84,5.44,3.0
1758088646.32838,1758088643.61271,0.0,0.0,0.0,-14.9542,10.25595,3.72423,8.46,2.84,5.44,3.0
1758088646.35918,1758088643.62271,0.0,0.0,0.0,-19.76705,-13.40721,5.21392,5.34,2.28,5.77,3.0
1758088646.3602,1758088643.63271,0.0,0.0,0.0,-22.00158,-32.54401,4.18259,5.34,2.28,5.77,3.0
1758088646.36533,1758088643.64271,0.0,0.0,0.0,-23.60586,-53.80074,2.63561,3.63,1.11,5.42,3.0
1758088646.36578,1758088643.65271,0.0,0.0,0.0,-25.72581,-71.84892,0.51566,3.63,1.11,5.42,3.0
1758088646.3823,1758088643.66271,0.0,0.0,0.0,-28.59059,-87.0323,-1.94806,4.2,0.21,4.75,3.0
1758088646.38506,1758088643.67271,0.0,0.0,0.0,-31.51268,-89.6679,-3.89611,6.13,0.0,3.75,3.0
1758088646.42731,1758088643.68271,0.0,0.0,0.0,-34.89313,-89.95438,-5.72958,6.13,0.0,3.75,3.0
1758088646.4296,1758088643.69271,0.0,0.0,0.0,-38.78925,-88.35009,-7.84952,6.95,0.47,3.13,3.0
1758088646.43001,1758088643.70271,0.0,0.0,0.0,-42.97184,-84.79775,-8.88085,6.95,0.47,3.13,3.0
1758088646.43115,1758088643.71271,0.0,0.0,0.0,-46.35228,-81.18813,-9.33921,7.17,0.81,2.89,3.0
1758088646.43179,1758088643.72271,0.0,0.0,0.0,-48.41494,-75.22936,-8.30789,7.17,0.81,2.89,3.0
1758088646.47533,1758088643.73271,0.0,0.0,0.0,-49.38896,-66.29122,-6.47442,7.89,0.52,2.75,3.0
1758088646.47887,1758088643.74271,0.0,0.0,0.0,-48.70141,-47.78468,-2.00535,8.84,-0.25,2.19,3.0
1758088646.47951,1758088643.75271,0.0,0.0,0.0,-46.81066,-35.86716,1.66158,8.84,-0.25,2.19,3.0
1758088646.48075,1758088643.76271,0.0,0.0,0.0,-44.51882,-24.57989,5.90147,9.17,-0.95,2.0,3.0
1758088646.48241,1758088643.77271,0.0,0.0,0.0,-42.28429,-12.54778,13.00614,9.17,-0.95,2.0,3.0
1758088646.49936,1758088643.78271,0.0,0.0,0.0,-41.08107,6.87549,17.01685,9.93,-1.18,1.87,3.0
1758088646.51569,1758088643.79271,0.0,0.0,0.0,-40.27893,19.82434,20.51189,9.93,-1.18,1.87,3.0
1758088646.51655,1758088643.80271,0.0,0.0,0.0,-39.99245,31.97105,22.05888,10.49,-0.79,1.66,3.0
1758088646.53327,1758088643.81271,0.0,0.0,0.0,-40.45082,49.21708,22.74642,10.49,-0.79,1.66,3.0
1758088646.53499,1758088643.82271,0.0,0.0,0.0,-41.48215,59.64491,21.6578,10.09,-0.37,1.84,3.0
1758088646.55064,1758088643.83271,0.0,0.0,0.0,-42.68536,67.15066,19.82434,9.18,-0.17,1.96,3.0
1758088646.55161,1758088643.84271,0.0,0.0,0.0,-43.54479,74.31263,17.13144,9.18,-0.17,1.96,3.0
1758088646.56946,1758088643.85271,0.0,0.0,0.0,-43.77398,81.93298,13.5791,8.56,-0.16,2.33,3.0
1758088646.58538,1758088643.86271,0.0,0.0,0.0,-43.60209,82.33404,11.00079,8.56,-0.16,2.33,3.0
1758088646.5874,1758088643.87271,0.0,0.0,0.0,-42.91454,80.44328,8.88085,7.45,-0.43,2.3,3.0
1758088646.6024,1758088643.88271,0.0,0.0,0.0,-41.94051,77.4639,7.10468,7.45,-0.43,2.3,3.0
1758088646.60437,1758088643.89271,0.0,0.0,0.0,-40.16434,72.47916,5.32851,6.67,-0.75,2.18,3.0
1758088646.61939,1758088643.90271,0.0,0.0,0.0,-38.44547,66.74959,5.21392,6.09,-1.11,2.11,3.0
1758088646.6357,1758088643.91271,0.0,0.0,0.0,-36.49741,59.18654,5.84417,6.09,-1.11,2.11,3.0
1758088646.63662,1758088643.92271,0.0,0.0,0.0,-33.86181,50.59217,7.39116,5.69,-1.31,2.1,3.0
1758088646.65307,1758088643.93271,0.0,0.0,0.0,-30.25217,37.47144,11.11538,5.69,-1.31,2.1,3.0
1758088646.65424,1758088643.94271,0.0,0.0,0.0,-30.36677,13.98017,13.40721,5.57,-1.58,2.21,3.0
1758088646.66949,1758088643.95271,0.0,0.0,0.0,-27.38738,-8.47978,20.34,5.57,-1.58,2.21,3.0
1758088646.68573,1758088643.96271,0.0,0.0,0.0,-25.7831,-21.60051,28.476,5.18,-1.73,2.6,3.0
1758088646.68692,1758088643.97271,0.0,0.0,0.0,-21.94428,-22.05888,33.34615,7.02,-1.81,1.73,3.0
1758088646.70571,1758088643.98271,0.0,0.0,0.0,-19.42327,-17.01685,36.95578,7.02,-1.81,1.73,3.0
1758088646.70667,1758088643.99271,0.0,0.0,0.0,-16.50119,-14.15206,39.07573,7.4,-1.67,2.28,3.0
1758088646.72155,1758088644.00271,0.0,0.0,0.0,-11.80293,-14.83961,38.84654,7.4,-1.67,2.28,3.0
1758088646.72664,1758088644.01271,0.0,0.0,0.0,-8.36518,-15.69904,38.1017,7.04,-1.71,1.97,3.0
1758088646.74153,1758088644.02271,0.0,0.0,0.0,-5.09932,-14.61043,37.35685,7.04,-1.71,1.97,3.0
1758088646.74425,1758088644.03271,0.0,0.0,0.0,-1.94806,-11.28727,37.18496,8.3,-1.69,1.86,3.0
1758088646.76072,1758088644.04271,0.0,0.0,0.0,1.60428,-2.63561,37.29956,8.3,-1.69,2.57,3.0
1758088646.76166,1758088644.05271,0.0,0.0,0.0,3.03668,3.83882,37.35685,11.32,-1.75,2.57,3.0
1758088646.77937,1758088644.06271,0.0,0.0,0.0,3.20856,7.73493,36.61201,14.81,-1.8,3.3,3.0
1758088646.79548,1758088644.07271,0.0,0.0,0.0,1.08862,12.08941,33.00237,14.81,-1.8,3.3,3.0
1758088646.79901,1758088644.08271,0.0,0.0,0.0,-2.86479,39.24761,24.98096,18.06,-1.83,3.75,3.0
1758088646.81475,1758088644.09271,0.0,0.0,0.0,-4.87014,64.11398,20.34,18.06,-1.83,3.75,3.0
1758088646.81575,1758088644.10271,0.0,0.0,0.0,-6.24524,70.47381,16.50119,20.32,-2.43,5.98,3.0
1758088646.83049,1758088644.11271,0.0,0.0,0.0,-12.204,46.00851,9.62569,20.32,-2.43,5.98,3.0
1758088646.83212,1758088644.12271,0.0,0.0,0.0,-16.21471,7.67763,11.28727,15.18,-2.51,7.56,3.0
1758088646.84779,1758088644.13271,0.0,0.0,0.0,-19.42327,10.48513,6.7609,16.14,-2.75,4.58,3.0
1758088646.86562,1758088644.14271,0.0,0.0,0.0,-20.05352,22.74642,0.17189,16.14,-2.75,4.58,3.0
1758088646.88034,1758088644.15271,0.0,0.0,0.0,-16.67307,25.21014,-4.46907,12.95,-3.38,4.43,3.0
1758088646.88227,1758088644.16271,0.0,0.0,0.0,-10.08406,12.83425,-12.08941,12.95,-3.38,4.43,3.0
1758088646.88544,1758088644.17271,0.0,0.0,0.0,-5.32851,4.23989,-15.35527,8.29,-3.91,4.74,3.0
1758088646.90073,1758088644.18271,0.0,0.0,0.0,-1.03132,-5.50039,-17.24603,8.29,-3.91,4.74,3.0
1758088646.90174,1758088644.19271,0.0,0.0,0.0,4.23989,-27.1582,-17.99088,5.65,-3.4,4.76,3.0
1758088646.91855,1758088644.20271,0.0,0.0,0.0,6.7609,-41.31026,-16.67307,4.38,-2.45,5.56,3.0
1758088646.93453,1758088644.21271,0.0,0.0,0.0,8.30789,-51.39432,-13.69369,4.38,-2.45,5.56,3.0
1758088646.93581,1758088644.22271,0.0,0.0,0.0,9.39651,-61.07731,-10.19865,5.74,-1.65,6.12,3.0
1758088646.95055,1758088644.23271,0.0,0.0,0.0,10.54242,-74.88559,-4.52637,5.74,-1.65,6.12,3.0
1758088646.95175,1758088644.24271,0.0,0.0,0.0,11.45916,-78.38063,-1.08862,7.1,-1.29,5.54,3.0
1758088646.96776,1758088644.25271,0.0,0.0,0.0,12.77696,-79.01089,1.48969,7.1,-1.29,5.54,3.0
1758088646.98384,1758088644.26271,0.0,0.0,0.0,14.03747,-79.98491,5.55769,8.25,-1.38,4.72,3.0
1758088646.98549,1758088644.27271,0.0,0.0,0.0,17.18874,-75.00018,8.36518,8.18,-1.51,4.1,3.0
1758088647.00058,1758088644.28271,0.0,0.0,0.0,19.88164,-69.49979,8.47978,8.18,-1.51,4.1,3.0
1758088647.00177,1758088644.29271,0.0,0.0,0.0,22.05888,-63.02536,6.87549,7.67,-1.3,3.44,3.0
1758088647.01955,1758088644.30271,0.0,0.0,0.0,23.49127,-55.23313,3.32316,7.67,-1.3,3.44,3.0
1758088647.03584,1758088644.31271,0.0,0.0,0.0,24.35071,-40.7946,-4.29718,7.93,-0.58,3.11,3.0
1758088647.04023,1758088644.32271,0.0,0.0,0.0,23.94964,-30.76784,-10.19865,7.93,-0.58,3.11,3.0
1758088647.05586,1758088644.33271,0.0,0.0,0.0,22.91831,-18.9649,-15.98552,8.74,-0.11,2.66,3.0
1758088647.05713,1758088644.34271,0.0,0.0,0.0,21.88699,-6.53172,-21.31403,8.74,-0.11,2.66,3.0
1758088647.07185,1758088644.35271,0.0,0.0,0.0,20.62648,10.37054,-27.67386,9.71,-0.38,2.26,3.0
1758088647.07307,1758088644.36271,0.0,0.0,0.0,20.68378,20.34,-30.76784,9.97,-1.04,2.25,3.0
1758088647.08948,1758088644.37271,0.0,0.0,0.0,21.42862,28.59059,-33.11696,9.97,-1.04,2.25,3.0
1758088647.10572,1758088644.38271,0.0,0.0,0.0,22.40265,36.7266,-34.89313,9.85,-1.44,2.15,3.0
1758088647.10912,1758088644.39271,0.0,0.0,0.0,23.94964,48.64412,-34.95043,9.85,-1.44,2.15,3.0
1758088647.1249,1758088644.40271,0.0,0.0,0.0,25.7831,54.77477,-34.66395,9.43,-1.34,2.07,3.0
1758088647.12585,1758088644.41271,0.0,0.0,0.0,28.01764,60.16057,-34.14828,9.43,-1.34,2.07,3.0
1758088647.14091,1758088644.42271,0.0,0.0,0.0,31.62727,61.42108,-32.25753,8.33,-1.07,2.13,3.0
1758088647.14604,1758088644.43271,0.0,0.0,0.0,33.34615,62.16592,-30.36677,7.27,-0.71,2.26,3.0
1758088647.16576,1758088644.44271,0.0,0.0,0.0,33.74722,62.96807,-29.39274,7.27,-0.71,2.26,3.0
1758088647.17089,1758088644.45271,0.0,0.0,0.0,33.40344,60.79083,-28.476,6.51,-0.23,1.94,3.0
1758088647.18591,1758088644.46271,0.0,0.0,0.0,31.39809,54.3164,-28.01764,6.51,-0.23,1.94,3.0
1758088647.18923,1758088644.47271,0.0,0.0,0.0,29.27814,47.32632,-28.59059,5.9,0.27,2.02,3.0
1758088647.20566,1758088644.48271,0.0,0.0,0.0,26.75713,38.78925,-29.56462,5.9,0.27,2.02,3.0
1758088647.21016,1758088644.49271,0.0,0.0,0.0,23.49127,30.19488,-31.11161,5.7,0.78,2.11,3.0
1758088647.22564,1758088644.50271,0.0,0.0,0.0,18.33465,14.83961,-33.80451,5.61,1.19,2.0,3.0
1758088647.23047,1758088644.51271,0.0,0.0,0.0,15.46986,2.57831,-36.15364,5.61,1.19,2.0,3.0
1758088647.2457,1758088644.52271,0.0,0.0,0.0,13.17803,-10.08406,-38.50277,5.46,1.32,2.45,3.0
1758088647.25087,1758088644.53271,0.0,0.0,0.0,11.22997,-21.42862,-40.50812,5.46,1.32,2.45,3.0
1758088647.26596,1758088644.54271,0.0,0.0,0.0,9.68299,-39.07573,-41.99781,5.76,1.07,2.4,3.0
1758088647.26725,1758088644.55271,0.0,0.0,0.0,7.62034,-43.14373,-42.39888,5.76,1.07,2.4,3.0
1758088647.2842,1758088644.56271,0.0,0.0,0.0,5.4431,-43.77398,-42.74266,6.42,0.76,2.27,3.0
1758088647.2901,1758088644.57271,0.0,0.0,0.0,2.92208,-44.748,-41.42485,6.42,0.76,2.27,3.0
1758088647.30569,1758088644.58271,0.0,0.0,0.0,-1.03132,-46.40959,-38.73195,6.87,0.76,2.19,3.0
1758088647.30695,1758088644.59271,0.0,0.0,0.0,-4.1253,-45.77933,-36.55471,6.94,0.97,1.81,3.0
1758088647.32195,1758088644.60271,0.0,0.0,0.0,-7.62034,-43.02913,-34.14828,6.94,0.97,1.81,3.0
1758088647.32377,1758088644.61271,0.0,0.0,0.0,-12.89155,-37.64333,-30.30947,7.61,1.27,1.27,3.0
1758088647.33977,1758088644.62271,0.0,0.0,0.0,-16.67307,-32.08564,-27.38738,7.61,1.27,1.27,3.0
1758088647.34506,1758088644.63271,0.0,0.0,0.0,-18.9649,-30.59595,-22.91831,8.98,1.41,1.11,3.0
1758088647.36083,1758088644.64271,0.0,0.0,0.0,-20.97026,-28.30412,-17.81899,8.98,1.41,1.11,3.0
1758088647.43122,1758088644.65271,0.0,0.0,0.0,-23.83505,-34.89313,-12.2613,11.28,1.68,1.47,3.0
1758088647.43433,1758088644.66271,0.0,0.0,0.0,-26.12688,-18.33465,-8.42248,15.4,1.97,1.72,3.0
1758088647.43473,1758088644.67271,0.0,0.0,0.0,-26.18417,17.47521,-8.65166,15.4,1.97,1.72,3.0
1758088647.43597,1758088644.68271,0.0,0.0,0.0,-28.13223,48.41494,-10.25595,19.76,1.48,1.66,3.0
1758088647.43658,1758088644.69271,0.0,0.0,0.0,-29.8511,59.87409,-16.61578,19.76,1.48,1.66,3.0
1758088647.43948,1758088644.70271,0.0,0.0,0.0,-26.81443,54.431,-15.64175,17.2,0.97,2.73,3.0
1758088647.44006,1758088644.71271,0.0,0.0,0.0,-22.91831,19.88164,-15.12609,17.2,0.97,2.73,3.0
1758088647.44082,1758088644.72271,0.0,0.0,0.0,-27.1582,6.07335,-25.09555,15.12,0.59,4.13,3.0
1758088647.44193,1758088644.73271,0.0,0.0,0.0,-18.62113,52.884,-30.13758,20.8,0.17,4.61,3.0
1758088647.45937,1758088644.74271,0.0,0.0,0.0,-11.74564,73.05212,-31.91375,20.8,0.17,4.61,3.0
1758088647.47509,1758088644.75271,0.0,0.0,0.0,-5.27121,75.05748,-30.53865,17.22,-0.85,5.8,3.0
1758088647.47596,1758088644.76271,0.0,0.0,0.0,-0.97403,67.32255,-25.72581,17.22,-0.85,5.8,3.0
1758088647.49108,1758088644.77271,0.0,0.0,0.0,1.08862,56.14987,-16.38659,13.95,0.16,4.58,3.0
1758088647.492,1758088644.78271,0.0,0.0,0.0,-1.43239,53.39967,-9.39651,13.95,0.16,4.58,3.0
1758088647.51126,1758088644.79271,0.0,0.0,0.0,-7.67763,48.41494,-3.95341,11.81,2.09,4.6,3.0
1758088647.51242,1758088644.80271,0.0,0.0,0.0,-20.11082,38.44547,0.51566,11.81,2.09,4.6,3.0
1758088647.52885,1758088644.81271,0.0,0.0,0.0,-28.41871,21.88699,1.94806,8.39,3.11,5.96,3.0
1758088647.54481,1758088644.82271,0.0,0.0,0.0,-35.2942,5.95876,2.00535,5.88,3.07,6.3,3.0
1758088647.546,1758088644.83271,0.0,0.0,0.0,-40.39353,-13.86558,0.40107,5.88,3.07,6.3,3.0
1758088647.56108,1758088644.84271,0.0,0.0,0.0,-44.9199,-45.83662,-2.57831,3.91,2.04,6.13,3.0
1758088647.56471,1758088644.85271,0.0,0.0,0.0,-46.1804,-65.43179,-4.35448,3.91,2.04,6.13,3.0
1758088647.57994,1758088644.86271,0.0,0.0,0.0,-46.35228,-83.82372,-5.90147,3.92,0.72,4.91,3.0
1758088647.62513,1758088644.87271,0.0,0.0,0.0,-45.37826,-97.23093,-7.39116,3.92,0.72,4.91,3.0
1758088647.62949,1758088644.88271,0.0,0.0,0.0,-43.20102,-102.78864,-10.31324,5.18,-0.44,4.23,3.0
1758088647.63011,1758088644.89271,0.0,0.0,0.0,-41.94051,-99.40818,-11.91752,7.41,-1.1,3.91,3.0
