timeStamp,timeStampAlign,roll,pitch,yaw,gyro_x,gyro_y,gyro_z,acc_x,acc_y,acc_z,flag_num
1758074543.65655,1758074543.43384,0.0,0.0,0.0,-30.82513,-9.74028,11.57375,9.44,-0.63,1.53,2.0
1758074543.65776,1758074543.44384,0.0,0.0,0.0,-28.76248,-9.85487,11.97482,9.6,-0.66,1.36,2.0
1758074543.67337,1758074543.45384,0.0,0.0,0.0,-26.41335,-9.11003,12.54778,9.6,-0.66,1.36,2.0
1758074543.69072,1758074543.46384,0.0,0.0,0.0,-25.55392,-6.99009,12.89155,9.75,-0.37,1.47,2.0
1758074543.69179,1758074543.47384,0.0,0.0,0.0,-25.55392,-5.50039,13.5791,9.75,-0.37,1.47,2.0
1758074543.70764,1758074543.48384,0.0,0.0,0.0,-26.06958,-4.64096,14.15206,9.83,0.07,1.64,2.0
1758074543.70882,1758074543.49384,0.0,0.0,0.0,-27.84575,-4.0107,14.83961,9.83,0.07,1.64,2.0
1758074543.72462,1758074543.50384,0.0,0.0,0.0,-29.04896,-3.32316,15.41257,9.97,0.54,1.64,2.0
1758074543.74093,1758074543.51384,0.0,0.0,0.0,-30.53865,-3.49504,15.75634,10.13,0.8,1.64,2.0
1758074543.74371,1758074543.52384,0.0,0.0,0.0,-31.74186,-4.18259,15.58445,10.13,0.8,1.64,2.0
1758074543.76095,1758074543.53384,0.0,0.0,0.0,-33.00237,-5.61499,15.06879,10.01,0.79,1.56,2.0
1758074543.76183,1758074543.54384,0.0,0.0,0.0,-33.63263,-7.67763,14.43854,10.01,0.79,1.56,2.0
1758074543.78089,1758074543.55384,0.0,0.0,0.0,-34.26288,-9.74028,13.86558,9.71,0.61,1.43,2.0
1758074543.78188,1758074543.56384,0.0,0.0,0.0,-34.60666,-11.57375,13.23533,9.71,0.61,1.43,2.0
1758074543.7967,1758074543.57384,0.0,0.0,0.0,-35.75257,-13.46451,12.49048,9.46,0.4,1.24,2.0
1758074543.79882,1758074543.58384,0.0,0.0,0.0,-36.89849,-14.43854,12.08941,9.31,0.3,1.09,2.0
1758074543.81477,1758074543.59384,0.0,0.0,0.0,-38.21629,-14.72501,11.86023,9.31,0.3,1.09,2.0
1758074543.83102,1758074543.60384,0.0,0.0,0.0,-39.4768,-14.49583,11.63104,9.3,0.3,0.9,2.0
1758074543.83219,1758074543.61384,0.0,0.0,0.0,-41.65404,-13.34992,11.97482,9.3,0.3,0.9,2.0
1758074543.84711,1758074543.62384,0.0,0.0,0.0,-42.91454,-11.97482,12.37589,9.4,0.4,0.71,2.0
1758074543.84908,1758074543.63384,0.0,0.0,0.0,-43.65939,-9.22462,13.06344,9.4,0.4,0.71,2.0
1758074543.86613,1758074543.64384,0.0,0.0,0.0,-43.60209,-7.16197,14.20935,9.86,0.45,0.8,2.0
1758074543.86781,1758074543.65384,0.0,0.0,0.0,-42.68536,-13.12073,15.87093,9.78,0.22,1.02,2.0
1758074543.88318,1758074543.66384,0.0,0.0,0.0,-42.22699,-19.36597,16.272,9.78,0.22,1.02,2.0
1758074543.89982,1758074543.67384,0.0,0.0,0.0,-41.94051,-23.72045,16.272,9.87,0.16,1.39,2.0
1758074543.90102,1758074543.68384,0.0,0.0,0.0,-41.31026,-28.476,15.12609,9.87,0.16,1.39,2.0
1758074543.9161,1758074543.69384,0.0,0.0,0.0,-39.19032,-27.1582,12.2613,11.43,-0.49,2.42,2.0
1758074543.91698,1758074543.70384,0.0,0.0,0.0,-35.00772,-20.85567,8.59437,11.43,-0.49,2.42,2.0
1758074543.93307,1758074543.71384,0.0,0.0,0.0,-29.39274,-13.69369,4.64096,15.18,-2.53,3.64,2.0
1758074543.9488,1758074543.72384,0.0,0.0,0.0,-19.59516,-12.60507,0.97403,15.18,-2.53,4.0,2.0
1758074543.95113,1758074543.73384,0.0,0.0,0.0,-13.5218,-17.58981,0.68755,15.34,-4.37,4.0,2.0
1758074543.96597,1758074543.74384,0.0,0.0,0.0,-8.76626,-24.4653,2.63561,12.2,-4.36,3.25,2.0
1758074543.96726,1758074543.75384,0.0,0.0,0.0,-5.50039,-30.88243,6.35983,12.2,-4.36,3.25,2.0
1758074543.98631,1758074543.76384,0.0,0.0,0.0,-1.48969,-38.78925,13.86558,9.59,-2.15,1.96,2.0
1758074543.98759,1758074543.77384,0.0,0.0,0.0,0.22918,-43.14373,18.73572,9.59,-2.15,1.96,2.0
1758074544.00292,1758074543.78384,0.0,0.0,0.0,0.51566,-47.26902,22.34536,7.87,-0.28,1.88,2.0
1758074544.01912,1758074543.79384,0.0,0.0,0.0,-0.45837,-51.39432,24.80907,7.87,-0.28,1.88,2.0
1758074544.02083,1758074543.80384,0.0,0.0,0.0,-5.55769,-53.45696,25.72581,6.78,0.18,1.86,2.0
1758074544.03584,1758074543.81384,0.0,0.0,0.0,-10.19865,-52.08187,24.80907,6.99,-0.13,2.29,2.0
1758074544.03704,1758074543.82384,0.0,0.0,0.0,-15.87093,-47.32632,22.34536,6.99,-0.13,2.29,2.0
1758074544.05309,1758074543.83384,0.0,0.0,0.0,-21.7724,-39.01843,18.85031,8.04,-0.84,2.58,2.0
1758074544.06893,1758074543.84384,0.0,0.0,0.0,-29.04896,-19.07949,11.00079,8.04,-0.84,2.58,2.0
1758074544.07007,1758074543.85384,0.0,0.0,0.0,-32.71589,-7.04738,6.87549,9.69,-1.81,2.44,2.0
1758074544.08509,1758074543.86384,0.0,0.0,0.0,-35.2942,11.11538,1.94806,9.69,-1.81,2.44,2.0
1758074544.10116,1758074543.87384,0.0,0.0,0.0,-34.14828,28.24682,-2.34913,11.56,-3.05,1.6,2.0
1758074544.10314,1758074543.88384,0.0,0.0,0.0,-30.93972,47.03984,-3.20856,11.94,-4.12,0.52,2.0
1758074544.12058,1758074543.89384,0.0,0.0,0.0,-26.69983,52.02457,-3.26586,11.94,-4.12,0.52,2.0
1758074544.12147,1758074543.90384,0.0,0.0,0.0,-21.14215,53.80074,-2.86479,11.06,-4.22,0.56,2.0
1758074544.13713,1758074543.91384,0.0,0.0,0.0,-10.8862,53.74345,-0.97403,11.06,-4.22,0.56,2.0
1758074544.13923,1758074543.92384,0.0,0.0,0.0,-3.66693,51.85268,0.57296,10.41,-3.45,0.35,2.0
1758074544.15578,1758074543.93384,0.0,0.0,0.0,3.09397,51.5662,2.34913,10.41,-3.45,0.35,2.0
1758074544.17117,1758074543.94384,0.0,0.0,0.0,9.39651,53.11319,4.23989,10.11,-2.81,0.44,2.0
1758074544.1729,1758074543.95384,0.0,0.0,0.0,17.01685,55.40502,7.10468,9.99,-2.81,0.68,2.0
1758074544.18877,1758074543.96384,0.0,0.0,0.0,21.42862,55.57691,9.39651,9.99,-2.65,0.68,2.0
1758074544.1899,1758074543.97384,0.0,0.0,0.0,25.21014,54.88936,11.74564,9.35,-2.58,1.15,2.0
1758074544.20508,1758074543.98384,0.0,0.0,0.0,28.476,52.82671,13.98017,9.35,-2.58,1.15,2.0
1758074544.22097,1758074543.99384,0.0,0.0,0.0,31.85646,48.24305,16.272,8.56,-2.41,1.08,2.0
1758074544.22303,1758074544.00384,0.0,0.0,0.0,33.05967,44.40423,16.67307,8.56,-2.41,1.08,2.0
1758074544.23803,1758074544.01384,0.0,0.0,0.0,33.34615,40.39353,16.04282,8.32,-2.25,1.03,2.0
1758074544.24106,1758074544.02384,0.0,0.0,0.0,32.83048,35.86716,14.20935,8.32,-2.25,1.03,2.0
1758074544.25602,1758074544.03384,0.0,0.0,0.0,31.2262,28.476,9.62569,8.54,-2.16,0.99,2.0
1758074544.25714,1758074544.04384,0.0,0.0,0.0,30.02299,24.57989,6.41713,8.99,-2.05,1.0,2.0
1758074544.27379,1758074544.05384,0.0,0.0,0.0,28.41871,22.23076,3.09397,8.99,-2.05,1.0,2.0
1758074544.28995,1758074544.06384,0.0,0.0,0.0,27.44468,20.3973,-0.0573,9.55,-1.9,1.06,2.0
1758074544.29112,1758074544.07384,0.0,0.0,0.0,27.10091,18.22006,-0.51566,9.55,-1.9,1.06,2.0
1758074544.30597,1758074544.08384,0.0,0.0,0.0,28.36141,20.51189,-0.0573,9.66,-1.96,1.12,2.0
1758074544.30715,1758074544.09384,0.0,0.0,0.0,30.76784,26.35606,0.40107,9.66,-1.96,1.12,2.0
1758074544.32303,1758074544.10384,0.0,0.0,0.0,35.69527,37.35685,1.20321,10.07,-2.36,1.12,2.0
1758074544.33925,1758074544.11384,0.0,0.0,0.0,39.82057,43.20102,1.77617,9.98,-2.73,1.39,2.0
1758074544.34027,1758074544.12384,0.0,0.0,0.0,44.17505,47.38361,2.34913,9.98,-2.73,1.39,2.0
1758074544.35614,1758074544.13384,0.0,0.0,0.0,48.70141,49.56085,2.97938,9.83,-2.73,1.62,2.0
1758074544.35704,1758074544.14384,0.0,0.0,0.0,55.11855,50.76406,4.46907,9.83,-2.73,1.62,2.0
1758074544.37331,1758074544.15384,0.0,0.0,0.0,59.41573,50.53488,5.72958,9.67,-2.52,1.34,2.0
1758074544.39007,1758074544.16384,0.0,0.0,0.0,62.91077,49.33167,6.47442,9.67,-2.52,1.34,2.0
1758074544.39292,1758074544.17384,0.0,0.0,0.0,66.29122,43.94586,7.33386,9.3,-2.26,1.24,2.0
1758074544.4091,1758074544.18384,0.0,0.0,0.0,68.69764,26.01229,7.50575,8.23,-1.94,1.03,2.0
1758074544.41036,1758074544.19384,0.0,0.0,0.0,68.58305,19.36597,4.69825,8.23,-1.94,1.03,2.0
1758074544.42595,1758074544.20384,0.0,0.0,0.0,70.6457,26.81443,3.20856,9.3,-1.86,0.46,2.0
1758074544.43062,1758074544.21384,0.0,0.0,0.0,73.73967,37.92981,3.09397,9.3,-1.86,0.46,2.0
1758074544.44607,1758074544.22383,0.0,0.0,0.0,78.49522,55.06125,1.08862,10.27,-1.74,0.9,2.0
1758074544.44916,1758074544.23383,0.0,0.0,0.0,81.36001,57.92604,-1.66158,10.27,-1.74,0.9,2.0
1758074544.46582,1758074544.24383,0.0,0.0,0.0,84.39669,46.1231,-5.61499,8.16,-1.45,1.54,2.0
1758074544.4698,1758074544.25383,0.0,0.0,0.0,83.65184,20.97026,-11.11538,8.16,-1.45,1.54,2.0
1758074544.48616,1758074544.26383,0.0,0.0,0.0,88.17821,-24.80907,-3.49504,5.62,-0.91,0.73,2.0
1758074544.48772,1758074544.27383,0.0,0.0,0.0,89.32412,-32.25753,-0.34377,9.0,-1.0,-0.28,2.0
1758074544.50516,1758074544.28383,0.0,0.0,0.0,90.06896,-35.06502,1.3178,9.0,-1.0,-0.28,2.0
1758074544.5211,1758074544.29383,0.0,0.0,0.0,92.41809,-40.10705,3.32316,9.54,-1.05,-0.46,2.0
1758074544.52309,1758074544.30383,0.0,0.0,0.0,92.18892,-41.59674,4.52637,9.54,-1.05,-0.46,2.0
1758074544.53914,1758074544.31383,0.0,0.0,0.0,90.12627,-38.27358,4.35448,10.34,-0.82,2.58,2.0
1758074544.54125,1758074544.32383,0.0,0.0,0.0,86.05827,-38.61736,1.71887,10.34,-0.82,2.58,2.0
1758074544.55643,1758074544.33383,0.0,0.0,0.0,77.12012,-49.15978,-2.29183,11.26,0.13,3.76,2.0
1758074544.55737,1758074544.34383,0.0,0.0,0.0,67.32255,-53.45696,-2.06265,13.43,2.27,5.79,2.0
1758074544.57501,1758074544.35383,0.0,0.0,0.0,54.3164,-51.90998,-0.97403,13.43,2.27,5.79,2.0
1758074544.5915,1758074544.36383,0.0,0.0,0.0,39.4195,-46.86795,-0.97403,16.39,4.33,7.91,2.0
1758074544.59236,1758074544.37383,0.0,0.0,0.0,15.69904,-38.50277,-1.48969,16.39,4.33,7.91,2.0
1758074544.61023,1758074544.38383,0.0,0.0,0.0,1.94806,-30.59595,-2.06265,15.58,4.52,6.49,2.0
1758074544.61252,1758074544.39383,0.0,0.0,0.0,-6.87549,-24.29341,-3.49504,15.58,4.52,6.49,2.0
1758074544.62896,1758074544.40383,0.0,0.0,0.0,-12.49048,-23.37668,-4.46907,12.2,0.5,5.43,2.0
1758074544.63078,1758074544.41383,0.0,0.0,0.0,-11.45916,-18.22006,-10.25595,8.62,-2.8,5.32,2.0
1758074544.64654,1758074544.42383,0.0,0.0,0.0,-6.41713,-19.88164,-13.5218,8.62,-2.8,5.32,2.0
1758074544.65134,1758074544.43383,0.0,0.0,0.0,1.60428,-23.0902,-17.18874,6.44,-4.61,4.63,2.0
1758074544.66998,1758074544.44383,0.0,0.0,0.0,11.17268,-29.39274,-19.59516,6.44,-4.61,4.63,2.0
1758074544.67117,1758074544.45383,0.0,0.0,0.0,27.84575,-39.07573,-18.44924,6.68,-5.37,4.35,2.0
1758074544.68618,1758074544.46383,0.0,0.0,0.0,38.61736,-36.03905,-14.78231,6.68,-5.37,4.35,2.0
1758074544.68925,1758074544.47383,0.0,0.0,0.0,47.72739,-27.78845,-10.02676,8.99,-4.05,3.19,2.0
1758074544.70627,1758074544.48383,0.0,0.0,0.0,54.66018,-19.25138,-4.87014,8.99,-4.05,3.19,2.0
1758074544.70742,1758074544.49383,0.0,0.0,0.0,61.42108,-11.63104,-2.92208,9.31,-1.75,3.13,2.0
1758074544.725,1758074544.50383,0.0,0.0,0.0,63.25455,-7.84952,-2.46372,8.51,0.15,3.23,2.0
1758074544.74155,1758074544.51383,0.0,0.0,0.0,63.31184,-4.0107,-2.63561,8.51,0.15,3.23,2.0
1758074544.74484,1758074544.52383,0.0,0.0,0.0,60.44705,3.60963,-3.20856,8.91,1.44,3.09,2.0
1758074544.76051,1758074544.53383,0.0,0.0,0.0,58.04062,8.0787,-3.72423,8.91,1.44,3.09,2.0
1758074544.76145,1758074544.54383,0.0,0.0,0.0,54.08722,10.8289,-3.26586,9.14,1.98,3.05,2.0
1758074544.77625,1758074544.55383,0.0,0.0,0.0,49.50356,13.75099,-2.34913,9.14,1.98,3.05,2.0
1758074544.79453,1758074544.56383,0.0,0.0,0.0,41.99781,17.81899,0.45837,9.4,1.77,3.21,2.0
1758074544.79528,1758074544.57383,0.0,0.0,0.0,36.61201,19.70975,1.83346,9.24,1.07,3.26,2.0
1758074544.79732,1758074544.58383,0.0,0.0,0.0,31.11161,20.85567,2.23454,9.24,1.07,3.26,2.0
1758074544.81572,1758074544.59383,0.0,0.0,0.0,26.12688,21.08485,2.40642,8.66,0.67,3.1,2.0
1758074544.85484,1758074544.60383,0.0,0.0,0.0,20.05352,19.53786,2.63561,8.66,0.67,3.1,2.0
1758074544.85696,1758074544.61383,0.0,0.0,0.0,17.30333,18.44924,2.7502,8.48,0.83,3.04,2.0
1758074544.93092,1758074544.62383,0.0,0.0,0.0,15.64175,16.50119,3.83882,8.48,0.83,3.04,2.0
1758074544.93136,1758074544.63383,0.0,0.0,0.0,14.78231,14.61043,4.52637,8.71,1.07,2.92,2.0
1758074544.93581,1758074544.64383,0.0,0.0,0.0,15.24068,13.00614,5.72958,8.94,1.05,2.93,2.0
1758074544.9382,1758074544.65383,0.0,0.0,0.0,16.3293,11.51645,6.24524,8.94,1.05,2.93,2.0
1758074544.94474,1758074544.66383,0.0,0.0,0.0,17.81899,10.08406,6.99009,8.96,0.77,2.85,2.0
1758074544.94631,1758074544.67383,0.0,0.0,0.0,19.13679,8.59437,7.67763,8.96,0.77,2.85,2.0
1758074544.95133,1758074544.68383,0.0,0.0,0.0,20.97026,7.16197,8.88085,8.96,0.46,2.73,2.0
1758074544.95338,1758074544.69383,0.0,0.0,0.0,21.25674,6.35983,9.28192,8.96,0.46,2.73,2.0
1758074545.00161,1758074544.70383,0.0,0.0,0.0,20.74107,3.32316,9.39651,8.93,0.3,2.57,2.0
1758074545.002,1758074544.71383,0.0,0.0,0.0,17.93358,-3.38045,9.05273,8.93,0.3,2.57,2.0
1758074545.00907,1758074544.72383,0.0,0.0,0.0,14.61043,-7.79223,8.76626,8.59,0.46,2.46,2.0
1758074545.01013,1758074544.73383,0.0,0.0,0.0,10.02676,-10.94349,7.79223,8.83,0.94,2.19,2.0
1758074545.01141,1758074544.74383,0.0,0.0,0.0,5.09932,-10.54242,7.50575,8.83,0.94,2.19,2.0
1758074545.01318,1758074544.75383,0.0,0.0,0.0,-2.34913,-6.8182,8.42248,9.47,1.5,2.04,2.0
1758074545.01488,1758074544.76383,0.0,0.0,0.0,-7.21927,-4.81285,8.76626,9.47,1.5,2.04,2.0
1758074545.01658,1758074544.77383,0.0,0.0,0.0,-12.08941,-4.0107,10.02676,9.14,1.69,2.25,2.0
1758074545.01699,1758074544.78383,0.0,0.0,0.0,-16.84496,-4.29718,10.71431,9.14,1.69,2.25,2.0
1758074545.01816,1758074544.79383,0.0,0.0,0.0,-23.31938,-5.55769,12.08941,8.51,1.55,1.98,2.0
1758074545.01978,1758074544.80383,0.0,0.0,0.0,-27.33009,-7.10468,12.89155,8.2,1.43,1.61,2.0
1758074545.03545,1758074544.81383,0.0,0.0,0.0,-30.59595,-11.63104,14.03747,8.2,1.43,1.61,2.0
1758074545.05185,1758074544.82383,0.0,0.0,0.0,-33.34615,-19.13679,15.12609,7.66,1.19,1.32,2.0
1758074545.05309,1758074544.83383,0.0,0.0,0.0,-36.6693,-30.30947,16.50119,7.66,1.19,1.32,2.0
1758074545.06949,1758074544.84383,0.0,0.0,0.0,-38.21629,-35.2369,17.76169,7.91,0.71,1.09,2.0
1758074545.07067,1758074544.85383,0.0,0.0,0.0,-40.50812,-33.74722,19.59516,7.91,0.71,1.09,2.0
1758074545.0855,1758074544.86383,0.0,0.0,0.0,-41.88322,-11.17268,21.31403,9.72,0.47,0.92,2.0
1758074545.09068,1758074544.87383,0.0,0.0,0.0,-45.49285,-2.92208,18.9649,9.92,0.58,2.09,2.0
1758074545.10555,1758074544.88383,0.0,0.0,0.0,-52.9986,-12.83425,13.12073,9.92,0.58,2.09,2.0
1758074545.10998,1758074544.89383,0.0,0.0,0.0,-56.55093,-21.25674,9.28192,7.83,0.9,2.09,2.0
1758074545.12478,1758074544.90383,0.0,0.0,0.0,-59.75951,-22.68913,4.52637,7.83,0.9,2.09,2.0
1758074545.12724,1758074544.91383,0.0,0.0,0.0,-60.16057,-23.49127,5.90147,9.23,1.02,1.03,2.0
1758074545.14477,1758074544.92383,0.0,0.0,0.0,-60.10328,-22.40265,7.10468,9.23,1.02,1.03,2.0
1758074545.14567,1758074544.93383,0.0,0.0,0.0,-58.72818,-16.90226,9.74028,9.71,0.64,0.48,2.0
1758074545.16106,1758074544.94383,0.0,0.0,0.0,-54.94666,-10.59972,14.9542,9.71,0.64,0.48,2.0
1758074545.17652,1758074544.95383,0.0,0.0,0.0,-51.85268,-12.08941,17.99088,10.14,-0.12,1.68,2.0
1758074545.18083,1758074544.96383,0.0,0.0,0.0,-48.9879,-16.272,20.62648,9.49,-0.88,2.02,2.0
1758074545.19677,1758074544.97383,0.0,0.0,0.0,-46.2377,-20.79837,22.23076,9.49,-0.88,2.02,2.0
1758074545.2004,1758074544.98383,0.0,0.0,0.0,-42.57077,-23.26209,22.97561,9.96,-1.47,1.63,2.0
1758074545.21553,1758074544.99383,0.0,0.0,0.0,-40.62271,-21.60051,22.23076,9.96,-1.47,1.63,2.0
1758074545.21858,1758074545.00383,0.0,0.0,0.0,-38.56006,-17.58981,20.97026,10.84,-1.79,1.17,2.0
1758074545.23554,1758074545.01383,0.0,0.0,0.0,-36.89849,-14.03747,19.25138,10.84,-1.79,1.17,2.0
1758074545.23706,1758074545.02383,0.0,0.0,0.0,-34.72124,-10.31324,16.38659,10.88,-1.79,1.56,2.0
1758074545.25289,1758074545.03383,0.0,0.0,0.0,-33.9764,-8.70896,14.43854,10.53,-1.19,1.9,2.0
1758074545.25809,1758074545.04383,0.0,0.0,0.0,-33.51803,-5.95876,12.54778,10.53,-1.19,1.9,2.0
1758074545.27658,1758074545.05383,0.0,0.0,0.0,-33.46074,-3.83882,10.94349,10.55,-0.16,1.72,2.0
1758074545.27865,1758074545.06383,0.0,0.0,0.0,-34.49206,-4.18259,8.65166,10.55,-0.16,1.72,2.0
1758074545.29384,1758074545.07383,0.0,0.0,0.0,-36.6693,-7.21927,6.99009,9.94,0.76,1.44,2.0
1758074545.29632,1758074545.08383,0.0,0.0,0.0,-39.64868,-9.39651,5.61499,9.94,0.76,1.44,2.0
1758074545.31362,1758074545.09383,0.0,0.0,0.0,-43.02913,-10.54242,5.09932,9.51,1.41,0.9,2.0
1758074545.31918,1758074545.10383,0.0,0.0,0.0,-48.35764,-21.31403,4.81285,8.81,1.62,0.95,2.0
1758074545.34142,1758074545.11383,0.0,0.0,0.0,-52.42564,-33.46074,3.66693,8.81,1.62,0.95,2.0
1758074545.34659,1758074545.12383,0.0,0.0,0.0,-57.23849,-45.72203,2.29183,8.35,1.61,1.79,2.0
1758074545.3502,1758074545.13383,0.0,0.0,0.0,-64.28587,-59.70221,-1.14592,8.35,1.61,1.79,2.0
1758074545.36593,1758074545.14383,0.0,0.0,0.0,-66.40582,-59.87409,-6.07335,11.44,0.07,3.42,2.0
1758074545.36793,1758074545.15383,0.0,0.0,0.0,-64.57235,-50.2484,-10.19865,11.44,0.07,3.42,2.0
1758074545.3847,1758074545.16383,0.0,0.0,0.0,-59.12925,-44.00316,-13.23533,18.23,-3.75,4.96,2.0
1758074545.38676,1758074545.17383,0.0,0.0,0.0,-48.35764,-50.82136,-13.12073,18.23,-3.75,4.96,2.0
1758074545.40595,1758074545.18383,0.0,0.0,0.0,-41.71133,-62.16592,-11.34457,16.75,-6.66,5.4,2.0
1758074545.40708,1758074545.19383,0.0,0.0,0.0,-35.2369,-71.90621,-9.28192,11.45,-6.23,3.26,2.0
1758074545.42495,1758074545.20383,0.0,0.0,0.0,-30.82513,-76.48987,-6.24524,11.45,-6.23,3.26,2.0
1758074545.42583,1758074545.21383,0.0,0.0,0.0,-25.72581,-62.22322,-3.26586,8.69,-3.61,1.07,2.0
1758074545.4427,1758074545.22383,0.0,0.0,0.0,-26.41335,-50.59217,-7.10468,8.69,-3.61,1.07,2.0
1758074545.44797,1758074545.23383,0.0,0.0,0.0,-24.57989,-48.35764,-3.95341,6.74,-1.58,1.38,2.0
1758074545.46576,1758074545.24383,0.0,0.0,0.0,-25.7831,-33.68992,-4.52637,6.74,-1.58,1.38,2.0
1758074545.47008,1758074545.25383,0.0,0.0,0.0,-26.06958,-12.83425,-0.85944,7.28,-1.23,3.49,2.0
1758074545.48574,1758074545.26383,0.0,0.0,0.0,-26.18417,3.60963,2.63561,8.63,-1.93,1.62,2.0
1758074545.4901,1758074545.27383,0.0,0.0,0.0,-26.01229,23.37668,6.7609,8.63,-1.93,1.62,2.0
1758074545.50588,1758074545.28383,0.0,0.0,0.0,-24.75178,39.70598,11.34457,10.88,-2.96,1.6,2.0
1758074545.50685,1758074545.29383,0.0,0.0,0.0,-22.51724,52.48294,15.12609,10.88,-2.96,1.6,2.0
1758074545.52261,1758074545.30383,0.0,0.0,0.0,-21.14215,60.73353,14.83961,10.86,-3.22,0.39,2.0
1758074545.53013,1758074545.31383,0.0,0.0,0.0,-20.16812,63.48372,13.5791,10.86,-3.22,0.39,2.0
1758074545.54599,1758074545.32383,0.0,0.0,0.0,-18.79302,64.91612,10.37054,10.59,-3.26,0.24,2.0
1758074545.55018,1758074545.33383,0.0,0.0,0.0,-17.58981,67.72362,8.30789,10.51,-3.36,0.53,2.0
1758074545.56595,1758074545.34383,0.0,0.0,0.0,-15.12609,70.24463,6.70361,10.51,-3.36,0.53,2.0
1758074545.57042,1758074545.35383,0.0,0.0,0.0,-11.80293,73.10942,5.78687,10.16,-3.4,0.43,2.0
1758074545.63031,1758074545.36383,0.0,0.0,0.0,-5.15662,75.57314,4.87014,10.16,-3.4,0.43,2.0
1758074545.63161,1758074545.37383,0.0,0.0,0.0,0.68755,75.05748,5.4431,9.51,-3.4,0.71,2.0
1758074545.63592,1758074545.38383,0.0,0.0,0.0,6.58902,74.14074,6.70361,9.51,-3.4,0.71,2.0
1758074545.64192,1758074545.39383,0.0,0.0,0.0,12.49048,72.65105,8.42248,8.92,-3.21,0.92,2.0
1758074545.64652,1758074545.40383,0.0,0.0,0.0,19.59516,68.58305,10.37054,8.54,-3.21,0.98,2.0
1758074545.65166,1758074545.41383,0.0,0.0,0.0,22.91831,64.80153,10.71431,8.54,-2.99,0.98,2.0
1758074545.65233,1758074545.42383,0.0,0.0,0.0,24.98096,60.44705,10.02676,8.32,-2.75,1.11,2.0
1758074545.65389,1758074545.43383,0.0,0.0,0.0,25.7831,55.6915,8.47978,8.32,-2.75,1.11,2.0
1758074545.65664,1758074545.44383,0.0,0.0,0.0,25.15285,47.38361,5.15662,8.26,-2.49,1.06,2.0
1758074545.67545,1758074545.45383,0.0,0.0,0.0,23.60586,40.45082,2.29183,8.26,-2.49,1.06,2.0
1758074545.67665,1758074545.46383,0.0,0.0,0.0,21.42862,34.09099,-0.68755,8.25,-2.17,1.05,2.0
1758074545.69182,1758074545.47383,0.0,0.0,0.0,19.76705,28.41871,-3.20856,8.25,-2.17,1.05,2.0
1758074545.7091,1758074545.48383,0.0,0.0,0.0,18.85031,28.01764,-5.4431,8.78,-1.96,1.08,2.0
1758074545.71079,1758074545.49383,0.0,0.0,0.0,19.76705,33.00237,-6.24524,10.02,-2.24,1.33,2.0
1758074545.72582,1758074545.50383,0.0,0.0,0.0,21.25674,37.24226,-6.87549,10.02,-2.24,1.33,2.0
1758074545.72897,1758074545.51383,0.0,0.0,0.0,23.72045,40.62271,-7.33386,9.88,-2.7,1.8,2.0
1758074545.7448,1758074545.52383,0.0,0.0,0.0,28.01764,43.25832,-6.58902,9.88,-2.7,1.8,2.0
1758074545.74587,1758074545.53383,0.0,0.0,0.0,31.79916,44.57612,-5.55769,9.57,-2.82,1.76,2.0
1758074545.76384,1758074545.54383,0.0,0.0,0.0,36.03905,44.46153,-4.46907,9.57,-2.82,1.76,2.0
1758074545.76901,1758074545.55383,0.0,0.0,0.0,42.97184,41.65404,-3.03668,9.38,-2.73,1.42,2.0
1758074545.78575,1758074545.56383,0.0,0.0,0.0,47.49821,40.39353,-2.46372,9.23,-2.57,1.28,2.0
1758074545.78699,1758074545.57383,0.0,0.0,0.0,52.02457,39.3622,-2.06265,9.23,-2.57,1.28,2.0
1758074545.80374,1758074545.58383,0.0,0.0,0.0,55.92068,31.16891,-2.11994,8.77,-2.33,1.11,2.0
1758074545.82079,1758074545.59383,0.0,0.0,0.0,58.4417,19.19409,-4.58366,8.77,-2.33,1.11,2.0
1758074545.82281,1758074545.60383,0.0,0.0,0.0,58.78547,11.51645,-8.70896,8.08,-2.07,0.55,2.0
1758074545.82633,1758074545.61383,0.0,0.0,0.0,61.30648,20.62648,-8.93814,8.08,-2.07,0.55,2.0
1758074545.84192,1758074545.62383,0.0,0.0,0.0,63.94209,37.24226,-10.25595,10.0,-1.92,0.1,2.0
1758074545.85793,1758074545.63383,0.0,0.0,0.0,64.91612,56.32175,-13.34992,9.88,-1.81,1.27,2.0
1758074545.86073,1758074545.64383,0.0,0.0,0.0,65.54638,49.67545,-16.84496,9.88,-1.81,1.27,2.0
1758074545.87621,1758074545.65383,0.0,0.0,0.0,62.85347,21.60051,-22.11617,5.66,-1.37,1.78,2.0
1758074545.87792,1758074545.66383,0.0,0.0,0.0,66.74959,-13.80828,-14.66772,5.66,-1.37,1.78,2.0
1758074545.8932,1758074545.67383,0.0,0.0,0.0,67.66632,-24.98096,-12.204,7.91,-1.08,0.05,2.0
1758074545.90999,1758074545.68383,0.0,0.0,0.0,69.27061,-25.61122,-11.86023,7.91,-1.08,0.05,2.0
1758074545.91116,1758074545.69383,0.0,0.0,0.0,70.76029,-26.41335,-11.34457,10.02,-1.08,-1.5,2.0
1758074545.92597,1758074545.70383,0.0,0.0,0.0,71.44785,-24.29341,-11.45916,10.02,-1.08,-1.5,2.0
1758074545.92713,1758074545.71383,0.0,0.0,0.0,68.58305,-26.87172,-14.15206,10.42,-0.96,2.48,2.0
1758074545.94524,1758074545.72383,0.0,0.0,0.0,63.02536,-36.49741,-15.58445,11.53,-0.03,6.06,2.0
1758074545.9464,1758074545.73383,0.0,0.0,0.0,53.34238,-45.60744,-15.0115,11.53,-0.03,6.06,2.0
1758074545.96358,1758074545.74383,0.0,0.0,0.0,29.50733,-50.59217,-11.28727,14.98,2.65,8.79,2.0
1758074545.97902,1758074545.75383,0.0,0.0,0.0,10.25595,-53.45696,-7.96411,14.98,2.65,8.79,2.0
1758074545.98045,1758074545.76383,0.0,0.0,0.0,-9.74028,-50.363,-5.09932,15.91,4.41,7.86,2.0
1758074545.99524,1758074545.77383,0.0,0.0,0.0,-28.30412,-45.03448,-3.55234,15.91,4.41,7.86,2.0
1758074545.99643,1758074545.78383,0.0,0.0,0.0,-46.35228,-39.82057,-4.81285,13.97,3.7,5.18,2.0
1758074546.01625,1758074545.79383,0.0,0.0,0.0,-50.64947,-37.52874,-8.36518,9.43,-0.55,4.17,2.0
1758074546.02148,1758074545.80383,0.0,0.0,0.0,-51.27972,-37.98711,-13.69369,9.43,-0.55,4.17,2.0
1758074546.03627,1758074545.81383,0.0,0.0,0.0,-48.58683,-38.78925,-20.05352,6.13,-3.03,4.62,2.0
1758074546.0388,1758074545.82383,0.0,0.0,0.0,-38.78925,-42.22699,-28.07493,6.13,-3.03,4.62,2.0
1758074546.05482,1758074545.83383,0.0,0.0,0.0,-28.64789,-45.89392,-31.39809,5.79,-3.95,5.04,2.0
1758074546.05599,1758074545.84383,0.0,0.0,0.0,-17.47521,-47.72739,-32.54401,5.79,-3.95,5.04,2.0
1758074546.07311,1758074545.85383,0.0,0.0,0.0,-6.18794,-48.35764,-30.53865,7.74,-3.87,4.43,2.0
1758074546.09001,1758074545.86383,0.0,0.0,0.0,8.59437,-40.62271,-24.75178,10.03,-2.73,3.39,2.0
1758074546.09284,1758074545.87383,0.0,0.0,0.0,16.21471,-33.00237,-20.16812,10.03,-2.73,3.39,2.0
1758074546.10993,1758074545.88383,0.0,0.0,0.0,21.60051,-25.26744,-15.98552,10.63,-1.26,3.13,2.0
1758074546.11111,1758074545.89383,0.0,0.0,0.0,25.15285,-18.79302,-12.49048,10.63,-1.26,3.13,2.0
1758074546.12949,1758074545.90383,0.0,0.0,0.0,26.87172,-11.51645,-8.99544,9.67,-0.04,3.16,2.0
1758074546.13314,1758074545.91383,0.0,0.0,0.0,26.52795,-6.7609,-7.50575,9.67,-0.04,3.16,2.0
1758074546.1492,1758074545.92383,0.0,0.0,0.0,25.26744,-0.80214,-6.58902,9.14,0.76,3.03,2.0
1758074546.15008,1758074545.93383,0.0,0.0,0.0,23.31938,5.55769,-5.55769,9.14,0.76,3.03,2.0
1758074546.16535,1758074545.94383,0.0,0.0,0.0,18.9649,13.98017,-5.32851,9.15,1.14,2.85,2.0
1758074546.16667,1758074545.95383,0.0,0.0,0.0,15.87093,19.19409,-5.21392,9.0,1.09,2.95,2.0
1758074546.18597,1758074545.96383,0.0,0.0,0.0,12.37589,22.51724,-4.98473,9.0,1.09,2.95,2.0
1758074546.18902,1758074545.97383,0.0,0.0,0.0,6.87549,24.12152,-4.87014,8.75,0.82,2.97,2.0
1758074546.20443,1758074545.98383,0.0,0.0,0.0,3.49504,21.42862,-4.92744,8.75,0.82,2.97,2.0
1758074546.22042,1758074545.99383,0.0,0.0,0.0,0.22918,16.61578,-4.81285,8.4,0.62,2.87,2.0
1758074546.22137,1758074546.00383,0.0,0.0,0.0,-2.40642,12.83425,-4.87014,8.4,0.62,2.87,2.0
1758074546.23645,1758074546.01383,0.0,0.0,0.0,-5.21392,9.74028,-3.95341,8.71,0.65,2.66,2.0
1758074546.23728,1758074546.02383,0.0,0.0,0.0,-6.13065,7.67763,-3.09397,8.94,0.69,2.68,2.0
1758074546.25323,1758074546.03383,0.0,0.0,0.0,-6.41713,5.90147,-2.34913,8.94,0.69,2.68,2.0
1758074546.26997,1758074546.04383,0.0,0.0,0.0,-6.07335,4.64096,-1.48969,8.92,0.56,2.8,2.0
1758074546.27271,1758074546.05383,0.0,0.0,0.0,-4.81285,4.98473,-0.22918,8.92,0.56,2.8,2.0
1758074546.28845,1758074546.06383,0.0,0.0,0.0,-3.49504,6.13065,0.57296,9.16,0.33,2.58,2.0
1758074546.28938,1758074546.07383,0.0,0.0,0.0,-2.57831,7.04738,2.00535,9.16,0.33,2.58,2.0
1758074546.30446,1758074546.08383,0.0,0.0,0.0,-1.77617,9.62569,2.46372,9.31,0.09,2.42,2.0
1758074546.30617,1758074546.09383,0.0,0.0,0.0,-0.97403,10.65701,4.29718,9.22,-0.04,2.35,2.0
1758074546.32324,1758074546.10383,0.0,0.0,0.0,-1.14592,9.4538,5.72958,9.22,-0.04,2.35,2.0
1758074546.32735,1758074546.11383,0.0,0.0,0.0,-2.46372,7.16197,6.47442,9.04,0.01,2.43,2.0
1758074546.34328,1758074546.12383,0.0,0.0,0.0,-4.58366,2.11994,7.10468,9.04,0.01,2.43,2.0
1758074546.36105,1758074546.13383,0.0,0.0,0.0,-9.5684,-6.24524,6.99009,8.91,0.32,2.2,2.0
1758074546.3631,1758074546.14383,0.0,0.0,0.0,-13.86558,-8.76626,6.18794,8.91,0.32,2.2,2.0
1758074546.37854,1758074546.15383,0.0,0.0,0.0,-18.50654,-8.30789,5.50039,9.33,0.84,1.81,2.0
1758074546.38022,1758074546.16383,0.0,0.0,0.0,-25.38203,-7.50575,4.87014,9.33,0.84,1.81,2.0
1758074546.39546,1758074546.17383,0.0,0.0,0.0,-30.02299,-9.96947,4.46907,9.4,1.24,1.74,2.0
1758074546.3968,1758074546.18383,0.0,0.0,0.0,-34.37747,-11.74564,4.35448,8.74,1.25,1.89,2.0
1758074546.41615,1758074546.19383,0.0,0.0,0.0,-38.56006,-12.37589,4.18259,8.74,1.25,1.89,2.0
1758074546.42054,1758074546.20383,0.0,0.0,0.0,-43.77398,-16.272,3.95341,8.57,1.07,1.47,2.0
1758074546.43632,1758074546.21383,0.0,0.0,0.0,-45.77933,-22.91831,3.83882,8.57,1.07,1.47,2.0
1758074546.44122,1758074546.22383,0.0,0.0,0.0,-47.15443,-30.48136,5.21392,7.89,0.7,1.05,2.0
1758074546.45653,1758074546.23383,0.0,0.0,0.0,-47.44091,-36.84119,6.18794,7.89,0.7,1.05,2.0
1758074546.46061,1758074546.24383,0.0,0.0,0.0,-47.38361,-44.00316,7.39116,8.11,0.42,1.03,2.0
1758074546.47653,1758074546.25383,0.0,0.0,0.0,-47.03984,-44.46153,8.59437,8.84,0.05,0.67,2.0
1758074546.47747,1758074546.26383,0.0,0.0,0.0,-46.35228,-25.72581,11.74564,8.84,0.05,0.67,2.0
1758074546.49394,1758074546.27383,0.0,0.0,0.0,-46.75336,-2.57831,10.8862,11.37,0.06,1.65,2.0
1758074546.51032,1758074546.28383,0.0,0.0,0.0,-52.02457,-21.25674,5.15662,11.37,0.06,1.65,2.0
1758074546.51149,1758074546.29383,0.0,0.0,0.0,-55.23313,-29.10626,1.3178,7.56,0.18,2.08,2.0
1758074546.52655,1758074546.30383,0.0,0.0,0.0,-58.26981,-31.28349,-2.23454,7.56,0.18,2.08,2.0
1758074546.53027,1758074546.31383,0.0,0.0,0.0,-58.72818,-29.10626,-2.29183,9.16,0.49,0.91,2.0
1758074546.54612,1758074546.32383,0.0,0.0,0.0,-59.47303,-26.64254,0.0573,9.73,0.51,-0.19,2.0
1758074546.54757,1758074546.33383,0.0,0.0,0.0,-59.47303,-22.74642,2.29183,9.73,0.51,-0.19,2.0
1758074546.56394,1758074546.34383,0.0,0.0,0.0,-58.78547,-18.62113,4.98473,10.05,0.23,1.0,2.0
1758074546.56706,1758074546.35383,0.0,0.0,0.0,-56.66553,-17.47521,10.02676,10.05,0.23,1.0,2.0
1758074546.58492,1758074546.36383,0.0,0.0,0.0,-53.39967,-21.94428,13.00614,9.53,-0.22,1.71,2.0
1758074546.60058,1758074546.37383,0.0,0.0,0.0,-51.73809,-24.63719,15.0115,9.53,-0.22,1.71,2.0
1758074546.60246,1758074546.38383,0.0,0.0,0.0,-49.90463,-25.15285,15.87093,9.76,-0.91,1.56,2.0
1758074546.62051,1758074546.39383,0.0,0.0,0.0,-47.38361,-20.11082,15.41257,9.76,-0.91,1.56,2.0
1758074546.62162,1758074546.40383,0.0,0.0,0.0,-45.14908,-14.72501,14.43854,10.5,-1.52,0.65,2.0
1758074546.63637,1758074546.41383,0.0,0.0,0.0,-42.97184,-11.00079,12.83425,10.37,-1.74,0.71,2.0
1758074546.6403,1758074546.42383,0.0,0.0,0.0,-41.02378,-9.28192,11.22997,10.37,-1.74,0.71,2.0
1758074546.6555,1758074546.43383,0.0,0.0,0.0,-38.21629,-7.50575,8.65166,9.72,-1.44,0.94,2.0
1758074546.65663,1758074546.44383,0.0,0.0,0.0,-36.26823,-4.92744,7.16197,9.72,-1.44,0.94,2.0
1758074546.67544,1758074546.45383,0.0,0.0,0.0,-34.32018,-2.57831,5.95876,10.07,-0.66,0.68,2.0
1758074546.67643,1758074546.46383,0.0,0.0,0.0,-32.48671,-1.03132,4.98473,10.07,-0.66,0.68,2.0
1758074546.69527,1758074546.47383,0.0,0.0,0.0,-30.59595,-0.0573,4.1253,10.32,0.13,0.56,2.0
1758074546.71071,1758074546.48383,0.0,0.0,0.0,-30.19488,0.74485,3.66693,10.46,0.65,0.14,2.0
1758074546.71193,1758074546.49383,0.0,0.0,0.0,-30.93972,1.77617,3.55234,10.46,0.65,0.14,2.0
1758074546.7267,1758074546.50383,0.0,0.0,0.0,-32.25753,4.1253,3.95341,10.51,0.77,0.17,2.0
1758074546.73005,1758074546.51383,0.0,0.0,0.0,-34.37747,4.69825,5.90147,10.51,0.77,0.17,2.0
1758074546.7455,1758074546.52383,0.0,0.0,0.0,-35.92446,-1.08862,7.44845,10.23,0.56,0.72,2.0
1758074546.74668,1758074546.53383,0.0,0.0,0.0,-37.24226,-9.5684,8.70896,10.23,0.56,0.72,2.0
1758074546.76473,1758074546.54383,0.0,0.0,0.0,-38.38818,-18.56383,9.91217,9.96,0.29,1.71,2.0
1758074546.76673,1758074546.55383,0.0,0.0,0.0,-37.52874,-31.91375,9.33921,12.1,-0.76,3.16,2.0
1758074546.79266,1758074546.56383,0.0,0.0,0.0,-33.17426,-33.63263,5.32851,12.1,-0.76,3.16,2.0
1758074546.79294,1758074546.57383,0.0,0.0,0.0,-24.5226,-30.99702,1.03132,17.89,-3.94,4.47,2.0
1758074546.80851,1758074546.58383,0.0,0.0,0.0,-8.76626,-41.25296,-4.64096,17.89,-3.94,4.47,2.0
1758074546.80966,1758074546.59383,0.0,0.0,0.0,0.0573,-57.12389,-7.04738,16.84,-6.48,4.44,2.0
1758074546.82463,1758074546.60383,0.0,0.0,0.0,7.39116,-73.05212,-7.39116,16.84,-6.48,4.44,2.0
1758074546.82728,1758074546.61383,0.0,0.0,0.0,9.11003,-83.88103,-8.30789,11.67,-5.05,2.82,2.0
1758074546.84283,1758074546.62383,0.0,0.0,0.0,9.39651,-79.92762,-5.90147,11.67,-5.05,2.82,2.0
1758074546.85973,1758074546.63383,0.0,0.0,0.0,7.44845,-72.47916,-3.83882,8.95,-1.76,0.72,2.0
1758074546.86066,1758074546.64383,0.0,0.0,0.0,2.7502,-63.99939,-3.55234,6.43,0.0,2.04,2.0
1758074546.87586,1758074546.65383,0.0,0.0,0.0,-7.16197,-60.79083,-3.38045,6.43,0.0,2.04,2.0
1758074546.87711,1758074546.66383,0.0,0.0,0.0,-32.20023,-35.2369,-10.31324,5.13,1.51,4.71,2.0
1758074546.89284,1758074546.67383,0.0,0.0,0.0,-40.33623,-34.26288,-4.92744,5.13,1.51,4.71,2.0
1758074546.90857,1758074546.68383,0.0,0.0,0.0,-48.24305,-19.59516,-3.32316,6.18,1.14,4.88,2.0
1758074546.90976,1758074546.69383,0.0,0.0,0.0,-51.39432,-1.43239,0.57296,6.18,1.14,4.88,2.0
1758074546.92482,1758074546.70383,0.0,0.0,0.0,-46.46688,33.74722,8.88085,11.4,-1.3,2.22,2.0
1758074546.94081,1758074546.71383,0.0,0.0,0.0,-40.62271,57.41038,11.80293,14.21,-3.48,-0.61,2.0
1758074546.94176,1758074546.72383,0.0,0.0,0.0,-35.63798,71.56243,13.12073,14.21,-3.48,-0.61,2.0
1758074546.95691,1758074546.73383,0.0,0.0,0.0,-30.93972,77.57849,12.77696,12.0,-4.25,-0.55,2.0
1758074546.95894,1758074546.74383,0.0,0.0,0.0,-23.72045,80.90164,9.68299,12.0,-4.25,-0.55,2.0
1758074546.9738,1758074546.75383,0.0,0.0,0.0,-18.85031,81.87567,6.70361,10.56,-4.15,-0.02,2.0
1758074546.98989,1758074546.76383,0.0,0.0,0.0,-14.38124,83.82372,3.83882,10.56,-4.15,-0.02,2.0
1758074546.99199,1758074546.77383,0.0,0.0,0.0,-9.5684,86.28745,1.60428,10.25,-3.56,0.05,2.0
1758074547.00688,1758074546.78383,0.0,0.0,0.0,-2.29183,92.53268,1.43239,10.13,-2.85,0.32,2.0
1758074547.00878,1758074546.79383,0.0,0.0,0.0,2.40642,94.42345,2.46372,10.13,-2.85,0.32,2.0
1758074547.02439,1758074546.80383,0.0,0.0,0.0,6.70361,94.02238,3.95341,9.23,-2.37,0.66,2.0
1758074547.04175,1758074546.81383,0.0,0.0,0.0,11.91752,90.12627,7.16197,9.23,-2.37,0.66,2.0
1758074547.04341,1758074546.82383,0.0,0.0,0.0,14.83961,86.63122,9.39651,8.8,-2.16,1.42,2.0
1758074547.0587,1758074546.83383,0.0,0.0,0.0,16.90226,81.70379,11.74564,8.8,-2.16,1.42,2.0
1758074547.06061,1758074546.84383,0.0,0.0,0.0,17.81899,77.4639,13.17803,8.55,-2.19,1.46,2.0
1758074547.07594,1758074546.85383,0.0,0.0,0.0,17.53251,70.53111,13.46451,8.52,-2.19,1.12,2.0
1758074547.07709,1758074546.86383,0.0,0.0,0.0,16.38659,65.2599,12.14671,8.52,-2.31,1.12,2.0
1758074547.09377,1758074546.87383,0.0,0.0,0.0,14.66772,59.64491,9.96947,8.4,-2.38,0.91,2.0
1758074547.11077,1758074546.88383,0.0,0.0,0.0,13.12073,53.68615,7.16197,8.4,-2.38,0.91,2.0
1758074547.11276,1758074546.89383,0.0,0.0,0.0,11.11538,43.77398,2.00535,8.41,-2.31,1.11,2.0
1758074547.12797,1758074546.90383,0.0,0.0,0.0,10.31324,36.55471,-1.66158,8.41,-2.31,1.11,2.0
1758074547.12915,1758074546.91383,0.0,0.0,0.0,10.59972,30.59595,-4.46907,8.48,-2.17,1.23,2.0
1758074547.14452,1758074546.92383,0.0,0.0,0.0,12.204,29.27814,-5.84417,8.48,-2.17,1.23,2.0
1758074547.16102,1758074546.93383,0.0,0.0,0.0,15.98552,34.32018,-7.33386,9.24,-2.27,1.41,2.0
1758074547.16232,1758074546.94383,0.0,0.0,0.0,19.59516,37.81522,-7.10468,9.66,-2.61,1.65,2.0
1758074547.17676,1758074546.95383,0.0,0.0,0.0,24.23611,39.3622,-6.53172,9.66,-2.61,1.65,2.0
1758074547.17798,1758074546.96383,0.0,0.0,0.0,29.56462,39.3622,-4.98473,9.44,-2.8,1.89,2.0
1758074547.19279,1758074546.97383,0.0,0.0,0.0,38.61736,38.21629,-2.06265,9.44,-2.8,1.89,2.0
1758074547.20983,1758074546.98383,0.0,0.0,0.0,44.748,37.47144,0.0573,9.32,-2.92,1.36,2.0
1758074547.21107,1758074546.99383,0.0,0.0,0.0,50.87865,35.75257,1.94806,9.32,-2.92,1.36,2.0
1758074547.22592,1758074547.00383,0.0,0.0,0.0,59.53032,31.16891,3.66693,9.0,-2.93,1.08,2.0
1758074547.22733,1758074547.01383,0.0,0.0,0.0,64.80153,24.5226,4.35448,8.49,-2.7,1.01,2.0
1758074547.24308,1758074547.02383,0.0,0.0,0.0,68.12468,10.59972,3.26586,8.49,-2.7,1.01,2.0
1758074547.25881,1758074547.03383,0.0,0.0,0.0,70.30193,2.11994,0.85944,7.7,-2.14,0.48,2.0
1758074547.26077,1758074547.04383,0.0,0.0,0.0,72.36457,1.20321,-3.60963,7.7,-2.14,0.48,2.0
1758074547.27604,1758074547.05383,0.0,0.0,0.0,74.88559,15.24068,-5.61499,9.71,-1.75,0.05,2.0
1758074547.27697,1758074547.06383,0.0,0.0,0.0,75.91692,29.10626,-7.16197,9.71,-1.75,0.05,2.0
1758074547.29321,1758074547.07383,0.0,0.0,0.0,76.77635,33.11696,-11.11538,10.52,-1.35,0.95,2.0
1758074547.30903,1758074547.08383,0.0,0.0,0.0,74.36993,2.40642,-17.18874,6.79,-1.05,1.43,2.0
1758074547.31044,1758074547.09383,0.0,0.0,0.0,78.43793,-29.67921,-14.43854,6.79,-1.05,1.43,2.0
1758074547.32587,1758074547.10383,0.0,0.0,0.0,79.69843,-38.15899,-14.15206,7.99,-1.06,0.22,2.0
1758074547.32712,1758074547.11383,0.0,0.0,0.0,81.64648,-39.53409,-12.83425,7.99,-1.06,0.22,2.0
1758074547.3431,1758074547.12383,0.0,0.0,0.0,83.19347,-30.53865,-11.74564,10.58,-1.31,-0.97,2.0
1758074547.35998,1758074547.13383,0.0,0.0,0.0,81.5319,-29.04896,-10.94349,10.58,-1.31,-0.97,2.0
1758074547.3628,1758074547.14383,0.0,0.0,0.0,77.23472,-36.95578,-9.74028,10.75,-0.56,3.48,2.0
1758074547.37798,1758074547.15383,0.0,0.0,0.0,69.27061,-48.70141,-7.04738,10.75,-0.56,3.48,2.0
1758074547.37897,1758074547.16383,0.0,0.0,0.0,48.01387,-55.6342,-2.6929,12.4,1.67,7.89,2.0
1758074547.39569,1758074547.17383,0.0,0.0,0.0,28.99167,-50.53488,-0.34377,16.4,4.81,8.69,2.0
1758074547.41116,1758074547.18383,0.0,0.0,0.0,7.44845,-43.54479,0.68755,16.4,4.81,8.69,2.0
1758074547.41316,1758074547.19383,0.0,0.0,0.0,-23.37668,-37.64333,0.74485,16.46,6.34,6.8,2.0
1758074547.42788,1758074547.20383,0.0,0.0,0.0,-39.19032,-31.2262,-1.94806,16.46,6.34,6.8,2.0
1758074547.42906,1758074547.21383,0.0,0.0,0.0,-47.78468,-26.98631,-7.33386,12.62,2.88,4.57,2.0
1758074547.44478,1758074547.22383,0.0,0.0,0.0,-52.02457,-27.67386,-13.80828,12.62,2.88,4.57,2.0
1758074547.46126,1758074547.23383,0.0,0.0,0.0,-52.08187,-22.23076,-25.09555,7.92,-2.31,4.8,2.0
1758074547.46241,1758074547.24383,0.0,0.0,0.0,-45.26366,-25.7831,-29.67921,5.72,-3.83,5.64,2.0
1758074547.47712,1758074547.25383,0.0,0.0,0.0,-37.35685,-28.87707,-35.63798,5.72,-3.83,5.64,2.0
1758074547.47835,1758074547.26383,0.0,0.0,0.0,-26.87172,-33.63263,-37.52874,6.44,-3.97,5.8,2.0
1758074547.49317,1758074547.27383,0.0,0.0,0.0,-8.88085,-38.27358,-35.00772,6.44,-3.97,5.8,2.0
1758074547.50993,1758074547.28383,0.0,0.0,0.0,2.40642,-34.26288,-29.62192,8.86,-2.97,3.97,2.0
1758074547.51111,1758074547.29383,0.0,0.0,0.0,11.80293,-24.17882,-23.66316,8.86,-2.97,3.97,2.0
1758074547.52599,1758074547.30383,0.0,0.0,0.0,18.90761,-13.34992,-17.99088,10.7,-1.16,3.17,2.0
1758074547.52712,1758074547.31383,0.0,0.0,0.0,25.38203,-3.03668,-11.86023,9.52,0.42,3.06,2.0
1758074547.54415,1758074547.32383,0.0,0.0,0.0,27.84575,1.3751,-8.42248,9.52,0.42,3.06,2.0
1758074547.56128,1758074547.33383,0.0,0.0,0.0,29.10626,8.25059,-7.04738,8.89,1.02,3.17,2.0
1758074547.56217,1758074547.34383,0.0,0.0,0.0,29.8511,14.38124,-6.18794,8.89,1.02,3.17,2.0
1758074547.57724,1758074547.35383,0.0,0.0,0.0,29.22085,22.28806,-5.50039,8.85,1.12,2.85,2.0
1758074547.57844,1758074547.36383,0.0,0.0,0.0,28.13223,26.01229,-5.21392,8.85,1.12,2.85,2.0
1758074547.59322,1758074547.37383,0.0,0.0,0.0,26.81443,28.93437,-4.98473,8.78,0.92,3.21,2.0
1758074547.60925,1758074547.38383,0.0,0.0,0.0,24.80907,31.45539,-5.21392,8.78,0.92,3.21,2.0
1758074547.61039,1758074547.39383,0.0,0.0,0.0,20.16812,29.8511,-6.70361,8.73,0.61,3.07,2.0
1758074547.62599,1758074547.40383,0.0,0.0,0.0,16.38659,26.52795,-8.02141,8.46,0.62,2.91,2.0
1758074547.62718,1758074547.41383,0.0,0.0,0.0,12.43318,23.60586,-8.42248,8.46,0.62,2.91,2.0
1758074547.64328,1758074547.42383,0.0,0.0,0.0,6.07335,19.53786,-8.42248,8.76,1.02,2.8,2.0
1758074547.66026,1758074547.43383,0.0,0.0,0.0,2.46372,16.50119,-7.44845,8.76,1.02,2.8,2.0
1758074547.66312,1758074547.44383,0.0,0.0,0.0,-0.51566,13.17803,-5.84417,8.6,1.47,2.85,2.0
1758074547.6791,1758074547.45383,0.0,0.0,0.0,-3.03668,10.19865,-4.46907,8.6,1.47,2.85,2.0
1758074547.68107,1758074547.46383,0.0,0.0,0.0,-5.27121,7.96411,-2.29183,8.33,1.63,2.84,2.0
1758074547.69602,1758074547.47383,0.0,0.0,0.0,-5.84417,7.10468,-1.3178,8.43,1.39,2.87,2.0
1758074547.69913,1758074547.48383,0.0,0.0,0.0,-5.90147,6.8182,-0.40107,8.43,1.39,2.87,2.0
1758074547.7153,1758074547.49383,0.0,0.0,0.0,-5.55769,7.10468,-0.0573,8.67,0.94,2.91,2.0
1758074547.73136,1758074547.50383,0.0,0.0,0.0,-4.87014,8.36518,0.57296,8.67,0.94,2.91,2.0
1758074547.73303,1758074547.51383,0.0,0.0,0.0,-4.52637,8.136,0.68755,8.95,0.51,2.88,2.0
1758074547.74907,1758074547.52383,0.0,0.0,0.0,-4.87014,5.15662,0.97403,8.95,0.51,2.88,2.0
1758074547.75049,1758074547.53383,0.0,0.0,0.0,-6.18794,0.45837,1.08862,8.74,0.34,2.89,2.0
1758074547.76538,1758074547.54383,0.0,0.0,0.0,-9.85487,-6.8182,1.48969,8.8,0.61,2.61,2.0
1758074547.78135,1758074547.55383,0.0,0.0,0.0,-13.5218,-10.19865,1.3751,8.8,0.61,2.61,2.0
1758074547.78254,1758074547.56383,0.0,0.0,0.0,-17.81899,-11.91752,1.94806,9.16,1.18,2.27,2.0
1758074547.79712,1758074547.57383,0.0,0.0,0.0,-22.34536,-13.46451,2.40642,9.16,1.18,2.27,2.0
1758074547.79865,1758074547.58383,0.0,0.0,0.0,-29.10626,-17.53251,2.6929,9.02,1.62,2.34,2.0
1758074547.81341,1758074547.59383,0.0,0.0,0.0,-33.51803,-20.3973,2.86479,9.02,1.62,2.34,2.0
1758074547.82939,1758074547.60383,0.0,0.0,0.0,-36.89849,-23.83505,2.23454,8.73,1.65,2.32,2.0
1758074547.83058,1758074547.61383,0.0,0.0,0.0,-40.96649,-26.98631,0.97403,8.73,1.65,2.32,2.0
1758074547.84539,1758074547.62383,0.0,0.0,0.0,-42.51347,-33.11696,0.45837,8.74,1.39,1.99,2.0
1758074547.86136,1758074547.63383,0.0,0.0,0.0,-43.20102,-35.86716,0.40107,8.86,0.99,1.87,2.0
1758074547.86232,1758074547.64383,0.0,0.0,0.0,-42.62806,-37.18496,1.03132,8.86,0.99,1.87,2.0
1758074547.87738,1758074547.65383,0.0,0.0,0.0,-41.99781,-33.86181,2.00535,9.44,0.63,1.48,2.0
1758074547.87834,1758074547.66383,0.0,0.0,0.0,-40.85189,-31.56997,3.66693,9.44,0.63,1.48,2.0
1758074547.8934,1758074547.67383,0.0,0.0,0.0,-40.68,-25.55392,7.04738,9.53,0.36,1.76,2.0
1758074547.90945,1758074547.68383,0.0,0.0,0.0,-41.76862,-20.79837,5.21392,9.53,0.36,1.76,2.0
1758074547.91062,1758074547.69383,0.0,0.0,0.0,-47.89928,-24.4653,0.11459,9.5,0.47,2.0,2.0
1758074547.92542,1758074547.70383,0.0,0.0,0.0,-50.3057,-26.98631,-2.06265,8.7,0.77,1.47,2.0
1758074547.94143,1758074547.71383,0.0,0.0,0.0,-52.48294,-23.83505,-4.29718,8.7,0.77,1.47,2.0
1758074547.94394,1758074547.72383,0.0,0.0,0.0,-53.68615,-19.48057,-4.0107,9.44,1.0,1.45,2.0
1758074547.96086,1758074547.73383,0.0,0.0,0.0,-54.25911,-12.77696,-1.94806,9.44,1.0,1.45,2.0
1758074547.96549,1758074547.74383,0.0,0.0,0.0,-53.80074,-7.33386,0.22918,9.4,0.89,0.92,2.0
1758074547.98142,1758074547.75383,0.0,0.0,0.0,-52.36834,-2.57831,2.97938,9.4,0.89,0.92,2.0
1758074547.98188,1758074547.76383,0.0,0.0,0.0,-50.01921,-1.3751,5.61499,9.48,0.46,1.63,2.0
1758074547.99748,1758074547.77383,0.0,0.0,0.0,-44.9199,-5.95876,8.93814,9.1,-0.05,1.72,2.0
1758074548.00001,1758074547.78383,0.0,0.0,0.0,-41.25296,-11.00079,10.02676,9.1,-0.05,1.72,2.0
1758074548.01549,1758074547.79383,0.0,0.0,0.0,-37.47144,-15.98552,10.54242,9.45,-0.58,1.45,2.0
1758074548.03121,1758074547.80383,0.0,0.0,0.0,-34.43476,-20.34,9.85487,9.45,-0.58,1.45,2.0
1758074548.03198,1758074547.81383,0.0,0.0,0.0,-31.2262,-22.91831,8.88085,9.99,-0.99,1.2,2.0
1758074548.04749,1758074547.82383,0.0,0.0,0.0,-29.9084,-22.11617,7.79223,9.99,-0.99,1.2,2.0
1758074548.04922,1758074547.83383,0.0,0.0,0.0,-29.22085,-20.45459,7.10468,10.05,-1.05,1.47,2.0
1758074548.06443,1758074547.84383,0.0,0.0,0.0,-29.22085,-18.44924,7.21927,10.05,-1.05,1.47,2.0
1758074548.08047,1758074547.85383,0.0,0.0,0.0,-29.8511,-17.93358,7.44845,9.56,-0.75,1.76,2.0
1758074548.08085,1758074547.86383,0.0,0.0,0.0,-30.99702,-17.18874,8.02141,9.35,-0.21,1.51,2.0
1758074548.09627,1758074547.87383,0.0,0.0,0.0,-32.25753,-15.87093,8.30789,9.35,-0.21,1.51,2.0
1758074548.09744,1758074547.88383,0.0,0.0,0.0,-33.40344,-10.37054,8.42248,9.93,0.31,1.13,2.0
1758074548.11332,1758074547.89383,0.0,0.0,0.0,-33.17426,-6.35983,8.36518,9.93,0.31,1.13,2.0
1758074548.13153,1758074547.90383,0.0,0.0,0.0,-32.54401,-3.03668,8.30789,10.37,0.58,1.19,2.0
1758074548.13189,1758074547.91383,0.0,0.0,0.0,-31.85646,0.22918,7.84952,10.37,0.58,1.19,2.0
1758074548.1473,1758074547.92383,0.0,0.0,0.0,-31.39809,4.69825,7.62034,10.34,0.49,1.01,2.0
1758074548.14926,1758074547.93383,0.0,0.0,0.0,-31.39809,6.8182,7.79223,10.22,0.26,0.43,2.0
1758074548.16502,1758074547.94383,0.0,0.0,0.0,-31.79916,8.47978,8.136,10.22,0.26,0.43,2.0
1758074548.18157,1758074547.95383,0.0,0.0,0.0,-32.88778,8.99544,8.59437,10.09,0.07,0.19,2.0
1758074548.18194,1758074547.96383,0.0,0.0,0.0,-35.00772,9.11003,10.08406,10.09,0.07,0.19,2.0
1758074548.19761,1758074547.97383,0.0,0.0,0.0,-35.86716,7.39116,11.74564,10.24,-0.09,0.38,2.0
1758074548.20037,1758074547.98383,0.0,0.0,0.0,-36.6693,1.66158,13.80828,10.24,-0.09,0.38,2.0
1758074548.21561,1758074547.99383,0.0,0.0,0.0,-37.75792,-6.99009,15.46986,10.08,-0.18,1.07,2.0
1758074548.23158,1758074548.00383,0.0,0.0,0.0,-38.50277,-20.74107,17.87628,10.78,-0.35,2.28,2.0
1758074548.23194,1758074548.01383,0.0,0.0,0.0,-37.64333,-30.59595,17.76169,10.78,-0.35,2.28,2.0
1758074548.24836,1758074548.02383,0.0,0.0,0.0,-34.14828,-39.53409,15.12609,14.04,-1.66,4.21,2.0
1758074548.25029,1758074548.03383,0.0,0.0,0.0,-23.89234,-46.46688,9.22462,14.04,-1.66,4.21,2.0
1758074548.26567,1758074548.04383,0.0,0.0,0.0,-15.75634,-58.55629,5.55769,17.4,-4.09,6.19,2.0
1758074548.26651,1758074548.05383,0.0,0.0,0.0,-8.59437,-74.14074,3.26586,17.4,-4.09,6.19,2.0
1758074548.28196,1758074548.06383,0.0,0.0,0.0,-3.55234,-98.37686,1.3751,14.13,-4.44,5.22,2.0
1758074548.29917,1758074548.07383,0.0,0.0,0.0,-1.60428,-116.25314,-2.34913,14.13,-4.44,5.22,2.0
1758074548.30014,1758074548.08383,0.0,0.0,0.0,-0.74485,-108.91928,-1.83346,10.07,-2.45,2.02,2.0
1758074548.31563,1758074548.09383,0.0,0.0,0.0,-0.80214,-99.00711,-1.43239,8.52,-0.23,0.03,2.0
1758074548.31687,1758074548.10383,0.0,0.0,0.0,-2.57831,-92.41809,-0.68755,8.52,-0.23,0.03,2.0
1758074548.3328,1758074548.11383,0.0,0.0,0.0,-6.70361,-85.54259,2.00535,5.07,0.45,2.3,2.0
1758074548.33641,1758074548.12383,0.0,0.0,0.0,-9.33921,-76.1461,4.1253,5.07,0.45,2.3,2.0
1758074548.35308,1758074548.13383,0.0,0.0,0.0,-11.57375,-61.70755,7.16197,5.55,0.0,3.08,2.0
1758074548.35597,1758074548.14383,0.0,0.0,0.0,-12.37589,-42.85724,8.70896,5.55,0.0,3.08,2.0
1758074548.37094,1758074548.15383,0.0,0.0,0.0,-13.40721,-21.94428,12.2613,9.13,-1.25,3.9,2.0
1758074548.38669,1758074548.16383,0.0,0.0,0.0,-13.40721,-2.34913,14.09476,12.6,-2.54,2.59,2.0
1758074548.38763,1758074548.17383,0.0,0.0,0.0,-13.34992,18.10547,15.12609,12.6,-2.54,2.59,2.0
1758074548.40247,1758074548.18383,0.0,0.0,0.0,-11.97482,38.90384,16.55848,13.76,-3.29,-0.02,2.0
1758074548.40603,1758074548.19383,0.0,0.0,0.0,-10.08406,58.78547,16.3293,13.76,-3.29,-0.02,2.0
1758074548.42316,1758074548.20383,0.0,0.0,0.0,-9.28192,66.92148,13.98017,11.96,-3.22,-0.95,2.0
1758074548.43869,1758074548.21383,0.0,0.0,0.0,-8.02141,72.76565,10.94349,11.96,-3.22,-0.95,2.0
1758074548.44076,1758074548.22383,0.0,0.0,0.0,-6.47442,75.85962,7.16197,10.76,-2.4,-0.73,2.0
1758074548.45547,1758074548.23383,0.0,0.0,0.0,-4.64096,83.82372,4.64096,10.71,-1.47,-0.31,2.0
1758074548.45669,1758074548.24383,0.0,0.0,0.0,-2.63561,89.83979,2.7502,10.71,-1.47,-0.31,2.0
1758074548.47285,1758074548.25383,0.0,0.0,0.0,-0.85944,94.07968,0.80214,10.14,-1.34,-0.22,2.0
1758074548.48875,1758074548.26383,0.0,0.0,0.0,2.11994,99.06441,0.34377,10.14,-1.34,-0.22,2.0
1758074548.4905,1758074548.27383,0.0,0.0,0.0,4.0107,102.50216,0.68755,9.47,-1.81,0.53,2.0
1758074548.50556,1758074548.28383,0.0,0.0,0.0,5.95876,104.33562,1.60428,9.47,-1.81,0.53,2.0
1758074548.5067,1758074548.29383,0.0,0.0,0.0,7.79223,104.22102,3.38045,8.85,-2.25,0.94,2.0
1758074548.52166,1758074548.30383,0.0,0.0,0.0,10.8289,100.32492,6.8182,8.85,-2.25,1.07,2.0
1758074548.53847,1758074548.31383,0.0,0.0,0.0,12.37589,96.5434,8.93814,8.35,-2.5,1.07,2.0
1758074548.54048,1758074548.32383,0.0,0.0,0.0,13.23533,92.4754,10.25595,8.37,-2.42,0.8,2.0
1758074548.55583,1758074548.33383,0.0,0.0,0.0,13.34992,87.14688,10.48513,8.37,-2.42,0.8,2.0
1758074548.55788,1758074548.34383,0.0,0.0,0.0,12.77696,76.48987,8.42248,8.26,-2.26,0.96,2.0
1758074548.57357,1758074548.35383,0.0,0.0,0.0,12.54778,68.86953,5.90147,8.26,-2.26,0.96,2.0
1758074548.57548,1758074548.36383,0.0,0.0,0.0,12.37589,60.90542,2.57831,8.08,-2.26,0.93,2.0
1758074548.59203,1758074548.37383,0.0,0.0,0.0,12.71966,52.82671,-1.14592,8.08,-2.26,0.93,2.0
1758074548.6086,1758074548.38383,0.0,0.0,0.0,14.20935,40.68,-6.53172,8.13,-2.31,0.86,2.0
1758074548.6108,1758074548.39383,0.0,0.0,0.0,17.30333,36.26823,-8.59437,8.65,-2.43,0.87,2.0
1758074548.62548,1758074548.40383,0.0,0.0,0.0,21.31403,37.58603,-9.91217,8.65,-2.43,0.87,2.0
1758074548.62696,1758074548.41383,0.0,0.0,0.0,25.72581,40.04975,-10.65701,9.63,-2.63,0.8,2.0
1758074548.64184,1758074548.42383,0.0,0.0,0.0,33.68992,40.96649,-10.37054,9.63,-2.63,0.8,2.0
1758074548.65759,1758074548.43383,0.0,0.0,0.0,39.53409,39.3622,-8.99544,9.35,-2.73,1.54,2.0
1758074548.66116,1758074548.44383,0.0,0.0,0.0,45.37826,36.15364,-6.87549,9.35,-2.73,1.54,2.0
1758074548.67659,1758074548.45383,0.0,0.0,0.0,53.11319,31.79916,-2.46372,8.86,-2.57,1.69,2.0
1758074548.67781,1758074548.46383,0.0,0.0,0.0,57.81144,23.83505,0.11459,8.4,-2.25,1.24,2.0
1758074548.69286,1758074548.47383,0.0,0.0,0.0,62.22322,17.87628,2.11994,8.4,-2.25,1.24,2.0
1758074548.70968,1758074548.48383,0.0,0.0,0.0,66.06203,7.79223,3.26586,7.92,-1.92,0.56,2.0
1758074548.71093,1758074548.49383,0.0,0.0,0.0,68.12468,-13.34992,1.77617,7.92,-1.92,0.56,2.0
1758074548.72596,1758074548.50383,0.0,0.0,0.0,67.43713,-15.98552,-5.21392,7.69,-1.51,-0.34,2.0
1758074548.72682,1758074548.51383,0.0,0.0,0.0,68.35387,-12.60507,-6.87549,7.69,-1.51,-0.34,2.0
1758074548.74196,1758074548.52383,0.0,0.0,0.0,68.23928,-2.11994,-9.91217,9.96,-1.44,-0.56,2.0
1758074548.75798,1758074548.53383,0.0,0.0,0.0,66.46311,14.38124,-15.24068,10.53,-1.01,0.99,2.0
1758074548.75926,1758074548.54383,0.0,0.0,0.0,65.83286,14.03747,-19.76705,10.53,-1.01,0.99,2.0
1758074548.77592,1758074548.55383,0.0,0.0,0.0,65.2026,-0.40107,-24.17882,8.31,-0.47,2.7,2.0
1758074548.77714,1758074548.56383,0.0,0.0,0.0,66.74959,-31.2262,-21.94428,8.31,-0.47,2.7,2.0
1758074548.79182,1758074548.57383,0.0,0.0,0.0,65.03072,-42.51347,-16.50119,10.61,0.75,3.95,2.0
1758074548.80803,1758074548.58383,0.0,0.0,0.0,60.04598,-44.46153,-12.49048,10.61,0.75,3.95,2.0
1758074548.80964,1758074548.59383,0.0,0.0,0.0,49.38896,-50.64947,-8.76626,15.33,3.04,6.85,2.0
1758074548.82494,1758074548.60383,0.0,0.0,0.0,34.66395,-61.30648,-1.08862,15.33,3.04,6.85,2.0
1758074548.82587,1758074548.61383,0.0,0.0,0.0,6.18794,-52.9986,1.83346,16.43,5.77,11.25,2.0
1758074548.84168,1758074548.62383,0.0,0.0,0.0,-12.77696,-48.58683,-1.71887,16.17,4.23,7.29,2.0
1758074548.85769,1758074548.63383,0.0,0.0,0.0,-28.70519,-53.68615,-5.21392,16.17,4.23,7.29,2.0
1758074548.85929,1758074548.64383,0.0,0.0,0.0,-39.4195,-51.79538,-13.75099,9.64,-1.3,5.76,2.0
1758074548.87391,1758074548.65383,0.0,0.0,0.0,-45.77933,-61.1346,-18.56383,9.64,-1.3,5.76,2.0
1758074548.87565,1758074548.66383,0.0,0.0,0.0,-44.57612,-68.06739,-23.89234,5.17,-3.18,5.13,2.0
1758074548.89168,1758074548.67383,0.0,0.0,0.0,-39.76327,-70.93218,-26.87172,5.17,-3.18,5.13,2.0
1758074548.90765,1758074548.68383,0.0,0.0,0.0,-27.50197,-62.96807,-30.88243,6.45,-3.22,5.8,2.0
1758074548.90964,1758074548.69383,0.0,0.0,0.0,-17.30333,-52.19646,-31.91375,9.52,-2.12,3.63,2.0
1758074548.92501,1758074548.70383,0.0,0.0,0.0,-6.99009,-39.13302,-32.14294,9.52,-2.12,3.63,2.0
1758074548.92631,1758074548.71383,0.0,0.0,0.0,3.09397,-25.89769,-31.62727,10.07,-0.61,2.34,2.0
1758074548.94191,1758074548.72383,0.0,0.0,0.0,15.06879,-10.02676,-28.70519,10.07,-0.61,2.34,2.0
1758074548.95884,1758074548.73383,0.0,0.0,0.0,21.7724,-2.06265,-24.57989,9.32,0.23,1.9,2.0
1758074548.96016,1758074548.74383,0.0,0.0,0.0,26.41335,6.35983,-19.53786,9.32,0.23,1.9,2.0
1758074548.97591,1758074548.75383,0.0,0.0,0.0,30.13758,15.58445,-14.15206,9.41,0.39,2.38,2.0
1758074548.97673,1758074548.76383,0.0,0.0,0.0,33.51803,28.70519,-6.07335,9.32,0.22,2.51,2.0
1758074548.99178,1758074548.77383,0.0,0.0,0.0,34.60666,36.15364,-1.66158,9.32,0.22,2.51,2.0
1758074549.00779,1758074548.78383,0.0,0.0,0.0,35.00772,39.99245,2.34913,8.74,0.28,2.58,2.0
1758074549.00894,1758074548.79383,0.0,0.0,0.0,34.72124,41.02378,5.72958,8.74,0.28,2.58,2.0
1758074549.02536,1758074548.80383,0.0,0.0,0.0,32.77319,40.10705,8.65166,8.48,0.58,2.58,2.0
1758074549.02661,1758074548.81383,0.0,0.0,0.0,30.30947,39.99245,8.88085,8.48,0.58,2.58,2.0
1758074549.04193,1758074548.82383,0.0,0.0,0.0,27.44468,39.76327,8.136,8.81,0.94,2.53,2.0
1758074549.04957,1758074548.83383,0.0,0.0,0.0,23.83505,38.38818,6.07335,8.81,0.94,2.53,2.0
1758074549.06489,1758074548.84383,0.0,0.0,0.0,18.44924,33.11696,3.20856,8.73,1.27,2.79,2.0
1758074549.06607,1758074548.85383,0.0,0.0,0.0,15.46986,28.59059,1.66158,8.42,1.39,3.0,2.0
1758074549.15648,1758074548.86383,0.0,0.0,0.0,12.54778,23.89234,0.34377,8.42,1.39,3.0,2.0
1758074549.16494,1758074548.87383,0.0,0.0,0.0,9.11003,18.22006,-0.22918,8.38,1.35,2.86,2.0
1758074549.20545,1758074548.88383,0.0,0.0,0.0,7.10468,14.43854,0.17189,8.38,1.35,2.86,2.0
1758074549.20904,1758074548.89383,0.0,0.0,0.0,5.32851,11.74564,1.77617,8.29,1.24,2.77,2.0
1758074549.21042,1758074548.90383,0.0,0.0,0.0,3.49504,10.59972,3.55234,8.29,1.24,2.77,2.0
1758074549.21192,1758074548.91383,0.0,0.0,0.0,0.51566,9.39651,6.99009,8.44,1.01,2.74,2.0
1758074549.21478,1758074548.92383,0.0,0.0,0.0,-1.60428,6.70361,9.11003,8.28,0.84,2.62,2.0
1758074549.21544,1758074548.93383,0.0,0.0,0.0,-4.0107,2.00535,10.8289,8.28,0.84,2.62,2.0
1758074549.2165,1758074548.94383,0.0,0.0,0.0,-7.04738,-3.55234,11.97482,8.14,0.83,2.5,2.0
1758074549.21911,1758074548.95383,0.0,0.0,0.0,-12.77696,-10.08406,12.37589,8.14,0.83,2.5,2.0
1758074549.22075,1758074548.96383,0.0,0.0,0.0,-16.55848,-12.204,12.43318,8.51,1.02,2.19,2.0
1758074549.22158,1758074548.97383,0.0,0.0,0.0,-20.68378,-13.12073,12.204,8.51,1.02,2.19,2.0
1758074549.22502,1758074548.98383,0.0,0.0,0.0,-24.63719,-15.06879,12.14671,8.79,1.21,2.3,2.0
1758074549.22582,1758074548.99383,0.0,0.0,0.0,-30.93972,-19.19409,11.57375,8.56,1.29,2.41,2.0
1758074549.22773,1758074549.00383,0.0,0.0,0.0,-35.00772,-21.25674,11.34457,8.56,1.29,2.41,2.0
1758074549.23027,1758074549.01383,0.0,0.0,0.0,-38.21629,-24.23611,10.48513,8.52,1.27,1.9,2.0
1758074549.24596,1758074549.02383,0.0,0.0,0.0,-40.27893,-28.76248,10.02676,8.52,1.27,1.9,2.0
1758074549.24715,1758074549.03383,0.0,0.0,0.0,-41.36755,-36.49741,10.94349,8.28,1.0,1.47,2.0
1758074549.26521,1758074549.04383,0.0,0.0,0.0,-40.62271,-39.70598,11.74564,8.28,1.0,1.47,2.0
1758074549.26642,1758074549.05383,0.0,0.0,0.0,-39.07573,-40.7946,12.83425,8.66,0.72,0.89,2.0
1758074549.28195,1758074549.06383,0.0,0.0,0.0,-35.86716,-40.27893,15.12609,8.66,0.72,0.89,2.0
1758074549.29796,1758074549.07383,0.0,0.0,0.0,-33.17426,-24.5226,19.07949,9.24,0.16,0.98,2.0
1758074549.30156,1758074549.08383,0.0,0.0,0.0,-31.62727,-10.8862,20.05352,10.61,0.06,1.65,2.0
1758074549.31725,1758074549.09383,0.0,0.0,0.0,-36.95578,-23.0902,15.41257,10.61,0.06,1.65,2.0
1758074549.31844,1758074549.10383,0.0,0.0,0.0,-40.39353,-33.05967,12.71966,7.9,0.17,1.78,2.0
1758074549.33329,1758074549.11383,0.0,0.0,0.0,-41.42485,-30.19488,11.80293,7.9,0.17,1.78,2.0
1758074549.34926,1758074549.12383,0.0,0.0,0.0,-41.31026,-27.2155,13.23533,9.36,0.56,1.0,2.0
1758074549.35017,1758074549.13383,0.0,0.0,0.0,-41.76862,-25.09555,14.61043,9.36,0.56,1.0,2.0
1758074549.36528,1758074549.14383,0.0,0.0,0.0,-41.88322,-19.88164,16.61578,9.17,0.56,0.53,2.0
1758074549.36621,1758074549.15383,0.0,0.0,0.0,-41.25296,-14.32395,18.33465,9.64,0.25,1.25,2.0
1758074549.38391,1758074549.16383,0.0,0.0,0.0,-39.76327,-11.91752,19.82434,9.64,0.25,1.25,2.0
1758074549.40037,1758074549.17383,0.0,0.0,0.0,-37.92981,-13.80828,20.62648,9.37,-0.18,1.39,2.0
1758074549.40124,1758074549.18383,0.0,0.0,0.0,-35.12231,-19.59516,20.97026,9.37,-0.18,1.39,2.0
1758074549.4163,1758074549.19383,0.0,0.0,0.0,-33.51803,-22.28806,20.3973,9.75,-0.67,1.27,2.0
1758074549.41723,1758074549.20383,0.0,0.0,0.0,-31.85646,-23.0902,19.59516,9.75,-0.67,1.27,2.0
1758074549.43286,1758074549.21383,0.0,0.0,0.0,-30.53865,-21.02755,18.33465,10.77,-0.95,0.91,2.0
1758074549.45005,1758074549.22383,0.0,0.0,0.0,-29.22085,-14.03747,16.21471,11.5,-1.04,1.22,2.0
1758074549.45128,1758074549.23383,0.0,0.0,0.0,-28.93437,-8.76626,14.72501,11.5,-1.04,1.22,2.0
1758074549.46605,1758074549.24383,0.0,0.0,0.0,-29.33544,-4.29718,13.17803,11.34,-0.84,1.47,2.0
1758074549.46723,1758074549.25383,0.0,0.0,0.0,-30.65324,-1.3751,11.45916,11.34,-0.84,1.47,2.0
1758074549.48314,1758074549.26383,0.0,0.0,0.0,-33.00237,2.23454,8.88085,10.83,-0.22,1.59,2.0
1758074549.48646,1758074549.27383,0.0,0.0,0.0,-34.72124,5.32851,6.87549,10.83,-0.22,1.59,2.0
1758074549.50313,1758074549.28383,0.0,0.0,0.0,-36.38282,8.30789,5.55769,10.85,0.58,1.45,2.0
1758074549.5192,1758074549.29383,0.0,0.0,0.0,-40.10705,11.17268,4.1253,10.85,0.58,1.45,2.0
1758074549.52066,1758074549.30383,0.0,0.0,0.0,-42.68536,11.97482,4.29718,10.61,1.19,1.29,2.0
1758074549.53504,1758074549.31383,0.0,0.0,0.0,-45.60744,10.8862,5.09932,10.31,1.36,1.09,2.0
1758074549.53666,1758074549.32383,0.0,0.0,0.0,-48.9306,4.23989,6.47442,10.31,1.36,1.09,2.0
1758074549.55308,1758074549.33383,0.0,0.0,0.0,-54.14451,-14.78231,8.02141,9.52,1.07,1.38,2.0
1758074549.56941,1758074549.34383,0.0,0.0,0.0,-57.23849,-28.59059,9.11003,9.52,1.07,1.38,2.0
1758074549.57113,1758074549.35383,0.0,0.0,0.0,-60.33246,-42.97184,7.84952,10.15,0.63,2.72,2.0
1758074549.58614,1758074549.36383,0.0,0.0,0.0,-60.44705,-50.76406,4.18259,10.15,0.63,2.72,2.0
1758074549.58794,1758074549.37383,0.0,0.0,0.0,-52.54023,-49.38896,-3.49504,14.95,-1.77,4.84,2.0
1758074549.60298,1758074549.38383,0.0,0.0,0.0,-44.17505,-50.59217,-6.99009,18.48,-5.98,5.62,2.0
1758074549.60765,1758074549.39383,0.0,0.0,0.0,-36.15364,-59.81679,-7.96411,18.48,-5.98,5.62,2.0
1758074549.62544,1758074549.40383,0.0,0.0,0.0,-28.76248,-73.3959,-7.21927,12.67,-6.68,4.26,2.0
1758074549.62637,1758074549.41383,0.0,0.0,0.0,-20.97026,-88.92306,-3.89611,12.67,-6.68,4.26,2.0
1758074549.6442,1758074549.42383,0.0,0.0,0.0,-19.07949,-88.2355,-1.94806,8.42,-3.56,1.42,2.0
1758074549.66095,1758074549.43383,0.0,0.0,0.0,-18.10547,-79.69843,0.11459,8.42,-3.56,1.42,2.0
1758074549.66265,1758074549.44383,0.0,0.0,0.0,-18.44924,-71.73432,0.97403,6.82,-1.15,1.15,2.0
1758074549.6772,1758074549.45383,0.0,0.0,0.0,-21.14215,-64.85883,0.51566,5.2,-0.38,3.29,2.0
1758074549.67876,1758074549.46383,0.0,0.0,0.0,-21.42862,-50.76406,-4.23989,5.2,-0.38,3.29,2.0
1758074549.69348,1758074549.47383,0.0,0.0,0.0,-22.34536,-45.83662,-1.03132,7.27,-0.64,3.26,2.0
1758074549.7095,1758074549.48383,0.0,0.0,0.0,-21.88699,-25.89769,2.40642,7.27,-0.64,3.26,2.0
1758074549.71038,1758074549.49383,0.0,0.0,0.0,-19.19409,6.87549,6.07335,11.61,-2.36,2.88,2.0
1758074549.72549,1758074549.50383,0.0,0.0,0.0,-15.24068,27.96034,10.25595,11.61,-2.36,2.88,2.0
1758074549.72668,1758074549.51383,0.0,0.0,0.0,-10.65701,43.65939,13.5218,11.9,-4.0,0.31,2.0
1758074549.74254,1758074549.52383,0.0,0.0,0.0,-4.64096,54.431,14.03747,11.9,-4.0,0.31,2.0
1758074549.75904,1758074549.53383,0.0,0.0,0.0,-0.85944,62.22322,13.12073,10.8,-4.45,0.11,2.0
1758074549.76111,1758074549.54383,0.0,0.0,0.0,2.57831,70.58841,10.48513,10.74,-4.06,0.03,2.0
1758074549.77631,1758074549.55383,0.0,0.0,0.0,4.98473,73.2813,8.42248,10.74,-4.06,0.03,2.0
1758074549.79499,1758074549.56383,0.0,0.0,0.0,8.30789,76.77635,4.69825,9.99,-3.36,0.31,2.0
1758074549.7952,1758074549.57383,0.0,0.0,0.0,11.00079,78.38063,3.26586,9.99,-3.36,0.31,2.0
1758074549.80829,1758074549.58383,0.0,0.0,0.0,13.98017,80.0995,3.03668,9.62,-2.78,0.23,2.0
1758074549.81027,1758074549.59383,0.0,0.0,0.0,17.01685,83.30807,3.89611,9.62,-2.78,0.23,2.0
1758074549.82571,1758074549.60383,0.0,0.0,0.0,20.79837,87.0323,5.95876,9.61,-2.43,0.47,2.0
1758074549.82692,1758074549.61383,0.0,0.0,0.0,23.20479,86.45934,7.73493,9.14,-2.2,1.23,2.0
1758074549.84257,1758074549.62383,0.0,0.0,0.0,25.15285,82.96429,9.74028,9.14,-2.2,1.23,2.0
1758074549.85847,1758074549.63383,0.0,0.0,0.0,26.81443,78.7244,11.34457,8.47,-2.1,1.32,2.0
1758074549.86114,1758074549.64383,0.0,0.0,0.0,28.24682,72.42187,12.77696,8.47,-2.1,1.32,2.0
1758074549.87657,1758074549.65383,0.0,0.0,0.0,28.64789,66.80688,12.43318,8.41,-2.19,1.02,2.0
1758074549.87921,1758074549.66383,0.0,0.0,0.0,28.59059,60.16057,11.34457,8.41,-2.19,1.02,2.0
1758074549.8966,1758074549.67383,0.0,0.0,0.0,28.64789,52.76942,8.70896,8.26,-2.3,0.92,2.0
1758074549.90103,1758074549.68383,0.0,0.0,0.0,28.41871,39.3622,6.35983,8.26,-2.39,0.99,2.0
1758074549.91664,1758074549.69383,0.0,0.0,0.0,28.76248,31.11161,3.49504,8.26,-2.39,0.99,2.0
1758074549.91755,1758074549.70383,0.0,0.0,0.0,29.8511,25.38203,1.20321,8.77,-2.5,1.17,2.0
1758074549.93263,1758074549.71383,0.0,0.0,0.0,33.11696,25.89769,-2.11994,8.77,-2.5,1.17,2.0
1758074549.951,1758074549.72383,0.0,0.0,0.0,35.92446,28.64789,-3.89611,9.6,-2.61,1.44,2.0
1758074549.95301,1758074549.73383,0.0,0.0,0.0,38.84654,31.16891,-5.15662,9.6,-2.61,1.44,2.0
1758074549.96942,1758074549.74383,0.0,0.0,0.0,41.94051,32.6013,-5.55769,9.52,-2.52,1.87,2.0
1758074549.9711,1758074549.75383,0.0,0.0,0.0,46.63877,31.74186,-4.46907,9.52,-2.52,1.86,2.0
1758074549.98656,1758074549.76383,0.0,0.0,0.0,50.13381,30.19488,-2.63561,9.14,-2.32,1.86,2.0
1758074549.99106,1758074549.77383,0.0,0.0,0.0,53.17049,29.04896,-0.51566,9.05,-2.2,1.4,2.0
1758074550.00638,1758074549.78383,0.0,0.0,0.0,56.20716,27.96034,1.43239,9.05,-2.2,1.4,2.0
1758074550.00915,1758074549.79383,0.0,0.0,0.0,60.50434,26.18417,3.32316,9.14,-2.08,1.22,2.0
1758074550.02435,1758074549.80383,0.0,0.0,0.0,63.31184,19.99623,3.60963,9.14,-2.08,1.22,2.0
1758074550.02713,1758074549.81383,0.0,0.0,0.0,64.57235,8.70896,2.46372,8.5,-1.86,0.95,2.0
1758074550.04265,1758074549.82383,0.0,0.0,0.0,64.91612,2.63561,0.45837,8.5,-1.86,0.95,2.0
1758074550.06053,1758074549.83383,0.0,0.0,0.0,64.80153,5.55769,-5.90147,8.57,-1.58,0.55,2.0
1758074550.06163,1758074549.84383,0.0,0.0,0.0,66.46311,18.10547,-6.8182,10.28,-1.4,0.41,2.0
1758074550.07688,1758074549.85383,0.0,0.0,0.0,66.46311,31.51268,-9.85487,10.28,-1.4,0.41,2.0
1758074550.07764,1758074549.86383,0.0,0.0,0.0,65.71826,38.78925,-12.89155,9.69,-1.28,1.66,2.0
1758074550.09268,1758074549.87383,0.0,0.0,0.0,66.06203,17.6471,-20.51189,9.69,-1.28,1.66,2.0
1758074550.10868,1758074549.88383,0.0,0.0,0.0,67.37984,-17.36062,-18.33465,6.17,-0.98,0.88,2.0
1758074550.11075,1758074549.89383,0.0,0.0,0.0,67.26525,-34.26288,-15.29797,6.17,-0.98,0.88,2.0
1758074550.12568,1758074549.90383,0.0,0.0,0.0,69.61437,-35.63798,-12.37589,8.73,-0.97,-0.17,2.0
1758074550.1266,1758074549.91383,0.0,0.0,0.0,71.27596,-29.62192,-11.22997,11.11,-1.12,0.23,2.0
1758074550.14373,1758074549.92383,0.0,0.0,0.0,71.50513,-25.8404,-10.71431,11.11,-1.12,0.23,2.0
1758074550.16075,1758074549.93383,0.0,0.0,0.0,69.21331,-28.59059,-10.59972,11.65,-0.31,5.36,2.0
1758074550.16169,1758074549.94383,0.0,0.0,0.0,57.63955,-35.92446,-9.39651,11.65,-0.31,5.36,2.0
1758074550.17678,1758074549.95383,0.0,0.0,0.0,42.57077,-36.6693,-8.02141,14.33,2.38,8.11,2.0
1758074550.18016,1758074549.96383,0.0,0.0,0.0,22.86102,-33.34615,-6.70361,14.33,2.38,8.11,2.0
1758074550.19567,1758074549.97383,0.0,0.0,0.0,1.3178,-27.61657,-5.61499,16.75,5.23,7.43,2.0
1758074550.19666,1758074549.98383,0.0,0.0,0.0,-27.84575,-17.36062,-4.98473,14.72,5.23,5.24,2.0
1758074550.21452,1758074549.99383,0.0,0.0,0.0,-39.87786,-13.40721,-7.33386,14.72,4.78,5.24,2.0
1758074550.23075,1758074550.00383,0.0,0.0,0.0,-45.77933,-13.06344,-12.08941,9.76,0.33,4.64,2.0
1758074550.23195,1758074550.01383,0.0,0.0,0.0,-46.52417,-14.15206,-17.6471,9.76,0.33,4.64,2.0
1758074550.2468,1758074550.02383,0.0,0.0,0.0,-41.08107,-15.24068,-25.55392,6.92,-2.73,5.0,2.0
1758074550.24797,1758074550.03383,0.0,0.0,0.0,-33.40344,-13.06344,-32.20023,6.92,-2.73,5.0,2.0
1758074550.26496,1758074550.04383,0.0,0.0,0.0,-22.23076,-16.50119,-34.77854,7.29,-4.2,5.21,2.0
1758074550.28081,1758074550.05383,0.0,0.0,0.0,-10.71431,-18.27736,-36.61201,7.29,-4.2,5.21,2.0
1758074550.2817,1758074550.06383,0.0,0.0,0.0,6.35983,-16.90226,-32.37212,8.45,-4.51,4.23,2.0
1758074550.2968,1758074550.07383,0.0,0.0,0.0,15.64175,-11.91752,-27.10091,9.68,-3.28,3.38,2.0
1758074550.3001,1758074550.08383,0.0,0.0,0.0,23.20479,-5.61499,-21.25674,9.68,-3.28,3.38,2.0
1758074550.31573,1758074550.09383,0.0,0.0,0.0,28.87707,0.17189,-13.69369,9.43,-1.49,3.37,2.0
1758074550.31702,1758074550.10383,0.0,0.0,0.0,33.68992,5.50039,-9.74028,9.43,-1.49,3.37,2.0
1758074550.33363,1758074550.11383,0.0,0.0,0.0,35.06502,8.76626,-7.04738,8.58,0.25,3.41,2.0
1758074550.34983,1758074550.12383,0.0,0.0,0.0,35.63798,11.91752,-5.27121,8.58,0.25,3.41,2.0
1758074550.35076,1758074550.13383,0.0,0.0,0.0,34.60666,15.75634,-3.38045,8.67,1.42,3.22,2.0
1758074550.3659,1758074550.14383,0.0,0.0,0.0,33.11696,19.53786,-2.63561,8.95,1.5,3.09,2.0
1758074550.36855,1758074550.15383,0.0,0.0,0.0,30.99702,22.34536,-2.46372,8.95,1.5,3.09,2.0
1758074550.38487,1758074550.16383,0.0,0.0,0.0,28.99167,23.31938,-2.40642,8.64,0.89,3.19,2.0
1758074550.40168,1758074550.17383,0.0,0.0,0.0,24.98096,24.75178,-2.11994,8.64,0.89,3.19,2.0
1758074550.40699,1758074550.18383,0.0,0.0,0.0,21.88699,24.63719,-2.57831,8.39,0.44,3.24,2.0
1758074550.40909,1758074550.19383,0.0,0.0,0.0,18.44924,21.42862,-2.97938,8.39,0.44,3.24,2.0
1758074550.42546,1758074550.20383,0.0,0.0,0.0,15.06879,17.99088,-3.03668,8.03,0.54,3.1,2.0
1758074550.42699,1758074550.21383,0.0,0.0,0.0,10.48513,14.78231,-2.63561,8.51,0.99,3.04,2.0
1758074550.4457,1758074550.22383,0.0,0.0,0.0,8.30789,12.77696,-1.3751,8.51,0.99,3.04,2.0
1758074550.44703,1758074550.23383,0.0,0.0,0.0,6.58902,10.59972,-0.45837,8.64,1.18,2.99,2.0
1758074550.46378,1758074550.24383,0.0,0.0,0.0,5.61499,8.99544,0.74485,8.64,1.18,2.99,2.0
1758074550.48098,1758074550.25383,0.0,0.0,0.0,5.50039,7.67763,2.7502,8.53,1.04,3.0,2.0
1758074550.48185,1758074550.26383,0.0,0.0,0.0,6.07335,6.47442,4.0107,8.53,1.04,3.0,2.0
1758074550.49699,1758074550.27383,0.0,0.0,0.0,6.70361,5.09932,5.4431,8.34,0.72,2.79,2.0
1758074550.49872,1758074550.28383,0.0,0.0,0.0,7.39116,3.49504,6.87549,8.34,0.72,2.79,2.0
1758074550.51527,1758074550.29383,0.0,0.0,0.0,7.84952,-0.57296,9.39651,8.29,0.44,2.58,2.0
1758074550.53097,1758074550.30383,0.0,0.0,0.0,7.73493,-4.29718,11.45916,8.31,0.27,2.39,2.0
1758074550.53214,1758074550.31383,0.0,0.0,0.0,6.53172,-7.39116,13.5218,8.31,0.27,2.39,2.0
1758074550.54697,1758074550.32383,0.0,0.0,0.0,2.29183,-10.08406,15.0115,8.65,0.35,2.48,2.0
1758074550.54946,1758074550.33383,0.0,0.0,0.0,-2.06265,-12.89155,14.15206,8.65,0.35,2.48,2.0
1758074550.56558,1758074550.34383,0.0,0.0,0.0,-6.99009,-11.91752,13.46451,8.84,0.8,2.3,2.0
1758074550.56669,1758074550.35383,0.0,0.0,0.0,-11.86023,-10.25595,13.23533,8.84,0.8,2.3,2.0
1758074550.58397,1758074550.36383,0.0,0.0,0.0,-18.73572,-11.28727,12.89155,9.05,1.24,2.42,2.0
1758074550.60083,1758074550.37383,0.0,0.0,0.0,-22.97561,-13.98017,12.60507,8.53,1.29,2.53,2.0
1758074550.60173,1758074550.38383,0.0,0.0,0.0,-27.1582,-16.272,12.204,8.53,1.29,2.53,2.0
1758074550.61702,1758074550.39383,0.0,0.0,0.0,-29.9084,-20.51189,12.43318,8.36,1.16,1.96,2.0
1758074550.61795,1758074550.40383,0.0,0.0,0.0,-33.05967,-28.76248,11.80293,8.36,1.16,1.96,2.0
1758074550.63302,1758074550.41383,0.0,0.0,0.0,-33.86181,-36.55471,11.86023,8.16,0.9,1.56,2.0
1758074550.64875,1758074550.42383,0.0,0.0,0.0,-33.74722,-43.02913,12.60507,8.16,0.9,1.56,2.0
1758074550.6503,1758074550.43383,0.0,0.0,0.0,-32.83048,-50.13381,13.5791,8.23,0.69,1.13,2.0
1758074550.66561,1758074550.44383,0.0,0.0,0.0,-31.97105,-57.52497,14.20935,8.55,0.28,0.81,2.0
1758074550.66708,1758074550.45383,0.0,0.0,0.0,-32.25753,-52.19646,17.13144,8.55,0.28,0.81,2.0
1758074550.68306,1758074550.46383,0.0,0.0,0.0,-32.88778,-20.34,15.64175,11.32,0.11,1.48,2.0
1758074550.6988,1758074550.47383,0.0,0.0,0.0,-32.88778,-6.8182,18.73572,11.32,0.11,1.48,2.0
1758074550.70108,1758074550.48383,0.0,0.0,0.0,-38.61736,-34.26288,12.49048,7.9,0.13,2.61,2.0
1758074550.71609,1758074550.49383,0.0,0.0,0.0,-41.42485,-42.57077,9.85487,7.9,0.13,2.61,2.0
1758074550.71742,1758074550.50383,0.0,0.0,0.0,-44.17505,-39.53409,7.84952,8.33,0.5,1.22,2.0
1758074550.73285,1758074550.51383,0.0,0.0,0.0,-44.9199,-32.14294,9.68299,8.33,0.5,1.22,2.0
1758074550.7489,1758074550.52383,0.0,0.0,0.0,-47.15443,-25.09555,11.63104,9.96,0.68,0.0,2.0
1758074550.75003,1758074550.53383,0.0,0.0,0.0,-48.30034,-17.58981,13.69369,9.92,0.44,1.2,2.0
1758074550.76515,1758074550.54383,0.0,0.0,0.0,-48.58683,-10.59972,16.73037,9.92,0.44,1.2,2.0
1758074550.78083,1758074550.55383,0.0,0.0,0.0,-47.32632,-7.44845,20.3973,9.9,0.05,1.8,2.0
1758074550.78316,1758074550.56383,0.0,0.0,0.0,-45.89392,-9.62569,21.7151,9.9,0.05,1.8,2.0
1758074550.79897,1758074550.57383,0.0,0.0,0.0,-44.57612,-12.77696,21.94428,9.5,-0.4,1.78,2.0
1758074550.8006,1758074550.58383,0.0,0.0,0.0,-42.97184,-14.66772,21.14215,9.5,-0.4,1.78,2.0
1758074550.81609,1758074550.59383,0.0,0.0,0.0,-40.68,-13.06344,18.22006,10.12,-0.84,1.13,2.0
1758074550.81703,1758074550.60383,0.0,0.0,0.0,-39.24761,-10.19865,15.41257,10.92,-1.24,1.12,2.0
1758074550.83395,1758074550.61383,0.0,0.0,0.0,-38.1017,-7.96411,12.54778,10.92,-1.24,1.12,2.0
1758074550.85111,1758074550.62383,0.0,0.0,0.0,-37.92981,-7.73493,9.4538,10.68,-1.28,1.75,2.0
1758074550.85314,1758074550.63383,0.0,0.0,0.0,-38.73195,-5.32851,5.78687,10.68,-1.28,1.75,2.0
1758074550.86872,1758074550.64383,0.0,0.0,0.0,-39.76327,-2.23454,3.83882,10.69,-0.54,1.84,2.0
1758074550.87009,1758074550.65383,0.0,0.0,0.0,-40.96649,1.48969,2.11994,10.69,-0.54,1.84,2.0
1758074550.88509,1758074550.66383,0.0,0.0,0.0,-42.05511,5.09932,1.14592,10.88,0.36,1.5,2.0
1758074550.90122,1758074550.67383,0.0,0.0,0.0,-44.57612,9.4538,0.80214,10.86,0.98,1.21,2.0
1758074550.90314,1758074550.68383,0.0,0.0,0.0,-46.63877,10.54242,1.83346,10.86,0.98,1.21,2.0
1758074550.9188,1758074550.69383,0.0,0.0,0.0,-48.75871,6.8182,3.55234,10.4,0.93,1.04,2.0
1758074550.92069,1758074550.70383,0.0,0.0,0.0,-50.82136,-1.77617,5.09932,10.4,0.93,1.04,2.0
1758074550.93638,1758074550.71383,0.0,0.0,0.0,-53.97263,-19.42327,6.41713,10.01,0.37,1.48,2.0
1758074550.93714,1758074550.72383,0.0,0.0,0.0,-55.34772,-32.37212,6.53172,10.01,0.37,1.48,2.0
1758074550.95396,1758074550.73383,0.0,0.0,0.0,-55.11855,-43.60209,3.72423,11.41,-0.51,3.25,2.0
1758074550.97093,1758074550.74383,0.0,0.0,0.0,-47.32632,-48.35764,-3.60963,11.41,-0.51,3.25,2.0
1758074550.97323,1758074550.75383,0.0,0.0,0.0,-38.56006,-48.8733,-7.33386,16.74,-3.46,5.08,2.0
1758074550.98904,1758074550.76383,0.0,0.0,0.0,-29.27814,-57.46767,-8.70896,17.31,-6.21,5.46,2.0
1758074550.99033,1758074550.77383,0.0,0.0,0.0,-21.6578,-75.05748,-8.42248,17.31,-6.21,5.46,2.0
1758074551.00496,1758074550.78383,0.0,0.0,0.0,-13.98017,-100.78329,-6.41713,11.23,-5.13,3.16,2.0
1758074551.02124,1758074550.79383,0.0,0.0,0.0,-12.08941,-104.90858,-4.81285,11.23,-5.13,3.16,2.0
1758074551.02264,1758074550.80383,0.0,0.0,0.0,-12.37589,-98.37686,-3.09397,8.57,-2.06,0.14,2.0
1758074551.03701,1758074550.81383,0.0,0.0,0.0,-14.43854,-89.15224,-2.29183,8.57,-2.06,0.14,2.0
1758074551.03849,1758074550.82383,0.0,0.0,0.0,-19.76705,-81.30271,-2.11994,6.5,-0.31,1.16,2.0
1758074551.05313,1758074550.83383,0.0,0.0,0.0,-23.89234,-76.0315,-2.57831,5.05,0.22,3.76,2.0
1758074551.07001,1758074550.84383,0.0,0.0,0.0,-25.7831,-61.93674,-3.03668,5.05,0.22,3.76,2.0
1758074551.0712,1758074550.85383,0.0,0.0,0.0,-29.62192,-52.13916,-2.7502,7.76,-0.46,4.07,2.0
1758074551.08651,1758074550.86383,0.0,0.0,0.0,-29.67921,-25.21014,1.48969,7.76,-0.46,4.07,2.0
1758074551.08724,1758074550.87383,0.0,0.0,0.0,-28.76248,-3.49504,5.61499,11.75,-1.99,3.14,2.0
1758074551.10328,1758074550.88383,0.0,0.0,0.0,-27.1582,17.99088,9.68299,11.75,-1.99,3.14,2.0
1758074551.1194,1758074550.89383,0.0,0.0,0.0,-25.43933,39.24761,12.49048,12.88,-3.33,-0.04,2.0
1758074551.12077,1758074550.90383,0.0,0.0,0.0,-21.88699,59.75951,14.03747,12.08,-3.91,-0.64,2.0
1758074551.13517,1758074550.91383,0.0,0.0,0.0,-19.99623,65.83286,12.89155,12.08,-3.91,-0.64,2.0
1758074551.1514,1758074550.92383,0.0,0.0,0.0,-17.87628,69.78626,11.34457,10.75,-3.65,-0.18,2.0
1758074551.15174,1758074550.93383,0.0,0.0,0.0,-15.92823,75.51585,6.99009,10.75,-3.65,-0.18,2.0
1758074551.16715,1758074550.94383,0.0,0.0,0.0,-12.14671,83.88103,3.55234,10.5,-3.04,-0.26,2.0
1758074551.16829,1758074550.95383,0.0,0.0,0.0,-9.39651,87.66255,-0.22918,10.5,-3.04,-0.26,2.0
1758074551.18417,1758074550.96383,0.0,0.0,0.0,-6.99009,86.80311,-2.23454,9.47,-2.72,-0.3,2.0
1758074551.18743,1758074550.97383,0.0,0.0,0.0,-2.6929,91.1003,-2.06265,9.47,-2.72,-0.3,2.0
1758074551.20337,1758074550.98383,0.0,0.0,0.0,0.57296,95.62666,-0.40107,9.25,-2.52,0.59,2.0
1758074551.21933,1758074550.99383,0.0,0.0,0.0,4.18259,97.17365,1.71887,8.85,-2.42,0.57,2.0
1758074551.22109,1758074551.00383,0.0,0.0,0.0,7.73493,95.97043,4.29718,8.85,-2.42,0.57,2.0
1758074551.23609,1758074551.01383,0.0,0.0,0.0,12.2613,91.50137,7.67763,7.94,-2.49,1.02,2.0
1758074551.23738,1758074551.02383,0.0,0.0,0.0,14.78231,86.91771,8.88085,7.94,-2.49,1.02,2.0
1758074551.25319,1758074551.03383,0.0,0.0,0.0,16.55848,82.21945,9.05273,7.89,-2.67,0.72,2.0
1758074551.26942,1758074551.04383,0.0,0.0,0.0,17.6471,77.23472,8.0787,7.89,-2.67,0.72,2.0
1758074551.27036,1758074551.05383,0.0,0.0,0.0,18.44924,68.64035,4.81285,8.22,-2.84,0.77,2.0
1758074551.28597,1758074551.06383,0.0,0.0,0.0,18.90761,61.76485,1.66158,8.45,-2.71,0.85,2.0
1758074551.28746,1758074551.07383,0.0,0.0,0.0,19.48057,54.71747,-1.94806,8.45,-2.71,0.85,2.0
1758074551.30247,1758074551.08383,0.0,0.0,0.0,20.3973,48.24305,-5.61499,8.87,-2.36,1.0,2.0
1758074551.31841,1758074551.09383,0.0,0.0,0.0,23.60586,42.28429,-9.68299,8.87,-2.36,1.0,2.0
1758074551.31936,1758074551.10383,0.0,0.0,0.0,26.87172,45.09178,-11.63104,9.69,-2.21,1.07,2.0
1758074551.33445,1758074551.11383,0.0,0.0,0.0,31.11161,48.07116,-13.00614,9.69,-2.21,1.07,2.0
1758074551.33538,1758074551.12383,0.0,0.0,0.0,35.75257,50.76406,-13.46451,9.88,-2.37,1.31,2.0
1758074551.35079,1758074551.13383,0.0,0.0,0.0,43.02913,51.10783,-13.17803,9.13,-2.54,1.58,2.0
1758074551.36654,1758074551.14383,0.0,0.0,0.0,48.07116,48.9306,-12.08941,9.13,-2.54,1.58,2.0
1758074551.36773,1758074551.15383,0.0,0.0,0.0,52.9986,45.55015,-9.91217,8.56,-2.58,1.31,2.0
1758074551.38222,1758074551.16383,0.0,0.0,0.0,60.10328,38.56006,-6.87549,8.56,-2.58,1.31,2.0
1758074551.4007,1758074551.17383,0.0,0.0,0.0,64.40046,32.54401,-5.21392,8.13,-2.39,0.65,2.0
1758074551.40184,1758074551.18383,0.0,0.0,0.0,68.01009,21.7151,-3.55234,8.13,-2.39,0.65,2.0
1758074551.41973,1758074551.19383,0.0,0.0,0.0,68.98412,7.21927,-4.46907,7.35,-1.88,0.25,2.0
1758074551.42246,1758074551.20383,0.0,0.0,0.0,68.92683,-2.6929,-8.99544,7.35,-1.88,-0.24,2.0
1758074551.4404,1758074551.21383,0.0,0.0,0.0,69.90086,4.58366,-10.65701,7.92,-1.35,-0.24,2.0
1758074551.44574,1758074551.22383,0.0,0.0,0.0,70.76029,14.78231,-11.45916,10.49,-1.02,0.62,2.0
1758074551.44623,1758074551.23383,0.0,0.0,0.0,67.60902,25.7831,-14.43854,10.49,-1.02,0.62,2.0
1758074551.46182,1758074551.24383,0.0,0.0,0.0,67.03606,13.69369,-20.97026,9.88,-0.66,2.23,2.0
1758074551.47847,1758074551.25383,0.0,0.0,0.0,63.77021,-17.87628,-23.49127,9.88,-0.66,2.23,2.0
1758074551.48104,1758074551.26383,0.0,0.0,0.0,63.19725,-37.98711,-18.90761,7.84,-0.14,1.21,2.0
1758074551.49623,1758074551.27383,0.0,0.0,0.0,62.91077,-35.06502,-18.22006,7.84,-0.14,1.21,2.0
1758074551.50146,1758074551.28383,0.0,0.0,0.0,58.67088,-39.53409,-16.61578,13.13,0.27,2.34,2.0
1758074551.5212,1758074551.29383,0.0,0.0,0.0,52.13916,-43.54479,-14.78231,14.01,2.04,6.82,2.0
1758074551.52563,1758074551.30383,0.0,0.0,0.0,39.4768,-46.46688,-13.06344,14.01,2.04,6.82,2.0
1758074551.52598,1758074551.31383,0.0,0.0,0.0,23.54857,-47.49821,-10.8289,15.69,4.36,10.59,2.0
1758074551.54186,1758074551.32383,0.0,0.0,0.0,-4.18259,-43.14373,-9.74028,15.69,4.36,10.59,2.0
1758074551.56001,1758074551.33383,0.0,0.0,0.0,-21.42862,-38.27358,-9.96947,14.9,4.21,7.41,2.0
1758074551.56118,1758074551.34383,0.0,0.0,0.0,-33.86181,-35.63798,-11.34457,14.9,4.21,7.41,2.0
1758074551.57634,1758074551.35383,0.0,0.0,0.0,-42.57077,-33.40344,-14.9542,10.86,0.64,5.82,2.0
1758074551.57995,1758074551.36383,0.0,0.0,0.0,-41.88322,-32.48671,-18.27736,7.69,-2.34,5.83,2.0
1758074551.59562,1758074551.37383,0.0,0.0,0.0,-36.84119,-30.25217,-21.7151,7.69,-2.34,5.83,2.0
1758074551.5966,1758074551.38383,0.0,0.0,0.0,-29.33544,-31.2262,-25.61122,7.72,-3.72,5.17,2.0
1758074551.61187,1758074551.39383,0.0,0.0,0.0,-13.40721,-30.53865,-29.73651,7.72,-3.72,5.17,2.0
1758074551.62858,1758074551.40383,0.0,0.0,0.0,-1.48969,-26.35606,-29.8511,8.72,-4.27,4.06,2.0
1758074551.63084,1758074551.41383,0.0,0.0,0.0,9.62569,-20.16812,-28.07493,8.72,-4.27,4.06,2.0
1758074551.64567,1758074551.42383,0.0,0.0,0.0,19.25138,-11.34457,-24.80907,9.11,-3.25,3.03,2.0
1758074551.6467,1758074551.43383,0.0,0.0,0.0,30.76784,3.55234,-19.99623,8.79,-3.25,2.87,2.0
1758074551.66203,1758074551.44383,0.0,0.0,0.0,35.00772,10.31324,-16.10011,8.79,-1.56,2.87,2.0
1758074551.66579,1758074551.45383,0.0,0.0,0.0,37.52874,13.34992,-12.37589,8.22,0.08,3.24,2.0
1758074551.68174,1758074551.46383,0.0,0.0,0.0,38.73195,17.01685,-8.47978,8.22,0.08,3.24,2.0
1758074551.69871,1758074551.47383,0.0,0.0,0.0,38.44547,24.23611,-2.92208,8.7,1.48,3.02,2.0
1758074551.69992,1758074551.48383,0.0,0.0,0.0,36.6693,29.62192,-0.17189,8.7,1.48,3.02,2.0
1758074551.71545,1758074551.49383,0.0,0.0,0.0,34.0337,33.05967,2.06265,9.06,2.1,2.94,2.0
1758074551.71679,1758074551.50383,0.0,0.0,0.0,30.88243,34.66395,2.57831,9.06,2.1,2.94,2.0
1758074551.73145,1758074551.51383,0.0,0.0,0.0,26.01229,33.86181,3.26586,8.54,1.67,3.19,2.0
1758074551.74877,1758074551.52383,0.0,0.0,0.0,22.23076,31.74186,2.40642,8.18,0.93,3.27,2.0
1758074551.74965,1758074551.53383,0.0,0.0,0.0,18.62113,28.01764,1.66158,8.18,0.93,3.27,2.0
1758074551.76479,1758074551.54383,0.0,0.0,0.0,15.24068,23.0329,1.03132,8.11,0.67,3.3,2.0
1758074551.7673,1758074551.55383,0.0,0.0,0.0,10.65701,16.272,0.17189,8.11,0.67,3.3,2.0
1758074551.78249,1758074551.56383,0.0,0.0,0.0,8.59437,12.37589,0.45837,8.37,0.91,3.24,2.0
1758074551.78637,1758074551.57383,0.0,0.0,0.0,6.8182,8.36518,1.03132,8.37,0.91,3.24,2.0
1758074551.80186,1758074551.58383,0.0,0.0,0.0,5.32851,3.55234,1.94806,8.42,1.15,3.3,2.0
1758074551.81852,1758074551.59383,0.0,0.0,0.0,5.09932,0.85944,2.86479,8.36,1.18,3.24,2.0
1758074551.82056,1758074551.60383,0.0,0.0,0.0,5.21392,-2.00535,3.89611,8.36,1.18,3.24,2.0
1758074551.83576,1758074551.61383,0.0,0.0,0.0,5.55769,-5.27121,5.09932,8.1,0.99,3.01,2.0
1758074551.83687,1758074551.62383,0.0,0.0,0.0,6.24524,-9.85487,7.44845,8.1,0.99,3.01,2.0
1758074551.85181,1758074551.63383,0.0,0.0,0.0,6.47442,-12.43318,9.28192,8.09,0.7,2.73,2.0
1758074551.86781,1758074551.64383,0.0,0.0,0.0,6.41713,-14.9542,11.28727,8.09,0.7,2.73,2.0
1758074551.86892,1758074551.65383,0.0,0.0,0.0,6.13065,-17.58981,13.80828,8.25,0.46,2.51,2.0
1758074551.88434,1758074551.66383,0.0,0.0,0.0,3.55234,-21.48592,16.38659,8.55,0.46,2.51,2.0
1758074551.88558,1758074551.67383,0.0,0.0,0.0,0.45837,-21.94428,17.30333,8.55,0.46,2.51,2.0
1758074551.90189,1758074551.68383,0.0,0.0,0.0,-4.1253,-19.19409,17.13144,9.15,0.76,2.52,2.0
1758074551.91787,1758074551.69383,0.0,0.0,0.0,-8.88085,-16.84496,16.50119,9.15,0.76,2.52,2.0
1758074551.91918,1758074551.70383,0.0,0.0,0.0,-16.84496,-17.93358,15.46986,9.06,1.24,2.64,2.0
1758074551.93389,1758074551.71383,0.0,0.0,0.0,-22.11617,-20.45459,14.72501,9.06,1.24,2.64,2.0
1758074551.94978,1758074551.72383,0.0,0.0,0.0,-27.33009,-22.97561,14.32395,8.75,1.53,2.49,2.0
1758074551.95108,1758074551.73383,0.0,0.0,0.0,-31.97105,-25.15285,14.03747,8.75,1.53,2.49,2.0
1758074551.96569,1758074551.74383,0.0,0.0,0.0,-36.55471,-31.45539,13.34992,8.72,1.51,1.9,2.0
1758074551.96685,1758074551.75383,0.0,0.0,0.0,-38.44547,-37.12767,13.17803,8.48,1.1,1.63,2.0
1758074551.98162,1758074551.76383,0.0,0.0,0.0,-38.56006,-41.59674,14.09476,8.48,1.1,1.63,2.0
1758074551.99999,1758074551.77383,0.0,0.0,0.0,-36.7266,-45.37826,15.06879,8.57,0.73,1.19,2.0
1758074552.0011,1758074551.78383,0.0,0.0,0.0,-35.63798,-48.9879,15.35527,8.57,0.73,1.19,2.0
1758074552.01602,1758074551.79383,0.0,0.0,0.0,-33.80451,-46.86795,16.21471,8.85,0.23,1.1,2.0
1758074552.01682,1758074551.80383,0.0,0.0,0.0,-31.56997,-28.13223,18.44924,8.85,0.23,1.1,2.0
1758074552.03199,1758074551.81383,0.0,0.0,0.0,-29.73651,-9.62569,19.99623,10.85,0.17,1.57,2.0
1758074552.04806,1758074551.82383,0.0,0.0,0.0,-34.89313,-24.75178,15.12609,7.89,0.19,2.21,2.0
1758074552.04927,1758074551.83383,0.0,0.0,0.0,-37.01308,-32.83048,13.23533,7.89,0.19,2.21,2.0
1758074552.0637,1758074551.84383,0.0,0.0,0.0,-39.19032,-33.9764,10.8862,8.55,0.6,0.58,2.0
1758074552.07974,1758074551.85383,0.0,0.0,0.0,-39.64868,-30.30947,13.12073,8.55,0.6,0.58,2.0
1758074552.08087,1758074551.86383,0.0,0.0,0.0,-40.85189,-28.07493,14.38124,9.22,0.56,0.59,2.0
1758074552.09592,1758074551.87383,0.0,0.0,0.0,-42.34158,-22.86102,15.98552,9.22,0.56,0.59,2.0
1758074552.09693,1758074551.88383,0.0,0.0,0.0,-43.25832,-16.95955,17.76169,9.56,0.2,1.36,2.0
1758074552.11195,1758074551.89383,0.0,0.0,0.0,-42.91454,-14.32395,19.88164,9.32,-0.17,1.68,2.0
1758074552.12798,1758074551.90383,0.0,0.0,0.0,-41.99781,-15.87093,20.34,9.32,-0.17,1.68,2.0
1758074552.12977,1758074551.91383,0.0,0.0,0.0,-41.13837,-17.76169,19.99623,9.24,-0.46,1.42,2.0
1758074552.145,1758074551.92383,0.0,0.0,0.0,-40.16434,-18.44924,19.25138,9.24,-0.46,1.42,2.0
1758074552.14639,1758074551.93383,0.0,0.0,0.0,-38.50277,-14.43854,16.95955,10.08,-0.75,0.98,2.0
1758074552.1619,1758074551.94383,0.0,0.0,0.0,-37.81522,-9.74028,14.83961,10.08,-0.75,0.98,2.0
1758074552.17881,1758074551.95383,0.0,0.0,0.0,-37.35685,-5.95876,13.12073,10.72,-0.98,1.02,2.0
1758074552.18086,1758074551.96383,0.0,0.0,0.0,-37.29956,-4.29718,10.59972,10.72,-0.98,1.02,2.0
1758074552.19604,1758074551.97383,0.0,0.0,0.0,-37.87251,-2.23454,9.5684,10.38,-0.87,1.25,2.0
1758074552.20041,1758074551.98383,0.0,0.0,0.0,-38.38818,0.0,8.42248,10.54,-0.31,1.13,2.0
1758074552.21602,1758074551.99383,0.0,0.0,0.0,-38.61736,3.38045,7.84952,10.54,-0.31,1.13,2.0
1758074552.21864,1758074552.00383,0.0,0.0,0.0,-39.70598,6.87549,6.87549,10.73,0.31,0.92,2.0
1758074552.23393,1758074552.01383,0.0,0.0,0.0,-40.85189,8.25059,6.24524,10.73,0.31,0.92,2.0
1758074552.23575,1758074552.02383,0.0,0.0,0.0,-42.1124,9.62569,5.61499,10.46,0.64,0.7,2.0
1758074552.25181,1758074552.03383,0.0,0.0,0.0,-43.60209,10.59972,5.55769,10.46,0.64,0.7,2.0
1758074552.2691,1758074552.04383,0.0,0.0,0.0,-45.60744,4.81285,5.78687,10.48,0.48,0.6,2.0
1758074552.27033,1758074552.05383,0.0,0.0,0.0,-46.86795,-3.66693,5.61499,10.31,0.09,1.0,2.0
1758074552.28505,1758074552.06383,0.0,0.0,0.0,-48.12846,-13.00614,5.90147,10.31,0.09,1.0,2.0
1758074552.28623,1758074552.07383,0.0,0.0,0.0,-49.50356,-23.89234,6.07335,11.84,-0.47,3.19,2.0
1758074552.30185,1758074552.08383,0.0,0.0,0.0,-46.81066,-31.16891,2.23454,11.84,-0.47,3.19,2.0
1758074552.31904,1758074552.09383,0.0,0.0,0.0,-39.64868,-27.96034,-1.66158,17.63,-3.5,5.51,2.0
1758074552.32096,1758074552.10383,0.0,0.0,0.0,-30.02299,-29.27814,-3.66693,17.63,-3.5,5.51,2.0
1758074552.33614,1758074552.11383,0.0,0.0,0.0,-20.68378,-40.16434,-4.0107,18.73,-6.95,6.11,2.0
1758074552.33802,1758074552.12383,0.0,0.0,0.0,-8.65166,-66.29122,-1.66158,11.95,-5.63,3.74,2.0
1758074552.35314,1758074552.13383,0.0,0.0,0.0,-6.07335,-85.37071,-0.40107,11.95,-5.63,3.74,2.0
1758074552.36916,1758074552.14383,0.0,0.0,0.0,-4.1253,-92.81918,1.03132,7.51,-1.63,1.28,2.0
1758074552.37042,1758074552.15383,0.0,0.0,0.0,-3.03668,-88.80846,2.23454,7.51,-1.63,1.28,2.0
1758074552.38518,1758074552.16383,0.0,0.0,0.0,-5.72958,-80.72976,2.7502,6.33,0.1,1.33,2.0
1758074552.38613,1758074552.17383,0.0,0.0,0.0,-10.19865,-77.57849,2.86479,6.33,0.1,1.33,2.0
1758074552.40185,1758074552.18383,0.0,0.0,0.0,-16.272,-73.45319,2.23454,4.45,0.5,3.27,2.0
1758074552.41876,1758074552.19383,0.0,0.0,0.0,-24.63719,-59.98868,0.51566,4.45,0.5,3.27,2.0
1758074552.42066,1758074552.20383,0.0,0.0,0.0,-28.41871,-41.76862,2.40642,6.35,0.06,3.68,2.0
1758074552.43622,1758074552.21383,0.0,0.0,0.0,-29.9084,-21.14215,4.35448,10.63,-1.52,3.43,2.0
1758074552.43792,1758074552.22383,0.0,0.0,0.0,-29.73651,-1.3178,7.16197,10.63,-1.52,3.43,2.0
1758074552.45318,1758074552.23383,0.0,0.0,0.0,-26.12688,32.20023,10.02676,12.66,-3.4,0.87,2.0
1758074552.4699,1758074552.24383,0.0,0.0,0.0,-21.94428,50.47758,11.34457,12.66,-3.4,0.87,2.0
1758074552.4711,1758074552.25383,0.0,0.0,0.0,-17.24603,60.04598,10.8289,12.22,-4.48,-0.2,2.0
1758074552.48628,1758074552.26383,0.0,0.0,0.0,-12.89155,64.91612,9.28192,12.22,-4.48,-0.2,2.0
1758074552.4874,1758074552.27383,0.0,0.0,0.0,-5.95876,67.72362,7.33386,10.43,-4.29,0.04,2.0
1758074552.50196,1758074552.28383,0.0,0.0,0.0,-1.94806,71.56243,5.27121,10.53,-3.44,0.27,2.0
1758074552.51793,1758074552.29383,0.0,0.0,0.0,2.63561,74.94289,4.18259,10.53,-3.44,0.27,2.0
1758074552.52071,1758074552.30383,0.0,0.0,0.0,5.84417,80.27139,1.83346,10.41,-2.86,0.1,2.0
1758074552.53626,1758074552.31383,0.0,0.0,0.0,10.65701,82.90699,0.57296,10.41,-2.86,0.1,2.0
1758074552.53716,1758074552.32383,0.0,0.0,0.0,13.5218,81.01624,1.71887,9.53,-2.6,0.68,2.0
1758074552.5528,1758074552.33383,0.0,0.0,0.0,16.10011,81.24542,4.64096,9.53,-2.6,0.68,2.0
1758074552.55647,1758074552.34383,0.0,0.0,0.0,17.93358,83.02158,7.73493,9.42,-2.25,1.25,2.0
1758074552.5732,1758074552.35383,0.0,0.0,0.0,19.76705,78.20874,12.60507,8.51,-2.02,1.22,2.0
1758074552.58993,1758074552.36383,0.0,0.0,0.0,20.16812,73.3386,14.78231,8.51,-2.02,1.22,2.0
1758074552.59118,1758074552.37383,0.0,0.0,0.0,20.11082,67.9528,15.69904,8.03,-2.13,1.38,2.0
1758074552.60635,1758074552.38383,0.0,0.0,0.0,19.48057,61.59297,14.9542,8.03,-2.13,1.38,2.0
1758074552.60907,1758074552.39383,0.0,0.0,0.0,18.10547,50.76406,13.06344,8.06,-2.36,1.1,2.0
1758074552.62564,1758074552.40383,0.0,0.0,0.0,17.24603,43.65939,10.48513,8.06,-2.36,1.1,2.0
1758074552.62721,1758074552.41383,0.0,0.0,0.0,16.67307,36.55471,7.16197,8.31,-2.42,1.0,2.0
1758074552.64313,1758074552.42383,0.0,0.0,0.0,16.73037,30.02299,2.23454,8.31,-2.42,1.0,2.0
1758074552.64647,1758074552.43383,0.0,0.0,0.0,17.93358,25.61122,-0.22918,8.77,-2.37,1.07,2.0
1758074552.66481,1758074552.44383,0.0,0.0,0.0,20.3973,22.23076,-1.66158,8.98,-2.38,1.43,2.0
1758074552.6801,1758074552.45383,0.0,0.0,0.0,23.31938,22.74642,-2.46372,8.98,-2.38,1.43,2.0
1758074552.68126,1758074552.46383,0.0,0.0,0.0,28.64789,29.67921,-3.72423,9.7,-2.54,1.44,2.0
1758074552.69634,1758074552.47383,0.0,0.0,0.0,32.71589,34.14828,-4.29718,9.7,-2.54,1.44,2.0
1758074552.69724,1758074552.48383,0.0,0.0,0.0,36.7266,36.89849,-4.35448,9.75,-2.6,1.59,2.0
1758074552.71287,1758074552.49383,0.0,0.0,0.0,41.02378,38.78925,-3.95341,9.75,-2.6,1.59,2.0
1758074552.72906,1758074552.50383,0.0,0.0,0.0,47.26902,40.39353,-2.34913,9.43,-2.49,1.54,2.0
1758074552.73048,1758074552.51383,0.0,0.0,0.0,51.50891,40.39353,-1.08862,9.25,-2.45,1.21,2.0
1758074552.74529,1758074552.52383,0.0,0.0,0.0,55.23313,40.04975,-0.0573,9.25,-2.45,1.21,2.0
1758074552.74653,1758074552.53383,0.0,0.0,0.0,58.72818,38.78925,0.74485,9.01,-2.47,1.15,2.0
1758074552.7632,1758074552.54383,0.0,0.0,0.0,63.02536,28.41871,0.97403,9.01,-2.47,1.15,2.0
1758074552.76685,1758074552.55383,0.0,0.0,0.0,63.99939,15.98552,-0.45837,7.93,-2.25,0.81,2.0
1758074552.78298,1758074552.56383,0.0,0.0,0.0,64.17127,5.84417,-2.00535,7.93,-2.25,0.81,2.0
1758074552.78766,1758074552.57383,0.0,0.0,0.0,64.28587,17.18874,-6.99009,8.23,-1.75,-0.02,2.0
1758074552.80319,1758074552.58383,0.0,0.0,0.0,67.60902,35.52338,-7.10468,10.2,-1.59,0.25,2.0
1758074552.81937,1758074552.59383,0.0,0.0,0.0,66.69229,46.1804,-9.91217,10.2,-1.59,0.25,2.0
1758074552.82266,1758074552.60383,0.0,0.0,0.0,66.74959,42.28429,-15.46986,8.5,-1.3,2.21,2.0
1758074552.83919,1758074552.61383,0.0,0.0,0.0,65.14531,-8.30789,-18.62113,8.5,-1.3,2.21,2.0
1758074552.84037,1758074552.62383,0.0,0.0,0.0,67.78091,-37.01308,-11.80293,5.45,-0.8,0.36,2.0
1758074552.8559,1758074552.63383,0.0,0.0,0.0,68.41116,-44.46153,-10.65701,5.45,-0.8,0.36,2.0
1758074552.85897,1758074552.64383,0.0,0.0,0.0,70.53111,-46.06581,-8.36518,9.65,-1.09,-0.66,2.0
1758074552.87529,1758074552.65383,0.0,0.0,0.0,71.44785,-34.95043,-7.39116,9.65,-1.09,-0.66,2.0
1758074552.87647,1758074552.66383,0.0,0.0,0.0,68.75494,-29.67921,-9.5684,10.7,-1.11,0.0,2.0
1758074552.89325,1758074552.67383,0.0,0.0,0.0,64.22858,-36.55471,-12.83425,10.31,0.0,5.08,2.0
1758074552.90995,1758074552.68383,0.0,0.0,0.0,56.78012,-46.35228,-15.87093,10.31,0.0,5.08,2.0
1758074552.91387,1758074552.69383,0.0,0.0,0.0,37.24226,-47.89928,-16.38659,13.53,2.86,7.01,2.0
1758074552.92948,1758074552.70383,0.0,0.0,0.0,19.76705,-42.1124,-16.67307,13.53,2.86,7.01,2.0
1758074552.93042,1758074552.71383,0.0,0.0,0.0,0.22918,-36.6693,-15.98552,17.24,5.95,8.04,2.0
1758074552.94545,1758074552.72383,0.0,0.0,0.0,-17.87628,-32.42941,-12.71966,17.24,5.95,8.04,2.0
1758074552.94668,1758074552.73383,0.0,0.0,0.0,-36.6693,-24.5226,-10.19865,16.28,5.59,7.24,2.0
1758074552.96248,1758074552.74383,0.0,0.0,0.0,-41.65404,-21.88699,-10.94349,12.26,-0.09,5.55,2.0
1758074552.97824,1758074552.75383,0.0,0.0,0.0,-42.62806,-21.6578,-11.22997,12.26,-0.09,5.55,2.0
1758074552.97983,1758074552.76383,0.0,0.0,0.0,-38.61736,-15.24068,-16.90226,9.4,-4.02,6.25,2.0
1758074552.99528,1758074552.77383,0.0,0.0,0.0,-24.35071,-17.81899,-23.37668,9.4,-4.02,6.25,2.0
1758074552.99672,1758074552.78383,0.0,0.0,0.0,-12.43318,-23.26209,-27.96034,7.75,-5.8,5.25,2.0
1758074553.01253,1758074552.79383,0.0,0.0,0.0,0.57296,-29.27814,-30.02299,7.75,-5.8,5.25,2.0
1758074553.02854,1758074552.80383,0.0,0.0,0.0,14.09476,-30.76784,-27.1582,7.73,-5.88,4.48,2.0
1758074553.02946,1758074552.81383,0.0,0.0,0.0,32.08564,-21.48592,-23.26209,8.66,-3.92,2.79,2.0
1758074553.0443,1758074552.82383,0.0,0.0,0.0,41.59674,-13.23533,-18.85031,8.66,-3.92,2.79,2.0
1758074553.0605,1758074552.83383,0.0,0.0,0.0,49.33167,-7.44845,-14.49583,8.27,-1.55,3.02,2.0
1758074553.06146,1758074552.84383,0.0,0.0,0.0,56.66553,-2.00535,-9.4538,8.27,-1.55,3.02,2.0
1758074553.07653,1758074552.85383,0.0,0.0,0.0,59.12925,3.09397,-6.7609,7.94,0.62,3.08,2.0
1758074553.07935,1758074552.86383,0.0,0.0,0.0,59.53032,8.70896,-4.23989,7.94,0.62,3.08,2.0
1758074553.09637,1758074552.87383,0.0,0.0,0.0,58.26981,13.34992,-2.23454,8.81,2.29,2.77,2.0
1758074553.09917,1758074552.88383,0.0,0.0,0.0,53.91533,19.53786,-0.22918,9.04,2.29,2.66,2.0
1758074553.11656,1758074552.89383,0.0,0.0,0.0,50.01921,22.05888,0.51566,9.04,2.55,2.66,2.0
1758074553.11743,1758074552.90383,0.0,0.0,0.0,45.55015,23.54857,1.14592,8.7,1.58,3.08,2.0
1758074553.13231,1758074552.91383,0.0,0.0,0.0,39.99245,26.18417,0.68755,8.7,1.58,3.08,2.0
1758074553.14858,1758074552.92383,0.0,0.0,0.0,30.36677,26.35606,-0.97403,8.47,0.8,3.24,2.0
1758074553.14965,1758074552.93383,0.0,0.0,0.0,24.29341,23.83505,-1.71887,8.47,0.8,3.24,2.0
1758074553.16458,1758074552.94383,0.0,0.0,0.0,18.50654,21.25674,-2.06265,8.21,0.82,3.13,2.0
1758074553.1806,1758074552.95383,0.0,0.0,0.0,13.46451,19.59516,-1.83346,8.21,0.82,3.13,2.0
1758074553.18155,1758074552.96383,0.0,0.0,0.0,7.73493,16.10011,-0.68755,8.65,1.1,2.94,2.0
1758074553.19658,1758074552.97383,0.0,0.0,0.0,5.4431,13.46451,0.45837,8.55,1.24,2.9,2.0
1758074553.19756,1758074552.98383,0.0,0.0,0.0,4.18259,11.28727,1.43239,8.55,1.24,2.9,2.0
1758074553.21318,1758074552.99383,0.0,0.0,0.0,3.72423,9.96947,2.46372,8.49,1.16,3.04,2.0
1758074553.22983,1758074553.00383,0.0,0.0,0.0,4.29718,7.73493,3.66693,8.49,1.16,3.04,2.0
1758074553.23054,1758074553.01383,0.0,0.0,0.0,5.09932,7.04738,4.46907,8.45,1.03,2.98,2.0
1758074553.24534,1758074553.02383,0.0,0.0,0.0,5.84417,7.10468,5.21392,8.45,1.03,2.98,2.0
1758074553.24682,1758074553.03383,0.0,0.0,0.0,5.84417,5.09932,6.47442,8.7,0.86,2.84,2.0
1758074553.26268,1758074553.04383,0.0,0.0,0.0,4.64096,0.97403,7.21927,8.52,0.65,2.8,2.0
1758074553.27875,1758074553.05383,0.0,0.0,0.0,2.00535,-3.83882,7.67763,8.52,0.65,2.8,2.0
1758074553.28067,1758074553.06383,0.0,0.0,0.0,-1.66158,-9.33921,8.136,8.43,0.67,2.54,2.0
1758074553.29538,1758074553.07383,0.0,0.0,0.0,-8.99544,-11.80293,8.02141,8.43,0.67,2.54,2.0
1758074553.29695,1758074553.08383,0.0,0.0,0.0,-14.32395,-10.8862,8.25059,8.97,1.06,2.23,2.0
1758074553.3148,1758074553.09383,0.0,0.0,0.0,-19.36597,-9.96947,8.65166,8.97,1.06,2.23,2.0
1758074553.33066,1758074553.10383,0.0,0.0,0.0,-24.12152,-9.85487,8.99544,9.07,1.48,2.49,2.0
1758074553.33276,1758074553.11383,0.0,0.0,0.0,-30.30947,-13.40721,8.99544,8.61,1.57,2.5,2.0
1758074553.34766,1758074553.12383,0.0,0.0,0.0,-33.80451,-16.50119,8.36518,8.61,1.57,2.5,2.0
1758074553.34895,1758074553.13383,0.0,0.0,0.0,-36.03905,-20.68378,8.136,8.5,1.3,2.1,2.0
1758074553.3637,1758074553.14383,0.0,0.0,0.0,-37.75792,-25.55392,7.33386,8.5,1.3,2.1,2.0
1758074553.38075,1758074553.15383,0.0,0.0,0.0,-38.44547,-34.77854,7.96411,8.46,0.92,1.79,2.0
1758074553.38167,1758074553.16383,0.0,0.0,0.0,-37.87251,-40.04975,8.0787,8.46,0.92,1.79,2.0
1758074553.39675,1758074553.17383,0.0,0.0,0.0,-37.12767,-44.86259,8.47978,8.74,0.61,1.52,2.0
1758074553.39878,1758074553.18383,0.0,0.0,0.0,-36.26823,-47.38361,8.36518,8.74,0.61,1.52,2.0
1758074553.4137,1758074553.19383,0.0,0.0,0.0,-35.06502,-27.04361,11.11538,9.25,0.24,1.53,2.0
1758074553.42948,1758074553.20383,0.0,0.0,0.0,-35.86716,-5.90147,11.74564,11.32,0.39,2.07,2.0
1758074553.431,1758074553.21383,0.0,0.0,0.0,-40.7373,-23.83505,8.42248,11.32,0.39,2.07,2.0
1758074553.44546,1758074553.22383,0.0,0.0,0.0,-45.43555,-32.6013,3.26586,7.32,0.71,2.51,2.0
1758074553.44699,1758074553.23383,0.0,0.0,0.0,-49.04519,-36.89849,0.0573,7.32,0.71,2.51,2.0
1758074553.46274,1758074553.24383,0.0,0.0,0.0,-49.56085,-32.14294,2.06265,9.21,1.14,1.07,2.0
1758074553.47853,1758074553.25383,0.0,0.0,0.0,-50.59217,-27.1582,3.32316,9.21,1.14,1.07,2.0
1758074553.47968,1758074553.26383,0.0,0.0,0.0,-52.42564,-19.48057,6.41713,9.59,1.04,0.61,2.0
1758074553.49474,1758074553.27383,0.0,0.0,0.0,-52.48294,-12.89155,9.39651,9.76,0.52,1.76,2.0
1758074553.51072,1758074553.28383,0.0,0.0,0.0,-51.85268,-9.05273,12.37589,9.76,0.52,1.76,2.0
1758074553.51204,1758074553.29383,0.0,0.0,0.0,-50.3057,-10.65701,14.83961,9.21,-0.11,1.82,2.0
1758074553.52648,1758074553.30383,0.0,0.0,0.0,-47.78468,-16.84496,16.67307,9.21,-0.11,1.82,2.0
1758074553.52802,1758074553.31383,0.0,0.0,0.0,-46.00851,-20.79837,16.90226,9.08,-0.68,1.46,2.0
1758074553.54265,1758074553.32383,0.0,0.0,0.0,-44.17505,-22.91831,16.272,9.08,-0.68,1.46,2.0
1758074553.5588,1758074553.33383,0.0,0.0,0.0,-42.28429,-22.68913,14.78231,9.84,-1.03,0.91,2.0
1758074553.55972,1758074553.34383,0.0,0.0,0.0,-39.99245,-19.25138,12.08941,10.45,-1.06,1.14,2.0
1758074553.57477,1758074553.35383,0.0,0.0,0.0,-38.90384,-16.10011,10.08406,10.45,-1.06,1.14,2.0
1758074553.59071,1758074553.36383,0.0,0.0,0.0,-38.56006,-13.23533,8.88085,10.49,-0.86,1.57,2.0
1758074553.59175,1758074553.37383,0.0,0.0,0.0,-38.90384,-10.94349,7.67763,10.49,-0.86,1.57,2.0
1758074553.60652,1758074553.38383,0.0,0.0,0.0,-40.7373,-7.79223,6.99009,10.35,-0.41,1.57,2.0
1758074553.60772,1758074553.39383,0.0,0.0,0.0,-42.1124,-3.95341,6.58902,10.35,-0.41,1.57,2.0
1758074553.62282,1758074553.40383,0.0,0.0,0.0,-43.02913,2.29183,6.35983,10.71,0.08,1.39,2.0
1758074553.63884,1758074553.41383,0.0,0.0,0.0,-43.54479,8.88085,6.35983,10.71,0.08,1.39,2.0
1758074553.64001,1758074553.42383,0.0,0.0,0.0,-44.86259,14.61043,6.47442,10.99,0.41,1.38,2.0
1758074553.6546,1758074553.43383,0.0,0.0,0.0,-47.26902,16.61578,6.58902,10.57,0.45,0.98,2.0
1758074553.67082,1758074553.44383,0.0,0.0,0.0,-48.9306,18.56383,7.21927,10.57,0.45,0.98,2.0
1758074553.67213,1758074553.45383,0.0,0.0,0.0,-53.17049,18.10547,8.47978,10.45,0.37,0.55,2.0
1758074553.68689,1758074553.46383,0.0,0.0,0.0,-55.7488,16.21471,10.02676,10.45,0.37,0.55,2.0
1758074553.68815,1758074553.47383,0.0,0.0,0.0,-58.3844,7.44845,10.94349,10.04,0.21,0.6,2.0
1758074553.70301,1758074553.48383,0.0,0.0,0.0,-60.16057,-3.89611,11.45916,10.04,0.21,0.6,2.0
1758074553.71875,1758074553.49383,0.0,0.0,0.0,-61.99404,-23.89234,11.22997,9.77,0.0,1.77,2.0
1758074553.72026,1758074553.50383,0.0,0.0,0.0,-62.79618,-38.15899,9.33921,11.13,-0.53,2.95,2.0
1758074553.73472,1758074553.51383,0.0,0.0,0.0,-61.07731,-47.03984,5.84417,11.13,-0.53,2.95,2.0
1758074553.75097,1758074553.52383,0.0,0.0,0.0,-56.89471,-47.78468,1.77617,15.47,-2.64,4.06,2.0
1758074553.75212,1758074553.53383,0.0,0.0,0.0,-47.38361,-52.08187,-2.06265,15.47,-2.64,4.06,2.0
1758074553.76697,1758074553.54383,0.0,0.0,0.0,-41.94051,-63.25455,-2.63561,16.51,-4.79,5.06,2.0
1758074553.76814,1758074553.55383,0.0,0.0,0.0,-37.58603,-78.20874,-1.71887,16.51,-4.79,5.06,2.0
1758074553.78297,1758074553.56383,0.0,0.0,0.0,-34.49206,-89.83979,-0.22918,12.15,-4.42,3.41,2.0
1758074553.80003,1758074553.57383,0.0,0.0,0.0,-31.85646,-92.64729,2.00535,8.94,-2.26,1.13,2.0
1758074553.80089,1758074553.58383,0.0,0.0,0.0,-30.65324,-84.2248,2.00535,8.94,-2.26,1.13,2.0
1758074553.81573,1758074553.59383,0.0,0.0,0.0,-31.45539,-83.47996,2.86479,6.22,-0.95,1.21,2.0
1758074553.8169,1758074553.60383,0.0,0.0,0.0,-31.45539,-73.3959,-0.85944,6.22,-0.95,1.21,2.0
1758074553.83297,1758074553.61383,0.0,0.0,0.0,-35.3515,-66.69229,-2.06265,5.19,-0.67,2.96,2.0
1758074553.84972,1758074553.62383,0.0,0.0,0.0,-37.01308,-54.02992,-3.20856,5.19,-0.67,2.96,2.0
1758074553.85102,1758074553.63383,0.0,0.0,0.0,-37.52874,-39.13302,-2.00535,7.86,-1.5,3.7,2.0
1758074553.86601,1758074553.64383,0.0,0.0,0.0,-35.3515,-20.62648,3.32316,7.86,-1.5,3.7,2.0
1758074553.8669,1758074553.65383,0.0,0.0,0.0,-32.77319,13.00614,8.42248,11.45,-2.97,1.94,2.0
1758074553.88293,1758074553.66383,0.0,0.0,0.0,-29.33544,33.68992,13.23533,13.04,-3.71,0.11,2.0
1758074553.89876,1758074553.67383,0.0,0.0,0.0,-26.06958,48.35764,16.55848,13.04,-3.71,0.11,2.0
1758074553.90022,1758074553.68383,0.0,0.0,0.0,-21.7724,59.64491,17.18874,11.5,-3.61,-0.32,2.0
1758074553.91472,1758074553.69383,0.0,0.0,0.0,-18.27736,62.28051,15.06879,11.5,-3.61,-0.32,2.0
1758074553.93078,1758074553.70383,0.0,0.0,0.0,-14.66772,63.77021,12.43318,10.17,-3.14,-0.48,2.0
1758074553.93308,1758074553.71383,0.0,0.0,0.0,-10.94349,66.80688,9.5684,10.17,-3.14,-0.48,2.0
1758074553.94803,1758074553.72383,0.0,0.0,0.0,-5.78687,74.54182,5.61499,10.53,-2.76,-0.27,2.0
1758074553.94899,1758074553.73383,0.0,0.0,0.0,-2.63561,78.20874,2.63561,9.86,-2.66,-0.17,2.0
1758074553.96405,1758074553.74383,0.0,0.0,0.0,1.03132,79.81302,2.06265,9.86,-2.66,-0.17,2.0
1758074553.98006,1758074553.75383,0.0,0.0,0.0,4.64096,83.76643,2.29183,9.26,-2.63,0.66,2.0
1758074553.98097,1758074553.76383,0.0,0.0,0.0,10.19865,86.45934,4.52637,9.26,-2.63,0.66,2.0
1758074553.99605,1758074553.77383,0.0,0.0,0.0,13.40721,85.02695,6.35983,8.64,-2.61,0.96,2.0
1758074553.99723,1758074553.78383,0.0,0.0,0.0,16.10011,82.62051,7.79223,8.64,-2.61,0.96,2.0
1758074554.01284,1758074553.79383,0.0,0.0,0.0,18.22006,79.64114,8.76626,8.22,-2.56,1.09,2.0
1758074554.02911,1758074553.80383,0.0,0.0,0.0,20.16812,73.68237,8.70896,8.3,-2.6,0.82,2.0
1758074554.03026,1758074553.81383,0.0,0.0,0.0,20.97026,69.21331,7.62034,8.3,-2.6,0.82,2.0
1758074554.04506,1758074553.82383,0.0,0.0,0.0,21.37133,63.48372,5.61499,8.48,-2.73,1.05,2.0
1758074554.06114,1758074553.83383,0.0,0.0,0.0,22.11617,56.60823,1.66158,8.48,-2.73,1.05,2.0
1758074554.06201,1758074553.84383,0.0,0.0,0.0,24.12152,45.03448,-0.97403,8.57,-2.84,1.16,2.0
1758074554.07713,1758074553.85383,0.0,0.0,0.0,27.04361,38.50277,-2.92208,8.57,-2.84,1.16,2.0
1758074554.07848,1758074553.86383,0.0,0.0,0.0,31.45539,36.15364,-3.66693,8.93,-2.91,1.24,2.0
1758074554.09286,1758074553.87383,0.0,0.0,0.0,38.61736,40.33623,-3.72423,8.93,-2.91,1.24,2.0
1758074554.10912,1758074553.88383,0.0,0.0,0.0,44.00316,43.4875,-3.09397,9.57,-3.09,0.96,2.0
1758074554.11007,1758074553.89383,0.0,0.0,0.0,48.9879,45.55015,-2.57831,9.38,-3.02,1.47,2.0
1758074554.1249,1758074553.90383,0.0,0.0,0.0,53.39967,45.89392,-1.71887,9.38,-3.02,1.47,2.0
1758074554.14119,1758074553.91383,0.0,0.0,0.0,59.53032,44.40423,0.22918,9.09,-2.55,1.5,2.0
1758074554.14208,1758074553.92383,0.0,0.0,0.0,63.13995,42.57077,1.83346,9.09,-2.55,1.5,2.0
1758074554.15713,1758074553.93383,0.0,0.0,0.0,66.29122,39.64868,3.26586,9.01,-2.31,1.19,2.0
1758074554.15924,1758074553.94383,0.0,0.0,0.0,68.58305,36.15364,4.23989,9.01,-2.31,1.19,2.0
1758074554.17406,1758074553.95383,0.0,0.0,0.0,70.30193,20.05352,3.60963,8.9,-2.3,1.23,2.0
1758074554.18997,1758074553.96383,0.0,0.0,0.0,69.84356,6.18794,3.38045,8.03,-2.02,0.88,2.0
1758074554.19062,1758074553.97383,0.0,0.0,0.0,67.89551,7.96411,-2.34913,8.03,-2.02,0.88,2.0
1758074554.20606,1758074553.98383,0.0,0.0,0.0,68.06739,19.25138,-1.83346,10.34,-1.78,0.44,2.0
1758074554.20743,1758074553.99383,0.0,0.0,0.0,68.41116,34.66395,-3.32316,10.34,-1.78,0.44,2.0
1758074554.22328,1758074554.00383,0.0,0.0,0.0,66.40582,42.39888,-5.95876,10.12,-1.3,1.56,2.0
1758074554.23917,1758074554.01383,0.0,0.0,0.0,65.03072,38.15899,-10.59972,10.12,-1.3,1.56,2.0
1758074554.24012,1758074554.02383,0.0,0.0,0.0,63.31184,15.29797,-17.01685,7.65,-0.86,2.11,2.0
1758074554.25515,1758074554.03383,0.0,0.0,0.0,62.96807,-33.34615,-8.47978,6.35,-0.5,0.25,2.0
1758074554.2712,1758074554.04383,0.0,0.0,0.0,63.13995,-37.12767,-7.96411,6.35,-0.5,0.25,2.0
1758074554.27158,1758074554.05383,0.0,0.0,0.0,64.40046,-35.69527,-6.58902,10.05,-0.47,-0.63,2.0
1758074554.28695,1758074554.06383,0.0,0.0,0.0,64.91612,-33.80451,-6.99009,10.05,-0.47,-0.63,2.0
1758074554.28841,1758074554.07383,0.0,0.0,0.0,63.59832,-27.96034,-7.62034,9.58,-0.58,0.66,2.0
1758074554.30327,1758074554.08383,0.0,0.0,0.0,60.61894,-21.48592,-9.62569,9.58,-0.58,0.66,2.0
1758074554.32022,1758074554.09383,0.0,0.0,0.0,56.49364,-20.79837,-12.43318,10.42,-0.54,3.3,2.0
1758074554.32057,1758074554.10383,0.0,0.0,0.0,48.64412,-28.87707,-16.21471,10.42,-0.54,3.3,2.0
1758074554.33622,1758074554.11383,0.0,0.0,0.0,40.50812,-31.74186,-15.92823,11.05,0.67,4.01,2.0
1758074554.33717,1758074554.12383,0.0,0.0,0.0,29.67921,-28.64789,-14.09476,14.88,3.03,6.92,2.0
1758074554.35303,1758074554.13383,0.0,0.0,0.0,16.10011,-23.66316,-12.08941,14.88,3.03,6.92,2.0
1758074554.37121,1758074554.14383,0.0,0.0,0.0,-6.18794,-16.50119,-6.7609,16.69,5.06,7.35,2.0
1758074554.3716,1758074554.15383,0.0,0.0,0.0,-19.88164,-12.60507,-4.0107,16.69,5.06,7.35,2.0
1758074554.38712,1758074554.16383,0.0,0.0,0.0,-29.73651,-12.14671,-4.58366,14.98,3.53,6.16,2.0
1758074554.38848,1758074554.17383,0.0,0.0,0.0,-34.26288,-13.34992,-6.53172,14.98,3.53,6.16,2.0
1758074554.40328,1758074554.18383,0.0,0.0,0.0,-33.11696,-15.35527,-10.54242,10.62,-1.59,5.43,2.0
1758074554.41906,1758074554.19383,0.0,0.0,0.0,-28.36141,-15.29797,-17.36062,8.02,-3.98,5.98,2.0
1758074554.42066,1758074554.20383,0.0,0.0,0.0,-18.79302,-19.59516,-21.02755,8.02,-3.98,5.98,2.0
1758074554.43516,1758074554.21383,0.0,0.0,0.0,-7.73493,-24.80907,-26.35606,7.1,-5.15,5.62,2.0
1758074554.43651,1758074554.22383,0.0,0.0,0.0,11.17268,-33.80451,-28.99167,7.1,-5.15,5.62,2.0
1758074554.45279,1758074554.23383,0.0,0.0,0.0,22.86102,-33.05967,-27.10091,8.25,-5.01,4.34,2.0
1758074554.46806,1758074554.24383,0.0,0.0,0.0,32.77319,-27.10091,-23.60586,8.25,-5.01,4.34,2.0
1758074554.47006,1758074554.25383,0.0,0.0,0.0,40.68,-19.82434,-17.81899,9.36,-3.15,3.24,2.0
1758074554.48515,1758074554.26383,0.0,0.0,0.0,48.01387,-11.80293,-14.15206,8.66,-1.02,3.38,2.0
1758074554.48626,1758074554.27383,0.0,0.0,0.0,51.10783,-8.36518,-10.59972,8.66,-1.02,3.38,2.0
1758074554.5016,1758074554.28383,0.0,0.0,0.0,52.71212,-5.09932,-7.21927,8.39,0.74,3.32,2.0
1758074554.51716,1758074554.29383,0.0,0.0,0.0,52.65482,1.66158,-3.20856,8.39,0.74,3.32,2.0
1758074554.5185,1758074554.30383,0.0,0.0,0.0,51.39432,6.13065,-0.85944,8.89,1.94,2.82,2.0
1758074554.53346,1758074554.31383,0.0,0.0,0.0,49.15978,10.25595,0.74485,8.89,1.94,2.82,2.0
1758074554.54938,1758074554.32383,0.0,0.0,0.0,46.2377,13.80828,1.20321,9.0,2.04,2.69,2.0
1758074554.55064,1758074554.33383,0.0,0.0,0.0,41.94051,19.19409,1.71887,9.0,2.04,2.68,2.0
1758074554.56537,1758074554.34383,0.0,0.0,0.0,38.44547,22.11617,1.83346,8.74,1.24,2.68,2.0
1758074554.56657,1758074554.35383,0.0,0.0,0.0,34.37747,24.00693,1.08862,8.4,0.55,2.85,2.0
1758074554.58175,1758074554.36383,0.0,0.0,0.0,30.59595,22.97561,0.68755,8.4,0.55,2.85,2.0
1758074554.59741,1758074554.37383,0.0,0.0,0.0,25.21014,19.42327,0.11459,8.04,0.5,2.92,2.0
1758074554.59859,1758074554.38383,0.0,0.0,0.0,22.28806,17.81899,0.80214,8.04,0.5,2.92,2.0
1758074554.61345,1758074554.39383,0.0,0.0,0.0,19.82434,16.21471,1.83346,8.51,0.89,3.01,2.0
1758074554.62945,1758074554.40383,0.0,0.0,0.0,17.76169,14.20935,3.03668,8.51,0.89,3.01,2.0
1758074554.6306,1758074554.41383,0.0,0.0,0.0,15.75634,12.14671,4.52637,8.63,1.24,3.01,2.0
1758074554.64539,1758074554.42383,0.0,0.0,0.0,14.83961,11.22997,5.95876,8.64,1.32,2.89,2.0
1758074554.64633,1758074554.43383,0.0,0.0,0.0,13.98017,9.5684,7.04738,8.64,1.32,2.89,2.0
1758074554.6618,1758074554.44383,0.0,0.0,0.0,13.06344,6.7609,8.25059,8.3,1.2,2.72,2.0
1758074554.67797,1758074554.45383,0.0,0.0,0.0,11.45916,4.29718,10.02676,8.3,1.2,2.72,2.0
1758074554.67969,1758074554.46383,0.0,0.0,0.0,10.25595,2.97938,11.51645,8.3,0.95,2.64,2.0
1758074554.6942,1758074554.47383,0.0,0.0,0.0,8.25059,0.74485,12.71966,8.3,0.95,2.64,2.0
1758074554.69542,1758074554.48383,0.0,0.0,0.0,3.32316,-2.92208,14.15206,8.26,0.7,2.59,2.0
1758074554.71164,1758074554.49383,0.0,0.0,0.0,-1.03132,-8.47978,13.98017,8.36,0.71,2.52,2.0
1758074554.72762,1758074554.50383,0.0,0.0,0.0,-6.24524,-11.34457,13.06344,8.36,0.71,2.52,2.0
1758074554.72871,1758074554.51383,0.0,0.0,0.0,-11.22997,-12.37589,12.71966,8.68,1.02,2.27,2.0
1758074554.7435,1758074554.52383,0.0,0.0,0.0,-18.9649,-14.49583,12.54778,8.68,1.02,2.27,2.0
1758074554.75949,1758074554.53383,0.0,0.0,0.0,-24.00693,-17.81899,12.49048,8.78,1.27,2.37,2.0
1758074554.76071,1758074554.54383,0.0,0.0,0.0,-28.41871,-21.7724,12.49048,8.78,1.27,2.37,2.0
1758074554.77553,1758074554.55383,0.0,0.0,0.0,-32.48671,-25.55392,12.49048,8.64,1.29,2.09,2.0
1758074554.79392,1758074554.56383,0.0,0.0,0.0,-36.84119,-33.46074,12.83425,8.55,1.18,1.78,2.0
1758074554.79416,1758074554.57383,0.0,0.0,0.0,-39.19032,-41.42485,12.204,8.55,1.18,1.78,2.0
1758074554.80736,1758074554.58383,0.0,0.0,0.0,-39.82057,-51.22243,13.06344,8.17,0.78,1.42,2.0
1758074554.80926,1758074554.59383,0.0,0.0,0.0,-38.73195,-59.01466,13.75099,8.17,0.78,1.42,2.0
1758074554.82583,1758074554.60383,0.0,0.0,0.0,-36.38282,-64.45775,14.83961,8.82,0.43,0.78,2.0
1758074554.82706,1758074554.61383,0.0,0.0,0.0,-35.3515,-62.39511,16.21471,8.82,0.43,0.78,2.0
1758074554.84248,1758074554.62383,0.0,0.0,0.0,-33.9764,-38.27358,17.01685,10.13,0.12,1.21,2.0
1758074554.85863,1758074554.63383,0.0,0.0,0.0,-32.48671,-13.40721,18.16276,10.13,0.12,1.21,2.0
1758074554.86037,1758074554.64383,0.0,0.0,0.0,-34.95043,-36.15364,14.61043,10.61,-0.05,2.06,2.0
1758074554.87555,1758074554.65383,0.0,0.0,0.0,-35.92446,-42.68536,12.14671,7.49,0.14,1.44,2.0
1758074554.87676,1758074554.66383,0.0,0.0,0.0,-37.92981,-43.77398,8.0787,7.49,0.14,1.44,2.0
1758074554.89139,1758074554.67383,0.0,0.0,0.0,-37.75792,-36.55471,7.73493,9.75,0.42,0.2,2.0
1758074554.90858,1758074554.68383,0.0,0.0,0.0,-38.15899,-28.24682,8.59437,9.75,0.42,0.2,2.0
1758074554.90957,1758074554.69383,0.0,0.0,0.0,-38.90384,-20.79837,9.91217,9.98,0.19,0.82,2.0
1758074554.92481,1758074554.70382,0.0,0.0,0.0,-39.13302,-11.97482,12.14671,9.98,0.19,0.82,2.0
1758074554.92557,1758074554.71382,0.0,0.0,0.0,-37.98711,-3.89611,15.92823,10.31,-0.11,1.52,2.0
1758074554.94166,1758074554.72382,0.0,0.0,0.0,-36.95578,-4.35448,17.81899,9.58,-0.52,1.38,2.0
1758074554.95764,1758074554.73382,0.0,0.0,0.0,-35.2942,-7.44845,18.73572,9.58,-0.52,1.38,2.0
1758074554.95972,1758074554.74382,0.0,0.0,0.0,-33.46074,-11.34457,18.85031,9.42,-0.78,1.09,2.0
1758074554.97438,1758074554.75382,0.0,0.0,0.0,-30.65324,-16.3293,17.24603,9.42,-0.78,1.09,2.0
1758074554.97564,1758074554.76382,0.0,0.0,0.0,-29.27814,-17.36062,15.46986,10.01,-0.74,0.65,2.0
1758074554.99142,1758074554.77382,0.0,0.0,0.0,-28.70519,-16.50119,13.23533,10.01,-0.74,0.65,2.0
1758074555.00866,1758074554.78382,0.0,0.0,0.0,-29.04896,-14.66772,10.94349,10.61,-0.45,0.74,2.0
1758074555.00967,1758074554.79382,0.0,0.0,0.0,-31.45539,-10.19865,8.42248,10.7,-0.1,1.09,2.0
1758074555.02469,1758074554.80382,0.0,0.0,0.0,-34.0337,-7.67763,7.44845,10.7,-0.1,1.09,2.0
1758074555.02645,1758074554.81382,0.0,0.0,0.0,-36.84119,-5.15662,6.8182,10.47,0.23,1.27,2.0
1758074555.04273,1758074554.82382,0.0,0.0,0.0,-40.04975,-2.63561,6.18794,10.47,0.23,1.27,2.0
1758074555.05875,1758074554.83382,0.0,0.0,0.0,-43.94586,2.46372,5.21392,10.53,0.52,1.16,2.0
1758074555.06078,1758074554.84382,0.0,0.0,0.0,-45.77933,5.21392,4.29718,10.53,0.52,1.16,2.0
1758074555.07574,1758074554.85382,0.0,0.0,0.0,-47.32632,7.62034,3.60963,10.49,0.67,0.89,2.0
1758074555.07702,1758074554.86382,0.0,0.0,0.0,-48.30034,8.36518,2.92208,10.49,0.67,0.89,2.0
1758074555.09175,1758074554.87382,0.0,0.0,0.0,-49.84733,9.68299,3.20856,10.15,0.62,0.78,2.0
1758074555.10871,1758074554.88382,0.0,0.0,0.0,-50.363,8.70896,4.29718,10.09,0.4,0.65,2.0
1758074555.10964,1758074554.89382,0.0,0.0,0.0,-50.53488,2.00535,6.13065,10.09,0.4,0.65,2.0
1758074555.12442,1758074554.90382,0.0,0.0,0.0,-50.53488,-16.50119,8.02141,9.6,-0.06,0.97,2.0
1758074555.1256,1758074554.91382,0.0,0.0,0.0,-50.76406,-26.64254,9.22462,9.6,-0.06,0.97,2.0
1758074555.14169,1758074554.92382,0.0,0.0,0.0,-50.2484,-37.58603,9.11003,10.71,-0.56,2.27,2.0
1758074555.16033,1758074554.93382,0.0,0.0,0.0,-47.72739,-43.02913,6.8182,10.71,-0.56,2.27,2.0
1758074555.16131,1758074554.94382,0.0,0.0,0.0,-37.12767,-36.03905,-0.34377,15.23,-2.76,4.41,2.0
1758074555.16633,1758074554.95382,0.0,0.0,0.0,-26.98631,-31.51268,-3.60963,19.58,-6.26,4.67,2.0
1758074555.18259,1758074554.96382,0.0,0.0,0.0,-17.93358,-36.95578,-4.64096,19.58,-6.26,4.67,2.0
1758074555.18942,1758074554.97382,0.0,0.0,0.0,-10.25595,-51.10783,-3.72423,13.61,-6.16,3.7,2.0
1758074555.20534,1758074554.98382,0.0,0.0,0.0,-5.4431,-76.0315,-1.20321,13.61,-6.16,3.7,2.0
1758074555.20708,1758074554.99382,0.0,0.0,0.0,-4.87014,-81.5892,-0.17189,8.38,-2.61,1.9,2.0
1758074555.22182,1758074555.00382,0.0,0.0,0.0,-6.13065,-75.57314,0.40107,8.38,-2.61,1.9,2.0
1758074555.23754,1758074555.01382,0.0,0.0,0.0,-9.5684,-67.89551,0.0573,7.29,-0.6,1.55,2.0
1758074555.23873,1758074555.02382,0.0,0.0,0.0,-16.10011,-61.93674,-0.80214,5.15,0.19,3.39,2.0
1758074555.25362,1758074555.03382,0.0,0.0,0.0,-21.7151,-57.75415,-2.29183,5.15,0.19,3.39,2.0
1758074555.26961,1758074555.04382,0.0,0.0,0.0,-24.23611,-42.68536,-6.8182,6.19,0.17,4.09,2.0
1758074555.27107,1758074555.05382,0.0,0.0,0.0,-26.75713,-38.56006,-1.94806,6.19,0.17,4.09,2.0
1758074555.28563,1758074555.06382,0.0,0.0,0.0,-27.44468,-3.95341,2.23454,10.22,-1.3,3.3,2.0
1758074555.28678,1758074555.07382,0.0,0.0,0.0,-25.55392,15.58445,7.21927,10.22,-1.3,3.3,2.0
1758074555.30265,1758074555.08382,0.0,0.0,0.0,-22.23076,36.15364,11.17268,12.6,-3.05,0.41,2.0
1758074555.30603,1758074555.09382,0.0,0.0,0.0,-18.16276,51.90998,14.09476,12.6,-3.05,0.41,2.0
1758074555.32264,1758074555.10382,0.0,0.0,0.0,-12.204,64.45775,13.00614,12.14,-4.13,-0.37,2.0
1758074555.326,1758074555.11382,0.0,0.0,0.0,-8.0787,71.73432,10.8289,10.62,-4.22,-0.55,2.0
1758074555.3424,1758074555.12382,0.0,0.0,0.0,-4.35448,75.17207,7.84952,10.62,-4.22,-0.55,2.0
1758074555.34687,1758074555.13382,0.0,0.0,0.0,-0.11459,76.83365,4.23989,10.02,-3.79,0.16,2.0
1758074555.36245,1758074555.14382,0.0,0.0,0.0,2.6929,78.15145,2.29183,10.02,-3.79,0.16,2.0
1758074555.37112,1758074555.15382,0.0,0.0,0.0,6.13065,79.01089,1.77617,9.9,-3.05,0.45,2.0
1758074555.38592,1758074555.16382,0.0,0.0,0.0,10.02676,80.1568,2.23454,9.9,-3.05,0.45,2.0
1758074555.38726,1758074555.17382,0.0,0.0,0.0,15.69904,81.24542,5.27121,9.63,-2.39,0.34,2.0
1758074555.40274,1758074555.18382,0.0,0.0,0.0,18.79302,81.5892,7.96411,9.45,-2.03,1.02,2.0
1758074555.40608,1758074555.19382,0.0,0.0,0.0,21.42862,80.61517,10.48513,9.45,-2.03,1.02,2.0
1758074555.42251,1758074555.20382,0.0,0.0,0.0,23.60586,76.94823,12.60507,8.61,-2.0,1.12,2.0
1758074555.42645,1758074555.21382,0.0,0.0,0.0,25.09555,70.47381,14.20935,8.61,-2.0,1.12,2.0
1758074555.44169,1758074555.22382,0.0,0.0,0.0,25.15285,66.17663,13.98017,8.25,-2.23,0.88,2.0
1758074555.4579,1758074555.23382,0.0,0.0,0.0,24.57989,60.90542,12.77696,8.25,-2.23,0.88,2.0
1758074555.45915,1758074555.24382,0.0,0.0,0.0,23.54857,54.66018,10.8289,8.31,-2.46,0.58,2.0
1758074555.47394,1758074555.25382,0.0,0.0,0.0,21.48592,43.31561,6.47442,8.34,-2.5,0.84,2.0
1758074555.4757,1758074555.26382,0.0,0.0,0.0,20.11082,35.40879,2.92208,8.34,-2.5,0.84,2.0
1758074555.492,1758074555.27382,0.0,0.0,0.0,19.70975,30.13758,-0.22918,8.66,-2.31,1.07,2.0
1758074555.50802,1758074555.28382,0.0,0.0,0.0,19.99623,25.61122,-2.97938,8.66,-2.31,1.07,2.0
1758074555.50973,1758074555.29382,0.0,0.0,0.0,22.00158,24.92367,-5.50039,9.09,-2.15,1.28,2.0
1758074555.52496,1758074555.30382,0.0,0.0,0.0,24.35071,27.61657,-6.41713,9.09,-2.15,1.28,2.0
1758074555.52658,1758074555.31382,0.0,0.0,0.0,27.44468,30.93972,-6.87549,9.45,-2.14,1.32,2.0
1758074555.54191,1758074555.32382,0.0,0.0,0.0,32.83048,34.09099,-7.04738,9.45,-2.14,1.32,2.0
1758074555.55794,1758074555.33382,0.0,0.0,0.0,37.12767,34.37747,-6.70361,9.27,-2.2,1.32,2.0
1758074555.56084,1758074555.34382,0.0,0.0,0.0,41.42485,33.17426,-5.84417,9.04,-2.43,1.15,2.0
1758074555.57605,1758074555.35382,0.0,0.0,0.0,45.77933,31.28349,-4.35448,9.04,-2.43,1.15,2.0
1758074555.57724,1758074555.36382,0.0,0.0,0.0,51.85268,27.96034,-2.11994,9.02,-2.57,0.81,2.0
1758074555.59211,1758074555.37382,0.0,0.0,0.0,55.86338,25.61122,-1.3751,9.02,-2.57,0.81,2.0
1758074555.60798,1758074555.38382,0.0,0.0,0.0,58.84277,19.19409,-0.80214,8.9,-2.33,0.7,2.0
1758074555.60924,1758074555.39382,0.0,0.0,0.0,59.53032,6.41713,-2.6929,8.9,-2.33,0.7,2.0
1758074555.62375,1758074555.40382,0.0,0.0,0.0,58.09792,-4.23989,-7.10468,7.86,-1.55,0.58,2.0
1758074555.63984,1758074555.41382,0.0,0.0,0.0,58.21251,6.7609,-8.99544,9.66,-1.09,0.02,2.0
1758074555.64105,1758074555.42382,0.0,0.0,0.0,58.26981,16.38659,-10.08406,9.66,-1.09,0.02,2.0
1758074555.6561,1758074555.43382,0.0,0.0,0.0,56.55093,25.49662,-12.60507,10.18,-0.71,1.19,2.0
1758074555.65703,1758074555.44382,0.0,0.0,0.0,54.14451,20.79837,-18.90761,10.18,-0.71,1.19,2.0
1758074555.67217,1758074555.45382,0.0,0.0,0.0,51.45161,-1.77617,-24.35071,7.71,-0.5,1.56,2.0
1758074555.6881,1758074555.46382,0.0,0.0,0.0,54.66018,-31.62727,-20.45459,7.71,-0.5,1.56,2.0
1758074555.68906,1758074555.47382,0.0,0.0,0.0,54.66018,-36.95578,-21.08485,7.07,-0.31,-0.44,2.0
1758074555.70418,1758074555.48382,0.0,0.0,0.0,58.84277,-34.77854,-20.85567,9.94,-0.62,-1.21,2.0
1758074555.72015,1758074555.49382,0.0,0.0,0.0,60.90542,-34.32018,-21.02755,9.94,-0.62,-1.21,2.0
1758074555.72133,1758074555.50382,0.0,0.0,0.0,60.50434,-33.63263,-21.6578,9.8,-0.69,1.7,2.0
1758074555.73615,1758074555.51382,0.0,0.0,0.0,53.34238,-39.01843,-22.97561,9.8,-0.69,1.7,2.0
1758074555.73736,1758074555.52382,0.0,0.0,0.0,41.94051,-53.39967,-21.7724,11.6,0.95,6.88,2.0
1758074555.75189,1758074555.53382,0.0,0.0,0.0,24.63719,-57.75415,-19.59516,11.6,0.95,6.88,2.0
1758074555.76905,1758074555.54382,0.0,0.0,0.0,3.55234,-54.14451,-16.73037,16.68,4.84,9.52,2.0
1758074555.77035,1758074555.55382,0.0,0.0,0.0,-31.79916,-42.74266,-12.43318,16.68,4.84,9.52,2.0
1758074555.78517,1758074555.56382,0.0,0.0,0.0,-51.85268,-37.01308,-9.74028,18.18,6.38,6.91,2.0
1758074555.78612,1758074555.57382,0.0,0.0,0.0,-65.37449,-33.51803,-8.36518,13.73,2.31,4.94,2.0
1758074555.80187,1758074555.58382,0.0,0.0,0.0,-72.36457,-31.51268,-8.59437,13.73,2.31,4.94,2.0
1758074555.81796,1758074555.59382,0.0,0.0,0.0,-72.0208,-29.50733,-11.86023,8.8,-2.66,5.03,2.0
1758074555.81913,1758074555.60382,0.0,0.0,0.0,-64.51505,-23.60586,-15.41257,8.8,-2.66,5.03,2.0
1758074555.83576,1758074555.61382,0.0,0.0,0.0,-55.23313,-22.51724,-20.79837,7.79,-4.72,5.34,2.0
1758074555.83781,1758074555.62382,0.0,0.0,0.0,-43.31561,-21.60051,-26.87172,7.79,-4.72,5.34,2.0
1758074555.85399,1758074555.63382,0.0,0.0,0.0,-22.97561,-23.20479,-29.67921,8.25,-5.06,4.7,2.0
1758074555.87,1758074555.64382,0.0,0.0,0.0,-9.22462,-22.05888,-28.07493,8.8,-4.09,2.91,2.0
1758074555.87145,1758074555.65382,0.0,0.0,0.0,2.06265,-15.98552,-24.75178,8.8,-4.09,2.91,2.0
1758074555.88599,1758074555.66382,0.0,0.0,0.0,11.22997,-7.33386,-21.31403,9.56,-2.44,2.77,2.0
1758074555.88747,1758074555.67382,0.0,0.0,0.0,20.51189,1.66158,-15.98552,9.56,-2.44,2.77,2.0
1758074555.90465,1758074555.68382,0.0,0.0,0.0,23.49127,6.35983,-12.83425,8.67,-0.76,2.96,2.0
1758074555.92046,1758074555.69382,0.0,0.0,0.0,23.94964,12.14671,-10.54242,8.67,-0.76,2.96,2.0
1758074555.92121,1758074555.70382,0.0,0.0,0.0,22.74642,16.55848,-8.136,8.59,0.69,2.98,2.0
1758074555.93631,1758074555.71382,0.0,0.0,0.0,19.13679,20.45459,-4.98473,8.51,1.7,2.58,2.0
1758074555.94038,1758074555.72382,0.0,0.0,0.0,16.272,23.20479,-3.32316,8.51,1.7,2.58,2.0
1758074555.95629,1758074555.73382,0.0,0.0,0.0,13.06344,26.12688,-2.00535,8.82,1.77,2.62,2.0
1758074555.95835,1758074555.74382,0.0,0.0,0.0,7.84952,27.50197,-1.03132,8.82,1.77,2.62,2.0
1758074555.97395,1758074555.75382,0.0,0.0,0.0,4.35448,25.26744,-1.83346,8.66,1.03,2.89,2.0
1758074555.99006,1758074555.76382,0.0,0.0,0.0,0.74485,21.42862,-3.26586,8.66,1.03,2.89,2.0
1758074555.99121,1758074555.77382,0.0,0.0,0.0,-2.06265,17.13144,-4.52637,8.44,0.33,3.09,2.0
1758074556.00606,1758074555.78382,0.0,0.0,0.0,-5.32851,11.86023,-6.70361,8.44,0.33,3.2,2.0
1758074556.0081,1758074555.79382,0.0,0.0,0.0,-6.35983,9.74028,-6.99009,8.78,0.06,3.2,2.0
1758074556.02407,1758074555.80382,0.0,0.0,0.0,-6.7609,7.33386,-7.21927,8.96,0.18,3.27,2.0
1758074556.0403,1758074555.81382,0.0,0.0,0.0,-6.24524,4.92744,-6.47442,8.96,0.18,3.27,2.0
1758074556.04126,1758074555.82382,0.0,0.0,0.0,-4.87014,3.20856,-4.98473,8.86,0.37,3.24,2.0
1758074556.05631,1758074555.83382,0.0,0.0,0.0,-3.72423,2.63561,-3.89611,8.86,0.37,3.24,2.0
1758074556.05835,1758074555.84382,0.0,0.0,0.0,-2.46372,1.83346,-2.46372,8.8,0.39,2.95,2.0
1758074556.0731,1758074555.85382,0.0,0.0,0.0,-1.03132,1.3178,-1.3751,8.8,0.39,2.95,2.0
1758074556.08993,1758074555.86382,0.0,0.0,0.0,1.08862,-0.22918,1.71887,8.69,0.25,2.65,2.0
1758074556.09137,1758074555.87382,0.0,0.0,0.0,2.06265,-1.20321,4.29718,8.76,-0.02,2.52,2.0
1758074556.10609,1758074555.88382,0.0,0.0,0.0,2.92208,-2.6929,7.16197,8.76,-0.02,2.52,2.0
1758074556.10724,1758074555.89382,0.0,0.0,0.0,2.6929,-3.38045,9.5684,8.95,-0.27,2.35,2.0
1758074556.12316,1758074555.90382,0.0,0.0,0.0,-0.11459,-3.60963,10.65701,8.95,-0.27,2.35,2.0
1758074556.1391,1758074555.91382,0.0,0.0,0.0,-3.26586,-6.41713,9.68299,8.92,-0.04,2.32,2.0
1758074556.1403,1758074555.92382,0.0,0.0,0.0,-7.33386,-10.02676,8.0787,8.92,-0.04,2.32,2.0
1758074556.15524,1758074555.93382,0.0,0.0,0.0,-14.09476,-11.57375,5.27121,8.83,0.66,2.03,2.0
1758074556.15695,1758074555.94382,0.0,0.0,0.0,-18.56383,-9.96947,3.66693,9.53,1.24,2.0,2.0
1758074556.17242,1758074555.95382,0.0,0.0,0.0,-22.34536,-10.02676,2.86479,9.53,1.24,2.0,2.0
1758074556.18842,1758074555.96382,0.0,0.0,0.0,-25.89769,-11.17268,1.77617,9.22,1.21,1.91,2.0
1758074556.18934,1758074555.97382,0.0,0.0,0.0,-29.62192,-14.49583,1.20321,9.22,1.21,1.91,2.0
1758074556.20437,1758074555.98382,0.0,0.0,0.0,-30.82513,-17.36062,1.3178,8.88,0.8,1.82,2.0
1758074556.22041,1758074555.99382,0.0,0.0,0.0,-31.2262,-19.99623,1.60428,8.88,0.8,1.82,2.0
1758074556.22135,1758074556.00382,0.0,0.0,0.0,-30.36677,-24.5226,2.6929,8.78,0.35,1.35,2.0
1758074556.23616,1758074556.01382,0.0,0.0,0.0,-28.01764,-29.50733,5.09932,8.85,0.35,1.16,2.0
1758074556.23737,1758074556.02382,0.0,0.0,0.0,-25.7831,-32.77319,7.39116,8.85,0.01,1.16,2.0
1758074556.25218,1758074556.03382,0.0,0.0,0.0,-23.94964,-33.68992,9.11003,9.07,-0.39,0.76,2.0
1758074556.26846,1758074556.04382,0.0,0.0,0.0,-21.7151,-33.34615,11.63104,9.07,-0.39,0.76,2.0
1758074556.26939,1758074556.05382,0.0,0.0,0.0,-20.16812,-15.69904,16.272,9.9,-0.54,1.12,2.0
1758074556.28446,1758074556.06382,0.0,0.0,0.0,-22.74642,-18.85031,13.46451,9.9,-0.54,1.12,2.0
1758074556.30045,1758074556.07382,0.0,0.0,0.0,-25.72581,-24.4653,11.63104,8.99,-0.1,1.57,2.0
1758074556.3014,1758074556.08382,0.0,0.0,0.0,-28.87707,-29.27814,7.79223,8.99,-0.1,1.57,2.0
1758074556.31643,1758074556.09382,0.0,0.0,0.0,-30.25217,-23.60586,5.72958,8.94,0.68,1.06,2.0
1758074556.31742,1758074556.10382,0.0,0.0,0.0,-30.02299,-21.48592,7.04738,9.47,1.0,0.53,2.0
1758074556.33249,1758074556.11382,0.0,0.0,0.0,-30.30947,-17.58981,7.84952,9.47,1.0,0.53,2.0
1758074556.34947,1758074556.12382,0.0,0.0,0.0,-29.56462,-11.17268,11.22997,9.7,0.62,0.45,2.0
1758074556.35042,1758074556.13382,0.0,0.0,0.0,-27.2155,-4.52637,13.98017,9.7,0.62,0.45,2.0
1758074556.36603,1758074556.14382,0.0,0.0,0.0,-24.80907,-6.18794,16.61578,9.55,-0.03,1.07,2.0
1758074556.36775,1758074556.15382,0.0,0.0,0.0,-22.23076,-11.22997,18.79302,9.55,-0.03,1.07,2.0
1758074556.3841,1758074556.16382,0.0,0.0,0.0,-18.73572,-19.25138,20.51189,8.99,-0.69,1.09,2.0
1758074556.38666,1758074556.17382,0.0,0.0,0.0,-16.272,-23.49127,20.85567,9.48,-1.13,0.81,2.0
1758074556.40631,1758074556.18382,0.0,0.0,0.0,-14.66772,-25.49662,20.11082,9.48,-1.13,0.81,2.0
1758074556.40751,1758074556.19382,0.0,0.0,0.0,-13.34992,-24.23611,18.79302,10.32,-1.34,0.7,2.0
1758074556.42256,1758074556.20382,0.0,0.0,0.0,-11.74564,-17.81899,16.73037,10.32,-1.34,0.7,2.0
1758074556.42693,1758074556.21382,0.0,0.0,0.0,-11.22997,-11.22997,15.41257,11.05,-1.2,1.08,2.0
1758074556.44257,1758074556.22382,0.0,0.0,0.0,-11.00079,-4.35448,14.72501,11.05,-1.2,1.08,2.0
1758074556.44697,1758074556.23382,0.0,0.0,0.0,-11.22997,-0.68755,14.03747,11.16,-0.76,1.53,2.0
1758074556.46229,1758074556.24382,0.0,0.0,0.0,-12.49048,1.77617,13.06344,10.68,-0.24,1.53,2.0
1758074556.46698,1758074556.25382,0.0,0.0,0.0,-13.23533,3.60963,12.14671,10.68,-0.24,1.53,2.0
1758074556.48229,1758074556.26382,0.0,0.0,0.0,-13.69369,5.78687,10.94349,10.78,0.22,1.41,2.0
1758074556.48668,1758074556.27382,0.0,0.0,0.0,-13.98017,7.67763,9.74028,10.78,0.22,1.41,2.0
1758074556.50252,1758074556.28382,0.0,0.0,0.0,-14.9542,7.44845,7.96411,10.46,0.57,1.26,2.0
1758074556.51831,1758074556.29382,0.0,0.0,0.0,-16.21471,5.50039,7.04738,10.46,0.57,1.26,2.0
1758074556.52145,1758074556.30382,0.0,0.0,0.0,-17.81899,4.18259,7.10468,9.87,0.76,0.88,2.0
1758074556.53663,1758074556.31382,0.0,0.0,0.0,-19.42327,0.74485,8.0787,9.87,0.76,0.88,2.0
1758074556.53867,1758074556.32382,0.0,0.0,0.0,-22.00158,-12.43318,9.91217,9.67,0.66,0.79,2.0
1758074556.55356,1758074556.33382,0.0,0.0,0.0,-23.89234,-23.20479,11.22997,9.59,0.56,1.34,2.0
1758074556.57036,1758074556.34382,0.0,0.0,0.0,-25.8404,-34.72124,12.60507,9.59,0.56,1.34,2.0
1758074556.57179,1758074556.35382,0.0,0.0,0.0,-28.01764,-45.77933,11.51645,10.78,0.12,2.25,2.0
