timeStamp,timeStampAlign,roll,pitch,yaw,gyro_x,gyro_y,gyro_z,acc_x,acc_y,acc_z,flag_num
1758089022.22913,1758089020.41648,0.0,0.0,0.0,-16.38659,0.97403,11.11538,9.04,-0.88,0.66,2.0
1758089022.24458,1758089020.42648,0.0,0.0,0.0,-14.66772,-2.46372,10.54242,9.04,-0.88,0.66,2.0
1758089022.24973,1758089020.43648,0.0,0.0,0.0,-11.86023,-7.67763,9.33921,8.95,-0.86,0.6,2.0
1758089022.26477,1758089020.44648,0.0,0.0,0.0,-9.91217,-10.65701,8.88085,8.97,-0.83,0.43,2.0
1758089022.26969,1758089020.45648,0.0,0.0,0.0,-8.02141,-12.71966,8.25059,8.97,-0.83,0.43,2.0
1758089022.28481,1758089020.46648,0.0,0.0,0.0,-6.07335,-14.72501,7.96411,9.04,-0.81,0.2,2.0
1758089022.28895,1758089020.47648,0.0,0.0,0.0,-2.63561,-15.0115,7.73493,9.04,-0.81,0.2,2.0
1758089022.30456,1758089020.48648,0.0,0.0,0.0,-0.57296,-12.37589,7.44845,9.33,-0.79,0.0,2.0
1758089022.30983,1758089020.49648,0.0,0.0,0.0,1.43239,-8.30789,6.99009,9.33,-0.79,0.0,2.0
1758089022.32459,1758089020.50648,0.0,0.0,0.0,3.32316,-4.64096,6.18794,9.71,-0.74,-0.16,2.0
1758089022.32815,1758089020.51648,0.0,0.0,0.0,6.24524,0.11459,4.64096,9.63,-0.64,-0.24,2.0
1758089022.34361,1758089020.52648,0.0,0.0,0.0,8.136,2.06265,3.72423,9.63,-0.64,-0.24,2.0
1758089022.34484,1758089020.53648,0.0,0.0,0.0,10.25595,4.52637,2.63561,9.56,-0.66,-0.37,2.0
1758089022.35968,1758089020.54648,0.0,0.0,0.0,12.2613,7.33386,1.77617,9.56,-0.66,-0.37,2.0
1758089022.37645,1758089020.55648,0.0,0.0,0.0,15.29797,10.54242,0.45837,9.64,-0.74,-0.42,2.0
1758089022.37956,1758089020.56648,0.0,0.0,0.0,17.36062,10.65701,-0.22918,9.64,-0.74,-0.42,2.0
1758089022.3946,1758089020.57648,0.0,0.0,0.0,19.48057,8.99544,-0.74485,9.38,-0.77,-0.43,2.0
1758089022.39932,1758089020.58648,0.0,0.0,0.0,21.6578,5.4431,-1.3178,9.38,-0.77,-0.43,2.0
1758089022.43888,1758089020.59648,0.0,0.0,0.0,24.57989,-0.80214,-2.34913,9.01,-0.74,-0.43,2.0
1758089022.43981,1758089020.60648,0.0,0.0,0.0,26.47065,-2.6929,-2.46372,9.17,-0.69,-0.47,2.0
1758089022.44442,1758089020.61648,0.0,0.0,0.0,28.24682,-5.32851,-2.6929,9.17,-0.69,-0.47,2.0
1758089022.44984,1758089020.62648,0.0,0.0,0.0,29.9084,-7.33386,-2.63561,9.32,-0.65,-0.56,2.0
1758089022.45265,1758089020.63648,0.0,0.0,0.0,32.6013,-8.36518,-2.57831,9.32,-0.65,-0.56,2.0
1758089022.45386,1758089020.64648,0.0,0.0,0.0,34.14828,-6.58902,-1.83346,9.76,-0.7,-0.56,2.0
1758089022.46993,1758089020.65648,0.0,0.0,0.0,35.69527,-3.09397,-1.03132,9.76,-0.7,-0.56,2.0
1758089022.48733,1758089020.66648,0.0,0.0,0.0,37.58603,0.17189,0.34377,10.34,-0.73,-0.56,2.0
1758089022.4926,1758089020.67648,0.0,0.0,0.0,37.58603,1.03132,0.11459,10.37,-0.55,-0.51,2.0
1758089022.4948,1758089020.68648,0.0,0.0,0.0,37.64333,-1.3751,0.22918,10.37,-0.55,-0.51,2.0
1758089022.51321,1758089020.69648,0.0,0.0,0.0,37.29956,-6.07335,0.11459,9.86,-0.42,-0.54,2.0
1758089022.51434,1758089020.70648,0.0,0.0,0.0,36.15364,-13.98017,-0.34377,9.86,-0.42,-0.54,2.0
1758089022.5297,1758089020.71648,0.0,0.0,0.0,35.06502,-17.30333,-0.80214,9.92,-0.33,-0.85,2.0
1758089022.53488,1758089020.72648,0.0,0.0,0.0,33.46074,-18.62113,-1.20321,9.92,-0.33,-0.85,2.0
1758089022.57825,1758089020.73648,0.0,0.0,0.0,31.62727,-19.19409,-1.60428,10.48,-0.32,-1.0,2.0
1758089022.57954,1758089020.74648,0.0,0.0,0.0,29.04896,-20.62648,-1.83346,10.63,-0.32,-1.24,2.0
1758089022.58081,1758089020.75648,0.0,0.0,0.0,26.81443,-20.16812,-2.06265,10.63,-0.32,-1.24,2.0
1758089022.5845,1758089020.76648,0.0,0.0,0.0,24.57989,-19.59516,-1.77617,10.74,-0.41,-1.18,2.0
1758089022.58832,1758089020.77648,0.0,0.0,0.0,22.23076,-20.97026,-1.66158,10.74,-0.41,-1.18,2.0
1758089022.60483,1758089020.78648,0.0,0.0,0.0,19.82434,-27.96034,-0.34377,10.49,-0.48,-0.63,2.0
1758089022.6084,1758089020.79648,0.0,0.0,0.0,19.13679,-31.11161,2.11994,10.49,-0.48,-0.63,2.0
1758089022.62383,1758089020.80648,0.0,0.0,0.0,17.47521,-29.50733,4.0107,11.41,-0.62,0.09,2.0
1758089022.63299,1758089020.81648,0.0,0.0,0.0,15.06879,-28.41871,6.13065,11.41,-0.62,0.09,2.0
1758089022.6382,1758089020.82648,0.0,0.0,0.0,10.8289,-28.93437,10.59972,12.95,-0.31,0.69,2.0
1758089022.65382,1758089020.83648,0.0,0.0,0.0,7.62034,-27.04361,13.86558,13.59,0.37,0.89,2.0
1758089022.65502,1758089020.84648,0.0,0.0,0.0,3.38045,-22.11617,16.61578,13.59,0.37,0.89,2.0
1758089022.66981,1758089020.85648,0.0,0.0,0.0,-3.60963,-12.2613,18.73572,13.02,1.14,-0.28,2.0
1758089022.67535,1758089020.86648,0.0,0.0,0.0,-8.0787,-6.13065,18.27736,13.02,1.14,-0.28,2.0
1758089022.69337,1758089020.87648,0.0,0.0,0.0,-11.86023,1.08862,15.98552,10.76,1.19,-0.91,2.0
1758089022.69458,1758089020.88648,0.0,0.0,0.0,-15.0115,8.30789,12.71966,10.76,1.19,-0.91,2.0
1758089022.74869,1758089020.89648,0.0,0.0,0.0,-17.58981,16.38659,6.7609,9.61,0.89,-1.04,2.0
1758089022.74978,1758089020.90648,0.0,0.0,0.0,-17.99088,19.76705,2.29183,9.28,0.48,-0.45,2.0
1758089022.75367,1758089020.91648,0.0,0.0,0.0,-17.36062,21.60051,-2.00535,9.28,0.48,-0.45,2.0
1758089022.75484,1758089020.92648,0.0,0.0,0.0,-15.64175,22.05888,-6.07335,9.11,-0.2,0.1,2.0
1758089022.75737,1758089020.93648,0.0,0.0,0.0,-11.17268,20.68378,-10.8862,9.11,-0.2,0.1,2.0
1758089022.75902,1758089020.94648,0.0,0.0,0.0,-7.16197,19.07949,-13.12073,9.22,-0.97,1.03,2.0
1758089022.77392,1758089020.95648,0.0,0.0,0.0,-3.32316,15.75634,-14.38124,9.22,-0.97,1.03,2.0
1758089022.77513,1758089020.96648,0.0,0.0,0.0,0.74485,9.68299,-13.86558,9.58,-1.48,2.35,2.0
1758089022.78998,1758089020.97648,0.0,0.0,0.0,7.62034,-3.49504,-9.5684,9.6,-1.04,2.57,2.0
1758089022.79351,1758089020.98648,0.0,0.0,0.0,12.54778,-10.02676,-5.72958,9.6,-1.04,2.57,2.0
1758089022.80881,1758089020.99648,0.0,0.0,0.0,16.90226,-13.12073,-2.00535,9.76,0.07,1.97,2.0
1758089022.82518,1758089021.00648,0.0,0.0,0.0,20.62648,-11.22997,1.71887,9.76,0.07,1.97,2.0
1758089022.8301,1758089021.01648,0.0,0.0,0.0,24.17882,-4.98473,5.32851,10.05,1.12,1.39,2.0
1758089022.8347,1758089021.02648,0.0,0.0,0.0,25.49662,-0.85944,6.58902,10.05,1.12,1.39,2.0
1758089022.85255,1758089021.03648,0.0,0.0,0.0,25.55392,3.66693,6.47442,9.61,1.77,1.01,2.0
1758089022.85454,1758089021.04648,0.0,0.0,0.0,24.5226,7.84952,5.09932,9.61,1.77,1.01,2.0
1758089022.86997,1758089021.05648,0.0,0.0,0.0,22.68913,13.98017,3.66693,9.49,2.06,0.8,2.0
1758089022.87433,1758089021.06648,0.0,0.0,0.0,20.34,16.55848,2.63561,9.9,2.07,0.66,2.0
1758089022.88997,1758089021.07648,0.0,0.0,0.0,17.13144,19.36597,1.60428,9.9,2.07,0.66,2.0
1758089022.89395,1758089021.08648,0.0,0.0,0.0,11.80293,22.40265,0.0573,10.52,1.87,0.45,2.0
1758089022.90908,1758089021.09648,0.0,0.0,0.0,8.136,25.55392,-0.74485,10.52,1.87,0.45,2.0
1758089022.92504,1758089021.10648,0.0,0.0,0.0,4.69825,30.02299,-1.94806,10.96,1.52,0.17,2.0
1758089022.92655,1758089021.11648,0.0,0.0,0.0,1.3178,33.51803,-3.20856,10.96,1.52,0.17,2.0
1758089022.94182,1758089021.12648,0.0,0.0,0.0,-3.20856,35.40879,-5.09932,10.86,1.25,0.12,2.0
1758089022.94465,1758089021.13648,0.0,0.0,0.0,-5.84417,35.06502,-6.41713,10.33,1.16,0.35,2.0
1758089022.96011,1758089021.14648,0.0,0.0,0.0,-8.136,34.43476,-7.96411,10.33,1.16,0.35,2.0
1758089022.96361,1758089021.15648,0.0,0.0,0.0,-10.31324,33.05967,-9.28192,10.04,1.28,0.44,2.0
1758089022.98008,1758089021.16648,0.0,0.0,0.0,-12.60507,29.04896,-10.8862,10.04,1.28,0.44,2.0
1758089022.98343,1758089021.17648,0.0,0.0,0.0,-13.5218,26.35606,-11.28727,9.72,1.44,0.6,2.0
1758089022.99902,1758089021.18648,0.0,0.0,0.0,-14.32395,24.29341,-11.51645,9.72,1.44,0.6,2.0
1758089023.01517,1758089021.19648,0.0,0.0,0.0,-14.9542,22.23076,-11.74564,9.61,1.46,0.62,2.0
1758089023.01626,1758089021.20648,0.0,0.0,0.0,-14.83961,18.33465,-11.11538,9.43,1.25,0.49,2.0
1758089023.03214,1758089021.21648,0.0,0.0,0.0,-14.61043,15.75634,-10.71431,9.43,1.25,0.49,2.0
1758089023.03305,1758089021.22648,0.0,0.0,0.0,-14.32395,12.71966,-10.19865,9.31,0.96,0.46,2.0
1758089023.04833,1758089021.23648,0.0,0.0,0.0,-13.86558,9.74028,-9.68299,9.31,0.96,0.46,2.0
1758089023.06413,1758089021.24648,0.0,0.0,0.0,-13.46451,6.53172,-9.05273,9.39,0.73,0.47,2.0
1758089023.06532,1758089021.25648,0.0,0.0,0.0,-13.12073,5.32851,-8.76626,9.39,0.73,0.47,2.0
1758089023.08013,1758089021.26648,0.0,0.0,0.0,-12.83425,4.35448,-8.0787,9.54,0.63,0.44,2.0
1758089023.09614,1758089021.27648,0.0,0.0,0.0,-13.40721,3.38045,-7.04738,9.54,0.63,0.44,2.0
1758089023.09818,1758089021.28648,0.0,0.0,0.0,-14.32395,3.55234,-6.47442,9.43,0.73,0.34,2.0
1758089023.11423,1758089021.29648,0.0,0.0,0.0,-15.64175,3.89611,-5.84417,9.39,0.95,0.19,2.0
1758089023.11672,1758089021.30648,0.0,0.0,0.0,-17.47521,3.72423,-5.55769,9.39,0.95,0.19,2.0
1758089023.13241,1758089021.31648,0.0,0.0,0.0,-21.08485,4.29718,-5.55769,9.27,1.24,0.04,2.0
1758089023.13412,1758089021.32648,0.0,0.0,0.0,-23.72045,5.4431,-5.4431,9.27,1.24,0.04,2.0
1758089023.14941,1758089021.33648,0.0,0.0,0.0,-26.47065,6.13065,-5.27121,9.26,1.43,-0.12,2.0
1758089023.1684,1758089021.34648,0.0,0.0,0.0,-29.04896,6.58902,-4.98473,9.26,1.43,-0.12,2.0
1758089023.18994,1758089021.35648,0.0,0.0,0.0,-32.88778,5.84417,-3.83882,9.09,1.46,-0.31,2.0
1758089023.19531,1758089021.36648,0.0,0.0,0.0,-35.58068,3.95341,-2.7502,8.8,1.48,-0.51,2.0
1758089023.20127,1758089021.37648,0.0,0.0,0.0,-38.1017,0.74485,-1.83346,8.8,1.48,-0.51,2.0
1758089023.20425,1758089021.38648,0.0,0.0,0.0,-41.13837,-3.49504,-1.08862,8.46,1.61,-0.69,2.0
1758089023.20961,1758089021.39648,0.0,0.0,0.0,-45.77933,-12.54778,-0.40107,8.46,1.61,-0.69,2.0
1758089023.22424,1758089021.40648,0.0,0.0,0.0,-48.41494,-22.34536,-0.11459,8.11,1.89,-0.97,2.0
1758089023.22942,1758089021.41648,0.0,0.0,0.0,-50.99325,-33.11696,0.0,8.11,1.89,-0.97,2.0
1758089023.24418,1758089021.42648,0.0,0.0,0.0,-53.11319,-42.85724,-0.34377,7.68,1.85,-1.53,2.0
1758089023.24942,1758089021.43648,0.0,0.0,0.0,-55.7488,-56.89471,-0.34377,7.86,1.75,-1.8,2.0
1758089023.26456,1758089021.44648,0.0,0.0,0.0,-57.23849,-63.59832,-0.51566,7.86,1.75,-1.8,2.0
1758089023.26961,1758089021.45648,0.0,0.0,0.0,-59.47303,-66.17663,0.34377,8.64,1.62,-1.53,2.0
1758089023.28429,1758089021.46648,0.0,0.0,0.0,-64.22858,-55.06125,0.40107,8.64,1.62,-1.53,2.0
1758089023.28709,1758089021.47648,0.0,0.0,0.0,-66.635,-31.56997,1.43239,11.08,1.66,-0.81,2.0
1758089023.30257,1758089021.48648,0.0,0.0,0.0,-68.92683,-20.05352,1.60428,11.08,1.66,-0.81,2.0
1758089023.30588,1758089021.49648,0.0,0.0,0.0,-69.55708,-30.53865,0.22918,11.87,1.37,2.29,2.0
1758089023.32457,1758089021.50648,0.0,0.0,0.0,-70.18733,-61.87944,-7.33386,11.87,1.37,2.29,2.0
1758089023.32713,1758089021.51648,0.0,0.0,0.0,-69.78626,-74.88559,-15.41257,12.59,0.54,3.86,2.0
1758089023.34232,1758089021.52648,0.0,0.0,0.0,-68.41116,-69.55708,-21.31403,16.53,-0.63,1.0,2.0
1758089023.34434,1758089021.53648,0.0,0.0,0.0,-65.83286,-57.12389,-23.49127,16.53,-0.63,1.0,2.0
1758089023.3593,1758089021.54648,0.0,0.0,0.0,-61.70755,-42.91454,-20.97026,14.43,-0.38,0.49,2.0
1758089023.37535,1758089021.55648,0.0,0.0,0.0,-59.70221,-34.09099,-17.30333,14.43,-0.38,0.49,2.0
1758089023.37657,1758089021.56648,0.0,0.0,0.0,-58.84277,-24.92367,-12.54778,11.35,0.32,1.07,2.0
1758089023.39215,1758089021.57648,0.0,0.0,0.0,-58.4417,-18.33465,-6.70361,11.35,0.32,1.07,2.0
1758089023.3945,1758089021.58648,0.0,0.0,0.0,-60.27517,-15.35527,0.22918,10.27,0.39,1.26,2.0
1758089023.41264,1758089021.59648,0.0,0.0,0.0,-61.59297,-19.59516,3.72423,9.05,0.25,1.33,2.0
1758089023.41477,1758089021.60648,0.0,0.0,0.0,-63.8275,-24.4653,5.78687,9.05,0.25,1.33,2.0
1758089023.42933,1758089021.61648,0.0,0.0,0.0,-66.40582,-27.73116,6.87549,9.09,0.06,1.02,2.0
1758089023.43295,1758089021.62648,0.0,0.0,0.0,-71.04677,-28.30412,6.53172,9.09,0.06,1.02,2.0
1758089023.44862,1758089021.63648,0.0,0.0,0.0,-73.16672,-20.97026,6.53172,10.1,-0.3,0.34,2.0
1758089023.46536,1758089021.64648,0.0,0.0,0.0,-76.94823,-5.4431,4.1253,10.1,-0.3,0.34,2.0
1758089023.47367,1758089021.65648,0.0,0.0,0.0,-80.61517,6.47442,1.14592,11.55,-0.5,-0.27,2.0
1758089023.47439,1758089021.66648,0.0,0.0,0.0,-83.30807,15.29797,-1.48969,10.0,-0.74,0.05,2.0
1758089023.4939,1758089021.67648,0.0,0.0,0.0,-83.19347,15.92823,-3.60963,10.0,-0.74,0.05,2.0
1758089023.49484,1758089021.68648,0.0,0.0,0.0,-81.36001,17.01685,-5.09932,9.47,-0.94,0.1,2.0
1758089023.53434,1758089021.69648,0.0,0.0,0.0,-76.43258,22.05888,-5.4431,9.47,-0.94,0.1,2.0
1758089023.53636,1758089021.70648,0.0,0.0,0.0,-72.0208,23.83505,-4.0107,10.46,-1.42,-0.04,2.0
1758089023.53731,1758089021.71648,0.0,0.0,0.0,-67.66632,23.20479,-2.00535,10.46,-1.42,-0.04,2.0
1758089023.53851,1758089021.72648,0.0,0.0,0.0,-63.59832,21.94428,0.0573,10.23,-1.65,-0.07,2.0
1758089023.55446,1758089021.73648,0.0,0.0,0.0,-57.92604,20.3973,3.55234,10.23,-1.65,-0.11,2.0
1758089023.55648,1758089021.74648,0.0,0.0,0.0,-55.06125,20.74107,5.55769,10.04,-1.45,-0.11,2.0
1758089023.57227,1758089021.75648,0.0,0.0,0.0,-52.884,21.02755,6.87549,9.86,-1.12,0.0,2.0
1758089023.57503,1758089021.76648,0.0,0.0,0.0,-51.45161,19.48057,7.67763,9.86,-1.12,0.0,2.0
1758089023.59357,1758089021.77648,0.0,0.0,0.0,-50.13381,15.29797,7.62034,9.4,-0.82,0.11,2.0
1758089023.59477,1758089021.78648,0.0,0.0,0.0,-49.79003,13.00614,6.8182,9.4,-0.82,0.11,2.0
1758089023.61216,1758089021.79648,0.0,0.0,0.0,-49.61814,9.85487,5.61499,9.44,-0.69,0.0,2.0
1758089023.61407,1758089021.80648,0.0,0.0,0.0,-49.67545,7.33386,4.18259,9.44,-0.69,0.0,2.0
1758089023.62961,1758089021.81648,0.0,0.0,0.0,-49.67545,4.0107,2.23454,9.64,-0.69,-0.25,2.0
1758089023.63387,1758089021.82648,0.0,0.0,0.0,-49.21708,2.23454,1.66158,9.79,-0.74,-0.42,2.0
1758089023.64959,1758089021.83648,0.0,0.0,0.0,-48.35764,0.45837,1.48969,9.79,-0.74,-0.42,2.0
1758089023.69977,1758089021.84648,0.0,0.0,0.0,-47.61279,-0.74485,2.00535,9.74,-0.76,-0.56,2.0
1758089023.70456,1758089021.85648,0.0,0.0,0.0,-46.06581,-2.00535,3.20856,9.74,-0.76,-0.56,2.0
1758089023.70518,1758089021.86648,0.0,0.0,0.0,-45.14908,-1.3751,4.18259,9.73,-0.76,-0.7,2.0
1758089023.71206,1758089021.87648,0.0,0.0,0.0,-44.51882,0.34377,4.46907,9.73,-0.76,-0.7,2.0
1758089023.7135,1758089021.88648,0.0,0.0,0.0,-43.88857,1.83346,3.72423,9.83,-0.69,-0.9,2.0
1758089023.71483,1758089021.89648,0.0,0.0,0.0,-43.60209,3.49504,2.46372,9.56,-0.6,-1.05,2.0
1758089023.71887,1758089021.90648,0.0,0.0,0.0,-43.25832,4.52637,0.74485,9.56,-0.6,-1.05,2.0
1758089023.73565,1758089021.91648,0.0,0.0,0.0,-42.62806,5.95876,-1.43239,9.4,-0.56,-1.08,2.0
1758089023.74158,1758089021.92648,0.0,0.0,0.0,-41.02378,7.79223,-4.69825,9.4,-0.56,-1.08,2.0
1758089023.75823,1758089021.93648,0.0,0.0,0.0,-39.01843,8.42248,-6.41713,9.31,-0.67,-1.12,2.0
1758089023.75967,1758089021.94648,0.0,0.0,0.0,-36.21093,8.47978,-7.79223,9.31,-0.67,-1.12,2.0
1758089023.77464,1758089021.95648,0.0,0.0,0.0,-32.88778,8.99544,-8.42248,9.37,-0.98,-1.08,2.0
1758089023.77776,1758089021.96648,0.0,0.0,0.0,-26.98631,6.70361,-8.36518,9.35,-1.31,-1.11,2.0
1758089023.79341,1758089021.97648,0.0,0.0,0.0,-22.57454,4.69825,-7.84952,9.35,-1.31,-1.11,2.0
1758089023.79465,1758089021.98648,0.0,0.0,0.0,-17.81899,2.40642,-7.16197,9.26,-1.51,-1.13,2.0
1758089023.80965,1758089021.99648,0.0,0.0,0.0,-13.34992,-0.51566,-6.53172,9.26,-1.51,-1.13,2.0
1758089023.82663,1758089022.00648,0.0,0.0,0.0,-7.10468,-8.59437,-6.13065,8.97,-1.49,-1.16,2.0
1758089023.82787,1758089022.01648,0.0,0.0,0.0,-3.55234,-12.08941,-5.95876,8.97,-1.49,-1.16,2.0
1758089023.8437,1758089022.02648,0.0,0.0,0.0,-0.40107,-14.20935,-6.58902,8.9,-1.32,-1.26,2.0
1758089023.84466,1758089022.03648,0.0,0.0,0.0,3.32316,-14.38124,-6.99009,8.9,-1.32,-1.26,2.0
1758089023.85993,1758089022.04648,0.0,0.0,0.0,8.136,-14.09476,-7.62034,9.34,-1.2,-1.12,2.0
1758089023.89862,1758089022.05648,0.0,0.0,0.0,11.51645,-17.53251,-7.62034,9.3,-1.16,-0.47,2.0
1758089023.90468,1758089022.06648,0.0,0.0,0.0,14.66772,-25.72581,-6.8182,9.3,-1.16,-0.47,2.0
1758089023.90819,1758089022.07648,0.0,0.0,0.0,17.6471,-33.11696,-3.95341,10.06,-1.53,1.32,2.0
1758089023.90939,1758089022.08648,0.0,0.0,0.0,21.02755,-33.17426,0.0,10.06,-1.53,1.32,2.0
1758089023.91001,1758089022.09648,0.0,0.0,0.0,20.85567,-26.06958,4.92744,14.11,-1.19,1.98,2.0
1758089023.9148,1758089022.10648,0.0,0.0,0.0,20.3973,-18.85031,9.22462,14.11,-1.19,1.98,2.0
1758089023.93385,1758089022.11648,0.0,0.0,0.0,20.05352,-20.62648,13.98017,14.26,0.22,0.47,2.0
1758089023.93501,1758089022.12648,0.0,0.0,0.0,18.85031,-29.56462,14.20935,10.1,0.7,-0.05,2.0
1758089023.9531,1758089022.13648,0.0,0.0,0.0,18.27736,-41.13837,14.9542,10.1,0.7,-0.05,2.0
1758089023.95509,1758089022.14648,0.0,0.0,0.0,18.33465,-47.95657,15.41257,9.15,0.41,0.32,2.0
1758089023.97389,1758089022.15648,0.0,0.0,0.0,18.85031,-42.05511,14.72501,9.15,0.41,0.32,2.0
1758089023.97532,1758089022.16648,0.0,0.0,0.0,19.13679,-32.25753,12.08941,11.64,0.06,0.29,2.0
1758089023.9918,1758089022.17648,0.0,0.0,0.0,19.48057,-26.35606,8.99544,11.64,0.06,0.29,2.0
1758089023.99508,1758089022.18648,0.0,0.0,0.0,19.42327,-23.31938,6.07335,11.81,0.14,0.39,2.0
1758089024.01994,1758089022.19648,0.0,0.0,0.0,19.53786,-18.10547,2.06265,10.96,0.12,0.24,2.0
1758089024.04362,1758089022.20648,0.0,0.0,0.0,19.70975,-13.75099,0.34377,10.96,0.12,0.24,2.0
1758089024.04583,1758089022.21648,0.0,0.0,0.0,19.59516,-8.70896,-0.74485,10.39,0.18,0.39,2.0
1758089024.05428,1758089022.22648,0.0,0.0,0.0,19.76705,-4.64096,-1.3751,10.39,0.18,0.39,2.0
1758089024.05481,1758089022.23648,0.0,0.0,0.0,20.45459,-0.22918,-1.48969,9.65,0.38,0.59,2.0
1758089024.06084,1758089022.24648,0.0,0.0,0.0,21.02755,1.66158,-1.14592,9.65,0.38,0.59,2.0
1758089024.06474,1758089022.25648,0.0,0.0,0.0,21.7151,4.18259,-0.97403,9.28,0.71,0.47,2.0
1758089024.08083,1758089022.26648,0.0,0.0,0.0,22.23076,11.91752,-0.85944,9.28,0.71,0.47,2.0
1758089024.09867,1758089022.27648,0.0,0.0,0.0,21.37133,26.35606,-0.68755,9.95,1.13,0.33,2.0
1758089024.09985,1758089022.28648,0.0,0.0,0.0,19.25138,34.32018,-1.20321,10.14,1.77,0.39,2.0
1758089024.11589,1758089022.29648,0.0,0.0,0.0,17.01685,37.29956,-0.68755,10.14,1.77,0.39,2.0
1758089024.11871,1758089022.30648,0.0,0.0,0.0,14.61043,38.27358,1.14592,9.86,1.92,0.23,2.0
1758089024.13386,1758089022.31648,0.0,0.0,0.0,13.12073,38.38818,2.11994,9.86,1.92,0.23,2.0
1758089024.1441,1758089022.32648,0.0,0.0,0.0,10.94349,38.27358,2.57831,10.37,1.78,-0.11,2.0
1758089024.1445,1758089022.33648,0.0,0.0,0.0,8.36518,36.6693,2.00535,10.37,1.78,-0.11,2.0
1758089024.16487,1758089022.34648,0.0,0.0,0.0,4.64096,31.2262,0.80214,10.45,1.65,0.02,2.0
1758089024.2639,1758089022.35648,0.0,0.0,0.0,2.34913,28.13223,-0.51566,10.11,1.42,-0.07,2.0
1758089024.26431,1758089022.36648,0.0,0.0,0.0,0.34377,26.24147,-2.06265,10.11,1.42,-0.07,2.0
1758089024.26977,1758089022.37648,0.0,0.0,0.0,-1.43239,24.98096,-4.23989,10.01,1.33,-0.08,2.0
1758089024.27434,1758089022.38648,0.0,0.0,0.0,-3.95341,23.66316,-7.62034,10.01,1.33,-0.08,2.0
1758089024.27532,1758089022.39648,0.0,0.0,0.0,-5.55769,22.23076,-9.4538,9.76,1.4,0.0,2.0
1758089024.2759,1758089022.40648,0.0,0.0,0.0,-7.16197,21.37133,-10.71431,9.76,1.4,0.0,2.0
1758089024.2767,1758089022.41648,0.0,0.0,0.0,-8.88085,20.97026,-11.51645,9.67,1.45,-0.02,2.0
1758089024.27938,1758089022.42648,0.0,0.0,0.0,-11.17268,19.48057,-11.51645,9.55,1.42,0.0,2.0
1758089024.28015,1758089022.43648,0.0,0.0,0.0,-12.49048,17.93358,-10.71431,9.55,1.42,0.0,2.0
1758089024.28362,1758089022.44648,0.0,0.0,0.0,-13.69369,15.35527,-9.68299,9.36,1.31,0.15,2.0
1758089024.2844,1758089022.45648,0.0,0.0,0.0,-14.61043,12.83425,-8.65166,9.36,1.31,0.15,2.0
1758089024.28632,1758089022.46648,0.0,0.0,0.0,-15.41257,8.99544,-6.87549,9.27,1.15,0.16,2.0
1758089024.28695,1758089022.47648,0.0,0.0,0.0,-16.10011,7.16197,-6.07335,9.27,1.15,0.16,2.0
1758089024.30395,1758089022.48648,0.0,0.0,0.0,-16.67307,5.78687,-5.78687,9.34,1.04,0.08,2.0
1758089024.3068,1758089022.49648,0.0,0.0,0.0,-17.47521,5.15662,-5.21392,9.34,1.04,0.08,2.0
1758089024.32196,1758089022.50648,0.0,0.0,0.0,-18.10547,3.20856,-5.50039,9.44,1.01,-0.02,2.0
1758089024.32477,1758089022.51648,0.0,0.0,0.0,-19.07949,2.7502,-5.84417,9.55,1.04,-0.17,2.0
1758089024.38831,1758089022.52648,0.0,0.0,0.0,-20.11082,3.03668,-6.13065,9.55,1.04,-0.17,2.0
1758089024.44134,1758089022.53648,0.0,0.0,0.0,-22.00158,5.21392,-5.95876,9.79,1.07,-0.26,2.0
1758089024.44466,1758089022.54648,0.0,0.0,0.0,-23.49127,7.04738,-5.72958,9.79,1.07,-0.26,2.0
1758089024.44986,1758089022.55648,0.0,0.0,0.0,-25.09555,8.59437,-5.55769,9.96,1.08,-0.24,2.0
1758089024.45095,1758089022.56648,0.0,0.0,0.0,-26.75713,9.85487,-5.72958,9.96,1.08,-0.24,2.0
1758089024.45465,1758089022.57648,0.0,0.0,0.0,-29.33544,7.73493,-5.61499,9.87,1.12,-0.29,2.0
1758089024.45527,1758089022.58648,0.0,0.0,0.0,-30.99702,4.69825,-5.50039,9.55,1.18,-0.35,2.0
1758089024.4596,1758089022.59648,0.0,0.0,0.0,-32.6013,1.43239,-5.55769,9.55,1.18,-0.35,2.0
1758089024.46029,1758089022.60648,0.0,0.0,0.0,-33.9764,-1.48969,-5.55769,9.52,1.27,-0.42,2.0
1758089024.46114,1758089022.61648,0.0,0.0,0.0,-35.86716,-6.8182,-5.32851,9.52,1.27,-0.42,2.0
1758089024.4622,1758089022.62648,0.0,0.0,0.0,-36.6693,-11.00079,-5.27121,9.41,1.32,-0.43,2.0
1758089024.46377,1758089022.63648,0.0,0.0,0.0,-37.52874,-15.58445,-4.92744,9.41,1.32,-0.43,2.0
1758089024.46487,1758089022.64648,0.0,0.0,0.0,-37.98711,-18.10547,-4.46907,9.26,1.32,-0.52,2.0
1758089024.4664,1758089022.65648,0.0,0.0,0.0,-39.13302,-20.34,-4.23989,9.43,1.4,-0.71,2.0
1758089024.48377,1758089022.66648,0.0,0.0,0.0,-40.33623,-21.37133,-4.18259,9.43,1.4,-0.71,2.0
1758089024.48488,1758089022.67648,0.0,0.0,0.0,-41.08107,-22.63183,-3.83882,9.4,1.45,-0.82,2.0
1758089024.52932,1758089022.68648,0.0,0.0,0.0,-42.05511,-23.0329,-3.66693,9.4,1.45,-0.82,2.0
1758089024.53346,1758089022.69648,0.0,0.0,0.0,-43.31561,-22.51724,-3.49504,9.44,1.49,-0.99,2.0
1758089024.53399,1758089022.70648,0.0,0.0,0.0,-43.54479,-21.88699,-2.6929,9.44,1.49,-0.99,2.0
1758089024.53529,1758089022.71648,0.0,0.0,0.0,-44.8053,-16.55848,-1.14592,9.58,1.48,-1.01,2.0
1758089024.53884,1758089022.72648,0.0,0.0,0.0,-47.95657,-9.5684,-1.03132,9.58,1.48,-1.01,2.0
1758089024.55409,1758089022.73648,0.0,0.0,0.0,-49.38896,-11.00079,-1.77617,10.19,1.61,-1.21,2.0
1758089024.55527,1758089022.74648,0.0,0.0,0.0,-50.64947,-16.04282,-2.40642,9.15,1.76,-0.82,2.0
1758089024.57012,1758089022.75648,0.0,0.0,0.0,-52.25375,-19.25138,-3.32316,9.15,1.76,-0.82,2.0
1758089024.57367,1758089022.76648,0.0,0.0,0.0,-54.431,-16.90226,-3.72423,9.52,1.83,-0.9,2.0
1758089024.58918,1758089022.77648,0.0,0.0,0.0,-55.23313,-12.60507,-2.92208,9.52,1.83,-0.9,2.0
1758089024.60834,1758089022.78648,0.0,0.0,0.0,-55.29043,-9.11003,-1.66158,10.26,1.71,-0.46,2.0
1758089024.62044,1758089022.79648,0.0,0.0,0.0,-54.71747,-9.05273,-0.74485,10.26,1.71,-0.46,2.0
1758089024.63985,1758089022.80648,0.0,0.0,0.0,-52.13916,-16.84496,-1.43239,10.58,1.34,0.5,2.0
1758089024.64433,1758089022.81648,0.0,0.0,0.0,-49.96192,-22.05888,-3.38045,11.5,0.76,0.64,2.0
1758089024.64489,1758089022.82648,0.0,0.0,0.0,-47.32632,-25.21014,-6.24524,11.5,0.76,0.64,2.0
1758089024.64953,1758089022.83648,0.0,0.0,0.0,-44.28964,-25.89769,-9.4538,12.11,0.28,0.03,2.0
1758089024.66422,1758089022.84648,0.0,0.0,0.0,-39.82057,-25.7831,-13.17803,12.11,0.28,0.03,2.0
1758089024.66777,1758089022.85648,0.0,0.0,0.0,-37.47144,-25.21014,-14.61043,10.78,0.32,-0.27,2.0
1758089024.68424,1758089022.86648,0.0,0.0,0.0,-35.92446,-23.94964,-14.66772,10.78,0.32,-0.27,2.0
1758089024.68699,1758089022.87648,0.0,0.0,0.0,-34.77854,-21.25674,-13.69369,9.57,0.67,-0.46,2.0
1758089024.7033,1758089022.88648,0.0,0.0,0.0,-34.37747,-15.58445,-10.65701,9.72,1.02,-0.33,2.0
1758089024.7066,1758089022.89648,0.0,0.0,0.0,-34.60666,-12.77696,-8.30789,9.72,1.02,-0.33,2.0
1758089024.72333,1758089022.90648,0.0,0.0,0.0,-35.2369,-11.17268,-6.18794,10.3,1.16,-0.04,2.0
1758089024.72419,1758089022.91648,0.0,0.0,0.0,-36.38282,-11.80293,-3.32316,10.3,1.16,-0.04,2.0
1758089024.73954,1758089022.92648,0.0,0.0,0.0,-37.29956,-15.41257,-1.71887,10.39,1.05,0.12,2.0
1758089024.75553,1758089022.93648,0.0,0.0,0.0,-38.27358,-18.62113,-0.45837,10.39,1.05,0.12,2.0
1758089024.75924,1758089022.94648,0.0,0.0,0.0,-39.3622,-21.31403,0.40107,10.2,0.75,0.36,2.0
1758089024.77453,1758089022.95648,0.0,0.0,0.0,-41.36755,-23.89234,1.03132,10.2,0.75,0.36,2.0
1758089024.77717,1758089022.96648,0.0,0.0,0.0,-42.85724,-25.26744,0.97403,10.07,0.44,0.65,2.0
1758089024.79307,1758089022.97648,0.0,0.0,0.0,-44.28964,-26.41335,0.97403,9.86,0.22,0.86,2.0
1758089024.79501,1758089022.98648,0.0,0.0,0.0,-45.72203,-27.67386,0.97403,9.86,0.22,0.86,2.0
1758089024.81351,1758089022.99648,0.0,0.0,0.0,-47.72739,-28.476,1.3751,9.68,0.06,0.88,2.0
1758089024.81464,1758089023.00648,0.0,0.0,0.0,-48.9306,-26.35606,1.83346,9.68,0.06,0.88,2.0
1758089024.83275,1758089023.01648,0.0,0.0,0.0,-49.79003,-22.74642,2.46372,9.88,-0.11,0.73,2.0
1758089024.83387,1758089023.02648,0.0,0.0,0.0,-50.47758,-17.53251,3.09397,9.88,-0.11,0.73,2.0
1758089024.84937,1758089023.03648,0.0,0.0,0.0,-50.87865,-6.58902,4.18259,10.08,-0.36,0.36,2.0
1758089024.86538,1758089023.04648,0.0,0.0,0.0,-50.53488,1.48969,4.58366,10.31,-0.71,-0.27,2.0
1758089024.8674,1758089023.05648,0.0,0.0,0.0,-49.79003,9.85487,4.52637,10.31,-0.71,-0.27,2.0
1758089024.88395,1758089023.06648,0.0,0.0,0.0,-48.41494,18.22006,4.23989,10.67,-1.02,-0.79,2.0
1758089024.88516,1758089023.07648,0.0,0.0,0.0,-46.06581,28.93437,3.20856,10.67,-1.02,-0.79,2.0
1758089024.94456,1758089023.08648,0.0,0.0,0.0,-44.51882,33.80451,2.40642,10.95,-1.12,-1.12,2.0
1758089024.94655,1758089023.09648,0.0,0.0,0.0,-42.97184,37.24226,1.94806,10.95,-1.12,-1.12,2.0
1758089024.94696,1758089023.10648,0.0,0.0,0.0,-41.42485,39.76327,1.3751,11.05,-0.89,-1.15,2.0
1758089024.94982,1758089023.11648,0.0,0.0,0.0,-39.01843,42.57077,1.60428,11.0,-0.51,-1.1,2.0
1758089024.95363,1758089023.12648,0.0,0.0,0.0,-37.29956,43.25832,1.77617,11.0,-0.51,-1.1,2.0
1758089024.9548,1758089023.13648,0.0,0.0,0.0,-35.2942,43.20102,2.46372,10.76,-0.33,-0.9,2.0
1758089024.95622,1758089023.14648,0.0,0.0,0.0,-32.14294,40.7373,4.52637,10.76,-0.33,-0.9,2.0
1758089024.97467,1758089023.15648,0.0,0.0,0.0,-29.9084,37.75792,5.90147,10.36,-0.4,-0.69,2.0
1758089024.97562,1758089023.16648,0.0,0.0,0.0,-27.84575,33.17426,7.62034,10.36,-0.4,-0.69,2.0
1758089024.9928,1758089023.17648,0.0,0.0,0.0,-26.18417,28.41871,8.99544,9.76,-0.58,-0.56,2.0
1758089024.99395,1758089023.18648,0.0,0.0,0.0,-23.89234,22.11617,10.37054,9.76,-0.58,-0.37,2.0
1758089025.00953,1758089023.19648,0.0,0.0,0.0,-22.51724,19.48057,10.65701,9.37,-0.75,-0.37,2.0
1758089025.02624,1758089023.20648,0.0,0.0,0.0,-20.85567,17.24603,10.65701,9.21,-0.82,-0.21,2.0
1758089025.02783,1758089023.21648,0.0,0.0,0.0,-19.48057,14.43854,10.19865,9.21,-0.82,-0.21,2.0
1758089025.04273,1758089023.22648,0.0,0.0,0.0,-16.61578,8.99544,8.59437,8.91,-0.84,-0.32,2.0
1758089025.04607,1758089023.23648,0.0,0.0,0.0,-14.61043,6.35983,7.50575,8.91,-0.84,-0.32,2.0
1758089025.06468,1758089023.24648,0.0,0.0,0.0,-12.37589,4.1253,6.24524,9.13,-0.82,-0.45,2.0
1758089025.06662,1758089023.25648,0.0,0.0,0.0,-9.91217,1.94806,5.21392,9.13,-0.82,-0.45,2.0
1758089025.0816,1758089023.26648,0.0,0.0,0.0,-6.47442,3.49504,3.55234,9.4,-0.72,-0.68,2.0
1758089025.09907,1758089023.27648,0.0,0.0,0.0,-4.29718,8.42248,2.6929,10.06,-0.55,-0.99,2.0
1758089025.10031,1758089023.28648,0.0,0.0,0.0,-2.46372,13.46451,2.00535,10.06,-0.55,-0.99,2.0
1758089025.1174,1758089023.29648,0.0,0.0,0.0,-0.80214,17.87628,1.43239,10.04,-0.4,-1.09,2.0
1758089025.12476,1758089023.30648,0.0,0.0,0.0,1.3178,21.60051,0.97403,10.04,-0.4,-1.09,2.0
1758089025.12533,1758089023.31648,0.0,0.0,0.0,2.63561,21.31403,0.85944,9.6,-0.4,-1.06,2.0
1758089025.19864,1758089023.32648,0.0,0.0,0.0,3.83882,18.85031,0.97403,9.6,-0.4,-1.06,2.0
1758089025.1998,1758089023.33648,0.0,0.0,0.0,5.32851,16.04282,0.85944,9.23,-0.53,-0.99,2.0
1758089025.20227,1758089023.34648,0.0,0.0,0.0,6.41713,10.37054,0.97403,9.18,-0.65,-0.93,2.0
1758089025.20759,1758089023.35648,0.0,0.0,0.0,7.39116,4.1253,1.20321,9.18,-0.65,-0.93,2.0
1758089025.20868,1758089023.36648,0.0,0.0,0.0,8.25059,-4.58366,0.85944,8.65,-0.67,-0.98,2.0
1758089025.20997,1758089023.37648,0.0,0.0,0.0,8.59437,-15.75634,0.0573,8.65,-0.67,-0.98,2.0
1758089025.21237,1758089023.38648,0.0,0.0,0.0,9.91217,-18.22006,-1.03132,8.56,-0.64,-1.11,2.0
1758089025.21295,1758089023.39648,0.0,0.0,0.0,10.54242,-13.00614,-2.7502,8.56,-0.64,-1.11,2.0
1758089025.21409,1758089023.40648,0.0,0.0,0.0,11.97482,-5.90147,-3.03668,9.75,-0.71,-0.91,2.0
1758089025.22957,1758089023.41648,0.0,0.0,0.0,13.5791,-3.09397,-2.29183,10.03,-0.78,0.41,2.0
1758089025.23483,1758089023.42648,0.0,0.0,0.0,13.5218,-0.17189,-2.11994,10.03,-0.78,0.41,2.0
1758089025.25264,1758089023.43648,0.0,0.0,0.0,13.69369,-5.09932,-1.3751,11.74,-0.55,2.01,2.0
1758089025.25361,1758089023.44648,0.0,0.0,0.0,13.34992,-13.98017,1.3751,11.74,-0.55,2.01,2.0
1758089025.26948,1758089023.45648,0.0,0.0,0.0,12.71966,-35.63798,8.99544,12.67,0.48,1.06,2.0
1758089025.27462,1758089023.46648,0.0,0.0,0.0,13.06344,-44.63341,13.86558,12.67,0.48,1.06,2.0
1758089025.29271,1758089023.47648,0.0,0.0,0.0,12.43318,-48.70141,16.73037,11.75,0.87,0.29,2.0
1758089025.29526,1758089023.48648,0.0,0.0,0.0,11.80293,-47.44091,18.79302,11.75,0.87,0.29,2.0
1758089025.31408,1758089023.49648,0.0,0.0,0.0,12.08941,-39.07573,19.76705,11.48,0.54,1.1,2.0
1758089025.31606,1758089023.50648,0.0,0.0,0.0,13.23533,-30.02299,19.70975,12.65,0.35,1.41,2.0
1758089025.33407,1758089023.51648,0.0,0.0,0.0,14.72501,-19.82434,19.36597,12.65,0.35,1.41,2.0
1758089025.35517,1758089023.52648,0.0,0.0,0.0,16.67307,-13.23533,18.79302,12.58,0.4,0.71,2.0
1758089025.35675,1758089023.53648,0.0,0.0,0.0,17.58981,-14.09476,17.6471,12.58,0.4,0.71,2.0
1758089025.36181,1758089023.54648,0.0,0.0,0.0,17.24603,-14.32395,15.87093,10.32,0.56,0.72,2.0
1758089025.37933,1758089023.55648,0.0,0.0,0.0,16.90226,-10.71431,14.15206,10.32,0.56,0.72,2.0
1758089025.37984,1758089023.56648,0.0,0.0,0.0,15.06879,-6.7609,11.63104,10.07,0.8,0.41,2.0
1758089025.3823,1758089023.57648,0.0,0.0,0.0,13.17803,-5.72958,9.5684,9.47,1.35,0.35,2.0
1758089025.39813,1758089023.58648,0.0,0.0,0.0,11.63104,1.3751,7.04738,9.47,1.35,0.35,2.0
1758089025.41375,1758089023.59648,0.0,0.0,0.0,11.34457,14.78231,5.55769,10.4,1.68,-0.15,2.0
1758089025.41498,1758089023.60648,0.0,0.0,0.0,9.85487,31.74186,3.55234,10.4,1.68,-0.15,2.0
1758089025.42964,1758089023.61648,0.0,0.0,0.0,8.65166,38.84654,2.23454,10.11,1.71,-0.04,2.0
1758089025.43416,1758089023.62648,0.0,0.0,0.0,7.44845,40.04975,2.00535,10.11,1.71,-0.04,2.0
1758089025.44974,1758089023.63648,0.0,0.0,0.0,5.32851,41.25296,0.80214,9.29,1.64,0.2,2.0
1758089025.45337,1758089023.64648,0.0,0.0,0.0,1.77617,41.36755,-2.00535,9.6,1.73,-0.04,2.0
1758089025.46884,1758089023.65648,0.0,0.0,0.0,-0.40107,39.07573,-4.1253,9.6,1.73,-0.04,2.0
1758089025.48501,1758089023.66648,0.0,0.0,0.0,-2.63561,36.95578,-6.47442,9.8,1.72,0.04,2.0
1758089025.48712,1758089023.67648,0.0,0.0,0.0,-4.52637,35.2942,-8.36518,9.8,1.72,0.04,2.0
1758089025.50181,1758089023.68648,0.0,0.0,0.0,-6.24524,33.11696,-10.8862,9.87,1.4,0.0,2.0
1758089025.50495,1758089023.69648,0.0,0.0,0.0,-6.87549,30.65324,-11.86023,9.87,1.4,0.0,2.0
1758089025.52,1758089023.70648,0.0,0.0,0.0,-7.04738,27.50197,-12.37589,9.33,1.07,0.02,2.0
1758089025.52342,1758089023.71648,0.0,0.0,0.0,-6.7609,24.00693,-12.37589,9.33,1.07,0.02,2.0
1758089025.53872,1758089023.72648,0.0,0.0,0.0,-5.84417,18.90761,-11.34457,8.97,0.94,0.17,2.0
1758089025.55515,1758089023.73648,0.0,0.0,0.0,-4.87014,15.46986,-10.19865,8.9,0.88,0.3,2.0
1758089025.55685,1758089023.74648,0.0,0.0,0.0,-3.55234,11.34457,-8.42248,8.9,0.88,0.3,2.0
1758089025.57379,1758089023.75648,0.0,0.0,0.0,-1.94806,7.44845,-6.07335,8.98,0.85,0.24,2.0
1758089025.57513,1758089023.76648,0.0,0.0,0.0,-1.3178,5.09932,-4.64096,8.98,0.85,0.24,2.0
1758089025.58984,1758089023.77648,0.0,0.0,0.0,-1.08862,3.38045,-4.0107,9.19,0.78,0.05,2.0
1758089025.62387,1758089023.78648,0.0,0.0,0.0,-1.03132,2.00535,-3.49504,9.19,0.78,0.05,2.0
1758089025.62639,1758089023.79648,0.0,0.0,0.0,-2.11994,-0.11459,-3.95341,9.36,0.73,-0.09,2.0
1758089025.62798,1758089023.80648,0.0,0.0,0.0,-3.20856,-1.77617,-4.81285,9.41,0.77,-0.23,2.0
1758089025.62905,1758089023.81648,0.0,0.0,0.0,-4.23989,-2.57831,-5.4431,9.41,0.77,-0.23,2.0
1758089025.64402,1758089023.82648,0.0,0.0,0.0,-5.4431,-3.72423,-5.61499,9.45,0.86,-0.37,2.0
1758089025.64927,1758089023.83648,0.0,0.0,0.0,-7.21927,-6.13065,-5.78687,9.45,0.86,-0.37,2.0
1758089025.66397,1758089023.84648,0.0,0.0,0.0,-8.30789,-7.33386,-5.27121,9.33,0.98,-0.48,2.0
1758089025.66867,1758089023.85648,0.0,0.0,0.0,-9.22462,-7.50575,-4.81285,9.33,0.98,-0.48,2.0
1758089025.68471,1758089023.86648,0.0,0.0,0.0,-10.19865,-5.78687,-3.66693,9.39,1.04,-0.58,2.0
1758089025.71488,1758089023.87648,0.0,0.0,0.0,-11.51645,-2.34913,-1.83346,9.47,1.02,-0.53,2.0
1758089025.71895,1758089023.88648,0.0,0.0,0.0,-12.2613,-1.3178,-0.85944,9.47,1.02,-0.53,2.0
1758089025.72018,1758089023.89648,0.0,0.0,0.0,-13.00614,-0.85944,0.17189,9.24,1.03,-0.57,2.0
1758089025.72131,1758089023.90648,0.0,0.0,0.0,-13.98017,0.0573,0.68755,9.24,1.03,-0.57,2.0
1758089025.72997,1758089023.91648,0.0,0.0,0.0,-15.46986,1.71887,0.51566,9.29,1.09,-0.75,2.0
1758089025.74762,1758089023.92648,0.0,0.0,0.0,-17.01685,1.94806,0.0,9.29,1.09,-0.75,2.0
1758089025.75411,1758089023.93648,0.0,0.0,0.0,-18.73572,1.83346,-0.85944,9.39,1.25,-0.81,2.0
1758089025.75474,1758089023.94648,0.0,0.0,0.0,-21.31403,0.85944,-3.03668,9.39,1.25,-0.81,2.0
1758089025.77404,1758089023.95648,0.0,0.0,0.0,-22.86102,-4.92744,-4.64096,9.41,1.44,-0.97,2.0
1758089025.77934,1758089023.96648,0.0,0.0,0.0,-24.29341,-11.97482,-5.90147,9.12,1.57,-1.14,2.0
1758089025.79813,1758089023.97648,0.0,0.0,0.0,-25.15285,-19.76705,-6.87549,9.12,1.57,-1.14,2.0
1758089025.80421,1758089023.98648,0.0,0.0,0.0,-25.72581,-28.13223,-7.67763,9.16,1.49,-1.29,2.0
1758089025.80476,1758089023.99648,0.0,0.0,0.0,-26.06958,-31.45539,-7.73493,9.16,1.49,-1.29,2.0
1758089025.82497,1758089024.00648,0.0,0.0,0.0,-26.64254,-33.05967,-7.04738,9.71,1.39,-1.29,2.0
1758089025.8289,1758089024.01648,0.0,0.0,0.0,-27.2155,-33.05967,-6.07335,9.71,1.39,-1.29,2.0
1758089025.84394,1758089024.02648,0.0,0.0,0.0,-28.93437,-31.2262,-4.1253,10.17,1.35,-1.25,2.0
1758089025.84523,1758089024.03648,0.0,0.0,0.0,-30.59595,-29.04896,-2.34913,10.11,1.31,-1.57,2.0
1758089025.86442,1758089024.04648,0.0,0.0,0.0,-32.42941,-27.04361,-0.40107,10.11,1.31,-1.57,2.0
1758089025.86625,1758089024.05648,0.0,0.0,0.0,-34.95043,-24.29341,1.60428,9.92,1.37,-1.95,2.0
1758089025.88108,1758089024.06648,0.0,0.0,0.0,-39.4768,-18.50654,5.15662,9.92,1.37,-1.95,2.0
1758089025.88385,1758089024.07648,0.0,0.0,0.0,-42.85724,-14.38124,7.33386,9.91,1.49,-2.19,2.0
1758089025.90408,1758089024.08648,0.0,0.0,0.0,-46.46688,-12.49048,9.39651,9.91,1.49,-2.19,2.0
1758089025.90959,1758089024.09648,0.0,0.0,0.0,-48.75871,-17.81899,9.74028,9.83,1.78,-0.89,2.0
1758089025.92434,1758089024.10648,0.0,0.0,0.0,-50.13381,-22.74642,4.29718,13.54,1.91,2.33,2.0
1758089025.92531,1758089024.11648,0.0,0.0,0.0,-45.60744,-33.34615,1.48969,13.54,1.91,2.33,2.0
1758089025.94437,1758089024.12648,0.0,0.0,0.0,-46.35228,-72.30728,-13.17803,15.09,0.0,1.86,2.0
1758089025.94528,1758089024.13648,0.0,0.0,0.0,-40.62271,-82.62051,-21.37133,15.09,0.0,1.86,2.0
1758089025.96411,1758089024.14648,0.0,0.0,0.0,-33.9764,-78.38063,-27.78845,14.74,-0.5,-0.42,2.0
1758089025.96531,1758089024.15648,0.0,0.0,0.0,-29.73651,-67.37984,-26.81443,14.74,-0.5,-0.42,2.0
1758089025.98413,1758089024.16648,0.0,0.0,0.0,-25.89769,-55.51962,-22.28806,11.59,0.25,-0.05,2.0
1758089025.99187,1758089024.17648,0.0,0.0,0.0,-23.66316,-38.56006,-11.22997,11.59,0.25,-0.05,2.0
1758089025.99225,1758089024.18648,0.0,0.0,0.0,-25.89769,-31.97105,-3.66693,10.04,0.59,2.05,2.0
1758089026.00885,1758089024.19648,0.0,0.0,0.0,-29.9084,-28.01764,3.32316,9.2,0.78,2.53,2.0
1758089026.02521,1758089024.20648,0.0,0.0,0.0,-35.40879,-27.67386,8.65166,9.2,0.78,2.53,2.0
1758089026.02717,1758089024.21648,0.0,0.0,0.0,-44.748,-28.70519,13.23533,8.46,0.7,1.71,2.0
1758089026.04213,1758089024.22648,0.0,0.0,0.0,-51.16513,-24.86637,14.72501,8.46,0.7,1.71,2.0
1758089026.04571,1758089024.23648,0.0,0.0,0.0,-56.49364,-18.33465,15.29797,9.65,0.37,0.07,2.0
1758089026.15363,1758089024.24648,0.0,0.0,0.0,-60.61894,-10.02676,15.06879,9.65,0.37,0.07,2.0
1758089026.15473,1758089024.25648,0.0,0.0,0.0,-63.48372,-1.43239,13.12073,10.65,-0.34,-1.07,2.0
1758089026.15856,1758089024.26648,0.0,0.0,0.0,-62.85347,5.55769,12.08941,10.62,-0.9,-1.18,2.0
1758089026.15984,1758089024.27648,0.0,0.0,0.0,-62.16592,22.51724,10.31324,10.62,-0.9,-1.18,2.0
1758089026.16356,1758089024.28648,0.0,0.0,0.0,-62.16592,43.31561,6.70361,11.62,-0.84,-1.76,2.0
1758089026.16487,1758089024.29648,0.0,0.0,0.0,-58.67088,58.90006,4.69825,11.62,-0.84,-1.76,2.0
1758089026.16624,1758089024.30648,0.0,0.0,0.0,-55.6342,62.96807,2.92208,10.06,-0.6,-0.88,2.0
1758089026.16786,1758089024.31648,0.0,0.0,0.0,-51.6235,64.22858,2.57831,10.06,-0.6,-0.88,2.0
1758089026.16891,1758089024.32648,0.0,0.0,0.0,-47.15443,62.85347,2.86479,9.63,-0.5,-0.73,2.0
1758089026.16976,1758089024.33648,0.0,0.0,0.0,-40.45082,59.41573,4.18259,9.77,-0.88,-0.7,2.0
1758089026.17397,1758089024.34648,0.0,0.0,0.0,-36.49741,55.7488,5.4431,9.77,-0.88,-0.7,2.0
1758089026.17476,1758089024.35648,0.0,0.0,0.0,-32.71589,52.25375,6.87549,9.31,-1.1,-0.51,2.0
1758089026.17592,1758089024.36648,0.0,0.0,0.0,-27.1582,48.58683,9.5684,9.31,-1.1,-0.51,2.0
1758089026.19254,1758089024.37648,0.0,0.0,0.0,-23.66316,42.57077,11.34457,8.8,-1.08,-0.27,2.0
1758089026.19429,1758089024.38648,0.0,0.0,0.0,-20.22541,37.29956,13.00614,8.8,-1.08,-0.27,2.0
1758089026.20943,1758089024.39648,0.0,0.0,0.0,-17.01685,31.2262,14.20935,8.28,-1.04,-0.08,2.0
1758089026.2132,1758089024.40648,0.0,0.0,0.0,-12.83425,22.91831,14.61043,8.28,-1.04,-0.08,2.0
1758089026.22856,1758089024.41648,0.0,0.0,0.0,-10.48513,17.47521,13.86558,8.31,-0.99,-0.21,2.0
1758089026.24421,1758089024.42648,0.0,0.0,0.0,-8.36518,13.00614,12.77696,8.6,-0.81,-0.3,2.0
1758089026.24959,1758089024.43648,0.0,0.0,0.0,-6.87549,8.25059,11.17268,8.6,-0.81,-0.3,2.0
1758089026.26438,1758089024.44648,0.0,0.0,0.0,-5.32851,4.35448,8.47978,8.88,-0.58,-0.37,2.0
1758089026.26629,1758089024.45648,0.0,0.0,0.0,-5.15662,6.53172,6.58902,8.88,-0.58,-0.37,2.0
1758089026.28146,1758089024.46648,0.0,0.0,0.0,-5.50039,10.71431,4.23989,9.6,-0.36,-0.58,2.0
1758089026.28427,1758089024.47648,0.0,0.0,0.0,-5.78687,13.69369,2.34913,9.6,-0.36,-0.58,2.0
1758089026.30032,1758089024.48648,0.0,0.0,0.0,-6.41713,17.30333,0.34377,9.64,-0.15,-0.77,2.0
1758089026.31903,1758089024.49648,0.0,0.0,0.0,-6.24524,19.13679,-0.22918,9.66,-0.18,-1.0,2.0
1758089026.31998,1758089024.50648,0.0,0.0,0.0,-5.84417,20.05352,-0.22918,9.66,-0.18,-1.0,2.0
1758089026.34373,1758089024.51648,0.0,0.0,0.0,-4.52637,19.48057,0.57296,9.54,-0.35,-1.16,2.0
1758089026.37568,1758089024.52648,0.0,0.0,0.0,-2.11994,17.01685,2.23454,9.54,-0.35,-1.16,2.0
1758089026.37625,1758089024.53648,0.0,0.0,0.0,-0.17189,15.12609,3.72423,9.59,-0.57,-1.29,2.0
1758089026.38891,1758089024.54648,0.0,0.0,0.0,1.77617,12.49048,4.87014,9.59,-0.57,-1.29,2.0
1758089026.39489,1758089024.55648,0.0,0.0,0.0,3.49504,9.11003,5.78687,9.63,-0.73,-1.28,2.0
1758089026.40088,1758089024.56648,0.0,0.0,0.0,5.4431,2.57831,5.90147,9.49,-0.8,-1.18,2.0
1758089026.40471,1758089024.57648,0.0,0.0,0.0,6.7609,-2.29183,5.55769,9.49,-0.8,-1.18,2.0
1758089026.40992,1758089024.58648,0.0,0.0,0.0,8.59437,-6.8182,4.98473,9.45,-0.84,-1.32,2.0
1758089026.41955,1758089024.59648,0.0,0.0,0.0,12.49048,-12.14671,3.72423,9.45,-0.84,-1.32,2.0
1758089026.41991,1758089024.60648,0.0,0.0,0.0,15.64175,-12.89155,2.34913,9.81,-0.98,-1.44,2.0
1758089026.45466,1758089024.61648,0.0,0.0,0.0,19.07949,-13.06344,0.80214,9.81,-0.98,-1.44,2.0
1758089026.4579,1758089024.62648,0.0,0.0,0.0,22.63183,-14.78231,-0.85944,10.44,-1.14,-0.7,2.0
1758089026.459,1758089024.63648,0.0,0.0,0.0,28.13223,-25.15285,-2.29183,10.44,-1.14,2.3,2.0
1758089026.45974,1758089024.64648,0.0,0.0,0.0,31.45539,-34.49206,-0.34377,11.45,-1.61,2.3,2.0
1758089026.46244,1758089024.65648,0.0,0.0,0.0,33.23156,-43.14373,4.64096,14.64,-1.16,3.03,2.0
1758089026.47971,1758089024.66648,0.0,0.0,0.0,33.11696,-47.09713,10.48513,14.64,-1.16,3.03,2.0
1758089026.49655,1758089024.67648,0.0,0.0,0.0,31.11161,-51.5662,19.36597,15.55,0.55,0.64,2.0
1758089026.49984,1758089024.68648,0.0,0.0,0.0,29.10626,-51.27972,22.05888,15.55,0.55,0.64,2.0
1758089026.51629,1758089024.69648,0.0,0.0,0.0,27.2155,-46.52417,21.14215,12.61,0.72,-0.05,2.0
1758089026.51937,1758089024.70648,0.0,0.0,0.0,26.75713,-39.19032,18.56383,12.61,0.72,-0.05,2.0
1758089026.53446,1758089024.71648,0.0,0.0,0.0,29.27814,-24.98096,12.83425,11.1,-0.23,0.85,2.0
1758089026.53565,1758089024.72648,0.0,0.0,0.0,32.83048,-13.5218,9.62569,10.8,-0.82,1.86,2.0
1758089026.55241,1758089024.73648,0.0,0.0,0.0,36.84119,0.17189,7.39116,10.8,-0.82,1.86,2.0
1758089026.55331,1758089024.74648,0.0,0.0,0.0,41.13837,13.46451,6.07335,10.31,-0.67,1.99,2.0
1758089026.56932,1758089024.75648,0.0,0.0,0.0,46.46688,29.27814,5.15662,10.31,-0.67,1.99,2.0
1758089026.58664,1758089024.76648,0.0,0.0,0.0,50.47758,27.61657,4.64096,9.27,-0.13,1.38,2.0
1758089026.58914,1758089024.77648,0.0,0.0,0.0,51.16513,3.26586,4.46907,9.27,-0.13,1.38,2.0
1758089026.60469,1758089024.78648,0.0,0.0,0.0,55.6342,-22.51724,3.03668,6.64,0.42,1.08,2.0
1758089026.60734,1758089024.79648,0.0,0.0,0.0,57.86874,-11.51645,5.90147,11.23,0.67,0.19,2.0
1758089026.62263,1758089024.80648,0.0,0.0,0.0,57.92604,4.18259,5.27121,11.23,0.67,0.19,2.0
1758089026.62618,1758089024.81648,0.0,0.0,0.0,58.26981,15.75634,8.99544,12.32,1.34,-0.35,2.0
1758089026.64239,1758089024.82648,0.0,0.0,0.0,53.17049,19.48057,9.62569,12.32,1.34,-0.35,2.0
1758089026.64365,1758089024.83648,0.0,0.0,0.0,48.07116,20.45459,8.0787,9.55,1.51,0.37,2.0
1758089026.65861,1758089024.84648,0.0,0.0,0.0,42.22699,24.17882,4.81285,9.55,1.51,0.37,2.0
1758089026.67449,1758089024.85648,0.0,0.0,0.0,36.15364,29.10626,0.97403,9.14,1.87,-0.31,2.0
1758089026.67653,1758089024.86648,0.0,0.0,0.0,27.10091,32.42941,-5.32851,8.86,2.16,-0.26,2.0
1758089026.69163,1758089024.87648,0.0,0.0,0.0,21.7151,31.74186,-9.28192,8.86,2.16,-0.26,2.0
1758089026.69284,1758089024.88648,0.0,0.0,0.0,16.95955,29.33544,-12.37589,8.2,2.07,-0.1,2.0
1758089026.70863,1758089024.89648,0.0,0.0,0.0,13.46451,26.12688,-14.38124,8.2,2.07,-0.1,2.0
1758089026.72494,1758089024.90648,0.0,0.0,0.0,9.33921,20.3973,-15.75634,7.81,1.78,-0.09,2.0
1758089026.72663,1758089024.91648,0.0,0.0,0.0,7.44845,16.50119,-15.75634,7.81,1.78,-0.09,2.0
1758089026.74166,1758089024.92648,0.0,0.0,0.0,6.07335,13.12073,-14.78231,7.75,1.4,0.16,2.0
1758089026.74394,1758089024.93648,0.0,0.0,0.0,5.09932,10.25595,-13.34992,7.75,1.4,0.16,2.0
1758089026.76155,1758089024.94648,0.0,0.0,0.0,4.46907,7.16197,-10.08406,8.04,1.01,0.27,2.0
1758089026.76381,1758089024.95648,0.0,0.0,0.0,4.35448,6.24524,-8.0787,8.45,0.68,0.14,2.0
1758089026.77966,1758089024.96648,0.0,0.0,0.0,4.46907,5.84417,-6.41713,8.45,0.68,0.14,2.0
1758089026.7967,1758089024.97648,0.0,0.0,0.0,4.69825,5.4431,-4.87014,8.78,0.48,0.05,2.0
1758089026.79872,1758089024.98648,0.0,0.0,0.0,4.92744,5.27121,-4.29718,8.78,0.48,0.05,2.0
1758089026.81368,1758089024.99648,0.0,0.0,0.0,5.15662,6.87549,-4.18259,9.03,0.38,-0.22,2.0
1758089026.81493,1758089025.00648,0.0,0.0,0.0,5.32851,9.39651,-3.55234,9.03,0.38,-0.22,2.0
1758089026.82973,1758089025.01648,0.0,0.0,0.0,5.4431,9.5684,-2.40642,9.31,0.4,-0.52,2.0
1758089026.83413,1758089025.02648,0.0,0.0,0.0,5.21392,7.79223,-1.48969,9.1,0.66,-0.72,2.0
1758089026.8497,1758089025.03648,0.0,0.0,0.0,4.92744,5.50039,-0.17189,9.1,0.66,-0.72,2.0
1758089026.8533,1758089025.04648,0.0,0.0,0.0,4.46907,2.29183,0.97403,9.26,0.98,-0.83,2.0
1758089026.8698,1758089025.05648,0.0,0.0,0.0,3.60963,-3.83882,3.09397,9.26,0.98,-0.83,2.0
1758089026.87474,1758089025.06648,0.0,0.0,0.0,2.40642,-8.76626,4.0107,9.37,1.3,-0.83,2.0
1758089026.89259,1758089025.07648,0.0,0.0,0.0,0.68755,-14.03747,4.29718,9.37,1.3,-0.83,2.0
1758089026.89354,1758089025.08648,0.0,0.0,0.0,-1.60428,-19.48057,3.72423,9.5,1.71,-1.07,2.0
1758089026.90877,1758089025.09648,0.0,0.0,0.0,-5.78687,-29.8511,1.14592,9.45,2.08,-1.4,2.0
1758089026.92499,1758089025.10648,0.0,0.0,0.0,-9.05273,-37.47144,-2.29183,9.45,2.08,-1.4,2.0
1758089026.92672,1758089025.11648,0.0,0.0,0.0,-11.86023,-47.67009,-5.4431,9.16,2.3,-1.69,2.0
1758089026.94174,1758089025.12648,0.0,0.0,0.0,-16.10011,-56.83742,-9.05273,9.16,2.3,-1.69,2.0
1758089026.94459,1758089025.13648,0.0,0.0,0.0,-21.48592,-64.22858,-12.83425,9.46,2.29,-1.97,2.0
1758089026.96486,1758089025.14648,0.0,0.0,0.0,-26.69983,-61.93674,-13.69369,9.46,2.29,-1.97,2.0
1758089026.96801,1758089025.15648,0.0,0.0,0.0,-31.91375,-54.88936,-12.54778,10.66,2.12,-2.35,2.0
1758089026.98364,1758089025.16648,0.0,0.0,0.0,-37.98711,-45.03448,-10.08406,10.66,2.12,-2.35,2.0
1758089026.98568,1758089025.17648,0.0,0.0,0.0,-45.83662,-28.13223,-5.27121,12.07,2.01,-1.06,2.0
1758089027.00085,1758089025.18648,0.0,0.0,0.0,-49.27437,-19.88164,-2.92208,14.41,1.58,1.27,2.0
1758089027.0168,1758089025.19648,0.0,0.0,0.0,-51.16513,-10.71431,-2.86479,14.41,1.58,1.27,2.0
1758089027.01914,1758089025.20648,0.0,0.0,0.0,-52.25375,-43.25832,-7.84952,15.3,0.33,2.55,2.0
1758089027.03384,1758089025.21648,0.0,0.0,0.0,-49.38896,-71.50513,-12.83425,15.3,0.33,2.55,2.0
1758089027.03531,1758089025.22648,0.0,0.0,0.0,-46.69606,-78.15145,-17.13144,13.27,-0.4,2.06,2.0
1758089027.04996,1758089025.23648,0.0,0.0,0.0,-44.63341,-70.81759,-19.36597,13.27,-0.4,2.06,2.0
1758089027.06685,1758089025.24648,0.0,0.0,0.0,-44.57612,-50.82136,-20.22541,14.63,-0.01,1.26,2.0
1758089027.06969,1758089025.25648,0.0,0.0,0.0,-46.63877,-33.23156,-18.33465,12.5,0.61,2.37,2.0
1758089027.08486,1758089025.26648,0.0,0.0,0.0,-49.61814,-15.92823,-14.78231,12.5,0.61,2.37,2.0
1758089027.08684,1758089025.27648,0.0,0.0,0.0,-54.25911,-2.57831,-10.65701,10.22,0.48,1.98,2.0
1758089027.10427,1758089025.28648,0.0,0.0,0.0,-62.68159,3.03668,-3.03668,10.22,0.48,1.98,2.0
1758089027.10953,1758089025.29648,0.0,0.0,0.0,-70.18733,-5.15662,-0.80214,8.54,0.35,1.09,2.0
1758089027.12523,1758089025.30648,0.0,0.0,0.0,-75.00018,-7.96411,2.92208,8.54,0.35,1.09,2.0
1758089027.13284,1758089025.31648,0.0,0.0,0.0,-78.09415,-11.91752,4.92744,9.83,0.54,0.3,2.0
1758089027.13321,1758089025.32648,0.0,0.0,0.0,-80.61517,-8.30789,6.58902,11.29,0.17,-0.42,2.0
1758089027.14921,1758089025.33648,0.0,0.0,0.0,-81.18813,1.08862,6.99009,11.29,0.17,-0.42,2.0
1758089027.16495,1758089025.34648,0.0,0.0,0.0,-82.56322,24.86637,6.7609,12.2,-0.28,-1.62,2.0
1758089027.16851,1758089025.35648,0.0,0.0,0.0,-83.53725,50.1911,4.35448,12.2,-0.28,-1.62,2.0
1758089027.20909,1758089025.36648,0.0,0.0,0.0,-80.90164,65.43179,3.60963,10.64,-0.43,-0.9,2.0
1758089027.21483,1758089025.37648,0.0,0.0,0.0,-77.06283,64.74423,3.49504,10.64,-0.43,-0.9,2.0
1758089027.26693,1758089025.38648,0.0,0.0,0.0,-72.0208,62.28051,3.49504,7.77,-0.75,0.06,2.0
1758089027.26892,1758089025.39648,0.0,0.0,0.0,-66.06203,61.24919,5.32851,7.77,-0.75,0.06,2.0
1758089027.26958,1758089025.40648,0.0,0.0,0.0,-56.78012,58.15522,7.21927,8.07,-1.77,-0.2,2.0
1758089027.27399,1758089025.41648,0.0,0.0,0.0,-50.82136,55.57691,8.99544,8.12,-2.58,-0.24,2.0
1758089027.27502,1758089025.42648,0.0,0.0,0.0,-44.63341,52.76942,10.71431,8.12,-2.58,-0.24,2.0
1758089027.27537,1758089025.43648,0.0,0.0,0.0,-35.92446,45.49285,12.83425,7.95,-2.49,-0.15,2.0
1758089027.27961,1758089025.44648,0.0,0.0,0.0,-30.65324,40.68,13.5218,7.95,-2.49,-0.15,2.0
1758089027.28043,1758089025.45648,0.0,0.0,0.0,-25.7831,35.2942,13.86558,7.68,-1.93,-0.06,2.0
1758089027.28414,1758089025.46648,0.0,0.0,0.0,-21.88699,28.93437,13.46451,7.68,-1.93,-0.06,2.0
1758089027.28472,1758089025.47648,0.0,0.0,0.0,-17.24603,20.51189,11.74564,7.78,-1.26,0.08,2.0
1758089027.30173,1758089025.48648,0.0,0.0,0.0,-15.06879,15.41257,10.31324,8.53,-0.7,0.21,2.0
1758089027.35555,1758089025.49648,0.0,0.0,0.0,-13.46451,11.00079,8.59437,8.53,-0.7,0.21,2.0
1758089027.35619,1758089025.50648,0.0,0.0,0.0,-12.49048,6.47442,6.87549,9.08,-0.37,0.14,2.0
1758089027.35904,1758089025.51648,0.0,0.0,0.0,-11.63104,2.11994,4.98473,9.08,-0.37,0.14,2.0
1758089027.35964,1758089025.52648,0.0,0.0,0.0,-11.63104,2.86479,4.35448,9.4,-0.31,-0.19,2.0
1758089027.36091,1758089025.53648,0.0,0.0,0.0,-12.14671,6.41713,3.95341,9.4,-0.31,-0.19,2.0
1758089027.36393,1758089025.54648,0.0,0.0,0.0,-12.54778,10.25595,3.38045,9.85,-0.38,-0.44,2.0
1758089027.36471,1758089025.55648,0.0,0.0,0.0,-12.77696,13.23533,1.77617,9.55,-0.5,-0.62,2.0
1758089027.38209,1758089025.56648,0.0,0.0,0.0,-12.14671,13.5218,0.57296,9.55,-0.5,-0.62,2.0
1758089027.38411,1758089025.57648,0.0,0.0,0.0,-11.00079,13.00614,-0.34377,9.35,-0.63,-0.84,2.0
1758089027.40012,1758089025.58648,0.0,0.0,0.0,-8.99544,11.57375,-1.03132,9.35,-0.63,-0.84,2.0
1758089027.41709,1758089025.59648,0.0,0.0,0.0,-4.87014,6.24524,-0.74485,9.27,-0.72,-1.08,2.0
1758089027.41832,1758089025.60648,0.0,0.0,0.0,-1.48969,-0.17189,-0.0573,9.27,-0.72,-1.08,2.0
1758089027.43401,1758089025.61648,0.0,0.0,0.0,1.83346,-11.22997,0.85944,8.9,-0.71,-1.12,2.0
1758089027.43527,1758089025.62648,0.0,0.0,0.0,5.78687,-30.88243,1.3751,8.9,-0.71,-1.12,2.0
1758089027.45014,1758089025.63648,0.0,0.0,0.0,8.99544,-36.15364,0.85944,8.33,-0.67,-1.42,2.0
1758089027.45372,1758089025.64648,0.0,0.0,0.0,11.86023,-33.9764,0.51566,9.95,-0.94,-1.52,2.0
1758089027.46942,1758089025.65648,0.0,0.0,0.0,15.29797,-30.93972,1.3751,9.95,-0.94,-1.52,2.0
1758089027.48702,1758089025.66648,0.0,0.0,0.0,19.53786,-29.56462,2.34913,10.79,-1.21,-1.28,2.0
1758089027.49303,1758089025.67648,0.0,0.0,0.0,22.23076,-31.91375,2.00535,10.79,-1.21,-1.28,2.0
1758089027.49347,1758089025.68648,0.0,0.0,0.0,25.55392,-36.84119,0.97403,10.59,-1.39,-1.51,2.0
1758089027.50922,1758089025.69648,0.0,0.0,0.0,29.9084,-41.94051,-1.3751,10.59,-1.39,-1.51,2.0
1758089027.52638,1758089025.70648,0.0,0.0,0.0,37.64333,-39.01843,-5.21392,10.15,-1.37,-2.08,2.0
1758089027.53365,1758089025.71648,0.0,0.0,0.0,41.71133,-27.44468,-8.65166,11.94,-1.37,-0.31,2.0
1758089027.5342,1758089025.72648,0.0,0.0,0.0,46.00851,-20.45459,-9.39651,11.94,-1.37,-0.31,2.0
1758089027.57608,1758089025.73648,0.0,0.0,0.0,49.27437,-27.96034,-8.0787,12.29,-1.4,2.47,2.0
1758089027.57973,1758089025.74648,0.0,0.0,0.0,50.2484,-59.53032,-4.29718,12.29,-1.4,2.47,2.0
1758089027.58113,1758089025.75648,0.0,0.0,0.0,49.79003,-69.90086,2.06265,12.94,-1.13,3.66,2.0
1758089027.58477,1758089025.76648,0.0,0.0,0.0,48.70141,-66.06203,8.65166,12.94,-1.13,3.66,2.0
1758089027.58643,1758089025.77648,0.0,0.0,0.0,48.52953,-59.24384,15.12609,16.36,0.27,1.64,2.0
1758089027.60407,1758089025.78648,0.0,0.0,0.0,46.06581,-43.77398,20.74107,12.73,0.85,1.18,2.0
1758089027.60525,1758089025.79648,0.0,0.0,0.0,46.81066,-30.13758,23.26209,12.73,0.85,1.18,2.0
1758089027.62991,1758089025.80648,0.0,0.0,0.0,48.75871,-30.13758,23.89234,8.81,0.28,1.34,2.0
1758089027.63502,1758089025.81648,0.0,0.0,0.0,51.85268,-40.96649,24.12152,8.81,0.28,1.34,2.0
1758089027.63563,1758089025.82648,0.0,0.0,0.0,55.6342,-42.1124,21.31403,7.29,-0.08,1.86,2.0
1758089027.6521,1758089025.83648,0.0,0.0,0.0,60.33246,-20.62648,20.16812,7.29,-0.08,1.86,2.0
1758089027.65418,1758089025.84648,0.0,0.0,0.0,62.62429,2.46372,16.04282,12.41,-0.14,-0.33,2.0
1758089027.71623,1758089025.85648,0.0,0.0,0.0,62.68159,21.60051,12.08941,12.41,-0.14,-0.33,2.0
1758089027.71968,1758089025.86648,0.0,0.0,0.0,59.64491,26.52795,8.59437,12.54,1.1,-0.55,2.0
1758089027.72348,1758089025.87648,0.0,0.0,0.0,54.60288,31.39809,4.1253,10.88,1.71,-0.12,2.0
1758089027.72468,1758089025.88648,0.0,0.0,0.0,48.01387,37.35685,-1.3178,10.88,1.71,-0.12,2.0
1758089027.72531,1758089025.89648,0.0,0.0,0.0,36.95578,45.72203,-8.42248,10.2,2.0,-0.33,2.0
1758089027.73247,1758089025.90648,0.0,0.0,0.0,29.33544,49.96192,-12.54778,10.2,2.0,-0.33,2.0
1758089027.73359,1758089025.91648,0.0,0.0,0.0,21.88699,53.39967,-15.58445,9.36,2.08,-0.39,2.0
1758089027.73431,1758089025.92648,0.0,0.0,0.0,14.83961,53.62885,-17.53251,9.36,2.08,-0.39,2.0
1758089027.75433,1758089025.93648,0.0,0.0,0.0,6.24524,50.99325,-18.16276,8.51,1.98,-0.37,2.0
1758089027.75877,1758089025.94648,0.0,0.0,0.0,1.48969,47.89928,-17.47521,8.01,1.97,-0.3,2.0
1758089027.77435,1758089025.95648,0.0,0.0,0.0,-2.6929,43.88857,-15.98552,8.01,1.97,-0.3,2.0
1758089027.77585,1758089025.96648,0.0,0.0,0.0,-5.90147,39.70598,-13.80828,8.03,2.02,-0.18,2.0
1758089027.79434,1758089025.97648,0.0,0.0,0.0,-9.62569,34.0337,-10.19865,8.03,2.02,-0.18,2.0
1758089027.79553,1758089025.98648,0.0,0.0,0.0,-11.34457,30.13758,-7.33386,8.38,1.86,-0.23,2.0
1758089027.81347,1758089025.99648,0.0,0.0,0.0,-12.77696,26.98631,-4.92744,8.38,1.86,-0.23,2.0
1758089027.81473,1758089026.00648,0.0,0.0,0.0,-13.86558,23.20479,-2.6929,8.53,1.45,-0.27,2.0
1758089027.83306,1758089026.01648,0.0,0.0,0.0,-15.06879,15.75634,-2.00535,8.36,0.94,-0.26,2.0
1758089027.83403,1758089026.02648,0.0,0.0,0.0,-15.41257,10.48513,-1.83346,8.36,0.94,-0.26,2.0
1758089027.8494,1758089026.03648,0.0,0.0,0.0,-15.75634,5.32851,-2.34913,8.34,0.48,-0.3,2.0
1758089027.85364,1758089026.04648,0.0,0.0,0.0,-16.04282,0.34377,-3.03668,8.34,0.48,-0.3,2.0
1758089027.86967,1758089026.05648,0.0,0.0,0.0,-16.272,-1.94806,-2.92208,8.55,0.11,-0.53,2.0
1758089027.87386,1758089026.06648,0.0,0.0,0.0,-16.272,-4.35448,-2.7502,8.55,0.11,-0.53,2.0
1758089027.88951,1758089026.07648,0.0,0.0,0.0,-16.38659,-7.10468,-2.34913,8.44,-0.04,-0.71,2.0
1758089027.8937,1758089026.08648,0.0,0.0,0.0,-16.55848,-11.17268,-1.94806,8.44,-0.04,-0.84,2.0
1758089027.90974,1758089026.09648,0.0,0.0,0.0,-17.13144,-14.78231,-1.66158,8.35,0.06,-0.84,2.0
1758089027.91381,1758089026.10648,0.0,0.0,0.0,-17.87628,-19.53786,-1.60428,8.36,0.39,-1.01,2.0
1758089027.92951,1758089026.11648,0.0,0.0,0.0,-18.90761,-25.72581,-2.06265,8.36,0.39,-1.01,2.0
1758089027.93366,1758089026.12648,0.0,0.0,0.0,-20.3973,-38.1017,-3.26586,8.49,0.83,-1.23,2.0
1758089027.94954,1758089026.13648,0.0,0.0,0.0,-21.48592,-46.69606,-4.29718,8.49,0.83,-1.23,2.0
1758089027.95382,1758089026.14648,0.0,0.0,0.0,-22.05888,-54.88936,-5.09932,8.83,1.27,-1.47,2.0
1758089027.96986,1758089026.15648,0.0,0.0,0.0,-23.0902,-61.30648,-6.58902,8.83,1.27,-1.47,2.0
1758089027.97396,1758089026.16648,0.0,0.0,0.0,-25.8404,-64.85883,-8.30789,9.49,1.64,-1.62,2.0
1758089027.98964,1758089026.17648,0.0,0.0,0.0,-27.78845,-57.29578,-8.88085,11.04,1.88,-1.76,2.0
1758089027.99454,1758089026.18648,0.0,0.0,0.0,-28.99167,-45.43555,-8.42248,11.04,1.88,-1.76,2.0
1758089028.00961,1758089026.19648,0.0,0.0,0.0,-31.16891,-40.39353,-8.25059,11.66,1.72,-2.29,2.0
1758089028.01452,1758089026.20648,0.0,0.0,0.0,-33.34615,-41.42485,-8.59437,11.66,1.72,-2.29,2.0
1758089028.02966,1758089026.21648,0.0,0.0,0.0,-34.32018,-40.10705,-9.39651,10.82,1.55,-2.64,2.0
1758089028.03381,1758089026.22648,0.0,0.0,0.0,-35.63798,-36.03905,-10.25595,10.82,1.55,-2.64,2.0
1758089028.04891,1758089026.23648,0.0,0.0,0.0,-35.75257,-24.5226,-10.19865,11.37,1.25,-3.43,2.0
1758089028.06457,1758089026.24648,0.0,0.0,0.0,-35.63798,-5.84417,-8.136,11.86,1.15,-2.82,2.0
1758089028.09359,1758089026.25648,0.0,0.0,0.0,-34.0337,2.7502,-4.64096,11.86,1.15,-2.82,2.0
1758089028.09413,1758089026.26648,0.0,0.0,0.0,-31.56997,7.79223,-1.03132,11.89,0.84,-0.94,2.0
1758089028.09793,1758089026.27648,0.0,0.0,0.0,-24.92367,6.53172,1.60428,11.89,0.84,-0.94,2.0
1758089028.09834,1758089026.28648,0.0,0.0,0.0,-19.76705,-1.94806,-0.17189,13.29,0.0,0.38,2.0
1758089028.11459,1758089026.29648,0.0,0.0,0.0,-16.10011,-13.06344,-5.09932,13.29,0.0,0.38,2.0
1758089028.11659,1758089026.30648,0.0,0.0,0.0,-11.51645,-17.58981,-10.19865,14.89,-0.84,0.86,2.0
1758089028.13152,1758089026.31648,0.0,0.0,0.0,-4.92744,-13.86558,-16.50119,14.82,-0.84,0.35,2.0
1758089028.13443,1758089026.32648,0.0,0.0,0.0,-1.3751,-7.44845,-16.84496,14.82,-0.69,0.35,2.0
1758089028.1497,1758089026.33648,0.0,0.0,0.0,0.74485,-4.1253,-14.9542,11.45,0.47,1.29,2.0
1758089028.15328,1758089026.34648,0.0,0.0,0.0,1.03132,-2.06265,-11.80293,11.45,0.47,1.29,2.0
1758089028.16946,1758089026.35648,0.0,0.0,0.0,-2.57831,1.3178,-5.21392,9.63,1.2,2.85,2.0
1758089028.17466,1758089026.36648,0.0,0.0,0.0,-7.39116,0.45837,-1.08862,9.63,1.2,2.85,2.0
1758089028.19068,1758089026.37648,0.0,0.0,0.0,-13.34992,-3.09397,2.29183,8.61,1.38,3.18,2.0
1758089028.19353,1758089026.38648,0.0,0.0,0.0,-20.3973,-7.73493,4.58366,8.61,1.38,3.18,2.0
1758089028.20997,1758089026.39648,0.0,0.0,0.0,-31.39809,-12.204,5.95876,8.31,1.32,1.79,2.0
1758089028.21407,1758089026.40648,0.0,0.0,0.0,-37.52874,-14.32395,6.24524,9.66,0.91,0.3,2.0
1758089028.23002,1758089026.41648,0.0,0.0,0.0,-42.51347,-13.06344,6.47442,9.66,0.91,0.3,2.0
1758089028.24568,1758089026.42648,0.0,0.0,0.0,-46.98254,0.11459,5.09932,11.91,0.31,-0.43,2.0
1758089028.24769,1758089026.43648,0.0,0.0,0.0,-51.73809,30.48136,2.57831,11.91,0.31,-0.43,2.0
1758089028.26373,1758089026.44648,0.0,0.0,0.0,-52.71212,35.12231,2.00535,12.24,-0.18,-1.09,2.0
1758089028.26519,1758089026.45648,0.0,0.0,0.0,-51.6235,38.27358,0.17189,12.24,-0.18,-1.09,2.0
1758089028.27999,1758089026.46648,0.0,0.0,0.0,-47.09713,42.1124,-0.34377,9.52,-0.4,-0.32,2.0
1758089028.29578,1758089026.47648,0.0,0.0,0.0,-42.68536,46.52417,0.80214,9.59,-0.7,-0.67,2.0
1758089028.29695,1758089026.48648,0.0,0.0,0.0,-37.75792,51.10783,2.86479,9.59,-0.7,-0.67,2.0
1758089028.31283,1758089026.49648,0.0,0.0,0.0,-32.42941,53.80074,5.09932,9.37,-1.34,-0.72,2.0
1758089028.31377,1758089026.50648,0.0,0.0,0.0,-24.63719,54.88936,8.0787,9.37,-1.34,-0.72,2.0
1758089028.32878,1758089026.51648,0.0,0.0,0.0,-20.16812,53.17049,9.5684,8.59,-1.66,-0.69,2.0
1758089028.34514,1758089026.52648,0.0,0.0,0.0,-16.50119,50.53488,10.65701,8.59,-1.66,-0.69,2.0
1758089028.35313,1758089026.53648,0.0,0.0,0.0,-13.5218,47.72739,11.28727,8.07,-1.52,-0.63,2.0
1758089028.35379,1758089026.54648,0.0,0.0,0.0,-10.48513,40.27893,11.51645,7.78,-1.14,-0.39,2.0
1758089028.36998,1758089026.55648,0.0,0.0,0.0,-9.11003,35.00772,11.17268,7.78,-1.14,-0.39,2.0
1758089028.37421,1758089026.56648,0.0,0.0,0.0,-8.42248,28.70519,10.71431,7.83,-0.86,-0.28,2.0
1758089028.39003,1758089026.57648,0.0,0.0,0.0,-7.84952,23.60586,10.31324,7.83,-0.86,-0.28,2.0
1758089028.39498,1758089026.58648,0.0,0.0,0.0,-7.67763,17.6471,9.4538,8.41,-0.65,-0.3,2.0
1758089028.41264,1758089026.59648,0.0,0.0,0.0,-7.39116,13.5791,8.93814,8.41,-0.65,-0.3,2.0
1758089028.41365,1758089026.60648,0.0,0.0,0.0,-6.7609,9.33921,8.47978,8.9,-0.44,-0.31,2.0
1758089028.43,1758089026.61648,0.0,0.0,0.0,-6.13065,4.98473,8.02141,8.9,-0.44,-0.31,2.0
1758089028.43341,1758089026.62648,0.0,0.0,0.0,-4.58366,3.66693,8.136,9.24,-0.29,-0.56,2.0
1758089028.44872,1758089026.63648,0.0,0.0,0.0,-3.38045,6.24524,8.25059,9.84,-0.2,-0.85,2.0
1758089028.46515,1758089026.64648,0.0,0.0,0.0,-2.57831,8.70896,7.73493,9.84,-0.2,-0.85,2.0
1758089028.47401,1758089026.65648,0.0,0.0,0.0,-1.14592,8.93814,6.99009,9.54,-0.17,-0.79,2.0
1758089028.47466,1758089026.66648,0.0,0.0,0.0,0.17189,7.16197,6.13065,9.54,-0.17,-0.79,2.0
1758089028.49172,1758089026.67648,0.0,0.0,0.0,1.83346,3.89611,5.32851,8.95,-0.26,-0.93,2.0
1758089028.49457,1758089026.68648,0.0,0.0,0.0,4.1253,-1.77617,4.87014,8.95,-0.26,-0.93,2.0
1758089028.50994,1758089026.69648,0.0,0.0,0.0,7.84952,-15.46986,4.29718,8.54,-0.45,-1.23,2.0
1758089028.51353,1758089026.70648,0.0,0.0,0.0,10.08406,-24.92367,4.35448,8.41,-0.66,-1.46,2.0
1758089028.52969,1758089026.71648,0.0,0.0,0.0,12.14671,-30.82513,3.32316,8.41,-0.66,-1.46,2.0
1758089028.5349,1758089026.72648,0.0,0.0,0.0,14.78231,-30.93972,3.32316,9.75,-0.96,-1.52,2.0
1758089028.5527,1758089026.73648,0.0,0.0,0.0,18.90761,-23.49127,5.21392,9.75,-0.96,-1.52,2.0
1758089028.55472,1758089026.74648,0.0,0.0,0.0,20.34,-15.98552,5.61499,11.23,-1.21,-1.44,2.0
1758089028.56983,1758089026.75648,0.0,0.0,0.0,20.74107,-10.54242,5.90147,11.23,-1.21,-1.44,2.0
1758089028.57345,1758089026.76648,0.0,0.0,0.0,20.11082,-10.59972,5.90147,11.38,-0.84,-1.54,2.0
1758089028.58896,1758089026.77648,0.0,0.0,0.0,18.62113,-15.75634,4.29718,10.51,-0.4,-1.89,2.0
1758089028.60495,1758089026.78648,0.0,0.0,0.0,18.85031,-20.68378,2.6929,10.51,-0.4,-1.89,2.0
1758089028.60773,1758089026.79648,0.0,0.0,0.0,20.51189,-32.42941,0.34377,9.66,-0.16,-2.33,2.0
1758089028.62296,1758089026.80648,0.0,0.0,0.0,22.28806,-41.71133,-2.29183,9.66,-0.16,-2.33,2.0
1758089028.62418,1758089026.81648,0.0,0.0,0.0,26.01229,-42.74266,-6.07335,10.3,-0.39,-0.87,2.0
1758089028.63924,1758089026.82648,0.0,0.0,0.0,27.61657,-43.65939,-7.67763,10.3,-0.39,-0.87,2.0
1758089028.65502,1758089026.83648,0.0,0.0,0.0,28.41871,-46.69606,-7.62034,12.77,-0.95,1.89,2.0
1758089028.65617,1758089026.84648,0.0,0.0,0.0,28.13223,-54.66018,-2.97938,12.77,-0.95,1.89,2.0
1758089028.67206,1758089026.85648,0.0,0.0,0.0,28.64789,-68.23928,3.66693,14.75,-0.98,2.85,2.0
1758089028.67297,1758089026.86648,0.0,0.0,0.0,27.73116,-62.05133,10.37054,16.44,-0.41,1.41,2.0
1758089028.68794,1758089026.87648,0.0,0.0,0.0,26.52795,-46.1804,15.58445,16.44,-0.41,1.41,2.0
1758089028.70405,1758089026.88648,0.0,0.0,0.0,25.21014,-29.22085,20.3973,13.82,0.22,0.89,2.0
1758089028.7052,1758089026.89648,0.0,0.0,0.0,25.09555,-22.97561,21.08485,13.82,0.22,0.89,2.0
1758089028.72005,1758089026.90648,0.0,0.0,0.0,26.06958,-16.10011,20.11082,8.89,0.28,1.91,2.0
1758089028.72371,1758089026.91648,0.0,0.0,0.0,27.84575,-6.53172,17.6471,8.89,0.28,1.91,2.0
1758089028.7393,1758089026.92648,0.0,0.0,0.0,30.53865,7.04738,12.54778,8.11,0.11,1.53,2.0
1758089028.75507,1758089026.93648,0.0,0.0,0.0,32.08564,11.28727,9.05273,8.4,0.12,0.85,2.0
1758089028.75858,1758089026.94648,0.0,0.0,0.0,31.91375,11.28727,5.32851,8.4,0.12,0.85,2.0
1758089028.77431,1758089026.95648,0.0,0.0,0.0,30.59595,12.77696,1.60428,9.49,0.5,0.34,2.0
1758089028.77555,1758089026.96648,0.0,0.0,0.0,29.73651,38.38818,-2.92208,9.49,0.5,0.34,2.0
1758089028.79246,1758089026.97648,0.0,0.0,0.0,27.84575,53.91533,-4.0107,12.42,0.93,-0.9,2.0
1758089028.79487,1758089026.98648,0.0,0.0,0.0,24.80907,63.59832,-3.72423,12.42,0.93,-0.9,2.0
1758089028.81328,1758089026.99648,0.0,0.0,0.0,21.02755,63.54102,-2.6929,10.93,1.19,-0.33,2.0
1758089028.81451,1758089027.00648,0.0,0.0,0.0,13.80828,60.04598,-2.92208,9.24,1.18,-0.01,2.0
1758089028.83336,1758089027.01648,0.0,0.0,0.0,9.28192,61.59297,-3.72423,9.24,1.18,-0.01,2.0
1758089028.83448,1758089027.02648,0.0,0.0,0.0,3.95341,62.33781,-5.90147,9.13,1.43,-0.1,2.0
1758089028.85407,1758089027.03648,0.0,0.0,0.0,-1.3178,60.10328,-8.0787,9.13,1.43,-0.1,2.0
1758089028.85786,1758089027.04648,0.0,0.0,0.0,-9.4538,51.10783,-11.91752,8.08,1.84,0.24,2.0
1758089028.92468,1758089027.05648,0.0,0.0,0.0,-14.49583,43.54479,-14.32395,8.08,1.84,0.24,2.0
1758089028.92988,1758089027.06648,0.0,0.0,0.0,-18.9649,35.00772,-16.04282,7.4,2.23,0.22,2.0
1758089028.93444,1758089027.07648,0.0,0.0,0.0,-24.98096,21.25674,-17.99088,7.4,2.23,0.22,2.0
1758089028.93885,1758089027.08648,0.0,0.0,0.0,-27.96034,11.86023,-18.9649,7.08,2.33,0.31,2.0
1758089028.93951,1758089027.09648,0.0,0.0,0.0,-30.19488,3.89611,-19.76705,7.24,1.97,0.41,2.0
1758089028.94152,1758089027.10648,0.0,0.0,0.0,-31.97105,-3.55234,-19.82434,7.24,1.97,0.41,2.0
1758089028.94369,1758089027.11648,0.0,0.0,0.0,-33.68992,-13.5218,-18.73572,7.97,1.29,0.33,2.0
1758089028.94435,1758089027.12648,0.0,0.0,0.0,-34.49206,-17.6471,-17.58981,7.97,1.29,0.33,2.0
1758089028.94973,1758089027.13648,0.0,0.0,0.0,-35.06502,-18.73572,-16.04282,9.28,0.52,-0.04,2.0
1758089028.95482,1758089027.14648,0.0,0.0,0.0,-35.52338,-17.36062,-14.43854,9.28,0.52,-0.04,2.0
1758089028.97442,1758089027.15648,0.0,0.0,0.0,-35.63798,-13.40721,-12.204,10.45,-0.15,-0.54,2.0
1758089028.97559,1758089027.16648,0.0,0.0,0.0,-35.52338,-12.14671,-11.17268,10.67,-0.57,-0.82,2.0
1758089028.9947,1758089027.17648,0.0,0.0,0.0,-35.2369,-12.2613,-10.37054,10.67,-0.57,-0.82,2.0
1758089028.99644,1758089027.18648,0.0,0.0,0.0,-34.60666,-15.69904,-9.68299,10.0,-0.51,-1.2,2.0
1758089029.01229,1758089027.19648,0.0,0.0,0.0,-33.34615,-24.12152,-8.02141,10.0,-0.51,-1.2,2.0
1758089029.01921,1758089027.20648,0.0,0.0,0.0,-31.62727,-27.96034,-7.10468,9.13,-0.22,-1.62,2.0
1758089029.03426,1758089027.21648,0.0,0.0,0.0,-30.65324,-30.93972,-5.84417,9.13,-0.22,-1.62,2.0
1758089029.03866,1758089027.22648,0.0,0.0,0.0,-29.62192,-34.0337,-4.87014,8.9,0.13,-1.83,2.0
1758089029.0543,1758089027.23648,0.0,0.0,0.0,-28.93437,-37.75792,-3.72423,8.79,0.53,-1.56,2.0
1758089029.05651,1758089027.24648,0.0,0.0,0.0,-28.87707,-36.55471,-2.11994,8.79,0.53,-1.56,2.0
1758089029.07305,1758089027.25648,0.0,0.0,0.0,-29.96569,-25.8404,-3.03668,10.04,0.93,-1.74,2.0
1758089029.07422,1758089027.26648,0.0,0.0,0.0,-29.56462,-6.35983,-2.97938,10.04,0.93,-1.74,2.0
1758089029.08959,1758089027.27648,0.0,0.0,0.0,-29.39274,-7.16197,-2.11994,10.85,1.1,-1.68,2.0
1758089029.10939,1758089027.28648,0.0,0.0,0.0,-30.48136,-20.68378,-4.1253,10.85,1.1,-1.68,2.0
1758089029.11453,1758089027.29648,0.0,0.0,0.0,-30.13758,-30.13758,-5.50039,8.61,1.4,-1.45,2.0
1758089029.11511,1758089027.30648,0.0,0.0,0.0,-29.62192,-35.75257,-8.76626,8.61,1.4,-1.45,2.0
1758089029.13219,1758089027.31648,0.0,0.0,0.0,-28.36141,-29.50733,-9.62569,10.23,1.16,-2.69,2.0
1758089029.13495,1758089027.32648,0.0,0.0,0.0,-26.98631,-20.45459,-8.42248,11.49,0.52,-2.71,2.0
1758089029.15461,1758089027.33648,0.0,0.0,0.0,-24.92367,-13.12073,-5.90147,11.49,0.52,-2.71,2.0
1758089029.15908,1758089027.34648,0.0,0.0,0.0,-20.97026,-6.13065,-0.22918,10.51,0.0,-1.73,2.0
1758089029.1744,1758089027.35648,0.0,0.0,0.0,-17.24603,-3.49504,3.72423,10.51,0.0,-1.73,2.0
1758089029.17794,1758089027.36648,0.0,0.0,0.0,-12.60507,-3.09397,6.53172,10.93,-0.58,-0.5,2.0
1758089029.19527,1758089027.37648,0.0,0.0,0.0,-7.10468,-9.33921,6.53172,10.93,-0.58,-0.5,2.0
1758089029.22229,1758089027.38648,0.0,0.0,0.0,1.03132,-31.28349,1.20321,12.85,-1.11,1.1,2.0
1758089029.22526,1758089027.39648,0.0,0.0,0.0,4.64096,-48.35764,-6.13065,13.61,-0.88,1.45,2.0
1758089029.23402,1758089027.40648,0.0,0.0,0.0,8.88085,-52.25375,-13.06344,13.61,-0.88,1.45,2.0
1758089029.2343,1758089027.41648,0.0,0.0,0.0,11.45916,-50.1911,-17.87628,14.02,0.19,1.15,2.0
1758089029.23554,1758089027.42648,0.0,0.0,0.0,12.43318,-39.82057,-20.22541,14.02,0.19,1.15,2.0
1758089029.2523,1758089027.43648,0.0,0.0,0.0,10.65701,-33.34615,-19.36597,11.1,1.51,2.03,2.0
1758089029.25324,1758089027.44648,0.0,0.0,0.0,6.70361,-27.04361,-17.36062,11.1,1.51,2.03,2.0
1758089029.26846,1758089027.45648,0.0,0.0,0.0,1.14592,-18.73572,-13.5791,8.85,2.28,2.91,2.0
1758089029.28469,1758089027.46648,0.0,0.0,0.0,-10.59972,-9.33921,-6.99009,8.15,2.72,1.93,2.0
1758089029.2897,1758089027.47648,0.0,0.0,0.0,-19.42327,-3.32316,-2.40642,8.15,2.72,1.93,2.0
1758089029.30471,1758089027.48648,0.0,0.0,0.0,-28.24682,2.86479,1.66158,9.28,2.63,0.14,2.0
1758089029.30972,1758089027.49648,0.0,0.0,0.0,-39.70598,14.20935,5.95876,9.28,2.63,0.14,2.0
1758089029.32446,1758089027.50648,0.0,0.0,0.0,-45.20637,22.97561,7.79223,11.46,1.84,-0.58,2.0
1758089029.32642,1758089027.51648,0.0,0.0,0.0,-48.35764,31.51268,8.59437,11.46,1.84,-0.58,2.0
1758089029.34135,1758089027.52648,0.0,0.0,0.0,-50.363,38.90384,7.50575,12.57,0.42,-0.56,2.0
1758089029.34338,1758089027.53648,0.0,0.0,0.0,-48.8733,44.9199,6.87549,12.57,0.42,-0.81,2.0
1758089029.35977,1758089027.54648,0.0,0.0,0.0,-47.61279,51.79538,4.98473,12.06,-1.09,-0.81,2.0
1758089029.37628,1758089027.55648,0.0,0.0,0.0,-46.98254,55.34772,3.55234,11.41,-1.52,-0.97,2.0
1758089029.37908,1758089027.56648,0.0,0.0,0.0,-45.77933,56.66553,2.97938,11.41,-1.52,-0.97,2.0
1758089029.39448,1758089027.57648,0.0,0.0,0.0,-43.94586,56.32175,3.38045,10.01,-1.35,-0.44,2.0
1758089029.39566,1758089027.58648,0.0,0.0,0.0,-39.82057,54.3164,5.61499,10.01,-1.35,-0.44,2.0
1758089029.42946,1758089027.59648,0.0,0.0,0.0,-34.32018,51.79538,8.25059,8.81,-0.93,0.07,2.0
1758089029.43459,1758089027.60648,0.0,0.0,0.0,-28.59059,49.21708,10.8862,8.81,-0.93,0.07,2.0
1758089029.43939,1758089027.61648,0.0,0.0,0.0,-19.13679,43.83128,14.20935,8.17,-0.67,0.04,2.0
1758089029.44202,1758089027.62648,0.0,0.0,0.0,-14.03747,39.70598,15.29797,7.82,-0.8,-0.21,2.0
1758089029.44348,1758089027.63648,0.0,0.0,0.0,-9.5684,34.0337,16.50119,7.82,-0.8,-0.21,2.0
1758089029.45965,1758089027.64648,0.0,0.0,0.0,-5.72958,28.01764,16.95955,7.76,-1.25,-0.47,2.0
1758089029.47632,1758089027.65648,0.0,0.0,0.0,-1.3751,20.74107,17.01685,7.76,-1.25,-0.47,2.0
1758089029.47867,1758089027.66648,0.0,0.0,0.0,0.68755,16.95955,16.55848,8.29,-1.47,-0.25,2.0
1758089029.49384,1758089027.67648,0.0,0.0,0.0,2.34913,13.5791,15.98552,8.29,-1.47,-0.25,2.0
1758089029.4948,1758089027.68648,0.0,0.0,0.0,4.0107,9.85487,14.83961,8.82,-1.24,-0.16,2.0
1758089029.50978,1758089027.69648,0.0,0.0,0.0,4.81285,6.35983,14.43854,9.26,-0.7,-0.16,2.0
1758089029.5264,1758089027.70648,0.0,0.0,0.0,4.87014,7.04738,13.69369,9.26,-0.7,-0.16,2.0
1758089029.53,1758089027.71648,0.0,0.0,0.0,4.23989,9.68299,12.89155,9.85,-0.16,-0.35,2.0
1758089029.5457,1758089027.72648,0.0,0.0,0.0,2.92208,13.69369,10.8289,9.85,-0.16,-0.35,2.0
1758089029.54708,1758089027.73648,0.0,0.0,0.0,2.23454,13.34992,8.93814,9.52,0.15,-0.49,2.0
1758089029.56166,1758089027.74648,0.0,0.0,0.0,1.71887,10.94349,6.99009,9.52,0.15,-0.49,2.0
1758089029.56361,1758089027.75648,0.0,0.0,0.0,1.77617,6.18794,4.92744,8.69,0.14,-0.92,2.0
1758089029.58461,1758089027.76648,0.0,0.0,0.0,2.34913,-7.10468,3.09397,8.14,0.14,-1.55,2.0
1758089029.58663,1758089027.77648,0.0,0.0,0.0,3.20856,-17.81899,2.23454,8.14,-0.05,-1.55,2.0
1758089029.60154,1758089027.78648,0.0,0.0,0.0,3.95341,-25.72581,1.08862,8.28,-0.32,-1.97,2.0
1758089029.60439,1758089027.79648,0.0,0.0,0.0,5.90147,-27.2155,0.40107,8.28,-0.32,-1.97,2.0
1758089029.62469,1758089027.80648,0.0,0.0,0.0,9.33921,-17.36062,2.86479,10.26,-0.8,-1.91,2.0
1758089029.62994,1758089027.81648,0.0,0.0,0.0,10.94349,-13.5218,4.23989,10.26,-0.8,-1.91,2.0
1758089029.63295,1758089027.82648,0.0,0.0,0.0,11.80293,-9.62569,6.35983,11.01,-1.2,-1.57,2.0
1758089029.64898,1758089027.83648,0.0,0.0,0.0,11.45916,-8.0787,7.04738,11.01,-1.2,-1.57,2.0
1758089029.66476,1758089027.84648,0.0,0.0,0.0,11.17268,-16.95955,6.70361,11.01,-1.27,-1.45,2.0
1758089029.66886,1758089027.85648,0.0,0.0,0.0,11.00079,-30.25217,4.29718,9.32,-1.25,-2.14,2.0
1758089029.68477,1758089027.86648,0.0,0.0,0.0,12.89155,-47.15443,4.64096,9.32,-1.25,-2.14,2.0
1758089029.68594,1758089027.87648,0.0,0.0,0.0,13.5218,-56.66553,2.57831,8.69,-1.04,-1.88,2.0
1758089029.7016,1758089027.88648,0.0,0.0,0.0,13.06344,-56.14987,-0.34377,8.69,-1.04,-1.88,2.0
1758089029.70438,1758089027.89648,0.0,0.0,0.0,13.12073,-57.0093,-3.03668,10.44,-0.39,-0.02,2.0
1758089029.72475,1758089027.90648,0.0,0.0,0.0,13.5791,-61.30648,-4.29718,10.44,-0.39,-0.02,2.0
1758089029.73002,1758089027.91648,0.0,0.0,0.0,14.03747,-78.09415,-0.85944,12.51,-0.29,2.18,2.0
1758089029.74503,1758089027.92648,0.0,0.0,0.0,16.21471,-85.6572,4.46907,15.15,-0.14,2.52,2.0
1758089029.74597,1758089027.93648,0.0,0.0,0.0,17.13144,-75.63043,9.05273,15.15,-0.14,2.52,2.0
1758089029.76091,1758089027.94648,0.0,0.0,0.0,17.47521,-57.86874,12.77696,16.71,0.41,0.33,2.0
1758089029.7771,1758089027.95648,0.0,0.0,0.0,19.13679,-40.45082,16.73037,16.71,0.41,0.33,2.0
1758089029.778,1758089027.96648,0.0,0.0,0.0,21.6578,-37.01308,17.47521,11.5,0.1,1.16,2.0
1758089029.79285,1758089027.97648,0.0,0.0,0.0,24.4653,-34.09099,15.58445,11.5,0.1,1.16,2.0
1758089029.79397,1758089027.98648,0.0,0.0,0.0,29.27814,-26.41335,13.80828,8.77,-0.57,1.77,2.0
1758089029.80899,1758089027.99648,0.0,0.0,0.0,37.47144,-9.96947,10.8862,9.53,-0.78,0.7,2.0
1758089029.85393,1758089028.00648,0.0,0.0,0.0,42.68536,-1.48969,9.5684,9.53,-0.78,0.7,2.0
1758089029.85513,1758089028.01648,0.0,0.0,0.0,47.03984,1.60428,8.25059,9.93,-0.07,-0.21,2.0
1758089029.85572,1758089028.02648,0.0,0.0,0.0,48.9306,3.38045,6.07335,9.93,-0.07,-0.21,2.0
1758089029.86423,1758089028.03648,0.0,0.0,0.0,51.85268,28.24682,2.63561,12.06,0.99,-0.76,2.0
1758089029.86478,1758089028.04648,0.0,0.0,0.0,52.54023,45.43555,2.40642,12.06,0.99,-0.76,2.0
1758089029.87005,1758089028.05648,0.0,0.0,0.0,50.99325,58.84277,1.66158,13.21,1.83,-1.41,2.0
1758089029.88512,1758089028.06648,0.0,0.0,0.0,49.15978,62.22322,2.34913,13.21,1.83,-1.41,2.0
1758089029.89001,1758089028.07648,0.0,0.0,0.0,43.4875,62.91077,1.43239,10.3,1.62,-0.52,2.0
1758089029.90511,1758089028.08648,0.0,0.0,0.0,38.73195,65.54638,-0.22918,9.42,1.3,-0.54,2.0
1758089029.91006,1758089028.09648,0.0,0.0,0.0,33.23156,67.89551,-2.46372,9.42,1.3,-0.54,2.0
1758089029.92517,1758089028.10648,0.0,0.0,0.0,24.80907,67.72362,-6.47442,8.81,1.35,-0.39,2.0
1758089029.92846,1758089028.11648,0.0,0.0,0.0,18.79302,61.42108,-9.22462,8.81,1.35,-0.39,2.0
1758089029.9439,1758089028.12648,0.0,0.0,0.0,13.46451,55.86338,-10.8289,7.75,1.61,-0.17,2.0
1758089029.94586,1758089028.13648,0.0,0.0,0.0,8.42248,49.90463,-12.14671,7.75,1.61,-0.17,2.0
1758089029.96085,1758089028.14648,0.0,0.0,0.0,2.23454,38.61736,-12.89155,7.36,1.74,-0.42,2.0
1758089029.96288,1758089028.15648,0.0,0.0,0.0,-0.97403,31.28349,-12.83425,7.07,1.9,-0.31,2.0
1758089029.9789,1758089028.16648,0.0,0.0,0.0,-3.38045,24.12152,-12.08941,7.07,1.9,-0.31,2.0
1758089029.99535,1758089028.17648,0.0,0.0,0.0,-5.32851,16.3293,-11.22997,7.19,1.71,-0.19,2.0
1758089029.99888,1758089028.18648,0.0,0.0,0.0,-7.44845,6.47442,-9.74028,7.19,1.71,-0.19,2.0
1758089030.01393,1758089028.19648,0.0,0.0,0.0,-8.36518,0.68755,-8.76626,7.59,1.28,-0.01,2.0
1758089030.01554,1758089028.20648,0.0,0.0,0.0,-8.88085,-3.95341,-8.30789,7.59,1.28,-0.01,2.0
1758089030.02995,1758089028.21648,0.0,0.0,0.0,-9.4538,-6.8182,-8.25059,8.14,0.81,-0.03,2.0
1758089030.04939,1758089028.22648,0.0,0.0,0.0,-9.74028,-7.96411,-8.0787,8.99,0.36,-0.22,2.0
1758089030.05321,1758089028.23648,0.0,0.0,0.0,-9.85487,-8.70896,-7.96411,8.99,0.36,-0.22,2.0
1758089030.0536,1758089028.24648,0.0,0.0,0.0,-9.91217,-10.31324,-7.73493,9.36,0.02,-0.63,2.0
1758089030.06885,1758089028.25648,0.0,0.0,0.0,-10.19865,-13.12073,-7.04738,9.36,0.02,-0.63,2.0
1758089030.08507,1758089028.26648,0.0,0.0,0.0,-10.19865,-19.48057,-5.84417,9.5,0.02,-1.07,2.0
1758089030.08618,1758089028.27648,0.0,0.0,0.0,-9.96947,-23.37668,-5.15662,9.5,0.02,-1.07,2.0
1758089030.10177,1758089028.28648,0.0,0.0,0.0,-9.68299,-28.07493,-4.23989,9.61,0.3,-1.57,2.0
1758089030.1046,1758089028.29648,0.0,0.0,0.0,-9.39651,-32.54401,-3.55234,9.61,0.3,-1.57,2.0
1758089030.12638,1758089028.30648,0.0,0.0,0.0,-9.33921,-38.44547,-3.38045,9.56,0.66,-1.91,2.0
1758089030.13028,1758089028.31648,0.0,0.0,0.0,-9.5684,-42.34158,-3.26586,9.65,1.16,-2.09,2.0
1758089030.1458,1758089028.32648,0.0,0.0,0.0,-10.08406,-43.4875,-4.35448,9.65,1.16,-2.09,2.0
1758089030.15368,1758089028.33648,0.0,0.0,0.0,-11.57375,-30.53865,-4.46907,10.53,1.58,-2.13,2.0
1758089030.15511,1758089028.34648,0.0,0.0,0.0,-11.86023,-14.38124,-3.49504,10.53,1.58,-2.13,2.0
1758089030.17281,1758089028.35648,0.0,0.0,0.0,-13.75099,-20.34,-4.69825,11.64,1.72,-2.24,2.0
1758089030.17402,1758089028.36648,0.0,0.0,0.0,-16.21471,-28.41871,-6.99009,11.64,1.72,-2.24,2.0
1758089030.18901,1758089028.37648,0.0,0.0,0.0,-18.22006,-39.76327,-11.22997,9.74,1.8,-2.02,2.0
1758089030.20979,1758089028.38648,0.0,0.0,0.0,-20.11082,-37.24226,-13.80828,10.51,1.72,-2.7,2.0
1758089030.219,1758089028.39648,0.0,0.0,0.0,-22.11617,-28.99167,-14.43854,10.51,1.72,-2.7,2.0
1758089030.21958,1758089028.40648,0.0,0.0,0.0,-23.49127,-20.45459,-12.60507,11.06,1.28,-2.02,2.0
1758089030.26197,1758089028.41648,0.0,0.0,0.0,-24.29341,-13.40721,-7.67763,11.06,1.28,-2.02,2.0
1758089030.26485,1758089028.42648,0.0,0.0,0.0,-23.31938,-11.11538,-4.0107,11.02,0.78,0.2,2.0
1758089030.29401,1758089028.43648,0.0,0.0,0.0,-20.74107,-12.83425,-2.34913,11.02,0.78,0.2,2.0
1758089030.30423,1758089028.44648,0.0,0.0,0.0,-18.62113,-20.51189,-4.52637,13.3,-0.02,1.69,2.0
1758089030.30457,1758089028.45648,0.0,0.0,0.0,-15.41257,-35.00772,-11.51645,15.31,-0.76,1.12,2.0
1758089030.3082,1758089028.46648,0.0,0.0,0.0,-12.204,-35.2942,-16.90226,15.31,-0.76,1.12,2.0
1758089030.30882,1758089028.47648,0.0,0.0,0.0,-9.39651,-29.73651,-19.99623,14.57,-0.36,0.79,2.0
1758089030.30959,1758089028.48648,0.0,0.0,0.0,-7.84952,-21.02755,-20.22541,14.57,-0.36,0.79,2.0
1758089030.31388,1758089028.49648,0.0,0.0,0.0,-8.30789,-11.97482,-17.81899,10.97,0.85,2.14,2.0
1758089030.31454,1758089028.50648,0.0,0.0,0.0,-10.25595,-7.84952,-13.86558,10.97,0.85,2.14,2.0
1758089030.33414,1758089028.51648,0.0,0.0,0.0,-14.20935,-7.33386,-9.5684,8.46,1.52,2.99,2.0
1758089030.33586,1758089028.52648,0.0,0.0,0.0,-23.0329,-7.04738,-3.32316,8.46,1.52,2.99,2.0
1758089030.35264,1758089028.53648,0.0,0.0,0.0,-29.33544,-6.35983,-0.22918,8.14,1.68,1.79,2.0
1758089030.35458,1758089028.54648,0.0,0.0,0.0,-35.2942,-4.18259,1.77617,10.28,1.19,0.16,2.0
1758089030.37288,1758089028.55648,0.0,0.0,0.0,-39.87786,-1.48969,2.57831,10.28,1.19,0.16,2.0
1758089030.37532,1758089028.56648,0.0,0.0,0.0,-45.20637,16.55848,3.55234,12.69,0.18,-0.38,2.0
1758089030.39284,1758089028.57648,0.0,0.0,0.0,-48.75871,38.56006,1.66158,12.69,0.18,-0.38,2.0
1758089030.39696,1758089028.58648,0.0,0.0,0.0,-51.39432,51.50891,-2.06265,13.89,-0.62,-1.06,2.0
1758089030.41304,1758089028.59648,0.0,0.0,0.0,-51.5662,53.28508,-2.63561,13.89,-0.62,-1.06,2.0
1758089030.41418,1758089028.60648,0.0,0.0,0.0,-51.39432,54.94666,-4.23989,10.26,-0.71,-0.31,2.0
1758089030.42917,1758089028.61648,0.0,0.0,0.0,-49.96192,56.03527,-4.64096,9.78,-0.35,-0.33,2.0
1758089030.447,1758089028.62648,0.0,0.0,0.0,-47.03984,56.03527,-3.32316,9.78,-0.35,-0.33,2.0
1758089030.45223,1758089028.63648,0.0,0.0,0.0,-41.25296,55.6915,0.17189,9.1,-0.43,-0.03,2.0
1758089030.46902,1758089028.64648,0.0,0.0,0.0,-30.99702,54.08722,6.7609,9.1,-0.43,-0.03,2.0
1758089030.47239,1758089028.65648,0.0,0.0,0.0,-24.35071,51.90998,10.59972,8.34,-1.11,-0.14,2.0
1758089030.48711,1758089028.66648,0.0,0.0,0.0,-18.22006,49.56085,13.86558,8.34,-1.11,-0.14,2.0
1758089030.48836,1758089028.67648,0.0,0.0,0.0,-11.80293,47.09713,16.84496,8.0,-1.71,-0.59,2.0
1758089030.50403,1758089028.68648,0.0,0.0,0.0,-2.34913,41.36755,19.59516,7.87,-1.74,-0.24,2.0
1758089030.50719,1758089028.69648,0.0,0.0,0.0,2.97938,36.21093,20.16812,7.87,-1.74,-0.24,2.0
1758089030.52228,1758089028.70648,0.0,0.0,0.0,7.10468,30.99702,19.53786,7.79,-1.6,-0.22,2.0
1758089030.52432,1758089028.71648,0.0,0.0,0.0,12.08941,26.47065,17.47521,7.79,-1.6,-0.22,2.0
1758089030.54056,1758089028.72648,0.0,0.0,0.0,14.43854,21.14215,15.12609,8.2,-1.13,-0.22,2.0
1758089030.548,1758089028.73648,0.0,0.0,0.0,16.50119,17.47521,12.89155,8.2,-1.13,-0.22,2.0
1758089030.56455,1758089028.74648,0.0,0.0,0.0,17.6471,13.5218,10.31324,8.56,-0.53,-0.13,2.0
1758089030.56629,1758089028.75648,0.0,0.0,0.0,19.07949,11.97482,7.39116,8.56,-0.53,-0.13,2.0
1758089030.58159,1758089028.76648,0.0,0.0,0.0,19.36597,13.69369,5.84417,9.07,-0.05,-0.21,2.0
1758089030.59735,1758089028.77648,0.0,0.0,0.0,19.25138,14.38124,5.15662,9.48,0.17,-0.37,2.0
1758089030.59958,1758089028.78648,0.0,0.0,0.0,18.90761,14.43854,4.29718,9.48,0.17,-0.37,2.0
1758089030.61433,1758089028.79648,0.0,0.0,0.0,18.33465,12.49048,3.32316,9.26,0.2,-0.5,2.0
1758089030.61641,1758089028.80648,0.0,0.0,0.0,18.33465,8.70896,2.92208,9.26,0.2,-0.5,2.0
1758089030.63202,1758089028.81648,0.0,0.0,0.0,18.62113,2.6929,2.63561,8.71,0.02,-0.84,2.0
1758089030.63406,1758089028.82648,0.0,0.0,0.0,19.42327,-5.15662,2.11994,8.71,0.02,-0.84,2.0
1758089030.65298,1758089028.83648,0.0,0.0,0.0,20.74107,-15.92823,2.00535,8.32,-0.26,-1.18,2.0
1758089030.65394,1758089028.84648,0.0,0.0,0.0,22.00158,-20.79837,1.43239,8.76,-0.54,-1.26,2.0
1758089030.6693,1758089028.85648,0.0,0.0,0.0,23.94964,-20.97026,1.08862,8.76,-0.54,-1.26,2.0
1758089030.68541,1758089028.86648,0.0,0.0,0.0,25.7831,-16.04282,1.77617,10.14,-0.64,-1.01,2.0
1758089030.6878,1758089028.87648,0.0,0.0,0.0,28.476,-11.45916,4.69825,10.14,-0.64,-1.01,2.0
1758089030.70263,1758089028.88648,0.0,0.0,0.0,28.93437,-6.07335,6.70361,10.62,-0.55,-0.93,2.0
1758089030.70683,1758089028.89648,0.0,0.0,0.0,27.96034,-2.00535,7.67763,10.62,-0.55,-0.93,2.0
1758089030.72471,1758089028.90648,0.0,0.0,0.0,26.75713,-2.29183,8.42248,10.7,-0.36,-0.75,2.0
1758089030.72972,1758089028.91648,0.0,0.0,0.0,26.24147,-17.99088,8.65166,9.13,-0.42,-1.37,2.0
1758089030.74448,1758089028.92648,0.0,0.0,0.0,25.7831,-34.95043,8.136,9.13,-0.42,-1.37,2.0
1758089030.74675,1758089028.93648,0.0,0.0,0.0,25.09555,-48.9879,9.11003,8.4,-0.6,-1.79,2.0
1758089030.7614,1758089028.94648,0.0,0.0,0.0,24.00693,-53.97263,9.4538,8.4,-0.6,-1.79,2.0
1758089030.76419,1758089028.95648,0.0,0.0,0.0,23.49127,-44.9199,8.65166,10.66,-0.81,-1.2,2.0
1758089030.77937,1758089028.96648,0.0,0.0,0.0,22.51724,-34.0337,6.18794,10.66,-0.81,-1.2,2.0
1758089030.79908,1758089028.97648,0.0,0.0,0.0,20.85567,-27.10091,3.38045,12.8,-0.67,-0.16,2.0
1758089030.7996,1758089028.98648,0.0,0.0,0.0,16.67307,-33.46074,2.29183,12.8,-0.67,1.43,2.0
1758089030.83437,1758089028.99648,0.0,0.0,0.0,14.09476,-43.54479,5.15662,13.55,0.05,1.43,2.0
1758089030.83559,1758089029.00648,0.0,0.0,0.0,12.49048,-48.58683,10.02676,15.09,0.57,1.74,2.0
1758089030.83621,1758089029.01648,0.0,0.0,0.0,9.85487,-45.37826,14.83961,15.09,0.57,1.74,2.0
1758089030.83898,1758089029.02648,0.0,0.0,0.0,6.35983,-33.00237,19.70975,15.2,0.75,0.62,2.0
1758089030.85451,1758089029.03648,0.0,0.0,0.0,5.15662,-24.29341,20.74107,15.2,0.75,0.62,2.0
1758089030.85595,1758089029.04648,0.0,0.0,0.0,5.4431,-16.3293,20.11082,11.57,0.03,0.75,2.0
1758089030.87366,1758089029.05648,0.0,0.0,0.0,6.87549,-11.63104,18.27736,11.57,0.03,0.75,2.0
1758089030.87489,1758089029.06648,0.0,0.0,0.0,12.43318,-5.32851,14.61043,9.48,-0.82,1.24,2.0
1758089030.89215,1758089029.07648,0.0,0.0,0.0,17.87628,-2.6929,12.37589,8.94,-1.27,1.79,2.0
1758089030.8933,1758089029.08648,0.0,0.0,0.0,23.94964,-2.7502,10.71431,8.94,-1.27,1.79,2.0
1758089030.90973,1758089029.09648,0.0,0.0,0.0,30.19488,-3.26586,9.39651,8.64,-1.01,1.65,2.0
1758089030.91393,1758089029.10648,0.0,0.0,0.0,39.24761,6.13065,7.39116,8.64,-1.01,1.65,2.0
1758089030.9298,1758089029.11648,0.0,0.0,0.0,45.72203,17.93358,9.22462,10.55,-0.29,0.57,2.0
1758089030.93504,1758089029.12648,0.0,0.0,0.0,49.38896,28.76248,8.99544,10.55,-0.29,0.57,2.0
1758089030.95396,1758089029.13648,0.0,0.0,0.0,51.79538,36.03905,10.59972,11.58,0.76,0.03,2.0
1758089030.95519,1758089029.14648,0.0,0.0,0.0,51.10783,37.87251,11.86023,10.64,1.29,0.2,2.0
1758089030.97297,1758089029.15648,0.0,0.0,0.0,48.41494,40.39353,11.63104,10.64,1.29,0.2,2.0
1758089030.97418,1758089029.16648,0.0,0.0,0.0,44.28964,43.20102,10.02676,10.24,1.43,0.05,2.0
1758089030.98985,1758089029.17648,0.0,0.0,0.0,35.98175,46.46688,5.78687,10.24,1.43,0.05,2.0
1758089030.99986,1758089029.18648,0.0,0.0,0.0,29.39274,48.41494,2.29183,9.61,1.53,0.13,2.0
1758089031.02984,1758089029.19648,0.0,0.0,0.0,22.86102,49.67545,-1.3178,9.61,1.53,0.13,2.0
1758089031.03467,1758089029.20648,0.0,0.0,0.0,16.61578,49.90463,-4.58366,9.12,1.62,0.01,2.0
1758089031.03535,1758089029.21648,0.0,0.0,0.0,8.59437,46.75336,-8.65166,8.52,1.62,-0.12,2.0
1758089031.03661,1758089029.22648,0.0,0.0,0.0,4.18259,43.60209,-10.48513,8.52,1.7,-0.12,2.0
1758089031.05229,1758089029.23648,0.0,0.0,0.0,0.68755,40.33623,-11.97482,8.35,1.61,-0.19,2.0
1758089031.05356,1758089029.24648,0.0,0.0,0.0,-1.60428,37.18496,-12.49048,8.35,1.61,-0.19,2.0
1758089031.06974,1758089029.25648,0.0,0.0,0.0,-3.72423,31.28349,-12.37589,8.4,1.33,-0.16,2.0
1758089031.07463,1758089029.26648,0.0,0.0,0.0,-4.29718,28.07493,-11.86023,8.4,1.33,-0.16,2.0
1758089031.11892,1758089029.27648,0.0,0.0,0.0,-4.35448,24.4653,-11.00079,8.43,0.96,0.07,2.0
1758089031.11981,1758089029.28648,0.0,0.0,0.0,-4.23989,20.74107,-10.37054,8.43,0.96,0.07,2.0
1758089031.12125,1758089029.29648,0.0,0.0,0.0,-4.29718,14.9542,-10.08406,8.34,0.58,0.17,2.0
1758089031.12405,1758089029.30648,0.0,0.0,0.0,-4.18259,11.00079,-10.37054,8.36,0.33,0.25,2.0
1758089031.12471,1758089029.31648,0.0,0.0,0.0,-4.29718,6.47442,-10.8862,8.36,0.33,0.25,2.0
1758089031.14098,1758089029.32648,0.0,0.0,0.0,-4.69825,3.89611,-11.45916,8.73,0.22,0.19,2.0
1758089031.1419,1758089029.33648,0.0,0.0,0.0,-5.32851,2.57831,-11.11538,8.73,0.22,0.19,2.0
1758089031.15975,1758089029.34648,0.0,0.0,0.0,-6.18794,1.60428,-10.02676,9.56,0.31,0.07,2.0
1758089031.17559,1758089029.35648,0.0,0.0,0.0,-7.04738,0.17189,-8.36518,9.56,0.31,0.07,2.0
1758089031.18091,1758089029.36648,0.0,0.0,0.0,-8.65166,-2.11994,-5.50039,10.03,0.6,-0.26,2.0
1758089031.18409,1758089029.37648,0.0,0.0,0.0,-10.02676,-4.64096,-3.72423,10.0,0.85,-0.73,2.0
1758089031.19972,1758089029.38648,0.0,0.0,0.0,-11.11538,-8.70896,-2.46372,10.0,0.85,-0.73,2.0
1758089031.20183,1758089029.39648,0.0,0.0,0.0,-11.97482,-14.38124,-1.77617,9.25,0.9,-1.01,2.0
1758089031.21982,1758089029.40648,0.0,0.0,0.0,-12.08941,-26.18417,-1.77617,9.25,0.9,-1.01,2.0
1758089031.23814,1758089029.41648,0.0,0.0,0.0,-11.80293,-35.2369,-3.03668,8.5,0.87,-1.25,2.0
1758089031.23933,1758089029.42648,0.0,0.0,0.0,-11.57375,-44.46153,-4.35448,8.5,0.87,-1.25,2.0
1758089031.25472,1758089029.43648,0.0,0.0,0.0,-11.63104,-50.1911,-5.95876,8.52,1.11,-1.31,2.0
1758089031.25676,1758089029.44648,0.0,0.0,0.0,-11.86023,-43.37291,-8.47978,10.19,1.18,-1.25,2.0
1758089031.27416,1758089029.45648,0.0,0.0,0.0,-11.57375,-29.62192,-8.93814,10.19,1.18,-1.25,2.0
1758089031.27857,1758089029.46648,0.0,0.0,0.0,-14.09476,-36.55471,-11.45916,10.28,1.14,-1.35,2.0
1758089031.29384,1758089029.47648,0.0,0.0,0.0,-16.38659,-44.9199,-13.75099,10.28,1.14,-1.35,2.0
1758089031.29843,1758089029.48647,0.0,0.0,0.0,-20.16812,-53.11319,-17.81899,9.2,1.24,-1.61,2.0
1758089031.3367,1758089029.49647,0.0,0.0,0.0,-22.51724,-47.44091,-18.85031,9.2,1.24,-1.61,2.0
1758089031.33948,1758089029.50647,0.0,0.0,0.0,-24.92367,-36.84119,-17.76169,10.83,1.53,-2.21,2.0
1758089031.34165,1758089029.51647,0.0,0.0,0.0,-26.98631,-26.52795,-14.38124,10.83,1.53,-2.21,2.0
1758089031.34449,1758089029.52647,0.0,0.0,0.0,-27.50197,-17.30333,-8.36518,11.61,1.24,-0.62,2.0
1758089031.34511,1758089029.53647,0.0,0.0,0.0,-25.72581,-16.10011,-5.4431,13.0,0.32,0.45,2.0
1758089031.36409,1758089029.54647,0.0,0.0,0.0,-23.20479,-20.34,-5.4431,13.0,0.32,0.45,2.0
1758089031.36662,1758089029.55647,0.0,0.0,0.0,-19.59516,-27.50197,-7.79223,13.98,-0.46,0.79,2.0
1758089031.38196,1758089029.56647,0.0,0.0,0.0,-16.10011,-28.93437,-9.5684,13.98,-0.46,0.79,2.0
1758089031.38464,1758089029.57647,0.0,0.0,0.0,-12.60507,-24.80907,-10.65701,13.91,-0.31,0.33,2.0
1758089031.41985,1758089029.58647,0.0,0.0,0.0,-9.62569,-19.48057,-10.37054,13.91,-0.31,0.33,2.0
1758089031.42076,1758089029.59647,0.0,0.0,0.0,-6.87549,-13.80828,-7.50575,11.8,0.47,0.85,2.0
1758089031.42695,1758089029.60647,0.0,0.0,0.0,-6.87549,-12.77696,-4.98473,10.3,1.1,1.93,2.0
1758089031.42896,1758089029.61647,0.0,0.0,0.0,-8.76626,-12.77696,-2.63561,10.3,1.1,1.93,2.0
1758089031.44417,1758089029.62647,0.0,0.0,0.0,-12.49048,-15.35527,-0.68755,9.62,1.35,2.69,2.0
1758089031.44825,1758089029.63647,0.0,0.0,0.0,-21.02755,-21.37133,0.68755,9.62,1.35,2.69,2.0
1758089031.46379,1758089029.64647,0.0,0.0,0.0,-28.24682,-21.6578,0.97403,9.4,1.3,2.55,2.0
1758089031.46502,1758089029.65647,0.0,0.0,0.0,-36.49741,-14.49583,-0.11459,9.4,1.3,2.55,2.0
1758089031.47996,1758089029.66647,0.0,0.0,0.0,-45.20637,-4.0107,-2.34913,10.92,0.9,1.02,2.0
1758089031.48355,1758089029.67647,0.0,0.0,0.0,-54.66018,6.07335,-5.90147,11.24,0.14,0.31,2.0
1758089031.499,1758089029.68647,0.0,0.0,0.0,-58.4417,9.74028,-8.36518,11.24,0.14,0.31,2.0
1758089031.51517,1758089029.69647,0.0,0.0,0.0,-59.47303,11.86023,-8.99544,10.89,-0.58,0.0,2.0
1758089031.51934,1758089029.70647,0.0,0.0,0.0,-58.84277,18.62113,-9.62569,10.89,-0.58,0.0,2.0
1758089031.53496,1758089029.71647,0.0,0.0,0.0,-55.23313,30.30947,-7.96411,11.34,-0.94,-0.24,2.0
1758089031.53617,1758089029.72647,0.0,0.0,0.0,-51.39432,35.98175,-5.84417,11.34,-0.94,-0.24,2.0
1758089031.55574,1758089029.73647,0.0,0.0,0.0,-46.46688,40.62271,-3.38045,10.32,-1.06,-0.29,2.0
1758089031.56405,1758089029.74647,0.0,0.0,0.0,-41.59674,45.37826,0.51566,10.32,-1.06,-0.29,2.0
1758089031.56468,1758089029.75647,0.0,0.0,0.0,-33.9764,49.79003,2.7502,9.82,-1.2,-0.28,2.0
1758089031.58406,1758089029.76647,0.0,0.0,0.0,-29.50733,49.84733,4.69825,9.23,-1.28,-0.23,2.0
1758089031.58774,1758089029.77647,0.0,0.0,0.0,-25.72581,47.61279,5.95876,9.23,-1.28,-0.23,2.0
1758089031.60295,1758089029.78647,0.0,0.0,0.0,-20.97026,44.17505,7.21927,8.89,-1.27,-0.24,2.0
1758089031.6084,1758089029.79647,0.0,0.0,0.0,-18.16276,41.76862,8.65166,8.89,-1.27,-0.24,2.0
1758089031.623,1758089029.80647,0.0,0.0,0.0,-16.272,38.15899,9.85487,8.66,-0.95,-0.21,2.0
1758089031.62429,1758089029.81647,0.0,0.0,0.0,-14.61043,33.80451,10.54242,8.66,-0.95,-0.21,2.0
1758089031.64007,1758089029.82647,0.0,0.0,0.0,-11.91752,27.73116,11.63104,8.49,-0.76,-0.15,2.0
1758089031.6562,1758089029.83647,0.0,0.0,0.0,-9.91217,24.75178,11.91752,8.63,-0.66,-0.14,2.0
1758089031.65754,1758089029.84647,0.0,0.0,0.0,-7.96411,22.05888,12.08941,8.63,-0.66,-0.14,2.0
1758089031.67405,1758089029.85647,0.0,0.0,0.0,-5.78687,19.76705,11.80293,8.74,-0.61,-0.08,2.0
1758089031.67524,1758089029.86647,0.0,0.0,0.0,-2.11994,15.35527,11.11538,8.74,-0.61,-0.08,2.0
1758089031.69316,1758089029.87647,0.0,0.0,0.0,0.11459,14.09476,10.65701,8.79,-0.63,-0.02,2.0
1758089031.69437,1758089029.88647,0.0,0.0,0.0,1.94806,15.69904,9.96947,8.79,-0.63,-0.02,2.0
1758089031.71273,1758089029.89647,0.0,0.0,0.0,3.38045,17.53251,9.39651,9.32,-0.59,-0.14,2.0
1758089031.71446,1758089029.90647,0.0,0.0,0.0,4.98473,18.90761,8.42248,9.33,-0.53,-0.16,2.0
1758089031.76912,1758089029.91647,0.0,0.0,0.0,6.13065,19.59516,7.04738,9.33,-0.53,-0.16,2.0
1758089031.77433,1758089029.92647,0.0,0.0,0.0,7.44845,17.99088,5.55769,8.99,-0.51,-0.38,2.0
1758089031.77472,1758089029.93647,0.0,0.0,0.0,8.88085,14.43854,3.72423,8.99,-0.51,-0.38,2.0
1758089031.7759,1758089029.94647,0.0,0.0,0.0,11.91752,5.4431,1.60428,8.51,-0.62,-0.56,2.0
1758089031.77916,1758089029.95647,0.0,0.0,0.0,14.20935,-3.72423,0.74485,8.51,-0.62,-0.56,2.0
1758089031.78099,1758089029.96647,0.0,0.0,0.0,16.73037,-12.60507,0.17189,8.1,-0.81,-0.89,2.0
1758089031.784,1758089029.97647,0.0,0.0,0.0,20.62648,-24.80907,-0.97403,8.1,-0.81,-0.89,2.0
1758089031.80019,1758089029.98647,0.0,0.0,0.0,24.57989,-20.11082,-0.45837,8.49,-1.07,-1.16,2.0
1758089031.81615,1758089029.99647,0.0,0.0,0.0,28.30412,-11.74564,0.40107,10.78,-1.34,-1.02,2.0
1758089031.81735,1758089030.00647,0.0,0.0,0.0,30.93972,-2.34913,1.66158,10.78,-1.34,-1.02,2.0
1758089031.83416,1758089030.01647,0.0,0.0,0.0,32.08564,8.0787,2.46372,11.33,-1.17,-0.73,2.0
1758089031.83618,1758089030.02647,0.0,0.0,0.0,32.54401,8.0787,2.34913,11.33,-1.17,-0.73,2.0
1758089031.85364,1758089030.03647,0.0,0.0,0.0,34.0337,-6.7609,1.77617,10.02,-0.93,-0.8,2.0
1758089031.85474,1758089030.04647,0.0,0.0,0.0,35.58068,-27.33009,1.77617,10.02,-0.93,-0.8,2.0
1758089031.87414,1758089030.05647,0.0,0.0,0.0,37.18496,-51.5662,3.26586,7.8,-0.91,-1.66,2.0
1758089031.87926,1758089030.06647,0.0,0.0,0.0,38.15899,-56.55093,5.55769,9.29,-1.11,-1.12,2.0
1758089031.89418,1758089030.07647,0.0,0.0,0.0,39.19032,-53.62885,6.24524,9.29,-1.11,-1.12,2.0
1758089031.92467,1758089030.08647,0.0,0.0,0.0,39.64868,-49.50356,5.90147,11.89,-0.93,0.56,2.0
1758089031.9252,1758089030.09647,0.0,0.0,0.0,39.07573,-52.82671,6.24524,11.89,-0.93,0.56,2.0
1758089031.92803,1758089030.10647,0.0,0.0,0.0,37.92981,-61.24919,9.28192,14.28,0.08,2.46,2.0
1758089031.92866,1758089030.11647,0.0,0.0,0.0,36.6693,-64.40046,13.12073,14.28,0.08,2.46,2.0
1758089031.94446,1758089030.12647,0.0,0.0,0.0,34.09099,-59.07195,16.21471,15.89,0.9,1.33,2.0
1758089031.94734,1758089030.13647,0.0,0.0,0.0,30.53865,-42.85724,18.10547,14.04,0.78,0.3,2.0
1758089031.96317,1758089030.14647,0.0,0.0,0.0,28.24682,-30.19488,16.50119,14.04,0.78,0.3,2.0
1758089031.9738,1758089030.15647,0.0,0.0,0.0,26.12688,-21.60051,13.5791,10.68,0.31,0.88,2.0
1758089031.97442,1758089030.16647,0.0,0.0,0.0,26.75713,-19.88164,8.02141,10.68,0.31,0.88,2.0
1758089031.99368,1758089030.17647,0.0,0.0,0.0,29.8511,-22.86102,3.72423,8.76,-0.44,1.26,2.0
1758089031.99485,1758089030.18647,0.0,0.0,0.0,34.09099,-17.81899,0.51566,8.76,-0.44,1.26,2.0
1758089032.01346,1758089030.19647,0.0,0.0,0.0,39.64868,-10.8289,-1.08862,9.78,-0.93,1.44,2.0
1758089032.01512,1758089030.20647,0.0,0.0,0.0,48.01387,-6.47442,-1.03132,9.78,-0.93,1.44,2.0
1758089032.05385,1758089030.21647,0.0,0.0,0.0,52.42564,-9.22462,0.0,9.15,-0.62,1.36,2.0
1758089032.0548,1758089030.22647,0.0,0.0,0.0,57.29578,-1.3751,0.51566,9.49,0.12,0.81,2.0
1758089032.05614,1758089030.23647,0.0,0.0,0.0,62.33781,16.10011,3.95341,9.49,0.12,0.81,2.0
1758089032.05741,1758089030.24647,0.0,0.0,0.0,65.48907,37.64333,8.59437,12.03,1.08,-0.29,2.0
1758089032.07336,1758089030.25647,0.0,0.0,0.0,65.2599,41.25296,12.49048,12.03,1.08,-0.29,2.0
1758089032.07454,1758089030.26647,0.0,0.0,0.0,61.70755,42.28429,14.03747,10.77,1.82,0.2,2.0
1758089032.0893,1758089030.27647,0.0,0.0,0.0,56.20716,44.8053,13.69369,10.77,1.82,0.2,2.0
1758089032.09485,1758089030.28647,0.0,0.0,0.0,46.06581,45.60744,9.28192,10.33,2.02,-0.03,2.0
1758089032.11454,1758089030.29647,0.0,0.0,0.0,38.73195,44.57612,5.32851,9.62,2.18,0.38,2.0
1758089032.11629,1758089030.30647,0.0,0.0,0.0,31.79916,44.40423,1.66158,9.62,2.18,0.38,2.0
1758089032.13209,1758089030.31647,0.0,0.0,0.0,25.72581,44.57612,-1.3751,9.41,2.16,0.26,2.0
1758089032.13343,1758089030.32647,0.0,0.0,0.0,17.81899,43.94586,-5.50039,9.41,2.16,0.26,2.0
1758089032.1486,1758089030.33647,0.0,0.0,0.0,13.86558,42.74266,-7.21927,9.12,1.97,-0.08,2.0
1758089032.16425,1758089030.34647,0.0,0.0,0.0,10.59972,41.99781,-8.42248,9.12,1.97,-0.08,2.0
1758089032.16628,1758089030.35647,0.0,0.0,0.0,8.65166,40.50812,-9.22462,9.13,1.67,-0.13,2.0
1758089032.18143,1758089030.36647,0.0,0.0,0.0,7.39116,36.49741,-8.76626,9.08,1.2,0.0,2.0
1758089032.1834,1758089030.37647,0.0,0.0,0.0,7.79223,33.74722,-7.96411,9.08,1.2,0.0,2.0
1758089032.19936,1758089030.38647,0.0,0.0,0.0,8.42248,31.11161,-6.53172,9.08,0.69,0.17,2.0
1758089032.21628,1758089030.39647,0.0,0.0,0.0,9.96947,27.38738,-4.0107,9.08,0.69,0.17,2.0
1758089032.21818,1758089030.40647,0.0,0.0,0.0,11.11538,25.21014,-2.63561,9.04,0.4,0.23,2.0
1758089032.23361,1758089030.41647,0.0,0.0,0.0,11.91752,23.0329,-1.3751,9.04,0.4,0.23,2.0
1758089032.23488,1758089030.42647,0.0,0.0,0.0,12.49048,20.51189,-0.68755,8.97,0.33,0.28,2.0
1758089032.24969,1758089030.43647,0.0,0.0,0.0,12.49048,16.50119,-0.17189,8.97,0.33,0.22,2.0
1758089032.25459,1758089030.44647,0.0,0.0,0.0,11.97482,13.75099,-0.57296,8.96,0.44,0.22,2.0
1758089032.27223,1758089030.45647,0.0,0.0,0.0,11.34457,12.2613,-1.20321,9.15,0.69,0.11,2.0
1758089032.2742,1758089030.46647,0.0,0.0,0.0,10.37054,12.43318,-1.71887,9.15,0.69,0.11,2.0
1758089032.28934,1758089030.47647,0.0,0.0,0.0,8.65166,12.49048,-2.06265,9.43,0.88,-0.04,2.0
1758089032.29464,1758089030.48647,0.0,0.0,0.0,6.87549,11.51645,-1.94806,9.43,0.88,-0.04,2.0
1758089032.31447,1758089030.49647,0.0,0.0,0.0,5.15662,8.65166,-1.71887,9.16,1.07,-0.18,2.0
1758089032.31722,1758089030.50647,0.0,0.0,0.0,3.32316,4.52637,-1.20321,9.16,1.07,-0.18,2.0
1758089032.35947,1758089030.51647,0.0,0.0,0.0,0.34377,-3.66693,-0.80214,8.81,1.28,-0.44,2.0
1758089032.43416,1758089030.52647,0.0,0.0,0.0,-1.43239,-10.65701,-1.14592,8.5,1.43,-0.63,2.0
1758089032.43483,1758089030.53647,0.0,0.0,0.0,-2.7502,-18.27736,-1.43239,8.5,1.43,-0.63,2.0
1758089032.43849,1758089030.54647,0.0,0.0,0.0,-4.23989,-26.06958,-2.06265,8.28,1.48,-0.92,2.0
1758089032.43908,1758089030.55647,0.0,0.0,0.0,-6.18794,-39.3622,-2.92208,8.28,1.48,-0.92,2.0
1758089032.44112,1758089030.56647,0.0,0.0,0.0,-7.39116,-47.09713,-3.66693,8.29,1.6,-1.14,2.0
1758089032.44172,1758089030.57647,0.0,0.0,0.0,-8.70896,-50.64947,-3.60963,8.29,1.6,-1.14,2.0
1758089032.44255,1758089030.58647,0.0,0.0,0.0,-12.14671,-36.89849,-6.87549,9.4,1.65,-1.32,2.0
1758089032.44603,1758089030.59647,0.0,0.0,0.0,-11.86023,-18.62113,-4.23989,11.15,1.57,-1.15,2.0
1758089032.44899,1758089030.60647,0.0,0.0,0.0,-15.12609,-32.42941,-7.16197,11.15,1.57,-1.15,2.0
1758089032.44954,1758089030.61647,0.0,0.0,0.0,-17.47521,-45.20637,-7.79223,8.2,1.95,-0.91,2.0
1758089032.45281,1758089030.62647,0.0,0.0,0.0,-20.97026,-61.59297,-10.54242,8.2,1.95,-0.91,2.0
1758089032.45616,1758089030.63647,0.0,0.0,0.0,-22.63183,-61.42108,-11.00079,8.68,1.85,-1.74,2.0
1758089032.45688,1758089030.64647,0.0,0.0,0.0,-24.23611,-57.52497,-8.88085,8.68,1.85,-1.74,2.0
1758089032.47466,1758089030.65647,0.0,0.0,0.0,-24.80907,-57.41038,-5.72958,9.72,1.4,-0.18,2.0
1758089032.47616,1758089030.66647,0.0,0.0,0.0,-22.91831,-62.85347,-1.14592,12.16,1.4,2.35,2.0
1758089032.49238,1758089030.67647,0.0,0.0,0.0,-20.62648,-65.89015,-0.74485,12.16,0.49,2.35,2.0
1758089032.49359,1758089030.68647,0.0,0.0,0.0,-18.90761,-63.54102,-1.66158,16.86,-0.75,2.65,2.0
1758089032.50893,1758089030.69647,0.0,0.0,0.0,-17.76169,-56.20716,-4.18259,16.86,-0.75,2.65,2.0
1758089032.52467,1758089030.70647,0.0,0.0,0.0,-16.50119,-44.11775,-7.62034,16.88,-0.6,1.1,2.0
1758089032.52997,1758089030.71647,0.0,0.0,0.0,-16.272,-40.7946,-8.59437,16.88,-0.6,1.1,2.0
1758089032.54466,1758089030.72647,0.0,0.0,0.0,-17.36062,-40.16434,-8.76626,12.0,0.43,1.81,2.0
1758089032.54662,1758089030.73647,0.0,0.0,0.0,-19.25138,-38.50277,-7.44845,12.0,0.43,1.81,2.0
1758089032.5627,1758089030.74647,0.0,0.0,0.0,-23.54857,-31.62727,-4.35448,10.08,1.16,2.62,2.0
1758089032.56522,1758089030.75647,0.0,0.0,0.0,-27.84575,-24.57989,-2.40642,10.55,1.25,1.93,2.0
1758089032.58163,1758089030.76647,0.0,0.0,0.0,-32.37212,-17.58981,-1.20321,10.55,1.25,1.93,2.0
1758089032.58531,1758089030.77647,0.0,0.0,0.0,-36.49741,-13.40721,-0.45837,11.16,0.74,0.61,2.0
1758089032.60223,1758089030.78647,0.0,0.0,0.0,-41.65404,-9.33921,-0.40107,11.16,0.74,0.61,2.0
1758089032.60742,1758089030.79647,0.0,0.0,0.0,-43.65939,-5.90147,-0.40107,11.62,-0.18,0.05,2.0
1758089032.62343,1758089030.80647,0.0,0.0,0.0,-44.28964,8.59437,1.20321,11.62,-0.18,0.05,2.0
1758089032.62468,1758089030.81647,0.0,0.0,0.0,-46.52417,48.8733,0.34377,13.26,-0.83,-0.65,2.0
1758089032.63993,1758089030.82647,0.0,0.0,0.0,-46.40959,59.64491,-0.34377,12.02,-1.01,-0.61,2.0
1758089032.64445,1758089030.83647,0.0,0.0,0.0,-44.40423,64.51505,0.11459,12.02,-1.01,-0.61,2.0
1758089032.65961,1758089030.84647,0.0,0.0,0.0,-41.76862,64.51505,0.57296,9.46,-1.14,0.48,2.0
1758089032.66401,1758089030.85647,0.0,0.0,0.0,-35.63798,62.22322,2.7502,9.46,-1.14,0.48,2.0
1758089032.67973,1758089030.86647,0.0,0.0,0.0,-30.59595,59.24384,5.21392,9.33,-1.69,0.37,2.0
1758089032.69832,1758089030.87647,0.0,0.0,0.0,-25.09555,55.6342,7.96411,9.33,-1.69,0.37,2.0
1758089032.69952,1758089030.88647,0.0,0.0,0.0,-19.36597,51.85268,11.17268,9.2,-2.17,0.16,2.0
1758089032.71471,1758089030.89647,0.0,0.0,0.0,-11.11538,45.09178,15.75634,8.78,-2.16,0.05,2.0
1758089032.71832,1758089030.90647,0.0,0.0,0.0,-6.35983,39.19032,18.27736,8.78,-2.16,0.05,2.0
1758089032.73376,1758089030.91647,0.0,0.0,0.0,-1.71887,34.49206,19.82434,8.3,-1.75,0.1,2.0
1758089032.73502,1758089030.92647,0.0,0.0,0.0,2.23454,30.48136,21.02755,8.3,-1.75,0.1,2.0
1758089032.74996,1758089030.93647,0.0,0.0,0.0,6.7609,26.64254,20.51189,8.42,-1.21,0.13,2.0
1758089032.75417,1758089030.94647,0.0,0.0,0.0,8.76626,23.20479,19.48057,8.42,-1.21,0.13,2.0
1758089032.7702,1758089030.95647,0.0,0.0,0.0,10.08406,18.90761,17.76169,8.55,-0.68,0.18,2.0
1758089032.7742,1758089030.96647,0.0,0.0,0.0,10.94349,14.20935,15.75634,8.55,-0.68,0.18,2.0
1758089032.78975,1758089030.97647,0.0,0.0,0.0,11.51645,9.11003,12.43318,8.78,-0.36,0.07,2.0
1758089032.79422,1758089030.98647,0.0,0.0,0.0,11.22997,8.88085,10.08406,9.23,-0.26,-0.07,2.0
1758089032.80982,1758089030.99647,0.0,0.0,0.0,10.54242,11.28727,7.73493,9.23,-0.26,-0.07,2.0
1758089032.81427,1758089031.00647,0.0,0.0,0.0,8.93814,15.0115,4.18259,9.64,-0.26,-0.09,2.0
1758089032.83265,1758089031.01647,0.0,0.0,0.0,7.50575,18.62113,1.83346,9.64,-0.26,-0.09,2.0
1758089032.83363,1758089031.02647,0.0,0.0,0.0,6.8182,18.10547,0.11459,9.27,-0.29,-0.04,2.0
1758089032.84908,1758089031.03647,0.0,0.0,0.0,6.41713,15.46986,-0.74485,9.27,-0.29,-0.04,2.0
1758089032.8651,1758089031.04647,0.0,0.0,0.0,5.61499,9.96947,-1.43239,8.83,-0.44,-0.16,2.0
1758089032.87406,1758089031.05647,0.0,0.0,0.0,5.72958,6.13065,-1.20321,8.91,-0.63,-0.24,2.0
1758089032.87464,1758089031.06647,0.0,0.0,0.0,5.90147,0.85944,-0.51566,8.91,-0.63,-0.24,2.0
1758089032.89364,1758089031.07647,0.0,0.0,0.0,5.90147,-6.35983,-0.17189,8.92,-0.74,-0.16,2.0
1758089032.89482,1758089031.08647,0.0,0.0,0.0,6.13065,-13.75099,0.85944,8.92,-0.74,-0.16,2.0
1758089032.90996,1758089031.09647,0.0,0.0,0.0,5.84417,-14.9542,0.74485,9.31,-0.73,-0.22,2.0
1758089032.91347,1758089031.10647,0.0,0.0,0.0,6.7609,-10.8289,1.03132,9.31,-0.73,-0.22,2.0
1758089032.92972,1758089031.11647,0.0,0.0,0.0,7.96411,-4.1253,2.06265,10.3,-0.71,-0.06,2.0
1758089032.93406,1758089031.12647,0.0,0.0,0.0,7.16197,6.58902,2.57831,10.35,-0.34,0.27,2.0
1758089032.94991,1758089031.13647,0.0,0.0,0.0,4.98473,13.34992,2.29183,10.35,-0.34,0.27,2.0
1758089032.95426,1758089031.14647,0.0,0.0,0.0,2.97938,14.61043,1.83346,10.02,1.18,0.47,2.0
1758089032.97,1758089031.15647,0.0,0.0,0.0,3.32316,10.19865,1.3178,10.02,1.18,0.47,2.0
1758089032.97505,1758089031.16647,0.0,0.0,0.0,5.50039,6.07335,0.34377,9.75,-2.25,0.41,2.0
1758089032.98995,1758089031.17647,0.0,0.0,0.0,10.8289,-8.02141,-0.0573,9.75,-2.25,0.41,2.0
1758089033.03364,1758089031.18647,0.0,0.0,0.0,12.2613,-18.27736,-0.0573,8.16,-1.64,-1.88,2.0
1758089033.03486,1758089031.19647,0.0,0.0,0.0,13.46451,-24.98096,1.94806,8.16,-1.64,-1.88,2.0
1758089033.03789,1758089031.20647,0.0,0.0,0.0,16.10011,-27.84575,3.38045,8.75,-0.39,-0.2,2.0
1758089033.0391,1758089031.21647,0.0,0.0,0.0,18.16276,-24.4653,4.87014,10.01,-0.51,-0.36,2.0
1758089033.03973,1758089031.22647,0.0,0.0,0.0,19.88164,-20.05352,4.81285,10.01,-0.51,-0.36,2.0
1758089033.04417,1758089031.23647,0.0,0.0,0.0,21.7724,-15.64175,3.38045,10.63,-0.73,-0.45,2.0
1758089033.06097,1758089031.24647,0.0,0.0,0.0,22.57454,-13.98017,1.83346,10.63,-0.73,-0.45,2.0
1758089033.07961,1758089031.25647,0.0,0.0,0.0,22.74642,-12.71966,-0.17189,10.57,-0.85,-0.62,2.0
1758089033.08057,1758089031.26647,0.0,0.0,0.0,23.0902,-11.34457,-2.06265,10.57,-0.85,-0.62,2.0
1758089033.09622,1758089031.27647,0.0,0.0,0.0,24.17882,-9.4538,-3.89611,10.4,-0.98,-0.91,2.0
1758089033.09957,1758089031.28647,0.0,0.0,0.0,25.26744,-8.47978,-4.18259,10.37,-1.02,-0.9,2.0
1758089033.13999,1758089031.29647,0.0,0.0,0.0,26.18417,-8.02141,-3.55234,10.37,-1.02,-0.9,2.0
1758089033.14567,1758089031.30647,0.0,0.0,0.0,26.87172,-7.21927,-2.6929,10.41,-0.96,-0.82,2.0
1758089033.14824,1758089031.31647,0.0,0.0,0.0,27.96034,-5.15662,-0.85944,10.41,-0.96,-0.82,2.0
1758089033.17659,1758089031.32647,0.0,0.0,0.0,28.30412,-2.7502,0.0,10.44,-0.85,-0.64,2.0
1758089033.17886,1758089031.33647,0.0,0.0,0.0,28.13223,-0.57296,0.68755,10.44,-0.85,-0.64,2.0
1758089033.18009,1758089031.34647,0.0,0.0,0.0,27.67386,-0.80214,1.43239,10.44,-0.6,-0.38,2.0
1758089033.18366,1758089031.35647,0.0,0.0,0.0,25.89769,-7.84952,2.34913,10.25,-0.15,-0.05,2.0
1758089033.1844,1758089031.36647,0.0,0.0,0.0,24.4653,-16.10011,3.89611,10.25,-0.15,-0.05,2.0
1758089033.18982,1758089031.37647,0.0,0.0,0.0,23.37668,-23.0902,6.18794,10.84,0.06,0.44,2.0
1758089033.19392,1758089031.38647,0.0,0.0,0.0,22.40265,-26.12688,8.25059,10.84,0.06,0.44,2.0
1758089033.21408,1758089031.39647,0.0,0.0,0.0,20.3973,-24.80907,11.51645,12.72,0.08,0.79,2.0
1758089033.21614,1758089031.40647,0.0,0.0,0.0,18.50654,-23.37668,13.34992,12.72,0.08,0.79,2.0
1758089033.2335,1758089031.41647,0.0,0.0,0.0,16.90226,-22.28806,14.49583,13.28,0.19,1.08,2.0
1758089033.23501,1758089031.42647,0.0,0.0,0.0,15.12609,-22.86102,13.69369,13.28,0.19,1.08,2.0
1758089033.25255,1758089031.43647,0.0,0.0,0.0,14.9542,-22.68913,11.57375,11.52,0.18,0.74,2.0
1758089033.25456,1758089031.44647,0.0,0.0,0.0,15.87093,-19.25138,9.05273,10.1,-0.2,0.94,2.0
1758089033.27414,1758089031.45647,0.0,0.0,0.0,17.99088,-15.69904,6.18794,10.1,-0.2,0.94,2.0
1758089033.27534,1758089031.46647,0.0,0.0,0.0,23.0902,-10.8289,2.34913,8.99,-0.63,1.23,2.0
1758089033.29417,1758089031.47647,0.0,0.0,0.0,27.10091,-10.02676,0.17189,8.99,-0.63,1.23,2.0
1758089033.29576,1758089031.48647,0.0,0.0,0.0,31.74186,-9.05273,-1.43239,7.79,-0.85,1.53,2.0
1758089033.31364,1758089031.49647,0.0,0.0,0.0,36.49741,-6.47442,-2.46372,7.79,-0.85,1.53,2.0
1758089033.31489,1758089031.50647,0.0,0.0,0.0,42.97184,0.0573,-3.09397,8.16,-0.92,1.29,2.0
1758089033.33257,1758089031.51647,0.0,0.0,0.0,46.63877,5.32851,-2.7502,9.55,-0.67,0.59,2.0
1758089033.33456,1758089031.52647,0.0,0.0,0.0,48.9306,11.45916,-1.94806,9.55,-0.67,0.59,2.0
1758089033.35333,1758089031.53647,0.0,0.0,0.0,49.90463,18.44924,-0.80214,11.03,-0.01,-0.04,2.0
1758089033.35458,1758089031.54647,0.0,0.0,0.0,49.15978,32.6013,1.3178,11.03,-0.01,-0.04,2.0
1758089033.37347,1758089031.55647,0.0,0.0,0.0,46.81066,38.56006,2.23454,11.82,0.84,-0.36,2.0
1758089033.37451,1758089031.56647,0.0,0.0,0.0,43.54479,40.16434,3.20856,11.82,0.84,-0.36,2.0
1758089033.39121,1758089031.57647,0.0,0.0,0.0,39.3622,38.84654,3.38045,10.81,1.46,-0.05,2.0
1758089033.39384,1758089031.58647,0.0,0.0,0.0,32.37212,36.84119,2.6929,10.24,1.78,0.02,2.0
1758089033.4095,1758089031.59647,0.0,0.0,0.0,27.84575,34.49206,1.48969,10.24,1.78,0.02,2.0
1758089033.42523,1758089031.60647,0.0,0.0,0.0,23.72045,31.16891,0.0,9.76,1.89,0.02,2.0
1758089033.42834,1758089031.61647,0.0,0.0,0.0,20.22541,27.84575,-3.49504,9.76,1.89,0.02,2.0
1758089033.44436,1758089031.62647,0.0,0.0,0.0,15.69904,23.31938,-6.13065,9.35,1.77,0.05,2.0
1758089033.44522,1758089031.63647,0.0,0.0,0.0,13.17803,20.62648,-9.05273,9.35,1.77,0.05,2.0
1758089033.46457,1758089031.64647,0.0,0.0,0.0,10.8862,17.53251,-11.51645,9.21,1.53,0.22,2.0
1758089033.46973,1758089031.65647,0.0,0.0,0.0,8.30789,12.54778,-14.43854,9.21,1.53,0.22,2.0
1758089033.48426,1758089031.66647,0.0,0.0,0.0,6.70361,8.70896,-15.0115,9.27,1.24,0.29,2.0
1758089033.4878,1758089031.67647,0.0,0.0,0.0,5.32851,5.61499,-15.24068,9.39,0.84,0.26,2.0
1758089033.50429,1758089031.68647,0.0,0.0,0.0,4.35448,3.26586,-14.9542,9.39,0.84,0.26,2.0
1758089033.50533,1758089031.69647,0.0,0.0,0.0,3.03668,2.34913,-14.15206,9.63,0.48,0.19,2.0
1758089033.52457,1758089031.70647,0.0,0.0,0.0,2.06265,3.03668,-13.75099,9.63,0.48,0.19,2.0
1758089033.52637,1758089031.71647,0.0,0.0,0.0,1.48969,3.03668,-12.83425,9.82,0.31,0.21,2.0
1758089033.5429,1758089031.72647,0.0,0.0,0.0,0.80214,3.38045,-12.08941,9.82,0.31,0.21,2.0
1758089033.54485,1758089031.73647,0.0,0.0,0.0,0.17189,4.29718,-10.8289,9.65,0.37,0.06,2.0
1758089033.5606,1758089031.74647,0.0,0.0,0.0,-0.40107,6.41713,-9.85487,9.72,0.45,-0.12,2.0
1758089033.57663,1758089031.75647,0.0,0.0,0.0,-0.80214,9.85487,-8.76626,9.72,0.45,-0.12,2.0
1758089033.57707,1758089031.76647,0.0,0.0,0.0,-1.20321,13.75099,-7.73493,9.92,0.52,-0.27,2.0
1758089033.59417,1758089031.77647,0.0,0.0,0.0,-2.06265,18.16276,-5.95876,9.92,0.52,-0.27,2.0
1758089033.62604,1758089031.78647,0.0,0.0,0.0,-2.63561,19.07949,-4.81285,9.77,0.57,-0.39,2.0
1758089033.62897,1758089031.79647,0.0,0.0,0.0,-3.38045,17.76169,-3.66693,9.77,0.57,-0.39,2.0
1758089033.63362,1758089031.80647,0.0,0.0,0.0,-4.23989,15.29797,-2.7502,9.43,0.64,-0.44,2.0
1758089033.63405,1758089031.81647,0.0,0.0,0.0,-5.32851,10.71431,-2.00535,9.38,0.66,-0.57,2.0
1758089033.63858,1758089031.82647,0.0,0.0,0.0,-6.35983,7.50575,-1.77617,9.38,0.66,-0.57,2.0
1758089033.65367,1758089031.83647,0.0,0.0,0.0,-7.21927,3.72423,-2.11994,9.3,0.64,-0.67,2.0
1758089033.65459,1758089031.84647,0.0,0.0,0.0,-8.42248,-1.94806,-2.29183,9.3,0.64,-0.67,2.0
1758089033.6697,1758089031.85647,0.0,0.0,0.0,-9.4538,-3.72423,-2.92208,9.15,0.76,-0.79,2.0
1758089033.67461,1758089031.86647,0.0,0.0,0.0,-10.59972,-4.98473,-3.38045,9.15,0.76,-0.79,2.0
1758089033.69233,1758089031.87647,0.0,0.0,0.0,-11.74564,-6.07335,-4.18259,9.27,0.9,-0.78,2.0
1758089033.69337,1758089031.88647,0.0,0.0,0.0,-13.23533,-9.05273,-5.21392,9.27,0.9,-0.78,2.0
1758089033.7095,1758089031.89647,0.0,0.0,0.0,-13.80828,-11.63104,-4.92744,9.45,0.93,-0.39,2.0
1758089033.72975,1758089031.90647,0.0,0.0,0.0,-14.61043,-16.04282,-3.95341,10.0,0.66,0.5,2.0
1758089033.73415,1758089031.91647,0.0,0.0,0.0,-15.75634,-21.37133,-1.94806,10.0,0.66,0.5,2.0
1758089033.73479,1758089031.92647,0.0,0.0,0.0,-16.95955,-26.12688,1.3178,11.45,0.31,1.27,2.0
1758089033.75234,1758089031.93647,0.0,0.0,0.0,-17.93358,-22.51724,3.60963,11.45,0.31,1.27,2.0
1758089033.75421,1758089031.94647,0.0,0.0,0.0,-18.85031,-15.98552,5.84417,14.05,-0.11,1.11,2.0
1758089033.76952,1758089031.95647,0.0,0.0,0.0,-20.51189,-8.76626,7.39116,14.05,-0.11,1.11,2.0
1758089033.77308,1758089031.96647,0.0,0.0,0.0,-24.00693,10.08406,9.05273,14.04,0.05,0.78,2.0
1758089033.78886,1758089031.97647,0.0,0.0,0.0,-26.69983,17.76169,9.11003,12.45,0.42,1.49,2.0
1758089033.80481,1758089031.98647,0.0,0.0,0.0,-28.41871,0.68755,7.96411,12.45,0.42,1.49,2.0
1758089033.80967,1758089031.99647,0.0,0.0,0.0,-26.64254,-21.88699,10.48513,7.71,0.43,2.47,2.0
1758089033.82487,1758089032.00647,0.0,0.0,0.0,-26.24147,-28.76248,13.17803,7.71,0.43,2.47,2.0
1758089033.84969,1758089032.01647,0.0,0.0,0.0,-27.04361,-19.25138,12.49048,10.52,0.27,1.57,2.0
1758089033.85358,1758089032.02647,0.0,0.0,0.0,-27.78845,-9.62569,11.91752,10.52,0.27,1.57,2.0
1758089033.85628,1758089032.03647,0.0,0.0,0.0,-30.36677,-3.09397,8.36518,10.84,0.14,1.36,2.0
1758089033.86001,1758089032.04647,0.0,0.0,0.0,-33.00237,1.08862,4.81285,8.9,-0.03,1.21,2.0
1758089033.86202,1758089032.05647,0.0,0.0,0.0,-35.63798,9.39651,1.48969,8.9,-0.03,1.21,2.0
1758089033.87986,1758089032.06647,0.0,0.0,0.0,-36.49741,21.7151,0.17189,9.64,-0.54,0.8,2.0
1758089033.88401,1758089032.07647,0.0,0.0,0.0,-37.29956,18.62113,-1.60428,9.64,-0.54,0.8,2.0
1758089033.89965,1758089032.08647,0.0,0.0,0.0,-39.3622,8.59437,-4.1253,8.39,-1.0,1.21,2.0
1758089033.90433,1758089032.09647,0.0,0.0,0.0,-38.78925,5.4431,-4.52637,8.39,-1.0,1.21,2.0
1758089033.91961,1758089032.10647,0.0,0.0,0.0,-37.92981,9.33921,-4.46907,10.03,-1.44,0.39,2.0
1758089033.92423,1758089032.11647,0.0,0.0,0.0,-36.15364,25.15285,-2.7502,11.7,-1.44,0.04,2.0
1758089033.96955,1758089032.12647,0.0,0.0,0.0,-34.43476,33.68992,-0.74485,11.7,-1.62,0.04,2.0
1758089033.97523,1758089032.13647,0.0,0.0,0.0,-32.14294,37.52874,1.60428,10.31,-1.47,0.47,2.0
1758089033.97835,1758089032.14647,0.0,0.0,0.0,-30.02299,36.21093,4.18259,10.31,-1.47,0.47,2.0
1758089033.98107,1758089032.15647,0.0,0.0,0.0,-26.24147,24.75178,7.96411,8.87,-1.24,0.68,2.0
1758089033.9817,1758089032.16647,0.0,0.0,0.0,-23.60586,16.272,9.96947,8.87,-1.24,0.68,2.0
1758089033.9846,1758089032.17647,0.0,0.0,0.0,-21.25674,10.8289,11.17268,8.86,-1.22,0.49,2.0
1758089033.99972,1758089032.18647,0.0,0.0,0.0,-18.27736,11.17268,11.28727,8.86,-1.22,0.49,2.0
1758089034.01593,1758089032.19647,0.0,0.0,0.0,-13.5218,22.34536,11.51645,9.93,-1.48,0.37,2.0
1758089034.02041,1758089032.20647,0.0,0.0,0.0,-11.17268,28.36141,11.22997,9.89,-1.61,0.52,2.0
1758089034.03896,1758089032.21647,0.0,0.0,0.0,-8.93814,29.9084,11.00079,9.89,-1.61,0.52,2.0
1758089034.04091,1758089032.22647,0.0,0.0,0.0,-7.10468,24.98096,10.48513,8.39,-1.55,0.83,2.0
1758089034.05599,1758089032.23647,0.0,0.0,0.0,-4.92744,11.63104,8.70896,8.39,-1.55,0.83,2.0
1758089034.05695,1758089032.24647,0.0,0.0,0.0,-3.60963,2.86479,7.21927,7.92,-1.43,0.66,2.0
1758089034.07261,1758089032.25647,0.0,0.0,0.0,-2.40642,-2.97938,5.61499,7.92,-1.43,0.66,2.0
1758089034.07459,1758089032.26647,0.0,0.0,0.0,-1.08862,-8.59437,2.86479,8.82,-1.32,0.45,2.0
1758089034.08991,1758089032.27647,0.0,0.0,0.0,-0.17189,-10.8289,0.85944,9.47,-1.2,0.32,2.0
1758089034.09408,1758089032.28647,0.0,0.0,0.0,-0.80214,-8.59437,-1.08862,9.47,-1.2,0.32,2.0
1758089034.10973,1758089032.29647,0.0,0.0,0.0,-0.40107,10.54242,-4.0107,11.01,-0.88,0.1,2.0
1758089034.11576,1758089032.30647,0.0,0.0,0.0,-5.21392,41.25296,-6.13065,11.01,-0.88,0.1,2.0
1758089034.13367,1758089032.31647,0.0,0.0,0.0,-5.90147,29.04896,-7.44845,10.66,-0.69,0.21,2.0
1758089034.13478,1758089032.32647,0.0,0.0,0.0,-8.93814,8.59437,-9.33921,10.66,-0.69,0.21,2.0
1758089034.15238,1758089032.33647,0.0,0.0,0.0,-11.34457,-3.89611,-12.71966,6.89,-0.57,0.66,2.0
1758089034.15492,1758089032.34647,0.0,0.0,0.0,-12.14671,-2.29183,-14.72501,10.41,-0.79,-0.15,2.0
1758089034.16993,1758089032.35647,0.0,0.0,0.0,-11.34457,2.63561,-14.43854,10.41,-0.79,-0.15,2.0
1758089034.17344,1758089032.36647,0.0,0.0,0.0,-9.85487,7.10468,-13.40721,11.03,-1.3,0.12,2.0
1758089034.1889,1758089032.37647,0.0,0.0,0.0,-7.79223,8.36518,-11.91752,11.03,-1.3,0.12,2.0
1758089034.20483,1758089032.38647,0.0,0.0,0.0,-4.58366,5.78687,-9.74028,9.66,-1.52,-0.06,2.0
1758089034.20764,1758089032.39647,0.0,0.0,0.0,-2.34913,2.29183,-8.47978,9.66,-1.52,-0.06,2.0
1758089034.22368,1758089032.40647,0.0,0.0,0.0,-0.34377,-1.94806,-7.67763,8.84,-1.43,-0.34,2.0
1758089034.22492,1758089032.41647,0.0,0.0,0.0,1.48969,-5.95876,-7.62034,8.84,-1.43,-0.34,2.0
1758089034.23986,1758089032.42647,0.0,0.0,0.0,3.72423,-12.08941,-7.79223,8.7,-1.27,-0.49,2.0
1758089034.24344,1758089032.43647,0.0,0.0,0.0,4.92744,-15.64175,-8.59437,8.69,-1.17,-0.72,2.0
1758089034.25964,1758089032.44647,0.0,0.0,0.0,5.61499,-18.73572,-9.39651,8.69,-1.17,-0.72,2.0
1758089034.27827,1758089032.45647,0.0,0.0,0.0,6.53172,-22.11617,-11.74564,8.68,-1.06,-0.97,2.0
1758089034.27949,1758089032.46647,0.0,0.0,0.0,6.87549,-25.43933,-13.86558,8.68,-1.06,-0.97,2.0
1758089034.29512,1758089032.47647,0.0,0.0,0.0,7.50575,-25.72581,-16.61578,9.25,-0.89,-0.6,2.0
1758089034.3043,1758089032.48647,0.0,0.0,0.0,7.84952,-24.92367,-19.48057,9.25,-0.89,-0.6,2.0
1758089034.30659,1758089032.49647,0.0,0.0,0.0,9.05273,-24.35071,-22.34536,11.25,-0.83,1.08,2.0
1758089034.3147,1758089032.50647,0.0,0.0,0.0,9.91217,-23.72045,-22.28806,13.82,-0.6,1.72,2.0
1758089034.33276,1758089032.51647,0.0,0.0,0.0,10.94349,-20.11082,-20.74107,13.82,-0.6,1.72,2.0
1758089034.33457,1758089032.52647,0.0,0.0,0.0,11.97482,-13.75099,-18.10547,14.35,0.22,0.31,2.0
1758089034.34989,1758089032.53647,0.0,0.0,0.0,12.89155,-5.27121,-14.49583,14.35,0.22,0.31,2.0
1758089034.35266,1758089032.54647,0.0,0.0,0.0,13.69369,-1.03132,-12.71966,12.38,0.62,0.46,2.0
1758089034.36887,1758089032.55647,0.0,0.0,0.0,14.66772,2.00535,-11.45916,12.38,0.62,0.46,2.0
1758089034.38497,1758089032.56647,0.0,0.0,0.0,16.10011,4.46907,-10.19865,11.51,0.34,1.32,2.0
1758089034.38614,1758089032.57647,0.0,0.0,0.0,19.25138,7.96411,-7.67763,11.37,-0.11,1.86,2.0
1758089034.40096,1758089032.58647,0.0,0.0,0.0,22.57454,7.67763,-4.92744,11.37,-0.11,1.86,2.0
1758089034.4049,1758089032.59647,0.0,0.0,0.0,26.35606,6.07335,-1.71887,10.43,-0.56,2.31,2.0
1758089034.4551,1758089032.60647,0.0,0.0,0.0,30.25217,3.66693,2.06265,10.43,-0.56,2.31,2.0
1758089034.46408,1758089032.61647,0.0,0.0,0.0,35.2942,2.97938,5.90147,9.7,-0.75,2.48,2.0
1758089034.46466,1758089032.62647,0.0,0.0,0.0,37.87251,4.58366,7.10468,9.7,-0.75,2.48,2.0
1758089034.4659,1758089032.63647,0.0,0.0,0.0,39.4195,7.16197,7.21927,9.4,-0.24,2.25,2.0
1758089034.46966,1758089032.64647,0.0,0.0,0.0,40.7946,13.98017,6.18794,9.4,-0.24,2.25,2.0
1758089034.47578,1758089032.65647,0.0,0.0,0.0,40.10705,26.87172,5.21392,9.93,0.51,1.86,2.0
1758089034.47909,1758089032.66647,0.0,0.0,0.0,40.39353,29.39274,3.95341,9.75,1.36,1.62,2.0
1758089034.49534,1758089032.67647,0.0,0.0,0.0,37.64333,27.67386,-0.34377,9.75,1.36,1.62,2.0
1758089034.49615,1758089032.68647,0.0,0.0,0.0,35.2942,2.29183,-1.20321,8.17,2.11,1.5,2.0
1758089034.51408,1758089032.69647,0.0,0.0,0.0,33.51803,-5.61499,-0.34377,8.17,2.11,1.5,2.0
1758089034.51529,1758089032.70647,0.0,0.0,0.0,31.11161,-4.98473,-0.51566,9.61,2.41,0.95,2.0
1758089034.53272,1758089032.71647,0.0,0.0,0.0,28.07493,-0.11459,-1.08862,9.61,2.41,0.95,2.0
1758089034.53444,1758089032.72647,0.0,0.0,0.0,22.11617,7.67763,-3.83882,11.01,2.42,0.62,2.0
1758089034.55243,1758089032.73647,0.0,0.0,0.0,17.93358,10.02676,-6.07335,9.86,2.08,0.76,2.0
1758089034.55524,1758089032.74647,0.0,0.0,0.0,13.75099,11.17268,-8.30789,9.86,2.08,0.76,2.0
1758089034.57249,1758089032.75647,0.0,0.0,0.0,9.96947,12.14671,-10.48513,9.03,1.76,0.59,2.0
1758089034.57446,1758089032.76647,0.0,0.0,0.0,5.27121,11.91752,-12.08941,9.03,1.76,0.59,2.0
1758089034.59275,1758089032.77647,0.0,0.0,0.0,2.92208,11.11538,-12.49048,8.91,1.56,0.61,2.0
1758089034.5977,1758089032.78647,0.0,0.0,0.0,1.08862,10.37054,-12.204,8.91,1.56,0.61,2.0
1758089034.6138,1758089032.79647,0.0,0.0,0.0,-0.34377,9.85487,-11.17268,9.12,1.39,0.59,2.0
1758089034.61828,1758089032.80647,0.0,0.0,0.0,-1.60428,9.85487,-8.76626,9.26,1.23,0.46,2.0
1758089034.63402,1758089032.81647,0.0,0.0,0.0,-1.94806,10.48513,-6.53172,9.26,1.23,0.46,2.0
1758089034.63542,1758089032.82647,0.0,0.0,0.0,-2.11994,10.65701,-4.23989,9.23,1.02,0.4,2.0
1758089034.65404,1758089032.83647,0.0,0.0,0.0,-2.29183,11.63104,-2.57831,9.23,1.02,0.4,2.0
1758089034.65525,1758089032.84647,0.0,0.0,0.0,-2.92208,13.23533,-0.45837,9.16,0.88,0.37,2.0
1758089034.71879,1758089032.85647,0.0,0.0,0.0,-3.83882,14.72501,0.11459,9.16,0.88,0.37,2.0
1758089034.72083,1758089032.86647,0.0,0.0,0.0,-4.92744,15.98552,0.0,9.12,0.89,0.26,2.0
1758089034.72224,1758089032.87647,0.0,0.0,0.0,-7.39116,16.95955,-0.51566,9.12,0.89,0.26,2.0
1758089034.72428,1758089032.88647,0.0,0.0,0.0,-9.22462,17.81899,-1.20321,9.11,0.99,0.16,2.0
1758089034.72571,1758089032.89647,0.0,0.0,0.0,-11.51645,18.62113,-1.71887,9.16,1.13,0.02,2.0
1758089034.73331,1758089032.90647,0.0,0.0,0.0,-13.98017,18.85031,-1.48969,9.16,1.13,0.02,2.0
1758089034.73394,1758089032.91647,0.0,0.0,0.0,-17.58981,17.93358,-0.80214,9.15,1.24,-0.28,2.0
1758089034.73462,1758089032.92647,0.0,0.0,0.0,-19.82434,17.24603,0.0,9.15,1.24,-0.28,2.0
1758089034.75101,1758089032.93647,0.0,0.0,0.0,-21.88699,16.73037,1.66158,9.08,1.23,-0.34,2.0
1758089034.753,1758089032.94647,0.0,0.0,0.0,-23.72045,15.12609,3.38045,9.08,1.23,-0.34,2.0
1758089034.76925,1758089032.95647,0.0,0.0,0.0,-26.35606,9.4538,5.95876,8.81,1.11,-0.38,2.0
1758089034.78521,1758089032.96647,0.0,0.0,0.0,-28.24682,3.60963,7.44845,8.31,1.04,-0.48,2.0
1758089034.78798,1758089032.97647,0.0,0.0,0.0,-30.02299,-3.55234,7.96411,8.31,1.04,-0.48,2.0
1758089034.80401,1758089032.98647,0.0,0.0,0.0,-31.39809,-14.38124,7.67763,7.74,1.06,-0.93,2.0
1758089034.80541,1758089032.99647,0.0,0.0,0.0,-33.00237,-36.26823,6.47442,7.74,1.06,-0.93,2.0
1758089034.82433,1758089033.00647,0.0,0.0,0.0,-33.34615,-50.01921,5.61499,6.93,1.03,-1.52,2.0
1758089034.83359,1758089033.01647,0.0,0.0,0.0,-34.26288,-60.44705,4.46907,6.93,1.03,-1.52,2.0
1758089034.83396,1758089033.02647,0.0,0.0,0.0,-35.63798,-67.32255,4.23989,7.3,0.82,-1.86,2.0
1758089034.85427,1758089033.03647,0.0,0.0,0.0,-37.64333,-69.04142,4.69825,9.35,0.97,-0.59,2.0
1758089034.8985,1758089033.04647,0.0,0.0,0.0,-38.84654,-59.75951,3.49504,9.35,0.97,-0.59,2.0
1758089034.89969,1758089033.05647,0.0,0.0,0.0,-38.90384,-38.27358,2.23454,16.1,0.84,3.51,2.0
1758089034.90084,1758089033.06647,0.0,0.0,0.0,-37.87251,-39.01843,-3.55234,16.1,0.84,3.51,2.0
1758089034.9026,1758089033.07647,0.0,0.0,0.0,-33.68992,-61.59297,-9.4538,17.89,-0.48,3.56,2.0
1758089034.90384,1758089033.08647,0.0,0.0,0.0,-30.76784,-71.79161,-15.75634,17.89,-0.48,3.56,2.0
1758089034.90424,1758089033.09647,0.0,0.0,0.0,-27.33009,-67.89551,-17.6471,14.84,-0.24,1.44,2.0
1758089034.92462,1758089033.10647,0.0,0.0,0.0,-25.61122,-41.94051,-14.9542,14.84,-0.24,1.44,2.0
1758089034.92561,1758089033.11647,0.0,0.0,0.0,-26.47065,-19.19409,-10.8862,14.24,0.67,1.5,2.0
1758089034.94069,1758089033.12647,0.0,0.0,0.0,-28.41871,-0.57296,-6.53172,13.59,0.98,4.04,2.0
1758089034.9587,1758089033.13647,0.0,0.0,0.0,-29.73651,2.40642,-3.20856,13.59,0.98,4.04,2.0
1758089034.95994,1758089033.14647,0.0,0.0,0.0,-31.28349,-31.45539,3.03668,8.49,0.84,4.21,2.0
1758089034.97543,1758089033.15647,0.0,0.0,0.0,-33.9764,-39.99245,4.98473,8.49,0.84,4.21,2.0
1758089034.97893,1758089033.16647,0.0,0.0,0.0,-36.32552,-32.20023,7.16197,9.92,0.51,2.64,2.0
1758089034.99439,1758089033.17647,0.0,0.0,0.0,-39.07573,-17.53251,8.02141,9.92,0.51,2.64,2.0
1758089034.99556,1758089033.18647,0.0,0.0,0.0,-41.76862,-8.136,7.10468,12.99,-0.1,0.55,2.0
1758089035.01437,1758089033.19647,0.0,0.0,0.0,-41.94051,-13.12073,5.90147,9.41,-0.69,0.77,2.0
1758089035.01558,1758089033.20647,0.0,0.0,0.0,-40.33623,-22.11617,4.46907,9.41,-0.69,0.77,2.0
1758089035.03228,1758089033.21647,0.0,0.0,0.0,-39.3622,-25.89769,3.38045,8.28,-1.15,0.56,2.0
1758089035.03398,1758089033.22647,0.0,0.0,0.0,-36.7266,3.72423,4.18259,8.28,-1.15,0.56,2.0
1758089035.04972,1758089033.23647,0.0,0.0,0.0,-37.87251,37.81522,1.3178,12.24,-1.01,-0.51,2.0
1758089035.05477,1758089033.24647,0.0,0.0,0.0,-38.1017,53.51426,1.60428,12.24,-1.01,-0.51,2.0
1758089035.07367,1758089033.25647,0.0,0.0,0.0,-38.78925,54.88936,0.0573,9.6,-0.92,0.23,2.0
1758089035.08297,1758089033.26647,0.0,0.0,0.0,-36.95578,47.49821,-0.22918,6.96,-0.82,0.73,2.0
1758089035.08439,1758089033.27647,0.0,0.0,0.0,-34.14828,47.89928,0.80214,6.96,-0.82,0.73,2.0
1758089035.10446,1758089033.28647,0.0,0.0,0.0,-30.76784,47.61279,2.6929,8.51,-1.33,0.22,2.0
1758089035.10965,1758089033.29647,0.0,0.0,0.0,-25.26744,44.86259,6.13065,8.51,-1.33,0.22,2.0
1758089035.12445,1758089033.30647,0.0,0.0,0.0,-21.42862,42.62806,8.36518,8.91,-1.74,0.33,2.0
