timeStamp,timeStampAlign,roll,pitch,yaw,gyro_x,gyro_y,gyro_z,acc_x,acc_y,acc_z,flag_num
1758074979.88619,1758074979.89008,0.0,0.0,0.0,-37.29956,-17.76169,-10.48513,9.96,0.52,1.44,2.0
1758074979.8874,1758074979.90008,0.0,0.0,0.0,-38.61736,-17.87628,-8.47978,9.96,0.52,1.44,2.0
1758074979.90226,1758074979.91008,0.0,0.0,0.0,-39.07573,-17.6471,-7.67763,9.77,0.41,1.47,2.0
1758074979.90347,1758074979.92008,0.0,0.0,0.0,-39.4195,-17.93358,-7.33386,9.77,0.41,1.47,2.0
1758074979.91824,1758074979.93008,0.0,0.0,0.0,-38.44547,-18.79302,-7.21927,9.74,0.34,1.71,2.0
1758074979.93425,1758074979.94008,0.0,0.0,0.0,-36.7266,-20.62648,-7.79223,9.84,0.34,2.04,2.0
1758074979.93541,1758074979.95008,0.0,0.0,0.0,-35.06502,-21.37133,-8.70896,9.84,0.2,2.04,2.0
1758074979.95026,1758074979.96008,0.0,0.0,0.0,-32.88778,-22.63183,-9.68299,9.79,-0.05,2.05,2.0
1758074979.96624,1758074979.97008,0.0,0.0,0.0,-30.53865,-23.66316,-10.19865,9.79,-0.05,2.05,2.0
1758074979.96737,1758074979.98008,0.0,0.0,0.0,-27.50197,-25.49662,-10.65701,9.49,-0.13,1.42,2.0
1758074979.98255,1758074979.99008,0.0,0.0,0.0,-26.01229,-27.78845,-10.48513,9.49,-0.13,1.42,2.0
1758074979.98343,1758074980.00008,0.0,0.0,0.0,-24.75178,-30.36677,-9.68299,8.92,0.11,1.08,2.0
1758074979.9985,1758074980.01008,0.0,0.0,0.0,-23.89234,-33.86181,-8.47978,8.92,0.11,1.08,2.0
1758074980.01427,1758074980.02008,0.0,0.0,0.0,-22.11617,-43.20102,-7.21927,8.7,0.44,1.25,2.0
1758074980.01579,1758074980.03008,0.0,0.0,0.0,-20.22541,-49.79003,-8.59437,9.95,0.54,2.81,2.0
1758074980.03048,1758074980.04008,0.0,0.0,0.0,-15.69904,-54.431,-11.86023,9.95,0.54,2.81,2.0
1758074980.03263,1758074980.05008,0.0,0.0,0.0,-8.65166,-69.90086,-17.36062,14.7,-0.41,7.41,2.0
1758074980.04858,1758074980.06008,0.0,0.0,0.0,-2.92208,-109.89331,-42.97184,14.7,-0.41,7.41,2.0
1758074980.06453,1758074980.07008,0.0,0.0,0.0,1.20321,-107.71607,-54.60288,17.59,-1.88,4.45,2.0
1758074980.06646,1758074980.08008,0.0,0.0,0.0,4.69825,-88.35009,-57.41038,17.59,-1.88,4.45,2.0
1758074980.08205,1758074980.09008,0.0,0.0,0.0,8.30789,-75.05748,-51.10783,12.39,-1.08,0.05,2.0
1758074980.08331,1758074980.10008,0.0,0.0,0.0,9.68299,-78.839,-43.60209,3.17,0.84,1.03,2.0
1758074980.09942,1758074980.11008,0.0,0.0,0.0,10.48513,-79.75573,-35.52338,3.17,0.84,1.03,2.0
1758074980.10299,1758074980.12008,0.0,0.0,0.0,11.28727,-71.39055,-24.17882,2.46,1.15,0.77,2.0
1758074980.13724,1758074980.13008,0.0,0.0,0.0,6.18794,-51.90998,-7.73493,2.46,1.15,0.77,2.0
1758074980.13977,1758074980.14008,0.0,0.0,0.0,-0.22918,-39.76327,0.68755,5.15,0.92,2.1,2.0
1758074980.14224,1758074980.15008,0.0,0.0,0.0,-8.25059,-25.89769,7.04738,5.15,0.92,2.1,2.0
1758074980.14346,1758074980.16008,0.0,0.0,0.0,-15.92823,-7.62034,9.4538,8.15,1.09,1.74,2.0
1758074980.15835,1758074980.17008,0.0,0.0,0.0,-24.63719,27.78845,8.70896,11.83,1.02,0.51,2.0
1758074980.1751,1758074980.18008,0.0,0.0,0.0,-26.64254,43.25832,6.24524,11.83,1.02,0.51,2.0
1758074980.17793,1758074980.19008,0.0,0.0,0.0,-27.04361,52.82671,1.3178,11.9,-0.01,-1.47,2.0
1758074980.19413,1758074980.20008,0.0,0.0,0.0,-25.43933,61.93674,-4.35448,11.9,-0.01,-1.47,2.0
1758074980.19635,1758074980.21008,0.0,0.0,0.0,-21.37133,79.06818,-14.20935,13.5,-0.89,-3.06,2.0
1758074980.21132,1758074980.22008,0.0,0.0,0.0,-18.33465,89.83979,-18.62113,13.5,-0.89,-3.06,2.0
1758074980.21367,1758074980.23008,0.0,0.0,0.0,-15.24068,97.23093,-20.22541,13.03,-0.41,-1.47,2.0
1758074980.22963,1758074980.24008,0.0,0.0,0.0,-11.86023,101.06976,-18.50654,13.03,-0.41,-1.47,2.0
1758074980.24638,1758074980.25008,0.0,0.0,0.0,-7.10468,102.96053,-10.8289,11.6,-0.14,-0.04,2.0
1758074980.24797,1758074980.26008,0.0,0.0,0.0,-4.92744,102.96053,-4.35448,11.86,-0.27,0.54,2.0
1758074980.26237,1758074980.27008,0.0,0.0,0.0,-3.20856,101.8719,2.57831,11.86,-0.27,0.54,2.0
1758074980.26386,1758074980.28008,0.0,0.0,0.0,-1.60428,97.51743,11.74564,11.77,-0.11,1.34,2.0
1758074980.27862,1758074980.29008,0.0,0.0,0.0,-0.45837,88.69387,16.84496,11.77,-0.11,1.34,2.0
1758074980.29435,1758074980.30008,0.0,0.0,0.0,0.57296,80.55787,20.74107,10.79,0.02,1.71,2.0
1758074980.29555,1758074980.31008,0.0,0.0,0.0,1.66158,68.58305,23.31938,10.79,0.02,1.71,2.0
1758074980.31038,1758074980.32008,0.0,0.0,0.0,1.71887,46.75336,24.80907,9.22,-0.06,1.59,2.0
1758074980.3123,1758074980.33008,0.0,0.0,0.0,3.09397,36.15364,24.29341,8.34,-0.23,1.28,2.0
1758074980.32859,1758074980.34008,0.0,0.0,0.0,4.29718,38.44547,23.0329,8.34,-0.23,1.28,2.0
1758074980.34481,1758074980.35008,0.0,0.0,0.0,6.13065,40.96649,21.6578,9.43,-0.46,1.67,2.0
1758074980.34562,1758074980.36008,0.0,0.0,0.0,8.76626,41.65404,19.07949,9.43,-0.46,1.67,2.0
1758074980.36042,1758074980.37008,0.0,0.0,0.0,10.59972,42.51347,17.76169,9.15,-0.5,1.71,2.0
1758074980.37671,1758074980.38008,0.0,0.0,0.0,10.8862,42.1124,13.5791,9.15,-0.5,1.71,2.0
1758074980.37762,1758074980.39008,0.0,0.0,0.0,10.8862,36.26823,10.65701,9.06,-0.33,2.14,2.0
1758074980.39267,1758074980.40008,0.0,0.0,0.0,12.71966,21.42862,5.84417,8.4,-0.27,2.17,2.0
1758074980.39366,1758074980.41008,0.0,0.0,0.0,12.08941,-0.34377,1.48969,8.4,-0.27,2.17,2.0
1758074980.40869,1758074980.42008,0.0,0.0,0.0,14.15206,-25.61122,3.89611,6.97,-0.57,1.29,2.0
1758074980.42472,1758074980.43008,0.0,0.0,0.0,15.24068,-39.4768,4.92744,6.97,-0.57,1.29,2.0
1758074980.42561,1758074980.44008,0.0,0.0,0.0,18.50654,-46.2377,10.31324,8.69,-1.04,1.57,2.0
1758074980.44069,1758074980.45008,0.0,0.0,0.0,20.11082,-46.98254,13.98017,8.69,-1.04,1.57,2.0
1758074980.45661,1758074980.46008,0.0,0.0,0.0,21.7151,-46.69606,17.58981,9.71,-1.24,1.63,2.0
1758074980.4577,1758074980.47008,0.0,0.0,0.0,22.68913,-46.46688,19.59516,9.71,-1.24,1.63,2.0
1758074980.47266,1758074980.48008,0.0,0.0,0.0,23.0902,-44.23235,19.07949,9.89,-1.13,1.62,2.0
1758074980.47365,1758074980.49008,0.0,0.0,0.0,23.20479,-41.88322,17.30333,9.8,-0.68,1.39,2.0
1758074980.48845,1758074980.50008,0.0,0.0,0.0,23.0329,-40.10705,14.83961,9.8,-0.68,1.39,2.0
1758074980.50486,1758074980.51008,0.0,0.0,0.0,23.0329,-38.21629,10.65701,9.09,-0.28,1.1,2.0
1758074980.50565,1758074980.52008,0.0,0.0,0.0,23.49127,-35.98175,8.0787,9.09,-0.28,1.1,2.0
1758074980.52045,1758074980.53008,0.0,0.0,0.0,24.00693,-34.66395,5.84417,8.6,-0.24,0.95,2.0
1758074980.53668,1758074980.54008,0.0,0.0,0.0,24.80907,-37.24226,3.83882,8.6,-0.24,0.95,2.0
1758074980.53764,1758074980.55008,0.0,0.0,0.0,24.63719,-45.60744,4.1253,8.17,-0.44,1.74,2.0
1758074980.55274,1758074980.56008,0.0,0.0,0.0,23.94964,-50.99325,7.50575,10.55,-0.47,4.53,2.0
1758074980.55366,1758074980.57008,0.0,0.0,0.0,21.60051,-53.28508,13.98017,10.55,-0.47,4.53,2.0
1758074980.56877,1758074980.58008,0.0,0.0,0.0,17.6471,-55.6342,21.7151,14.91,0.44,6.14,2.0
1758074980.58476,1758074980.59008,0.0,0.0,0.0,13.69369,-65.71826,36.61201,14.91,0.44,6.14,2.0
1758074980.58573,1758074980.60008,0.0,0.0,0.0,13.23533,-69.67168,43.60209,14.88,1.55,4.33,2.0
1758074980.60077,1758074980.61008,0.0,0.0,0.0,14.32395,-68.12468,45.55015,14.88,1.55,4.33,2.0
1758074980.61652,1758074980.62008,0.0,0.0,0.0,15.41257,-61.30648,42.51347,10.08,0.87,1.37,2.0
1758074980.61765,1758074980.63008,0.0,0.0,0.0,16.10011,-52.884,32.14294,5.96,-0.25,1.08,2.0
1758074980.63278,1758074980.64008,0.0,0.0,0.0,14.38124,-45.14908,21.7724,5.96,-0.25,1.08,2.0
1758074980.63368,1758074980.65008,0.0,0.0,0.0,13.80828,-34.77854,12.14671,5.3,-0.15,1.4,2.0
1758074980.64853,1758074980.66008,0.0,0.0,0.0,13.40721,-20.74107,2.86479,5.3,-0.15,1.4,2.0
1758074980.6647,1758074980.67008,0.0,0.0,0.0,14.43854,0.74485,-4.52637,7.08,0.41,0.73,2.0
1758074980.66566,1758074980.68008,0.0,0.0,0.0,15.29797,16.21471,-5.72958,7.08,0.41,0.73,2.0
1758074980.68072,1758074980.69008,0.0,0.0,0.0,15.58445,31.97105,-3.49504,9.98,0.88,-0.13,2.0
1758074980.69666,1758074980.70008,0.0,0.0,0.0,14.43854,52.25375,2.92208,9.98,0.88,-0.13,2.0
1758074980.6977,1758074980.71008,0.0,0.0,0.0,12.77696,61.70755,7.96411,11.66,0.61,-0.78,2.0
1758074980.71252,1758074980.72008,0.0,0.0,0.0,9.85487,69.84356,12.49048,11.67,0.14,-1.37,2.0
1758074980.71367,1758074980.73008,0.0,0.0,0.0,6.24524,73.05212,17.47521,11.67,0.14,-1.37,2.0
1758074980.72859,1758074980.74008,0.0,0.0,0.0,-0.17189,79.18277,18.27736,11.67,-0.24,-1.33,2.0
1758074980.74483,1758074980.75008,0.0,0.0,0.0,-3.60963,82.67782,16.38659,11.67,-0.24,-1.33,2.0
1758074980.74569,1758074980.76008,0.0,0.0,0.0,-4.52637,86.975,10.54242,11.24,-0.24,-0.78,2.0
1758074980.76083,1758074980.77008,0.0,0.0,0.0,-4.46907,89.55331,4.29718,11.24,-0.24,-0.78,2.0
1758074980.77655,1758074980.78008,0.0,0.0,0.0,-1.66158,88.00632,-5.15662,11.22,0.06,-0.16,2.0
1758074980.7777,1758074980.79008,0.0,0.0,0.0,1.3751,83.02158,-9.4538,10.95,0.08,0.5,2.0
1758074980.79278,1758074980.80008,0.0,0.0,0.0,5.15662,73.3959,-11.91752,10.95,0.08,0.5,2.0
1758074980.7937,1758074980.81008,0.0,0.0,0.0,8.59437,63.77021,-13.80828,9.77,-0.28,0.51,2.0
1758074980.80879,1758074980.82008,0.0,0.0,0.0,13.00614,53.68615,-12.08941,9.77,-0.28,0.51,2.0
1758074980.8248,1758074980.83008,0.0,0.0,0.0,14.78231,46.75336,-9.22462,9.53,-0.33,0.75,2.0
1758074980.82574,1758074980.84008,0.0,0.0,0.0,15.75634,36.89849,-6.8182,9.53,-0.33,0.75,2.0
1758074980.84081,1758074980.85008,0.0,0.0,0.0,16.3293,35.12231,-3.72423,8.92,-0.27,1.25,2.0
1758074980.85658,1758074980.86008,0.0,0.0,0.0,14.66772,52.08187,-4.98473,10.79,0.11,1.55,2.0
1758074980.85772,1758074980.87008,0.0,0.0,0.0,13.69369,62.68159,-3.83882,10.79,0.11,1.55,2.0
1758074980.87338,1758074980.88008,0.0,0.0,0.0,11.45916,59.07195,-4.29718,10.17,0.53,2.17,2.0
1758074980.87487,1758074980.89008,0.0,0.0,0.0,11.63104,33.11696,-5.21392,10.17,0.53,2.17,2.0
1758074980.88956,1758074980.90008,0.0,0.0,0.0,10.02676,0.22918,-7.16197,7.74,0.88,2.31,2.0
1758074980.90555,1758074980.91008,0.0,0.0,0.0,7.96411,-11.57375,-8.136,7.74,0.88,2.31,2.0
1758074980.90677,1758074980.92008,0.0,0.0,0.0,5.4431,-16.3293,-9.39651,9.15,1.36,1.6,2.0
1758074980.92189,1758074980.93008,0.0,0.0,0.0,1.20321,-13.69369,-9.33921,9.15,1.36,1.6,2.0
1758074980.92303,1758074980.94008,0.0,0.0,0.0,-2.11994,-9.85487,-9.4538,10.54,1.4,2.21,2.0
1758074980.93887,1758074980.95008,0.0,0.0,0.0,-5.32851,-9.11003,-9.39651,11.16,1.28,2.33,2.0
1758074980.95487,1758074980.96008,0.0,0.0,0.0,-7.67763,-10.65701,-9.05273,11.16,1.28,2.33,2.0
1758074980.95609,1758074980.97008,0.0,0.0,0.0,-10.48513,-13.5791,-7.33386,10.99,1.18,1.72,2.0
1758074980.97093,1758074980.98008,0.0,0.0,0.0,-12.204,-17.6471,-6.47442,10.99,1.18,1.72,2.0
1758074980.97259,1758074980.99008,0.0,0.0,0.0,-13.46451,-22.51724,-4.87014,10.46,1.01,0.91,2.0
1758074980.9889,1758074981.00008,0.0,0.0,0.0,-14.61043,-27.2155,-3.89611,10.46,1.01,0.91,2.0
1758074981.00489,1758074981.01008,0.0,0.0,0.0,-16.84496,-35.3515,-2.29183,9.8,0.83,0.48,2.0
1758074981.00581,1758074981.02008,0.0,0.0,0.0,-18.44924,-42.22699,-1.3751,8.88,0.75,0.01,2.0
1758074981.02062,1758074981.03008,0.0,0.0,0.0,-19.99623,-49.04519,-0.0573,8.88,0.75,0.01,2.0
1758074981.0369,1758074981.04008,0.0,0.0,0.0,-21.6578,-57.23849,0.80214,7.79,0.78,-0.27,2.0
1758074981.03776,1758074981.05008,0.0,0.0,0.0,-24.29341,-73.51049,2.57831,7.79,0.78,-0.27,2.0
1758074981.0529,1758074981.06008,0.0,0.0,0.0,-25.55392,-88.17821,2.6929,6.16,0.89,-0.48,2.0
1758074981.05382,1758074981.07008,0.0,0.0,0.0,-25.21014,-109.49224,0.97403,6.16,0.89,-0.48,2.0
1758074981.06891,1758074981.08008,0.0,0.0,0.0,-22.51724,-141.34869,-12.54778,5.61,1.21,3.3,2.0
1758074981.08493,1758074981.09008,0.0,0.0,0.0,-16.90226,-178.87743,-32.71589,12.27,0.62,8.69,2.0
1758074981.0859,1758074981.10008,0.0,0.0,0.0,-13.06344,-183.2319,-53.74345,12.27,0.62,8.69,2.0
1758074981.10067,1758074981.11008,0.0,0.0,0.0,-10.02676,-174.92403,-68.98412,16.14,-2.32,3.76,2.0
1758074981.11671,1758074981.12008,0.0,0.0,0.0,-5.84417,-149.71388,-77.17742,16.14,-2.32,3.76,2.0
1758074981.11784,1758074981.13008,0.0,0.0,0.0,-2.86479,-131.8376,-76.83365,9.08,-2.84,1.07,2.0
1758074981.13298,1758074981.14008,0.0,0.0,0.0,-1.20321,-114.1905,-72.19269,9.08,-2.84,1.07,2.0
1758074981.13386,1758074981.15008,0.0,0.0,0.0,1.20321,-97.86119,-61.1346,5.72,-2.63,1.74,2.0
1758074981.14895,1758074981.16008,0.0,0.0,0.0,6.7609,-57.58226,-36.84119,10.43,-2.63,2.36,2.0
1758074981.16468,1758074981.17008,0.0,0.0,0.0,13.40721,-31.28349,-19.19409,10.43,-1.67,2.36,2.0
1758074981.16585,1758074981.18008,0.0,0.0,0.0,21.08485,-10.19865,-4.1253,12.44,1.0,0.77,2.0
1758074981.18091,1758074981.19008,0.0,0.0,0.0,27.38738,9.22462,7.96411,12.44,1.0,0.77,2.0
1758074981.19678,1758074981.20008,0.0,0.0,0.0,31.56997,30.93972,19.19409,12.39,2.28,-0.11,2.0
1758074981.19792,1758074981.21008,0.0,0.0,0.0,31.51268,47.32632,23.0902,12.39,2.28,-0.11,2.0
1758074981.21309,1758074981.22008,0.0,0.0,0.0,30.30947,63.25455,25.8404,13.18,2.09,-0.84,2.0
1758074981.2139,1758074981.23008,0.0,0.0,0.0,28.476,77.63579,26.87172,13.18,2.09,-0.84,2.0
1758074981.22898,1758074981.24008,0.0,0.0,0.0,24.4653,93.56402,25.26744,12.85,1.78,-0.81,2.0
1758074981.24502,1758074981.25008,0.0,0.0,0.0,21.7151,101.18435,23.31938,11.58,1.05,-0.6,2.0
1758074981.24591,1758074981.26008,0.0,0.0,0.0,18.62113,106.97123,20.79837,11.58,1.05,-0.6,2.0
1758074981.2608,1758074981.27008,0.0,0.0,0.0,15.58445,110.17979,16.3293,10.69,0.25,-0.04,2.0
1758074981.27691,1758074981.28008,0.0,0.0,0.0,10.8862,109.66413,13.80828,10.69,0.25,-0.04,2.0
1758074981.27827,1758074981.29008,0.0,0.0,0.0,8.42248,107.08582,11.74564,9.93,-0.31,0.61,2.0
1758074981.29302,1758074981.30008,0.0,0.0,0.0,6.70361,103.07512,9.96947,9.93,-0.31,0.61,2.0
1758074981.29388,1758074981.31008,0.0,0.0,0.0,5.32851,95.62666,8.93814,9.43,-0.61,1.07,2.0
1758074981.30876,1758074981.32008,0.0,0.0,0.0,5.61499,88.40739,9.22462,9.0,-0.6,1.27,2.0
1758074981.32501,1758074981.33008,0.0,0.0,0.0,6.53172,80.04221,9.96947,9.0,-0.6,1.27,2.0
1758074981.32633,1758074981.34008,0.0,0.0,0.0,8.30789,67.78091,11.11538,8.42,-0.44,1.29,2.0
1758074981.34101,1758074981.35008,0.0,0.0,0.0,10.19865,41.25296,12.49048,8.42,-0.44,1.29,2.0
1758074981.35701,1758074981.36008,0.0,0.0,0.0,11.91752,29.96569,12.54778,7.77,-0.11,1.02,2.0
1758074981.3579,1758074981.37008,0.0,0.0,0.0,13.46451,30.53865,13.06344,7.77,-0.11,1.02,2.0
1758074981.37303,1758074981.38008,0.0,0.0,0.0,15.98552,34.32018,15.12609,9.49,0.14,1.24,2.0
1758074981.37394,1758074981.39008,0.0,0.0,0.0,18.27736,36.6693,17.13144,9.83,0.17,1.34,2.0
1758074981.38904,1758074981.40008,0.0,0.0,0.0,18.62113,34.26288,17.6471,9.83,0.17,1.34,2.0
1758074981.40506,1758074981.41008,0.0,0.0,0.0,17.76169,33.11696,16.50119,9.51,0.21,1.28,2.0
1758074981.40597,1758074981.42008,0.0,0.0,0.0,16.3293,29.10626,14.9542,9.51,0.21,1.28,2.0
1758074981.42075,1758074981.43008,0.0,0.0,0.0,13.06344,24.63719,12.49048,9.34,0.2,0.93,2.0
1758074981.43687,1758074981.44008,0.0,0.0,0.0,10.71431,19.82434,10.02676,9.34,0.2,0.93,2.0
1758074981.43796,1758074981.45008,0.0,0.0,0.0,9.05273,8.0787,7.50575,9.15,0.26,1.23,2.0
1758074981.45303,1758074981.46008,0.0,0.0,0.0,7.96411,-14.09476,8.02141,9.15,0.26,1.23,2.0
1758074981.45441,1758074981.47008,0.0,0.0,0.0,5.32851,-33.51803,8.59437,7.87,0.18,0.53,2.0
1758074981.46907,1758074981.48008,0.0,0.0,0.0,3.95341,-39.19032,11.17268,9.14,-0.11,0.59,2.0
1758074981.48502,1758074981.49008,0.0,0.0,0.0,3.83882,-41.02378,14.43854,9.14,-0.11,0.59,2.0
1758074981.48634,1758074981.50008,0.0,0.0,0.0,3.26586,-42.51347,17.87628,9.73,-0.34,0.35,2.0
1758074981.50188,1758074981.51008,0.0,0.0,0.0,2.97938,-40.45082,18.9649,9.73,-0.34,0.35,2.0
1758074981.50279,1758074981.52008,0.0,0.0,0.0,2.6929,-40.7373,17.53251,9.58,-0.52,0.63,2.0
1758074981.51883,1758074981.53008,0.0,0.0,0.0,3.26586,-42.91454,14.72501,9.58,-0.52,0.63,2.0
1758074981.53483,1758074981.54008,0.0,0.0,0.0,4.52637,-45.20637,8.36518,8.62,-0.57,0.49,2.0
1758074981.53628,1758074981.55008,0.0,0.0,0.0,6.41713,-45.55015,3.55234,8.33,-0.84,0.5,2.0
1758074981.55084,1758074981.56008,0.0,0.0,0.0,9.28192,-46.35228,-0.97403,8.33,-0.84,0.5,2.0
1758074981.56715,1758074981.57008,0.0,0.0,0.0,12.43318,-48.30034,-4.98473,8.55,-1.2,1.01,2.0
1758074981.56833,1758074981.58008,0.0,0.0,0.0,16.04282,-56.952,-6.13065,8.55,-1.2,1.01,2.0
1758074981.58312,1758074981.59008,0.0,0.0,0.0,16.84496,-66.29122,-2.97938,11.22,-1.22,4.43,2.0
1758074981.584,1758074981.60008,0.0,0.0,0.0,16.84496,-77.4639,4.69825,11.22,-1.22,4.43,2.0
1758074981.59912,1758074981.61008,0.0,0.0,0.0,15.12609,-94.36616,15.41257,14.64,-0.47,5.24,2.0
1758074981.61482,1758074981.62008,0.0,0.0,0.0,13.23533,-116.13856,32.14294,12.26,0.07,4.35,2.0
1758074981.61628,1758074981.63008,0.0,0.0,0.0,12.43318,-122.44108,39.4768,12.26,0.07,4.35,2.0
1758074981.63093,1758074981.64008,0.0,0.0,0.0,12.37589,-122.89946,43.02913,8.47,0.03,3.62,2.0
1758074981.64707,1758074981.65008,0.0,0.0,0.0,11.80293,-115.451,42.91454,8.47,0.03,3.62,2.0
1758074981.64831,1758074981.66008,0.0,0.0,0.0,7.73493,-88.80846,36.89849,7.83,0.7,2.84,2.0
1758074981.66313,1758074981.67008,0.0,0.0,0.0,3.95341,-65.2026,30.76784,7.83,0.7,2.84,2.0
1758074981.66432,1758074981.68008,0.0,0.0,0.0,1.20321,-40.50812,25.49662,8.05,1.15,1.52,2.0
1758074981.67913,1758074981.69008,0.0,0.0,0.0,-2.23454,-20.45459,16.55848,8.05,1.15,1.52,2.0
1758074981.69526,1758074981.70008,0.0,0.0,0.0,-5.27121,6.8182,10.54242,8.4,0.98,0.39,2.0
1758074981.69601,1758074981.71008,0.0,0.0,0.0,-8.93814,26.06958,5.21392,11.54,0.12,0.16,2.0
1758074981.71112,1758074981.72008,0.0,0.0,0.0,-10.8862,40.33623,2.57831,11.54,0.12,0.16,2.0
1758074981.72682,1758074981.73008,0.0,0.0,0.0,-12.77696,59.53032,0.80214,12.68,-0.85,-0.84,2.0
1758074981.72839,1758074981.74008,0.0,0.0,0.0,-13.06344,71.10406,1.3178,12.68,-0.85,-0.84,2.0
1758074981.74281,1758074981.75008,0.0,0.0,0.0,-13.00614,80.55787,1.66158,12.95,-1.39,-0.65,2.0
1758074981.74467,1758074981.76008,0.0,0.0,0.0,-11.97482,84.91235,3.20856,12.95,-1.39,-0.65,2.0
1758074981.75934,1758074981.77008,0.0,0.0,0.0,-11.45916,86.28745,3.55234,11.98,-1.14,0.07,2.0
1758074981.77512,1758074981.78008,0.0,0.0,0.0,-11.22997,83.65184,2.40642,11.08,-0.39,0.58,2.0
1758074981.77647,1758074981.79008,0.0,0.0,0.0,-10.8862,79.64114,-0.68755,11.08,-0.39,0.58,2.0
1758074981.79114,1758074981.80008,0.0,0.0,0.0,-10.02676,74.31263,-4.58366,10.56,0.23,1.0,2.0
1758074981.80714,1758074981.81008,0.0,0.0,0.0,-8.42248,65.37449,-9.85487,10.56,0.23,1.0,2.0
1758074981.80809,1758074981.82008,0.0,0.0,0.0,-6.70361,57.0093,-12.14671,9.97,0.33,1.22,2.0
1758074981.82315,1758074981.83008,0.0,0.0,0.0,-4.87014,44.8053,-13.40721,9.97,0.33,1.22,2.0
1758074981.82436,1758074981.84008,0.0,0.0,0.0,-2.86479,31.85646,-13.34992,8.59,0.1,1.27,2.0
1758074981.83912,1758074981.85008,0.0,0.0,0.0,-0.74485,15.46986,-12.14671,7.87,-0.17,1.2,2.0
1758074981.85516,1758074981.86008,0.0,0.0,0.0,-0.85944,6.35983,-10.65701,7.87,-0.17,1.2,2.0
1758074981.85635,1758074981.87008,0.0,0.0,0.0,-1.60428,-0.97403,-9.28192,8.2,-0.05,1.35,2.0
1758074981.87118,1758074981.88008,0.0,0.0,0.0,-2.97938,-1.20321,-8.136,8.2,-0.05,1.35,2.0
1758074981.88717,1758074981.89008,0.0,0.0,0.0,-6.58902,20.11082,-9.5684,10.08,0.21,1.62,2.0
1758074981.88851,1758074981.90008,0.0,0.0,0.0,-9.28192,39.76327,-11.97482,10.08,0.21,1.62,2.0
1758074981.90318,1758074981.91008,0.0,0.0,0.0,-11.22997,44.86259,-13.12073,11.07,0.4,1.69,2.0
1758074981.90411,1758074981.92008,0.0,0.0,0.0,-12.43318,17.81899,-14.9542,11.07,0.4,1.69,2.0
1758074981.91893,1758074981.93008,0.0,0.0,0.0,-13.40721,0.40107,-16.50119,8.12,0.37,1.6,2.0
1758074981.93516,1758074981.94008,0.0,0.0,0.0,-14.78231,-10.8289,-18.22006,8.62,0.45,1.15,2.0
1758074981.93614,1758074981.95008,0.0,0.0,0.0,-16.38659,-13.80828,-18.90761,8.62,0.45,1.15,2.0
1758074981.95088,1758074981.96008,0.0,0.0,0.0,-18.22006,-8.36518,-17.47521,9.95,0.42,0.71,2.0
1758074981.96716,1758074981.97008,0.0,0.0,0.0,-18.90761,-2.11994,-16.04282,9.95,0.42,0.71,2.0
1758074981.96813,1758074981.98008,0.0,0.0,0.0,-19.42327,0.57296,-13.98017,10.93,0.17,0.91,2.0
1758074981.98318,1758074981.99008,0.0,0.0,0.0,-19.36597,0.80214,-11.45916,10.93,0.17,0.91,2.0
1758074981.9845,1758074982.00008,0.0,0.0,0.0,-19.13679,0.40107,-7.79223,10.73,0.03,0.44,2.0
1758074981.999,1758074982.01008,0.0,0.0,0.0,-18.85031,-0.45837,-5.55769,10.57,0.01,0.18,2.0
1758074982.01493,1758074982.02008,0.0,0.0,0.0,-18.44924,-2.00535,-3.55234,10.57,0.01,0.18,2.0
1758074982.01611,1758074982.03008,0.0,0.0,0.0,-17.93358,-4.18259,-1.71887,10.03,0.0,-0.13,2.0
1758074982.03101,1758074982.04008,0.0,0.0,0.0,-16.95955,-9.11003,0.11459,10.03,0.0,-0.13,2.0
1758074982.0474,1758074982.05008,0.0,0.0,0.0,-16.10011,-13.12073,0.85944,9.47,0.0,-0.41,2.0
1758074982.04815,1758074982.06008,0.0,0.0,0.0,-15.35527,-18.33465,1.43239,9.47,0.0,-0.41,2.0
1758074982.06293,1758074982.07008,0.0,0.0,0.0,-14.03747,-26.01229,1.83346,8.86,0.01,-0.66,2.0
1758074982.06455,1758074982.08008,0.0,0.0,0.0,-12.60507,-37.18496,1.66158,8.23,0.04,-0.54,2.0
1758074982.07896,1758074982.09008,0.0,0.0,0.0,-11.57375,-44.63341,0.85944,8.23,0.04,-0.54,2.0
1758074982.0952,1758074982.10008,0.0,0.0,0.0,-8.99544,-56.66553,-0.57296,8.49,0.1,2.44,2.0
1758074982.09639,1758074982.11008,0.0,0.0,0.0,-2.63561,-94.07968,-10.8289,8.49,0.1,2.44,2.0
1758074982.11118,1758074982.12008,0.0,0.0,0.0,2.34913,-116.13856,-23.37668,11.64,-0.4,6.74,2.0
1758074982.12702,1758074982.13008,0.0,0.0,0.0,5.78687,-134.24402,-39.4768,11.64,-0.4,6.74,2.0
1758074982.12859,1758074982.14008,0.0,0.0,0.0,8.25059,-134.5305,-50.93595,15.37,-2.38,4.89,2.0
1758074982.14322,1758074982.15008,0.0,0.0,0.0,9.22462,-123.7016,-57.92604,15.37,-2.38,4.89,2.0
1758074982.14416,1758074982.16008,0.0,0.0,0.0,9.22462,-116.42503,-58.21251,9.81,-2.16,2.15,2.0
1758074982.15935,1758074982.17008,0.0,0.0,0.0,9.33921,-104.45021,-55.57691,5.75,-1.3,2.19,2.0
1758074982.17526,1758074982.18008,0.0,0.0,0.0,9.33921,-87.66255,-50.76406,5.75,-1.3,2.19,2.0
1758074982.17617,1758074982.19008,0.0,0.0,0.0,8.36518,-58.90006,-37.24226,7.5,-0.4,2.42,2.0
1758074982.19126,1758074982.20008,0.0,0.0,0.0,8.42248,-36.03905,-24.35071,7.5,-0.4,2.42,2.0
1758074982.19322,1758074982.21008,0.0,0.0,0.0,9.33921,-13.46451,-10.8289,10.61,0.53,1.86,2.0
1758074982.20924,1758074982.22008,0.0,0.0,0.0,10.25595,6.87549,1.03132,10.61,0.53,1.86,2.0
1758074982.22523,1758074982.23008,0.0,0.0,0.0,11.86023,34.0337,11.74564,12.01,1.12,0.2,2.0
1758074982.22645,1758074982.24008,0.0,0.0,0.0,11.91752,49.61814,15.0115,12.75,1.47,-1.1,2.0
1758074982.2412,1758074982.25008,0.0,0.0,0.0,10.8289,63.02536,15.92823,12.75,1.47,-1.1,2.0
1758074982.25724,1758074982.26008,0.0,0.0,0.0,9.28192,74.14074,15.12609,11.91,1.2,-1.32,2.0
1758074982.25845,1758074982.27008,0.0,0.0,0.0,6.70361,87.77714,11.11538,11.91,1.2,-1.32,2.0
1758074982.27329,1758074982.28008,0.0,0.0,0.0,5.55769,95.56937,7.62034,11.08,0.55,-0.25,2.0
1758074982.27449,1758074982.29008,0.0,0.0,0.0,4.92744,101.9865,4.1253,11.08,0.55,-0.25,2.0
1758074982.28937,1758074982.30008,0.0,0.0,0.0,5.4431,106.68475,0.34377,10.78,-0.26,0.48,2.0
1758074982.30537,1758074982.31008,0.0,0.0,0.0,6.70361,108.86199,-0.74485,10.43,-0.84,1.07,2.0
1758074982.3062,1758074982.32008,0.0,0.0,0.0,8.65166,108.00255,-0.34377,10.43,-0.84,1.07,2.0
1758074982.32127,1758074982.33008,0.0,0.0,0.0,10.25595,106.28368,0.80214,10.02,-1.04,1.09,2.0
1758074982.3373,1758074982.34008,0.0,0.0,0.0,13.00614,101.41353,3.72423,10.02,-1.04,1.09,2.0
1758074982.33821,1758074982.35008,0.0,0.0,0.0,14.32395,96.14232,5.95876,9.68,-0.9,1.34,2.0
1758074982.35333,1758074982.36008,0.0,0.0,0.0,15.46986,89.43871,8.70896,9.68,-0.9,1.34,2.0
1758074982.35428,1758074982.37008,0.0,0.0,0.0,16.55848,81.5319,11.34457,9.24,-0.56,1.43,2.0
1758074982.3693,1758074982.38008,0.0,0.0,0.0,17.13144,64.85883,15.06879,8.56,-0.56,1.45,2.0
1758074982.38512,1758074982.39008,0.0,0.0,0.0,15.98552,48.30034,16.67307,8.56,-0.25,1.45,2.0
1758074982.38663,1758074982.40008,0.0,0.0,0.0,14.72501,35.92446,17.13144,7.72,-0.02,1.45,2.0
1758074982.40103,1758074982.41008,0.0,0.0,0.0,13.69369,30.25217,17.13144,7.72,-0.02,1.45,2.0
1758074982.41704,1758074982.42008,0.0,0.0,0.0,11.74564,33.17426,16.38659,8.81,0.06,1.66,2.0
1758074982.41827,1758074982.43008,0.0,0.0,0.0,10.71431,34.49206,15.75634,8.81,0.06,1.66,2.0
1758074982.43386,1758074982.44008,0.0,0.0,0.0,9.33921,31.28349,14.83961,9.1,0.05,1.86,2.0
1758074982.43537,1758074982.45008,0.0,0.0,0.0,7.39116,27.10091,13.5791,9.1,0.05,1.86,2.0
1758074982.45007,1758074982.46008,0.0,0.0,0.0,2.6929,23.49127,8.136,8.84,0.14,2.12,2.0
1758074982.4673,1758074982.47008,0.0,0.0,0.0,0.11459,20.16812,4.52637,9.01,0.33,1.75,2.0
1758074982.4683,1758074982.48008,0.0,0.0,0.0,-2.57831,15.12609,0.0,9.01,0.33,1.75,2.0
1758074982.48317,1758074982.49008,0.0,0.0,0.0,-3.83882,3.32316,-6.7609,8.22,0.39,1.63,2.0
1758074982.4846,1758074982.50008,0.0,0.0,0.0,-5.27121,-33.11696,-7.84952,8.22,0.39,1.63,2.0
1758074982.49931,1758074982.51008,0.0,0.0,0.0,-6.07335,-50.64947,-4.81285,7.04,-0.05,0.37,2.0
1758074982.51506,1758074982.52008,0.0,0.0,0.0,-7.50575,-51.85268,-1.77617,7.04,-0.05,0.37,2.0
1758074982.51632,1758074982.53008,0.0,0.0,0.0,-7.79223,-47.72739,1.48969,9.76,-0.57,0.91,2.0
1758074982.53118,1758074982.54008,0.0,0.0,0.0,-8.42248,-45.83662,2.23454,9.98,-0.91,0.72,2.0
1758074982.54729,1758074982.55008,0.0,0.0,0.0,-9.33921,-45.77933,1.83346,9.98,-0.91,0.72,2.0
1758074982.5483,1758074982.56008,0.0,0.0,0.0,-11.11538,-44.8053,0.0573,9.72,-0.8,0.55,2.0
1758074982.56333,1758074982.57008,0.0,0.0,0.0,-13.5791,-44.23235,-4.87014,9.72,-0.8,0.55,2.0
1758074982.56456,1758074982.58008,0.0,0.0,0.0,-15.35527,-44.40423,-8.65166,9.12,-0.46,0.16,2.0
1758074982.57918,1758074982.59008,0.0,0.0,0.0,-18.16276,-45.20637,-12.14671,9.12,-0.46,0.16,2.0
1758074982.5951,1758074982.60008,0.0,0.0,0.0,-22.74642,-49.21708,-13.86558,9.3,-0.1,1.74,2.0
1758074982.59632,1758074982.61008,0.0,0.0,0.0,-31.85646,-62.68159,-9.62569,12.87,0.85,5.06,2.0
1758074982.61136,1758074982.62008,0.0,0.0,0.0,-37.18496,-68.92683,0.45837,12.87,0.85,5.06,2.0
1758074982.62736,1758074982.63008,0.0,0.0,0.0,-42.97184,-76.60446,10.02676,16.24,2.32,3.68,2.0
1758074982.62856,1758074982.64008,0.0,0.0,0.0,-46.06581,-83.76643,19.42327,16.24,2.32,3.68,2.0
1758074982.6433,1758074982.65008,0.0,0.0,0.0,-47.15443,-77.29202,24.00693,11.7,1.28,1.26,2.0
1758074982.64431,1758074982.66008,0.0,0.0,0.0,-46.40959,-70.76029,23.89234,11.7,1.28,1.26,2.0
1758074982.65937,1758074982.67008,0.0,0.0,0.0,-45.09178,-65.48907,21.02755,6.93,-0.29,1.6,2.0
1758074982.67515,1758074982.68008,0.0,0.0,0.0,-43.20102,-59.35843,16.21471,6.93,-0.29,1.6,2.0
1758074982.67683,1758074982.69008,0.0,0.0,0.0,-40.04975,-49.27437,8.93814,5.46,-0.5,3.32,2.0
1758074982.69145,1758074982.70008,0.0,0.0,0.0,-37.64333,-39.07573,5.61499,7.93,-0.59,3.64,2.0
1758074982.70736,1758074982.71008,0.0,0.0,0.0,-35.52338,-26.87172,5.09932,7.93,-0.59,3.64,2.0
1758074982.70862,1758074982.72008,0.0,0.0,0.0,-30.99702,-8.42248,6.41713,10.38,-0.86,2.44,2.0
1758074982.7234,1758074982.73008,0.0,0.0,0.0,-27.50197,4.0107,7.50575,10.38,-0.86,2.44,2.0
1758074982.72472,1758074982.74008,0.0,0.0,0.0,-24.92367,19.42327,8.70896,10.8,-0.61,0.82,2.0
1758074982.73943,1758074982.75008,0.0,0.0,0.0,-24.00693,33.80451,8.93814,10.8,-0.61,0.82,2.0
1758074982.75546,1758074982.76008,0.0,0.0,0.0,-24.86637,50.87865,9.05273,11.2,-0.32,-0.3,2.0
1758074982.75637,1758074982.77008,0.0,0.0,0.0,-25.72581,62.22322,9.85487,11.55,-0.38,-0.65,2.0
1758074982.77145,1758074982.78008,0.0,0.0,0.0,-26.64254,72.07809,9.68299,11.55,-0.38,-0.65,2.0
1758074982.78744,1758074982.79008,0.0,0.0,0.0,-27.04361,78.7244,9.39651,11.49,-0.79,0.01,2.0
1758074982.78839,1758074982.80008,0.0,0.0,0.0,-27.44468,83.02158,8.0787,11.49,-0.79,0.01,2.0
1758074982.80337,1758074982.81008,0.0,0.0,0.0,-27.50197,79.35466,6.58902,11.08,-0.64,0.47,2.0
1758074982.80462,1758074982.82008,0.0,0.0,0.0,-28.87707,75.85962,2.97938,11.08,-0.64,0.47,2.0
1758074982.81915,1758074982.83008,0.0,0.0,0.0,-29.8511,69.78626,-1.60428,10.57,-0.12,0.85,2.0
1758074982.83541,1758074982.84008,0.0,0.0,0.0,-29.56462,60.90542,-10.8289,10.02,0.19,0.9,2.0
1758074982.83675,1758074982.85008,0.0,0.0,0.0,-28.41871,55.00395,-16.95955,10.02,0.19,0.9,2.0
1758074982.85148,1758074982.86008,0.0,0.0,0.0,-26.81443,48.58683,-22.11617,9.37,0.0,1.02,2.0
1758074982.86752,1758074982.87008,0.0,0.0,0.0,-24.5226,42.28429,-26.35606,9.37,0.0,1.02,2.0
1758074982.8684,1758074982.88008,0.0,0.0,0.0,-20.16812,31.16891,-29.22085,8.9,-0.37,1.12,2.0
1758074982.88323,1758074982.89008,0.0,0.0,0.0,-16.73037,21.42862,-29.04896,8.9,-0.37,1.12,2.0
1758074982.88471,1758074982.90008,0.0,0.0,0.0,-13.23533,12.83425,-27.50197,8.4,-0.85,0.76,2.0
1758074982.89954,1758074982.91008,0.0,0.0,0.0,-8.30789,4.98473,-23.0329,8.4,-0.85,0.76,2.0
1758074982.91559,1758074982.92008,0.0,0.0,0.0,-5.61499,-5.09932,-19.42327,8.5,-0.99,0.94,2.0
1758074982.91644,1758074982.93008,0.0,0.0,0.0,-3.72423,-10.25595,-15.58445,8.99,-0.96,1.34,2.0
1758074982.93134,1758074982.94008,0.0,0.0,0.0,-3.66693,-5.84417,-9.96947,8.99,-0.96,1.34,2.0
1758074982.94744,1758074982.95008,0.0,0.0,0.0,-5.21392,29.04896,-8.65166,11.6,-0.4,1.62,2.0
1758074982.94863,1758074982.96008,0.0,0.0,0.0,-6.99009,50.87865,-8.136,11.6,-0.4,1.62,2.0
1758074982.9635,1758074982.97008,0.0,0.0,0.0,-7.73493,52.884,-6.70361,12.12,0.12,1.7,2.0
1758074982.96444,1758074982.98008,0.0,0.0,0.0,-8.93814,27.96034,-8.36518,12.12,0.12,1.7,2.0
1758074982.97938,1758074982.99008,0.0,0.0,0.0,-11.11538,1.03132,-11.00079,8.45,0.49,1.62,2.0
1758074982.9955,1758074983.00008,0.0,0.0,0.0,-12.89155,-11.74564,-13.34992,9.52,0.8,0.3,2.0
1758074982.99645,1758074983.01008,0.0,0.0,0.0,-15.0115,-17.58981,-15.06879,9.52,0.8,0.3,2.0
1758074983.0115,1758074983.02008,0.0,0.0,0.0,-17.13144,-18.79302,-15.06879,10.14,0.82,-0.17,2.0
1758074983.02754,1758074983.03008,0.0,0.0,0.0,-21.7151,-11.86023,-13.98017,10.14,0.82,-0.17,2.0
1758074983.0289,1758074983.04008,0.0,0.0,0.0,-24.92367,-10.02676,-12.37589,10.73,0.45,-0.43,2.0
1758074983.04326,1758074983.05008,0.0,0.0,0.0,-28.07493,-11.22997,-10.19865,10.73,0.45,-0.43,2.0
1758074983.04447,1758074983.06008,0.0,0.0,0.0,-30.76784,-14.78231,-7.96411,9.73,0.27,-0.92,2.0
1758074983.05926,1758074983.07008,0.0,0.0,0.0,-33.46074,-20.22541,-5.21392,9.17,0.24,-1.12,2.0
1758074983.07765,1758074983.08008,0.0,0.0,0.0,-34.49206,-23.37668,-3.60963,9.17,0.24,-1.12,2.0
1758074983.0807,1758074983.09008,0.0,0.0,0.0,-35.63798,-26.06958,-2.11994,8.81,0.23,-0.92,2.0
1758074983.09651,1758074983.10008,0.0,0.0,0.0,-35.92446,-30.48136,0.0,8.81,0.23,-0.92,2.0
1758074983.09747,1758074983.11008,0.0,0.0,0.0,-33.51803,-46.1804,0.97403,8.52,0.11,1.04,2.0
1758074983.11254,1758074983.12008,0.0,0.0,0.0,-29.62192,-67.26525,-0.57296,8.52,0.11,1.04,2.0
1758074983.11347,1758074983.13008,0.0,0.0,0.0,-23.89234,-86.74582,-8.36518,10.63,-0.62,4.85,2.0
1758074983.12955,1758074983.14008,0.0,0.0,0.0,-10.8289,-102.96053,-30.19488,10.63,-0.62,4.85,2.0
1758074983.14523,1758074983.15008,0.0,0.0,0.0,-2.57831,-103.1324,-41.42485,17.15,-3.35,7.56,2.0
1758074983.14649,1758074983.16008,0.0,0.0,0.0,2.57831,-100.95516,-45.09178,13.22,-3.67,2.82,2.0
1758074983.16158,1758074983.17008,0.0,0.0,0.0,4.46907,-99.00711,-43.31561,13.22,-3.67,2.82,2.0
1758074983.17759,1758074983.18008,0.0,0.0,0.0,7.39116,-97.8039,-36.38282,5.13,-1.91,2.48,2.0
1758074983.17848,1758074983.19008,0.0,0.0,0.0,11.45916,-92.13161,-34.26288,5.13,-1.91,2.48,2.0
1758074983.19353,1758074983.20008,0.0,0.0,0.0,14.78231,-79.06818,-34.09099,6.08,0.06,4.4,2.0
1758074983.19449,1758074983.21008,0.0,0.0,0.0,15.24068,-65.48907,-32.77319,6.08,0.06,4.4,2.0
1758074983.20936,1758074983.22008,0.0,0.0,0.0,10.8862,-47.44091,-25.38203,8.74,2.04,2.98,2.0
1758074983.22533,1758074983.23008,0.0,0.0,0.0,5.95876,-31.2262,-17.13144,10.67,2.98,1.24,2.0
1758074983.22647,1758074983.24008,0.0,0.0,0.0,0.40107,-11.74564,-8.136,10.67,2.98,1.24,2.0
1758074983.24132,1758074983.25008,0.0,0.0,0.0,-5.32851,6.58902,-0.57296,12.3,2.83,-0.27,2.0
1758074983.25733,1758074983.26008,0.0,0.0,0.0,-12.89155,32.48671,7.33386,12.3,2.83,-0.27,2.0
1758074983.25886,1758074983.27008,0.0,0.0,0.0,-17.36062,46.35228,9.91217,12.53,2.04,-0.65,2.0
1758074983.27358,1758074983.28008,0.0,0.0,0.0,-21.42862,55.34772,11.00079,12.53,2.04,-0.65,2.0
1758074983.27455,1758074983.29008,0.0,0.0,0.0,-25.8404,61.70755,9.96947,11.04,1.27,-0.91,2.0
1758074983.28959,1758074983.30008,0.0,0.0,0.0,-32.14294,70.76029,6.53172,10.43,0.75,-0.73,2.0
1758074983.3056,1758074983.31008,0.0,0.0,0.0,-36.26823,75.57314,2.40642,10.43,0.75,-0.73,2.0
1758074983.30681,1758074983.32008,0.0,0.0,0.0,-38.78925,78.43793,-1.3178,10.0,0.48,-0.05,2.0
1758074983.32162,1758074983.33008,0.0,0.0,0.0,-41.25296,78.38063,-6.87549,10.0,0.48,-0.05,2.0
1758074983.33762,1758074983.34008,0.0,0.0,0.0,-40.62271,76.89094,-9.4538,9.4,0.21,0.6,2.0
1758074983.33852,1758074983.35008,0.0,0.0,0.0,-38.44547,73.96885,-10.65701,9.4,0.21,0.6,2.0
1758074983.35337,1758074983.36008,0.0,0.0,0.0,-34.14828,69.38519,-10.08406,9.02,-0.26,0.85,2.0
1758074983.35509,1758074983.37008,0.0,0.0,0.0,-25.26744,61.99404,-6.13065,9.02,-0.26,0.85,2.0
1758074983.3696,1758074983.38008,0.0,0.0,0.0,-18.50654,59.24384,-1.71887,8.75,-0.94,0.76,2.0
1758074983.40652,1758074983.39008,0.0,0.0,0.0,-11.28727,57.12389,3.32316,8.99,-1.43,0.66,2.0
1758074983.40782,1758074983.40008,0.0,0.0,0.0,-4.35448,53.28508,8.30789,8.99,-1.43,0.66,2.0
1758074983.40816,1758074983.41008,0.0,0.0,0.0,4.69825,46.2377,15.06879,8.66,-1.65,0.8,2.0
1758074983.40932,1758074983.42008,0.0,0.0,0.0,9.22462,40.96649,18.44924,8.66,-1.65,0.8,2.0
1758074983.42437,1758074983.43008,0.0,0.0,0.0,12.83425,34.0337,20.62648,8.6,-1.56,1.01,2.0
1758074983.42633,1758074983.44008,0.0,0.0,0.0,15.24068,24.75178,21.25674,8.6,-1.56,1.01,2.0
1758074983.44138,1758074983.45008,0.0,0.0,0.0,16.10011,11.17268,18.33465,8.48,-1.22,1.24,2.0
1758074983.45764,1758074983.46008,0.0,0.0,0.0,17.76169,10.37054,16.38659,9.55,-0.82,1.15,2.0
1758074983.45884,1758074983.47008,0.0,0.0,0.0,18.33465,15.58445,13.5218,9.55,-0.82,1.15,2.0
1758074983.47362,1758074983.48008,0.0,0.0,0.0,19.53786,18.50654,12.204,10.63,-0.55,1.43,2.0
1758074983.47501,1758074983.49008,0.0,0.0,0.0,20.97026,20.68378,9.4538,10.63,-0.55,1.43,2.0
1758074983.48965,1758074983.50008,0.0,0.0,0.0,21.02755,22.51724,7.73493,10.58,-0.51,0.86,2.0
1758074983.50533,1758074983.51008,0.0,0.0,0.0,19.59516,21.6578,4.64096,10.58,-0.51,0.86,2.0
1758074983.50657,1758074983.52008,0.0,0.0,0.0,18.50654,17.87628,0.68755,10.44,-0.35,0.51,2.0
1758074983.52162,1758074983.53008,0.0,0.0,0.0,18.85031,2.7502,-0.74485,9.31,-0.33,-0.38,2.0
1758074983.53743,1758074983.54008,0.0,0.0,0.0,18.73572,-26.75713,-2.46372,9.31,-0.33,-0.38,2.0
1758074983.53853,1758074983.55008,0.0,0.0,0.0,19.42327,-47.67009,-2.63561,6.98,-0.67,-1.43,2.0
1758074983.55337,1758074983.56008,0.0,0.0,0.0,22.34536,-66.80688,5.4431,6.98,-0.67,-1.43,2.0
1758074983.55566,1758074983.57008,0.0,0.0,0.0,24.4653,-66.74959,8.136,8.85,-1.38,-1.46,2.0
1758074983.57072,1758074983.58008,0.0,0.0,0.0,26.75713,-69.04142,11.63104,8.85,-1.38,-1.46,2.0
1758074983.58663,1758074983.59008,0.0,0.0,0.0,26.47065,-82.67782,14.83961,9.34,-1.72,1.11,2.0
1758074983.58787,1758074983.60008,0.0,0.0,0.0,23.89234,-116.48232,27.78845,11.94,-1.72,6.63,2.0
1758074983.60261,1758074983.61008,0.0,0.0,0.0,19.99623,-128.17065,40.04975,11.94,-1.27,6.63,2.0
1758074983.60356,1758074983.62008,0.0,0.0,0.0,17.18874,-127.19663,51.27972,18.16,2.08,7.29,2.0
1758074983.61971,1758074983.63008,0.0,0.0,0.0,14.09476,-125.0194,59.24384,18.16,2.08,7.29,2.0
1758074983.63565,1758074983.64008,0.0,0.0,0.0,8.0787,-111.44029,60.90542,13.52,3.1,3.63,2.0
1758074983.63658,1758074983.65008,0.0,0.0,0.0,4.87014,-103.41889,59.98868,13.52,3.1,3.63,2.0
1758074983.65172,1758074983.66008,0.0,0.0,0.0,2.23454,-91.50137,55.97798,7.25,1.87,3.54,2.0
1758074983.66767,1758074983.67008,0.0,0.0,0.0,0.85944,-74.42722,49.38896,7.25,1.87,3.54,2.0
1758074983.66935,1758074983.68008,0.0,0.0,0.0,2.86479,-48.52953,36.84119,7.12,1.23,3.44,2.0
1758074983.68461,1758074983.69008,0.0,0.0,0.0,5.78687,-33.68992,25.89769,9.38,0.71,2.95,2.0
1758074983.68561,1758074983.70008,0.0,0.0,0.0,8.65166,-17.47521,13.5791,9.38,0.71,2.95,2.0
1758074983.70064,1758074983.71008,0.0,0.0,0.0,10.59972,0.85944,-1.03132,11.8,0.62,0.73,2.0
1758074983.71651,1758074983.72008,0.0,0.0,0.0,11.91752,30.02299,-6.99009,11.8,0.62,0.73,2.0
1758074983.71757,1758074983.73008,0.0,0.0,0.0,12.49048,50.1911,-11.45916,12.79,-0.07,-1.01,2.0
1758074983.73266,1758074983.74008,0.0,0.0,0.0,13.86558,72.13539,-13.17803,12.79,-0.07,-1.01,2.0
1758074983.73368,1758074983.75008,0.0,0.0,0.0,16.73037,92.4754,-14.72501,12.04,-1.22,-0.97,2.0
1758074983.74968,1758074983.76008,0.0,0.0,0.0,19.19409,96.5434,-14.03747,9.57,-1.39,-0.25,2.0
1758074983.76554,1758074983.77008,0.0,0.0,0.0,21.7724,95.28289,-11.34457,9.57,-1.39,-0.25,2.0
1758074983.76681,1758074983.78008,0.0,0.0,0.0,23.54857,90.81382,-7.96411,8.94,-0.87,0.95,2.0
1758074983.78169,1758074983.79008,0.0,0.0,0.0,24.86637,78.15145,-0.68755,8.94,-0.87,0.95,2.0
1758074983.79774,1758074983.80008,0.0,0.0,0.0,24.63719,66.29122,4.52637,8.61,-0.05,1.62,2.0
1758074983.79867,1758074983.81008,0.0,0.0,0.0,22.97561,55.6915,8.42248,8.61,-0.05,1.62,2.0
1758074983.81377,1758074983.82008,0.0,0.0,0.0,20.11082,47.44091,11.22997,8.11,0.98,1.79,2.0
1758074983.81469,1758074983.83008,0.0,0.0,0.0,13.34992,39.99245,11.45916,7.78,1.85,1.49,2.0
1758074983.82943,1758074983.84008,0.0,0.0,0.0,7.73493,35.2942,9.4538,7.78,1.85,1.49,2.0
1758074983.84572,1758074983.85008,0.0,0.0,0.0,0.57296,30.88243,6.7609,7.69,2.27,0.86,2.0
1758074983.84667,1758074983.86008,0.0,0.0,0.0,-8.136,28.30412,0.74485,7.69,2.27,0.86,2.0
1758074983.86171,1758074983.87008,0.0,0.0,0.0,-19.76705,22.68913,-6.70361,7.97,2.32,0.71,2.0
1758074983.8776,1758074983.88008,0.0,0.0,0.0,-26.75713,20.3973,-11.45916,7.97,2.32,0.71,2.0
1758074983.87869,1758074983.89008,0.0,0.0,0.0,-32.54401,18.10547,-14.78231,8.48,1.9,0.5,2.0
1758074983.89371,1758074983.90008,0.0,0.0,0.0,-37.18496,14.83961,-16.84496,8.48,1.9,0.5,2.0
1758074983.89495,1758074983.91008,0.0,0.0,0.0,-40.7373,4.69825,-17.18874,8.82,1.2,0.61,2.0
1758074983.90975,1758074983.92008,0.0,0.0,0.0,-41.25296,-0.0573,-15.58445,8.85,0.62,0.66,2.0
1758074983.92558,1758074983.93008,0.0,0.0,0.0,-40.7946,-0.0573,-13.12073,8.85,0.62,0.66,2.0
1758074983.92701,1758074983.94008,0.0,0.0,0.0,-38.90384,4.1253,-6.99009,9.38,0.1,0.65,2.0
1758074983.94142,1758074983.95008,0.0,0.0,0.0,-37.87251,3.20856,-2.34913,9.38,0.1,0.65,2.0
1758074983.95748,1758074983.96008,0.0,0.0,0.0,-36.89849,-1.83346,2.11994,8.95,-0.07,0.73,2.0
1758074983.95896,1758074983.97008,0.0,0.0,0.0,-36.21093,-5.15662,7.73493,8.95,-0.07,0.73,2.0
1758074983.97372,1758074983.98008,0.0,0.0,0.0,-38.78925,30.82513,10.02676,9.49,0.17,0.26,2.0
1758074983.9751,1758074983.99008,0.0,0.0,0.0,-39.4768,54.60288,12.54778,12.5,0.67,0.19,2.0
1758074983.98973,1758074984.00008,0.0,0.0,0.0,-40.68,33.68992,10.8289,12.5,0.67,0.19,2.0
1758074984.00571,1758074984.01008,0.0,0.0,0.0,-44.51882,7.73493,5.84417,8.15,1.34,0.73,2.0
1758074984.00694,1758074984.02008,0.0,0.0,0.0,-48.24305,-16.272,-0.80214,8.15,1.34,0.73,2.0
1758074984.02187,1758074984.03008,0.0,0.0,0.0,-51.73809,-20.34,-6.70361,10.16,1.68,-0.77,2.0
1758074984.03778,1758074984.04008,0.0,0.0,0.0,-55.29043,-13.17803,-9.96947,10.16,1.68,-0.77,2.0
1758074984.03872,1758074984.05008,0.0,0.0,0.0,-58.3844,-3.60963,-10.71431,12.1,1.46,-0.69,2.0
1758074984.05386,1758074984.06008,0.0,0.0,0.0,-62.16592,6.07335,-9.74028,12.22,0.74,-0.69,2.0
1758074984.05473,1758074984.07008,0.0,0.0,0.0,-63.54102,6.24524,-7.67763,12.22,0.74,-0.69,2.0
1758074984.06981,1758074984.08008,0.0,0.0,0.0,-63.65561,5.61499,-5.4431,11.6,0.34,-1.18,2.0
1758074984.08574,1758074984.09008,0.0,0.0,0.0,-63.42643,4.23989,-3.03668,11.6,0.34,-1.18,2.0
1758074984.08694,1758074984.10008,0.0,0.0,0.0,-62.16592,0.68755,-0.11459,11.56,0.31,-1.57,2.0
1758074984.10153,1758074984.11008,0.0,0.0,0.0,-61.1346,-2.6929,1.14592,11.56,0.31,-1.57,2.0
1758074984.11755,1758074984.12008,0.0,0.0,0.0,-59.24384,-7.96411,1.43239,11.19,0.43,-1.56,2.0
1758074984.11868,1758074984.13008,0.0,0.0,0.0,-54.3164,-14.49583,-0.40107,11.19,0.43,-1.56,2.0
1758074984.13358,1758074984.14008,0.0,0.0,0.0,-48.41494,-32.88778,-4.58366,11.13,0.38,0.53,2.0
1758074984.13496,1758074984.15008,0.0,0.0,0.0,-40.16434,-52.54023,-15.41257,13.04,-0.85,3.64,2.0
1758074984.14959,1758074984.16008,0.0,0.0,0.0,-29.8511,-64.51505,-33.00237,13.04,-0.85,3.64,2.0
1758074984.16578,1758074984.17008,0.0,0.0,0.0,-8.70896,-64.11398,-56.83742,18.2,-5.14,7.32,2.0
1758074984.16672,1758074984.18008,0.0,0.0,0.0,5.84417,-63.99939,-68.06739,18.2,-5.14,7.32,2.0
1758074984.18178,1758074984.19008,0.0,0.0,0.0,19.76705,-64.22858,-73.62508,14.59,-7.63,3.58,2.0
1758074984.19756,1758074984.20008,0.0,0.0,0.0,30.82513,-67.55173,-74.25533,14.59,-7.63,3.58,2.0
1758074984.19827,1758074984.21008,0.0,0.0,0.0,42.22699,-72.76565,-68.12468,6.29,-4.53,2.02,2.0
1758074984.2138,1758074984.22008,0.0,0.0,0.0,48.41494,-68.92683,-60.16057,3.63,-1.39,3.28,2.0
1758074984.21503,1758074984.23008,0.0,0.0,0.0,51.45161,-65.14531,-51.73809,3.63,-1.39,3.28,2.0
1758074984.22981,1758074984.24008,0.0,0.0,0.0,51.73809,-58.72818,-42.91454,6.13,0.19,5.35,2.0
1758074984.24579,1758074984.25008,0.0,0.0,0.0,46.2377,-43.20102,-29.22085,6.13,0.19,5.35,2.0
1758074984.24675,1758074984.26008,0.0,0.0,0.0,38.56006,-34.77854,-19.88164,9.93,1.81,5.02,2.0
1758074984.26191,1758074984.27008,0.0,0.0,0.0,30.13758,-25.38203,-9.91217,9.93,1.81,5.02,2.0
1758074984.27782,1758074984.28008,0.0,0.0,0.0,20.97026,-14.61043,-0.0573,10.76,2.54,2.64,2.0
1758074984.27824,1758074984.29008,0.0,0.0,0.0,7.50575,3.20856,13.00614,11.07,2.23,1.15,2.0
1758074984.29381,1758074984.30008,0.0,0.0,0.0,-0.0573,17.81899,18.56383,11.07,2.23,1.15,2.0
1758074984.29523,1758074984.31008,0.0,0.0,0.0,-6.47442,33.80451,20.85567,11.74,1.71,0.56,2.0
1758074984.30959,1758074984.32008,0.0,0.0,0.0,-12.204,48.52953,19.48057,11.74,1.71,0.56,2.0
1758074984.32563,1758074984.33008,0.0,0.0,0.0,-19.76705,62.68159,16.04282,10.68,1.16,0.1,2.0
1758074984.32709,1758074984.34008,0.0,0.0,0.0,-24.5226,68.69764,11.74564,10.68,1.16,0.1,2.0
1758074984.34187,1758074984.35008,0.0,0.0,0.0,-29.10626,71.10406,6.53172,9.35,0.77,0.08,2.0
1758074984.35784,1758074984.36008,0.0,0.0,0.0,-35.00772,71.27596,-1.66158,9.35,0.77,0.08,2.0
1758074984.35825,1758074984.37008,0.0,0.0,0.0,-37.64333,69.67168,-6.24524,8.76,0.5,0.63,2.0
1758074984.37382,1758074984.38008,0.0,0.0,0.0,-38.84654,68.06739,-10.02676,8.84,0.1,1.2,2.0
1758074984.37509,1758074984.39008,0.0,0.0,0.0,-39.01843,65.37449,-12.89155,8.84,0.1,1.2,2.0
1758074984.3899,1758074984.40008,0.0,0.0,0.0,-36.7266,58.3844,-13.75099,8.62,-0.55,1.43,2.0
1758074984.40586,1758074984.41008,0.0,0.0,0.0,-33.40344,53.97263,-12.204,8.62,-0.55,1.43,2.0
1758074984.4073,1758074984.42008,0.0,0.0,0.0,-28.93437,49.38896,-8.76626,8.61,-1.39,1.3,2.0
1758074984.42184,1758074984.43008,0.0,0.0,0.0,-23.49127,45.09178,-3.83882,8.61,-1.39,1.3,2.0
1758074984.43789,1758074984.44008,0.0,0.0,0.0,-14.78231,38.78925,4.92744,8.82,-1.81,1.2,2.0
1758074984.43828,1758074984.45008,0.0,0.0,0.0,-9.22462,34.60666,11.22997,9.09,-1.7,1.3,2.0
1758074984.45363,1758074984.46008,0.0,0.0,0.0,-3.95341,31.85646,16.55848,9.09,-1.7,1.3,2.0
1758074984.45483,1758074984.47008,0.0,0.0,0.0,1.14592,28.36141,20.68378,9.2,-1.25,1.33,2.0
1758074984.46987,1758074984.48008,0.0,0.0,0.0,7.33386,22.86102,23.89234,9.2,-1.25,1.33,2.0
1758074984.48587,1758074984.49008,0.0,0.0,0.0,10.54242,22.00158,23.54857,9.07,-0.73,1.33,2.0
1758074984.48713,1758074984.50008,0.0,0.0,0.0,12.54778,22.34536,21.31403,9.07,-0.73,1.33,2.0
1758074984.50168,1758074984.51008,0.0,0.0,0.0,13.5218,22.57454,17.13144,9.5,-0.32,1.44,2.0
1758074984.51763,1758074984.52008,0.0,0.0,0.0,14.38124,19.76705,8.70896,9.34,-0.29,1.29,2.0
1758074984.51818,1758074984.53008,0.0,0.0,0.0,14.66772,15.69904,2.29183,9.34,-0.29,1.29,2.0
1758074984.53363,1758074984.54008,0.0,0.0,0.0,14.72501,8.02141,-4.69825,9.05,-0.55,0.58,2.0
1758074984.53483,1758074984.55008,0.0,0.0,0.0,13.69369,-7.67763,-14.61043,9.05,-0.55,0.58,2.0
1758074984.54964,1758074984.56008,0.0,0.0,0.0,14.15206,-13.12073,-19.13679,8.32,-0.65,-0.29,2.0
1758074984.56563,1758074984.57008,0.0,0.0,0.0,15.58445,-10.59972,-22.11617,8.32,-0.65,-0.29,2.0
1758074984.56685,1758074984.58008,0.0,0.0,0.0,17.76169,-7.04738,-21.7151,9.07,-0.57,-0.53,2.0
1758074984.5819,1758074984.59008,0.0,0.0,0.0,21.14215,11.97482,-19.13679,9.07,-0.57,-0.43,2.0
1758074984.59792,1758074984.60008,0.0,0.0,0.0,20.16812,15.92823,-18.56383,9.88,-0.39,-0.43,2.0
1758074984.5983,1758074984.61008,0.0,0.0,0.0,19.82434,-3.20856,-18.85031,7.54,0.15,0.19,2.0
1758074984.61392,1758074984.62008,0.0,0.0,0.0,18.79302,-48.9879,-16.90226,7.54,0.15,0.19,2.0
1758074984.61512,1758074984.63008,0.0,0.0,0.0,25.61122,-109.95061,-4.18259,4.44,0.0,-1.66,2.0
1758074984.62993,1758074984.64008,0.0,0.0,0.0,27.44468,-113.33105,2.00535,4.44,0.0,-1.66,2.0
1758074984.64575,1758074984.65008,0.0,0.0,0.0,31.11161,-107.94526,5.50039,8.96,-0.64,-0.41,2.0
1758074984.64688,1758074984.66008,0.0,0.0,0.0,34.14828,-105.65342,6.53172,8.96,-0.64,-0.41,2.0
1758074984.66182,1758074984.67008,0.0,0.0,0.0,32.25753,-110.29437,4.64096,10.03,-0.49,1.74,2.0
1758074984.66284,1758074984.68008,0.0,0.0,0.0,26.75713,-120.43572,8.0787,11.95,-0.1,6.89,2.0
1758074984.67826,1758074984.69008,0.0,0.0,0.0,19.42327,-130.80626,14.78231,11.95,-0.1,6.89,2.0
1758074984.69397,1758074984.70008,0.0,0.0,0.0,13.80828,-137.10881,30.19488,16.44,1.59,9.03,2.0
1758074984.6949,1758074984.71008,0.0,0.0,0.0,4.18259,-116.8261,54.66018,16.44,1.59,9.03,2.0
1758074984.70987,1758074984.72008,0.0,0.0,0.0,-1.48969,-94.82452,67.43713,16.83,3.14,6.12,2.0
1758074984.72578,1758074984.73008,0.0,0.0,0.0,-7.96411,-76.60446,75.85962,16.83,3.14,6.12,2.0
1758074984.72737,1758074984.74008,0.0,0.0,0.0,-19.07949,-63.77021,74.7137,10.31,2.63,2.95,2.0
1758074984.74173,1758074984.75008,0.0,0.0,0.0,-26.24147,-38.38818,64.22858,9.44,0.78,3.04,2.0
1758074984.74289,1758074984.76008,0.0,0.0,0.0,-29.9084,-14.43854,48.12846,9.44,0.78,3.04,2.0
1758074984.7582,1758074984.77008,0.0,0.0,0.0,-28.476,10.08406,29.27814,12.12,-0.56,1.5,2.0
1758074984.77375,1758074984.78008,0.0,0.0,0.0,-20.74107,35.86716,4.52637,12.12,-0.56,1.5,2.0
1758074984.77526,1758074984.79008,0.0,0.0,0.0,-16.10011,49.84733,-7.50575,12.72,-1.35,0.09,2.0
1758074984.78976,1758074984.80008,0.0,0.0,0.0,-14.20935,66.92148,-16.3293,12.72,-1.35,0.09,2.0
1758074984.80596,1758074984.81008,0.0,0.0,0.0,-12.71966,81.93298,-21.48592,13.28,-2.87,-0.33,2.0
1758074984.80718,1758074984.82008,0.0,0.0,0.0,-7.33386,88.35009,-22.11617,11.2,-2.89,0.48,2.0
1758074984.82196,1758074984.83008,0.0,0.0,0.0,-2.7502,86.74582,-18.33465,11.2,-2.89,0.48,2.0
1758074984.82334,1758074984.84008,0.0,0.0,0.0,0.85944,84.74047,-13.5218,10.0,-1.76,0.27,2.0
1758074984.83826,1758074984.85008,0.0,0.0,0.0,3.66693,82.33404,-7.33386,10.0,-1.76,0.27,2.0
1758074984.85393,1758074984.86008,0.0,0.0,0.0,4.92744,77.57849,0.17189,9.4,-0.47,1.06,2.0
1758074984.85527,1758074984.87008,0.0,0.0,0.0,4.29718,72.19269,3.55234,9.4,-0.47,1.06,2.0
1758074984.86996,1758074984.88008,0.0,0.0,0.0,2.34913,65.77556,5.27121,8.04,0.66,1.48,2.0
1758074984.88591,1758074984.89008,0.0,0.0,0.0,-0.45837,57.23849,5.15662,8.04,0.66,1.48,2.0
1758074984.88692,1758074984.90008,0.0,0.0,0.0,-6.13065,43.83128,2.46372,7.06,1.49,1.92,2.0
1758074984.90174,1758074984.91008,0.0,0.0,0.0,-11.11538,37.64333,-0.85944,7.42,1.8,1.67,2.0
1758074984.90323,1758074984.92008,0.0,0.0,0.0,-15.92823,29.67921,-3.83882,7.42,1.8,1.67,2.0
1758074984.91823,1758074984.93008,0.0,0.0,0.0,-22.57454,25.7831,-10.59972,8.27,1.59,1.23,2.0
1758074984.93371,1758074984.94008,0.0,0.0,0.0,-31.16891,20.74107,-13.5218,8.27,1.59,1.23,2.0
1758074984.93524,1758074984.95008,0.0,0.0,0.0,-36.15364,21.14215,-16.10011,9.14,1.12,1.17,2.0
1758074984.94969,1758074984.96008,0.0,0.0,0.0,-39.99245,22.91831,-18.22006,9.14,1.12,1.17,2.0
1758074984.96567,1758074984.97008,0.0,0.0,0.0,-43.77398,25.7831,-18.44924,9.85,0.62,0.95,2.0
1758074984.96688,1758074984.98008,0.0,0.0,0.0,-45.43555,24.12152,-17.36062,9.81,0.32,1.13,2.0
1758074984.98175,1758074984.99008,0.0,0.0,0.0,-46.63877,19.36597,-15.58445,9.81,0.32,1.13,2.0
1758074984.9829,1758074985.00008,0.0,0.0,0.0,-47.09713,13.17803,-13.40721,9.5,0.22,0.78,2.0
1758074984.9983,1758074985.01008,0.0,0.0,0.0,-46.46688,-0.11459,-8.93814,9.5,0.22,0.78,2.0
1758074985.01375,1758074985.02008,0.0,0.0,0.0,-44.8053,-9.22462,-6.18794,9.21,0.04,0.25,2.0
1758074985.01521,1758074985.03008,0.0,0.0,0.0,-42.34158,-19.82434,-2.6929,9.21,0.04,0.25,2.0
1758074985.02976,1758074985.04008,0.0,0.0,0.0,-40.16434,-32.25753,0.57296,8.94,0.01,0.05,2.0
1758074985.04594,1758074985.05008,0.0,0.0,0.0,-39.53409,-15.24068,4.23989,11.19,0.14,0.26,2.0
1758074985.04693,1758074985.06008,0.0,0.0,0.0,-39.4768,20.05352,5.27121,11.19,0.14,0.26,2.0
1758074985.06206,1758074985.07008,0.0,0.0,0.0,-37.58603,30.82513,8.93814,12.17,0.12,0.45,2.0
1758074985.06295,1758074985.08008,0.0,0.0,0.0,-40.39353,-0.40107,2.6929,12.17,0.12,0.45,2.0
1758074985.07833,1758074985.09008,0.0,0.0,0.0,-38.90384,-32.25753,-2.46372,7.2,0.38,-0.04,2.0
1758074985.09396,1758074985.10008,0.0,0.0,0.0,-38.78925,-41.99781,-8.02141,7.2,0.38,-0.04,2.0
1758074985.09536,1758074985.11008,0.0,0.0,0.0,-38.21629,-40.16434,-8.76626,8.82,0.55,-1.24,2.0
1758074985.10992,1758074985.12008,0.0,0.0,0.0,-38.84654,-32.42941,-8.76626,8.82,0.55,-1.24,2.0
1758074985.12577,1758074985.13008,0.0,0.0,0.0,-39.13302,-22.23076,-5.84417,9.93,0.4,-0.86,2.0
1758074985.15867,1758074985.14008,0.0,0.0,0.0,-18.62113,-64.91612,-21.08485,11.48,-0.21,3.76,2.0
1758074985.17393,1758074985.15008,0.0,0.0,0.0,-11.17268,-78.43793,-33.34615,15.12,-3.03,4.72,2.0
1758074985.17501,1758074985.16008,0.0,0.0,0.0,-2.86479,-81.87567,-39.87786,15.12,-3.03,4.72,2.0
1758074985.18993,1758074985.17008,0.0,0.0,0.0,6.53172,-83.25077,-42.91454,12.11,-4.06,2.24,2.0
1758074985.20596,1758074985.18008,0.0,0.0,0.0,11.57375,-85.14153,-43.4875,6.02,-2.34,1.73,2.0
1758074985.20697,1758074985.19008,0.0,0.0,0.0,15.41257,-83.47996,-44.11775,6.02,-2.34,1.73,2.0
1758074985.22177,1758074985.20008,0.0,0.0,0.0,17.47521,-76.54716,-44.63341,5.76,-1.17,3.75,2.0
1758074985.22351,1758074985.21008,0.0,0.0,0.0,17.99088,-60.38975,-44.23235,5.76,-1.17,3.75,2.0
1758074985.23833,1758074985.22008,0.0,0.0,0.0,17.18874,-44.9199,-42.28429,8.02,-0.79,3.74,2.0
1758074985.25386,1758074985.23008,0.0,0.0,0.0,15.0115,-29.8511,-37.75792,8.02,-0.79,3.74,2.0
1758074985.25533,1758074985.24008,0.0,0.0,0.0,12.77696,-17.24603,-29.22085,10.08,-0.25,1.99,2.0
1758074985.26979,1758074985.25008,0.0,0.0,0.0,8.70896,3.09397,-14.20935,11.59,0.13,0.73,2.0
1758074985.28579,1758074985.26008,0.0,0.0,0.0,2.57831,20.45459,-5.27121,11.59,0.13,0.73,2.0
1758074985.28779,1758074985.27008,0.0,0.0,0.0,-5.95876,39.19032,1.83346,12.89,1.85,0.53,2.0
1758074985.3028,1758074985.28008,0.0,0.0,0.0,-15.58445,55.86338,5.95876,12.89,1.85,0.53,2.0
1758074985.30396,1758074985.29008,0.0,0.0,0.0,-20.62648,68.12468,10.8289,11.48,2.67,-0.34,2.0
1758074985.31906,1758074985.30008,0.0,0.0,0.0,-18.27736,75.63043,13.06344,11.48,2.67,-0.34,2.0
1758074985.33512,1758074985.31008,0.0,0.0,0.0,-14.83961,83.88103,15.0115,11.29,0.21,-1.35,2.0
1758074985.33625,1758074985.32008,0.0,0.0,0.0,-12.2613,90.69922,13.80828,11.29,0.21,-1.35,2.0
1758074985.35107,1758074985.33008,0.0,0.0,0.0,-11.17268,91.44406,11.97482,11.91,-0.37,0.25,2.0
1758074985.352,1758074985.34008,0.0,0.0,0.0,-10.54242,87.37608,9.05273,10.57,-0.27,1.08,2.0
1758074985.36834,1758074985.35008,0.0,0.0,0.0,-9.4538,80.55787,6.41713,10.57,-0.27,1.08,2.0
1758074985.38385,1758074985.36008,0.0,0.0,0.0,-7.21927,69.95815,3.60963,9.35,-0.41,1.5,2.0
1758074985.38529,1758074985.37008,0.0,0.0,0.0,-4.58366,63.59832,3.38045,9.35,-0.41,1.5,2.0
1758074985.3999,1758074985.38008,0.0,0.0,0.0,-0.97403,56.89471,4.98473,8.9,-0.79,1.83,2.0
1758074985.4161,1758074985.39008,0.0,0.0,0.0,2.86479,50.13381,8.0787,8.9,-0.79,1.83,2.0
1758074985.41728,1758074985.40008,0.0,0.0,0.0,8.99544,40.10705,13.69369,8.65,-1.21,1.74,2.0
1758074985.43211,1758074985.41008,0.0,0.0,0.0,13.34992,34.89313,17.18874,8.87,-1.32,1.7,2.0
1758074985.43323,1758074985.42008,0.0,0.0,0.0,17.30333,31.74186,20.22541,8.87,-1.32,1.7,2.0
1758074985.4484,1758074985.43008,0.0,0.0,0.0,20.45459,31.2262,22.00158,9.2,-1.05,1.49,2.0
1758074985.46392,1758074985.44008,0.0,0.0,0.0,23.31938,32.20023,22.23076,9.2,-1.05,1.49,2.0
1758074985.46505,1758074985.45008,0.0,0.0,0.0,24.35071,29.67921,20.74107,9.28,-0.67,1.49,2.0
1758074985.48019,1758074985.46008,0.0,0.0,0.0,24.35071,26.35606,17.87628,9.28,-0.67,1.49,2.0
1758074985.49608,1758074985.47008,0.0,0.0,0.0,23.66316,21.7151,13.5791,9.13,-0.34,1.34,2.0
1758074985.49705,1758074985.48008,0.0,0.0,0.0,22.91831,19.36597,5.84417,9.61,-0.08,1.09,2.0
1758074985.51192,1758074985.49008,0.0,0.0,0.0,22.57454,24.80907,1.83346,9.61,-0.08,1.09,2.0
1758074985.51306,1758074985.50008,0.0,0.0,0.0,22.63183,29.96569,-0.97403,10.28,-0.03,1.02,2.0
1758074985.52828,1758074985.51008,0.0,0.0,0.0,22.05888,37.98711,-2.92208,10.28,-0.03,1.02,2.0
1758074985.54388,1758074985.52008,0.0,0.0,0.0,19.76705,46.46688,-4.29718,10.19,0.11,0.78,2.0
1758074985.54506,1758074985.53008,0.0,0.0,0.0,18.62113,42.57077,-6.41713,10.19,0.11,0.78,2.0
1758074985.56008,1758074985.54008,0.0,0.0,0.0,19.70975,28.76248,-9.33921,8.37,0.24,0.56,2.0
1758074985.57613,1758074985.55008,0.0,0.0,0.0,19.42327,-30.99702,-8.88085,8.37,0.24,0.56,2.0
1758074985.57749,1758074985.56008,0.0,0.0,0.0,20.11082,-57.52497,-2.34913,4.69,0.27,-0.36,2.0
1758074985.59213,1758074985.57008,0.0,0.0,0.0,20.34,-64.17127,0.40107,7.17,-0.36,-0.83,2.0
1758074985.59307,1758074985.58008,0.0,0.0,0.0,21.94428,-64.11398,2.11994,7.17,-0.36,-0.83,2.0
1758074985.60813,1758074985.59008,0.0,0.0,0.0,23.83505,-65.14531,2.40642,8.01,-0.27,-0.08,2.0
1758074985.62411,1758074985.60008,0.0,0.0,0.0,23.66316,-71.84892,0.97403,8.01,-0.27,-0.08,2.0
1758074985.62539,1758074985.61008,0.0,0.0,0.0,21.37133,-81.30271,-0.85944,9.1,0.11,2.59,2.0
1758074985.64016,1758074985.62008,0.0,0.0,0.0,16.73037,-92.01703,0.11459,9.1,0.11,2.59,2.0
1758074985.65613,1758074985.63008,0.0,0.0,0.0,6.99009,-105.82531,11.34457,13.72,0.96,5.99,2.0
1758074985.6575,1758074985.64008,0.0,0.0,0.0,1.83346,-115.50829,23.54857,16.49,2.07,6.05,2.0
1758074985.6722,1758074985.65008,0.0,0.0,0.0,-2.29183,-117.68554,34.37747,16.49,2.07,6.05,2.0
1758074985.67308,1758074985.66008,0.0,0.0,0.0,-6.70361,-112.18513,40.10705,12.03,1.09,4.52,2.0
1758074985.68815,1758074985.67008,0.0,0.0,0.0,-12.54778,-99.1217,43.25832,12.03,1.09,4.52,2.0
1758074985.70412,1758074985.68008,0.0,0.0,0.0,-16.272,-82.90699,42.68536,8.33,0.57,3.43,2.0
1758074985.70509,1758074985.69008,0.0,0.0,0.0,-18.50654,-63.19725,41.02378,8.33,0.57,3.43,2.0
1758074985.72007,1758074985.70008,0.0,0.0,0.0,-20.11082,-47.49821,36.84119,9.06,0.08,2.86,2.0
1758074985.73624,1758074985.71008,0.0,0.0,0.0,-22.40265,-30.53865,24.00693,10.38,-0.35,2.25,2.0
1758074985.73714,1758074985.72008,0.0,0.0,0.0,-23.26209,-14.66772,14.43854,10.38,-0.35,2.25,2.0
1758074985.75222,1758074985.73008,0.0,0.0,0.0,-23.94964,1.66158,5.90147,12.54,-0.41,0.59,2.0
1758074985.7534,1758074985.74008,0.0,0.0,0.0,-24.4653,23.72045,-1.60428,12.54,-0.41,0.59,2.0
1758074985.76792,1758074985.75008,0.0,0.0,0.0,-24.35071,37.92981,-4.87014,12.25,-0.52,-0.16,2.0
1758074985.78425,1758074985.76008,0.0,0.0,0.0,-23.37668,47.72739,-6.24524,12.25,-0.52,-0.16,2.0
1758074985.78546,1758074985.77008,0.0,0.0,0.0,-21.6578,53.62885,-6.24524,10.55,-0.55,0.05,2.0
1758074985.8,1758074985.78008,0.0,0.0,0.0,-18.73572,60.10328,-3.89611,10.55,-0.55,0.57,2.0
1758074985.81629,1758074985.79008,0.0,0.0,0.0,-17.18874,63.88479,-1.48969,9.72,-0.35,0.57,2.0
1758074985.81715,1758074985.80008,0.0,0.0,0.0,-16.50119,66.11933,0.57296,9.54,-0.02,1.09,2.0
1758074985.83224,1758074985.81008,0.0,0.0,0.0,-16.38659,64.57235,2.29183,9.54,-0.02,1.09,2.0
1758074985.83318,1758074985.82008,0.0,0.0,0.0,-19.53786,62.68159,2.40642,9.25,0.38,1.26,2.0
1758074985.84826,1758074985.83008,0.0,0.0,0.0,-22.74642,59.07195,1.03132,9.25,0.38,1.26,2.0
1758074985.86426,1758074985.84008,0.0,0.0,0.0,-26.06958,54.71747,-2.06265,8.99,0.91,1.32,2.0
1758074985.86516,1758074985.85008,0.0,0.0,0.0,-29.33544,50.93595,-5.78687,8.99,0.91,1.32,2.0
1758074985.87997,1758074985.86008,0.0,0.0,0.0,-33.9764,47.03984,-11.57375,9.0,1.24,1.08,2.0
1758074985.89602,1758074985.87008,0.0,0.0,0.0,-36.6693,42.85724,-14.83961,9.1,1.14,0.9,2.0
1758074985.89715,1758074985.88008,0.0,0.0,0.0,-38.50277,36.21093,-17.13144,9.1,1.14,0.9,2.0
1758074985.91194,1758074985.89008,0.0,0.0,0.0,-39.24761,27.73116,-17.81899,8.77,0.72,0.87,2.0
1758074985.91316,1758074985.90008,0.0,0.0,0.0,-39.4768,17.01685,-17.6471,8.77,0.72,0.87,2.0
1758074985.92818,1758074985.91008,0.0,0.0,0.0,-38.84654,11.17268,-16.21471,8.86,0.21,0.83,2.0
1758074985.94423,1758074985.92008,0.0,0.0,0.0,-37.75792,5.55769,-14.09476,8.86,0.21,0.83,2.0
1758074985.94556,1758074985.93008,0.0,0.0,0.0,-35.75257,2.23454,-10.65701,9.41,-0.13,0.84,2.0
1758074985.96027,1758074985.94008,0.0,0.0,0.0,-34.72124,5.09932,-6.13065,10.43,-0.19,1.04,2.0
1758074985.97613,1758074985.95008,0.0,0.0,0.0,-34.60666,31.79916,-7.04738,10.43,-0.19,1.04,2.0
1758074985.97716,1758074985.96008,0.0,0.0,0.0,-35.12231,61.30648,-5.95876,13.25,0.05,1.32,2.0
1758074985.99231,1758074985.97008,0.0,0.0,0.0,-33.11696,54.66018,-4.23989,13.25,0.05,1.32,2.0
1758074985.99316,1758074985.98008,0.0,0.0,0.0,-34.95043,27.33009,-7.79223,8.59,0.43,1.89,2.0
1758074986.00827,1758074985.99008,0.0,0.0,0.0,-35.00772,9.11003,-10.59972,8.59,0.43,1.89,2.0
1758074986.0243,1758074986.00008,0.0,0.0,0.0,-35.63798,-1.08862,-12.89155,8.32,1.12,0.73,2.0
1758074986.02518,1758074986.01008,0.0,0.0,0.0,-37.01308,-5.95876,-14.09476,8.93,1.52,0.75,2.0
1758074986.04027,1758074986.02008,0.0,0.0,0.0,-38.1017,-3.26586,-12.83425,8.93,1.52,0.75,2.0
1758074986.05607,1758074986.03008,0.0,0.0,0.0,-40.10705,0.80214,-12.2613,9.92,1.71,0.96,2.0
1758074986.05719,1758074986.04008,0.0,0.0,0.0,-42.57077,0.0573,-11.22997,9.92,1.71,0.96,2.0
1758074986.07222,1758074986.05008,0.0,0.0,0.0,-45.49285,-5.95876,-9.68299,9.49,1.91,0.86,2.0
1758074986.07318,1758074986.06008,0.0,0.0,0.0,-46.69606,-9.91217,-9.05273,9.49,1.91,0.86,2.0
1758074986.08802,1758074986.07008,0.0,0.0,0.0,-47.38361,-13.06344,-8.76626,9.52,1.96,0.62,2.0
1758074986.10399,1758074986.08008,0.0,0.0,0.0,-47.89928,-15.24068,-8.88085,9.52,1.96,0.62,2.0
1758074986.10519,1758074986.09008,0.0,0.0,0.0,-46.2377,-22.74642,-9.85487,9.55,1.8,0.91,2.0
1758074986.12033,1758074986.10008,0.0,0.0,0.0,-44.11775,-39.53409,-13.34992,10.01,1.25,3.48,2.0
1758074986.136,1758074986.11008,0.0,0.0,0.0,-42.91454,-56.66553,-21.88699,10.01,1.25,3.48,2.0
1758074986.1373,1758074986.12008,0.0,0.0,0.0,-38.38818,-56.32175,-35.12231,14.5,-0.62,4.48,2.0
1758074986.15315,1758074986.13008,0.0,0.0,0.0,-27.67386,-52.13916,-43.37291,14.5,-0.62,4.48,2.0
1758074986.15403,1758074986.14008,0.0,0.0,0.0,-20.3973,-50.93595,-47.44091,15.91,-3.61,3.44,2.0
1758074986.16927,1758074986.15008,0.0,0.0,0.0,-13.00614,-51.16513,-47.67009,15.91,-3.61,3.44,2.0
1758074986.18535,1758074986.16008,0.0,0.0,0.0,-4.1253,-57.81144,-43.25832,9.97,-3.05,1.63,2.0
1758074986.18663,1758074986.17008,0.0,0.0,0.0,1.20321,-59.75951,-36.89849,5.54,-1.31,1.2,2.0
1758074986.20135,1758074986.18008,0.0,0.0,0.0,4.69825,-61.42108,-30.25217,5.54,-1.31,1.2,2.0
1758074986.20299,1758074986.19008,0.0,0.0,0.0,5.84417,-60.79083,-24.4653,5.61,-0.57,2.02,2.0
1758074986.22123,1758074986.20008,0.0,0.0,0.0,2.34913,-51.10783,-17.6471,5.61,-0.57,2.02,2.0
1758074986.22265,1758074986.21008,0.0,0.0,0.0,-2.63561,-41.02378,-13.86558,8.21,-0.13,2.48,2.0
1758074986.2383,1758074986.22008,0.0,0.0,0.0,-8.47978,-30.93972,-10.37054,8.21,-0.13,2.48,2.0
1758074986.25668,1758074986.23008,0.0,0.0,0.0,-14.49583,-21.42862,-7.33386,10.11,0.0,2.21,2.0
1758074986.25781,1758074986.24008,0.0,0.0,0.0,-21.88699,-6.58902,-2.97938,11.12,-0.16,1.35,2.0
1758074986.27326,1758074986.25008,0.0,0.0,0.0,-25.43933,5.95876,-0.74485,11.12,-0.16,1.35,2.0
1758074986.27743,1758074986.26008,0.0,0.0,0.0,-27.73116,20.45459,0.57296,11.76,-0.41,0.24,2.0
1758074986.29303,1758074986.27008,0.0,0.0,0.0,-29.04896,35.75257,1.83346,11.76,-0.41,0.24,2.0
1758074986.29426,1758074986.28008,0.0,0.0,0.0,-30.36677,49.96192,1.03132,11.37,-0.41,0.15,2.0
1758074986.30935,1758074986.29008,0.0,0.0,0.0,-30.65324,54.77477,0.11459,11.37,-0.41,0.15,2.0
1758074986.32534,1758074986.30008,0.0,0.0,0.0,-30.36677,59.01466,-1.48969,10.35,-0.22,0.47,2.0
1758074986.32626,1758074986.31008,0.0,0.0,0.0,-29.56462,62.33781,-3.83882,10.35,-0.22,0.47,2.0
1758074986.34132,1758074986.32008,0.0,0.0,0.0,-26.81443,66.5204,-4.0107,10.15,-0.3,0.68,2.0
1758074986.34252,1758074986.33008,0.0,0.0,0.0,-23.94964,68.69764,-3.26586,9.95,-0.65,0.82,2.0
1758074986.35803,1758074986.34008,0.0,0.0,0.0,-21.02755,69.49979,-1.43239,9.95,-0.65,0.82,2.0
1758074986.3753,1758074986.35008,0.0,0.0,0.0,-16.3293,68.35387,2.46372,9.76,-1.0,0.92,2.0
1758074986.37655,1758074986.36008,0.0,0.0,0.0,-12.89155,66.29122,5.90147,9.76,-1.0,0.92,2.0
1758074986.39109,1758074986.37008,0.0,0.0,0.0,-9.85487,63.65561,8.99544,9.57,-1.17,1.1,2.0
1758074986.39237,1758074986.38008,0.0,0.0,0.0,-7.16197,59.87409,11.80293,9.57,-1.17,1.1,2.0
1758074986.40836,1758074986.39008,0.0,0.0,0.0,-4.64096,53.80074,14.72501,9.57,-1.1,1.2,2.0
1758074986.42429,1758074986.40008,0.0,0.0,0.0,-3.09397,48.58683,15.75634,9.38,-0.99,1.39,2.0
1758074986.42534,1758074986.41008,0.0,0.0,0.0,-2.06265,39.64868,15.87093,9.38,-0.99,1.39,2.0
1758074986.44094,1758074986.42008,0.0,0.0,0.0,-2.23454,28.64789,14.32395,8.6,-0.82,1.46,2.0
1758074986.44334,1758074986.43008,0.0,0.0,0.0,-2.92208,17.24603,11.00079,8.6,-0.82,1.46,2.0
1758074986.46318,1758074986.44008,0.0,0.0,0.0,-2.7502,22.57454,7.96411,8.77,-0.56,1.53,2.0
1758074986.46435,1758074986.45008,0.0,0.0,0.0,-1.94806,32.71589,5.84417,8.77,-0.56,1.53,2.0
1758074986.47912,1758074986.46008,0.0,0.0,0.0,-1.94806,42.51347,3.72423,10.03,-0.33,1.83,2.0
1758074986.49537,1758074986.47008,0.0,0.0,0.0,-2.7502,60.38975,0.74485,10.02,-0.15,1.73,2.0
1758074986.49633,1758074986.48008,0.0,0.0,0.0,-4.18259,63.8275,-1.71887,10.02,-0.15,1.73,2.0
1758074986.51132,1758074986.49008,0.0,0.0,0.0,-4.87014,56.49364,-4.58366,8.6,-0.08,1.7,2.0
1758074986.51234,1758074986.50008,0.0,0.0,0.0,-5.09932,43.60209,-8.93814,8.6,-0.08,1.7,2.0
1758074986.52843,1758074986.51008,0.0,0.0,0.0,-2.7502,4.0107,-9.22462,6.88,-0.18,0.95,2.0
1758074986.54437,1758074986.52008,0.0,0.0,0.0,-0.57296,-17.01685,-5.90147,6.88,-0.18,0.95,2.0
1758074986.54533,1758074986.53008,0.0,0.0,0.0,0.85944,-27.04361,-4.92744,7.96,-0.57,0.72,2.0
1758074986.56017,1758074986.54008,0.0,0.0,0.0,3.20856,-33.34615,-3.38045,7.96,-0.57,0.72,2.0
1758074986.56216,1758074986.55008,0.0,0.0,0.0,4.29718,-35.86716,-3.60963,9.09,-0.72,0.96,2.0
1758074986.57843,1758074986.56008,0.0,0.0,0.0,4.98473,-37.92981,-5.84417,9.49,-0.71,1.07,2.0
1758074986.59418,1758074986.57008,0.0,0.0,0.0,5.72958,-40.7946,-9.33921,9.49,-0.71,1.07,2.0
1758074986.59537,1758074986.58008,0.0,0.0,0.0,6.8182,-45.26366,-16.04282,9.53,-0.41,0.65,2.0
1758074986.6102,1758074986.59008,0.0,0.0,0.0,6.18794,-49.96192,-20.97026,9.53,-0.41,0.65,2.0
1758074986.61211,1758074986.60008,0.0,0.0,0.0,5.09932,-56.03527,-25.38203,10.09,-0.17,2.33,2.0
1758074986.62846,1758074986.61007,0.0,0.0,0.0,1.83346,-63.31184,-26.35606,10.09,-0.17,2.33,2.0
1758074986.64446,1758074986.62007,0.0,0.0,0.0,-6.41713,-76.1461,-19.25138,13.12,0.38,5.31,2.0
1758074986.64537,1758074986.63007,0.0,0.0,0.0,-12.89155,-95.22559,-7.44845,15.4,1.79,6.9,2.0
1758074986.66018,1758074986.64007,0.0,0.0,0.0,-17.93358,-116.8261,7.44845,15.4,1.79,6.9,2.0
1758074986.67724,1758074986.65007,0.0,0.0,0.0,-21.94428,-119.5763,19.07949,11.99,1.33,4.85,2.0
1758074986.67819,1758074986.66007,0.0,0.0,0.0,-24.00693,-98.54874,25.89769,11.99,1.33,4.85,2.0
1758074986.69346,1758074986.67007,0.0,0.0,0.0,-24.75178,-84.05292,25.8404,8.13,0.37,2.66,2.0
1758074986.69478,1758074986.68007,0.0,0.0,0.0,-26.06958,-66.29122,24.75178,8.13,0.37,2.66,2.0
1758074986.70944,1758074986.69007,0.0,0.0,0.0,-27.33009,-49.61814,22.40265,7.05,-0.3,2.68,2.0
1758074986.72537,1758074986.70007,0.0,0.0,0.0,-28.24682,-30.36677,14.9542,8.69,-0.68,2.61,2.0
1758074986.72637,1758074986.71007,0.0,0.0,0.0,-27.38738,-15.46986,9.96947,8.69,-0.68,2.61,2.0
1758074986.74155,1758074986.72007,0.0,0.0,0.0,-25.8404,-1.3751,5.72958,11.26,-0.4,1.12,2.0
1758074986.74315,1758074986.73007,0.0,0.0,0.0,-23.49127,11.63104,2.46372,11.26,-0.4,1.12,2.0
1758074986.75926,1758074986.74007,0.0,0.0,0.0,-22.57454,33.40344,0.97403,12.33,-0.34,0.29,2.0
1758074986.77517,1758074986.75007,0.0,0.0,0.0,-21.48592,42.68536,0.45837,12.33,-0.34,0.29,2.0
1758074986.77645,1758074986.76007,0.0,0.0,0.0,-20.16812,48.58683,1.08862,11.33,-0.73,-0.1,2.0
1758074986.79122,1758074986.77007,0.0,0.0,0.0,-19.13679,56.66553,2.57831,11.33,-0.73,-0.1,2.0
1758074986.7927,1758074986.78007,0.0,0.0,0.0,-18.85031,61.24919,3.09397,10.43,-1.12,0.24,2.0
1758074986.8085,1758074986.79007,0.0,0.0,0.0,-19.07949,62.96807,2.63561,9.72,-1.08,0.54,2.0
1758074986.82419,1758074986.80007,0.0,0.0,0.0,-19.13679,62.96807,1.71887,9.72,-1.08,0.54,2.0
1758074986.82537,1758074986.81007,0.0,0.0,0.0,-19.42327,57.41038,-1.14592,9.34,-0.74,0.83,2.0
1758074986.84044,1758074986.82007,0.0,0.0,0.0,-19.99623,53.74345,-4.81285,9.34,-0.74,0.83,2.0
1758074986.85623,1758074986.83007,0.0,0.0,0.0,-20.16812,50.99325,-8.70896,9.45,-0.23,1.1,2.0
1758074986.85737,1758074986.84007,0.0,0.0,0.0,-19.59516,47.67009,-12.77696,9.45,-0.23,1.1,2.0
1758074986.87252,1758074986.85007,0.0,0.0,0.0,-17.99088,42.68536,-17.99088,9.4,0.1,1.09,2.0
1758074986.87338,1758074986.86007,0.0,0.0,0.0,-16.84496,39.19032,-20.34,9.36,0.16,0.96,2.0
1758074986.88843,1758074986.87007,0.0,0.0,0.0,-14.9542,33.63263,-21.37133,9.36,0.16,0.96,2.0
1758074986.90452,1758074986.88007,0.0,0.0,0.0,-12.71966,25.21014,-21.08485,8.87,-0.1,0.67,2.0
1758074986.90539,1758074986.89007,0.0,0.0,0.0,-8.93814,12.71966,-19.07949,8.87,-0.1,0.67,2.0
1758074986.92049,1758074986.90007,0.0,0.0,0.0,-6.07335,4.52637,-16.55848,8.3,-0.5,0.62,2.0
1758074986.93625,1758074986.91007,0.0,0.0,0.0,-3.49504,-0.17189,-13.5791,8.3,-0.5,0.62,2.0
1758074986.93741,1758074986.92007,0.0,0.0,0.0,-0.85944,-2.92208,-8.76626,8.5,-0.82,0.6,2.0
1758074986.95249,1758074986.93007,0.0,0.0,0.0,1.14592,3.55234,-3.26586,9.73,-0.73,0.78,2.0
1758074986.95341,1758074986.94007,0.0,0.0,0.0,1.66158,27.38738,-4.52637,9.73,-0.73,0.78,2.0
1758074986.96851,1758074986.95007,0.0,0.0,0.0,0.51566,52.42564,-2.57831,12.42,-0.2,0.97,2.0
1758074986.98445,1758074986.96007,0.0,0.0,0.0,-0.80214,58.90006,-0.68755,12.42,-0.2,0.97,2.0
1758074986.98548,1758074986.97007,0.0,0.0,0.0,-2.63561,28.01764,-4.52637,8.85,0.42,1.44,2.0
1758074987.00057,1758074986.98007,0.0,0.0,0.0,-3.55234,5.72958,-6.07335,8.85,0.42,1.44,2.0
1758074987.01627,1758074986.99007,0.0,0.0,0.0,-6.47442,-12.49048,-9.39651,7.76,1.05,0.6,2.0
1758074987.01746,1758074987.00007,0.0,0.0,0.0,-11.17268,-19.59516,-12.43318,7.76,1.05,0.54,2.0
1758074987.03254,1758074987.01007,0.0,0.0,0.0,-15.41257,-14.20935,-13.80828,8.64,1.48,0.54,2.0
1758074987.03347,1758074987.02007,0.0,0.0,0.0,-19.25138,-8.02141,-14.15206,9.74,1.62,1.09,2.0
1758074987.04857,1758074987.03007,0.0,0.0,0.0,-23.0902,-6.41713,-13.80828,9.74,1.62,1.09,2.0
1758074987.06462,1758074987.04007,0.0,0.0,0.0,-27.96034,-8.70896,-11.80293,9.32,1.69,1.03,2.0
1758074987.06547,1758074987.05007,0.0,0.0,0.0,-30.99702,-10.8862,-10.02676,9.32,1.69,1.03,2.0
1758074987.08058,1758074987.06007,0.0,0.0,0.0,-33.63263,-12.54778,-8.136,9.61,1.73,0.93,2.0
1758074987.09657,1758074987.07007,0.0,0.0,0.0,-36.03905,-14.15206,-6.07335,9.61,1.73,0.93,2.0
1758074987.09748,1758074987.08007,0.0,0.0,0.0,-37.92981,-17.18874,-2.6929,9.86,1.66,1.0,2.0
1758074987.11253,1758074987.09007,0.0,0.0,0.0,-36.55471,-28.07493,-1.08862,10.07,1.46,3.51,2.0
1758074987.11349,1758074987.10007,0.0,0.0,0.0,-34.0337,-57.0093,-2.92208,10.07,1.46,3.51,2.0
1758074987.12828,1758074987.11007,0.0,0.0,0.0,-32.71589,-81.76109,-15.0115,12.93,0.64,6.32,2.0
1758074987.14455,1758074987.12007,0.0,0.0,0.0,-24.5226,-81.41731,-33.74722,12.93,0.64,6.32,2.0
1758074987.14555,1758074987.13007,0.0,0.0,0.0,-18.16276,-70.81759,-40.04975,18.16,-2.73,5.15,2.0
1758074987.16055,1758074987.14007,0.0,0.0,0.0,-12.43318,-60.10328,-40.04975,18.16,-2.73,5.15,2.0
1758074987.1766,1758074987.15007,0.0,0.0,0.0,-4.69825,-58.49899,-33.80451,11.31,-2.53,2.4,2.0
1758074987.17747,1758074987.16007,0.0,0.0,0.0,-0.80214,-73.91156,-27.10091,4.57,-1.34,2.19,2.0
1758074987.19255,1758074987.17007,0.0,0.0,0.0,1.60428,-79.92762,-19.82434,4.57,-1.34,2.19,2.0
1758074987.19349,1758074987.18007,0.0,0.0,0.0,2.46372,-77.63579,-11.91752,5.27,-0.54,2.71,2.0
1758074987.20857,1758074987.19007,0.0,0.0,0.0,-0.34377,-65.43179,-2.97938,5.27,-0.54,2.71,2.0
1758074987.22463,1758074987.20007,0.0,0.0,0.0,-4.23989,-55.6915,0.74485,8.33,0.48,3.27,2.0
1758074987.22555,1758074987.21007,0.0,0.0,0.0,-9.4538,-47.49821,3.72423,8.33,0.48,3.27,2.0
1758074987.24036,1758074987.22007,0.0,0.0,0.0,-15.35527,-40.68,5.21392,10.4,1.43,2.18,2.0
1758074987.25646,1758074987.23007,0.0,0.0,0.0,-23.37668,-23.83505,6.8182,12.15,1.62,0.97,2.0
1758074987.25755,1758074987.24007,0.0,0.0,0.0,-27.67386,-9.11003,6.87549,12.15,1.62,0.97,2.0
1758074987.27312,1758074987.25007,0.0,0.0,0.0,-31.16891,6.70361,6.18794,12.68,1.14,0.19,2.0
1758074987.2746,1758074987.26007,0.0,0.0,0.0,-33.34615,22.40265,4.81285,12.68,1.14,0.19,2.0
1758074987.28932,1758074987.27007,0.0,0.0,0.0,-35.2942,39.99245,2.97938,11.7,0.51,0.21,2.0
1758074987.30564,1758074987.28007,0.0,0.0,0.0,-36.84119,46.52417,1.66158,11.7,0.51,0.21,2.0
1758074987.30677,1758074987.29007,0.0,0.0,0.0,-39.01843,52.65482,0.11459,10.09,0.03,0.43,2.0
1758074987.32166,1758074987.30007,0.0,0.0,0.0,-40.7946,59.18654,-1.60428,10.09,0.03,0.43,2.0
1758074987.32363,1758074987.31007,0.0,0.0,0.0,-43.14373,64.28587,-4.23989,10.0,0.0,0.84,2.0
1758074987.33935,1758074987.32007,0.0,0.0,0.0,-44.11775,64.91612,-5.78687,9.87,0.05,1.13,2.0
1758074987.35561,1758074987.33007,0.0,0.0,0.0,-44.40423,61.99404,-6.41713,9.87,0.05,1.13,2.0
1758074987.35653,1758074987.34007,0.0,0.0,0.0,-43.88857,57.46767,-6.18794,9.64,0.02,1.25,2.0
1758074987.37162,1758074987.35007,0.0,0.0,0.0,-42.1124,49.84733,-4.52637,9.64,0.02,1.25,2.0
1758074987.37366,1758074987.36007,0.0,0.0,0.0,-39.82057,43.65939,-1.83346,9.2,-0.24,1.37,2.0
1758074987.3896,1758074987.37007,0.0,0.0,0.0,-36.6693,36.7266,1.43239,9.2,-0.24,1.37,2.0
1758074987.40539,1758074987.38007,0.0,0.0,0.0,-31.51268,26.64254,6.47442,8.69,-0.72,1.48,2.0
1758074987.40684,1758074987.39007,0.0,0.0,0.0,-27.44468,21.7151,9.39651,8.84,-1.24,1.67,2.0
1758074987.42136,1758074987.40007,0.0,0.0,0.0,-22.74642,17.24603,12.08941,8.84,-1.24,1.67,2.0
1758074987.42255,1758074987.41007,0.0,0.0,0.0,-18.44924,14.72501,13.69369,9.0,-1.67,1.62,2.0
1758074987.43868,1758074987.42007,0.0,0.0,0.0,-12.2613,16.61578,13.98017,9.0,-1.67,1.62,2.0
1758074987.4546,1758074987.43007,0.0,0.0,0.0,-8.42248,18.44924,13.17803,9.45,-1.8,1.43,2.0
1758074987.45561,1758074987.44007,0.0,0.0,0.0,-5.15662,19.70975,11.57375,9.45,-1.8,1.43,2.0
1758074987.47066,1758074987.45007,0.0,0.0,0.0,-2.06265,19.59516,9.62569,9.63,-1.58,1.16,2.0
1758074987.48667,1758074987.46007,0.0,0.0,0.0,1.48969,13.40721,5.95876,9.43,-1.23,0.67,2.0
1758074987.48761,1758074987.47007,0.0,0.0,0.0,2.92208,5.90147,3.20856,9.43,-1.23,0.67,2.0
1758074987.50245,1758074987.48007,0.0,0.0,0.0,5.21392,4.58366,0.85944,9.52,-0.93,0.24,2.0
1758074987.50394,1758074987.49007,0.0,0.0,0.0,7.67763,14.78231,-0.40107,9.52,-0.93,0.24,2.0
1758074987.51844,1758074987.50007,0.0,0.0,0.0,9.5684,44.40423,-1.03132,11.57,-0.74,0.27,2.0
1758074987.53471,1758074987.51007,0.0,0.0,0.0,10.19865,59.18654,-0.74485,11.57,-0.74,0.27,2.0
1758074987.53602,1758074987.52007,0.0,0.0,0.0,12.49048,53.45696,-1.60428,10.78,-0.45,0.34,2.0
1758074987.5507,1758074987.53007,0.0,0.0,0.0,9.22462,15.41257,-4.46907,10.78,-0.45,0.34,2.0
1758074987.56649,1758074987.54007,0.0,0.0,0.0,13.75099,-38.84654,3.49504,5.94,-0.46,-0.13,2.0
1758074987.56797,1758074987.55007,0.0,0.0,0.0,12.2613,-48.35764,6.8182,8.27,-1.1,-0.92,2.0
1758074987.58245,1758074987.56007,0.0,0.0,0.0,12.77696,-51.39432,9.85487,8.27,-1.1,-0.92,2.0
1758074987.58372,1758074987.57007,0.0,0.0,0.0,12.60507,-50.13381,9.4538,9.13,-0.94,-0.39,2.0
1758074987.59877,1758074987.58007,0.0,0.0,0.0,12.54778,-51.73809,6.07335,9.13,-0.94,-0.39,2.0
1758074987.61469,1758074987.59007,0.0,0.0,0.0,11.97482,-55.97798,1.08862,8.83,-0.58,0.36,2.0
1758074987.61572,1758074987.60007,0.0,0.0,0.0,10.59972,-63.48372,-4.1253,8.83,-0.58,0.36,2.0
1758074987.63072,1758074987.61007,0.0,0.0,0.0,5.15662,-80.61517,-8.76626,9.41,-0.07,2.4,2.0
1758074987.64645,1758074987.62007,0.0,0.0,0.0,-0.11459,-89.15224,-5.95876,12.94,0.7,5.59,2.0
1758074987.64772,1758074987.63007,0.0,0.0,0.0,-6.13065,-97.46013,1.83346,12.94,0.7,5.59,2.0
1758074987.66247,1758074987.64007,0.0,0.0,0.0,-10.08406,-107.315,14.78231,14.68,2.16,5.4,2.0
1758074987.66399,1758074987.65007,0.0,0.0,0.0,-15.98552,-106.79934,32.37212,14.68,2.16,5.4,2.0
1758074987.67849,1758074987.66007,0.0,0.0,0.0,-18.44924,-98.54874,40.96649,11.21,2.33,4.36,2.0
1758074987.69444,1758074987.67007,0.0,0.0,0.0,-20.11082,-89.20953,45.20637,11.21,2.33,4.36,2.0
1758074987.69594,1758074987.68007,0.0,0.0,0.0,-21.14215,-75.63043,45.77933,7.48,2.18,3.62,2.0
1758074987.71048,1758074987.69007,0.0,0.0,0.0,-22.74642,-50.47758,41.59674,7.66,1.34,3.27,2.0
1758074987.72646,1758074987.70007,0.0,0.0,0.0,-25.89769,-37.35685,36.6693,7.66,1.34,3.27,2.0
1758074987.72769,1758074987.71007,0.0,0.0,0.0,-29.73651,-21.88699,30.59595,9.46,-0.39,2.93,2.0
1758074987.74247,1758074987.72007,0.0,0.0,0.0,-32.14294,-2.6929,23.37668,9.46,-0.39,2.93,2.0
1758074987.74395,1758074987.73007,0.0,0.0,0.0,-31.11161,24.63719,13.00614,11.11,-1.17,0.96,2.0
1758074987.75868,1758074987.74007,0.0,0.0,0.0,-29.10626,42.05511,7.16197,11.11,-1.17,0.96,2.0
1758074987.77478,1758074987.75007,0.0,0.0,0.0,-26.18417,55.86338,2.40642,12.36,-1.75,-0.21,2.0
1758074987.7761,1758074987.76007,0.0,0.0,0.0,-21.6578,69.04142,-2.92208,12.36,-1.75,-0.21,2.0
1758074987.79081,1758074987.77007,0.0,0.0,0.0,-18.16276,74.54182,-4.52637,11.94,-2.02,-0.57,2.0
1758074987.80677,1758074987.78007,0.0,0.0,0.0,-14.43854,79.01089,-4.46907,11.1,-1.83,-0.25,2.0
1758074987.80769,1758074987.79007,0.0,0.0,0.0,-11.63104,81.07353,-4.1253,11.1,-1.83,-0.25,2.0
1758074987.82275,1758074987.80007,0.0,0.0,0.0,-8.47978,78.7244,-3.72423,10.29,-1.24,0.45,2.0
1758074987.82369,1758074987.81007,0.0,0.0,0.0,-7.16197,74.08345,-4.1253,10.29,-1.24,0.45,2.0
1758074987.83878,1758074987.82007,0.0,0.0,0.0,-6.13065,64.28587,-4.23989,9.32,-0.54,0.9,2.0
1758074987.85474,1758074987.83007,0.0,0.0,0.0,-7.33386,56.66553,-6.7609,9.32,-0.54,0.9,2.0
1758074987.85569,1758074987.84007,0.0,0.0,0.0,-9.22462,43.60209,-9.4538,8.53,0.22,1.52,2.0
1758074987.87044,1758074987.85007,0.0,0.0,0.0,-10.8862,35.98175,-12.204,8.21,0.68,1.7,2.0
1758074987.88652,1758074987.86007,0.0,0.0,0.0,-12.83425,28.87707,-14.72501,8.21,0.68,1.7,2.0
1758074987.88769,1758074987.87007,0.0,0.0,0.0,-15.06879,22.11617,-17.13144,8.08,0.78,1.59,2.0
1758074987.90281,1758074987.88007,0.0,0.0,0.0,-18.33465,12.89155,-19.25138,8.08,0.78,1.59,2.0
1758074987.90371,1758074987.89007,0.0,0.0,0.0,-20.51189,7.33386,-20.05352,8.24,0.59,1.31,2.0
1758074987.91882,1758074987.90007,0.0,0.0,0.0,-22.28806,1.14592,-20.22541,8.24,0.59,1.31,2.0
1758074987.93474,1758074987.91007,0.0,0.0,0.0,-23.31938,-5.4431,-20.05352,8.45,0.22,1.08,2.0
1758074987.93571,1758074987.92007,0.0,0.0,0.0,-23.83505,-8.42248,-18.9649,9.26,0.05,0.86,2.0
1758074987.95079,1758074987.93007,0.0,0.0,0.0,-23.66316,-7.04738,-17.36062,9.26,0.05,0.86,2.0
1758074987.9666,1758074987.94007,0.0,0.0,0.0,-23.49127,-5.21392,-15.87093,10.26,-0.25,0.74,2.0
1758074987.968,1758074987.95007,0.0,0.0,0.0,-23.31938,-5.09932,-11.11538,10.26,-0.25,0.74,2.0
1758074987.98255,1758074987.96007,0.0,0.0,0.0,-23.83505,19.48057,-9.85487,11.37,-0.38,0.94,2.0
1758074987.98396,1758074987.97007,0.0,0.0,0.0,-24.12152,52.54023,-7.96411,11.37,-0.38,0.94,2.0
1758074987.99877,1758074987.98007,0.0,0.0,0.0,-24.98096,69.21331,-5.50039,13.84,-0.29,0.9,2.0
1758074988.01474,1758074987.99007,0.0,0.0,0.0,-26.01229,37.58603,-6.13065,13.84,-0.29,0.9,2.0
1758074988.01573,1758074988.00007,0.0,0.0,0.0,-25.89769,19.59516,-5.15662,9.23,-0.03,0.74,2.0
1758074988.03077,1758074988.01007,0.0,0.0,0.0,-27.67386,0.17189,-6.99009,9.23,0.34,-0.24,2.0
1758074988.0468,1758074988.02007,0.0,0.0,0.0,-29.62192,-9.33921,-7.33386,9.23,0.34,-0.24,2.0
1758074988.04774,1758074988.03007,0.0,0.0,0.0,-32.25753,-12.204,-6.13065,9.62,0.6,-0.61,2.0
1758074988.0628,1758074988.04007,0.0,0.0,0.0,-35.2369,-4.23989,-5.61499,9.62,0.6,-0.61,2.0
1758074988.06374,1758074988.05007,0.0,0.0,0.0,-37.12767,-0.57296,-4.58366,10.72,0.41,-0.23,2.0
1758074988.0788,1758074988.06007,0.0,0.0,0.0,-38.50277,-3.03668,-4.29718,10.72,0.41,-0.23,2.0
1758074988.09455,1758074988.07007,0.0,0.0,0.0,-39.99245,-10.19865,-4.46907,9.71,0.33,-0.25,2.0
1758074988.096,1758074988.08007,0.0,0.0,0.0,-40.10705,-15.41257,-4.81285,9.4,0.31,-0.06,2.0
1758074988.11057,1758074988.09007,0.0,0.0,0.0,-40.10705,-23.31938,-5.32851,9.4,0.31,-0.06,2.0
1758074988.12686,1758074988.10007,0.0,0.0,0.0,-39.64868,-33.51803,-6.13065,9.93,0.11,2.46,2.0
1758074988.12776,1758074988.11007,0.0,0.0,0.0,-36.84119,-52.08187,-9.68299,9.93,0.11,2.46,2.0
1758074988.14282,1758074988.12007,0.0,0.0,0.0,-32.83048,-65.2026,-17.47521,12.68,-1.18,4.7,2.0
1758074988.14405,1758074988.13007,0.0,0.0,0.0,-26.41335,-69.55708,-26.75713,12.68,-1.18,4.7,2.0
1758074988.15885,1758074988.14007,0.0,0.0,0.0,-17.81899,-69.04142,-36.55471,16.35,-3.63,5.63,2.0
1758074988.1749,1758074988.15007,0.0,0.0,0.0,-6.35983,-74.02615,-38.27358,11.87,-3.19,2.87,2.0
1758074988.17577,1758074988.16007,0.0,0.0,0.0,-0.68755,-77.4639,-36.21093,11.87,-3.19,2.87,2.0
1758074988.19084,1758074988.17007,0.0,0.0,0.0,4.69825,-80.95895,-33.40344,6.03,-1.09,2.2,2.0
1758074988.20659,1758074988.18007,0.0,0.0,0.0,12.37589,-75.40125,-30.59595,6.03,-1.09,2.2,2.0
1758074988.20783,1758074988.19007,0.0,0.0,0.0,14.49583,-66.34852,-29.56462,6.59,0.53,3.87,2.0
1758074988.22346,1758074988.20007,0.0,0.0,0.0,13.98017,-55.29043,-29.04896,6.59,0.53,3.87,2.0
1758074988.22463,1758074988.21007,0.0,0.0,0.0,10.8289,-44.86259,-27.33009,8.28,1.67,3.37,2.0
1758074988.23973,1758074988.22007,0.0,0.0,0.0,1.08862,-31.45539,-22.34536,8.28,1.67,2.32,2.0
1758074988.25563,1758074988.23007,0.0,0.0,0.0,-7.10468,-20.05352,-16.55848,9.65,2.42,2.32,2.0
1758074988.25681,1758074988.24007,0.0,0.0,0.0,-13.98017,-4.18259,-10.08406,11.38,2.26,0.97,2.0
1758074988.27162,1758074988.25007,0.0,0.0,0.0,-18.56383,12.49048,-3.49504,11.38,2.26,0.97,2.0
1758074988.27282,1758074988.26007,0.0,0.0,0.0,-24.63719,36.49741,3.32316,11.95,0.71,-0.42,2.0
1758074988.28862,1758074988.27007,0.0,0.0,0.0,-28.93437,51.45161,5.61499,11.95,0.71,-0.42,2.0
1758074988.3046,1758074988.28007,0.0,0.0,0.0,-33.11696,60.79083,6.18794,11.48,0.09,0.0,2.0
1758074988.30581,1758074988.29007,0.0,0.0,0.0,-37.18496,65.54638,5.09932,11.48,0.09,0.0,2.0
1758074988.32108,1758074988.30007,0.0,0.0,0.0,-42.57077,68.29657,1.14592,9.77,0.35,0.06,2.0
1758074988.33689,1758074988.31007,0.0,0.0,0.0,-45.37826,68.69764,-2.57831,9.33,0.75,0.49,2.0
1758074988.33783,1758074988.32007,0.0,0.0,0.0,-47.32632,67.60902,-6.07335,9.33,0.75,0.49,2.0
1758074988.35285,1758074988.33007,0.0,0.0,0.0,-47.89928,65.89015,-9.11003,9.09,0.85,0.78,2.0
1758074988.35384,1758074988.34007,0.0,0.0,0.0,-46.40959,63.94209,-10.71431,9.09,0.85,0.78,2.0
1758074988.36893,1758074988.35007,0.0,0.0,0.0,-43.88857,61.70755,-9.74028,8.88,0.3,0.81,2.0
1758074988.38493,1758074988.36007,0.0,0.0,0.0,-40.62271,58.15522,-7.21927,8.88,0.3,0.81,2.0
1758074988.38582,1758074988.37007,0.0,0.0,0.0,-34.89313,54.08722,-1.94806,8.7,-0.62,0.67,2.0
1758074988.40094,1758074988.38007,0.0,0.0,0.0,-30.53865,51.50891,2.34913,9.1,-1.42,0.54,2.0
1758074988.41677,1758074988.39007,0.0,0.0,0.0,-26.41335,48.07116,7.10468,9.1,-1.42,0.54,2.0
1758074988.41789,1758074988.40007,0.0,0.0,0.0,-22.97561,45.09178,11.22997,9.03,-1.82,0.65,2.0
1758074988.43273,1758074988.41007,0.0,0.0,0.0,-18.85031,39.53409,16.04282,9.03,-1.82,0.65,2.0
1758074988.4339,1758074988.42007,0.0,0.0,0.0,-16.73037,30.25217,17.36062,8.78,-1.77,0.88,2.0
1758074988.44873,1758074988.43007,0.0,0.0,0.0,-15.58445,21.7724,17.13144,8.78,-1.77,0.88,2.0
1758074988.46497,1758074988.44007,0.0,0.0,0.0,-14.9542,21.42862,13.75099,8.61,-1.42,0.96,2.0
1758074988.46589,1758074988.45007,0.0,0.0,0.0,-12.37589,34.32018,8.88085,10.62,-1.12,1.27,2.0
1758074988.48104,1758074988.46007,0.0,0.0,0.0,-10.37054,42.39888,5.21392,10.62,-1.12,1.27,2.0
1758074988.49685,1758074988.47007,0.0,0.0,0.0,-8.25059,48.24305,1.43239,10.82,-0.87,1.45,2.0
1758074988.49791,1758074988.48007,0.0,0.0,0.0,-6.47442,54.3737,-2.06265,10.82,-0.87,1.45,2.0
1758074988.51276,1758074988.49007,0.0,0.0,0.0,-4.58366,56.66553,-7.96411,10.8,-0.83,1.57,2.0
1758074988.51391,1758074988.50007,0.0,0.0,0.0,-2.46372,49.61814,-11.34457,10.8,-0.83,1.57,2.0
1758074988.52884,1758074988.51007,0.0,0.0,0.0,1.43239,33.46074,-13.00614,9.18,-0.94,1.09,2.0
1758074988.54469,1758074988.52007,0.0,0.0,0.0,3.32316,2.23454,-17.13144,9.18,-0.94,1.09,2.0
1758074988.54644,1758074988.53007,0.0,0.0,0.0,9.33921,-44.8053,-13.80828,6.65,-1.18,0.13,2.0
1758074988.56172,1758074988.54007,0.0,0.0,0.0,11.91752,-59.87409,-8.30789,7.79,-1.77,-0.92,2.0
1758074988.56299,1758074988.55007,0.0,0.0,0.0,14.32395,-65.77556,-2.23454,7.79,-1.77,-0.92,2.0
1758074988.57876,1758074988.56007,0.0,0.0,0.0,17.53251,-66.34852,6.13065,9.83,-2.04,-0.46,2.0
1758074988.59498,1758074988.57007,0.0,0.0,0.0,18.90761,-65.89015,9.68299,9.83,-2.04,-0.46,2.0
1758074988.59593,1758074988.58007,0.0,0.0,0.0,19.59516,-66.17663,11.11538,10.73,-1.82,0.59,2.0
1758074988.61183,1758074988.59007,0.0,0.0,0.0,18.79302,-68.12468,10.19865,10.73,-1.82,0.59,2.0
1758074988.613,1758074988.60007,0.0,0.0,0.0,12.71966,-80.0995,7.67763,11.07,-0.96,2.41,2.0
1758074988.62904,1758074988.61007,0.0,0.0,0.0,6.13065,-93.16295,9.39651,12.64,0.7,6.13,2.0
1758074988.64507,1758074988.62007,0.0,0.0,0.0,-2.11994,-101.06976,14.20935,12.64,0.7,6.13,2.0
1758074988.64598,1758074988.63007,0.0,0.0,0.0,-10.25595,-106.39826,24.00693,15.28,3.23,7.13,2.0
1758074988.66183,1758074988.64007,0.0,0.0,0.0,-19.42327,-105.9399,38.15899,15.28,3.23,7.13,2.0
1758074988.66279,1758074988.65007,0.0,0.0,0.0,-23.20479,-99.06441,44.748,11.68,3.85,4.57,2.0
1758074988.67916,1758074988.66007,0.0,0.0,0.0,-25.7831,-88.57928,47.89928,11.68,3.85,4.57,2.0
1758074988.69506,1758074988.67007,0.0,0.0,0.0,-27.10091,-76.26069,48.75871,7.0,2.85,3.81,2.0
1758074988.69591,1758074988.68007,0.0,0.0,0.0,-29.10626,-50.64947,43.83128,7.02,1.35,3.83,2.0
1758074988.71105,1758074988.69007,0.0,0.0,0.0,-29.22085,-34.95043,37.98711,7.02,1.35,3.83,2.0
1758074988.72786,1758074988.70007,0.0,0.0,0.0,-28.07493,-20.62648,31.11161,8.94,-0.8,3.32,2.0
1758074988.72879,1758074988.71007,0.0,0.0,0.0,-25.38203,-4.81285,23.94964,8.94,-0.8,3.32,2.0
1758074988.74406,1758074988.72007,0.0,0.0,0.0,-21.08485,24.75178,12.77696,11.14,-2.34,1.71,2.0
1758074988.74539,1758074988.73007,0.0,0.0,0.0,-17.6471,44.9199,6.8182,11.14,-2.34,1.71,2.0
1758074988.76012,1758074988.74007,0.0,0.0,0.0,-14.66772,60.67623,1.03132,12.07,-1.88,-0.6,2.0
1758074988.77707,1758074988.75007,0.0,0.0,0.0,-11.80293,71.04677,-4.69825,12.07,-1.88,-0.6,2.0
1758074988.77827,1758074988.76007,0.0,0.0,0.0,-6.07335,78.03686,-5.72958,11.37,-1.27,-0.33,2.0
1758074988.79305,1758074988.77007,0.0,0.0,0.0,-1.66158,80.1568,-4.23989,10.2,-1.28,0.66,2.0
1758074988.794,1758074988.78007,0.0,0.0,0.0,2.23454,81.18813,-1.20321,10.2,-1.28,0.66,2.0
1758074988.80909,1758074988.79007,0.0,0.0,0.0,6.35983,82.62051,3.95341,9.47,-0.98,1.42,2.0
1758074988.82508,1758074988.80007,0.0,0.0,0.0,7.96411,80.78706,6.24524,9.47,-0.98,1.42,2.0
1758074988.82601,1758074988.81007,0.0,0.0,0.0,8.59437,77.29202,7.79223,8.77,-0.26,1.75,2.0
1758074988.84162,1758074988.82007,0.0,0.0,0.0,8.88085,70.24463,8.65166,8.77,-0.26,1.75,2.0
1758074988.84308,1758074988.83007,0.0,0.0,0.0,5.72958,64.51505,4.64096,8.27,0.43,1.93,2.0
1758074988.86071,1758074988.84007,0.0,0.0,0.0,3.26586,61.65026,1.08862,8.52,0.86,1.74,2.0
1758074988.86503,1758074988.85007,0.0,0.0,0.0,0.40107,58.78547,-3.60963,8.52,0.86,1.74,2.0
1758074988.88187,1758074988.86007,0.0,0.0,0.0,-2.40642,55.29043,-8.30789,8.77,0.89,1.5,2.0
1758074988.8828,1758074988.87007,0.0,0.0,0.0,-6.99009,46.40959,-14.20935,8.77,0.89,1.5,2.0
1758074988.89908,1758074988.88007,0.0,0.0,0.0,-9.91217,40.33623,-17.6471,8.94,0.66,1.51,2.0
1758074988.91487,1758074988.89007,0.0,0.0,0.0,-12.37589,31.91375,-19.59516,8.94,0.66,1.51,2.0
1758074988.91628,1758074988.90007,0.0,0.0,0.0,-14.09476,22.97561,-20.79837,8.72,0.26,1.39,2.0
1758074988.93187,1758074988.91007,0.0,0.0,0.0,-15.69904,13.75099,-19.99623,8.89,0.1,1.36,2.0
1758074988.93278,1758074988.92007,0.0,0.0,0.0,-16.50119,12.14671,-17.53251,8.89,0.1,1.36,2.0
1758074988.94911,1758074988.93007,0.0,0.0,0.0,-16.61578,8.88085,-13.5791,9.68,0.04,1.53,2.0
1758074988.96508,1758074988.94007,0.0,0.0,0.0,-17.99088,7.50575,-7.04738,9.68,0.04,1.53,2.0
1758074988.96631,1758074988.95007,0.0,0.0,0.0,-20.3973,27.44468,-2.06265,11.47,0.43,1.56,2.0
1758074988.98089,1758074988.96007,0.0,0.0,0.0,-24.63719,40.04975,-0.74485,11.47,0.43,1.56,2.0
1758074988.99769,1758074988.97007,0.0,0.0,0.0,-25.49662,43.4875,3.83882,12.01,0.58,1.01,2.0
1758074988.99925,1758074988.98007,0.0,0.0,0.0,-26.35606,-0.80214,5.78687,12.01,0.58,1.01,2.0
1758074989.01395,1758074988.99007,0.0,0.0,0.0,-26.64254,-26.35606,4.81285,7.93,0.48,0.72,2.0
1758074989.01504,1758074989.00007,0.0,0.0,0.0,-28.13223,-43.37291,2.00535,8.28,0.46,-0.51,2.0
1758074989.03004,1758074989.01007,0.0,0.0,0.0,-28.99167,-51.79538,-0.34377,8.28,0.46,-0.51,2.0
1758074989.04624,1758074989.02007,0.0,0.0,0.0,-30.82513,-44.86259,-3.26586,9.94,0.27,-0.6,2.0
1758074989.04746,1758074989.03007,0.0,0.0,0.0,-32.14294,-40.68,-4.35448,9.94,0.27,-0.6,2.0
1758074989.06189,1758074989.04007,0.0,0.0,0.0,-33.17426,-39.4195,-4.1253,10.32,-0.16,-0.3,2.0
1758074989.06336,1758074989.05007,0.0,0.0,0.0,-34.49206,-41.71133,-2.40642,10.32,-0.16,-0.3,2.0
1758074989.07918,1758074989.06007,0.0,0.0,0.0,-36.61201,-52.02457,1.66158,9.11,-0.45,-0.3,2.0
1758074989.09516,1758074989.07007,0.0,0.0,0.0,-36.84119,-61.53567,4.92744,8.36,-0.79,1.72,2.0
1758074989.09611,1758074989.08007,0.0,0.0,0.0,-35.2942,-73.96885,6.8182,8.36,-0.79,1.72,2.0
1758074989.11116,1758074989.09007,0.0,0.0,0.0,-31.85646,-86.45934,4.81285,10.47,-1.19,5.7,2.0
1758074989.12692,1758074989.10007,0.0,0.0,0.0,-21.88699,-98.31956,-11.97482,10.47,-1.19,5.7,2.0
1758074989.12844,1758074989.11007,0.0,0.0,0.0,-11.51645,-100.03843,-27.38738,16.52,-3.22,8.87,2.0
1758074989.14312,1758074989.12007,0.0,0.0,0.0,-0.68755,-101.81461,-42.28429,16.52,-3.22,8.87,2.0
1758074989.14436,1758074989.13007,0.0,0.0,0.0,8.93814,-102.55945,-52.36834,13.46,-3.66,5.68,2.0
1758074989.15916,1758074989.14007,0.0,0.0,0.0,20.51189,-97.86119,-61.30648,6.89,-1.99,3.33,2.0
1758074989.17515,1758074989.15007,0.0,0.0,0.0,25.89769,-88.17821,-63.42643,6.89,-1.99,3.33,2.0
1758074989.17612,1758074989.16007,0.0,0.0,0.0,28.99167,-74.65641,-61.42108,7.01,-0.45,3.41,2.0
1758074989.19116,1758074989.17007,0.0,0.0,0.0,29.56462,-63.19725,-49.67545,7.01,-0.45,3.41,2.0
1758074989.20715,1758074989.18007,0.0,0.0,0.0,27.61657,-46.40959,-35.86716,9.62,1.28,3.66,2.0
1758074989.20812,1758074989.19007,0.0,0.0,0.0,24.63719,-33.11696,-19.99623,9.62,1.28,3.66,2.0
1758074989.22315,1758074989.20007,0.0,0.0,0.0,21.14215,-19.25138,-4.0107,11.82,1.87,2.03,2.0
1758074989.22436,1758074989.21007,0.0,0.0,0.0,15.46986,-0.80214,14.66772,11.82,1.87,2.03,2.0
1758074989.23894,1758074989.22007,0.0,0.0,0.0,13.12073,12.08941,22.68913,11.93,1.61,0.62,2.0
1758074989.25706,1758074989.23007,0.0,0.0,0.0,11.57375,25.55392,27.33009,11.59,1.45,0.38,2.0
1758074989.25792,1758074989.24007,0.0,0.0,0.0,10.37054,38.84654,28.13223,11.59,1.45,0.38,2.0
1758074989.27317,1758074989.25007,0.0,0.0,0.0,8.136,54.08722,26.64254,10.44,0.93,0.6,2.0
1758074989.27921,1758074989.26007,0.0,0.0,0.0,6.7609,58.15522,23.20479,10.44,0.93,0.6,2.0
1758074989.29794,1758074989.27007,0.0,0.0,0.0,5.4431,60.27517,18.27736,9.07,0.21,0.63,2.0
1758074989.30318,1758074989.28007,0.0,0.0,0.0,4.29718,62.39511,12.89155,9.07,0.21,0.63,2.0
1758074989.30545,1758074989.29007,0.0,0.0,0.0,3.95341,62.39511,4.52637,8.96,-0.36,0.96,2.0
1758074989.32118,1758074989.30007,0.0,0.0,0.0,4.81285,60.90542,0.0573,8.56,-0.89,1.13,2.0
1758074989.33723,1758074989.31007,0.0,0.0,0.0,6.47442,58.4417,-2.92208,8.56,-0.89,1.13,2.0
1758074989.33818,1758074989.32007,0.0,0.0,0.0,9.4538,56.89471,-4.46907,8.34,-1.43,1.27,2.0
1758074989.35324,1758074989.33007,0.0,0.0,0.0,16.50119,54.71747,-2.6929,8.34,-1.43,1.27,2.0
1758074989.35418,1758074989.34007,0.0,0.0,0.0,22.23076,52.48294,0.51566,8.54,-1.86,1.34,2.0
1758074989.36929,1758074989.35007,0.0,0.0,0.0,28.64789,50.2484,5.15662,8.54,-1.86,1.34,2.0
1758074989.38527,1758074989.36007,0.0,0.0,0.0,34.95043,47.89928,13.06344,9.02,-1.91,1.23,2.0
1758074989.38663,1758074989.37007,0.0,0.0,0.0,43.02913,43.77398,18.27736,9.45,-1.6,1.16,2.0
1758074989.40126,1758074989.38007,0.0,0.0,0.0,47.67009,42.74266,23.0902,9.45,-1.6,1.16,2.0
1758074989.41706,1758074989.39007,0.0,0.0,0.0,51.16513,44.46153,26.47065,9.94,-1.09,1.18,2.0
1758074989.41819,1758074989.40007,0.0,0.0,0.0,53.51426,48.01387,28.93437,9.94,-1.09,1.18,2.0
1758074989.43297,1758074989.41007,0.0,0.0,0.0,54.02992,47.09713,28.93437,9.95,-0.64,1.21,2.0
1758074989.4345,1758074989.42007,0.0,0.0,0.0,53.45696,40.85189,27.73116,9.95,-0.64,1.21,2.0
1758074989.44919,1758074989.43007,0.0,0.0,0.0,52.02457,31.56997,25.38203,9.36,-0.47,1.17,2.0
1758074989.46524,1758074989.44007,0.0,0.0,0.0,49.79003,19.59516,18.22006,9.36,-0.47,0.64,2.0
1758074989.46697,1758074989.45007,0.0,0.0,0.0,48.12846,18.79302,12.2613,9.53,-0.42,0.64,2.0
1758074989.48197,1758074989.46007,0.0,0.0,0.0,48.52953,18.79302,8.65166,10.32,-0.55,0.56,2.0
1758074989.48325,1758074989.47007,0.0,0.0,0.0,47.67009,19.42327,5.32851,10.32,-0.55,0.56,2.0
1758074989.50131,1758074989.48007,0.0,0.0,0.0,44.8053,30.36677,2.57831,10.56,-0.66,0.14,2.0
1758074989.51698,1758074989.49007,0.0,0.0,0.0,42.51347,28.87707,-0.51566,10.56,-0.66,0.14,2.0
1758074989.52144,1758074989.50007,0.0,0.0,0.0,42.34158,0.45837,-6.07335,8.42,-0.56,0.21,2.0
1758074989.53693,1758074989.51007,0.0,0.0,0.0,44.00316,-44.40423,-4.98473,8.42,-0.56,0.21,2.0
1758074989.53873,1758074989.52007,0.0,0.0,0.0,49.38896,-87.43336,5.50039,4.07,-0.62,-1.97,2.0
1758074989.55305,1758074989.53007,0.0,0.0,0.0,51.39432,-87.89172,9.33921,7.57,-1.27,-1.11,2.0
1758074989.55851,1758074989.54007,0.0,0.0,0.0,54.94666,-85.77179,13.34992,7.57,-1.27,-1.11,2.0
1758074989.5757,1758074989.55007,0.0,0.0,0.0,56.37905,-89.55331,16.50119,9.4,-1.12,2.6,2.0
1758074989.57772,1758074989.56007,0.0,0.0,0.0,50.53488,-115.85207,25.38203,9.4,-1.12,2.6,2.0
1758074989.5933,1758074989.57007,0.0,0.0,0.0,44.748,-125.99342,40.04975,14.15,0.41,8.18,2.0
1758074989.59667,1758074989.58007,0.0,0.0,0.0,36.61201,-121.06599,52.82671,14.15,0.41,8.18,2.0
1758074989.61234,1758074989.59007,0.0,0.0,0.0,24.12152,-115.27911,71.27596,19.8,4.03,6.89,2.0
1758074989.61326,1758074989.60007,0.0,0.0,0.0,16.67307,-104.22102,75.97421,13.09,3.98,5.01,2.0
1758074989.62937,1758074989.61007,0.0,0.0,0.0,11.57375,-97.40282,78.7817,13.09,3.98,5.01,2.0
1758074989.64538,1758074989.62007,0.0,0.0,0.0,7.39116,-86.63122,76.77635,6.59,2.22,3.47,2.0
1758074989.64627,1758074989.63007,0.0,0.0,0.0,5.90147,-65.83286,67.55173,6.59,2.22,3.47,2.0
1758074989.66268,1758074989.64007,0.0,0.0,0.0,6.47442,-53.45696,57.0093,7.2,0.86,4.12,2.0
1758074989.66433,1758074989.65007,0.0,0.0,0.0,7.50575,-41.76862,42.97184,7.2,0.86,4.12,2.0
1758074989.68015,1758074989.66007,0.0,0.0,0.0,8.70896,-27.96034,26.87172,9.52,-0.22,3.0,2.0
1758074989.69738,1758074989.67007,0.0,0.0,0.0,11.17268,-0.34377,3.20856,11.47,-0.79,0.6,2.0
1758074989.6983,1758074989.68007,0.0,0.0,0.0,13.5218,19.88164,-9.74028,11.47,-0.79,0.6,2.0
1758074989.71338,1758074989.69007,0.0,0.0,0.0,17.81899,40.45082,-19.42327,12.16,-1.15,-0.75,2.0
1758074989.71432,1758074989.70007,0.0,0.0,0.0,25.89769,58.04062,-25.09555,12.16,-1.15,-0.75,2.0
1758074989.72905,1758074989.71007,0.0,0.0,0.0,41.08107,72.36457,-25.26744,11.4,-2.91,0.28,2.0
1758074989.74634,1758074989.72007,0.0,0.0,0.0,49.61814,77.86497,-20.62648,11.4,-2.91,0.28,2.0
1758074989.74731,1758074989.73007,0.0,0.0,0.0,52.36834,80.32869,-13.5218,10.29,-2.63,-0.53,2.0
1758074989.76211,1758074989.74007,0.0,0.0,0.0,51.45161,80.32869,-4.69825,10.29,-2.63,-0.53,2.0
1758074989.76332,1758074989.75007,0.0,0.0,0.0,48.24305,77.86497,7.44845,10.03,-0.38,-0.38,2.0
1758074989.78018,1758074989.76007,0.0,0.0,0.0,46.35228,74.42722,14.61043,9.4,0.41,1.1,2.0
1758074989.79713,1758074989.77007,0.0,0.0,0.0,44.40423,70.01544,20.05352,9.4,0.41,1.1,2.0
1758074989.79834,1758074989.78007,0.0,0.0,0.0,39.70598,65.2026,23.60586,8.25,1.04,1.79,2.0
1758074989.81538,1758074989.79007,0.0,0.0,0.0,35.2942,52.36834,23.94964,8.25,1.04,1.79,2.0
1758074989.81758,1758074989.80007,0.0,0.0,0.0,29.50733,45.55015,20.74107,7.32,1.62,1.8,2.0
1758074989.83236,1758074989.81007,0.0,0.0,0.0,24.4653,40.50812,16.95955,7.32,1.62,1.8,2.0
1758074989.83331,1758074989.82007,0.0,0.0,0.0,16.90226,36.32552,8.99544,7.7,1.81,1.52,2.0
1758074989.84941,1758074989.83007,0.0,0.0,0.0,12.37589,33.86181,3.60963,8.51,1.39,1.03,2.0
1758074989.86537,1758074989.84007,0.0,0.0,0.0,8.76626,30.36677,-0.97403,8.51,1.39,1.03,2.0
1758074989.86673,1758074989.85007,0.0,0.0,0.0,6.53172,21.42862,-4.0107,8.78,0.72,0.81,2.0
1758074989.88119,1758074989.86007,0.0,0.0,0.0,5.95876,10.59972,-7.21927,8.78,0.72,0.81,2.0
1758074989.89747,1758074989.87007,0.0,0.0,0.0,6.18794,8.47978,-6.99009,9.24,0.02,0.74,2.0
1758074989.89865,1758074989.88007,0.0,0.0,0.0,6.99009,9.85487,-4.58366,9.24,0.02,0.74,2.0
1758074989.91316,1758074989.89007,0.0,0.0,0.0,7.44845,15.35527,-0.68755,10.63,-0.26,0.85,2.0
1758074989.91461,1758074989.90007,0.0,0.0,0.0,8.30789,37.81522,4.69825,12.08,-0.41,1.21,2.0
1758074989.92942,1758074989.91007,0.0,0.0,0.0,7.62034,52.08187,5.50039,12.08,-0.41,1.21,2.0
1758074989.94541,1758074989.92007,0.0,0.0,0.0,8.65166,61.42108,8.65166,11.78,-0.16,0.82,2.0
1758074989.94675,1758074989.93007,0.0,0.0,0.0,9.74028,59.35843,12.71966,11.78,-0.16,0.82,2.0
1758074989.96199,1758074989.94007,0.0,0.0,0.0,11.57375,10.37054,13.86558,8.28,0.03,0.65,2.0
1758074989.96316,1758074989.95007,0.0,0.0,0.0,12.2613,-11.80293,12.89155,8.28,0.03,0.65,2.0
1758074989.97943,1758074989.96007,0.0,0.0,0.0,13.06344,-26.35606,11.80293,7.9,0.24,-0.7,2.0
1758074989.99517,1758074989.97007,0.0,0.0,0.0,12.89155,-33.68992,9.4538,7.9,0.24,-0.7,2.0
1758074989.99748,1758074989.98007,0.0,0.0,0.0,12.49048,-39.4768,8.59437,8.4,0.27,-0.97,2.0
1758074990.01243,1758074989.99007,0.0,0.0,0.0,11.28727,-38.21629,6.53172,9.46,-0.01,-1.0,2.0
1758074990.01339,1758074990.00007,0.0,0.0,0.0,10.54242,-38.78925,5.4431,9.46,-0.01,-1.0,2.0
1758074990.03098,1758074990.01007,0.0,0.0,0.0,9.74028,-44.28964,3.95341,9.54,-0.15,-0.71,2.0
1758074990.04746,1758074990.02007,0.0,0.0,0.0,9.28192,-53.05589,3.09397,9.54,-0.15,-0.71,2.0
1758074990.04865,1758074990.03007,0.0,0.0,0.0,10.54242,-63.54102,2.11994,9.46,-0.3,1.63,2.0
1758074990.06351,1758074990.04007,0.0,0.0,0.0,12.83425,-74.88559,-0.17189,9.46,-0.3,1.63,2.0
1758074990.0655,1758074990.05007,0.0,0.0,0.0,22.23076,-84.11021,-11.28727,12.46,-0.63,5.12,2.0
1758074990.08124,1758074990.06007,0.0,0.0,0.0,31.91375,-90.12627,-22.68913,17.93,-2.56,8.56,2.0
1758074990.09721,1758074990.07007,0.0,0.0,0.0,41.48215,-97.05905,-34.66395,17.93,-2.56,8.56,2.0
1758074990.09874,1758074990.08007,0.0,0.0,0.0,48.52953,-100.78329,-41.25296,13.25,-3.13,4.22,2.0
1758074990.11329,1758074990.09007,0.0,0.0,0.0,53.39967,-99.69466,-43.25832,13.25,-3.13,4.22,2.0
1758074990.11467,1758074990.10007,0.0,0.0,0.0,54.94666,-93.7359,-41.88322,6.42,-1.86,2.68,2.0
1758074990.12945,1758074990.11007,0.0,0.0,0.0,57.18119,-84.74047,-40.50812,6.42,-1.86,2.68,2.0
1758074990.14765,1758074990.12007,0.0,0.0,0.0,60.27517,-75.85962,-39.53409,6.73,0.04,4.1,2.0
1758074990.14793,1758074990.13007,0.0,0.0,0.0,63.65561,-64.85883,-34.49206,9.29,2.06,4.22,2.0
1758074990.16346,1758074990.14007,0.0,0.0,0.0,64.11398,-57.63955,-27.33009,9.29,2.06,4.22,2.0
1758074990.16608,1758074990.15007,0.0,0.0,0.0,62.85347,-46.1231,-17.87628,10.77,2.67,2.01,2.0
1758074990.18158,1758074990.16007,0.0,0.0,0.0,60.33246,-31.79916,-8.136,10.77,2.67,2.01,2.0
1758074990.19763,1758074990.17007,0.0,0.0,0.0,55.6342,-10.37054,5.21392,11.88,2.08,0.74,2.0
1758074990.19813,1758074990.18007,0.0,0.0,0.0,52.82671,2.63561,11.80293,11.88,2.08,0.74,2.0
1758074990.21359,1758074990.19007,0.0,0.0,0.0,50.13381,15.12609,15.87093,11.72,0.95,0.2,2.0
1758074990.21445,1758074990.20007,0.0,0.0,0.0,46.98254,34.37747,18.22006,11.72,0.95,0.2,2.0
1758074990.22929,1758074990.21007,0.0,0.0,0.0,44.40423,41.65404,16.55848,11.07,0.01,0.1,2.0
1758074990.24532,1758074990.22007,0.0,0.0,0.0,42.57077,46.00851,13.75099,9.76,-0.47,0.45,2.0
1758074990.24687,1758074990.23007,0.0,0.0,0.0,41.76862,49.38896,10.19865,9.76,-0.47,0.45,2.0
1758074990.26135,1758074990.24007,0.0,0.0,0.0,42.1124,52.36834,4.92744,9.63,-0.97,0.56,2.0
1758074990.27916,1758074990.25007,0.0,0.0,0.0,44.00316,54.25911,2.00535,9.63,-0.97,0.56,2.0
1758074990.2796,1758074990.26007,0.0,0.0,0.0,46.75336,55.34772,0.34377,9.64,-1.25,0.92,2.0
1758074990.2974,1758074990.27007,0.0,0.0,0.0,50.76406,55.34772,0.51566,9.64,-1.25,0.92,2.0
1758074990.29984,1758074990.28007,0.0,0.0,0.0,58.21251,55.51962,3.55234,9.3,-1.49,0.85,2.0
1758074990.3156,1758074990.29007,0.0,0.0,0.0,63.65561,54.3164,7.21927,9.13,-1.58,0.71,2.0
1758074990.31855,1758074990.30007,0.0,0.0,0.0,68.98412,52.36834,11.63104,9.13,-1.58,0.71,2.0
1758074990.33333,1758074990.31007,0.0,0.0,0.0,73.62508,50.01921,16.38659,9.28,-1.35,0.63,2.0
1758074990.33528,1758074990.32007,0.0,0.0,0.0,79.06818,46.75336,22.74642,9.28,-1.35,0.63,2.0
1758074990.35057,1758074990.33007,0.0,0.0,0.0,81.76109,43.77398,26.47065,9.41,-1.1,0.42,2.0
1758074990.36632,1758074990.34007,0.0,0.0,0.0,83.65184,36.84119,29.27814,9.41,-1.1,0.42,2.0
1758074990.36693,1758074990.35007,0.0,0.0,0.0,84.39669,29.56462,30.93972,8.81,-0.87,0.47,2.0
1758074990.3823,1758074990.36007,0.0,0.0,0.0,83.42266,23.49127,30.25217,9.0,-0.68,0.54,2.0
1758074990.38543,1758074990.37007,0.0,0.0,0.0,83.53725,31.11161,28.87707,9.0,-0.68,0.54,2.0
1758074990.40194,1758074990.38007,0.0,0.0,0.0,83.76643,44.23235,27.1582,10.68,-0.46,0.77,2.0
1758074990.40504,1758074990.39007,0.0,0.0,0.0,83.02158,53.62885,25.38203,10.68,-0.46,0.77,2.0
1758074990.42198,1758074990.40007,0.0,0.0,0.0,81.07353,69.27061,22.91831,10.85,-0.22,0.66,2.0
1758074990.42622,1758074990.41007,0.0,0.0,0.0,78.66711,72.88023,19.88164,10.85,-0.22,0.66,2.0
1758074990.44164,1758074990.42007,0.0,0.0,0.0,77.12012,60.44705,16.55848,9.63,-0.02,0.82,2.0
1758074990.44594,1758074990.43007,0.0,0.0,0.0,76.26069,5.15662,12.14671,9.63,-0.02,0.82,2.0
1758074990.46159,1758074990.44007,0.0,0.0,0.0,74.14074,-27.38738,15.0115,5.47,-0.21,0.03,2.0
1758074990.47743,1758074990.45007,0.0,0.0,0.0,73.91156,-40.27893,19.88164,7.13,-0.88,-0.2,2.0
1758074990.4779,1758074990.46007,0.0,0.0,0.0,73.62508,-45.55015,22.68913,7.13,-0.88,-0.2,2.0
1758074990.49543,1758074990.47007,0.0,0.0,0.0,74.08345,-46.06581,25.43933,8.42,-0.8,-0.48,2.0
1758074990.49791,1758074990.48007,0.0,0.0,0.0,74.65641,-45.60744,25.15285,8.42,-0.8,-0.48,2.0
1758074990.51359,1758074990.49007,0.0,0.0,0.0,74.7137,-48.07116,24.17882,8.84,-0.63,-0.22,2.0
1758074990.51531,1758074990.50007,0.0,0.0,0.0,74.25533,-54.88936,22.51724,8.84,-0.63,-0.22,2.0
1758074990.53222,1758074990.51007,0.0,0.0,0.0,71.90621,-69.61437,21.14215,8.99,-0.44,1.43,2.0
1758074990.53394,1758074990.52007,0.0,0.0,0.0,68.92683,-79.01089,22.91831,12.53,0.44,3.77,2.0
1758074990.54964,1758074990.53007,0.0,0.0,0.0,65.54638,-87.71984,29.50733,12.53,0.44,3.77,2.0
1758074990.56738,1758074990.54007,0.0,0.0,0.0,61.76485,-92.07432,39.4195,17.67,2.93,5.39,2.0
1758074990.56776,1758074990.55007,0.0,0.0,0.0,55.11855,-87.14688,52.76942,17.67,2.93,5.39,2.0
1758074990.58372,1758074990.56007,0.0,0.0,0.0,51.10783,-82.04756,57.29578,15.03,3.31,2.81,2.0
1758074990.58536,1758074990.57007,0.0,0.0,0.0,48.52953,-79.98491,58.26981,15.03,3.31,2.81,2.0
1758074990.60062,1758074990.58007,0.0,0.0,0.0,48.01387,-75.17207,53.62885,7.94,1.43,2.75,2.0
1758074990.60348,1758074990.59007,0.0,0.0,0.0,49.79003,-58.55629,46.75336,6.74,0.58,2.93,2.0
1758074990.6238,1758074990.60007,0.0,0.0,0.0,52.25375,-44.28964,38.27358,6.74,0.58,2.93,2.0
1758074990.62567,1758074990.61007,0.0,0.0,0.0,55.86338,-30.93972,30.19488,8.56,-0.04,2.67,2.0
1758074990.6407,1758074990.62007,0.0,0.0,0.0,60.73353,-14.78231,18.56383,8.56,-0.04,2.67,2.0
1758074990.64321,1758074990.63007,0.0,0.0,0.0,62.56699,-4.81285,11.22997,10.77,-0.69,1.78,2.0
1758074990.6597,1758074990.64007,0.0,0.0,0.0,62.85347,8.76626,4.23989,10.77,-0.69,1.78,2.0
1758074990.66226,1758074990.65007,0.0,0.0,0.0,63.42643,26.52795,-1.14592,12.89,-0.94,0.19,2.0
1758074990.67803,1758074990.66007,0.0,0.0,0.0,66.29122,50.64947,-6.8182,12.89,-0.94,-0.33,2.0
1758074990.69467,1758074990.67007,0.0,0.0,0.0,68.86953,61.36378,-8.0787,12.97,-1.29,-0.33,2.0
1758074990.69643,1758074990.68007,0.0,0.0,0.0,70.47381,68.23928,-7.21927,11.34,-1.44,-0.22,2.0
1758074990.71176,1758074990.69007,0.0,0.0,0.0,70.87489,73.45319,-3.95341,11.34,-1.44,-0.22,2.0
1758074990.71294,1758074990.70007,0.0,0.0,0.0,69.78626,75.28666,2.29183,10.42,-0.75,0.15,2.0
1758074990.72795,1758074990.71007,0.0,0.0,0.0,68.35387,73.3386,7.73493,10.42,-0.75,0.15,2.0
1758074990.74372,1758074990.72007,0.0,0.0,0.0,66.46311,68.64035,12.77696,9.68,0.24,1.02,2.0
1758074990.74541,1758074990.73007,0.0,0.0,0.0,63.88479,63.31184,17.18874,9.68,0.24,1.02,2.0
1758074990.76044,1758074990.74007,0.0,0.0,0.0,59.41573,53.62885,20.45459,9.13,1.19,1.69,2.0
1758074990.76402,1758074990.75007,0.0,0.0,0.0,56.03527,42.1124,21.08485,8.33,1.93,1.95,2.0
1758074990.77946,1758074990.76007,0.0,0.0,0.0,50.82136,34.60666,18.56383,8.33,1.93,1.95,2.0
1758074990.79589,1758074990.77007,0.0,0.0,0.0,45.37826,28.59059,14.66772,8.19,2.26,1.93,2.0
1758074990.79706,1758074990.78007,0.0,0.0,0.0,36.7266,21.88699,7.21927,8.19,2.26,1.93,2.0
1758074990.81182,1758074990.79007,0.0,0.0,0.0,30.99702,19.13679,1.77617,8.39,2.09,1.58,2.0
1758074990.81299,1758074990.80007,0.0,0.0,0.0,25.49662,16.21471,-2.57831,8.39,2.09,1.58,2.0
1758074990.82812,1758074990.81007,0.0,0.0,0.0,18.9649,9.28192,-7.62034,8.75,1.59,1.39,2.0
1758074990.84377,1758074990.82007,0.0,0.0,0.0,16.10011,4.46907,-9.33921,8.83,1.03,1.26,2.0
1758074990.84626,1758074990.83007,0.0,0.0,0.0,14.03747,3.89611,-10.31324,8.83,1.03,1.26,2.0
1758074990.8616,1758074990.84007,0.0,0.0,0.0,13.00614,6.35983,-10.02676,9.77,0.52,1.08,2.0
1758074990.86273,1758074990.85007,0.0,0.0,0.0,12.08941,9.28192,-7.44845,9.77,0.52,1.08,2.0
1758074990.87925,1758074990.86007,0.0,0.0,0.0,11.45916,12.08941,-4.58366,10.58,0.39,0.99,2.0
1758074990.88281,1758074990.87007,0.0,0.0,0.0,11.57375,22.63183,-0.74485,10.58,0.39,0.99,2.0
1758074990.89919,1758074990.88007,0.0,0.0,0.0,11.17268,47.03984,1.20321,11.82,0.32,0.84,2.0
1758074990.9156,1758074990.89007,0.0,0.0,0.0,11.45916,66.5204,7.16197,11.42,0.38,0.68,2.0
1758074990.91725,1758074990.90007,0.0,0.0,0.0,9.39651,45.09178,5.15662,11.42,0.38,0.68,2.0
1758074990.93284,1758074990.91007,0.0,0.0,0.0,9.68299,29.10626,3.66693,8.3,0.67,0.44,2.0
1758074990.93526,1758074990.92007,0.0,0.0,0.0,10.37054,14.38124,2.57831,8.3,0.67,0.44,2.0
1758074990.95156,1758074990.93007,0.0,0.0,0.0,10.71431,-0.34377,0.97403,8.7,0.8,-0.54,2.0
1758074990.95676,1758074990.94007,0.0,0.0,0.0,10.94349,-7.10468,1.03132,8.7,0.8,-0.54,2.0
1758074990.97175,1758074990.95007,0.0,0.0,0.0,11.00079,-10.59972,1.66158,8.51,0.61,-0.56,2.0
1758074990.97269,1758074990.96007,0.0,0.0,0.0,10.25595,-10.59972,3.38045,8.51,0.61,-0.56,2.0
1758074990.98803,1758074990.97007,0.0,0.0,0.0,8.99544,-12.77696,6.13065,9.06,0.36,-0.66,2.0
1758074991.00537,1758074990.98007,0.0,0.0,0.0,8.136,-18.73572,7.73493,8.6,0.21,-0.44,2.0
1758074991.00629,1758074990.99007,0.0,0.0,0.0,7.62034,-28.24682,8.70896,8.6,0.21,-0.44,2.0
1758074991.02181,1758074991.00007,0.0,0.0,0.0,8.25059,-43.14373,7.79223,8.68,0.09,1.82,2.0
1758074991.02543,1758074991.01007,0.0,0.0,0.0,9.5684,-67.26525,4.98473,8.68,0.09,1.82,2.0
1758074991.04211,1758074991.02007,0.0,0.0,0.0,13.75099,-75.51585,-0.80214,11.84,-0.48,5.19,2.0
1758074991.04336,1758074991.03007,0.0,0.0,0.0,21.08485,-79.52654,-9.11003,11.84,-0.48,5.19,2.0
1758074991.06192,1758074991.04007,0.0,0.0,0.0,33.00237,-88.2355,-25.43933,17.68,-2.57,7.42,2.0
1758074991.0631,1758074991.05007,0.0,0.0,0.0,39.4195,-90.92841,-32.08564,13.94,-2.8,3.72,2.0
1758074991.0801,1758074991.06007,0.0,0.0,0.0,44.11775,-91.27219,-34.72124,13.94,-2.8,3.72,2.0
1758074991.09555,1758074991.07007,0.0,0.0,0.0,46.52417,-88.98035,-35.12231,6.89,-1.39,2.52,2.0
1758074991.09673,1758074991.08007,0.0,0.0,0.0,49.61814,-81.36001,-33.11696,6.89,-1.39,2.52,2.0
1758074991.11278,1758074991.09007,0.0,0.0,0.0,52.02457,-73.10942,-31.74186,5.76,-0.21,3.51,2.0
1758074991.11568,1758074991.10007,0.0,0.0,0.0,53.28508,-63.88479,-30.82513,5.76,-0.21,3.51,2.0
1758074991.13158,1758074991.11007,0.0,0.0,0.0,53.11319,-54.71747,-28.476,8.2,1.26,3.93,2.0
1758074991.13295,1758074991.12007,0.0,0.0,0.0,50.3057,-42.1124,-20.74107,9.79,2.01,2.71,2.0
1758074991.14807,1758074991.13007,0.0,0.0,0.0,46.69606,-32.48671,-13.17803,9.79,2.01,2.71,2.0
1758074991.16544,1758074991.14007,0.0,0.0,0.0,42.51347,-20.11082,-5.95876,11.17,1.63,1.66,2.0
1758074991.16787,1758074991.15007,0.0,0.0,0.0,38.44547,-7.16197,0.51566,11.17,1.63,1.66,2.0
1758074991.18702,1758074991.16007,0.0,0.0,0.0,28.24682,15.41257,7.21927,11.6,1.03,1.02,2.0
1758074991.18792,1758074991.17007,0.0,0.0,0.0,17.13144,33.23156,9.11003,11.6,1.03,1.02,2.0
1758074991.20515,1758074991.18007,0.0,0.0,0.0,6.18794,44.46153,8.99544,11.26,2.17,2.01,2.0
1758074991.20747,1758074991.19007,0.0,0.0,0.0,1.60428,45.37826,7.16197,11.26,2.17,2.01,2.0
1758074991.22287,1758074991.20007,0.0,0.0,0.0,5.09932,47.61279,4.52637,9.25,1.13,0.53,2.0
1758074991.22538,1758074991.21007,0.0,0.0,0.0,8.65166,53.39967,1.94806,10.03,-1.11,-0.08,2.0
1758074991.24137,1758074991.22007,0.0,0.0,0.0,12.204,58.67088,-0.22918,10.03,-1.11,-0.08,2.0
1758074991.24332,1758074991.23007,0.0,0.0,0.0,17.53251,60.67623,-1.71887,9.9,-1.4,1.1,2.0
1758074991.26061,1758074991.24007,0.0,0.0,0.0,21.37133,59.12925,-1.08862,9.9,-1.4,1.1,2.0
1758074991.2618,1758074991.25007,0.0,0.0,0.0,25.72581,57.52497,1.08862,8.88,-1.28,1.22,2.0
1758074991.27791,1758074991.26007,0.0,0.0,0.0,30.30947,56.03527,4.18259,8.88,-1.28,1.22,2.0
1758074991.29461,1758074991.27007,0.0,0.0,0.0,36.89849,53.11319,10.54242,8.9,-1.14,1.12,2.0
1758074991.29749,1758074991.28007,0.0,0.0,0.0,40.7373,50.2484,15.0115,9.04,-0.98,0.89,2.0
1758074991.31284,1758074991.29007,0.0,0.0,0.0,43.88857,47.67009,19.07949,9.04,-0.98,0.89,2.0
1758074991.31377,1758074991.30007,0.0,0.0,0.0,46.35228,44.11775,22.11617,9.01,-0.81,0.67,2.0
1758074991.32944,1758074991.31007,0.0,0.0,0.0,48.35764,37.75792,24.29341,9.01,-0.81,0.67,2.0
1758074991.33211,1758074991.32007,0.0,0.0,0.0,49.15978,30.99702,24.57989,8.47,-0.59,0.6,2.0
1758074991.34792,1758074991.33007,0.0,0.0,0.0,49.15978,22.00158,23.31938,8.47,-0.59,0.6,2.0
1758074991.36546,1758074991.34007,0.0,0.0,0.0,47.49821,13.98017,20.97026,7.58,-0.35,0.66,2.0
1758074991.36713,1758074991.35007,0.0,0.0,0.0,45.72203,12.60507,14.72501,8.08,-0.15,0.56,2.0
1758074991.38287,1758074991.36007,0.0,0.0,0.0,43.77398,19.82434,9.28192,8.08,-0.15,0.56,2.0
1758074991.38494,1758074991.37007,0.0,0.0,0.0,43.31561,26.75713,5.4431,9.24,-0.05,0.83,2.0
1758074991.40067,1758074991.38007,0.0,0.0,0.0,41.99781,30.25217,1.48969,9.24,-0.05,0.83,2.0
1758074991.42679,1758074991.39007,0.0,0.0,0.0,38.44547,40.16434,-3.32316,9.38,0.03,0.59,2.0
1758074991.42815,1758074991.40007,0.0,0.0,0.0,35.63798,42.34158,-6.53172,9.38,0.03,0.59,2.0
1758074991.42932,1758074991.41007,0.0,0.0,0.0,33.17426,35.98175,-10.65701,8.92,0.25,0.8,2.0
1758074991.44461,1758074991.42007,0.0,0.0,0.0,26.81443,-0.40107,-18.56383,8.92,0.25,0.8,2.0
1758074991.44582,1758074991.43007,0.0,0.0,0.0,26.98631,-38.90384,-15.92823,5.98,0.45,0.16,2.0
1758074991.46094,1758074991.44007,0.0,0.0,0.0,25.7831,-65.43179,-8.59437,6.3,0.3,-1.01,2.0
1758074991.46182,1758074991.45007,0.0,0.0,0.0,23.0902,-67.03606,-4.92744,6.3,0.3,-1.01,2.0
1758074991.4779,1758074991.46007,0.0,0.0,0.0,21.02755,-62.62429,0.0,9.24,0.51,-0.88,2.0
1758074991.49494,1758074991.47007,0.0,0.0,0.0,20.22541,-63.65561,1.43239,9.24,0.51,-0.88,2.0
1758074991.49672,1758074991.48007,0.0,0.0,0.0,20.45459,-65.48907,0.0573,9.4,0.98,-0.76,2.0
1758074991.51266,1758074991.49007,0.0,0.0,0.0,21.08485,-68.12468,-3.66693,9.4,0.98,-0.76,2.0
1758074991.51387,1758074991.50007,0.0,0.0,0.0,22.63183,-73.2813,-12.60507,9.35,1.49,-0.59,2.0
1758074991.52967,1758074991.51007,0.0,0.0,0.0,22.00158,-78.03686,-17.99088,10.43,1.65,1.74,2.0
1758074991.53221,1758074991.52007,0.0,0.0,0.0,17.18874,-80.61517,-22.34536,10.43,1.65,1.74,2.0
1758074991.54798,1758074991.53007,0.0,0.0,0.0,9.28192,-88.86576,-21.7151,15.92,2.04,6.49,2.0
1758074991.56559,1758074991.54007,0.0,0.0,0.0,-4.64096,-103.93455,3.26586,15.92,2.04,6.49,2.0
1758074991.56722,1758074991.55007,0.0,0.0,0.0,-15.69904,-101.06976,24.92367,22.6,3.4,8.15,2.0
1758074991.58303,1758074991.56007,0.0,0.0,0.0,-25.38203,-92.3035,43.54479,22.6,3.4,8.15,2.0
1758074991.58705,1758074991.57007,0.0,0.0,0.0,-33.05967,-76.66176,54.48829,17.19,1.88,4.69,2.0
1758074991.60301,1758074991.58007,0.0,0.0,0.0,-41.31026,-47.49821,56.26446,9.05,-0.21,3.29,2.0
1758074991.60415,1758074991.59007,0.0,0.0,0.0,-43.31561,-29.73651,50.87865,9.05,-0.21,3.29,2.0
1758074991.61871,1758074991.60007,0.0,0.0,0.0,-43.31561,-12.77696,41.48215,7.93,-1.88,3.73,2.0
1758074991.63571,1758074991.61007,0.0,0.0,0.0,-41.99781,0.45837,24.75178,7.93,-1.88,3.73,2.0
1758074991.63672,1758074991.62007,0.0,0.0,0.0,-39.4768,12.71966,12.37589,9.9,-3.46,3.36,2.0
1758074991.65198,1758074991.63007,0.0,0.0,0.0,-33.74722,19.36597,2.97938,9.9,-3.46,3.36,2.0
1758074991.65314,1758074991.64007,0.0,0.0,0.0,-26.87172,31.97105,-4.87014,11.23,-3.21,1.07,2.0
1758074991.66808,1758074991.65007,0.0,0.0,0.0,-16.50119,53.39967,-12.49048,11.23,-3.21,1.07,2.0
1758074991.68403,1758074991.66007,0.0,0.0,0.0,-11.45916,65.71826,-15.87093,12.11,-2.02,-0.03,2.0
1758074991.68565,1758074991.67007,0.0,0.0,0.0,-8.136,70.6457,-16.90226,11.04,-1.12,0.62,2.0
1758074991.70071,1758074991.68007,0.0,0.0,0.0,-6.35983,68.86953,-16.38659,11.04,-1.12,0.62,2.0
1758074991.70221,1758074991.69007,0.0,0.0,0.0,-5.15662,66.06203,-12.37589,9.33,-0.62,1.19,2.0
1758074991.71797,1758074991.70007,0.0,0.0,0.0,-4.81285,63.8275,-9.22462,9.33,-0.62,1.19,2.0
1758074991.73505,1758074991.71007,0.0,0.0,0.0,-4.29718,60.38975,-6.07335,8.38,-0.19,1.47,2.0
1758074991.7367,1758074991.72007,0.0,0.0,0.0,-4.52637,55.11855,-3.38045,8.38,-0.19,1.47,2.0
1758074991.75275,1758074991.73007,0.0,0.0,0.0,-6.7609,41.59674,-1.48969,7.35,0.18,2.08,2.0
1758074991.75395,1758074991.74007,0.0,0.0,0.0,-9.91217,33.68992,-1.43239,7.11,0.65,2.07,2.0
1758074991.77004,1758074991.75007,0.0,0.0,0.0,-14.49583,28.36141,-2.6929,7.11,0.65,2.07,2.0
1758074991.77252,1758074991.76007,0.0,0.0,0.0,-20.11082,23.37668,-5.27121,8.06,1.18,1.61,2.0
1758074991.7879,1758074991.77007,0.0,0.0,0.0,-28.30412,13.69369,-8.76626,8.06,1.18,1.61,2.0
1758074991.80475,1758074991.78007,0.0,0.0,0.0,-35.2942,12.43318,-14.32395,8.93,1.4,0.91,2.0
1758074991.80627,1758074991.79007,0.0,0.0,0.0,-40.7373,14.72501,-18.73572,8.93,1.4,0.91,2.0
1758074991.82253,1758074991.80007,0.0,0.0,0.0,-44.63341,20.22541,-25.43933,10.01,1.19,0.66,2.0
1758074991.8235,1758074991.81007,0.0,0.0,0.0,-49.04519,23.54857,-29.33544,10.17,0.64,0.6,2.0
1758074991.84185,1758074991.82007,0.0,0.0,0.0,-50.93595,25.72581,-32.20023,10.17,0.64,0.6,2.0
1758074991.84304,1758074991.83007,0.0,0.0,0.0,-52.13916,25.7831,-33.9764,10.01,0.29,0.84,2.0
1758074991.85896,1758074991.84007,0.0,0.0,0.0,-52.08187,19.59516,-34.43476,10.01,0.29,0.84,2.0
1758074991.87473,1758074991.85007,0.0,0.0,0.0,-52.08187,10.31324,-32.88778,9.1,0.0,0.53,2.0
1758074991.87599,1758074991.86007,0.0,0.0,0.0,-50.82136,4.0107,-31.16891,9.1,0.0,0.53,2.0
1758074991.89183,1758074991.87007,0.0,0.0,0.0,-49.56085,-6.70361,-28.24682,8.76,0.01,0.38,2.0
1758074991.89278,1758074991.88007,0.0,0.0,0.0,-47.72739,-24.29341,-24.5226,8.76,0.01,0.05,2.0
1758074991.90806,1758074991.89007,0.0,0.0,0.0,-47.72739,-15.87093,-19.82434,8.32,0.08,0.05,2.0
1758074991.92374,1758074991.90007,0.0,0.0,0.0,-49.38896,18.27736,-20.51189,12.31,0.66,0.38,2.0
1758074991.92497,1758074991.91007,0.0,0.0,0.0,-51.79538,42.22699,-16.38659,12.31,0.66,0.38,2.0
1758074991.93999,1758074991.92007,0.0,0.0,0.0,-57.81144,3.89611,-19.42327,9.27,1.01,0.8,2.0
1758074991.95601,1758074991.93007,0.0,0.0,0.0,-59.87409,-16.04282,-19.53786,9.27,1.01,0.8,2.0
1758074991.95695,1758074991.94007,0.0,0.0,0.0,-62.68159,-29.9084,-22.34536,7.51,1.78,-0.63,2.0
1758074991.97206,1758074991.95007,0.0,0.0,0.0,-64.51505,-30.76784,-22.40265,7.51,1.78,-0.63,2.0
1758074991.97333,1758074991.96007,0.0,0.0,0.0,-68.92683,-25.72581,-21.7724,8.96,1.91,-0.64,2.0
1758074991.98803,1758074991.97007,0.0,0.0,0.0,-71.73432,-29.50733,-22.40265,9.61,1.49,1.95,2.0
1758074992.00403,1758074991.98007,0.0,0.0,0.0,-74.08345,-44.86259,-25.38203,9.61,1.49,1.95,2.0
1758074992.00579,1758074991.99007,0.0,0.0,0.0,-75.80232,-66.5204,-32.37212,11.63,0.3,4.73,2.0
1758074992.02102,1758074992.00007,0.0,0.0,0.0,-74.7137,-79.69843,-50.2484,11.63,0.3,4.73,2.0
1758074992.02203,1758074992.01007,0.0,0.0,0.0,-70.41652,-70.58841,-58.26981,16.25,-3.07,4.87,2.0
1758074992.03781,1758074992.02007,0.0,0.0,0.0,-64.17127,-60.50434,-60.16057,16.25,-3.07,4.87,2.0
1758074992.0548,1758074992.03007,0.0,0.0,0.0,-54.431,-62.33781,-56.20716,12.47,-4.09,2.97,2.0
1758074992.05598,1758074992.04007,0.0,0.0,0.0,-49.04519,-68.12468,-50.53488,6.39,-3.05,2.93,2.0
1758074992.07186,1758074992.05007,0.0,0.0,0.0,-45.20637,-65.66096,-43.77398,6.39,-3.05,2.93,2.0
1758074992.07288,1758074992.06007,0.0,0.0,0.0,-43.54479,-55.51962,-37.81522,8.3,-1.89,3.01,2.0
1758074992.08793,1758074992.07007,0.0,0.0,0.0,-41.65404,-35.2369,-33.63263,8.3,-1.89,3.01,2.0
1758074992.10487,1758074992.08007,0.0,0.0,0.0,-41.76862,-23.49127,-30.93972,11.31,-0.31,3.25,2.0
1758074992.10605,1758074992.09007,0.0,0.0,0.0,-43.4875,-17.30333,-26.69983,11.31,-0.31,3.25,2.0
1758074992.1227,1758074992.10007,0.0,0.0,0.0,-46.63877,-11.00079,-21.6578,10.59,0.38,1.63,2.0
1758074992.12632,1758074992.11007,0.0,0.0,0.0,-51.16513,7.04738,-13.40721,11.62,0.03,1.12,2.0
1758074992.14083,1758074992.12007,0.0,0.0,0.0,-53.68615,21.25674,-8.59437,11.62,0.03,1.12,2.0
1758074992.14316,1758074992.13007,0.0,0.0,0.0,-55.51962,35.00772,-4.0107,12.0,-0.44,0.85,2.0
1758074992.16013,1758074992.14007,0.0,0.0,0.0,-57.0093,45.14908,-0.51566,12.0,-0.44,0.85,2.0
1758074992.17696,1758074992.15007,0.0,0.0,0.0,-61.42108,54.66018,1.43239,10.9,-0.46,0.99,2.0
1758074992.17784,1758074992.16007,0.0,0.0,0.0,-65.14531,60.04598,0.68755,10.9,-0.46,0.99,2.0
1758074992.19287,1758074992.17007,0.0,0.0,0.0,-68.58305,65.14531,-1.03132,10.47,-0.02,1.37,2.0
1758074992.19458,1758074992.18007,0.0,0.0,0.0,-71.04677,70.13004,-3.38045,10.47,-0.02,1.37,2.0
1758074992.20912,1758074992.19007,0.0,0.0,0.0,-71.67702,76.0315,-6.8182,10.42,0.03,1.25,2.0
1758074992.22507,1758074992.20007,0.0,0.0,0.0,-70.87489,76.66176,-8.42248,10.07,-0.35,1.36,2.0
1758074992.2268,1758074992.21007,0.0,0.0,0.0,-69.55708,75.51585,-9.91217,10.07,-0.35,1.36,2.0
1758074992.24192,1758074992.22007,0.0,0.0,0.0,-66.74959,71.84892,-11.63104,9.51,-0.66,1.68,2.0
1758074992.24309,1758074992.23007,0.0,0.0,0.0,-63.88479,64.28587,-11.97482,9.51,-0.66,1.68,2.0
1758074992.25796,1758074992.24007,0.0,0.0,0.0,-60.16057,58.4417,-11.51645,9.1,-1.07,1.48,2.0
1758074992.27389,1758074992.25007,0.0,0.0,0.0,-55.7488,52.08187,-10.31324,9.1,-1.07,1.48,2.0
1758074992.27548,1758074992.26007,0.0,0.0,0.0,-48.52953,40.50812,-7.62034,8.86,-1.61,1.28,2.0
1758074992.29102,1758074992.27007,0.0,0.0,0.0,-42.74266,34.49206,-5.32851,8.81,-2.0,1.15,2.0
1758074992.29214,1758074992.28007,0.0,0.0,0.0,-37.18496,32.08564,-3.72423,8.81,-2.0,1.15,2.0
1758074992.30821,1758074992.29007,0.0,0.0,0.0,-31.62727,29.9084,-2.57831,8.97,-1.99,1.21,2.0
1758074992.32489,1758074992.30007,0.0,0.0,0.0,-24.57989,23.20479,-2.06265,8.97,-1.99,1.21,2.0
1758074992.3264,1758074992.31007,0.0,0.0,0.0,-20.22541,16.73037,-2.57831,8.12,-1.71,1.05,2.0
1758074992.34117,1758074992.32007,0.0,0.0,0.0,-16.04282,9.39651,-3.20856,8.12,-1.71,1.05,2.0
1758074992.34239,1758074992.33007,0.0,0.0,0.0,-12.2613,0.34377,-4.35448,7.46,-1.39,0.75,2.0
1758074992.35788,1758074992.34007,0.0,0.0,0.0,-7.33386,-18.44924,-7.21927,6.4,-1.08,0.56,2.0
1758074992.37389,1758074992.35007,0.0,0.0,0.0,-4.35448,-30.25217,-10.08406,6.4,-1.08,0.56,2.0
1758074992.37594,1758074992.36007,0.0,0.0,0.0,-0.40107,-32.6013,-13.23533,6.62,-0.93,0.22,2.0
1758074992.39209,1758074992.37007,0.0,0.0,0.0,5.15662,-23.94964,-12.77696,6.62,-0.93,0.22,2.0
1758074992.3929,1758074992.38007,0.0,0.0,0.0,9.22462,9.33921,-17.87628,9.36,-0.8,0.57,2.0
1758074992.4082,1758074992.39007,0.0,0.0,0.0,11.34457,16.73037,-21.14215,9.36,-0.8,0.57,2.0
1758074992.42517,1758074992.40007,0.0,0.0,0.0,13.86558,-9.05273,-26.47065,7.77,-0.24,0.62,2.0
1758074992.4261,1758074992.41007,0.0,0.0,0.0,17.99088,-51.5662,-23.20479,7.77,-0.24,0.62,2.0
1758074992.44089,1758074992.42007,0.0,0.0,0.0,21.31403,-91.73055,-13.75099,4.42,0.02,-1.45,2.0
1758074992.44615,1758074992.43007,0.0,0.0,0.0,19.13679,-93.96508,-11.22997,9.92,-0.26,1.93,2.0
1758074992.46106,1758074992.44007,0.0,0.0,0.0,14.9542,-97.51743,-6.7609,9.92,-0.26,1.93,2.0
1758074992.46366,1758074992.45007,0.0,0.0,0.0,4.81285,-112.29974,9.74028,14.87,0.49,7.7,2.0
1758074992.48004,1758074992.46007,0.0,0.0,0.0,-1.66158,-117.85743,24.80907,14.87,0.49,7.7,2.0
1758074992.49676,1758074992.47007,0.0,0.0,0.0,-5.84417,-114.53426,38.1017,18.81,2.46,6.76,2.0
1758074992.49795,1758074992.48007,0.0,0.0,0.0,-10.31324,-93.16295,44.28964,18.81,2.46,6.76,2.0
1758074992.51504,1758074992.49007,0.0,0.0,0.0,-16.90226,-63.8275,45.83662,14.19,1.76,4.01,2.0
1758074992.51622,1758074992.50007,0.0,0.0,0.0,-19.70975,-49.84733,42.34158,8.03,0.75,3.85,2.0
1758074992.53224,1758074992.51007,0.0,0.0,0.0,-20.34,-40.50812,35.63798,8.03,0.75,3.85,2.0
1758074992.53317,1758074992.52007,0.0,0.0,0.0,-19.70975,-32.54401,25.7831,7.51,-0.14,4.2,2.0
1758074992.54809,1758074992.53007,0.0,0.0,0.0,-16.61578,-19.13679,6.8182,7.51,-0.14,4.2,2.0
1758074992.56496,1758074992.54007,0.0,0.0,0.0,-13.5791,-7.79223,-4.35448,10.34,-0.41,3.08,2.0
1758074992.56617,1758074992.55007,0.0,0.0,0.0,-10.8289,5.55769,-12.54778,10.34,-0.41,3.08,2.0
1758074992.58094,1758074992.56007,0.0,0.0,0.0,-8.93814,19.70975,-16.95955,12.48,-0.33,1.67,2.0
1758074992.58217,1758074992.57007,0.0,0.0,0.0,-8.30789,41.36755,-18.50654,12.94,-0.18,1.18,2.0
1758074992.59798,1758074992.58007,0.0,0.0,0.0,-7.96411,49.27437,-15.98552,12.94,-0.18,1.18,2.0
1758074992.61605,1758074992.59007,0.0,0.0,0.0,-7.79223,52.48294,-11.80293,11.82,-0.17,1.33,2.0
1758074992.61799,1758074992.60007,0.0,0.0,0.0,-7.39116,54.77477,-6.7609,11.82,-0.17,1.33,2.0
1758074992.63316,1758074992.61007,0.0,0.0,0.0,-6.41713,56.55093,0.51566,11.39,-0.21,1.66,2.0
1758074992.63449,1758074992.62007,0.0,0.0,0.0,-5.09932,56.89471,4.64096,11.39,-0.21,1.66,2.0
1758074992.64926,1758074992.63007,0.0,0.0,0.0,-3.55234,57.12389,7.79223,10.7,-0.12,2.03,2.0
1758074992.66529,1758074992.64007,0.0,0.0,0.0,-1.14592,55.6342,9.28192,10.7,-0.12,2.03,2.0
1758074992.66647,1758074992.65007,0.0,0.0,0.0,0.0573,54.66018,8.36518,9.72,0.14,2.28,2.0
1758074992.68195,1758074992.66007,0.0,0.0,0.0,0.57296,53.39967,6.53172,9.06,0.38,2.54,2.0
1758074992.68301,1758074992.67007,0.0,0.0,0.0,0.80214,51.39432,3.95341,9.06,0.38,2.54,2.0
1758074992.69803,1758074992.68007,0.0,0.0,0.0,0.22918,46.81066,-0.45837,8.68,0.53,2.48,2.0
1758074992.71504,1758074992.69007,0.0,0.0,0.0,-0.85944,42.85724,-3.55234,8.68,0.53,2.48,2.0
1758074992.71732,1758074992.70007,0.0,0.0,0.0,-2.34913,37.98711,-6.41713,8.31,0.64,2.25,2.0
1758074992.73234,1758074992.71007,0.0,0.0,0.0,-4.1253,31.97105,-9.11003,8.31,0.64,2.25,2.0
1758074992.73325,1758074992.72007,0.0,0.0,0.0,-7.79223,22.40265,-11.45916,8.16,0.72,2.0,2.0
1758074992.74917,1758074992.73007,0.0,0.0,0.0,-11.17268,18.56383,-13.5791,8.75,0.89,2.14,2.0
1758074992.76529,1758074992.74007,0.0,0.0,0.0,-14.43854,14.9542,-14.78231,8.75,0.89,2.14,2.0
1758074992.76626,1758074992.75007,0.0,0.0,0.0,-17.58981,14.43854,-15.29797,9.61,1.05,2.19,2.0
1758074992.78134,1758074992.76007,0.0,0.0,0.0,-21.7724,17.58981,-14.32395,9.61,1.05,2.19,2.0
1758074992.78224,1758074992.77007,0.0,0.0,0.0,-24.35071,18.90761,-12.49048,9.81,1.1,2.06,2.0
