timeStamp,timeStampAlign,roll,pitch,yaw,gyro_x,gyro_y,gyro_z,acc_x,acc_y,acc_z,flag_num
1758074647.83516,1758074647.59374,0.0,0.0,0.0,-53.80074,-31.74186,13.80828,10.18,-0.48,1.57,2.0
1758074647.85017,1758074647.60374,0.0,0.0,0.0,-55.00395,-37.35685,14.03747,10.18,-0.48,1.57,2.0
1758074647.86619,1758074647.61374,0.0,0.0,0.0,-55.23313,-43.60209,12.43318,10.85,-0.65,3.12,2.0
1758074647.8674,1758074647.62374,0.0,0.0,0.0,-52.76942,-38.1017,8.25059,14.9,-2.03,4.43,2.0
1758074647.88218,1758074647.63374,0.0,0.0,0.0,-47.49821,-29.39274,2.23454,14.9,-2.03,4.43,2.0
1758074647.88495,1758074647.64374,0.0,0.0,0.0,-36.6693,-40.7946,-7.16197,15.06,-4.7,6.1,2.0
1758074647.90049,1758074647.65374,0.0,0.0,0.0,-26.06958,-78.26604,-9.96947,15.06,-4.7,6.1,2.0
1758074647.91646,1758074647.66374,0.0,0.0,0.0,-14.49583,-88.98035,-10.71431,8.62,-5.54,4.91,2.0
1758074647.91745,1758074647.67374,0.0,0.0,0.0,-5.78687,-85.94368,-12.83425,8.62,-5.54,4.91,2.0
1758074647.93251,1758074647.68374,0.0,0.0,0.0,3.83882,-68.69764,-15.06879,8.82,-5.01,2.63,2.0
1758074647.93344,1758074647.69374,0.0,0.0,0.0,8.136,-58.3844,-12.71966,8.76,-3.08,2.77,2.0
1758074647.94854,1758074647.70374,0.0,0.0,0.0,10.71431,-38.38818,-8.42248,8.76,-3.08,2.77,2.0
1758074647.96452,1758074647.71374,0.0,0.0,0.0,12.89155,-14.72501,-0.40107,11.49,-1.73,3.91,2.0
1758074647.96734,1758074647.72374,0.0,0.0,0.0,15.24068,-18.62113,7.67763,11.49,-1.73,3.91,2.0
1758074647.98225,1758074647.73374,0.0,0.0,0.0,11.97482,-23.37668,12.77696,9.4,-1.4,2.24,2.0
1758074647.9834,1758074647.74374,0.0,0.0,0.0,10.02676,-12.54778,13.12073,9.4,-1.4,2.24,2.0
1758074647.99818,1758074647.75374,0.0,0.0,0.0,10.59972,6.7609,14.72501,12.57,-1.91,0.9,2.0
1758074648.01451,1758074647.76374,0.0,0.0,0.0,13.17803,36.61201,13.40721,11.89,-3.02,0.15,2.0
1758074648.0155,1758074647.77374,0.0,0.0,0.0,14.09476,48.9879,11.86023,11.89,-3.02,0.15,2.0
1758074648.03031,1758074647.78374,0.0,0.0,0.0,15.92823,52.25375,11.17268,8.91,-3.41,1.06,2.0
1758074648.04706,1758074647.79374,0.0,0.0,0.0,17.87628,55.29043,10.19865,8.91,-3.41,1.06,2.0
1758074648.04835,1758074647.80374,0.0,0.0,0.0,19.82434,63.02536,10.37054,8.44,-3.58,0.17,2.0
1758074648.06359,1758074647.81374,0.0,0.0,0.0,20.74107,68.41116,9.62569,8.44,-3.58,0.17,2.0
1758074648.0648,1758074647.82374,0.0,0.0,0.0,21.31403,72.82294,8.30789,8.85,-3.41,0.56,2.0
1758074648.07984,1758074647.83374,0.0,0.0,0.0,21.7151,76.26069,6.87549,8.85,-3.41,0.56,2.0
1758074648.09564,1758074647.84374,0.0,0.0,0.0,22.23076,78.66711,5.15662,8.94,-2.78,0.68,2.0
1758074648.11396,1758074647.85374,0.0,0.0,0.0,22.63183,75.28666,4.35448,8.93,-2.12,1.18,2.0
1758074648.11417,1758074647.86374,0.0,0.0,0.0,23.60586,67.66632,3.95341,8.93,-2.12,1.18,2.0
1758074648.11434,1758074647.87374,0.0,0.0,0.0,26.24147,53.97263,4.0107,8.54,-1.74,0.92,2.0
1758074648.12968,1758074647.88374,0.0,0.0,0.0,28.36141,40.96649,4.52637,8.54,-1.74,0.92,2.0
1758074648.14565,1758074647.89374,0.0,0.0,0.0,29.22085,31.91375,4.69825,8.17,-1.75,0.56,2.0
1758074648.14663,1758074647.90374,0.0,0.0,0.0,31.28349,33.17426,5.50039,8.17,-1.75,0.56,2.0
1758074648.16222,1758074647.91374,0.0,0.0,0.0,35.58068,63.42643,1.77617,9.53,-2.12,0.63,2.0
1758074648.16586,1758074647.92374,0.0,0.0,0.0,36.61201,68.58305,-1.20321,9.35,-2.74,1.47,2.0
1758074648.18255,1758074647.93374,0.0,0.0,0.0,39.99245,59.64491,-0.97403,9.35,-2.74,1.47,2.0
1758074648.18339,1758074647.94374,0.0,0.0,0.0,41.99781,52.48294,-1.94806,7.58,-3.09,2.81,2.0
1758074648.19869,1758074647.95374,0.0,0.0,0.0,44.28964,43.02913,-3.49504,7.58,-3.09,2.81,2.0
1758074648.21574,1758074647.96374,0.0,0.0,0.0,45.83662,36.26823,-4.35448,8.52,-3.08,0.73,2.0
1758074648.21772,1758074647.97374,0.0,0.0,0.0,47.78468,32.42941,-5.32851,8.52,-3.08,0.73,2.0
1758074648.23361,1758074647.98374,0.0,0.0,0.0,50.53488,28.99167,-6.58902,8.78,-2.8,0.66,2.0
1758074648.23526,1758074647.99374,0.0,0.0,0.0,54.48829,20.45459,-8.93814,8.29,-2.34,0.53,2.0
1758074648.25075,1758074648.00374,0.0,0.0,0.0,56.78012,13.40721,-9.68299,8.29,-2.34,0.53,2.0
1758074648.25359,1758074648.01374,0.0,0.0,0.0,58.26981,9.74028,-11.51645,8.48,-1.81,0.97,2.0
1758074648.26974,1758074648.02374,0.0,0.0,0.0,59.87409,1.71887,-12.60507,8.48,-1.81,0.97,2.0
1758074648.28576,1758074648.03374,0.0,0.0,0.0,61.65026,-9.91217,-12.49048,8.5,-1.21,0.63,2.0
1758074648.28636,1758074648.04374,0.0,0.0,0.0,62.05133,-15.58445,-12.89155,8.5,-1.21,0.63,2.0
1758074648.30161,1758074648.05374,0.0,0.0,0.0,61.65026,-20.51189,-13.40721,9.05,-0.94,0.55,2.0
1758074648.30276,1758074648.06374,0.0,0.0,0.0,59.35843,-24.98096,-15.58445,9.05,-0.94,0.55,2.0
1758074648.31861,1758074648.07374,0.0,0.0,0.0,56.83742,-29.62192,-17.30333,9.05,-0.91,0.55,2.0
1758074648.33465,1758074648.08374,0.0,0.0,0.0,54.3737,-31.85646,-19.13679,9.54,-0.62,1.01,2.0
1758074648.33596,1758074648.09374,0.0,0.0,0.0,52.02457,-34.60666,-20.34,9.54,-0.62,1.01,2.0
1758074648.35061,1758074648.10374,0.0,0.0,0.0,49.15978,-37.58603,-23.26209,11.18,0.33,2.09,2.0
1758074648.36697,1758074648.11374,0.0,0.0,0.0,46.00851,-43.83128,-24.92367,11.18,0.33,2.09,2.0
1758074648.36732,1758074648.12374,0.0,0.0,0.0,39.19032,-41.99781,-24.12152,13.61,1.66,5.21,2.0
1758074648.38452,1758074648.13374,0.0,0.0,0.0,30.88243,-26.24147,-22.97561,13.61,1.66,5.21,2.0
1758074648.38542,1758074648.14374,0.0,0.0,0.0,15.24068,1.20321,-20.74107,18.47,3.42,8.53,2.0
1758074648.40077,1758074648.15374,0.0,0.0,0.0,4.58366,-0.97403,-18.22006,14.93,2.48,7.35,2.0
1758074648.41824,1758074648.16374,0.0,0.0,0.0,-7.44845,-17.76169,-17.18874,14.93,2.48,7.35,2.0
1758074648.41875,1758074648.17374,0.0,0.0,0.0,-15.46986,-24.5226,-18.33465,9.59,-0.22,6.54,2.0
1758074648.4347,1758074648.18374,0.0,0.0,0.0,-18.85031,-26.52795,-17.58981,9.59,-0.22,6.54,2.0
1758074648.43583,1758074648.19374,0.0,0.0,0.0,-17.6471,-24.80907,-17.93358,8.75,-1.99,4.8,2.0
1758074648.4509,1758074648.20374,0.0,0.0,0.0,-14.72501,-23.0902,-18.27736,8.75,-1.99,4.8,2.0
1758074648.45374,1758074648.21374,0.0,0.0,0.0,-10.48513,-18.73572,-18.79302,8.57,-2.9,5.31,2.0
1758074648.46899,1758074648.22374,0.0,0.0,0.0,-3.49504,-1.94806,-18.56383,9.29,-2.44,3.24,2.0
1758074648.48473,1758074648.23374,0.0,0.0,0.0,1.3178,9.74028,-18.22006,9.29,-2.44,3.24,2.0
1758074648.48653,1758074648.24374,0.0,0.0,0.0,6.47442,17.87628,-16.3293,8.7,-1.02,2.47,2.0
1758074648.50083,1758074648.25374,0.0,0.0,0.0,11.91752,20.68378,-14.72501,8.7,-1.02,2.47,2.0
1758074648.50261,1758074648.26374,0.0,0.0,0.0,19.07949,16.95955,-11.28727,7.43,0.42,2.54,2.0
1758074648.51801,1758074648.27374,0.0,0.0,0.0,22.11617,10.8862,-8.76626,7.43,0.42,2.54,2.0
1758074648.53393,1758074648.28374,0.0,0.0,0.0,24.17882,6.7609,-6.58902,7.68,1.38,2.36,2.0
1758074648.5357,1758074648.29374,0.0,0.0,0.0,24.35071,7.84952,-4.35448,7.68,1.38,2.36,2.0
1758074648.55079,1758074648.30374,0.0,0.0,0.0,22.74642,11.97482,-4.35448,9.02,1.73,2.26,2.0
1758074648.55302,1758074648.31374,0.0,0.0,0.0,20.74107,15.06879,-5.15662,9.18,1.58,3.32,2.0
1758074648.568,1758074648.32374,0.0,0.0,0.0,17.87628,14.83961,-5.90147,9.18,1.58,3.32,2.0
1758074648.58403,1758074648.33374,0.0,0.0,0.0,13.5218,14.9542,-6.58902,8.4,1.12,3.69,2.0
1758074648.58507,1758074648.34374,0.0,0.0,0.0,10.65701,14.78231,-6.58902,8.4,1.12,3.69,2.0
1758074648.5999,1758074648.35374,0.0,0.0,0.0,7.73493,14.03747,-5.78687,8.48,0.79,3.52,2.0
1758074648.60172,1758074648.36374,0.0,0.0,0.0,5.21392,13.12073,-4.58366,8.48,0.79,3.52,2.0
1758074648.61734,1758074648.37374,0.0,0.0,0.0,1.43239,12.204,-2.63561,8.72,0.87,3.42,2.0
1758074648.63375,1758074648.38374,0.0,0.0,0.0,-0.57296,11.86023,-1.71887,8.91,1.14,3.3,2.0
1758074648.63511,1758074648.39374,0.0,0.0,0.0,-2.34913,10.8862,-1.20321,8.91,1.14,3.3,2.0
1758074648.64997,1758074648.40374,0.0,0.0,0.0,-3.60963,10.31324,-1.43239,8.7,1.39,3.2,2.0
1758074648.6513,1758074648.41374,0.0,0.0,0.0,-4.98473,6.58902,-2.06265,8.7,1.39,3.2,2.0
1758074648.66827,1758074648.42374,0.0,0.0,0.0,-5.61499,4.98473,-2.86479,8.38,1.44,3.13,2.0
1758074648.68546,1758074648.43374,0.0,0.0,0.0,-6.24524,2.97938,-3.20856,8.38,1.44,3.13,2.0
1758074648.68772,1758074648.44374,0.0,0.0,0.0,-6.47442,2.29183,-3.38045,8.42,1.31,2.96,2.0
1758074648.70294,1758074648.45374,0.0,0.0,0.0,-7.04738,2.46372,-3.38045,8.67,1.1,2.97,2.0
1758074648.70436,1758074648.46374,0.0,0.0,0.0,-7.79223,2.97938,-2.46372,8.67,1.1,2.97,2.0
1758074648.71925,1758074648.47374,0.0,0.0,0.0,-8.65166,5.61499,-1.77617,9.05,0.81,3.05,2.0
1758074648.7352,1758074648.48374,0.0,0.0,0.0,-9.96947,8.36518,-0.22918,9.05,0.81,3.05,2.0
1758074648.73612,1758074648.49374,0.0,0.0,0.0,-11.11538,11.74564,0.85944,9.09,0.53,2.96,2.0
1758074648.75316,1758074648.50374,0.0,0.0,0.0,-12.14671,13.06344,1.94806,9.09,0.53,2.96,2.0
1758074648.75447,1758074648.51374,0.0,0.0,0.0,-13.40721,13.12073,2.97938,8.9,0.39,2.97,2.0
1758074648.76921,1758074648.52374,0.0,0.0,0.0,-14.9542,10.31324,3.95341,8.9,0.39,2.97,2.0
1758074648.78533,1758074648.53374,0.0,0.0,0.0,-15.75634,7.39116,4.35448,8.59,0.42,2.74,2.0
1758074648.78616,1758074648.54374,0.0,0.0,0.0,-16.272,5.27121,4.87014,8.6,0.59,2.58,2.0
1758074648.80173,1758074648.55374,0.0,0.0,0.0,-16.73037,4.29718,5.32851,8.6,0.59,2.58,2.0
1758074648.80613,1758074648.56374,0.0,0.0,0.0,-16.84496,6.8182,6.35983,9.01,0.75,2.59,2.0
1758074648.82131,1758074648.57374,0.0,0.0,0.0,-16.95955,8.47978,7.16197,9.01,0.75,2.59,2.0
1758074648.82249,1758074648.58374,0.0,0.0,0.0,-17.18874,9.5684,8.0787,9.11,0.79,2.67,2.0
1758074648.83796,1758074648.59374,0.0,0.0,0.0,-17.53251,9.74028,8.93814,9.11,0.79,2.67,2.0
1758074648.85404,1758074648.60374,0.0,0.0,0.0,-18.16276,8.02141,10.25595,8.83,0.73,2.71,2.0
1758074648.856,1758074648.61374,0.0,0.0,0.0,-18.56383,6.7609,10.8862,8.68,0.51,2.42,2.0
1758074648.87209,1758074648.62374,0.0,0.0,0.0,-18.90761,5.27121,11.34457,8.68,0.51,2.42,2.0
1758074648.87329,1758074648.63374,0.0,0.0,0.0,-19.25138,3.89611,11.63104,8.74,0.24,2.28,2.0
1758074648.88828,1758074648.64374,0.0,0.0,0.0,-20.05352,0.85944,11.74564,8.74,0.24,2.28,2.0
1758074648.90435,1758074648.65374,0.0,0.0,0.0,-20.51189,-2.11994,11.63104,8.66,0.05,2.21,2.0
1758074648.90526,1758074648.66374,0.0,0.0,0.0,-20.97026,-5.15662,11.86023,8.66,0.05,2.21,2.0
1758074648.91998,1758074648.67374,0.0,0.0,0.0,-21.08485,-8.47978,12.14671,8.6,0.01,2.05,2.0
1758074648.9255,1758074648.68374,0.0,0.0,0.0,-21.48592,-13.23533,13.23533,8.7,0.03,1.86,2.0
1758074648.94133,1758074648.69374,0.0,0.0,0.0,-21.7151,-13.98017,14.32395,8.7,0.03,1.86,2.0
1758074648.94249,1758074648.70374,0.0,0.0,0.0,-22.00158,-14.43854,15.64175,9.02,0.05,1.87,2.0
1758074648.95733,1758074648.71374,0.0,0.0,0.0,-22.91831,-16.10011,17.53251,9.02,0.05,1.87,2.0
1758074648.97332,1758074648.72374,0.0,0.0,0.0,-23.89234,-16.67307,18.33465,9.03,0.0,2.06,2.0
1758074648.97538,1758074648.73374,0.0,0.0,0.0,-24.75178,-17.13144,18.85031,9.03,0.0,2.06,2.0
1758074648.99007,1758074648.74374,0.0,0.0,0.0,-25.8404,-18.22006,18.90761,9.19,-0.02,2.09,2.0
1758074648.9921,1758074648.75374,0.0,0.0,0.0,-27.61657,-19.36597,18.10547,9.19,-0.02,2.09,2.0
1758074649.00839,1758074648.76374,0.0,0.0,0.0,-28.76248,-19.53786,17.01685,9.26,-0.06,1.97,2.0
1758074649.02437,1758074648.77374,0.0,0.0,0.0,-29.67921,-19.70975,15.87093,9.45,-0.16,1.72,2.0
1758074649.02531,1758074648.78374,0.0,0.0,0.0,-30.53865,-19.99623,14.38124,9.45,-0.16,1.72,2.0
1758074649.04023,1758074648.79374,0.0,0.0,0.0,-31.56997,-20.22541,12.49048,9.62,-0.26,1.6,2.0
1758074649.04209,1758074648.80374,0.0,0.0,0.0,-32.37212,-20.34,11.57375,9.62,-0.26,1.6,2.0
1758074649.06041,1758074648.81374,0.0,0.0,0.0,-33.05967,-20.62648,11.28727,9.96,-0.35,1.5,2.0
1758074649.06216,1758074648.82374,0.0,0.0,0.0,-33.74722,-20.22541,10.94349,9.96,-0.35,1.5,2.0
1758074649.07817,1758074648.83374,0.0,0.0,0.0,-33.9764,-20.74107,10.94349,10.29,-0.34,1.59,2.0
1758074649.09417,1758074648.84374,0.0,0.0,0.0,-33.46074,-21.02755,10.8862,10.38,-0.34,1.58,2.0
1758074649.09533,1758074648.85374,0.0,0.0,0.0,-32.54401,-20.3973,10.59972,10.38,-0.34,1.58,2.0
1758074649.1102,1758074648.86374,0.0,0.0,0.0,-31.16891,-20.34,10.25595,10.65,-0.48,1.45,2.0
1758074649.11232,1758074648.87374,0.0,0.0,0.0,-28.76248,-20.45459,9.96947,10.65,-0.48,1.45,2.0
1758074649.13006,1758074648.88374,0.0,0.0,0.0,-27.33009,-20.16812,10.19865,10.88,-0.69,1.23,2.0
1758074649.13233,1758074648.89374,0.0,0.0,0.0,-26.41335,-20.62648,10.8289,10.88,-0.69,1.23,2.0
1758074649.14853,1758074648.90374,0.0,0.0,0.0,-26.24147,-20.97026,12.14671,10.87,-0.81,1.09,2.0
1758074649.16453,1758074648.91374,0.0,0.0,0.0,-26.98631,-20.68378,13.12073,10.86,-0.65,1.19,2.0
1758074649.16543,1758074648.92374,0.0,0.0,0.0,-28.24682,-21.37133,14.20935,10.86,-0.65,1.19,2.0
1758074649.18057,1758074648.93374,0.0,0.0,0.0,-30.13758,-26.06958,14.38124,10.63,-0.28,2.03,2.0
1758074649.18145,1758074648.94374,0.0,0.0,0.0,-33.63263,-39.4195,14.32395,10.63,-0.28,2.03,2.0
1758074649.1976,1758074648.95374,0.0,0.0,0.0,-35.2942,-47.38361,13.80828,10.88,-0.16,3.55,2.0
1758074649.21433,1758074648.96374,0.0,0.0,0.0,-36.26823,-53.51426,10.37054,10.88,-0.16,3.55,2.0
1758074649.21579,1758074648.97374,0.0,0.0,0.0,-34.0337,-54.02992,5.72958,14.18,-1.73,4.76,2.0
1758074649.23035,1758074648.98374,0.0,0.0,0.0,-28.01764,-49.56085,-2.23454,15.83,-1.73,5.15,2.0
1758074649.23148,1758074648.99374,0.0,0.0,0.0,-22.97561,-64.62964,-7.50575,15.83,-3.8,5.15,2.0
1758074649.24993,1758074649.00374,0.0,0.0,0.0,-18.62113,-79.18277,-10.19865,10.2,-3.84,4.47,2.0
1758074649.26571,1758074649.01374,0.0,0.0,0.0,-17.47521,-85.14153,-14.78231,10.2,-3.84,4.47,2.0
1758074649.26919,1758074649.02374,0.0,0.0,0.0,-17.01685,-80.38599,-20.22541,8.4,-2.45,2.37,2.0
1758074649.28461,1758074649.03374,0.0,0.0,0.0,-16.38659,-72.76565,-21.14215,8.4,-2.45,2.37,2.0
1758074649.28984,1758074649.04374,0.0,0.0,0.0,-16.10011,-61.1346,-21.02755,7.48,-1.07,2.87,2.0
1758074649.30465,1758074649.05374,0.0,0.0,0.0,-15.87093,-52.08187,-18.50654,7.48,-1.07,2.87,2.0
1758074649.30561,1758074649.06374,0.0,0.0,0.0,-14.66772,-36.55471,-15.35527,7.61,-0.76,3.81,2.0
1758074649.32064,1758074649.07373,0.0,0.0,0.0,-12.60507,-27.78845,-5.95876,10.23,-1.72,3.64,2.0
1758074649.32266,1758074649.08373,0.0,0.0,0.0,-10.8289,-5.27121,-0.17189,10.23,-1.72,3.64,2.0
1758074649.33836,1758074649.09373,0.0,0.0,0.0,-7.96411,13.00614,7.39116,13.14,-3.25,2.21,2.0
1758074649.35565,1758074649.10373,0.0,0.0,0.0,-2.7502,36.6693,13.98017,13.14,-3.25,2.21,2.0
1758074649.35774,1758074649.11373,0.0,0.0,0.0,-0.45837,43.77398,15.29797,11.33,-3.83,0.81,2.0
1758074649.37355,1758074649.12373,0.0,0.0,0.0,1.71887,48.64412,14.38124,11.33,-3.83,0.81,2.0
1758074649.37471,1758074649.13373,0.0,0.0,0.0,4.69825,56.03527,10.71431,9.74,-3.37,0.81,2.0
1758074649.38947,1758074649.14373,0.0,0.0,0.0,6.58902,60.73353,6.8182,9.79,-2.69,0.33,2.0
1758074649.40547,1758074649.15373,0.0,0.0,0.0,8.30789,63.19725,3.72423,9.79,-2.69,0.33,2.0
1758074649.41099,1758074649.16373,0.0,0.0,0.0,9.33921,68.86953,0.57296,9.76,-2.14,0.56,2.0
1758074649.42579,1758074649.17373,0.0,0.0,0.0,9.4538,76.26069,-2.92208,9.76,-2.14,0.56,2.0
1758074649.4307,1758074649.18373,0.0,0.0,0.0,8.70896,80.32869,-4.81285,9.34,-2.06,0.9,2.0
1758074649.44566,1758074649.19373,0.0,0.0,0.0,7.44845,82.67782,-5.78687,9.34,-2.06,0.9,2.0
1758074649.44993,1758074649.20373,0.0,0.0,0.0,6.18794,83.30807,-5.84417,8.88,-2.07,1.53,2.0
1758074649.46573,1758074649.21373,0.0,0.0,0.0,4.81285,83.13618,-4.23989,8.91,-2.01,1.68,2.0
1758074649.46987,1758074649.22373,0.0,0.0,0.0,4.18259,82.56322,-2.46372,8.91,-2.01,1.68,2.0
1758074649.4855,1758074649.23373,0.0,0.0,0.0,3.66693,82.04756,-1.03132,9.11,-1.89,1.52,2.0
1758074649.48987,1758074649.24373,0.0,0.0,0.0,3.49504,81.07353,0.22918,9.11,-1.89,1.52,2.0
1758074649.50556,1758074649.25373,0.0,0.0,0.0,3.95341,77.52119,0.11459,8.93,-1.91,1.49,2.0
1758074649.50997,1758074649.26373,0.0,0.0,0.0,5.50039,73.79697,-0.45837,8.93,-1.91,1.49,2.0
1758074649.52583,1758074649.27373,0.0,0.0,0.0,8.30789,70.24463,-1.48969,8.75,-2.26,1.6,2.0
1758074649.52868,1758074649.28373,0.0,0.0,0.0,12.14671,65.48907,-2.92208,8.75,-2.26,1.6,2.0
1758074649.54394,1758074649.29373,0.0,0.0,0.0,19.76705,57.29578,-4.18259,8.72,-2.64,1.55,2.0
1758074649.54502,1758074649.30373,0.0,0.0,0.0,25.38203,55.6342,-5.61499,8.75,-3.0,1.2,2.0
1758074649.55984,1758074649.31373,0.0,0.0,0.0,30.82513,53.91533,-7.16197,8.75,-3.0,1.2,2.0
1758074649.57586,1758074649.32373,0.0,0.0,0.0,35.98175,50.99325,-9.91217,8.42,-3.11,1.1,2.0
1758074649.57706,1758074649.33373,0.0,0.0,0.0,43.14373,44.748,-11.91752,8.42,-3.11,1.1,2.0
1758074649.59187,1758074649.34373,0.0,0.0,0.0,46.86795,41.08107,-13.86558,7.96,-2.58,0.96,2.0
1758074649.59395,1758074649.35373,0.0,0.0,0.0,49.96192,37.81522,-15.12609,7.96,-2.58,0.96,2.0
1758074649.60975,1758074649.36373,0.0,0.0,0.0,53.51426,30.65324,-15.92823,8.14,-1.79,0.86,2.0
1758074649.62563,1758074649.37373,0.0,0.0,0.0,55.40502,24.23611,-15.35527,8.35,-1.22,1.18,2.0
1758074649.63007,1758074649.38373,0.0,0.0,0.0,56.952,18.90761,-14.32395,8.35,-1.22,1.18,2.0
1758074649.64569,1758074649.39373,0.0,0.0,0.0,58.09792,15.35527,-13.00614,9.31,-0.98,1.46,2.0
1758074649.64998,1758074649.40373,0.0,0.0,0.0,59.47303,10.94349,-11.28727,9.31,-0.98,1.46,2.0
1758074649.66599,1758074649.41373,0.0,0.0,0.0,59.98868,7.79223,-11.17268,9.8,-1.01,1.28,2.0
1758074649.66959,1758074649.42373,0.0,0.0,0.0,60.33246,4.23989,-11.51645,9.8,-1.01,1.28,2.0
1758074649.6848,1758074649.43373,0.0,0.0,0.0,60.67623,0.57296,-13.06344,9.34,-1.1,1.27,2.0
1758074649.68588,1758074649.44373,0.0,0.0,0.0,60.73353,-7.62034,-15.87093,8.82,-1.06,0.91,2.0
1758074649.70098,1758074649.45373,0.0,0.0,0.0,61.30648,-12.14671,-17.76169,8.82,-1.06,0.91,2.0
1758074649.70585,1758074649.46373,0.0,0.0,0.0,62.39511,-14.32395,-19.13679,9.31,-0.95,1.07,2.0
1758074649.72072,1758074649.47373,0.0,0.0,0.0,63.8275,-15.75634,-20.62648,9.31,-0.95,1.07,2.0
1758074649.72598,1758074649.48373,0.0,0.0,0.0,63.8275,-29.73651,-23.0902,10.0,-0.5,2.51,2.0
1758074649.74103,1758074649.49373,0.0,0.0,0.0,61.99404,-47.38361,-24.80907,10.0,-0.5,2.51,2.0
1758074649.74271,1758074649.50373,0.0,0.0,0.0,58.84277,-67.66632,-23.54857,10.26,0.96,5.86,2.0
1758074649.76007,1758074649.51373,0.0,0.0,0.0,51.73809,-77.57849,-21.6578,10.26,0.96,5.86,2.0
1758074649.77601,1758074649.52373,0.0,0.0,0.0,35.3515,-68.75494,-16.10011,13.82,3.96,9.0,2.0
1758074649.78046,1758074649.53373,0.0,0.0,0.0,20.79837,-48.8733,-11.97482,17.68,5.82,8.95,2.0
1758074649.79603,1758074649.54373,0.0,0.0,0.0,3.72423,-30.36677,-12.2613,17.68,5.82,8.95,2.0
1758074649.80012,1758074649.55373,0.0,0.0,0.0,-15.46986,-43.14373,-16.90226,13.72,1.72,9.3,2.0
1758074649.81603,1758074649.56373,0.0,0.0,0.0,-23.72045,-77.80767,-18.50654,13.72,1.72,9.3,2.0
1758074649.81935,1758074649.57373,0.0,0.0,0.0,-26.75713,-96.77258,-16.21471,6.47,-3.05,7.36,2.0
1758074649.83477,1758074649.58373,0.0,0.0,0.0,-26.81443,-83.47996,-16.84496,6.47,-3.05,7.36,2.0
1758074649.83621,1758074649.59373,0.0,0.0,0.0,-22.40265,-77.4066,-22.00158,10.73,-4.0,5.11,2.0
1758074649.85069,1758074649.60373,0.0,0.0,0.0,-16.90226,-78.89629,-24.23611,8.89,-2.19,4.32,2.0
1758074649.85297,1758074649.61373,0.0,0.0,0.0,-9.68299,-78.20874,-22.97561,8.89,-2.19,4.32,2.0
1758074649.87003,1758074649.62373,0.0,0.0,0.0,-1.71887,-70.81759,-20.68378,9.08,-0.39,3.51,2.0
1758074649.88603,1758074649.63373,0.0,0.0,0.0,7.67763,-50.1911,-17.76169,9.08,-0.39,3.51,2.0
1758074649.88942,1758074649.64373,0.0,0.0,0.0,11.28727,-35.92446,-17.13144,8.76,1.04,1.62,2.0
1758074649.90492,1758074649.65373,0.0,0.0,0.0,13.86558,-26.24147,-16.73037,8.76,1.04,1.62,2.0
1758074649.91003,1758074649.66373,0.0,0.0,0.0,15.75634,-19.13679,-15.98552,7.1,1.91,2.32,2.0
1758074649.92509,1758074649.67373,0.0,0.0,0.0,18.73572,-5.21392,-14.66772,7.1,1.54,2.5,2.0
1758074649.92808,1758074649.68373,0.0,0.0,0.0,20.51189,5.61499,-13.46451,7.1,1.54,2.5,2.0
1758074649.94403,1758074649.69373,0.0,0.0,0.0,22.86102,15.64175,-11.00079,7.89,0.71,2.2,2.0
1758074649.94833,1758074649.70373,0.0,0.0,0.0,24.80907,24.92367,-8.30789,7.89,0.71,2.2,2.0
1758074649.96394,1758074649.71373,0.0,0.0,0.0,27.10091,38.15899,-3.83882,8.8,0.23,2.61,2.0
1758074649.96645,1758074649.72373,0.0,0.0,0.0,27.78845,46.00851,-1.60428,8.8,0.23,2.61,2.0
1758074649.98312,1758074649.73373,0.0,0.0,0.0,28.07493,49.90463,0.40107,9.57,0.33,2.97,2.0
1758074649.98431,1758074649.74373,0.0,0.0,0.0,27.73116,51.10783,2.92208,9.57,0.33,2.97,2.0
1758074649.99903,1758074649.75373,0.0,0.0,0.0,26.12688,50.82136,4.18259,9.65,0.95,3.22,2.0
1758074650.01527,1758074649.76373,0.0,0.0,0.0,24.63719,47.09713,5.61499,9.62,1.62,3.19,2.0
1758074650.0164,1758074649.77373,0.0,0.0,0.0,22.28806,43.94586,6.41713,9.62,1.62,3.19,2.0
1758074650.03488,1758074649.78373,0.0,0.0,0.0,16.73037,38.38818,5.32851,9.27,1.93,3.41,2.0
1758074650.03636,1758074649.79373,0.0,0.0,0.0,12.2613,34.37747,3.66693,9.27,1.93,3.41,2.0
1758074650.05522,1758074649.80373,0.0,0.0,0.0,7.44845,26.87172,1.83346,8.62,1.96,3.26,2.0
1758074650.05641,1758074649.81373,0.0,0.0,0.0,1.66158,20.62648,-0.51566,8.62,1.96,3.26,2.0
1758074650.07124,1758074649.82373,0.0,0.0,0.0,-6.35983,9.5684,-2.63561,7.95,2.04,2.98,2.0
1758074650.07239,1758074649.83373,0.0,0.0,0.0,-11.00079,1.48969,-2.97938,7.72,2.0,2.38,2.0
1758074650.09004,1758074649.84373,0.0,0.0,0.0,-14.43854,-4.1253,-1.66158,7.72,2.0,2.38,2.0
1758074650.10787,1758074649.85373,0.0,0.0,0.0,-17.53251,-6.35983,-0.40107,8.27,1.67,2.02,2.0
1758074650.109,1758074649.86373,0.0,0.0,0.0,-20.22541,-9.74028,2.23454,8.27,1.67,2.02,2.0
1758074650.12508,1758074649.87373,0.0,0.0,0.0,-21.25674,-11.97482,4.23989,8.43,1.26,2.15,2.0
1758074650.12599,1758074649.88373,0.0,0.0,0.0,-21.94428,-13.17803,6.13065,8.43,1.26,2.15,2.0
1758074650.14371,1758074649.89373,0.0,0.0,0.0,-22.57454,-12.204,7.39116,8.73,1.0,2.27,2.0
1758074650.14532,1758074649.90373,0.0,0.0,0.0,-23.60586,-5.50039,9.33921,9.28,1.01,2.4,2.0
1758074650.16128,1758074649.91373,0.0,0.0,0.0,-24.80907,-1.48969,9.68299,9.28,1.01,2.4,2.0
1758074650.16247,1758074649.92373,0.0,0.0,0.0,-26.24147,-0.97403,9.74028,8.95,1.15,2.74,2.0
1758074650.17884,1758074649.93373,0.0,0.0,0.0,-28.07493,-3.60963,9.4538,8.95,1.15,2.74,2.0
1758074650.19531,1758074649.94373,0.0,0.0,0.0,-32.20023,-7.79223,7.84952,8.7,1.32,2.68,2.0
1758074650.19796,1758074649.95373,0.0,0.0,0.0,-35.12231,-11.74564,6.58902,8.7,1.32,2.68,2.0
1758074650.21328,1758074649.96373,0.0,0.0,0.0,-38.56006,-14.9542,5.61499,8.94,1.54,2.29,2.0
1758074650.21452,1758074649.97373,0.0,0.0,0.0,-43.37291,-25.38203,3.03668,8.94,1.54,2.29,2.0
1758074650.22984,1758074649.98373,0.0,0.0,0.0,-44.8053,-34.89313,3.09397,8.79,1.65,2.27,2.0
1758074650.24797,1758074649.99373,0.0,0.0,0.0,-45.03448,-41.36755,2.06265,8.86,1.36,1.88,2.0
1758074650.25048,1758074650.00373,0.0,0.0,0.0,-45.43555,-45.20637,2.34913,8.86,1.36,1.88,2.0
1758074650.26714,1758074650.01373,0.0,0.0,0.0,-44.748,-36.26823,5.55769,9.95,1.01,1.57,2.0
1758074650.27003,1758074650.02373,0.0,0.0,0.0,-46.1231,-10.19865,4.1253,9.95,1.01,1.57,2.0
1758074650.28538,1758074650.03373,0.0,0.0,0.0,-46.2377,-19.70975,4.35448,11.42,0.89,2.42,2.0
1758074650.28975,1758074650.04373,0.0,0.0,0.0,-49.33167,-32.54401,2.00535,11.42,0.89,2.42,2.0
1758074650.30541,1758074650.05373,0.0,0.0,0.0,-52.08187,-40.50812,-1.48969,8.35,0.6,2.31,2.0
1758074650.31034,1758074650.06373,0.0,0.0,0.0,-52.25375,-39.82057,-2.06265,9.57,0.75,1.44,2.0
1758074650.32538,1758074650.07373,0.0,0.0,0.0,-52.13916,-32.25753,-2.11994,9.57,0.75,1.44,2.0
1758074650.33068,1758074650.08373,0.0,0.0,0.0,-52.19646,-23.0329,-1.3178,10.06,0.82,1.16,2.0
1758074650.34543,1758074650.09373,0.0,0.0,0.0,-50.363,-4.64096,1.66158,10.06,0.82,1.16,2.0
1758074650.34881,1758074650.10373,0.0,0.0,0.0,-47.67009,4.92744,3.72423,10.09,0.41,2.59,2.0
1758074650.36518,1758074650.11373,0.0,0.0,0.0,-44.11775,8.93814,5.4431,10.09,0.41,2.59,2.0
1758074650.36962,1758074650.12373,0.0,0.0,0.0,-40.16434,9.28192,6.18794,9.29,-0.45,2.31,2.0
1758074650.38542,1758074650.13373,0.0,0.0,0.0,-35.2369,5.61499,6.18794,9.38,-0.62,1.46,2.0
1758074650.38824,1758074650.14373,0.0,0.0,0.0,-33.23156,2.92208,5.78687,9.38,-0.62,1.46,2.0
1758074650.40342,1758074650.15373,0.0,0.0,0.0,-32.54401,0.85944,5.4431,9.57,0.19,0.78,2.0
1758074650.40597,1758074650.16373,0.0,0.0,0.0,-32.88778,-0.40107,4.29718,9.57,0.19,0.78,2.0
1758074650.42323,1758074650.17373,0.0,0.0,0.0,-34.89313,-2.63561,2.97938,9.7,0.73,1.42,2.0
1758074650.42493,1758074650.18373,0.0,0.0,0.0,-36.84119,-4.69825,1.48969,9.7,0.73,1.42,2.0
1758074650.44027,1758074650.19373,0.0,0.0,0.0,-39.13302,-6.87549,-0.11459,9.61,0.73,1.85,2.0
1758074650.45649,1758074650.20373,0.0,0.0,0.0,-42.28429,-7.73493,-2.00535,9.61,0.73,1.85,2.0
1758074650.45744,1758074650.21373,0.0,0.0,0.0,-44.17505,-6.99009,-3.09397,9.63,0.62,1.83,2.0
1758074650.47229,1758074650.22373,0.0,0.0,0.0,-45.55015,-4.46907,-3.83882,9.74,0.67,1.7,2.0
1758074650.47451,1758074650.23373,0.0,0.0,0.0,-46.40959,-2.40642,-3.72423,9.74,0.67,1.7,2.0
1758074650.48955,1758074650.24373,0.0,0.0,0.0,-46.81066,1.48969,-3.49504,9.83,0.64,1.6,2.0
1758074650.50556,1758074650.25373,0.0,0.0,0.0,-46.86795,4.1253,-2.63561,9.83,0.64,1.6,2.0
1758074650.50647,1758074650.26373,0.0,0.0,0.0,-46.98254,5.90147,-1.3178,9.98,0.44,1.23,2.0
1758074650.52329,1758074650.27373,0.0,0.0,0.0,-46.86795,6.13065,0.45837,9.98,0.44,1.23,2.0
1758074650.52601,1758074650.28373,0.0,0.0,0.0,-47.03984,3.83882,3.60963,9.85,0.12,0.89,2.0
1758074650.54498,1758074650.29373,0.0,0.0,0.0,-47.38361,1.08862,5.27121,9.48,-0.16,0.54,2.0
1758074650.54588,1758074650.30373,0.0,0.0,0.0,-47.72739,-2.63561,6.35983,9.48,-0.16,0.54,2.0
1758074650.56236,1758074650.31373,0.0,0.0,0.0,-48.41494,-7.21927,6.99009,9.16,-0.35,0.14,2.0
1758074650.56578,1758074650.32373,0.0,0.0,0.0,-49.90463,-15.0115,7.33386,9.16,-0.35,0.14,2.0
1758074650.58237,1758074650.33373,0.0,0.0,0.0,-50.59217,-18.56383,7.44845,9.16,-0.21,-0.03,2.0
1758074650.58651,1758074650.34373,0.0,0.0,0.0,-50.76406,-20.51189,8.36518,9.16,-0.21,-0.03,2.0
1758074650.6054,1758074650.35373,0.0,0.0,0.0,-50.1911,-25.26744,10.25595,9.97,-0.02,0.36,2.0
1758074650.60905,1758074650.36373,0.0,0.0,0.0,-49.27437,-42.1124,13.00614,9.74,-0.15,0.95,2.0
1758074650.62548,1758074650.37373,0.0,0.0,0.0,-48.8733,-55.6915,13.46451,9.74,-0.15,0.95,2.0
1758074650.62818,1758074650.38373,0.0,0.0,0.0,-47.72739,-66.29122,12.2613,11.39,-0.7,2.71,2.0
1758074650.64365,1758074650.39373,0.0,0.0,0.0,-40.27893,-69.55708,6.58902,11.39,-0.7,2.71,2.0
1758074650.64615,1758074650.40373,0.0,0.0,0.0,-30.53865,-67.32255,1.83346,16.77,-2.89,5.14,2.0
1758074650.66246,1758074650.41373,0.0,0.0,0.0,-19.25138,-69.15601,-3.60963,16.77,-2.89,5.14,2.0
1758074650.66975,1758074650.42373,0.0,0.0,0.0,-8.99544,-76.54716,-6.99009,18.23,-5.53,6.2,2.0
1758074650.68542,1758074650.43373,0.0,0.0,0.0,0.0,-84.1675,-8.02141,18.23,-5.53,6.2,2.0
1758074650.68816,1758074650.44373,0.0,0.0,0.0,2.86479,-81.76109,-5.4431,12.25,-4.43,2.52,2.0
1758074650.70446,1758074650.45373,0.0,0.0,0.0,3.49504,-76.83365,-2.11994,7.4,-1.62,-0.31,2.0
1758074650.70619,1758074650.46373,0.0,0.0,0.0,2.29183,-67.72362,2.34913,7.4,-1.62,-0.31,2.0
1758074650.7255,1758074650.47373,0.0,0.0,0.0,-3.72423,-50.53488,8.47978,5.27,0.09,0.63,2.0
1758074650.72645,1758074650.48373,0.0,0.0,0.0,-8.70896,-36.21093,11.63104,5.27,0.09,0.63,2.0
1758074650.74555,1758074650.49373,0.0,0.0,0.0,-15.92823,-21.14215,11.63104,6.27,1.29,3.49,2.0
1758074650.74835,1758074650.50373,0.0,0.0,0.0,-21.14215,-9.39651,15.41257,6.27,1.29,3.49,2.0
1758074650.76347,1758074650.51373,0.0,0.0,0.0,-28.07493,20.45459,15.58445,10.34,1.39,4.68,2.0
1758074650.76496,1758074650.52373,0.0,0.0,0.0,-31.28349,39.87786,16.10011,13.63,0.28,2.25,2.0
1758074650.77958,1758074650.53373,0.0,0.0,0.0,-32.83048,54.3737,14.49583,13.63,0.28,2.25,2.0
1758074650.78563,1758074650.54373,0.0,0.0,0.0,-32.14294,63.88479,11.51645,12.56,-1.62,0.0,2.0
1758074650.8005,1758074650.55373,0.0,0.0,0.0,-29.27814,70.93218,4.58366,12.56,-1.62,0.0,2.0
1758074650.80567,1758074650.56373,0.0,0.0,0.0,-25.89769,73.45319,0.74485,11.47,-3.49,-0.88,2.0
1758074650.82054,1758074650.57373,0.0,0.0,0.0,-21.37133,75.85962,-2.92208,11.47,-3.49,-0.88,2.0
1758074650.82439,1758074650.58373,0.0,0.0,0.0,-16.50119,76.60446,-5.61499,10.85,-4.4,0.0,2.0
1758074650.83952,1758074650.59373,0.0,0.0,0.0,-8.30789,77.80767,-3.89611,10.14,-3.68,0.46,2.0
1758074650.85576,1758074650.60373,0.0,0.0,0.0,-2.6929,81.99026,-1.43239,10.14,-3.68,0.46,2.0
1758074650.85608,1758074650.61373,0.0,0.0,0.0,2.6929,83.25077,1.77617,9.79,-2.64,1.22,2.0
1758074650.87187,1758074650.62373,0.0,0.0,0.0,11.22997,80.44328,8.02141,9.79,-2.64,1.22,2.0
1758074650.87435,1758074650.63373,0.0,0.0,0.0,16.3293,78.03686,12.204,8.66,-2.06,1.5,2.0
1758074650.88977,1758074650.64373,0.0,0.0,0.0,20.68378,75.63043,15.75634,8.66,-2.06,1.5,2.0
1758074650.90976,1758074650.65373,0.0,0.0,0.0,24.35071,72.53646,18.27736,8.38,-1.76,1.47,2.0
1758074650.91033,1758074650.66373,0.0,0.0,0.0,27.50197,66.11933,19.48057,8.38,-1.76,1.13,2.0
1758074650.91144,1758074650.67373,0.0,0.0,0.0,28.70519,60.61894,18.85031,8.07,-1.67,1.13,2.0
1758074650.93065,1758074650.68373,0.0,0.0,0.0,28.87707,54.66018,16.61578,8.02,-1.75,0.98,2.0
1758074650.931,1758074650.69373,0.0,0.0,0.0,28.64789,48.41494,13.5218,8.02,-1.75,0.98,2.0
1758074650.94963,1758074650.70373,0.0,0.0,0.0,29.10626,40.45082,8.25059,8.36,-2.0,1.15,2.0
1758074650.95266,1758074650.71373,0.0,0.0,0.0,30.93972,36.03905,5.61499,8.36,-2.0,1.15,2.0
1758074650.96969,1758074650.72373,0.0,0.0,0.0,34.60666,36.7266,3.83882,9.07,-2.31,1.59,2.0
1758074650.97065,1758074650.73373,0.0,0.0,0.0,39.3622,39.3622,3.26586,9.07,-2.31,1.59,2.0
1758074650.98811,1758074650.74373,0.0,0.0,0.0,47.95657,43.20102,3.55234,9.82,-2.75,1.8,2.0
1758074650.99093,1758074650.75373,0.0,0.0,0.0,54.48829,44.57612,4.69825,9.67,-2.88,1.92,2.0
1758074651.00789,1758074650.76373,0.0,0.0,0.0,60.79083,44.17505,6.47442,9.67,-2.88,1.92,2.0
1758074651.02472,1758074650.77373,0.0,0.0,0.0,67.32255,42.74266,9.05273,9.28,-2.65,1.35,2.0
1758074651.02584,1758074650.78373,0.0,0.0,0.0,75.97421,38.90384,13.5218,9.28,-2.65,1.35,2.0
1758074651.04073,1758074650.79373,0.0,0.0,0.0,80.90164,33.86181,16.21471,8.94,-2.45,0.73,2.0
1758074651.04375,1758074650.80373,0.0,0.0,0.0,84.74047,22.74642,17.58981,8.94,-2.45,0.73,2.0
1758074651.05967,1758074650.81373,0.0,0.0,0.0,86.975,9.5684,16.84496,8.0,-2.22,0.46,2.0
1758074651.06089,1758074650.82373,0.0,0.0,0.0,89.26682,4.23989,13.06344,8.48,-1.91,-0.22,2.0
1758074651.07733,1758074650.83373,0.0,0.0,0.0,91.90244,11.22997,13.80828,8.48,-1.91,-0.22,2.0
1758074651.09373,1758074650.84373,0.0,0.0,0.0,95.0537,25.15285,12.37589,10.08,-1.53,0.13,2.0
1758074651.09588,1758074650.85373,0.0,0.0,0.0,95.39748,37.87251,4.29718,10.08,-1.53,0.13,2.0
1758074651.11098,1758074650.86373,0.0,0.0,0.0,96.4861,8.36518,-4.23989,8.18,-0.99,1.81,2.0
1758074651.11303,1758074650.87373,0.0,0.0,0.0,97.46013,-40.27893,1.48969,8.18,-0.99,1.81,2.0
1758074651.12805,1758074650.88373,0.0,0.0,0.0,95.51206,-52.42564,2.86479,6.5,-0.2,0.8,2.0
1758074651.14507,1758074650.89373,0.0,0.0,0.0,94.59533,-50.99325,8.47978,11.7,-0.16,-0.85,2.0
1758074651.14637,1758074650.90373,0.0,0.0,0.0,93.39213,-39.87786,10.02676,11.7,-0.16,-0.85,2.0
1758074651.16105,1758074650.91373,0.0,0.0,0.0,90.29816,-28.64789,10.02676,11.41,-0.16,0.49,2.0
1758074651.16595,1758074650.92373,0.0,0.0,0.0,83.88103,-26.64254,6.58902,11.41,-0.16,0.49,2.0
1758074651.18105,1758074650.93373,0.0,0.0,0.0,68.75494,-40.04975,0.51566,9.63,0.64,4.76,2.0
1758074651.18592,1758074650.94373,0.0,0.0,0.0,55.92068,-46.81066,-2.06265,9.63,0.64,4.76,2.0
1758074651.20109,1758074650.95373,0.0,0.0,0.0,39.82057,-45.14908,-0.22918,12.54,3.22,5.75,2.0
1758074651.20436,1758074650.96373,0.0,0.0,0.0,20.51189,-38.27358,-0.17189,12.54,3.22,5.75,2.0
1758074651.22085,1758074650.97373,0.0,0.0,0.0,-5.72958,-32.48671,1.94806,16.16,5.98,6.4,2.0
1758074651.22263,1758074650.98373,0.0,0.0,0.0,-20.51189,-24.80907,2.00535,15.35,6.72,5.2,2.0
1758074651.23913,1758074650.99373,0.0,0.0,0.0,-31.56997,-18.50654,3.09397,15.35,6.72,5.2,2.0
1758074651.24172,1758074651.00373,0.0,0.0,0.0,-38.44547,-15.0115,-0.22918,12.68,3.74,4.9,2.0
1758074651.25795,1758074651.01373,0.0,0.0,0.0,-39.87786,-16.21471,-4.98473,12.68,3.74,4.9,2.0
1758074651.27511,1758074651.02373,0.0,0.0,0.0,-36.89849,-15.87093,-10.94349,8.65,-2.0,4.86,2.0
1758074651.276,1758074651.03373,0.0,0.0,0.0,-31.2262,-16.50119,-17.87628,8.65,-2.0,4.86,2.0
1758074651.2911,1758074651.04373,0.0,0.0,0.0,-17.24603,-22.57454,-28.13223,7.08,-4.62,5.54,2.0
1758074651.29363,1758074651.05373,0.0,0.0,0.0,-4.87014,-24.17882,-32.37212,8.12,-5.59,6.13,2.0
1758074651.30913,1758074651.06373,0.0,0.0,0.0,7.50575,-21.7151,-33.00237,8.12,-5.59,6.13,2.0
1758074651.32516,1758074651.07373,0.0,0.0,0.0,18.62113,-12.77696,-32.48671,11.12,-4.61,4.61,2.0
1758074651.32639,1758074651.08373,0.0,0.0,0.0,31.85646,-4.23989,-27.04361,11.12,-4.61,4.61,2.0
1758074651.34272,1758074651.09373,0.0,0.0,0.0,38.15899,2.29183,-20.85567,10.49,-1.74,3.66,2.0
1758074651.34544,1758074651.10373,0.0,0.0,0.0,42.57077,8.42248,-14.09476,10.49,-1.74,3.66,2.0
1758074651.3612,1758074651.11373,0.0,0.0,0.0,45.72203,12.89155,-8.0787,9.36,0.78,3.46,2.0
1758074651.36238,1758074651.12373,0.0,0.0,0.0,48.35764,17.93358,-1.48969,8.09,1.71,2.93,2.0
1758074651.37792,1758074651.13373,0.0,0.0,0.0,49.21708,20.74107,0.80214,8.09,1.71,2.93,2.0
1758074651.3958,1758074651.14373,0.0,0.0,0.0,49.79003,22.63183,1.94806,7.7,1.37,2.91,2.0
1758074651.3983,1758074651.15373,0.0,0.0,0.0,49.90463,24.63719,1.83346,7.7,1.37,2.91,2.0
1758074651.41494,1758074651.16373,0.0,0.0,0.0,48.9879,29.10626,0.74485,8.0,0.78,3.0,2.0
1758074651.41621,1758074651.17373,0.0,0.0,0.0,47.89928,30.99702,0.34377,8.0,0.78,3.0,2.0
1758074651.434,1758074651.18373,0.0,0.0,0.0,46.1231,29.10626,-0.22918,8.26,0.53,3.16,2.0
1758074651.43492,1758074651.19373,0.0,0.0,0.0,44.00316,26.12688,-0.34377,8.26,0.53,3.16,2.0
1758074651.44994,1758074651.20373,0.0,0.0,0.0,39.82057,22.97561,0.0,8.15,0.67,3.13,2.0
1758074651.45116,1758074651.21373,0.0,0.0,0.0,37.24226,21.48592,1.60428,8.57,1.11,2.93,2.0
1758074651.47038,1758074651.22373,0.0,0.0,0.0,34.14828,19.82434,2.40642,8.57,1.11,2.93,2.0
1758074651.47165,1758074651.23373,0.0,0.0,0.0,30.19488,17.81899,4.46907,8.54,1.56,3.04,2.0
1758074651.49067,1758074651.24373,0.0,0.0,0.0,28.24682,16.84496,6.18794,8.54,1.56,3.04,2.0
1758074651.49163,1758074651.25373,0.0,0.0,0.0,26.41335,14.49583,7.62034,8.56,1.75,3.21,2.0
1758074651.51051,1758074651.26373,0.0,0.0,0.0,24.92367,12.89155,8.36518,8.56,1.75,3.21,2.0
1758074651.51139,1758074651.27373,0.0,0.0,0.0,22.68913,11.28727,9.33921,8.31,1.58,3.06,2.0
1758074651.52779,1758074651.28373,0.0,0.0,0.0,21.60051,10.08406,9.74028,8.38,1.34,2.85,2.0
1758074651.54509,1758074651.29373,0.0,0.0,0.0,20.05352,8.47978,10.08406,8.38,1.34,2.85,2.0
1758074651.54711,1758074651.30373,0.0,0.0,0.0,18.22006,6.13065,10.65701,8.46,1.39,2.7,2.0
1758074651.5638,1758074651.31373,0.0,0.0,0.0,13.86558,0.74485,12.08941,8.46,1.39,2.7,2.0
1758074651.56643,1758074651.32373,0.0,0.0,0.0,9.68299,-3.89611,12.2613,8.54,1.57,2.67,2.0
1758074651.58531,1758074651.33373,0.0,0.0,0.0,4.58366,-10.59972,12.49048,8.54,1.57,2.67,2.0
1758074651.59056,1758074651.34373,0.0,0.0,0.0,-1.48969,-14.38124,11.34457,8.5,1.79,2.4,2.0
1758074651.60533,1758074651.35373,0.0,0.0,0.0,-10.8862,-12.89155,11.11538,9.27,1.96,2.18,2.0
1758074651.61053,1758074651.36373,0.0,0.0,0.0,-16.67307,-11.34457,11.22997,9.27,1.96,2.18,2.0
1758074651.62513,1758074651.37373,0.0,0.0,0.0,-21.7151,-13.06344,11.34457,8.87,1.91,2.66,2.0
1758074651.63035,1758074651.38373,0.0,0.0,0.0,-26.52795,-15.58445,11.97482,8.87,1.91,2.66,2.0
1758074651.64535,1758074651.39373,0.0,0.0,0.0,-32.88778,-19.99623,12.14671,8.4,1.66,2.57,2.0
1758074651.65033,1758074651.40373,0.0,0.0,0.0,-36.89849,-24.12152,10.71431,8.4,1.66,2.57,2.0
1758074651.66539,1758074651.41373,0.0,0.0,0.0,-39.19032,-31.11161,10.02676,8.17,1.57,1.98,2.0
1758074651.66876,1758074651.42373,0.0,0.0,0.0,-41.13837,-42.51347,9.5684,8.17,1.57,1.98,2.0
1758074651.6842,1758074651.43373,0.0,0.0,0.0,-42.51347,-56.952,9.11003,7.61,1.36,1.57,2.0
1758074651.68806,1758074651.44373,0.0,0.0,0.0,-43.02913,-61.24919,9.4538,8.48,1.22,0.95,2.0
1758074651.70544,1758074651.45373,0.0,0.0,0.0,-43.20102,-45.03448,12.49048,8.48,1.22,0.95,2.0
1758074651.7083,1758074651.46373,0.0,0.0,0.0,-45.03448,-7.96411,12.71966,12.05,1.25,1.87,2.0
1758074651.72346,1758074651.47373,0.0,0.0,0.0,-51.16513,-30.19488,8.25059,12.05,1.25,1.87,2.0
1758074651.73005,1758074651.48373,0.0,0.0,0.0,-55.29043,-37.35685,4.92744,7.24,1.25,3.25,2.0
1758074651.74545,1758074651.49373,0.0,0.0,0.0,-60.38975,-38.44547,-0.40107,7.24,1.25,3.25,2.0
1758074651.74826,1758074651.50373,0.0,0.0,0.0,-61.70755,-30.48136,0.0,9.05,1.39,1.6,2.0
1758074651.76549,1758074651.51373,0.0,0.0,0.0,-62.68159,-25.26744,0.68755,9.44,1.22,0.46,2.0
1758074651.76668,1758074651.52373,0.0,0.0,0.0,-63.54102,-19.42327,2.34913,9.44,1.22,0.46,2.0
1758074651.78487,1758074651.53373,0.0,0.0,0.0,-63.59832,-11.57375,4.92744,9.67,0.76,1.62,2.0
1758074651.78713,1758074651.54373,0.0,0.0,0.0,-61.1346,-3.55234,10.37054,9.67,0.76,1.62,2.0
1758074651.80225,1758074651.55373,0.0,0.0,0.0,-59.01466,-2.57831,13.5791,9.37,0.13,1.84,2.0
1758074651.80343,1758074651.56373,0.0,0.0,0.0,-56.37905,-4.18259,16.21471,9.37,0.13,1.84,2.0
1758074651.81828,1758074651.57373,0.0,0.0,0.0,-53.39967,-7.44845,18.10547,9.08,-0.53,1.76,2.0
1758074651.83569,1758074651.58373,0.0,0.0,0.0,-48.9879,-14.32395,18.85031,9.29,-0.99,1.17,2.0
1758074651.83684,1758074651.59373,0.0,0.0,0.0,-46.1231,-18.16276,18.16276,9.29,-0.99,1.17,2.0
1758074651.85231,1758074651.60373,0.0,0.0,0.0,-43.60209,-20.97026,16.50119,9.65,-1.14,1.0,2.0
1758074651.85408,1758074651.61373,0.0,0.0,0.0,-41.71133,-22.34536,14.49583,9.65,-1.14,1.0,2.0
1758074651.86961,1758074651.62373,0.0,0.0,0.0,-39.99245,-21.14215,11.91752,9.99,-1.02,1.21,2.0
1758074651.88524,1758074651.63373,0.0,0.0,0.0,-39.82057,-20.68378,10.59972,9.99,-1.02,1.21,2.0
1758074651.88742,1758074651.64373,0.0,0.0,0.0,-40.16434,-20.05352,10.02676,9.99,-0.68,1.68,2.0
1758074651.90309,1758074651.65373,0.0,0.0,0.0,-41.36755,-19.07949,9.28192,9.99,-0.68,1.68,2.0
1758074651.90591,1758074651.66373,0.0,0.0,0.0,-41.94051,-12.83425,8.93814,10.2,-0.25,1.78,2.0
1758074651.92238,1758074651.67373,0.0,0.0,0.0,-41.88322,-6.35983,8.59437,10.98,0.15,1.81,2.0
1758074651.92502,1758074651.68373,0.0,0.0,0.0,-41.42485,0.0,8.36518,10.98,0.15,1.81,2.0
1758074651.94061,1758074651.69373,0.0,0.0,0.0,-39.76327,8.70896,8.136,11.26,0.4,1.8,2.0
1758074651.94156,1758074651.70373,0.0,0.0,0.0,-38.44547,10.8289,7.96411,11.26,0.4,1.8,2.0
1758074651.95962,1758074651.71373,0.0,0.0,0.0,-36.95578,8.47978,7.84952,11.15,0.29,1.53,2.0
1758074651.97563,1758074651.72373,0.0,0.0,0.0,-35.98175,2.92208,8.02141,11.15,0.29,1.53,2.0
1758074651.97668,1758074651.73373,0.0,0.0,0.0,-35.69527,-5.72958,8.36518,11.05,-0.09,1.51,2.0
1758074651.99246,1758074651.74373,0.0,0.0,0.0,-35.58068,-10.54242,8.25059,12.73,-1.15,2.65,2.0
1758074651.99539,1758074651.75373,0.0,0.0,0.0,-33.11696,-13.23533,7.39116,12.73,-1.15,2.65,2.0
1758074652.01041,1758074651.76373,0.0,0.0,0.0,-29.22085,-14.78231,6.18794,16.32,-3.15,4.69,2.0
1758074652.01164,1758074651.77373,0.0,0.0,0.0,-21.94428,-24.80907,5.15662,16.32,-3.15,4.69,2.0
1758074652.02746,1758074651.78373,0.0,0.0,0.0,-18.10547,-41.99781,5.90147,15.9,-4.45,5.46,2.0
1758074652.04427,1758074651.79373,0.0,0.0,0.0,-15.98552,-62.62429,8.0787,15.9,-4.45,5.46,2.0
1758074652.04548,1758074651.80373,0.0,0.0,0.0,-16.50119,-81.99026,9.96947,10.83,-2.97,3.81,2.0
1758074652.06051,1758074651.81373,0.0,0.0,0.0,-18.9649,-95.79855,11.91752,8.21,-0.52,1.5,2.0
1758074652.06437,1758074651.82373,0.0,0.0,0.0,-21.08485,-95.1683,12.37589,8.21,-0.52,1.5,2.0
1758074652.07974,1758074651.83373,0.0,0.0,0.0,-24.29341,-92.4754,11.86023,6.7,0.39,1.19,2.0
1758074652.09578,1758074651.84373,0.0,0.0,0.0,-28.70519,-89.78249,9.68299,6.7,0.39,1.19,2.0
1758074652.0967,1758074651.85373,0.0,0.0,0.0,-35.00772,-82.39134,6.87549,4.97,0.42,2.67,2.0
1758074652.11181,1758074651.86373,0.0,0.0,0.0,-40.33623,-76.66176,1.48969,4.97,0.42,2.67,2.0
1758074652.11299,1758074651.87373,0.0,0.0,0.0,-42.62806,-69.15601,1.48969,5.92,-0.22,3.73,2.0
1758074652.12781,1758074651.88373,0.0,0.0,0.0,-44.28964,-42.68536,-1.71887,5.92,-0.22,3.73,2.0
1758074652.14564,1758074651.89373,0.0,0.0,0.0,-43.88857,-25.55392,0.11459,10.26,-1.86,4.58,2.0
1758074652.14657,1758074651.90373,0.0,0.0,0.0,-42.39888,-4.98473,2.00535,12.66,-3.58,1.51,2.0
1758074652.16342,1758074651.91373,0.0,0.0,0.0,-39.19032,18.22006,5.27121,12.66,-3.58,1.51,2.0
1758074652.16594,1758074651.92373,0.0,0.0,0.0,-31.51268,48.9879,9.85487,13.34,-4.76,-0.39,2.0
1758074652.18335,1758074651.93373,0.0,0.0,0.0,-25.61122,60.50434,11.80293,13.34,-4.76,-0.39,2.0
1758074652.18588,1758074651.94373,0.0,0.0,0.0,-20.34,67.37984,11.80293,11.87,-4.9,-0.79,2.0
1758074652.20414,1758074651.95373,0.0,0.0,0.0,-14.78231,70.58841,11.00079,11.87,-4.9,-0.79,2.0
1758074652.20534,1758074651.96373,0.0,0.0,0.0,-8.42248,75.22936,8.25059,10.44,-3.76,-0.19,2.0
1758074652.22085,1758074651.97373,0.0,0.0,0.0,-4.81285,79.35466,5.84417,10.15,-2.37,-0.16,2.0
1758074652.22578,1758074651.98373,0.0,0.0,0.0,-1.71887,82.84971,3.20856,10.15,-2.37,-0.16,2.0
1758074652.24546,1758074651.99373,0.0,0.0,0.0,1.66158,85.71449,0.40107,9.55,-1.69,-0.02,2.0
1758074652.2507,1758074652.00373,0.0,0.0,0.0,7.16197,91.1003,0.51566,9.55,-1.69,-0.02,2.0
1758074652.2659,1758074652.01373,0.0,0.0,0.0,10.59972,96.19962,2.23454,9.54,-1.87,0.58,2.0
1758074652.26956,1758074652.02373,0.0,0.0,0.0,13.40721,97.9185,4.1253,9.54,-1.87,0.58,2.0
1758074652.28475,1758074652.03373,0.0,0.0,0.0,15.29797,96.19962,6.35983,8.77,-2.47,0.99,2.0
1758074652.2858,1758074652.04373,0.0,0.0,0.0,16.55848,92.01703,8.42248,8.17,-2.81,1.09,2.0
1758074652.30101,1758074652.05373,0.0,0.0,0.0,16.04282,89.20953,8.65166,8.17,-2.81,1.09,2.0
1758074652.30586,1758074652.06373,0.0,0.0,0.0,14.66772,85.6572,7.79223,8.3,-2.65,0.78,2.0
1758074652.321,1758074652.07373,0.0,0.0,0.0,12.14671,80.90164,4.18259,8.3,-2.65,0.78,2.0
1758074652.3258,1758074652.08373,0.0,0.0,0.0,11.22997,73.16672,0.85944,8.34,-2.6,1.04,2.0
1758074652.34077,1758074652.09373,0.0,0.0,0.0,11.74564,68.52576,-2.46372,8.34,-2.6,1.04,2.0
1758074652.34427,1758074652.10373,0.0,0.0,0.0,13.98017,63.42643,-4.87014,8.8,-2.64,1.28,2.0
1758074652.35995,1758074652.11373,0.0,0.0,0.0,20.22541,63.48372,-6.07335,8.8,-2.64,1.28,2.0
1758074652.37603,1758074652.12373,0.0,0.0,0.0,26.35606,66.17663,-5.90147,9.47,-2.81,1.24,2.0
1758074652.38165,1758074652.13373,0.0,0.0,0.0,32.88778,67.55173,-5.84417,9.44,-3.17,1.33,2.0
1758074652.38547,1758074652.14373,0.0,0.0,0.0,39.70598,66.97877,-5.21392,9.44,-3.17,1.33,2.0
1758074652.40171,1758074652.15373,0.0,0.0,0.0,49.67545,61.1346,-3.95341,8.68,-3.38,1.71,2.0
1758074652.40611,1758074652.16373,0.0,0.0,0.0,55.86338,55.57691,-2.40642,8.68,-3.38,1.71,2.0
1758074652.42196,1758074652.17373,0.0,0.0,0.0,61.30648,49.61814,-0.74485,8.38,-3.21,1.46,2.0
1758074652.42617,1758074652.18373,0.0,0.0,0.0,66.11933,42.1124,0.97403,8.38,-3.21,1.46,2.0
1758074652.44181,1758074652.19373,0.0,0.0,0.0,71.10406,19.70975,1.3178,8.25,-2.79,1.18,2.0
1758074652.44535,1758074652.20373,0.0,0.0,0.0,72.99483,3.89611,-0.97403,7.59,-2.21,0.44,2.0
1758074652.4611,1758074652.21373,0.0,0.0,0.0,76.31798,9.33921,-4.23989,7.59,-2.21,0.44,2.0
1758074652.4628,1758074652.22373,0.0,0.0,0.0,78.7244,18.27736,-4.64096,10.3,-1.95,-0.22,2.0
1758074652.47962,1758074652.23373,0.0,0.0,0.0,80.55787,30.25217,-7.33386,10.3,-1.95,-0.22,2.0
1758074652.50004,1758074652.24373,0.0,0.0,0.0,79.69843,34.89313,-9.74028,9.72,-1.68,2.11,2.0
1758074652.50283,1758074652.25373,0.0,0.0,0.0,79.06818,18.22006,-16.61578,9.72,-1.68,2.11,2.0
1758074652.50479,1758074652.26373,0.0,0.0,0.0,76.1461,-25.8404,-12.89155,6.21,-1.42,2.55,2.0
1758074652.52172,1758074652.27373,0.0,0.0,0.0,74.42722,-50.2484,-11.97482,8.53,-1.18,0.5,2.0
1758074652.5255,1758074652.28373,0.0,0.0,0.0,73.05212,-57.29578,-8.76626,8.53,-1.18,0.5,2.0
1758074652.54195,1758074652.29373,0.0,0.0,0.0,74.08345,-52.54023,-7.39116,11.11,-1.05,0.54,2.0
1758074652.54774,1758074652.30373,0.0,0.0,0.0,69.21331,-55.6342,-5.32851,11.11,-1.05,0.54,2.0
1758074652.56549,1758074652.31373,0.0,0.0,0.0,62.16592,-60.38975,-4.52637,11.14,0.17,4.65,2.0
1758074652.5697,1758074652.32373,0.0,0.0,0.0,50.76406,-65.03072,-2.23454,11.14,0.17,4.65,2.0
1758074652.58492,1758074652.33373,0.0,0.0,0.0,36.84119,-65.03072,-1.08862,13.48,2.78,8.93,2.0
1758074652.5872,1758074652.34373,0.0,0.0,0.0,12.14671,-59.47303,-2.6929,13.48,2.78,7.09,2.0
1758074652.60186,1758074652.35373,0.0,0.0,0.0,-4.64096,-55.23313,-4.87014,15.1,4.61,7.09,2.0
1758074652.60308,1758074652.36373,0.0,0.0,0.0,-18.56383,-51.50891,-7.96411,13.81,4.15,5.03,2.0
1758074652.61785,1758074652.37373,0.0,0.0,0.0,-27.67386,-45.26366,-11.63104,13.81,4.15,5.03,2.0
1758074652.63521,1758074652.38373,0.0,0.0,0.0,-31.97105,-39.19032,-19.82434,10.73,0.9,4.19,2.0
1758074652.64029,1758074652.39373,0.0,0.0,0.0,-29.39274,-38.73195,-25.72581,10.73,0.9,4.19,2.0
1758074652.6549,1758074652.40373,0.0,0.0,0.0,-23.83505,-40.45082,-30.65324,7.49,-2.22,5.33,2.0
1758074652.65974,1758074652.41373,0.0,0.0,0.0,-15.69904,-41.94051,-34.0337,7.49,-2.22,5.33,2.0
1758074652.67599,1758074652.42373,0.0,0.0,0.0,-0.68755,-41.99781,-34.89313,7.5,-3.9,5.54,2.0
1758074652.67904,1758074652.43373,0.0,0.0,0.0,9.96947,-39.24761,-32.83048,9.26,-4.49,4.37,2.0
1758074652.6939,1758074652.44373,0.0,0.0,0.0,19.25138,-32.6013,-29.50733,9.26,-4.49,4.37,2.0
1758074652.6959,1758074652.45373,0.0,0.0,0.0,26.47065,-23.49127,-24.4653,10.18,-2.87,3.41,2.0
1758074652.71123,1758074652.46373,0.0,0.0,0.0,33.23156,-9.33921,-17.13144,10.18,-2.87,3.41,2.0
1758074652.71219,1758074652.47373,0.0,0.0,0.0,35.58068,-1.94806,-12.89155,9.55,-0.32,3.53,2.0
1758074652.7283,1758074652.48373,0.0,0.0,0.0,36.55471,3.72423,-9.96947,9.55,-0.32,3.53,2.0
1758074652.74429,1758074652.49373,0.0,0.0,0.0,35.98175,9.11003,-6.41713,8.81,1.46,3.15,2.0
1758074652.74546,1758074652.50373,0.0,0.0,0.0,35.3515,16.04282,-4.52637,8.87,2.11,3.01,2.0
1758074652.76031,1758074652.51373,0.0,0.0,0.0,34.60666,20.16812,-3.26586,8.87,2.11,3.01,2.0
1758074652.77631,1758074652.52373,0.0,0.0,0.0,33.74722,24.92367,-2.63561,8.94,1.58,2.63,2.0
1758074652.77721,1758074652.53373,0.0,0.0,0.0,31.62727,29.10626,-2.86479,8.94,1.58,2.63,2.0
1758074652.79234,1758074652.54373,0.0,0.0,0.0,29.73651,26.64254,-3.32316,8.52,0.85,2.82,2.0
1758074652.79517,1758074652.55373,0.0,0.0,0.0,27.61657,23.49127,-3.66693,8.52,0.85,2.82,2.0
1758074652.81002,1758074652.56373,0.0,0.0,0.0,25.26744,21.37133,-3.55234,8.2,0.6,2.81,2.0
1758074652.82601,1758074652.57373,0.0,0.0,0.0,21.31403,18.9649,-2.6929,8.53,0.6,2.79,2.0
1758074652.83069,1758074652.58373,0.0,0.0,0.0,18.85031,16.73037,-1.71887,8.53,0.77,2.79,2.0
1758074652.84706,1758074652.59373,0.0,0.0,0.0,16.55848,14.61043,-0.40107,8.49,1.08,2.79,2.0
1758074652.84964,1758074652.60373,0.0,0.0,0.0,14.20935,13.12073,0.57296,8.49,1.08,2.79,2.0
1758074652.86532,1758074652.61373,0.0,0.0,0.0,11.51645,10.65701,2.06265,8.64,1.27,2.75,2.0
1758074652.8703,1758074652.62373,0.0,0.0,0.0,10.37054,10.02676,3.32316,8.64,1.27,2.75,2.0
1758074652.88516,1758074652.63373,0.0,0.0,0.0,9.5684,9.5684,4.29718,8.77,1.28,2.61,2.0
1758074652.89023,1758074652.64373,0.0,0.0,0.0,9.39651,8.65166,5.72958,8.77,1.28,2.61,2.0
1758074652.92986,1758074652.65373,0.0,0.0,0.0,9.22462,6.7609,7.84952,8.68,1.12,2.55,2.0
1758074652.9318,1758074652.66373,0.0,0.0,0.0,8.59437,3.95341,8.93814,8.57,0.93,2.64,2.0
1758074652.93302,1758074652.67373,0.0,0.0,0.0,7.21927,-0.45837,10.08406,8.57,0.93,2.64,2.0
1758074652.93511,1758074652.68373,0.0,0.0,0.0,5.09932,-6.24524,11.11538,8.45,0.89,2.47,2.0
1758074652.93573,1758074652.69373,0.0,0.0,0.0,0.40107,-16.10011,10.94349,8.45,0.89,2.47,2.0
1758074652.95543,1758074652.70373,0.0,0.0,0.0,-3.26586,-17.87628,10.94349,8.69,1.08,2.28,2.0
1758074652.95901,1758074652.71373,0.0,0.0,0.0,-6.87549,-16.38659,11.11538,8.69,1.08,2.28,2.0
1758074652.97522,1758074652.72373,0.0,0.0,0.0,-12.89155,-13.34992,10.94349,9.38,1.34,2.29,2.0
1758074652.97729,1758074652.73373,0.0,0.0,0.0,-17.30333,-13.12073,10.54242,9.08,1.39,2.54,2.0
1758074652.99246,1758074652.74373,0.0,0.0,0.0,-21.42862,-16.21471,10.48513,9.08,1.39,2.54,2.0
1758074652.9958,1758074652.75373,0.0,0.0,0.0,-26.06958,-18.73572,9.4538,8.56,1.35,2.18,2.0
1758074653.01122,1758074652.76373,0.0,0.0,0.0,-30.99702,-25.43933,8.65166,8.56,1.35,2.18,2.0
1758074653.01293,1758074652.77373,0.0,0.0,0.0,-33.23156,-34.95043,8.93814,8.34,1.26,1.57,2.0
1758074653.02846,1758074652.78373,0.0,0.0,0.0,-34.32018,-41.88322,9.05273,8.34,1.26,1.57,2.0
1758074653.04446,1758074652.79373,0.0,0.0,0.0,-34.26288,-46.63877,10.25595,8.36,0.99,1.07,2.0
1758074653.04731,1758074652.80373,0.0,0.0,0.0,-34.09099,-43.31561,12.43318,9.48,0.71,0.73,2.0
1758074653.0625,1758074652.81373,0.0,0.0,0.0,-33.40344,-19.13679,14.66772,9.48,0.71,0.73,2.0
1758074653.06529,1758074652.82373,0.0,0.0,0.0,-32.08564,-3.89611,17.99088,11.13,0.82,1.86,2.0
1758074653.08023,1758074652.83373,0.0,0.0,0.0,-38.56006,-20.62648,12.60507,11.13,0.82,1.86,2.0
1758074653.08548,1758074652.84373,0.0,0.0,0.0,-42.05511,-30.48136,8.88085,7.57,0.99,1.98,2.0
1758074653.10501,1758074652.85373,0.0,0.0,0.0,-43.60209,-30.19488,6.13065,7.57,0.99,1.98,2.0
1758074653.12329,1758074652.86373,0.0,0.0,0.0,-43.4875,-27.61657,7.21927,9.01,1.21,0.76,2.0
1758074653.12351,1758074652.87373,0.0,0.0,0.0,-44.40423,-23.89234,8.0787,9.01,1.21,0.76,2.0
1758074653.12364,1758074652.88373,0.0,0.0,0.0,-46.35228,-15.46986,10.25595,9.35,0.87,0.4,2.0
1758074653.13863,1758074652.89373,0.0,0.0,0.0,-46.98254,-8.99544,12.71966,9.59,0.3,1.45,2.0
1758074653.15562,1758074652.90373,0.0,0.0,0.0,-47.15443,-4.64096,15.29797,9.59,0.3,1.45,2.0
1758074653.15599,1758074652.91373,0.0,0.0,0.0,-46.1804,-4.58366,18.44924,9.04,-0.23,1.54,2.0
1758074653.17215,1758074652.92373,0.0,0.0,0.0,-44.86259,-9.74028,19.88164,9.04,-0.23,1.54,2.0
1758074653.17331,1758074652.93373,0.0,0.0,0.0,-43.14373,-15.06879,20.68378,8.8,-0.59,1.54,2.0
1758074653.18865,1758074652.94373,0.0,0.0,0.0,-41.25296,-20.05352,20.74107,8.8,-0.59,1.54,2.0
1758074653.20431,1758074652.95373,0.0,0.0,0.0,-38.61736,-23.54857,19.07949,9.54,-0.74,1.16,2.0
1758074653.20555,1758074652.96373,0.0,0.0,0.0,-37.24226,-22.40265,17.24603,10.57,-0.67,1.09,2.0
1758074653.22037,1758074652.97373,0.0,0.0,0.0,-36.49741,-18.79302,15.06879,10.57,-0.67,1.09,2.0
1758074653.23795,1758074652.98373,0.0,0.0,0.0,-36.49741,-14.09476,12.89155,11.16,-0.5,1.38,2.0
1758074653.23965,1758074652.99373,0.0,0.0,0.0,-37.47144,-7.50575,10.8862,11.16,-0.5,1.38,2.0
1758074653.25537,1758074653.00373,0.0,0.0,0.0,-38.84654,-4.87014,9.91217,11.03,-0.29,1.7,2.0
1758074653.25595,1758074653.01373,0.0,0.0,0.0,-40.68,-2.6929,9.11003,11.03,-0.29,1.7,2.0
1758074653.27242,1758074653.02373,0.0,0.0,0.0,-42.05511,1.08862,8.36518,10.93,0.0,1.72,2.0
1758074653.2756,1758074653.03373,0.0,0.0,0.0,-43.14373,7.21927,7.62034,11.16,0.34,1.63,2.0
1758074653.29072,1758074653.04373,0.0,0.0,0.0,-43.77398,8.59437,7.16197,11.16,0.34,1.63,2.0
1758074653.30643,1758074653.05373,0.0,0.0,0.0,-44.748,8.59437,6.8182,10.57,0.62,1.36,2.0
1758074653.30872,1758074653.06373,0.0,0.0,0.0,-45.77933,9.28192,7.10468,10.57,0.62,1.36,2.0
1758074653.32574,1758074653.07373,0.0,0.0,0.0,-48.07116,6.18794,8.88085,10.59,0.65,1.06,2.0
1758074653.32615,1758074653.08373,0.0,0.0,0.0,-49.61814,-2.34913,10.02676,10.59,0.65,1.06,2.0
1758074653.34431,1758074653.09373,0.0,0.0,0.0,-51.73809,-13.80828,10.8289,9.95,0.33,1.06,2.0
1758074653.34818,1758074653.10373,0.0,0.0,0.0,-54.14451,-24.98096,11.28727,9.95,0.33,1.06,2.0
1758074653.3638,1758074653.11373,0.0,0.0,0.0,-58.09792,-39.82057,10.25595,10.49,0.2,1.7,2.0
1758074653.36498,1758074653.12373,0.0,0.0,0.0,-58.49899,-45.77933,7.79223,12.94,-1.06,2.79,2.0
1758074653.37977,1758074653.13373,0.0,0.0,0.0,-56.60823,-47.89928,4.35448,12.94,-1.06,2.79,2.0
1758074653.38097,1758074653.14373,0.0,0.0,0.0,-50.13381,-55.34772,0.17189,16.02,-3.29,4.61,2.0
1758074653.39614,1758074653.15373,0.0,0.0,0.0,-45.60744,-66.97877,-1.60428,16.02,-3.29,4.61,2.0
1758074653.41178,1758074653.16373,0.0,0.0,0.0,-42.39888,-81.5892,-2.23454,13.77,-4.29,4.26,2.0
1758074653.41378,1758074653.17373,0.0,0.0,0.0,-39.4195,-92.93376,-1.3178,13.77,-4.29,4.26,2.0
1758074653.4288,1758074653.18373,0.0,0.0,0.0,-36.89849,-95.85584,-0.97403,9.58,-2.94,2.21,2.0
1758074653.44479,1758074653.19373,0.0,0.0,0.0,-36.21093,-89.32412,-1.14592,7.31,-1.19,0.94,2.0
1758074653.44572,1758074653.20373,0.0,0.0,0.0,-36.49741,-80.67246,-1.08862,7.31,-1.19,0.94,2.0
1758074653.46083,1758074653.21373,0.0,0.0,0.0,-36.15364,-66.29122,-3.83882,5.8,-0.45,1.98,2.0
1758074653.46442,1758074653.22373,0.0,0.0,0.0,-37.24226,-53.28508,-2.46372,5.8,-0.45,1.98,2.0
1758074653.48084,1758074653.23373,0.0,0.0,0.0,-36.49741,-37.12767,-1.83346,6.71,-0.75,3.23,2.0
1758074653.48175,1758074653.24373,0.0,0.0,0.0,-35.98175,-19.48057,0.0,6.71,-0.75,3.23,2.0
1758074653.49717,1758074653.25373,0.0,0.0,0.0,-33.86181,1.3178,3.49504,10.59,-2.19,2.71,2.0
1758074653.51504,1758074653.26373,0.0,0.0,0.0,-28.59059,32.88778,7.73493,12.69,-3.77,0.91,2.0
1758074653.52021,1758074653.27373,0.0,0.0,0.0,-24.23611,49.27437,9.85487,12.69,-3.77,0.91,2.0
1758074653.52077,1758074653.28373,0.0,0.0,0.0,-20.34,58.15522,9.96947,12.03,-4.09,-0.19,2.0
1758074653.5394,1758074653.29373,0.0,0.0,0.0,-16.50119,62.39511,8.42248,12.03,-4.09,-0.19,2.0
1758074653.54066,1758074653.30373,0.0,0.0,0.0,-10.54242,61.24919,5.27121,10.82,-3.32,-0.13,2.0
1758074653.56076,1758074653.31373,0.0,0.0,0.0,-7.04738,65.08801,2.97938,10.82,-3.32,-0.13,2.0
1758074653.56585,1758074653.32373,0.0,0.0,0.0,-4.1253,70.30193,1.43239,11.21,-2.43,-0.01,2.0
1758074653.58099,1758074653.33373,0.0,0.0,0.0,-0.45837,76.20339,-1.03132,11.21,-2.43,-0.01,2.0
1758074653.58581,1758074653.34373,0.0,0.0,0.0,2.23454,82.56322,-1.20321,10.75,-2.31,0.0,2.0
1758074653.60101,1758074653.35373,0.0,0.0,0.0,5.21392,87.37608,0.11459,9.98,-2.48,0.76,2.0
1758074653.6038,1758074653.36373,0.0,0.0,0.0,8.42248,89.83979,2.40642,9.98,-2.48,0.76,2.0
1758074653.61968,1758074653.37373,0.0,0.0,0.0,13.46451,87.26147,6.99009,8.93,-2.52,1.08,2.0
1758074653.62073,1758074653.38373,0.0,0.0,0.0,16.73037,82.56322,10.02676,8.93,-2.52,1.08,2.0
1758074653.63765,1758074653.39373,0.0,0.0,0.0,19.82434,77.75038,12.54778,8.18,-2.47,1.22,2.0
1758074653.65498,1758074653.40373,0.0,0.0,0.0,22.00158,73.62508,13.75099,8.18,-2.47,1.22,2.0
1758074653.65616,1758074653.41373,0.0,0.0,0.0,23.66316,66.97877,12.89155,8.15,-2.4,0.69,2.0
1758074653.671,1758074653.42373,0.0,0.0,0.0,24.00693,60.33246,10.59972,7.91,-2.27,0.75,2.0
1758074653.6727,1758074653.43373,0.0,0.0,0.0,24.29341,52.884,7.62034,7.91,-2.27,0.75,2.0
1758074653.68804,1758074653.44373,0.0,0.0,0.0,25.26744,46.75336,4.52637,8.25,-2.27,0.94,2.0
1758074653.70388,1758074653.45373,0.0,0.0,0.0,28.59059,41.31026,1.3178,8.25,-2.27,0.94,2.0
1758074653.70926,1758074653.46373,0.0,0.0,0.0,32.14294,43.25832,-0.11459,9.3,-2.54,1.07,2.0
1758074653.72407,1758074653.47373,0.0,0.0,0.0,36.95578,47.61279,-0.45837,9.3,-2.54,1.07,2.0
1758074653.72496,1758074653.48373,0.0,0.0,0.0,41.99781,52.02457,-0.85944,9.98,-2.82,1.09,2.0
1758074653.74003,1758074653.49373,0.0,0.0,0.0,49.50356,54.66018,-1.14592,9.61,-2.81,1.58,2.0
1758074653.74121,1758074653.50373,0.0,0.0,0.0,54.60288,54.3737,-0.97403,9.61,-2.81,1.58,2.0
1758074653.75705,1758074653.51373,0.0,0.0,0.0,59.01466,52.54023,-0.34377,9.25,-2.56,1.43,2.0
1758074653.77299,1758074653.52373,0.0,0.0,0.0,62.96807,49.15978,0.57296,9.25,-2.56,1.43,2.0
1758074653.77571,1758074653.53373,0.0,0.0,0.0,68.12468,40.10705,2.86479,8.93,-2.34,1.04,2.0
1758074653.79112,1758074653.54373,0.0,0.0,0.0,70.13004,25.89769,3.38045,8.93,-2.34,1.04,2.0
1758074653.79226,1758074653.55373,0.0,0.0,0.0,70.53111,9.96947,2.92208,7.87,-2.06,0.73,2.0
1758074653.80682,1758074653.56373,0.0,0.0,0.0,72.82294,12.60507,-0.68755,7.87,-2.06,0.73,2.0
1758074653.82391,1758074653.57373,0.0,0.0,0.0,75.91692,26.64254,-0.45837,9.09,-1.72,-0.39,2.0
1758074653.82509,1758074653.58373,0.0,0.0,0.0,77.80767,36.55471,-1.3751,10.11,-1.5,0.69,2.0
1758074653.83982,1758074653.59373,0.0,0.0,0.0,77.06283,44.86259,-4.18259,10.11,-1.5,0.69,2.0
1758074653.841,1758074653.60373,0.0,0.0,0.0,74.88559,11.86023,-12.204,8.14,-0.83,2.51,2.0
1758074653.85785,1758074653.61373,0.0,0.0,0.0,78.20874,-27.2155,-3.03668,8.14,-0.83,2.51,2.0
1758074653.87513,1758074653.62373,0.0,0.0,0.0,75.63043,-33.86181,-4.23989,7.36,-0.58,0.13,2.0
1758074653.87634,1758074653.63373,0.0,0.0,0.0,75.57314,-37.35685,-0.22918,7.36,-0.58,0.13,2.0
1758074653.89391,1758074653.64373,0.0,0.0,0.0,78.26604,-36.55471,-1.14592,10.73,-0.8,-0.58,2.0
1758074653.89517,1758074653.65373,0.0,0.0,0.0,78.26604,-36.7266,-0.74485,9.54,-0.84,0.11,2.0
1758074653.90989,1758074653.66373,0.0,0.0,0.0,77.52119,-31.45539,-2.29183,9.54,-0.84,0.11,2.0
1758074653.91159,1758074653.67373,0.0,0.0,0.0,74.25533,-27.73116,-3.66693,9.78,-0.56,2.99,2.0
1758074653.92802,1758074653.68373,0.0,0.0,0.0,64.80153,-28.13223,-8.93814,9.78,-0.56,2.99,2.0
1758074653.94501,1758074653.69373,0.0,0.0,0.0,56.26446,-35.98175,-10.37054,9.88,0.71,3.66,2.0
1758074653.94635,1758074653.70373,0.0,0.0,0.0,45.60744,-43.20102,-8.70896,9.88,0.71,3.66,2.0
1758074653.96299,1758074653.71373,0.0,0.0,0.0,32.08564,-44.00316,-4.1253,12.96,3.07,6.14,2.0
1758074653.96537,1758074653.72373,0.0,0.0,0.0,7.62034,-33.80451,2.40642,16.76,4.97,6.65,2.0
1758074653.97999,1758074653.73373,0.0,0.0,0.0,-9.11003,-23.94964,4.87014,16.76,4.97,6.65,2.0
1758074653.9815,1758074653.74373,0.0,0.0,0.0,-24.12152,-15.87093,6.53172,16.04,4.81,5.45,2.0
1758074653.99726,1758074653.75373,0.0,0.0,0.0,-37.87251,-10.37054,5.09932,16.04,4.81,5.45,2.0
1758074654.01328,1758074653.76373,0.0,0.0,0.0,-40.39353,-6.47442,0.40107,12.34,1.21,4.3,2.0
1758074654.01448,1758074653.77373,0.0,0.0,0.0,-38.78925,-5.21392,-6.35983,12.34,1.21,4.3,2.0
1758074654.02931,1758074653.78373,0.0,0.0,0.0,-34.66395,-1.71887,-12.204,8.87,-2.46,4.2,2.0
1758074654.0453,1758074653.79373,0.0,0.0,0.0,-24.80907,-1.03132,-23.0329,8.87,-2.46,4.2,2.0
1758074654.049,1758074653.80373,0.0,0.0,0.0,-15.69904,-3.03668,-29.27814,7.4,-4.04,5.17,2.0
1758074654.06511,1758074653.81373,0.0,0.0,0.0,-5.09932,-5.90147,-31.97105,7.93,-5.21,5.37,2.0
1758074654.06632,1758074653.82373,0.0,0.0,0.0,5.78687,-9.39651,-31.85646,7.93,-5.21,5.37,2.0
1758074654.08399,1758074653.83373,0.0,0.0,0.0,20.16812,-7.16197,-25.55392,9.52,-4.8,4.48,2.0
1758074654.08647,1758074653.84373,0.0,0.0,0.0,27.33009,-1.66158,-19.59516,9.52,-4.8,4.48,2.0
1758074654.10468,1758074653.85373,0.0,0.0,0.0,32.83048,2.00535,-13.5218,9.87,-2.69,3.97,2.0
1758074654.10588,1758074653.86373,0.0,0.0,0.0,37.01308,4.98473,-7.73493,9.87,-2.69,3.97,2.0
1758074654.12135,1758074653.87373,0.0,0.0,0.0,40.68,8.70896,-1.43239,8.81,-0.45,3.85,2.0
1758074654.12306,1758074653.88373,0.0,0.0,0.0,41.48215,10.65701,0.40107,8.3,1.09,3.48,2.0
1758074654.13811,1758074653.89373,0.0,0.0,0.0,41.65404,11.63104,0.74485,8.3,1.09,3.48,2.0
1758074654.15556,1758074653.90373,0.0,0.0,0.0,40.85189,13.00614,-0.34377,8.12,1.59,3.01,2.0
1758074654.15794,1758074653.91373,0.0,0.0,0.0,38.44547,14.78231,-2.92208,8.12,1.59,3.01,2.0
1758074654.17338,1758074653.92373,0.0,0.0,0.0,36.26823,16.21471,-4.0107,8.28,1.33,3.06,2.0
1758074654.17428,1758074653.93373,0.0,0.0,0.0,33.17426,18.85031,-5.15662,8.28,1.33,3.06,2.0
1758074654.18941,1758074653.94373,0.0,0.0,0.0,29.8511,21.7724,-4.58366,8.68,0.61,3.19,2.0
1758074654.20513,1758074653.95373,0.0,0.0,0.0,24.12152,23.60586,-3.95341,8.59,0.19,3.32,2.0
1758074654.20902,1758074653.96373,0.0,0.0,0.0,20.45459,22.34536,-2.63561,8.59,0.19,3.32,2.0
1758074654.22417,1758074653.97373,0.0,0.0,0.0,17.01685,20.11082,-0.74485,8.33,0.43,2.95,2.0
1758074654.22619,1758074653.98373,0.0,0.0,0.0,13.40721,19.82434,2.34913,8.33,0.43,2.95,2.0
1758074654.24146,1758074653.99373,0.0,0.0,0.0,12.08941,19.13679,4.0107,8.73,1.0,2.9,2.0
1758074654.24336,1758074654.00373,0.0,0.0,0.0,11.86023,17.30333,6.18794,8.73,1.0,2.9,2.0
1758074654.2585,1758074654.01373,0.0,0.0,0.0,12.08941,15.87093,7.39116,8.58,1.28,2.99,2.0
1758074654.27544,1758074654.02373,0.0,0.0,0.0,13.5791,13.69369,8.70896,8.58,1.28,2.99,2.0
1758074654.27639,1758074654.03373,0.0,0.0,0.0,15.06879,10.48513,8.93814,8.57,1.02,3.19,2.0
1758074654.29147,1758074654.04373,0.0,0.0,0.0,16.61578,6.58902,9.33921,8.28,0.51,2.83,2.0
1758074654.29263,1758074654.05373,0.0,0.0,0.0,17.99088,3.55234,9.39651,8.28,0.51,2.83,2.0
1758074654.30801,1758074654.06373,0.0,0.0,0.0,18.9649,0.51566,10.59972,8.55,0.18,2.7,2.0
1758074654.32544,1758074654.07373,0.0,0.0,0.0,18.44924,-1.60428,11.51645,8.55,0.18,2.7,2.0
1758074654.32836,1758074654.08373,0.0,0.0,0.0,16.61578,-6.41713,13.34992,8.75,0.18,2.64,2.0
1758074654.34483,1758074654.09373,0.0,0.0,0.0,11.80293,-9.4538,12.54778,8.75,0.18,2.64,2.0
1758074654.35091,1758074654.10373,0.0,0.0,0.0,2.86479,-14.72501,10.94349,8.64,0.59,2.53,2.0
1758074654.35471,1758074654.11373,0.0,0.0,0.0,-3.55234,-14.32395,10.19865,9.02,1.36,2.07,2.0
1758074654.37051,1758074654.12373,0.0,0.0,0.0,-9.85487,-12.08941,9.33921,9.02,1.36,2.07,2.0
1758074654.37496,1758074654.13373,0.0,0.0,0.0,-15.75634,-12.2613,9.05273,8.97,1.85,2.31,2.0
1758074654.39026,1758074654.14373,0.0,0.0,0.0,-23.94964,-16.272,8.36518,8.97,1.85,2.31,2.0
1758074654.39191,1758074654.15373,0.0,0.0,0.0,-28.41871,-19.76705,8.25059,8.33,1.61,2.32,2.0
1758074654.40815,1758074654.16373,0.0,0.0,0.0,-32.37212,-21.6578,7.62034,8.33,1.61,2.32,2.0
1758074654.42455,1758074654.17373,0.0,0.0,0.0,-36.89849,-24.17882,6.70361,8.41,1.18,1.85,2.0
1758074654.42543,1758074654.18373,0.0,0.0,0.0,-39.13302,-32.71589,6.53172,8.21,0.98,1.57,2.0
1758074654.44059,1758074654.19373,0.0,0.0,0.0,-40.04975,-44.63341,7.04738,8.21,0.98,1.57,2.0
1758074654.44575,1758074654.20373,0.0,0.0,0.0,-39.3622,-56.03527,7.44845,7.58,0.61,1.28,2.0
1758074654.46336,1758074654.21373,0.0,0.0,0.0,-38.1017,-64.91612,10.02676,7.58,0.61,1.28,2.0
1758074654.46535,1758074654.22373,0.0,0.0,0.0,-36.32552,-48.35764,14.20935,9.08,0.24,0.6,2.0
1758074654.48063,1758074654.23373,0.0,0.0,0.0,-36.7266,-14.15206,12.71966,9.08,0.24,0.6,2.0
1758074654.48585,1758074654.24373,0.0,0.0,0.0,-36.6693,-27.44468,13.34992,11.24,0.21,1.75,2.0
1758074654.50215,1758074654.25373,0.0,0.0,0.0,-41.99781,-42.34158,7.67763,7.21,0.21,2.52,2.0
1758074654.50845,1758074654.26373,0.0,0.0,0.0,-45.09178,-42.51347,2.6929,7.21,0.39,2.52,2.0
1758074654.52446,1758074654.27373,0.0,0.0,0.0,-44.748,-34.89313,2.92208,9.52,0.74,1.07,2.0
1758074654.5262,1758074654.28373,0.0,0.0,0.0,-44.40423,-27.73116,3.83882,9.52,0.74,1.07,2.0
1758074654.54434,1758074654.29373,0.0,0.0,0.0,-43.83128,-22.00158,6.53172,9.42,0.56,0.29,2.0
1758074654.54804,1758074654.30373,0.0,0.0,0.0,-42.91454,-13.46451,9.68299,9.42,0.56,0.29,2.0
1758074654.56445,1758074654.31373,0.0,0.0,0.0,-40.68,-7.33386,13.98017,10.0,0.16,1.31,2.0
1758074654.56868,1758074654.32373,0.0,0.0,0.0,-37.75792,-7.44845,18.10547,10.0,0.16,1.31,2.0
1758074654.58453,1758074654.33373,0.0,0.0,0.0,-32.71589,-15.75634,22.74642,9.18,-0.35,1.52,2.0
1758074654.58945,1758074654.34373,0.0,0.0,0.0,-29.50733,-21.37133,24.63719,9.26,-1.0,1.98,2.0
1758074654.60547,1758074654.35373,0.0,0.0,0.0,-26.98631,-25.55392,25.43933,9.26,-1.0,1.98,2.0
1758074654.60911,1758074654.36373,0.0,0.0,0.0,-24.92367,-26.81443,24.86637,10.12,-1.42,1.07,2.0
1758074654.62476,1758074654.37373,0.0,0.0,0.0,-23.26209,-22.28806,21.42862,10.12,-1.42,1.07,2.0
1758074654.6257,1758074654.38373,0.0,0.0,0.0,-22.57454,-17.30333,18.56383,10.8,-1.54,1.01,2.0
1758074654.64503,1758074654.39373,0.0,0.0,0.0,-22.05888,-12.54778,16.04282,10.8,-1.54,1.01,2.0
1758074654.64821,1758074654.40373,0.0,0.0,0.0,-22.86102,-9.33921,13.00614,10.52,-1.23,1.64,2.0
1758074654.66537,1758074654.41373,0.0,0.0,0.0,-23.72045,-5.55769,11.00079,10.41,-0.31,1.77,2.0
1758074654.66972,1758074654.42373,0.0,0.0,0.0,-24.17882,-0.11459,9.62569,10.41,-0.31,1.77,2.0
1758074654.6856,1758074654.43373,0.0,0.0,0.0,-24.5226,4.87014,8.65166,11.06,0.64,1.7,2.0
1758074654.68965,1758074654.44373,0.0,0.0,0.0,-25.26744,8.42248,7.84952,11.06,0.64,1.7,2.0
1758074654.70559,1758074654.45373,0.0,0.0,0.0,-26.64254,7.79223,8.136,10.96,1.18,1.49,2.0
1758074654.71049,1758074654.46373,0.0,0.0,0.0,-28.64789,4.0107,9.05273,10.96,1.18,1.49,2.0
1758074654.72577,1758074654.47373,0.0,0.0,0.0,-31.62727,-5.15662,9.74028,10.65,1.1,1.1,2.0
1758074654.72989,1758074654.48373,0.0,0.0,0.0,-37.47144,-25.09555,10.54242,10.55,0.67,1.91,2.0
1758074654.74572,1758074654.49373,0.0,0.0,0.0,-41.13837,-39.70598,9.33921,10.55,0.67,1.91,2.0
1758074654.74998,1758074654.50373,0.0,0.0,0.0,-41.99781,-49.96192,5.72958,13.43,-0.85,4.0,2.0
1758074654.76583,1758074654.51373,0.0,0.0,0.0,-39.01843,-54.60288,1.3751,13.43,-0.85,4.0,2.0
1758074654.76993,1758074654.52373,0.0,0.0,0.0,-31.45539,-63.25455,-2.34913,17.75,-3.5,5.86,2.0
1758074654.78588,1758074654.53373,0.0,0.0,0.0,-27.38738,-78.26604,-2.7502,17.75,-3.5,5.86,2.0
1758074654.79005,1758074654.54373,0.0,0.0,0.0,-24.17882,-97.7466,-1.66158,14.55,-4.44,5.31,2.0
1758074654.80558,1758074654.55373,0.0,0.0,0.0,-23.20479,-110.69545,-0.97403,14.55,-4.44,5.31,2.0
1758074654.81001,1758074654.56373,0.0,0.0,0.0,-25.72581,-108.28902,-0.97403,9.76,-3.07,2.27,2.0
1758074654.82584,1758074654.57373,0.0,0.0,0.0,-27.84575,-96.65798,-1.60428,7.33,-1.49,0.02,2.0
1758074654.83,1758074654.58373,0.0,0.0,0.0,-28.59059,-79.01089,-7.79223,7.33,-1.49,0.02,2.0
1758074654.84565,1758074654.59373,0.0,0.0,0.0,-30.65324,-79.06818,-8.88085,4.46,-0.58,2.06,2.0
1758074654.84929,1758074654.60373,0.0,0.0,0.0,-34.43476,-66.69229,-9.74028,4.46,-0.58,2.06,2.0
1758074654.86506,1758074654.61373,0.0,0.0,0.0,-33.74722,-52.19646,-7.50575,6.84,-0.93,4.84,2.0
1758074654.86576,1758074654.62373,0.0,0.0,0.0,-30.25217,-33.46074,-3.95341,6.84,-0.93,4.84,2.0
1758074654.88099,1758074654.63373,0.0,0.0,0.0,-22.63183,-0.97403,2.92208,11.44,-2.68,2.82,2.0
1758074654.88589,1758074654.64373,0.0,0.0,0.0,-17.30333,20.34,7.84952,12.9,-4.12,0.16,2.0
1758074654.90084,1758074654.65373,0.0,0.0,0.0,-11.51645,38.61736,11.80293,12.9,-4.12,0.16,2.0
1758074654.90592,1758074654.66373,0.0,0.0,0.0,-5.90147,49.79003,13.34992,11.62,-4.45,-1.64,2.0
1758074654.92078,1758074654.67373,0.0,0.0,0.0,0.74485,59.64491,13.17803,11.62,-4.45,-1.64,2.0
1758074654.92261,1758074654.68373,0.0,0.0,0.0,4.18259,66.40582,11.11538,10.6,-3.7,-0.77,2.0
1758074654.944,1758074654.69373,0.0,0.0,0.0,6.47442,74.25533,7.50575,10.6,-3.7,-0.77,2.0
1758074654.94568,1758074654.70373,0.0,0.0,0.0,7.62034,78.66711,4.52637,10.32,-2.48,-0.23,2.0
1758074654.964,1758074654.71373,0.0,0.0,0.0,8.76626,85.42801,0.0,9.71,-2.04,0.42,2.0
1758074654.96991,1758074654.72373,0.0,0.0,0.0,10.02676,90.12627,-1.43239,9.71,-2.04,0.42,2.0
1758074654.98478,1758074654.73373,0.0,0.0,0.0,11.74564,94.65263,-1.71887,9.53,-2.19,0.61,2.0
1758074654.98994,1758074654.74373,0.0,0.0,0.0,13.86558,97.05905,-0.51566,9.53,-2.19,0.61,2.0
1758074655.00503,1758074654.75373,0.0,0.0,0.0,17.81899,97.8039,3.03668,9.18,-2.35,0.72,2.0
1758074655.00637,1758074654.76373,0.0,0.0,0.0,20.85567,96.94446,5.78687,9.18,-2.35,0.72,2.0
1758074655.02374,1758074654.77373,0.0,0.0,0.0,23.0902,95.62666,7.84952,9.02,-2.42,0.54,2.0
1758074655.02522,1758074654.78373,0.0,0.0,0.0,24.57989,94.70992,8.88085,9.02,-2.42,0.54,2.0
1758074655.03979,1758074654.79373,0.0,0.0,0.0,25.38203,92.3035,7.39116,8.88,-2.36,0.55,2.0
1758074655.05578,1758074654.80373,0.0,0.0,0.0,24.98096,87.89172,5.15662,8.34,-2.2,0.96,2.0
1758074655.05694,1758074654.81373,0.0,0.0,0.0,24.35071,81.07353,1.83346,8.34,-2.2,0.96,2.0
1758074655.07208,1758074654.82373,0.0,0.0,0.0,23.83505,69.04142,-3.32316,7.98,-2.08,1.39,2.0
1758074655.07538,1758074654.83373,0.0,0.0,0.0,24.75178,62.85347,-5.84417,7.98,-2.08,1.39,2.0
1758074655.09104,1758074654.84373,0.0,0.0,0.0,27.1582,60.50434,-6.53172,8.8,-2.14,1.43,2.0
1758074655.09228,1758074654.85373,0.0,0.0,0.0,30.76784,64.45775,-7.10468,8.8,-2.14,1.43,2.0
1758074655.10991,1758074654.86373,0.0,0.0,0.0,37.92981,69.15601,-6.41713,9.95,-2.41,1.06,2.0
1758074655.12591,1758074654.87373,0.0,0.0,0.0,43.60209,68.58305,-5.55769,9.29,-2.83,1.45,2.0
1758074655.13024,1758074654.88373,0.0,0.0,0.0,49.50356,65.66096,-4.1253,9.29,-2.83,1.45,2.0
1758074655.14589,1758074654.89373,0.0,0.0,0.0,55.11855,60.96271,-2.06265,8.54,-2.96,1.52,2.0
1758074655.14975,1758074654.90373,0.0,0.0,0.0,62.5097,52.71212,2.00535,8.54,-2.96,1.52,2.0
1758074655.16515,1758074654.91373,0.0,0.0,0.0,66.34852,45.03448,4.35448,8.3,-2.83,0.93,2.0
1758074655.16632,1758074654.92373,0.0,0.0,0.0,70.41652,30.13758,5.61499,8.3,-2.83,0.93,2.0
1758074655.18491,1758074654.93373,0.0,0.0,0.0,72.19269,8.65166,4.87014,7.2,-2.25,0.71,2.0
1758074655.18655,1758074654.94373,0.0,0.0,0.0,73.16672,0.17189,-0.97403,8.32,-1.49,-0.62,2.0
1758074655.20115,1758074654.95373,0.0,0.0,0.0,75.80232,11.45916,0.97403,8.32,-1.49,-0.62,2.0
1758074655.20216,1758074654.96373,0.0,0.0,0.0,76.77635,21.14215,-0.0573,11.02,-1.1,0.23,2.0
1758074655.21993,1758074654.97373,0.0,0.0,0.0,74.94289,28.36141,-2.7502,11.02,-1.1,0.23,2.0
1758074655.23617,1758074654.98373,0.0,0.0,0.0,74.36993,17.24603,-9.4538,9.23,-0.76,2.55,2.0
1758074655.24028,1758074654.99373,0.0,0.0,0.0,70.87489,-18.50654,-11.63104,9.23,-0.76,2.55,2.0
1758074655.26017,1758074655.00373,0.0,0.0,0.0,71.21866,-39.64868,-9.05273,6.49,-0.48,0.94,2.0
1758074655.26113,1758074655.01373,0.0,0.0,0.0,72.53646,-42.51347,-8.70896,6.49,-0.48,0.94,2.0
1758074655.27699,1758074655.02373,0.0,0.0,0.0,75.91692,-42.85724,-7.84952,10.04,-0.78,-0.56,2.0
1758074655.27835,1758074655.03373,0.0,0.0,0.0,77.17742,-37.64333,-7.33386,10.03,-0.84,-0.52,2.0
1758074655.29297,1758074655.04373,0.0,0.0,0.0,76.83365,-36.49741,-8.76626,10.03,-0.84,-0.52,2.0
1758074655.29468,1758074655.05373,0.0,0.0,0.0,74.36993,-56.20716,-10.8862,9.24,-0.27,4.49,2.0
1758074655.30993,1758074655.06373,0.0,0.0,0.0,68.35387,-75.40125,-9.4538,9.24,-0.27,4.49,2.0
1758074655.32995,1758074655.07373,0.0,0.0,0.0,57.18119,-82.7924,-5.72958,11.66,2.12,8.3,2.0
1758074655.33512,1758074655.08373,0.0,0.0,0.0,41.08107,-80.1568,-1.94806,11.66,2.12,8.3,2.0
1758074655.33607,1758074655.09373,0.0,0.0,0.0,12.49048,-69.3279,-0.34377,17.47,5.35,10.07,2.0
1758074655.35229,1758074655.10373,0.0,0.0,0.0,-6.7609,-60.79083,0.0573,17.14,5.1,7.19,2.0
1758074655.35516,1758074655.11373,0.0,0.0,0.0,-21.42862,-51.90998,-0.57296,17.14,5.1,7.19,2.0
1758074655.3701,1758074655.12373,0.0,0.0,0.0,-29.9084,-45.09178,-3.09397,12.94,0.29,5.42,2.0
1758074655.38608,1758074655.13373,0.0,0.0,0.0,-33.68992,-37.52874,-9.33921,12.94,0.29,5.42,2.0
1758074655.38883,1758074655.14373,0.0,0.0,0.0,-31.97105,-36.61201,-12.60507,8.69,-3.19,5.07,2.0
1758074655.40509,1758074655.15373,0.0,0.0,0.0,-26.35606,-28.99167,-19.53786,8.69,-3.19,5.07,2.0
1758074655.40635,1758074655.16373,0.0,0.0,0.0,-17.01685,-30.65324,-23.0902,8.25,-4.22,6.61,2.0
1758074655.42488,1758074655.17373,0.0,0.0,0.0,-1.94806,-29.50733,-27.04361,8.44,-3.87,5.28,2.0
1758074655.42802,1758074655.18373,0.0,0.0,0.0,8.70896,-27.67386,-26.64254,8.44,-3.87,5.28,2.0
1758074655.44306,1758074655.19373,0.0,0.0,0.0,18.79302,-23.31938,-23.89234,8.7,-2.41,3.39,2.0
1758074655.44431,1758074655.20373,0.0,0.0,0.0,27.38738,-15.58445,-20.74107,8.7,-2.41,3.39,2.0
1758074655.45993,1758074655.21373,0.0,0.0,0.0,35.58068,-2.7502,-16.272,8.57,-0.77,2.66,2.0
1758074655.47647,1758074655.22373,0.0,0.0,0.0,39.4768,2.6929,-12.83425,8.57,-0.77,2.66,2.0
1758074655.48533,1758074655.23373,0.0,0.0,0.0,41.71133,7.79223,-10.08406,7.92,0.5,2.89,2.0
1758074655.48944,1758074655.24373,0.0,0.0,0.0,43.25832,16.10011,-6.70361,7.92,0.5,2.89,2.0
1758074655.50515,1758074655.25373,0.0,0.0,0.0,43.54479,20.68378,-4.58366,8.24,1.03,2.98,2.0
1758074655.50905,1758074655.26373,0.0,0.0,0.0,43.14373,25.15285,-2.86479,8.79,1.05,2.77,2.0
1758074655.52445,1758074655.27373,0.0,0.0,0.0,41.48215,27.61657,-2.63561,8.79,1.05,2.77,2.0
1758074655.52536,1758074655.28373,0.0,0.0,0.0,38.21629,28.64789,-2.86479,8.92,0.96,2.87,2.0
1758074655.54043,1758074655.29373,0.0,0.0,0.0,35.3515,29.9084,-2.86479,8.92,0.96,2.87,2.0
1758074655.54219,1758074655.30373,0.0,0.0,0.0,32.08564,32.08564,-3.26586,9.14,0.84,2.83,2.0
1758074655.56037,1758074655.31373,0.0,0.0,0.0,28.87707,33.9764,-2.63561,9.14,0.84,2.83,2.0
1758074655.57653,1758074655.32373,0.0,0.0,0.0,24.4653,32.48671,-1.43239,9.17,0.8,2.75,2.0
1758074655.5785,1758074655.33373,0.0,0.0,0.0,21.88699,31.28349,0.22918,8.9,0.91,2.68,2.0
1758074655.59542,1758074655.34373,0.0,0.0,0.0,19.42327,29.33544,1.94806,8.9,0.91,2.68,2.0
1758074655.59587,1758074655.35373,0.0,0.0,0.0,17.53251,26.06958,4.18259,8.76,1.16,2.58,2.0
1758074655.61229,1758074655.36373,0.0,0.0,0.0,15.06879,21.6578,6.87549,8.76,1.16,2.58,2.0
1758074655.61513,1758074655.37373,0.0,0.0,0.0,13.80828,18.44924,8.47978,8.65,1.39,2.52,2.0
1758074655.63023,1758074655.38373,0.0,0.0,0.0,12.43318,14.49583,9.96947,8.65,1.39,2.52,2.0
1758074655.65023,1758074655.39373,0.0,0.0,0.0,10.71431,9.91217,10.65701,8.32,1.45,2.53,2.0
1758074655.65107,1758074655.40373,0.0,0.0,0.0,7.62034,-0.0573,11.74564,8.15,1.29,2.47,2.0
1758074655.66788,1758074655.41373,0.0,0.0,0.0,3.26586,-4.81285,10.8289,8.15,1.29,2.47,2.0
1758074655.66854,1758074655.42373,0.0,0.0,0.0,-2.00535,-8.59437,9.62569,8.55,1.21,2.19,2.0
1758074655.6853,1758074655.43373,0.0,0.0,0.0,-8.25059,-7.79223,6.58902,8.55,1.21,2.19,2.0
1758074655.68805,1758074655.44373,0.0,0.0,0.0,-17.24603,-2.86479,4.69825,9.16,1.39,1.98,2.0
1758074655.70354,1758074655.45373,0.0,0.0,0.0,-23.26209,0.85944,3.83882,9.16,1.39,1.98,2.0
1758074655.70446,1758074655.46373,0.0,0.0,0.0,-28.64789,1.60428,2.6929,9.12,1.51,2.22,2.0
1758074655.71968,1758074655.47373,0.0,0.0,0.0,-35.92446,0.97403,2.23454,9.12,1.51,2.22,2.0
1758074655.73548,1758074655.48373,0.0,0.0,0.0,-40.50812,-0.68755,1.83346,8.76,1.44,2.31,2.0
1758074655.73586,1758074655.49373,0.0,0.0,0.0,-43.60209,-6.13065,2.46372,8.41,1.32,2.02,2.0
1758074655.75339,1758074655.50373,0.0,0.0,0.0,-45.72203,-16.10011,3.60963,8.41,1.32,2.02,2.0
1758074655.7551,1758074655.51373,0.0,0.0,0.0,-46.69606,-28.76248,6.58902,7.98,0.91,1.51,2.0
1758074655.77032,1758074655.52373,0.0,0.0,0.0,-46.40959,-36.7266,8.36518,7.98,0.91,1.51,2.0
1758074655.77256,1758074655.53373,0.0,0.0,0.0,-46.2377,-37.47144,11.74564,8.57,0.5,0.95,2.0
1758074655.78995,1758074655.54373,0.0,0.0,0.0,-46.98254,-9.39651,11.57375,8.57,0.5,0.95,2.0
1758074655.79115,1758074655.55373,0.0,0.0,0.0,-44.57612,18.85031,15.58445,12.07,0.34,1.86,2.0
1758074655.8096,1758074655.56373,0.0,0.0,0.0,-48.24305,-8.93814,10.48513,7.68,0.35,3.48,2.0
1758074655.81089,1758074655.57373,0.0,0.0,0.0,-51.22243,-23.60586,5.50039,7.68,0.35,3.48,2.0
1758074655.82595,1758074655.58373,0.0,0.0,0.0,-52.13916,-34.72124,1.66158,7.94,0.72,2.04,2.0
1758074655.84549,1758074655.59373,0.0,0.0,0.0,-50.13381,-35.00772,-0.74485,7.94,0.72,2.04,2.0
1758074655.84637,1758074655.60373,0.0,0.0,0.0,-48.9879,-30.53865,-0.0573,9.72,0.64,0.23,2.0
1758074655.86468,1758074655.61373,0.0,0.0,0.0,-48.9879,-26.69983,0.45837,9.72,0.64,0.23,2.0
1758074655.86564,1758074655.62373,0.0,0.0,0.0,-48.64412,-20.79837,2.34913,9.76,0.1,1.48,2.0
1758074655.88072,1758074655.63373,0.0,0.0,0.0,-46.75336,-9.96947,6.70361,9.81,-0.29,1.91,2.0
1758074655.88487,1758074655.64373,0.0,0.0,0.0,-45.37826,-7.79223,9.68299,9.81,-0.29,1.91,2.0
1758074655.90068,1758074655.65373,0.0,0.0,0.0,-43.83128,-9.5684,12.14671,8.99,-0.8,2.03,2.0
1758074655.90593,1758074655.66373,0.0,0.0,0.0,-40.85189,-12.77696,15.0115,8.99,-0.8,2.03,2.0
1758074655.92068,1758074655.67373,0.0,0.0,0.0,-38.50277,-19.88164,15.87093,9.01,-1.18,1.57,2.0
1758074655.92562,1758074655.68373,0.0,0.0,0.0,-35.98175,-24.4653,15.41257,9.01,-1.18,1.57,2.0
1758074655.94045,1758074655.69373,0.0,0.0,0.0,-33.68992,-26.98631,14.20935,9.3,-1.16,1.49,2.0
1758074655.94573,1758074655.70373,0.0,0.0,0.0,-30.99702,-27.44468,11.57375,9.3,-1.16,1.49,2.0
1758074655.96048,1758074655.71373,0.0,0.0,0.0,-29.67921,-24.4653,9.91217,9.91,-0.84,1.86,2.0
1758074655.96568,1758074655.72373,0.0,0.0,0.0,-28.59059,-19.70975,8.65166,10.62,-0.64,2.33,2.0
1758074655.98506,1758074655.73373,0.0,0.0,0.0,-27.44468,-13.80828,7.73493,10.62,-0.64,2.33,2.0
1758074655.98983,1758074655.74373,0.0,0.0,0.0,-26.87172,-7.10468,6.7609,10.82,-0.58,2.72,2.0
1758074656.00544,1758074655.75373,0.0,0.0,0.0,-27.1582,-3.38045,5.90147,10.82,-0.58,2.72,2.0
1758074656.0089,1758074655.76373,0.0,0.0,0.0,-27.67386,1.14592,5.09932,10.69,-0.33,2.36,2.0
1758074656.02563,1758074655.77373,0.0,0.0,0.0,-27.73116,6.8182,4.18259,10.69,-0.33,2.36,2.0
1758074656.02889,1758074655.78373,0.0,0.0,0.0,-26.52795,12.89155,2.7502,10.91,-0.04,1.8,2.0
1758074656.0446,1758074655.79373,0.0,0.0,0.0,-26.35606,13.34992,1.94806,10.43,0.13,1.85,2.0
1758074656.04575,1758074655.80373,0.0,0.0,0.0,-26.64254,12.83425,1.14592,10.43,0.13,1.85,2.0
1758074656.06257,1758074655.81373,0.0,0.0,0.0,-27.73116,13.46451,0.68755,10.1,0.17,1.17,2.0
1758074656.06407,1758074655.82373,0.0,0.0,0.0,-30.76784,13.98017,0.97403,10.1,0.17,1.17,2.0
1758074656.07965,1758074655.83373,0.0,0.0,0.0,-33.74722,11.80293,1.43239,9.74,0.2,0.74,2.0
1758074656.08058,1758074655.84373,0.0,0.0,0.0,-37.29956,8.65166,2.7502,9.74,0.2,0.74,2.0
1758074656.09969,1758074655.85373,0.0,0.0,0.0,-40.68,3.83882,6.53172,9.17,0.35,0.62,2.0
1758074656.10086,1758074655.86373,0.0,0.0,0.0,-45.83662,-10.02676,9.05273,9.04,0.47,1.13,2.0
1758074656.11985,1758074655.87373,0.0,0.0,0.0,-49.21708,-21.25674,10.8289,9.04,0.47,1.13,2.0
1758074656.12107,1758074655.88373,0.0,0.0,0.0,-52.71212,-31.16891,12.2613,9.93,0.36,1.77,2.0
1758074656.13988,1758074655.89373,0.0,0.0,0.0,-56.14987,-49.50356,12.08941,9.93,0.36,1.77,2.0
1758074656.14083,1758074655.90373,0.0,0.0,0.0,-55.7488,-59.53032,8.70896,11.58,-0.72,3.23,2.0
1758074656.15689,1758074655.91373,0.0,0.0,0.0,-52.19646,-63.54102,3.60963,11.58,-0.72,3.23,2.0
1758074656.16348,1758074655.92373,0.0,0.0,0.0,-46.52417,-65.54638,-1.48969,15.8,-3.16,5.48,2.0
1758074656.17965,1758074655.93373,0.0,0.0,0.0,-37.47144,-75.80232,-6.18794,15.8,-3.16,5.63,2.0
1758074656.18097,1758074655.94373,0.0,0.0,0.0,-32.88778,-86.74582,-5.95876,15.62,-4.7,5.63,2.0
1758074656.20072,1758074655.95373,0.0,0.0,0.0,-30.13758,-94.82452,-4.23989,11.18,-3.08,2.76,2.0
1758074656.20502,1758074655.96373,0.0,0.0,0.0,-25.72581,-90.12627,-4.64096,11.18,-3.08,2.76,2.0
1758074656.22073,1758074655.97373,0.0,0.0,0.0,-24.80907,-95.34019,0.0,7.16,-0.92,-0.43,2.0
1758074656.22989,1758074655.98373,0.0,0.0,0.0,-24.75178,-90.18356,0.85944,7.16,-0.92,-0.43,2.0
1758074656.24503,1758074655.99373,0.0,0.0,0.0,-26.12688,-81.93298,0.57296,5.42,-0.58,1.52,2.0
1758074656.2486,1758074656.00373,0.0,0.0,0.0,-26.69983,-73.10942,1.43239,5.42,-0.58,1.52,2.0
1758074656.26393,1758074656.01373,0.0,0.0,0.0,-29.96569,-53.34238,1.3178,6.19,-1.16,3.1,2.0
1758074656.26489,1758074656.02373,0.0,0.0,0.0,-32.6013,-37.75792,2.23454,10.03,-2.51,4.8,2.0
1758074656.28004,1758074656.03373,0.0,0.0,0.0,-34.37747,-21.7151,2.86479,10.03,-2.51,4.8,2.0
1758074656.2844,1758074656.04373,0.0,0.0,0.0,-34.43476,-2.6929,4.81285,12.66,-3.43,1.66,2.0
1758074656.3,1758074656.05373,0.0,0.0,0.0,-33.05967,30.99702,7.10468,12.66,-3.43,1.66,2.0
1758074656.30115,1758074656.06373,0.0,0.0,0.0,-28.13223,46.40959,8.88085,14.32,-3.66,-0.39,2.0
1758074656.32019,1758074656.07373,0.0,0.0,0.0,-22.23076,56.66553,10.31324,14.32,-3.66,-0.39,2.0
1758074656.32138,1758074656.08373,0.0,0.0,0.0,-14.32395,67.43713,10.65701,12.35,-2.88,-1.79,2.0
1758074656.34545,1758074656.09373,0.0,0.0,0.0,-10.48513,83.47996,8.76626,11.15,-2.31,-1.28,2.0
1758074656.3501,1758074656.10373,0.0,0.0,0.0,-6.87549,89.43871,7.79223,11.15,-2.31,-1.28,2.0
1758074656.35246,1758074656.11373,0.0,0.0,0.0,-3.95341,95.97043,6.47442,9.74,-2.32,-0.23,2.0
1758074656.37081,1758074656.12373,0.0,0.0,0.0,0.40107,101.92919,6.41713,9.74,-2.32,-0.23,2.0
1758074656.37279,1758074656.13373,0.0,0.0,0.0,3.03668,103.93455,6.87549,8.93,-2.53,0.56,2.0
1758074656.38968,1758074656.14373,0.0,0.0,0.0,5.27121,102.55945,7.44845,8.93,-2.53,0.56,2.0
1758074656.41061,1758074656.15373,0.0,0.0,0.0,7.33386,98.94981,7.79223,8.3,-2.64,1.13,2.0
1758074656.4159,1758074656.16373,0.0,0.0,0.0,9.74028,93.33482,7.96411,8.46,-2.44,1.04,2.0
1758074656.41975,1758074656.17373,0.0,0.0,0.0,10.94349,91.78784,7.62034,8.46,-2.44,1.04,2.0
1758074656.43482,1758074656.18373,0.0,0.0,0.0,11.91752,91.15759,6.8182,9.0,-2.12,0.58,2.0
1758074656.43948,1758074656.19373,0.0,0.0,0.0,12.60507,89.15224,5.32851,9.0,-2.12,0.58,2.0
1758074656.45486,1758074656.20373,0.0,0.0,0.0,13.75099,83.13618,2.23454,8.63,-1.9,0.76,2.0
1758074656.45606,1758074656.21373,0.0,0.0,0.0,15.41257,78.7244,0.11459,8.63,-1.9,0.76,2.0
1758074656.47468,1758074656.22373,0.0,0.0,0.0,18.16276,73.62508,-1.03132,8.42,-1.91,1.28,2.0
1758074656.47562,1758074656.23373,0.0,0.0,0.0,22.40265,69.49979,-1.03132,8.42,-1.91,1.28,2.0
1758074656.49114,1758074656.24373,0.0,0.0,0.0,30.25217,69.78626,-0.45837,8.59,-2.37,1.28,2.0
1758074656.4929,1758074656.25373,0.0,0.0,0.0,36.26823,71.39055,0.22918,9.08,-3.18,1.21,2.0
1758074656.50817,1758074656.26373,0.0,0.0,0.0,42.85724,70.53111,1.08862,9.08,-3.18,1.21,2.0
1758074656.52499,1758074656.27373,0.0,0.0,0.0,49.61814,67.09336,2.86479,8.77,-3.86,1.55,2.0
1758074656.52592,1758074656.28373,0.0,0.0,0.0,60.10328,57.23849,4.23989,8.77,-3.86,1.55,2.0
1758074656.54401,1758074656.29373,0.0,0.0,0.0,66.69229,48.35764,5.61499,8.31,-4.05,1.2,2.0
1758074656.54992,1758074656.30373,0.0,0.0,0.0,72.30728,35.69527,6.8182,8.31,-4.05,1.2,2.0
1758074656.56524,1758074656.31373,0.0,0.0,0.0,76.66176,8.136,5.78687,7.41,-3.66,0.87,2.0
1758074656.56644,1758074656.32373,0.0,0.0,0.0,78.55252,4.64096,1.71887,7.79,-2.74,0.18,2.0
1758074656.5853,1758074656.33373,0.0,0.0,0.0,83.42266,9.5684,0.22918,7.79,-2.74,0.18,2.0
1758074656.58967,1758074656.34373,0.0,0.0,0.0,87.94903,7.44845,1.14592,9.5,-1.88,0.33,2.0
1758074656.60503,1758074656.35373,0.0,0.0,0.0,91.55866,15.92823,-3.60963,9.5,-1.88,0.33,2.0
1758074656.60943,1758074656.36373,0.0,0.0,0.0,88.57928,17.36062,-6.7609,9.7,-1.49,1.63,2.0
1758074656.62529,1758074656.37373,0.0,0.0,0.0,86.00097,-12.43318,-12.49048,9.7,-1.49,1.63,2.0
1758074656.62944,1758074656.38373,0.0,0.0,0.0,89.6106,-50.13381,-6.8182,6.7,-1.07,2.89,2.0
1758074656.64528,1758074656.39373,0.0,0.0,0.0,89.20953,-60.04598,-1.3178,9.89,-1.25,-0.61,2.0
1758074656.64812,1758074656.40373,0.0,0.0,0.0,90.18356,-59.41573,0.85944,9.89,-1.25,-0.61,2.0
1758074656.66485,1758074656.41373,0.0,0.0,0.0,90.24085,-52.82671,2.23454,10.79,-1.34,-0.06,2.0
1758074656.66836,1758074656.42373,0.0,0.0,0.0,89.20953,-46.46688,2.34913,10.79,-1.34,-0.06,2.0
1758074656.68531,1758074656.43373,0.0,0.0,0.0,82.16215,-55.40502,-1.43239,10.15,-0.47,3.3,2.0
1758074656.69374,1758074656.44373,0.0,0.0,0.0,73.73967,-64.22858,-5.15662,10.15,-0.47,3.3,2.0
1758074656.69595,1758074656.45373,0.0,0.0,0.0,61.42108,-71.44785,-7.39116,11.42,2.23,7.48,2.0
1758074656.71538,1758074656.46373,0.0,0.0,0.0,48.30034,-72.65105,-8.99544,11.42,2.23,7.48,2.0
1758074656.72059,1758074656.47373,0.0,0.0,0.0,24.35071,-66.34852,-10.94349,15.26,5.33,8.06,2.0
1758074656.73517,1758074656.48373,0.0,0.0,0.0,8.136,-60.27517,-10.71431,16.36,5.87,6.08,2.0
1758074656.73981,1758074656.49373,0.0,0.0,0.0,-4.98473,-55.29043,-10.08406,16.36,5.87,6.08,2.0
1758074656.75543,1758074656.50373,0.0,0.0,0.0,-13.80828,-53.34238,-10.48513,12.74,1.55,4.58,2.0
1758074656.75793,1758074656.51373,0.0,0.0,0.0,-14.9542,-51.39432,-12.37589,12.74,1.55,4.58,2.0
1758074656.77341,1758074656.52373,0.0,0.0,0.0,-13.12073,-47.67009,-14.83961,8.53,-2.87,5.33,2.0
1758074656.77512,1758074656.53373,0.0,0.0,0.0,-8.88085,-42.57077,-17.58981,8.53,-2.87,5.33,2.0
1758074656.7901,1758074656.54373,0.0,0.0,0.0,0.45837,-34.77854,-22.51724,8.25,-3.72,5.69,2.0
1758074656.79216,1758074656.55373,0.0,0.0,0.0,8.25059,-31.11161,-25.15285,9.35,-3.08,5.8,2.0
1758074656.81018,1758074656.56373,0.0,0.0,0.0,16.84496,-24.80907,-26.01229,9.35,-3.08,5.8,2.0
1758074656.81246,1758074656.57373,0.0,0.0,0.0,25.38203,-17.53251,-24.98096,9.87,-1.5,3.43,2.0
1758074656.82846,1758074656.58373,0.0,0.0,0.0,36.61201,-5.78687,-21.02755,9.87,-1.5,3.43,2.0
1758074656.84536,1758074656.59373,0.0,0.0,0.0,42.28429,2.6929,-17.36062,9.42,0.08,2.37,2.0
1758074656.84876,1758074656.60373,0.0,0.0,0.0,46.35228,11.22997,-12.83425,9.42,0.08,2.37,2.0
1758074656.86537,1758074656.61373,0.0,0.0,0.0,48.52953,19.76705,-8.93814,9.05,1.08,2.64,2.0
1758074656.86636,1758074656.62373,0.0,0.0,0.0,50.1911,30.30947,-3.95341,8.42,1.3,2.59,2.0
1758074656.88322,1758074656.63373,0.0,0.0,0.0,50.47758,33.68992,-1.48969,8.42,1.3,2.59,2.0
1758074656.88439,1758074656.64373,0.0,0.0,0.0,50.01921,32.77319,-0.0573,7.8,1.28,2.54,2.0
1758074656.90027,1758074656.65373,0.0,0.0,0.0,49.15978,29.67921,1.03132,7.8,1.28,2.54,2.0
1758074656.90524,1758074656.66373,0.0,0.0,0.0,45.72203,26.69983,0.40107,8.24,1.3,2.34,2.0
1758074656.92379,1758074656.67373,0.0,0.0,0.0,42.1124,25.55392,-0.51566,8.24,1.3,2.34,2.0
1758074656.92827,1758074656.68373,0.0,0.0,0.0,37.75792,24.29341,-1.60428,8.91,1.42,2.13,2.0
1758074656.94339,1758074656.69373,0.0,0.0,0.0,32.25753,23.66316,-2.86479,8.91,1.42,2.13,2.0
1758074656.94437,1758074656.70373,0.0,0.0,0.0,23.83505,21.60051,-3.55234,8.94,1.51,2.37,2.0
1758074656.95934,1758074656.71373,0.0,0.0,0.0,18.79302,18.56383,-3.55234,8.62,1.45,2.45,2.0
1758074656.97553,1758074656.72373,0.0,0.0,0.0,14.20935,15.98552,-2.06265,8.62,1.45,2.45,2.0
1758074656.97833,1758074656.73373,0.0,0.0,0.0,8.93814,13.46451,-0.45837,8.73,1.37,2.5,2.0
1758074656.99515,1758074656.74373,0.0,0.0,0.0,5.95876,11.63104,0.80214,8.73,1.37,2.5,2.0
1758074656.99608,1758074656.75373,0.0,0.0,0.0,4.18259,10.37054,2.29183,8.68,1.36,2.38,2.0
1758074657.01237,1758074656.76373,0.0,0.0,0.0,2.92208,9.11003,4.18259,8.68,1.36,2.38,2.0
1758074657.0137,1758074656.77373,0.0,0.0,0.0,1.94806,2.7502,7.33386,8.7,1.33,2.48,2.0
1758074657.02855,1758074656.78373,0.0,0.0,0.0,0.80214,-2.86479,8.70896,8.46,1.18,2.36,2.0
1758074657.04454,1758074656.79373,0.0,0.0,0.0,-0.80214,-7.79223,9.96947,8.46,1.18,2.36,2.0
1758074657.0455,1758074656.80373,0.0,0.0,0.0,-3.72423,-9.22462,9.4538,8.85,1.08,2.09,2.0
1758074657.06057,1758074656.81373,0.0,0.0,0.0,-9.22462,-6.8182,8.30789,8.85,1.08,2.09,2.0
1758074657.06566,1758074656.82373,0.0,0.0,0.0,-13.23533,-3.49504,6.87549,9.23,1.22,1.82,2.0
1758074657.08455,1758074656.83373,0.0,0.0,0.0,-17.47521,-1.77617,6.18794,9.23,1.22,1.82,2.0
1758074657.08548,1758074656.84373,0.0,0.0,0.0,-22.00158,-2.06265,5.72958,8.94,1.38,2.19,2.0
1758074657.10057,1758074656.85373,0.0,0.0,0.0,-29.8511,-3.26586,4.87014,8.61,1.4,2.14,2.0
1758074657.10497,1758074656.86373,0.0,0.0,0.0,-34.37747,-5.72958,4.87014,8.61,1.4,2.14,2.0
1758074657.1206,1758074656.87373,0.0,0.0,0.0,-37.98711,-12.08941,4.92744,8.32,1.38,1.68,2.0
1758074657.12581,1758074656.88373,0.0,0.0,0.0,-40.50812,-20.62648,5.95876,8.32,1.38,1.68,2.0
1758074657.1455,1758074656.89373,0.0,0.0,0.0,-41.25296,-30.19488,8.88085,8.32,1.15,1.33,2.0
1758074657.15061,1758074656.90373,0.0,0.0,0.0,-41.42485,-33.9764,10.48513,8.32,1.15,1.33,2.0
1758074657.16539,1758074656.91373,0.0,0.0,0.0,-41.71133,-32.71589,13.98017,9.16,0.91,0.82,2.0
1758074657.16982,1758074656.92373,0.0,0.0,0.0,-42.68536,-6.47442,14.61043,9.16,0.91,0.82,2.0
1758074657.1857,1758074656.93373,0.0,0.0,0.0,-44.40423,-7.10468,13.69369,11.82,0.86,1.75,2.0
1758074657.18851,1758074656.94373,0.0,0.0,0.0,-48.35764,-19.19409,9.74028,7.51,0.86,3.1,2.0
1758074657.20553,1758074656.95373,0.0,0.0,0.0,-50.64947,-25.72581,5.21392,7.51,0.86,3.1,2.0
1758074657.20911,1758074656.96373,0.0,0.0,0.0,-51.45161,-25.72581,2.11994,9.02,1.08,1.79,2.0
1758074657.22557,1758074656.97373,0.0,0.0,0.0,-50.82136,-25.89769,2.11994,9.02,1.08,1.79,2.0
1758074657.23036,1758074656.98373,0.0,0.0,0.0,-50.59217,-23.83505,2.46372,9.32,0.95,0.1,2.0
1758074657.24572,1758074656.99373,0.0,0.0,0.0,-49.90463,-17.87628,3.72423,9.32,0.95,0.1,2.0
1758074657.24982,1758074657.00373,0.0,0.0,0.0,-47.67009,-12.2613,7.44845,9.91,0.47,1.09,2.0
1758074657.2655,1758074657.01373,0.0,0.0,0.0,-45.72203,-11.28727,9.96947,9.45,-0.09,1.62,2.0
1758074657.27001,1758074657.02373,0.0,0.0,0.0,-43.37291,-12.2613,12.43318,9.45,-0.09,1.62,2.0
1758074657.28568,1758074657.03373,0.0,0.0,0.0,-40.96649,-14.9542,14.43854,9.29,-0.61,1.87,2.0
1758074657.28852,1758074657.04373,0.0,0.0,0.0,-37.12767,-19.42327,16.38659,9.29,-0.61,1.87,2.0
1758074657.30531,1758074657.05373,0.0,0.0,0.0,-34.72124,-21.88699,17.24603,9.51,-0.95,1.25,2.0
1758074657.30947,1758074657.06373,0.0,0.0,0.0,-32.83048,-24.35071,17.36062,9.51,-0.95,1.25,2.0
1758074657.3245,1758074657.07373,0.0,0.0,0.0,-31.45539,-25.72581,16.84496,9.67,-1.13,1.18,2.0
1758074657.3257,1758074657.08373,0.0,0.0,0.0,-30.59595,-24.57989,16.04282,9.84,-0.96,1.19,2.0
1758074657.34436,1758074657.09373,0.0,0.0,0.0,-30.99702,-22.68913,15.35527,9.84,-0.96,1.19,2.0
1758074657.34641,1758074657.10373,0.0,0.0,0.0,-32.08564,-20.3973,15.06879,10.05,-0.44,1.45,2.0
1758074657.36336,1758074657.11373,0.0,0.0,0.0,-33.51803,-17.6471,14.83961,10.05,-0.44,1.45,2.0
1758074657.3659,1758074657.12373,0.0,0.0,0.0,-36.61201,-14.03747,14.43854,10.26,0.14,1.6,2.0
1758074657.38159,1758074657.13373,0.0,0.0,0.0,-38.44547,-10.37054,13.40721,10.26,0.14,1.6,2.0
1758074657.38301,1758074657.14373,0.0,0.0,0.0,-39.82057,-4.87014,12.14671,10.64,0.56,1.61,2.0
1758074657.3978,1758074657.15373,0.0,0.0,0.0,-41.48215,3.83882,10.31324,10.64,0.56,1.61,2.0
1758074657.41482,1758074657.16373,0.0,0.0,0.0,-42.68536,9.33921,9.28192,10.85,0.75,1.5,2.0
1758074657.41601,1758074657.17373,0.0,0.0,0.0,-43.65939,14.03747,8.65166,10.52,0.7,1.03,2.0
1758074657.43086,1758074657.18373,0.0,0.0,0.0,-44.9199,16.67307,8.65166,10.52,0.7,1.03,2.0
1758074657.43255,1758074657.19373,0.0,0.0,0.0,-47.03984,18.27736,9.62569,10.02,0.52,0.54,2.0
1758074657.44987,1758074657.20373,0.0,0.0,0.0,-48.01387,18.10547,11.63104,10.02,0.52,0.54,2.0
1758074657.46561,1758074657.21373,0.0,0.0,0.0,-48.8733,12.37589,13.98017,10.02,0.11,0.35,2.0
1758074657.4692,1758074657.22373,0.0,0.0,0.0,-49.61814,2.86479,15.69904,10.02,0.11,0.35,2.0
1758074657.48463,1758074657.23373,0.0,0.0,0.0,-51.16513,-12.83425,16.61578,9.83,-0.34,1.07,2.0
1758074657.48581,1758074657.24373,0.0,0.0,0.0,-52.25375,-22.05888,15.41257,11.39,-0.81,2.06,2.0
1758074657.501,1758074657.25373,0.0,0.0,0.0,-52.48294,-28.99167,12.204,11.39,-0.81,2.06,2.0
1758074657.50578,1758074657.26373,0.0,0.0,0.0,-49.84733,-30.02299,7.79223,14.81,-2.04,3.89,2.0
1758074657.52097,1758074657.27373,0.0,0.0,0.0,-42.39888,-36.15364,0.74485,14.81,-2.04,3.89,2.0
1758074657.52261,1758074657.28373,0.0,0.0,0.0,-37.24226,-45.49285,-2.23454,16.45,-3.83,5.54,2.0
1758074657.53997,1758074657.29373,0.0,0.0,0.0,-33.00237,-59.64491,-2.46372,16.45,-3.83,5.54,2.0
1758074657.55587,1758074657.30373,0.0,0.0,0.0,-31.28349,-73.51049,0.0,13.33,-3.29,4.07,2.0
1758074657.56006,1758074657.31373,0.0,0.0,0.0,-30.65324,-89.03764,6.70361,9.58,-0.9,1.54,2.0
1758074657.57595,1758074657.32373,0.0,0.0,0.0,-30.30947,-93.27753,10.59972,9.58,-0.9,1.54,2.0
1758074657.58003,1758074657.33373,0.0,0.0,0.0,-30.93972,-91.50137,13.00614,7.06,0.03,0.84,2.0
1758074657.59596,1758074657.34373,0.0,0.0,0.0,-34.89313,-78.7244,9.5684,7.06,0.03,0.84,2.0
1758074657.59963,1758074657.35373,0.0,0.0,0.0,-35.98175,-81.5892,11.28727,4.84,0.06,1.39,2.0
1758074657.61477,1758074657.36373,0.0,0.0,0.0,-38.84654,-70.58841,8.59437,4.84,0.06,1.39,2.0
1758074657.61621,1758074657.37373,0.0,0.0,0.0,-42.1124,-57.12389,6.35983,6.54,-0.73,4.5,2.0
1758074657.63068,1758074657.38373,0.0,0.0,0.0,-44.23235,-35.12231,3.55234,6.54,-0.73,4.5,2.0
1758074657.63269,1758074657.39373,0.0,0.0,0.0,-44.40423,-16.272,2.23454,10.07,-2.29,3.43,2.0
1758074657.64991,1758074657.40373,0.0,0.0,0.0,-42.97184,2.97938,2.06265,13.06,-4.04,1.84,2.0
1758074657.66604,1758074657.41373,0.0,0.0,0.0,-39.99245,22.40265,3.49504,13.06,-4.04,1.84,2.0
1758074657.67016,1758074657.42373,0.0,0.0,0.0,-31.74186,50.3057,6.13065,13.37,-4.81,-0.92,2.0
1758074657.68592,1758074657.43373,0.0,0.0,0.0,-24.80907,58.90006,6.18794,13.37,-4.81,-0.92,2.0
1758074657.68887,1758074657.44373,0.0,0.0,0.0,-18.27736,66.29122,4.29718,11.09,-4.35,-1.1,2.0
1758074657.70403,1758074657.45373,0.0,0.0,0.0,-11.74564,72.13539,3.49504,11.09,-4.35,-1.1,2.0
1758074657.70525,1758074657.46373,0.0,0.0,0.0,-5.78687,79.46925,1.43239,9.96,-3.39,-0.76,2.0
1758074657.72005,1758074657.47373,0.0,0.0,0.0,-2.46372,81.5319,0.0573,9.34,-2.42,0.05,2.0
1758074657.73603,1758074657.48373,0.0,0.0,0.0,0.97403,83.65184,-1.43239,9.34,-2.42,0.05,2.0
1758074657.73784,1758074657.49373,0.0,0.0,0.0,4.58366,85.31342,-1.14592,9.24,-1.86,-0.1,2.0
1758074657.75443,1758074657.50373,0.0,0.0,0.0,9.68299,92.64729,1.48969,9.24,-1.86,-0.1,2.0
1758074657.75591,1758074657.51373,0.0,0.0,0.0,12.77696,95.39748,3.83882,9.76,-1.88,0.25,2.0
1758074657.77442,1758074657.52373,0.0,0.0,0.0,15.12609,94.19427,5.95876,9.76,-1.88,0.25,2.0
1758074657.77805,1758074657.53373,0.0,0.0,0.0,16.67307,91.44406,8.25059,8.78,-2.12,0.74,2.0
1758074657.79315,1758074657.54373,0.0,0.0,0.0,16.95955,87.31877,8.65166,8.62,-2.25,1.05,2.0
1758074657.79578,1758074657.55373,0.0,0.0,0.0,16.10011,83.93832,8.02141,8.62,-2.25,1.05,2.0
1758074657.81114,1758074657.56373,0.0,0.0,0.0,14.61043,79.69843,6.47442,8.7,-2.26,0.89,2.0
1758074657.8121,1758074657.57373,0.0,0.0,0.0,11.45916,71.39055,2.00535,8.7,-2.26,0.89,2.0
1758074657.82812,1758074657.58373,0.0,0.0,0.0,10.02676,65.08801,-1.08862,8.81,-2.39,1.28,2.0
1758074657.845,1758074657.59373,0.0,0.0,0.0,10.31324,59.12925,-3.89611,8.81,-2.39,1.28,2.0
1758074657.84585,1758074657.60373,0.0,0.0,0.0,12.49048,54.94666,-5.27121,9.16,-2.49,1.5,2.0
1758074657.86394,1758074657.61373,0.0,0.0,0.0,18.90761,56.37905,-5.55769,9.16,-2.49,1.12,2.0
1758074657.86593,1758074657.62373,0.0,0.0,0.0,24.12152,59.53032,-4.87014,9.61,-2.72,1.12,2.0
1758074657.88481,1758074657.63373,0.0,0.0,0.0,29.62192,62.22322,-3.89611,9.35,-2.88,1.34,2.0
1758074657.88649,1758074657.64373,0.0,0.0,0.0,35.2942,62.85347,-2.86479,9.35,-2.88,1.34,2.0
1758074657.90168,1758074657.65373,0.0,0.0,0.0,43.60209,59.18654,-0.68755,8.57,-2.96,1.69,2.0
1758074657.90618,1758074657.66373,0.0,0.0,0.0,48.8733,54.60288,0.80214,8.57,-2.96,1.69,2.0
1758074657.92198,1758074657.67373,0.0,0.0,0.0,53.28508,48.64412,2.46372,8.17,-2.93,1.6,2.0
1758074657.9253,1758074657.68373,0.0,0.0,0.0,56.952,40.85189,3.95341,8.17,-2.93,1.6,2.0
1758074657.94443,1758074657.69373,0.0,0.0,0.0,60.33246,19.70975,4.23989,7.94,-2.73,1.54,2.0
1758074657.94533,1758074657.70373,0.0,0.0,0.0,60.96271,5.4431,2.57831,7.5,-2.35,1.11,2.0
1758074657.96412,1758074657.71373,0.0,0.0,0.0,63.48372,9.68299,-1.3178,7.5,-2.35,1.11,2.0
1758074657.96614,1758074657.72373,0.0,0.0,0.0,67.26525,16.95955,0.22918,10.16,-2.13,0.3,2.0
1758074657.9853,1758074657.73373,0.0,0.0,0.0,71.84892,30.65324,-4.18259,10.16,-2.13,0.3,2.0
1758074657.98808,1758074657.74373,0.0,0.0,0.0,72.07809,37.58603,-6.07335,9.45,-2.12,1.45,2.0
1758074658.00409,1758074657.75373,0.0,0.0,0.0,71.67702,33.40344,-12.83425,9.45,-2.12,1.45,2.0
1758074658.00524,1758074657.76373,0.0,0.0,0.0,74.31263,-6.47442,-12.71966,7.25,-1.7,2.4,2.0
1758074658.01998,1758074657.77373,0.0,0.0,0.0,75.28666,-43.31561,-8.59437,7.31,-1.37,0.27,2.0
1758074658.03635,1758074657.78373,0.0,0.0,0.0,76.20339,-48.70141,-5.15662,7.31,-1.37,0.27,2.0
1758074658.04042,1758074657.79373,0.0,0.0,0.0,76.94823,-48.8733,-3.83882,10.54,-1.38,-0.46,2.0
1758074658.0577,1758074657.80373,0.0,0.0,0.0,78.7817,-44.46153,-0.11459,10.54,-1.38,-0.46,2.0
1758074658.06046,1758074657.81373,0.0,0.0,0.0,77.29202,-40.96649,-1.66158,10.82,-1.15,0.86,2.0
1758074658.07714,1758074657.82373,0.0,0.0,0.0,71.16136,-45.77933,-0.80214,10.82,-1.15,0.86,2.0
1758074658.08001,1758074657.83373,0.0,0.0,0.0,61.36378,-50.53488,-1.48969,12.01,0.6,6.32,2.0
1758074658.09537,1758074657.84373,0.0,0.0,0.0,38.84654,-55.86338,0.22918,14.92,0.6,8.46,2.0
1758074658.09738,1758074657.85373,0.0,0.0,0.0,20.97026,-53.91533,0.57296,14.92,3.75,8.46,2.0
1758074658.11336,1758074657.86373,0.0,0.0,0.0,2.46372,-50.3057,0.51566,15.7,5.45,7.29,2.0
1758074658.1317,1758074657.87373,0.0,0.0,0.0,-13.23533,-44.23235,0.40107,15.7,5.45,7.29,2.0
1758074658.134,1758074657.88373,0.0,0.0,0.0,-29.33544,-35.75257,-3.83882,13.54,3.69,4.37,2.0
1758074658.13611,1758074657.89373,0.0,0.0,0.0,-32.25753,-33.68992,-9.11003,13.54,3.69,4.37,2.0
1758074658.15195,1758074657.90373,0.0,0.0,0.0,-31.39809,-33.80451,-14.83961,9.5,-0.75,3.82,2.0
1758074658.15342,1758074657.91373,0.0,0.0,0.0,-27.67386,-35.00772,-20.62648,9.5,-0.75,3.82,2.0
1758074658.16943,1758074657.92373,0.0,0.0,0.0,-16.90226,-37.58603,-28.30412,7.21,-3.38,5.77,2.0
1758074658.18541,1758074657.93373,0.0,0.0,0.0,-6.8182,-39.82057,-31.28349,7.6,-4.73,6.26,2.0
1758074658.18583,1758074657.94373,0.0,0.0,0.0,4.81285,-39.82057,-31.97105,7.6,-4.73,6.26,2.0
1758074658.20523,1758074657.95373,0.0,0.0,0.0,15.98552,-35.40879,-31.39809,9.87,-4.67,4.9,2.0
1758074658.20643,1758074657.96373,0.0,0.0,0.0,28.93437,-22.00158,-26.18417,9.87,-4.67,4.9,2.0
1758074658.22414,1758074657.97373,0.0,0.0,0.0,34.66395,-12.77696,-21.60051,10.66,-2.44,3.36,2.0
1758074658.22889,1758074657.98373,0.0,0.0,0.0,38.56006,-5.15662,-16.67307,10.66,-2.44,3.36,2.0
1758074658.24442,1758074657.99373,0.0,0.0,0.0,42.34158,4.18259,-10.37054,9.41,-0.01,2.95,2.0
1758074658.24729,1758074658.00373,0.0,0.0,0.0,43.4875,8.88085,-6.8182,8.42,1.5,3.15,2.0
1758074658.26252,1758074658.01373,0.0,0.0,0.0,43.77398,13.40721,-3.95341,8.42,1.5,3.15,2.0
1758074658.2658,1758074658.02373,0.0,0.0,0.0,43.4875,18.44924,-1.94806,8.3,2.11,2.92,2.0
1758074658.28232,1758074658.03373,0.0,0.0,0.0,41.88322,26.18417,-0.57296,8.3,2.11,2.92,2.0
1758074658.28364,1758074658.04373,0.0,0.0,0.0,39.87786,29.73651,-0.97403,8.61,1.81,2.75,2.0
1758074658.29851,1758074658.05373,0.0,0.0,0.0,36.95578,29.73651,-2.34913,8.61,1.81,2.75,2.0
1758074658.303,1758074658.06373,0.0,0.0,0.0,33.40344,28.13223,-3.83882,8.44,1.19,2.93,2.0
1758074658.32392,1758074658.07373,0.0,0.0,0.0,26.98631,25.09555,-6.24524,8.51,0.74,2.98,2.0
1758074658.33001,1758074658.08373,0.0,0.0,0.0,22.11617,21.7151,-7.73493,8.51,0.74,2.98,2.0
1758074658.33038,1758074658.09373,0.0,0.0,0.0,17.36062,18.90761,-8.30789,8.66,0.79,2.64,2.0
1758074658.34594,1758074658.10373,0.0,0.0,0.0,12.60507,17.24603,-8.0787,8.66,0.79,2.64,2.0
1758074658.3505,1758074658.11373,0.0,0.0,0.0,6.47442,14.78231,-6.8182,8.88,1.17,2.6,2.0
1758074658.36581,1758074658.12373,0.0,0.0,0.0,3.26586,12.54778,-5.78687,8.88,1.17,2.6,2.0
1758074658.3706,1758074658.13373,0.0,0.0,0.0,0.85944,10.94349,-4.23989,8.59,1.47,2.66,2.0
1758074658.38588,1758074658.14373,0.0,0.0,0.0,-0.85944,8.93814,-2.6929,8.59,1.47,2.66,2.0
1758074658.4023,1758074658.15373,0.0,0.0,0.0,-2.46372,5.84417,-0.80214,8.49,1.56,2.84,2.0
1758074658.40523,1758074658.16373,0.0,0.0,0.0,-3.49504,6.24524,-0.22918,8.61,1.38,2.77,2.0
1758074658.42045,1758074658.17373,0.0,0.0,0.0,-3.89611,5.84417,0.97403,8.61,1.38,2.77,2.0
1758074658.42588,1758074658.18373,0.0,0.0,0.0,-5.21392,4.87014,2.63561,8.75,1.01,2.66,2.0
1758074658.44061,1758074658.19373,0.0,0.0,0.0,-6.99009,-0.45837,2.97938,8.75,1.01,2.66,2.0
1758074658.44508,1758074658.20373,0.0,0.0,0.0,-9.33921,-5.61499,3.60963,8.61,0.72,2.46,2.0
1758074658.46037,1758074658.21373,0.0,0.0,0.0,-12.54778,-10.94349,3.60963,8.61,0.72,2.46,2.0
1758074658.46159,1758074658.22373,0.0,0.0,0.0,-19.13679,-8.93814,3.32316,8.81,0.73,2.21,2.0
1758074658.47778,1758074658.23373,0.0,0.0,0.0,-24.12152,-4.92744,3.55234,9.47,1.08,2.02,2.0
1758074658.49441,1758074658.24373,0.0,0.0,0.0,-29.39274,-1.94806,3.26586,9.47,1.08,2.02,2.0
1758074658.49566,1758074658.25373,0.0,0.0,0.0,-34.49206,-1.60428,3.49504,8.96,1.37,2.44,2.0
1758074658.51064,1758074658.26373,0.0,0.0,0.0,-42.85724,-2.29183,3.03668,8.96,1.37,2.44,2.0
1758074658.51196,1758074658.27373,0.0,0.0,0.0,-48.41494,-3.89611,2.11994,8.6,1.45,2.47,2.0
1758074658.52958,1758074658.28373,0.0,0.0,0.0,-52.76942,-7.73493,0.97403,8.6,1.45,2.47,2.0
1758074658.53095,1758074658.29373,0.0,0.0,0.0,-55.40502,-15.35527,0.45837,8.31,1.41,1.83,2.0
1758074658.55004,1758074658.30373,0.0,0.0,0.0,-57.29578,-28.01764,0.97403,8.2,1.08,1.42,2.0
1758074658.55232,1758074658.31373,0.0,0.0,0.0,-56.78012,-33.9764,2.92208,8.2,1.08,1.42,2.0
1758074658.56976,1758074658.32373,0.0,0.0,0.0,-55.29043,-37.87251,4.18259,9.01,0.59,0.67,2.0
1758074658.57066,1758074658.33373,0.0,0.0,0.0,-53.11319,-24.00693,9.22462,9.01,0.59,0.67,2.0
1758074658.58768,1758074658.34373,0.0,0.0,0.0,-49.67545,6.13065,10.19865,12.07,0.26,1.74,2.0
1758074658.60558,1758074658.35373,0.0,0.0,0.0,-53.68615,-15.12609,4.58366,12.07,0.26,1.74,2.0
1758074658.60833,1758074658.36373,0.0,0.0,0.0,-54.77477,-23.0329,1.48969,7.23,0.23,3.24,2.0
1758074658.62532,1758074658.37373,0.0,0.0,0.0,-56.32175,-29.22085,-2.46372,7.23,0.23,3.24,2.0
1758074658.62816,1758074658.38373,0.0,0.0,0.0,-54.02992,-28.07493,-2.11994,8.67,0.56,1.93,2.0
1758074658.64349,1758074658.39373,0.0,0.0,0.0,-52.42564,-23.60586,-0.17189,9.65,0.55,0.0,2.0
1758074658.64505,1758074658.40373,0.0,0.0,0.0,-52.08187,-19.53786,1.66158,9.65,0.55,0.0,2.0
1758074658.65954,1758074658.41373,0.0,0.0,0.0,-50.47758,-11.28727,6.35983,9.63,0.1,0.93,2.0
1758074658.66071,1758074658.42373,0.0,0.0,0.0,-48.58683,-7.96411,10.08406,9.63,0.1,0.93,2.0
1758074658.6778,1758074658.43373,0.0,0.0,0.0,-46.35228,-8.42248,13.5791,9.11,-0.37,1.65,2.0
1758074658.69384,1758074658.44373,0.0,0.0,0.0,-44.00316,-11.22997,16.50119,9.11,-0.37,1.65,2.0
1758074658.69473,1758074658.45373,0.0,0.0,0.0,-40.16434,-17.36062,19.48057,8.74,-0.92,1.74,2.0
1758074658.71061,1758074658.46373,0.0,0.0,0.0,-37.58603,-22.11617,20.11082,9.09,-1.26,1.14,2.0
1758074658.71187,1758074658.47373,0.0,0.0,0.0,-35.2942,-25.89769,19.76705,9.09,-1.26,1.14,2.0
1758074658.7268,1758074658.48373,0.0,0.0,0.0,-33.40344,-28.59059,18.33465,9.49,-1.19,0.74,2.0
1758074658.74517,1758074658.49373,0.0,0.0,0.0,-32.08564,-28.13223,15.69904,9.49,-1.19,0.74,2.0
1758074658.74799,1758074658.50373,0.0,0.0,0.0,-31.39809,-24.4653,13.98017,10.0,-0.87,0.74,2.0
1758074658.7638,1758074658.51373,0.0,0.0,0.0,-31.11161,-18.22006,12.71966,10.0,-0.87,0.74,2.0
1758074658.76478,1758074658.52373,0.0,0.0,0.0,-30.88243,-10.71431,12.204,10.75,-0.46,1.25,2.0
1758074658.77965,1758074658.53373,0.0,0.0,0.0,-30.93972,-0.80214,12.49048,11.15,-0.13,1.75,2.0
1758074658.78183,1758074658.54373,0.0,0.0,0.0,-31.16891,4.81285,12.89155,11.15,-0.13,1.75,2.0
1758074658.79785,1758074658.55373,0.0,0.0,0.0,-31.11161,8.99544,13.46451,11.14,0.09,1.86,2.0
1758074658.81492,1758074658.56373,0.0,0.0,0.0,-30.99702,11.22997,13.69369,11.14,0.09,1.86,2.0
1758074658.81576,1758074658.57373,0.0,0.0,0.0,-31.11161,12.43318,12.77696,10.79,0.24,1.69,2.0
1758074658.83088,1758074658.58373,0.0,0.0,0.0,-31.11161,13.17803,11.80293,10.79,0.24,1.69,2.0
1758074658.83262,1758074658.59373,0.0,0.0,0.0,-31.45539,13.69369,10.48513,10.59,0.32,1.36,2.0
1758074658.84996,1758074658.60373,0.0,0.0,0.0,-32.14294,12.83425,8.70896,10.59,0.32,1.36,2.0
1758074658.85108,1758074658.61373,0.0,0.0,0.0,-32.25753,2.23454,7.73493,10.26,0.16,1.22,2.0
1758074658.86669,1758074658.62373,0.0,0.0,0.0,-33.11696,-11.80293,6.41713,9.31,-0.08,1.63,2.0
1758074658.88467,1758074658.63373,0.0,0.0,0.0,-35.2942,-26.12688,5.15662,9.31,-0.08,1.63,2.0
1758074658.88566,1758074658.64373,0.0,0.0,0.0,-38.56006,-44.17505,3.55234,9.73,-0.24,2.2,2.0
1758074658.90406,1758074658.65373,0.0,0.0,0.0,-39.82057,-52.71212,1.48969,9.73,-0.24,2.2,2.0
1758074658.90529,1758074658.66373,0.0,0.0,0.0,-38.27358,-55.23313,-0.57296,12.24,-1.09,3.8,2.0
1758074658.92099,1758074658.67373,0.0,0.0,0.0,-33.68992,-54.14451,-3.03668,12.24,-1.09,3.8,2.0
1758074658.92299,1758074658.68373,0.0,0.0,0.0,-23.94964,-55.34772,-3.95341,16.63,-3.28,5.43,2.0
1758074658.93957,1758074658.69373,0.0,0.0,0.0,-18.56383,-66.34852,-2.63561,14.61,-4.23,4.8,2.0
1758074658.9547,1758074658.70373,0.0,0.0,0.0,-15.87093,-82.50593,-1.03132,14.61,-4.23,4.8,2.0
1758074658.9575,1758074658.71373,0.0,0.0,0.0,-15.29797,-96.77258,-0.34377,9.27,-2.97,3.42,2.0
1758074658.97378,1758074658.72373,0.0,0.0,0.0,-17.81899,-105.08047,-1.3178,9.27,-2.97,3.42,2.0
1758074658.97524,1758074658.73373,0.0,0.0,0.0,-19.82434,-94.25156,-2.97938,7.28,-1.8,1.54,2.0
1758074658.99003,1758074658.74373,0.0,0.0,0.0,-24.17882,-82.67782,-11.34457,7.28,-1.8,1.54,2.0
1758074658.99097,1758074658.75373,0.0,0.0,0.0,-25.55392,-82.67782,-9.4538,6.68,-1.07,2.09,2.0
1758074659.00979,1758074658.76373,0.0,0.0,0.0,-28.99167,-61.42108,-12.54778,9.46,-1.13,5.34,2.0
1758074659.019,1758074658.77373,0.0,0.0,0.0,-30.02299,-49.56085,-8.59437,9.46,-1.13,5.34,2.0
1758074659.02342,1758074658.78373,0.0,0.0,0.0,-29.10626,-32.08564,-3.83882,11.6,-2.29,2.39,2.0
1758074659.04158,1758074658.79373,0.0,0.0,0.0,-25.89769,-8.25059,3.03668,11.6,-2.29,2.39,2.0
1758074659.04784,1758074658.80373,0.0,0.0,0.0,-17.30333,29.33544,12.08941,12.65,-3.81,0.57,2.0
1758074659.06405,1758074658.81373,0.0,0.0,0.0,-10.31324,43.65939,15.92823,12.65,-3.81,0.57,2.0
1758074659.06524,1758074658.82373,0.0,0.0,0.0,-4.18259,48.30034,17.18874,10.48,-4.41,-0.97,2.0
1758074659.0801,1758074658.83373,0.0,0.0,0.0,3.03668,54.94666,17.24603,10.48,-4.41,-0.97,2.0
1758074659.0819,1758074658.84373,0.0,0.0,0.0,6.47442,60.27517,15.87093,10.0,-3.79,0.33,2.0
1758074659.09946,1758074658.85373,0.0,0.0,0.0,8.88085,64.11398,12.71966,9.99,-2.71,-0.16,2.0
1758074659.11516,1758074658.86373,0.0,0.0,0.0,10.8289,68.01009,8.88085,9.99,-2.71,-0.16,2.0
1758074659.11804,1758074658.87373,0.0,0.0,0.0,15.12609,73.51049,6.13065,9.74,-2.23,0.03,2.0
1758074659.1337,1758074658.88373,0.0,0.0,0.0,17.93358,82.04756,5.4431,9.74,-2.23,0.03,2.0
1758074659.13486,1758074658.89373,0.0,0.0,0.0,20.85567,88.69387,5.90147,10.06,-2.39,0.04,2.0
1758074659.14999,1758074658.90373,0.0,0.0,0.0,23.26209,91.21489,6.7609,10.06,-2.39,0.04,2.0
1758074659.15128,1758074658.91373,0.0,0.0,0.0,26.06958,92.36081,8.136,9.1,-2.57,0.59,2.0
1758074659.16896,1758074658.92373,0.0,0.0,0.0,26.98631,92.70457,8.93814,8.91,-2.54,0.95,2.0
1758074659.18487,1758074658.93373,0.0,0.0,0.0,27.10091,92.4754,8.99544,8.91,-2.54,0.95,2.0
1758074659.18654,1758074658.94373,0.0,0.0,0.0,26.52795,91.73055,8.59437,9.01,-2.32,1.04,2.0
1758074659.20183,1758074658.95373,0.0,0.0,0.0,23.83505,87.71984,6.13065,9.01,-2.32,1.04,2.0
1758074659.20607,1758074658.96373,0.0,0.0,0.0,22.23076,82.33404,4.29718,8.85,-2.0,1.61,2.0
1758074659.22408,1758074658.97373,0.0,0.0,0.0,21.7151,76.94823,2.40642,8.85,-2.0,1.61,2.0
1758074659.2261,1758074658.98373,0.0,0.0,0.0,22.86102,71.39055,1.3178,8.86,-1.89,1.87,2.0
1758074659.24123,1758074658.99373,0.0,0.0,0.0,27.84575,64.85883,2.11994,8.99,-2.24,1.59,2.0
1758074659.24248,1758074659.00373,0.0,0.0,0.0,33.23156,65.37449,3.55234,8.99,-2.24,1.59,2.0
1758074659.25698,1758074659.01373,0.0,0.0,0.0,39.01843,66.34852,4.81285,9.24,-2.94,1.3,2.0
1758074659.27326,1758074659.02373,0.0,0.0,0.0,44.9199,65.48907,6.41713,9.24,-2.94,1.3,2.0
1758074659.27498,1758074659.03373,0.0,0.0,0.0,53.45696,60.38975,7.10468,8.54,-3.63,1.76,2.0
1758074659.29,1758074659.04373,0.0,0.0,0.0,58.55629,55.23313,7.73493,8.54,-3.63,1.76,2.0
1758074659.29229,1758074659.05373,0.0,0.0,0.0,62.91077,48.01387,7.79223,8.21,-3.62,1.61,2.0
1758074659.30927,1758074659.06373,0.0,0.0,0.0,68.35387,30.93972,8.136,8.21,-3.62,1.61,2.0
1758074659.3253,1758074659.07373,0.0,0.0,0.0,70.24463,13.46451,7.16197,7.91,-3.09,1.49,2.0
1758074659.32816,1758074659.08373,0.0,0.0,0.0,70.76029,0.22918,4.69825,7.67,-2.41,0.95,2.0
1758074659.34465,1758074659.09373,0.0,0.0,0.0,73.68237,5.27121,2.40642,7.67,-2.41,0.95,2.0
1758074659.34583,1758074659.10373,0.0,0.0,0.0,77.57849,9.28192,4.29718,9.94,-2.11,1.17,2.0
1758074659.36135,1758074659.11373,0.0,0.0,0.0,81.07353,16.95955,3.49504,9.94,-2.11,1.17,2.0
1758074659.36304,1758074659.12373,0.0,0.0,0.0,81.36001,24.63719,0.74485,9.56,-2.09,2.17,2.0
1758074659.37887,1758074659.13373,0.0,0.0,0.0,79.75573,27.1582,-2.92208,9.56,-2.09,2.17,2.0
1758074659.39537,1758074659.14373,0.0,0.0,0.0,74.7137,-19.99623,-9.39651,8.34,-1.85,2.88,2.0
1758074659.3974,1758074659.15373,0.0,0.0,0.0,81.64648,-49.90463,-0.40107,6.17,-1.64,0.65,2.0
1758074659.4121,1758074659.16373,0.0,0.0,0.0,82.33404,-51.45161,-0.40107,6.17,-1.64,0.65,2.0
1758074659.41409,1758074659.17373,0.0,0.0,0.0,85.54259,-57.12389,3.72423,9.78,-1.81,-0.03,2.0
1758074659.42936,1758074659.18373,0.0,0.0,0.0,89.6679,-48.58683,4.29718,9.78,-1.81,-0.03,2.0
1758074659.44541,1758074659.19373,0.0,0.0,0.0,91.043,-46.40959,3.55234,9.7,-1.82,0.04,2.0
1758074659.45057,1758074659.20373,0.0,0.0,0.0,90.47005,-44.28964,1.3178,9.7,-1.82,0.04,2.0
1758074659.46515,1758074659.21373,0.0,0.0,0.0,87.71984,-39.53409,-1.83346,9.44,-1.42,2.77,2.0
1758074659.46987,1758074659.22373,0.0,0.0,0.0,78.49522,-34.72124,-9.28192,10.76,-0.23,3.25,2.0
1758074659.48544,1758074659.23373,0.0,0.0,0.0,69.61437,-38.84654,-11.86023,10.76,-0.23,3.25,2.0
1758074659.48662,1758074659.24373,0.0,0.0,0.0,58.4417,-46.46688,-11.63104,12.05,2.08,5.61,2.0
1758074659.50141,1758074659.25373,0.0,0.0,0.0,37.81522,-49.96192,-5.95876,12.05,2.08,5.61,2.0
1758074659.50901,1758074659.26373,0.0,0.0,0.0,21.48592,-43.31561,-0.85944,14.72,4.27,5.88,2.0
1758074659.52415,1758074659.27373,0.0,0.0,0.0,6.18794,-32.88778,4.64096,14.72,4.27,5.88,2.0
1758074659.52779,1758074659.28373,0.0,0.0,0.0,-8.30789,-23.0902,7.50575,15.4,4.78,5.13,2.0
1758074659.54342,1758074659.29373,0.0,0.0,0.0,-22.63183,-11.17268,7.62034,15.4,4.78,5.13,2.0
1758074659.54549,1758074659.30373,0.0,0.0,0.0,-25.55392,-6.18794,3.32316,12.84,3.12,3.38,2.0
1758074659.56046,1758074659.31373,0.0,0.0,0.0,-24.00693,-5.21392,-2.06265,9.46,-0.63,3.94,2.0
1758074659.5614,1758074659.32373,0.0,0.0,0.0,-19.88164,-4.92744,-9.33921,9.46,-0.63,3.94,2.0
1758074659.57749,1758074659.33373,0.0,0.0,0.0,-10.8862,-4.81285,-21.14215,7.53,-2.77,4.55,2.0
1758074659.5935,1758074659.34373,0.0,0.0,0.0,-3.83882,-6.18794,-27.96034,7.53,-2.77,4.55,2.0
1758074659.59523,1758074659.35373,0.0,0.0,0.0,4.46907,-9.62569,-31.62727,7.25,-3.42,5.61,2.0
1758074659.61027,1758074659.36373,0.0,0.0,0.0,12.2613,-11.28727,-33.11696,7.25,-3.42,5.61,2.0
1758074659.61255,1758074659.37373,0.0,0.0,0.0,22.11617,-11.80293,-28.41871,9.1,-3.4,5.35,2.0
1758074659.62852,1758074659.38373,0.0,0.0,0.0,26.41335,-10.25595,-22.57454,11.07,-1.88,4.73,2.0
1758074659.64559,1758074659.39373,0.0,0.0,0.0,28.70519,-6.99009,-16.10011,11.07,-1.88,4.73,2.0
1758074659.64836,1758074659.40373,0.0,0.0,0.0,29.9084,-0.74485,-10.48513,10.71,-0.36,4.15,2.0
1758074659.66438,1758074659.41373,0.0,0.0,0.0,30.30947,6.53172,-3.89611,10.71,-0.36,4.15,2.0
1758074659.66528,1758074659.42373,0.0,0.0,0.0,30.36677,9.05273,-1.20321,8.86,0.82,3.77,2.0
1758074659.68052,1758074659.43373,0.0,0.0,0.0,30.30947,10.54242,-0.0573,8.86,0.82,3.77,2.0
1758074659.68573,1758074659.44373,0.0,0.0,0.0,29.62192,13.12073,-1.08862,8.1,1.54,3.54,2.0
1758074659.70205,1758074659.45373,0.0,0.0,0.0,28.64789,16.90226,-3.55234,8.24,1.77,3.01,2.0
1758074659.70642,1758074659.46373,0.0,0.0,0.0,27.38738,15.69904,-6.47442,8.24,1.77,3.01,2.0
1758074659.72211,1758074659.47373,0.0,0.0,0.0,25.55392,13.5791,-9.5684,7.91,1.54,2.85,2.0
1758074659.72644,1758074659.48373,0.0,0.0,0.0,22.05888,13.5791,-13.40721,7.91,1.54,2.85,2.0
1758074659.74208,1758074659.49373,0.0,0.0,0.0,18.9649,14.61043,-14.66772,8.5,1.23,2.85,2.0
1758074659.74969,1758074659.50373,0.0,0.0,0.0,15.87093,15.75634,-14.83961,8.5,1.23,2.85,2.0
1758074659.76527,1758074659.51373,0.0,0.0,0.0,12.71966,16.38659,-14.15206,8.75,1.18,2.91,2.0
1758074659.7665,1758074659.52373,0.0,0.0,0.0,8.136,17.87628,-11.00079,8.79,1.18,2.98,2.0
1758074659.78231,1758074659.53373,0.0,0.0,0.0,5.55769,17.13144,-7.96411,8.79,1.39,2.98,2.0
1758074659.78442,1758074659.54373,0.0,0.0,0.0,3.32316,16.38659,-5.50039,8.66,1.59,2.77,2.0
1758074659.79963,1758074659.55373,0.0,0.0,0.0,1.3178,16.61578,-2.92208,8.66,1.59,2.77,2.0
1758074659.81536,1758074659.56372,0.0,0.0,0.0,-1.14592,14.72501,-0.22918,8.77,1.58,2.82,2.0
1758074659.81664,1758074659.57372,0.0,0.0,0.0,-2.63561,12.60507,0.74485,8.77,1.58,2.82,2.0
1758074659.83139,1758074659.58372,0.0,0.0,0.0,-3.89611,11.00079,1.3178,8.59,1.49,2.93,2.0
1758074659.83262,1758074659.59372,0.0,0.0,0.0,-5.15662,7.33386,1.48969,8.59,1.49,2.93,2.0
1758074659.84974,1758074659.60372,0.0,0.0,0.0,-8.36518,-2.7502,1.60428,8.43,1.39,3.05,2.0
1758074659.86569,1758074659.61372,0.0,0.0,0.0,-11.80293,-9.4538,0.40107,8.31,1.37,2.79,2.0
1758074659.86829,1758074659.62372,0.0,0.0,0.0,-16.55848,-15.35527,-0.22918,8.31,1.37,2.79,2.0
1758074659.88372,1758074659.63372,0.0,0.0,0.0,-22.28806,-15.69904,-2.00535,9.01,1.57,2.45,2.0
1758074659.88495,1758074659.64372,0.0,0.0,0.0,-30.82513,-11.11538,-3.55234,9.01,1.57,2.45,2.0
1758074659.89973,1758074659.65372,0.0,0.0,0.0,-36.6693,-7.79223,-4.23989,9.54,1.68,2.43,2.0
1758074659.91574,1758074659.66372,0.0,0.0,0.0,-41.99781,-7.04738,-4.29718,9.54,1.68,2.43,2.0
1758074659.92015,1758074659.67372,0.0,0.0,0.0,-49.50356,-9.11003,-4.52637,8.91,1.52,2.79,2.0
1758074659.93575,1758074659.68372,0.0,0.0,0.0,-53.51426,-10.31324,-4.29718,8.68,1.42,2.44,2.0
1758074659.93986,1758074659.69372,0.0,0.0,0.0,-57.0093,-12.89155,-4.98473,8.68,1.42,2.44,2.0
1758074659.95569,1758074659.70372,0.0,0.0,0.0,-58.72818,-19.42327,-5.27121,8.51,1.31,1.92,2.0
1758074659.95936,1758074659.71372,0.0,0.0,0.0,-59.64491,-31.39809,-4.52637,8.51,1.31,1.92,2.0
1758074659.97449,1758074659.72372,0.0,0.0,0.0,-58.67088,-35.75257,-2.57831,8.51,1.12,1.91,2.0
1758074659.97571,1758074659.73372,0.0,0.0,0.0,-57.29578,-37.47144,-1.43239,8.51,1.12,1.91,2.0
1758074659.99077,1758074659.74372,0.0,0.0,0.0,-56.03527,-28.93437,2.6929,9.33,0.69,1.27,2.0
1758074659.99216,1758074659.75372,0.0,0.0,0.0,-55.29043,0.40107,3.20856,11.16,0.7,2.48,2.0
1758074660.00757,1758074659.76372,0.0,0.0,0.0,-59.81679,-15.0115,-1.08862,11.16,0.7,2.48,2.0
1758074660.02356,1758074659.77372,0.0,0.0,0.0,-63.19725,-18.44924,-4.81285,8.07,0.82,2.82,2.0
1758074660.02475,1758074659.78372,0.0,0.0,0.0,-64.45775,-23.37668,-7.84952,8.07,0.82,2.82,2.0
1758074660.03959,1758074659.79372,0.0,0.0,0.0,-65.2026,-25.26744,-10.48513,9.11,0.9,1.72,2.0
1758074660.05559,1758074659.80372,0.0,0.0,0.0,-64.57235,-21.08485,-8.42248,9.11,0.9,1.72,2.0
1758074660.05677,1758074659.81372,0.0,0.0,0.0,-65.2026,-15.41257,-7.21927,9.92,0.63,0.81,2.0
1758074660.07204,1758074659.82372,0.0,0.0,0.0,-65.08801,-9.11003,-4.92744,9.92,0.63,0.81,2.0
1758074660.07315,1758074659.83372,0.0,0.0,0.0,-62.85347,-2.40642,-0.40107,9.9,0.14,1.73,2.0
1758074660.09066,1758074659.84372,0.0,0.0,0.0,-60.61894,-1.83346,2.11994,9.2,-0.31,2.04,2.0
1758074660.09237,1758074659.85372,0.0,0.0,0.0,-57.86874,-4.46907,3.95341,9.2,-0.31,2.04,2.0
1758074660.10963,1758074659.86372,0.0,0.0,0.0,-54.48829,-8.59437,5.55769,8.59,-0.7,1.74,2.0
1758074660.12565,1758074659.87372,0.0,0.0,0.0,-49.04519,-14.83961,5.72958,8.59,-0.7,1.74,2.0
1758074660.13397,1758074659.88372,0.0,0.0,0.0,-45.43555,-18.79302,5.61499,8.73,-0.97,1.26,2.0
1758074660.13554,1758074659.89372,0.0,0.0,0.0,-42.05511,-22.23076,5.4431,8.73,-0.97,1.26,2.0
1758074660.15399,1758074659.90372,0.0,0.0,0.0,-37.81522,-24.80907,5.15662,9.14,-1.04,1.36,2.0
1758074660.15571,1758074659.91372,0.0,0.0,0.0,-35.69527,-25.43933,5.72958,9.61,-0.82,1.66,2.0
1758074660.17067,1758074659.92372,0.0,0.0,0.0,-34.43476,-27.33009,6.18794,9.61,-0.82,1.66,2.0
1758074660.1753,1758074659.93372,0.0,0.0,0.0,-33.80451,-28.24682,6.70361,9.74,-0.52,1.7,2.0
1758074660.191,1758074659.94372,0.0,0.0,0.0,-33.9764,-27.44468,7.67763,9.74,-0.52,1.7,2.0
1758074660.19672,1758074659.95372,0.0,0.0,0.0,-34.60666,-26.01229,8.136,10.0,-0.29,1.62,2.0
1758074660.21539,1758074659.96372,0.0,0.0,0.0,-35.3515,-24.00693,8.42248,10.0,-0.29,1.62,2.0
1758074660.21736,1758074659.97372,0.0,0.0,0.0,-36.21093,-22.05888,8.36518,9.94,-0.25,1.49,2.0
1758074660.23449,1758074659.98372,0.0,0.0,0.0,-36.61201,-18.22006,8.02141,9.88,-0.33,1.53,2.0
1758074660.23576,1758074659.99372,0.0,0.0,0.0,-36.61201,-16.50119,7.39116,9.88,-0.33,1.53,2.0
1758074660.25071,1758074660.00372,0.0,0.0,0.0,-35.92446,-13.75099,7.04738,9.85,-0.35,1.38,2.0
1758074660.25354,1758074660.01372,0.0,0.0,0.0,-34.72124,-10.31324,6.8182,9.85,-0.35,1.38,2.0
1758074660.26973,1758074660.02372,0.0,0.0,0.0,-31.97105,-4.81285,6.58902,10.14,-0.31,1.23,2.0
1758074660.28575,1758074660.03372,0.0,0.0,0.0,-29.73651,-1.43239,6.99009,10.14,-0.31,1.23,2.0
1758074660.28962,1758074660.04372,0.0,0.0,0.0,-28.07493,0.51566,7.10468,10.17,-0.22,0.78,2.0
1758074660.30505,1758074660.05372,0.0,0.0,0.0,-27.10091,2.40642,7.33386,10.17,-0.22,0.78,2.0
1758074660.3079,1758074660.06372,0.0,0.0,0.0,-26.41335,4.46907,8.0787,10.09,-0.19,0.35,2.0
1758074660.32356,1758074660.07372,0.0,0.0,0.0,-26.24147,6.70361,9.33921,10.33,-0.27,0.19,2.0
1758074660.32478,1758074660.08372,0.0,0.0,0.0,-26.12688,7.44845,11.00079,10.33,-0.27,0.19,2.0
1758074660.34005,1758074660.09372,0.0,0.0,0.0,-26.18417,2.29183,13.5218,10.43,-0.61,0.78,2.0
1758074660.3561,1758074660.10372,0.0,0.0,0.0,-26.69983,-9.74028,15.0115,10.43,-0.61,0.78,2.0
1758074660.36052,1758074660.11372,0.0,0.0,0.0,-27.2155,-16.95955,15.92823,10.83,-0.85,1.83,2.0
1758074660.37611,1758074660.12372,0.0,0.0,0.0,-27.10091,-20.62648,15.92823,10.83,-0.85,1.83,2.0
1758074660.37946,1758074660.13372,0.0,0.0,0.0,-22.34536,-20.11082,13.23533,13.06,-1.38,3.14,2.0
1758074660.39511,1758074660.14372,0.0,0.0,0.0,-15.75634,-19.36597,9.91217,16.26,-3.02,4.73,2.0
1758074660.39631,1758074660.15372,0.0,0.0,0.0,-8.36518,-21.48592,6.47442,16.26,-3.02,4.73,2.0
1758074660.41114,1758074660.16372,0.0,0.0,0.0,-1.43239,-28.99167,4.35448,15.61,-4.1,4.3,2.0
1758074660.4136,1758074660.17372,0.0,0.0,0.0,4.92744,-46.81066,3.83882,15.61,-4.1,4.3,2.0
1758074660.42994,1758074660.18372,0.0,0.0,0.0,5.78687,-57.46767,5.09932,11.26,-2.93,2.63,2.0
1758074660.44594,1758074660.19372,0.0,0.0,0.0,5.55769,-63.54102,7.84952,11.26,-2.93,2.63,2.0
1758074660.44819,1758074660.20372,0.0,0.0,0.0,4.52637,-68.06739,10.48513,8.53,-0.56,1.06,2.0
1758074660.46405,1758074660.21372,0.0,0.0,0.0,1.03132,-73.91156,13.46451,6.26,0.56,1.31,2.0
1758074660.46915,1758074660.22372,0.0,0.0,0.0,-2.34913,-78.15145,14.9542,6.26,0.56,1.31,2.0
1758074660.48392,1758074660.23372,0.0,0.0,0.0,-6.7609,-79.41196,15.75634,4.84,0.71,1.8,2.0
1758074660.48509,1758074660.24372,0.0,0.0,0.0,-12.83425,-76.60446,12.83425,4.84,0.71,1.8,2.0
1758074660.5001,1758074660.25372,0.0,0.0,0.0,-19.76705,-68.52576,10.59972,5.93,0.34,3.1,2.0
1758074660.51602,1758074660.26372,0.0,0.0,0.0,-24.86637,-56.66553,7.16197,5.93,0.34,3.1,2.0
1758074660.51795,1758074660.27372,0.0,0.0,0.0,-29.96569,-45.43555,4.1253,9.85,-0.67,4.81,2.0
1758074660.53322,1758074660.28372,0.0,0.0,0.0,-34.26288,-32.48671,1.60428,9.85,-0.67,4.81,2.0
1758074660.53457,1758074660.29372,0.0,0.0,0.0,-38.73195,-6.07335,0.68755,12.57,-2.06,3.15,2.0
1758074660.54995,1758074660.30372,0.0,0.0,0.0,-38.50277,15.69904,2.11994,13.9,-3.23,0.49,2.0
1758074660.56592,1758074660.31372,0.0,0.0,0.0,-35.63798,39.13302,1.3751,13.9,-3.23,0.49,2.0
1758074660.56827,1758074660.32372,0.0,0.0,0.0,-27.78845,60.04598,2.6929,12.95,-3.96,-0.9,2.0
1758074660.58428,1758074660.33372,0.0,0.0,0.0,-22.28806,62.79618,2.34913,12.95,-3.96,-0.9,2.0
1758074660.58516,1758074660.34372,0.0,0.0,0.0,-17.24603,64.28587,1.3178,10.61,-3.77,0.45,2.0
1758074660.60024,1758074660.35372,0.0,0.0,0.0,-11.97482,65.89015,0.85944,10.61,-3.77,0.45,2.0
1758074660.61622,1758074660.36372,0.0,0.0,0.0,-5.78687,69.49979,-0.57296,9.8,-2.97,0.02,2.0
1758074660.61796,1758074660.37372,0.0,0.0,0.0,-2.00535,72.53646,-1.08862,9.5,-2.06,0.04,2.0
1758074660.63463,1758074660.38372,0.0,0.0,0.0,1.3751,75.85962,-1.08862,9.5,-2.06,0.04,2.0
1758074660.63609,1758074660.39372,0.0,0.0,0.0,4.81285,78.839,-0.34377,9.35,-1.62,0.28,2.0
1758074660.65106,1758074660.40372,0.0,0.0,0.0,10.08406,82.39134,2.29183,9.35,-1.62,0.28,2.0
1758074660.65539,1758074660.41372,0.0,0.0,0.0,12.89155,81.5892,5.50039,8.97,-1.81,0.8,2.0
1758074660.67134,1758074660.42372,0.0,0.0,0.0,15.41257,80.44328,8.99544,8.97,-1.81,0.8,2.0
1758074660.67331,1758074660.43372,0.0,0.0,0.0,16.90226,79.01089,11.57375,8.73,-2.15,1.13,2.0
1758074660.69009,1758074660.44372,0.0,0.0,0.0,17.76169,75.97421,13.17803,8.69,-2.48,0.88,2.0
1758074660.69354,1758074660.45372,0.0,0.0,0.0,17.24603,73.51049,12.60507,8.69,-2.48,0.88,2.0
1758074660.70937,1758074660.46372,0.0,0.0,0.0,16.3293,71.79161,10.65701,8.88,-2.56,0.84,2.0
1758074660.72536,1758074660.47372,0.0,0.0,0.0,15.0115,69.27061,8.136,8.88,-2.56,0.84,2.0
1758074660.72577,1758074660.48372,0.0,0.0,0.0,13.17803,61.76485,2.86479,8.9,-2.33,1.02,2.0
1758074660.74337,1758074660.49372,0.0,0.0,0.0,13.23533,56.60823,-0.57296,8.9,-2.33,1.02,2.0
1758074660.74584,1758074660.50372,0.0,0.0,0.0,14.9542,52.36834,-3.49504,9.21,-2.16,1.37,2.0
1758074660.76135,1758074660.51372,0.0,0.0,0.0,21.08485,51.50891,-5.32851,9.21,-2.16,1.37,2.0
1758074660.76547,1758074660.52372,0.0,0.0,0.0,27.1582,58.04062,-5.27121,9.88,-2.33,1.21,2.0
1758074660.78142,1758074660.53372,0.0,0.0,0.0,34.0337,63.19725,-4.46907,9.96,-2.78,1.1,2.0
