timeStamp,timeStampAlign,roll,pitch,yaw,gyro_x,gyro_y,gyro_z,acc_x,acc_y,acc_z,flag_num
1758089393.75467,1758089383.80159,0.0,0.0,0.0,8.88085,26.35606,-7.21927,10.4,-2.4,1.57,3.0
1758089393.75585,1758089383.81159,0.0,0.0,0.0,8.88085,27.50197,-6.87549,9.89,-2.26,1.34,3.0
1758089393.77145,1758089383.82159,0.0,0.0,0.0,8.70896,29.9084,-6.47442,9.89,-2.26,1.34,3.0
1758089393.7876,1758089383.83159,0.0,0.0,0.0,8.47978,31.97105,-5.95876,9.42,-2.03,1.21,3.0
1758089393.78966,1758089383.84159,0.0,0.0,0.0,8.42248,33.23156,-5.61499,9.42,-2.03,1.21,3.0
1758089393.80464,1758089383.85159,0.0,0.0,0.0,8.42248,34.37747,-5.15662,8.83,-1.78,1.35,3.0
1758089393.80589,1758089383.86159,0.0,0.0,0.0,8.25059,33.23156,-5.15662,8.83,-1.78,1.35,3.0
1758089393.82069,1758089383.87159,0.0,0.0,0.0,7.62034,27.33009,-5.15662,8.29,-1.49,1.61,3.0
1758089393.83695,1758089383.88159,0.0,0.0,0.0,5.95876,18.56383,-5.21392,7.79,-1.18,1.95,3.0
1758089393.83865,1758089383.89159,0.0,0.0,0.0,3.55234,6.18794,-3.26586,7.79,-1.18,1.95,3.0
1758089393.85368,1758089383.90159,0.0,0.0,0.0,0.80214,-0.97403,0.0573,8.31,-0.98,2.28,3.0
1758089393.8549,1758089383.91159,0.0,0.0,0.0,-4.35448,2.6929,2.92208,8.31,-0.98,2.28,3.0
1758089393.87148,1758089383.92159,0.0,0.0,0.0,-7.50575,5.90147,2.29183,9.84,-0.75,1.79,3.0
1758089393.88769,1758089383.93159,0.0,0.0,0.0,-10.08406,5.55769,0.45837,9.84,-0.75,1.79,3.0
1758089393.88894,1758089383.94159,0.0,0.0,0.0,-12.204,3.89611,-2.7502,9.19,-0.75,1.4,3.0
1758089393.90404,1758089383.95159,0.0,0.0,0.0,-13.5218,7.16197,-10.8862,10.06,-1.19,1.64,3.0
1758089393.90492,1758089383.96159,0.0,0.0,0.0,-12.77696,9.22462,-16.3293,10.06,-1.19,1.64,3.0
1758089393.92072,1758089383.97159,0.0,0.0,0.0,-10.8289,9.91217,-20.79837,11.02,-1.76,2.12,3.0
1758089393.93671,1758089383.98159,0.0,0.0,0.0,-7.79223,10.8862,-24.75178,11.02,-1.76,2.12,3.0
1758089393.93796,1758089383.99159,0.0,0.0,0.0,-6.07335,15.06879,-26.01229,12.35,-2.33,3.15,3.0
1758089393.95284,1758089384.00159,0.0,0.0,0.0,-5.27121,18.50654,-25.72581,12.35,-2.33,3.15,3.0
1758089393.96898,1758089384.01159,0.0,0.0,0.0,-4.81285,22.74642,-24.17882,13.65,-2.74,3.41,3.0
1758089393.96994,1758089384.02159,0.0,0.0,0.0,-4.87014,30.59595,-21.37133,13.65,-2.74,3.41,3.0
1758089393.98475,1758089384.03159,0.0,0.0,0.0,-4.64096,33.63263,-19.99623,14.5,-2.86,3.82,3.0
1758089393.98591,1758089384.04159,0.0,0.0,0.0,-3.95341,34.60666,-18.79302,14.59,-2.64,3.96,3.0
1758089394.00076,1758089384.05159,0.0,0.0,0.0,-2.92208,34.43476,-18.10547,14.59,-2.64,3.96,3.0
1758089394.01697,1758089384.06159,0.0,0.0,0.0,-1.71887,34.43476,-18.9649,14.6,-2.42,4.37,3.0
1758089394.01795,1758089384.07159,0.0,0.0,0.0,-0.85944,32.71589,-20.51189,14.6,-2.42,4.37,3.0
1758089394.033,1758089384.08159,0.0,0.0,0.0,-0.17189,29.9084,-22.68913,14.27,-2.18,4.7,3.0
1758089394.04867,1758089384.09159,0.0,0.0,0.0,0.85944,25.38203,-25.09555,14.27,-2.18,4.7,3.0
1758089394.04989,1758089384.10159,0.0,0.0,0.0,2.7502,16.04282,-27.84575,13.26,-2.05,4.96,3.0
1758089394.06562,1758089384.11159,0.0,0.0,0.0,4.35448,8.93814,-28.93437,11.73,-2.02,4.6,3.0
1758089394.07002,1758089384.12159,0.0,0.0,0.0,5.95876,1.83346,-29.10626,11.73,-2.02,4.6,3.0
1758089394.08589,1758089384.13159,0.0,0.0,0.0,7.62034,-4.81285,-28.87707,10.15,-1.97,4.32,3.0
1758089394.08998,1758089384.14159,0.0,0.0,0.0,10.02676,-14.09476,-27.50197,10.15,-1.97,4.32,3.0
1758089394.10558,1758089384.15159,0.0,0.0,0.0,11.34457,-20.3973,-26.81443,8.63,-1.81,4.15,3.0
1758089394.10749,1758089384.16159,0.0,0.0,0.0,12.71966,-26.18417,-25.43933,8.63,-1.81,4.15,3.0
1758089394.12357,1758089384.17159,0.0,0.0,0.0,13.5218,-31.62727,-24.29341,7.37,-1.38,3.79,3.0
1758089394.12558,1758089384.18159,0.0,0.0,0.0,14.20935,-39.24761,-23.31938,6.48,-0.77,3.5,3.0
1758089394.14916,1758089384.19159,0.0,0.0,0.0,14.15206,-45.14908,-22.97561,6.48,-0.77,3.5,3.0
1758089394.15912,1758089384.20159,0.0,0.0,0.0,13.46451,-49.79003,-22.97561,5.99,-0.08,3.17,3.0
1758089394.16129,1758089384.21159,0.0,0.0,0.0,11.63104,-53.91533,-23.66316,5.99,-0.08,3.17,3.0
1758089394.17802,1758089384.22159,0.0,0.0,0.0,10.08406,-56.49364,-24.12152,6.03,0.43,2.9,3.0
1758089394.17901,1758089384.23159,0.0,0.0,0.0,8.59437,-57.23849,-23.94964,6.03,0.43,2.9,3.0
1758089394.19396,1758089384.24159,0.0,0.0,0.0,7.67763,-56.20716,-22.86102,6.31,0.76,2.64,3.0
1758089394.19525,1758089384.25159,0.0,0.0,0.0,6.87549,-53.68615,-20.85567,6.31,0.76,2.58,3.0
1758089394.21186,1758089384.26159,0.0,0.0,0.0,6.53172,-50.76406,-19.76705,6.92,0.79,2.58,3.0
1758089394.2278,1758089384.27159,0.0,0.0,0.0,6.41713,-47.26902,-18.9649,7.41,0.56,2.41,3.0
1758089394.22898,1758089384.28159,0.0,0.0,0.0,6.13065,-43.65939,-19.13679,7.41,0.56,2.41,3.0
1758089394.24374,1758089384.29159,0.0,0.0,0.0,5.84417,-36.89849,-20.16812,7.83,0.35,2.59,3.0
1758089394.24498,1758089384.30159,0.0,0.0,0.0,5.72958,-30.53865,-21.42862,7.83,0.35,2.59,3.0
1758089394.26082,1758089384.31159,0.0,0.0,0.0,5.84417,-22.74642,-22.68913,8.49,0.26,2.63,3.0
1758089394.27863,1758089384.32159,0.0,0.0,0.0,5.90147,-14.38124,-23.66316,8.49,0.26,2.63,3.0
1758089394.2798,1758089384.33159,0.0,0.0,0.0,6.99009,-2.57831,-24.80907,9.05,0.2,2.83,3.0
1758089394.29591,1758089384.34159,0.0,0.0,0.0,7.73493,4.64096,-25.38203,9.45,0.18,3.03,3.0
1758089394.29682,1758089384.35159,0.0,0.0,0.0,8.76626,12.37589,-25.49662,9.45,0.18,3.03,3.0
1758089394.31181,1758089384.36159,0.0,0.0,0.0,9.74028,19.07949,-25.61122,9.87,0.23,3.05,3.0
1758089394.3281,1758089384.37159,0.0,0.0,0.0,11.11538,25.89769,-25.38203,9.87,0.23,3.05,3.0
1758089394.32901,1758089384.38159,0.0,0.0,0.0,12.08941,29.50733,-24.5226,10.02,0.29,3.1,3.0
1758089394.34391,1758089384.39159,0.0,0.0,0.0,12.83425,33.17426,-23.54857,10.02,0.29,3.1,3.0
1758089394.34501,1758089384.40159,0.0,0.0,0.0,13.75099,35.86716,-22.11617,10.27,0.31,3.1,3.0
1758089394.36094,1758089384.41159,0.0,0.0,0.0,14.43854,37.75792,-21.25674,10.09,0.35,2.98,3.0
1758089394.37694,1758089384.42159,0.0,0.0,0.0,15.12609,37.24226,-20.16812,10.09,0.35,2.98,3.0
1758089394.37877,1758089384.43159,0.0,0.0,0.0,16.10011,36.49741,-18.85031,9.75,0.33,2.98,3.0
1758089394.39383,1758089384.44159,0.0,0.0,0.0,17.93358,33.11696,-16.61578,9.75,0.33,2.98,3.0
1758089394.39528,1758089384.45159,0.0,0.0,0.0,19.48057,30.30947,-14.78231,9.2,0.3,2.78,3.0
1758089394.41109,1758089384.46159,0.0,0.0,0.0,20.74107,27.10091,-13.00614,9.2,0.3,2.78,3.0
1758089394.4272,1758089384.47159,0.0,0.0,0.0,21.94428,22.11617,-11.45916,8.73,0.3,2.7,3.0
1758089394.42805,1758089384.48159,0.0,0.0,0.0,22.68913,13.86558,-9.91217,8.27,0.3,2.42,3.0
1758089394.44285,1758089384.49159,0.0,0.0,0.0,22.63183,8.59437,-9.62569,8.27,0.4,2.42,3.0
1758089394.45887,1758089384.50159,0.0,0.0,0.0,22.05888,3.95341,-9.22462,8.11,0.68,2.11,3.0
1758089394.46033,1758089384.51159,0.0,0.0,0.0,21.48592,0.0573,-9.68299,8.11,0.68,2.11,3.0
1758089394.47484,1758089384.52159,0.0,0.0,0.0,19.53786,-4.52637,-10.71431,8.14,1.05,2.09,3.0
1758089394.47613,1758089384.53159,0.0,0.0,0.0,17.53251,-7.79223,-12.49048,8.14,1.05,2.09,3.0
1758089394.49108,1758089384.54159,0.0,0.0,0.0,15.64175,-11.28727,-13.80828,7.96,1.45,2.03,3.0
1758089394.5068,1758089384.55159,0.0,0.0,0.0,13.69369,-14.15206,-15.06879,7.96,1.45,2.03,3.0
1758089394.50802,1758089384.56159,0.0,0.0,0.0,10.8289,-17.93358,-15.87093,8.05,1.63,1.83,3.0
1758089394.52312,1758089384.57159,0.0,0.0,0.0,9.28192,-20.16812,-15.35527,7.98,1.53,1.64,3.0
1758089394.53895,1758089384.58159,0.0,0.0,0.0,8.136,-21.7724,-14.38124,7.98,1.53,1.64,3.0
1758089394.54012,1758089384.59159,0.0,0.0,0.0,7.10468,-22.68913,-11.91752,7.9,1.22,1.61,3.0
1758089394.55492,1758089384.60159,0.0,0.0,0.0,6.41713,-24.17882,-10.19865,7.9,1.22,1.61,3.0
1758089394.55613,1758089384.61159,0.0,0.0,0.0,6.41713,-25.21014,-8.59437,7.81,0.86,1.6,3.0
1758089394.57119,1758089384.62159,0.0,0.0,0.0,6.24524,-25.21014,-6.58902,7.81,0.86,1.6,3.0
1758089394.58721,1758089384.63159,0.0,0.0,0.0,6.41713,-24.12152,-4.29718,8.0,0.58,1.54,3.0
1758089394.58807,1758089384.64159,0.0,0.0,0.0,6.35983,-23.37668,-3.38045,8.2,0.49,1.68,3.0
1758089394.60295,1758089384.65159,0.0,0.0,0.0,6.18794,-23.0902,-2.6929,8.2,0.49,1.68,3.0
1758089394.61892,1758089384.66159,0.0,0.0,0.0,6.13065,-23.94964,-1.48969,8.33,0.67,2.07,3.0
1758089394.62016,1758089384.67159,0.0,0.0,0.0,5.27121,-26.24147,0.80214,8.33,0.67,2.07,3.0
1758089394.63494,1758089384.68159,0.0,0.0,0.0,4.81285,-27.67386,3.32316,8.66,1.07,2.81,3.0
1758089394.63617,1758089384.69159,0.0,0.0,0.0,3.89611,-25.49662,6.07335,8.66,1.07,2.81,3.0
1758089394.65092,1758089384.70159,0.0,0.0,0.0,2.11994,-18.62113,8.25059,9.65,1.63,3.01,3.0
1758089394.66697,1758089384.71159,0.0,0.0,0.0,-2.46372,-5.15662,8.99544,10.76,2.06,2.74,3.0
1758089394.66844,1758089384.72159,0.0,0.0,0.0,-5.61499,2.11994,8.47978,10.76,2.06,2.74,3.0
1758089394.68302,1758089384.73159,0.0,0.0,0.0,-7.84952,5.32851,7.73493,10.67,1.71,2.04,3.0
1758089394.69922,1758089384.74159,0.0,0.0,0.0,-9.05273,7.10468,7.67763,10.67,1.71,2.04,3.0
1758089394.70042,1758089384.75159,0.0,0.0,0.0,-10.8862,14.15206,5.50039,11.14,1.02,1.76,3.0
1758089394.71526,1758089384.76159,0.0,0.0,0.0,-12.54778,17.58981,3.20856,11.14,1.02,1.76,3.0
1758089394.71624,1758089384.77159,0.0,0.0,0.0,-13.86558,19.88164,0.34377,11.1,0.93,1.76,3.0
1758089394.73098,1758089384.78159,0.0,0.0,0.0,-15.46986,21.7724,-2.46372,11.1,0.93,1.76,3.0
1758089394.74766,1758089384.79159,0.0,0.0,0.0,-17.6471,20.3973,-5.4431,10.82,1.29,1.89,3.0
1758089394.74891,1758089384.80159,0.0,0.0,0.0,-19.59516,16.04282,-7.39116,9.95,1.73,1.87,3.0
1758089394.76421,1758089384.81159,0.0,0.0,0.0,-20.11082,6.7609,-7.33386,9.95,1.73,1.87,3.0
1758089394.76528,1758089384.82159,0.0,0.0,0.0,-20.11082,-2.6929,-5.32851,8.79,1.91,1.11,3.0
1758089394.78129,1758089384.83159,0.0,0.0,0.0,-19.48057,-9.96947,-3.26586,8.79,1.91,1.11,3.0
1758089394.79798,1758089384.84159,0.0,0.0,0.0,-17.24603,-18.22006,1.60428,8.47,1.58,1.08,3.0
1758089394.799,1758089384.85159,0.0,0.0,0.0,-16.04282,-29.04896,2.11994,8.47,1.58,1.08,3.0
1758089394.81399,1758089384.86159,0.0,0.0,0.0,-14.43854,-32.48671,3.38045,8.08,0.92,1.73,3.0
1758089394.81561,1758089384.87159,0.0,0.0,0.0,-15.46986,-15.41257,-1.03132,11.3,0.69,1.84,3.0
1758089394.83115,1758089384.88159,0.0,0.0,0.0,-17.01685,-4.18259,-5.09932,11.3,0.69,1.84,3.0
1758089394.8473,1758089384.89159,0.0,0.0,0.0,-15.98552,-0.68755,-6.58902,10.85,0.45,2.74,3.0
1758089394.84827,1758089384.90159,0.0,0.0,0.0,-16.21471,1.48969,-7.96411,10.85,0.45,2.74,3.0
1758089394.86292,1758089384.91159,0.0,0.0,0.0,-15.12609,7.33386,-5.84417,10.97,0.59,2.62,3.0
1758089394.87932,1758089384.92159,0.0,0.0,0.0,-13.12073,9.4538,-2.23454,10.97,0.59,2.62,3.0
1758089394.8818,1758089384.93159,0.0,0.0,0.0,-10.65701,10.8862,1.71887,11.54,0.67,1.85,3.0
1758089394.8975,1758089384.94159,0.0,0.0,0.0,-6.47442,12.204,7.96411,12.37,0.72,2.42,3.0
1758089394.89829,1758089384.95159,0.0,0.0,0.0,-3.89611,12.54778,11.86023,12.37,0.72,2.42,3.0
1758089394.91307,1758089384.96159,0.0,0.0,0.0,-1.3751,12.83425,14.32395,13.33,1.04,2.88,3.0
1758089394.92905,1758089384.97159,0.0,0.0,0.0,0.57296,12.71966,14.49583,13.33,1.04,2.88,3.0
1758089394.93028,1758089384.98159,0.0,0.0,0.0,1.94806,16.10011,10.37054,13.18,1.56,3.1,3.0
1758089394.94532,1758089384.99159,0.0,0.0,0.0,1.60428,18.50654,5.90147,13.18,1.56,3.1,3.0
1758089394.94708,1758089385.00159,0.0,0.0,0.0,0.17189,19.25138,0.11459,12.39,2.29,3.43,3.0
1758089394.96209,1758089385.01159,0.0,0.0,0.0,-1.48969,17.13144,-6.7609,12.39,2.29,3.43,3.0
1758089394.97795,1758089385.02159,0.0,0.0,0.0,-5.84417,11.17268,-9.5684,11.74,2.95,3.72,3.0
1758089394.9792,1758089385.03159,0.0,0.0,0.0,-8.59437,7.16197,-10.37054,11.87,3.03,3.47,3.0
1758089394.99408,1758089385.04159,0.0,0.0,0.0,-11.45916,4.69825,-10.08406,11.87,3.03,3.47,3.0
1758089394.99568,1758089385.05159,0.0,0.0,0.0,-14.72501,2.29183,-7.84952,11.84,2.32,3.06,3.0
1758089395.01135,1758089385.06159,0.0,0.0,0.0,-16.38659,0.11459,-5.95876,11.84,2.32,3.06,3.0
1758089395.02741,1758089385.07159,0.0,0.0,0.0,-17.81899,-3.03668,-4.64096,11.08,1.56,3.02,3.0
1758089395.02856,1758089385.08159,0.0,0.0,0.0,-18.44924,-7.44845,-3.09397,11.08,1.56,3.02,3.0
1758089395.04309,1758089385.09159,0.0,0.0,0.0,-18.9649,-13.86558,-1.08862,10.15,1.24,3.01,3.0
1758089395.05943,1758089385.10159,0.0,0.0,0.0,-19.36597,-17.18874,-0.17189,9.61,1.33,2.73,3.0
1758089395.06031,1758089385.11159,0.0,0.0,0.0,-19.53786,-20.34,0.57296,9.61,1.33,2.73,3.0
1758089395.0751,1758089385.12159,0.0,0.0,0.0,-19.99623,-23.83505,0.74485,8.93,1.46,2.62,3.0
1758089395.07627,1758089385.13159,0.0,0.0,0.0,-20.74107,-28.41871,0.17189,8.93,1.46,2.62,3.0
1758089395.091,1758089385.14159,0.0,0.0,0.0,-21.48592,-31.56997,-0.51566,8.18,1.41,2.46,3.0
1758089395.10707,1758089385.15159,0.0,0.0,0.0,-22.91831,-33.68992,-1.71887,8.18,1.41,2.46,3.0
1758089395.10837,1758089385.16159,0.0,0.0,0.0,-24.57989,-34.77854,-2.86479,7.69,1.03,2.31,3.0
1758089395.12353,1758089385.17159,0.0,0.0,0.0,-27.33009,-35.2369,-4.58366,7.61,0.44,2.46,3.0
1758089395.1394,1758089385.18159,0.0,0.0,0.0,-28.93437,-34.43476,-5.09932,7.61,0.44,2.46,3.0
1758089395.14032,1758089385.19159,0.0,0.0,0.0,-29.73651,-33.40344,-4.87014,7.65,-0.16,2.45,3.0
1758089395.15512,1758089385.20159,0.0,0.0,0.0,-30.13758,-32.14294,-3.60963,7.65,-0.16,2.45,3.0
1758089395.15798,1758089385.21159,0.0,0.0,0.0,-29.62192,-29.04896,-0.11459,7.71,-0.56,2.26,3.0
1758089395.17347,1758089385.22159,0.0,0.0,0.0,-28.93437,-26.12688,2.97938,7.71,-0.56,2.26,3.0
1758089395.1892,1758089385.23159,0.0,0.0,0.0,-27.96034,-23.54857,6.18794,7.86,-0.67,2.03,3.0
1758089395.19036,1758089385.24159,0.0,0.0,0.0,-25.72581,-20.3973,11.28727,7.86,-0.67,2.03,3.0
1758089395.20516,1758089385.25159,0.0,0.0,0.0,-23.72045,-17.13144,14.15206,7.97,-0.64,1.96,3.0
1758089395.20637,1758089385.26159,0.0,0.0,0.0,-22.00158,-12.2613,16.10011,8.79,-0.65,1.95,3.0
1758089395.22112,1758089385.27159,0.0,0.0,0.0,-20.3973,-6.35983,17.36062,8.79,-0.65,1.95,3.0
1758089395.23803,1758089385.28159,0.0,0.0,0.0,-18.22006,3.32316,17.36062,9.84,-0.78,2.01,3.0
1758089395.23914,1758089385.29159,0.0,0.0,0.0,-16.95955,10.65701,16.61578,9.84,-0.78,2.01,3.0
1758089395.25416,1758089385.30159,0.0,0.0,0.0,-16.272,17.58981,15.41257,10.72,-0.92,2.17,3.0
1758089395.25617,1758089385.31159,0.0,0.0,0.0,-15.35527,25.43933,14.15206,10.72,-0.92,2.17,3.0
1758089395.27259,1758089385.32159,0.0,0.0,0.0,-14.43854,35.92446,12.54778,11.15,-1.0,2.26,3.0
1758089395.28845,1758089385.33159,0.0,0.0,0.0,-13.40721,39.64868,11.97482,10.95,-1.01,2.51,3.0
1758089395.28939,1758089385.34159,0.0,0.0,0.0,-11.86023,41.13837,11.91752,10.95,-1.01,2.51,3.0
1758089395.30446,1758089385.35159,0.0,0.0,0.0,-10.54242,42.22699,11.97482,10.74,-1.04,2.52,3.0
1758089395.30619,1758089385.36159,0.0,0.0,0.0,-8.59437,43.4875,12.2613,10.74,-1.04,2.52,3.0
1758089395.32215,1758089385.37159,0.0,0.0,0.0,-7.79223,42.68536,12.54778,10.76,-1.01,2.65,3.0
1758089395.33812,1758089385.38159,0.0,0.0,0.0,-6.99009,38.21629,13.34992,10.76,-1.01,2.65,3.0
1758089395.34014,1758089385.39159,0.0,0.0,0.0,-6.18794,32.77319,14.38124,10.15,-0.79,3.09,3.0
1758089395.35545,1758089385.40159,0.0,0.0,0.0,-5.21392,25.72581,16.90226,9.96,-0.56,2.73,3.0
1758089395.35638,1758089385.41159,0.0,0.0,0.0,-4.58366,22.63183,18.50654,9.96,-0.56,2.73,3.0
1758089395.37145,1758089385.42159,0.0,0.0,0.0,-4.35448,18.90761,20.05352,9.6,-0.54,2.6,3.0
1758089395.38718,1758089385.43159,0.0,0.0,0.0,-4.35448,14.43854,21.94428,9.6,-0.54,2.6,3.0
1758089395.38839,1758089385.44159,0.0,0.0,0.0,-4.1253,6.7609,22.28806,8.99,-0.63,2.52,3.0
1758089395.40423,1758089385.45159,0.0,0.0,0.0,-4.46907,2.06265,21.94428,8.99,-0.63,2.52,3.0
1758089395.40527,1758089385.46159,0.0,0.0,0.0,-5.15662,-2.7502,21.02755,8.82,-0.71,2.15,3.0
1758089395.42148,1758089385.47159,0.0,0.0,0.0,-6.13065,-11.17268,18.73572,8.82,-0.71,2.15,3.0
1758089395.43843,1758089385.48159,0.0,0.0,0.0,-6.41713,-17.01685,17.30333,8.58,-0.72,1.97,3.0
1758089395.43942,1758089385.49159,0.0,0.0,0.0,-6.70361,-22.51724,16.272,8.41,-0.74,1.97,3.0
1758089395.45416,1758089385.50159,0.0,0.0,0.0,-6.7609,-28.07493,15.69904,8.41,-0.74,1.97,3.0
1758089395.45695,1758089385.51159,0.0,0.0,0.0,-5.61499,-32.37212,15.46986,8.46,-0.86,1.97,3.0
1758089395.47363,1758089385.52159,0.0,0.0,0.0,-4.64096,-35.06502,16.272,8.46,-0.86,1.97,3.0
1758089395.48953,1758089385.53159,0.0,0.0,0.0,-3.49504,-36.89849,17.47521,8.5,-1.07,1.99,3.0
1758089395.4912,1758089385.54159,0.0,0.0,0.0,-2.29183,-37.64333,19.25138,8.5,-1.07,1.99,3.0
1758089395.507,1758089385.55159,0.0,0.0,0.0,-0.80214,-38.73195,21.94428,8.34,-1.21,1.86,3.0
1758089395.50827,1758089385.56159,0.0,0.0,0.0,0.17189,-39.01843,23.49127,8.1,-1.18,1.75,3.0
1758089395.52355,1758089385.57159,0.0,0.0,0.0,0.97403,-38.84654,24.5226,8.1,-1.18,1.75,3.0
1758089395.53953,1758089385.58159,0.0,0.0,0.0,1.83346,-36.6693,25.09555,8.19,-0.99,1.54,3.0
1758089395.54311,1758089385.59159,0.0,0.0,0.0,2.92208,-31.91375,24.29341,8.19,-0.99,1.54,3.0
1758089395.55904,1758089385.60159,0.0,0.0,0.0,4.0107,-24.98096,23.83505,8.53,-0.81,1.48,3.0
1758089395.57784,1758089385.61159,0.0,0.0,0.0,5.72958,-14.32395,23.0329,8.53,-0.81,1.48,3.0
1758089395.57803,1758089385.62159,0.0,0.0,0.0,7.73493,-1.94806,22.57454,9.4,-0.86,1.67,3.0
1758089395.57821,1758089385.63159,0.0,0.0,0.0,10.65701,11.17268,23.60586,9.14,-1.04,1.97,3.0
1758089395.59362,1758089385.64159,0.0,0.0,0.0,12.60507,13.98017,25.15285,9.14,-1.04,1.97,3.0
1758089395.6096,1758089385.65159,0.0,0.0,0.0,14.43854,16.61578,27.67386,8.63,-1.19,1.92,3.0
1758089395.61126,1758089385.66159,0.0,0.0,0.0,16.3293,18.79302,31.28349,8.63,-1.19,1.92,3.0
1758089395.62678,1758089385.67159,0.0,0.0,0.0,17.53251,19.48057,34.09099,8.72,-1.42,1.67,3.0
1758089395.62756,1758089385.68159,0.0,0.0,0.0,18.50654,19.70975,36.15364,8.72,-1.42,1.67,3.0
1758089395.6426,1758089385.69159,0.0,0.0,0.0,20.11082,20.85567,37.58603,8.89,-1.6,1.65,3.0
1758089395.6583,1758089385.70159,0.0,0.0,0.0,21.88699,18.62113,37.87251,8.89,-1.6,1.5,3.0
1758089395.65949,1758089385.71159,0.0,0.0,0.0,22.74642,12.14671,36.6693,8.91,-1.63,1.5,3.0
1758089395.67428,1758089385.72159,0.0,0.0,0.0,22.91831,3.95341,33.34615,8.55,-1.53,1.64,3.0
1758089395.67549,1758089385.73159,0.0,0.0,0.0,22.97561,0.22918,27.33009,8.55,-1.53,1.64,3.0
1758089395.6912,1758089385.74159,0.0,0.0,0.0,27.50197,24.92367,22.86102,10.55,-1.44,0.89,3.0
1758089395.70725,1758089385.75159,0.0,0.0,0.0,31.11161,38.61736,18.10547,10.55,-1.44,0.89,3.0
1758089395.70854,1758089385.76159,0.0,0.0,0.0,33.63263,46.00851,13.34992,11.37,-1.54,2.54,3.0
1758089395.72362,1758089385.77159,0.0,0.0,0.0,35.40879,40.16434,7.44845,11.37,-1.54,2.54,3.0
1758089395.73958,1758089385.78159,0.0,0.0,0.0,35.06502,3.32316,2.86479,9.3,-1.26,3.53,3.0
1758089395.7413,1758089385.79159,0.0,0.0,0.0,39.53409,-20.74107,10.65701,8.49,-1.58,2.29,3.0
1758089395.75631,1758089385.80159,0.0,0.0,0.0,39.82057,-28.76248,13.46451,8.49,-1.58,2.29,3.0
1758089395.75828,1758089385.81159,0.0,0.0,0.0,39.07573,-32.77319,15.06879,10.68,-2.08,1.79,3.0
1758089395.77327,1758089385.82159,0.0,0.0,0.0,36.89849,-47.15443,20.3973,10.68,-2.08,1.79,3.0
1758089395.78928,1758089385.83159,0.0,0.0,0.0,33.9764,-39.4195,23.54857,9.98,-1.79,2.57,3.0
1758089395.79242,1758089385.84159,0.0,0.0,0.0,29.22085,-20.68378,22.74642,9.98,-1.79,2.57,3.0
1758089395.80723,1758089385.85159,0.0,0.0,0.0,21.37133,-4.1253,16.38659,11.86,-1.25,3.43,3.0
1758089395.80854,1758089385.86159,0.0,0.0,0.0,16.272,6.70361,10.54242,9.53,-0.23,1.74,3.0
1758089395.82359,1758089385.87159,0.0,0.0,0.0,11.86023,10.54242,5.95876,9.53,-0.23,1.74,3.0
1758089395.83966,1758089385.88159,0.0,0.0,0.0,8.0787,15.58445,2.06265,8.6,0.19,1.53,3.0
1758089395.84053,1758089385.89159,0.0,0.0,0.0,3.83882,21.7151,-1.66158,8.6,0.19,1.53,3.0
1758089395.85537,1758089385.90159,0.0,0.0,0.0,1.43239,23.0902,-3.09397,8.33,0.27,0.73,3.0
1758089395.85684,1758089385.91159,0.0,0.0,0.0,-1.14592,24.5226,-4.1253,8.33,0.27,0.73,3.0
1758089395.87139,1758089385.92159,0.0,0.0,0.0,-4.1253,27.61657,-5.32851,8.84,-0.03,1.53,3.0
1758089395.88762,1758089385.93159,0.0,0.0,0.0,-7.62034,32.71589,-7.16197,10.81,-0.03,2.1,3.0
1758089395.88858,1758089385.94159,0.0,0.0,0.0,-8.42248,34.49206,-7.79223,10.81,-0.58,2.1,3.0
1758089395.90371,1758089385.95159,0.0,0.0,0.0,-7.96411,33.86181,-7.79223,12.45,-1.3,2.87,3.0
1758089395.91966,1758089385.96159,0.0,0.0,0.0,-6.41713,31.85646,-7.21927,12.45,-1.3,2.87,3.0
1758089395.92086,1758089385.97159,0.0,0.0,0.0,-3.83882,26.98631,-5.95876,13.13,-2.12,2.76,3.0
1758089395.93545,1758089385.98159,0.0,0.0,0.0,-2.23454,24.23611,-4.98473,13.13,-2.12,2.76,3.0
1758089395.93815,1758089385.99159,0.0,0.0,0.0,-1.3751,23.60586,-4.81285,12.51,-2.67,2.12,3.0
1758089395.95357,1758089386.00159,0.0,0.0,0.0,-1.08862,26.01229,-4.64096,12.51,-2.67,2.12,3.0
1758089395.96974,1758089386.01159,0.0,0.0,0.0,-0.97403,29.50733,-4.0107,12.04,-2.57,1.99,3.0
1758089395.97142,1758089386.02159,0.0,0.0,0.0,-2.11994,27.78845,-4.64096,11.49,-1.98,3.1,3.0
1758089395.98718,1758089386.03159,0.0,0.0,0.0,-2.23454,31.97105,-3.95341,11.49,-1.98,3.1,3.0
1758089395.98839,1758089386.04159,0.0,0.0,0.0,-4.0107,29.62192,-7.44845,12.1,-1.26,4.16,3.0
1758089396.00343,1758089386.05159,0.0,0.0,0.0,-6.41713,31.85646,-7.73493,12.1,-1.26,4.16,3.0
1758089396.01969,1758089386.06159,0.0,0.0,0.0,-8.0787,29.27814,-9.85487,12.86,-1.09,4.47,3.0
1758089396.02059,1758089386.07159,0.0,0.0,0.0,-9.39651,26.35606,-12.2613,12.86,-1.09,4.47,3.0
1758089396.03561,1758089386.08159,0.0,0.0,0.0,-11.17268,24.23611,-17.24603,12.89,-0.97,3.67,3.0
1758089396.03661,1758089386.09159,0.0,0.0,0.0,-11.80293,21.60051,-21.14215,12.89,-1.0,3.33,3.0
1758089396.05267,1758089386.10159,0.0,0.0,0.0,-11.74564,18.27736,-25.21014,12.89,-1.0,3.33,3.0
1758089396.06841,1758089386.11159,0.0,0.0,0.0,-10.94349,15.12609,-29.56462,11.96,-1.15,3.47,3.0
1758089396.06954,1758089386.12159,0.0,0.0,0.0,-8.36518,10.48513,-34.26288,11.96,-1.15,3.47,3.0
1758089396.08491,1758089386.13159,0.0,0.0,0.0,-5.72958,4.69825,-36.15364,10.64,-1.54,3.83,3.0
1758089396.08565,1758089386.14159,0.0,0.0,0.0,-2.63561,-2.6929,-37.35685,10.64,-1.54,3.83,3.0
1758089396.10149,1758089386.15159,0.0,0.0,0.0,0.68755,-11.11538,-37.35685,8.92,-2.12,3.68,3.0
1758089396.11749,1758089386.16159,0.0,0.0,0.0,4.92744,-23.60586,-35.98175,8.06,-2.37,3.62,3.0
1758089396.11857,1758089386.17159,0.0,0.0,0.0,7.50575,-31.97105,-34.0337,8.06,-2.37,3.62,3.0
1758089396.13347,1758089386.18159,0.0,0.0,0.0,9.11003,-39.87786,-31.56997,7.39,-1.89,3.46,3.0
1758089396.14941,1758089386.19159,0.0,0.0,0.0,10.08406,-46.00851,-28.59059,7.39,-1.89,3.46,3.0
1758089396.15146,1758089386.20159,0.0,0.0,0.0,9.91217,-54.14451,-24.75178,7.14,-0.89,3.44,3.0
1758089396.16736,1758089386.21159,0.0,0.0,0.0,8.70896,-59.75951,-22.68913,7.14,-0.89,3.44,3.0
1758089396.16923,1758089386.22159,0.0,0.0,0.0,7.04738,-64.74423,-21.42862,6.8,0.26,3.41,3.0
1758089396.1864,1758089386.23159,0.0,0.0,0.0,4.64096,-67.26525,-21.14215,6.8,0.26,3.41,3.0
1758089396.18962,1758089386.24159,0.0,0.0,0.0,1.3751,-67.26525,-21.42862,6.85,1.14,3.05,3.0
1758089396.2073,1758089386.25159,0.0,0.0,0.0,-0.22918,-65.48907,-22.00158,6.85,1.29,2.63,3.0
1758089396.20847,1758089386.26159,0.0,0.0,0.0,-1.66158,-62.33781,-23.0329,6.85,1.29,2.63,3.0
1758089396.22344,1758089386.27159,0.0,0.0,0.0,-3.32316,-58.78547,-24.80907,6.83,0.83,2.56,3.0
1758089396.23946,1758089386.28159,0.0,0.0,0.0,-3.83882,-50.99325,-25.26744,6.83,0.83,2.56,3.0
1758089396.24067,1758089386.29159,0.0,0.0,0.0,-4.18259,-42.05511,-25.61122,7.61,0.45,2.63,3.0
1758089396.25577,1758089386.30159,0.0,0.0,0.0,-4.29718,-31.74186,-25.38203,7.61,0.45,2.63,3.0
1758089396.25747,1758089386.31159,0.0,0.0,0.0,-3.83882,-15.92823,-24.12152,9.0,0.29,2.49,3.0
1758089396.27331,1758089386.32159,0.0,0.0,0.0,-2.97938,-3.60963,-23.0902,9.98,0.25,2.25,3.0
1758089396.28949,1758089386.33159,0.0,0.0,0.0,-2.40642,9.22462,-22.51724,9.98,0.25,2.25,3.0
1758089396.29155,1758089386.34159,0.0,0.0,0.0,-1.66158,21.42862,-22.28806,10.36,0.2,2.09,3.0
1758089396.30729,1758089386.35159,0.0,0.0,0.0,-0.85944,34.60666,-23.89234,10.36,0.2,2.09,3.0
1758089396.3085,1758089386.36159,0.0,0.0,0.0,0.11459,38.38818,-25.49662,9.81,0.07,2.14,3.0
1758089396.32352,1758089386.37159,0.0,0.0,0.0,1.48969,39.13302,-26.81443,9.81,0.07,2.14,3.0
1758089396.33975,1758089386.38159,0.0,0.0,0.0,3.49504,39.76327,-27.44468,9.25,-0.06,2.25,3.0
1758089396.34073,1758089386.39159,0.0,0.0,0.0,6.18794,39.64868,-27.67386,9.34,-0.06,2.32,3.0
1758089396.35573,1758089386.40159,0.0,0.0,0.0,7.96411,38.50277,-27.04361,9.34,-0.06,2.32,3.0
1758089396.35752,1758089386.41159,0.0,0.0,0.0,9.5684,36.32552,-26.06958,9.19,0.04,2.29,3.0
1758089396.37253,1758089386.42159,0.0,0.0,0.0,11.00079,33.74722,-25.09555,9.19,0.04,2.29,3.0
1758089396.38854,1758089386.43159,0.0,0.0,0.0,12.83425,30.30947,-23.60586,9.2,0.17,2.33,3.0
1758089396.38969,1758089386.44159,0.0,0.0,0.0,13.80828,27.96034,-22.91831,9.2,0.17,2.33,3.0
1758089396.40449,1758089386.45159,0.0,0.0,0.0,14.49583,26.52795,-22.11617,9.2,0.34,2.51,3.0
1758089396.40641,1758089386.46159,0.0,0.0,0.0,14.72501,24.00693,-21.48592,9.2,0.34,2.51,3.0
1758089396.42333,1758089386.47159,0.0,0.0,0.0,14.20935,19.70975,-21.6578,9.12,0.5,2.71,3.0
1758089396.44062,1758089386.48159,0.0,0.0,0.0,13.34992,16.21471,-22.34536,8.89,0.65,2.7,3.0
1758089396.44434,1758089386.49159,0.0,0.0,0.0,12.204,11.11538,-22.63183,8.89,0.65,2.7,3.0
1758089396.45976,1758089386.50159,0.0,0.0,0.0,11.00079,2.29183,-21.7151,8.4,0.92,2.39,3.0
1758089396.46184,1758089386.51159,0.0,0.0,0.0,10.59972,-3.60963,-19.99623,8.4,0.92,2.39,3.0
1758089396.4766,1758089386.52159,0.0,0.0,0.0,10.25595,-9.85487,-17.36062,8.25,1.2,2.29,3.0
1758089396.48199,1758089386.53159,0.0,0.0,0.0,10.19865,-15.58445,-14.38124,8.25,1.2,2.29,3.0
1758089396.49855,1758089386.54159,0.0,0.0,0.0,10.02676,-22.63183,-10.59972,8.21,1.18,2.19,3.0
1758089396.50138,1758089386.55159,0.0,0.0,0.0,9.96947,-26.41335,-9.05273,8.22,0.95,2.27,3.0
1758089396.51654,1758089386.56159,0.0,0.0,0.0,10.08406,-29.8511,-8.47978,8.22,0.95,2.27,3.0
1758089396.51927,1758089386.57159,0.0,0.0,0.0,9.85487,-33.40344,-8.59437,8.07,0.79,2.27,3.0
1758089396.53451,1758089386.58159,0.0,0.0,0.0,9.68299,-37.24226,-9.33921,8.07,0.79,2.27,3.0
1758089396.53673,1758089386.59159,0.0,0.0,0.0,9.4538,-38.44547,-9.91217,8.1,0.8,2.24,3.0
1758089396.55184,1758089386.60159,0.0,0.0,0.0,8.93814,-37.12767,-10.71431,8.1,0.8,2.24,3.0
1758089396.56884,1758089386.61159,0.0,0.0,0.0,8.02141,-33.51803,-10.8862,8.47,0.93,2.13,3.0
1758089396.56972,1758089386.62159,0.0,0.0,0.0,7.10468,-28.41871,-10.54242,8.73,1.07,2.14,3.0
1758089396.5846,1758089386.63159,0.0,0.0,0.0,6.18794,-25.09555,-9.39651,8.73,1.07,2.14,3.0
1758089396.58658,1758089386.64159,0.0,0.0,0.0,5.27121,-21.88699,-8.136,8.9,1.11,2.11,3.0
1758089396.6026,1758089386.65159,0.0,0.0,0.0,4.46907,-18.16276,-6.47442,8.9,1.11,2.11,3.0
1758089396.61855,1758089386.66159,0.0,0.0,0.0,2.7502,-12.71966,-4.52637,9.06,1.12,1.89,3.0
1758089396.6198,1758089386.67159,0.0,0.0,0.0,1.71887,-9.05273,-3.03668,9.06,1.12,1.89,3.0
1758089396.63448,1758089386.68159,0.0,0.0,0.0,0.22918,-5.50039,-2.23454,9.07,1.09,1.79,3.0
1758089396.63569,1758089386.69159,0.0,0.0,0.0,-2.06265,2.46372,-2.06265,9.07,1.09,1.79,3.0
1758089396.65258,1758089386.70159,0.0,0.0,0.0,-3.55234,0.45837,-3.72423,9.4,1.11,1.94,3.0
1758089396.66861,1758089386.71159,0.0,0.0,0.0,-4.98473,-4.92744,-4.46907,8.68,1.13,1.86,3.0
1758089396.6698,1758089386.72159,0.0,0.0,0.0,-7.21927,-9.11003,-7.21927,8.68,1.13,1.86,3.0
1758089396.68458,1758089386.73159,0.0,0.0,0.0,-10.02676,-11.86023,-9.85487,9.2,1.29,1.7,3.0
1758089396.68899,1758089386.74159,0.0,0.0,0.0,-12.2613,-14.09476,-11.00079,9.2,1.29,1.7,3.0
1758089396.70461,1758089386.75159,0.0,0.0,0.0,-14.09476,-15.87093,-11.74564,9.86,1.53,1.4,3.0
1758089396.70898,1758089386.76159,0.0,0.0,0.0,-15.98552,-15.98552,-12.204,9.86,1.53,1.4,3.0
1758089396.72463,1758089386.77159,0.0,0.0,0.0,-18.85031,-14.9542,-10.48513,10.48,1.79,1.45,3.0
1758089396.72586,1758089386.78159,0.0,0.0,0.0,-20.16812,-15.64175,-8.65166,10.61,1.83,1.24,3.0
1758089396.74163,1758089386.79159,0.0,0.0,0.0,-21.37133,-16.38659,-7.04738,10.61,1.83,1.24,3.0
1758089396.75749,1758089386.80159,0.0,0.0,0.0,-21.94428,-17.81899,-4.23989,10.41,1.68,1.2,3.0
1758089396.75953,1758089386.81159,0.0,0.0,0.0,-21.94428,-20.22541,0.34377,10.41,1.68,1.2,3.0
1758089396.77666,1758089386.82159,0.0,0.0,0.0,-21.60051,-20.11082,3.03668,10.07,1.35,1.01,3.0
1758089396.77864,1758089386.83159,0.0,0.0,0.0,-20.79837,-19.70975,5.15662,10.07,1.35,1.01,3.0
1758089396.79397,1758089386.84159,0.0,0.0,0.0,-19.70975,-23.54857,6.99009,9.89,1.07,1.51,3.0
1758089396.8099,1758089386.85159,0.0,0.0,0.0,-14.38124,-50.82136,8.0787,8.58,1.03,2.54,3.0
1758089396.81156,1758089386.86159,0.0,0.0,0.0,-14.15206,-48.41494,0.97403,8.58,1.03,2.54,3.0
1758089396.82679,1758089386.87159,0.0,0.0,0.0,-16.90226,-28.64789,-10.54242,12.82,1.41,2.49,3.0
1758089396.82939,1758089386.88159,0.0,0.0,0.0,-19.07949,-11.34457,-24.4653,12.82,1.41,2.49,3.0
1758089396.84489,1758089386.89159,0.0,0.0,0.0,-20.11082,-2.23454,-25.89769,12.15,1.8,2.32,3.0
1758089396.84931,1758089386.90159,0.0,0.0,0.0,-20.45459,5.72958,-24.35071,12.15,1.8,2.32,3.0
1758089396.86564,1758089386.91159,0.0,0.0,0.0,-20.74107,16.04282,-19.13679,10.72,1.55,0.93,3.0
1758089396.86842,1758089386.92159,0.0,0.0,0.0,-19.99623,21.48592,-7.44845,10.72,1.55,0.93,3.0
1758089396.88356,1758089386.93159,0.0,0.0,0.0,-19.76705,21.7151,-0.11459,9.35,1.16,1.08,3.0
1758089396.88561,1758089386.94159,0.0,0.0,0.0,-18.79302,20.3973,5.72958,8.44,0.86,1.51,3.0
1758089396.90366,1758089386.95159,0.0,0.0,0.0,-17.24603,15.12609,9.68299,8.44,0.86,1.51,3.0
1758089396.91966,1758089386.96159,0.0,0.0,0.0,-13.06344,8.93814,12.204,8.66,0.72,1.59,3.0
1758089396.92103,1758089386.97159,0.0,0.0,0.0,-10.08406,9.11003,12.08941,8.66,0.72,1.59,3.0
1758089396.93591,1758089386.98159,0.0,0.0,0.0,-7.33386,10.19865,10.71431,10.02,0.67,1.06,3.0
1758089396.93685,1758089386.99159,0.0,0.0,0.0,-4.81285,11.57375,8.99544,10.02,0.67,1.06,3.0
1758089396.95191,1758089387.00159,0.0,0.0,0.0,-2.23454,15.58445,5.61499,10.17,0.75,1.22,3.0
1758089396.96791,1758089387.01159,0.0,0.0,0.0,-1.3751,17.6471,3.66693,10.1,0.9,1.47,3.0
1758089396.9689,1758089387.02159,0.0,0.0,0.0,-0.68755,18.50654,2.34913,10.1,0.9,1.47,3.0
1758089396.98375,1758089387.03159,0.0,0.0,0.0,-0.22918,20.3973,1.48969,10.26,1.06,1.56,3.0
1758089396.99963,1758089387.04159,0.0,0.0,0.0,0.17189,24.12152,1.83346,10.26,1.06,1.56,3.0
1758089397.00089,1758089387.05159,0.0,0.0,0.0,0.51566,25.26744,2.7502,10.98,1.31,1.58,3.0
1758089397.01592,1758089387.06159,0.0,0.0,0.0,0.80214,26.41335,4.29718,10.98,1.31,1.58,3.0
1758089397.01692,1758089387.07159,0.0,0.0,0.0,1.20321,27.2155,6.24524,11.72,1.48,1.75,3.0
1758089397.03163,1758089387.08159,0.0,0.0,0.0,2.29183,24.92367,9.22462,12.47,1.4,2.2,3.0
1758089397.04798,1758089387.09159,0.0,0.0,0.0,3.32316,23.54857,11.00079,12.47,1.4,2.2,3.0
1758089397.04895,1758089387.10159,0.0,0.0,0.0,5.32851,23.83505,12.60507,13.49,1.08,2.44,3.0
1758089397.06396,1758089387.11159,0.0,0.0,0.0,8.88085,26.06958,12.77696,13.49,1.08,2.44,3.0
1758089397.07997,1758089387.12159,0.0,0.0,0.0,11.45916,25.89769,11.34457,13.78,0.85,2.55,3.0
1758089397.08092,1758089387.13159,0.0,0.0,0.0,13.46451,25.15285,8.65166,13.78,0.85,2.55,3.0
1758089397.09598,1758089387.14159,0.0,0.0,0.0,14.78231,23.31938,5.72958,12.81,1.27,2.69,3.0
1758089397.0969,1758089387.15159,0.0,0.0,0.0,14.72501,20.05352,3.55234,12.81,1.27,3.0,3.0
1758089397.11159,1758089387.16159,0.0,0.0,0.0,13.75099,17.93358,4.35448,12.29,2.19,3.0,3.0
1758089397.12877,1758089387.17159,0.0,0.0,0.0,11.97482,15.29797,7.21927,12.77,2.57,3.4,3.0
1758089397.13243,1758089387.18159,0.0,0.0,0.0,9.4538,12.37589,10.8862,12.77,2.57,3.4,3.0
1758089397.14799,1758089387.19159,0.0,0.0,0.0,4.29718,5.84417,16.10011,12.7,2.07,3.52,3.0
1758089397.15237,1758089387.20159,0.0,0.0,0.0,0.34377,0.34377,18.50654,12.7,2.07,3.52,3.0
1758089397.16791,1758089387.21159,0.0,0.0,0.0,-3.60963,-4.98473,19.88164,11.65,1.47,3.55,3.0
1758089397.16893,1758089387.22159,0.0,0.0,0.0,-7.04738,-9.05273,19.88164,11.65,1.47,3.55,3.0
1758089397.18397,1758089387.23159,0.0,0.0,0.0,-11.00079,-15.0115,18.90761,10.68,1.21,3.44,3.0
1758089397.19972,1758089387.24159,0.0,0.0,0.0,-12.49048,-18.33465,17.53251,9.47,1.14,3.0,3.0
1758089397.20167,1758089387.25159,0.0,0.0,0.0,-13.23533,-21.60051,15.75634,9.47,1.14,3.0,3.0
1758089397.2171,1758089387.26159,0.0,0.0,0.0,-14.15206,-24.35071,13.75099,8.13,1.19,2.56,3.0
1758089397.21792,1758089387.27159,0.0,0.0,0.0,-14.72501,-28.30412,10.71431,8.13,1.19,2.56,3.0
1758089397.23268,1758089387.28159,0.0,0.0,0.0,-14.9542,-30.25217,9.22462,7.07,1.11,2.46,3.0
1758089397.24898,1758089387.29159,0.0,0.0,0.0,-14.9542,-32.48671,7.96411,7.07,1.11,2.46,3.0
1758089397.25038,1758089387.30159,0.0,0.0,0.0,-13.86558,-33.68992,7.39116,6.65,0.68,2.42,3.0
1758089397.26579,1758089387.31159,0.0,0.0,0.0,-12.60507,-32.37212,7.96411,6.91,-0.02,2.26,3.0
1758089397.26672,1758089387.32159,0.0,0.0,0.0,-11.45916,-29.62192,9.11003,6.91,-0.02,2.26,3.0
1758089397.282,1758089387.33159,0.0,0.0,0.0,-10.48513,-25.55392,10.8289,7.37,-0.61,2.12,3.0
1758089397.29805,1758089387.34159,0.0,0.0,0.0,-9.39651,-19.59516,13.80828,7.37,-0.61,2.12,3.0
1758089397.29898,1758089387.35159,0.0,0.0,0.0,-8.99544,-15.64175,15.75634,7.61,-0.84,2.12,3.0
1758089397.31372,1758089387.36159,0.0,0.0,0.0,-8.65166,-10.02676,17.81899,7.61,-0.84,2.12,3.0
1758089397.32973,1758089387.37159,0.0,0.0,0.0,-8.76626,-3.89611,19.48057,8.17,-0.73,1.93,3.0
1758089397.33179,1758089387.38159,0.0,0.0,0.0,-9.05273,4.52637,20.97026,8.64,-0.73,1.92,3.0
1758089397.34782,1758089387.39159,0.0,0.0,0.0,-9.39651,9.62569,21.31403,8.64,-0.57,1.92,3.0
1758089397.34879,1758089387.40159,0.0,0.0,0.0,-9.74028,15.46986,21.48592,8.99,-0.38,1.89,3.0
1758089397.36406,1758089387.41159,0.0,0.0,0.0,-10.08406,20.16812,22.00158,8.99,-0.38,1.89,3.0
1758089397.38004,1758089387.42159,0.0,0.0,0.0,-10.37054,25.7831,22.23076,9.09,-0.25,1.91,3.0
1758089397.38168,1758089387.43159,0.0,0.0,0.0,-10.59972,30.30947,22.74642,9.09,-0.25,1.91,3.0
1758089397.39803,1758089387.44159,0.0,0.0,0.0,-10.94349,33.40344,23.20479,9.32,-0.22,2.03,3.0
1758089397.3992,1758089387.45159,0.0,0.0,0.0,-11.28727,33.34615,23.54857,9.32,-0.22,2.03,3.0
1758089397.41386,1758089387.46159,0.0,0.0,0.0,-12.204,29.27814,23.37668,9.08,-0.18,2.3,3.0
1758089397.42997,1758089387.47159,0.0,0.0,0.0,-12.49048,27.67386,22.91831,9.45,-0.21,2.47,3.0
1758089397.43179,1758089387.48159,0.0,0.0,0.0,-12.77696,27.1582,22.00158,9.45,-0.21,2.47,3.0
1758089397.44756,1758089387.49159,0.0,0.0,0.0,-13.00614,26.06958,19.82434,9.87,-0.33,2.63,3.0
1758089397.44954,1758089387.50159,0.0,0.0,0.0,-13.75099,23.94964,18.56383,9.87,-0.33,2.63,3.0
1758089397.46479,1758089387.51159,0.0,0.0,0.0,-13.86558,20.74107,17.6471,9.78,-0.38,2.99,3.0
1758089397.46599,1758089387.52159,0.0,0.0,0.0,-13.5218,16.84496,17.18874,9.78,-0.38,2.99,3.0
1758089397.48278,1758089387.53159,0.0,0.0,0.0,-12.204,12.77696,17.53251,9.45,-0.48,2.95,3.0
1758089397.49876,1758089387.54159,0.0,0.0,0.0,-11.34457,10.94349,17.6471,9.3,-0.72,2.61,3.0
1758089397.49999,1758089387.55159,0.0,0.0,0.0,-10.59972,7.67763,17.76169,9.3,-0.72,2.61,3.0
1758089397.51585,1758089387.56159,0.0,0.0,0.0,-10.25595,2.86479,17.01685,8.68,-0.83,2.62,3.0
1758089397.51759,1758089387.57159,0.0,0.0,0.0,-10.08406,-4.87014,14.61043,8.68,-0.83,2.62,3.0
1758089397.53306,1758089387.58159,0.0,0.0,0.0,-10.19865,-9.5684,12.43318,8.53,-0.69,2.46,3.0
1758089397.54904,1758089387.59159,0.0,0.0,0.0,-10.37054,-14.72501,10.31324,8.53,-0.69,2.46,3.0
1758089397.54945,1758089387.60159,0.0,0.0,0.0,-10.54242,-20.85567,8.36518,8.35,-0.47,2.14,3.0
1758089397.56828,1758089387.61159,0.0,0.0,0.0,-10.71431,-28.13223,6.13065,8.4,-0.39,2.26,3.0
1758089397.59457,1758089387.62159,0.0,0.0,0.0,-10.54242,-32.83048,5.95876,8.4,-0.39,2.26,3.0
1758089397.59831,1758089387.63159,0.0,0.0,0.0,-10.19865,-36.03905,6.41713,8.63,-0.57,2.2,3.0
1758089397.59978,1758089387.64159,0.0,0.0,0.0,-9.91217,-37.47144,7.16197,8.63,-0.57,2.2,3.0
1758089397.60014,1758089387.65159,0.0,0.0,0.0,-9.85487,-37.47144,9.11003,8.99,-0.8,2.19,3.0
1758089397.61681,1758089387.66159,0.0,0.0,0.0,-10.08406,-36.89849,10.48513,8.99,-0.8,2.19,3.0
1758089397.61802,1758089387.67159,0.0,0.0,0.0,-10.48513,-35.58068,11.34457,9.0,-0.8,1.86,3.0
1758089397.6331,1758089387.68159,0.0,0.0,0.0,-11.17268,-34.37747,11.57375,9.0,-0.8,1.86,3.0
1758089397.64906,1758089387.69159,0.0,0.0,0.0,-11.63104,-29.50733,12.14671,8.88,-0.61,1.62,3.0
1758089397.6495,1758089387.70159,0.0,0.0,0.0,-11.91752,-28.30412,11.80293,8.63,-0.43,1.57,3.0
1758089397.66508,1758089387.71159,0.0,0.0,0.0,-12.37589,-26.18417,10.94349,8.63,-0.43,1.57,3.0
1758089397.66637,1758089387.72159,0.0,0.0,0.0,-13.06344,-22.40265,9.4538,8.87,-0.39,1.63,3.0
1758089397.68283,1758089387.73159,0.0,0.0,0.0,-12.83425,-16.50119,9.62569,8.87,-0.39,1.63,3.0
1758089397.69882,1758089387.74159,0.0,0.0,0.0,-11.74564,-7.44845,10.25595,9.57,-0.63,1.85,3.0
1758089397.69955,1758089387.75159,0.0,0.0,0.0,-9.68299,3.26586,11.45916,9.57,-0.63,1.85,3.0
1758089397.71884,1758089387.76159,0.0,0.0,0.0,-6.58902,13.34992,12.83425,10.5,-1.29,2.14,3.0
1758089397.71959,1758089387.77159,0.0,0.0,0.0,-3.83882,17.93358,13.80828,10.03,-1.75,2.07,3.0
1758089397.73583,1758089387.78159,0.0,0.0,0.0,-0.97403,21.37133,14.83961,10.03,-1.75,2.07,3.0
1758089397.73707,1758089387.79159,0.0,0.0,0.0,2.06265,23.0329,16.38659,9.58,-1.75,2.18,3.0
1758089397.75313,1758089387.80159,0.0,0.0,0.0,6.35983,23.66316,19.25138,9.58,-1.75,2.18,3.0
1758089397.76909,1758089387.81159,0.0,0.0,0.0,9.33921,24.92367,21.42862,9.36,-1.76,1.93,3.0
1758089397.76945,1758089387.82159,0.0,0.0,0.0,12.204,25.8404,22.91831,9.36,-1.76,1.93,3.0
1758089397.78592,1758089387.83159,0.0,0.0,0.0,15.58445,26.81443,23.66316,9.52,-1.89,1.95,3.0
1758089397.78824,1758089387.84159,0.0,0.0,0.0,19.13679,19.76705,22.97561,9.17,-1.83,1.65,3.0
1758089397.80291,1758089387.85159,0.0,0.0,0.0,19.76705,11.22997,19.82434,9.17,-1.83,1.65,3.0
1758089397.8192,1758089387.86159,0.0,0.0,0.0,19.99623,6.35983,14.20935,9.15,-1.39,1.23,3.0
1758089397.81955,1758089387.87159,0.0,0.0,0.0,21.42862,24.12152,10.02676,9.15,-1.39,1.23,3.0
1758089397.83605,1758089387.88159,0.0,0.0,0.0,25.43933,47.67009,7.62034,12.0,-1.38,1.52,3.0
1758089397.83869,1758089387.89159,0.0,0.0,0.0,27.1582,53.80074,4.18259,12.0,-1.38,1.52,3.0
1758089397.85388,1758089387.90159,0.0,0.0,0.0,27.78845,54.3737,1.83346,9.97,-1.18,3.13,3.0
1758089397.85677,1758089387.91159,0.0,0.0,0.0,28.30412,37.92981,-3.72423,9.97,-1.18,3.13,3.0
1758089397.87219,1758089387.92159,0.0,0.0,0.0,26.81443,-19.70975,3.26586,7.45,-1.06,3.83,3.0
1758089397.88814,1758089387.93159,0.0,0.0,0.0,24.5226,-52.76942,10.19865,7.01,-1.37,2.1,3.0
1758089397.88953,1758089387.94159,0.0,0.0,0.0,23.66316,-64.74423,23.66316,7.01,-1.37,2.1,3.0
1758089397.90792,1758089387.95159,0.0,0.0,0.0,18.10547,-40.27893,34.0337,11.97,-1.86,2.36,3.0
1758089397.91032,1758089387.96159,0.0,0.0,0.0,16.10011,-23.94964,35.58068,11.97,-1.86,2.36,3.0
1758089397.92814,1758089387.97159,0.0,0.0,0.0,14.20935,-16.84496,32.88778,11.27,-1.38,2.21,3.0
1758089397.92932,1758089387.98159,0.0,0.0,0.0,11.45916,-15.98552,27.2155,11.27,-1.38,2.21,3.0
1758089397.94494,1758089387.99159,0.0,0.0,0.0,5.95876,-2.7502,12.37589,8.15,-0.57,3.18,3.0
1758089397.94611,1758089388.00159,0.0,0.0,0.0,3.83882,4.98473,2.97938,8.21,-0.05,2.08,3.0
1758089397.96079,1758089388.01159,0.0,0.0,0.0,4.46907,5.27121,-1.48969,8.21,-0.05,2.08,3.0
1758089397.97688,1758089388.02159,0.0,0.0,0.0,4.0107,6.35983,-5.32851,8.05,-0.23,2.06,3.0
1758089397.97894,1758089388.03159,0.0,0.0,0.0,5.15662,10.71431,-5.21392,8.05,-0.23,2.06,3.0
1758089397.99393,1758089388.04159,0.0,0.0,0.0,5.95876,13.12073,-3.09397,10.33,-1.07,2.6,3.0
1758089397.9965,1758089388.05159,0.0,0.0,0.0,7.04738,15.92823,-0.57296,10.33,-1.07,2.6,3.0
1758089398.01293,1758089388.06159,0.0,0.0,0.0,8.36518,21.6578,2.00535,11.9,-2.06,2.24,3.0
1758089398.01413,1758089388.07159,0.0,0.0,0.0,11.11538,26.75713,5.27121,11.96,-2.67,2.25,3.0
1758089398.02948,1758089388.08159,0.0,0.0,0.0,13.5791,24.5226,7.67763,11.96,-2.67,2.25,3.0
1758089398.04595,1758089388.09159,0.0,0.0,0.0,16.272,22.00158,9.4538,10.48,-2.65,2.25,3.0
1758089398.04717,1758089388.10159,0.0,0.0,0.0,18.27736,19.76705,10.65701,10.48,-2.65,2.25,3.0
1758089398.06195,1758089388.11159,0.0,0.0,0.0,19.99623,16.272,10.8289,9.72,-2.42,2.41,3.0
1758089398.078,1758089388.12159,0.0,0.0,0.0,20.51189,14.83961,10.48513,9.72,-2.42,2.41,3.0
1758089398.07909,1758089388.13159,0.0,0.0,0.0,20.79837,17.30333,9.74028,9.13,-2.14,2.16,3.0
1758089398.09396,1758089388.14159,0.0,0.0,0.0,19.99623,24.5226,9.4538,9.13,-2.14,2.16,3.0
1758089398.09518,1758089388.15159,0.0,0.0,0.0,19.59516,30.02299,9.91217,9.02,-1.88,2.13,3.0
1758089398.11136,1758089388.16159,0.0,0.0,0.0,19.42327,34.60666,10.94349,8.72,-1.69,2.08,3.0
1758089398.12728,1758089388.17159,0.0,0.0,0.0,19.13679,39.99245,11.22997,8.72,-1.69,2.08,3.0
1758089398.12819,1758089388.18159,0.0,0.0,0.0,19.36597,44.00316,13.69369,8.84,-1.5,1.79,3.0
1758089398.14323,1758089388.19159,0.0,0.0,0.0,19.48057,42.05511,15.12609,8.84,-1.5,1.79,3.0
1758089398.14417,1758089388.20159,0.0,0.0,0.0,19.76705,38.78925,16.84496,8.89,-1.36,2.0,3.0
1758089398.15955,1758089388.21159,0.0,0.0,0.0,19.19409,34.37747,16.90226,8.89,-1.36,2.0,3.0
1758089398.17524,1758089388.22159,0.0,0.0,0.0,17.47521,24.12152,15.58445,9.28,-1.17,1.98,3.0
1758089398.17692,1758089388.23159,0.0,0.0,0.0,15.58445,16.67307,12.83425,9.49,-1.03,2.38,3.0
1758089398.192,1758089388.24159,0.0,0.0,0.0,13.75099,12.204,9.05273,9.49,-1.03,2.38,3.0
1758089398.20788,1758089388.25159,0.0,0.0,0.0,12.54778,9.85487,5.61499,10.03,-1.03,2.73,3.0
1758089398.20926,1758089388.26159,0.0,0.0,0.0,11.57375,7.16197,1.3751,10.03,-1.03,2.73,3.0
1758089398.22399,1758089388.27159,0.0,0.0,0.0,11.17268,6.24524,-0.68755,10.22,-1.38,3.92,3.0
1758089398.22617,1758089388.28159,0.0,0.0,0.0,10.94349,6.24524,-2.46372,10.22,-1.38,3.92,3.0
1758089398.24299,1758089388.29159,0.0,0.0,0.0,11.11538,6.8182,-3.72423,10.69,-1.79,4.19,3.0
1758089398.24426,1758089388.30159,0.0,0.0,0.0,11.80293,9.11003,-5.61499,11.51,-2.02,4.09,3.0
1758089398.25978,1758089388.31159,0.0,0.0,0.0,12.49048,11.97482,-6.53172,11.51,-2.02,4.09,3.0
1758089398.27508,1758089388.32159,0.0,0.0,0.0,13.17803,15.35527,-7.44845,12.71,-2.17,4.34,3.0
1758089398.27626,1758089388.33159,0.0,0.0,0.0,13.75099,18.50654,-9.05273,12.71,-2.17,4.34,3.0
1758089398.29146,1758089388.34159,0.0,0.0,0.0,14.38124,25.61122,-9.91217,14.01,-2.09,4.86,3.0
1758089398.30702,1758089388.35159,0.0,0.0,0.0,14.49583,30.02299,-11.17268,14.01,-2.09,4.86,3.0
1758089398.30827,1758089388.36159,0.0,0.0,0.0,14.43854,31.97105,-11.91752,14.9,-1.72,5.28,3.0
1758089398.32327,1758089388.37159,0.0,0.0,0.0,13.75099,30.25217,-11.63104,14.9,-1.72,5.28,3.0
1758089398.32423,1758089388.38159,0.0,0.0,0.0,13.06344,35.00772,-13.69369,14.34,-1.33,5.19,3.0
1758089398.33954,1758089388.39159,0.0,0.0,0.0,13.17803,37.18496,-13.12073,13.47,-1.36,5.06,3.0
1758089398.35498,1758089388.40159,0.0,0.0,0.0,13.86558,32.6013,-13.34992,13.47,-1.36,5.06,3.0
1758089398.35862,1758089388.41159,0.0,0.0,0.0,13.75099,27.50197,-14.15206,10.99,-1.53,4.89,3.0
1758089398.37485,1758089388.42159,0.0,0.0,0.0,13.23533,26.18417,-14.20935,10.99,-1.53,4.89,3.0
1758089398.37644,1758089388.43159,0.0,0.0,0.0,12.71966,22.86102,-13.5218,9.65,-1.4,4.52,3.0
1758089398.39104,1758089388.44159,0.0,0.0,0.0,11.86023,16.84496,-12.37589,9.65,-1.4,4.52,3.0
1758089398.40706,1758089388.45159,0.0,0.0,0.0,9.85487,7.50575,-9.85487,7.66,-1.06,3.76,3.0
1758089398.40826,1758089388.46159,0.0,0.0,0.0,8.136,1.20321,-8.02141,6.55,-0.68,3.46,3.0
1758089398.4233,1758089388.47159,0.0,0.0,0.0,6.18794,-6.18794,-6.70361,6.55,-0.68,3.46,3.0
1758089398.42426,1758089388.48159,0.0,0.0,0.0,3.66693,-15.06879,-5.90147,5.71,-0.26,3.11,3.0
1758089398.44062,1758089388.49159,0.0,0.0,0.0,-0.85944,-28.476,-6.35983,5.71,-0.26,3.11,3.0
1758089398.45608,1758089388.50159,0.0,0.0,0.0,-4.29718,-37.75792,-7.50575,5.47,0.24,3.2,3.0
1758089398.4573,1758089388.51159,0.0,0.0,0.0,-8.136,-46.52417,-8.99544,5.47,0.24,3.2,3.0
1758089398.47231,1758089388.52159,0.0,0.0,0.0,-11.86023,-54.3164,-10.71431,5.68,0.72,3.16,3.0
1758089398.48813,1758089388.53159,0.0,0.0,0.0,-17.58981,-64.22858,-14.09476,6.11,0.72,3.22,3.0
1758089398.48928,1758089388.54159,0.0,0.0,0.0,-20.74107,-70.41652,-16.61578,6.11,0.72,3.22,3.0
1758089398.5044,1758089388.55159,0.0,0.0,0.0,-23.31938,-73.79697,-19.25138,6.44,0.19,2.8,3.0
1758089398.50529,1758089388.56159,0.0,0.0,0.0,-25.7831,-75.63043,-23.0902,6.44,0.19,2.8,3.0
1758089398.5204,1758089388.57159,0.0,0.0,0.0,-26.41335,-76.1461,-25.26744,6.72,-0.22,2.38,3.0
1758089398.53638,1758089388.58159,0.0,0.0,0.0,-26.35606,-74.94289,-26.47065,6.72,-0.22,2.38,3.0
1758089398.53729,1758089388.59159,0.0,0.0,0.0,-26.12688,-71.56243,-27.50197,7.06,-0.37,2.31,3.0
1758089398.55213,1758089388.60159,0.0,0.0,0.0,-25.09555,-64.74423,-28.13223,7.06,-0.37,2.31,3.0
1758089398.56811,1758089388.61159,0.0,0.0,0.0,-24.23611,-59.12925,-28.07493,7.76,-0.36,2.25,3.0
1758089398.56932,1758089388.62159,0.0,0.0,0.0,-23.26209,-52.65482,-27.67386,8.54,-0.42,2.2,3.0
1758089398.58407,1758089388.63159,0.0,0.0,0.0,-22.51724,-45.14908,-26.98631,8.54,-0.42,2.2,3.0
1758089398.58613,1758089388.64159,0.0,0.0,0.0,-21.31403,-33.34615,-25.21014,9.18,-0.55,2.09,3.0
1758089398.60137,1758089388.65159,0.0,0.0,0.0,-20.79837,-25.15285,-24.4653,9.18,-0.55,2.09,3.0
1758089398.61715,1758089388.66159,0.0,0.0,0.0,-20.45459,-16.90226,-24.12152,9.44,-0.71,2.15,3.0
1758089398.61839,1758089388.67159,0.0,0.0,0.0,-20.22541,-8.70896,-24.57989,9.44,-0.71,2.15,3.0
1758089398.63335,1758089388.68159,0.0,0.0,0.0,-19.19409,2.7502,-26.24147,9.75,-0.76,2.37,3.0
1758089398.63436,1758089388.69159,0.0,0.0,0.0,-18.16276,8.76626,-27.96034,10.05,-0.86,2.65,3.0
1758089398.6504,1758089388.70159,0.0,0.0,0.0,-16.50119,12.2613,-30.13758,10.05,-0.86,2.65,3.0
1758089398.66733,1758089388.71159,0.0,0.0,0.0,-14.15206,13.80828,-31.85646,10.07,-1.02,2.87,3.0
1758089398.66909,1758089388.72159,0.0,0.0,0.0,-10.8289,15.69904,-33.40344,10.07,-1.02,2.87,3.0
1758089398.68415,1758089388.73159,0.0,0.0,0.0,-8.70896,17.58981,-33.63263,10.56,-1.01,3.17,3.0
1758089398.68801,1758089388.74159,0.0,0.0,0.0,-6.7609,18.62113,-33.00237,10.56,-1.01,3.17,3.0
1758089398.7031,1758089388.75159,0.0,0.0,0.0,-4.0107,18.90761,-30.65324,10.65,-0.85,3.2,3.0
1758089398.70434,1758089388.76159,0.0,0.0,0.0,-2.29183,16.84496,-27.84575,10.19,-0.64,3.17,3.0
1758089398.72114,1758089388.77159,0.0,0.0,0.0,-0.80214,13.5218,-25.38203,10.19,-0.64,3.17,3.0
1758089398.73715,1758089388.78159,0.0,0.0,0.0,-0.0573,11.00079,-22.63183,9.58,-0.33,2.92,3.0
1758089398.73836,1758089388.79159,0.0,0.0,0.0,0.22918,6.7609,-19.42327,9.58,-0.33,2.92,3.0
1758089398.75342,1758089388.80159,0.0,0.0,0.0,0.57296,3.38045,-17.76169,9.15,-0.05,2.44,3.0
1758089398.75434,1758089388.81159,0.0,0.0,0.0,0.97403,-0.17189,-16.3293,9.15,-0.05,2.44,3.0
1758089398.77066,1758089388.82159,0.0,0.0,0.0,1.60428,-4.35448,-14.9542,8.94,0.11,2.28,3.0
1758089398.78746,1758089388.83159,0.0,0.0,0.0,2.63561,-11.17268,-13.40721,8.83,0.11,2.02,3.0
1758089398.78867,1758089388.84159,0.0,0.0,0.0,3.60963,-15.24068,-12.60507,8.83,0.06,2.02,3.0
1758089398.8035,1758089388.85159,0.0,0.0,0.0,4.52637,-18.56383,-11.74564,8.83,-0.02,1.79,3.0
1758089398.80437,1758089388.86159,0.0,0.0,0.0,5.21392,-21.94428,-10.8862,8.83,-0.02,1.79,3.0
1758089398.82039,1758089388.87159,0.0,0.0,0.0,6.24524,-25.89769,-10.59972,8.72,-0.05,1.85,3.0
1758089398.83774,1758089388.88159,0.0,0.0,0.0,6.7609,-28.36141,-10.65701,8.72,-0.05,1.85,3.0
1758089398.83899,1758089388.89159,0.0,0.0,0.0,7.10468,-29.8511,-10.8289,8.67,0.06,1.83,3.0
1758089398.85421,1758089388.90159,0.0,0.0,0.0,7.10468,-30.36677,-11.11538,8.67,0.06,1.83,3.0
1758089398.85567,1758089388.91159,0.0,0.0,0.0,6.99009,-29.22085,-11.86023,8.85,0.25,1.81,3.0
1758089398.87019,1758089388.92159,0.0,0.0,0.0,6.87549,-28.30412,-12.37589,9.05,0.41,1.79,3.0
1758089398.8878,1758089388.93159,0.0,0.0,0.0,6.70361,-27.10091,-12.83425,9.05,0.41,1.79,3.0
1758089398.88899,1758089388.94159,0.0,0.0,0.0,6.70361,-25.38203,-12.89155,9.23,0.48,1.72,3.0
1758089398.90444,1758089388.95159,0.0,0.0,0.0,7.39116,-22.57454,-12.37589,9.23,0.48,1.72,3.0
1758089398.9054,1758089388.96159,0.0,0.0,0.0,8.136,-21.60051,-11.00079,9.3,0.41,1.61,3.0
1758089398.92047,1758089388.97159,0.0,0.0,0.0,8.88085,-20.62648,-9.85487,9.3,0.41,1.61,3.0
1758089398.93716,1758089388.98159,0.0,0.0,0.0,10.25595,-17.47521,-6.8182,9.2,0.28,1.61,3.0
1758089398.93841,1758089388.99159,0.0,0.0,0.0,10.8289,-12.37589,-5.21392,9.4,0.22,1.59,3.0
1758089398.95396,1758089389.00159,0.0,0.0,0.0,10.8862,-5.4431,-3.66693,9.4,0.22,1.59,3.0
1758089398.95528,1758089389.01159,0.0,0.0,0.0,10.25595,0.22918,-3.66693,9.68,0.38,2.04,3.0
1758089398.97146,1758089389.02159,0.0,0.0,0.0,9.33921,-5.72958,-3.32316,9.68,0.38,2.04,3.0
1758089398.98751,1758089389.03159,0.0,0.0,0.0,6.70361,-8.59437,-5.90147,9.09,0.66,1.76,3.0
1758089398.98844,1758089389.04159,0.0,0.0,0.0,5.27121,-10.48513,-6.70361,9.09,0.66,1.76,3.0
1758089399.00428,1758089389.05159,0.0,0.0,0.0,1.94806,-11.86023,-8.70896,9.69,1.1,1.52,3.0
1758089399.00527,1758089389.06159,0.0,0.0,0.0,-2.40642,-15.64175,-11.51645,9.75,1.54,1.2,3.0
1758089399.02057,1758089389.07159,0.0,0.0,0.0,-5.15662,-15.69904,-13.34992,9.75,1.54,1.2,3.0
1758089399.03636,1758089389.08159,0.0,0.0,0.0,-7.33386,-16.38659,-14.03747,9.92,1.8,1.08,3.0
1758089399.03905,1758089389.09159,0.0,0.0,0.0,-10.8289,-15.58445,-15.0115,9.92,1.8,1.08,3.0
1758089399.05429,1758089389.10159,0.0,0.0,0.0,-12.71966,-20.22541,-14.49583,9.68,1.8,0.93,3.0
1758089399.05545,1758089389.11159,0.0,0.0,0.0,-12.83425,-24.12152,-12.14671,9.68,1.8,0.93,3.0
1758089399.0703,1758089389.12159,0.0,0.0,0.0,-12.54778,-24.12152,-9.5684,9.4,1.47,0.47,3.0
1758089399.08728,1758089389.13159,0.0,0.0,0.0,-12.43318,-22.28806,-7.50575,9.4,1.47,0.47,3.0
1758089399.08942,1758089389.14159,0.0,0.0,0.0,-11.45916,-21.94428,-3.83882,9.84,1.08,0.82,3.0
1758089399.10463,1758089389.15159,0.0,0.0,0.0,-11.80293,-25.38203,-2.00535,9.8,0.74,1.35,3.0
1758089399.1055,1758089389.16159,0.0,0.0,0.0,-11.80293,-21.60051,-0.22918,9.8,0.74,1.35,3.0
1758089399.12029,1758089389.17159,0.0,0.0,0.0,-16.3293,-5.21392,-4.69825,11.98,0.94,1.92,3.0
1758089399.13719,1758089389.18159,0.0,0.0,0.0,-19.53786,-0.57296,-8.76626,11.98,0.94,1.92,3.0
1758089399.13887,1758089389.19159,0.0,0.0,0.0,-21.31403,-23.60586,-12.83425,10.22,1.58,3.32,3.0
1758089399.15335,1758089389.20159,0.0,0.0,0.0,-23.89234,-35.69527,-19.19409,10.22,1.58,3.32,3.0
1758089399.1545,1758089389.21159,0.0,0.0,0.0,-24.92367,-9.22462,-23.0329,10.43,1.89,2.64,3.0
1758089399.17133,1758089389.22159,0.0,0.0,0.0,-24.23611,3.89611,-20.85567,12.24,1.51,0.78,3.0
1758089399.18728,1758089389.23159,0.0,0.0,0.0,-23.60586,4.92744,-16.3293,12.24,1.51,0.78,3.0
1758089399.18937,1758089389.24159,0.0,0.0,0.0,-22.63183,8.76626,-10.48513,9.51,0.7,1.13,3.0
1758089399.20457,1758089389.25159,0.0,0.0,0.0,-20.3973,18.44924,-2.00535,9.51,0.7,1.13,3.0
1758089399.20706,1758089389.26159,0.0,0.0,0.0,-18.79302,18.50654,2.46372,9.79,0.26,1.04,3.0
1758089399.22361,1758089389.27159,0.0,0.0,0.0,-17.53251,18.79302,5.15662,9.79,0.26,1.04,3.0
1758089399.22449,1758089389.28159,0.0,0.0,0.0,-16.55848,23.0329,6.24524,9.69,0.53,0.75,3.0
1758089399.24356,1758089389.29159,0.0,0.0,0.0,-15.12609,29.27814,4.92744,10.69,1.0,0.9,3.0
1758089399.24481,1758089389.30159,0.0,0.0,0.0,-14.72501,30.36677,2.86479,10.69,1.0,0.9,3.0
1758089399.26358,1758089389.31159,0.0,0.0,0.0,-14.66772,30.59595,0.22918,10.84,1.24,1.17,3.0
1758089399.26476,1758089389.32159,0.0,0.0,0.0,-14.66772,31.11161,-2.23454,10.84,1.24,1.17,3.0
1758089399.31417,1758089389.33159,0.0,0.0,0.0,-15.12609,28.93437,-5.50039,10.98,1.12,1.23,3.0
1758089399.3386,1758089389.34159,0.0,0.0,0.0,-15.24068,24.92367,-6.7609,10.98,1.12,1.23,3.0
1758089399.33926,1758089389.35159,0.0,0.0,0.0,-14.83961,21.7151,-7.04738,10.49,0.81,1.2,3.0
1758089399.34287,1758089389.36159,0.0,0.0,0.0,-14.15206,19.99623,-6.24524,10.49,0.81,1.2,3.0
1758089399.34508,1758089389.37159,0.0,0.0,0.0,-12.08941,17.76169,-4.98473,10.57,0.54,1.23,3.0
1758089399.3495,1758089389.38159,0.0,0.0,0.0,-9.62569,16.55848,-3.03668,10.79,0.44,1.66,3.0
1758089399.35014,1758089389.39159,0.0,0.0,0.0,-6.13065,15.64175,-0.68755,10.79,0.44,1.66,3.0
1758089399.35169,1758089389.40159,0.0,0.0,0.0,0.97403,14.38124,4.18259,11.52,0.55,2.16,3.0
1758089399.36753,1758089389.41159,0.0,0.0,0.0,5.90147,12.71966,6.70361,11.52,0.55,2.16,3.0
1758089399.36856,1758089389.42159,0.0,0.0,0.0,9.4538,13.17803,7.44845,12.11,0.83,2.41,3.0
1758089399.38337,1758089389.43159,0.0,0.0,0.0,11.74564,14.61043,6.47442,12.11,0.83,2.41,3.0
1758089399.38457,1758089389.44159,0.0,0.0,0.0,13.5791,16.55848,3.32316,12.36,1.35,2.68,3.0
1758089399.40162,1758089389.45159,0.0,0.0,0.0,13.69369,16.67307,1.94806,12.27,1.96,2.99,3.0
1758089399.41872,1758089389.46159,0.0,0.0,0.0,13.00614,16.10011,1.43239,12.27,1.96,2.99,3.0
1758089399.41959,1758089389.47159,0.0,0.0,0.0,12.43318,16.84496,3.09397,13.39,1.68,3.3,3.0
1758089399.43435,1758089389.48159,0.0,0.0,0.0,10.94349,22.00158,5.72958,13.39,1.68,3.3,3.0
1758089399.43631,1758089389.49159,0.0,0.0,0.0,9.5684,23.66316,6.24524,14.16,0.52,3.37,3.0
1758089399.45172,1758089389.50159,0.0,0.0,0.0,8.30789,23.72045,6.35983,14.16,0.52,3.37,3.0
1758089399.4684,1758089389.51158,0.0,0.0,0.0,7.33386,21.6578,6.24524,12.83,-0.11,3.78,3.0
1758089399.46964,1758089389.52158,0.0,0.0,0.0,7.10468,16.67307,6.7609,11.3,0.1,3.7,3.0
1758089399.48436,1758089389.53158,0.0,0.0,0.0,7.39116,12.77696,7.62034,11.3,0.1,3.7,3.0
1758089399.48558,1758089389.54158,0.0,0.0,0.0,7.21927,8.93814,8.59437,9.87,0.74,3.1,3.0
1758089399.50055,1758089389.55158,0.0,0.0,0.0,6.70361,5.15662,9.05273,9.87,0.74,3.1,3.0
1758089399.51642,1758089389.56158,0.0,0.0,0.0,4.69825,-1.71887,9.05273,8.52,1.1,2.72,3.0
1758089399.51867,1758089389.57158,0.0,0.0,0.0,2.92208,-6.87549,8.70896,8.52,1.1,2.72,3.0
1758089399.53366,1758089389.58158,0.0,0.0,0.0,0.45837,-12.54778,8.25059,7.33,1.16,2.55,3.0
1758089399.53546,1758089389.59158,0.0,0.0,0.0,-2.6929,-18.33465,8.47978,7.33,1.16,2.55,3.0
1758089399.55142,1758089389.60158,0.0,0.0,0.0,-4.18259,-26.52795,9.28192,6.68,1.03,2.52,3.0
1758089399.56739,1758089389.61158,0.0,0.0,0.0,-5.21392,-30.82513,10.37054,6.57,0.66,2.48,3.0
1758089399.56863,1758089389.62158,0.0,0.0,0.0,-5.21392,-34.32018,11.91752,6.57,0.66,2.48,3.0
1758089399.58366,1758089389.63158,0.0,0.0,0.0,-4.69825,-37.64333,14.83961,6.69,0.19,2.34,3.0
1758089399.58573,1758089389.64158,0.0,0.0,0.0,-4.46907,-38.50277,16.84496,6.69,0.19,2.34,3.0
1758089399.60222,1758089389.65158,0.0,0.0,0.0,-4.29718,-39.01843,18.50654,6.98,-0.11,2.35,3.0
1758089399.61843,1758089389.66158,0.0,0.0,0.0,-4.64096,-38.21629,19.70975,6.98,-0.11,2.35,3.0
1758089399.61989,1758089389.67158,0.0,0.0,0.0,-5.55769,-35.3515,20.79837,7.46,-0.12,2.5,3.0
1758089399.63804,1758089389.68158,0.0,0.0,0.0,-6.58902,-32.37212,21.31403,8.17,0.12,2.48,3.0
1758089399.63931,1758089389.69158,0.0,0.0,0.0,-8.25059,-28.64789,21.42862,8.17,0.12,2.48,3.0
1758089399.65445,1758089389.70158,0.0,0.0,0.0,-10.19865,-23.60586,21.25674,8.89,0.52,2.39,3.0
1758089399.65593,1758089389.71158,0.0,0.0,0.0,-13.12073,-14.20935,20.97026,8.89,0.52,2.39,3.0
1758089399.67157,1758089389.72158,0.0,0.0,0.0,-15.29797,-8.02141,20.16812,9.43,0.69,2.26,3.0
1758089399.68772,1758089389.73158,0.0,0.0,0.0,-17.01685,-1.77617,19.53786,9.43,0.69,2.26,3.0
1758089399.68867,1758089389.74158,0.0,0.0,0.0,-18.85031,4.52637,18.33465,9.66,0.5,2.12,3.0
1758089399.70344,1758089389.75158,0.0,0.0,0.0,-20.11082,14.32395,16.272,10.1,0.0,2.07,3.0
1758089399.70549,1758089389.76158,0.0,0.0,0.0,-20.34,21.25674,14.61043,10.1,0.0,2.07,3.0
1758089399.72134,1758089389.77158,0.0,0.0,0.0,-20.11082,28.07493,13.06344,10.27,-0.44,1.95,3.0
1758089399.7385,1758089389.78158,0.0,0.0,0.0,-19.42327,33.34615,11.11538,10.27,-0.44,1.95,3.0
1758089399.7397,1758089389.79158,0.0,0.0,0.0,-18.16276,35.86716,10.08406,9.85,-0.58,2.09,3.0
1758089399.7545,1758089389.80158,0.0,0.0,0.0,-17.13144,35.52338,9.11003,9.85,-0.58,2.09,3.0
1758089399.75804,1758089389.81158,0.0,0.0,0.0,-15.75634,35.98175,8.42248,9.74,-0.56,2.27,3.0
1758089399.77345,1758089389.82158,0.0,0.0,0.0,-14.15206,36.6693,7.67763,9.74,-0.56,2.27,3.0
1758089399.77553,1758089389.83158,0.0,0.0,0.0,-13.5218,35.75257,7.10468,10.1,-0.5,2.32,3.0
1758089399.7928,1758089389.84158,0.0,0.0,0.0,-13.06344,34.14828,7.04738,9.92,-0.4,2.48,3.0
1758089399.80869,1758089389.85158,0.0,0.0,0.0,-12.77696,31.45539,6.99009,9.92,-0.4,2.48,3.0
1758089399.80969,1758089389.86158,0.0,0.0,0.0,-12.14671,25.15285,7.79223,9.54,-0.32,2.57,3.0
1758089399.82452,1758089389.87158,0.0,0.0,0.0,-11.51645,22.28806,8.76626,9.54,-0.32,2.57,3.0
1758089399.82648,1758089389.88158,0.0,0.0,0.0,-10.94349,20.79837,9.91217,9.3,-0.43,2.28,3.0
1758089399.84249,1758089389.89158,0.0,0.0,0.0,-10.54242,18.56383,10.48513,9.3,-0.43,2.28,3.0
1758089399.85852,1758089389.90158,0.0,0.0,0.0,-9.39651,13.69369,11.00079,8.94,-0.71,2.3,3.0
1758089399.85969,1758089389.91158,0.0,0.0,0.0,-8.59437,9.05273,10.65701,8.52,-0.89,2.11,3.0
1758089399.8745,1758089389.92158,0.0,0.0,0.0,-8.136,4.18259,9.68299,8.52,-0.89,2.11,3.0
1758089399.87649,1758089389.93158,0.0,0.0,0.0,-7.79223,-0.80214,8.02141,8.4,-0.87,1.82,3.0
1758089399.89274,1758089389.94158,0.0,0.0,0.0,-7.10468,-8.93814,5.15662,8.4,-0.87,1.82,3.0
1758089399.90849,1758089389.95158,0.0,0.0,0.0,-6.87549,-14.49583,3.55234,8.23,-0.67,1.64,3.0
1758089399.90966,1758089389.96158,0.0,0.0,0.0,-6.58902,-19.36597,2.63561,8.23,-0.67,1.64,3.0
1758089399.92457,1758089389.97158,0.0,0.0,0.0,-6.41713,-23.37668,2.6929,8.16,-0.55,1.68,3.0
1758089399.92655,1758089389.98158,0.0,0.0,0.0,-6.24524,-28.99167,4.1253,8.11,-0.6,1.7,3.0
1758089399.9416,1758089389.99158,0.0,0.0,0.0,-5.95876,-32.48671,5.55769,8.11,-0.6,1.7,3.0
1758089399.95847,1758089390.00158,0.0,0.0,0.0,-5.50039,-34.60666,7.39116,8.23,-0.76,1.68,3.0
1758089399.95975,1758089390.01158,0.0,0.0,0.0,-4.81285,-37.24226,10.02676,8.23,-0.76,1.68,3.0
1758089399.9748,1758089390.02158,0.0,0.0,0.0,-4.35448,-38.27358,11.57375,8.38,-0.85,1.6,3.0
1758089399.97577,1758089390.03158,0.0,0.0,0.0,-3.89611,-37.75792,12.2613,8.38,-0.85,1.6,3.0
1758089399.99061,1758089390.04158,0.0,0.0,0.0,-3.09397,-36.84119,12.71966,8.72,-0.86,1.5,3.0
1758089400.00656,1758089390.05158,0.0,0.0,0.0,-1.94806,-32.88778,11.86023,8.72,-0.86,1.5,3.0
1758089400.0078,1758089390.06158,0.0,0.0,0.0,-1.03132,-28.24682,10.54242,9.15,-0.82,1.46,3.0
1758089400.02257,1758089390.07158,0.0,0.0,0.0,0.40107,-20.22541,8.88085,9.82,-0.78,1.55,3.0
1758089400.02457,1758089390.08158,0.0,0.0,0.0,2.06265,-9.33921,7.62034,9.82,-0.78,1.55,3.0
1758089400.04261,1758089390.09158,0.0,0.0,0.0,4.92744,5.27121,7.21927,10.47,-0.8,1.91,3.0
1758089400.0586,1758089390.10158,0.0,0.0,0.0,6.7609,8.88085,8.25059,10.47,-0.8,1.91,3.0
1758089400.06007,1758089390.11158,0.0,0.0,0.0,8.42248,10.71431,9.91217,9.97,-0.86,1.99,3.0
1758089400.07447,1758089390.12158,0.0,0.0,0.0,10.37054,12.49048,12.204,9.97,-0.86,1.99,3.0
1758089400.07647,1758089390.13158,0.0,0.0,0.0,13.5218,14.15206,16.50119,10.05,-1.05,1.8,3.0
1758089400.09281,1758089390.14158,0.0,0.0,0.0,15.69904,14.61043,19.53786,10.05,-1.29,1.57,3.0
1758089400.10858,1758089390.15158,0.0,0.0,0.0,17.99088,15.06879,22.68913,10.05,-1.29,1.57,3.0
1758089400.10979,1758089390.16158,0.0,0.0,0.0,20.16812,15.87093,25.26744,10.07,-1.49,1.59,3.0
1758089400.12462,1758089390.17158,0.0,0.0,0.0,23.60586,12.77696,27.1582,10.07,-1.49,1.59,3.0
1758089400.12665,1758089390.18158,0.0,0.0,0.0,24.4653,3.49504,26.35606,9.46,-1.41,1.3,3.0
1758089400.14259,1758089390.19158,0.0,0.0,0.0,23.60586,-4.0107,24.17882,9.46,-1.41,1.3,3.0
1758089400.15862,1758089390.20158,0.0,0.0,0.0,23.72045,-2.63561,15.75634,9.24,-1.1,1.19,3.0
1758089400.16016,1758089390.21158,0.0,0.0,0.0,25.55392,19.88164,13.17803,11.49,-0.96,0.96,3.0
1758089400.17461,1758089390.22158,0.0,0.0,0.0,26.24147,32.88778,9.05273,11.49,-0.96,0.96,3.0
1758089400.17583,1758089390.23158,0.0,0.0,0.0,27.1582,35.2942,5.15662,10.09,-0.83,2.68,3.0
1758089400.1905,1758089390.24158,0.0,0.0,0.0,28.476,26.47065,1.48969,10.09,-0.83,2.68,3.0
1758089400.20661,1758089390.25158,0.0,0.0,0.0,26.47065,1.3178,-0.68755,8.04,-0.54,3.18,3.0
1758089400.20861,1758089390.26158,0.0,0.0,0.0,26.18417,-26.12688,4.29718,8.04,-0.54,3.18,3.0
1758089400.22378,1758089390.27158,0.0,0.0,0.0,25.72581,-44.51882,9.74028,7.82,-0.73,1.7,3.0
1758089400.22482,1758089390.28158,0.0,0.0,0.0,24.17882,-48.70141,22.28806,10.99,-0.73,1.68,3.0
1758089400.2414,1758089390.29158,0.0,0.0,0.0,22.51724,-36.55471,27.38738,10.99,-1.48,1.68,3.0
1758089400.25762,1758089390.30158,0.0,0.0,0.0,20.79837,-20.16812,28.64789,12.48,-1.58,1.76,3.0
1758089400.25909,1758089390.31158,0.0,0.0,0.0,20.05352,-6.7609,27.38738,12.48,-1.58,1.76,3.0
1758089400.27386,1758089390.32158,0.0,0.0,0.0,17.30333,2.34913,17.87628,10.69,-1.12,2.46,3.0
1758089400.27483,1758089390.33158,0.0,0.0,0.0,14.72501,4.58366,8.93814,10.69,-1.12,2.46,3.0
1758089400.29064,1758089390.34158,0.0,0.0,0.0,15.0115,12.14671,3.89611,9.02,-0.57,2.13,3.0
1758089400.30654,1758089390.35158,0.0,0.0,0.0,14.49583,17.24603,-1.3751,9.02,-0.57,2.13,3.0
1758089400.30776,1758089390.36158,0.0,0.0,0.0,14.83961,18.44924,-4.1253,8.93,-0.53,1.76,3.0
1758089400.32264,1758089390.37158,0.0,0.0,0.0,14.83961,22.74642,-3.66693,9.53,-0.9,1.75,3.0
1758089400.33863,1758089390.38158,0.0,0.0,0.0,14.83961,28.24682,-2.00535,9.53,-0.9,1.75,3.0
1758089400.34427,1758089390.39158,0.0,0.0,0.0,15.12609,31.62727,0.85944,10.69,-1.36,1.92,3.0
1758089400.35868,1758089390.40158,0.0,0.0,0.0,15.75634,36.03905,6.18794,10.69,-1.36,1.92,3.0
1758089400.35984,1758089390.41158,0.0,0.0,0.0,16.38659,38.90384,9.22462,11.09,-1.63,1.85,3.0
1758089400.37465,1758089390.42158,0.0,0.0,0.0,17.24603,38.38818,11.51645,11.09,-1.63,1.85,3.0
1758089400.37666,1758089390.43158,0.0,0.0,0.0,17.81899,33.17426,13.46451,10.7,-1.51,1.92,3.0
1758089400.39185,1758089390.44158,0.0,0.0,0.0,17.6471,30.19488,13.5791,10.33,-1.24,1.74,3.0
1758089400.40768,1758089390.45158,0.0,0.0,0.0,17.24603,27.67386,13.5791,10.33,-1.24,1.74,3.0
1758089400.40885,1758089390.46158,0.0,0.0,0.0,16.272,23.83505,12.204,10.29,-1.02,1.87,3.0
1758089400.42364,1758089390.47158,0.0,0.0,0.0,13.69369,20.11082,9.39651,10.29,-1.02,1.87,3.0
1758089400.42485,1758089390.48158,0.0,0.0,0.0,11.51645,20.11082,6.87549,10.45,-0.73,2.07,3.0
1758089400.44164,1758089390.49158,0.0,0.0,0.0,9.33921,19.82434,4.0107,10.45,-0.73,2.07,3.0
1758089400.45868,1758089390.50158,0.0,0.0,0.0,7.10468,19.88164,0.97403,10.83,-0.45,2.87,3.0
1758089400.45985,1758089390.51158,0.0,0.0,0.0,4.18259,22.00158,-3.89611,11.64,-0.54,3.39,3.0
1758089400.47469,1758089390.52158,0.0,0.0,0.0,2.97938,22.63183,-6.70361,11.64,-0.54,3.39,3.0
1758089400.47616,1758089390.53158,0.0,0.0,0.0,2.57831,23.26209,-8.76626,12.34,-0.94,3.76,3.0
1758089400.49068,1758089390.54158,0.0,0.0,0.0,2.97938,22.68913,-9.74028,12.34,-0.94,3.76,3.0
1758089400.50694,1758089390.55158,0.0,0.0,0.0,5.15662,24.23611,-10.71431,12.92,-1.47,3.98,3.0
1758089400.50789,1758089390.56158,0.0,0.0,0.0,7.16197,24.29341,-10.59972,12.92,-1.47,3.98,3.0
1758089400.52267,1758089390.57158,0.0,0.0,0.0,9.39651,21.37133,-9.11003,13.36,-1.94,4.38,3.0
1758089400.53872,1758089390.58158,0.0,0.0,0.0,11.17268,20.74107,-10.8862,13.36,-1.94,4.38,3.0
1758089400.53994,1758089390.59158,0.0,0.0,0.0,14.32395,24.4653,-9.91217,13.68,-2.09,4.36,3.0
1758089400.55578,1758089390.60158,0.0,0.0,0.0,16.38659,21.7151,-10.25595,13.08,-1.89,4.63,3.0
1758089400.55832,1758089390.61158,0.0,0.0,0.0,17.99088,19.13679,-11.17268,13.08,-1.89,4.63,3.0
1758089400.57662,1758089390.62158,0.0,0.0,0.0,20.45459,16.84496,-12.08941,11.76,-1.48,4.25,3.0
1758089400.57677,1758089390.63158,0.0,0.0,0.0,22.05888,9.4538,-12.2613,11.76,-1.48,4.25,3.0
1758089400.593,1758089390.64158,0.0,0.0,0.0,23.54857,4.23989,-11.97482,10.1,-1.07,3.97,3.0
1758089400.60888,1758089390.65158,0.0,0.0,0.0,24.4653,-0.11459,-11.00079,10.1,-1.07,3.97,3.0
1758089400.60989,1758089390.66158,0.0,0.0,0.0,25.38203,-5.4431,-8.65166,9.03,-0.73,3.49,3.0
1758089400.62541,1758089390.67158,0.0,0.0,0.0,25.55392,-9.39651,-6.99009,8.11,-0.55,3.22,3.0
1758089400.62989,1758089390.68158,0.0,0.0,0.0,25.49662,-14.49583,-5.55769,8.11,-0.55,3.22,3.0
1758089400.6456,1758089390.69158,0.0,0.0,0.0,25.15285,-20.05352,-4.35448,7.22,-0.45,3.18,3.0
1758089400.64673,1758089390.70158,0.0,0.0,0.0,24.12152,-26.24147,-3.49504,7.22,-0.45,3.18,3.0
1758089400.66178,1758089390.71158,0.0,0.0,0.0,22.68913,-30.02299,-3.89611,6.96,-0.21,3.23,3.0
1758089400.67905,1758089390.72158,0.0,0.0,0.0,21.08485,-34.14828,-5.09932,6.96,-0.21,3.23,3.0
1758089400.68399,1758089390.73158,0.0,0.0,0.0,19.48057,-37.47144,-6.24524,6.48,0.22,3.1,3.0
1758089400.699,1758089390.74158,0.0,0.0,0.0,16.90226,-41.31026,-8.136,6.27,0.56,2.87,3.0
1758089400.70243,1758089390.75158,0.0,0.0,0.0,15.35527,-42.57077,-9.22462,6.27,0.56,2.87,3.0
1758089400.71877,1758089390.76158,0.0,0.0,0.0,13.69369,-42.62806,-9.96947,6.51,0.74,2.57,3.0
1758089400.72106,1758089390.77158,0.0,0.0,0.0,11.80293,-40.68,-10.25595,6.51,0.74,2.57,3.0
1758089400.73589,1758089390.78158,0.0,0.0,0.0,8.70896,-35.2942,-10.65701,7.13,0.86,2.52,3.0
1758089400.73777,1758089390.79158,0.0,0.0,0.0,6.18794,-31.2262,-11.22997,7.13,0.86,2.52,3.0
1758089400.75294,1758089390.80158,0.0,0.0,0.0,3.95341,-26.98631,-11.97482,7.69,0.87,2.57,3.0
1758089400.76906,1758089390.81158,0.0,0.0,0.0,1.3178,-22.11617,-13.40721,7.69,0.87,2.57,3.0
1758089400.77161,1758089390.82158,0.0,0.0,0.0,-2.57831,-13.75099,-14.03747,8.28,0.88,2.58,3.0
1758089400.78786,1758089390.83158,0.0,0.0,0.0,-4.64096,-8.0787,-15.06879,8.73,0.76,2.63,3.0
1758089400.78882,1758089390.84158,0.0,0.0,0.0,-6.47442,-3.55234,-15.69904,8.73,0.76,2.63,3.0
1758089400.80406,1758089390.85158,0.0,0.0,0.0,-7.96411,2.86479,-16.73037,8.84,0.46,2.67,3.0
1758089400.80501,1758089390.86158,0.0,0.0,0.0,-8.36518,7.33386,-17.47521,8.84,0.46,2.67,3.0
1758089400.82083,1758089390.87158,0.0,0.0,0.0,-8.59437,11.11538,-17.58981,9.07,0.15,2.68,3.0
1758089400.83774,1758089390.88158,0.0,0.0,0.0,-8.70896,14.49583,-18.22006,9.07,0.15,2.68,3.0
1758089400.83882,1758089390.89158,0.0,0.0,0.0,-8.47978,16.90226,-19.13679,9.02,-0.14,2.78,3.0
1758089400.85378,1758089390.90158,0.0,0.0,0.0,-7.96411,17.24603,-19.53786,8.9,-0.41,2.72,3.0
1758089400.85585,1758089390.91158,0.0,0.0,0.0,-7.04738,17.58981,-20.34,8.9,-0.41,2.72,3.0
1758089400.87185,1758089390.92158,0.0,0.0,0.0,-5.72958,17.01685,-20.74107,9.13,-0.61,2.86,3.0
1758089400.88888,1758089390.93158,0.0,0.0,0.0,-2.46372,12.43318,-20.85567,9.13,-0.61,2.86,3.0
1758089400.89141,1758089390.94158,0.0,0.0,0.0,0.0,9.62569,-20.34,9.21,-0.69,2.77,3.0
1758089400.9076,1758089390.95158,0.0,0.0,0.0,2.23454,8.136,-19.36597,9.21,-0.69,2.77,3.0
1758089400.90961,1758089390.96158,0.0,0.0,0.0,4.35448,6.07335,-17.58981,9.58,-0.58,2.76,3.0
1758089400.92787,1758089390.97158,0.0,0.0,0.0,6.7609,2.06265,-14.78231,9.4,-0.3,2.5,3.0
1758089400.95855,1758089390.98158,0.0,0.0,0.0,7.67763,-0.97403,-12.71966,9.4,-0.3,2.5,3.0
1758089400.95913,1758089390.99158,0.0,0.0,0.0,7.84952,-4.0107,-11.00079,9.15,0.06,2.49,3.0
1758089400.96758,1758089391.00158,0.0,0.0,0.0,7.21927,-6.8182,-10.48513,9.15,0.06,2.49,3.0
1758089400.96897,1758089391.01158,0.0,0.0,0.0,5.78687,-11.86023,-11.34457,8.8,0.41,2.38,3.0
1758089400.971,1758089391.02158,0.0,0.0,0.0,4.64096,-15.24068,-12.49048,8.8,0.41,2.38,3.0
1758089400.98662,1758089391.03158,0.0,0.0,0.0,3.95341,-17.6471,-13.12073,8.48,0.7,2.19,3.0
1758089400.98856,1758089391.04158,0.0,0.0,0.0,3.66693,-19.76705,-13.46451,8.48,0.7,2.19,3.0
1758089401.00408,1758089391.05158,0.0,0.0,0.0,3.55234,-23.54857,-12.83425,8.52,0.68,2.17,3.0
1758089401.00506,1758089391.06158,0.0,0.0,0.0,3.83882,-25.8404,-12.49048,8.48,0.39,2.02,3.0
1758089401.02314,1758089391.07158,0.0,0.0,0.0,4.23989,-27.2155,-11.11538,8.48,0.39,2.02,3.0
1758089401.0389,1758089391.08158,0.0,0.0,0.0,4.52637,-28.93437,-9.4538,8.62,0.09,2.0,3.0
1758089401.04005,1758089391.09158,0.0,0.0,0.0,4.46907,-28.64789,-8.93814,8.62,0.09,2.0,3.0
1758089401.05513,1758089391.10158,0.0,0.0,0.0,4.29718,-26.98631,-8.70896,8.9,-0.01,1.97,3.0
1758089401.05719,1758089391.11158,0.0,0.0,0.0,4.1253,-24.17882,-8.70896,8.9,-0.01,1.97,3.0
1758089401.07214,1758089391.12158,0.0,0.0,0.0,3.60963,-20.62648,-9.33921,9.21,0.12,2.11,3.0
1758089401.08873,1758089391.13158,0.0,0.0,0.0,3.26586,-18.56383,-9.68299,9.3,0.39,2.14,3.0
1758089401.08988,1758089391.14158,0.0,0.0,0.0,3.03668,-16.21471,-9.74028,9.3,0.39,2.14,3.0
1758089401.1057,1758089391.15158,0.0,0.0,0.0,3.03668,-13.69369,-9.39651,9.5,0.53,2.07,3.0
1758089401.10681,1758089391.16158,0.0,0.0,0.0,3.09397,-10.54242,-8.59437,9.5,0.53,2.07,3.0
1758089401.12188,1758089391.17158,0.0,0.0,0.0,3.32316,-8.02141,-7.62034,9.52,0.44,1.97,3.0
1758089401.13787,1758089391.18158,0.0,0.0,0.0,3.60963,-5.61499,-6.41713,9.52,0.44,1.97,3.0
1758089401.13912,1758089391.19158,0.0,0.0,0.0,3.83882,-3.20856,-4.69825,9.63,0.28,1.89,3.0
1758089401.15516,1758089391.20158,0.0,0.0,0.0,4.46907,0.17189,-1.83346,9.78,0.17,1.88,3.0
1758089401.15638,1758089391.21158,0.0,0.0,0.0,4.46907,2.06265,0.17189,9.78,0.17,1.88,3.0
1758089401.17113,1758089391.22158,0.0,0.0,0.0,4.29718,4.46907,1.08862,9.97,0.19,2.11,3.0
1758089401.18699,1758089391.23158,0.0,0.0,0.0,4.18259,4.64096,1.77617,9.97,0.19,2.11,3.0
1758089401.18808,1758089391.24158,0.0,0.0,0.0,3.26586,1.43239,0.45837,9.73,0.32,1.96,3.0
1758089401.20289,1758089391.25158,0.0,0.0,0.0,2.6929,-0.40107,0.34377,9.73,0.32,1.96,3.0
1758089401.21889,1758089391.26158,0.0,0.0,0.0,0.80214,0.40107,-0.80214,9.9,0.51,1.87,3.0
1758089401.22089,1758089391.27158,0.0,0.0,0.0,-0.85944,-0.22918,-1.83346,9.9,0.51,1.87,3.0
1758089401.23586,1758089391.28158,0.0,0.0,0.0,-2.46372,-1.03132,-3.03668,10.07,0.65,1.95,3.0
1758089401.23862,1758089391.29158,0.0,0.0,0.0,-4.35448,-2.11994,-4.23989,9.87,0.79,1.79,3.0
1758089401.2539,1758089391.30158,0.0,0.0,0.0,-5.72958,-1.3751,-5.09932,9.87,0.79,1.79,3.0
1758089401.25593,1758089391.31158,0.0,0.0,0.0,-7.73493,-1.3751,-4.98473,9.88,0.93,1.68,3.0
1758089401.27218,1758089391.32158,0.0,0.0,0.0,-9.28192,-3.03668,-5.78687,9.88,0.93,1.68,3.0
1758089401.28818,1758089391.33158,0.0,0.0,0.0,-9.33921,-8.36518,-4.0107,9.24,0.95,1.35,3.0
1758089401.28936,1758089391.34158,0.0,0.0,0.0,-8.93814,-12.08941,-1.77617,9.24,0.95,1.35,3.0
1758089401.3042,1758089391.35158,0.0,0.0,0.0,-8.30789,-10.59972,2.29183,8.97,0.56,0.96,3.0
1758089401.30537,1758089391.36158,0.0,0.0,0.0,-7.44845,-10.8862,4.58366,9.11,0.28,1.18,3.0
1758089401.32117,1758089391.37158,0.0,0.0,0.0,-4.1253,-22.51724,8.47978,9.11,0.28,1.18,3.0
1758089401.33793,1758089391.38158,0.0,0.0,0.0,-2.7502,-42.91454,9.28192,7.72,0.06,1.91,3.0
1758089401.34069,1758089391.39158,0.0,0.0,0.0,-2.92208,-28.01764,2.92208,7.72,0.06,1.91,3.0
1758089401.35582,1758089391.40158,0.0,0.0,0.0,-7.21927,-8.36518,-7.73493,12.36,0.53,2.18,3.0
1758089401.35784,1758089391.41158,0.0,0.0,0.0,-7.10468,2.57831,-10.31324,12.36,0.53,2.18,3.0
1758089401.37289,1758089391.42158,0.0,0.0,0.0,-6.8182,2.7502,-9.91217,11.82,0.94,2.6,3.0
1758089401.37496,1758089391.43158,0.0,0.0,0.0,-7.04738,12.08941,-5.55769,10.8,0.45,1.4,3.0
1758089401.39202,1758089391.44158,0.0,0.0,0.0,-8.0787,18.27736,-1.3751,10.8,0.45,1.4,3.0
1758089401.4081,1758089391.45158,0.0,0.0,0.0,-8.65166,16.3293,3.38045,9.69,0.22,1.35,3.0
1758089401.40916,1758089391.46158,0.0,0.0,0.0,-7.50575,6.99009,9.39651,9.69,0.22,1.35,3.0
1758089401.42396,1758089391.47158,0.0,0.0,0.0,-5.78687,3.66693,11.45916,8.84,0.48,1.55,3.0
1758089401.42541,1758089391.48158,0.0,0.0,0.0,-3.26586,4.69825,11.86023,8.84,0.48,1.55,3.0
1758089401.44101,1758089391.49158,0.0,0.0,0.0,-0.74485,8.99544,10.54242,10.03,0.78,1.19,3.0
1758089401.45723,1758089391.50158,0.0,0.0,0.0,1.83346,19.99623,5.95876,10.03,0.78,1.19,3.0
1758089401.45821,1758089391.51158,0.0,0.0,0.0,2.34913,28.30412,1.66158,11.1,1.01,1.49,3.0
1758089401.47324,1758089391.52158,0.0,0.0,0.0,2.11994,35.00772,-2.92208,12.06,1.11,2.07,3.0
1758089401.48893,1758089391.53158,0.0,0.0,0.0,1.48969,41.02378,-6.70361,12.06,1.11,2.07,3.0
1758089401.49017,1758089391.54158,0.0,0.0,0.0,-0.80214,44.51882,-9.68299,13.22,1.12,2.43,3.0
1758089401.50593,1758089391.55158,0.0,0.0,0.0,-2.63561,43.14373,-10.02676,13.22,1.12,2.43,3.0
1758089401.50717,1758089391.56158,0.0,0.0,0.0,-3.95341,40.50812,-9.28192,14.09,1.25,3.18,3.0
1758089401.52256,1758089391.57158,0.0,0.0,0.0,-4.52637,39.99245,-7.50575,14.09,1.25,3.18,3.0
1758089401.53833,1758089391.58158,0.0,0.0,0.0,-4.35448,44.17505,-5.21392,14.88,1.49,3.71,3.0
1758089401.53919,1758089391.59158,0.0,0.0,0.0,-4.0107,45.09178,-4.0107,14.65,1.59,4.3,3.0
1758089401.55397,1758089391.60158,0.0,0.0,0.0,-3.83882,44.28964,-2.63561,14.65,1.59,4.3,3.0
1758089401.5552,1758089391.61158,0.0,0.0,0.0,-4.0107,43.60209,-0.57296,13.72,1.71,4.47,3.0
1758089401.57136,1758089391.62158,0.0,0.0,0.0,-4.58366,41.48215,2.63561,13.72,1.71,4.47,3.0
1758089401.58727,1758089391.63158,0.0,0.0,0.0,-5.50039,36.6693,4.23989,12.98,1.71,4.39,3.0
1758089401.58828,1758089391.64158,0.0,0.0,0.0,-6.70361,29.67921,4.98473,12.98,1.71,4.39,3.0
1758089401.60297,1758089391.65158,0.0,0.0,0.0,-8.70896,21.60051,3.95341,11.65,1.54,4.29,3.0
1758089401.61896,1758089391.66158,0.0,0.0,0.0,-10.25595,8.25059,2.46372,10.45,1.23,3.85,3.0
1758089401.62024,1758089391.67158,0.0,0.0,0.0,-11.91752,-2.23454,0.51566,10.45,1.23,3.85,3.0
1758089401.635,1758089391.68158,0.0,0.0,0.0,-13.5791,-12.54778,-1.43239,8.99,1.02,3.47,3.0
1758089401.63629,1758089391.69158,0.0,0.0,0.0,-16.04282,-25.26744,-4.23989,8.99,1.02,3.47,3.0
1758089401.65329,1758089391.70158,0.0,0.0,0.0,-17.76169,-31.74186,-6.13065,7.86,0.93,2.97,3.0
1758089401.66919,1758089391.71158,0.0,0.0,0.0,-19.25138,-37.47144,-7.96411,7.86,0.93,2.97,3.0
1758089401.67259,1758089391.72158,0.0,0.0,0.0,-20.79837,-42.97184,-9.5684,6.79,0.95,2.81,3.0
1758089401.68804,1758089391.73158,0.0,0.0,0.0,-22.40265,-52.25375,-10.31324,6.02,0.95,2.83,3.0
1758089401.68928,1758089391.74158,0.0,0.0,0.0,-22.57454,-58.04062,-9.28192,6.02,0.8,2.83,3.0
1758089401.70397,1758089391.75158,0.0,0.0,0.0,-22.28806,-62.28051,-6.7609,6.04,0.29,2.5,3.0
1758089401.70869,1758089391.76158,0.0,0.0,0.0,-21.60051,-64.80153,-3.38045,6.04,0.29,2.5,3.0
1758089401.72407,1758089391.77158,0.0,0.0,0.0,-20.62648,-64.22858,2.00535,6.52,-0.56,2.29,3.0
1758089401.72603,1758089391.78158,0.0,0.0,0.0,-19.82434,-63.25455,5.78687,6.52,-0.56,2.29,3.0
1758089401.74288,1758089391.79158,0.0,0.0,0.0,-18.56383,-61.24919,9.11003,6.87,-1.06,2.32,3.0
1758089401.75903,1758089391.80158,0.0,0.0,0.0,-17.24603,-57.75415,11.86023,6.87,-1.06,2.32,3.0
1758089401.76027,1758089391.81158,0.0,0.0,0.0,-15.58445,-49.90463,14.20935,7.44,-1.06,2.3,3.0
1758089401.77496,1758089391.82158,0.0,0.0,0.0,-14.78231,-42.74266,14.43854,8.51,-0.88,2.28,3.0
1758089401.77628,1758089391.83158,0.0,0.0,0.0,-13.75099,-33.23156,14.03747,8.51,-0.88,2.28,3.0
1758089401.79108,1758089391.84158,0.0,0.0,0.0,-12.54778,-22.51724,13.12073,9.7,-0.74,2.02,3.0
1758089401.80736,1758089391.85158,0.0,0.0,0.0,-10.59972,-7.62034,11.91752,9.7,-0.74,2.02,3.0
1758089401.80907,1758089391.86158,0.0,0.0,0.0,-9.4538,2.00535,11.17268,10.02,-0.61,1.98,3.0
1758089401.82408,1758089391.87158,0.0,0.0,0.0,-8.25059,11.22997,10.48513,10.02,-0.61,1.98,3.0
1758089401.82604,1758089391.88158,0.0,0.0,0.0,-6.8182,24.80907,10.25595,10.01,-0.45,2.13,3.0
1758089401.84435,1758089391.89158,0.0,0.0,0.0,-6.13065,33.51803,10.54242,10.01,-0.35,2.4,3.0
1758089401.84611,1758089391.90158,0.0,0.0,0.0,-5.50039,40.50812,11.45916,10.01,-0.35,2.4,3.0
1758089401.8621,1758089391.91158,0.0,0.0,0.0,-6.18794,43.20102,12.14671,9.84,-0.24,2.71,3.0
1758089401.87808,1758089391.92158,0.0,0.0,0.0,-7.96411,42.22699,13.46451,9.84,-0.24,2.71,3.0
1758089401.87927,1758089391.93158,0.0,0.0,0.0,-10.19865,41.59674,14.20935,9.77,-0.06,2.85,3.0
1758089401.89618,1758089391.94158,0.0,0.0,0.0,-12.83425,42.51347,14.09476,9.77,-0.06,2.85,3.0
1758089401.8973,1758089391.95158,0.0,0.0,0.0,-15.46986,40.62271,13.75099,10.09,0.14,2.85,3.0
1758089401.91409,1758089391.96158,0.0,0.0,0.0,-19.76705,33.40344,12.49048,9.43,0.37,2.96,3.0
1758089401.91605,1758089391.97158,0.0,0.0,0.0,-21.7724,30.93972,11.80293,9.43,0.37,2.96,3.0
1758089401.9332,1758089391.98158,0.0,0.0,0.0,-23.31938,30.65324,11.00079,9.52,0.41,2.55,3.0
1758089401.94914,1758089391.99158,0.0,0.0,0.0,-24.29341,31.16891,10.31324,9.52,0.41,2.55,3.0
1758089401.95136,1758089392.00158,0.0,0.0,0.0,-24.4653,32.08564,9.28192,9.19,0.24,2.25,3.0
1758089401.9661,1758089392.01158,0.0,0.0,0.0,-23.83505,32.48671,8.88085,9.19,0.24,2.25,3.0
1758089401.96728,1758089392.02158,0.0,0.0,0.0,-22.86102,31.28349,8.42248,8.8,-0.08,2.15,3.0
1758089401.98232,1758089392.03158,0.0,0.0,0.0,-21.60051,28.476,7.73493,8.8,-0.08,2.15,3.0
1758089401.99811,1758089392.04158,0.0,0.0,0.0,-20.11082,22.91831,6.53172,8.42,-0.44,1.96,3.0
1758089401.99929,1758089392.05158,0.0,0.0,0.0,-18.90761,18.73572,5.72958,8.31,-0.59,1.78,3.0
1758089402.01399,1758089392.06158,0.0,0.0,0.0,-18.10547,13.86558,4.69825,8.31,-0.59,1.78,3.0
1758089402.01687,1758089392.07158,0.0,0.0,0.0,-17.6471,8.65166,4.0107,8.17,-0.61,1.8,3.0
1758089402.03312,1758089392.08158,0.0,0.0,0.0,-17.76169,0.51566,4.0107,8.17,-0.61,1.8,3.0
1758089402.04915,1758089392.09158,0.0,0.0,0.0,-18.16276,-4.92744,4.46907,8.11,-0.56,1.99,3.0
1758089402.05033,1758089392.10158,0.0,0.0,0.0,-18.62113,-10.8862,5.4431,8.11,-0.56,1.99,3.0
1758089402.06614,1758089392.11158,0.0,0.0,0.0,-20.05352,-20.05352,6.35983,8.02,-0.51,1.82,3.0
1758089402.06732,1758089392.12158,0.0,0.0,0.0,-20.97026,-29.96569,7.50575,7.83,-0.48,1.89,3.0
1758089402.08214,1758089392.13158,0.0,0.0,0.0,-20.74107,-36.21093,9.22462,7.83,-0.48,1.89,3.0
1758089402.09936,1758089392.14158,0.0,0.0,0.0,-20.16812,-37.29956,10.48513,8.47,-0.53,1.35,3.0
1758089402.10116,1758089392.15158,0.0,0.0,0.0,-19.82434,-35.12231,10.02676,8.47,-0.53,1.35,3.0
1758089402.11615,1758089392.16158,0.0,0.0,0.0,-19.53786,-32.83048,8.36518,8.82,-0.58,1.65,3.0
1758089402.11813,1758089392.17158,0.0,0.0,0.0,-18.44924,-26.98631,5.78687,8.82,-0.58,1.65,3.0
1758089402.13328,1758089392.18158,0.0,0.0,0.0,-16.84496,-16.84496,2.92208,9.34,-0.59,2.05,3.0
1758089402.14942,1758089392.19158,0.0,0.0,0.0,-14.03747,0.0573,-0.57296,9.88,-0.7,2.34,3.0
1758089402.1539,1758089392.20158,0.0,0.0,0.0,-11.17268,9.5684,0.0,9.88,-0.7,2.34,3.0
1758089402.16916,1758089392.21158,0.0,0.0,0.0,-7.84952,10.71431,2.57831,9.45,-1.09,2.5,3.0
1758089402.17352,1758089392.22158,0.0,0.0,0.0,-5.09932,11.28727,5.50039,9.45,-1.09,2.5,3.0
1758089402.18922,1758089392.23158,0.0,0.0,0.0,-1.60428,12.2613,11.00079,9.48,-1.41,2.08,3.0
1758089402.19203,1758089392.24158,0.0,0.0,0.0,0.57296,12.14671,15.12609,9.48,-1.41,2.08,3.0
1758089402.20719,1758089392.25158,0.0,0.0,0.0,3.03668,12.43318,19.25138,9.63,-1.63,1.71,3.0
1758089402.21192,1758089392.26158,0.0,0.0,0.0,5.09932,12.89155,23.0902,9.63,-1.63,1.71,3.0
1758089402.22747,1758089392.27158,0.0,0.0,0.0,8.136,10.8862,23.60586,9.65,-1.7,1.71,3.0
1758089402.22844,1758089392.28158,0.0,0.0,0.0,8.65166,5.4431,21.7724,9.07,-1.46,1.57,3.0
1758089402.24424,1758089392.29158,0.0,0.0,0.0,8.136,0.22918,18.16276,9.07,-1.46,1.57,3.0
1758089402.24519,1758089392.30158,0.0,0.0,0.0,6.8182,-1.3178,9.62569,8.88,-0.97,1.35,3.0
1758089402.26198,1758089392.31158,0.0,0.0,0.0,6.70361,10.02676,4.81285,8.88,-0.97,1.35,3.0
1758089402.27823,1758089392.32158,0.0,0.0,0.0,8.0787,26.98631,0.97403,10.18,-0.58,1.41,3.0
1758089402.27944,1758089392.33158,0.0,0.0,0.0,8.30789,37.24226,-1.83346,10.18,-0.58,1.41,3.0
1758089402.29424,1758089392.34158,0.0,0.0,0.0,6.87549,23.89234,-9.22462,9.64,-0.45,3.08,3.0
1758089402.29656,1758089392.35158,0.0,0.0,0.0,2.11994,-26.35606,-10.37054,5.27,0.02,4.36,3.0
1758089402.31219,1758089392.36158,0.0,0.0,0.0,3.03668,-72.19269,4.46907,5.27,0.02,4.36,3.0
1758089402.3292,1758089392.37158,0.0,0.0,0.0,-0.0573,-63.02536,16.61578,11.22,-1.07,2.24,3.0
1758089402.33254,1758089392.38158,0.0,0.0,0.0,-6.8182,-22.51724,21.60051,11.22,-1.07,2.24,3.0
1758089402.34823,1758089392.39158,0.0,0.0,0.0,-7.62034,-17.53251,22.40265,13.11,-1.4,0.95,3.0
1758089402.34942,1758089392.40158,0.0,0.0,0.0,-7.50575,-10.71431,18.22006,13.11,-1.4,0.95,3.0
1758089402.36552,1758089392.41158,0.0,0.0,0.0,-7.50575,1.08862,11.45916,9.58,-1.57,1.9,3.0
1758089402.36908,1758089392.42158,0.0,0.0,0.0,-5.27121,14.83961,0.51566,9.42,-1.39,3.51,3.0
1758089402.38459,1758089392.43158,0.0,0.0,0.0,-2.57831,19.48057,-4.64096,9.42,-1.39,3.51,3.0
1758089402.38544,1758089392.44158,0.0,0.0,0.0,0.0573,22.86102,-7.39116,10.14,-1.12,2.56,3.0
1758089402.40432,1758089392.45158,0.0,0.0,0.0,2.00535,28.70519,-7.84952,10.14,-1.12,2.56,3.0
1758089402.40634,1758089392.46158,0.0,0.0,0.0,2.86479,32.83048,-5.90147,12.8,-1.3,3.02,3.0
1758089402.4233,1758089392.47158,0.0,0.0,0.0,1.20321,39.64868,-8.99544,12.8,-1.3,3.02,3.0
1758089402.43935,1758089392.48158,0.0,0.0,0.0,1.66158,44.28964,-4.98473,14.21,-1.39,2.36,3.0
1758089402.44128,1758089392.49158,0.0,0.0,0.0,1.20321,44.40423,-2.86479,14.21,-1.39,2.36,3.0
1758089402.45738,1758089392.50158,0.0,0.0,0.0,0.40107,44.86259,-3.03668,14.12,-1.66,3.66,3.0
1758089402.45831,1758089392.51158,0.0,0.0,0.0,1.20321,46.35228,-2.7502,13.94,-1.85,3.6,3.0
1758089402.47362,1758089392.52158,0.0,0.0,0.0,1.71887,45.60744,-3.95341,13.94,-1.85,3.6,3.0
1758089402.48962,1758089392.53158,0.0,0.0,0.0,2.23454,40.7946,-7.33386,13.34,-1.84,4.05,3.0
1758089402.49453,1758089392.54158,0.0,0.0,0.0,1.43239,39.3622,-10.94349,13.34,-1.84,4.05,3.0
1758089402.49773,1758089392.55158,0.0,0.0,0.0,0.57296,37.29956,-14.61043,12.97,-1.61,3.9,3.0
1758089402.51792,1758089392.56158,0.0,0.0,0.0,-0.11459,33.17426,-17.76169,12.97,-1.61,3.9,3.0
1758089402.51906,1758089392.57158,0.0,0.0,0.0,-1.08862,24.86637,-20.22541,12.25,-1.22,4.08,3.0
1758089402.53542,1758089392.58158,0.0,0.0,0.0,-1.20321,18.73572,-20.79837,11.57,-0.96,4.01,3.0
1758089402.53655,1758089392.59158,0.0,0.0,0.0,-0.85944,12.89155,-20.62648,11.57,-0.96,4.01,3.0
1758089402.55131,1758089392.60158,0.0,0.0,0.0,0.40107,6.8182,-19.99623,10.98,-0.97,3.81,3.0
1758089402.5672,1758089392.61158,0.0,0.0,0.0,2.40642,0.85944,-18.22006,10.98,-0.97,3.81,3.0
1758089402.56843,1758089392.62158,0.0,0.0,0.0,4.0107,-2.34913,-16.67307,10.11,-1.15,3.77,3.0
1758089402.58365,1758089392.63158,0.0,0.0,0.0,5.84417,-5.27121,-14.83961,10.11,-1.15,3.77,3.0
1758089402.60011,1758089392.64158,0.0,0.0,0.0,7.44845,-7.33386,-13.40721,8.81,-1.22,3.85,3.0
1758089402.60132,1758089392.65158,0.0,0.0,0.0,9.28192,-10.94349,-11.51645,7.58,-1.08,3.87,3.0
1758089402.61627,1758089392.66158,0.0,0.0,0.0,9.91217,-14.66772,-10.65701,7.58,-1.08,3.87,3.0
1758089402.61745,1758089392.67158,0.0,0.0,0.0,10.37054,-18.9649,-10.25595,6.63,-0.73,3.59,3.0
1758089402.63232,1758089392.68158,0.0,0.0,0.0,10.19865,-23.89234,-10.8289,6.63,-0.73,3.59,3.0
1758089402.64848,1758089392.69158,0.0,0.0,0.0,9.11003,-32.54401,-11.91752,6.13,-0.17,3.38,3.0
1758089402.64946,1758089392.70158,0.0,0.0,0.0,7.96411,-39.01843,-13.80828,6.13,-0.17,3.38,3.0
1758089402.66502,1758089392.71158,0.0,0.0,0.0,6.35983,-45.09178,-16.272,5.89,0.5,3.12,3.0
1758089402.67103,1758089392.72158,0.0,0.0,0.0,3.83882,-53.34238,-19.88164,5.89,0.5,3.12,3.0
1758089402.68806,1758089392.73158,0.0,0.0,0.0,2.86479,-57.12389,-21.37133,5.96,0.95,2.96,3.0
1758089402.68927,1758089392.74158,0.0,0.0,0.0,2.46372,-59.01466,-21.88699,6.46,0.88,2.75,3.0
1758089402.70725,1758089392.75158,0.0,0.0,0.0,3.09397,-60.67623,-21.60051,6.46,0.88,2.75,3.0
1758089402.71183,1758089392.76158,0.0,0.0,0.0,3.95341,-60.27517,-19.70975,7.1,0.39,2.98,3.0
1758089402.72637,1758089392.77158,0.0,0.0,0.0,5.09932,-56.49364,-17.99088,7.1,0.39,2.98,3.0
1758089402.72758,1758089392.78158,0.0,0.0,0.0,5.78687,-50.99325,-16.3293,8.05,-0.07,2.84,3.0
1758089402.7434,1758089392.79158,0.0,0.0,0.0,6.35983,-44.51882,-14.66772,8.05,-0.07,2.84,3.0
1758089402.74724,1758089392.80158,0.0,0.0,0.0,6.8182,-33.00237,-12.14671,8.65,-0.17,2.73,3.0
1758089402.801,1758089392.81158,0.0,0.0,0.0,6.8182,-23.94964,-10.65701,9.12,-0.01,2.61,3.0
1758089402.80386,1758089392.82158,0.0,0.0,0.0,6.53172,-15.12609,-9.39651,9.12,-0.01,2.61,3.0
1758089402.80448,1758089392.83158,0.0,0.0,0.0,6.07335,-7.39116,-8.59437,9.39,0.2,2.49,3.0
1758089402.80894,1758089392.84158,0.0,0.0,0.0,5.55769,2.46372,-8.36518,9.39,0.2,2.49,3.0
1758089402.80959,1758089392.85158,0.0,0.0,0.0,5.32851,8.65166,-8.76626,9.57,0.42,2.6,3.0
1758089402.81168,1758089392.86158,0.0,0.0,0.0,5.09932,13.69369,-9.74028,9.57,0.42,2.6,3.0
1758089402.82639,1758089392.87158,0.0,0.0,0.0,4.52637,17.13144,-11.00079,9.7,0.58,2.67,3.0
1758089402.82756,1758089392.88158,0.0,0.0,0.0,4.1253,21.08485,-12.60507,9.69,0.62,2.52,3.0
1758089402.84237,1758089392.89158,0.0,0.0,0.0,3.60963,23.0329,-13.75099,9.69,0.62,2.52,3.0
1758089402.85837,1758089392.90158,0.0,0.0,0.0,3.38045,24.00693,-14.38124,9.6,0.57,2.46,3.0
1758089402.85981,1758089392.91158,0.0,0.0,0.0,3.60963,23.0329,-15.29797,9.6,0.57,2.46,3.0
1758089402.87441,1758089392.92158,0.0,0.0,0.0,4.1253,22.05888,-14.9542,9.34,0.51,2.31,3.0
1758089402.87559,1758089392.93158,0.0,0.0,0.0,4.46907,21.7151,-14.15206,9.34,0.51,2.31,3.0
1758089402.89147,1758089392.94158,0.0,0.0,0.0,4.64096,19.76705,-13.00614,9.35,0.46,2.36,3.0
1758089402.90743,1758089392.95158,0.0,0.0,0.0,4.92744,14.20935,-10.65701,9.35,0.46,2.36,3.0
1758089402.90891,1758089392.96158,0.0,0.0,0.0,4.98473,8.99544,-8.65166,8.95,0.47,2.38,3.0
1758089402.92369,1758089392.97158,0.0,0.0,0.0,4.52637,4.0107,-8.25059,8.75,0.51,2.33,3.0
1758089402.92542,1758089392.98158,0.0,0.0,0.0,3.09397,-0.34377,-7.84952,8.75,0.51,2.33,3.0
1758089402.94332,1758089392.99158,0.0,0.0,0.0,0.57296,-8.65166,-9.11003,8.63,0.69,2.25,3.0
1758089402.95968,1758089393.00158,0.0,0.0,0.0,-1.03132,-14.72501,-10.19865,8.63,0.69,2.25,3.0
1758089402.98559,1758089393.01158,0.0,0.0,0.0,-2.34913,-19.88164,-11.17268,8.29,0.91,1.89,3.0
1758089402.98751,1758089393.02158,0.0,0.0,0.0,-3.20856,-24.57989,-10.94349,8.29,0.91,1.89,3.0
1758089402.98949,1758089393.03158,0.0,0.0,0.0,-4.0107,-31.39809,-9.4538,8.3,0.96,1.88,3.0
1758089402.99059,1758089393.04158,0.0,0.0,0.0,-4.52637,-36.21093,-7.73493,8.23,0.73,1.59,3.0
1758089403.00644,1758089393.05158,0.0,0.0,0.0,-4.58366,-41.31026,-5.61499,8.23,0.73,1.59,3.0
1758089403.00884,1758089393.06158,0.0,0.0,0.0,-4.46907,-45.03448,-3.03668,8.12,0.46,1.6,3.0
1758089403.02346,1758089393.07158,0.0,0.0,0.0,-4.58366,-45.03448,-0.34377,8.12,0.46,1.6,3.0
1758089403.03977,1758089393.08158,0.0,0.0,0.0,-4.92744,-41.25296,0.85944,8.66,0.44,1.55,3.0
1758089403.04305,1758089393.09158,0.0,0.0,0.0,-5.55769,-36.7266,1.71887,8.66,0.44,1.55,3.0
1758089403.05836,1758089393.10158,0.0,0.0,0.0,-6.53172,-31.2262,1.83346,8.85,0.64,1.86,3.0
1758089403.05958,1758089393.11158,0.0,0.0,0.0,-8.70896,-21.08485,1.71887,8.92,0.8,2.08,3.0
1758089403.07445,1758089393.12158,0.0,0.0,0.0,-10.37054,-14.03747,1.43239,8.92,0.8,2.08,3.0
1758089403.07648,1758089393.13158,0.0,0.0,0.0,-12.54778,-6.70361,0.80214,8.88,0.89,1.82,3.0
1758089403.09449,1758089393.14158,0.0,0.0,0.0,-16.04282,4.0107,-0.0573,8.88,0.89,1.82,3.0
1758089403.09651,1758089393.15158,0.0,0.0,0.0,-18.73572,8.88085,-0.57296,8.94,0.98,1.83,3.0
1758089403.11177,1758089393.16158,0.0,0.0,0.0,-21.48592,11.00079,-0.51566,8.94,0.98,1.83,3.0
1758089403.12752,1758089393.17158,0.0,0.0,0.0,-24.57989,10.31324,0.40107,8.99,1.12,2.12,3.0
1758089403.12897,1758089393.18158,0.0,0.0,0.0,-29.50733,6.8182,4.0107,9.33,1.12,2.8,3.0
1758089403.14382,1758089393.19158,0.0,0.0,0.0,-33.17426,5.95876,6.13065,9.33,1.35,2.8,3.0
1758089403.15979,1758089393.20158,0.0,0.0,0.0,-36.7266,4.52637,7.21927,9.97,1.66,2.94,3.0
1758089403.16171,1758089393.21158,0.0,0.0,0.0,-40.85189,0.74485,5.78687,9.97,1.66,2.94,3.0
1758089403.17676,1758089393.22158,0.0,0.0,0.0,-48.24305,-0.17189,0.51566,9.79,1.82,2.08,3.0
1758089403.17849,1758089393.23158,0.0,0.0,0.0,-52.54023,-2.97938,-2.23454,9.79,1.82,2.08,3.0
1758089403.1935,1758089393.24158,0.0,0.0,0.0,-59.01466,-0.51566,-7.04738,10.02,1.96,1.29,3.0
1758089403.20948,1758089393.25158,0.0,0.0,0.0,-63.88479,-2.06265,-10.08406,10.02,1.96,1.29,3.0
1758089403.21145,1758089393.26158,0.0,0.0,0.0,-71.10406,-3.55234,-12.83425,9.95,2.19,0.92,3.0
1758089403.22651,1758089393.27158,0.0,0.0,0.0,-74.771,-4.29718,-13.69369,10.32,2.27,0.36,3.0
1758089403.22801,1758089393.28158,0.0,0.0,0.0,-78.15145,-8.76626,-15.0115,10.32,2.27,0.36,3.0
1758089403.24364,1758089393.29158,0.0,0.0,0.0,-78.49522,-18.9649,-11.80293,9.47,1.84,-0.71,3.0
1758089403.25953,1758089393.30158,0.0,0.0,0.0,-75.57314,-29.04896,-7.33386,9.47,1.84,-0.71,3.0
1758089403.26099,1758089393.31158,0.0,0.0,0.0,-73.51049,-34.37747,-4.64096,9.2,0.97,-0.8,3.0
1758089403.27671,1758089393.32158,0.0,0.0,0.0,-72.13539,-35.98175,-2.57831,9.2,0.97,-0.8,3.0
1758089403.2786,1758089393.33158,0.0,0.0,0.0,-71.73432,-15.58445,-0.34377,9.37,0.25,-0.56,3.0
1758089403.29359,1758089393.34158,0.0,0.0,0.0,-70.47381,9.4538,-0.45837,11.5,0.13,1.14,3.0
1758089403.3095,1758089393.35158,0.0,0.0,0.0,-68.75494,1.48969,-0.11459,11.5,0.13,1.14,3.0
1758089403.31028,1758089393.36158,0.0,0.0,0.0,-71.16136,-24.4653,-3.72423,7.32,0.64,2.33,3.0
1758089403.3265,1758089393.37158,0.0,0.0,0.0,-72.76565,-47.72739,-8.59437,7.32,0.64,2.33,3.0
1758089403.32777,1758089393.38158,0.0,0.0,0.0,-73.79697,-51.22243,-12.54778,9.4,1.49,0.79,3.0
1758089403.34361,1758089393.39158,0.0,0.0,0.0,-72.88023,-46.00851,-13.06344,9.4,1.49,0.79,3.0
1758089403.35988,1758089393.40158,0.0,0.0,0.0,-72.53646,-41.02378,-13.98017,11.47,1.69,-0.94,3.0
1758089403.3603,1758089393.41158,0.0,0.0,0.0,-69.84356,-31.97105,-12.43318,11.33,1.15,1.01,3.0
1758089403.37625,1758089393.42158,0.0,0.0,0.0,-66.97877,-22.86102,-9.4538,11.33,1.15,1.01,3.0
1758089403.37759,1758089393.43158,0.0,0.0,0.0,-62.96807,-13.69369,-5.4431,11.55,0.19,2.12,3.0
1758089403.39294,1758089393.44158,0.0,0.0,0.0,-58.04062,-6.18794,-1.66158,11.55,0.19,2.12,3.0
1758089403.39775,1758089393.45158,0.0,0.0,0.0,-49.96192,-3.32316,1.77617,11.63,-1.07,2.81,3.0
1758089403.41361,1758089393.46158,0.0,0.0,0.0,-45.49285,-4.52637,1.66158,11.63,-1.07,2.81,3.0
1758089403.42979,1758089393.47158,0.0,0.0,0.0,-42.22699,-2.6929,-0.74485,11.69,-1.78,2.39,3.0
1758089403.43016,1758089393.48158,0.0,0.0,0.0,-39.19032,4.92744,-3.95341,11.69,-1.78,2.39,3.0
1758089403.44788,1758089393.49158,0.0,0.0,0.0,-33.11696,16.3293,-6.70361,12.96,-1.72,1.91,3.0
1758089403.44913,1758089393.50158,0.0,0.0,0.0,-30.59595,17.87628,-8.59437,11.99,-1.39,2.22,3.0
1758089403.46388,1758089393.51158,0.0,0.0,0.0,-29.27814,15.06879,-9.74028,11.99,-1.39,2.22,3.0
1758089403.47988,1758089393.52158,0.0,0.0,0.0,-31.74186,9.39651,-11.57375,10.01,-0.41,1.75,3.0
1758089403.48026,1758089393.53158,0.0,0.0,0.0,-30.76784,12.83425,-8.93814,10.01,-0.41,1.75,3.0
1758089403.4959,1758089393.54158,0.0,0.0,0.0,-32.83048,9.05273,-7.62034,9.5,0.32,1.62,3.0
1758089403.49683,1758089393.55158,0.0,0.0,0.0,-34.95043,3.26586,-5.4431,9.5,0.32,1.62,3.0
1758089403.51193,1758089393.56158,0.0,0.0,0.0,-37.24226,-0.0573,-1.71887,7.9,0.78,2.02,3.0
1758089403.52768,1758089393.57158,0.0,0.0,0.0,-38.15899,-2.57831,0.51566,8.22,0.81,2.39,3.0
1758089403.52908,1758089393.58158,0.0,0.0,0.0,-38.50277,-6.35983,2.40642,8.22,0.81,2.39,3.0
1758089403.54398,1758089393.59158,0.0,0.0,0.0,-38.84654,-10.25595,3.38045,8.68,0.66,2.21,3.0
1758089403.55992,1758089393.60158,0.0,0.0,0.0,-40.62271,-14.15206,3.83882,8.68,0.66,2.21,3.0
1758089403.56029,1758089393.61158,0.0,0.0,0.0,-42.68536,-16.55848,3.38045,9.93,0.24,1.93,3.0
1758089403.5755,1758089393.62158,0.0,0.0,0.0,-45.55015,-16.38659,2.29183,9.93,0.24,1.93,3.0
1758089403.57678,1758089393.63158,0.0,0.0,0.0,-49.04519,-13.98017,0.57296,11.17,0.09,1.44,3.0
1758089403.59196,1758089393.64158,0.0,0.0,0.0,-54.71747,-11.11538,-2.29183,11.79,0.18,1.64,3.0
1758089403.60762,1758089393.65158,0.0,0.0,0.0,-58.21251,-9.62569,-3.72423,11.79,0.18,1.64,3.0
1758089403.60893,1758089393.66158,0.0,0.0,0.0,-61.02001,-7.44845,-4.1253,11.48,0.13,1.37,3.0
1758089403.62366,1758089393.67158,0.0,0.0,0.0,-63.13995,-5.21392,-3.95341,11.48,0.13,1.37,3.0
1758089403.63963,1758089393.68158,0.0,0.0,0.0,-63.94209,-3.26586,-1.3751,10.7,-0.14,1.13,3.0
1758089403.64029,1758089393.69158,0.0,0.0,0.0,-63.19725,-2.63561,0.45837,10.7,-0.14,1.13,3.0
1758089403.65567,1758089393.70158,0.0,0.0,0.0,-61.76485,-2.34913,2.40642,9.55,-0.56,1.18,3.0
1758089403.65686,1758089393.71158,0.0,0.0,0.0,-59.98868,-2.63561,4.92744,9.55,-0.56,1.18,3.0
1758089403.67165,1758089393.72158,0.0,0.0,0.0,-57.29578,-2.86479,5.95876,8.57,-0.91,0.9,3.0
1758089403.6876,1758089393.73158,0.0,0.0,0.0,-55.86338,-3.20856,6.18794,7.91,-1.2,0.87,3.0
1758089403.68884,1758089393.74158,0.0,0.0,0.0,-54.66018,-2.92208,5.50039,7.91,-1.2,0.87,3.0
1758089403.70377,1758089393.75158,0.0,0.0,0.0,-53.45696,-0.97403,3.09397,7.66,-1.47,0.81,3.0
1758089403.71993,1758089393.76158,0.0,0.0,0.0,-52.54023,0.80214,0.97403,7.66,-1.47,0.81,3.0
1758089403.72035,1758089393.77158,0.0,0.0,0.0,-51.39432,3.20856,-1.03132,8.11,-1.65,1.03,3.0
1758089403.73592,1758089393.78158,0.0,0.0,0.0,-49.67545,6.87549,-2.23454,8.11,-1.65,1.03,3.0
1758089403.73712,1758089393.79158,0.0,0.0,0.0,-46.35228,14.38124,-3.03668,9.39,-1.59,0.86,3.0
1758089403.75196,1758089393.80158,0.0,0.0,0.0,-43.83128,21.02755,-3.20856,10.87,-1.86,0.96,3.0
1758089403.76775,1758089393.81158,0.0,0.0,0.0,-40.7946,24.57989,-2.57831,10.87,-1.86,0.96,3.0
1758089403.7689,1758089393.82158,0.0,0.0,0.0,-37.87251,25.21014,-1.48969,10.98,-2.34,1.01,3.0
1758089403.78397,1758089393.83158,0.0,0.0,0.0,-34.32018,25.09555,0.17189,10.98,-2.34,1.01,3.0
1758089403.79969,1758089393.84158,0.0,0.0,0.0,-32.48671,25.89769,1.3178,10.87,-2.59,0.81,3.0
1758089403.80029,1758089393.85158,0.0,0.0,0.0,-31.39809,26.41335,1.3178,10.87,-2.59,0.81,3.0
1758089403.81565,1758089393.86158,0.0,0.0,0.0,-30.30947,23.0902,2.06265,10.38,-2.41,0.7,3.0
1758089403.81691,1758089393.87158,0.0,0.0,0.0,-30.13758,19.07949,1.83346,9.77,-1.88,0.89,3.0
1758089403.83207,1758089393.88158,0.0,0.0,0.0,-29.8511,17.30333,2.11994,9.77,-1.88,0.89,3.0
1758089403.848,1758089393.89158,0.0,0.0,0.0,-30.13758,14.78231,0.40107,9.54,-1.5,1.01,3.0
1758089403.84918,1758089393.90158,0.0,0.0,0.0,-29.33544,11.63104,0.0573,9.54,-1.5,1.01,3.0
1758089403.86377,1758089393.91158,0.0,0.0,0.0,-27.38738,10.54242,-0.11459,9.37,-1.43,1.12,3.0
1758089403.86544,1758089393.92158,0.0,0.0,0.0,-26.06958,9.22462,-0.51566,9.37,-1.43,1.12,3.0
1758089403.88027,1758089393.93158,0.0,0.0,0.0,-24.80907,6.70361,-1.3178,9.06,-1.5,1.1,3.0
1758089403.89601,1758089393.94158,0.0,0.0,0.0,-22.40265,4.98473,-2.97938,9.06,-1.5,1.1,3.0
1758089403.8972,1758089393.95158,0.0,0.0,0.0,-20.85567,1.94806,-4.0107,8.78,-1.49,0.84,3.0
1758089403.91201,1758089393.96158,0.0,0.0,0.0,-19.25138,0.11459,-4.98473,8.76,-1.45,0.72,3.0
1758089403.92778,1758089393.97158,0.0,0.0,0.0,-17.99088,0.17189,-6.07335,8.76,-1.45,0.72,3.0
1758089403.92894,1758089393.98158,0.0,0.0,0.0,-16.90226,2.92208,-7.79223,9.16,-1.38,0.67,3.0
1758089403.94389,1758089393.99158,0.0,0.0,0.0,-16.38659,4.87014,-8.70896,9.16,-1.38,0.67,3.0
1758089403.94493,1758089394.00158,0.0,0.0,0.0,-16.38659,6.58902,-9.62569,9.45,-1.28,1.08,3.0
1758089403.96034,1758089394.01158,0.0,0.0,0.0,-16.10011,8.47978,-9.96947,9.45,-1.28,1.08,3.0
1758089403.97577,1758089394.02158,0.0,0.0,0.0,-16.21471,11.97482,-11.28727,9.72,-1.13,1.21,3.0
1758089403.97698,1758089394.03158,0.0,0.0,0.0,-15.75634,14.32395,-11.91752,9.9,-1.07,1.23,3.0
1758089403.99212,1758089394.04158,0.0,0.0,0.0,-14.43854,13.5791,-11.74564,9.9,-1.07,1.23,3.0
1758089404.00788,1758089394.05158,0.0,0.0,0.0,-12.60507,10.08406,-11.11538,9.59,-1.22,1.31,3.0
1758089404.00902,1758089394.06158,0.0,0.0,0.0,-8.93814,3.60963,-9.33921,9.59,-1.22,1.31,3.0
1758089404.02405,1758089394.07158,0.0,0.0,0.0,-5.84417,-0.80214,-7.96411,9.58,-1.62,0.95,3.0
1758089404.02497,1758089394.08158,0.0,0.0,0.0,-2.40642,-5.09932,-6.87549,9.58,-1.62,0.95,3.0
1758089404.04036,1758089394.09158,0.0,0.0,0.0,1.03132,-9.05273,-6.35983,9.58,-2.04,0.5,3.0
1758089404.05571,1758089394.10158,0.0,0.0,0.0,6.35983,-16.90226,-7.67763,9.26,-2.09,0.33,3.0
1758089404.05691,1758089394.11158,0.0,0.0,0.0,7.79223,-26.69983,-8.59437,9.26,-2.09,0.33,3.0
1758089404.07177,1758089394.12158,0.0,0.0,0.0,7.62034,-29.56462,-11.28727,9.13,-1.47,0.07,3.0
1758089404.08808,1758089394.13158,0.0,0.0,0.0,7.67763,-21.08485,-13.23533,9.13,-1.47,0.07,3.0
1758089404.089,1758089394.14158,0.0,0.0,0.0,8.25059,2.97938,-16.3293,11.09,-0.96,0.34,3.0
1758089404.10405,1758089394.15158,0.0,0.0,0.0,7.33386,15.75634,-19.07949,11.09,-0.96,0.34,3.0
1758089404.10502,1758089394.16158,0.0,0.0,0.0,9.62569,3.66693,-22.57454,9.77,-0.48,1.76,3.0
1758089404.12125,1758089394.17158,0.0,0.0,0.0,12.71966,-50.82136,-17.30333,9.77,-0.48,1.76,3.0
1758089404.13704,1758089394.18158,0.0,0.0,0.0,14.83961,-57.12389,-11.86023,5.73,-0.56,0.23,3.0
1758089404.13843,1758089394.19158,0.0,0.0,0.0,14.78231,-47.72739,-8.42248,11.16,-0.9,-0.53,3.0
1758089404.15302,1758089394.20158,0.0,0.0,0.0,14.03747,-45.03448,-6.7609,11.16,-0.9,-0.53,3.0
1758089404.1544,1758089394.21158,0.0,0.0,0.0,11.34457,-47.61279,-4.58366,10.24,-0.8,0.34,3.0
1758089404.17289,1758089394.22158,0.0,0.0,0.0,7.33386,-41.99781,-3.66693,10.24,-0.8,0.34,3.0
1758089404.17399,1758089394.23158,0.0,0.0,0.0,1.66158,-34.60666,-2.6929,12.09,-0.56,4.48,3.0
1758089404.19072,1758089394.24158,0.0,0.0,0.0,-5.4431,-28.64789,-1.71887,12.09,-0.56,4.48,3.0
1758089404.20783,1758089394.25158,0.0,0.0,0.0,-16.90226,-22.11617,1.14592,13.36,-0.01,3.73,3.0
1758089404.20905,1758089394.26158,0.0,0.0,0.0,-23.20479,-18.90761,1.66158,12.52,0.51,2.36,3.0
1758089404.22378,1758089394.27158,0.0,0.0,0.0,-28.30412,-14.20935,1.48969,12.52,0.51,2.36,3.0
1758089404.22501,1758089394.28158,0.0,0.0,0.0,-32.20023,-10.25595,-1.66158,11.34,0.77,0.49,3.0
1758089404.24037,1758089394.29158,0.0,0.0,0.0,-35.3515,-1.03132,-8.59437,11.34,0.77,0.49,3.0
1758089404.25584,1758089394.30158,0.0,0.0,0.0,-35.40879,4.35448,-13.75099,10.89,0.87,0.39,3.0
1758089404.2578,1758089394.31158,0.0,0.0,0.0,-34.0337,6.70361,-17.53251,10.89,0.87,0.39,3.0
1758089404.27311,1758089394.32158,0.0,0.0,0.0,-31.62727,7.96411,-19.88164,9.87,0.53,1.4,3.0
1758089404.27403,1758089394.33158,0.0,0.0,0.0,-27.04361,11.63104,-21.42862,9.45,0.02,1.17,3.0
1758089404.29311,1758089394.34158,0.0,0.0,0.0,-24.00693,13.69369,-21.25674,9.45,0.02,1.17,3.0
1758089404.29405,1758089394.35158,0.0,0.0,0.0,-21.37133,13.5218,-20.3973,9.08,-0.52,1.12,3.0
1758089404.31075,1758089394.36158,0.0,0.0,0.0,-18.90761,12.54778,-18.27736,9.08,-0.52,1.12,3.0
1758089404.32709,1758089394.37158,0.0,0.0,0.0,-18.62113,9.74028,-17.13144,8.92,-1.02,1.29,3.0
1758089404.32888,1758089394.38158,0.0,0.0,0.0,-19.07949,6.47442,-16.10011,8.92,-1.02,1.29,3.0
1758089404.34414,1758089394.39158,0.0,0.0,0.0,-20.11082,0.51566,-14.72501,8.7,-1.19,1.6,3.0
1758089404.3459,1758089394.40158,0.0,0.0,0.0,-22.63183,-7.67763,-11.45916,8.7,-1.19,1.6,3.0
1758089404.36118,1758089394.41158,0.0,0.0,0.0,-25.26744,-12.49048,-8.02141,8.77,-0.83,1.95,3.0
1758089404.377,1758089394.42158,0.0,0.0,0.0,-25.72581,-17.01685,-4.87014,9.23,0.11,2.14,3.0
1758089404.3781,1758089394.43158,0.0,0.0,0.0,-27.04361,-18.16276,-0.80214,9.23,0.11,2.14,3.0
1758089404.39291,1758089394.44158,0.0,0.0,0.0,-29.04896,-16.55848,3.26586,10.28,1.09,2.18,3.0
1758089404.3945,1758089394.45158,0.0,0.0,0.0,-30.65324,-14.03747,5.09932,10.28,1.09,2.18,3.0
1758089404.41112,1758089394.46158,0.0,0.0,0.0,-32.54401,-11.17268,5.84417,10.91,1.8,2.12,3.0
1758089404.42768,1758089394.47158,0.0,0.0,0.0,-34.95043,-7.50575,5.15662,10.91,1.8,2.12,3.0
1758089404.42885,1758089394.48158,0.0,0.0,0.0,-39.07573,-0.40107,2.6929,11.25,2.18,1.82,3.0
1758089404.44432,1758089394.49158,0.0,0.0,0.0,-41.99781,3.89611,0.40107,11.42,2.13,1.6,3.0
1758089404.4451,1758089394.50158,0.0,0.0,0.0,-45.09178,7.21927,-1.3178,11.42,2.13,1.6,3.0
1758089404.46015,1758089394.51158,0.0,0.0,0.0,-47.78468,10.94349,-2.97938,11.1,1.75,1.57,3.0
1758089404.47797,1758089394.52158,0.0,0.0,0.0,-51.79538,14.49583,-4.64096,11.1,1.75,1.57,3.0
1758089404.47886,1758089394.53158,0.0,0.0,0.0,-54.14451,14.61043,-5.21392,10.6,1.46,1.59,3.0
1758089404.49397,1758089394.54158,0.0,0.0,0.0,-55.97798,15.58445,-4.92744,10.6,1.46,1.59,3.0
1758089404.49537,1758089394.55158,0.0,0.0,0.0,-57.75415,17.76169,-3.72423,10.35,1.26,1.51,3.0
1758089404.51021,1758089394.56158,0.0,0.0,0.0,-60.44705,20.97026,-3.55234,10.07,1.12,1.64,3.0
1758089404.52797,1758089394.57158,0.0,0.0,0.0,-62.62429,22.97561,-3.32316,10.07,1.12,1.64,3.0
1758089404.52894,1758089394.58158,0.0,0.0,0.0,-65.08801,22.74642,-3.55234,9.41,1.21,1.63,3.0
1758089404.54394,1758089394.59158,0.0,0.0,0.0,-69.55708,20.34,-4.29718,9.41,1.21,1.63,3.0
1758089404.54516,1758089394.60158,0.0,0.0,0.0,-72.42187,19.99623,-4.35448,9.01,1.53,1.4,3.0
1758089404.55991,1758089394.61158,0.0,0.0,0.0,-75.05748,19.99623,-4.23989,9.01,1.53,1.4,3.0
1758089404.57595,1758089394.62158,0.0,0.0,0.0,-78.15145,18.9649,-4.18259,9.11,1.83,1.29,3.0
1758089404.57713,1758089394.63158,0.0,0.0,0.0,-82.16215,14.66772,-3.55234,8.9,1.83,1.17,3.0
1758089404.5922,1758089394.64158,0.0,0.0,0.0,-84.74047,14.43854,-2.46372,8.9,1.92,1.17,3.0
1758089404.60805,1758089394.65158,0.0,0.0,0.0,-87.43336,15.0115,-2.34913,9.44,1.69,1.2,3.0
1758089404.60917,1758089394.66158,0.0,0.0,0.0,-90.12627,15.87093,-2.11994,9.44,1.69,1.2,3.0
1758089404.62395,1758089394.67158,0.0,0.0,0.0,-93.7359,16.10011,-2.46372,9.6,1.31,1.14,3.0
1758089404.62515,1758089394.68158,0.0,0.0,0.0,-95.97043,16.10011,-2.92208,9.6,1.31,1.14,3.0
1758089404.63997,1758089394.69158,0.0,0.0,0.0,-97.86119,17.6471,-3.03668,9.63,1.05,1.09,3.0
1758089404.65596,1758089394.70158,0.0,0.0,0.0,-98.72063,20.22541,-2.86479,9.63,1.05,1.09,3.0
1758089404.65716,1758089394.71158,0.0,0.0,0.0,-99.35089,24.23611,-1.77617,9.84,1.02,0.99,3.0
1758089404.67186,1758089394.72158,0.0,0.0,0.0,-98.94981,25.61122,-1.14592,9.95,1.07,0.96,3.0
1758089404.68801,1758089394.73158,0.0,0.0,0.0,-98.54874,27.50197,-0.11459,9.95,1.07,0.96,3.0
1758089404.68918,1758089394.74158,0.0,0.0,0.0,-98.66334,27.84575,0.74485,10.25,1.13,0.96,3.0
1758089404.70419,1758089394.75158,0.0,0.0,0.0,-99.00711,24.00693,0.97403,10.25,1.13,0.96,3.0
1758089404.70521,1758089394.76158,0.0,0.0,0.0,-99.29359,22.34536,0.85944,10.07,0.95,0.48,3.0
1758089404.72106,1758089394.77158,0.0,0.0,0.0,-100.5541,18.9649,-0.17189,10.07,0.95,0.48,3.0
1758089404.7372,1758089394.78158,0.0,0.0,0.0,-104.79399,11.45916,-2.57831,9.62,0.85,0.16,3.0
1758089404.73821,1758089394.79158,0.0,0.0,0.0,-109.14847,7.10468,-5.09932,9.02,1.36,0.41,3.0
1758089404.75303,1758089394.80158,0.0,0.0,0.0,-115.27911,0.57296,-7.84952,9.02,1.36,0.41,3.0
1758089404.75421,1758089394.81158,0.0,0.0,0.0,-121.23788,-8.70896,-8.25059,8.17,2.18,0.26,3.0
1758089404.77003,1758089394.82158,0.0,0.0,0.0,-132.63974,-19.36597,-13.80828,8.17,2.18,0.26,3.0
1758089404.78701,1758089394.83158,0.0,0.0,0.0,-138.08284,-23.54857,-13.00614,8.03,2.84,0.57,3.0
1758089404.78821,1758089394.84158,0.0,0.0,0.0,-143.18216,-32.83048,-14.20935,8.03,2.84,0.57,3.0
1758089404.80302,1758089394.85158,0.0,0.0,0.0,-147.65123,-42.05511,-15.24068,8.28,2.59,0.81,3.0
1758089404.80426,1758089394.86158,0.0,0.0,0.0,-150.34413,-39.07573,-18.50654,10.6,1.8,0.48,3.0
1758089404.82008,1758089394.87158,0.0,0.0,0.0,-148.56796,-30.36677,-16.272,10.6,1.8,0.48,3.0
1758089404.83636,1758089394.88158,0.0,0.0,0.0,-144.61456,-25.49662,-15.12609,12.29,0.1,1.45,3.0
1758089404.83806,1758089394.89158,0.0,0.0,0.0,-138.65579,-26.87172,-13.12073,12.29,0.1,1.45,3.0
1758089404.85336,1758089394.90158,0.0,0.0,0.0,-128.22797,-36.15364,-12.204,11.43,-1.56,3.4,3.0
1758089404.8543,1758089394.91158,0.0,0.0,0.0,-121.00869,-37.52874,-12.83425,11.43,-1.56,3.4,3.0
1758089404.87036,1758089394.92158,0.0,0.0,0.0,-112.12785,-33.51803,-16.10011,12.36,-3.26,2.99,3.0
1758089404.88708,1758089394.93158,0.0,0.0,0.0,-98.54874,-53.97263,-11.51645,12.36,-3.26,2.99,3.0
1758089404.88874,1758089394.94158,0.0,0.0,0.0,-98.77792,-108.6901,-15.98552,9.94,-4.58,2.43,3.0
1758089404.90331,1758089394.95158,0.0,0.0,0.0,-97.46013,-76.0315,-14.03747,11.99,-3.24,-0.93,3.0
1758089404.90458,1758089394.96158,0.0,0.0,0.0,-102.67403,-34.37747,-12.49048,11.99,-3.24,-0.93,3.0
1758089404.92006,1758089394.97158,0.0,0.0,0.0,-116.76881,-9.85487,-15.69904,13.78,-2.17,0.55,3.0
1758089404.95607,1758089394.98158,0.0,0.0,0.0,-122.67027,-23.0329,-14.43854,13.78,-2.17,0.55,3.0
1758089404.95877,1758089394.99158,0.0,0.0,0.0,-121.35246,-19.99623,-10.02676,7.39,-0.71,3.88,3.0
1758089404.95941,1758089395.00158,0.0,0.0,0.0,-117.74284,-3.09397,-4.52637,7.39,-0.71,3.88,3.0
1758089404.96068,1758089395.01158,0.0,0.0,0.0,-111.09652,12.14671,3.55234,9.73,-0.16,0.12,3.0
1758089404.9769,1758089395.02158,0.0,0.0,0.0,-107.4296,12.43318,6.70361,7.96,-0.7,-0.71,3.0
1758089404.97811,1758089395.03158,0.0,0.0,0.0,-104.6794,15.24068,7.39116,7.96,-0.7,-0.71,3.0
1758089404.99313,1758089395.04158,0.0,0.0,0.0,-102.78864,22.00158,6.35983,9.0,-1.56,-0.82,3.0
1758089404.99433,1758089395.05158,0.0,0.0,0.0,-100.38221,32.42941,0.68755,9.0,-1.56,-0.82,3.0
1758089405.0101,1758089395.06158,0.0,0.0,0.0,-100.03843,35.98175,-2.57831,10.24,-2.49,-0.72,3.0
1758089405.02808,1758089395.07158,0.0,0.0,0.0,-99.92384,37.87251,-5.55769,10.24,-2.49,-0.72,3.0
1758089405.02934,1758089395.08158,0.0,0.0,0.0,-100.15303,42.57077,-7.84952,10.56,-2.81,-0.99,3.0
1758089405.0444,1758089395.09158,0.0,0.0,0.0,-100.32492,48.01387,-9.74028,11.03,-2.61,-0.79,3.0
1758089405.04876,1758089395.10158,0.0,0.0,0.0,-99.58006,49.67545,-9.5684,11.03,-2.61,-0.79,3.0
1758089405.06414,1758089395.11158,0.0,0.0,0.0,-98.20497,51.39432,-8.76626,10.78,-2.25,-0.71,3.0
1758089405.0661,1758089395.12158,0.0,0.0,0.0,-96.19962,52.36834,-7.62034,10.78,-2.25,-0.71,3.0
1758089405.08112,1758089395.13158,0.0,0.0,0.0,-92.93376,50.53488,-5.90147,10.43,-2.14,-0.48,3.0
1758089405.09813,1758089395.14158,0.0,0.0,0.0,-90.52733,47.95657,-5.09932,10.43,-2.14,-0.48,3.0
1758089405.0997,1758089395.15158,0.0,0.0,0.0,-87.94903,45.72203,-4.98473,9.9,-2.22,-0.38,3.0
1758089405.11451,1758089395.16158,0.0,0.0,0.0,-85.82908,43.02913,-5.55769,9.9,-2.22,-0.38,3.0
1758089405.1161,1758089395.17158,0.0,0.0,0.0,-83.82372,36.89849,-7.04738,9.6,-2.3,-0.21,3.0
1758089405.13222,1758089395.18158,0.0,0.0,0.0,-83.42266,31.74186,-8.65166,8.97,-2.14,-0.15,3.0
1758089405.14842,1758089395.19158,0.0,0.0,0.0,-83.25077,26.69983,-10.25595,8.97,-2.14,-0.15,3.0
1758089405.15329,1758089395.20158,0.0,0.0,0.0,-83.13618,17.76169,-11.80293,8.78,-2.02,0.0,3.0
1758089405.16844,1758089395.21158,0.0,0.0,0.0,-82.67782,11.86023,-11.86023,8.78,-2.02,0.0,3.0
1758089405.16936,1758089395.22158,0.0,0.0,0.0,-81.5892,7.62034,-11.57375,8.85,-2.04,0.11,3.0
1758089405.18427,1758089395.23158,0.0,0.0,0.0,-80.04221,3.95341,-10.65701,8.85,-2.04,0.11,3.0
1758089405.18853,1758089395.24158,0.0,0.0,0.0,-77.06283,1.14592,-8.47978,9.2,-2.15,0.26,3.0
1758089405.20409,1758089395.25158,0.0,0.0,0.0,-74.94289,1.43239,-7.50575,9.55,-2.24,0.42,3.0
1758089405.20612,1758089395.26158,0.0,0.0,0.0,-72.70835,2.7502,-6.7609,9.55,-2.24,0.42,3.0
1758089405.22116,1758089395.27158,0.0,0.0,0.0,-70.24463,4.69825,-6.24524,9.82,-2.25,0.75,3.0
1758089405.23798,1758089395.28158,0.0,0.0,0.0,-66.00475,8.59437,-5.55769,9.82,-2.25,0.75,3.0
1758089405.23947,1758089395.29158,0.0,0.0,0.0,-62.16592,10.65701,-4.98473,10.05,-2.28,0.83,3.0
1758089405.25415,1758089395.30158,0.0,0.0,0.0,-57.92604,12.37589,-4.35448,10.05,-2.28,0.83,3.0
1758089405.25613,1758089395.31158,0.0,0.0,0.0,-53.17049,13.23533,-3.60963,10.08,-2.46,0.68,3.0
1758089405.27114,1758089395.32158,0.0,0.0,0.0,-44.748,15.69904,-2.63561,10.15,-2.69,0.48,3.0
1758089405.28728,1758089395.33158,0.0,0.0,0.0,-40.62271,17.58981,-3.09397,10.15,-2.69,0.48,3.0
1758089405.2886,1758089395.34158,0.0,0.0,0.0,-37.87251,15.35527,-3.55234,9.82,-2.73,0.56,3.0
1758089405.30318,1758089395.35158,0.0,0.0,0.0,-37.47144,15.24068,-4.52637,9.82,-2.73,0.56,3.0
1758089405.3075,1758089395.36158,0.0,0.0,0.0,-37.92981,34.0337,-6.13065,10.23,-2.63,0.83,3.0
1758089405.32397,1758089395.37158,0.0,0.0,0.0,-36.26823,52.19646,-4.98473,10.23,-2.63,0.83,3.0
1758089405.32543,1758089395.38158,0.0,0.0,0.0,-35.52338,61.1346,-8.0787,11.36,-2.4,1.67,3.0
1758089405.34101,1758089395.39158,0.0,0.0,0.0,-27.78845,38.1017,-6.8182,11.36,-2.4,1.67,3.0
1758089405.35817,1758089395.40158,0.0,0.0,0.0,-22.23076,-10.8862,-0.68755,6.5,-2.45,1.93,3.0
1758089405.35938,1758089395.41158,0.0,0.0,0.0,-14.9542,-10.37054,6.58902,8.88,-3.07,-0.04,3.0
1758089405.37418,1758089395.42158,0.0,0.0,0.0,-11.34457,0.80214,8.88085,8.88,-3.07,-0.04,3.0
1758089405.37697,1758089395.43158,0.0,0.0,0.0,-11.11538,5.50039,7.62034,10.81,-2.98,-0.3,3.0
1758089405.39304,1758089395.44158,0.0,0.0,0.0,-12.43318,-0.51566,5.61499,10.81,-2.98,-0.3,3.0
1758089405.39418,1758089395.45158,0.0,0.0,0.0,-14.15206,-5.09932,2.63561,7.94,-2.9,1.38,3.0
1758089405.41102,1758089395.46158,0.0,0.0,0.0,-16.61578,-5.09932,-0.97403,7.94,-2.9,1.38,3.0
1758089405.42778,1758089395.47158,0.0,0.0,0.0,-19.25138,-9.11003,-5.90147,8.29,-2.28,1.99,3.0
1758089405.42918,1758089395.48158,0.0,0.0,0.0,-19.88164,-12.2613,-7.73493,8.23,-1.49,1.02,3.0
1758089405.44435,1758089395.49158,0.0,0.0,0.0,-19.82434,-16.3293,-8.42248,8.23,-1.49,1.02,3.0
1758089405.44623,1758089395.50158,0.0,0.0,0.0,-18.50654,-20.68378,-8.88085,8.68,-1.06,1.13,3.0
1758089405.4622,1758089395.51158,0.0,0.0,0.0,-15.35527,-26.18417,-8.99544,8.68,-1.06,1.13,3.0
1758089405.47851,1758089395.52158,0.0,0.0,0.0,-12.43318,-29.33544,-9.11003,9.32,-1.2,1.14,3.0
1758089405.47973,1758089395.53158,0.0,0.0,0.0,-9.33921,-31.28349,-9.22462,9.32,-1.2,1.14,3.0
1758089405.49422,1758089395.54158,0.0,0.0,0.0,-6.47442,-31.85646,-9.5684,10.05,-1.78,1.69,3.0
1758089405.49703,1758089395.55158,0.0,0.0,0.0,-3.60963,-29.27814,-10.54242,10.81,-2.52,2.02,3.0
1758089405.51252,1758089395.56158,0.0,0.0,0.0,-2.63561,-26.81443,-11.28727,10.81,-2.52,2.02,3.0
1758089405.52851,1758089395.57158,0.0,0.0,0.0,-2.11994,-24.4653,-11.45916,11.18,-2.93,2.25,3.0
1758089405.52939,1758089395.58158,0.0,0.0,0.0,-2.06265,-22.63183,-11.11538,11.18,-2.93,2.25,3.0
1758089405.54429,1758089395.59158,0.0,0.0,0.0,-2.92208,-19.82434,-10.31324,10.93,-2.78,2.27,3.0
1758089405.54547,1758089395.60158,0.0,0.0,0.0,-3.72423,-16.3293,-9.85487,10.93,-2.78,2.27,3.0
1758089405.56043,1758089395.61158,0.0,0.0,0.0,-5.32851,-8.59437,-10.19865,10.72,-2.25,2.03,3.0
1758089405.57898,1758089395.62158,0.0,0.0,0.0,-9.22462,5.27121,-13.12073,10.72,-2.25,2.03,3.0
1758089405.57919,1758089395.63158,0.0,0.0,0.0,-12.77696,10.8862,-16.38659,10.86,-1.39,2.16,3.0
1758089405.59405,1758089395.64158,0.0,0.0,0.0,-16.38659,11.22997,-18.50654,10.34,-0.46,2.17,3.0
1758089405.596,1758089395.65158,0.0,0.0,0.0,-21.31403,11.34457,-20.85567,10.34,-0.46,2.17,3.0
1758089405.61129,1758089395.66158,0.0,0.0,0.0,-27.04361,4.18259,-21.14215,10.31,0.14,2.12,3.0
1758089405.62716,1758089395.67158,0.0,0.0,0.0,-28.76248,-7.50575,-18.85031,10.31,0.14,2.12,3.0
1758089405.62841,1758089395.68158,0.0,0.0,0.0,-28.64789,-15.98552,-16.3293,9.78,0.0,2.15,3.0
1758089405.64357,1758089395.69158,0.0,0.0,0.0,-27.73116,-16.90226,-15.12609,9.78,0.0,2.15,3.0
1758089405.64476,1758089395.70158,0.0,0.0,0.0,-26.52795,-13.12073,-15.69904,10.07,-0.68,1.27,3.0
1758089405.66127,1758089395.71158,0.0,0.0,0.0,-25.89769,-8.25059,-16.272,9.9,-1.26,0.95,3.0
1758089405.67838,1758089395.72158,0.0,0.0,0.0,-26.01229,-1.08862,-16.84496,9.9,-1.26,0.95,3.0
1758089405.67994,1758089395.73158,0.0,0.0,0.0,-25.61122,5.50039,-17.18874,9.98,-1.56,1.13,3.0
1758089405.69739,1758089395.74158,0.0,0.0,0.0,-24.29341,13.00614,-17.36062,9.98,-1.56,1.13,3.0
1758089405.69829,1758089395.75158,0.0,0.0,0.0,-23.0329,15.46986,-17.53251,9.47,-1.48,0.9,3.0
1758089405.71362,1758089395.76158,0.0,0.0,0.0,-21.6578,15.98552,-17.18874,9.47,-1.48,0.9,3.0
1758089405.71556,1758089395.77158,0.0,0.0,0.0,-20.79837,16.95955,-17.13144,9.13,-1.18,1.08,3.0
1758089405.73167,1758089395.78158,0.0,0.0,0.0,-20.68378,20.62648,-16.84496,9.53,-0.79,1.28,3.0
1758089405.74722,1758089395.79158,0.0,0.0,0.0,-22.23076,22.57454,-16.95955,9.53,-0.79,1.28,3.0
1758089405.74849,1758089395.80158,0.0,0.0,0.0,-25.26744,23.49127,-17.47521,9.95,-0.26,1.57,3.0
1758089405.7645,1758089395.81158,0.0,0.0,0.0,-31.79916,23.89234,-17.99088,9.95,-0.26,1.57,3.0
1758089405.76552,1758089395.82158,0.0,0.0,0.0,-37.24226,23.0902,-18.73572,10.31,0.37,1.46,3.0
1758089405.78139,1758089395.83158,0.0,0.0,0.0,-42.85724,22.97561,-19.59516,10.31,0.37,1.46,3.0
1758089405.78584,1758089395.84158,0.0,0.0,0.0,-47.95657,23.26209,-20.62648,10.58,0.9,1.2,3.0
1758089405.80334,1758089395.85158,0.0,0.0,0.0,-54.431,23.89234,-22.63183,10.58,0.9,1.2,3.0
1758089405.80453,1758089395.86158,0.0,0.0,0.0,-56.55093,18.9649,-23.83505,10.5,1.12,1.03,3.0
1758089405.82366,1758089395.87158,0.0,0.0,0.0,-56.60823,12.71966,-24.17882,9.76,1.03,1.04,3.0
1758089405.82436,1758089395.88158,0.0,0.0,0.0,-54.25911,5.50039,-24.5226,9.76,1.03,1.04,3.0
1758089405.84276,1758089395.89158,0.0,0.0,0.0,-50.13381,-4.64096,-23.54857,9.43,0.51,0.78,3.0
1758089405.85836,1758089395.90158,0.0,0.0,0.0,-48.35764,-8.36518,-24.23611,9.43,0.51,0.78,3.0
1758089405.85949,1758089395.91158,0.0,0.0,0.0,-47.61279,6.18794,-21.7724,10.39,0.17,0.74,3.0
1758089405.87435,1758089395.92158,0.0,0.0,0.0,-46.40959,25.7831,-23.20479,10.39,0.17,0.74,3.0
1758089405.8755,1758089395.93158,0.0,0.0,0.0,-57.0093,19.88164,-28.59059,11.53,0.26,1.52,3.0
1758089405.89039,1758089395.94158,0.0,0.0,0.0,-61.24919,9.96947,-31.2262,8.62,0.68,1.94,3.0
1758089405.90822,1758089395.95158,0.0,0.0,0.0,-63.99939,5.50039,-34.14828,8.62,0.68,1.94,3.0
1758089405.90936,1758089395.96158,0.0,0.0,0.0,-63.54102,4.98473,-33.51803,9.64,0.86,1.48,3.0
1758089405.9244,1758089395.97158,0.0,0.0,0.0,-59.70221,-6.18794,-29.67921,9.64,0.86,1.48,3.0
1758089405.92562,1758089395.98158,0.0,0.0,0.0,-56.37905,-11.86023,-26.47065,8.92,0.56,0.38,3.0
1758089405.94049,1758089395.99158,0.0,0.0,0.0,-52.71212,-12.77696,-23.0329,8.92,0.56,0.38,3.0
1758089405.95657,1758089396.00158,0.0,0.0,0.0,-49.27437,-14.03747,-19.59516,9.66,0.03,0.78,3.0
1758089405.95837,1758089396.01158,0.0,0.0,0.0,-45.14908,-16.90226,-18.56383,9.62,-0.21,1.06,3.0
1758089405.97335,1758089396.02158,0.0,0.0,0.0,-43.77398,-19.19409,-18.50654,9.62,-0.21,1.06,3.0
1758089405.97536,1758089396.03158,0.0,0.0,0.0,-43.88857,-20.85567,-19.19409,9.67,0.03,1.45,3.0
1758089405.99174,1758089396.04158,0.0,0.0,0.0,-46.1804,-23.83505,-19.88164,9.67,0.03,1.45,3.0
1758089406.00816,1758089396.05158,0.0,0.0,0.0,-48.8733,-25.26744,-20.45459,9.78,0.65,1.25,3.0
1758089406.01108,1758089396.06158,0.0,0.0,0.0,-51.39432,-26.47065,-20.34,9.78,0.65,1.25,3.0
1758089406.02643,1758089396.07158,0.0,0.0,0.0,-54.02992,-27.38738,-20.16812,9.95,1.24,1.26,3.0
1758089406.02759,1758089396.08158,0.0,0.0,0.0,-56.32175,-27.10091,-19.42327,9.95,1.24,1.19,3.0
1758089406.04346,1758089396.09158,0.0,0.0,0.0,-56.14987,-25.15285,-18.85031,10.09,1.44,1.19,3.0
1758089406.04482,1758089396.10158,0.0,0.0,0.0,-55.11855,-20.79837,-18.44924,10.35,1.26,0.9,3.0
1758089406.06169,1758089396.11158,0.0,0.0,0.0,-53.91533,-15.35527,-18.62113,10.35,1.26,0.9,3.0
1758089406.0787,1758089396.12158,0.0,0.0,0.0,-51.50891,-7.33386,-19.07949,10.46,0.99,0.95,3.0
1758089406.08084,1758089396.13158,0.0,0.0,0.0,-49.79003,-1.03132,-19.13679,10.46,0.99,0.95,3.0
1758089406.09545,1758089396.14158,0.0,0.0,0.0,-48.30034,4.46907,-19.82434,10.6,0.77,0.99,3.0
1758089406.09664,1758089396.15158,0.0,0.0,0.0,-46.2377,6.53172,-19.36597,10.6,0.77,0.99,3.0
1758089406.11142,1758089396.16158,0.0,0.0,0.0,-43.65939,3.60963,-17.36062,10.28,0.67,1.04,3.0
1758089406.12747,1758089396.17158,0.0,0.0,0.0,-42.51347,3.49504,-15.98552,10.27,0.73,0.73,3.0
1758089406.12864,1758089396.18158,0.0,0.0,0.0,-41.88322,4.29718,-15.06879,10.27,0.73,0.73,3.0
1758089406.14378,1758089396.19158,0.0,0.0,0.0,-42.1124,3.83882,-14.61043,10.28,1.0,1.02,3.0
1758089406.14573,1758089396.20158,0.0,0.0,0.0,-42.39888,2.57831,-14.20935,10.28,1.0,1.02,3.0
1758089406.16152,1758089396.21158,0.0,0.0,0.0,-43.25832,1.14592,-14.43854,10.01,1.35,1.29,3.0
1758089406.17874,1758089396.22158,0.0,0.0,0.0,-43.94586,-0.74485,-14.49583,10.01,1.35,1.29,3.0
1758089406.18003,1758089396.23158,0.0,0.0,0.0,-45.26366,-4.81285,-14.66772,9.74,1.64,1.21,3.0
1758089406.19449,1758089396.24158,0.0,0.0,0.0,-46.1231,-7.04738,-14.49583,9.62,1.78,1.24,3.0
1758089406.19808,1758089396.25158,0.0,0.0,0.0,-46.46688,-8.47978,-14.32395,9.62,1.78,1.24,3.0
1758089406.21348,1758089396.26158,0.0,0.0,0.0,-46.35228,-9.22462,-13.86558,9.68,1.67,1.27,3.0
1758089406.21559,1758089396.27158,0.0,0.0,0.0,-44.9199,-6.8182,-13.23533,9.68,1.67,1.27,3.0
1758089406.23154,1758089396.28158,0.0,0.0,0.0,-42.74266,-2.06265,-12.60507,9.91,1.34,1.32,3.0
1758089406.24768,1758089396.29158,0.0,0.0,0.0,-39.53409,3.60963,-12.14671,9.91,1.34,1.32,3.0
1758089406.24951,1758089396.30158,0.0,0.0,0.0,-35.75257,8.88085,-11.45916,10.06,0.83,1.34,3.0
1758089406.26452,1758089396.31158,0.0,0.0,0.0,-29.33544,16.04282,-10.71431,9.94,0.34,1.28,3.0
1758089406.26894,1758089396.32158,0.0,0.0,0.0,-24.75178,20.34,-10.08406,9.94,0.34,1.28,3.0
1758089406.28454,1758089396.33158,0.0,0.0,0.0,-20.34,23.31938,-9.05273,9.94,0.1,1.37,3.0
1758089406.28892,1758089396.34158,0.0,0.0,0.0,-16.38659,24.75178,-8.02141,9.94,0.1,1.37,3.0
1758089406.30478,1758089396.35158,0.0,0.0,0.0,-11.57375,26.06958,-5.95876,9.96,0.18,1.5,3.0
1758089406.30682,1758089396.36158,0.0,0.0,0.0,-9.33921,26.64254,-4.58366,9.96,0.18,1.5,3.0
1758089406.32151,1758089396.37158,0.0,0.0,0.0,-7.79223,25.55392,-3.55234,10.09,0.44,1.72,3.0
1758089406.33753,1758089396.38158,0.0,0.0,0.0,-7.21927,24.5226,-2.40642,10.09,0.44,1.72,3.0
1758089406.33867,1758089396.39158,0.0,0.0,0.0,-7.33386,21.94428,-0.57296,10.0,0.79,1.86,3.0
1758089406.35344,1758089396.40158,0.0,0.0,0.0,-7.84952,18.90761,0.22918,9.82,1.12,1.69,3.0
1758089406.35544,1758089396.41158,0.0,0.0,0.0,-9.05273,14.43854,0.34377,9.82,1.12,1.69,3.0
1758089406.37253,1758089396.42158,0.0,0.0,0.0,-10.25595,12.89155,1.20321,9.55,1.41,1.59,3.0
1758089406.38858,1758089396.43158,0.0,0.0,0.0,-12.204,7.84952,1.48969,9.55,1.41,1.59,3.0
1758089406.39132,1758089396.44158,0.0,0.0,0.0,-12.60507,11.57375,1.03132,9.34,1.55,1.35,3.0
1758089406.40658,1758089396.45158,0.0,0.0,0.0,-11.97482,24.35071,2.40642,9.34,1.55,1.35,3.0
1758089406.40853,1758089396.46158,0.0,0.0,0.0,-10.25595,42.85724,4.58366,10.72,1.38,1.64,3.0
1758089406.42358,1758089396.47158,0.0,0.0,0.0,-9.96947,51.16513,5.15662,10.1,1.1,2.43,3.0
1758089406.42554,1758089396.48158,0.0,0.0,0.0,-8.36518,48.52953,6.13065,10.1,1.1,2.43,3.0
1758089406.44365,1758089396.49158,0.0,0.0,0.0,-7.67763,34.32018,4.58366,7.94,0.7,1.71,3.0
1758089406.44467,1758089396.50158,0.0,0.0,0.0,-1.48969,7.44845,11.80293,7.94,0.7,1.71,3.0
1758089406.46054,1758089396.51158,0.0,0.0,0.0,0.97403,10.31324,17.47521,8.52,-0.05,-0.49,3.0
1758089406.47652,1758089396.52158,0.0,0.0,0.0,1.60428,15.58445,20.45459,8.52,-0.05,-0.49,3.0
1758089406.47853,1758089396.53158,0.0,0.0,0.0,1.20321,15.46986,22.23076,10.16,-0.33,0.69,3.0
1758089406.49398,1758089396.54158,0.0,0.0,0.0,-1.3751,16.95955,23.49127,9.38,0.1,1.4,3.0
1758089406.49588,1758089396.55158,0.0,0.0,0.0,-4.52637,15.29797,23.37668,9.38,0.1,1.4,3.0
1758089406.51285,1758089396.56158,0.0,0.0,0.0,-7.96411,10.54242,22.57454,9.54,0.87,2.93,3.0
1758089406.52878,1758089396.57158,0.0,0.0,0.0,-10.8862,4.58366,22.05888,9.54,0.87,2.93,3.0
1758089406.52983,1758089396.58158,0.0,0.0,0.0,-12.54778,-7.16197,22.68913,9.83,1.11,2.44,3.0
1758089406.54483,1758089396.59158,0.0,0.0,0.0,-11.57375,-15.24068,23.20479,9.83,1.11,2.44,3.0
1758089406.54657,1758089396.60158,0.0,0.0,0.0,-8.88085,-23.0329,23.54857,10.03,0.55,2.48,3.0
1758089406.5639,1758089396.61158,0.0,0.0,0.0,-4.64096,-29.10626,23.26209,10.03,0.55,2.48,3.0
1758089406.56523,1758089396.62158,0.0,0.0,0.0,2.6929,-33.05967,22.00158,10.15,-0.24,2.21,3.0
1758089406.58062,1758089396.63158,0.0,0.0,0.0,7.73493,-32.54401,20.79837,10.29,-0.58,2.09,3.0
1758089406.59664,1758089396.64158,0.0,0.0,0.0,11.86023,-30.30947,19.48057,10.29,-0.58,2.09,3.0
1758089406.59863,1758089396.65158,0.0,0.0,0.0,15.35527,-23.83505,17.81899,10.11,-0.44,2.01,3.0
1758089406.61362,1758089396.66158,0.0,0.0,0.0,15.87093,-17.6471,16.67307,10.11,-0.44,2.01,3.0
1758089406.61564,1758089396.67158,0.0,0.0,0.0,15.0115,-10.8862,15.58445,9.91,-0.09,2.1,3.0
1758089406.63191,1758089396.68158,0.0,0.0,0.0,12.71966,-4.23989,13.69369,9.91,-0.09,2.1,3.0
1758089406.64893,1758089396.69158,0.0,0.0,0.0,8.59437,-0.68755,11.34457,9.63,0.22,2.22,3.0
1758089406.64982,1758089396.70158,0.0,0.0,0.0,6.07335,-1.66158,10.25595,9.17,0.34,1.82,3.0
1758089406.66702,1758089396.71158,0.0,0.0,0.0,3.72423,-2.29183,9.39651,9.17,0.34,1.82,3.0
1758089406.66849,1758089396.72158,0.0,0.0,0.0,2.06265,-2.86479,8.59437,9.61,0.23,1.39,3.0
1758089406.68361,1758089396.73158,0.0,0.0,0.0,0.97403,-3.89611,7.62034,9.61,0.23,1.39,3.0
