timeStamp,timeStampAlign,roll,pitch,yaw,gyro_x,gyro_y,gyro_z,acc_x,acc_y,acc_z,flag_num
1758086963.17439,1758086962.79972,0.0,0.0,0.0,5.95876,-3.26586,-5.09932,11.6,0.69,1.7,2.0
1758086963.17964,1758086962.80972,0.0,0.0,0.0,11.22997,-8.70896,-8.25059,11.44,0.33,1.93,2.0
1758086963.18031,1758086962.81972,0.0,0.0,0.0,16.61578,-11.63104,-10.8862,11.44,0.33,1.93,2.0
1758086963.18274,1758086962.82972,0.0,0.0,0.0,21.08485,-14.32395,-12.43318,11.02,0.14,1.82,2.0
1758086963.18375,1758086962.83972,0.0,0.0,0.0,25.49662,-16.61578,-12.14671,11.02,0.14,1.82,2.0
1758086963.18583,1758086962.84972,0.0,0.0,0.0,27.04361,-18.10547,-10.37054,9.97,0.35,1.73,2.0
1758086963.18646,1758086962.85972,0.0,0.0,0.0,28.01764,-21.37133,-7.21927,9.97,0.35,1.73,2.0
1758086963.18722,1758086962.86972,0.0,0.0,0.0,28.07493,-25.61122,-3.89611,9.01,0.9,2.01,2.0
1758086963.18832,1758086962.87972,0.0,0.0,0.0,26.75713,-30.25217,1.66158,8.78,1.26,2.17,2.0
1758086963.19065,1758086962.88972,0.0,0.0,0.0,24.75178,-33.34615,4.98473,8.78,1.26,2.17,2.0
1758086963.19256,1758086962.89972,0.0,0.0,0.0,21.6578,-36.49741,7.84952,8.72,1.52,2.68,2.0
1758086963.19333,1758086962.90972,0.0,0.0,0.0,17.76169,-38.78925,9.4538,8.72,1.52,2.68,2.0
1758086963.19524,1758086962.91972,0.0,0.0,0.0,10.65701,-42.05511,9.22462,8.62,1.61,3.22,2.0
1758086963.196,1758086962.92972,0.0,0.0,0.0,5.72958,-44.86259,7.44845,8.62,1.61,3.22,2.0
1758086963.19868,1758086962.93972,0.0,0.0,0.0,0.74485,-46.75336,4.69825,8.35,1.41,3.48,2.0
1758086963.19928,1758086962.94972,0.0,0.0,0.0,-5.09932,-48.01387,-0.51566,8.35,1.41,3.48,2.0
1758086963.20054,1758086962.95972,0.0,0.0,0.0,-7.50575,-46.86795,-4.23989,8.88,0.92,3.15,2.0
1758086963.20118,1758086962.96972,0.0,0.0,0.0,-8.36518,-43.31561,-7.33386,10.16,0.13,2.38,2.0
1758086963.20562,1758086962.97972,0.0,0.0,0.0,-7.62034,-37.29956,-10.02676,10.16,0.13,2.38,2.0
1758086963.20625,1758086962.98972,0.0,0.0,0.0,-3.72423,-25.89769,-12.08941,11.48,-0.72,1.52,2.0
1758086963.2099,1758086962.99972,0.0,0.0,0.0,0.34377,-18.27736,-11.80293,11.48,-0.72,1.52,2.0
1758086963.21048,1758086963.00972,0.0,0.0,0.0,4.98473,-10.8862,-10.37054,11.75,-1.15,0.92,2.0
1758086963.21113,1758086963.01972,0.0,0.0,0.0,10.08406,-3.38045,-8.0787,11.75,-1.15,0.92,2.0
1758086963.21557,1758086963.02972,0.0,0.0,0.0,17.93358,6.58902,-2.86479,11.35,-1.0,0.56,2.0
1758086963.21634,1758086963.03972,0.0,0.0,0.0,23.0329,12.43318,1.08862,10.97,-0.63,0.46,2.0
1758086963.21912,1758086963.04972,0.0,0.0,0.0,27.73116,17.99088,5.4431,10.97,-0.63,0.46,2.0
1758086963.21983,1758086963.05972,0.0,0.0,0.0,31.74186,23.54857,9.62569,10.93,-0.35,0.46,2.0
1758086963.22092,1758086963.06972,0.0,0.0,0.0,36.21093,30.59595,15.41257,10.93,-0.35,0.46,2.0
1758086963.22172,1758086963.07972,0.0,0.0,0.0,38.21629,33.23156,18.44924,10.74,-0.25,0.5,2.0
1758086963.22281,1758086963.08972,0.0,0.0,0.0,39.24761,35.40879,20.62648,10.74,-0.25,0.5,2.0
1758086963.22342,1758086963.09972,0.0,0.0,0.0,40.16434,37.64333,21.48592,10.24,-0.19,0.56,2.0
1758086963.22628,1758086963.10972,0.0,0.0,0.0,40.16434,39.3622,21.02755,9.87,-0.11,0.67,2.0
1758086963.22767,1758086963.11972,0.0,0.0,0.0,40.04975,38.44547,19.82434,9.87,-0.11,0.67,2.0
1758086963.23077,1758086963.12972,0.0,0.0,0.0,39.99245,36.6693,18.16276,9.42,-0.05,0.98,2.0
1758086963.23116,1758086963.13972,0.0,0.0,0.0,39.82057,34.14828,15.58445,9.42,-0.05,0.98,2.0
1758086963.23401,1758086963.14972,0.0,0.0,0.0,40.04975,29.62192,14.15206,9.24,0.02,1.13,2.0
1758086963.23463,1758086963.15972,0.0,0.0,0.0,40.10705,26.87172,13.12073,9.24,0.02,1.13,2.0
1758086963.23626,1758086963.16972,0.0,0.0,0.0,40.50812,23.89234,12.2613,9.21,-0.03,1.15,2.0
1758086963.2389,1758086963.17972,0.0,0.0,0.0,40.96649,18.90761,11.45916,9.21,-0.03,1.15,2.0
1758086963.23965,1758086963.18972,0.0,0.0,0.0,41.42485,18.9649,11.74564,9.06,-0.09,0.98,2.0
1758086963.24078,1758086963.19972,0.0,0.0,0.0,41.99781,17.24603,12.60507,9.28,-0.06,0.88,2.0
1758086963.24235,1758086963.20972,0.0,0.0,0.0,42.51347,15.41257,13.80828,9.28,-0.06,0.88,2.0
1758086963.24424,1758086963.21972,0.0,0.0,0.0,43.25832,13.34992,15.64175,9.33,0.04,0.9,2.0
1758086963.24544,1758086963.22972,0.0,0.0,0.0,43.60209,11.17268,16.73037,9.33,0.04,0.9,2.0
1758086963.26149,1758086963.23972,0.0,0.0,0.0,44.00316,9.96947,17.58981,9.35,0.19,0.75,2.0
1758086963.27832,1758086963.24972,0.0,0.0,0.0,44.46153,9.91217,17.93358,9.35,0.19,0.75,2.0
1758086963.27986,1758086963.25972,0.0,0.0,0.0,44.40423,10.31324,18.10547,9.55,0.3,0.69,2.0
1758086963.29593,1758086963.26972,0.0,0.0,0.0,44.40423,12.2613,17.81899,9.7,0.43,0.63,2.0
1758086963.29799,1758086963.27972,0.0,0.0,0.0,43.88857,15.0115,17.36062,9.7,0.43,0.63,2.0
1758086963.31416,1758086963.28972,0.0,0.0,0.0,43.65939,17.81899,16.84496,9.95,0.51,0.56,2.0
1758086963.31568,1758086963.29972,0.0,0.0,0.0,43.31561,21.88699,16.38659,9.95,0.51,0.56,2.0
1758086963.33162,1758086963.30972,0.0,0.0,0.0,43.14373,24.57989,16.04282,10.03,0.46,0.5,2.0
1758086963.3476,1758086963.31972,0.0,0.0,0.0,42.51347,27.38738,15.41257,10.03,0.46,0.5,2.0
1758086963.34885,1758086963.32972,0.0,0.0,0.0,42.1124,28.99167,14.43854,9.95,0.36,0.47,2.0
1758086963.36445,1758086963.33972,0.0,0.0,0.0,41.76862,26.87172,13.75099,9.44,0.26,0.63,2.0
1758086963.36613,1758086963.34972,0.0,0.0,0.0,41.48215,22.51724,12.89155,9.44,0.26,0.63,2.0
1758086963.3857,1758086963.35972,0.0,0.0,0.0,41.13837,16.67307,12.43318,8.91,0.17,0.66,2.0
1758086963.38848,1758086963.36972,0.0,0.0,0.0,40.7373,6.53172,11.80293,8.91,0.17,0.66,2.0
1758086963.40444,1758086963.37972,0.0,0.0,0.0,40.45082,0.22918,11.51645,8.64,0.15,0.56,2.0
1758086963.4054,1758086963.38972,0.0,0.0,0.0,40.27893,-3.03668,10.8862,8.64,0.15,0.56,2.0
1758086963.42137,1758086963.39972,0.0,0.0,0.0,39.87786,-2.92208,10.59972,9.11,0.14,0.42,2.0
1758086963.43859,1758086963.40972,0.0,0.0,0.0,39.3622,-2.86479,10.94349,9.11,0.14,0.39,2.0
1758086963.43988,1758086963.41972,0.0,0.0,0.0,38.44547,-4.46907,11.17268,9.85,0.19,0.39,2.0
1758086963.45465,1758086963.42972,0.0,0.0,0.0,36.7266,-7.39116,11.11538,9.83,0.25,0.4,2.0
1758086963.45588,1758086963.43972,0.0,0.0,0.0,35.2369,-11.45916,10.8289,9.83,0.25,0.4,2.0
1758086963.47165,1758086963.44972,0.0,0.0,0.0,32.42941,-18.85031,9.62569,9.82,0.28,0.45,2.0
1758086963.48848,1758086963.45972,0.0,0.0,0.0,30.48136,-23.54857,8.76626,9.82,0.28,0.45,2.0
1758086963.491,1758086963.46972,0.0,0.0,0.0,28.30412,-27.84575,8.02141,10.36,0.34,0.99,2.0
1758086963.55961,1758086963.47972,0.0,0.0,0.0,25.72581,-30.93972,7.79223,10.36,0.34,0.99,2.0
1758086963.56052,1758086963.48972,0.0,0.0,0.0,20.79837,-32.14294,9.4538,12.02,0.48,2.4,2.0
1758086963.56116,1758086963.49972,0.0,0.0,0.0,17.47521,-29.39274,11.22997,14.1,1.05,2.4,2.0
1758086963.56483,1758086963.50972,0.0,0.0,0.0,14.9542,-24.23611,12.60507,14.1,1.05,2.4,2.0
1758086963.56542,1758086963.51972,0.0,0.0,0.0,12.37589,-19.53786,11.91752,13.64,1.03,1.56,2.0
1758086963.56663,1758086963.52972,0.0,0.0,0.0,11.63104,-13.40721,9.85487,13.64,1.03,1.56,2.0
1758086963.5673,1758086963.53972,0.0,0.0,0.0,11.80293,-17.47521,6.18794,11.38,0.76,0.88,2.0
1758086963.56886,1758086963.54972,0.0,0.0,0.0,12.60507,-19.70975,2.6929,11.38,0.76,0.88,2.0
1758086963.58542,1758086963.55972,0.0,0.0,0.0,14.72501,-19.25138,-2.86479,10.05,0.56,0.82,2.0
1758086963.58676,1758086963.56972,0.0,0.0,0.0,16.10011,-19.19409,-5.4431,10.52,0.29,1.6,2.0
1758086963.60161,1758086963.57972,0.0,0.0,0.0,17.99088,-19.99623,-6.8182,10.52,0.29,1.6,2.0
1758086963.61822,1758086963.58972,0.0,0.0,0.0,19.59516,-21.60051,-7.10468,10.01,-0.22,2.51,2.0
1758086963.61943,1758086963.59972,0.0,0.0,0.0,22.51724,-24.98096,-5.50039,10.01,-0.22,2.51,2.0
1758086963.63444,1758086963.60972,0.0,0.0,0.0,24.63719,-27.2155,-3.72423,8.87,-0.67,2.9,2.0
1758086963.63607,1758086963.61972,0.0,0.0,0.0,27.2155,-28.87707,-1.60428,8.87,-0.67,2.9,2.0
1758086963.65249,1758086963.62972,0.0,0.0,0.0,30.02299,-29.22085,0.57296,7.94,-0.66,2.97,2.0
1758086963.66871,1758086963.63972,0.0,0.0,0.0,33.68992,-24.86637,2.97938,8.01,-0.19,2.83,2.0
1758086963.67125,1758086963.64972,0.0,0.0,0.0,35.40879,-20.68378,4.1253,8.01,-0.19,2.83,2.0
1758086963.68755,1758086963.65972,0.0,0.0,0.0,36.49741,-16.67307,4.92744,8.68,0.5,2.57,2.0
1758086963.69085,1758086963.66972,0.0,0.0,0.0,36.49741,-13.12073,5.50039,8.68,0.5,2.57,2.0
1758086963.70882,1758086963.67972,0.0,0.0,0.0,35.00772,-5.95876,5.4431,9.65,1.15,2.17,2.0
1758086963.71109,1758086963.68972,0.0,0.0,0.0,33.40344,0.11459,5.21392,9.65,1.15,2.17,2.0
1758086963.72645,1758086963.69972,0.0,0.0,0.0,31.79916,6.07335,3.72423,10.58,1.5,1.47,2.0
1758086963.7288,1758086963.70972,0.0,0.0,0.0,31.45539,9.33921,1.71887,10.58,1.5,1.47,2.0
1758086963.74529,1758086963.71972,0.0,0.0,0.0,30.82513,4.1253,-2.46372,10.38,1.47,0.98,2.0
1758086963.74626,1758086963.72972,0.0,0.0,0.0,31.51268,-10.65701,-4.23989,8.68,1.03,0.95,2.0
1758086963.76461,1758086963.73972,0.0,0.0,0.0,31.79916,-22.11617,-6.47442,8.68,1.03,0.95,2.0
1758086963.76551,1758086963.74972,0.0,0.0,0.0,32.88778,-13.80828,-10.94349,9.95,0.55,0.37,2.0
1758086963.78172,1758086963.75972,0.0,0.0,0.0,35.3515,20.22541,-10.71431,9.95,0.55,0.37,2.0
1758086963.80017,1758086963.76972,0.0,0.0,0.0,36.7266,31.91375,-10.54242,12.28,0.25,0.03,2.0
1758086963.80107,1758086963.77972,0.0,0.0,0.0,37.87251,34.95043,-8.36518,12.28,0.25,0.03,2.0
1758086963.81924,1758086963.78972,0.0,0.0,0.0,37.64333,35.69527,-4.81285,9.87,0.31,0.85,2.0
1758086963.8209,1758086963.79972,0.0,0.0,0.0,36.7266,38.27358,-2.63561,9.74,0.61,0.25,2.0
1758086963.83994,1758086963.80972,0.0,0.0,0.0,35.52338,40.33623,-0.80214,9.74,0.61,0.25,2.0
1758086963.84166,1758086963.81972,0.0,0.0,0.0,33.86181,41.08107,0.51566,9.84,1.08,0.51,2.0
1758086963.8589,1758086963.82972,0.0,0.0,0.0,31.16891,42.57077,1.3751,9.84,1.08,0.51,2.0
1758086963.86058,1758086963.83972,0.0,0.0,0.0,29.10626,43.37291,1.43239,9.55,1.39,0.64,2.0
1758086963.87577,1758086963.84972,0.0,0.0,0.0,27.04361,43.02913,1.14592,9.55,1.39,0.64,2.0
1758086963.87912,1758086963.85972,0.0,0.0,0.0,24.86637,40.68,0.57296,8.9,1.49,0.62,2.0
1758086963.89551,1758086963.86972,0.0,0.0,0.0,21.94428,35.69527,0.34377,8.32,1.5,0.55,2.0
1758086963.89814,1758086963.87972,0.0,0.0,0.0,20.05352,33.00237,0.45837,8.32,1.5,0.55,2.0
1758086963.91377,1758086963.88972,0.0,0.0,0.0,17.81899,29.73651,0.80214,8.39,1.48,0.56,2.0
1758086963.93064,1758086963.89972,0.0,0.0,0.0,15.69904,26.75713,1.48969,8.39,1.48,0.56,2.0
1758086963.93182,1758086963.90972,0.0,0.0,0.0,12.14671,23.20479,2.46372,8.64,1.53,0.54,2.0
1758086963.94782,1758086963.91972,0.0,0.0,0.0,9.5684,20.45459,2.97938,8.64,1.53,0.54,2.0
1758086963.94904,1758086963.92972,0.0,0.0,0.0,7.21927,17.76169,3.20856,8.8,1.66,0.49,2.0
1758086963.96461,1758086963.93972,0.0,0.0,0.0,4.69825,14.78231,3.20856,8.8,1.66,0.49,2.0
1758086963.96555,1758086963.94972,0.0,0.0,0.0,1.3751,8.42248,2.7502,8.8,1.79,0.5,2.0
1758086963.98184,1758086963.95972,0.0,0.0,0.0,-0.51566,4.92744,2.46372,8.8,1.86,0.43,2.0
1758086963.99918,1758086963.96972,0.0,0.0,0.0,-2.23454,1.60428,2.00535,8.8,1.86,0.43,2.0
1758086964.00116,1758086963.97972,0.0,0.0,0.0,-4.18259,-2.86479,1.66158,9.01,1.89,0.25,2.0
1758086964.09272,1758086963.98972,0.0,0.0,0.0,-4.87014,-6.13065,1.3178,9.01,1.89,0.25,2.0
1758086964.09559,1758086963.99972,0.0,0.0,0.0,-5.15662,-9.68299,1.08862,9.13,1.99,0.12,2.0
1758086964.096,1758086964.00972,0.0,0.0,0.0,-5.15662,-13.5218,0.80214,9.13,1.99,0.12,2.0
1758086964.09881,1758086964.01972,0.0,0.0,0.0,-4.92744,-19.53786,0.0,9.33,2.09,0.02,2.0
1758086964.09939,1758086964.02972,0.0,0.0,0.0,-4.58366,-22.51724,-0.85944,9.76,2.07,-0.4,2.0
1758086964.10065,1758086964.03972,0.0,0.0,0.0,-4.29718,-26.52795,-1.71887,9.76,2.07,-0.4,2.0
1758086964.10128,1758086964.04972,0.0,0.0,0.0,-4.52637,-30.36677,-2.7502,10.15,2.08,-0.69,2.0
1758086964.10287,1758086964.05972,0.0,0.0,0.0,-6.18794,-34.66395,-4.1253,10.15,2.08,-0.69,2.0
1758086964.10901,1758086964.06972,0.0,0.0,0.0,-8.42248,-37.29956,-4.81285,10.68,2.3,-0.47,2.0
1758086964.10938,1758086964.07972,0.0,0.0,0.0,-10.8289,-39.70598,-4.1253,10.68,2.3,-0.47,2.0
1758086964.11056,1758086964.08972,0.0,0.0,0.0,-13.23533,-41.13837,-2.97938,11.04,2.43,-0.21,2.0
1758086964.12688,1758086964.09972,0.0,0.0,0.0,-16.84496,-45.60744,-3.20856,11.52,2.4,1.06,2.0
1758086964.1313,1758086964.10972,0.0,0.0,0.0,-18.10547,-51.16513,-6.13065,11.52,2.4,1.06,2.0
1758086964.17279,1758086964.11972,0.0,0.0,0.0,-18.56383,-59.24384,-12.08941,12.4,1.9,3.16,2.0
1758086964.17366,1758086964.12972,0.0,0.0,0.0,-18.33465,-64.22858,-19.19409,12.4,1.9,3.16,2.0
1758086964.17436,1758086964.13972,0.0,0.0,0.0,-18.33465,-60.50434,-27.96034,14.83,0.04,2.84,2.0
1758086964.1758,1758086964.14972,0.0,0.0,0.0,-18.16276,-54.08722,-30.13758,14.83,0.04,2.84,2.0
1758086964.17624,1758086964.15972,0.0,0.0,0.0,-17.76169,-48.52953,-30.19488,14.33,-1.25,1.66,2.0
1758086964.19393,1758086964.16972,0.0,0.0,0.0,-17.47521,-42.05511,-27.78845,14.33,-1.25,1.66,2.0
1758086964.2104,1758086964.17972,0.0,0.0,0.0,-17.6471,-46.98254,-24.17882,11.86,-1.19,2.03,2.0
1758086964.2116,1758086964.18972,0.0,0.0,0.0,-19.59516,-54.88936,-21.02755,9.12,-0.92,2.72,2.0
1758086964.22772,1758086964.19972,0.0,0.0,0.0,-22.40265,-57.46767,-17.99088,9.12,-0.92,2.72,2.0
1758086964.2288,1758086964.20972,0.0,0.0,0.0,-26.87172,-53.45696,-13.46451,9.91,-0.61,3.54,2.0
1758086964.24467,1758086964.21972,0.0,0.0,0.0,-29.96569,-48.52953,-11.28727,9.91,-0.61,3.54,2.0
1758086964.24562,1758086964.22972,0.0,0.0,0.0,-33.23156,-43.60209,-9.96947,10.97,0.05,3.46,2.0
1758086964.26182,1758086964.23972,0.0,0.0,0.0,-36.26823,-39.87786,-8.93814,10.97,0.05,3.46,2.0
1758086964.27989,1758086964.24972,0.0,0.0,0.0,-40.39353,-35.69527,-7.39116,10.47,0.39,2.13,2.0
1758086964.28087,1758086964.25972,0.0,0.0,0.0,-41.76862,-30.13758,-5.21392,10.14,0.22,0.94,2.0
1758086964.29569,1758086964.26972,0.0,0.0,0.0,-42.91454,-13.98017,-3.32316,10.14,0.22,0.94,2.0
1758086964.29926,1758086964.27972,0.0,0.0,0.0,-43.94586,12.71966,-2.00535,12.22,-0.16,0.0,2.0
1758086964.31497,1758086964.28972,0.0,0.0,0.0,-47.26902,37.87251,-2.46372,12.22,-0.16,0.0,2.0
1758086964.31587,1758086964.29972,0.0,0.0,0.0,-47.15443,38.38818,-1.83346,10.24,-0.28,0.63,2.0
1758086964.33195,1758086964.30972,0.0,0.0,0.0,-45.60744,41.02378,-1.71887,10.24,-0.28,0.63,2.0
1758086964.34796,1758086964.31972,0.0,0.0,0.0,-42.57077,47.89928,-0.45837,9.18,-0.38,1.08,2.0
1758086964.35048,1758086964.32972,0.0,0.0,0.0,-37.75792,56.26446,1.77617,9.74,-0.83,0.56,2.0
1758086964.36596,1758086964.33972,0.0,0.0,0.0,-34.60666,57.29578,3.09397,9.74,-0.83,0.56,2.0
1758086964.36961,1758086964.34972,0.0,0.0,0.0,-31.62727,56.32175,4.1253,8.77,-1.29,0.77,2.0
1758086964.38488,1758086964.35972,0.0,0.0,0.0,-27.10091,55.97798,5.15662,8.77,-1.29,0.77,2.0
1758086964.38586,1758086964.36972,0.0,0.0,0.0,-23.60586,56.89471,5.78687,8.68,-1.51,0.81,2.0
1758086964.40175,1758086964.37972,0.0,0.0,0.0,-20.34,55.7488,6.18794,8.68,-1.51,0.81,2.0
1758086964.41973,1758086964.38972,0.0,0.0,0.0,-17.18874,52.76942,6.24524,8.46,-1.5,1.15,2.0
1758086964.42066,1758086964.39972,0.0,0.0,0.0,-13.17803,47.67009,6.18794,8.46,-1.5,1.15,2.0
1758086964.43593,1758086964.40972,0.0,0.0,0.0,-11.28727,43.54479,5.84417,8.38,-1.26,1.12,2.0
1758086964.43928,1758086964.41972,0.0,0.0,0.0,-10.08406,39.13302,5.32851,8.55,-0.85,1.1,2.0
1758086964.45468,1758086964.42972,0.0,0.0,0.0,-9.22462,35.98175,5.09932,8.55,-0.85,1.1,2.0
1758086964.45612,1758086964.43972,0.0,0.0,0.0,-8.76626,30.76784,4.0107,8.79,-0.53,1.25,2.0
1758086964.47167,1758086964.44972,0.0,0.0,0.0,-8.65166,26.81443,3.60963,8.79,-0.53,1.25,2.0
1758086964.53488,1758086964.45972,0.0,0.0,0.0,-8.59437,24.12152,3.55234,8.69,-0.32,1.23,2.0
1758086964.53826,1758086964.46972,0.0,0.0,0.0,-8.36518,21.37133,3.49504,8.69,-0.32,1.23,2.0
1758086964.53963,1758086964.47972,0.0,0.0,0.0,-8.65166,16.67307,3.72423,8.79,-0.12,1.04,2.0
1758086964.5409,1758086964.48972,0.0,0.0,0.0,-8.59437,15.98552,3.60963,8.9,-0.03,0.83,2.0
1758086964.54152,1758086964.49972,0.0,0.0,0.0,-8.76626,15.29797,2.97938,8.9,-0.03,0.83,2.0
1758086964.54516,1758086964.50972,0.0,0.0,0.0,-8.93814,14.15206,2.00535,8.95,0.04,0.64,2.0
1758086964.54576,1758086964.51972,0.0,0.0,0.0,-9.05273,12.89155,0.0573,8.95,0.04,0.64,2.0
1758086964.54774,1758086964.52972,0.0,0.0,0.0,-8.99544,10.54242,-1.08862,8.83,0.09,0.44,2.0
1758086964.56479,1758086964.53972,0.0,0.0,0.0,-9.11003,9.05273,-2.06265,8.83,0.09,0.44,2.0
1758086964.56569,1758086964.54972,0.0,0.0,0.0,-9.39651,9.96947,-3.66693,8.79,0.11,0.26,2.0
1758086964.60616,1758086964.55972,0.0,0.0,0.0,-9.91217,12.83425,-4.69825,9.25,0.1,0.4,2.0
1758086964.62298,1758086964.56972,0.0,0.0,0.0,-9.68299,15.06879,-5.78687,9.25,0.1,0.4,2.0
1758086964.62336,1758086964.57972,0.0,0.0,0.0,-9.05273,18.10547,-6.53172,9.83,-0.06,0.55,2.0
1758086964.62529,1758086964.58972,0.0,0.0,0.0,-7.04738,20.62648,-8.02141,9.83,-0.06,0.55,2.0
1758086964.62592,1758086964.59972,0.0,0.0,0.0,-4.81285,20.74107,-8.42248,9.98,-0.39,0.21,2.0
1758086964.62798,1758086964.60972,0.0,0.0,0.0,-2.40642,21.02755,-8.88085,9.98,-0.39,0.21,2.0
1758086964.64304,1758086964.61972,0.0,0.0,0.0,0.17189,18.10547,-8.70896,9.77,-0.57,0.01,2.0
1758086964.66004,1758086964.62972,0.0,0.0,0.0,3.49504,10.37054,-8.65166,9.41,-0.57,-0.14,2.0
1758086964.66098,1758086964.63972,0.0,0.0,0.0,5.4431,1.08862,-7.67763,9.41,-0.47,-0.14,2.0
1758086964.67582,1758086964.64972,0.0,0.0,0.0,6.35983,-8.36518,-7.10468,9.53,-0.07,-0.29,2.0
1758086964.67698,1758086964.65972,0.0,0.0,0.0,6.53172,-16.95955,-5.61499,9.53,-0.07,-0.29,2.0
1758086964.69495,1758086964.66972,0.0,0.0,0.0,6.87549,-20.68378,-3.09397,10.76,0.15,-0.45,2.0
1758086964.69614,1758086964.67972,0.0,0.0,0.0,7.39116,-18.56383,-0.97403,10.76,0.15,-0.45,2.0
1758086964.715,1758086964.68972,0.0,0.0,0.0,6.53172,-13.17803,1.77617,12.4,0.0,0.15,2.0
1758086964.71595,1758086964.69972,0.0,0.0,0.0,5.95876,-8.65166,4.23989,12.4,0.0,0.15,2.0
1758086964.73498,1758086964.70972,0.0,0.0,0.0,3.89611,-6.35983,6.24524,12.69,-0.21,0.2,2.0
1758086964.73923,1758086964.71972,0.0,0.0,0.0,1.94806,-10.65701,7.33386,12.17,-0.06,0.95,2.0
1758086964.75503,1758086964.72972,0.0,0.0,0.0,-1.48969,-16.38659,8.42248,12.17,-0.06,0.95,2.0
1758086964.75597,1758086964.73972,0.0,0.0,0.0,-4.87014,-24.23611,10.31324,12.4,0.62,1.68,2.0
1758086964.77295,1758086964.74972,0.0,0.0,0.0,-9.05273,-43.20102,11.28727,12.4,0.62,1.68,2.0
1758086964.79057,1758086964.75972,0.0,0.0,0.0,-13.06344,-60.79083,11.91752,11.35,1.26,2.0,2.0
1758086964.79157,1758086964.76972,0.0,0.0,0.0,-15.41257,-75.80232,14.20935,11.35,1.26,2.0,2.0
1758086964.7962,1758086964.77972,0.0,0.0,0.0,-16.95955,-75.00018,16.95955,11.0,0.92,2.5,2.0
1758086964.81506,1758086964.78972,0.0,0.0,0.0,-14.49583,-65.54638,18.73572,12.08,-0.55,2.45,2.0
1758086964.81625,1758086964.79972,0.0,0.0,0.0,-11.11538,-59.12925,18.73572,12.08,-0.55,2.45,2.0
1758086964.8338,1758086964.80972,0.0,0.0,0.0,-6.58902,-55.57691,16.55848,10.71,-1.29,3.59,2.0
1758086964.84997,1758086964.81972,0.0,0.0,0.0,1.3751,-50.82136,11.51645,10.71,-1.29,3.59,2.0
1758086964.85121,1758086964.82972,0.0,0.0,0.0,7.10468,-45.77933,8.30789,9.97,-0.98,4.04,2.0
1758086964.86598,1758086964.83972,0.0,0.0,0.0,12.43318,-40.7946,5.72958,9.97,-0.98,4.04,2.0
1758086964.86734,1758086964.84972,0.0,0.0,0.0,17.01685,-36.95578,4.29718,10.04,-0.91,3.6,2.0
1758086964.88583,1758086964.85972,0.0,0.0,0.0,21.42862,-32.14294,3.09397,10.04,-0.74,2.93,2.0
1758086964.88738,1758086964.86972,0.0,0.0,0.0,22.34536,-26.69983,2.06265,10.04,-0.74,2.93,2.0
1758086964.90293,1758086964.87972,0.0,0.0,0.0,21.60051,-18.16276,1.3178,10.43,-0.12,2.0,2.0
1758086964.9201,1758086964.88972,0.0,0.0,0.0,20.16812,-9.62569,0.68755,10.43,-0.12,2.0,2.0
1758086964.92105,1758086964.89972,0.0,0.0,0.0,16.95955,2.92208,-0.97403,10.52,0.71,1.5,2.0
1758086964.93604,1758086964.90972,0.0,0.0,0.0,14.20935,11.11538,-2.00535,10.52,0.71,1.5,2.0
1758086964.93788,1758086964.91972,0.0,0.0,0.0,10.59972,17.30333,-2.6929,10.2,1.43,1.42,2.0
1758086964.95391,1758086964.92972,0.0,0.0,0.0,6.35983,22.11617,-3.55234,10.2,1.43,1.42,2.0
1758086964.95837,1758086964.93972,0.0,0.0,0.0,-0.40107,30.48136,-5.90147,9.57,1.67,1.12,2.0
1758086964.97294,1758086964.94972,0.0,0.0,0.0,-4.64096,35.75257,-8.02141,9.24,1.73,0.92,2.0
1758086964.98993,1758086964.95972,0.0,0.0,0.0,-8.88085,39.70598,-10.02676,9.24,1.73,0.92,2.0
1758086964.99113,1758086964.96972,0.0,0.0,0.0,-14.83961,46.00851,-12.89155,9.07,1.63,0.91,2.0
1758086965.00604,1758086964.97972,0.0,0.0,0.0,-18.85031,49.15978,-14.38124,9.07,1.63,0.91,2.0
1758086965.00816,1758086964.98972,0.0,0.0,0.0,-22.00158,49.90463,-15.58445,8.92,1.44,0.74,2.0
1758086965.02444,1758086964.99972,0.0,0.0,0.0,-24.5226,49.27437,-16.55848,8.92,1.44,0.74,2.0
1758086965.03989,1758086965.00972,0.0,0.0,0.0,-27.33009,47.38361,-17.36062,8.67,1.32,0.85,2.0
1758086965.04112,1758086965.01972,0.0,0.0,0.0,-28.24682,44.9199,-17.36062,8.72,1.09,0.91,2.0
1758086965.05621,1758086965.02972,0.0,0.0,0.0,-28.76248,43.20102,-17.36062,8.72,1.09,0.91,2.0
1758086965.06111,1758086965.03972,0.0,0.0,0.0,-28.59059,41.88322,-16.50119,8.98,0.79,1.14,2.0
1758086965.07986,1758086965.04972,0.0,0.0,0.0,-28.01764,38.21629,-15.41257,8.98,0.79,1.14,2.0
1758086965.08111,1758086965.05972,0.0,0.0,0.0,-27.50197,35.00772,-14.38124,8.9,0.5,1.24,2.0
1758086965.09595,1758086965.06972,0.0,0.0,0.0,-26.81443,31.28349,-13.40721,8.9,0.5,1.24,2.0
1758086965.09835,1758086965.07972,0.0,0.0,0.0,-26.06958,27.61657,-11.97482,8.71,0.32,1.22,2.0
1758086965.11293,1758086965.08972,0.0,0.0,0.0,-24.86637,20.79837,-10.19865,8.4,0.28,1.04,2.0
1758086965.13075,1758086965.09972,0.0,0.0,0.0,-23.89234,15.87093,-8.76626,8.4,0.28,1.04,2.0
1758086965.13284,1758086965.10972,0.0,0.0,0.0,-22.51724,10.8862,-6.70361,8.16,0.23,0.98,2.0
1758086965.14875,1758086965.11972,0.0,0.0,0.0,-20.74107,7.10468,-4.81285,8.16,0.23,0.98,2.0
1758086965.15072,1758086965.12972,0.0,0.0,0.0,-17.93358,2.46372,-1.08862,8.29,0.15,0.93,2.0
1758086965.16611,1758086965.13972,0.0,0.0,0.0,-15.75634,0.85944,0.97403,8.29,0.15,0.93,2.0
1758086965.17063,1758086965.14972,0.0,0.0,0.0,-13.5218,1.94806,3.26586,8.79,0.1,0.98,2.0
1758086965.18596,1758086965.15972,0.0,0.0,0.0,-11.63104,1.83346,4.81285,8.79,0.1,0.98,2.0
1758086965.18722,1758086965.16972,0.0,0.0,0.0,-11.97482,1.3751,4.35448,9.32,0.28,1.11,2.0
1758086965.20199,1758086965.17972,0.0,0.0,0.0,-13.69369,1.66158,2.63561,9.69,0.95,0.93,2.0
1758086965.22004,1758086965.18972,0.0,0.0,0.0,-15.64175,0.68755,1.60428,9.69,0.95,0.93,2.0
1758086965.22251,1758086965.19972,0.0,0.0,0.0,-19.07949,-3.09397,-1.3178,9.41,1.4,0.84,2.0
1758086965.23794,1758086965.20972,0.0,0.0,0.0,-21.7151,-7.67763,-2.57831,9.41,1.4,0.84,2.0
1758086965.24071,1758086965.21972,0.0,0.0,0.0,-24.23611,-13.5218,-3.20856,9.0,1.64,0.53,2.0
1758086965.25628,1758086965.22972,0.0,0.0,0.0,-26.35606,-19.82434,-3.49504,9.0,1.64,0.53,2.0
1758086965.26069,1758086965.23972,0.0,0.0,0.0,-28.59059,-29.27814,-3.26586,8.95,1.62,-0.05,2.0
1758086965.27602,1758086965.24972,0.0,0.0,0.0,-30.65324,-33.80451,-2.86479,9.6,1.74,-0.32,2.0
1758086965.27954,1758086965.25972,0.0,0.0,0.0,-31.79916,-35.86716,-3.20856,9.6,1.74,-0.32,2.0
1758086965.29581,1758086965.26972,0.0,0.0,0.0,-32.77319,-35.06502,-3.72423,10.87,1.78,-0.09,2.0
1758086965.297,1758086965.27972,0.0,0.0,0.0,-33.40344,-25.21014,-5.84417,10.87,1.78,-0.09,2.0
1758086965.31518,1758086965.28972,0.0,0.0,0.0,-33.80451,-14.72501,-9.28192,12.49,1.94,0.28,2.0
1758086965.3164,1758086965.29972,0.0,0.0,0.0,-33.9764,-20.34,-10.71431,12.49,1.94,0.28,2.0
1758086965.33588,1758086965.30972,0.0,0.0,0.0,-33.9764,-30.36677,-13.23533,10.78,1.8,0.36,2.0
1758086965.33871,1758086965.31972,0.0,0.0,0.0,-33.63263,-37.81522,-15.58445,9.52,1.62,-0.55,2.0
1758086965.3551,1758086965.32972,0.0,0.0,0.0,-34.37747,-37.18496,-15.69904,9.52,1.62,-0.55,2.0
1758086965.35637,1758086965.33972,0.0,0.0,0.0,-35.75257,-35.52338,-14.83961,9.56,1.64,-1.31,2.0
1758086965.37546,1758086965.34972,0.0,0.0,0.0,-37.18496,-34.60666,-13.5791,9.56,1.64,-1.31,2.0
1758086965.37643,1758086965.35972,0.0,0.0,0.0,-36.6693,-37.35685,-14.09476,10.12,1.56,0.09,2.0
1758086965.39585,1758086965.36972,0.0,0.0,0.0,-33.46074,-45.89392,-16.73037,10.12,1.56,0.09,2.0
1758086965.39886,1758086965.37972,0.0,0.0,0.0,-28.41871,-57.41038,-22.51724,11.64,0.29,2.54,2.0
1758086965.41609,1758086965.38972,0.0,0.0,0.0,-17.47521,-67.26525,-35.92446,11.64,0.29,2.54,2.0
1758086965.42024,1758086965.39972,0.0,0.0,0.0,-11.00079,-64.17127,-44.8053,14.76,-1.59,4.68,2.0
1758086965.43528,1758086965.40972,0.0,0.0,0.0,-6.35983,-57.12389,-50.1911,15.05,-2.41,3.27,2.0
1758086965.43623,1758086965.41972,0.0,0.0,0.0,-4.58366,-53.62885,-50.76406,15.05,-2.41,3.27,2.0
1758086965.45404,1758086965.42972,0.0,0.0,0.0,-7.79223,-53.62885,-46.35228,10.4,-0.88,3.44,2.0
1758086965.47008,1758086965.43972,0.0,0.0,0.0,-12.89155,-47.72739,-40.04975,10.4,-0.88,3.44,2.0
1758086965.47402,1758086965.44972,0.0,0.0,0.0,-20.22541,-37.18496,-30.65324,9.52,0.38,4.23,2.0
1758086965.48995,1758086965.45972,0.0,0.0,0.0,-28.99167,-27.10091,-19.25138,9.52,0.38,4.23,2.0
1758086965.49158,1758086965.46972,0.0,0.0,0.0,-42.57077,-18.9649,-2.23454,9.78,1.34,2.84,2.0
1758086965.50638,1758086965.47972,0.0,0.0,0.0,-50.3057,-15.35527,7.44845,9.5,2.03,1.76,2.0
1758086965.50728,1758086965.48972,0.0,0.0,0.0,-56.60823,-9.85487,14.03747,9.5,2.03,1.76,2.0
1758086965.52606,1758086965.49972,0.0,0.0,0.0,-61.1346,-2.00535,17.18874,10.83,2.03,0.89,2.0
1758086965.52724,1758086965.50972,0.0,0.0,0.0,-63.77021,11.97482,17.6471,10.83,2.03,0.89,2.0
1758086965.54236,1758086965.51972,0.0,0.0,0.0,-63.48372,22.23076,14.43854,12.02,0.67,0.44,2.0
1758086965.55917,1758086965.52972,0.0,0.0,0.0,-61.36378,29.96569,10.25595,12.02,0.67,0.44,2.0
1758086965.56075,1758086965.53972,0.0,0.0,0.0,-58.26981,35.2369,5.50039,11.77,-1.0,0.0,2.0
1758086965.57615,1758086965.54972,0.0,0.0,0.0,-52.08187,40.50812,-0.51566,10.35,-1.68,0.08,2.0
1758086965.57794,1758086965.55972,0.0,0.0,0.0,-47.72739,43.14373,-3.03668,10.35,-1.68,0.08,2.0
1758086965.59472,1758086965.56972,0.0,0.0,0.0,-43.37291,44.9199,-4.18259,9.01,-1.38,0.35,2.0
1758086965.61089,1758086965.57972,0.0,0.0,0.0,-37.24226,46.40959,-3.95341,9.01,-1.38,0.35,2.0
1758086965.6161,1758086965.58972,0.0,0.0,0.0,-33.23156,46.00851,-2.40642,8.38,-1.03,0.87,2.0
1758086965.61672,1758086965.59972,0.0,0.0,0.0,-29.67921,44.00316,-0.22918,8.38,-1.03,0.87,2.0
1758086965.63374,1758086965.60972,0.0,0.0,0.0,-26.64254,41.02378,2.29183,8.03,-0.9,0.97,2.0
1758086965.63652,1758086965.61972,0.0,0.0,0.0,-23.31938,38.61736,6.13065,8.03,-0.9,0.95,2.0
1758086965.65261,1758086965.62972,0.0,0.0,0.0,-22.28806,37.01308,8.36518,8.26,-0.76,0.95,2.0
1758086965.67074,1758086965.63972,0.0,0.0,0.0,-21.60051,32.54401,9.11003,8.29,-0.4,1.14,2.0
1758086965.67267,1758086965.64972,0.0,0.0,0.0,-20.45459,27.10091,10.54242,8.29,-0.4,1.14,2.0
1758086965.69097,1758086965.65972,0.0,0.0,0.0,-19.13679,23.54857,11.91752,8.8,-0.12,1.02,2.0
1758086965.69274,1758086965.66972,0.0,0.0,0.0,-18.56383,21.7724,12.37589,8.8,-0.12,1.02,2.0
1758086965.71124,1758086965.67972,0.0,0.0,0.0,-18.22006,20.05352,12.49048,9.4,0.01,0.84,2.0
1758086965.71532,1758086965.68972,0.0,0.0,0.0,-18.10547,18.9649,11.86023,9.4,0.01,0.84,2.0
1758086965.73017,1758086965.69972,0.0,0.0,0.0,-18.16276,17.6471,9.62569,9.56,0.0,0.85,2.0
1758086965.73138,1758086965.70972,0.0,0.0,0.0,-18.10547,15.92823,7.73493,9.25,-0.01,0.72,2.0
1758086965.74617,1758086965.71972,0.0,0.0,0.0,-17.87628,13.98017,5.90147,9.25,-0.01,0.72,2.0
1758086965.7493,1758086965.72972,0.0,0.0,0.0,-17.53251,11.00079,4.29718,8.83,0.0,0.71,2.0
1758086965.76444,1758086965.73972,0.0,0.0,0.0,-16.55848,10.54242,3.20856,8.83,0.0,0.71,2.0
1758086965.76618,1758086965.74972,0.0,0.0,0.0,-15.75634,11.51645,2.92208,9.02,-0.06,0.69,2.0
1758086965.78217,1758086965.75972,0.0,0.0,0.0,-15.0115,13.75099,2.92208,9.02,-0.06,0.69,2.0
1758086965.79816,1758086965.76972,0.0,0.0,0.0,-13.98017,16.90226,2.92208,9.48,-0.23,0.72,2.0
1758086965.80014,1758086965.77972,0.0,0.0,0.0,-13.69369,19.88164,2.97938,9.79,-0.41,0.79,2.0
1758086965.8154,1758086965.78972,0.0,0.0,0.0,-13.40721,19.53786,2.92208,9.79,-0.41,0.79,2.0
1758086965.81665,1758086965.79972,0.0,0.0,0.0,-13.00614,15.58445,2.6929,9.37,-0.42,0.67,2.0
1758086965.83217,1758086965.80972,0.0,0.0,0.0,-12.37589,9.39651,2.34913,9.37,-0.42,0.67,2.0
1758086965.84823,1758086965.81972,0.0,0.0,0.0,-11.45916,5.27121,1.66158,9.11,-0.41,0.37,2.0
1758086965.85018,1758086965.82972,0.0,0.0,0.0,-9.33921,3.38045,0.85944,9.11,-0.41,0.37,2.0
1758086965.86519,1758086965.83972,0.0,0.0,0.0,-7.67763,4.29718,-0.0573,9.48,-0.44,0.1,2.0
1758086965.86761,1758086965.84972,0.0,0.0,0.0,-4.98473,4.81285,-0.85944,10.07,-0.33,0.03,2.0
1758086965.88343,1758086965.85972,0.0,0.0,0.0,-3.66693,4.58366,-0.51566,10.07,-0.33,0.03,2.0
1758086965.9005,1758086965.86972,0.0,0.0,0.0,-3.38045,5.27121,-0.34377,10.62,-0.18,-0.05,2.0
1758086965.90089,1758086965.87972,0.0,0.0,0.0,-3.66693,5.78687,-0.40107,10.62,-0.18,-0.05,2.0
1758086965.91648,1758086965.88972,0.0,0.0,0.0,-5.32851,5.61499,-0.85944,11.07,-0.13,-0.09,2.0
1758086965.9217,1758086965.89972,0.0,0.0,0.0,-7.79223,6.47442,-1.66158,11.07,-0.13,-0.09,2.0
1758086965.93624,1758086965.90972,0.0,0.0,0.0,-9.33921,4.1253,-3.32316,11.38,-0.04,0.02,2.0
1758086965.94225,1758086965.91972,0.0,0.0,0.0,-9.74028,-9.28192,-5.15662,11.38,-0.04,0.02,2.0
1758086965.99644,1758086965.92972,0.0,0.0,0.0,-10.94349,-37.81522,-6.18794,9.23,-0.02,-0.3,2.0
1758086966.00054,1758086965.93972,0.0,0.0,0.0,-9.5684,-46.63877,-3.09397,9.05,-0.23,0.0,2.0
1758086966.00117,1758086965.94972,0.0,0.0,0.0,-9.22462,-48.12846,-0.74485,9.05,-0.23,0.0,2.0
1758086966.0056,1758086965.95972,0.0,0.0,0.0,-9.85487,-51.85268,3.66693,11.58,-0.27,1.09,2.0
1758086966.00622,1758086965.96972,0.0,0.0,0.0,-14.03747,-61.53567,7.50575,11.58,-0.27,1.09,2.0
1758086966.00987,1758086965.97972,0.0,0.0,0.0,-17.76169,-66.34852,12.204,13.24,0.47,3.94,2.0
1758086966.01049,1758086965.98972,0.0,0.0,0.0,-21.31403,-66.97877,15.92823,13.24,0.47,3.94,2.0
1758086966.02629,1758086965.99972,0.0,0.0,0.0,-26.52795,-65.14531,20.45459,14.47,1.0,4.66,2.0
1758086966.02983,1758086966.00972,0.0,0.0,0.0,-28.59059,-63.88479,21.14215,12.73,0.78,4.13,2.0
1758086966.04561,1758086966.01972,0.0,0.0,0.0,-28.24682,-63.48372,20.51189,12.73,0.78,4.13,2.0
1758086966.04643,1758086966.02972,0.0,0.0,0.0,-26.01229,-62.16592,18.27736,9.69,0.16,3.8,2.0
1758086966.0661,1758086966.03972,0.0,0.0,0.0,-19.07949,-55.00395,13.34992,9.69,0.16,3.8,2.0
1758086966.07044,1758086966.04972,0.0,0.0,0.0,-13.12073,-47.95657,9.4538,9.02,-0.4,3.59,2.0
1758086966.08555,1758086966.05972,0.0,0.0,0.0,-7.04738,-39.19032,4.64096,9.02,-0.4,3.59,2.0
1758086966.08647,1758086966.06972,0.0,0.0,0.0,-1.94806,-33.68992,1.08862,9.73,-0.92,2.89,2.0
1758086966.10598,1758086966.07972,0.0,0.0,0.0,2.6929,-24.4653,-2.40642,10.93,-1.02,2.08,2.0
1758086966.11054,1758086966.08972,0.0,0.0,0.0,3.95341,-16.90226,-3.60963,10.93,-1.02,2.08,2.0
1758086966.12551,1758086966.09972,0.0,0.0,0.0,3.89611,-8.36518,-4.1253,11.63,-0.34,1.23,2.0
1758086966.1269,1758086966.10972,0.0,0.0,0.0,2.7502,0.40107,-4.29718,11.63,-0.34,1.23,2.0
1758086966.14154,1758086966.11972,0.0,0.0,0.0,-1.08862,11.00079,-4.58366,11.07,0.65,1.05,2.0
1758086966.20751,1758086966.12972,0.0,0.0,0.0,-4.81285,16.3293,-4.81285,11.07,0.65,1.05,2.0
1758086966.20998,1758086966.13972,0.0,0.0,0.0,-9.05273,23.0902,-6.07335,10.05,1.42,0.89,2.0
1758086966.21062,1758086966.14972,0.0,0.0,0.0,-13.40721,29.73651,-7.10468,10.05,1.42,0.89,2.0
1758086966.21517,1758086966.15972,0.0,0.0,0.0,-20.05352,34.60666,-9.62569,9.45,1.81,0.96,2.0
1758086966.21571,1758086966.16972,0.0,0.0,0.0,-24.5226,37.81522,-10.8289,8.74,1.83,1.21,2.0
1758086966.22041,1758086966.17972,0.0,0.0,0.0,-29.04896,41.08107,-11.74564,8.74,1.83,1.21,2.0
1758086966.22085,1758086966.18972,0.0,0.0,0.0,-35.3515,43.77398,-12.54778,8.68,1.74,1.13,2.0
1758086966.22153,1758086966.19972,0.0,0.0,0.0,-38.73195,44.40423,-13.06344,8.68,1.74,1.13,2.0
1758086966.23814,1758086966.20972,0.0,0.0,0.0,-41.31026,43.20102,-13.40721,8.56,1.51,1.25,2.0
1758086966.23931,1758086966.21972,0.0,0.0,0.0,-42.74266,42.28429,-13.80828,8.56,1.51,1.25,2.0
1758086966.25456,1758086966.22972,0.0,0.0,0.0,-43.77398,41.36755,-13.5218,8.75,1.14,1.18,2.0
1758086966.27055,1758086966.23972,0.0,0.0,0.0,-43.25832,40.39353,-13.40721,9.13,0.62,1.27,2.0
1758086966.27095,1758086966.24972,0.0,0.0,0.0,-41.99781,39.19032,-13.00614,9.13,0.62,1.27,2.0
1758086966.30108,1758086966.25972,0.0,0.0,0.0,-39.99245,36.7266,-12.49048,9.15,0.11,1.26,2.0
1758086966.3051,1758086966.26972,0.0,0.0,0.0,-36.21093,33.63263,-11.91752,9.15,0.11,1.26,2.0
1758086966.31007,1758086966.27972,0.0,0.0,0.0,-32.77319,32.20023,-11.00079,8.99,-0.33,1.22,2.0
1758086966.31068,1758086966.28972,0.0,0.0,0.0,-29.39274,30.53865,-9.85487,8.99,-0.33,1.22,2.0
1758086966.32054,1758086966.29972,0.0,0.0,0.0,-26.47065,27.44468,-8.76626,9.0,-0.6,1.34,2.0
1758086966.33582,1758086966.30972,0.0,0.0,0.0,-23.26209,21.7724,-7.67763,9.12,-0.29,1.2,2.0
1758086966.33924,1758086966.31972,0.0,0.0,0.0,-21.7151,18.44924,-7.16197,9.12,-0.29,1.2,2.0
1758086966.35462,1758086966.32972,0.0,0.0,0.0,-20.51189,14.78231,-6.7609,9.14,0.14,1.15,2.0
1758086966.35555,1758086966.33972,0.0,0.0,0.0,-19.70975,11.34457,-6.53172,9.14,0.14,1.15,2.0
1758086966.37096,1758086966.34972,0.0,0.0,0.0,-19.53786,7.16197,-6.87549,9.05,0.54,1.12,2.0
1758086966.38998,1758086966.35972,0.0,0.0,0.0,-20.05352,3.49504,-8.30789,9.05,0.54,1.12,2.0
1758086966.39144,1758086966.36972,0.0,0.0,0.0,-20.97026,0.0,-9.11003,8.82,0.92,0.99,2.0
1758086966.40638,1758086966.37972,0.0,0.0,0.0,-23.0902,-2.57831,-10.19865,8.82,0.92,0.99,2.0
1758086966.40839,1758086966.38972,0.0,0.0,0.0,-24.86637,-5.27121,-10.65701,8.96,1.1,0.78,2.0
1758086966.42338,1758086966.39972,0.0,0.0,0.0,-26.69983,-6.8182,-11.45916,9.26,1.07,0.61,2.0
1758086966.42618,1758086966.40972,0.0,0.0,0.0,-28.59059,-8.42248,-11.74564,9.26,1.07,0.61,2.0
1758086966.44262,1758086966.41972,0.0,0.0,0.0,-30.93972,-11.00079,-11.80293,9.42,0.95,0.44,2.0
1758086966.47232,1758086966.42972,0.0,0.0,0.0,-32.42941,-13.34992,-10.8862,9.42,0.95,0.44,2.0
1758086966.47325,1758086966.43972,0.0,0.0,0.0,-34.0337,-15.0115,-9.96947,9.56,1.12,0.31,2.0
1758086966.47482,1758086966.44972,0.0,0.0,0.0,-34.95043,-17.01685,-8.88085,9.56,1.12,0.31,2.0
1758086966.48098,1758086966.45972,0.0,0.0,0.0,-36.38282,-11.17268,-6.8182,9.71,1.26,0.2,2.0
1758086966.49907,1758086966.46972,0.0,0.0,0.0,-38.44547,1.20321,-7.39116,11.45,1.62,0.03,2.0
1758086966.50772,1758086966.47972,0.0,0.0,0.0,-39.53409,14.78231,-7.04738,11.45,1.62,0.03,2.0
1758086966.50807,1758086966.48972,0.0,0.0,0.0,-40.16434,7.39116,-6.13065,11.17,1.56,0.34,2.0
1758086966.52446,1758086966.49972,0.0,0.0,0.0,-41.76862,-9.33921,-7.67763,11.17,1.56,0.34,2.0
1758086966.52617,1758086966.50972,0.0,0.0,0.0,-41.94051,-15.69904,-8.136,9.86,1.26,0.03,2.0
1758086966.54263,1758086966.51972,0.0,0.0,0.0,-42.34158,-18.33465,-9.85487,9.86,1.26,0.03,2.0
1758086966.54515,1758086966.52972,0.0,0.0,0.0,-42.85724,-17.53251,-11.34457,10.83,1.26,-0.32,2.0
1758086966.56099,1758086966.53972,0.0,0.0,0.0,-43.4875,-12.54778,-11.97482,11.21,1.39,-0.12,2.0
1758086966.57645,1758086966.54972,0.0,0.0,0.0,-44.00316,-9.5684,-11.86023,11.21,1.39,-0.12,2.0
1758086966.57917,1758086966.55972,0.0,0.0,0.0,-44.17505,-8.76626,-10.94349,10.66,1.2,-0.04,2.0
1758086966.59601,1758086966.56972,0.0,0.0,0.0,-43.77398,-9.85487,-9.39651,10.66,1.2,-0.04,2.0
1758086966.60068,1758086966.57972,0.0,0.0,0.0,-42.97184,-14.49583,-9.5684,10.33,0.86,0.95,2.0
1758086966.61544,1758086966.58972,0.0,0.0,0.0,-41.36755,-20.16812,-11.17268,10.33,0.86,0.95,2.0
1758086966.61927,1758086966.59972,0.0,0.0,0.0,-38.15899,-30.99702,-14.78231,11.15,-0.05,1.73,2.0
1758086966.63551,1758086966.60972,0.0,0.0,0.0,-32.14294,-47.49821,-23.31938,11.15,-0.05,1.73,2.0
1758086966.63644,1758086966.61972,0.0,0.0,0.0,-27.61657,-52.54023,-30.76784,11.68,-0.72,3.32,2.0
1758086966.65252,1758086966.62972,0.0,0.0,0.0,-23.37668,-51.79538,-36.95578,13.29,-1.15,2.8,2.0
1758086966.65664,1758086966.63972,0.0,0.0,0.0,-19.88164,-51.45161,-39.4768,13.29,-1.15,2.8,2.0
1758086966.67173,1758086966.64972,0.0,0.0,0.0,-18.90761,-57.29578,-37.52874,11.05,-0.12,2.32,2.0
1758086966.68999,1758086966.65972,0.0,0.0,0.0,-21.14215,-60.96271,-33.63263,11.05,-0.12,2.32,2.0
1758086966.69138,1758086966.66972,0.0,0.0,0.0,-24.4653,-59.81679,-27.73116,8.78,1.54,2.76,2.0
1758086966.70918,1758086966.67972,0.0,0.0,0.0,-29.27814,-55.00395,-20.97026,8.78,1.54,2.76,2.0
1758086966.71087,1758086966.68972,0.0,0.0,0.0,-39.53409,-45.37826,-9.33921,9.33,2.02,3.85,2.0
1758086966.72676,1758086966.69972,0.0,0.0,0.0,-47.67009,-40.27893,-2.00535,9.1,1.82,4.13,2.0
1758086966.73087,1758086966.70972,0.0,0.0,0.0,-56.32175,-39.07573,3.20856,9.1,1.82,4.13,2.0
1758086966.7465,1758086966.71972,0.0,0.0,0.0,-64.57235,-37.52874,6.8182,8.28,1.56,2.75,2.0
1758086966.74929,1758086966.72972,0.0,0.0,0.0,-74.7137,-30.13758,8.65166,8.28,1.56,2.75,2.0
1758086966.76477,1758086966.73972,0.0,0.0,0.0,-78.20874,-20.97026,8.0787,9.52,1.07,1.35,2.0
1758086966.76573,1758086966.74972,0.0,0.0,0.0,-79.35466,-10.71431,6.41713,9.52,1.07,1.35,2.0
1758086966.78103,1758086966.75972,0.0,0.0,0.0,-78.15145,0.0573,2.40642,11.48,-0.12,0.71,2.0
1758086966.7967,1758086966.76972,0.0,0.0,0.0,-73.16672,15.46986,-0.11459,11.95,-1.31,0.05,2.0
1758086966.79924,1758086966.77972,0.0,0.0,0.0,-68.86953,25.09555,-2.57831,11.95,-1.31,0.05,2.0
1758086966.81471,1758086966.78972,0.0,0.0,0.0,-64.11398,33.63263,-4.23989,11.15,-1.63,-0.1,2.0
1758086966.82086,1758086966.79972,0.0,0.0,0.0,-57.18119,42.34158,-4.69825,11.15,-1.63,-0.1,2.0
1758086966.86042,1758086966.80972,0.0,0.0,0.0,-52.48294,46.00851,-3.83882,9.88,-1.03,0.26,2.0
1758086966.86163,1758086966.81972,0.0,0.0,0.0,-48.52953,48.52953,-2.34913,9.88,-1.03,0.26,2.0
1758086966.86231,1758086966.82972,0.0,0.0,0.0,-45.37826,50.13381,-0.17189,9.27,-0.57,0.49,2.0
1758086966.86538,1758086966.83972,0.0,0.0,0.0,-41.71133,49.56085,2.92208,9.27,-0.57,0.69,2.0
1758086966.8658,1758086966.84972,0.0,0.0,0.0,-40.45082,46.98254,4.69825,9.0,-0.48,0.69,2.0
1758086966.88282,1758086966.85972,0.0,0.0,0.0,-39.76327,45.14908,5.90147,8.74,-0.47,0.74,2.0
1758086966.88572,1758086966.86972,0.0,0.0,0.0,-39.3622,43.14373,6.7609,8.74,-0.47,0.74,2.0
1758086966.90154,1758086966.87972,0.0,0.0,0.0,-40.33623,40.10705,4.98473,8.8,-0.31,0.9,2.0
1758086966.92005,1758086966.88972,0.0,0.0,0.0,-40.33623,34.66395,5.09932,8.8,-0.31,0.9,2.0
1758086966.92115,1758086966.89972,0.0,0.0,0.0,-40.68,32.48671,4.18259,8.59,-0.11,0.98,2.0
1758086966.93933,1758086966.90972,0.0,0.0,0.0,-41.02378,29.62192,2.92208,8.59,-0.11,0.98,2.0
1758086966.94045,1758086966.91972,0.0,0.0,0.0,-40.50812,25.55392,2.29183,9.13,0.0,0.91,2.0
1758086966.95585,1758086966.92972,0.0,0.0,0.0,-40.10705,24.5226,1.71887,9.31,-0.18,0.84,2.0
1758086966.95947,1758086966.93972,0.0,0.0,0.0,-39.76327,22.86102,1.14592,9.31,-0.18,0.84,2.0
1758086966.9754,1758086966.94972,0.0,0.0,0.0,-39.19032,19.36597,0.45837,8.91,-0.21,0.88,2.0
1758086966.97821,1758086966.95972,0.0,0.0,0.0,-38.56006,13.5218,-0.11459,8.91,-0.21,0.88,2.0
1758086966.99484,1758086966.96972,0.0,0.0,0.0,-37.98711,10.71431,0.11459,8.6,-0.31,0.95,2.0
1758086966.99576,1758086966.97972,0.0,0.0,0.0,-37.75792,7.79223,0.68755,8.6,-0.31,0.95,2.0
1758086967.01085,1758086966.98972,0.0,0.0,0.0,-36.95578,3.95341,2.23454,8.58,-0.27,0.89,2.0
1758086967.02661,1758086966.99972,0.0,0.0,0.0,-35.75257,4.46907,3.49504,8.96,-0.31,0.81,2.0
1758086967.02808,1758086967.00972,0.0,0.0,0.0,-34.09099,6.99009,4.52637,8.96,-0.31,0.81,2.0
1758086967.04264,1758086967.01972,0.0,0.0,0.0,-32.20023,9.74028,5.27121,9.44,-0.49,0.65,2.0
1758086967.05969,1758086967.02972,0.0,0.0,0.0,-28.93437,12.37589,6.07335,9.44,-0.49,0.65,2.0
1758086967.06088,1758086967.03972,0.0,0.0,0.0,-26.75713,11.28727,5.84417,9.23,-0.66,0.56,2.0
1758086967.11392,1758086967.04972,0.0,0.0,0.0,-24.5226,10.08406,5.09932,9.23,-0.66,0.56,2.0
1758086967.11553,1758086967.05972,0.0,0.0,0.0,-22.11617,9.22462,4.46907,8.9,-0.72,0.31,2.0
1758086967.11616,1758086967.06972,0.0,0.0,0.0,-18.56383,8.02141,2.34913,8.94,-0.78,0.11,2.0
1758086967.12054,1758086967.07972,0.0,0.0,0.0,-16.50119,10.59972,0.45837,8.94,-0.78,0.11,2.0
1758086967.12122,1758086967.08972,0.0,0.0,0.0,-13.75099,13.5218,-0.80214,9.61,-0.86,0.24,2.0
1758086967.12573,1758086967.09972,0.0,0.0,0.0,-11.34457,16.10011,-2.06265,9.61,-0.86,0.24,2.0
1758086967.12626,1758086967.10972,0.0,0.0,0.0,-8.30789,18.22006,-2.92208,9.82,-0.85,0.22,2.0
1758086967.14264,1758086967.11972,0.0,0.0,0.0,-6.58902,20.11082,-3.32316,9.82,-0.85,0.22,2.0
1758086967.1462,1758086967.12972,0.0,0.0,0.0,-5.27121,21.08485,-4.18259,10.13,-0.65,0.17,2.0
1758086967.16451,1758086967.13972,0.0,0.0,0.0,-4.35448,20.74107,-5.09932,10.13,-0.65,0.17,2.0
1758086967.1689,1758086967.14972,0.0,0.0,0.0,-4.58366,17.18874,-6.70361,10.06,-0.29,-0.14,2.0
1758086967.18394,1758086967.15972,0.0,0.0,0.0,-5.27121,12.08941,-8.47978,9.81,0.11,-0.45,2.0
1758086967.18644,1758086967.16972,0.0,0.0,0.0,-4.98473,2.00535,-8.99544,9.81,0.11,-0.45,2.0
1758086967.20165,1758086967.17972,0.0,0.0,0.0,-8.93814,-23.0902,-8.0787,8.22,0.26,-0.83,2.0
1758086967.21846,1758086967.18972,0.0,0.0,0.0,-11.91752,-51.6235,-5.72958,8.22,0.26,-0.83,2.0
1758086967.22013,1758086967.19972,0.0,0.0,0.0,-14.49583,-57.18119,-1.71887,8.93,-0.08,-0.53,2.0
1758086967.23578,1758086967.20972,0.0,0.0,0.0,-16.272,-58.72818,1.94806,8.93,-0.08,-0.53,2.0
1758086967.23695,1758086967.21972,0.0,0.0,0.0,-16.84496,-58.04062,7.62034,11.23,-0.72,0.1,2.0
1758086967.25174,1758086967.22972,0.0,0.0,0.0,-18.33465,-60.04598,11.34457,12.87,-1.07,2.43,2.0
1758086967.25525,1758086967.23972,0.0,0.0,0.0,-22.97561,-63.94209,13.80828,12.87,-1.07,2.43,2.0
1758086967.27098,1758086967.24972,0.0,0.0,0.0,-28.07493,-68.12468,16.61578,14.64,0.57,3.33,2.0
1758086967.28694,1758086967.25972,0.0,0.0,0.0,-33.51803,-67.32255,19.48057,14.64,0.57,3.33,2.0
1758086967.29109,1758086967.26972,0.0,0.0,0.0,-36.32552,-62.33781,19.82434,14.64,1.55,2.36,2.0
1758086967.30859,1758086967.27972,0.0,0.0,0.0,-37.81522,-56.89471,19.07949,14.64,1.55,2.36,2.0
1758086967.31267,1758086967.28972,0.0,0.0,0.0,-37.24226,-50.87865,16.50119,13.13,0.96,2.71,2.0
1758086967.33627,1758086967.29972,0.0,0.0,0.0,-33.68992,-45.09178,10.02676,11.18,-0.18,3.71,2.0
1758086967.34149,1758086967.30972,0.0,0.0,0.0,-28.30412,-42.39888,5.78687,11.18,-0.18,3.71,2.0
1758086967.3439,1758086967.31972,0.0,0.0,0.0,-21.60051,-37.12767,2.34913,10.34,-1.1,4.76,2.0
1758086967.34628,1758086967.32972,0.0,0.0,0.0,-13.98017,-29.67921,0.11459,10.34,-1.1,4.76,2.0
1758086967.36553,1758086967.33972,0.0,0.0,0.0,-3.38045,-17.99088,-2.46372,10.65,-1.7,3.79,2.0
1758086967.3665,1758086967.34972,0.0,0.0,0.0,0.97403,-13.5218,-2.63561,10.65,-1.7,3.79,2.0
1758086967.38197,1758086967.35972,0.0,0.0,0.0,3.03668,-8.59437,-2.00535,10.79,-1.45,2.65,2.0
1758086967.39882,1758086967.36972,0.0,0.0,0.0,4.0107,-2.63561,-0.68755,10.79,-1.45,2.65,2.0
1758086967.3997,1758086967.37972,0.0,0.0,0.0,2.63561,7.79223,0.17189,10.93,-0.34,1.8,2.0
1758086967.41502,1758086967.38972,0.0,0.0,0.0,0.74485,13.86558,-0.34377,10.6,0.99,1.62,2.0
1758086967.4162,1758086967.39972,0.0,0.0,0.0,-2.06265,20.62648,-1.66158,10.6,0.99,1.62,2.0
1758086967.43065,1758086967.40972,0.0,0.0,0.0,-8.30789,28.93437,-4.29718,10.29,1.93,1.68,2.0
1758086967.45032,1758086967.41972,0.0,0.0,0.0,-13.06344,32.54401,-6.24524,10.29,1.93,1.68,2.0
1758086967.45152,1758086967.42972,0.0,0.0,0.0,-17.99088,36.38282,-8.70896,9.47,2.3,1.44,2.0
1758086967.56026,1758086967.43972,0.0,0.0,0.0,-22.40265,39.53409,-10.71431,9.47,2.3,1.44,2.0
1758086967.56536,1758086967.44972,0.0,0.0,0.0,-29.04896,40.33623,-13.46451,8.75,2.15,1.35,2.0
1758086967.56586,1758086967.45972,0.0,0.0,0.0,-33.00237,40.45082,-14.43854,8.26,1.75,1.17,2.0
1758086967.57139,1758086967.46972,0.0,0.0,0.0,-36.6693,41.48215,-15.29797,8.26,1.75,1.17,2.0
1758086967.57279,1758086967.47972,0.0,0.0,0.0,-39.53409,42.74266,-15.98552,8.4,1.4,0.99,2.0
1758086967.57611,1758086967.48972,0.0,0.0,0.0,-42.57077,41.94051,-16.55848,8.4,1.4,0.99,2.0
1758086967.58102,1758086967.49972,0.0,0.0,0.0,-43.4875,40.68,-16.50119,8.49,0.97,1.0,2.0
1758086967.58142,1758086967.50972,0.0,0.0,0.0,-43.77398,37.58603,-15.69904,8.49,0.97,1.0,2.0
1758086967.585,1758086967.51972,0.0,0.0,0.0,-43.4875,33.9764,-15.58445,8.61,0.52,1.22,2.0
1758086967.58581,1758086967.52972,0.0,0.0,0.0,-42.05511,29.8511,-14.83961,8.62,0.15,1.4,2.0
1758086967.59088,1758086967.53972,0.0,0.0,0.0,-40.62271,27.10091,-14.09476,8.62,0.15,1.4,2.0
1758086967.59496,1758086967.54972,0.0,0.0,0.0,-38.84654,23.83505,-13.40721,8.4,-0.09,1.4,2.0
1758086967.59942,1758086967.55972,0.0,0.0,0.0,-37.24226,20.16812,-12.2613,8.4,-0.09,1.4,2.0
1758086967.59978,1758086967.56972,0.0,0.0,0.0,-34.26288,14.83961,-10.19865,8.14,-0.22,1.31,2.0
1758086967.60091,1758086967.57972,0.0,0.0,0.0,-32.25753,11.34457,-8.42248,8.14,-0.22,1.31,2.0
1758086967.61632,1758086967.58972,0.0,0.0,0.0,-30.19488,7.39116,-6.35983,8.04,-0.27,1.18,2.0
1758086967.62102,1758086967.59972,0.0,0.0,0.0,-27.67386,3.83882,-3.09397,8.04,-0.27,1.18,2.0
1758086967.62563,1758086967.60972,0.0,0.0,0.0,-26.52795,1.77617,-1.77617,8.4,-0.14,0.99,2.0
1758086967.64256,1758086967.61972,0.0,0.0,0.0,-26.06958,2.63561,-1.20321,9.0,0.28,1.05,2.0
1758086967.65909,1758086967.62972,0.0,0.0,0.0,-26.06958,5.4431,-1.08862,9.0,0.28,1.05,2.0
1758086967.66076,1758086967.63972,0.0,0.0,0.0,-26.47065,8.65166,-1.77617,9.7,0.83,1.05,2.0
1758086967.67587,1758086967.64972,0.0,0.0,0.0,-27.44468,8.136,-2.46372,9.7,0.83,1.05,2.0
1758086967.67937,1758086967.65972,0.0,0.0,0.0,-29.22085,5.95876,-3.60963,9.6,1.19,0.98,2.0
1758086967.69481,1758086967.66972,0.0,0.0,0.0,-30.88243,1.83346,-4.58366,9.6,1.19,0.98,2.0
1758086967.69601,1758086967.67972,0.0,0.0,0.0,-33.68992,-8.70896,-5.32851,9.11,1.29,0.56,2.0
1758086967.7111,1758086967.68972,0.0,0.0,0.0,-35.2369,-18.50654,-5.15662,8.4,1.17,0.05,2.0
1758086967.71551,1758086967.69972,0.0,0.0,0.0,-36.38282,-28.13223,-4.92744,8.4,1.17,0.05,2.0
1758086967.73456,1758086967.70972,0.0,0.0,0.0,-37.24226,-36.49741,-4.69825,8.49,0.9,-0.34,2.0
1758086967.73584,1758086967.71972,0.0,0.0,0.0,-39.01843,-44.9199,-4.46907,8.49,0.9,-0.34,2.0
1758086967.75095,1758086967.72972,0.0,0.0,0.0,-39.82057,-47.03984,-5.61499,9.7,1.1,-0.11,2.0
1758086967.76704,1758086967.73972,0.0,0.0,0.0,-40.68,-40.96649,-7.16197,9.7,1.1,-0.11,2.0
1758086967.76933,1758086967.74972,0.0,0.0,0.0,-40.50812,-26.47065,-8.99544,11.96,1.42,0.22,2.0
1758086967.78484,1758086967.75972,0.0,0.0,0.0,-39.87786,-20.97026,-12.14671,12.64,1.48,0.13,2.0
1758086967.78695,1758086967.76972,0.0,0.0,0.0,-40.45082,-34.66395,-16.3293,12.64,1.48,0.13,2.0
1758086967.8009,1758086967.77972,0.0,0.0,0.0,-40.10705,-44.748,-20.16812,9.85,1.46,-0.15,2.0
1758086967.83978,1758086967.78972,0.0,0.0,0.0,-39.19032,-46.00851,-23.72045,9.85,1.46,-0.15,2.0
1758086967.84799,1758086967.79972,0.0,0.0,0.0,-39.3622,-38.38818,-22.57454,10.28,1.46,-1.15,2.0
1758086967.85473,1758086967.80972,0.0,0.0,0.0,-40.45082,-32.88778,-20.22541,10.28,1.46,-1.15,2.0
1758086967.8609,1758086967.81972,0.0,0.0,0.0,-41.13837,-31.11161,-18.33465,9.82,1.82,-0.86,2.0
1758086967.8613,1758086967.82972,0.0,0.0,0.0,-38.73195,-40.96649,-19.36597,9.82,1.82,-0.86,2.0
1758086967.86597,1758086967.83972,0.0,0.0,0.0,-36.55471,-52.36834,-24.12152,10.52,1.12,1.43,2.0
1758086967.87045,1758086967.84972,0.0,0.0,0.0,-33.11696,-60.33246,-30.48136,12.53,-0.66,3.81,2.0
1758086967.88597,1758086967.85972,0.0,0.0,0.0,-27.50197,-65.66096,-38.73195,12.53,-0.66,3.81,2.0
1758086967.89144,1758086967.86972,0.0,0.0,0.0,-18.90761,-60.90542,-50.87865,15.49,-2.36,5.43,2.0
1758086967.90587,1758086967.87972,0.0,0.0,0.0,-14.83961,-50.1911,-53.74345,15.49,-2.36,5.43,2.0
1758086967.9127,1758086967.88972,0.0,0.0,0.0,-13.80828,-44.11775,-52.82671,14.16,-2.36,4.42,2.0
1758086967.93434,1758086967.89972,0.0,0.0,0.0,-16.04282,-41.02378,-49.67545,14.16,-2.36,4.42,2.0
1758086967.94021,1758086967.90972,0.0,0.0,0.0,-24.29341,-33.86181,-39.82057,9.83,-0.56,4.4,2.0
1758086967.94079,1758086967.91972,0.0,0.0,0.0,-31.79916,-28.87707,-31.85646,9.91,0.49,3.53,2.0
1758086967.97864,1758086967.92972,0.0,0.0,0.0,-39.53409,-21.48592,-22.34536,9.91,0.49,3.53,2.0
1758086967.9804,1758086967.93972,0.0,0.0,0.0,-46.63877,-13.06344,-12.08941,11.02,1.31,2.14,2.0
1758086967.98109,1758086967.94972,0.0,0.0,0.0,-54.77477,-1.66158,1.03132,11.02,1.31,2.14,2.0
1758086967.98465,1758086967.95972,0.0,0.0,0.0,-58.49899,4.81285,6.47442,11.16,1.42,1.26,2.0
1758086967.98525,1758086967.96972,0.0,0.0,0.0,-60.27517,11.34457,10.65701,11.16,1.42,1.26,2.0
1758086968.00089,1758086967.97972,0.0,0.0,0.0,-60.44705,20.97026,11.63104,11.2,0.68,0.83,2.0
1758086968.02055,1758086967.98972,0.0,0.0,0.0,-58.55629,29.96569,10.8289,10.8,-0.29,0.67,2.0
1758086968.0215,1758086967.99972,0.0,0.0,0.0,-55.92068,33.74722,9.22462,10.8,-0.29,0.67,2.0
1758086968.04115,1758086968.00972,0.0,0.0,0.0,-52.71212,36.32552,7.16197,9.96,-1.1,0.7,2.0
1758086968.04484,1758086968.01972,0.0,0.0,0.0,-47.03984,39.24761,4.81285,9.96,-1.1,0.7,2.0
1758086968.04523,1758086968.02972,0.0,0.0,0.0,-42.97184,40.50812,3.72423,9.01,-1.28,0.48,2.0
1758086968.06125,1758086968.03972,0.0,0.0,0.0,-39.4195,40.45082,3.09397,9.01,-1.28,0.48,2.0
1758086968.08034,1758086968.04972,0.0,0.0,0.0,-36.21093,41.48215,2.00535,8.08,-1.09,0.67,2.0
1758086968.0816,1758086968.05972,0.0,0.0,0.0,-32.54401,37.75792,2.00535,7.37,-1.09,0.7,2.0
1758086968.10001,1758086968.06972,0.0,0.0,0.0,-29.8511,35.00772,2.57831,7.37,-0.89,0.7,2.0
1758086968.10134,1758086968.07972,0.0,0.0,0.0,-28.59059,33.00237,2.40642,7.73,-0.73,0.89,2.0
1758086968.1162,1758086968.08972,0.0,0.0,0.0,-27.33009,30.30947,2.63561,7.73,-0.73,0.89,2.0
1758086968.11903,1758086968.09972,0.0,0.0,0.0,-26.12688,26.01229,2.7502,8.29,-0.4,0.75,2.0
1758086968.13393,1758086968.10972,0.0,0.0,0.0,-25.55392,24.12152,2.6929,8.29,-0.4,0.75,2.0
1758086968.13555,1758086968.11972,0.0,0.0,0.0,-25.26744,22.97561,3.09397,8.92,-0.08,0.73,2.0
1758086968.15102,1758086968.12972,0.0,0.0,0.0,-25.38203,22.28806,2.97938,8.92,-0.08,0.73,2.0
1758086968.15644,1758086968.13972,0.0,0.0,0.0,-25.89769,20.85567,2.86479,9.29,0.22,0.78,2.0
1758086968.17475,1758086968.14972,0.0,0.0,0.0,-26.64254,20.05352,2.34913,9.16,0.43,0.78,2.0
1758086968.17635,1758086968.15972,0.0,0.0,0.0,-27.84575,19.13679,1.60428,9.16,0.43,0.78,2.0
1758086968.19098,1758086968.16972,0.0,0.0,0.0,-29.27814,17.6471,0.0573,8.9,0.51,0.66,2.0
1758086968.19619,1758086968.17972,0.0,0.0,0.0,-30.82513,15.98552,-0.74485,8.9,0.51,0.66,2.0
1758086968.21565,1758086968.18972,0.0,0.0,0.0,-31.62727,15.29797,-1.20321,8.9,0.35,0.45,2.0
1758086968.22037,1758086968.19972,0.0,0.0,0.0,-31.85646,16.90226,-1.66158,8.9,0.35,0.45,2.0
1758086968.23533,1758086968.20972,0.0,0.0,0.0,-31.62727,22.11617,-2.46372,9.29,0.07,0.43,2.0
1758086968.23621,1758086968.21972,0.0,0.0,0.0,-30.88243,24.35071,-3.26586,9.64,-0.26,0.49,2.0
1758086968.25109,1758086968.22972,0.0,0.0,0.0,-29.56462,24.80907,-3.95341,9.64,-0.26,0.49,2.0
1758086968.25646,1758086968.23972,0.0,0.0,0.0,-27.84575,22.51724,-4.0107,9.42,-0.56,0.54,2.0
1758086968.27392,1758086968.24972,0.0,0.0,0.0,-24.4653,17.53251,-3.72423,9.42,-0.56,0.54,2.0
1758086968.27525,1758086968.25972,0.0,0.0,0.0,-22.05888,13.69369,-3.20856,9.26,-0.78,0.34,2.0
1758086968.29104,1758086968.26972,0.0,0.0,0.0,-19.70975,6.35983,-2.46372,9.26,-0.78,0.34,2.0
1758086968.29629,1758086968.27972,0.0,0.0,0.0,-17.99088,-1.08862,-1.60428,8.97,-0.86,0.09,2.0
1758086968.31612,1758086968.28972,0.0,0.0,0.0,-15.29797,-8.0787,-1.83346,9.54,-0.67,-0.25,2.0
1758086968.31943,1758086968.29972,0.0,0.0,0.0,-14.38124,-6.7609,-0.97403,9.54,-0.67,-0.25,2.0
1758086968.33506,1758086968.30972,0.0,0.0,0.0,-13.06344,-7.04738,-0.11459,11.27,-0.45,-0.2,2.0
1758086968.3394,1758086968.31972,0.0,0.0,0.0,-12.77696,-7.96411,1.71887,11.27,-0.45,-0.2,2.0
1758086968.35531,1758086968.32972,0.0,0.0,0.0,-13.17803,-7.04738,4.29718,11.95,-0.57,-0.11,2.0
1758086968.35626,1758086968.33972,0.0,0.0,0.0,-12.89155,-5.27121,5.61499,11.95,-0.57,-0.11,2.0
1758086968.37127,1758086968.34972,0.0,0.0,0.0,-11.34457,-3.26586,7.96411,12.34,-1.02,0.34,2.0
1758086968.38703,1758086968.35972,0.0,0.0,0.0,-5.4431,3.49504,12.2613,12.34,-1.02,0.34,2.0
1758086968.38825,1758086968.36972,0.0,0.0,0.0,-4.35448,-9.39651,11.45916,12.05,-1.73,0.7,2.0
1758086968.4033,1758086968.37972,0.0,0.0,0.0,-4.87014,-35.40879,10.94349,9.82,-1.07,0.34,2.0
1758086968.40582,1758086968.38972,0.0,0.0,0.0,-6.07335,-58.49899,12.54778,9.82,-1.07,0.34,2.0
1758086968.42393,1758086968.39972,0.0,0.0,0.0,-10.19865,-73.2813,18.73572,11.1,-0.08,1.59,2.0
1758086968.42572,1758086968.40972,0.0,0.0,0.0,-13.80828,-78.55252,24.98096,11.1,-0.08,1.59,2.0
1758086968.44133,1758086968.41972,0.0,0.0,0.0,-17.93358,-76.77635,28.87707,13.51,0.72,3.51,2.0
1758086968.44901,1758086968.42972,0.0,0.0,0.0,-22.23076,-72.53646,31.16891,13.51,0.72,3.51,2.0
1758086968.46586,1758086968.43972,0.0,0.0,0.0,-27.50197,-67.89551,31.45539,14.06,1.54,3.45,2.0
1758086968.47028,1758086968.44972,0.0,0.0,0.0,-29.27814,-67.03606,28.476,11.4,1.13,3.88,2.0
1758086968.48541,1758086968.45972,0.0,0.0,0.0,-28.64789,-66.17663,24.4653,11.4,1.13,3.88,2.0
1758086968.48628,1758086968.46972,0.0,0.0,0.0,-26.18417,-61.76485,19.88164,9.35,0.45,4.17,2.0
1758086968.50114,1758086968.47972,0.0,0.0,0.0,-20.3973,-51.5662,12.37589,9.35,0.45,4.17,2.0
1758086968.51901,1758086968.48972,0.0,0.0,0.0,-15.58445,-46.2377,7.73493,9.41,-0.1,4.62,2.0
1758086968.54602,1758086968.49972,0.0,0.0,0.0,-10.31324,-42.74266,4.23989,9.41,-0.1,4.62,2.0
1758086968.5466,1758086968.50972,0.0,0.0,0.0,-5.50039,-39.3622,1.66158,9.58,-0.75,3.78,2.0
1758086968.55061,1758086968.51972,0.0,0.0,0.0,0.0,-29.73651,-1.3178,10.31,-1.24,2.17,2.0
1758086968.55105,1758086968.52972,0.0,0.0,0.0,2.57831,-22.34536,-1.20321,10.31,-1.24,2.17,2.0
1758086968.56895,1758086968.53972,0.0,0.0,0.0,3.83882,-12.49048,-1.66158,11.19,-0.93,1.28,2.0
1758086968.56996,1758086968.54972,0.0,0.0,0.0,4.52637,-2.97938,-1.66158,11.19,-0.93,1.28,2.0
1758086968.58517,1758086968.55972,0.0,0.0,0.0,3.89611,11.28727,-2.7502,11.03,0.0,0.81,2.0
1758086968.58632,1758086968.56972,0.0,0.0,0.0,1.77617,18.50654,-3.03668,11.03,0.0,0.81,2.0
1758086968.6011,1758086968.57972,0.0,0.0,0.0,-1.03132,25.09555,-3.26586,10.17,0.83,0.9,2.0
1758086968.60632,1758086968.58972,0.0,0.0,0.0,-5.4431,33.34615,-5.21392,10.17,0.83,0.9,2.0
1758086968.65002,1758086968.59972,0.0,0.0,0.0,-7.79223,42.1124,-6.87549,9.61,1.38,0.69,2.0
1758086968.65131,1758086968.60972,0.0,0.0,0.0,-10.71431,42.57077,-8.47978,8.63,1.6,0.93,2.0
1758086968.65172,1758086968.61972,0.0,0.0,0.0,-13.86558,45.26366,-10.25595,8.63,1.6,0.93,2.0
1758086968.65481,1758086968.62972,0.0,0.0,0.0,-18.50654,52.25375,-11.51645,8.98,1.48,0.74,2.0
1758086968.65592,1758086968.63972,0.0,0.0,0.0,-21.42862,55.23313,-12.49048,8.98,1.48,0.74,2.0
1758086968.67539,1758086968.64972,0.0,0.0,0.0,-24.00693,56.49364,-13.34992,8.85,1.25,0.69,2.0
1758086968.67633,1758086968.65972,0.0,0.0,0.0,-25.8404,57.18119,-14.09476,8.85,1.25,0.69,2.0
1758086968.69138,1758086968.66972,0.0,0.0,0.0,-28.01764,54.431,-13.98017,8.61,1.07,0.85,2.0
1758086968.71442,1758086968.67972,0.0,0.0,0.0,-29.10626,52.9986,-14.03747,8.61,0.87,1.08,2.0
1758086968.72017,1758086968.68972,0.0,0.0,0.0,-30.53865,50.93595,-14.09476,8.61,0.87,1.08,2.0
1758086968.83268,1758086968.69972,0.0,0.0,0.0,-31.74186,47.72739,-14.49583,8.64,0.71,1.24,2.0
1758086968.85078,1758086968.70972,0.0,0.0,0.0,-33.17426,42.34158,-14.9542,8.64,0.71,1.24,2.0
1758086968.85735,1758086968.71972,0.0,0.0,0.0,-33.40344,38.61736,-14.9542,8.46,0.57,1.29,2.0
1758086968.85792,1758086968.72972,0.0,0.0,0.0,-33.23156,34.14828,-14.61043,8.46,0.57,1.29,2.0
1758086968.86072,1758086968.73972,0.0,0.0,0.0,-32.42941,28.36141,-13.98017,8.21,0.3,1.41,2.0
1758086968.86303,1758086968.74972,0.0,0.0,0.0,-28.70519,24.5226,-10.59972,8.14,-0.16,1.4,2.0
1758086968.86539,1758086968.75972,0.0,0.0,0.0,-24.57989,20.68378,-7.50575,8.14,-0.16,1.4,2.0
1758086968.86583,1758086968.76972,0.0,0.0,0.0,-22.97561,13.5218,-7.16197,7.99,-0.38,1.31,2.0
1758086968.868,1758086968.77972,0.0,0.0,0.0,-22.05888,8.02141,-9.85487,7.99,-0.38,1.31,2.0
1758086968.86996,1758086968.78972,0.0,0.0,0.0,-21.6578,3.95341,-11.45916,8.74,0.37,0.64,2.0
1758086968.87121,1758086968.79972,0.0,0.0,0.0,-21.37133,3.38045,-11.86023,8.74,0.37,0.64,2.0
1758086968.87261,1758086968.80972,0.0,0.0,0.0,-21.60051,3.49504,-11.91752,9.3,0.46,0.91,2.0
1758086968.87336,1758086968.81972,0.0,0.0,0.0,-21.60051,0.74485,-11.17268,9.3,0.46,0.91,2.0
1758086968.87523,1758086968.82972,0.0,0.0,0.0,-21.7724,-2.7502,-10.48513,9.16,0.37,0.67,2.0
1758086968.88042,1758086968.83972,0.0,0.0,0.0,-22.23076,-6.99009,-9.68299,8.82,0.27,0.47,2.0
1758086968.88113,1758086968.84972,0.0,0.0,0.0,-21.7724,-13.00614,-7.79223,8.82,0.27,0.47,2.0
1758086968.88494,1758086968.85972,0.0,0.0,0.0,-22.11617,-20.79837,-4.87014,8.6,0.32,0.0,2.0
1758086968.88858,1758086968.86972,0.0,0.0,0.0,-22.68913,-20.34,-3.09397,8.6,0.32,0.0,2.0
1758086968.90499,1758086968.87972,0.0,0.0,0.0,-23.94964,-9.91217,-2.23454,9.7,0.61,-0.18,2.0
1758086968.90653,1758086968.88972,0.0,0.0,0.0,-26.24147,7.84952,-2.63561,9.7,0.61,-0.18,2.0
1758086968.92142,1758086968.89972,0.0,0.0,0.0,-26.87172,12.43318,-1.3751,12.55,1.13,-0.29,2.0
1758086968.94089,1758086968.90972,0.0,0.0,0.0,-30.25217,-10.31324,-4.81285,9.71,1.47,0.74,2.0
1758086968.94583,1758086968.91972,0.0,0.0,0.0,-31.28349,-23.37668,-5.55769,9.71,1.47,0.74,2.0
1758086968.94908,1758086968.92972,0.0,0.0,0.0,-32.48671,-28.93437,-7.50575,10.29,1.22,-0.54,2.0
1758086968.9761,1758086968.93972,0.0,0.0,0.0,-33.11696,-30.82513,-10.71431,10.29,1.22,-0.54,2.0
1758086968.98684,1758086968.94972,0.0,0.0,0.0,-33.63263,-28.01764,-12.14671,10.88,1.24,-0.49,2.0
1758086968.99036,1758086968.95972,0.0,0.0,0.0,-33.46074,-25.89769,-12.60507,10.88,1.24,-0.49,2.0
1758086968.9916,1758086968.96972,0.0,0.0,0.0,-33.11696,-25.49662,-13.23533,10.87,1.22,-0.02,2.0
1758086968.99625,1758086968.97972,0.0,0.0,0.0,-30.88243,-24.4653,-15.35527,12.12,0.73,1.38,2.0
1758086969.01352,1758086968.98972,0.0,0.0,0.0,-27.38738,-24.4653,-18.44924,12.12,0.73,1.38,2.0
1758086969.01523,1758086968.99972,0.0,0.0,0.0,-22.00158,-30.82513,-23.49127,13.93,-0.41,3.12,2.0
1758086969.0363,1758086969.00972,0.0,0.0,0.0,-10.94349,-45.60744,-33.86181,13.93,-0.41,3.12,2.0
1758086969.04143,1758086969.01972,0.0,0.0,0.0,-3.89611,-48.35764,-39.87786,15.0,-1.21,4.24,2.0
1758086969.05652,1758086969.02972,0.0,0.0,0.0,1.66158,-47.38361,-42.51347,15.0,-1.21,4.24,2.0
1758086969.08544,1758086969.03972,0.0,0.0,0.0,4.87014,-46.86795,-41.36755,13.08,-0.58,2.88,2.0
1758086969.08591,1758086969.04972,0.0,0.0,0.0,4.1253,-45.72203,-35.58068,13.08,-0.58,3.79,2.0
1758086969.08781,1758086969.05972,0.0,0.0,0.0,0.40107,-42.68536,-30.02299,9.53,1.17,3.79,2.0
1758086969.08952,1758086969.06972,0.0,0.0,0.0,-5.90147,-37.52874,-23.49127,9.14,1.79,5.22,2.0
1758086969.10649,1758086969.07972,0.0,0.0,0.0,-14.15206,-33.40344,-15.92823,9.14,1.79,5.22,2.0
1758086969.11,1758086969.08972,0.0,0.0,0.0,-27.04361,-34.14828,-4.29718,8.66,2.11,4.38,2.0
1758086969.12537,1758086969.09972,0.0,0.0,0.0,-35.06502,-36.61201,2.57831,8.66,2.11,4.38,2.0
1758086969.12676,1758086969.10972,0.0,0.0,0.0,-41.76862,-36.84119,7.39116,8.38,2.16,2.77,2.0
1758086969.14159,1758086969.11972,0.0,0.0,0.0,-46.46688,-33.00237,10.31324,8.38,2.16,2.77,2.0
1758086969.15946,1758086969.12972,0.0,0.0,0.0,-48.75871,-22.97561,11.91752,9.91,1.62,1.95,2.0
1758086969.16026,1758086969.13972,0.0,0.0,0.0,-47.38361,-15.92823,10.8862,10.76,0.45,1.38,2.0
1758086969.17555,1758086969.14972,0.0,0.0,0.0,-44.46153,-8.70896,8.99544,10.76,0.45,1.38,2.0
1758086969.17763,1758086969.15972,0.0,0.0,0.0,-40.85189,-2.00535,6.87549,10.13,-0.81,0.56,2.0
1758086969.19317,1758086969.16972,0.0,0.0,0.0,-34.14828,5.90147,4.23989,10.13,-0.81,0.56,2.0
1758086969.19991,1758086969.17972,0.0,0.0,0.0,-28.99167,9.85487,3.26586,9.31,-1.7,0.34,2.0
1758086969.21556,1758086969.18972,0.0,0.0,0.0,-23.72045,12.89155,3.32316,9.31,-1.7,0.34,2.0
1758086969.22003,1758086969.19972,0.0,0.0,0.0,-16.61578,16.04282,4.92744,8.82,-1.83,0.54,2.0
1758086969.23533,1758086969.20972,0.0,0.0,0.0,-12.49048,20.51189,6.47442,8.7,-1.37,0.49,2.0
1758086969.24,1758086969.21972,0.0,0.0,0.0,-8.88085,23.26209,8.99544,8.7,-1.37,0.49,2.0
1758086969.25558,1758086969.22972,0.0,0.0,0.0,-6.13065,23.83505,11.11538,8.54,-0.8,0.65,2.0
1758086969.26009,1758086969.23972,0.0,0.0,0.0,-3.66693,25.15285,14.15206,8.54,-0.8,0.65,2.0
1758086969.27563,1758086969.24972,0.0,0.0,0.0,-2.86479,25.89769,15.41257,8.87,-0.27,0.91,2.0
1758086969.27983,1758086969.25972,0.0,0.0,0.0,-2.46372,25.72581,16.21471,8.87,-0.27,0.91,2.0
1758086969.29542,1758086969.26972,0.0,0.0,0.0,-2.7502,25.38203,16.38659,9.11,0.2,1.04,2.0
1758086969.3002,1758086969.27972,0.0,0.0,0.0,-3.32316,24.57989,15.64175,9.24,0.45,1.05,2.0
1758086969.31566,1758086969.28972,0.0,0.0,0.0,-3.66693,25.43933,14.66772,9.24,0.45,1.05,2.0
1758086969.31927,1758086969.29972,0.0,0.0,0.0,-4.29718,27.50197,13.12073,9.32,0.45,0.95,2.0
1758086969.33436,1758086969.30972,0.0,0.0,0.0,-4.87014,25.8404,11.63104,9.32,0.45,0.95,2.0
1758086969.33558,1758086969.31972,0.0,0.0,0.0,-5.78687,24.12152,8.59437,8.85,0.32,0.99,2.0
1758086969.35481,1758086969.32972,0.0,0.0,0.0,-5.90147,22.91831,6.99009,8.85,0.32,0.99,2.0
1758086969.35617,1758086969.33972,0.0,0.0,0.0,-5.27121,21.6578,6.18794,8.9,0.11,0.82,2.0
1758086969.37567,1758086969.34972,0.0,0.0,0.0,-4.35448,20.45459,5.78687,8.9,0.11,0.82,2.0
1758086969.38006,1758086969.35972,0.0,0.0,0.0,-2.86479,18.79302,5.78687,9.05,-0.12,0.66,2.0
1758086969.39541,1758086969.36972,0.0,0.0,0.0,-1.03132,20.16812,6.41713,9.39,-0.39,0.5,2.0
1758086969.40001,1758086969.37972,0.0,0.0,0.0,0.97403,24.00693,6.87549,9.39,-0.39,0.5,2.0
1758086969.41542,1758086969.38972,0.0,0.0,0.0,2.7502,28.01764,6.70361,9.85,-0.55,0.32,2.0
1758086969.42003,1758086969.39972,0.0,0.0,0.0,5.50039,29.9084,6.07335,9.85,-0.55,0.32,2.0
1758086969.43671,1758086969.40972,0.0,0.0,0.0,7.04738,26.47065,5.21392,9.59,-0.49,0.39,2.0
1758086969.44543,1758086969.41972,0.0,0.0,0.0,7.96411,20.34,3.72423,9.59,-0.49,0.39,2.0
1758086969.4459,1758086969.42972,0.0,0.0,0.0,8.76626,12.83425,1.94806,9.14,-0.28,0.31,2.0
1758086969.46141,1758086969.43972,0.0,0.0,0.0,7.96411,8.99544,-0.0573,9.4,0.0,-0.06,2.0
1758086969.47978,1758086969.44972,0.0,0.0,0.0,6.13065,7.62034,-2.57831,9.4,0.0,-0.06,2.0
1758086969.48261,1758086969.45972,0.0,0.0,0.0,5.4431,3.26586,-3.38045,9.9,0.17,0.01,2.0
1758086969.48644,1758086969.46972,0.0,0.0,0.0,6.8182,-3.60963,-1.20321,9.9,0.17,0.01,2.0
1758086969.50601,1758086969.47972,0.0,0.0,0.0,7.39116,-3.32316,0.97403,10.84,-0.22,-0.37,2.0
1758086969.5102,1758086969.48972,0.0,0.0,0.0,6.87549,-0.45837,2.57831,10.84,-0.22,-0.37,2.0
1758086969.5257,1758086969.49972,0.0,0.0,0.0,6.24524,1.08862,4.98473,11.95,-0.32,-0.16,2.0
1758086969.52985,1758086969.50972,0.0,0.0,0.0,4.98473,-0.74485,7.73493,11.8,-0.28,0.31,2.0
1758086969.5977,1758086969.51972,0.0,0.0,0.0,4.52637,-13.80828,8.25059,11.8,-0.28,0.31,2.0
1758086969.60089,1758086969.52972,0.0,0.0,0.0,4.35448,-36.15364,9.5684,9.92,-0.3,1.09,2.0
1758086969.60239,1758086969.53972,0.0,0.0,0.0,4.52637,-57.75415,13.5218,9.92,-0.3,1.09,2.0
1758086969.60525,1758086969.54972,0.0,0.0,0.0,1.77617,-73.16672,21.14215,11.56,-0.13,2.39,2.0
1758086969.60589,1758086969.55972,0.0,0.0,0.0,-1.03132,-72.36457,27.2155,11.56,-0.13,2.39,2.0
1758086969.60892,1758086969.56972,0.0,0.0,0.0,-3.49504,-63.8275,30.65324,15.83,1.0,3.29,2.0
1758086969.60927,1758086969.57972,0.0,0.0,0.0,-5.72958,-55.11855,33.11696,15.83,1.0,3.29,2.0
1758086969.61008,1758086969.58972,0.0,0.0,0.0,-7.73493,-47.09713,30.82513,16.01,1.69,2.82,2.0
1758086969.6257,1758086969.59972,0.0,0.0,0.0,-6.70361,-47.38361,27.50197,11.4,0.85,3.64,2.0
1758086969.62782,1758086969.60972,0.0,0.0,0.0,-3.72423,-49.27437,24.12152,11.4,0.85,3.64,2.0
1758086969.64245,1758086969.61972,0.0,0.0,0.0,2.23454,-51.27972,19.07949,8.47,0.33,3.74,2.0
1758086969.66059,1758086969.62972,0.0,0.0,0.0,6.58902,-49.84733,15.87093,8.47,0.33,3.74,2.0
1758086969.66148,1758086969.63972,0.0,0.0,0.0,11.17268,-46.40959,13.40721,8.38,0.05,4.14,2.0
1758086969.67888,1758086969.64972,0.0,0.0,0.0,15.75634,-41.08107,11.11538,8.38,0.05,4.14,2.0
1758086969.68014,1758086969.65972,0.0,0.0,0.0,21.7151,-35.12231,10.59972,8.99,-0.37,3.33,2.0
1758086969.69563,1758086969.66972,0.0,0.0,0.0,24.35071,-29.56462,9.85487,9.64,-0.52,2.13,2.0
1758086969.69916,1758086969.67972,0.0,0.0,0.0,25.89769,-23.54857,8.99544,9.64,-0.52,2.13,2.0
1758086969.71532,1758086969.68972,0.0,0.0,0.0,26.75713,-16.21471,7.79223,9.83,-0.14,1.12,2.0
1758086969.71917,1758086969.69972,0.0,0.0,0.0,26.06958,-2.92208,5.90147,9.83,-0.14,1.12,2.0
1758086969.73457,1758086969.70972,0.0,0.0,0.0,24.75178,6.18794,4.29718,9.98,0.55,0.63,2.0
1758086969.73575,1758086969.71972,0.0,0.0,0.0,22.57454,15.75634,2.34913,9.98,0.55,0.63,2.0
1758086969.75583,1758086969.72972,0.0,0.0,0.0,20.05352,24.12152,0.45837,9.69,1.26,0.37,2.0
1758086969.76017,1758086969.73972,0.0,0.0,0.0,16.21471,33.40344,-2.57831,9.06,1.69,0.37,2.0
1758086969.77579,1758086969.74972,0.0,0.0,0.0,13.75099,38.56006,-4.58366,9.06,1.69,0.37,2.0
1758086969.77918,1758086969.75972,0.0,0.0,0.0,11.63104,43.94586,-5.84417,8.87,1.73,0.34,2.0
1758086969.79527,1758086969.76972,0.0,0.0,0.0,9.91217,48.8733,-7.21927,8.87,1.73,0.34,2.0
1758086969.7973,1758086969.77972,0.0,0.0,0.0,8.88085,54.94666,-7.96411,8.9,1.34,0.47,2.0
1758086969.81269,1758086969.78972,0.0,0.0,0.0,8.70896,56.32175,-7.39116,8.9,1.34,0.47,2.0
1758086969.83053,1758086969.79972,0.0,0.0,0.0,9.11003,55.6342,-6.87549,8.63,0.7,0.91,2.0
1758086969.8318,1758086969.80972,0.0,0.0,0.0,10.31324,55.6342,-5.32851,8.63,0.7,0.91,2.0
1758086969.84992,1758086969.81972,0.0,0.0,0.0,11.80293,56.60823,-4.58366,8.81,0.33,0.83,2.0
1758086969.8512,1758086969.82972,0.0,0.0,0.0,13.86558,56.03527,-3.49504,9.18,0.03,1.03,2.0
1758086969.85602,1758086969.83972,0.0,0.0,0.0,16.50119,54.60288,-2.7502,9.18,0.03,1.03,2.0
1758086969.87539,1758086969.84972,0.0,0.0,0.0,21.08485,49.38896,-0.80214,9.01,-0.18,1.07,2.0
1758086969.88143,1758086969.85972,0.0,0.0,0.0,23.94964,45.26366,0.34377,9.01,-0.18,1.07,2.0
1758086969.9048,1758086969.86972,0.0,0.0,0.0,26.35606,41.76862,1.03132,8.93,-0.24,1.14,2.0
1758086969.90655,1758086969.87972,0.0,0.0,0.0,28.07493,37.92981,1.66158,8.93,-0.24,1.14,2.0
1758086969.90905,1758086969.88972,0.0,0.0,0.0,28.93437,32.6013,1.71887,9.06,0.08,1.0,2.0
1758086969.92664,1758086969.89972,0.0,0.0,0.0,28.476,30.19488,1.3751,9.04,0.59,1.13,2.0
1758086969.93131,1758086969.90972,0.0,0.0,0.0,27.38738,28.59059,0.80214,9.04,0.59,1.13,2.0
1758086969.94842,1758086969.91972,0.0,0.0,0.0,25.49662,26.87172,-0.17189,8.93,1.13,1.25,2.0
1758086969.9511,1758086969.92972,0.0,0.0,0.0,21.60051,23.0902,-1.60428,8.93,1.13,1.25,2.0
1758086969.97164,1758086969.93972,0.0,0.0,0.0,18.79302,20.34,-1.94806,8.52,1.61,1.13,2.0
1758086969.98455,1758086969.94972,0.0,0.0,0.0,15.64175,16.95955,-2.00535,8.52,1.61,1.13,2.0
1758086969.98514,1758086969.95972,0.0,0.0,0.0,12.204,14.32395,-1.94806,8.38,1.89,0.9,2.0
1758086969.9869,1758086969.96972,0.0,0.0,0.0,7.10468,10.31324,-1.08862,8.59,1.89,0.58,2.0
1758086970.00192,1758086969.97972,0.0,0.0,0.0,3.66693,5.90147,-0.85944,8.59,1.89,0.58,2.0
1758086970.02066,1758086969.98972,0.0,0.0,0.0,0.57296,0.0,-0.17189,8.47,1.73,0.3,2.0
1758086970.02162,1758086969.99972,0.0,0.0,0.0,-3.83882,-6.24524,1.48969,8.47,1.73,0.3,2.0
1758086970.03899,1758086970.00972,0.0,0.0,0.0,-6.24524,-14.61043,2.29183,8.79,1.7,0.01,2.0
1758086970.04132,1758086970.01972,0.0,0.0,0.0,-8.30789,-16.73037,2.92208,8.79,1.7,0.01,2.0
1758086970.059,1758086970.02972,0.0,0.0,0.0,-10.54242,-11.22997,2.92208,9.75,1.73,0.06,2.0
1758086970.0602,1758086970.03972,0.0,0.0,0.0,-14.32395,5.50039,0.51566,9.75,1.73,0.06,2.0
1758086970.07588,1758086970.04972,0.0,0.0,0.0,-14.66772,14.78231,-0.85944,12.03,1.66,-0.1,2.0
1758086970.07926,1758086970.05972,0.0,0.0,0.0,-14.15206,-1.20321,-0.85944,10.92,1.59,0.49,2.0
1758086970.09566,1758086970.06972,0.0,0.0,0.0,-15.69904,-20.51189,-2.57831,10.92,1.59,0.49,2.0
1758086970.10102,1758086970.07972,0.0,0.0,0.0,-14.20935,-37.47144,-4.35448,8.93,1.21,0.13,2.0
1758086970.11588,1758086970.08972,0.0,0.0,0.0,-14.15206,-44.46153,-7.04738,8.93,1.21,0.13,2.0
1758086970.1251,1758086970.09972,0.0,0.0,0.0,-14.43854,-46.00851,-8.93814,9.41,1.32,-0.4,2.0
1758086970.1678,1758086970.10972,0.0,0.0,0.0,-14.78231,-44.28964,-9.96947,9.41,1.32,-0.4,2.0
1758086970.24964,1758086970.11972,0.0,0.0,0.0,-14.83961,-41.48215,-10.19865,9.71,1.6,-0.78,2.0
1758086970.27603,1758086970.12972,0.0,0.0,0.0,-13.5218,-42.57077,-11.11538,10.26,1.54,0.45,2.0
1758086970.28045,1758086970.13972,0.0,0.0,0.0,-10.71431,-46.86795,-13.69369,10.26,1.54,0.45,2.0
1758086970.28268,1758086970.14972,0.0,0.0,0.0,-5.84417,-55.51962,-18.44924,12.55,0.48,3.12,2.0
1758086970.28527,1758086970.15972,0.0,0.0,0.0,3.66693,-71.56243,-30.82513,12.55,0.48,3.12,2.0
1758086970.28581,1758086970.16972,0.0,0.0,0.0,10.19865,-74.94289,-39.76327,15.25,-0.73,6.14,2.0
1758086970.28656,1758086970.17972,0.0,0.0,0.0,15.0115,-70.53111,-45.89392,15.25,-0.73,6.14,2.0
1758086970.28772,1758086970.18972,0.0,0.0,0.0,16.50119,-66.92148,-48.52953,15.04,-1.4,4.92,2.0
1758086970.29133,1758086970.19972,0.0,0.0,0.0,13.34992,-67.60902,-47.72739,10.43,-0.16,5.03,2.0
1758086970.29274,1758086970.20972,0.0,0.0,0.0,7.10468,-61.30648,-44.51882,10.43,-0.16,5.03,2.0
1758086970.29439,1758086970.21972,0.0,0.0,0.0,-0.22918,-50.47758,-37.12767,10.33,1.1,4.43,2.0
1758086970.29622,1758086970.22972,0.0,0.0,0.0,-12.89155,-39.3622,-21.94428,10.33,1.1,4.43,2.0
1758086970.30102,1758086970.23972,0.0,0.0,0.0,-20.16812,-33.46074,-10.02676,10.34,2.17,2.87,2.0
1758086970.3029,1758086970.24972,0.0,0.0,0.0,-26.06958,-29.10626,0.85944,10.34,2.17,2.87,2.0
1758086970.30515,1758086970.25972,0.0,0.0,0.0,-30.76784,-23.54857,9.22462,10.24,2.69,1.57,2.0
1758086970.30662,1758086970.26972,0.0,0.0,0.0,-34.37747,-10.48513,16.50119,10.24,2.69,1.24,2.0
1758086970.30698,1758086970.27972,0.0,0.0,0.0,-34.43476,0.51566,17.58981,11.06,2.04,1.24,2.0
1758086970.30825,1758086970.28972,0.0,0.0,0.0,-33.00237,10.19865,16.3293,11.18,0.52,0.84,2.0
1758086970.32478,1758086970.29972,0.0,0.0,0.0,-30.48136,17.53251,13.34992,11.18,0.52,0.84,2.0
1758086970.32571,1758086970.30972,0.0,0.0,0.0,-24.29341,24.4653,7.39116,10.26,-1.1,0.62,2.0
1758086970.34287,1758086970.31972,0.0,0.0,0.0,-19.19409,27.50197,4.23989,10.26,-1.1,0.62,2.0
1758086970.36083,1758086970.32972,0.0,0.0,0.0,-13.5218,30.02299,2.11994,9.28,-1.97,0.62,2.0
1758086970.36255,1758086970.33972,0.0,0.0,0.0,-8.136,31.28349,0.80214,9.28,-1.97,0.62,2.0
1758086970.37935,1758086970.34972,0.0,0.0,0.0,0.57296,33.23156,1.03132,8.56,-1.99,0.9,2.0
1758086970.38106,1758086970.35972,0.0,0.0,0.0,5.95876,31.79916,1.94806,7.94,-1.72,1.11,2.0
1758086970.39571,1758086970.36972,0.0,0.0,0.0,11.74564,31.2262,3.83882,7.94,-1.72,1.11,2.0
1758086970.44248,1758086970.37972,0.0,0.0,0.0,16.3293,33.9764,5.55769,8.19,-1.31,1.27,2.0
1758086970.445,1758086970.38972,0.0,0.0,0.0,21.7724,29.67921,8.76626,8.19,-1.31,1.27,2.0
1758086970.45094,1758086970.39972,0.0,0.0,0.0,24.17882,28.30412,10.8862,8.14,-0.79,1.26,2.0
1758086970.47548,1758086970.40972,0.0,0.0,0.0,25.09555,27.44468,12.2613,8.14,-0.79,1.26,2.0
1758086970.48126,1758086970.41972,0.0,0.0,0.0,24.57989,28.41871,13.34992,8.9,-0.15,1.37,2.0
1758086970.48508,1758086970.42972,0.0,0.0,0.0,22.11617,29.27814,12.60507,9.25,0.4,1.42,2.0
1758086970.48594,1758086970.43972,0.0,0.0,0.0,20.97026,27.44468,12.49048,9.25,0.4,1.42,2.0
1758086970.48929,1758086970.44972,0.0,0.0,0.0,20.3973,26.06958,12.77696,9.51,0.3,1.11,2.0
1758086970.4901,1758086970.45972,0.0,0.0,0.0,19.19409,25.21014,12.60507,9.51,0.3,1.11,2.0
1758086970.49112,1758086970.46972,0.0,0.0,0.0,18.79302,24.5226,12.204,9.66,0.17,0.73,2.0
1758086970.50804,1758086970.47972,0.0,0.0,0.0,17.93358,23.49127,11.11538,9.66,0.17,0.73,2.0
1758086970.51173,1758086970.48972,0.0,0.0,0.0,16.90226,22.00158,9.91217,9.33,0.26,0.87,2.0
1758086970.52866,1758086970.49972,0.0,0.0,0.0,16.3293,20.97026,8.59437,9.04,0.29,0.57,2.0
1758086970.53038,1758086970.50972,0.0,0.0,0.0,16.10011,22.57454,7.73493,9.04,0.29,0.57,2.0
1758086970.54578,1758086970.51972,0.0,0.0,0.0,16.272,24.86637,6.8182,9.37,0.3,0.51,2.0
1758086970.55023,1758086970.52972,0.0,0.0,0.0,16.84496,26.24147,6.18794,9.37,0.3,0.51,2.0
1758086970.56579,1758086970.53972,0.0,0.0,0.0,18.16276,25.21014,5.15662,9.47,0.25,0.47,2.0
1758086970.56889,1758086970.54972,0.0,0.0,0.0,19.42327,21.88699,4.52637,9.47,0.25,0.47,2.0
1758086970.58403,1758086970.55972,0.0,0.0,0.0,20.22541,17.30333,3.32316,9.22,0.13,0.34,2.0
1758086970.6001,1758086970.56972,0.0,0.0,0.0,21.08485,13.5791,2.57831,9.22,0.13,0.34,2.0
1758086970.60102,1758086970.57972,0.0,0.0,0.0,21.42862,4.35448,0.0,9.06,0.11,-0.06,2.0
1758086970.61607,1758086970.58972,0.0,0.0,0.0,22.40265,0.68755,-1.14592,9.05,0.11,-0.3,2.0
1758086970.62107,1758086970.59972,0.0,0.0,0.0,23.83505,-1.03132,-1.66158,9.05,0.11,-0.3,2.0
1758086970.63606,1758086970.60972,0.0,0.0,0.0,25.21014,-1.60428,-0.45837,9.96,0.19,-0.21,2.0
1758086970.64051,1758086970.61972,0.0,0.0,0.0,26.18417,0.68755,0.68755,9.96,0.19,-0.21,2.0
1758086970.6561,1758086970.62972,0.0,0.0,0.0,26.75713,3.72423,1.71887,11.05,0.13,0.03,2.0
1758086970.66051,1758086970.63972,0.0,0.0,0.0,26.18417,4.69825,3.49504,11.05,0.13,0.03,2.0
1758086970.67611,1758086970.64972,0.0,0.0,0.0,25.26744,1.77617,3.20856,11.59,0.23,0.3,2.0
1758086970.68133,1758086970.65972,0.0,0.0,0.0,26.12688,-21.25674,3.55234,9.28,0.26,-0.17,2.0
1758086970.69595,1758086970.66972,0.0,0.0,0.0,27.2155,-44.57612,3.72423,9.28,0.26,-0.17,2.0
1758086970.70051,1758086970.67972,0.0,0.0,0.0,28.41871,-52.36834,7.33386,8.59,0.02,-0.94,2.0
1758086970.71616,1758086970.68972,0.0,0.0,0.0,29.50733,-46.69606,10.59972,8.59,0.02,-0.94,2.0
1758086970.72051,1758086970.69972,0.0,0.0,0.0,30.25217,-40.50812,11.80293,11.51,-0.26,-1.25,2.0
1758086970.73614,1758086970.70972,0.0,0.0,0.0,29.50733,-36.21093,11.86023,11.51,-0.26,-1.25,2.0
1758086970.73944,1758086970.71972,0.0,0.0,0.0,26.69983,-36.32552,12.204,12.91,0.41,0.19,2.0
1758086970.75568,1758086970.72972,0.0,0.0,0.0,20.74107,-50.47758,14.66772,12.58,1.37,2.77,2.0
1758086970.76111,1758086970.73972,0.0,0.0,0.0,15.87093,-58.72818,18.9649,12.58,1.37,2.77,2.0
1758086970.77589,1758086970.74972,0.0,0.0,0.0,9.91217,-60.67623,23.20479,13.17,1.65,3.71,2.0
1758086970.77986,1758086970.75972,0.0,0.0,0.0,3.55234,-61.59297,27.04361,13.17,1.65,3.71,2.0
1758086970.79566,1758086970.76972,0.0,0.0,0.0,-2.29183,-63.13995,29.50733,12.21,1.22,3.74,2.0
1758086970.79959,1758086970.77972,0.0,0.0,0.0,-2.7502,-63.94209,28.07493,12.21,1.22,3.74,2.0
1758086970.81574,1758086970.78972,0.0,0.0,0.0,-0.11459,-64.17127,25.09555,9.36,0.16,4.29,2.0
1758086970.8208,1758086970.79972,0.0,0.0,0.0,4.98473,-59.87409,17.87628,9.36,0.16,4.29,2.0
1758086970.86073,1758086970.80972,0.0,0.0,0.0,16.10011,-47.78468,12.204,8.83,-0.36,4.89,2.0
1758086970.86557,1758086970.81972,0.0,0.0,0.0,24.00693,-41.08107,6.58902,9.75,-0.73,3.67,2.0
1758086970.8662,1758086970.82972,0.0,0.0,0.0,30.53865,-34.0337,1.08862,9.75,-0.73,3.67,2.0
1758086970.86988,1758086970.83972,0.0,0.0,0.0,37.98711,-22.57454,-2.46372,10.82,-0.84,1.95,2.0
1758086970.87241,1758086970.84971,0.0,0.0,0.0,40.96649,-13.5791,-3.49504,10.82,-0.84,1.95,2.0
1758086970.88898,1758086970.85971,0.0,0.0,0.0,42.74266,-4.81285,-3.32316,12.01,-0.51,1.05,2.0
1758086970.9111,1758086970.86971,0.0,0.0,0.0,43.25832,5.27121,-2.29183,12.01,-0.51,1.05,2.0
1758086970.91464,1758086970.87971,0.0,0.0,0.0,41.59674,18.50654,-0.22918,12.27,0.24,0.61,2.0
1758086970.92014,1758086970.88971,0.0,0.0,0.0,38.56006,25.55392,0.74485,11.3,0.96,0.45,2.0
1758086970.92052,1758086970.89971,0.0,0.0,0.0,34.89313,33.34615,1.3178,11.3,0.96,0.45,2.0
1758086970.93881,1758086970.90971,0.0,0.0,0.0,30.99702,41.02378,-0.0573,10.22,1.34,0.32,2.0
1758086970.94105,1758086970.91971,0.0,0.0,0.0,24.86637,44.86259,-2.34913,10.22,1.34,0.32,2.0
1758086970.95631,1758086970.92971,0.0,0.0,0.0,20.16812,46.98254,-3.66693,9.07,1.63,0.57,2.0
1758086970.95875,1758086970.93971,0.0,0.0,0.0,14.61043,51.27972,-5.09932,9.07,1.63,0.57,2.0
1758086970.97507,1758086970.94971,0.0,0.0,0.0,8.93814,55.57691,-7.67763,9.32,1.76,0.59,2.0
1758086970.97866,1758086970.95971,0.0,0.0,0.0,1.71887,58.90006,-11.22997,8.96,1.81,0.58,2.0
1758086970.994,1758086970.96971,0.0,0.0,0.0,-2.46372,61.87944,-13.00614,8.96,1.81,0.58,2.0
1758086971.0103,1758086970.97971,0.0,0.0,0.0,-5.84417,61.93674,-12.54778,8.56,1.54,0.53,2.0
1758086971.01069,1758086970.98971,0.0,0.0,0.0,-9.11003,58.15522,-13.98017,8.56,1.54,0.53,2.0
1758086971.026,1758086970.99971,0.0,0.0,0.0,-13.17803,49.79003,-14.38124,7.96,1.27,0.66,2.0
1758086971.0272,1758086971.00971,0.0,0.0,0.0,-15.29797,44.40423,-13.98017,7.96,1.27,0.66,2.0
1758086971.04198,1758086971.01971,0.0,0.0,0.0,-17.01685,35.86716,-14.32395,8.12,0.92,0.67,2.0
1758086971.04642,1758086971.02971,0.0,0.0,0.0,-19.42327,26.18417,-14.20935,8.12,0.92,0.67,2.0
1758086971.06202,1758086971.03971,0.0,0.0,0.0,-20.97026,20.62648,-14.83961,8.26,0.68,0.75,2.0
1758086971.07905,1758086971.04971,0.0,0.0,0.0,-21.7724,15.06879,-15.0115,8.31,0.5,0.85,2.0
1758086971.08095,1758086971.05971,0.0,0.0,0.0,-22.34536,11.63104,-15.29797,8.31,0.5,0.85,2.0
1758086971.09621,1758086971.06971,0.0,0.0,0.0,-22.28806,8.70896,-15.41257,8.5,0.4,0.81,2.0
1758086971.10078,1758086971.07971,0.0,0.0,0.0,-22.23076,5.55769,-15.12609,8.5,0.4,0.81,2.0
1758086971.11637,1758086971.08971,0.0,0.0,0.0,-21.7724,2.6929,-13.75099,8.56,0.42,0.5,2.0
1758086971.11914,1758086971.09971,0.0,0.0,0.0,-20.79837,0.97403,-11.91752,8.56,0.42,0.5,2.0
1758086971.13563,1758086971.10971,0.0,0.0,0.0,-19.70975,-0.40107,-9.4538,8.76,0.46,0.41,2.0
1758086971.1395,1758086971.11971,0.0,0.0,0.0,-20.05352,-2.06265,-8.88085,8.96,0.78,-0.05,2.0
1758086971.15406,1758086971.12971,0.0,0.0,0.0,-20.74107,-3.26586,-8.36518,8.96,0.78,-0.05,2.0
1758086971.17009,1758086971.13971,0.0,0.0,0.0,-21.6578,-4.64096,-7.79223,8.98,1.11,0.06,2.0
1758086971.17169,1758086971.14971,0.0,0.0,0.0,-23.31938,-6.70361,-7.10468,8.98,1.11,0.06,2.0
1758086971.1889,1758086971.15971,0.0,0.0,0.0,-23.83505,-8.36518,-6.70361,8.8,1.07,0.15,2.0
1758086971.19091,1758086971.16971,0.0,0.0,0.0,-24.5226,-8.70896,-6.35983,8.8,1.07,0.15,2.0
1758086971.23543,1758086971.17971,0.0,0.0,0.0,-25.26744,-3.66693,-6.13065,8.85,0.94,0.31,2.0
1758086971.30565,1758086971.18971,0.0,0.0,0.0,-28.59059,15.06879,-8.30789,10.53,0.99,0.09,2.0
1758086971.30608,1758086971.19971,0.0,0.0,0.0,-29.04896,14.20935,-6.87549,10.53,0.99,0.09,2.0
1758086971.31044,1758086971.20971,0.0,0.0,0.0,-32.14294,-4.29718,-10.31324,8.28,1.18,0.41,2.0
1758086971.31105,1758086971.21971,0.0,0.0,0.0,-33.00237,-13.98017,-11.91752,8.28,1.18,0.41,2.0
1758086971.31228,1758086971.22971,0.0,0.0,0.0,-33.68992,-21.08485,-13.5218,9.09,1.15,-0.19,2.0
1758086971.31365,1758086971.23971,0.0,0.0,0.0,-33.68992,-21.94428,-14.72501,9.09,1.15,-0.19,2.0
1758086971.3145,1758086971.24971,0.0,0.0,0.0,-33.74722,-21.25674,-15.69904,10.83,1.07,-0.56,2.0
1758086971.3156,1758086971.25971,0.0,0.0,0.0,-33.11696,-18.16276,-15.41257,10.83,1.07,-0.56,2.0
1758086971.31636,1758086971.26971,0.0,0.0,0.0,-32.20023,-16.90226,-14.43854,11.91,1.05,0.0,2.0
1758086971.32145,1758086971.27971,0.0,0.0,0.0,-30.93972,-16.04282,-13.06344,11.79,0.94,-0.26,2.0
1758086971.32276,1758086971.28971,0.0,0.0,0.0,-29.33544,-14.9542,-11.34457,11.79,0.94,-0.26,2.0
1758086971.32499,1758086971.29971,0.0,0.0,0.0,-27.38738,-13.5791,-8.88085,11.24,0.82,-0.61,2.0
1758086971.32581,1758086971.30971,0.0,0.0,0.0,-26.41335,-12.77696,-7.96411,11.24,0.82,-0.61,2.0
1758086971.34146,1758086971.31971,0.0,0.0,0.0,-25.21014,-11.91752,-7.84952,11.11,0.77,-0.2,2.0
1758086971.36078,1758086971.32971,0.0,0.0,0.0,-23.31938,-13.5218,-8.99544,11.11,0.77,-0.2,2.0
1758086971.36652,1758086971.33971,0.0,0.0,0.0,-17.76169,-24.12152,-13.80828,12.05,0.25,0.44,2.0
1758086971.36837,1758086971.34971,0.0,0.0,0.0,-13.40721,-34.77854,-19.53786,12.69,0.03,2.51,2.0
1758086971.38617,1758086971.35971,0.0,0.0,0.0,-8.76626,-44.63341,-27.1582,12.69,0.03,2.51,2.0
1758086971.39244,1758086971.36971,0.0,0.0,0.0,-4.92744,-49.27437,-34.77854,14.21,-0.18,2.8,2.0
1758086971.4164,1758086971.37971,0.0,0.0,0.0,-2.11994,-49.27437,-39.4768,14.21,-0.18,2.8,2.0
1758086971.42551,1758086971.38971,0.0,0.0,0.0,-2.86479,-50.53488,-37.52874,12.47,0.33,2.37,2.0
1758086971.42954,1758086971.39971,0.0,0.0,0.0,-5.84417,-50.93595,-33.46074,12.47,0.33,2.37,2.0
1758086971.43284,1758086971.40971,0.0,0.0,0.0,-10.48513,-47.44091,-24.80907,9.8,1.45,3.55,2.0
1758086971.44826,1758086971.41971,0.0,0.0,0.0,-20.85567,-36.03905,-17.76169,9.3,1.85,4.23,2.0
1758086971.45609,1758086971.42971,0.0,0.0,0.0,-29.96569,-28.99167,-10.59972,9.3,1.85,4.23,2.0
1758086971.45652,1758086971.43971,0.0,0.0,0.0,-39.64868,-25.26744,-3.83882,8.42,2.06,3.54,2.0
1758086971.47419,1758086971.44971,0.0,0.0,0.0,-52.76942,-26.01229,3.60963,8.42,2.06,3.54,2.0
1758086971.4786,1758086971.45971,0.0,0.0,0.0,-59.81679,-25.21014,5.95876,8.12,2.27,2.21,2.0
1758086971.49443,1758086971.46971,0.0,0.0,0.0,-65.03072,-21.42862,6.7609,8.12,2.27,2.21,2.0
1758086971.49558,1758086971.47971,0.0,0.0,0.0,-67.43713,-15.35527,6.70361,9.9,1.9,1.59,2.0
1758086971.51076,1758086971.48971,0.0,0.0,0.0,-66.40582,0.17189,4.29718,11.71,1.9,0.84,2.0
1758086971.52619,1758086971.49971,0.0,0.0,0.0,-63.13995,9.5684,2.23454,11.71,0.51,0.84,2.0
1758086971.52816,1758086971.50971,0.0,0.0,0.0,-58.3844,17.18874,0.17189,11.22,-0.97,-0.14,2.0
1758086971.54346,1758086971.51971,0.0,0.0,0.0,-53.11319,23.0329,-0.97403,11.22,-0.97,-0.14,2.0
1758086971.5444,1758086971.52971,0.0,0.0,0.0,-44.40423,29.04896,-0.40107,10.03,-1.62,-0.14,2.0
1758086971.56057,1758086971.53971,0.0,0.0,0.0,-38.84654,32.25753,0.80214,10.03,-1.62,-0.14,2.0
1758086971.62588,1758086971.54971,0.0,0.0,0.0,-33.17426,35.52338,3.09397,9.36,-1.39,0.28,2.0
1758086971.63112,1758086971.55971,0.0,0.0,0.0,-28.30412,37.64333,5.78687,9.36,-1.39,0.28,2.0
1758086971.63247,1758086971.56971,0.0,0.0,0.0,-22.05888,38.56006,9.96947,9.02,-1.0,0.51,2.0
1758086971.63373,1758086971.57971,0.0,0.0,0.0,-18.90761,38.27358,12.49048,8.75,-0.65,0.58,2.0
1758086971.6347,1758086971.58971,0.0,0.0,0.0,-16.73037,37.52874,14.15206,8.75,-0.65,0.58,2.0
1758086971.63563,1758086971.59971,0.0,0.0,0.0,-15.35527,36.7266,15.46986,8.75,-0.33,0.7,2.0
1758086971.63622,1758086971.60971,0.0,0.0,0.0,-14.43854,35.00772,16.272,8.75,-0.33,0.7,2.0
1758086971.6412,1758086971.61971,0.0,0.0,0.0,-14.09476,32.20023,15.92823,8.78,-0.09,0.76,2.0
1758086971.65648,1758086971.62971,0.0,0.0,0.0,-13.69369,29.8511,14.9542,8.78,-0.09,0.76,2.0
1758086971.66018,1758086971.63971,0.0,0.0,0.0,-12.77696,27.96034,13.40721,8.85,0.02,0.75,2.0
1758086971.67551,1758086971.64971,0.0,0.0,0.0,-11.91752,27.10091,12.37589,9.12,0.01,0.58,2.0
1758086971.68075,1758086971.65971,0.0,0.0,0.0,-10.8862,26.01229,11.51645,9.12,0.01,0.58,2.0
1758086971.69525,1758086971.66971,0.0,0.0,0.0,-9.5684,24.17882,10.59972,9.09,-0.08,0.46,2.0
1758086971.69883,1758086971.67971,0.0,0.0,0.0,-7.39116,22.68913,10.19865,9.09,-0.08,0.46,2.0
1758086971.71581,1758086971.68971,0.0,0.0,0.0,-5.72958,22.51724,9.68299,9.11,-0.23,0.35,2.0
1758086971.72513,1758086971.69971,0.0,0.0,0.0,-4.18259,21.6578,9.28192,9.11,-0.23,0.35,2.0
1758086971.72567,1758086971.70971,0.0,0.0,0.0,-2.34913,19.53786,8.93814,8.98,-0.33,0.39,2.0
1758086971.74611,1758086971.71971,0.0,0.0,0.0,-1.20321,17.76169,7.44845,8.94,-0.38,0.55,2.0
1758086971.75374,1758086971.72971,0.0,0.0,0.0,-0.0573,18.27736,5.4431,8.94,-0.38,0.55,2.0
1758086971.75427,1758086971.73971,0.0,0.0,0.0,1.60428,20.3973,3.60963,9.31,-0.21,-0.11,2.0
1758086971.77173,1758086971.74971,0.0,0.0,0.0,2.7502,21.48592,2.00535,9.31,-0.21,-0.11,2.0
1758086971.86262,1758086971.75971,0.0,0.0,0.0,4.1253,17.58981,0.17189,9.33,-0.13,0.39,2.0
1758086971.86343,1758086971.76971,0.0,0.0,0.0,4.81285,13.23533,-0.97403,9.33,-0.13,0.39,2.0
1758086971.86608,1758086971.77971,0.0,0.0,0.0,5.55769,9.85487,-1.71887,9.18,-0.12,0.18,2.0
1758086971.8686,1758086971.78971,0.0,0.0,0.0,6.41713,8.136,-2.11994,9.18,-0.12,0.18,2.0
1758086971.87079,1758086971.79971,0.0,0.0,0.0,6.35983,9.39651,-2.6929,9.71,-0.17,0.11,2.0
1758086971.87119,1758086971.80971,0.0,0.0,0.0,5.21392,11.86023,-2.97938,10.52,0.09,0.12,2.0
1758086971.8722,1758086971.81971,0.0,0.0,0.0,4.1253,13.34992,-2.00535,10.52,0.09,0.12,2.0
1758086971.8728,1758086971.82971,0.0,0.0,0.0,5.15662,13.80828,-0.34377,11.59,-0.12,-0.52,2.0
1758086971.87487,1758086971.83971,0.0,0.0,0.0,5.4431,8.93814,0.74485,11.59,-0.12,-0.52,2.0
1758086971.87549,1758086971.84971,0.0,0.0,0.0,5.4431,1.66158,0.40107,11.44,-0.23,-0.58,2.0
1758086971.87993,1758086971.85971,0.0,0.0,0.0,6.99009,-25.09555,3.32316,11.44,-0.23,-0.58,2.0
1758086971.89534,1758086971.86971,0.0,0.0,0.0,9.5684,-51.22243,6.35983,8.6,-0.57,0.03,2.0
1758086971.89929,1758086971.87971,0.0,0.0,0.0,10.37054,-56.14987,9.39651,9.6,-1.11,-1.02,2.0
1758086971.91541,1758086971.88971,0.0,0.0,0.0,12.204,-55.51962,12.54778,9.6,-1.11,-1.02,2.0
1758086971.91902,1758086971.89971,0.0,0.0,0.0,13.75099,-52.54023,14.09476,11.49,-1.32,-0.4,2.0
1758086971.93436,1758086971.90971,0.0,0.0,0.0,14.20935,-54.71747,16.50119,11.49,-1.32,-0.4,2.0
1758086971.93584,1758086971.91971,0.0,0.0,0.0,13.06344,-63.19725,19.76705,12.68,-0.27,1.81,2.0
1758086971.95037,1758086971.92971,0.0,0.0,0.0,10.65701,-71.04677,24.75178,12.68,-0.27,1.81,2.0
1758086971.9664,1758086971.93971,0.0,0.0,0.0,7.21927,-70.87489,29.04896,14.53,1.05,4.77,2.0
1758086971.9703,1758086971.94971,0.0,0.0,0.0,2.06265,-65.2599,32.20023,15.27,2.27,3.41,2.0
1758086971.9854,1758086971.95971,0.0,0.0,0.0,0.0,-62.22322,31.85646,15.27,2.27,3.41,2.0
1758086971.9866,1758086971.96971,0.0,0.0,0.0,0.57296,-61.59297,29.62192,11.46,1.3,3.97,2.0
1758086972.00143,1758086971.97971,0.0,0.0,0.0,3.66693,-62.68159,25.89769,11.46,1.3,3.97,2.0
1758086972.0182,1758086971.98971,0.0,0.0,0.0,12.43318,-58.84277,19.53786,8.81,0.07,4.32,2.0
1758086972.02047,1758086971.99971,0.0,0.0,0.0,20.22541,-52.65482,15.46986,8.81,0.07,4.32,2.0
1758086972.03579,1758086972.00971,0.0,0.0,0.0,28.93437,-42.74266,10.65701,9.74,-0.67,4.24,2.0
1758086972.03935,1758086972.01971,0.0,0.0,0.0,41.02378,-37.29956,5.90147,9.74,-0.67,4.24,2.0
1758086972.05445,1758086972.02971,0.0,0.0,0.0,47.38361,-28.64789,3.72423,10.64,-1.07,2.63,2.0
1758086972.05563,1758086972.03971,0.0,0.0,0.0,51.90998,-20.3973,2.40642,11.21,-0.87,1.11,2.0
1758086972.07043,1758086972.04971,0.0,0.0,0.0,54.77477,-10.54242,1.94806,11.21,-0.87,1.11,2.0
1758086972.13345,1758086972.05971,0.0,0.0,0.0,55.92068,4.92744,1.20321,11.47,-0.13,0.56,2.0
1758086972.13865,1758086972.06971,0.0,0.0,0.0,55.11855,14.09476,1.08862,11.47,-0.13,0.56,2.0
1758086972.14089,1758086972.07971,0.0,0.0,0.0,53.11319,22.05888,0.51566,10.64,0.78,0.47,2.0
1758086972.14502,1758086972.08971,0.0,0.0,0.0,49.84733,29.96569,-0.40107,10.64,0.78,0.47,2.0
1758086972.1456,1758086972.09971,0.0,0.0,0.0,43.02913,40.96649,-2.23454,9.8,1.52,0.39,2.0
1758086972.14795,1758086972.10971,0.0,0.0,0.0,37.29956,47.09713,-3.95341,9.24,2.05,0.36,2.0
1758086972.1484,1758086972.11971,0.0,0.0,0.0,30.59595,51.85268,-5.09932,9.24,2.05,0.36,2.0
1758086972.15109,1758086972.12971,0.0,0.0,0.0,24.57989,55.57691,-6.35983,8.75,2.26,0.58,2.0
1758086972.16077,1758086972.13971,0.0,0.0,0.0,16.21471,59.24384,-8.30789,8.75,2.26,0.58,2.0
1758086972.18066,1758086972.14971,0.0,0.0,0.0,10.71431,61.99404,-9.28192,8.37,2.26,0.39,2.0
1758086972.20996,1758086972.15971,0.0,0.0,0.0,6.24524,63.94209,-9.74028,8.37,2.26,0.39,2.0
1758086972.21051,1758086972.16971,0.0,0.0,0.0,1.83346,65.77556,-10.19865,8.45,1.98,0.58,2.0
1758086972.21262,1758086972.17971,0.0,0.0,0.0,-3.49504,64.51505,-10.65701,8.27,1.63,0.44,2.0
1758086972.21433,1758086972.18971,0.0,0.0,0.0,-6.47442,60.73353,-10.71431,8.27,1.63,0.44,2.0
1758086972.21567,1758086972.19971,0.0,0.0,0.0,-8.70896,55.23313,-10.37054,8.13,1.3,0.69,2.0
1758086972.23074,1758086972.20971,0.0,0.0,0.0,-10.54242,50.2484,-9.74028,8.13,1.3,0.69,2.0
1758086972.24648,1758086972.21971,0.0,0.0,0.0,-12.54778,43.83128,-9.22462,8.48,1.0,0.68,2.0
1758086972.24771,1758086972.22971,0.0,0.0,0.0,-13.5218,40.04975,-8.59437,8.48,1.0,0.68,2.0
1758086972.26253,1758086972.23971,0.0,0.0,0.0,-14.20935,36.6693,-8.136,8.72,0.77,0.76,2.0
1758086972.26526,1758086972.24971,0.0,0.0,0.0,-14.61043,31.85646,-7.39116,8.72,0.77,0.76,2.0
1758086972.28148,1758086972.25971,0.0,0.0,0.0,-14.15206,28.01764,-6.47442,8.71,0.62,0.86,2.0
1758086972.29858,1758086972.26971,0.0,0.0,0.0,-13.5218,24.17882,-5.32851,8.55,0.51,0.86,2.0
1758086972.30129,1758086972.27971,0.0,0.0,0.0,-12.71966,20.11082,-4.0107,8.55,0.51,0.86,2.0
1758086972.3208,1758086972.28971,0.0,0.0,0.0,-11.74564,16.21471,-2.86479,8.61,0.51,0.79,2.0
1758086972.32275,1758086972.29971,0.0,0.0,0.0,-10.94349,14.83961,-2.00535,8.61,0.51,0.79,2.0
1758086972.34027,1758086972.30971,0.0,0.0,0.0,-10.54242,14.15206,-1.60428,8.83,0.57,0.55,2.0
1758086972.34374,1758086972.31971,0.0,0.0,0.0,-10.19865,13.5791,-1.43239,8.83,0.57,0.55,2.0
1758086972.3596,1758086972.32971,0.0,0.0,0.0,-10.37054,10.37054,-1.43239,8.98,0.73,0.5,2.0
1758086972.36094,1758086972.33971,0.0,0.0,0.0,-10.8289,6.58902,-1.66158,8.78,0.9,0.5,2.0
1758086972.37556,1758086972.34971,0.0,0.0,0.0,-11.57375,2.00535,-1.83346,8.78,0.9,0.5,2.0
1758086972.38004,1758086972.35971,0.0,0.0,0.0,-12.60507,-3.89611,-2.00535,8.57,1.0,0.44,2.0
1758086972.39554,1758086972.36971,0.0,0.0,0.0,-14.20935,-14.38124,-2.00535,8.57,1.0,0.44,2.0
1758086972.39943,1758086972.37971,0.0,0.0,0.0,-15.12609,-21.25674,-2.34913,8.3,1.14,0.43,2.0
1758086972.41458,1758086972.38971,0.0,0.0,0.0,-16.10011,-28.41871,-2.46372,8.3,1.14,0.43,2.0
1758086972.41596,1758086972.39971,0.0,0.0,0.0,-18.22006,-33.68992,-2.92208,8.42,1.3,0.23,2.0
1758086972.43085,1758086972.40971,0.0,0.0,0.0,-21.02755,-37.12767,-3.38045,9.5,1.55,-0.04,2.0
1758086972.43612,1758086972.41971,0.0,0.0,0.0,-23.72045,-23.31938,-4.29718,9.5,1.55,-0.04,2.0
1758086972.45379,1758086972.42971,0.0,0.0,0.0,-26.64254,1.08862,-6.07335,13.46,1.79,0.06,2.0
1758086972.45508,1758086972.43971,0.0,0.0,0.0,-29.8511,-8.99544,-7.62034,13.46,1.79,0.06,2.0
1758086972.47065,1758086972.44971,0.0,0.0,0.0,-33.68992,-18.10547,-9.68299,11.37,1.92,0.7,2.0
1758086972.48686,1758086972.45971,0.0,0.0,0.0,-35.92446,-25.15285,-11.97482,11.37,1.92,0.7,2.0
1758086972.49018,1758086972.46971,0.0,0.0,0.0,-37.87251,-29.22085,-15.06879,11.78,2.28,-0.68,2.0
1758086972.50592,1758086972.47971,0.0,0.0,0.0,-38.61736,-27.1582,-16.95955,11.78,2.28,-0.68,2.0
1758086972.51323,1758086972.48971,0.0,0.0,0.0,-37.75792,-23.0902,-16.55848,11.69,2.01,-0.94,2.0
1758086972.53146,1758086972.49971,0.0,0.0,0.0,-35.69527,-20.22541,-15.64175,11.63,1.53,0.21,2.0
1758086972.53513,1758086972.50971,0.0,0.0,0.0,-31.91375,-19.13679,-14.83961,11.63,1.53,0.21,2.0
1758086972.53551,1758086972.51971,0.0,0.0,0.0,-22.74642,-21.7151,-16.84496,12.58,0.38,1.25,2.0
1758086972.5519,1758086972.52971,0.0,0.0,0.0,-15.87093,-28.41871,-21.02755,12.58,0.38,1.25,2.0
1758086972.56766,1758086972.53971,0.0,0.0,0.0,-8.30789,-36.61201,-25.55392,13.26,-0.86,2.81,2.0
1758086972.56882,1758086972.54971,0.0,0.0,0.0,-0.45837,-43.02913,-30.65324,13.26,-0.86,2.81,2.0
1758086972.58559,1758086972.55971,0.0,0.0,0.0,8.76626,-46.1231,-34.49206,13.31,-1.41,2.84,2.0
1758086972.58793,1758086972.56971,0.0,0.0,0.0,12.89155,-47.44091,-33.34615,10.88,-0.32,2.32,2.0
1758086972.60269,1758086972.57971,0.0,0.0,0.0,14.32395,-49.33167,-30.19488,10.88,-0.32,2.32,2.0
1758086972.6054,1758086972.58971,0.0,0.0,0.0,13.46451,-48.52953,-25.89769,8.7,0.86,3.81,2.0
1758086972.62287,1758086972.59971,0.0,0.0,0.0,8.36518,-41.42485,-16.55848,8.7,0.86,3.81,2.0
1758086972.62626,1758086972.60971,0.0,0.0,0.0,2.40642,-35.69527,-9.5684,8.43,1.39,4.55,2.0
1758086972.64193,1758086972.61971,0.0,0.0,0.0,-4.81285,-30.30947,-2.34913,8.43,1.39,4.55,2.0
1758086972.65856,1758086972.62971,0.0,0.0,0.0,-16.55848,-26.69983,7.33386,8.23,1.62,4.35,2.0
1758086972.66039,1758086972.63971,0.0,0.0,0.0,-23.26209,-24.35071,12.08941,8.3,1.69,2.82,2.0
1758086972.67594,1758086972.64971,0.0,0.0,0.0,-29.22085,-21.42862,14.83961,8.3,1.69,2.82,2.0
1758086972.67941,1758086972.65971,0.0,0.0,0.0,-32.88778,-14.83961,15.69904,9.98,1.35,2.23,2.0
1758086972.6947,1758086972.66971,0.0,0.0,0.0,-35.2942,-1.3178,13.98017,9.98,1.35,2.23,2.0
1758086972.69943,1758086972.67971,0.0,0.0,0.0,-34.0337,7.62034,11.22997,11.92,0.45,1.85,2.0
1758086972.71473,1758086972.68971,0.0,0.0,0.0,-31.2262,15.87093,7.44845,11.92,0.45,1.85,2.0
1758086972.71618,1758086972.69971,0.0,0.0,0.0,-27.67386,23.54857,3.60963,12.06,-0.65,0.95,2.0
1758086972.73073,1758086972.70971,0.0,0.0,0.0,-20.62648,32.83048,-0.51566,11.18,-0.65,0.62,2.0
1758086972.73627,1758086972.71971,0.0,0.0,0.0,-15.64175,36.7266,-1.3178,11.18,-1.24,0.62,2.0
1758086972.75503,1758086972.72971,0.0,0.0,0.0,-10.8862,40.04975,-0.85944,9.99,-1.13,1.04,2.0
1758086972.75871,1758086972.73971,0.0,0.0,0.0,-5.90147,43.4875,0.97403,9.99,-1.13,1.04,2.0
1758086972.77407,1758086972.74971,0.0,0.0,0.0,0.51566,46.2377,4.92744,9.26,-0.85,1.08,2.0
1758086972.77979,1758086972.75971,0.0,0.0,0.0,4.35448,47.61279,8.76626,9.26,-0.85,1.08,2.0
1758086972.79477,1758086972.76971,0.0,0.0,0.0,7.50575,46.46688,12.37589,8.72,-0.74,1.13,2.0
1758086972.79694,1758086972.77971,0.0,0.0,0.0,10.02676,46.63877,15.69904,8.72,-0.74,1.13,2.0
1758086972.8112,1758086972.78971,0.0,0.0,0.0,12.77696,45.37826,19.13679,8.6,-0.69,0.98,2.0
1758086972.82999,1758086972.79971,0.0,0.0,0.0,14.15206,43.94586,20.68378,8.7,-0.55,1.15,2.0
1758086972.83518,1758086972.80971,0.0,0.0,0.0,14.9542,41.48215,21.25674,8.7,-0.55,1.15,2.0
1758086972.83576,1758086972.81971,0.0,0.0,0.0,15.69904,38.84654,20.62648,8.73,-0.36,1.28,2.0
1758086972.856,1758086972.82971,0.0,0.0,0.0,16.84496,35.3515,19.59516,8.73,-0.36,1.28,2.0
1758086972.86099,1758086972.83971,0.0,0.0,0.0,17.18874,33.05967,17.93358,8.83,-0.2,1.25,2.0
1758086972.87578,1758086972.84971,0.0,0.0,0.0,17.36062,30.88243,16.04282,8.83,-0.2,1.25,2.0
1758086972.8809,1758086972.85971,0.0,0.0,0.0,17.36062,27.50197,12.71966,8.69,-0.13,1.24,2.0
1758086972.8962,1758086972.86971,0.0,0.0,0.0,17.30333,25.09555,10.37054,8.45,-0.07,1.17,2.0
1758086972.90108,1758086972.87971,0.0,0.0,0.0,16.90226,22.51724,8.02141,8.45,-0.07,1.17,2.0
1758086972.91607,1758086972.88971,0.0,0.0,0.0,16.55848,19.99623,6.07335,8.44,-0.02,1.18,2.0
1758086972.92025,1758086972.89971,0.0,0.0,0.0,16.3293,16.95955,4.23989,8.44,-0.02,1.18,2.0
1758086972.93586,1758086972.90971,0.0,0.0,0.0,16.04282,19.59516,3.72423,8.91,-0.03,1.06,2.0
1758086972.94103,1758086972.91971,0.0,0.0,0.0,16.10011,23.37668,3.38045,8.91,-0.03,1.06,2.0
1758086972.95608,1758086972.92971,0.0,0.0,0.0,16.04282,26.01229,3.38045,9.7,-0.08,1.01,2.0
1758086972.96015,1758086972.93971,0.0,0.0,0.0,15.69904,26.35606,3.55234,9.75,-0.16,0.88,2.0
1758086972.97604,1758086972.94971,0.0,0.0,0.0,15.29797,23.54857,3.60963,9.75,-0.16,0.88,2.0
1758086972.98057,1758086972.95971,0.0,0.0,0.0,14.32395,18.73572,4.0107,9.58,-0.22,0.64,2.0
1758086972.99582,1758086972.96971,0.0,0.0,0.0,14.49583,12.89155,4.81285,9.58,-0.22,0.64,2.0
1758086973.00018,1758086972.97971,0.0,0.0,0.0,14.32395,-0.45837,5.50039,9.21,-0.31,0.57,2.0
1758086973.01581,1758086972.98971,0.0,0.0,0.0,14.09476,-8.99544,5.72958,9.21,-0.31,0.57,2.0
1758086973.02103,1758086972.99971,0.0,0.0,0.0,14.32395,-16.272,5.90147,8.75,-0.1,0.41,2.0
1758086973.0361,1758086973.00971,0.0,0.0,0.0,14.66772,-19.59516,4.98473,8.75,-0.1,0.41,2.0
1758086973.04029,1758086973.01971,0.0,0.0,0.0,16.3293,-17.81899,5.4431,9.58,0.19,-0.25,2.0
1758086973.05621,1758086973.02971,0.0,0.0,0.0,17.36062,-15.0115,6.35983,10.88,0.4,-0.53,2.0
1758086973.05938,1758086973.03971,0.0,0.0,0.0,17.87628,-9.68299,7.44845,10.88,0.4,-0.53,2.0
1758086973.07598,1758086973.04971,0.0,0.0,0.0,17.81899,-1.71887,7.84952,11.89,0.24,-0.46,2.0
1758086973.07933,1758086973.05971,0.0,0.0,0.0,16.50119,1.43239,8.30789,11.89,0.24,-0.46,2.0
1758086973.09517,1758086973.06971,0.0,0.0,0.0,16.21471,-0.11459,6.47442,12.0,0.05,-0.2,2.0
1758086973.09614,1758086973.07971,0.0,0.0,0.0,17.18874,-22.91831,6.87549,12.0,0.05,-0.2,2.0
1758086973.11117,1758086973.08971,0.0,0.0,0.0,17.76169,-54.48829,9.85487,9.29,-0.41,-0.5,2.0
1758086973.11646,1758086973.09971,0.0,0.0,0.0,16.90226,-57.92604,12.54778,11.2,-0.78,0.21,2.0
1758086973.13588,1758086973.10971,0.0,0.0,0.0,15.06879,-59.75951,16.10011,11.2,-0.78,0.21,2.0
1758086973.1412,1758086973.11971,0.0,0.0,0.0,13.12073,-61.70755,20.16812,13.04,0.13,2.12,2.0
1758086973.15617,1758086973.12971,0.0,0.0,0.0,9.22462,-63.94209,24.98096,13.04,0.13,2.12,2.0
1758086973.16054,1758086973.13971,0.0,0.0,0.0,4.92744,-62.79618,25.21014,13.23,1.35,3.45,2.0
1758086973.17619,1758086973.14971,0.0,0.0,0.0,-0.11459,-62.5097,24.5226,13.23,1.35,3.45,2.0
1758086973.18115,1758086973.15971,0.0,0.0,0.0,-4.58366,-62.62429,23.37668,12.31,2.04,3.33,2.0
1758086973.22867,1758086973.16971,0.0,0.0,0.0,-8.02141,-57.63955,19.59516,10.82,1.54,3.52,2.0
1758086973.23113,1758086973.17971,0.0,0.0,0.0,-8.02141,-53.05589,15.69904,10.82,1.54,3.52,2.0
1758086973.23622,1758086973.18971,0.0,0.0,0.0,-5.4431,-51.22243,11.28727,9.41,0.46,4.55,2.0
1758086973.24103,1758086973.19971,0.0,0.0,0.0,-0.51566,-50.13381,7.16197,9.41,0.46,4.55,2.0
1758086973.24244,1758086973.20971,0.0,0.0,0.0,9.22462,-42.62806,1.66158,9.25,-0.59,4.66,2.0
1758086973.24615,1758086973.21971,0.0,0.0,0.0,16.61578,-34.60666,-0.51566,9.25,-0.59,4.66,2.0
1758086973.24749,1758086973.22971,0.0,0.0,0.0,25.72581,-24.23611,0.34377,10.45,-0.91,3.15,2.0
1758086973.26574,1758086973.23971,0.0,0.0,0.0,35.2942,-18.16276,1.08862,10.45,-0.91,3.15,2.0
1758086973.27418,1758086973.24971,0.0,0.0,0.0,38.21629,-4.64096,0.97403,11.26,-0.6,1.8,2.0
1758086973.27876,1758086973.25971,0.0,0.0,0.0,39.70598,6.24524,1.14592,11.27,-0.94,2.0,2.0
1758086973.29576,1758086973.26971,0.0,0.0,0.0,40.04975,15.92823,1.60428,11.27,-0.94,2.0,2.0
1758086973.29971,1758086973.27971,0.0,0.0,0.0,38.90384,27.96034,1.83346,10.45,0.17,1.24,2.0
1758086973.31573,1758086973.28971,0.0,0.0,0.0,36.95578,34.43476,1.3751,10.45,0.17,1.24,2.0
1758086973.31897,1758086973.29971,0.0,0.0,0.0,34.09099,40.62271,0.40107,9.89,1.18,1.29,2.0
1758086973.33585,1758086973.30971,0.0,0.0,0.0,30.48136,46.00851,-0.74485,9.89,1.18,1.29,2.0
1758086973.33945,1758086973.31971,0.0,0.0,0.0,24.86637,50.3057,-2.86479,9.45,1.85,1.3,2.0
1758086973.35561,1758086973.32971,0.0,0.0,0.0,21.60051,51.6235,-4.0107,8.84,1.94,1.13,2.0
1758086973.35868,1758086973.33971,0.0,0.0,0.0,18.27736,53.34238,-4.98473,8.84,1.94,1.13,2.0
1758086973.3743,1758086973.34971,0.0,0.0,0.0,15.41257,55.06125,-6.18794,8.65,1.63,1.19,2.0
1758086973.37563,1758086973.35971,0.0,0.0,0.0,11.74564,56.66553,-7.16197,8.65,1.63,1.19,2.0
1758086973.39123,1758086973.36971,0.0,0.0,0.0,9.62569,55.92068,-7.73493,8.39,1.17,1.24,2.0
1758086973.39652,1758086973.37971,0.0,0.0,0.0,7.79223,55.34772,-7.84952,8.39,1.17,1.24,2.0
1758086973.41483,1758086973.38971,0.0,0.0,0.0,5.90147,53.80074,-7.67763,8.3,0.84,1.39,2.0
1758086973.41635,1758086973.39971,0.0,0.0,0.0,3.89611,50.363,-7.62034,8.42,0.7,1.26,2.0
1758086973.43131,1758086973.40971,0.0,0.0,0.0,2.63561,47.32632,-6.8182,8.42,0.7,1.26,2.0
1758086973.44703,1758086973.41971,0.0,0.0,0.0,1.94806,43.65939,-6.41713,8.6,0.67,1.31,2.0
1758086973.45068,1758086973.42971,0.0,0.0,0.0,1.14592,39.24761,-5.78687,8.6,0.67,1.31,2.0
1758086973.46606,1758086973.43971,0.0,0.0,0.0,0.34377,33.9764,-5.61499,8.74,0.7,1.24,2.0
1758086973.46725,1758086973.44971,0.0,0.0,0.0,0.17189,30.30947,-5.78687,8.74,0.7,1.24,2.0
1758086973.48309,1758086973.45971,0.0,0.0,0.0,0.0573,25.61122,-5.78687,8.73,0.71,1.18,2.0
1758086973.48562,1758086973.46971,0.0,0.0,0.0,0.17189,18.73572,-5.4431,8.73,0.71,1.18,2.0
1758086973.50109,1758086973.47971,0.0,0.0,0.0,0.34377,15.24068,-4.98473,8.51,0.7,1.14,2.0
1758086973.51866,1758086973.48971,0.0,0.0,0.0,0.80214,11.11538,-3.95341,8.56,0.63,1.02,2.0
1758086973.5201,1758086973.49971,0.0,0.0,0.0,1.48969,7.21927,-3.20856,8.56,0.63,1.02,2.0
1758086973.53583,1758086973.50971,0.0,0.0,0.0,2.23454,2.86479,-0.80214,8.56,0.59,0.82,2.0
1758086973.53783,1758086973.51971,0.0,0.0,0.0,2.63561,-0.51566,0.45837,8.56,0.59,0.82,2.0
1758086973.55394,1758086973.52971,0.0,0.0,0.0,2.86479,-1.71887,2.23454,8.72,0.59,0.65,2.0
1758086973.55505,1758086973.53971,0.0,0.0,0.0,3.26586,-1.3751,3.83882,8.72,0.59,0.65,2.0
1758086973.5714,1758086973.54971,0.0,0.0,0.0,3.55234,-2.86479,5.95876,9.18,0.61,0.53,2.0
1758086973.58728,1758086973.55971,0.0,0.0,0.0,2.6929,-4.35448,6.13065,9.1,0.76,0.63,2.0
1758086973.5886,1758086973.56971,0.0,0.0,0.0,0.74485,-6.07335,5.09932,9.1,0.76,0.63,2.0
1758086973.60306,1758086973.57971,0.0,0.0,0.0,-1.43239,-8.42248,3.09397,9.06,1.12,0.71,2.0
1758086973.60591,1758086973.58971,0.0,0.0,0.0,-5.32851,-17.53251,-0.45837,9.06,1.12,0.71,2.0
1758086973.64906,1758086973.59971,0.0,0.0,0.0,-8.70896,-26.35606,-2.29183,8.43,1.56,0.41,2.0
1758086973.65316,1758086973.60971,0.0,0.0,0.0,-12.49048,-34.66395,-3.83882,8.43,1.56,0.41,2.0
1758086973.65464,1758086973.61971,0.0,0.0,0.0,-16.67307,-42.62806,-5.15662,8.54,1.94,0.02,2.0
1758086973.65622,1758086973.62971,0.0,0.0,0.0,-24.23611,-51.5662,-7.73493,9.38,2.13,-0.1,2.0
1758086973.6597,1758086973.63971,0.0,0.0,0.0,-28.99167,-54.48829,-9.05273,9.38,2.13,-0.1,2.0
1758086973.6752,1758086973.64971,0.0,0.0,0.0,-33.74722,-53.68615,-10.59972,10.95,2.36,0.11,2.0
1758086973.67871,1758086973.65971,0.0,0.0,0.0,-38.50277,-44.51882,-12.89155,10.95,2.36,0.11,2.0
1758086973.6944,1758086973.66971,0.0,0.0,0.0,-40.10705,-34.89313,-13.98017,12.67,2.12,-0.01,2.0
1758086973.69531,1758086973.67971,0.0,0.0,0.0,-40.62271,-24.17882,-15.0115,12.67,2.12,-0.01,2.0
1758086973.71113,1758086973.68971,0.0,0.0,0.0,-40.27893,-20.62648,-14.49583,13.2,1.78,-0.65,2.0
1758086973.71632,1758086973.69971,0.0,0.0,0.0,-41.42485,-32.20023,-17.6471,13.2,1.78,-1.31,2.0
1758086973.73121,1758086973.70971,0.0,0.0,0.0,-41.88322,-35.40879,-17.99088,10.76,1.59,-1.31,2.0
1758086973.73629,1758086973.71971,0.0,0.0,0.0,-42.62806,-32.71589,-18.50654,11.02,1.66,-1.46,2.0
1758086973.7515,1758086973.72971,0.0,0.0,0.0,-42.1124,-28.59059,-18.16276,11.02,1.66,-1.46,2.0
1758086973.75632,1758086973.73971,0.0,0.0,0.0,-37.12767,-25.09555,-19.25138,12.37,1.03,0.69,2.0
1758086973.77146,1758086973.74971,0.0,0.0,0.0,-30.76784,-30.30947,-23.49127,12.37,1.03,0.69,2.0
1758086973.78069,1758086973.75971,0.0,0.0,0.0,-23.72045,-44.9199,-31.11161,13.6,-0.61,3.18,2.0
1758086973.79531,1758086973.76971,0.0,0.0,0.0,-15.69904,-55.57691,-39.99245,13.6,-0.61,3.18,2.0
1758086973.80054,1758086973.77971,0.0,0.0,0.0,-3.72423,-50.76406,-50.3057,14.5,-2.18,3.57,2.0
1758086973.81548,1758086973.78971,0.0,0.0,0.0,3.03668,-43.54479,-51.90998,13.53,-2.26,1.63,2.0
1758086973.82055,1758086973.79971,0.0,0.0,0.0,7.96411,-41.08107,-50.2484,13.53,-2.26,1.63,2.0
1758086973.83553,1758086973.80971,0.0,0.0,0.0,10.54242,-39.01843,-46.1231,9.39,-0.27,3.5,2.0
1758086973.84146,1758086973.81971,0.0,0.0,0.0,9.74028,-27.67386,-34.26288,9.39,-0.27,3.5,2.0
1758086973.85617,1758086973.82971,0.0,0.0,0.0,5.61499,-20.62648,-24.63719,8.83,0.55,4.72,2.0
1758086973.86538,1758086973.83971,0.0,0.0,0.0,-0.68755,-14.49583,-14.09476,8.83,0.55,4.72,2.0
1758086973.86587,1758086973.84971,0.0,0.0,0.0,-7.33386,-11.28727,1.20321,8.34,1.2,4.56,2.0
1758086973.95074,1758086973.85971,0.0,0.0,0.0,-15.0115,-9.74028,9.74028,8.12,1.9,2.36,2.0
1758086973.97566,1758086973.86971,0.0,0.0,0.0,-22.40265,-2.29183,16.04282,8.12,1.9,2.36,2.0
1758086973.97604,1758086973.87971,0.0,0.0,0.0,-29.9084,7.04738,19.13679,10.03,1.37,2.51,2.0
1758086973.98034,1758086973.88971,0.0,0.0,0.0,-34.95043,16.272,19.19409,10.03,1.37,2.51,2.0
1758086973.98119,1758086973.89971,0.0,0.0,0.0,-33.68992,20.16812,17.13144,10.47,0.9,1.5,2.0
1758086973.98334,1758086973.90971,0.0,0.0,0.0,-31.16891,26.87172,13.80828,10.47,0.9,1.5,2.0
1758086973.9844,1758086973.91971,0.0,0.0,0.0,-28.24682,35.63798,9.5684,11.5,-0.28,0.89,2.0
1758086973.98516,1758086973.92971,0.0,0.0,0.0,-23.37668,44.8053,3.26586,11.24,-1.2,1.18,2.0
1758086973.98656,1758086973.93971,0.0,0.0,0.0,-19.99623,47.38361,0.74485,11.24,-1.2,1.18,2.0
1758086973.98783,1758086973.94971,0.0,0.0,0.0,-16.67307,47.89928,-0.40107,9.56,-1.17,1.06,2.0
1758086973.99056,1758086973.95971,0.0,0.0,0.0,-13.5218,48.24305,-0.22918,9.56,-1.17,1.06,2.0
1758086973.9917,1758086973.96971,0.0,0.0,0.0,-9.85487,49.27437,1.94806,8.88,-0.87,1.39,2.0
1758086973.99962,1758086973.97971,0.0,0.0,0.0,-8.02141,50.64947,4.18259,8.88,-0.87,1.39,2.0
1758086974.01558,1758086973.98971,0.0,0.0,0.0,-6.7609,50.3057,6.7609,8.69,-0.66,1.49,2.0
1758086974.01681,1758086973.99971,0.0,0.0,0.0,-6.18794,47.49821,9.39651,8.69,-0.66,1.49,2.0
1758086974.03438,1758086974.00971,0.0,0.0,0.0,-6.7609,44.17505,12.77696,8.23,-0.4,1.25,2.0
1758086974.03938,1758086974.01971,0.0,0.0,0.0,-7.44845,41.88322,14.20935,8.45,-0.11,1.12,2.0
1758086974.05461,1758086974.02971,0.0,0.0,0.0,-8.30789,38.73195,15.0115,8.45,-0.11,1.12,2.0
1758086974.05543,1758086974.03971,0.0,0.0,0.0,-9.05273,35.00772,14.09476,8.68,0.11,1.21,2.0
1758086974.07374,1758086974.04971,0.0,0.0,0.0,-9.05273,30.13758,12.83425,8.68,0.11,1.21,2.0
1758086974.07638,1758086974.05971,0.0,0.0,0.0,-8.88085,26.75713,11.17268,9.08,0.16,1.24,2.0
1758086974.09156,1758086974.06971,0.0,0.0,0.0,-8.30789,23.89234,9.39651,9.08,0.16,1.24,2.0
1758086974.10995,1758086974.07971,0.0,0.0,0.0,-7.73493,19.42327,6.87549,9.15,0.11,1.18,2.0
1758086974.11103,1758086974.08971,0.0,0.0,0.0,-7.21927,16.61578,5.61499,8.91,0.05,1.14,2.0
1758086974.11671,1758086974.09971,0.0,0.0,0.0,-7.10468,13.46451,4.52637,8.91,0.05,1.14,2.0
1758086974.13455,1758086974.10971,0.0,0.0,0.0,-6.99009,10.37054,3.89611,8.63,0.05,1.09,2.0
1758086974.13972,1758086974.11971,0.0,0.0,0.0,-6.87549,6.07335,3.26586,8.63,0.05,1.09,2.0
1758086974.1562,1758086974.12971,0.0,0.0,0.0,-6.58902,3.38045,3.09397,8.6,0.06,0.96,2.0
1758086974.15946,1758086974.13971,0.0,0.0,0.0,-6.18794,3.26586,3.20856,8.6,0.06,0.96,2.0
1758086974.17608,1758086974.14971,0.0,0.0,0.0,-5.27121,5.4431,3.55234,9.1,0.04,0.77,2.0
1758086974.22888,1758086974.15971,0.0,0.0,0.0,-3.89611,10.08406,3.83882,9.73,-0.04,0.59,2.0
1758086974.23053,1758086974.16971,0.0,0.0,0.0,-2.63561,12.2613,4.52637,9.73,-0.04,0.59,2.0
1758086974.23188,1758086974.17971,0.0,0.0,0.0,-1.08862,13.17803,5.32851,9.88,-0.14,0.46,2.0
1758086974.23234,1758086974.18971,0.0,0.0,0.0,0.57296,13.5218,6.18794,9.88,-0.14,0.46,2.0
1758086974.23335,1758086974.19971,0.0,0.0,0.0,3.38045,10.59972,7.16197,9.77,-0.22,0.25,2.0
1758086974.23393,1758086974.20971,0.0,0.0,0.0,5.27121,6.07335,7.50575,9.77,-0.22,0.25,2.0
1758086974.24952,1758086974.21971,0.0,0.0,0.0,6.87549,-3.03668,6.99009,9.24,-0.25,0.04,2.0
1758086974.25134,1758086974.22971,0.0,0.0,0.0,8.136,-10.19865,5.72958,9.24,-0.25,0.04,2.0
1758086974.26748,1758086974.23971,0.0,0.0,0.0,9.96947,-17.13144,3.26586,8.97,-0.12,-0.2,2.0
1758086974.27009,1758086974.24971,0.0,0.0,0.0,11.74564,-12.83425,1.94806,10.38,-0.01,-0.52,2.0
1758086974.28565,1758086974.25971,0.0,0.0,0.0,13.86558,-8.88085,1.77617,10.38,-0.01,-0.52,2.0
1758086974.28656,1758086974.26971,0.0,0.0,0.0,15.41257,-5.09932,1.60428,11.14,0.12,-0.4,2.0
1758086974.30569,1758086974.27971,0.0,0.0,0.0,15.98552,-2.92208,1.3178,11.14,0.12,-0.4,2.0
1758086974.30652,1758086974.28971,0.0,0.0,0.0,16.21471,-3.72423,0.97403,11.28,0.08,-0.14,2.0
1758086974.32521,1758086974.29971,0.0,0.0,0.0,15.46986,-6.53172,0.68755,11.28,0.08,-0.14,2.0
1758086974.32611,1758086974.30971,0.0,0.0,0.0,15.29797,-13.75099,0.22918,10.98,0.09,-0.15,2.0
1758086974.34159,1758086974.31971,0.0,0.0,0.0,15.87093,-25.8404,0.40107,10.2,-0.16,-0.05,2.0
1758086974.35821,1758086974.32971,0.0,0.0,0.0,16.272,-47.32632,2.92208,10.2,-0.16,-0.05,2.0
1758086974.35938,1758086974.33971,0.0,0.0,0.0,14.38124,-63.25455,8.88085,10.51,-0.16,1.17,2.0
1758086974.37564,1758086974.34971,0.0,0.0,0.0,8.02141,-74.14074,20.34,10.51,-0.16,1.17,2.0
1758086974.40649,1758086974.35971,0.0,0.0,0.0,2.40642,-75.68773,28.476,14.14,0.65,3.22,2.0
1758086974.4093,1758086974.36971,0.0,0.0,0.0,-4.58366,-71.50513,35.00772,14.14,0.65,3.22,2.0
1758086974.41126,1758086974.37971,0.0,0.0,0.0,-12.14671,-65.48907,38.1017,15.67,2.03,3.74,2.0
1758086974.41192,1758086974.38971,0.0,0.0,0.0,-20.3973,-60.73353,35.86716,12.73,2.16,2.94,2.0
1758086974.42975,1758086974.39971,0.0,0.0,0.0,-22.74642,-60.16057,30.99702,12.73,2.16,2.94,2.0
1758086974.43096,1758086974.40971,0.0,0.0,0.0,-22.68913,-58.90006,24.12152,9.1,0.48,3.68,2.0
1758086974.44642,1758086974.41971,0.0,0.0,0.0,-20.11082,-55.29043,16.50119,9.1,0.48,3.68,2.0
1758086974.44758,1758086974.42971,0.0,0.0,0.0,-12.2613,-43.31561,4.87014,9.06,-0.96,4.57,2.0
1758086974.46341,1758086974.43971,0.0,0.0,0.0,-5.61499,-34.14828,-2.00535,9.06,-0.96,4.57,2.0
1758086974.48049,1758086974.44971,0.0,0.0,0.0,1.20321,-26.75713,-7.04738,9.85,-2.1,3.85,2.0
1758086974.48143,1758086974.45971,0.0,0.0,0.0,10.02676,-20.79837,-11.45916,9.85,-2.1,3.85,2.0
1758086974.49913,1758086974.46971,0.0,0.0,0.0,15.24068,-16.67307,-11.80293,9.72,-2.39,2.56,2.0
1758086974.50083,1758086974.47971,0.0,0.0,0.0,19.42327,-8.47978,-10.54242,10.54,-1.7,1.83,2.0
1758086974.52067,1758086974.48971,0.0,0.0,0.0,22.57454,2.40642,-8.30789,10.54,-1.7,1.83,2.0
1758086974.52242,1758086974.49971,0.0,0.0,0.0,25.61122,19.13679,-3.55234,11.5,-0.31,1.48,2.0
1758086974.53856,1758086974.50971,0.0,0.0,0.0,26.06958,29.22085,-0.85944,11.5,-0.31,1.48,2.0
1758086974.54103,1758086974.51971,0.0,0.0,0.0,25.15285,35.12231,1.94806,10.9,0.97,1.54,2.0
1758086974.55672,1758086974.52971,0.0,0.0,0.0,22.91831,39.4195,4.0107,10.9,0.97,1.54,2.0
1758086974.55955,1758086974.53971,0.0,0.0,0.0,18.10547,46.75336,4.46907,9.75,1.65,1.44,2.0
1758086974.57447,1758086974.54971,0.0,0.0,0.0,14.61043,51.73809,4.0107,9.46,1.69,1.53,2.0
1758086974.57567,1758086974.55971,0.0,0.0,0.0,10.8862,55.06125,2.57831,9.46,1.69,1.53,2.0
1758086974.59164,1758086974.56971,0.0,0.0,0.0,7.39116,57.23849,0.34377,9.05,1.53,1.54,2.0
1758086974.60984,1758086974.57971,0.0,0.0,0.0,2.23454,61.76485,-2.63561,9.05,1.53,1.54,2.0
1758086974.61106,1758086974.58971,0.0,0.0,0.0,-0.68755,64.17127,-4.18259,9.09,1.25,1.36,2.0
1758086974.62687,1758086974.59971,0.0,0.0,0.0,-3.38045,65.2599,-6.35983,9.09,1.25,1.36,2.0
1758086974.62927,1758086974.60971,0.0,0.0,0.0,-5.15662,66.17663,-7.67763,8.79,0.96,1.2,2.0
1758086974.64653,1758086974.61971,0.0,0.0,0.0,-6.87549,65.08801,-9.05273,8.77,0.64,1.31,2.0
1758086974.64928,1758086974.62971,0.0,0.0,0.0,-7.33386,62.79618,-9.68299,8.77,0.64,1.31,2.0
1758086974.66456,1758086974.63971,0.0,0.0,0.0,-7.50575,60.27517,-9.5684,8.7,0.39,1.46,2.0
1758086974.66566,1758086974.64971,0.0,0.0,0.0,-7.67763,56.83742,-9.28192,8.7,0.39,1.46,2.0
1758086974.68179,1758086974.65971,0.0,0.0,0.0,-7.73493,50.13381,-8.99544,8.53,0.25,1.61,2.0
1758086974.6994,1758086974.66971,0.0,0.0,0.0,-8.02141,44.51882,-8.88085,8.53,0.25,1.61,2.0
1758086974.70031,1758086974.67971,0.0,0.0,0.0,-8.30789,38.73195,-8.59437,8.1,0.24,1.65,2.0
1758086974.71579,1758086974.68971,0.0,0.0,0.0,-9.11003,30.48136,-8.136,8.1,0.24,1.65,2.0
1758086974.7186,1758086974.69971,0.0,0.0,0.0,-9.62569,23.72045,-7.79223,7.84,0.32,1.59,2.0
1758086974.73533,1758086974.70971,0.0,0.0,0.0,-10.08406,17.81899,-6.8182,7.65,0.45,1.51,2.0
1758086974.73674,1758086974.71971,0.0,0.0,0.0,-10.48513,11.63104,-5.27121,7.65,0.45,1.51,2.0
1758086974.75316,1758086974.72971,0.0,0.0,0.0,-10.8862,3.20856,-3.03668,7.88,0.49,1.43,2.0
1758086974.75946,1758086974.73971,0.0,0.0,0.0,-10.94349,-0.17189,-1.43239,7.88,0.49,1.43,2.0
1758086974.77478,1758086974.74971,0.0,0.0,0.0,-10.8862,-2.06265,0.11459,8.53,0.44,1.25,2.0
1758086974.77605,1758086974.75971,0.0,0.0,0.0,-10.59972,-1.43239,1.3178,8.53,0.44,1.25,2.0
1758086974.79184,1758086974.76971,0.0,0.0,0.0,-11.91752,0.0573,3.83882,9.35,0.41,1.02,2.0
1758086974.8088,1758086974.77971,0.0,0.0,0.0,-13.34992,0.0,4.69825,9.66,0.52,0.74,2.0
1758086974.81057,1758086974.78971,0.0,0.0,0.0,-14.9542,-0.22918,5.09932,9.66,0.52,0.74,2.0
1758086974.82582,1758086974.79971,0.0,0.0,0.0,-17.01685,-0.0573,4.52637,9.81,0.62,0.82,2.0
1758086974.82706,1758086974.80971,0.0,0.0,0.0,-20.97026,-3.32316,1.66158,9.81,0.62,0.82,2.0
1758086974.84169,1758086974.81971,0.0,0.0,0.0,-24.00693,-7.62034,-1.3178,9.4,0.94,0.78,2.0
1758086974.85886,1758086974.82971,0.0,0.0,0.0,-27.10091,-14.03747,-4.69825,9.4,0.94,0.78,2.0
1758086974.85979,1758086974.83971,0.0,0.0,0.0,-30.25217,-23.26209,-8.93814,8.82,1.39,0.69,2.0
1758086974.87458,1758086974.84971,0.0,0.0,0.0,-34.89313,-39.3622,-11.17268,8.56,1.65,0.47,2.0
1758086974.87582,1758086974.85971,0.0,0.0,0.0,-37.81522,-48.35764,-13.12073,8.56,1.65,0.47,2.0
1758086974.89524,1758086974.86971,0.0,0.0,0.0,-41.13837,-55.23313,-15.29797,9.13,1.57,0.27,2.0
1758086974.89884,1758086974.87971,0.0,0.0,0.0,-45.49285,-57.18119,-16.84496,9.13,1.57,0.27,2.0
1758086974.91391,1758086974.88971,0.0,0.0,0.0,-47.67009,-53.91533,-17.47521,10.64,1.64,0.03,2.0
1758086974.91638,1758086974.89971,0.0,0.0,0.0,-48.8733,-45.49285,-16.95955,10.64,1.64,0.03,2.0
1758086974.93591,1758086974.90971,0.0,0.0,0.0,-49.04519,-31.74186,-17.18874,12.42,1.63,-0.08,2.0
1758086974.93929,1758086974.91971,0.0,0.0,0.0,-46.35228,-15.58445,-13.80828,13.03,1.63,-0.27,2.0
1758086974.95487,1758086974.92971,0.0,0.0,0.0,-46.86795,-27.10091,-15.35527,13.03,1.49,-0.27,2.0
1758086974.95584,1758086974.93971,0.0,0.0,0.0,-45.89392,-34.09099,-14.72501,10.26,1.57,-0.4,2.0
1758086974.97163,1758086974.94971,0.0,0.0,0.0,-44.51882,-33.68992,-14.32395,10.26,1.57,-0.4,2.0
1758086974.98869,1758086974.95971,0.0,0.0,0.0,-40.85189,-25.49662,-15.35527,12.33,1.07,0.28,2.0
1758086974.99073,1758086974.96971,0.0,0.0,0.0,-35.69527,-23.60586,-18.10547,12.33,1.07,0.28,2.0
1758086975.00588,1758086974.97971,0.0,0.0,0.0,-28.93437,-27.10091,-22.91831,13.57,-0.39,1.8,2.0
1758086975.00875,1758086974.98971,0.0,0.0,0.0,-21.14215,-33.17426,-29.27814,13.57,-0.39,1.8,2.0
1758086975.02394,1758086974.99971,0.0,0.0,0.0,-7.16197,-39.3622,-39.53409,13.6,-1.61,3.74,2.0
1758086975.02648,1758086975.00971,0.0,0.0,0.0,2.00535,-37.18496,-44.748,13.68,-2.36,2.79,2.0
1758086975.04202,1758086975.01971,0.0,0.0,0.0,9.05273,-35.40879,-47.03984,13.68,-2.36,2.79,2.0
1758086975.04876,1758086975.02971,0.0,0.0,0.0,13.46451,-36.03905,-46.40959,10.16,-0.75,2.76,2.0
1758086975.06389,1758086975.03971,0.0,0.0,0.0,14.61043,-34.09099,-40.68,10.16,-0.75,2.76,2.0
1758086975.08,1758086975.04971,0.0,0.0,0.0,12.2613,-29.67921,-33.74722,8.26,0.9,4.23,2.0
1758086975.0809,1758086975.05971,0.0,0.0,0.0,8.02141,-24.4653,-24.86637,8.26,0.9,4.23,2.0
1758086975.09572,1758086975.06971,0.0,0.0,0.0,-1.48969,-19.19409,-10.08406,8.17,1.33,4.9,2.0
1758086975.0996,1758086975.07971,0.0,0.0,0.0,-9.05273,-17.36062,-0.68755,7.99,1.42,4.32,2.0
1758086975.11492,1758086975.08971,0.0,0.0,0.0,-16.55848,-16.272,7.50575,7.99,1.42,4.32,2.0
1758086975.1159,1758086975.09971,0.0,0.0,0.0,-23.60586,-14.49583,13.40721,8.45,1.6,3.06,2.0
1758086975.13295,1758086975.10971,0.0,0.0,0.0,-32.08564,-8.02141,17.30333,8.45,1.6,3.06,2.0
1758086975.15079,1758086975.11971,0.0,0.0,0.0,-35.2369,-1.71887,16.55848,10.1,1.3,2.53,2.0
1758086975.15653,1758086975.12971,0.0,0.0,0.0,-35.98175,5.95876,14.49583,10.1,1.3,2.53,2.0
1758086975.16142,1758086975.13971,0.0,0.0,0.0,-34.95043,14.61043,10.59972,11.6,0.01,1.87,2.0
1758086975.17955,1758086975.14971,0.0,0.0,0.0,-31.11161,25.7831,4.64096,11.25,-1.12,1.05,2.0
1758086975.18295,1758086975.15971,0.0,0.0,0.0,-27.84575,31.56997,1.08862,11.25,-1.12,1.05,2.0
1758086975.19852,1758086975.16971,0.0,0.0,0.0,-24.23611,36.21093,-1.43239,9.94,-1.54,1.06,2.0
1758086975.20132,1758086975.17971,0.0,0.0,0.0,-20.51189,39.70598,-2.86479,9.94,-1.54,1.06,2.0
1758086975.22012,1758086975.18971,0.0,0.0,0.0,-14.32395,43.83128,-3.09397,9.37,-1.32,1.38,2.0
1758086975.22141,1758086975.19971,0.0,0.0,0.0,-10.37054,45.55015,-2.29183,9.37,-1.32,1.38,2.0
1758086975.23993,1758086975.20971,0.0,0.0,0.0,-6.58902,46.81066,-1.03132,9.34,-0.76,1.51,2.0
1758086975.24166,1758086975.21971,0.0,0.0,0.0,-3.32316,47.49821,1.08862,9.34,-0.76,1.51,2.0
1758086975.26045,1758086975.22971,0.0,0.0,0.0,0.11459,47.67009,4.35448,9.34,-0.35,1.27,2.0
1758086975.26135,1758086975.23971,0.0,0.0,0.0,1.71887,47.49821,6.41713,9.35,-0.23,1.2,2.0
1758086975.27922,1758086975.24971,0.0,0.0,0.0,2.57831,46.63877,8.47978,9.35,-0.23,1.2,2.0
1758086975.2812,1758086975.25971,0.0,0.0,0.0,-0.0573,44.57612,9.05273,9.38,-0.11,1.39,2.0
1758086975.29949,1758086975.26971,0.0,0.0,0.0,-3.26586,37.01308,8.65166,9.38,-0.11,1.39,2.0
1758086975.30113,1758086975.27971,0.0,0.0,0.0,-2.46372,36.89849,10.25595,9.14,0.24,0.88,2.0
1758086975.31828,1758086975.28971,0.0,0.0,0.0,-0.40107,37.12767,11.80293,9.14,0.24,0.88,2.0
1758086975.32203,1758086975.29971,0.0,0.0,0.0,3.83882,32.6013,14.09476,9.16,0.21,2.18,2.0
1758086975.33837,1758086975.30971,0.0,0.0,0.0,6.99009,28.70519,15.12609,8.48,-0.06,1.08,2.0
1758086975.34147,1758086975.31971,0.0,0.0,0.0,9.85487,24.80907,15.98552,8.48,-0.06,1.08,2.0
1758086975.35997,1758086975.32971,0.0,0.0,0.0,12.37589,20.85567,16.38659,8.36,-0.34,0.89,2.0
1758086975.36118,1758086975.33971,0.0,0.0,0.0,15.12609,16.10011,16.38659,8.36,-0.34,0.89,2.0
1758086975.3784,1758086975.34971,0.0,0.0,0.0,15.92823,13.12073,15.58445,8.55,-0.45,0.83,2.0
1758086975.3813,1758086975.35971,0.0,0.0,0.0,16.272,10.54242,14.15206,8.55,-0.45,0.83,2.0
1758086975.39869,1758086975.36971,0.0,0.0,0.0,15.98552,8.93814,12.14671,8.81,-0.28,0.82,2.0
1758086975.3996,1758086975.37971,0.0,0.0,0.0,14.72501,10.8289,8.30789,9.21,0.01,0.87,2.0
1758086975.41503,1758086975.38971,0.0,0.0,0.0,13.40721,13.75099,5.61499,9.21,0.01,0.87,2.0
1758086975.41598,1758086975.39971,0.0,0.0,0.0,12.2613,16.272,3.26586,9.5,0.39,1.0,2.0
1758086975.43565,1758086975.40971,0.0,0.0,0.0,11.22997,17.01685,2.11994,9.5,0.39,1.0,2.0
1758086975.44488,1758086975.41971,0.0,0.0,0.0,10.25595,16.90226,1.3178,9.52,0.59,1.08,2.0
1758086975.44842,1758086975.42971,0.0,0.0,0.0,9.68299,16.04282,1.08862,9.52,0.59,1.08,2.0
1758086975.46597,1758086975.43971,0.0,0.0,0.0,9.33921,12.89155,1.77617,9.53,0.53,1.05,2.0
1758086975.47024,1758086975.44971,0.0,0.0,0.0,8.99544,6.24524,2.46372,9.53,0.53,1.05,2.0
1758086975.48595,1758086975.45971,0.0,0.0,0.0,8.36518,-6.87549,1.94806,8.83,0.34,0.83,2.0
1758086975.49127,1758086975.46971,0.0,0.0,0.0,8.93814,-14.38124,2.7502,8.56,0.22,0.67,2.0
1758086975.50594,1758086975.47971,0.0,0.0,0.0,9.39651,-19.07949,2.00535,8.56,0.22,0.67,2.0
1758086975.51129,1758086975.48971,0.0,0.0,0.0,12.37589,-14.20935,2.29183,9.95,0.24,0.27,2.0
1758086975.52582,1758086975.49971,0.0,0.0,0.0,14.49583,-8.88085,3.38045,9.95,0.24,0.27,2.0
1758086975.52872,1758086975.50971,0.0,0.0,0.0,16.21471,-4.69825,4.29718,11.49,0.26,0.03,2.0
1758086975.54409,1758086975.51971,0.0,0.0,0.0,17.76169,-1.60428,4.46907,11.49,0.26,0.03,2.0
1758086975.56009,1758086975.52971,0.0,0.0,0.0,19.53786,-3.26586,4.29718,11.48,0.01,0.19,2.0
1758086975.56055,1758086975.53971,0.0,0.0,0.0,19.36597,-4.18259,3.72423,11.11,-0.14,0.3,2.0
1758086975.57784,1758086975.54971,0.0,0.0,0.0,20.05352,-8.0787,2.7502,11.11,-0.14,0.3,2.0
1758086975.58093,1758086975.55971,0.0,0.0,0.0,21.37133,-21.14215,1.3178,9.97,-0.34,0.09,2.0
1758086975.59591,1758086975.56971,0.0,0.0,0.0,22.23076,-51.73809,1.60428,9.97,-0.34,0.09,2.0
1758086975.60027,1758086975.57971,0.0,0.0,0.0,21.42862,-57.23849,3.03668,9.52,-0.41,0.54,2.0
1758086975.6161,1758086975.58971,0.0,0.0,0.0,19.42327,-56.89471,5.61499,9.52,-0.41,0.54,2.0
1758086975.61945,1758086975.59971,0.0,0.0,0.0,16.67307,-59.87409,9.74028,13.36,0.0,1.57,2.0
1758086975.6359,1758086975.60971,0.0,0.0,0.0,9.4538,-66.17663,18.50654,14.27,0.94,3.97,2.0
1758086975.64113,1758086975.61971,0.0,0.0,0.0,2.7502,-64.91612,23.60586,14.27,0.94,3.97,2.0
1758086975.65612,1758086975.62971,0.0,0.0,0.0,-3.95341,-60.73353,27.10091,14.82,1.73,3.62,2.0
1758086975.66103,1758086975.63971,0.0,0.0,0.0,-9.62569,-56.83742,28.13223,14.82,1.73,3.62,2.0
1758086975.67608,1758086975.64971,0.0,0.0,0.0,-12.77696,-56.66553,25.49662,11.93,1.42,3.54,2.0
1758086975.68586,1758086975.65971,0.0,0.0,0.0,-11.22997,-57.46767,22.00158,11.93,1.42,3.54,2.0
1758086975.69469,1758086975.66971,0.0,0.0,0.0,-7.16197,-55.11855,17.30333,8.49,0.19,4.25,2.0
1758086975.70122,1758086975.67971,0.0,0.0,0.0,1.66158,-46.2377,8.99544,8.49,0.19,4.25,2.0
1758086975.71955,1758086975.68971,0.0,0.0,0.0,8.70896,-39.76327,4.1253,8.3,-0.66,4.6,2.0
1758086975.72073,1758086975.69971,0.0,0.0,0.0,15.69904,-34.77854,0.51566,8.94,-1.34,3.89,2.0
1758086975.74016,1758086975.70971,0.0,0.0,0.0,22.40265,-29.67921,-2.34913,8.94,-1.34,3.89,2.0
1758086975.74137,1758086975.71971,0.0,0.0,0.0,30.48136,-23.72045,-2.86479,9.63,-1.53,2.48,2.0
1758086975.75615,1758086975.72971,0.0,0.0,0.0,34.26288,-16.272,-2.06265,9.63,-1.53,2.48,2.0
1758086975.76362,1758086975.73971,0.0,0.0,0.0,34.49206,-8.88085,-0.45837,10.83,-1.09,1.76,2.0
