timeStamp,timeStampAlign,roll,pitch,yaw,gyro_x,gyro_y,gyro_z,acc_x,acc_y,acc_z,flag_num
1758077224.22664,1758077224.00491,0.0,0.0,0.0,-9.33921,-20.22541,-4.18259,7.87,-1.47,0.07,4.0
1758077224.23047,1758077224.01491,0.0,0.0,0.0,-8.65166,-21.94428,-4.98473,7.57,-1.5,0.08,4.0
1758077224.23177,1758077224.02491,0.0,0.0,0.0,-7.84952,-23.0329,-5.78687,7.44,-1.47,0.08,4.0
1758077224.23398,1758077224.03491,0.0,0.0,0.0,-6.87549,-24.12152,-6.35983,7.44,-1.47,0.08,4.0
1758077224.25262,1758077224.04491,0.0,0.0,0.0,-4.98473,-23.20479,-6.87549,7.53,-1.47,-0.04,4.0
1758077224.25607,1758077224.05491,0.0,0.0,0.0,-3.49504,-20.68378,-6.99009,7.53,-1.47,-0.04,4.0
1758077224.27165,1758077224.06491,0.0,0.0,0.0,-2.40642,-17.76169,-7.44845,8.04,-1.51,-0.24,4.0
1758077224.27264,1758077224.07491,0.0,0.0,0.0,-1.43239,-14.9542,-8.02141,8.04,-1.51,-0.24,4.0
1758077224.28919,1758077224.08491,0.0,0.0,0.0,-0.17189,-12.08941,-9.39651,8.36,-1.5,-0.31,4.0
1758077224.30595,1758077224.09491,0.0,0.0,0.0,0.34377,-11.17268,-10.48513,8.69,-1.45,-0.43,4.0
1758077224.31048,1758077224.10491,0.0,0.0,0.0,0.74485,-10.19865,-11.80293,8.69,-1.45,-0.43,4.0
1758077224.32626,1758077224.11491,0.0,0.0,0.0,0.97403,-8.88085,-13.00614,9.29,-1.45,-0.43,4.0
1758077224.3307,1758077224.12491,0.0,0.0,0.0,0.34377,-5.84417,-14.20935,9.29,-1.45,-0.43,4.0
1758077224.34629,1758077224.13491,0.0,0.0,0.0,-0.34377,-3.38045,-14.78231,9.95,-1.5,-0.53,4.0
1758077224.35071,1758077224.14491,0.0,0.0,0.0,-1.43239,-1.3178,-15.41257,9.95,-1.5,-0.53,4.0
1758077224.36571,1758077224.15491,0.0,0.0,0.0,-2.34913,-0.11459,-15.58445,10.23,-1.58,-0.5,4.0
1758077224.36669,1758077224.16491,0.0,0.0,0.0,-4.23989,1.20321,-15.69904,10.2,-1.62,-0.47,4.0
1758077224.38575,1758077224.17491,0.0,0.0,0.0,-5.32851,1.03132,-15.87093,10.2,-1.62,-0.47,4.0
1758077224.38667,1758077224.18491,0.0,0.0,0.0,-6.58902,1.60428,-15.75634,9.98,-1.56,-0.46,4.0
1758077224.40174,1758077224.19491,0.0,0.0,0.0,-8.136,0.34377,-15.35527,9.98,-1.56,-0.46,4.0
1758077224.41167,1758077224.20491,0.0,0.0,0.0,-8.76626,0.0,-14.66772,9.42,-1.44,-0.43,4.0
1758077224.41624,1758077224.21491,0.0,0.0,0.0,-9.4538,2.34913,-14.61043,9.42,-1.44,-0.43,4.0
1758077224.43551,1758077224.22491,0.0,0.0,0.0,-9.68299,6.8182,-14.03747,9.32,-1.4,-0.42,4.0
1758077224.44098,1758077224.23491,0.0,0.0,0.0,-11.11538,11.28727,-14.32395,9.32,-1.4,-0.36,4.0
1758077224.45578,1758077224.24491,0.0,0.0,0.0,-12.49048,10.71431,-15.12609,9.05,-1.45,-0.36,4.0
1758077224.45767,1758077224.25491,0.0,0.0,0.0,-13.80828,8.47978,-15.87093,8.12,-1.46,-0.38,4.0
1758077224.47575,1758077224.26491,0.0,0.0,0.0,-15.0115,4.52637,-15.92823,8.12,-1.46,-0.38,4.0
1758077224.47789,1758077224.27491,0.0,0.0,0.0,-16.38659,-1.94806,-14.78231,7.82,-1.4,-0.55,4.0
1758077224.49616,1758077224.28491,0.0,0.0,0.0,-16.95955,-6.13065,-13.40721,7.82,-1.4,-0.55,4.0
1758077224.52389,1758077224.29491,0.0,0.0,0.0,-17.53251,-9.85487,-11.22997,8.45,-1.34,0.21,4.0
1758077224.52579,1758077224.30491,0.0,0.0,0.0,-18.27736,-14.83961,-8.88085,8.45,-1.34,0.21,4.0
1758077224.5314,1758077224.31491,0.0,0.0,0.0,-20.34,-30.76784,-3.60963,9.93,-0.96,1.8,4.0
1758077224.53486,1758077224.32491,0.0,0.0,0.0,-21.94428,-45.72203,2.00535,11.0,-0.4,3.83,4.0
1758077224.53611,1758077224.33491,0.0,0.0,0.0,-23.54857,-55.11855,7.96411,11.0,-0.4,3.83,4.0
1758077224.5519,1758077224.34491,0.0,0.0,0.0,-25.21014,-57.29578,12.08941,12.5,0.17,3.64,4.0
1758077224.55521,1758077224.35491,0.0,0.0,0.0,-28.41871,-52.13916,12.77696,12.5,0.17,3.64,4.0
1758077224.63914,1758077224.36491,0.0,0.0,0.0,-30.76784,-43.83128,9.39651,12.17,0.55,1.66,4.0
1758077224.64103,1758077224.37491,0.0,0.0,0.0,-33.23156,-30.36677,4.0107,12.17,0.55,1.66,4.0
1758077224.64247,1758077224.38491,0.0,0.0,0.0,-35.40879,-17.6471,-1.43239,12.74,0.6,1.15,4.0
1758077224.64973,1758077224.39491,0.0,0.0,0.0,-35.63798,-21.42862,-1.20321,14.78,0.94,1.09,4.0
1758077224.65012,1758077224.40491,0.0,0.0,0.0,-33.63263,-26.87172,0.22918,14.78,0.94,1.09,4.0
1758077224.65133,1758077224.41491,0.0,0.0,0.0,-29.27814,-22.23076,1.83346,15.21,0.4,-1.32,4.0
1758077224.65264,1758077224.42491,0.0,0.0,0.0,-23.20479,0.74485,-1.20321,15.21,0.4,-1.32,4.0
1758077224.65341,1758077224.43491,0.0,0.0,0.0,-19.76705,12.49048,-5.72958,13.53,-1.05,-0.98,4.0
1758077224.6569,1758077224.44491,0.0,0.0,0.0,-16.61578,18.10547,-9.62569,13.53,-1.05,-0.98,4.0
1758077224.66132,1758077224.45491,0.0,0.0,0.0,-13.17803,18.50654,-12.49048,10.71,-1.39,-0.45,4.0
1758077224.662,1758077224.46491,0.0,0.0,0.0,-8.0787,25.09555,-15.41257,11.45,-1.08,-0.1,4.0
1758077224.68591,1758077224.47491,0.0,0.0,0.0,-3.20856,38.21629,-14.09476,11.45,-1.08,-0.1,4.0
1758077224.69035,1758077224.48491,0.0,0.0,0.0,2.00535,44.11775,-12.60507,13.77,-0.86,0.24,4.0
1758077224.70598,1758077224.49491,0.0,0.0,0.0,6.18794,40.45082,-10.71431,13.77,-0.86,0.24,4.0
1758077224.70685,1758077224.50491,0.0,0.0,0.0,10.31324,34.89313,-7.33386,12.24,-0.67,0.58,4.0
1758077224.72497,1758077224.51491,0.0,0.0,0.0,12.2613,32.77319,-6.13065,12.24,-0.67,0.58,4.0
1758077224.72588,1758077224.52491,0.0,0.0,0.0,13.80828,30.13758,-5.61499,11.34,-0.57,0.47,4.0
1758077224.74081,1758077224.53491,0.0,0.0,0.0,15.12609,26.81443,-5.84417,11.34,-0.57,0.47,4.0
1758077224.74183,1758077224.54491,0.0,0.0,0.0,16.3293,21.60051,-6.18794,10.66,-0.42,0.46,4.0
1758077224.75871,1758077224.55491,0.0,0.0,0.0,16.84496,17.58981,-6.18794,10.66,-0.22,0.26,4.0
1758077224.77597,1758077224.56491,0.0,0.0,0.0,16.95955,13.75099,-5.84417,10.66,-0.22,0.26,4.0
1758077224.77874,1758077224.57491,0.0,0.0,0.0,16.95955,10.59972,-4.92744,10.62,0.01,0.1,4.0
1758077224.79371,1758077224.58491,0.0,0.0,0.0,16.50119,9.28192,-4.35448,10.62,0.01,0.1,4.0
1758077224.79645,1758077224.59491,0.0,0.0,0.0,15.41257,8.36518,-3.95341,10.45,0.31,0.28,4.0
1758077224.81196,1758077224.60491,0.0,0.0,0.0,13.98017,6.58902,-3.55234,10.45,0.31,0.28,4.0
1758077224.81614,1758077224.61491,0.0,0.0,0.0,11.57375,2.97938,-3.09397,9.79,0.59,0.41,4.0
1758077224.83198,1758077224.62491,0.0,0.0,0.0,10.48513,2.57831,-2.63561,9.45,0.65,0.31,4.0
1758077224.83286,1758077224.63491,0.0,0.0,0.0,9.22462,2.92208,-2.46372,9.45,0.65,0.31,4.0
1758077224.84932,1758077224.64491,0.0,0.0,0.0,7.67763,1.83346,-2.00535,9.18,0.56,0.22,4.0
1758077224.8667,1758077224.65491,0.0,0.0,0.0,5.55769,-0.51566,-1.43239,9.18,0.56,0.22,4.0
1758077224.87186,1758077224.66491,0.0,0.0,0.0,4.18259,-2.34913,-1.03132,8.8,0.48,0.18,4.0
1758077224.87403,1758077224.67491,0.0,0.0,0.0,2.7502,-3.32316,-0.74485,8.8,0.48,0.18,4.0
1758077224.89072,1758077224.68491,0.0,0.0,0.0,1.3751,-4.18259,-0.85944,8.71,0.51,0.06,4.0
1758077224.89591,1758077224.69491,0.0,0.0,0.0,-0.74485,-5.78687,-1.14592,8.65,0.54,0.0,4.0
1758077224.91298,1758077224.70491,0.0,0.0,0.0,-1.94806,-6.87549,-1.3178,8.65,0.54,0.0,4.0
1758077224.91635,1758077224.71491,0.0,0.0,0.0,-3.09397,-7.21927,-1.20321,8.68,0.49,-0.11,4.0
1758077224.93258,1758077224.72491,0.0,0.0,0.0,-4.0107,-6.18794,-1.14592,8.68,0.49,-0.11,4.0
1758077224.93611,1758077224.73491,0.0,0.0,0.0,-5.78687,-5.15662,0.17189,8.91,0.2,-0.1,4.0
1758077224.95205,1758077224.74491,0.0,0.0,0.0,-6.53172,-6.18794,1.08862,8.91,0.2,-0.1,4.0
1758077224.95295,1758077224.75491,0.0,0.0,0.0,-7.10468,-6.47442,1.94806,8.81,0.14,-0.44,4.0
1758077224.9721,1758077224.76491,0.0,0.0,0.0,-7.62034,-6.58902,2.57831,8.81,0.14,-0.44,4.0
1758077224.97649,1758077224.77491,0.0,0.0,0.0,-8.42248,-6.24524,3.26586,9.12,0.3,-0.31,4.0
1758077224.99214,1758077224.78491,0.0,0.0,0.0,-9.4538,-6.07335,3.09397,9.3,0.49,-0.31,4.0
1758077224.99378,1758077224.79491,0.0,0.0,0.0,-10.48513,-6.7609,2.86479,9.3,0.49,-0.31,4.0
1758077225.01148,1758077224.80491,0.0,0.0,0.0,-12.14671,-7.44845,2.23454,9.18,0.6,-0.41,4.0
1758077225.04166,1758077224.81491,0.0,0.0,0.0,-13.40721,-7.73493,1.83346,9.18,0.6,-0.41,4.0
1758077225.04577,1758077224.82491,0.0,0.0,0.0,-14.66772,-7.73493,1.71887,9.2,0.6,-0.43,4.0
1758077225.0494,1758077224.83491,0.0,0.0,0.0,-16.21471,-7.73493,1.60428,9.2,0.6,-0.43,4.0
1758077225.0572,1758077224.84491,0.0,0.0,0.0,-18.73572,-7.79223,1.71887,9.1,0.54,-0.53,4.0
1758077225.06639,1758077224.85491,0.0,0.0,0.0,-20.34,-7.67763,1.83346,8.99,0.44,-0.67,4.0
1758077225.06674,1758077224.86491,0.0,0.0,0.0,-21.7151,-7.21927,2.29183,8.99,0.44,-0.67,4.0
1758077225.072,1758077224.87491,0.0,0.0,0.0,-23.0902,-6.70361,2.63561,8.93,0.36,-0.8,4.0
1758077225.09126,1758077224.88491,0.0,0.0,0.0,-24.92367,-6.87549,3.49504,8.93,0.36,-0.8,4.0
1758077225.09279,1758077224.89491,0.0,0.0,0.0,-26.01229,-7.50575,4.18259,8.87,0.26,-0.93,4.0
1758077225.11111,1758077224.90491,0.0,0.0,0.0,-26.98631,-7.50575,4.64096,8.87,0.26,-0.93,4.0
1758077225.11231,1758077224.91491,0.0,0.0,0.0,-27.73116,-7.04738,5.27121,9.12,0.16,-0.89,4.0
1758077225.13005,1758077224.92491,0.0,0.0,0.0,-28.476,-5.21392,5.90147,9.47,0.13,-0.9,4.0
1758077225.13313,1758077224.93491,0.0,0.0,0.0,-28.76248,-3.49504,6.35983,9.47,0.13,-0.9,4.0
1758077225.14978,1758077224.94491,0.0,0.0,0.0,-28.59059,-2.00535,6.70361,9.51,0.07,-0.92,4.0
1758077225.16521,1758077224.95491,0.0,0.0,0.0,-28.13223,-0.68755,6.8182,9.51,0.07,-0.92,4.0
1758077225.16568,1758077224.96491,0.0,0.0,0.0,-26.98631,2.29183,6.99009,9.38,0.02,-0.81,4.0
1758077225.18116,1758077224.97491,0.0,0.0,0.0,-26.12688,4.0107,6.8182,9.38,0.02,-0.81,4.0
1758077225.18313,1758077224.98491,0.0,0.0,0.0,-24.63719,2.92208,6.87549,9.11,0.11,-0.7,4.0
1758077225.1979,1758077224.99491,0.0,0.0,0.0,-23.26209,-3.26586,6.07335,9.11,0.11,-0.7,4.0
1758077225.20609,1758077225.00491,0.0,0.0,0.0,-21.7724,-17.99088,4.64096,8.05,0.18,-0.58,4.0
1758077225.22112,1758077225.01491,0.0,0.0,0.0,-20.74107,-22.00158,3.89611,7.9,0.26,-0.63,4.0
1758077225.22476,1758077225.02491,0.0,0.0,0.0,-19.82434,-21.14215,3.60963,7.9,0.26,-0.63,4.0
1758077225.24115,1758077225.03491,0.0,0.0,0.0,-18.79302,9.11003,3.66693,10.1,0.45,-0.45,4.0
1758077225.24611,1758077225.04491,0.0,0.0,0.0,-19.59516,20.62648,2.97938,10.1,0.45,-0.45,4.0
1758077225.26114,1758077225.05491,0.0,0.0,0.0,-19.99623,15.41257,2.34913,9.95,0.55,-0.55,4.0
1758077225.26653,1758077225.06491,0.0,0.0,0.0,-18.73572,9.68299,2.57831,9.95,0.55,-0.55,4.0
1758077225.28119,1758077225.07491,0.0,0.0,0.0,-14.15206,10.37054,4.87014,7.88,0.43,-0.5,4.0
1758077225.2832,1758077225.08491,0.0,0.0,0.0,-9.68299,11.97482,6.7609,8.93,0.01,-0.84,4.0
1758077225.29793,1758077225.09491,0.0,0.0,0.0,-4.64096,10.65701,8.65166,8.93,0.01,-0.84,4.0
1758077225.33732,1758077225.10491,0.0,0.0,0.0,0.34377,7.73493,9.74028,8.71,-0.32,-0.02,4.0
1758077225.37089,1758077225.11491,0.0,0.0,0.0,7.50575,4.58366,9.62569,8.71,-0.32,-0.02,4.0
1758077225.37147,1758077225.12491,0.0,0.0,0.0,11.57375,0.40107,7.50575,9.18,-0.57,0.77,4.0
1758077225.37592,1758077225.13491,0.0,0.0,0.0,15.0115,-2.11994,4.18259,9.18,-0.57,0.77,4.0
1758077225.37654,1758077225.14491,0.0,0.0,0.0,18.33465,-2.57831,-0.0573,10.47,-0.78,1.4,4.0
1758077225.38022,1758077225.15491,0.0,0.0,0.0,23.54857,-4.23989,-6.35983,12.46,-1.18,1.77,4.0
1758077225.38081,1758077225.16491,0.0,0.0,0.0,26.64254,-9.33921,-10.02676,12.46,-1.18,1.77,4.0
1758077225.38158,1758077225.17491,0.0,0.0,0.0,29.27814,-15.58445,-12.54778,12.94,-1.8,1.74,4.0
1758077225.38666,1758077225.18491,0.0,0.0,0.0,32.25753,-20.79837,-13.00614,12.94,-1.8,1.74,4.0
1758077225.40505,1758077225.19491,0.0,0.0,0.0,36.7266,-24.86637,-10.25595,12.82,-2.17,1.62,4.0
1758077225.40598,1758077225.20491,0.0,0.0,0.0,39.64868,-22.34536,-6.47442,12.82,-2.17,1.62,4.0
1758077225.42104,1758077225.21491,0.0,0.0,0.0,41.71133,-18.22006,-1.83346,13.29,-2.16,1.39,4.0
1758077225.42619,1758077225.22491,0.0,0.0,0.0,42.39888,-13.5218,4.1253,13.29,-2.16,1.39,4.0
1758077225.44105,1758077225.23491,0.0,0.0,0.0,41.59674,-3.38045,7.44845,13.94,-1.89,0.35,4.0
1758077225.45098,1758077225.24491,0.0,0.0,0.0,39.99245,4.0107,10.65701,14.11,-1.21,-0.2,4.0
1758077225.48509,1758077225.25491,0.0,0.0,0.0,37.58603,9.74028,13.34992,14.11,-1.21,-0.2,4.0
1758077225.50202,1758077225.26491,0.0,0.0,0.0,33.05967,14.03747,16.73037,12.7,-0.56,-0.2,4.0
1758077225.50663,1758077225.27491,0.0,0.0,0.0,29.56462,14.78231,18.22006,12.7,-0.56,-0.2,4.0
1758077225.51581,1758077225.28491,0.0,0.0,0.0,25.49662,15.12609,18.73572,11.56,-0.33,-0.14,4.0
1758077225.51644,1758077225.29491,0.0,0.0,0.0,21.7151,16.95955,18.56383,11.56,-0.33,-0.14,4.0
1758077225.51761,1758077225.30491,0.0,0.0,0.0,15.75634,30.25217,15.75634,11.78,-0.59,-0.15,4.0
1758077225.51863,1758077225.31491,0.0,0.0,0.0,11.45916,36.95578,12.60507,12.24,-1.04,-0.09,4.0
1758077225.52189,1758077225.32491,0.0,0.0,0.0,7.39116,38.78925,9.33921,12.24,-1.04,-0.09,4.0
1758077225.53828,1758077225.33491,0.0,0.0,0.0,3.89611,39.13302,6.07335,10.98,-1.26,0.34,4.0
1758077225.5408,1758077225.34491,0.0,0.0,0.0,0.11459,37.47144,2.7502,10.98,-1.26,0.34,4.0
1758077225.5613,1758077225.35491,0.0,0.0,0.0,-0.80214,32.83048,2.40642,10.35,-1.33,0.57,4.0
1758077225.5665,1758077225.36491,0.0,0.0,0.0,-1.08862,27.67386,3.38045,10.35,-1.33,0.57,4.0
1758077225.58126,1758077225.37491,0.0,0.0,0.0,-0.51566,24.4653,5.32851,9.76,-1.37,0.55,4.0
1758077225.58332,1758077225.38491,0.0,0.0,0.0,1.48969,20.68378,8.76626,9.54,-1.51,0.45,4.0
1758077225.59933,1758077225.39491,0.0,0.0,0.0,3.03668,17.36062,10.54242,9.54,-1.51,0.45,4.0
1758077225.6005,1758077225.40491,0.0,0.0,0.0,4.46907,14.49583,11.91752,9.06,-1.64,0.48,4.0
1758077225.61662,1758077225.41491,0.0,0.0,0.0,6.07335,13.46451,12.60507,9.06,-1.64,0.48,4.0
1758077225.63235,1758077225.42491,0.0,0.0,0.0,7.50575,12.43318,12.2613,9.16,-1.58,0.57,4.0
1758077225.63326,1758077225.43491,0.0,0.0,0.0,8.02141,10.94349,11.97482,9.16,-1.58,0.57,4.0
1758077225.64914,1758077225.44491,0.0,0.0,0.0,8.0787,10.25595,11.28727,9.08,-1.5,0.57,4.0
1758077225.65035,1758077225.45491,0.0,0.0,0.0,7.44845,11.22997,9.4538,9.08,-1.5,0.57,4.0
1758077225.66662,1758077225.46491,0.0,0.0,0.0,6.58902,12.2613,7.96411,9.15,-1.36,0.46,4.0
1758077225.68284,1758077225.47491,0.0,0.0,0.0,5.32851,13.40721,5.84417,9.01,-1.2,0.27,4.0
1758077225.68572,1758077225.48491,0.0,0.0,0.0,4.1253,14.9542,3.60963,9.01,-1.2,0.27,4.0
1758077225.70107,1758077225.49491,0.0,0.0,0.0,2.46372,16.21471,0.57296,8.91,-1.09,0.18,4.0
1758077225.70231,1758077225.50491,0.0,0.0,0.0,1.66158,14.32395,-1.08862,8.91,-1.09,0.18,4.0
1758077225.71859,1758077225.51491,0.0,0.0,0.0,0.85944,10.94349,-2.23454,8.49,-1.04,0.17,4.0
1758077225.72149,1758077225.52491,0.0,0.0,0.0,0.45837,7.50575,-3.20856,8.49,-1.04,0.17,4.0
1758077225.74138,1758077225.53491,0.0,0.0,0.0,0.34377,3.32316,-4.23989,8.31,-1.0,0.09,4.0
1758077225.74311,1758077225.54491,0.0,0.0,0.0,0.97403,0.51566,-4.92744,8.33,-1.0,0.12,4.0
1758077225.75814,1758077225.55491,0.0,0.0,0.0,1.77617,-1.83346,-5.78687,8.33,-1.0,0.12,4.0
1758077225.77494,1758077225.56491,0.0,0.0,0.0,3.09397,-4.69825,-6.47442,8.13,-1.09,0.1,4.0
1758077225.77611,1758077225.57491,0.0,0.0,0.0,5.50039,-11.91752,-7.16197,8.13,-1.09,0.1,4.0
1758077225.79114,1758077225.58491,0.0,0.0,0.0,7.10468,-14.78231,-7.73493,7.63,-1.24,-0.04,4.0
1758077225.79228,1758077225.59491,0.0,0.0,0.0,8.88085,-19.19409,-8.25059,7.63,-1.24,-0.04,4.0
1758077225.80873,1758077225.60491,0.0,0.0,0.0,10.37054,-23.66316,-8.93814,7.36,-1.35,0.0,4.0
1758077225.82523,1758077225.61491,0.0,0.0,0.0,13.06344,-30.59595,-9.39651,7.17,-1.46,0.01,4.0
1758077225.82612,1758077225.62491,0.0,0.0,0.0,14.38124,-34.89313,-9.5684,7.17,-1.46,0.01,4.0
1758077225.84142,1758077225.63491,0.0,0.0,0.0,15.35527,-37.35685,-9.91217,7.15,-1.42,-0.01,4.0
1758077225.849,1758077225.64491,0.0,0.0,0.0,16.10011,-38.56006,-10.19865,7.15,-1.42,-0.01,4.0
1758077225.8653,1758077225.65491,0.0,0.0,0.0,16.3293,-38.61736,-10.08406,7.34,-1.25,-0.11,4.0
1758077225.86698,1758077225.66491,0.0,0.0,0.0,16.38659,-37.29956,-9.85487,7.34,-1.25,-0.11,4.0
1758077225.88304,1758077225.67491,0.0,0.0,0.0,16.10011,-34.66395,-9.68299,7.66,-1.06,-0.08,4.0
1758077225.89055,1758077225.68491,0.0,0.0,0.0,14.9542,-27.1582,-9.74028,7.66,-1.06,-0.08,4.0
1758077225.89116,1758077225.69491,0.0,0.0,0.0,14.15206,-20.85567,-9.96947,8.32,-0.92,-0.15,4.0
1758077225.90979,1758077225.70491,0.0,0.0,0.0,12.14671,-13.5218,-10.71431,9.12,-0.81,-0.42,4.0
1758077225.911,1758077225.71491,0.0,0.0,0.0,10.02676,-7.04738,-11.34457,9.12,-0.81,-0.42,4.0
1758077225.92622,1758077225.72491,0.0,0.0,0.0,6.58902,-0.11459,-12.49048,9.44,-0.75,-0.81,4.0
1758077225.93055,1758077225.73491,0.0,0.0,0.0,3.89611,1.08862,-13.46451,9.44,-0.75,-0.81,4.0
1758077225.9465,1758077225.74491,0.0,0.0,0.0,2.23454,0.51566,-12.89155,9.55,-0.82,-0.93,4.0
1758077225.95137,1758077225.75491,0.0,0.0,0.0,-1.60428,-7.21927,-13.69369,9.55,-0.82,-0.93,4.0
1758077225.96905,1758077225.76491,0.0,0.0,0.0,-4.98473,-18.50654,-12.14671,9.33,-0.98,-0.79,4.0
1758077225.98528,1758077225.77491,0.0,0.0,0.0,-6.07335,-13.12073,-10.8289,10.76,-1.19,-0.81,4.0
1758077225.98729,1758077225.78491,0.0,0.0,0.0,-7.21927,-5.15662,-9.74028,10.76,-1.19,-0.81,4.0
1758077226.00322,1758077225.79491,0.0,0.0,0.0,-8.88085,-3.20856,-9.5684,10.82,-1.3,-0.68,4.0
1758077226.00606,1758077225.80491,0.0,0.0,0.0,-11.51645,-6.07335,-9.62569,10.82,-1.3,-0.68,4.0
1758077226.02155,1758077225.81491,0.0,0.0,0.0,-12.83425,-9.74028,-9.28192,8.59,-1.09,-0.43,4.0
1758077226.02679,1758077225.82491,0.0,0.0,0.0,-14.15206,-13.46451,-8.93814,8.59,-1.09,-0.43,4.0
1758077226.04144,1758077225.83491,0.0,0.0,0.0,-15.12609,-17.18874,-8.70896,7.44,-0.95,-0.22,4.0
1758077226.04243,1758077225.84491,0.0,0.0,0.0,-16.90226,-19.19409,-8.93814,7.46,-0.94,-0.08,4.0
1758077226.0588,1758077225.85491,0.0,0.0,0.0,-18.56383,-16.67307,-9.28192,7.46,-0.94,-0.08,4.0
1758077226.06082,1758077225.86491,0.0,0.0,0.0,-21.14215,-14.09476,-9.33921,8.98,-0.75,0.43,4.0
1758077226.07645,1758077225.87491,0.0,0.0,0.0,-26.35606,-11.28727,-7.21927,8.98,-0.75,0.43,4.0
1758077226.09332,1758077225.88491,0.0,0.0,0.0,-31.28349,-13.5218,-4.64096,11.39,0.0,1.48,4.0
1758077226.09657,1758077225.89491,0.0,0.0,0.0,-36.38282,-22.05888,-1.03132,11.39,0.0,1.48,4.0
1758077226.11332,1758077225.90491,0.0,0.0,0.0,-40.85189,-34.0337,3.38045,12.41,0.85,2.67,4.0
1758077226.11612,1758077225.91491,0.0,0.0,0.0,-46.00851,-40.96649,8.76626,12.41,0.85,2.65,4.0
1758077226.1315,1758077225.92491,0.0,0.0,0.0,-48.30034,-35.12231,9.96947,12.67,1.1,2.65,4.0
1758077226.13561,1758077225.93491,0.0,0.0,0.0,-50.13381,-26.98631,9.5684,14.61,0.76,1.95,4.0
1758077226.15126,1758077225.94491,0.0,0.0,0.0,-51.50891,-20.51189,8.70896,14.61,0.76,1.95,4.0
1758077226.15329,1758077225.95491,0.0,0.0,0.0,-50.01921,-18.22006,8.59437,16.94,1.02,1.36,4.0
1758077226.16927,1758077225.96491,0.0,0.0,0.0,-45.14908,-18.44924,8.47978,16.94,1.02,1.36,4.0
1758077226.17028,1758077225.97491,0.0,0.0,0.0,-38.44547,-12.2613,7.04738,16.89,0.19,-0.87,4.0
1758077226.18666,1758077225.98491,0.0,0.0,0.0,-31.45539,2.40642,3.20856,16.89,0.19,-0.87,4.0
1758077226.19185,1758077225.99491,0.0,0.0,0.0,-22.40265,23.60586,-4.64096,15.2,-1.28,-1.01,4.0
1758077226.20992,1758077226.00491,0.0,0.0,0.0,-17.18874,31.51268,-9.4538,12.18,-1.09,-0.63,4.0
1758077226.21112,1758077226.01491,0.0,0.0,0.0,-12.49048,34.66395,-12.83425,12.18,-1.09,-0.63,4.0
1758077226.22636,1758077226.02491,0.0,0.0,0.0,-8.30789,34.43476,-14.38124,11.33,-0.79,-0.21,4.0
1758077226.25579,1758077226.03491,0.0,0.0,0.0,-2.57831,34.43476,-12.71966,11.33,-0.79,-0.21,4.0
1758077226.27123,1758077226.04491,0.0,0.0,0.0,0.45837,33.86181,-10.31324,12.53,-0.97,0.23,4.0
1758077226.27179,1758077226.05491,0.0,0.0,0.0,2.6929,32.71589,-7.33386,12.53,-0.97,0.23,4.0
1758077226.27313,1758077226.06491,0.0,0.0,0.0,4.81285,32.25753,-3.55234,12.14,-1.02,0.21,4.0
1758077226.28043,1758077226.07491,0.0,0.0,0.0,5.78687,29.39274,-1.77617,10.6,-0.82,0.21,4.0
1758077226.28134,1758077226.08491,0.0,0.0,0.0,5.95876,27.2155,-1.48969,10.6,-0.82,0.21,4.0
1758077226.2964,1758077226.09491,0.0,0.0,0.0,6.53172,24.12152,-1.60428,9.54,-0.51,0.33,4.0
1758077226.30179,1758077226.10491,0.0,0.0,0.0,8.02141,20.05352,-1.48969,9.54,-0.51,0.33,4.0
1758077226.32019,1758077226.11491,0.0,0.0,0.0,9.05273,16.95955,-1.66158,9.52,-0.6,0.0,4.0
1758077226.32613,1758077226.12491,0.0,0.0,0.0,9.85487,13.46451,-1.48969,9.52,-0.6,0.0,4.0
1758077226.34164,1758077226.13491,0.0,0.0,0.0,10.65701,11.28727,-1.3178,9.45,-0.45,0.01,4.0
1758077226.34659,1758077226.14491,0.0,0.0,0.0,11.63104,10.94349,-0.74485,9.55,-0.11,0.0,4.0
1758077226.35217,1758077226.15491,0.0,0.0,0.0,11.97482,10.8862,-0.40107,9.55,-0.11,0.0,4.0
1758077226.37164,1758077226.16491,0.0,0.0,0.0,12.37589,10.8862,-0.0573,9.26,0.26,-0.01,4.0
1758077226.37338,1758077226.17491,0.0,0.0,0.0,12.43318,11.00079,0.11459,9.26,0.26,-0.01,4.0
1758077226.39109,1758077226.18491,0.0,0.0,0.0,12.204,10.59972,0.22918,9.03,0.47,-0.11,4.0
1758077226.39228,1758077226.19491,0.0,0.0,0.0,12.08941,11.91752,0.40107,9.03,0.47,-0.11,4.0
1758077226.40935,1758077226.20491,0.0,0.0,0.0,11.97482,14.20935,0.51566,9.08,0.41,-0.18,4.0
1758077226.42604,1758077226.21491,0.0,0.0,0.0,11.91752,15.24068,0.51566,9.08,0.41,-0.18,4.0
1758077226.43044,1758077226.22491,0.0,0.0,0.0,12.204,14.61043,0.22918,8.86,0.2,-0.28,4.0
1758077226.43097,1758077226.23491,0.0,0.0,0.0,12.37589,12.83425,0.97403,8.39,0.01,-0.39,4.0
1758077226.47875,1758077226.24491,0.0,0.0,0.0,11.91752,10.71431,1.14592,8.39,0.01,-0.39,4.0
1758077226.4951,1758077226.25491,0.0,0.0,0.0,11.91752,7.79223,2.23454,7.98,-0.11,-0.37,4.0
1758077226.49705,1758077226.26491,0.0,0.0,0.0,11.11538,3.09397,2.97938,7.98,-0.11,-0.37,4.0
1758077226.50492,1758077226.27491,0.0,0.0,0.0,10.54242,0.22918,3.83882,7.52,-0.09,-0.55,4.0
1758077226.50605,1758077226.28491,0.0,0.0,0.0,9.74028,-2.7502,4.58366,7.52,-0.09,-0.55,4.0
1758077226.51046,1758077226.29491,0.0,0.0,0.0,8.136,-8.25059,5.32851,7.15,0.07,-0.69,4.0
1758077226.5111,1758077226.30491,0.0,0.0,0.0,6.87549,-11.51645,6.24524,7.13,0.35,-0.86,4.0
1758077226.51185,1758077226.31491,0.0,0.0,0.0,5.21392,-13.5218,7.04738,7.13,0.35,-0.86,4.0
1758077226.52748,1758077226.32491,0.0,0.0,0.0,3.55234,-15.0115,7.84952,7.57,0.64,-0.7,4.0
1758077226.54653,1758077226.33491,0.0,0.0,0.0,1.3178,-18.44924,8.93814,7.57,0.64,-0.7,4.0
1758077226.55207,1758077226.34491,0.0,0.0,0.0,-0.11459,-21.02755,9.74028,7.59,0.78,-0.7,4.0
1758077226.56063,1758077226.35491,0.0,0.0,0.0,-1.3178,-22.40265,10.8289,7.59,0.78,-0.7,4.0
1758077226.58656,1758077226.36491,0.0,0.0,0.0,-2.40642,-22.91831,11.51645,7.83,0.67,-0.69,4.0
1758077226.65629,1758077226.37491,0.0,0.0,0.0,-3.72423,-22.68913,12.204,8.04,0.51,-0.8,4.0
1758077226.66145,1758077226.38491,0.0,0.0,0.0,-4.58366,-21.60051,12.204,8.04,0.51,-0.8,4.0
1758077226.66205,1758077226.39491,0.0,0.0,0.0,-5.27121,-19.48057,12.2613,8.39,0.44,-0.97,4.0
1758077226.66612,1758077226.40491,0.0,0.0,0.0,-6.13065,-16.90226,12.2613,8.39,0.44,-0.97,4.0
1758077226.67028,1758077226.41491,0.0,0.0,0.0,-6.58902,-13.06344,12.14671,8.73,0.46,-1.02,4.0
1758077226.67104,1758077226.42491,0.0,0.0,0.0,-6.58902,-10.59972,12.14671,8.73,0.46,-1.02,4.0
1758077226.67616,1758077226.43491,0.0,0.0,0.0,-6.24524,-8.25059,12.204,8.96,0.43,-0.96,4.0
1758077226.67774,1758077226.44491,0.0,0.0,0.0,-5.50039,-6.24524,12.37589,8.96,0.43,-0.96,4.0
1758077226.68384,1758077226.45491,0.0,0.0,0.0,-3.83882,-5.55769,12.2613,9.08,0.31,-0.92,4.0
1758077226.68688,1758077226.46491,0.0,0.0,0.0,-2.40642,-5.95876,12.2613,9.01,0.14,-0.75,4.0
1758077226.69019,1758077226.47491,0.0,0.0,0.0,-0.74485,-5.84417,12.204,9.01,0.14,-0.75,4.0
1758077226.69083,1758077226.48491,0.0,0.0,0.0,1.77617,-4.18259,11.57375,9.15,0.0,-0.57,4.0
1758077226.69603,1758077226.49491,0.0,0.0,0.0,3.66693,-0.97403,11.00079,9.15,0.0,-0.57,4.0
1758077226.71178,1758077226.50491,0.0,0.0,0.0,5.50039,-2.29183,10.37054,8.92,0.12,-0.28,4.0
1758077226.71637,1758077226.51491,0.0,0.0,0.0,6.8182,-9.4538,9.39651,8.92,0.12,-0.28,4.0
1758077226.73183,1758077226.52491,0.0,0.0,0.0,6.8182,-26.12688,6.35983,7.39,0.5,0.0,4.0
1758077226.73369,1758077226.53491,0.0,0.0,0.0,6.99009,-32.54401,4.23989,7.46,0.89,0.45,4.0
1758077226.75186,1758077226.54491,0.0,0.0,0.0,7.73493,-33.68992,1.60428,7.46,0.89,0.45,4.0
1758077226.75359,1758077226.55491,0.0,0.0,0.0,9.74028,-28.76248,-0.45837,11.36,0.51,1.84,4.0
1758077226.77088,1758077226.56491,0.0,0.0,0.0,14.9542,-12.08941,-5.90147,11.36,0.51,1.84,4.0
1758077226.77254,1758077226.57491,0.0,0.0,0.0,18.22006,-9.11003,-10.02676,15.25,-1.07,2.33,4.0
1758077226.78788,1758077226.58491,0.0,0.0,0.0,23.0902,-14.61043,-12.37589,15.25,-1.07,2.33,4.0
1758077226.80494,1758077226.59491,0.0,0.0,0.0,28.76248,-19.36597,-11.86023,13.76,-3.12,1.95,4.0
1758077226.80658,1758077226.60491,0.0,0.0,0.0,35.75257,-16.84496,-5.61499,13.03,-3.6,1.21,4.0
1758077226.82278,1758077226.61491,0.0,0.0,0.0,39.19032,-8.47978,0.45837,13.03,-3.6,1.21,4.0
1758077226.82855,1758077226.62491,0.0,0.0,0.0,41.59674,2.34913,5.72958,14.89,-2.68,1.58,4.0
1758077226.84492,1758077226.63491,0.0,0.0,0.0,41.59674,4.69825,7.79223,14.89,-2.68,1.58,4.0
1758077226.85138,1758077226.64491,0.0,0.0,0.0,38.27358,2.6929,7.79223,16.06,-1.99,0.36,4.0
1758077226.85622,1758077226.65491,0.0,0.0,0.0,34.66395,3.89611,8.25059,16.06,-1.99,0.36,4.0
1758077226.87162,1758077226.66491,0.0,0.0,0.0,31.11161,9.74028,9.5684,15.25,-1.56,-1.12,4.0
1758077226.87602,1758077226.67491,0.0,0.0,0.0,27.84575,19.76705,13.5218,15.25,-1.56,-1.12,4.0
1758077226.89164,1758077226.68491,0.0,0.0,0.0,22.51724,29.73651,15.58445,13.31,-1.35,-0.56,4.0
1758077226.9214,1758077226.69491,0.0,0.0,0.0,18.33465,31.39809,16.84496,11.34,-0.8,0.05,4.0
1758077226.92201,1758077226.70491,0.0,0.0,0.0,14.03747,29.62192,16.84496,11.34,-0.8,0.05,4.0
1758077226.92326,1758077226.71491,0.0,0.0,0.0,7.67763,21.88699,14.72501,11.06,-0.31,0.13,4.0
1758077226.92384,1758077226.72491,0.0,0.0,0.0,3.32316,19.19409,13.23533,11.06,-0.31,0.13,4.0
1758077226.94001,1758077226.73491,0.0,0.0,0.0,-1.3751,30.25217,9.74028,12.03,-0.41,0.21,4.0
1758077226.94244,1758077226.74491,0.0,0.0,0.0,-6.7609,42.34158,6.13065,12.03,-0.41,0.21,4.0
1758077226.96098,1758077226.75491,0.0,0.0,0.0,-14.49583,45.60744,2.86479,12.99,-1.12,0.33,4.0
1758077226.96189,1758077226.76491,0.0,0.0,0.0,-18.33465,40.96649,1.3751,10.79,-1.42,0.68,4.0
1758077226.9767,1758077226.77491,0.0,0.0,0.0,-20.3973,35.92446,1.08862,10.79,-1.42,0.68,4.0
1758077226.99579,1758077226.78491,0.0,0.0,0.0,-20.34,32.08564,2.23454,10.43,-1.34,0.25,4.0
1758077226.99665,1758077226.79491,0.0,0.0,0.0,-18.27736,24.75178,4.69825,10.43,-1.34,0.25,4.0
1758077227.01199,1758077226.80491,0.0,0.0,0.0,-16.67307,20.3973,6.24524,10.12,-1.4,0.48,4.0
1758077227.01607,1758077226.81491,0.0,0.0,0.0,-15.0115,17.30333,7.39116,10.12,-1.4,0.48,4.0
1758077227.03196,1758077226.82491,0.0,0.0,0.0,-13.46451,16.10011,7.84952,9.79,-1.48,0.46,4.0
1758077227.03364,1758077226.83491,0.0,0.0,0.0,-11.80293,13.98017,7.67763,9.24,-1.6,0.56,4.0
1758077227.05612,1758077226.84491,0.0,0.0,0.0,-11.22997,12.08941,7.16197,9.24,-1.6,0.56,4.0
1758077227.05862,1758077226.85491,0.0,0.0,0.0,-11.22997,11.80293,6.13065,8.84,-1.66,0.5,4.0
1758077227.06088,1758077226.86491,0.0,0.0,0.0,-11.80293,13.5791,4.64096,8.84,-1.66,0.5,4.0
1758077227.07702,1758077226.87491,0.0,0.0,0.0,-13.34992,14.66772,2.00535,8.78,-1.6,0.31,4.0
1758077227.09306,1758077226.88491,0.0,0.0,0.0,-14.38124,15.46986,-0.11459,8.78,-1.6,0.31,4.0
1758077227.09581,1758077226.89491,0.0,0.0,0.0,-15.06879,16.272,-2.29183,8.45,-1.45,0.28,4.0
1758077227.11106,1758077226.90491,0.0,0.0,0.0,-15.35527,15.58445,-4.87014,8.45,-1.45,0.28,4.0
1758077227.11197,1758077226.91491,0.0,0.0,0.0,-14.78231,14.20935,-5.78687,8.07,-1.41,0.15,4.0
1758077227.12889,1758077226.92491,0.0,0.0,0.0,-13.5791,13.34992,-6.41713,7.91,-1.51,0.08,4.0
1758077227.14499,1758077226.93491,0.0,0.0,0.0,-12.2613,10.94349,-6.53172,7.91,-1.51,0.08,4.0
1758077227.14683,1758077226.94491,0.0,0.0,0.0,-9.96947,5.55769,-6.70361,7.5,-1.57,0.02,4.0
1758077227.15323,1758077226.95491,0.0,0.0,0.0,-8.36518,2.06265,-7.16197,7.5,-1.57,0.02,4.0
1758077227.16611,1758077226.96491,0.0,0.0,0.0,-6.8182,-1.66158,-8.0787,7.23,-1.5,-0.15,4.0
1758077227.18559,1758077226.97491,0.0,0.0,0.0,-5.27121,-6.18794,-8.99544,7.23,-1.5,-0.15,4.0
1758077227.18675,1758077226.98491,0.0,0.0,0.0,-2.97938,-11.63104,-10.48513,7.08,-1.4,-0.18,4.0
1758077227.20583,1758077226.99491,0.0,0.0,0.0,-1.14592,-15.69904,-11.17268,7.21,-1.37,-0.21,4.0
1758077227.20678,1758077227.00491,0.0,0.0,0.0,0.57296,-18.9649,-11.97482,7.21,-1.37,-0.21,4.0
1758077227.22505,1758077227.01491,0.0,0.0,0.0,2.46372,-21.42862,-12.71966,7.34,-1.46,-0.26,4.0
1758077227.2271,1758077227.02491,0.0,0.0,0.0,5.09932,-22.74642,-13.5791,7.34,-1.46,-0.26,4.0
1758077227.25589,1758077227.03491,0.0,0.0,0.0,6.47442,-23.0902,-14.15206,7.64,-1.55,-0.2,4.0
1758077227.25698,1758077227.04491,0.0,0.0,0.0,7.39116,-22.68913,-14.43854,7.64,-1.55,-0.2,4.0
1758077227.2608,1758077227.05491,0.0,0.0,0.0,7.96411,-21.7151,-14.49583,8.03,-1.52,-0.1,4.0
1758077227.26201,1758077227.06491,0.0,0.0,0.0,7.39116,-21.02755,-14.20935,8.39,-1.4,-0.11,4.0
1758077227.27708,1758077227.07491,0.0,0.0,0.0,6.41713,-20.22541,-14.09476,8.39,-1.4,-0.11,4.0
1758077227.2956,1758077227.08491,0.0,0.0,0.0,4.81285,-18.90761,-13.75099,8.85,-1.18,-0.28,4.0
1758077227.29658,1758077227.09491,0.0,0.0,0.0,2.92208,-17.13144,-13.5791,8.85,-1.18,-0.28,4.0
1758077227.31208,1758077227.10491,0.0,0.0,0.0,0.17189,-13.23533,-13.23533,9.35,-0.99,-0.43,4.0
1758077227.31301,1758077227.11491,0.0,0.0,0.0,-1.3751,-10.8289,-13.00614,9.35,-0.99,-0.43,4.0
1758077227.32963,1758077227.12491,0.0,0.0,0.0,-2.6929,-8.70896,-13.06344,9.68,-0.95,-0.54,4.0
1758077227.33083,1758077227.13491,0.0,0.0,0.0,-4.29718,-6.18794,-12.71966,9.68,-0.95,-0.54,4.0
1758077227.34891,1758077227.14491,0.0,0.0,0.0,-5.27121,-5.27121,-12.71966,9.85,-1.12,-0.59,4.0
1758077227.36591,1758077227.15491,0.0,0.0,0.0,-6.53172,-5.21392,-12.71966,9.86,-1.36,-0.6,4.0
1758077227.36766,1758077227.16491,0.0,0.0,0.0,-7.67763,-4.69825,-12.60507,9.86,-1.36,-0.6,4.0
1758077227.38495,1758077227.17491,0.0,0.0,0.0,-9.33921,-3.55234,-12.43318,9.81,-1.54,-0.64,4.0
1758077227.38902,1758077227.18491,0.0,0.0,0.0,-10.08406,-2.00535,-12.2613,9.81,-1.54,-0.64,4.0
1758077227.40396,1758077227.19491,0.0,0.0,0.0,-10.94349,-2.00535,-12.14671,9.62,-1.55,-0.74,4.0
1758077227.40509,1758077227.20491,0.0,0.0,0.0,-12.2613,-4.35448,-11.91752,9.62,-1.55,-0.74,4.0
1758077227.4207,1758077227.21491,0.0,0.0,0.0,-14.43854,-8.65166,-11.97482,8.86,-1.34,-0.73,4.0
1758077227.42374,1758077227.22491,0.0,0.0,0.0,-15.92823,-10.71431,-12.14671,8.49,-1.08,-0.78,4.0
1758077227.44098,1758077227.23491,0.0,0.0,0.0,-16.95955,-10.25595,-12.08941,8.49,-1.08,-0.78,4.0
1758077227.44611,1758077227.24491,0.0,0.0,0.0,-17.81899,-9.68299,-11.80293,8.53,-0.99,-0.78,4.0
1758077227.46116,1758077227.25491,0.0,0.0,0.0,-18.85031,-11.63104,-11.63104,8.53,-0.99,-0.78,4.0
1758077227.46326,1758077227.26491,0.0,0.0,0.0,-19.82434,-14.9542,-11.45916,8.1,-1.0,-0.39,4.0
1758077227.47788,1758077227.27491,0.0,0.0,0.0,-21.08485,-16.38659,-10.54242,8.1,-1.0,-0.39,4.0
1758077227.49521,1758077227.28491,0.0,0.0,0.0,-22.57454,-15.75634,-8.76626,9.38,-0.77,0.63,4.0
1758077227.49686,1758077227.29491,0.0,0.0,0.0,-26.64254,-15.12609,-4.1253,11.85,-0.44,2.57,4.0
1758077227.53589,1758077227.30491,0.0,0.0,0.0,-30.13758,-17.36062,-0.97403,11.85,-0.44,2.57,4.0
1758077227.53761,1758077227.31491,0.0,0.0,0.0,-34.14828,-20.11082,1.03132,12.51,-0.22,3.65,4.0
1758077227.53906,1758077227.32491,0.0,0.0,0.0,-38.73195,-25.72581,4.0107,12.51,-0.22,3.65,4.0
1758077227.54195,1758077227.33491,0.0,0.0,0.0,-38.1017,-59.98868,7.33386,10.6,0.03,3.44,4.0
1758077227.54425,1758077227.34491,0.0,0.0,0.0,-37.01308,-71.39055,8.59437,10.6,0.03,3.44,4.0
1758077227.56096,1758077227.35491,0.0,0.0,0.0,-35.52338,-61.70755,6.99009,11.64,0.28,2.34,4.0
1758077227.56285,1758077227.36491,0.0,0.0,0.0,-30.88243,-25.15285,0.97403,11.64,0.28,2.34,4.0
1758077227.5806,1758077227.37491,0.0,0.0,0.0,-27.33009,-3.55234,-3.83882,16.0,0.03,0.0,4.0
1758077227.58148,1758077227.38491,0.0,0.0,0.0,-23.20479,7.39116,-6.87549,15.66,-0.31,0.3,4.0
1758077227.59728,1758077227.39491,0.0,0.0,0.0,-19.36597,6.99009,-7.62034,15.66,-0.31,0.3,4.0
1758077227.6013,1758077227.40491,0.0,0.0,0.0,-12.14671,10.08406,-4.35448,15.61,-0.33,-0.57,4.0
1758077227.61737,1758077227.41491,0.0,0.0,0.0,-6.87549,16.04282,-1.03132,15.61,-0.33,-0.57,4.0
1758077227.62134,1758077227.42491,0.0,0.0,0.0,-2.86479,24.29341,0.68755,15.37,-0.74,-1.52,4.0
1758077227.6657,1758077227.43491,0.0,0.0,0.0,0.34377,35.40879,0.40107,15.37,-0.74,-1.52,4.0
1758077227.66662,1758077227.44491,0.0,0.0,0.0,5.95876,53.80074,-1.77617,13.25,-0.97,-0.97,4.0
1758077227.66968,1758077227.45491,0.0,0.0,0.0,10.65701,65.37449,-3.38045,12.69,-0.89,-0.51,4.0
1758077227.67101,1758077227.46491,0.0,0.0,0.0,15.46986,71.73432,-4.29718,12.69,-0.89,-0.51,4.0
1758077227.67159,1758077227.47491,0.0,0.0,0.0,19.42327,73.91156,-4.35448,12.06,-0.84,-0.12,4.0
1758077227.68892,1758077227.48491,0.0,0.0,0.0,21.94428,71.79161,-3.26586,12.06,-0.84,-0.12,4.0
1758077227.70575,1758077227.49491,0.0,0.0,0.0,21.60051,68.41116,-2.34913,11.31,-0.6,-0.04,4.0
1758077227.71502,1758077227.50491,0.0,0.0,0.0,19.88164,63.8275,-1.43239,11.31,-0.6,-0.04,4.0
1758077227.71635,1758077227.51491,0.0,0.0,0.0,17.36062,58.49899,-0.40107,10.31,-0.16,0.43,4.0
1758077227.733,1758077227.52491,0.0,0.0,0.0,12.71966,48.9306,-0.17189,9.17,0.22,0.55,4.0
1758077227.73579,1758077227.53491,0.0,0.0,0.0,9.68299,41.65404,-0.40107,9.17,0.22,0.55,4.0
1758077227.75133,1758077227.54491,0.0,0.0,0.0,7.16197,34.43476,-0.85944,8.27,0.48,0.48,4.0
1758077227.75383,1758077227.55491,0.0,0.0,0.0,4.18259,23.83505,-2.00535,8.27,0.48,0.48,4.0
1758077227.76982,1758077227.56491,0.0,0.0,0.0,2.63561,18.90761,-3.09397,7.73,0.61,0.38,4.0
1758077227.77129,1758077227.57491,0.0,0.0,0.0,1.94806,16.272,-3.20856,7.73,0.61,0.38,4.0
1758077227.79004,1758077227.58491,0.0,0.0,0.0,1.60428,14.38124,-3.38045,7.75,0.61,0.32,4.0
1758077227.79147,1758077227.59491,0.0,0.0,0.0,0.97403,10.08406,-2.97938,7.75,0.61,0.25,4.0
1758077227.80907,1758077227.60491,0.0,0.0,0.0,0.45837,6.47442,-2.46372,7.39,0.59,0.25,4.0
1758077227.82586,1758077227.61491,0.0,0.0,0.0,-0.11459,1.83346,-2.23454,6.86,0.56,-0.08,4.0
1758077227.83029,1758077227.62491,0.0,0.0,0.0,-0.80214,-2.97938,-1.3178,6.86,0.56,-0.08,4.0
1758077227.84513,1758077227.63491,0.0,0.0,0.0,-2.06265,-10.08406,0.0,6.68,0.49,-0.34,4.0
1758077227.84623,1758077227.64491,0.0,0.0,0.0,-2.63561,-14.49583,0.85944,6.68,0.49,-0.34,4.0
1758077227.86106,1758077227.65491,0.0,0.0,0.0,-3.26586,-19.13679,1.66158,6.86,0.39,-0.4,4.0
1758077227.8663,1758077227.66491,0.0,0.0,0.0,-3.60963,-23.0902,2.29183,6.86,0.39,-0.4,4.0
1758077227.88937,1758077227.67491,0.0,0.0,0.0,-3.83882,-27.38738,2.7502,7.3,0.27,-0.33,4.0
1758077227.8958,1758077227.68491,0.0,0.0,0.0,-3.60963,-29.50733,3.20856,7.74,0.13,-0.11,4.0
1758077227.89639,1758077227.69491,0.0,0.0,0.0,-3.26586,-31.91375,3.55234,7.74,0.13,-0.11,4.0
1758077227.90161,1758077227.70491,0.0,0.0,0.0,-2.7502,-33.9764,3.83882,7.82,-0.02,0.18,4.0
1758077227.919,1758077227.71491,0.0,0.0,0.0,-1.77617,-35.06502,4.0107,7.82,-0.02,0.18,4.0
1758077227.92144,1758077227.72491,0.0,0.0,0.0,-1.03132,-34.49206,4.18259,8.06,-0.09,0.24,4.0
1758077227.93811,1758077227.73491,0.0,0.0,0.0,-0.51566,-32.54401,4.46907,8.06,-0.09,0.24,4.0
1758077227.95436,1758077227.74491,0.0,0.0,0.0,0.51566,-28.99167,4.92744,8.34,-0.05,0.06,4.0
1758077227.95693,1758077227.75491,0.0,0.0,0.0,1.48969,-23.37668,5.50039,8.54,-0.01,-0.3,4.0
1758077227.97518,1758077227.76491,0.0,0.0,0.0,2.40642,-20.16812,6.35983,8.54,-0.01,-0.3,4.0
1758077227.97653,1758077227.77491,0.0,0.0,0.0,3.32316,-17.01685,6.99009,8.59,0.0,-0.59,4.0
1758077227.99139,1758077227.78491,0.0,0.0,0.0,4.87014,-13.40721,7.84952,8.59,0.0,-0.59,4.0
1758077227.99584,1758077227.79491,0.0,0.0,0.0,6.24524,-11.34457,8.59437,8.69,-0.05,-0.84,4.0
1758077228.03914,1758077227.80491,0.0,0.0,0.0,7.50575,-10.02676,9.05273,8.69,-0.05,-0.84,4.0
1758077228.04085,1758077227.81491,0.0,0.0,0.0,8.93814,-8.76626,9.68299,8.92,-0.07,-0.96,4.0
1758077228.04145,1758077227.82491,0.0,0.0,0.0,10.8862,-7.50575,10.48513,9.26,-0.06,-1.0,4.0
1758077228.04671,1758077227.83491,0.0,0.0,0.0,11.91752,-7.10468,10.8289,9.26,-0.06,-1.0,4.0
1758077228.0473,1758077227.84491,0.0,0.0,0.0,12.83425,-6.87549,11.22997,9.5,0.0,-0.96,4.0
1758077228.06549,1758077227.85491,0.0,0.0,0.0,13.98017,-7.16197,11.28727,9.5,0.0,-0.96,4.0
1758077228.06636,1758077227.86491,0.0,0.0,0.0,15.69904,-8.76626,11.00079,9.51,0.09,-0.98,4.0
1758077228.08145,1758077227.87491,0.0,0.0,0.0,16.67307,-10.8289,10.02676,9.51,0.09,-0.98,4.0
1758077228.10942,1758077227.88491,0.0,0.0,0.0,18.22006,-14.09476,9.22462,9.13,0.12,-0.88,4.0
1758077228.11092,1758077227.89491,0.0,0.0,0.0,19.42327,-17.53251,8.36518,9.13,0.12,-0.88,4.0
1758077228.11298,1758077227.90491,0.0,0.0,0.0,21.48592,-20.3973,6.99009,8.57,0.16,-0.68,4.0
1758077228.11635,1758077227.91491,0.0,0.0,0.0,23.37668,-22.00158,6.07335,8.76,0.27,0.38,4.0
1758077228.13307,1758077227.92491,0.0,0.0,0.0,25.7831,-25.61122,4.35448,8.76,0.27,0.38,4.0
1758077228.13613,1758077227.93491,0.0,0.0,0.0,28.41871,-28.70519,0.0,10.24,0.07,2.23,4.0
1758077228.15151,1758077227.94491,0.0,0.0,0.0,32.83048,-33.11696,-2.7502,10.24,0.07,2.23,4.0
1758077228.15266,1758077227.95491,0.0,0.0,0.0,35.3515,-39.3622,-4.69825,11.78,-0.8,3.15,4.0
1758077228.1691,1758077227.96491,0.0,0.0,0.0,37.81522,-44.63341,-5.50039,11.78,-0.8,3.15,4.0
1758077228.18942,1758077227.97491,0.0,0.0,0.0,40.68,-45.20637,-2.40642,11.53,-2.09,2.78,4.0
1758077228.20083,1758077227.98491,0.0,0.0,0.0,41.48215,-42.05511,1.83346,12.24,-2.57,2.2,4.0
1758077228.20606,1758077227.99491,0.0,0.0,0.0,41.42485,-35.52338,6.87549,12.24,-2.57,2.2,4.0
1758077228.20961,1758077228.00491,0.0,0.0,0.0,40.16434,-24.98096,11.91752,13.46,-2.02,0.44,4.0
1758077228.23043,1758077228.01491,0.0,0.0,0.0,36.49741,-4.64096,16.73037,13.46,-2.02,0.44,4.0
1758077228.28691,1758077228.02491,0.0,0.0,0.0,33.11696,4.46907,17.58981,14.38,-1.17,0.13,4.0
1758077228.29008,1758077228.03491,0.0,0.0,0.0,28.64789,2.57831,15.87093,14.38,-1.17,0.13,4.0
1758077228.29765,1758077228.04491,0.0,0.0,0.0,23.54857,-5.21392,11.74564,14.63,-0.99,0.42,4.0
1758077228.30072,1758077228.05491,0.0,0.0,0.0,15.98552,-0.34377,4.98473,15.49,-1.59,-1.18,4.0
1758077228.32599,1758077228.06491,0.0,0.0,0.0,13.5218,13.12073,3.49504,15.49,-1.59,-1.18,4.0
1758077228.32648,1758077228.07491,0.0,0.0,0.0,11.86023,25.61122,3.66693,14.49,-2.13,-0.8,4.0
1758077228.39218,1758077228.08491,0.0,0.0,0.0,10.8289,32.83048,5.21392,14.49,-2.13,-0.8,4.0
1758077228.40111,1758077228.09491,0.0,0.0,0.0,9.5684,37.58603,8.36518,12.06,-1.39,0.11,4.0
1758077228.42991,1758077228.10491,0.0,0.0,0.0,8.36518,45.26366,8.88085,12.06,-1.39,0.11,4.0
1758077228.43284,1758077228.11491,0.0,0.0,0.0,6.24524,50.82136,7.96411,12.58,-0.47,-0.08,4.0
1758077228.43721,1758077228.12491,0.0,0.0,0.0,3.83882,51.45161,6.53172,12.58,-0.47,-0.08,4.0
1758077228.43792,1758077228.13491,0.0,0.0,0.0,-0.40107,49.79003,2.06265,11.9,-0.19,0.16,4.0
1758077228.43868,1758077228.14491,0.0,0.0,0.0,-2.57831,47.78468,-0.85944,11.12,-0.51,0.29,4.0
1758077228.44132,1758077228.15491,0.0,0.0,0.0,-3.89611,45.20637,-2.97938,11.12,-0.51,0.29,4.0
1758077228.44199,1758077228.16491,0.0,0.0,0.0,-4.23989,41.76862,-4.58366,10.43,-0.97,0.28,4.0
1758077228.44878,1758077228.17491,0.0,0.0,0.0,-3.66693,36.38282,-4.69825,10.43,-0.97,0.28,4.0
1758077228.44938,1758077228.18491,0.0,0.0,0.0,-2.6929,31.79916,-4.1253,9.57,-1.27,0.26,4.0
1758077228.45063,1758077228.19491,0.0,0.0,0.0,-1.43239,27.1582,-3.03668,9.57,-1.27,0.26,4.0
1758077228.45126,1758077228.20491,0.0,0.0,0.0,0.0,22.28806,-1.66158,8.72,-1.4,0.21,4.0
1758077228.45331,1758077228.21491,0.0,0.0,0.0,0.22918,19.70975,-1.14592,8.18,-1.37,-0.03,4.0
1758077228.45578,1758077228.22491,0.0,0.0,0.0,-0.11459,17.81899,-1.20321,8.18,-1.37,-0.03,4.0
1758077228.45628,1758077228.23491,0.0,0.0,0.0,-0.40107,15.87093,-1.94806,7.71,-1.29,-0.3,4.0
1758077228.45744,1758077228.24491,0.0,0.0,0.0,-0.40107,10.08406,-3.20856,7.71,-1.29,-0.3,4.0
1758077228.45825,1758077228.25491,0.0,0.0,0.0,0.11459,5.27121,-4.18259,7.03,-1.25,-0.37,4.0
1758077228.47624,1758077228.26491,0.0,0.0,0.0,0.85944,0.85944,-5.32851,7.03,-1.25,-0.37,4.0
1758077228.47906,1758077228.27491,0.0,0.0,0.0,2.06265,-2.97938,-6.8182,6.88,-1.26,-0.05,4.0
1758077228.49643,1758077228.28491,0.0,0.0,0.0,4.29718,-9.22462,-9.05273,6.91,-1.24,0.0,4.0
1758077228.49738,1758077228.29491,0.0,0.0,0.0,6.35983,-13.69369,-10.08406,6.91,-1.24,0.0,4.0
1758077228.51244,1758077228.30491,0.0,0.0,0.0,8.36518,-17.87628,-10.8289,6.87,-1.33,-0.26,4.0
1758077228.51365,1758077228.31491,0.0,0.0,0.0,10.37054,-21.31403,-11.00079,6.87,-1.33,-0.26,4.0
1758077228.52843,1758077228.32491,0.0,0.0,0.0,13.06344,-24.80907,-10.71431,7.05,-1.52,-0.36,4.0
1758077228.54617,1758077228.33491,0.0,0.0,0.0,14.72501,-25.89769,-10.48513,7.05,-1.52,-0.36,4.0
1758077228.54899,1758077228.34491,0.0,0.0,0.0,15.75634,-25.89769,-10.02676,7.42,-1.59,-0.31,4.0
1758077228.56599,1758077228.35491,0.0,0.0,0.0,16.50119,-24.35071,-9.62569,7.42,-1.59,-0.31,4.0
1758077228.5698,1758077228.36491,0.0,0.0,0.0,16.272,-21.48592,-10.02676,7.94,-1.42,-0.35,4.0
1758077228.61132,1758077228.37491,0.0,0.0,0.0,15.69904,-20.34,-10.65701,8.29,-1.14,-0.41,4.0
1758077228.61544,1758077228.38491,0.0,0.0,0.0,14.66772,-18.73572,-11.63104,8.29,-1.14,-0.41,4.0
1758077228.61609,1758077228.39491,0.0,0.0,0.0,13.00614,-16.3293,-13.06344,8.65,-0.94,-0.53,4.0
1758077228.61895,1758077228.40491,0.0,0.0,0.0,11.63104,-15.69904,-13.5791,8.65,-0.94,-0.53,4.0
1758077228.61954,1758077228.41491,0.0,0.0,0.0,9.96947,-15.41257,-14.09476,8.74,-0.92,-0.6,4.0
1758077228.62164,1758077228.42491,0.0,0.0,0.0,8.47978,-14.9542,-14.09476,8.74,-0.92,-0.6,4.0
1758077228.64088,1758077228.43491,0.0,0.0,0.0,6.41713,-13.86558,-13.98017,8.81,-0.94,-0.76,4.0
1758077228.64164,1758077228.44491,0.0,0.0,0.0,5.21392,-13.40721,-13.5218,8.75,-1.02,-0.8,4.0
1758077228.65933,1758077228.45491,0.0,0.0,0.0,4.0107,-13.34992,-13.06344,8.75,-1.02,-0.8,4.0
1758077228.67548,1758077228.46491,0.0,0.0,0.0,2.86479,-13.5218,-12.60507,8.4,-1.13,-0.73,4.0
1758077228.67641,1758077228.47491,0.0,0.0,0.0,0.85944,-15.12609,-12.14671,8.4,-1.13,-0.73,4.0
1758077228.69547,1758077228.48491,0.0,0.0,0.0,-0.40107,-16.90226,-11.57375,7.99,-1.18,-0.6,4.0
1758077228.69673,1758077228.49491,0.0,0.0,0.0,-1.83346,-19.42327,-10.8862,7.99,-1.18,-0.6,4.0
1758077228.71388,1758077228.50491,0.0,0.0,0.0,-3.72423,-23.37668,-9.28192,8.31,-1.07,0.43,4.0
1758077228.71588,1758077228.51491,0.0,0.0,0.0,-8.30789,-26.64254,-4.92744,10.82,-0.62,2.46,4.0
1758077228.73151,1758077228.52491,0.0,0.0,0.0,-13.06344,-23.94964,-0.51566,10.82,-0.62,2.46,4.0
1758077228.73586,1758077228.53491,0.0,0.0,0.0,-19.59516,-19.76705,5.15662,15.12,0.28,4.32,4.0
1758077228.75168,1758077228.54491,0.0,0.0,0.0,-27.73116,-16.10011,9.74028,15.12,0.28,4.32,4.0
1758077228.75511,1758077228.55491,0.0,0.0,0.0,-38.27358,-21.60051,13.06344,14.8,1.34,3.19,4.0
1758077228.77042,1758077228.56491,0.0,0.0,0.0,-44.63341,-41.13837,11.86023,14.8,1.34,3.19,4.0
1758077228.77201,1758077228.57491,0.0,0.0,0.0,-42.91454,-63.54102,12.71966,10.05,1.57,1.53,4.0
1758077228.78879,1758077228.58491,0.0,0.0,0.0,-40.45082,-65.08801,6.8182,10.05,1.57,1.53,4.0
1758077228.80576,1758077228.59491,0.0,0.0,0.0,-37.01308,-26.24147,0.11459,12.34,0.43,-0.04,4.0
1758077228.80908,1758077228.60491,0.0,0.0,0.0,-31.62727,1.03132,-7.04738,16.43,-0.97,-0.54,4.0
1758077228.82897,1758077228.61491,0.0,0.0,0.0,-24.92367,14.38124,-11.57375,16.43,-0.97,-0.54,4.0
1758077228.83148,1758077228.62491,0.0,0.0,0.0,-14.20935,9.68299,-11.11538,15.0,-1.42,0.61,4.0
1758077228.85513,1758077228.63491,0.0,0.0,0.0,-8.42248,4.98473,-7.73493,15.0,-1.42,0.61,4.0
1758077228.85608,1758077228.64491,0.0,0.0,0.0,-3.83882,9.74028,-2.97938,15.55,-0.92,-0.59,4.0
1758077228.85667,1758077228.65491,0.0,0.0,0.0,-1.03132,19.13679,0.57296,15.55,-0.92,-0.59,4.0
1758077228.87551,1758077228.66491,0.0,0.0,0.0,2.00535,32.25753,1.77617,14.78,-0.18,-0.97,4.0
1758077228.8776,1758077228.67491,0.0,0.0,0.0,3.72423,38.15899,1.08862,12.12,0.13,-0.33,4.0
1758077228.89626,1758077228.68491,0.0,0.0,0.0,5.15662,41.08107,-0.97403,12.12,0.13,-0.33,4.0
1758077228.89875,1758077228.69491,0.0,0.0,0.0,6.58902,46.1804,-3.60963,12.09,0.12,-0.21,4.0
1758077228.91626,1758077228.70491,0.0,0.0,0.0,11.00079,61.1346,-4.23989,12.09,0.12,-0.21,4.0
1758077228.92066,1758077228.71491,0.0,0.0,0.0,14.32395,63.77021,-3.55234,13.3,-0.25,0.09,4.0
1758077228.9216,1758077228.72491,0.0,0.0,0.0,15.98552,60.27517,-3.49504,13.3,-0.25,0.09,4.0
1758077228.94045,1758077228.73491,0.0,0.0,0.0,16.90226,53.34238,-2.46372,11.34,-0.39,0.46,4.0
1758077228.95586,1758077228.74491,0.0,0.0,0.0,15.92823,46.98254,-2.06265,10.28,-0.08,0.3,4.0
1758077228.95702,1758077228.75491,0.0,0.0,0.0,14.32395,42.22699,-2.57831,10.28,-0.08,0.3,4.0
1758077228.97185,1758077228.76491,0.0,0.0,0.0,12.08941,35.92446,-3.20856,9.25,0.39,0.67,4.0
1758077228.97372,1758077228.77491,0.0,0.0,0.0,9.5684,28.41871,-4.0107,9.25,0.39,0.67,4.0
1758077228.99186,1758077228.78491,0.0,0.0,0.0,5.78687,16.84496,-4.23989,8.38,0.82,0.85,4.0
1758077228.99359,1758077228.79491,0.0,0.0,0.0,3.38045,11.63104,-4.1253,8.38,0.82,0.85,4.0
1758077229.00864,1758077228.80491,0.0,0.0,0.0,1.48969,10.02676,-3.66693,8.35,0.98,0.67,4.0
1758077229.02641,1758077228.81491,0.0,0.0,0.0,-0.45837,11.57375,-2.63561,8.35,0.98,0.67,4.0
1758077229.02713,1758077228.82491,0.0,0.0,0.0,-1.66158,11.91752,-1.83346,8.84,0.88,0.62,4.0
1758077229.04358,1758077228.83491,0.0,0.0,0.0,-2.34913,10.19865,-1.14592,8.56,0.66,0.56,4.0
1758077229.04558,1758077228.84491,0.0,0.0,0.0,-2.6929,7.79223,-0.40107,8.56,0.66,0.56,4.0
1758077229.06061,1758077228.85491,0.0,0.0,0.0,-2.7502,3.38045,0.57296,8.24,0.41,0.38,4.0
1758077229.06526,1758077228.86491,0.0,0.0,0.0,-2.57831,0.57296,1.3178,8.24,0.41,0.38,4.0
1758077229.08188,1758077228.87491,0.0,0.0,0.0,-2.29183,-2.00535,2.00535,8.29,0.19,0.26,4.0
1758077229.08358,1758077228.88491,0.0,0.0,0.0,-2.00535,-4.58366,2.57831,8.29,0.19,0.26,4.0
1758077229.10044,1758077228.89491,0.0,0.0,0.0,-1.3751,-7.96411,3.09397,8.39,0.07,0.15,4.0
1758077229.12403,1758077228.90491,0.0,0.0,0.0,-1.14592,-10.19865,3.38045,8.53,0.03,-0.02,4.0
1758077229.12456,1758077228.91491,0.0,0.0,0.0,-0.85944,-12.60507,3.49504,8.53,0.03,-0.02,4.0
1758077229.12573,1758077228.92491,0.0,0.0,0.0,-0.40107,-15.24068,3.55234,8.54,0.03,-0.12,4.0
1758077229.14066,1758077228.93491,0.0,0.0,0.0,0.57296,-17.87628,3.83882,8.54,0.03,-0.12,4.0
1758077229.14181,1758077228.94491,0.0,0.0,0.0,1.43239,-17.93358,4.1253,8.75,0.04,-0.19,4.0
1758077229.1569,1758077228.95491,0.0,0.0,0.0,2.29183,-16.90226,4.35448,8.75,0.04,-0.19,4.0
1758077229.17277,1758077228.96491,0.0,0.0,0.0,2.86479,-16.272,4.92744,9.12,0.11,-0.19,4.0
1758077229.1758,1758077228.97491,0.0,0.0,0.0,3.38045,-16.10011,5.95876,9.17,0.16,-0.2,4.0
1758077229.19172,1758077228.98491,0.0,0.0,0.0,3.55234,-15.75634,6.41713,9.17,0.16,-0.2,4.0
1758077229.19529,1758077228.99491,0.0,0.0,0.0,3.60963,-15.24068,7.16197,9.23,0.14,-0.27,4.0
1758077229.21088,1758077229.00491,0.0,0.0,0.0,3.55234,-14.61043,7.84952,9.23,0.14,-0.27,4.0
1758077229.21505,1758077229.01491,0.0,0.0,0.0,3.60963,-13.80828,8.136,9.16,0.13,-0.22,4.0
1758077229.23147,1758077229.02491,0.0,0.0,0.0,3.55234,-13.23533,8.136,9.16,0.13,-0.22,4.0
1758077229.24141,1758077229.03491,0.0,0.0,0.0,3.95341,-12.89155,8.25059,8.95,0.11,-0.25,4.0
1758077229.24472,1758077229.04491,0.0,0.0,0.0,4.58366,-12.71966,8.136,8.95,0.11,-0.25,4.0
1758077229.26333,1758077229.05491,0.0,0.0,0.0,5.15662,-12.2613,8.02141,8.79,0.04,-0.34,4.0
1758077229.26591,1758077229.06491,0.0,0.0,0.0,5.90147,-12.08941,8.136,8.75,-0.01,-0.4,4.0
1758077229.28175,1758077229.07491,0.0,0.0,0.0,6.7609,-11.51645,8.36518,8.75,-0.01,-0.4,4.0
1758077229.2915,1758077229.08491,0.0,0.0,0.0,7.84952,-9.85487,8.76626,8.95,-0.08,-0.49,4.0
1758077229.29634,1758077229.09491,0.0,0.0,0.0,8.59437,-8.30789,9.28192,8.95,-0.08,-0.49,4.0
1758077229.31196,1758077229.10491,0.0,0.0,0.0,9.62569,-6.70361,9.91217,9.2,-0.16,-0.59,4.0
1758077229.31299,1758077229.11491,0.0,0.0,0.0,10.65701,-4.81285,10.59972,9.2,-0.16,-0.59,4.0
1758077229.32897,1758077229.12491,0.0,0.0,0.0,12.43318,-3.20856,11.51645,9.31,-0.23,-0.69,4.0
1758077229.33034,1758077229.13491,0.0,0.0,0.0,13.5791,-3.60963,11.97482,9.26,-0.28,-0.74,4.0
1758077229.34615,1758077229.14491,0.0,0.0,0.0,15.24068,-5.90147,12.2613,9.26,-0.28,-0.74,4.0
1758077229.34973,1758077229.15491,0.0,0.0,0.0,16.84496,-11.22997,12.204,8.94,-0.29,-0.65,4.0
1758077229.36701,1758077229.16491,0.0,0.0,0.0,18.79302,-18.90761,11.63104,8.94,-0.29,-0.65,4.0
1758077229.36974,1758077229.17491,0.0,0.0,0.0,20.45459,-20.22541,11.22997,8.96,-0.25,-0.68,4.0
1758077229.38527,1758077229.18491,0.0,0.0,0.0,22.51724,-17.76169,11.00079,8.96,-0.25,-0.68,4.0
1758077229.4008,1758077229.19491,0.0,0.0,0.0,24.5226,-13.75099,10.8862,9.73,-0.22,-0.7,4.0
1758077229.40202,1758077229.20491,0.0,0.0,0.0,27.38738,-2.92208,10.08406,10.15,-0.13,-0.64,4.0
1758077229.4834,1758077229.21491,0.0,0.0,0.0,29.27814,5.78687,9.33921,10.15,-0.13,-0.64,4.0
1758077229.48649,1758077229.22491,0.0,0.0,0.0,30.59595,8.65166,8.0787,9.72,0.01,-0.48,4.0
1758077229.49108,1758077229.23491,0.0,0.0,0.0,32.83048,4.87014,6.58902,9.72,0.01,-0.48,4.0
1758077229.4947,1758077229.24491,0.0,0.0,0.0,34.95043,3.89611,6.47442,8.25,0.1,-0.43,4.0
1758077229.49533,1758077229.25491,0.0,0.0,0.0,37.12767,4.69825,6.53172,8.25,0.1,-0.43,4.0
1758077229.49657,1758077229.26491,0.0,0.0,0.0,39.13302,4.18259,6.7609,8.13,0.05,-0.78,4.0
1758077229.50145,1758077229.27491,0.0,0.0,0.0,42.68536,1.14592,7.10468,8.13,0.05,-0.74,4.0
1758077229.50395,1758077229.28491,0.0,0.0,0.0,44.46153,-1.71887,7.39116,7.76,0.0,-0.74,4.0
1758077229.50622,1758077229.29491,0.0,0.0,0.0,46.06581,-4.23989,7.39116,7.86,0.01,-0.42,4.0
1758077229.51139,1758077229.30491,0.0,0.0,0.0,47.26902,-7.96411,7.44845,7.86,0.01,-0.42,4.0
1758077229.51374,1758077229.31491,0.0,0.0,0.0,47.61279,-16.21471,5.95876,8.29,0.0,0.55,4.0
1758077229.53112,1758077229.32491,0.0,0.0,0.0,47.89928,-22.57454,4.1253,8.29,0.0,0.55,4.0
1758077229.5387,1758077229.33491,0.0,0.0,0.0,48.24305,-27.96034,2.11994,9.15,-0.26,1.24,4.0
1758077229.60168,1758077229.34491,0.0,0.0,0.0,48.75871,-33.40344,0.34377,9.15,-0.26,1.24,4.0
1758077229.60577,1758077229.35491,0.0,0.0,0.0,50.13381,-37.24226,-0.74485,10.41,-0.79,1.79,4.0
1758077229.60642,1758077229.36491,0.0,0.0,0.0,51.6235,-36.89849,0.0,11.88,-1.57,2.09,4.0
1758077229.60845,1758077229.37491,0.0,0.0,0.0,52.82671,-35.75257,0.97403,11.88,-1.57,2.09,4.0
1758077229.60909,1758077229.38491,0.0,0.0,0.0,53.45696,-35.00772,2.97938,12.51,-2.12,1.41,4.0
1758077229.61108,1758077229.39491,0.0,0.0,0.0,53.39967,-30.19488,6.8182,12.51,-2.12,1.41,4.0
1758077229.61256,1758077229.40491,0.0,0.0,0.0,52.76942,-26.47065,9.39651,13.25,-2.08,0.5,4.0
1758077229.6133,1758077229.41491,0.0,0.0,0.0,52.13916,-22.86102,11.00079,13.25,-2.08,0.5,4.0
1758077229.6314,1758077229.42491,0.0,0.0,0.0,50.87865,-21.14215,10.37054,14.86,-1.93,0.69,4.0
1758077229.63316,1758077229.43491,0.0,0.0,0.0,49.33167,-21.02755,9.05273,15.78,-2.19,-0.8,4.0
1758077229.64883,1758077229.44491,0.0,0.0,0.0,47.38361,-15.24068,7.62034,15.78,-2.19,-0.8,4.0
1758077229.65065,1758077229.45491,0.0,0.0,0.0,46.40959,-2.6929,8.36518,15.21,-2.05,-1.32,4.0
1758077229.66624,1758077229.46491,0.0,0.0,0.0,46.2377,14.15206,12.77696,15.21,-2.05,-1.32,4.0
1758077229.68376,1758077229.47491,0.0,0.0,0.0,46.40959,22.34536,15.69904,13.22,-1.49,-0.76,4.0
1758077229.68506,1758077229.48491,0.0,0.0,0.0,46.2377,28.64789,17.87628,13.22,-1.49,-0.76,4.0
1758077229.70073,1758077229.49491,0.0,0.0,0.0,45.72203,35.86716,18.90761,12.34,-0.89,-0.5,4.0
1758077229.70371,1758077229.50491,0.0,0.0,0.0,43.83128,44.57612,17.58981,12.47,-0.79,-0.02,4.0
1758077229.7219,1758077229.51491,0.0,0.0,0.0,41.76862,43.4875,15.98552,12.47,-0.79,-0.02,4.0
1758077229.77677,1758077229.52491,0.0,0.0,0.0,39.99245,39.53409,14.38124,11.5,-1.19,0.44,4.0
1758077229.78205,1758077229.53491,0.0,0.0,0.0,38.38818,35.63798,13.00614,11.5,-1.19,0.44,4.0
1758077229.7921,1758077229.54491,0.0,0.0,0.0,37.24226,30.48136,10.94349,10.81,-1.68,0.35,4.0
1758077229.79613,1758077229.55491,0.0,0.0,0.0,37.35685,24.75178,10.48513,10.81,-1.68,0.35,4.0
1758077229.80529,1758077229.56491,0.0,0.0,0.0,38.1017,18.85031,10.59972,9.79,-1.87,0.35,4.0
1758077229.80574,1758077229.57491,0.0,0.0,0.0,39.07573,13.69369,11.22997,9.79,-1.87,0.35,4.0
1758077229.8116,1758077229.58491,0.0,0.0,0.0,41.31026,6.24524,12.77696,9.31,-1.81,0.5,4.0
1758077229.8154,1758077229.59491,0.0,0.0,0.0,42.91454,2.06265,13.75099,9.1,-1.71,0.58,4.0
1758077229.8162,1758077229.60491,0.0,0.0,0.0,44.46153,1.48969,14.20935,9.1,-1.71,0.58,4.0
1758077229.8181,1758077229.61491,0.0,0.0,0.0,45.60744,2.23454,14.03747,9.33,-1.64,0.51,4.0
1758077229.821,1758077229.62491,0.0,0.0,0.0,45.60744,3.83882,13.00614,9.33,-1.64,0.51,4.0
1758077229.83733,1758077229.63491,0.0,0.0,0.0,44.9199,5.61499,11.74564,9.22,-1.46,0.36,4.0
1758077229.84138,1758077229.64491,0.0,0.0,0.0,43.4875,7.96411,10.08406,9.22,-1.46,0.36,4.0
1758077229.86086,1758077229.65491,0.0,0.0,0.0,41.25296,10.37054,7.84952,9.21,-1.24,0.25,4.0
1758077229.86534,1758077229.66491,0.0,0.0,0.0,39.70598,9.22462,6.8182,9.02,-1.1,0.26,4.0
1758077229.88104,1758077229.67491,0.0,0.0,0.0,38.38818,5.95876,6.24524,9.02,-1.1,0.26,4.0
1758077229.88297,1758077229.68491,0.0,0.0,0.0,37.01308,2.92208,5.95876,8.68,-1.07,0.21,4.0
1758077229.90091,1758077229.69491,0.0,0.0,0.0,35.3515,0.40107,6.13065,8.68,-1.07,0.21,4.0
1758077229.90511,1758077229.70491,0.0,0.0,0.0,34.37747,-2.34913,6.35983,8.84,-1.1,0.03,4.0
1758077229.92136,1758077229.71491,0.0,0.0,0.0,33.34615,-6.13065,6.41713,8.84,-1.1,0.03,4.0
1758077229.92626,1758077229.72491,0.0,0.0,0.0,32.6013,-9.11003,6.35983,8.59,-1.12,-0.06,4.0
1758077229.94112,1758077229.73491,0.0,0.0,0.0,31.62727,-12.83425,5.95876,8.57,-1.15,-0.03,4.0
1758077229.94966,1758077229.74491,0.0,0.0,0.0,31.2262,-15.06879,5.50039,8.57,-1.15,-0.03,4.0
1758077229.95083,1758077229.75491,0.0,0.0,0.0,30.82513,-16.95955,4.98473,8.59,-1.22,-0.04,4.0
1758077229.9671,1758077229.76491,0.0,0.0,0.0,30.65324,-18.79302,4.35448,8.59,-1.22,-0.04,4.0
1758077229.97143,1758077229.77491,0.0,0.0,0.0,29.96569,-20.11082,3.03668,8.69,-1.33,-0.24,4.0
1758077229.99545,1758077229.78491,0.0,0.0,0.0,29.50733,-21.94428,2.11994,8.69,-1.33,-0.24,4.0
1758077229.99659,1758077229.79491,0.0,0.0,0.0,28.76248,-24.98096,0.97403,8.66,-1.4,-0.4,4.0
1758077230.01544,1758077229.80491,0.0,0.0,0.0,27.78845,-25.7831,-0.17189,8.66,-1.4,-0.4,4.0
1758077230.01717,1758077229.81491,0.0,0.0,0.0,27.04361,-22.57454,-1.60428,8.96,-1.36,-0.56,4.0
1758077230.03319,1758077229.82491,0.0,0.0,0.0,26.41335,-19.99623,-2.6929,9.45,-1.4,-0.49,4.0
1758077230.04475,1758077229.83491,0.0,0.0,0.0,26.12688,-17.99088,-3.66693,9.45,-1.4,-0.49,4.0
1758077230.09086,1758077229.84491,0.0,0.0,0.0,25.8404,-17.01685,-5.15662,9.36,-1.38,-0.47,4.0
1758077230.09697,1758077229.85491,0.0,0.0,0.0,25.49662,-15.58445,-5.90147,9.36,-1.38,-0.47,4.0
1758077230.09801,1758077229.86491,0.0,0.0,0.0,25.26744,-14.83961,-6.58902,9.23,-1.32,-0.51,4.0
