timeStamp,timeStampAlign,roll,pitch,yaw,gyro_x,gyro_y,gyro_z,acc_x,acc_y,acc_z,flag_num
1758088029.44476,1758087959.02926,0.0,0.0,0.0,-19.53786,13.75099,1.14592,9.79,-1.02,0.22,3.0
1758088029.46079,1758087959.03926,0.0,0.0,0.0,-19.19409,13.5791,1.03132,9.79,-1.02,0.22,3.0
1758088029.46199,1758087959.04926,0.0,0.0,0.0,-19.36597,12.204,0.68755,9.81,-0.98,0.14,3.0
1758088029.4768,1758087959.05926,0.0,0.0,0.0,-20.05352,10.94349,0.0573,9.76,-0.78,0.01,3.0
1758088029.49299,1758087959.06926,0.0,0.0,0.0,-21.14215,10.48513,-0.45837,9.76,-0.78,0.01,3.0
1758088029.4963,1758087959.07926,0.0,0.0,0.0,-22.23076,10.19865,-0.80214,9.93,-0.58,-0.13,3.0
1758088029.51201,1758087959.08926,0.0,0.0,0.0,-23.60586,13.5218,-1.66158,9.93,-0.58,-0.13,3.0
1758088029.51317,1758087959.09926,0.0,0.0,0.0,-23.83505,18.85031,-1.83346,10.36,-0.61,-0.11,3.0
1758088029.52883,1758087959.10926,0.0,0.0,0.0,-22.97561,23.0902,-1.43239,10.36,-0.61,-0.11,3.0
1758088029.53217,1758087959.11926,0.0,0.0,0.0,-21.7724,24.17882,-0.97403,10.3,-0.9,0.22,3.0
1758088029.54779,1758087959.12926,0.0,0.0,0.0,-18.9649,24.17882,-0.74485,9.73,-1.27,0.36,3.0
1758088029.549,1758087959.13926,0.0,0.0,0.0,-16.67307,24.80907,-0.45837,9.73,-1.27,0.36,3.0
1758088029.56568,1758087959.14926,0.0,0.0,0.0,-14.03747,24.75178,-0.17189,9.64,-1.5,0.12,3.0
1758088029.58305,1758087959.15926,0.0,0.0,0.0,-10.31324,21.42862,-0.0573,9.64,-1.5,0.12,3.0
1758088029.58345,1758087959.16926,0.0,0.0,0.0,-8.0787,19.19409,0.0,9.21,-1.56,-0.01,3.0
1758088029.59879,1758087959.17926,0.0,0.0,0.0,-5.32851,17.36062,-0.11459,9.21,-1.56,-0.01,3.0
1758088029.59999,1758087959.18926,0.0,0.0,0.0,-3.03668,14.15206,0.0,9.14,-1.52,-0.22,3.0
1758088029.61702,1758087959.19926,0.0,0.0,0.0,-1.14592,7.84952,-0.0573,8.84,-1.52,-0.12,3.0
1758088029.6331,1758087959.20926,0.0,0.0,0.0,-0.45837,2.63561,-0.40107,8.84,-1.37,-0.12,3.0
1758088029.63514,1758087959.21926,0.0,0.0,0.0,-0.11459,-2.06265,-1.03132,8.7,-1.07,-0.1,3.0
1758088029.65102,1758087959.22926,0.0,0.0,0.0,-0.22918,-5.84417,-1.03132,8.7,-1.07,-0.1,3.0
1758088029.65229,1758087959.23926,0.0,0.0,0.0,0.0573,-7.10468,-1.43239,8.98,-0.83,-0.18,3.0
1758088029.66708,1758087959.24926,0.0,0.0,0.0,-0.45837,-2.97938,-2.34913,8.98,-0.83,-0.18,3.0
1758088029.68446,1758087959.25926,0.0,0.0,0.0,0.22918,4.52637,-1.83346,9.73,-0.77,0.28,3.0
1758088029.68514,1758087959.26926,0.0,0.0,0.0,-0.0573,11.91752,-2.40642,9.73,-0.77,0.28,3.0
1758088029.70091,1758087959.27926,0.0,0.0,0.0,0.45837,12.2613,-3.26586,9.85,-0.88,1.0,3.0
1758088029.70321,1758087959.28926,0.0,0.0,0.0,1.03132,3.95341,-5.4431,8.44,-1.05,0.89,3.0
1758088029.71783,1758087959.29926,0.0,0.0,0.0,4.23989,-17.47521,-3.83882,8.44,-1.05,0.89,3.0
1758088029.71933,1758087959.30926,0.0,0.0,0.0,6.7609,-32.25753,-1.83346,9.02,-1.08,0.45,3.0
1758088029.73682,1758087959.31926,0.0,0.0,0.0,9.11003,-26.41335,1.3178,9.02,-1.08,0.45,3.0
1758088029.75309,1758087959.32926,0.0,0.0,0.0,9.74028,-22.63183,2.11994,13.3,-1.28,0.67,3.0
1758088029.75786,1758087959.33926,0.0,0.0,0.0,9.5684,-23.0902,2.92208,13.3,-1.28,0.67,3.0
1758088029.7824,1758087959.34926,0.0,0.0,0.0,7.10468,-19.88164,2.6929,13.41,-1.01,2.28,3.0
1758088029.7831,1758087959.35926,0.0,0.0,0.0,4.69825,-16.90226,1.08862,14.09,-0.86,3.16,3.0
1758088029.78772,1758087959.36926,0.0,0.0,0.0,2.46372,-16.04282,-2.00535,14.09,-0.86,3.16,3.0
1758088029.79317,1758087959.37926,0.0,0.0,0.0,0.34377,-14.38124,-5.27121,11.82,-0.96,1.97,3.0
1758088029.81113,1758087959.38926,0.0,0.0,0.0,-0.85944,-11.97482,-8.88085,11.82,-0.96,1.97,3.0
1758088029.81233,1758087959.39926,0.0,0.0,0.0,0.34377,-11.17268,-9.96947,9.83,-1.01,1.19,3.0
1758088029.82695,1758087959.40926,0.0,0.0,0.0,3.49504,-12.14671,-10.31324,9.83,-1.01,1.19,3.0
1758088029.84292,1758087959.41926,0.0,0.0,0.0,8.02141,-14.03747,-9.62569,8.25,-0.83,0.48,3.0
1758088029.84345,1758087959.42926,0.0,0.0,0.0,17.76169,-16.50119,-7.16197,7.5,-0.71,1.21,3.0
1758088029.85995,1758087959.43926,0.0,0.0,0.0,24.98096,-17.76169,-5.55769,7.5,-0.71,1.21,3.0
1758088029.86139,1758087959.44926,0.0,0.0,0.0,32.48671,-18.27736,-3.66693,7.68,-0.62,1.23,3.0
1758088029.8762,1758087959.45926,0.0,0.0,0.0,38.73195,-16.90226,-1.83346,7.68,-0.62,1.23,3.0
1758088029.89295,1758087959.46926,0.0,0.0,0.0,44.9199,-12.37589,-0.22918,9.32,-0.56,1.36,3.0
1758088029.89328,1758087959.47926,0.0,0.0,0.0,46.98254,-8.30789,-0.34377,9.32,-0.56,1.36,3.0
1758088029.90925,1758087959.48926,0.0,0.0,0.0,46.63877,-4.23989,-0.80214,11.39,-0.27,1.66,3.0
1758088029.91011,1758087959.49926,0.0,0.0,0.0,43.94586,-0.11459,-1.60428,11.39,-0.27,1.66,3.0
1758088029.92523,1758087959.50926,0.0,0.0,0.0,35.92446,3.83882,-2.23454,12.43,0.35,2.29,3.0
1758088029.94195,1758087959.51926,0.0,0.0,0.0,29.10626,4.69825,-2.34913,11.66,1.02,1.85,3.0
1758088029.94251,1758087959.52926,0.0,0.0,0.0,21.7151,5.78687,-2.57831,11.66,1.02,1.85,3.0
1758088029.9579,1758087959.53926,0.0,0.0,0.0,11.57375,6.99009,-3.83882,10.39,1.46,1.19,3.0
1758088029.95982,1758087959.54926,0.0,0.0,0.0,6.07335,7.10468,-5.32851,10.39,1.46,1.19,3.0
1758088029.9769,1758087959.55926,0.0,0.0,0.0,2.40642,6.35983,-6.7609,9.17,1.8,0.63,3.0
1758088029.97951,1758087959.56926,0.0,0.0,0.0,-0.17189,6.41713,-8.47978,9.17,1.8,0.63,3.0
1758088029.99516,1758087959.57926,0.0,0.0,0.0,-1.48969,7.50575,-11.11538,9.2,1.92,0.78,3.0
1758088030.01117,1758087959.58926,0.0,0.0,0.0,-1.60428,7.73493,-13.06344,9.58,1.6,0.93,3.0
1758088030.01291,1758087959.59926,0.0,0.0,0.0,-1.3178,7.67763,-15.0115,9.58,1.6,0.93,3.0
1758088030.02806,1758087959.60926,0.0,0.0,0.0,-0.74485,7.44845,-17.53251,9.83,1.15,1.11,3.0
1758088030.02994,1758087959.61926,0.0,0.0,0.0,0.45837,8.36518,-19.59516,9.83,1.15,1.11,3.0
1758088030.04592,1758087959.62926,0.0,0.0,0.0,1.60428,8.47978,-20.11082,9.99,0.55,1.06,3.0
1758088030.04711,1758087959.63926,0.0,0.0,0.0,3.32316,7.84952,-20.16812,9.99,0.55,1.06,3.0
1758088030.06254,1758087959.64926,0.0,0.0,0.0,4.64096,8.02141,-19.07949,9.74,0.1,0.92,3.0
1758088030.07801,1758087959.65926,0.0,0.0,0.0,6.47442,7.16197,-16.3293,9.58,-0.13,1.18,3.0
1758088030.07994,1758087959.66926,0.0,0.0,0.0,7.39116,7.33386,-14.20935,9.58,-0.13,1.18,3.0
1758088030.09608,1758087959.67926,0.0,0.0,0.0,8.25059,7.50575,-11.80293,9.7,-0.18,1.01,3.0
1758088030.09714,1758087959.68926,0.0,0.0,0.0,9.05273,7.96411,-9.5684,9.7,-0.18,1.01,3.0
1758088030.11248,1758087959.69926,0.0,0.0,0.0,9.4538,10.02676,-7.04738,10.03,0.0,0.96,3.0
1758088030.12823,1758087959.70926,0.0,0.0,0.0,9.33921,10.8289,-6.07335,10.03,0.0,0.96,3.0
1758088030.13222,1758087959.71926,0.0,0.0,0.0,8.93814,10.48513,-5.55769,10.1,0.33,0.93,3.0
1758088030.1441,1758087959.72926,0.0,0.0,0.0,8.136,11.28727,-6.99009,10.1,0.33,0.93,3.0
1758088030.16026,1758087959.73926,0.0,0.0,0.0,6.53172,10.19865,-8.99544,10.26,0.75,0.87,3.0
1758088030.16232,1758087959.74926,0.0,0.0,0.0,5.4431,8.02141,-11.63104,10.14,1.13,0.67,3.0
1758088030.1772,1758087959.75926,0.0,0.0,0.0,3.83882,7.16197,-14.78231,10.14,1.13,0.67,3.0
1758088030.17817,1758087959.76926,0.0,0.0,0.0,1.60428,8.30789,-19.99623,10.4,1.46,0.61,3.0
1758088030.19354,1758087959.77926,0.0,0.0,0.0,0.0,7.50575,-23.0329,10.4,1.46,0.61,3.0
1758088030.20924,1758087959.78926,0.0,0.0,0.0,-1.3178,7.50575,-25.43933,10.06,1.49,0.45,3.0
1758088030.21118,1758087959.79926,0.0,0.0,0.0,-2.97938,9.62569,-25.21014,10.06,1.49,0.45,3.0
1758088030.227,1758087959.80926,0.0,0.0,0.0,-4.35448,0.80214,-26.01229,9.74,1.33,0.3,3.0
1758088030.24296,1758087959.81926,0.0,0.0,0.0,-5.95876,-8.99544,-26.01229,8.08,1.03,0.24,3.0
1758088030.24444,1758087959.82926,0.0,0.0,0.0,-7.67763,-16.95955,-22.74642,8.08,1.03,0.24,3.0
1758088030.25921,1758087959.83926,0.0,0.0,0.0,-10.54242,-7.16197,-18.85031,9.6,1.11,0.18,3.0
1758088030.26043,1758087959.84926,0.0,0.0,0.0,-14.03747,30.82513,-22.05888,9.6,1.11,0.18,3.0
1758088030.27527,1758087959.85926,0.0,0.0,0.0,-17.76169,33.68992,-22.57454,11.21,1.39,0.9,3.0
1758088030.29096,1758087959.86926,0.0,0.0,0.0,-22.91831,27.44468,-21.6578,11.21,1.39,0.9,3.0
1758088030.29219,1758087959.87926,0.0,0.0,0.0,-27.2155,26.18417,-19.76705,9.09,1.51,1.79,3.0
1758088030.3072,1758087959.88926,0.0,0.0,0.0,-31.56997,27.50197,-13.23533,10.21,1.55,0.06,3.0
1758088030.30818,1758087959.89926,0.0,0.0,0.0,-33.23156,24.35071,-7.96411,10.21,1.55,0.06,3.0
1758088030.32541,1758087959.90926,0.0,0.0,0.0,-34.26288,22.23076,-3.83882,9.0,1.16,-0.77,3.0
1758088030.32782,1758087959.91926,0.0,0.0,0.0,-34.37747,22.40265,-0.80214,9.0,1.16,-0.77,3.0
1758088030.34355,1758087959.92926,0.0,0.0,0.0,-33.34615,22.57454,3.09397,8.78,0.79,-0.24,3.0
1758088030.35925,1758087959.93926,0.0,0.0,0.0,-32.83048,22.91831,5.15662,8.78,0.79,-0.24,3.0
1758088030.36184,1758087959.94926,0.0,0.0,0.0,-32.37212,22.05888,6.70361,8.78,0.7,-0.18,3.0
1758088030.37725,1758087959.95926,0.0,0.0,0.0,-31.85646,16.95955,8.25059,8.78,0.7,-0.18,3.0
1758088030.37821,1758087959.96926,0.0,0.0,0.0,-31.97105,14.15206,8.25059,9.01,0.9,0.45,3.0
1758088030.39362,1758087959.97926,0.0,0.0,0.0,-31.51268,11.63104,8.0787,9.71,1.23,0.52,3.0
1758088030.40905,1758087959.98926,0.0,0.0,0.0,-30.30947,3.72423,6.13065,9.71,1.23,0.52,3.0
1758088030.41029,1758087959.99926,0.0,0.0,0.0,-27.84575,-4.29718,-1.43239,10.18,1.47,1.44,3.0
1758088030.42529,1758087960.00926,0.0,0.0,0.0,-26.18417,-0.57296,-6.99009,10.18,1.47,1.44,3.0
1758088030.44122,1758087960.01926,0.0,0.0,0.0,-25.43933,5.61499,-11.63104,12.25,1.6,1.9,3.0
1758088030.44251,1758087960.02926,0.0,0.0,0.0,-24.5226,12.43318,-13.5218,12.25,1.6,1.9,3.0
1758088030.45722,1758087960.03926,0.0,0.0,0.0,-26.12688,15.58445,-12.2613,12.05,1.48,1.57,3.0
1758088030.45823,1758087960.04926,0.0,0.0,0.0,-27.96034,16.272,-9.39651,11.11,1.19,1.32,3.0
1758088030.47362,1758087960.05926,0.0,0.0,0.0,-30.19488,16.90226,-5.78687,11.11,1.19,1.32,3.0
1758088030.48931,1758087960.06926,0.0,0.0,0.0,-32.37212,16.84496,-1.60428,11.18,1.0,1.05,3.0
1758088030.49103,1758087960.07926,0.0,0.0,0.0,-34.49206,16.21471,4.64096,11.18,1.0,1.05,3.0
1758088030.50644,1758087960.08926,0.0,0.0,0.0,-34.89313,15.46986,8.36518,11.88,1.18,1.43,3.0
1758088030.50729,1758087960.09926,0.0,0.0,0.0,-34.14828,14.83961,10.8289,11.88,1.18,1.43,3.0
1758088030.52418,1758087960.10926,0.0,0.0,0.0,-32.54401,15.69904,11.91752,13.29,1.49,1.62,3.0
1758088030.54006,1758087960.11926,0.0,0.0,0.0,-29.27814,19.59516,11.22997,14.57,1.51,1.47,3.0
1758088030.54203,1758087960.12926,0.0,0.0,0.0,-27.38738,21.31403,9.74028,14.57,1.51,1.47,3.0
1758088030.55737,1758087960.13926,0.0,0.0,0.0,-25.8404,20.74107,8.0787,14.47,1.19,1.58,3.0
1758088030.55827,1758087960.14926,0.0,0.0,0.0,-24.63719,18.33465,5.84417,14.47,1.19,1.58,3.0
1758088030.57337,1758087960.15926,0.0,0.0,0.0,-24.86637,14.83961,4.87014,13.86,0.97,1.72,3.0
1758088030.5893,1758087960.16926,0.0,0.0,0.0,-26.01229,11.86023,4.64096,13.86,0.97,1.72,3.0
1758088030.59102,1758087960.17926,0.0,0.0,0.0,-27.61657,7.84952,4.87014,12.91,1.12,1.8,3.0
1758088030.60602,1758087960.18926,0.0,0.0,0.0,-31.11161,1.14592,6.18794,12.91,1.12,1.8,3.0
1758088030.6072,1758087960.19926,0.0,0.0,0.0,-33.74722,-4.29718,7.16197,11.51,1.4,2.45,3.0
1758088030.62334,1758087960.20926,0.0,0.0,0.0,-36.26823,-11.57375,7.44845,10.08,1.29,3.04,3.0
1758088030.64093,1758087960.21926,0.0,0.0,0.0,-38.56006,-19.42327,7.16197,10.08,1.29,3.04,3.0
1758088030.64209,1758087960.22926,0.0,0.0,0.0,-41.13837,-30.82513,6.41713,8.88,0.8,3.48,3.0
1758088030.65711,1758087960.23926,0.0,0.0,0.0,-41.76862,-38.21629,6.87549,8.88,0.8,3.48,3.0
1758088030.65832,1758087960.24926,0.0,0.0,0.0,-42.1124,-44.86259,7.96411,8.32,0.22,3.56,3.0
1758088030.67504,1758087960.25926,0.0,0.0,0.0,-41.94051,-50.1911,9.4538,8.32,0.22,3.56,3.0
1758088030.69033,1758087960.26926,0.0,0.0,0.0,-41.48215,-53.68615,11.45916,8.52,-0.3,3.34,3.0
1758088030.69146,1758087960.27926,0.0,0.0,0.0,-41.08107,-53.97263,11.91752,9.25,-0.68,3.16,3.0
1758088030.70741,1758087960.28926,0.0,0.0,0.0,-40.68,-54.08722,11.45916,9.25,-0.68,3.16,3.0
1758088030.70829,1758087960.29926,0.0,0.0,0.0,-40.10705,-53.17049,10.19865,9.63,-0.9,3.02,3.0
1758088030.72418,1758087960.30926,0.0,0.0,0.0,-39.13302,-48.9879,7.50575,9.63,-0.9,3.02,3.0
1758088030.74039,1758087960.31926,0.0,0.0,0.0,-38.1017,-44.63341,5.4431,9.99,-0.95,2.71,3.0
1758088030.74237,1758087960.32926,0.0,0.0,0.0,-37.01308,-39.99245,4.18259,9.99,-0.95,2.71,3.0
1758088030.75738,1758087960.33926,0.0,0.0,0.0,-35.92446,-34.89313,3.20856,10.1,-0.87,2.38,3.0
1758088030.75909,1758087960.34926,0.0,0.0,0.0,-34.32018,-27.04361,3.49504,10.06,-0.81,2.31,3.0
1758088030.77521,1758087960.35926,0.0,0.0,0.0,-32.88778,-22.57454,4.35448,10.06,-0.81,2.31,3.0
1758088030.79218,1758087960.36926,0.0,0.0,0.0,-31.79916,-18.10547,5.55769,9.8,-0.92,2.08,3.0
1758088030.79582,1758087960.37926,0.0,0.0,0.0,-30.48136,-11.11538,7.96411,9.8,-0.92,2.08,3.0
1758088030.81141,1758087960.38926,0.0,0.0,0.0,-29.9084,-5.95876,9.39651,9.67,-1.17,1.82,3.0
1758088030.8127,1758087960.39926,0.0,0.0,0.0,-29.9084,-0.97403,10.71431,9.67,-1.17,1.82,3.0
1758088030.82731,1758087960.40926,0.0,0.0,0.0,-29.73651,2.57831,11.74564,9.45,-1.3,1.86,3.0
1758088030.82834,1758087960.41926,0.0,0.0,0.0,-29.96569,7.39116,12.89155,9.07,-1.3,1.76,3.0
1758088030.84338,1758087960.42926,0.0,0.0,0.0,-30.02299,9.74028,13.46451,9.07,-1.1,1.76,3.0
1758088030.85915,1758087960.43926,0.0,0.0,0.0,-30.25217,10.65701,13.98017,8.66,-0.64,1.74,3.0
1758088030.86139,1758087960.44926,0.0,0.0,0.0,-30.25217,10.71431,14.32395,8.66,-0.64,1.74,3.0
1758088030.87616,1758087960.45926,0.0,0.0,0.0,-30.36677,10.8289,14.43854,8.27,-0.34,1.59,3.0
1758088030.87732,1758087960.46926,0.0,0.0,0.0,-30.19488,10.59972,14.15206,8.27,-0.34,1.59,3.0
1758088030.89341,1758087960.47926,0.0,0.0,0.0,-30.19488,10.08406,13.75099,8.08,-0.44,1.39,3.0
1758088030.91121,1758087960.48926,0.0,0.0,0.0,-30.30947,10.02676,12.89155,8.08,-0.44,1.39,3.0
1758088030.91294,1758087960.49926,0.0,0.0,0.0,-30.82513,9.11003,11.63104,7.87,-0.63,1.2,3.0
1758088030.92922,1758087960.50926,0.0,0.0,0.0,-31.11161,7.79223,11.00079,7.6,-0.74,1.18,3.0
1758088030.93015,1758087960.51926,0.0,0.0,0.0,-31.16891,6.87549,10.8289,7.6,-0.74,1.18,3.0
1758088030.94542,1758087960.52926,0.0,0.0,0.0,-31.39809,6.18794,10.71431,7.64,-0.9,1.2,3.0
1758088030.94719,1758087960.53926,0.0,0.0,0.0,-31.2262,4.58366,10.8862,7.64,-0.9,1.2,3.0
1758088030.96743,1758087960.54926,0.0,0.0,0.0,-30.59595,4.58366,11.51645,7.9,-1.17,1.33,3.0
1758088030.96841,1758087960.55926,0.0,0.0,0.0,-29.39274,5.21392,12.60507,7.9,-1.17,1.33,3.0
1758088030.98416,1758087960.56926,0.0,0.0,0.0,-27.1582,4.58366,15.12609,8.23,-1.43,1.4,3.0
1758088031.00141,1758087960.57926,0.0,0.0,0.0,-25.49662,3.09397,17.13144,8.15,-1.6,1.43,3.0
1758088031.00269,1758087960.58926,0.0,0.0,0.0,-24.4653,1.83346,19.25138,8.15,-1.6,1.43,3.0
1758088031.01745,1758087960.59926,0.0,0.0,0.0,-23.94964,0.74485,20.79837,8.05,-1.5,1.24,3.0
1758088031.01843,1758087960.60926,0.0,0.0,0.0,-23.49127,0.85944,21.6578,8.05,-1.5,1.24,3.0
1758088031.03444,1758087960.61926,0.0,0.0,0.0,-23.66316,2.46372,20.62648,8.32,-1.18,1.06,3.0
1758088031.05128,1758087960.62926,0.0,0.0,0.0,-23.94964,3.83882,18.56383,8.32,-1.18,1.06,3.0
1758088031.05336,1758087960.63926,0.0,0.0,0.0,-24.23611,5.61499,15.87093,8.75,-0.85,1.05,3.0
1758088031.07132,1758087960.64926,0.0,0.0,0.0,-24.35071,9.4538,10.94349,9.22,-0.75,1.13,3.0
1758088031.07342,1758087960.65926,0.0,0.0,0.0,-23.0329,12.60507,9.22462,9.22,-0.75,1.13,3.0
1758088031.09024,1758087960.66926,0.0,0.0,0.0,-21.25674,11.57375,8.42248,9.55,-1.12,1.66,3.0
1758088031.09148,1758087960.67926,0.0,0.0,0.0,-17.99088,8.0787,8.99544,9.55,-1.12,1.66,3.0
1758088031.10625,1758087960.68926,0.0,0.0,0.0,-13.12073,6.07335,11.00079,9.84,-1.87,1.53,3.0
1758088031.10743,1758087960.69926,0.0,0.0,0.0,-9.33921,7.04738,13.34992,9.84,-1.87,1.53,3.0
1758088031.12322,1758087960.70926,0.0,0.0,0.0,-5.78687,10.31324,15.58445,10.59,-2.47,1.21,3.0
1758088031.13926,1758087960.71926,0.0,0.0,0.0,-2.6929,15.0115,17.58981,10.59,-2.47,1.21,3.0
1758088031.14121,1758087960.72926,0.0,0.0,0.0,2.11994,20.11082,20.11082,10.63,-2.68,1.06,3.0
1758088031.15623,1758087960.73926,0.0,0.0,0.0,5.15662,21.08485,20.68378,10.0,-2.65,1.08,3.0
1758088031.15742,1758087960.74926,0.0,0.0,0.0,7.79223,21.08485,20.79837,10.0,-2.65,1.08,3.0
1758088031.17354,1758087960.75926,0.0,0.0,0.0,11.00079,20.51189,19.48057,9.56,-2.36,1.06,3.0
1758088031.19005,1758087960.76926,0.0,0.0,0.0,12.89155,16.10011,17.47521,9.56,-2.36,1.06,3.0
1758088031.19152,1758087960.77926,0.0,0.0,0.0,15.0115,11.97482,14.43854,8.93,-1.94,1.02,3.0
1758088031.20661,1758087960.78926,0.0,0.0,0.0,17.18874,6.70361,11.80293,8.93,-1.94,1.02,3.0
1758088031.20774,1758087960.79926,0.0,0.0,0.0,21.37133,5.27121,5.84417,8.27,-1.46,0.7,3.0
1758088031.22607,1758087960.80926,0.0,0.0,0.0,24.80907,22.57454,3.95341,9.51,-1.32,0.32,3.0
1758088031.22758,1758087960.81926,0.0,0.0,0.0,28.13223,41.36755,1.66158,9.51,-1.32,0.32,3.0
1758088031.24441,1758087960.82926,0.0,0.0,0.0,31.28349,54.3737,0.57296,9.84,-1.36,1.55,3.0
1758088031.26034,1758087960.83926,0.0,0.0,0.0,37.12767,40.96649,-1.08862,9.84,-1.36,1.55,3.0
1758088031.28526,1758087960.84926,0.0,0.0,0.0,39.70598,17.47521,-2.40642,6.95,-1.54,1.71,3.0
1758088031.28665,1758087960.85926,0.0,0.0,0.0,45.43555,-4.0107,2.57831,6.95,-1.54,1.71,3.0
1758088031.28764,1758087960.86926,0.0,0.0,0.0,49.56085,-10.8862,7.96411,8.76,-2.52,0.26,3.0
1758088031.28824,1758087960.87926,0.0,0.0,0.0,53.51426,-9.22462,12.83425,11.12,-3.22,-0.09,3.0
1758088031.30458,1758087960.88926,0.0,0.0,0.0,54.71747,-11.28727,12.83425,11.12,-3.22,-0.09,3.0
1758088031.32141,1758087960.89926,0.0,0.0,0.0,52.19646,-26.35606,9.4538,8.91,-3.32,0.6,3.0
1758088031.32234,1758087960.90926,0.0,0.0,0.0,51.22243,-52.19646,13.40721,8.91,-3.32,0.6,3.0
1758088031.33737,1758087960.91926,0.0,0.0,0.0,48.58683,-40.50812,19.42327,10.37,-2.92,3.41,3.0
1758088031.33851,1758087960.92926,0.0,0.0,0.0,44.17505,-23.72045,19.13679,10.37,-2.92,3.41,3.0
1758088031.35355,1758087960.93926,0.0,0.0,0.0,37.87251,-19.53786,17.36062,13.64,-1.56,3.09,3.0
1758088031.37146,1758087960.94926,0.0,0.0,0.0,29.96569,-15.46986,11.91752,13.64,-1.56,3.09,3.0
1758088031.3727,1758087960.95926,0.0,0.0,0.0,18.44924,-4.58366,7.73493,12.92,0.25,3.35,3.0
1758088031.38761,1758087960.96926,0.0,0.0,0.0,13.5218,0.22918,4.0107,13.39,1.33,1.52,3.0
1758088031.39262,1758087960.97926,0.0,0.0,0.0,10.02676,3.49504,1.08862,13.39,1.33,1.52,3.0
1758088031.4076,1758087960.98926,0.0,0.0,0.0,6.53172,4.29718,-1.3751,12.88,0.56,1.42,3.0
1758088031.40858,1758087960.99926,0.0,0.0,0.0,5.95876,2.11994,-1.94806,12.88,0.56,1.42,3.0
1758088031.42441,1758087961.00926,0.0,0.0,0.0,6.35983,1.83346,-2.29183,12.26,-1.42,1.98,3.0
1758088031.44141,1758087961.01926,0.0,0.0,0.0,7.62034,3.89611,-2.40642,12.26,-1.42,1.98,3.0
1758088031.44236,1758087961.02926,0.0,0.0,0.0,9.96947,7.50575,-1.71887,12.19,-2.83,1.77,3.0
1758088031.45743,1758087961.03926,0.0,0.0,0.0,11.45916,10.65701,-0.80214,12.19,-3.28,2.39,3.0
1758088031.4586,1758087961.04926,0.0,0.0,0.0,12.71966,13.40721,-0.45837,12.19,-3.28,2.39,3.0
1758088031.4735,1758087961.05926,0.0,0.0,0.0,13.5791,13.5218,-0.51566,12.02,-2.75,2.31,3.0
1758088031.49035,1758087961.06926,0.0,0.0,0.0,15.06879,9.05273,-0.51566,12.02,-2.75,2.31,3.0
1758088031.49185,1758087961.07926,0.0,0.0,0.0,16.3293,5.50039,-0.40107,11.23,-1.8,1.89,3.0
1758088031.50664,1758087961.08926,0.0,0.0,0.0,18.10547,1.66158,-0.0573,11.23,-1.8,1.89,3.0
1758088031.50784,1758087961.09926,0.0,0.0,0.0,20.05352,-2.29183,0.11459,10.23,-1.03,1.79,3.0
1758088031.52375,1758087961.10926,0.0,0.0,0.0,22.86102,-8.76626,0.97403,9.18,-0.64,1.94,3.0
1758088031.5397,1758087961.11926,0.0,0.0,0.0,24.5226,-14.38124,1.94806,9.18,-0.64,1.94,3.0
1758088031.54058,1758087961.12926,0.0,0.0,0.0,25.21014,-20.74107,2.00535,8.32,-0.62,2.18,3.0
1758088031.55565,1758087961.13926,0.0,0.0,0.0,25.43933,-26.18417,1.43239,8.32,-0.62,2.18,3.0
1758088031.57169,1758087961.14926,0.0,0.0,0.0,25.55392,-31.97105,-0.51566,8.27,-0.87,2.2,3.0
1758088031.5726,1758087961.15926,0.0,0.0,0.0,25.55392,-35.63798,-2.00535,8.27,-0.87,2.2,3.0
1758088031.58768,1758087961.16926,0.0,0.0,0.0,25.38203,-38.50277,-3.49504,8.53,-0.88,2.42,3.0
1758088031.58888,1758087961.17926,0.0,0.0,0.0,24.57989,-41.08107,-5.50039,8.53,-0.88,2.42,3.0
1758088031.60501,1758087961.18926,0.0,0.0,0.0,24.00693,-43.14373,-6.58902,9.0,-0.62,2.77,3.0
1758088031.62045,1758087961.19926,0.0,0.0,0.0,23.0902,-46.1231,-7.33386,9.06,-0.18,2.61,3.0
1758088031.62163,1758087961.20926,0.0,0.0,0.0,22.34536,-48.70141,-7.84952,9.06,-0.18,2.61,3.0
1758088031.63671,1758087961.21926,0.0,0.0,0.0,21.37133,-49.21708,-8.99544,9.05,-0.07,2.03,3.0
1758088031.63762,1758087961.22926,0.0,0.0,0.0,21.14215,-46.69606,-9.74028,9.05,-0.07,2.03,3.0
1758088031.65342,1758087961.23926,0.0,0.0,0.0,21.7151,-42.85724,-9.91217,9.34,-0.34,1.6,3.0
1758088031.67045,1758087961.24926,0.0,0.0,0.0,22.51724,-39.01843,-9.91217,9.34,-0.34,1.6,3.0
1758088031.67264,1758087961.25926,0.0,0.0,0.0,24.23611,-33.9764,-9.05273,9.47,-0.54,1.72,3.0
1758088031.68773,1758087961.26926,0.0,0.0,0.0,25.61122,-30.30947,-8.65166,9.69,-0.69,1.79,3.0
1758088031.68949,1758087961.27926,0.0,0.0,0.0,27.10091,-26.12688,-8.47978,9.69,-0.69,1.79,3.0
1758088031.70457,1758087961.28926,0.0,0.0,0.0,28.87707,-21.7151,-8.65166,9.9,-0.76,1.62,3.0
1758088031.72176,1758087961.29926,0.0,0.0,0.0,31.45539,-15.12609,-9.05273,9.9,-0.76,1.62,3.0
1758088031.7229,1758087961.30926,0.0,0.0,0.0,33.40344,-9.74028,-9.85487,9.86,-0.69,1.41,3.0
1758088031.73772,1758087961.31926,0.0,0.0,0.0,35.00772,-4.87014,-10.65701,9.86,-0.69,1.41,3.0
1758088031.73952,1758087961.32926,0.0,0.0,0.0,36.49741,-0.17189,-11.51645,9.65,-0.44,1.35,3.0
1758088031.75468,1758087961.33926,0.0,0.0,0.0,38.90384,6.8182,-13.17803,9.43,-0.02,1.19,3.0
1758088031.7705,1758087961.34926,0.0,0.0,0.0,39.87786,11.34457,-14.38124,9.43,-0.02,1.19,3.0
1758088031.77195,1758087961.35926,0.0,0.0,0.0,40.27893,14.72501,-15.06879,9.28,0.23,1.21,3.0
1758088031.78648,1758087961.36926,0.0,0.0,0.0,39.87786,17.18874,-15.87093,9.28,0.23,1.21,3.0
1758088031.78769,1758087961.37926,0.0,0.0,0.0,39.3622,19.70975,-15.92823,9.18,0.09,1.35,3.0
1758088031.80378,1758087961.38926,0.0,0.0,0.0,38.73195,19.70975,-15.64175,9.18,0.09,1.35,3.0
1758088031.82154,1758087961.39926,0.0,0.0,0.0,38.15899,19.88164,-15.24068,8.87,-0.3,1.43,3.0
1758088031.82448,1758087961.40926,0.0,0.0,0.0,37.47144,18.50654,-14.15206,8.87,-0.3,1.43,3.0
1758088031.82826,1758087961.41926,0.0,0.0,0.0,36.95578,16.84496,-13.06344,8.65,-0.6,1.37,3.0
1758088031.84626,1758087961.42926,0.0,0.0,0.0,36.32552,14.9542,-11.97482,8.49,-0.52,1.26,3.0
1758088031.84745,1758087961.43926,0.0,0.0,0.0,35.40879,12.89155,-11.11538,8.49,-0.52,1.26,3.0
1758088031.86471,1758087961.44926,0.0,0.0,0.0,33.68992,11.17268,-9.33921,8.48,-0.09,1.27,3.0
1758088031.88148,1758087961.45926,0.0,0.0,0.0,31.62727,11.57375,-9.22462,8.48,-0.09,1.27,3.0
1758088031.88928,1758087961.46926,0.0,0.0,0.0,28.87707,11.91752,-9.85487,8.7,0.47,1.13,3.0
1758088031.89056,1758087961.47926,0.0,0.0,0.0,26.35606,11.74564,-10.71431,8.7,0.47,1.13,3.0
1758088031.90649,1758087961.48926,0.0,0.0,0.0,23.20479,10.8862,-12.14671,8.62,0.9,0.82,3.0
1758088031.90766,1758087961.49926,0.0,0.0,0.0,22.05888,8.93814,-12.89155,8.62,1.08,0.83,3.0
1758088031.92465,1758087961.50926,0.0,0.0,0.0,21.31403,6.41713,-13.00614,8.62,1.08,0.83,3.0
1758088031.94075,1758087961.51926,0.0,0.0,0.0,20.85567,3.95341,-12.77696,8.7,0.9,0.71,3.0
1758088031.94165,1758087961.52926,0.0,0.0,0.0,20.62648,0.97403,-12.204,8.7,0.9,0.71,3.0
1758088031.95675,1758087961.53926,0.0,0.0,0.0,20.22541,-0.80214,-11.51645,8.91,0.46,0.76,3.0
1758088031.95771,1758087961.54926,0.0,0.0,0.0,19.70975,-2.63561,-11.11538,8.91,0.46,0.76,3.0
1758088031.9735,1758087961.55926,0.0,0.0,0.0,18.90761,-3.95341,-10.25595,9.24,0.12,1.05,3.0
1758088031.99058,1758087961.56926,0.0,0.0,0.0,17.24603,-5.72958,-9.39651,9.69,0.09,1.4,3.0
1758088031.9933,1758087961.57926,0.0,0.0,0.0,15.75634,-5.50039,-8.88085,9.69,0.09,1.4,3.0
1758088032.00886,1758087961.58926,0.0,0.0,0.0,13.40721,-4.23989,-8.88085,10.06,0.3,1.6,3.0
1758088032.01301,1758087961.59926,0.0,0.0,0.0,10.08406,-8.99544,-10.8862,10.06,0.3,1.6,3.0
1758088032.02884,1758087961.60926,0.0,0.0,0.0,8.0787,-15.98552,-11.00079,9.47,0.67,1.32,3.0
1758088032.03058,1758087961.61926,0.0,0.0,0.0,4.29718,-16.95955,-15.35527,9.47,0.67,1.32,3.0
1758088032.04583,1758087961.62926,0.0,0.0,0.0,1.77617,-13.98017,-17.18874,9.81,1.13,1.0,3.0
1758088032.0476,1758087961.63926,0.0,0.0,0.0,0.0573,-10.02676,-22.74642,10.06,1.13,0.85,3.0
1758088032.06362,1758087961.64926,0.0,0.0,0.0,-0.57296,-10.19865,-25.38203,10.06,1.27,0.85,3.0
1758088032.07983,1758087961.65926,0.0,0.0,0.0,-0.85944,-8.76626,-27.96034,9.76,1.16,1.07,3.0
1758088032.08157,1758087961.66926,0.0,0.0,0.0,-1.20321,-6.07335,-30.13758,9.76,1.16,1.07,3.0
1758088032.09662,1758087961.67926,0.0,0.0,0.0,-1.48969,-0.97403,-32.77319,10.03,1.0,0.89,3.0
1758088032.09773,1758087961.68926,0.0,0.0,0.0,-1.66158,1.3751,-33.40344,10.03,1.0,0.89,3.0
1758088032.11357,1758087961.69926,0.0,0.0,0.0,-2.23454,2.23454,-33.00237,9.66,0.83,0.59,3.0
1758088032.13057,1758087961.70926,0.0,0.0,0.0,-2.97938,1.83346,-30.82513,9.66,0.83,0.59,3.0
1758088032.1358,1758087961.71926,0.0,0.0,0.0,-4.58366,-1.94806,-26.24147,8.99,0.67,0.69,3.0
1758088032.1508,1758087961.72926,0.0,0.0,0.0,-6.18794,-4.18259,-21.14215,8.62,0.59,0.45,3.0
1758088032.15253,1758087961.73926,0.0,0.0,0.0,-7.04738,-11.86023,-17.36062,8.62,0.59,0.45,3.0
1758088032.16759,1758087961.74926,0.0,0.0,0.0,-8.30789,-21.60051,-11.86023,8.09,0.44,0.28,3.0
1758088032.1715,1758087961.75926,0.0,0.0,0.0,-13.12073,-12.08941,-3.38045,8.09,0.44,0.28,3.0
1758088032.18683,1758087961.76926,0.0,0.0,0.0,-16.21471,14.78231,-9.05273,11.5,0.99,0.85,3.0
1758088032.18804,1758087961.77926,0.0,0.0,0.0,-20.34,23.26209,-12.60507,11.5,0.99,0.85,3.0
1758088032.20378,1758087961.78926,0.0,0.0,0.0,-27.04361,16.67307,-20.68378,11.15,1.29,1.65,3.0
1758088032.22087,1758087961.79926,0.0,0.0,0.0,-30.13758,12.60507,-24.12152,10.42,1.82,2.54,3.0
1758088032.2218,1758087961.80926,0.0,0.0,0.0,-31.85646,10.08406,-24.23611,10.42,1.82,2.54,3.0
1758088032.23663,1758087961.81926,0.0,0.0,0.0,-32.25753,12.54778,-21.94428,10.51,1.74,-0.79,3.0
1758088032.2378,1758087961.82926,0.0,0.0,0.0,-32.08564,17.53251,-15.87093,10.51,1.74,-0.79,3.0
1758088032.25484,1758087961.83926,0.0,0.0,0.0,-31.45539,13.80828,-10.71431,8.95,1.38,-0.29,3.0
1758088032.27087,1758087961.84926,0.0,0.0,0.0,-29.96569,9.22462,-5.50039,8.95,1.38,-0.29,3.0
1758088032.27206,1758087961.85926,0.0,0.0,0.0,-28.59059,7.10468,-1.08862,7.36,0.93,-0.1,3.0
1758088032.28661,1758087961.86926,0.0,0.0,0.0,-26.06958,2.46372,3.20856,8.14,0.57,0.65,3.0
1758088032.2879,1758087961.87926,0.0,0.0,0.0,-24.63719,-1.48969,4.35448,8.14,0.57,0.65,3.0
1758088032.30491,1758087961.88926,0.0,0.0,0.0,-23.31938,-4.23989,4.52637,9.62,0.41,1.14,3.0
1758088032.32186,1758087961.89926,0.0,0.0,0.0,-22.05888,-5.21392,4.18259,9.62,0.41,1.14,3.0
1758088032.32316,1758087961.90926,0.0,0.0,0.0,-18.22006,-4.35448,3.89611,11.5,0.28,1.44,3.0
1758088032.33986,1758087961.91926,0.0,0.0,0.0,-14.83961,-7.50575,1.71887,11.5,0.28,1.44,3.0
1758088032.34116,1758087961.92926,0.0,0.0,0.0,-12.54778,-7.79223,-3.26586,11.95,0.08,1.69,3.0
1758088032.35597,1758087961.93926,0.0,0.0,0.0,-10.71431,3.03668,-7.96411,11.95,0.08,1.69,3.0
1758088032.37191,1758087961.94926,0.0,0.0,0.0,-7.79223,21.42862,-10.8289,13.14,0.16,1.84,3.0
1758088032.37316,1758087961.95926,0.0,0.0,0.0,-6.35983,21.60051,-10.31324,11.09,0.23,1.04,3.0
1758088032.38893,1758087961.96926,0.0,0.0,0.0,-5.27121,19.25138,-8.65166,11.09,0.23,1.04,3.0
1758088032.3899,1758087961.97926,0.0,0.0,0.0,-4.87014,20.16812,-5.15662,9.8,0.37,0.78,3.0
1758088032.4059,1758087961.98926,0.0,0.0,0.0,-5.21392,21.88699,-2.06265,9.8,0.37,0.78,3.0
1758088032.42194,1758087961.99926,0.0,0.0,0.0,-5.78687,21.6578,1.03132,9.44,0.58,0.55,3.0
1758088032.4229,1758087962.00926,0.0,0.0,0.0,-6.47442,20.85567,3.95341,9.44,0.58,0.55,3.0
1758088032.43772,1758087962.01926,0.0,0.0,0.0,-7.10468,17.53251,7.16197,9.14,0.82,1.14,3.0
1758088032.4389,1758087962.02926,0.0,0.0,0.0,-7.04738,14.38124,7.84952,9.25,1.06,1.25,3.0
1758088032.45369,1758087962.03926,0.0,0.0,0.0,-7.04738,11.97482,6.99009,9.25,1.06,1.25,3.0
1758088032.46966,1758087962.04926,0.0,0.0,0.0,-7.04738,12.37589,4.87014,9.83,1.3,1.21,3.0
1758088032.47129,1758087962.05926,0.0,0.0,0.0,-6.47442,15.75634,1.3178,9.83,1.3,1.21,3.0
1758088032.48595,1758087962.06926,0.0,0.0,0.0,-5.84417,17.24603,-0.51566,10.16,1.56,1.18,3.0
1758088032.48934,1758087962.07926,0.0,0.0,0.0,-5.27121,17.87628,-1.71887,10.16,1.56,1.18,3.0
1758088032.50631,1758087962.08926,0.0,0.0,0.0,-4.92744,18.16276,-1.83346,9.94,1.6,1.4,3.0
1758088032.50832,1758087962.09926,0.0,0.0,0.0,-5.21392,17.36062,-0.97403,10.09,1.4,1.35,3.0
1758088032.52398,1758087962.10926,0.0,0.0,0.0,-5.84417,16.90226,0.0,10.09,1.4,1.35,3.0
1758088032.54196,1758087962.11926,0.0,0.0,0.0,-6.70361,16.3293,1.48969,10.37,1.27,1.66,3.0
1758088032.54293,1758087962.12926,0.0,0.0,0.0,-7.79223,15.29797,3.49504,10.37,1.27,1.66,3.0
1758088032.55779,1758087962.13926,0.0,0.0,0.0,-9.91217,13.40721,6.53172,10.68,1.45,2.08,3.0
1758088032.55981,1758087962.14926,0.0,0.0,0.0,-11.45916,12.08941,8.76626,10.68,1.45,2.08,3.0
1758088032.57495,1758087962.15926,0.0,0.0,0.0,-13.06344,10.71431,11.00079,11.3,1.68,2.36,3.0
1758088032.59176,1758087962.16926,0.0,0.0,0.0,-14.61043,9.85487,14.38124,11.3,1.68,2.36,3.0
1758088032.59301,1758087962.17926,0.0,0.0,0.0,-16.67307,8.0787,16.21471,12.28,1.79,2.51,3.0
1758088032.61054,1758087962.18926,0.0,0.0,0.0,-17.81899,8.136,17.47521,13.39,1.58,2.55,3.0
1758088032.61578,1758087962.19926,0.0,0.0,0.0,-18.44924,6.99009,18.44924,13.39,1.58,2.55,3.0
1758088032.63158,1758087962.20926,0.0,0.0,0.0,-18.9649,2.86479,18.10547,14.15,1.06,2.64,3.0
1758088032.63272,1758087962.21926,0.0,0.0,0.0,-18.90761,1.3178,17.13144,14.15,1.06,2.64,3.0
1758088032.65055,1758087962.22926,0.0,0.0,0.0,-18.73572,-0.85944,15.87093,14.72,0.57,2.41,3.0
1758088032.65609,1758087962.23926,0.0,0.0,0.0,-18.22006,-3.83882,13.80828,14.72,0.57,2.41,3.0
1758088032.67093,1758087962.24926,0.0,0.0,0.0,-17.76169,-8.88085,10.25595,14.1,0.48,2.4,3.0
1758088032.67195,1758087962.25926,0.0,0.0,0.0,-17.58981,-12.2613,7.67763,12.46,0.73,2.24,3.0
1758088032.68703,1758087962.26926,0.0,0.0,0.0,-18.22006,-16.04282,5.4431,12.46,0.73,2.24,3.0
1758088032.68797,1758087962.27926,0.0,0.0,0.0,-19.19409,-20.62648,3.26586,10.47,0.89,2.12,3.0
1758088032.7098,1758087962.28926,0.0,0.0,0.0,-21.14215,-27.50197,0.97403,10.47,0.89,2.12,3.0
1758088032.71234,1758087962.29926,0.0,0.0,0.0,-22.51724,-33.17426,0.51566,8.62,0.77,2.23,3.0
1758088032.72804,1758087962.30926,0.0,0.0,0.0,-23.54857,-39.01843,1.03132,8.62,0.77,2.23,3.0
1758088032.72904,1758087962.31926,0.0,0.0,0.0,-24.12152,-45.37826,2.6929,7.43,0.48,2.22,3.0
1758088032.74382,1758087962.32926,0.0,0.0,0.0,-24.00693,-52.36834,6.47442,7.28,-0.07,2.02,3.0
1758088032.76082,1758087962.33926,0.0,0.0,0.0,-23.37668,-55.06125,8.88085,7.28,-0.07,2.02,3.0
1758088032.76179,1758087962.34926,0.0,0.0,0.0,-22.63183,-57.41038,10.94349,7.8,-0.87,1.94,3.0
1758088032.77707,1758087962.35926,0.0,0.0,0.0,-21.14215,-59.47303,12.71966,7.8,-0.87,1.94,3.0
1758088032.77842,1758087962.36926,0.0,0.0,0.0,-18.16276,-58.72818,13.86558,8.7,-1.57,1.98,3.0
1758088032.79379,1758087962.37926,0.0,0.0,0.0,-16.21471,-55.92068,13.80828,8.7,-1.57,1.98,3.0
1758088032.81108,1758087962.38926,0.0,0.0,0.0,-14.09476,-52.19646,13.46451,9.82,-1.69,1.97,3.0
1758088032.81226,1758087962.39926,0.0,0.0,0.0,-11.11538,-44.11775,12.43318,9.82,-1.69,1.97,3.0
1758088032.82684,1758087962.40926,0.0,0.0,0.0,-9.28192,-37.01308,12.2613,10.48,-1.13,1.87,3.0
1758088032.82883,1758087962.41926,0.0,0.0,0.0,-8.47978,-29.10626,12.2613,10.75,-0.39,1.62,3.0
1758088032.84482,1758087962.42926,0.0,0.0,0.0,-8.30789,-21.94428,12.77696,10.75,-0.39,1.62,3.0
1758088032.86108,1758087962.43926,0.0,0.0,0.0,-9.74028,-10.8289,13.5218,10.48,0.0,1.34,3.0
1758088032.86231,1758087962.44926,0.0,0.0,0.0,-11.63104,-3.55234,14.09476,10.48,0.0,1.34,3.0
1758088032.8771,1758087962.45926,0.0,0.0,0.0,-13.98017,3.60963,14.38124,10.34,-0.08,1.22,3.0
1758088032.8799,1758087962.46926,0.0,0.0,0.0,-16.50119,10.8289,14.72501,10.34,-0.08,1.22,3.0
1758088032.89584,1758087962.47926,0.0,0.0,0.0,-20.16812,16.73037,15.12609,10.17,-0.32,1.17,3.0
1758088032.91186,1758087962.48926,0.0,0.0,0.0,-22.05888,19.19409,15.29797,9.68,-0.43,1.09,3.0
1758088032.91579,1758087962.49926,0.0,0.0,0.0,-23.49127,21.42862,15.35527,9.68,-0.43,1.09,3.0
1758088032.93162,1758087962.50926,0.0,0.0,0.0,-24.63719,24.5226,15.75634,9.59,-0.46,0.96,3.0
1758088032.93281,1758087962.51926,0.0,0.0,0.0,-26.01229,26.18417,16.04282,9.59,-0.46,0.96,3.0
1758088032.94909,1758087962.52926,0.0,0.0,0.0,-26.47065,26.35606,16.3293,9.09,-0.52,0.92,3.0
1758088032.95354,1758087962.53926,0.0,0.0,0.0,-26.87172,24.86637,16.272,9.09,-0.52,0.92,3.0
1758088032.96981,1758087962.54926,0.0,0.0,0.0,-27.2155,22.91831,16.38659,8.62,-0.6,1.14,3.0
1758088032.97102,1758087962.55926,0.0,0.0,0.0,-28.01764,19.82434,17.01685,8.34,-0.58,0.94,3.0
1758088032.98595,1758087962.56926,0.0,0.0,0.0,-27.50197,17.6471,17.58981,8.34,-0.58,0.94,3.0
1758088033.00186,1758087962.57926,0.0,0.0,0.0,-26.87172,15.46986,17.47521,8.17,-0.74,1.0,3.0
1758088033.00307,1758087962.58926,0.0,0.0,0.0,-24.92367,13.5218,17.30333,8.17,-0.74,1.0,3.0
1758088033.01783,1758087962.59926,0.0,0.0,0.0,-22.97561,10.59972,17.47521,8.1,-0.95,1.08,3.0
1758088033.01936,1758087962.60926,0.0,0.0,0.0,-20.62648,6.99009,17.6471,8.1,-0.95,1.08,3.0
1758088033.03385,1758087962.61926,0.0,0.0,0.0,-18.33465,4.0107,17.47521,7.76,-1.14,0.81,3.0
1758088033.05092,1758087962.62926,0.0,0.0,0.0,-15.24068,-0.45837,17.87628,7.76,-1.14,0.81,3.0
1758088033.05262,1758087962.63926,0.0,0.0,0.0,-12.77696,-4.92744,17.6471,7.74,-1.3,0.75,3.0
1758088033.06709,1758087962.64926,0.0,0.0,0.0,-11.80293,-6.7609,16.90226,7.61,-1.27,0.62,3.0
1758088033.06895,1758087962.65926,0.0,0.0,0.0,-11.00079,-9.11003,15.46986,7.61,-1.27,0.62,3.0
1758088033.08494,1758087962.66926,0.0,0.0,0.0,-10.19865,-10.94349,13.00614,7.74,-1.13,0.57,3.0
1758088033.10196,1758087962.67926,0.0,0.0,0.0,-9.91217,-10.25595,11.22997,7.74,-1.13,0.57,3.0
1758088033.10341,1758087962.68926,0.0,0.0,0.0,-9.62569,-9.5684,9.91217,8.35,-1.01,0.81,3.0
1758088033.11798,1758087962.69926,0.0,0.0,0.0,-8.76626,-8.02141,9.05273,8.35,-1.01,0.81,3.0
1758088033.11989,1758087962.70926,0.0,0.0,0.0,-7.62034,-4.52637,8.36518,8.92,-1.04,0.67,3.0
1758088033.13522,1758087962.71926,0.0,0.0,0.0,-6.70361,-2.11994,8.30789,9.44,-1.19,0.97,3.0
1758088033.15134,1758087962.72926,0.0,0.0,0.0,-5.84417,-0.80214,7.84952,9.44,-1.19,0.97,3.0
1758088033.15213,1758087962.73926,0.0,0.0,0.0,-5.4431,1.71887,8.0787,9.49,-1.3,0.88,3.0
1758088033.16722,1758087962.74926,0.0,0.0,0.0,-4.58366,4.81285,8.25059,9.49,-1.3,0.88,3.0
1758088033.16896,1758087962.75926,0.0,0.0,0.0,-3.20856,4.92744,9.11003,9.53,-1.41,0.73,3.0
1758088033.18595,1758087962.76926,0.0,0.0,0.0,-1.77617,2.06265,10.19865,9.53,-1.41,0.73,3.0
1758088033.20231,1758087962.77926,0.0,0.0,0.0,0.11459,1.03132,11.86023,9.38,-1.54,0.67,3.0
1758088033.20507,1758087962.78926,0.0,0.0,0.0,2.86479,8.88085,13.17803,10.32,-1.78,0.45,3.0
1758088033.21996,1758087962.79926,0.0,0.0,0.0,5.09932,14.15206,13.5791,10.32,-1.78,0.45,3.0
1758088033.22115,1758087962.80926,0.0,0.0,0.0,7.10468,19.99623,14.72501,10.2,-1.87,0.41,3.0
1758088033.2362,1758087962.81926,0.0,0.0,0.0,9.5684,23.31938,15.24068,10.2,-1.87,0.41,3.0
1758088033.23789,1758087962.82926,0.0,0.0,0.0,11.63104,24.80907,15.87093,9.81,-1.91,0.58,3.0
1758088033.25498,1758087962.83926,0.0,0.0,0.0,13.86558,25.26744,16.50119,9.81,-1.91,0.58,3.0
1758088033.27096,1758087962.84926,0.0,0.0,0.0,16.04282,25.61122,17.18874,9.67,-1.93,0.36,3.0
1758088033.27214,1758087962.85926,0.0,0.0,0.0,19.36597,22.74642,17.81899,9.34,-1.93,0.34,3.0
1758088033.28696,1758087962.86926,0.0,0.0,0.0,21.14215,15.58445,17.24603,9.34,-1.88,0.34,3.0
1758088033.28923,1758087962.87926,0.0,0.0,0.0,22.63183,8.88085,15.64175,8.57,-1.7,0.1,3.0
1758088033.30701,1758087962.88926,0.0,0.0,0.0,24.00693,4.0107,13.12073,8.57,-1.7,0.1,3.0
1758088033.30796,1758087962.89926,0.0,0.0,0.0,27.73116,19.42327,9.68299,9.38,-1.45,-0.08,3.0
1758088033.32424,1758087962.90926,0.0,0.0,0.0,31.45539,36.89849,7.84952,9.38,-1.45,-0.08,3.0
1758088033.34022,1758087962.91926,0.0,0.0,0.0,33.74722,46.46688,7.10468,10.36,-1.35,1.01,3.0
1758088033.34118,1758087962.92926,0.0,0.0,0.0,35.69527,44.11775,3.83882,10.36,-1.35,1.01,3.0
1758088033.35624,1758087962.93926,0.0,0.0,0.0,40.96649,18.44924,-0.51566,8.02,-1.27,1.74,3.0
1758088033.37222,1758087962.94926,0.0,0.0,0.0,43.37291,-6.35983,1.77617,7.22,-1.57,-0.06,3.0
1758088033.37316,1758087962.95926,0.0,0.0,0.0,45.89392,-15.46986,6.18794,7.22,-1.57,-0.06,3.0
1758088033.38827,1758087962.96926,0.0,0.0,0.0,47.67009,-16.61578,8.65166,10.93,-2.53,-0.17,3.0
1758088033.38917,1758087962.97926,0.0,0.0,0.0,47.38361,-47.49821,12.54778,10.93,-2.53,-0.17,3.0
1758088033.40422,1758087962.98926,0.0,0.0,0.0,46.63877,-52.02457,20.85567,9.59,-2.97,0.7,3.0
1758088033.42096,1758087962.99926,0.0,0.0,0.0,42.74266,-33.86181,23.26209,9.59,-2.97,0.7,3.0
1758088033.4238,1758087963.00926,0.0,0.0,0.0,35.00772,-11.28727,22.23076,14.52,-2.84,2.86,3.0
1758088033.44005,1758087963.01926,0.0,0.0,0.0,27.96034,-7.04738,18.33465,13.57,-1.04,1.53,3.0
1758088033.44098,1758087963.02926,0.0,0.0,0.0,19.59516,-2.34913,14.20935,13.57,-1.04,1.53,3.0
1758088033.45605,1758087963.03926,0.0,0.0,0.0,11.91752,6.7609,10.08406,14.77,1.21,2.43,3.0
1758088033.47202,1758087963.04926,0.0,0.0,0.0,3.03668,18.16276,2.7502,14.77,1.21,2.43,3.0
1758088033.47509,1758087963.05926,0.0,0.0,0.0,-0.85944,18.22006,-2.40642,14.43,1.99,1.49,3.0
1758088033.49,1758087963.06926,0.0,0.0,0.0,-2.86479,14.78231,-6.58902,14.43,1.99,1.49,3.0
1758088033.49119,1758087963.07926,0.0,0.0,0.0,-3.26586,9.96947,-11.00079,12.96,0.33,2.88,3.0
1758088033.50678,1758087963.08926,0.0,0.0,0.0,-1.66158,2.40642,-17.13144,12.77,-1.67,2.35,3.0
1758088033.508,1758087963.09926,0.0,0.0,0.0,0.0573,-0.17189,-18.9649,12.77,-1.67,2.35,3.0
1758088033.52487,1758087963.10926,0.0,0.0,0.0,2.29183,0.22918,-19.42327,13.24,-2.75,2.76,3.0
1758088033.54103,1758087963.11926,0.0,0.0,0.0,5.21392,0.0,-18.16276,13.24,-2.75,2.76,3.0
1758088033.54254,1758087963.12926,0.0,0.0,0.0,9.96947,-2.34913,-14.20935,12.54,-2.87,3.15,3.0
1758088033.55725,1758087963.13926,0.0,0.0,0.0,13.23533,-4.87014,-11.28727,12.54,-2.87,3.15,3.0
1758088033.55897,1758087963.14926,0.0,0.0,0.0,16.21471,-8.30789,-8.70896,11.3,-2.61,2.99,3.0
1758088033.577,1758087963.15926,0.0,0.0,0.0,18.85031,-13.69369,-6.58902,11.3,-2.61,2.99,3.0
1758088033.57911,1758087963.16926,0.0,0.0,0.0,22.28806,-24.23611,-4.58366,9.65,-2.26,2.49,3.0
1758088033.59699,1758087963.17926,0.0,0.0,0.0,23.94964,-32.14294,-4.1253,8.09,-1.8,2.31,3.0
1758088033.59817,1758087963.18926,0.0,0.0,0.0,25.55392,-40.33623,-4.1253,8.09,-1.8,2.31,3.0
1758088033.61504,1758087963.19926,0.0,0.0,0.0,26.47065,-48.12846,-5.95876,7.22,-1.19,2.11,3.0
1758088033.63101,1758087963.20926,0.0,0.0,0.0,26.52795,-56.78012,-7.39116,7.22,-1.19,2.11,3.0
1758088033.6322,1758087963.21926,0.0,0.0,0.0,26.24147,-60.44705,-8.93814,7.44,-0.41,2.17,3.0
1758088033.64723,1758087963.22926,0.0,0.0,0.0,25.38203,-62.79618,-10.37054,7.44,-0.41,2.17,3.0
1758088033.64829,1758087963.23926,0.0,0.0,0.0,24.57989,-63.94209,-11.28727,8.28,0.23,2.07,3.0
1758088033.66402,1758087963.24926,0.0,0.0,0.0,23.83505,-62.68159,-11.51645,9.12,0.37,2.1,3.0
1758088033.68015,1758087963.25926,0.0,0.0,0.0,22.91831,-60.38975,-12.08941,9.12,0.37,2.1,3.0
1758088033.68155,1758087963.26926,0.0,0.0,0.0,22.00158,-57.86874,-12.83425,9.33,0.16,2.04,3.0
1758088033.69605,1758087963.27926,0.0,0.0,0.0,19.82434,-51.16513,-15.24068,9.33,0.16,2.04,3.0
1758088033.71232,1758087963.28926,0.0,0.0,0.0,18.27736,-45.49285,-17.30333,9.35,-0.04,1.65,3.0
1758088033.71329,1758087963.29926,0.0,0.0,0.0,17.36062,-39.53409,-19.59516,9.35,-0.04,1.65,3.0
1758088033.73003,1758087963.30926,0.0,0.0,0.0,16.73037,-33.05967,-21.37133,9.31,-0.09,1.23,3.0
1758088033.73205,1758087963.31926,0.0,0.0,0.0,16.10011,-21.37133,-23.0902,9.63,-0.05,1.02,3.0
1758088033.74705,1758087963.32926,0.0,0.0,0.0,16.50119,-13.75099,-23.83505,9.63,-0.05,1.02,3.0
1758088033.7485,1758087963.33926,0.0,0.0,0.0,17.36062,-7.04738,-23.66316,9.84,-0.16,1.06,3.0
1758088033.76406,1758087963.34926,0.0,0.0,0.0,18.27736,-0.17189,-23.66316,9.84,-0.16,1.06,3.0
1758088033.78034,1758087963.35926,0.0,0.0,0.0,19.99623,8.76626,-22.28806,10.08,-0.27,1.28,3.0
1758088033.78124,1758087963.36926,0.0,0.0,0.0,21.02755,13.40721,-21.25674,10.08,-0.27,1.28,3.0
1758088033.79634,1758087963.37926,0.0,0.0,0.0,21.88699,16.95955,-19.82434,9.83,-0.21,1.39,3.0
1758088033.81282,1758087963.38926,0.0,0.0,0.0,22.34536,20.16812,-18.10547,9.83,-0.21,1.39,3.0
1758088033.81519,1758087963.39926,0.0,0.0,0.0,22.57454,21.88699,-17.53251,9.33,-0.17,1.38,3.0
1758088033.83004,1758087963.40926,0.0,0.0,0.0,22.51724,23.20479,-17.24603,8.74,-0.27,1.23,3.0
1758088033.83326,1758087963.41926,0.0,0.0,0.0,22.28806,22.91831,-16.84496,8.74,-0.27,1.23,3.0
1758088033.85032,1758087963.42926,0.0,0.0,0.0,21.88699,21.88699,-16.3293,8.3,-0.24,1.07,3.0
1758088033.85167,1758087963.43926,0.0,0.0,0.0,20.68378,22.28806,-16.67307,8.3,-0.24,1.07,3.0
1758088033.86635,1758087963.44926,0.0,0.0,0.0,19.13679,20.74107,-17.36062,8.27,-0.04,1.02,3.0
1758088033.88231,1758087963.45926,0.0,0.0,0.0,17.6471,19.07949,-17.87628,8.27,-0.04,1.02,3.0
1758088033.88329,1758087963.46926,0.0,0.0,0.0,15.29797,18.33465,-18.16276,7.98,0.19,0.77,3.0
1758088033.89925,1758087963.47926,0.0,0.0,0.0,14.49583,17.81899,-17.93358,8.11,0.43,0.75,3.0
1758088033.90101,1758087963.48926,0.0,0.0,0.0,14.09476,16.10011,-17.01685,8.11,0.43,0.75,3.0
1758088033.91723,1758087963.49926,0.0,0.0,0.0,14.03747,14.38124,-15.92823,8.11,0.5,0.44,3.0
1758088033.91924,1758087963.50926,0.0,0.0,0.0,14.38124,9.05273,-13.23533,8.11,0.5,0.44,3.0
1758088033.93535,1758087963.51926,0.0,0.0,0.0,14.78231,6.35983,-11.63104,8.26,0.4,0.5,3.0
1758088033.95222,1758087963.52926,0.0,0.0,0.0,15.46986,3.83882,-10.31324,8.26,0.4,0.5,3.0
1758088033.9558,1758087963.53926,0.0,0.0,0.0,15.92823,1.14592,-9.39651,8.78,0.17,0.46,3.0
1758088033.97113,1758087963.54926,0.0,0.0,0.0,16.38659,-2.40642,-8.93814,9.05,-0.03,0.66,3.0
1758088033.97253,1758087963.55926,0.0,0.0,0.0,16.73037,-3.66693,-8.42248,9.05,-0.03,0.66,3.0
1758088033.98741,1758087963.56926,0.0,0.0,0.0,17.18874,-5.50039,-8.02141,9.07,-0.06,0.77,3.0
1758088033.9886,1758087963.57926,0.0,0.0,0.0,17.18874,-6.8182,-7.39116,9.07,-0.06,0.77,3.0
1758088034.00501,1758087963.58926,0.0,0.0,0.0,17.24603,-8.36518,-6.47442,9.07,0.04,0.65,3.0
1758088034.0211,1758087963.59926,0.0,0.0,0.0,16.67307,-9.4538,-5.95876,9.07,0.04,0.65,3.0
1758088034.02267,1758087963.60926,0.0,0.0,0.0,15.35527,-8.70896,-5.78687,9.21,0.21,0.74,3.0
1758088034.03739,1758087963.61926,0.0,0.0,0.0,13.46451,-10.31324,-7.73493,9.21,0.21,0.74,3.0
1758088034.0386,1758087963.62926,0.0,0.0,0.0,11.86023,-9.85487,-8.70896,9.48,0.5,0.75,3.0
1758088034.05639,1758087963.63926,0.0,0.0,0.0,9.4538,-8.99544,-11.17268,9.64,0.79,0.69,3.0
1758088034.07239,1758087963.64926,0.0,0.0,0.0,7.21927,-8.88085,-11.86023,9.64,0.79,0.69,3.0
1758088034.07608,1758087963.65926,0.0,0.0,0.0,5.90147,-6.41713,-13.40721,9.9,0.78,0.78,3.0
1758088034.09141,1758087963.66926,0.0,0.0,0.0,5.21392,-5.78687,-14.32395,9.9,0.78,0.78,3.0
1758088034.09236,1758087963.67926,0.0,0.0,0.0,3.72423,-4.52637,-15.35527,9.89,0.74,0.68,3.0
1758088034.10718,1758087963.68926,0.0,0.0,0.0,2.92208,-2.00535,-16.10011,9.89,0.74,0.68,3.0
1758088034.11263,1758087963.69926,0.0,0.0,0.0,0.11459,0.85944,-17.30333,10.09,0.71,0.43,3.0
1758088034.12892,1758087963.70926,0.0,0.0,0.0,-1.43239,2.34913,-17.36062,9.95,0.71,-0.25,3.0
1758088034.1352,1758087963.71926,0.0,0.0,0.0,-2.7502,1.43239,-16.21471,9.95,0.71,-0.25,3.0
1758088034.15045,1758087963.72926,0.0,0.0,0.0,-3.89611,0.74485,-13.5791,9.31,0.64,-0.86,3.0
1758088034.15165,1758087963.73926,0.0,0.0,0.0,-4.92744,-0.17189,-8.70896,9.31,0.64,-0.86,3.0
1758088034.1662,1758087963.74926,0.0,0.0,0.0,-5.61499,-5.21392,-4.46907,8.9,0.49,-1.08,3.0
1758088034.18241,1758087963.75926,0.0,0.0,0.0,-7.44845,-15.98552,-0.11459,8.9,0.49,-1.08,3.0
1758088034.18426,1758087963.76926,0.0,0.0,0.0,-10.71431,-13.46451,4.81285,8.41,0.63,-0.67,3.0
1758088034.19915,1758087963.77926,0.0,0.0,0.0,-16.90226,21.08485,1.20321,12.64,1.26,-0.4,3.0
1758088034.20121,1758087963.78926,0.0,0.0,0.0,-23.20479,29.33544,-3.72423,12.64,1.26,-0.4,3.0
1758088034.21648,1758087963.79926,0.0,0.0,0.0,-27.61657,23.83505,-7.50575,10.52,1.61,1.84,3.0
1758088034.2325,1758087963.80926,0.0,0.0,0.0,-32.54401,13.98017,-12.54778,10.52,1.61,1.84,3.0
1758088034.23587,1758087963.81926,0.0,0.0,0.0,-33.9764,13.40721,-13.12073,10.45,1.82,1.05,3.0
1758088034.25198,1758087963.82926,0.0,0.0,0.0,-34.72124,20.3973,-11.63104,10.45,1.82,1.05,3.0
1758088034.2532,1758087963.83926,0.0,0.0,0.0,-33.74722,20.97026,-8.70896,11.11,1.56,-1.13,3.0
1758088034.26922,1758087963.84926,0.0,0.0,0.0,-29.27814,0.0573,-6.13065,11.11,1.56,-1.13,3.0
1758088034.27525,1758087963.85926,0.0,0.0,0.0,-26.98631,-10.54242,-8.30789,8.37,1.02,0.31,3.0
1758088034.29023,1758087963.86926,0.0,0.0,0.0,-24.17882,-4.52637,-10.59972,10.43,0.72,1.33,3.0
1758088034.29143,1758087963.87926,0.0,0.0,0.0,-21.14215,7.39116,-11.34457,10.43,0.72,1.33,3.0
1758088034.30624,1758087963.88926,0.0,0.0,0.0,-17.58981,15.75634,-10.31324,11.97,0.26,0.84,3.0
1758088034.32222,1758087963.89926,0.0,0.0,0.0,-15.87093,18.22006,-8.65166,11.97,0.26,0.84,3.0
1758088034.32378,1758087963.90926,0.0,0.0,0.0,-14.66772,20.68378,-6.70361,11.02,-0.23,1.1,3.0
1758088034.33825,1758087963.91926,0.0,0.0,0.0,-13.86558,21.60051,-4.58366,11.02,-0.23,1.1,3.0
1758088034.34054,1758087963.92926,0.0,0.0,0.0,-13.69369,22.00158,-1.3178,10.56,-0.52,0.47,3.0
1758088034.35549,1758087963.93926,0.0,0.0,0.0,-13.5791,21.25674,0.45837,10.03,-0.58,0.65,3.0
1758088034.37123,1758087963.94926,0.0,0.0,0.0,-13.5791,19.99623,2.06265,10.03,-0.58,0.65,3.0
1758088034.37245,1758087963.95926,0.0,0.0,0.0,-13.17803,18.27736,3.20856,9.79,-0.35,0.8,3.0
1758088034.38754,1758087963.96926,0.0,0.0,0.0,-11.11538,15.69904,3.38045,9.79,-0.35,0.8,3.0
1758088034.38962,1758087963.97926,0.0,0.0,0.0,-9.05273,14.49583,2.7502,9.89,0.09,1.1,3.0
1758088034.4065,1758087963.98926,0.0,0.0,0.0,-6.87549,14.83961,1.3751,9.89,0.09,1.1,3.0
1758088034.44517,1758087963.99926,0.0,0.0,0.0,-5.21392,16.3293,-0.22918,10.32,0.65,1.18,3.0
1758088034.44697,1758087964.00926,0.0,0.0,0.0,-2.92208,19.19409,-0.68755,10.88,1.11,1.24,3.0
1758088034.44791,1758087964.01926,0.0,0.0,0.0,-1.71887,20.62648,-0.40107,10.88,1.11,1.24,3.0
1758088034.4497,1758087964.02926,0.0,0.0,0.0,-0.97403,22.00158,0.34377,11.72,1.39,1.55,3.0
1758088034.45029,1758087964.03926,0.0,0.0,0.0,-0.45837,25.55392,2.57831,11.72,1.39,1.55,3.0
1758088034.46626,1758087964.04926,0.0,0.0,0.0,-0.85944,27.84575,4.81285,13.01,1.54,2.02,3.0
1758088034.48254,1758087964.05926,0.0,0.0,0.0,-1.66158,28.59059,7.62034,13.01,1.54,2.02,3.0
1758088034.48545,1758087964.06926,0.0,0.0,0.0,-3.26586,28.476,10.31324,13.98,1.8,2.53,3.0
1758088034.50052,1758087964.07926,0.0,0.0,0.0,-6.70361,27.2155,15.06879,14.65,1.8,2.72,3.0
1758088034.50147,1758087964.08926,0.0,0.0,0.0,-9.91217,24.29341,16.84496,14.65,2.05,2.72,3.0
1758088034.51658,1758087964.09926,0.0,0.0,0.0,-13.34992,21.08485,17.36062,14.12,1.96,2.57,3.0
1758088034.53255,1758087964.10926,0.0,0.0,0.0,-16.90226,17.01685,16.55848,14.12,1.96,2.57,3.0
1758088034.53348,1758087964.11926,0.0,0.0,0.0,-22.00158,9.5684,13.12073,13.06,1.67,2.18,3.0
1758088034.5483,1758087964.12926,0.0,0.0,0.0,-25.15285,3.83882,9.96947,13.06,1.67,2.18,3.0
1758088034.55057,1758087964.13926,0.0,0.0,0.0,-27.50197,-1.83346,6.7609,11.84,1.52,1.83,3.0
1758088034.56546,1758087964.14926,0.0,0.0,0.0,-29.39274,-7.21927,3.72423,11.84,1.52,1.83,3.0
1758088034.5813,1758087964.15926,0.0,0.0,0.0,-31.56997,-15.69904,-0.11459,10.3,1.38,1.75,3.0
1758088034.58279,1758087964.16926,0.0,0.0,0.0,-32.71589,-20.97026,-1.94806,8.68,0.99,1.85,3.0
1758088034.59731,1758087964.17926,0.0,0.0,0.0,-33.9764,-26.47065,-3.26586,8.68,0.99,1.85,3.0
1758088034.59847,1758087964.18926,0.0,0.0,0.0,-34.77854,-32.88778,-3.49504,7.36,0.41,2.23,3.0
1758088034.6143,1758087964.19926,0.0,0.0,0.0,-35.00772,-43.88857,-1.14592,7.36,0.41,2.23,3.0
1758088034.63033,1758087964.20926,0.0,0.0,0.0,-34.49206,-50.93595,1.66158,6.61,-0.2,2.35,3.0
1758088034.6315,1758087964.21926,0.0,0.0,0.0,-33.51803,-56.37905,4.87014,6.61,-0.2,2.35,3.0
1758088034.64654,1758087964.22926,0.0,0.0,0.0,-31.56997,-59.98868,9.33921,6.91,-0.92,1.99,3.0
1758088034.66261,1758087964.23926,0.0,0.0,0.0,-30.59595,-57.63955,10.65701,8.23,-1.53,1.68,3.0
1758088034.66368,1758087964.24926,0.0,0.0,0.0,-29.96569,-53.05589,11.00079,8.23,-1.53,1.68,3.0
1758088034.67835,1758087964.25926,0.0,0.0,0.0,-29.22085,-47.15443,10.48513,9.64,-1.72,1.75,3.0
1758088034.68032,1758087964.26926,0.0,0.0,0.0,-27.44468,-37.52874,8.36518,9.64,-1.72,1.75,3.0
1758088034.69536,1758087964.27926,0.0,0.0,0.0,-26.18417,-31.74186,7.10468,10.52,-1.43,1.86,3.0
1758088034.71161,1758087964.28926,0.0,0.0,0.0,-24.80907,-25.21014,6.24524,10.52,-1.43,1.86,3.0
1758088034.71248,1758087964.29926,0.0,0.0,0.0,-23.66316,-16.3293,6.18794,11.04,-0.91,1.57,3.0
1758088034.72765,1758087964.30926,0.0,0.0,0.0,-23.26209,-1.94806,7.04738,11.41,-0.56,1.49,3.0
1758088034.72852,1758087964.31926,0.0,0.0,0.0,-23.83505,6.58902,8.136,11.41,-0.56,1.49,3.0
1758088034.74456,1758087964.32926,0.0,0.0,0.0,-25.21014,15.06879,9.33921,11.08,-0.47,1.6,3.0
1758088034.76059,1758087964.33926,0.0,0.0,0.0,-27.04361,22.86102,9.96947,11.08,-0.47,1.6,3.0
1758088034.76159,1758087964.34926,0.0,0.0,0.0,-30.02299,31.39809,11.00079,10.8,-0.52,1.65,3.0
1758088034.77663,1758087964.35926,0.0,0.0,0.0,-31.91375,35.12231,11.63104,10.8,-0.52,1.65,3.0
1758088034.79264,1758087964.36926,0.0,0.0,0.0,-33.68992,38.90384,12.204,10.59,-0.47,1.66,3.0
1758088034.79361,1758087964.37926,0.0,0.0,0.0,-35.00772,42.91454,12.54778,10.59,-0.47,1.66,3.0
1758088034.80866,1758087964.38926,0.0,0.0,0.0,-37.35685,47.03984,12.43318,10.57,-0.35,1.64,3.0
1758088034.81041,1758087964.39926,0.0,0.0,0.0,-38.56006,47.09713,11.86023,9.95,-0.27,1.68,3.0
1758088034.82565,1758087964.40926,0.0,0.0,0.0,-40.10705,45.72203,11.57375,9.95,-0.27,1.68,3.0
1758088034.84169,1758087964.41926,0.0,0.0,0.0,-42.34158,43.88857,10.02676,9.31,-0.28,1.5,3.0
1758088034.8426,1758087964.42926,0.0,0.0,0.0,-43.54479,41.08107,8.70896,9.31,-0.28,1.5,3.0
1758088034.85741,1758087964.43926,0.0,0.0,0.0,-44.63341,39.13302,7.44845,8.91,-0.39,1.41,3.0
1758088034.85857,1758087964.44926,0.0,0.0,0.0,-45.26366,34.89313,6.41713,8.91,-0.39,1.41,3.0
1758088034.87438,1758087964.45926,0.0,0.0,0.0,-45.43555,26.75713,5.55769,8.16,-0.46,1.34,3.0
1758088034.89068,1758087964.46926,0.0,0.0,0.0,-45.37826,22.11617,5.09932,7.55,-0.59,1.09,3.0
1758088034.89183,1758087964.47926,0.0,0.0,0.0,-44.51882,16.38659,5.4431,7.55,-0.59,1.09,3.0
1758088034.90667,1758087964.48926,0.0,0.0,0.0,-43.25832,11.45916,6.18794,7.09,-0.87,0.95,3.0
1758088034.92266,1758087964.49926,0.0,0.0,0.0,-40.45082,3.60963,7.50575,7.09,-0.87,0.95,3.0
1758088034.92405,1758087964.50926,0.0,0.0,0.0,-38.44547,-1.77617,8.25059,6.76,-1.2,0.79,3.0
1758088034.93943,1758087964.51926,0.0,0.0,0.0,-36.49741,-5.84417,8.76626,6.76,-1.2,0.79,3.0
1758088034.9404,1758087964.52926,0.0,0.0,0.0,-34.43476,-10.54242,8.88085,6.67,-1.45,0.57,3.0
1758088034.95565,1758087964.53926,0.0,0.0,0.0,-31.74186,-14.83961,8.70896,7.06,-1.55,0.51,3.0
1758088034.97167,1758087964.54926,0.0,0.0,0.0,-30.65324,-16.90226,8.42248,7.06,-1.55,0.51,3.0
1758088034.97261,1758087964.55926,0.0,0.0,0.0,-29.22085,-17.93358,7.79223,7.72,-1.49,0.58,3.0
1758088034.98764,1758087964.56926,0.0,0.0,0.0,-27.50197,-17.53251,6.8182,7.72,-1.49,0.58,3.0
1758088034.99021,1758087964.57926,0.0,0.0,0.0,-25.21014,-12.14671,6.41713,8.95,-1.39,1.13,3.0
1758088035.00665,1758087964.58926,0.0,0.0,0.0,-23.54857,-9.22462,6.18794,8.95,-1.39,1.13,3.0
1758088035.00838,1758087964.59926,0.0,0.0,0.0,-22.23076,-4.87014,5.95876,9.43,-1.24,1.12,3.0
1758088035.02463,1758087964.60926,0.0,0.0,0.0,-21.14215,-0.57296,5.95876,9.43,-1.24,1.12,3.0
1758088035.04177,1758087964.61926,0.0,0.0,0.0,-20.11082,6.24524,6.35983,9.58,-1.15,1.18,3.0
1758088035.04292,1758087964.62926,0.0,0.0,0.0,-19.70975,10.08406,5.84417,9.31,-1.15,0.92,3.0
1758088035.05769,1758087964.63926,0.0,0.0,0.0,-18.90761,14.61043,5.21392,9.31,-1.15,0.92,3.0
1758088035.06055,1758087964.64926,0.0,0.0,0.0,-17.53251,18.90761,3.26586,9.31,-1.29,1.01,3.0
1758088035.07641,1758087964.65926,0.0,0.0,0.0,-16.272,20.22541,1.66158,9.31,-1.29,1.01,3.0
1758088035.09276,1758087964.66926,0.0,0.0,0.0,-14.49583,19.19409,0.17189,9.22,-1.42,0.89,3.0
1758088035.09492,1758087964.67926,0.0,0.0,0.0,-12.2613,14.61043,-0.34377,9.22,-1.42,0.89,3.0
1758088035.10974,1758087964.68926,0.0,0.0,0.0,-7.73493,11.86023,-1.03132,8.87,-1.56,0.7,3.0
1758088035.11092,1758087964.69926,0.0,0.0,0.0,-3.72423,13.98017,-1.71887,9.42,-1.88,0.45,3.0
1758088035.12661,1758087964.70926,0.0,0.0,0.0,0.22918,16.38659,-1.43239,9.42,-1.88,0.45,3.0
1758088035.14515,1758087964.71926,0.0,0.0,0.0,5.09932,15.12609,-0.57296,9.04,-2.2,0.72,3.0
1758088035.14536,1758087964.72926,0.0,0.0,0.0,12.83425,10.59972,1.83346,9.04,-2.2,0.72,3.0
1758088035.16077,1758087964.73926,0.0,0.0,0.0,17.76169,7.21927,3.83882,8.81,-2.49,0.54,3.0
1758088035.16169,1758087964.74926,0.0,0.0,0.0,22.74642,4.35448,6.87549,8.81,-2.49,0.54,3.0
1758088035.17674,1758087964.75926,0.0,0.0,0.0,26.75713,1.94806,9.28192,9.03,-2.75,0.25,3.0
1758088035.19276,1758087964.76926,0.0,0.0,0.0,31.97105,-4.18259,11.57375,9.12,-2.87,0.26,3.0
1758088035.19368,1758087964.77926,0.0,0.0,0.0,34.0337,-12.14671,11.34457,9.12,-2.87,0.26,3.0
1758088035.20974,1758087964.78926,0.0,0.0,0.0,35.40879,-16.67307,11.22997,8.96,-2.53,-0.15,3.0
1758088035.21225,1758087964.79926,0.0,0.0,0.0,36.95578,-14.83961,8.65166,8.96,-2.53,-0.15,3.0
1758088035.22781,1758087964.80926,0.0,0.0,0.0,40.7373,6.53172,5.84417,10.53,-1.92,-0.45,3.0
1758088035.22949,1758087964.81926,0.0,0.0,0.0,41.31026,22.23076,2.63561,10.53,-1.92,-0.45,3.0
1758088035.24651,1758087964.82926,0.0,0.0,0.0,41.42485,28.93437,0.34377,11.01,-1.18,1.39,3.0
1758088035.26252,1758087964.83926,0.0,0.0,0.0,37.58603,-14.09476,-2.7502,11.01,-1.18,1.39,3.0
1758088035.26371,1758087964.84926,0.0,0.0,0.0,37.29956,-49.67545,5.09932,7.92,-0.36,4.47,3.0
1758088035.2788,1758087964.85926,0.0,0.0,0.0,35.3515,-53.11319,14.38124,13.18,-0.22,1.74,3.0
1758088035.27972,1758087964.86926,0.0,0.0,0.0,29.22085,-29.9084,18.73572,13.18,-0.22,1.74,3.0
1758088035.29477,1758087964.87926,0.0,0.0,0.0,16.272,-13.40721,20.85567,17.04,-0.15,1.96,3.0
1758088035.31041,1758087964.88926,0.0,0.0,0.0,6.41713,-9.96947,20.22541,17.04,-0.15,1.96,3.0
1758088035.31164,1758087964.89926,0.0,0.0,0.0,-2.40642,-4.1253,18.50654,13.61,0.43,3.13,3.0
1758088035.32679,1758087964.90926,0.0,0.0,0.0,-9.11003,2.86479,14.43854,13.61,0.43,3.13,3.0
1758088035.332,1758087964.91926,0.0,0.0,0.0,-14.66772,9.22462,4.35448,13.1,0.11,2.75,3.0
1758088035.34881,1758087964.92926,0.0,0.0,0.0,-16.21471,10.8289,-4.1253,12.94,-1.39,2.97,3.0
1758088035.35133,1758087964.93926,0.0,0.0,0.0,-15.41257,11.74564,-12.49048,12.94,-1.39,2.97,3.0
1758088035.36751,1758087964.94926,0.0,0.0,0.0,-11.97482,12.204,-19.48057,14.32,-2.66,3.1,3.0
1758088035.3712,1758087964.95926,0.0,0.0,0.0,-4.0107,10.71431,-22.57454,14.32,-2.66,3.1,3.0
1758088035.38752,1758087964.96926,0.0,0.0,0.0,2.63561,7.33386,-19.70975,14.63,-3.08,3.62,3.0
1758088035.38954,1758087964.97926,0.0,0.0,0.0,9.62569,1.60428,-14.38124,14.63,-3.08,3.62,3.0
1758088035.40635,1758087964.98926,0.0,0.0,0.0,16.67307,-4.69825,-7.84952,12.86,-2.94,3.42,3.0
1758088035.42284,1758087964.99926,0.0,0.0,0.0,27.2155,-14.78231,-0.0573,10.59,-2.77,2.84,3.0
1758088035.42529,1758087965.00926,0.0,0.0,0.0,33.80451,-21.94428,3.03668,10.59,-2.77,2.84,3.0
1758088035.44238,1758087965.01926,0.0,0.0,0.0,39.87786,-29.50733,3.66693,8.41,-2.46,2.25,3.0
1758088035.44302,1758087965.02926,0.0,0.0,0.0,48.07116,-37.24226,1.83346,8.41,-2.46,2.25,3.0
1758088035.46257,1758087965.03926,0.0,0.0,0.0,52.48294,-46.63877,-0.0573,7.14,-1.87,2.1,3.0
1758088035.46407,1758087965.04926,0.0,0.0,0.0,55.7488,-52.02457,-2.29183,7.14,-1.87,2.1,3.0
1758088035.48043,1758087965.05926,0.0,0.0,0.0,58.3844,-56.03527,-3.60963,7.07,-0.84,1.95,3.0
1758088035.48238,1758087965.06926,0.0,0.0,0.0,60.50434,-60.33246,-4.18259,7.07,-0.84,1.95,3.0
1758088035.49765,1758087965.07926,0.0,0.0,0.0,60.61894,-60.90542,-3.89611,7.8,0.42,1.9,3.0
1758088035.50144,1758087965.08926,0.0,0.0,0.0,59.87409,-58.72818,-3.55234,8.56,1.03,1.7,3.0
1758088035.51675,1758087965.09926,0.0,0.0,0.0,58.49899,-55.34772,-2.86479,8.56,1.03,1.7,3.0
1758088035.53289,1758087965.10926,0.0,0.0,0.0,55.06125,-49.33167,-3.55234,9.17,1.13,1.69,3.0
1758088035.53493,1758087965.11926,0.0,0.0,0.0,52.25375,-43.54479,-5.21392,9.17,1.13,1.69,3.0
1758088035.55141,1758087965.12926,0.0,0.0,0.0,49.33167,-36.38282,-7.62034,9.91,0.99,1.89,3.0
1758088035.55288,1758087965.13926,0.0,0.0,0.0,46.75336,-27.78845,-10.48513,9.91,0.99,1.89,3.0
1758088035.56995,1758087965.14926,0.0,0.0,0.0,43.60209,-15.75634,-14.09476,10.58,0.85,1.61,3.0
1758088035.57193,1758087965.15926,0.0,0.0,0.0,42.28429,-8.99544,-15.46986,10.47,0.71,1.39,3.0
1758088035.58761,1758087965.16926,0.0,0.0,0.0,41.76862,-1.48969,-16.272,10.47,0.71,1.39,3.0
1758088035.59042,1758087965.17926,0.0,0.0,0.0,41.99781,5.84417,-15.98552,10.32,0.43,1.11,3.0
1758088035.6066,1758087965.18926,0.0,0.0,0.0,43.02913,15.92823,-14.09476,10.32,0.43,1.11,3.0
1758088035.62353,1758087965.19926,0.0,0.0,0.0,43.94586,21.42862,-12.37589,10.04,0.11,1.19,3.0
1758088035.62402,1758087965.20926,0.0,0.0,0.0,44.748,26.41335,-10.8862,10.04,0.11,1.19,3.0
1758088035.64068,1758087965.21926,0.0,0.0,0.0,45.43555,30.48136,-8.42248,9.75,-0.15,1.43,3.0
1758088035.64162,1758087965.22926,0.0,0.0,0.0,45.83662,34.14828,-7.62034,9.25,-0.27,1.55,3.0
1758088035.65771,1758087965.23926,0.0,0.0,0.0,45.83662,34.77854,-6.53172,9.25,-0.27,1.55,3.0
1758088035.66184,1758087965.24926,0.0,0.0,0.0,45.60744,35.3515,-6.18794,8.56,-0.13,1.43,3.0
1758088035.67667,1758087965.25926,0.0,0.0,0.0,44.748,35.06502,-5.50039,8.56,-0.13,1.43,3.0
1758088035.6817,1758087965.26926,0.0,0.0,0.0,44.00316,33.17426,-5.27121,7.89,0.07,1.1,3.0
1758088035.69672,1758087965.27926,0.0,0.0,0.0,43.14373,30.19488,-3.89611,7.89,0.07,1.1,3.0
1758088035.69957,1758087965.28926,0.0,0.0,0.0,42.51347,27.67386,-3.03668,7.25,0.21,1.11,3.0
1758088035.71575,1758087965.29926,0.0,0.0,0.0,39.76327,23.60586,-2.92208,7.08,0.21,1.02,3.0
1758088035.73164,1758087965.30926,0.0,0.0,0.0,37.64333,23.72045,-3.49504,7.08,0.39,1.02,3.0
1758088035.73224,1758087965.31926,0.0,0.0,0.0,35.12231,21.94428,-3.03668,7.48,0.75,0.97,3.0
1758088035.75069,1758087965.32926,0.0,0.0,0.0,33.00237,16.90226,-3.60963,7.48,0.75,0.97,3.0
1758088035.75185,1758087965.33926,0.0,0.0,0.0,29.67921,10.25595,-4.29718,7.24,1.06,0.91,3.0
1758088035.76691,1758087965.34926,0.0,0.0,0.0,27.96034,6.7609,-4.81285,7.24,1.06,0.91,3.0
1758088035.76928,1758087965.35926,0.0,0.0,0.0,27.10091,5.55769,-4.69825,7.85,1.19,0.66,3.0
1758088035.78471,1758087965.36926,0.0,0.0,0.0,26.81443,2.6929,-4.35448,7.85,1.19,0.66,3.0
1758088035.80163,1758087965.37926,0.0,0.0,0.0,26.75713,-2.6929,-3.72423,7.91,1.05,0.57,3.0
1758088035.80224,1758087965.38926,0.0,0.0,0.0,27.38738,-2.34913,-2.46372,8.44,0.83,0.68,3.0
1758088035.80697,1758087965.39926,0.0,0.0,0.0,27.73116,-2.40642,-2.11994,8.44,0.83,0.68,3.0
1758088035.82229,1758087965.40926,0.0,0.0,0.0,27.50197,-2.6929,-1.71887,9.04,0.6,0.66,3.0
1758088035.83901,1758087965.41926,0.0,0.0,0.0,26.75713,-2.63561,-1.77617,9.04,0.6,0.66,3.0
1758088035.83994,1758087965.42926,0.0,0.0,0.0,25.8404,-2.11994,-1.60428,9.58,0.51,0.95,3.0
1758088035.85495,1758087965.43926,0.0,0.0,0.0,24.57989,-1.03132,-2.34913,9.58,0.51,0.95,3.0
1758088035.87068,1758087965.44926,0.0,0.0,0.0,22.68913,0.80214,-2.6929,9.9,0.52,1.1,3.0
1758088035.87222,1758087965.45926,0.0,0.0,0.0,21.48592,1.48969,-2.11994,9.89,0.54,1.13,3.0
1758088035.8867,1758087965.46926,0.0,0.0,0.0,20.16812,1.14592,-2.23454,9.89,0.54,1.13,3.0
1758088035.8882,1758087965.47926,0.0,0.0,0.0,18.56383,1.3751,-1.66158,9.65,0.55,0.81,3.0
1758088035.90982,1758087965.48926,0.0,0.0,0.0,16.04282,1.20321,0.0573,9.65,0.55,0.81,3.0
1758088035.91231,1758087965.49926,0.0,0.0,0.0,13.75099,6.99009,1.3751,9.66,0.66,0.83,3.0
1758088035.92797,1758087965.50926,0.0,0.0,0.0,10.94349,10.94349,1.94806,9.66,0.66,0.83,3.0
1758088035.92918,1758087965.51926,0.0,0.0,0.0,7.67763,11.45916,2.57831,9.52,0.88,1.2,3.0
1758088035.94366,1758087965.52926,0.0,0.0,0.0,2.86479,6.41713,4.98473,8.91,0.97,1.17,3.0
1758088035.96075,1758087965.53926,0.0,0.0,0.0,-1.71887,7.10468,4.69825,8.91,0.97,1.17,3.0
1758088035.96188,1758087965.54926,0.0,0.0,0.0,-6.24524,6.8182,4.69825,9.42,1.12,0.82,3.0
1758088035.97671,1758087965.55926,0.0,0.0,0.0,-11.57375,7.50575,3.09397,9.42,1.12,0.82,3.0
1758088035.9779,1758087965.56926,0.0,0.0,0.0,-19.36597,9.11003,0.40107,9.81,1.37,0.35,3.0
1758088035.99595,1758087965.57926,0.0,0.0,0.0,-24.12152,9.39651,-2.86479,9.81,1.37,0.35,3.0
1758088035.99692,1758087965.58926,0.0,0.0,0.0,-27.61657,4.35448,-5.55769,9.75,1.55,0.26,3.0
1758088036.01226,1758087965.59926,0.0,0.0,0.0,-29.8511,-4.69825,-6.24524,9.75,1.55,0.26,3.0
1758088036.02769,1758087965.60926,0.0,0.0,0.0,-30.88243,-11.51645,-6.58902,9.31,1.48,-0.02,3.0
1758088036.02889,1758087965.61926,0.0,0.0,0.0,-31.45539,-13.80828,-5.21392,9.81,1.11,-0.28,3.0
1758088036.04577,1758087965.62926,0.0,0.0,0.0,-32.37212,-12.60507,-3.55234,9.81,1.11,-0.28,3.0
1758088036.04695,1758087965.63926,0.0,0.0,0.0,-33.80451,2.29183,0.0573,11.25,0.81,0.22,3.0
1758088036.06234,1758087965.64926,0.0,0.0,0.0,-35.2369,26.75713,2.63561,11.25,0.81,0.22,3.0
1758088036.07781,1758087965.65926,0.0,0.0,0.0,-37.58603,7.62034,1.3178,11.39,0.77,2.43,3.0
1758088036.07921,1758087965.66926,0.0,0.0,0.0,-35.86716,-29.33544,-1.77617,11.39,0.77,2.43,3.0
1758088036.09388,1758087965.67926,0.0,0.0,0.0,-35.2942,-34.43476,-17.36062,9.13,0.6,4.56,3.0
1758088036.11101,1758087965.68926,0.0,0.0,0.0,-30.02299,0.0573,-22.28806,17.89,0.28,1.1,3.0
1758088036.11197,1758087965.69926,0.0,0.0,0.0,-22.97561,19.76705,-24.35071,17.89,0.28,1.1,3.0
1758088036.12703,1758087965.70926,0.0,0.0,0.0,-14.72501,20.45459,-22.97561,13.14,-0.79,1.81,3.0
1758088036.12884,1758087965.71926,0.0,0.0,0.0,-2.57831,18.22006,-16.95955,13.14,-0.79,1.81,3.0
1758088036.14506,1758087965.72926,0.0,0.0,0.0,3.72423,22.34536,-11.22997,11.1,-1.74,2.78,3.0
1758088036.148,1758087965.73926,0.0,0.0,0.0,8.70896,27.61657,-3.66693,11.1,-1.74,2.78,3.0
1758088036.16531,1758087965.74926,0.0,0.0,0.0,11.74564,28.87707,5.4431,12.35,-1.15,2.45,3.0
1758088036.1798,1758087965.75926,0.0,0.0,0.0,11.74564,17.18874,19.19409,12.69,0.49,3.44,3.0
1758088036.18096,1758087965.76926,0.0,0.0,0.0,8.76626,11.00079,25.09555,12.69,0.49,3.44,3.0
1758088036.19674,1758087965.77926,0.0,0.0,0.0,4.23989,9.74028,26.87172,14.33,1.49,2.79,3.0
1758088036.19908,1758087965.78926,0.0,0.0,0.0,-0.97403,8.99544,26.01229,14.33,1.49,2.79,3.0
1758088036.21567,1758087965.79926,0.0,0.0,0.0,-10.08406,3.26586,20.05352,14.27,2.08,3.21,3.0
1758088036.23081,1758087965.80926,0.0,0.0,0.0,-16.38659,-1.14592,14.72501,14.27,2.08,3.21,3.0
1758088036.23221,1758087965.81926,0.0,0.0,0.0,-22.11617,-4.52637,9.28192,12.98,2.1,3.2,3.0
1758088036.24705,1758087965.82926,0.0,0.0,0.0,-26.87172,-7.50575,2.57831,12.98,2.1,3.2,3.0
1758088036.25227,1758087965.83926,0.0,0.0,0.0,-33.34615,-14.72501,-0.57296,11.21,1.52,3.09,3.0
1758088036.26711,1758087965.84926,0.0,0.0,0.0,-36.7266,-19.99623,-2.6929,9.0,0.84,2.88,3.0
1758088036.27229,1758087965.85926,0.0,0.0,0.0,-39.87786,-25.7831,-3.95341,9.0,0.84,2.88,3.0
1758088036.28709,1758087965.86926,0.0,0.0,0.0,-42.62806,-34.0337,-3.55234,7.81,0.27,2.81,3.0
1758088036.29207,1758087965.87926,0.0,0.0,0.0,-43.37291,-36.38282,-2.23454,7.81,0.27,2.81,3.0
1758088036.30712,1758087965.88926,0.0,0.0,0.0,-43.25832,-37.52874,-0.51566,7.84,-0.45,2.4,3.0
1758088036.30885,1758087965.89926,0.0,0.0,0.0,-42.68536,-37.98711,1.3178,7.84,-0.45,2.4,3.0
1758088036.32666,1758087965.90926,0.0,0.0,0.0,-41.31026,-36.84119,3.38045,8.12,-1.52,2.26,3.0
1758088036.3281,1758087965.91926,0.0,0.0,0.0,-39.4195,-35.2942,4.64096,8.56,-2.35,2.03,3.0
1758088036.34589,1758087965.92926,0.0,0.0,0.0,-37.47144,-33.63263,6.07335,8.56,-2.35,2.03,3.0
1758088036.34686,1758087965.93926,0.0,0.0,0.0,-35.2942,-30.93972,7.73493,9.01,-2.43,1.95,3.0
1758088036.36771,1758087965.94926,0.0,0.0,0.0,-32.14294,-24.23611,10.8862,9.01,-2.43,1.95,3.0
1758088036.36855,1758087965.95926,0.0,0.0,0.0,-30.25217,-17.76169,13.5218,9.49,-1.9,1.91,3.0
1758088036.38515,1758087965.96926,0.0,0.0,0.0,-28.87707,-10.65701,16.38659,9.49,-1.9,1.91,3.0
1758088036.38693,1758087965.97926,0.0,0.0,0.0,-27.78845,-4.23989,18.79302,9.56,-1.22,1.99,3.0
1758088036.40712,1758087965.98926,0.0,0.0,0.0,-26.87172,4.58366,21.48592,9.35,-0.85,1.9,3.0
1758088036.40994,1758087965.99926,0.0,0.0,0.0,-27.33009,11.28727,22.34536,9.35,-0.85,1.9,3.0
1758088036.42696,1758087966.00926,0.0,0.0,0.0,-28.30412,17.30333,21.88699,9.72,-0.71,1.64,3.0
1758088036.42819,1758087966.01926,0.0,0.0,0.0,-29.39274,21.88699,20.85567,9.72,-0.71,1.64,3.0
1758088036.446,1758087966.02926,0.0,0.0,0.0,-30.88243,29.33544,18.33465,9.89,-0.67,1.28,3.0
1758088036.44773,1758087966.03926,0.0,0.0,0.0,-31.91375,34.32018,16.38659,9.89,-0.67,1.28,3.0
1758088036.46333,1758087966.04926,0.0,0.0,0.0,-32.77319,39.3622,15.0115,10.11,-0.81,1.27,3.0
1758088036.48153,1758087966.05926,0.0,0.0,0.0,-34.26288,45.83662,13.00614,10.11,-0.81,1.27,3.0
1758088036.48312,1758087966.06926,0.0,0.0,0.0,-35.2942,47.89928,11.97482,9.92,-0.85,1.49,3.0
1758088036.49783,1758087966.07926,0.0,0.0,0.0,-36.32552,48.8733,11.22997,9.41,-0.77,1.66,3.0
1758088036.49993,1758087966.08926,0.0,0.0,0.0,-37.58603,49.56085,10.65701,9.41,-0.77,1.66,3.0
1758088036.515,1758087966.09926,0.0,0.0,0.0,-39.4768,50.47758,10.02676,9.18,-0.74,1.55,3.0
1758088036.53098,1758087966.10926,0.0,0.0,0.0,-41.25296,49.90463,8.93814,9.18,-0.74,1.55,3.0
1758088036.53213,1758087966.11926,0.0,0.0,0.0,-42.62806,47.61279,8.02141,8.62,-0.7,1.57,3.0
1758088036.54703,1758087966.12926,0.0,0.0,0.0,-43.54479,42.74266,6.7609,8.62,-0.7,1.57,3.0
1758088036.54899,1758087966.13926,0.0,0.0,0.0,-42.91454,33.46074,6.13065,7.89,-0.71,1.68,3.0
1758088036.56398,1758087966.14926,0.0,0.0,0.0,-41.88322,28.70519,5.55769,7.98,-0.97,1.39,3.0
1758088036.581,1758087966.15926,0.0,0.0,0.0,-39.82057,23.26209,5.90147,7.98,-0.97,1.39,3.0
1758088036.58218,1758087966.16926,0.0,0.0,0.0,-37.47144,17.47521,6.87549,8.0,-1.36,1.32,3.0
1758088036.59783,1758087966.17926,0.0,0.0,0.0,-33.68992,11.28727,8.42248,8.0,-1.36,1.32,3.0
1758088036.59895,1758087966.18926,0.0,0.0,0.0,-31.51268,6.99009,8.76626,7.85,-1.62,1.39,3.0
1758088036.61469,1758087966.19926,0.0,0.0,0.0,-29.96569,1.08862,8.42248,7.85,-1.62,1.39,3.0
1758088036.63096,1758087966.20926,0.0,0.0,0.0,-28.93437,-4.29718,7.62034,7.36,-1.55,1.01,3.0
1758088036.63252,1758087966.21926,0.0,0.0,0.0,-28.07493,-10.8289,5.21392,7.5,-1.37,0.68,3.0
1758088036.64698,1758087966.22926,0.0,0.0,0.0,-27.84575,-14.20935,2.86479,7.5,-1.37,0.68,3.0
1758088036.6497,1758087966.23926,0.0,0.0,0.0,-27.84575,-16.61578,0.45837,7.9,-1.29,0.62,3.0
1758088036.66517,1758087966.24926,0.0,0.0,0.0,-27.73116,-18.9649,-2.92208,7.9,-1.29,0.62,3.0
1758088036.66697,1758087966.25926,0.0,0.0,0.0,-27.50197,-21.48592,-3.95341,8.27,-1.31,1.08,3.0
1758088036.68477,1758087966.26926,0.0,0.0,0.0,-27.04361,-22.23076,-4.64096,8.27,-1.31,1.08,3.0
1758088036.68768,1758087966.27926,0.0,0.0,0.0,-26.47065,-21.42862,-4.1253,8.67,-1.46,1.36,3.0
1758088036.70596,1758087966.28926,0.0,0.0,0.0,-24.57989,-18.50654,-3.03668,8.67,-1.46,1.36,3.0
1758088036.70718,1758087966.29926,0.0,0.0,0.0,-23.54857,-14.38124,-1.77617,8.98,-1.67,1.39,3.0
1758088036.72475,1758087966.30926,0.0,0.0,0.0,-21.94428,-9.96947,-0.85944,9.23,-1.91,1.35,3.0
1758088036.74123,1758087966.31926,0.0,0.0,0.0,-19.99623,-5.32851,-0.11459,9.23,-1.91,1.35,3.0
1758088036.74246,1758087966.32926,0.0,0.0,0.0,-16.55848,1.60428,-0.0573,9.42,-2.03,1.34,3.0
1758088036.75724,1758087966.33926,0.0,0.0,0.0,-14.15206,5.95876,-0.0573,9.42,-2.03,1.34,3.0
1758088036.75826,1758087966.34926,0.0,0.0,0.0,-11.80293,9.74028,-0.68755,9.46,-1.96,1.29,3.0
1758088036.77328,1758087966.35926,0.0,0.0,0.0,-9.28192,14.15206,-1.43239,9.46,-1.96,1.29,3.0
1758088036.78997,1758087966.36926,0.0,0.0,0.0,-5.72958,19.07949,-3.03668,9.41,-1.8,1.14,3.0
1758088036.79277,1758087966.37926,0.0,0.0,0.0,-3.60963,19.42327,-3.83882,9.11,-1.63,0.84,3.0
1758088036.81,1758087966.38926,0.0,0.0,0.0,-1.43239,19.48057,-4.29718,9.11,-1.63,0.84,3.0
1758088036.81283,1758087966.39926,0.0,0.0,0.0,0.85944,20.16812,-5.50039,9.34,-1.69,0.34,3.0
1758088036.828,1758087966.40926,0.0,0.0,0.0,4.46907,21.48592,-5.78687,9.34,-1.69,0.34,3.0
1758088036.82921,1758087966.41926,0.0,0.0,0.0,7.96411,20.16812,-5.61499,9.4,-1.98,0.48,3.0
1758088036.84427,1758087966.42926,0.0,0.0,0.0,11.34457,19.19409,-4.81285,9.4,-1.98,0.48,3.0
1758088036.86029,1758087966.43926,0.0,0.0,0.0,14.43854,17.81899,-3.09397,9.29,-2.23,0.63,3.0
1758088036.8615,1758087966.44926,0.0,0.0,0.0,19.53786,13.06344,-1.43239,9.26,-2.46,0.58,3.0
1758088036.87639,1758087966.45926,0.0,0.0,0.0,22.91831,6.47442,0.68755,9.26,-2.46,0.58,3.0
1758088036.87723,1758087966.46926,0.0,0.0,0.0,24.57989,-5.27121,1.48969,8.84,-2.54,0.29,3.0
1758088036.89505,1758087966.47926,0.0,0.0,0.0,25.72581,-22.74642,0.68755,8.84,-2.54,0.29,3.0
1758088036.91138,1758087966.48926,0.0,0.0,0.0,27.10091,-12.83425,0.51566,9.41,-2.31,0.59,3.0
1758088036.91307,1758087966.49926,0.0,0.0,0.0,26.18417,7.04738,0.80214,9.41,-2.31,0.59,3.0
1758088036.92918,1758087966.50926,0.0,0.0,0.0,26.52795,3.72423,-0.34377,12.6,-1.77,3.35,3.0
1758088036.9308,1758087966.51926,0.0,0.0,0.0,26.18417,-22.51724,4.1253,12.6,-1.77,3.93,3.0
1758088036.94609,1758087966.52926,0.0,0.0,0.0,24.35071,-32.14294,7.50575,10.39,-1.2,3.93,3.0
1758088036.94723,1758087966.53926,0.0,0.0,0.0,19.70975,-29.67921,8.76626,14.26,-1.17,1.91,3.0
1758088036.96408,1758087966.54926,0.0,0.0,0.0,15.75634,-23.72045,9.11003,14.26,-1.17,1.91,3.0
1758088036.98106,1758087966.55926,0.0,0.0,0.0,9.39651,-16.272,7.96411,15.0,-1.03,1.36,3.0
1758088036.98413,1758087966.56926,0.0,0.0,0.0,5.50039,-9.74028,4.81285,15.0,-1.03,1.36,3.0
1758088036.99935,1758087966.57926,0.0,0.0,0.0,2.23454,-5.50039,-0.68755,14.68,-1.25,3.73,3.0
1758088037.00051,1758087966.58926,0.0,0.0,0.0,0.40107,-5.4431,-7.73493,14.68,-1.25,3.73,3.0
1758088037.0151,1758087966.59926,0.0,0.0,0.0,0.0573,-5.61499,-17.30333,14.51,-1.78,3.29,3.0
1758088037.03105,1758087966.60926,0.0,0.0,0.0,1.03132,-4.35448,-21.02755,14.83,-1.96,3.42,3.0
1758088037.03226,1758087966.61926,0.0,0.0,0.0,3.09397,-4.29718,-22.40265,14.83,-1.96,3.42,3.0
1758088037.04745,1758087966.62926,0.0,0.0,0.0,6.18794,-7.62034,-20.74107,12.83,-1.84,3.53,3.0
1758088037.04873,1758087966.63926,0.0,0.0,0.0,12.08941,-18.22006,-15.64175,12.83,-1.84,3.53,3.0
1758088037.06306,1758087966.64926,0.0,0.0,0.0,16.38659,-27.2155,-11.91752,10.61,-2.0,3.32,3.0
1758088037.08086,1758087966.65926,0.0,0.0,0.0,20.74107,-34.77854,-8.88085,10.61,-2.0,3.32,3.0
1758088037.08211,1758087966.66926,0.0,0.0,0.0,27.04361,-42.57077,-5.61499,8.84,-2.19,2.62,3.0
1758088037.09709,1758087966.67926,0.0,0.0,0.0,30.99702,-48.52953,-4.69825,7.46,-2.15,2.69,3.0
1758088037.09866,1758087966.68926,0.0,0.0,0.0,34.32018,-53.91533,-5.27121,7.46,-2.15,2.69,3.0
1758088037.11339,1758087966.69926,0.0,0.0,0.0,36.84119,-58.09792,-5.84417,6.96,-1.72,2.2,3.0
1758088037.13012,1758087966.70926,0.0,0.0,0.0,38.27358,-59.87409,-7.04738,6.96,-1.72,2.2,3.0
1758088037.13134,1758087966.71926,0.0,0.0,0.0,38.1017,-59.07195,-7.21927,7.73,-0.65,1.84,3.0
1758088037.14613,1758087966.72926,0.0,0.0,0.0,36.89849,-57.23849,-6.8182,7.73,-0.65,1.84,3.0
1758088037.14733,1758087966.73926,0.0,0.0,0.0,34.77854,-54.431,-6.58902,8.85,0.56,1.8,3.0
1758088037.1634,1758087966.74926,0.0,0.0,0.0,30.53865,-48.41494,-6.53172,9.85,1.22,1.96,3.0
1758088037.17974,1758087966.75926,0.0,0.0,0.0,27.61657,-42.57077,-7.79223,9.85,1.22,1.96,3.0
1758088037.18035,1758087966.76926,0.0,0.0,0.0,24.63719,-36.38282,-9.28192,10.35,1.17,1.76,3.0
1758088037.19542,1758087966.77926,0.0,0.0,0.0,21.7151,-28.99167,-11.28727,10.35,1.17,1.76,3.0
1758088037.21143,1758087966.78926,0.0,0.0,0.0,18.73572,-18.16276,-14.32395,10.22,0.63,1.57,3.0
1758088037.21278,1758087966.79926,0.0,0.0,0.0,17.01685,-11.74564,-15.87093,10.22,0.63,1.57,3.0
1758088037.22741,1758087966.80926,0.0,0.0,0.0,16.84496,-4.87014,-16.73037,9.91,-0.02,1.34,3.0
1758088037.22863,1758087966.81926,0.0,0.0,0.0,17.18874,1.71887,-17.24603,9.91,-0.02,1.34,3.0
1758088037.24638,1758087966.82926,0.0,0.0,0.0,18.9649,9.85487,-17.24603,9.86,-0.44,1.22,3.0
1758088037.24737,1758087966.83926,0.0,0.0,0.0,21.08485,14.66772,-16.61578,9.71,-0.62,1.43,3.0
1758088037.26418,1758087966.84926,0.0,0.0,0.0,23.37668,18.16276,-15.75634,9.71,-0.62,1.43,3.0
1758088037.2812,1758087966.85926,0.0,0.0,0.0,27.38738,20.45459,-15.24068,9.45,-0.68,1.5,3.0
1758088037.28267,1758087966.86926,0.0,0.0,0.0,29.96569,23.72045,-14.83961,9.45,-0.68,1.5,3.0
1758088037.29717,1758087966.87926,0.0,0.0,0.0,32.37212,25.38203,-14.49583,9.32,-0.72,1.72,3.0
1758088037.29868,1758087966.88926,0.0,0.0,0.0,34.49206,25.21014,-14.32395,9.32,-0.72,1.72,3.0
1758088037.31329,1758087966.89926,0.0,0.0,0.0,37.58603,24.00693,-12.89155,8.62,-0.65,1.34,3.0
1758088037.33128,1758087966.90926,0.0,0.0,0.0,38.90384,23.54857,-11.97482,8.18,-0.46,1.23,3.0
1758088037.33244,1758087966.91926,0.0,0.0,0.0,39.4195,23.49127,-12.08941,8.18,-0.46,1.23,3.0
1758088037.34721,1758087966.92926,0.0,0.0,0.0,38.90384,22.00158,-11.86023,7.69,-0.11,0.9,3.0
1758088037.34841,1758087966.93926,0.0,0.0,0.0,38.38818,20.16812,-12.83425,7.69,-0.11,0.9,3.0
1758088037.36506,1758087966.94926,0.0,0.0,0.0,37.35685,17.30333,-13.5791,7.29,0.37,0.79,3.0
1758088037.38023,1758087966.95926,0.0,0.0,0.0,36.55471,14.32395,-13.80828,7.29,0.37,0.79,3.0
1758088037.3814,1758087966.96926,0.0,0.0,0.0,34.77854,11.11538,-13.40721,7.1,0.76,0.6,3.0
1758088037.39645,1758087966.97926,0.0,0.0,0.0,32.6013,6.70361,-12.2613,7.26,0.93,0.61,3.0
1758088037.3974,1758087966.98926,0.0,0.0,0.0,30.99702,2.57831,-11.51645,7.26,0.93,0.61,3.0
1758088037.41423,1758087966.99926,0.0,0.0,0.0,29.39274,-0.0573,-9.74028,7.48,0.9,0.49,3.0
1758088037.43102,1758087967.00926,0.0,0.0,0.0,27.2155,-2.97938,-8.76626,7.48,0.9,0.49,3.0
1758088037.43247,1758087967.01926,0.0,0.0,0.0,24.35071,-5.84417,-7.21927,7.87,0.76,0.71,3.0
1758088037.44722,1758087967.02926,0.0,0.0,0.0,22.40265,-6.47442,-6.58902,7.87,0.76,0.71,3.0
1758088037.44878,1758087967.03926,0.0,0.0,0.0,20.45459,-5.84417,-6.24524,8.5,0.7,0.9,3.0
1758088037.46325,1758087967.04926,0.0,0.0,0.0,18.44924,-4.58366,-6.47442,8.5,0.7,0.9,3.0
1758088037.47924,1758087967.05926,0.0,0.0,0.0,15.58445,-1.94806,-6.53172,9.09,0.72,0.98,3.0
1758088037.4804,1758087967.06926,0.0,0.0,0.0,13.86558,0.22918,-6.87549,9.49,0.72,0.89,3.0
1758088037.49542,1758087967.07926,0.0,0.0,0.0,12.49048,2.11994,-6.87549,9.49,0.72,0.89,3.0
1758088037.51141,1758087967.08926,0.0,0.0,0.0,10.94349,5.09932,-6.8182,9.62,0.67,0.77,3.0
1758088037.51245,1758087967.09926,0.0,0.0,0.0,10.48513,7.04738,-6.24524,9.62,0.67,0.77,3.0
1758088037.5278,1758087967.10926,0.0,0.0,0.0,10.25595,8.99544,-5.27121,9.75,0.53,0.86,3.0
1758088037.52924,1758087967.11926,0.0,0.0,0.0,10.19865,9.33921,-4.23989,9.75,0.53,0.86,3.0
1758088037.54444,1758087967.12926,0.0,0.0,0.0,8.76626,11.51645,-4.29718,9.75,0.41,0.9,3.0
1758088037.56049,1758087967.13926,0.0,0.0,0.0,7.62034,12.77696,-4.18259,9.89,0.52,0.94,3.0
1758088037.56146,1758087967.14926,0.0,0.0,0.0,6.7609,9.5684,-4.0107,9.89,0.52,0.94,3.0
1758088037.57651,1758087967.15926,0.0,0.0,0.0,4.64096,10.08406,-4.18259,9.64,0.72,0.87,3.0
1758088037.57746,1758087967.16926,0.0,0.0,0.0,0.97403,11.17268,-4.69825,9.64,0.72,0.87,3.0
1758088037.59457,1758087967.17926,0.0,0.0,0.0,-2.06265,10.59972,-5.27121,9.79,1.05,1.15,3.0
1758088037.61132,1758087967.18926,0.0,0.0,0.0,-5.55769,9.74028,-6.35983,9.79,1.05,1.15,3.0
1758088037.61249,1758087967.19926,0.0,0.0,0.0,-9.11003,8.42248,-7.62034,9.47,1.32,0.79,3.0
1758088037.62758,1758087967.20926,0.0,0.0,0.0,-14.09476,6.70361,-10.31324,9.3,1.55,0.63,3.0
1758088037.62963,1758087967.21926,0.0,0.0,0.0,-16.61578,1.43239,-11.34457,9.3,1.55,0.63,3.0
1758088037.64451,1758087967.22926,0.0,0.0,0.0,-18.56383,-4.92744,-11.34457,8.84,1.61,0.0,3.0
1758088037.66055,1758087967.23926,0.0,0.0,0.0,-19.59516,-6.87549,-10.59972,8.84,1.61,0.0,3.0
1758088037.66151,1758087967.24926,0.0,0.0,0.0,-21.25674,-4.35448,-9.39651,9.41,1.39,-0.44,3.0
1758088037.67656,1758087967.25926,0.0,0.0,0.0,-22.34536,-5.15662,-7.44845,9.41,1.39,-0.44,3.0
1758088037.6775,1758087967.26926,0.0,0.0,0.0,-22.97561,-6.35983,-4.58366,9.4,1.27,-0.01,3.0
1758088037.69556,1758087967.27926,0.0,0.0,0.0,-24.80907,3.49504,-2.23454,9.4,1.27,-0.01,3.0
1758088037.71156,1758087967.28926,0.0,0.0,0.0,-28.87707,13.5218,-3.03668,10.63,1.19,0.42,3.0
1758088037.71252,1758087967.29926,0.0,0.0,0.0,-31.74186,7.79223,-4.81285,11.24,1.43,1.54,3.0
1758088037.73067,1758087967.30926,0.0,0.0,0.0,-33.68992,-15.46986,-8.25059,11.24,1.43,1.54,3.0
1758088037.73206,1758087967.31926,0.0,0.0,0.0,-37.52874,-24.29341,-18.56383,10.88,1.85,3.38,3.0
1758088037.74736,1758087967.32926,0.0,0.0,0.0,-36.84119,-0.68755,-20.34,10.88,1.85,3.38,3.0
1758088037.74859,1758087967.33926,0.0,0.0,0.0,-34.49206,16.55848,-18.50654,16.44,1.36,1.4,3.0
1758088037.76336,1758087967.34926,0.0,0.0,0.0,-30.88243,23.66316,-13.46451,16.44,1.36,1.4,3.0
1758088037.78032,1758087967.35926,0.0,0.0,0.0,-25.09555,27.10091,-2.7502,13.88,-0.05,2.48,3.0
1758088037.78179,1758087967.36926,0.0,0.0,0.0,-22.28806,28.87707,4.69825,13.75,-1.24,2.07,3.0
1758088037.79658,1758087967.37926,0.0,0.0,0.0,-20.45459,28.76248,11.86023,13.75,-1.24,2.07,3.0
1758088037.79868,1758087967.38926,0.0,0.0,0.0,-19.36597,25.72581,18.27736,14.48,-0.98,2.23,3.0
1758088037.81666,1758087967.39926,0.0,0.0,0.0,-18.90761,19.07949,25.26744,14.48,-0.98,2.23,3.0
1758088037.81753,1758087967.40926,0.0,0.0,0.0,-19.19409,15.64175,26.24147,14.77,0.38,2.35,3.0
1758088037.83432,1758087967.41926,0.0,0.0,0.0,-20.16812,15.0115,23.94964,14.77,0.38,2.35,3.0
1758088037.85164,1758087967.42926,0.0,0.0,0.0,-21.25674,15.12609,19.19409,14.75,1.41,2.36,3.0
1758088037.85282,1758087967.43926,0.0,0.0,0.0,-23.26209,10.71431,10.54242,13.28,1.8,2.58,3.0
1758088037.86743,1758087967.44926,0.0,0.0,0.0,-24.57989,6.99009,5.27121,13.28,1.8,2.58,3.0
1758088037.86937,1758087967.45926,0.0,0.0,0.0,-26.35606,4.0107,0.68755,11.35,1.35,2.43,3.0
1758088037.88668,1758087967.46926,0.0,0.0,0.0,-28.64789,-0.34377,-4.0107,11.35,1.35,2.43,3.0
1758088037.88789,1758087967.47926,0.0,0.0,0.0,-30.30947,-9.74028,-5.95876,8.87,0.65,2.44,3.0
1758088037.90366,1758087967.48926,0.0,0.0,0.0,-31.79916,-16.3293,-6.7609,8.87,0.65,2.44,3.0
1758088037.9197,1758087967.49926,0.0,0.0,0.0,-33.17426,-23.49127,-6.18794,7.05,0.16,2.64,3.0
1758088037.92334,1758087967.50926,0.0,0.0,0.0,-33.46074,-34.77854,-3.03668,7.05,0.16,2.64,3.0
1758088037.93835,1758087967.51926,0.0,0.0,0.0,-33.00237,-39.07573,-0.22918,6.4,-0.24,2.49,3.0
1758088037.93987,1758087967.52926,0.0,0.0,0.0,-32.20023,-42.05511,2.46372,6.98,-0.73,2.27,3.0
1758088037.95463,1758087967.53926,0.0,0.0,0.0,-31.16891,-44.9199,4.87014,6.98,-0.73,2.27,3.0
1758088037.97166,1758087967.54926,0.0,0.0,0.0,-29.27814,-45.83662,6.8182,7.87,-1.21,2.14,3.0
1758088037.97286,1758087967.55926,0.0,0.0,0.0,-27.44468,-44.8053,7.04738,7.87,-1.21,2.14,3.0
1758088037.98767,1758087967.56926,0.0,0.0,0.0,-25.8404,-43.4875,6.24524,9.09,-1.62,2.16,3.0
1758088037.99492,1758087967.57926,0.0,0.0,0.0,-24.12152,-40.39353,5.15662,9.09,-1.62,2.16,3.0
1758088038.01038,1758087967.58926,0.0,0.0,0.0,-22.05888,-32.08564,3.55234,9.8,-1.67,2.09,3.0
1758088038.01182,1758087967.59926,0.0,0.0,0.0,-20.97026,-25.61122,2.86479,9.93,-1.16,2.09,3.0
1758088038.02666,1758087967.60926,0.0,0.0,0.0,-20.05352,-20.11082,3.55234,9.93,-1.16,2.09,3.0
1758088038.02791,1758087967.61926,0.0,0.0,0.0,-19.42327,-14.43854,4.64096,9.39,-0.56,1.83,3.0
1758088038.04574,1758087967.62926,0.0,0.0,0.0,-19.19409,-6.41713,7.10468,9.39,-0.56,1.83,3.0
1758088038.06141,1758087967.63926,0.0,0.0,0.0,-19.25138,-1.08862,8.99544,9.07,-0.37,1.44,3.0
1758088038.06278,1758087967.64926,0.0,0.0,0.0,-19.88164,4.92744,10.65701,9.07,-0.37,1.44,3.0
1758088038.07744,1758087967.65926,0.0,0.0,0.0,-20.85567,9.91217,12.54778,9.22,-0.49,1.41,3.0
1758088038.07942,1758087967.66926,0.0,0.0,0.0,-22.63183,17.53251,13.17803,9.48,-0.65,1.5,3.0
1758088038.09466,1758087967.67926,0.0,0.0,0.0,-24.35071,22.00158,13.46451,9.48,-0.65,1.5,3.0
1758088038.11065,1758087967.68926,0.0,0.0,0.0,-26.12688,26.01229,13.12073,9.67,-0.68,1.58,3.0
1758088038.11238,1758087967.69926,0.0,0.0,0.0,-28.64789,30.19488,11.80293,9.67,-0.68,1.58,3.0
1758088038.12771,1758087967.70926,0.0,0.0,0.0,-29.73651,31.91375,10.8862,9.65,-0.66,1.5,3.0
1758088038.12942,1758087967.71926,0.0,0.0,0.0,-30.25217,32.77319,9.85487,9.65,-0.66,1.5,3.0
1758088038.14553,1758087967.72926,0.0,0.0,0.0,-30.48136,33.11696,8.93814,9.55,-0.67,1.37,3.0
1758088038.16146,1758087967.73926,0.0,0.0,0.0,-29.62192,33.34615,7.39116,9.55,-0.67,1.36,3.0
1758088038.16321,1758087967.74926,0.0,0.0,0.0,-28.99167,32.54401,6.70361,9.46,-0.75,1.36,3.0
1758088038.17749,1758087967.75926,0.0,0.0,0.0,-28.24682,29.67921,5.72958,8.98,-0.72,1.41,3.0
1758088038.18026,1758087967.76926,0.0,0.0,0.0,-27.10091,26.41335,4.92744,8.98,-0.72,1.41,3.0
1758088038.19552,1758087967.77926,0.0,0.0,0.0,-25.55392,19.59516,4.0107,8.42,-0.7,1.45,3.0
1758088038.21257,1758087967.78926,0.0,0.0,0.0,-24.23611,14.49583,3.49504,8.42,-0.7,1.45,3.0
1758088038.21344,1758087967.79926,0.0,0.0,0.0,-22.63183,10.48513,3.26586,7.94,-0.7,1.13,3.0
1758088038.22948,1758087967.80926,0.0,0.0,0.0,-21.7151,6.53172,3.20856,7.94,-0.7,1.13,3.0
1758088038.23149,1758087967.81926,0.0,0.0,0.0,-20.11082,-0.57296,3.26586,7.67,-0.7,0.99,3.0
1758088038.24646,1758087967.82926,0.0,0.0,0.0,-18.85031,-5.4431,1.83346,7.6,-1.04,0.94,3.0
1758088038.2479,1758087967.83926,0.0,0.0,0.0,-17.6471,-9.05273,0.85944,7.6,-1.04,0.94,3.0
1758088038.26351,1758087967.84926,0.0,0.0,0.0,-15.64175,-13.86558,-0.17189,7.83,-1.26,0.95,3.0
1758088038.27944,1758087967.85926,0.0,0.0,0.0,-12.60507,-20.85567,-0.51566,7.83,-1.26,0.95,3.0
1758088038.28147,1758087967.86926,0.0,0.0,0.0,-11.00079,-21.60051,0.40107,7.93,-1.19,0.81,3.0
1758088038.2968,1758087967.87926,0.0,0.0,0.0,-9.85487,-22.05888,0.57296,7.93,-1.19,0.81,3.0
1758088038.29769,1758087967.88926,0.0,0.0,0.0,-8.93814,-21.37133,1.20321,8.19,-1.13,0.64,3.0
1758088038.31363,1758087967.89926,0.0,0.0,0.0,-8.93814,-20.16812,1.20321,8.46,-1.04,0.85,3.0
1758088038.33164,1758087967.90926,0.0,0.0,0.0,-9.28192,-19.13679,0.97403,8.46,-1.04,0.85,3.0
1758088038.33303,1758087967.91926,0.0,0.0,0.0,-9.91217,-16.38659,0.57296,8.86,-0.9,0.86,3.0
1758088038.34754,1758087967.92926,0.0,0.0,0.0,-10.94349,-9.5684,-0.0573,8.86,-0.9,0.86,3.0
1758088038.34952,1758087967.93926,0.0,0.0,0.0,-11.80293,-4.0107,-0.45837,9.47,-0.81,0.95,3.0
1758088038.36456,1758087967.94926,0.0,0.0,0.0,-12.71966,2.57831,-1.08862,9.47,-0.81,0.95,3.0
1758088038.3816,1758087967.95926,0.0,0.0,0.0,-13.34992,8.59437,-1.71887,9.73,-0.73,1.05,3.0
1758088038.38357,1758087967.96926,0.0,0.0,0.0,-13.80828,15.92823,-2.92208,9.53,-0.73,0.76,3.0
1758088038.39881,1758087967.97926,0.0,0.0,0.0,-13.40721,21.37133,-3.89611,9.53,-0.73,0.76,3.0
1758088038.39999,1758087967.98926,0.0,0.0,0.0,-12.89155,25.26744,-4.52637,9.64,-0.78,0.56,3.0
1758088038.41473,1758087967.99926,0.0,0.0,0.0,-12.77696,27.2155,-5.15662,9.64,-0.78,0.56,3.0
1758088038.43183,1758087968.00926,0.0,0.0,0.0,-13.17803,29.50733,-5.95876,9.54,-0.77,0.25,3.0
1758088038.43304,1758087968.01926,0.0,0.0,0.0,-13.23533,31.16891,-6.99009,9.54,-0.77,0.25,3.0
1758088038.44798,1758087968.02926,0.0,0.0,0.0,-13.46451,31.74186,-8.25059,9.8,-0.88,0.32,3.0
1758088038.45198,1758087968.03926,0.0,0.0,0.0,-13.80828,30.30947,-9.74028,9.8,-0.88,0.32,3.0
