timeStamp,timeStampAlign,roll,pitch,yaw,gyro_x,gyro_y,gyro_z,acc_x,acc_y,acc_z,flag_num
1758076673.96506,1758076673.81662,0.0,0.0,0.0,6.53172,29.62192,0.80214,10.98,0.62,0.9,2.0
1758076673.96674,1758076673.82662,0.0,0.0,0.0,5.78687,39.64868,-1.08862,10.98,0.62,0.9,2.0
1758076673.98257,1758076673.83662,0.0,0.0,0.0,3.09397,52.65482,-2.97938,9.91,0.53,0.61,2.0
1758076673.98454,1758076673.84662,0.0,0.0,0.0,1.03132,60.96271,-5.21392,9.44,0.58,0.68,2.0
1758076674.00001,1758076673.85662,0.0,0.0,0.0,-0.34377,66.06203,-6.53172,9.44,0.58,0.68,2.0
1758076674.01739,1758076673.86662,0.0,0.0,0.0,-1.3178,71.79161,-6.8182,8.9,0.6,0.64,2.0
1758076674.02015,1758076673.87662,0.0,0.0,0.0,-1.43239,74.25533,-5.95876,8.9,0.6,0.64,2.0
1758076674.03604,1758076673.88662,0.0,0.0,0.0,-1.60428,76.43258,-4.35448,8.73,0.56,0.87,2.0
1758076674.03855,1758076673.89662,0.0,0.0,0.0,-1.3178,76.60446,-2.23454,8.73,0.56,0.87,2.0
1758076674.05404,1758076673.90662,0.0,0.0,0.0,-1.08862,75.91692,1.3178,8.67,0.49,0.65,2.0
1758076674.05501,1758076673.91662,0.0,0.0,0.0,-1.20321,73.73967,3.55234,8.74,0.38,0.86,2.0
1758076674.06997,1758076673.92661,0.0,0.0,0.0,-1.66158,69.21331,5.15662,8.74,0.38,0.86,2.0
1758076674.08599,1758076673.93661,0.0,0.0,0.0,-2.57831,63.48372,5.72958,8.58,0.35,1.02,2.0
1758076674.08702,1758076673.94661,0.0,0.0,0.0,-4.58366,55.11855,4.46907,8.58,0.35,1.02,2.0
1758076674.10182,1758076673.95661,0.0,0.0,0.0,-5.95876,50.47758,2.29183,8.63,0.47,1.02,2.0
1758076674.10456,1758076673.96661,0.0,0.0,0.0,-7.84952,45.72203,-0.40107,8.63,0.47,1.02,2.0
1758076674.12018,1758076673.97661,0.0,0.0,0.0,-10.48513,43.31561,-3.60963,8.79,0.69,0.88,2.0
1758076674.13823,1758076673.98661,0.0,0.0,0.0,-14.61043,38.84654,-8.136,8.73,0.93,1.04,2.0
1758076674.14344,1758076673.99661,0.0,0.0,0.0,-17.58981,33.23156,-10.08406,8.73,0.93,1.04,2.0
1758076674.14524,1758076674.00661,0.0,0.0,0.0,-21.31403,26.18417,-11.63104,8.0,1.16,0.68,2.0
1758076674.16516,1758076674.01661,0.0,0.0,0.0,-25.15285,20.74107,-11.97482,8.0,1.16,0.68,2.0
1758076674.17037,1758076674.02661,0.0,0.0,0.0,-30.19488,13.80828,-9.68299,7.9,1.29,0.15,2.0
1758076674.18511,1758076674.03661,0.0,0.0,0.0,-32.88778,8.76626,-7.10468,7.9,1.29,0.15,2.0
1758076674.19035,1758076674.04661,0.0,0.0,0.0,-35.52338,3.55234,-4.0107,8.01,1.32,0.19,2.0
1758076674.20506,1758076674.05661,0.0,0.0,0.0,-39.87786,-2.00535,-0.22918,8.01,1.32,0.19,2.0
1758076674.20611,1758076674.06661,0.0,0.0,0.0,-43.31561,-16.38659,-0.74485,8.39,1.41,0.86,2.0
1758076674.22105,1758076674.07661,0.0,0.0,0.0,-46.86795,-22.05888,-3.32316,8.97,1.77,1.01,2.0
1758076674.22292,1758076674.08661,0.0,0.0,0.0,-50.1911,-26.75713,-5.21392,8.97,1.77,1.01,2.0
1758076674.24023,1758076674.09661,0.0,0.0,0.0,-55.97798,-37.29956,-9.33921,9.64,1.88,1.18,2.0
1758076674.24274,1758076674.10661,0.0,0.0,0.0,-59.12925,-47.61279,-12.2613,9.64,1.88,1.18,2.0
1758076674.26451,1758076674.11661,0.0,0.0,0.0,-61.30648,-60.44705,-13.98017,9.37,1.84,0.24,2.0
1758076674.26687,1758076674.12661,0.0,0.0,0.0,-62.96807,-72.30728,-13.98017,9.37,1.84,0.24,2.0
1758076674.28195,1758076674.13661,0.0,0.0,0.0,-64.51505,-80.55787,-13.12073,9.47,1.39,-0.36,2.0
1758076674.28403,1758076674.14661,0.0,0.0,0.0,-66.06203,-79.35466,-11.86023,10.41,1.03,-1.09,2.0
1758076674.29927,1758076674.15661,0.0,0.0,0.0,-67.03606,-76.83365,-9.85487,10.41,1.03,-1.09,2.0
1758076674.31523,1758076674.16661,0.0,0.0,0.0,-68.29657,-78.55252,-8.42248,10.67,0.86,0.07,2.0
1758076674.31743,1758076674.17661,0.0,0.0,0.0,-68.35387,-73.3959,-9.5684,10.67,0.86,0.07,2.0
1758076674.33545,1758076674.18661,0.0,0.0,0.0,-64.22858,-67.66632,-8.65166,12.74,0.71,3.01,2.0
1758076674.33961,1758076674.19661,0.0,0.0,0.0,-63.99939,-105.82531,-16.04282,12.74,0.71,3.01,2.0
1758076674.35534,1758076674.20661,0.0,0.0,0.0,-63.48372,-129.25928,-26.35606,12.97,-0.44,6.4,2.0
1758076674.35645,1758076674.21661,0.0,0.0,0.0,-60.73353,-127.7123,-36.61201,16.49,-2.32,5.17,2.0
1758076674.37363,1758076674.22661,0.0,0.0,0.0,-57.12389,-115.90937,-38.38818,16.49,-2.32,5.17,2.0
1758076674.37486,1758076674.23661,0.0,0.0,0.0,-54.60288,-106.28368,-36.61201,13.19,-2.61,2.96,2.0
1758076674.39,1758076674.24661,0.0,0.0,0.0,-52.82671,-105.65342,-30.30947,13.19,-2.61,2.96,2.0
1758076674.40832,1758076674.25661,0.0,0.0,0.0,-51.73809,-102.96053,-23.66316,8.76,-2.01,2.67,2.0
1758076674.40979,1758076674.26661,0.0,0.0,0.0,-52.36834,-90.29816,-16.55848,8.76,-2.01,2.67,2.0
1758076674.42709,1758076674.27661,0.0,0.0,0.0,-54.94666,-76.43258,-9.28192,10.27,-1.47,2.52,2.0
1758076674.42803,1758076674.28661,0.0,0.0,0.0,-59.87409,-59.87409,0.11459,10.27,-1.47,2.52,2.0
1758076674.44328,1758076674.29661,0.0,0.0,0.0,-63.19725,-48.70141,4.87014,11.54,-0.92,2.94,2.0
1758076674.44579,1758076674.30661,0.0,0.0,0.0,-66.34852,-35.52338,8.0787,12.35,-0.28,1.29,2.0
1758076674.46204,1758076674.31661,0.0,0.0,0.0,-68.64035,-21.25674,9.85487,12.35,-0.28,1.29,2.0
1758076674.46463,1758076674.32661,0.0,0.0,0.0,-70.30193,1.03132,9.11003,12.34,-0.22,-0.37,2.0
1758076674.48022,1758076674.33661,0.0,0.0,0.0,-69.55708,16.67307,7.50575,12.34,-0.22,-0.37,2.0
1758076674.49877,1758076674.34661,0.0,0.0,0.0,-67.32255,31.45539,5.90147,11.74,-0.88,-0.75,2.0
1758076674.49991,1758076674.35661,0.0,0.0,0.0,-64.28587,44.57612,4.35448,11.74,-0.88,-0.75,2.0
1758076674.51503,1758076674.36661,0.0,0.0,0.0,-59.35843,62.5097,2.40642,10.64,-1.46,-0.11,2.0
1758076674.5167,1758076674.37661,0.0,0.0,0.0,-55.6915,71.21866,1.60428,9.14,-1.55,0.0,2.0
1758076674.5327,1758076674.38661,0.0,0.0,0.0,-53.39967,78.49522,0.22918,9.14,-1.55,0.0,2.0
1758076674.53467,1758076674.39661,0.0,0.0,0.0,-51.45161,84.2248,-1.3178,8.14,-1.36,0.15,2.0
1758076674.5501,1758076674.40661,0.0,0.0,0.0,-50.01921,89.55331,-4.23989,8.14,-1.36,0.15,2.0
1758076674.5545,1758076674.41661,0.0,0.0,0.0,-49.79003,89.49601,-5.72958,7.67,-0.9,0.36,2.0
1758076674.57055,1758076674.42661,0.0,0.0,0.0,-50.363,87.77714,-7.73493,7.67,-0.9,0.36,2.0
1758076674.57316,1758076674.43661,0.0,0.0,0.0,-50.87865,83.93832,-9.5684,7.52,-0.63,0.36,2.0
1758076674.58939,1758076674.44661,0.0,0.0,0.0,-51.27972,78.43793,-11.91752,8.22,-0.61,0.41,2.0
1758076674.60539,1758076674.45661,0.0,0.0,0.0,-50.64947,74.65641,-12.77696,8.22,-0.61,0.41,2.0
1758076674.60983,1758076674.46661,0.0,0.0,0.0,-49.50356,71.10406,-13.5791,8.89,-0.81,0.12,2.0
1758076674.6252,1758076674.47661,0.0,0.0,0.0,-46.40959,67.89551,-14.03747,8.89,-0.81,0.12,2.0
1758076674.63058,1758076674.48661,0.0,0.0,0.0,-43.65939,61.02001,-13.5218,9.08,-1.02,0.3,2.0
1758076674.64543,1758076674.49661,0.0,0.0,0.0,-40.39353,55.00395,-12.71966,9.08,-1.02,0.3,2.0
1758076674.65063,1758076674.50661,0.0,0.0,0.0,-37.01308,49.84733,-12.08941,8.6,-1.11,0.0,2.0
1758076674.66549,1758076674.51661,0.0,0.0,0.0,-31.56997,43.02913,-10.8862,8.6,-1.11,0.0,2.0
1758076674.6666,1758076674.52661,0.0,0.0,0.0,-27.33009,37.24226,-9.5684,8.55,-1.17,0.0,2.0
1758076674.68194,1758076674.53661,0.0,0.0,0.0,-22.57454,30.25217,-7.79223,8.43,-1.42,0.19,2.0
1758076674.68423,1758076674.54661,0.0,0.0,0.0,-17.18874,25.61122,-6.24524,8.43,-1.42,0.19,2.0
1758076674.69939,1758076674.55661,0.0,0.0,0.0,-8.30789,22.23076,-3.95341,9.0,-1.77,0.22,2.0
1758076674.71536,1758076674.56661,0.0,0.0,0.0,-1.83346,19.36597,-2.6929,9.0,-1.77,0.22,2.0
1758076674.71648,1758076674.57661,0.0,0.0,0.0,4.52637,15.24068,-1.71887,9.19,-1.9,0.24,2.0
1758076674.73307,1758076674.58661,0.0,0.0,0.0,10.8289,10.02676,-1.08862,9.19,-1.9,0.24,2.0
1758076674.7351,1758076674.59661,0.0,0.0,0.0,20.22541,0.85944,-1.60428,9.13,-1.84,0.15,2.0
1758076674.75047,1758076674.60661,0.0,0.0,0.0,25.09555,-9.33921,-1.20321,9.13,-1.63,-0.23,2.0
1758076674.76651,1758076674.61661,0.0,0.0,0.0,28.07493,-13.69369,-4.29718,9.13,-1.63,-0.23,2.0
1758076674.76747,1758076674.62661,0.0,0.0,0.0,30.48136,-12.43318,-6.58902,10.26,-1.45,-0.22,2.0
1758076674.78257,1758076674.63661,0.0,0.0,0.0,35.63798,2.00535,-8.59437,10.26,-1.45,-0.22,2.0
1758076674.78461,1758076674.64661,0.0,0.0,0.0,38.56006,19.36597,-7.84952,12.59,-1.23,0.12,2.0
1758076674.79926,1758076674.65661,0.0,0.0,0.0,39.76327,32.6013,-9.4538,12.59,-1.23,0.12,2.0
1758076674.8155,1758076674.66661,0.0,0.0,0.0,39.87786,38.50277,-11.80293,13.09,-1.09,0.97,2.0
1758076674.81773,1758076674.67661,0.0,0.0,0.0,38.73195,18.90761,-15.75634,10.72,-0.91,1.4,2.0
1758076674.83252,1758076674.68661,0.0,0.0,0.0,39.64868,-15.75634,-14.20935,10.72,-0.91,1.4,2.0
1758076674.83354,1758076674.69661,0.0,0.0,0.0,39.13302,-42.39888,-7.44845,9.15,-1.06,-0.42,2.0
1758076674.84861,1758076674.70661,0.0,0.0,0.0,33.23156,-38.15899,-0.80214,9.15,-1.06,-0.42,2.0
1758076674.8646,1758076674.71661,0.0,0.0,0.0,27.73116,-28.07493,0.34377,12.5,-1.16,-0.18,2.0
1758076674.86663,1758076674.72661,0.0,0.0,0.0,23.94964,-25.49662,3.66693,12.5,-1.16,-0.18,2.0
1758076674.8817,1758076674.73661,0.0,0.0,0.0,18.50654,-25.55392,4.23989,10.93,-0.8,-1.03,2.0
1758076674.88416,1758076674.74661,0.0,0.0,0.0,7.62034,-23.31938,4.98473,10.93,-0.8,1.58,2.0
1758076674.90061,1758076674.75661,0.0,0.0,0.0,-1.60428,-26.47065,4.58366,10.43,-0.39,1.58,2.0
1758076674.90423,1758076674.76661,0.0,0.0,0.0,-12.08941,-36.49741,5.72958,10.39,0.89,2.0,2.0
1758076674.91957,1758076674.77661,0.0,0.0,0.0,-22.68913,-49.96192,10.19865,10.39,0.89,2.0,2.0
1758076674.93568,1758076674.78661,0.0,0.0,0.0,-38.1017,-65.89015,19.82434,11.47,2.38,4.14,2.0
1758076674.93732,1758076674.79661,0.0,0.0,0.0,-46.86795,-69.78626,24.86637,11.47,2.38,4.14,2.0
1758076674.95337,1758076674.80661,0.0,0.0,0.0,-54.25911,-67.26525,26.64254,12.16,3.11,3.75,2.0
1758076674.95439,1758076674.81661,0.0,0.0,0.0,-59.75951,-63.25455,24.63719,12.16,3.11,3.75,2.0
1758076674.97518,1758076674.82661,0.0,0.0,0.0,-63.13995,-61.42108,19.36597,10.9,2.71,4.08,2.0
1758076674.97966,1758076674.83661,0.0,0.0,0.0,-61.53567,-59.53032,14.83961,9.06,1.31,4.24,2.0
1758076674.9944,1758076674.84661,0.0,0.0,0.0,-56.55093,-53.74345,10.54242,9.06,1.31,4.24,2.0
1758076674.9956,1758076674.85661,0.0,0.0,0.0,-49.33167,-44.17505,6.70361,9.53,0.2,3.73,2.0
1758076675.01067,1758076674.86661,0.0,0.0,0.0,-36.84119,-27.78845,1.66158,9.53,0.2,3.73,2.0
1758076675.01475,1758076674.87661,0.0,0.0,0.0,-29.39274,-15.92823,-1.14592,10.9,-0.52,2.91,2.0
1758076675.03067,1758076674.88661,0.0,0.0,0.0,-24.00693,-2.00535,-3.32316,10.9,-0.52,2.91,2.0
1758076675.03429,1758076674.89661,0.0,0.0,0.0,-19.25138,12.08941,-5.72958,12.46,-0.8,2.23,2.0
1758076675.04968,1758076674.90661,0.0,0.0,0.0,-17.87628,30.82513,-5.78687,12.15,-0.56,0.97,2.0
1758076675.06818,1758076674.91661,0.0,0.0,0.0,-17.24603,43.37291,-5.21392,12.15,-0.56,0.97,2.0
1758076675.07062,1758076674.92661,0.0,0.0,0.0,-16.90226,53.80074,-3.60963,11.07,-0.12,0.46,2.0
1758076675.07529,1758076674.93661,0.0,0.0,0.0,-15.46986,62.96807,-2.63561,11.07,-0.12,0.46,2.0
1758076675.09337,1758076674.94661,0.0,0.0,0.0,-14.15206,69.95815,-2.6929,10.13,-0.04,0.92,2.0
1758076675.09507,1758076674.95661,0.0,0.0,0.0,-13.06344,78.15145,-4.18259,10.13,-0.04,0.92,2.0
1758076675.11053,1758076674.96661,0.0,0.0,0.0,-11.51645,84.39669,-5.32851,9.6,0.34,0.99,2.0
1758076675.11403,1758076674.97661,0.0,0.0,0.0,-10.31324,86.34474,-7.21927,8.08,0.34,1.29,2.0
1758076675.12974,1758076674.98661,0.0,0.0,0.0,-9.96947,84.28209,-7.21927,8.08,0.75,1.29,2.0
1758076675.1465,1758076674.99661,0.0,0.0,0.0,-9.96947,81.5319,-5.90147,7.34,0.97,1.36,2.0
1758076675.14994,1758076675.00661,0.0,0.0,0.0,-11.51645,77.23472,-4.52637,7.34,0.97,1.36,2.0
1758076675.16578,1758076675.01661,0.0,0.0,0.0,-15.46986,69.15601,-2.92208,7.29,1.08,1.44,2.0
1758076675.16694,1758076675.02661,0.0,0.0,0.0,-19.53786,63.13995,-2.86479,7.29,1.08,1.44,2.0
1758076675.18178,1758076675.03661,0.0,0.0,0.0,-23.83505,55.40502,-3.83882,7.46,1.2,1.06,2.0
1758076675.18273,1758076675.04661,0.0,0.0,0.0,-28.59059,47.38361,-5.84417,7.46,1.2,1.06,2.0
1758076675.19977,1758076675.05661,0.0,0.0,0.0,-34.60666,37.75792,-9.68299,7.81,1.38,0.85,2.0
1758076675.21556,1758076675.06661,0.0,0.0,0.0,-38.1017,32.42941,-12.83425,8.72,1.51,1.04,2.0
1758076675.21678,1758076675.07661,0.0,0.0,0.0,-40.7946,26.35606,-14.9542,8.72,1.51,1.04,2.0
1758076675.23184,1758076675.08661,0.0,0.0,0.0,-43.83128,23.66316,-18.50654,9.46,1.49,1.32,2.0
1758076675.23277,1758076675.09661,0.0,0.0,0.0,-47.78468,21.60051,-22.91831,9.46,1.49,1.32,2.0
1758076675.24959,1758076675.10661,0.0,0.0,0.0,-50.47758,21.7724,-24.86637,9.9,1.36,1.3,2.0
1758076675.2664,1758076675.11661,0.0,0.0,0.0,-52.76942,22.11617,-26.24147,9.9,1.36,1.3,2.0
1758076675.2727,1758076675.12661,0.0,0.0,0.0,-56.49364,18.22006,-26.87172,9.84,1.24,0.95,2.0
1758076675.27306,1758076675.13661,0.0,0.0,0.0,-59.41573,13.69369,-26.69983,9.25,1.15,0.93,2.0
1758076675.2906,1758076675.14661,0.0,0.0,0.0,-62.5097,8.02141,-26.18417,9.25,1.15,0.93,2.0
1758076675.30692,1758076675.15661,0.0,0.0,0.0,-65.2599,-0.74485,-25.55392,8.62,1.17,0.39,2.0
1758076675.30808,1758076675.16661,0.0,0.0,0.0,-68.86953,-23.49127,-21.7151,8.62,1.17,0.39,2.0
1758076675.32288,1758076675.17661,0.0,0.0,0.0,-69.49979,-38.78925,-18.16276,7.57,1.09,-0.12,2.0
1758076675.32457,1758076675.18661,0.0,0.0,0.0,-69.95815,-52.19646,-14.09476,7.57,1.09,-0.12,2.0
1758076675.33967,1758076675.19661,0.0,0.0,0.0,-72.47916,-60.61894,-8.47978,7.97,0.81,-0.78,2.0
1758076675.3556,1758076675.20661,0.0,0.0,0.0,-71.90621,-35.75257,-7.96411,11.83,1.0,0.09,2.0
1758076675.35732,1758076675.21661,0.0,0.0,0.0,-74.94289,-7.10468,-6.99009,11.83,1.0,0.09,2.0
1758076675.37241,1758076675.22661,0.0,0.0,0.0,-72.30728,-1.3751,-1.66158,13.28,0.93,1.09,2.0
1758076675.37362,1758076675.23661,0.0,0.0,0.0,-77.86497,-34.37747,-12.89155,13.28,0.93,1.09,2.0
1758076675.38971,1758076675.24661,0.0,0.0,0.0,-76.43258,-37.64333,-14.15206,11.06,0.88,2.55,2.0
1758076675.40592,1758076675.25661,0.0,0.0,0.0,-75.40125,-43.20102,-17.6471,11.06,0.88,2.55,2.0
1758076675.40694,1758076675.26661,0.0,0.0,0.0,-74.54182,-43.25832,-19.07949,11.56,0.91,-0.12,2.0
1758076675.42172,1758076675.27661,0.0,0.0,0.0,-74.88559,-35.98175,-18.73572,11.56,0.91,-0.12,2.0
1758076675.43009,1758076675.28661,0.0,0.0,0.0,-75.00018,-29.56462,-15.69904,10.92,0.67,-0.14,2.0
1758076675.44569,1758076675.29661,0.0,0.0,0.0,-73.05212,-30.99702,-11.80293,8.68,0.17,-0.03,2.0
1758076675.44694,1758076675.30661,0.0,0.0,0.0,-68.52576,-38.90384,-8.76626,8.68,0.17,-0.03,2.0
1758076675.46251,1758076675.31661,0.0,0.0,0.0,-57.29578,-54.48829,-9.39651,8.54,-1.07,3.33,2.0
1758076675.46526,1758076675.32661,0.0,0.0,0.0,-50.363,-85.94368,-15.0115,8.54,-1.07,3.33,2.0
1758076675.48072,1758076675.33661,0.0,0.0,0.0,-44.17505,-99.46548,-23.37668,11.02,-3.2,6.22,2.0
1758076675.49705,1758076675.34661,0.0,0.0,0.0,-36.89849,-100.6114,-31.11161,11.02,-3.2,6.22,2.0
1758076675.49901,1758076675.35661,0.0,0.0,0.0,-25.72581,-100.38221,-35.52338,13.81,-4.52,5.5,2.0
1758076675.51531,1758076675.36661,0.0,0.0,0.0,-21.25674,-105.36694,-34.60666,10.95,-3.24,5.03,2.0
1758076675.51973,1758076675.37661,0.0,0.0,0.0,-19.25138,-109.95061,-30.99702,10.95,-3.24,5.03,2.0
1758076675.53473,1758076675.38661,0.0,0.0,0.0,-19.53786,-108.97658,-26.12688,8.99,-1.14,3.5,2.0
1758076675.53678,1758076675.39661,0.0,0.0,0.0,-25.43933,-97.8039,-17.76169,8.99,-1.14,3.5,2.0
1758076675.55283,1758076675.40661,0.0,0.0,0.0,-31.91375,-89.43871,-11.63104,10.12,0.5,3.63,2.0
1758076675.55375,1758076675.41661,0.0,0.0,0.0,-39.4195,-80.1568,-5.61499,10.12,0.5,3.63,2.0
1758076675.56982,1758076675.42661,0.0,0.0,0.0,-46.1231,-69.04142,-0.45837,12.03,1.78,3.89,2.0
1758076675.58768,1758076675.43661,0.0,0.0,0.0,-54.48829,-52.08187,4.81285,13.1,2.28,2.31,2.0
1758076675.59019,1758076675.44661,0.0,0.0,0.0,-58.78547,-37.29956,6.07335,13.1,2.28,2.31,2.0
1758076675.60578,1758076675.45661,0.0,0.0,0.0,-61.53567,-19.19409,6.07335,12.93,1.34,0.29,2.0
1758076675.61016,1758076675.46661,0.0,0.0,0.0,-62.62429,-2.00535,4.98473,12.93,1.34,0.29,2.0
1758076675.62583,1758076675.47661,0.0,0.0,0.0,-61.24919,20.45459,1.71887,11.91,-0.18,-0.11,2.0
1758076675.63021,1758076675.48661,0.0,0.0,0.0,-58.72818,34.89313,-1.08862,11.91,-0.18,-0.11,2.0
1758076675.64591,1758076675.49661,0.0,0.0,0.0,-56.32175,47.89928,-3.66693,10.74,-1.28,-0.09,2.0
1758076675.65258,1758076675.50661,0.0,0.0,0.0,-53.91533,58.72818,-5.61499,10.74,-1.28,-0.09,2.0
1758076675.6532,1758076675.51661,0.0,0.0,0.0,-51.39432,70.13004,-7.50575,9.13,-1.76,-0.35,2.0
1758076675.66891,1758076675.52661,0.0,0.0,0.0,-49.96192,77.12012,-8.02141,7.93,-1.79,-0.11,2.0
1758076675.68516,1758076675.53661,0.0,0.0,0.0,-48.58683,82.84971,-7.96411,7.93,-1.79,-0.11,2.0
1758076675.69006,1758076675.54661,0.0,0.0,0.0,-46.40959,86.45934,-8.02141,7.38,-1.57,0.16,2.0
1758076675.7051,1758076675.55661,0.0,0.0,0.0,-45.20637,87.71984,-8.93814,7.38,-1.57,0.16,2.0
1758076675.70702,1758076675.56661,0.0,0.0,0.0,-43.60209,87.66255,-10.02676,7.4,-1.1,0.52,2.0
1758076675.72265,1758076675.57661,0.0,0.0,0.0,-42.22699,84.85506,-11.57375,7.4,-1.1,0.52,2.0
1758076675.72466,1758076675.58661,0.0,0.0,0.0,-39.13302,77.06283,-13.23533,7.61,-0.63,0.58,2.0
1758076675.73989,1758076675.59661,0.0,0.0,0.0,-36.49741,72.82294,-14.03747,8.25,-0.29,0.53,2.0
1758076675.75612,1758076675.60661,0.0,0.0,0.0,-33.63263,69.49979,-14.43854,8.25,-0.29,0.53,2.0
1758076675.75879,1758076675.61661,0.0,0.0,0.0,-30.36677,66.11933,-14.83961,8.65,-0.16,0.6,2.0
1758076675.77398,1758076675.62661,0.0,0.0,0.0,-25.72581,59.07195,-15.41257,8.65,-0.16,0.6,2.0
1758076675.77513,1758076675.63661,0.0,0.0,0.0,-21.94428,53.62885,-14.9542,8.56,-0.21,1.05,2.0
1758076675.78991,1758076675.64661,0.0,0.0,0.0,-17.93358,47.44091,-13.80828,8.56,-0.21,1.05,2.0
1758076675.80858,1758076675.65661,0.0,0.0,0.0,-13.75099,39.07573,-11.28727,8.31,-0.51,1.04,2.0
1758076675.80955,1758076675.66661,0.0,0.0,0.0,-6.8182,30.76784,-6.24524,8.23,-1.04,0.61,2.0
1758076675.82525,1758076675.67661,0.0,0.0,0.0,-1.94806,29.04896,-2.7502,8.23,-1.04,0.61,2.0
1758076675.82963,1758076675.68661,0.0,0.0,0.0,3.03668,27.96034,0.22918,8.66,-1.54,0.12,2.0
1758076675.84522,1758076675.69661,0.0,0.0,0.0,8.25059,25.09555,2.6929,8.66,-1.54,0.12,2.0
1758076675.85016,1758076675.70661,0.0,0.0,0.0,15.87093,18.9649,5.09932,8.54,-1.87,0.35,2.0
1758076675.86501,1758076675.71661,0.0,0.0,0.0,20.74107,13.17803,5.90147,8.54,-1.87,0.35,2.0
1758076675.87018,1758076675.72661,0.0,0.0,0.0,25.7831,2.57831,6.58902,8.44,-1.96,0.15,2.0
1758076675.88526,1758076675.73661,0.0,0.0,0.0,29.73651,-10.59972,3.83882,8.44,-1.96,0.15,2.0
1758076675.89041,1758076675.74661,0.0,0.0,0.0,35.58068,-12.2613,1.83346,8.16,-1.83,-0.59,2.0
1758076675.90521,1758076675.75661,0.0,0.0,0.0,39.99245,-1.77617,1.66158,10.7,-1.63,-0.53,2.0
1758076675.90653,1758076675.76661,0.0,0.0,0.0,43.14373,9.33921,0.80214,10.7,-1.63,-0.53,2.0
1758076675.92255,1758076675.77661,0.0,0.0,0.0,48.58683,32.25753,0.51566,12.04,-1.34,0.48,2.0
1758076675.92459,1758076675.78661,0.0,0.0,0.0,50.64947,39.13302,-1.03132,12.04,-1.34,0.48,2.0
1758076675.94005,1758076675.79661,0.0,0.0,0.0,54.14451,29.73651,-2.11994,11.43,-0.9,2.09,2.0
1758076675.96027,1758076675.80661,0.0,0.0,0.0,54.71747,0.74485,-5.50039,11.43,-0.9,2.09,2.0
1758076675.96461,1758076675.81661,0.0,0.0,0.0,57.12389,-38.84654,3.66693,8.7,-0.64,1.14,2.0
1758076675.96497,1758076675.82661,0.0,0.0,0.0,52.9986,-44.00316,9.28192,11.81,-0.87,0.34,2.0
1758076675.98529,1758076675.83661,0.0,0.0,0.0,47.61279,-36.61201,12.204,11.81,-0.87,0.34,2.0
1758076675.98942,1758076675.84661,0.0,0.0,0.0,43.37291,-34.49206,16.10011,12.67,-0.54,-0.88,2.0
1758076676.00508,1758076675.85661,0.0,0.0,0.0,33.40344,-37.18496,17.53251,12.67,-0.54,-0.88,2.0
1758076676.00727,1758076675.86661,0.0,0.0,0.0,25.09555,-38.56006,16.73037,10.83,-0.09,0.65,2.0
1758076676.02206,1758076675.87661,0.0,0.0,0.0,15.75634,-42.1124,15.58445,10.83,-0.09,0.65,2.0
1758076676.02547,1758076675.88661,0.0,0.0,0.0,4.1253,-49.56085,13.69369,10.29,0.48,1.87,2.0
1758076676.04995,1758076675.89661,0.0,0.0,0.0,-14.32395,-74.25533,17.58981,10.8,2.48,3.74,2.0
1758076676.05342,1758076675.90661,0.0,0.0,0.0,-25.43933,-88.17821,23.49127,10.8,2.48,3.74,2.0
1758076676.05446,1758076675.91661,0.0,0.0,0.0,-36.03905,-93.04835,30.25217,13.48,4.11,5.29,2.0
1758076676.07014,1758076675.92661,0.0,0.0,0.0,-45.49285,-92.41809,35.40879,13.48,4.11,5.29,2.0
1758076676.07477,1758076675.93661,0.0,0.0,0.0,-56.66553,-89.6106,34.66395,13.15,4.34,4.25,2.0
1758076676.09011,1758076675.94661,0.0,0.0,0.0,-60.10328,-89.55331,31.2262,13.15,4.34,4.25,2.0
1758076676.09578,1758076675.95661,0.0,0.0,0.0,-59.87409,-86.00097,27.04361,10.18,2.43,4.03,2.0
1758076676.11517,1758076675.96661,0.0,0.0,0.0,-54.25911,-73.10942,20.45459,10.18,2.43,4.03,2.0
1758076676.119,1758076675.97661,0.0,0.0,0.0,-47.32632,-62.16592,17.13144,10.0,0.39,3.7,2.0
1758076676.1341,1758076675.98661,0.0,0.0,0.0,-38.73195,-50.1911,12.89155,10.66,-0.73,3.39,2.0
1758076676.13531,1758076675.99661,0.0,0.0,0.0,-27.67386,-39.76327,11.86023,10.66,-0.73,3.39,2.0
1758076676.15013,1758076676.00661,0.0,0.0,0.0,-15.06879,-19.19409,7.33386,11.84,-1.43,2.6,2.0
1758076676.1549,1758076676.01661,0.0,0.0,0.0,-9.05273,-4.29718,4.1253,11.84,-1.43,2.6,2.0
1758076676.17047,1758076676.02661,0.0,0.0,0.0,-4.69825,10.19865,1.14592,12.39,-1.41,1.06,2.0
1758076676.1898,1758076676.03661,0.0,0.0,0.0,-1.60428,23.54857,-0.57296,12.39,-1.41,1.06,2.0
1758076676.19077,1758076676.04661,0.0,0.0,0.0,0.97403,41.99781,-1.43239,11.26,-0.73,0.11,2.0
1758076676.2096,1758076676.05661,0.0,0.0,0.0,1.48969,55.11855,-0.97403,9.99,0.09,-0.43,2.0
1758076676.21058,1758076676.06661,0.0,0.0,0.0,2.6929,65.43179,0.17189,9.99,0.09,-0.43,2.0
1758076676.22932,1758076676.07661,0.0,0.0,0.0,3.72423,74.14074,-0.57296,9.26,0.55,0.26,2.0
1758076676.23446,1758076676.08661,0.0,0.0,0.0,4.81285,86.05827,-2.00535,9.26,0.55,0.26,2.0
1758076676.23541,1758076676.09661,0.0,0.0,0.0,4.87014,93.10565,-2.34913,8.41,0.82,0.57,2.0
1758076676.25484,1758076676.10661,0.0,0.0,0.0,4.0107,98.72063,-2.46372,8.41,0.82,0.57,2.0
1758076676.25605,1758076676.11661,0.0,0.0,0.0,2.29183,101.24165,-1.94806,7.24,1.18,0.78,2.0
1758076676.27175,1758076676.12661,0.0,0.0,0.0,-1.3178,95.79855,1.03132,6.15,1.3,1.39,2.0
1758076676.2741,1758076676.13661,0.0,0.0,0.0,-4.58366,89.78249,3.72423,6.15,1.3,1.39,2.0
1758076676.29004,1758076676.14661,0.0,0.0,0.0,-8.36518,81.24542,6.87549,6.04,1.3,1.74,2.0
1758076676.2952,1758076676.15661,0.0,0.0,0.0,-13.17803,72.07809,9.62569,6.04,1.3,1.74,2.0
1758076676.31282,1758076676.16661,0.0,0.0,0.0,-21.37133,59.07195,8.70896,6.66,1.38,1.25,2.0
1758076676.31594,1758076676.17661,0.0,0.0,0.0,-27.1582,52.25375,5.95876,6.66,1.38,1.25,2.0
1758076676.33226,1758076676.18661,0.0,0.0,0.0,-32.25753,46.86795,1.08862,8.2,1.63,0.47,2.0
1758076676.33445,1758076676.19661,0.0,0.0,0.0,-38.56006,42.51347,-8.99544,8.2,1.63,0.47,2.0
1758076676.35025,1758076676.20661,0.0,0.0,0.0,-41.08107,38.50277,-14.72501,10.09,1.83,0.83,2.0
1758076676.35363,1758076676.21661,0.0,0.0,0.0,-45.77933,37.35685,-23.60586,10.97,1.76,1.06,2.0
1758076676.36934,1758076676.22661,0.0,0.0,0.0,-48.9879,37.29956,-28.76248,10.97,1.76,1.06,2.0
1758076676.38549,1758076676.23661,0.0,0.0,0.0,-53.91533,33.9764,-31.56997,10.91,1.46,0.95,2.0
1758076676.38728,1758076676.24661,0.0,0.0,0.0,-57.18119,27.10091,-30.82513,10.91,1.46,0.95,2.0
1758076676.4026,1758076676.25661,0.0,0.0,0.0,-60.44705,18.50654,-28.24682,10.13,1.31,0.91,2.0
1758076676.40369,1758076676.26661,0.0,0.0,0.0,-63.54102,9.11003,-24.80907,10.13,1.31,0.91,2.0
1758076676.41958,1758076676.27661,0.0,0.0,0.0,-66.80688,-10.02676,-18.73572,9.78,1.23,0.48,2.0
1758076676.43559,1758076676.28661,0.0,0.0,0.0,-67.66632,-28.59059,-14.83961,8.81,1.14,-0.77,2.0
1758076676.43846,1758076676.29661,0.0,0.0,0.0,-66.80688,-46.06581,-11.51645,8.81,1.14,-0.77,2.0
1758076676.45362,1758076676.30661,0.0,0.0,0.0,-64.17127,-60.96271,-8.42248,8.79,1.03,-1.27,2.0
1758076676.45452,1758076676.31661,0.0,0.0,0.0,-61.30648,-71.73432,-5.55769,8.79,1.03,-1.27,2.0
1758076676.46973,1758076676.32661,0.0,0.0,0.0,-57.92604,-57.41038,-6.99009,10.69,0.88,-0.4,2.0
1758076676.48562,1758076676.33661,0.0,0.0,0.0,-55.51962,-30.02299,-9.05273,10.69,0.88,-0.4,2.0
1758076676.48734,1758076676.34661,0.0,0.0,0.0,-51.10783,-19.25138,-6.24524,14.02,0.41,-0.47,2.0
1758076676.50262,1758076676.35661,0.0,0.0,0.0,-56.14987,-52.19646,-16.10011,8.75,0.56,1.06,2.0
1758076676.50443,1758076676.36661,0.0,0.0,0.0,-57.86874,-59.01466,-16.95955,8.75,0.56,1.06,2.0
1758076676.52065,1758076676.37661,0.0,0.0,0.0,-61.1346,-67.72362,-19.19409,8.98,0.35,0.45,2.0
1758076676.53639,1758076676.38661,0.0,0.0,0.0,-62.28051,-77.4639,-19.76705,8.98,0.35,0.45,2.0
1758076676.53695,1758076676.39661,0.0,0.0,0.0,-60.61894,-89.6106,-23.60586,8.05,-0.04,1.04,2.0
1758076676.55271,1758076676.40661,0.0,0.0,0.0,-57.81144,-108.97658,-30.02299,8.05,-0.04,1.04,2.0
1758076676.55359,1758076676.41661,0.0,0.0,0.0,-54.77477,-121.46706,-40.16434,9.57,-1.92,7.5,2.0
1758076676.56865,1758076676.42661,0.0,0.0,0.0,-43.14373,-104.04914,-52.13916,9.57,-1.92,7.5,2.0
1758076676.58445,1758076676.43661,0.0,0.0,0.0,-33.17426,-91.67325,-55.00395,15.39,-4.41,7.59,2.0
1758076676.5856,1758076676.44661,0.0,0.0,0.0,-24.23611,-89.78249,-53.11319,13.29,-4.04,7.26,2.0
1758076676.6007,1758076676.45661,0.0,0.0,0.0,-18.16276,-92.3035,-48.01387,13.29,-4.04,7.26,2.0
1758076676.61672,1758076676.46661,0.0,0.0,0.0,-16.21471,-83.02158,-37.98711,10.03,-1.73,4.08,2.0
1758076676.61711,1758076676.47661,0.0,0.0,0.0,-20.05352,-74.54182,-28.93437,10.03,-1.73,4.08,2.0
1758076676.63471,1758076676.48661,0.0,0.0,0.0,-26.24147,-68.64035,-18.50654,11.49,0.08,2.92,2.0
1758076676.63562,1758076676.49661,0.0,0.0,0.0,-33.63263,-62.05133,-8.47978,11.49,0.08,2.92,2.0
1758076676.65048,1758076676.50661,0.0,0.0,0.0,10.48513,-42.74266,4.35448,13.87,1.29,2.4,2.0
1758076676.65401,1758076676.51661,0.0,0.0,0.0,-2.46372,-53.11319,10.08406,14.6,1.85,0.74,2.0
1758076676.66973,1758076676.52661,0.0,0.0,0.0,-51.85268,-11.51645,13.40721,14.6,1.85,0.74,2.0
1758076676.68628,1758076676.53661,0.0,0.0,0.0,-57.18119,-0.74485,13.80828,12.47,1.51,0.04,2.0
1758076676.68831,1758076676.54661,0.0,0.0,0.0,-59.87409,16.73037,12.204,12.47,1.51,0.04,2.0
1758076676.70456,1758076676.55661,0.0,0.0,0.0,-60.50434,28.36141,9.91217,10.73,0.53,0.15,2.0
1758076676.70553,1758076676.56661,0.0,0.0,0.0,-60.16057,39.07573,6.70361,10.73,0.53,0.15,2.0
1758076676.72085,1758076676.57661,0.0,0.0,0.0,-59.07195,46.98254,1.60428,9.41,-0.31,0.44,2.0
1758076676.7217,1758076676.58661,0.0,0.0,0.0,-57.23849,55.23313,-1.66158,7.64,-0.87,0.47,2.0
1758076676.73869,1758076676.59661,0.0,0.0,0.0,-56.49364,58.84277,-4.98473,7.64,-0.87,0.47,2.0
1758076676.75453,1758076676.60661,0.0,0.0,0.0,-55.29043,60.38975,-7.10468,6.61,-1.26,0.67,2.0
1758076676.75603,1758076676.61661,0.0,0.0,0.0,-54.25911,62.22322,-9.4538,6.61,-1.26,0.67,2.0
1758076676.77082,1758076676.62661,0.0,0.0,0.0,-52.65482,63.48372,-11.11538,6.54,-1.47,1.17,2.0
1758076676.77363,1758076676.63661,0.0,0.0,0.0,-50.47758,65.37449,-12.2613,6.54,-1.47,1.17,2.0
1758076676.78956,1758076676.64661,0.0,0.0,0.0,-48.07116,68.29657,-14.15206,7.19,-1.52,0.96,2.0
1758076676.80663,1758076676.65661,0.0,0.0,0.0,-43.02913,71.16136,-16.90226,7.19,-1.52,1.14,2.0
1758076676.80835,1758076676.66661,0.0,0.0,0.0,-37.98711,73.91156,-17.24603,8.1,-1.41,1.14,2.0
1758076676.82372,1758076676.67661,0.0,0.0,0.0,-32.83048,73.68237,-16.38659,8.78,-1.34,1.07,2.0
1758076676.82508,1758076676.68661,0.0,0.0,0.0,-27.1582,70.30193,-14.20935,8.78,-1.34,1.07,2.0
1758076676.83988,1758076676.69661,0.0,0.0,0.0,-18.27736,61.65026,-10.08406,8.75,-1.3,1.26,2.0
1758076676.85562,1758076676.70661,0.0,0.0,0.0,-11.74564,54.88936,-6.7609,8.75,-1.3,1.26,2.0
1758076676.85685,1758076676.71661,0.0,0.0,0.0,-4.46907,47.44091,-3.09397,9.0,-1.25,1.06,2.0
1758076676.87191,1758076676.72661,0.0,0.0,0.0,3.32316,39.82057,0.45837,9.0,-1.25,1.06,2.0
1758076676.87446,1758076676.73661,0.0,0.0,0.0,15.24068,34.43476,5.21392,9.33,-1.36,0.82,2.0
1758076676.88968,1758076676.74661,0.0,0.0,0.0,23.31938,33.46074,8.0787,10.12,-1.6,0.28,2.0
1758076676.90588,1758076676.75661,0.0,0.0,0.0,30.82513,32.20023,10.37054,10.12,-1.6,0.28,2.0
1758076676.9072,1758076676.76661,0.0,0.0,0.0,37.52874,28.64789,11.51645,10.18,-1.76,-0.17,2.0
1758076676.9219,1758076676.77661,0.0,0.0,0.0,46.00851,15.24068,12.2613,10.18,-1.76,-0.17,2.0
1758076676.92325,1758076676.78661,0.0,0.0,0.0,49.15978,3.83882,10.54242,9.82,-1.55,-0.46,2.0
1758076676.93833,1758076676.79661,0.0,0.0,0.0,50.99325,-3.66693,8.93814,9.82,-1.55,-0.46,2.0
1758076676.95495,1758076676.80661,0.0,0.0,0.0,50.2484,-2.00535,5.21392,10.76,-1.09,-1.22,2.0
1758076676.95678,1758076676.81661,0.0,0.0,0.0,49.27437,2.57831,3.03668,12.07,-0.53,-1.18,2.0
1758076676.97167,1758076676.82661,0.0,0.0,0.0,48.64412,6.47442,4.0107,12.07,-0.53,-1.18,2.0
1758076676.97369,1758076676.83661,0.0,0.0,0.0,46.1231,11.63104,1.66158,11.95,-0.1,-0.34,2.0
1758076676.98889,1758076676.84661,0.0,0.0,0.0,40.16434,14.32395,-0.17189,11.95,-0.1,-0.34,2.0
1758076677.00498,1758076676.85661,0.0,0.0,0.0,36.95578,12.54778,-2.92208,11.02,0.34,-0.27,2.0
1758076677.0086,1758076676.86661,0.0,0.0,0.0,35.06502,-10.65701,-5.4431,11.02,0.34,-0.27,2.0
1758076677.02373,1758076676.87661,0.0,0.0,0.0,33.63263,-45.43555,-5.4431,7.24,0.3,-0.84,2.0
1758076677.0253,1758076676.88661,0.0,0.0,0.0,29.67921,-75.85962,7.62034,7.82,-0.47,-0.26,2.0
1758076677.04001,1758076676.89661,0.0,0.0,0.0,21.42862,-83.25077,15.0115,7.82,-0.47,-0.26,2.0
1758076677.05604,1758076676.90661,0.0,0.0,0.0,11.11538,-99.40818,25.21014,10.97,0.45,4.2,2.0
1758076677.05784,1758076676.91661,0.0,0.0,0.0,3.03668,-118.1439,43.54479,10.97,0.45,4.2,2.0
1758076677.07304,1758076676.92661,0.0,0.0,0.0,-10.94349,-116.13856,64.11398,14.31,2.26,7.38,2.0
1758076677.07407,1758076676.93661,0.0,0.0,0.0,-20.45459,-101.06976,69.15601,14.31,2.26,7.38,2.0
1758076677.08905,1758076676.94661,0.0,0.0,0.0,-29.50733,-95.62666,65.66096,14.96,3.42,7.84,2.0
1758076677.10471,1758076676.95661,0.0,0.0,0.0,-35.69527,-96.4861,60.44705,14.96,3.42,7.84,2.0
1758076677.10679,1758076676.96661,0.0,0.0,0.0,-39.76327,-89.43871,48.58683,9.78,3.22,5.41,2.0
1758076677.12193,1758076676.97661,0.0,0.0,0.0,-38.27358,-79.81302,37.12767,9.29,1.9,4.02,2.0
1758076677.12333,1758076676.98661,0.0,0.0,0.0,-34.09099,-71.90621,24.63719,9.29,1.9,4.02,2.0
1758076677.13793,1758076676.99661,0.0,0.0,0.0,-29.04896,-64.11398,5.78687,9.69,0.86,2.49,2.0
1758076677.15509,1758076677.00661,0.0,0.0,0.0,-21.31403,-46.86795,-4.81285,9.69,0.86,2.49,2.0
1758076677.15763,1758076677.01661,0.0,0.0,0.0,-17.24603,-33.23156,-12.49048,12.19,0.01,2.8,2.0
1758076677.17472,1758076677.02661,0.0,0.0,0.0,-14.83961,-18.22006,-17.47521,12.19,0.01,2.8,2.0
1758076677.17645,1758076677.03661,0.0,0.0,0.0,-13.00614,6.53172,-17.81899,13.13,-0.5,1.13,2.0
1758076677.19366,1758076677.04661,0.0,0.0,0.0,-13.12073,22.68913,-15.12609,12.22,-0.62,-0.04,2.0
1758076677.19466,1758076677.05661,0.0,0.0,0.0,-14.20935,37.01308,-13.06344,12.22,-0.62,-0.04,2.0
1758076677.20994,1758076677.06661,0.0,0.0,0.0,-16.38659,50.76406,-10.8862,10.09,-0.31,-0.88,2.0
1758076677.22591,1758076677.07661,0.0,0.0,0.0,-14.43854,68.98412,-5.72958,10.09,-0.31,-0.88,2.0
1758076677.22703,1758076677.08661,0.0,0.0,0.0,-12.83425,79.41196,-3.95341,8.99,0.01,0.0,2.0
1758076677.24193,1758076677.09661,0.0,0.0,0.0,-10.8289,88.29281,-2.7502,8.99,0.01,0.0,2.0
1758076677.2439,1758076677.10661,0.0,0.0,0.0,-9.39651,95.97043,-1.77617,7.9,0.34,0.32,2.0
1758076677.25897,1758076677.11661,0.0,0.0,0.0,-7.33386,105.19505,0.45837,7.17,0.68,0.94,2.0
1758076677.27518,1758076677.12661,0.0,0.0,0.0,-6.18794,109.66413,2.06265,7.17,0.68,0.94,2.0
1758076677.2763,1758076677.13661,0.0,0.0,0.0,-5.55769,108.23174,3.95341,6.42,0.76,1.21,2.0
1758076677.29097,1758076677.14661,0.0,0.0,0.0,-5.32851,102.44486,5.55769,6.42,0.76,1.21,2.0
1758076677.29234,1758076677.15661,0.0,0.0,0.0,-6.41713,91.043,8.47978,6.03,0.71,1.21,2.0
1758076677.30896,1758076677.16661,0.0,0.0,0.0,-7.96411,82.50593,9.85487,6.03,0.71,1.21,2.0
1758076677.32527,1758076677.17661,0.0,0.0,0.0,-10.71431,72.53646,10.31324,6.94,0.62,1.12,2.0
1758076677.32941,1758076677.18661,0.0,0.0,0.0,-14.32395,62.05133,9.33921,6.94,0.62,1.12,2.0
1758076677.34525,1758076677.19661,0.0,0.0,0.0,-21.25674,51.5662,3.60963,8.18,0.89,1.14,2.0
1758076677.34808,1758076677.20661,0.0,0.0,0.0,-25.72581,47.61279,-1.71887,9.68,1.34,1.34,2.0
1758076677.36525,1758076677.21661,0.0,0.0,0.0,-30.02299,41.76862,-7.39116,9.68,1.34,1.34,2.0
1758076677.36963,1758076677.22661,0.0,0.0,0.0,-37.01308,36.7266,-15.06879,9.78,1.69,1.19,2.0
1758076677.38528,1758076677.23661,0.0,0.0,0.0,-41.48215,30.02299,-18.85031,9.78,1.69,1.19,2.0
1758076677.38942,1758076677.24661,0.0,0.0,0.0,-45.89392,22.74642,-22.57454,9.8,1.81,0.85,2.0
1758076677.40529,1758076677.25661,0.0,0.0,0.0,-48.58683,5.90147,-24.17882,9.8,1.81,0.85,2.0
1758076677.40793,1758076677.26661,0.0,0.0,0.0,-50.53488,-22.97561,-23.37668,8.52,1.62,0.0,2.0
1758076677.42525,1758076677.27661,0.0,0.0,0.0,-50.13381,-37.52874,-20.62648,8.89,1.15,-0.92,2.0
1758076677.42812,1758076677.28661,0.0,0.0,0.0,-50.59217,-42.57077,-15.46986,8.89,1.15,-0.92,2.0
1758076677.44534,1758076677.29661,0.0,0.0,0.0,-51.22243,-38.21629,-11.57375,11.4,0.79,-0.9,2.0
1758076677.4462,1758076677.30661,0.0,0.0,0.0,-49.38896,-8.136,-12.54778,11.4,0.79,-0.9,2.0
1758076677.46118,1758076677.31661,0.0,0.0,0.0,-50.01921,13.86558,-10.65701,14.39,0.4,0.08,2.0
1758076677.46216,1758076677.32661,0.0,0.0,0.0,-45.49285,-10.31324,-6.35983,14.39,0.4,0.08,2.0
1758076677.47844,1758076677.33661,0.0,0.0,0.0,-50.82136,-32.42941,-10.25595,9.91,0.59,0.9,2.0
1758076677.49436,1758076677.34661,0.0,0.0,0.0,-54.48829,-42.57077,-9.28192,10.54,0.68,0.34,2.0
1758076677.49524,1758076677.35661,0.0,0.0,0.0,-56.49364,-45.72203,-9.22462,10.54,0.68,0.34,2.0
1758076677.51005,1758076677.36661,0.0,0.0,0.0,-58.90006,-43.65939,-7.84952,9.58,0.92,-1.85,2.0
1758076677.52715,1758076677.37661,0.0,0.0,0.0,-62.68159,-42.91454,-6.41713,9.58,0.92,-1.85,2.0
1758076677.52806,1758076677.38661,0.0,0.0,0.0,-64.80153,-50.76406,-4.1253,7.42,0.7,0.19,2.0
1758076677.54314,1758076677.39661,0.0,0.0,0.0,-62.62429,-62.22322,-5.4431,7.42,0.7,0.19,2.0
1758076677.5443,1758076677.40661,0.0,0.0,0.0,-54.48829,-83.59455,-9.74028,6.74,-0.05,3.56,2.0
1758076677.55942,1758076677.41661,0.0,0.0,0.0,-46.69606,-108.6328,-29.8511,6.74,-0.05,3.56,2.0
1758076677.57511,1758076677.42661,0.0,0.0,0.0,-30.65324,-111.95596,-46.1231,10.63,-3.11,9.04,2.0
1758076677.57737,1758076677.43661,0.0,0.0,0.0,-17.53251,-93.6786,-54.60288,16.79,-5.5,6.7,2.0
1758076677.59296,1758076677.44661,0.0,0.0,0.0,-5.72958,-88.52198,-58.21251,16.79,-5.5,6.7,2.0
1758076677.59521,1758076677.45661,0.0,0.0,0.0,5.21392,-93.7359,-54.77477,11.84,-4.01,5.14,2.0
1758076677.61054,1758076677.46661,0.0,0.0,0.0,6.8182,-90.52733,-48.8733,11.84,-4.01,5.14,2.0
1758076677.62854,1758076677.47661,0.0,0.0,0.0,4.0107,-82.27674,-40.96649,10.65,-1.39,3.43,2.0
1758076677.63062,1758076677.48661,0.0,0.0,0.0,-1.83346,-75.28666,-30.19488,10.65,-1.39,3.43,2.0
1758076677.64939,1758076677.49661,0.0,0.0,0.0,30.48136,-63.99939,-13.5791,12.13,0.47,3.01,2.0
1758076677.65058,1758076677.50661,0.0,0.0,0.0,-16.272,-74.94289,-2.7502,14.22,1.82,2.98,2.0
1758076677.66621,1758076677.51661,0.0,0.0,0.0,-27.33009,-44.86259,5.95876,14.22,1.82,2.98,2.0
1758076677.6674,1758076677.52661,0.0,0.0,0.0,-36.26823,-27.50197,12.37589,14.07,2.57,0.75,2.0
1758076677.6822,1758076677.53661,0.0,0.0,0.0,-42.39888,-8.30789,16.95955,14.07,2.57,0.75,2.0
1758076677.68343,1758076677.54661,0.0,0.0,0.0,-44.8053,2.11994,17.01685,11.56,2.05,0.11,2.0
1758076677.69849,1758076677.55661,0.0,0.0,0.0,-46.40959,13.46451,15.24068,11.56,2.05,0.11,2.0
1758076677.71425,1758076677.56661,0.0,0.0,0.0,-47.15443,24.86637,12.37589,9.77,0.92,0.26,2.0
1758076677.7157,1758076677.57661,0.0,0.0,0.0,-46.75336,39.76327,6.35983,8.35,-0.06,0.0,2.0
1758076677.73054,1758076677.58661,0.0,0.0,0.0,-45.83662,46.69606,1.83346,8.35,-0.06,0.0,2.0
1758076677.74622,1758076677.59661,0.0,0.0,0.0,-44.63341,52.13916,-2.11994,6.88,-0.86,0.11,2.0
1758076677.74823,1758076677.60661,0.0,0.0,0.0,-43.14373,56.37905,-5.4431,6.88,-0.86,0.11,2.0
1758076677.76407,1758076677.61661,0.0,0.0,0.0,-40.7946,62.56699,-9.4538,6.44,-1.62,0.54,2.0
1758076677.76525,1758076677.62661,0.0,0.0,0.0,-38.73195,65.48907,-11.11538,6.44,-1.62,0.54,2.0
1758076677.78047,1758076677.63661,0.0,0.0,0.0,-36.15364,69.38519,-12.43318,6.5,-2.14,0.84,2.0
1758076677.7965,1758076677.64661,0.0,0.0,0.0,-30.36677,72.36457,-12.71966,6.5,-2.14,0.84,2.0
1758076677.79825,1758076677.65661,0.0,0.0,0.0,-26.41335,71.67702,-12.54778,7.14,-2.3,0.75,2.0
1758076677.81361,1758076677.66661,0.0,0.0,0.0,-21.7724,68.69764,-11.45916,7.84,-2.14,0.6,2.0
1758076677.81447,1758076677.67661,0.0,0.0,0.0,-17.01685,67.89551,-9.28192,7.84,-2.14,0.6,2.0
1758076677.82927,1758076677.68661,0.0,0.0,0.0,-8.93814,67.32255,-3.26586,9.4,-1.89,0.45,2.0
1758076677.84558,1758076677.69661,0.0,0.0,0.0,-2.7502,67.15066,2.29183,9.4,-1.89,0.45,2.0
1758076677.8476,1758076677.70661,0.0,0.0,0.0,3.03668,67.66632,8.02141,10.41,-1.59,0.59,2.0
1758076677.86256,1758076677.71661,0.0,0.0,0.0,8.65166,66.17663,13.00614,10.41,-1.59,0.59,2.0
1758076677.86459,1758076677.72661,0.0,0.0,0.0,16.73037,61.30648,18.44924,10.52,-1.21,0.71,2.0
1758076677.87954,1758076677.73661,0.0,0.0,0.0,21.48592,55.92068,20.45459,10.18,-1.08,0.42,2.0
1758076677.89558,1758076677.74661,0.0,0.0,0.0,26.18417,49.79003,20.74107,10.18,-1.08,0.42,2.0
1758076677.89724,1758076677.75661,0.0,0.0,0.0,29.33544,37.24226,20.68378,9.63,-1.07,0.23,2.0
1758076677.9135,1758076677.76661,0.0,0.0,0.0,31.62727,22.86102,14.43854,9.63,-1.07,0.23,2.0
1758076677.91452,1758076677.77661,0.0,0.0,0.0,32.48671,26.52795,8.47978,9.77,-1.06,-0.12,2.0
1758076677.92937,1758076677.78661,0.0,0.0,0.0,35.12231,31.2262,5.4431,9.77,-1.06,-0.12,2.0
1758076677.94538,1758076677.79661,0.0,0.0,0.0,36.89849,33.51803,-1.60428,11.18,-0.95,-0.22,2.0
1758076677.94769,1758076677.80661,0.0,0.0,0.0,40.68,30.88243,-6.53172,10.97,-0.71,0.32,2.0
1758076677.96239,1758076677.81661,0.0,0.0,0.0,42.74266,28.41871,-9.33921,10.97,-0.71,0.32,2.0
1758076677.9647,1758076677.82661,0.0,0.0,0.0,43.60209,27.73116,-11.22997,11.64,-0.46,0.74,2.0
1758076677.97967,1758076677.83661,0.0,0.0,0.0,44.748,25.55392,-12.43318,11.64,-0.46,0.74,2.0
1758076677.9957,1758076677.84661,0.0,0.0,0.0,47.15443,15.46986,-12.83425,11.05,-0.16,-0.14,2.0
1758076677.99742,1758076677.85661,0.0,0.0,0.0,46.63877,-14.9542,-11.51645,11.05,-0.16,-0.14,2.0
1758076678.0127,1758076677.86661,0.0,0.0,0.0,52.19646,-45.72203,-4.29718,7.48,-0.3,-0.93,2.0
1758076678.01446,1758076677.87661,0.0,0.0,0.0,55.7488,-63.13995,10.8862,7.48,-0.3,-0.93,2.0
1758076678.02967,1758076677.88661,0.0,0.0,0.0,56.78012,-50.2484,16.10011,8.97,-1.06,-0.97,2.0
1758076678.04568,1758076677.89661,0.0,0.0,0.0,57.41038,-39.99245,22.05888,10.86,-1.3,-1.67,2.0
1758076678.0486,1758076677.90661,0.0,0.0,0.0,56.89471,-38.73195,25.61122,10.86,-1.3,-1.67,2.0
1758076678.06375,1758076677.91661,0.0,0.0,0.0,50.53488,-41.76862,28.36141,8.64,-1.15,0.14,2.0
1758076678.06463,1758076677.92661,0.0,0.0,0.0,42.1124,-49.04519,29.9084,8.64,-1.15,0.14,2.0
1758076678.07974,1758076677.93661,0.0,0.0,0.0,32.25753,-64.51505,32.71589,8.68,-0.39,2.95,2.0
1758076678.09544,1758076677.94661,0.0,0.0,0.0,21.7724,-82.62051,37.81522,8.68,-0.39,2.95,2.0
1758076678.09717,1758076677.95661,0.0,0.0,0.0,6.13065,-100.5541,49.04519,9.44,0.84,5.04,2.0
1758076678.11148,1758076677.96661,0.0,0.0,0.0,-4.1253,-104.39291,56.89471,11.97,2.33,6.72,2.0
1758076678.11313,1758076677.97661,0.0,0.0,0.0,-14.32395,-104.50751,62.91077,11.97,2.33,6.72,2.0
1758076678.12879,1758076677.98661,0.0,0.0,0.0,-23.26209,-102.96053,66.11933,12.29,4.01,7.94,2.0
1758076678.14485,1758076677.99661,0.0,0.0,0.0,-32.71589,-97.9185,66.635,12.29,4.01,7.94,2.0
1758076678.14565,1758076678.00661,0.0,0.0,0.0,-35.52338,-85.94368,62.91077,11.78,4.39,6.61,2.0
1758076678.16262,1758076678.01661,0.0,0.0,0.0,-35.69527,-74.94289,53.62885,11.78,4.39,6.61,2.0
1758076678.16863,1758076678.02661,0.0,0.0,0.0,-33.40344,-71.44785,41.59674,12.01,3.36,4.99,2.0
1758076678.18357,1758076678.03661,0.0,0.0,0.0,-27.84575,-54.94666,17.53251,12.54,1.18,2.97,2.0
1758076678.18473,1758076678.04661,0.0,0.0,0.0,-24.75178,-36.7266,0.80214,12.54,1.18,2.97,2.0
1758076678.19983,1758076678.05661,0.0,0.0,0.0,-22.74642,-17.76169,-14.03747,13.83,-0.56,0.96,2.0
1758076678.21592,1758076678.06661,0.0,0.0,0.0,-21.88699,0.34377,-28.07493,13.83,-0.56,0.96,2.0
1758076678.21702,1758076678.07661,0.0,0.0,0.0,-21.94428,26.81443,-31.74186,12.9,-1.24,0.26,2.0
1758076678.23261,1758076678.08661,0.0,0.0,0.0,-22.86102,43.14373,-31.79916,12.9,-1.24,0.26,2.0
1758076678.23517,1758076678.09661,0.0,0.0,0.0,-22.05888,55.7488,-27.50197,11.53,-1.32,-0.55,2.0
1758076678.25086,1758076678.10661,0.0,0.0,0.0,-20.68378,74.7137,-17.87628,11.53,-1.32,-0.55,2.0
1758076678.26683,1758076678.11661,0.0,0.0,0.0,-17.76169,85.48531,-10.94349,10.17,-1.01,-0.46,2.0
1758076678.2705,1758076678.12661,0.0,0.0,0.0,-14.9542,93.33482,-6.58902,9.13,-0.47,0.29,2.0
1758076678.28642,1758076678.13661,0.0,0.0,0.0,-12.204,102.04379,-2.40642,9.13,-0.47,0.29,2.0
1758076678.29081,1758076678.14661,0.0,0.0,0.0,-10.54242,107.2004,0.68755,8.06,0.31,1.04,2.0
1758076678.30671,1758076678.15661,0.0,0.0,0.0,-10.37054,104.6794,2.40642,8.06,0.31,1.04,2.0
1758076678.31312,1758076678.16661,0.0,0.0,0.0,-10.48513,99.75195,4.58366,6.17,1.03,1.33,2.0
1758076678.3146,1758076678.17661,0.0,0.0,0.0,-11.97482,94.07968,5.50039,6.17,1.03,1.33,2.0
1758076678.33088,1758076678.18661,0.0,0.0,0.0,-16.04282,83.02158,5.84417,5.82,1.27,1.68,2.0
1758076678.33502,1758076678.19661,0.0,0.0,0.0,-20.05352,73.16672,4.87014,6.19,1.34,1.64,2.0
1758076678.35332,1758076678.20661,0.0,0.0,0.0,-25.43933,63.25455,2.40642,6.19,1.34,1.64,2.0
1758076678.35506,1758076678.21661,0.0,0.0,0.0,-31.28349,55.00395,-2.23454,7.36,1.5,1.33,2.0
1758076678.37491,1758076678.22661,0.0,0.0,0.0,-39.4195,44.51882,-11.11538,7.36,1.5,1.33,2.0
1758076678.37701,1758076678.23661,0.0,0.0,0.0,-45.03448,40.7373,-18.90761,9.01,1.69,1.0,2.0
1758076678.3999,1758076678.24661,0.0,0.0,0.0,-49.33167,36.49741,-25.89769,9.01,1.69,1.0,2.0
1758076678.4052,1758076678.25661,0.0,0.0,0.0,-53.11319,35.40879,-32.42941,9.69,1.69,1.07,2.0
1758076678.40625,1758076678.26661,0.0,0.0,0.0,-57.0093,34.95043,-38.61736,10.09,1.35,0.65,2.0
1758076678.42572,1758076678.27661,0.0,0.0,0.0,-58.49899,31.62727,-40.45082,10.09,1.35,0.65,2.0
1758076678.42691,1758076678.28661,0.0,0.0,0.0,-58.90006,24.98096,-41.08107,9.57,0.86,0.53,2.0
1758076678.44199,1758076678.29661,0.0,0.0,0.0,-58.04062,3.89611,-36.95578,9.57,0.86,0.53,2.0
1758076678.44479,1758076678.30661,0.0,0.0,0.0,-55.6915,-9.96947,-31.39809,8.9,0.07,0.2,2.0
1758076678.46101,1758076678.31661,0.0,0.0,0.0,-53.51426,-19.70975,-24.63719,8.9,0.07,0.2,2.0
1758076678.46517,1758076678.32661,0.0,0.0,0.0,-50.47758,-27.73116,-17.47521,9.49,-0.85,-0.68,2.0
1758076678.48102,1758076678.33661,0.0,0.0,0.0,-48.52953,-29.73651,-6.53172,9.49,-0.85,-0.44,2.0
1758076678.48543,1758076678.34661,0.0,0.0,0.0,-45.20637,-16.67307,-3.20856,10.2,-1.29,-0.44,2.0
1758076678.50117,1758076678.35661,0.0,0.0,0.0,-45.83662,0.34377,-2.34913,12.49,-1.14,0.25,2.0
1758076678.50465,1758076678.36661,0.0,0.0,0.0,-45.43555,17.6471,0.74485,12.49,-1.14,0.25,2.0
1758076678.52001,1758076678.37661,0.0,0.0,0.0,-46.75336,-18.9649,-1.94806,10.53,-0.22,0.72,2.0
1758076678.53601,1758076678.38661,0.0,0.0,0.0,-46.75336,-30.30947,-3.95341,10.53,-0.22,0.72,2.0
1758076678.5389,1758076678.39661,0.0,0.0,0.0,-49.04519,-36.89849,-8.99544,10.27,0.44,1.1,2.0
1758076678.55398,1758076678.40661,0.0,0.0,0.0,-49.90463,-39.01843,-11.28727,10.27,0.44,1.1,2.0
1758076678.55499,1758076678.41661,0.0,0.0,0.0,-53.91533,-35.58068,-12.83425,10.64,1.02,-1.23,2.0
1758076678.56993,1758076678.42661,0.0,0.0,0.0,-57.63955,-34.0337,-11.11538,9.47,0.91,-0.14,2.0
1758076678.58578,1758076678.43661,0.0,0.0,0.0,-59.98868,-35.00772,-8.136,9.47,0.91,-0.14,2.0
1758076678.58706,1758076678.44661,0.0,0.0,0.0,-59.01466,-39.07573,-5.27121,7.95,0.38,1.01,2.0
1758076678.60195,1758076678.45661,0.0,0.0,0.0,-51.45161,-57.0093,-4.98473,7.95,0.38,1.01,2.0
1758076678.60492,1758076678.46661,0.0,0.0,0.0,-43.83128,-88.06361,-11.63104,8.67,-0.91,5.88,2.0
1758076678.6249,1758076678.47661,0.0,0.0,0.0,-35.3515,-114.0759,-23.60586,8.67,-0.91,5.88,2.0
1758076678.62582,1758076678.48661,0.0,0.0,0.0,-19.59516,-120.37844,-41.59674,11.91,-3.21,8.3,2.0
1758076678.641,1758076678.49661,0.0,0.0,0.0,-9.05273,-111.21111,-47.95657,14.93,-3.93,6.15,2.0
1758076678.65798,1758076678.50661,0.0,0.0,0.0,-0.45837,-104.33562,-48.35764,14.93,-3.93,6.15,2.0
1758076678.65892,1758076678.51661,0.0,0.0,0.0,4.81285,-105.02316,-45.20637,10.99,-2.77,4.43,2.0
1758076678.67395,1758076678.52661,0.0,0.0,0.0,7.04738,-100.66869,-37.58603,10.99,-2.77,4.43,2.0
1758076678.67532,1758076678.53661,0.0,0.0,0.0,3.55234,-92.53268,-30.53865,10.01,-0.8,3.58,2.0
1758076678.69031,1758076678.54661,0.0,0.0,0.0,-1.20321,-85.82908,-21.14215,10.01,-0.8,3.58,2.0
1758076678.70852,1758076678.55661,0.0,0.0,0.0,-7.21927,-76.83365,-11.86023,11.41,0.82,2.54,2.0
1758076678.70949,1758076678.56661,0.0,0.0,0.0,-14.78231,-54.94666,1.14592,13.92,0.82,2.26,2.0
1758076678.72523,1758076678.57661,0.0,0.0,0.0,-18.22006,-39.82057,7.62034,13.92,1.78,2.26,2.0
1758076678.72935,1758076678.58661,0.0,0.0,0.0,-20.34,-24.63719,11.00079,13.58,1.91,0.59,2.0
1758076678.74497,1758076678.59661,0.0,0.0,0.0,-21.08485,-10.08406,12.2613,13.58,1.91,0.59,2.0
1758076678.74772,1758076678.60661,0.0,0.0,0.0,-20.74107,8.70896,10.94349,11.69,1.12,0.02,2.0
1758076678.76505,1758076678.61661,0.0,0.0,0.0,-20.51189,21.14215,8.99544,11.69,1.12,0.02,2.0
1758076678.76772,1758076678.62661,0.0,0.0,0.0,-19.42327,35.06502,6.58902,10.31,-0.01,-0.13,2.0
1758076678.78522,1758076678.63661,0.0,0.0,0.0,-18.33465,46.40959,4.69825,10.31,-0.01,-0.13,2.0
1758076678.7862,1758076678.64661,0.0,0.0,0.0,-16.84496,57.46767,1.83346,8.94,-0.88,0.13,2.0
1758076678.801,1758076678.65661,0.0,0.0,0.0,-16.04282,61.24919,-0.34377,7.03,-1.29,0.26,2.0
1758076678.80457,1758076678.66661,0.0,0.0,0.0,-15.87093,64.62964,-1.66158,7.03,-1.29,0.26,2.0
1758076678.82031,1758076678.67661,0.0,0.0,0.0,-15.0115,69.78626,-3.09397,6.83,-1.44,0.83,2.0
1758076678.83627,1758076678.68661,0.0,0.0,0.0,-12.83425,74.65641,-5.15662,6.83,-1.44,0.83,2.0
1758076678.83722,1758076678.69661,0.0,0.0,0.0,-10.02676,77.63579,-6.35983,6.7,-1.43,1.18,2.0
1758076678.85432,1758076678.70661,0.0,0.0,0.0,-7.21927,80.0995,-7.10468,6.7,-1.43,1.18,2.0
1758076678.85552,1758076678.71661,0.0,0.0,0.0,-2.57831,77.17742,-8.02141,6.92,-1.29,1.39,2.0
1758076678.87044,1758076678.72661,0.0,0.0,0.0,0.80214,73.45319,-8.0787,7.0,-1.02,0.9,2.0
1758076678.88709,1758076678.73661,0.0,0.0,0.0,4.52637,70.87489,-7.33386,7.0,-1.02,0.9,2.0
1758076678.88962,1758076678.74661,0.0,0.0,0.0,7.79223,68.35387,-6.07335,8.17,-0.82,0.51,2.0
1758076678.90514,1758076678.75661,0.0,0.0,0.0,13.12073,66.46311,-2.6929,8.17,-0.82,0.51,2.0
1758076678.90655,1758076678.76661,0.0,0.0,0.0,17.58981,65.83286,0.57296,9.55,-0.77,0.48,2.0
1758076678.92102,1758076678.77661,0.0,0.0,0.0,21.88699,64.57235,4.52637,9.55,-0.77,0.48,2.0
1758076678.93707,1758076678.78661,0.0,0.0,0.0,26.52795,62.85347,8.42248,10.41,-0.76,0.57,2.0
1758076678.93858,1758076678.79661,0.0,0.0,0.0,33.17426,59.01466,13.40721,10.57,-0.7,0.36,2.0
1758076678.95332,1758076678.80661,0.0,0.0,0.0,36.89849,55.7488,15.75634,10.57,-0.7,0.36,2.0
1758076678.95426,1758076678.81661,0.0,0.0,0.0,39.82057,50.53488,16.95955,10.22,-0.74,0.48,2.0
1758076678.96993,1758076678.82661,0.0,0.0,0.0,41.88322,41.42485,17.13144,10.22,-0.74,0.48,2.0
1758076678.98723,1758076678.83661,0.0,0.0,0.0,43.60209,18.16276,15.29797,9.06,-0.71,0.82,2.0
1758076678.99049,1758076678.84661,0.0,0.0,0.0,43.4875,4.23989,12.2613,9.06,-0.71,0.82,2.0
1758076679.00634,1758076678.85661,0.0,0.0,0.0,42.97184,0.11459,7.50575,8.98,-0.5,0.27,2.0
1758076679.00756,1758076678.86661,0.0,0.0,0.0,43.02913,5.4431,5.95876,8.98,-0.5,0.27,2.0
1758076679.02233,1758076678.87661,0.0,0.0,0.0,43.14373,5.09932,3.83882,10.99,-0.35,-0.35,2.0
1758076679.02359,1758076678.88661,0.0,0.0,0.0,43.20102,1.3751,2.97938,10.72,-0.24,0.51,2.0
1758076679.03939,1758076678.89661,0.0,0.0,0.0,43.65939,5.90147,5.09932,10.72,-0.24,0.51,2.0
1758076679.05542,1758076678.90661,0.0,0.0,0.0,42.28429,17.47521,3.32316,12.62,-0.19,0.5,2.0
1758076679.05633,1758076678.91661,0.0,0.0,0.0,39.87786,26.47065,2.46372,12.62,-0.19,0.5,2.0
1758076679.07141,1758076678.92661,0.0,0.0,0.0,39.24761,3.09397,-0.74485,11.18,-0.1,0.08,2.0
1758076679.07312,1758076678.93661,0.0,0.0,0.0,39.3622,-36.32552,1.3751,11.18,-0.1,0.08,2.0
1758076679.0894,1758076678.94661,0.0,0.0,0.0,41.36755,-62.22322,14.03747,7.21,-0.52,-0.59,2.0
1758076679.10516,1758076678.95661,0.0,0.0,0.0,39.3622,-54.60288,16.21471,10.91,-1.36,-1.12,2.0
1758076679.10668,1758076678.96661,0.0,0.0,0.0,39.01843,-42.28429,18.79302,10.91,-1.36,-1.12,2.0
1758076679.12301,1758076678.97661,0.0,0.0,0.0,37.29956,-40.33623,20.97026,10.21,-0.98,-1.35,2.0
1758076679.12504,1758076678.98661,0.0,0.0,0.0,27.61657,-54.71747,26.35606,10.21,-0.98,-1.35,2.0
1758076679.14043,1758076678.99661,0.0,0.0,0.0,18.62113,-75.40125,32.83048,9.36,0.13,4.38,2.0
1758076679.14406,1758076679.00661,0.0,0.0,0.0,10.65701,-95.97043,42.57077,9.36,0.13,4.38,2.0
1758076679.15919,1758076679.01661,0.0,0.0,0.0,1.71887,-101.06976,51.39432,10.86,1.29,5.88,2.0
1758076679.17536,1758076679.02661,0.0,0.0,0.0,-14.32395,-89.43871,57.18119,13.43,2.65,5.96,2.0
1758076679.17669,1758076679.03661,0.0,0.0,0.0,-23.94964,-88.06361,56.20716,13.43,2.65,5.96,2.0
1758076679.19151,1758076679.04661,0.0,0.0,0.0,-31.74186,-92.07432,52.48294,10.6,3.51,7.01,2.0
1758076679.19331,1758076679.05661,0.0,0.0,0.0,-35.92446,-94.02238,48.01387,10.6,3.51,7.01,2.0
1758076679.20957,1758076679.06661,0.0,0.0,0.0,-36.32552,-85.08423,39.4768,10.22,3.21,6.21,2.0
1758076679.22532,1758076679.07661,0.0,0.0,0.0,-32.25753,-74.94289,32.42941,10.22,3.21,6.21,2.0
1758076679.22727,1758076679.08661,0.0,0.0,0.0,-25.55392,-67.43713,23.66316,11.67,2.14,5.05,2.0
1758076679.24233,1758076679.09661,0.0,0.0,0.0,-17.99088,-61.07731,15.12609,11.67,2.14,5.05,2.0
1758076679.24462,1758076679.10661,0.0,0.0,0.0,-9.39651,-39.07573,0.51566,12.89,0.59,3.88,2.0
1758076679.25955,1758076679.11661,0.0,0.0,0.0,-5.90147,-19.36597,-8.65166,14.85,-0.62,1.72,2.0
1758076679.27558,1758076679.12661,0.0,0.0,0.0,-4.23989,-1.77617,-15.58445,14.85,-0.62,1.72,2.0
1758076679.2773,1758076679.13661,0.0,0.0,0.0,-3.09397,20.68378,-20.22541,13.08,-1.17,0.26,2.0
1758076679.29232,1758076679.14661,0.0,0.0,0.0,-2.63561,35.58068,-20.11082,13.08,-1.17,0.26,2.0
1758076679.29462,1758076679.15661,0.0,0.0,0.0,-1.43239,49.84733,-18.22006,11.05,-1.2,-0.42,2.0
1758076679.30932,1758076679.16661,0.0,0.0,0.0,-0.22918,63.42643,-15.58445,11.05,-1.2,-0.42,2.0
1758076679.32532,1758076679.17661,0.0,0.0,0.0,2.40642,81.36001,-10.31324,9.61,-0.88,-0.82,2.0
1758076679.32726,1758076679.18661,0.0,0.0,0.0,6.13065,90.06896,-6.13065,8.42,-0.43,-0.38,2.0
1758076679.34236,1758076679.19661,0.0,0.0,0.0,10.48513,96.88716,-3.55234,8.42,-0.43,-0.38,2.0
1758076679.34455,1758076679.20661,0.0,0.0,0.0,14.72501,101.52813,-0.80214,7.53,-0.15,0.61,2.0
1758076679.35955,1758076679.21661,0.0,0.0,0.0,20.22541,107.83066,2.92208,7.53,-0.15,0.61,2.0
1758076679.37536,1758076679.22661,0.0,0.0,0.0,22.63183,110.23709,5.09932,6.92,0.12,0.87,2.0
1758076679.37815,1758076679.23661,0.0,0.0,0.0,24.17882,107.60149,6.87549,6.92,0.12,0.87,2.0
1758076679.39341,1758076679.24661,0.0,0.0,0.0,24.57989,102.55945,9.22462,6.12,0.37,1.35,2.0
1758076679.41196,1758076679.25661,0.0,0.0,0.0,24.23611,89.6106,12.71966,5.84,0.44,1.45,2.0
1758076679.41216,1758076679.26661,0.0,0.0,0.0,22.97561,79.01089,14.15206,5.84,0.44,1.45,2.0
1758076679.42545,1758076679.27661,0.0,0.0,0.0,20.34,69.04142,14.43854,6.27,0.6,1.41,2.0
1758076679.42771,1758076679.28661,0.0,0.0,0.0,16.55848,59.98868,13.34992,6.27,0.6,1.41,2.0
1758076679.44262,1758076679.29661,0.0,0.0,0.0,9.11003,47.49821,7.67763,7.35,1.03,0.85,2.0
1758076679.4452,1758076679.30661,0.0,0.0,0.0,4.35448,38.15899,1.77617,7.35,1.03,0.85,2.0
1758076679.46055,1758076679.31661,0.0,0.0,0.0,-0.45837,34.60666,-4.35448,8.77,1.54,0.86,2.0
1758076679.46428,1758076679.32661,0.0,0.0,0.0,-5.90147,34.37747,-12.37589,8.77,1.54,0.86,2.0
1758076679.47981,1758076679.33661,0.0,0.0,0.0,-13.23533,33.17426,-16.04282,10.06,1.83,1.13,2.0
1758076679.49549,1758076679.34661,0.0,0.0,0.0,-17.99088,30.53865,-17.47521,10.04,1.72,0.94,2.0
1758076679.49903,1758076679.35661,0.0,0.0,0.0,-22.91831,26.24147,-18.33465,10.04,1.72,0.94,2.0
1758076679.51449,1758076679.36661,0.0,0.0,0.0,-28.24682,6.18794,-16.84496,9.35,1.49,0.84,2.0
1758076679.51569,1758076679.37661,0.0,0.0,0.0,-29.9084,-13.46451,-13.98017,9.35,1.49,0.84,2.0
1758076679.53075,1758076679.38661,0.0,0.0,0.0,-30.82513,-31.85646,-10.02676,8.37,1.02,-0.4,2.0
1758076679.53326,1758076679.39661,0.0,0.0,0.0,-32.42941,-44.40423,-4.23989,8.37,1.02,-0.4,2.0
1758076679.54964,1758076679.40661,0.0,0.0,0.0,-33.17426,-49.27437,4.35448,9.51,0.56,-1.04,2.0
1758076679.56549,1758076679.41661,0.0,0.0,0.0,-33.63263,-37.47144,7.96411,11.97,0.31,-0.38,2.0
1758076679.56669,1758076679.42661,0.0,0.0,0.0,-35.3515,-22.34536,6.24524,11.97,0.31,-0.38,2.0
1758076679.58163,1758076679.43661,0.0,0.0,0.0,-35.63798,2.11994,7.44845,14.07,0.41,0.54,2.0
1758076679.58297,1758076679.44661,0.0,0.0,0.0,-33.23156,-22.86102,5.90147,14.07,0.41,0.54,2.0
1758076679.5979,1758076679.45661,0.0,0.0,0.0,-38.27358,-39.76327,0.85944,9.78,0.9,1.73,2.0
1758076679.6138,1758076679.46661,0.0,0.0,0.0,-41.94051,-45.37826,-3.55234,9.78,0.9,1.73,2.0
1758076679.61495,1758076679.47661,0.0,0.0,0.0,-42.97184,-46.75336,-6.47442,11.03,1.35,0.39,2.0
1758076679.62982,1758076679.48661,0.0,0.0,0.0,-47.67009,-41.42485,-8.88085,10.06,1.51,-1.53,2.0
1758076679.64663,1758076679.49661,0.0,0.0,0.0,-50.82136,-36.15364,-8.65166,10.06,1.51,-1.53,2.0
1758076679.65072,1758076679.50661,0.0,0.0,0.0,-53.45696,-32.42941,-7.50575,8.41,1.23,-0.88,2.0
1758076679.66667,1758076679.51661,0.0,0.0,0.0,-53.11319,-31.74186,-4.98473,8.41,1.23,-0.88,2.0
1758076679.66994,1758076679.52661,0.0,0.0,0.0,-47.03984,-50.64947,-5.50039,6.98,0.76,0.99,2.0
1758076679.68561,1758076679.53661,0.0,0.0,0.0,-41.08107,-84.74047,-11.63104,6.98,0.76,0.99,2.0
1758076679.68718,1758076679.54661,0.0,0.0,0.0,-37.24226,-122.95675,-24.5226,6.88,-0.02,6.05,2.0
1758076679.70187,1758076679.55661,0.0,0.0,0.0,-28.76248,-138.14012,-46.75336,6.88,-0.02,6.05,2.0
1758076679.70307,1758076679.56661,0.0,0.0,0.0,-21.14215,-128.80092,-54.71747,13.12,-1.95,8.01,2.0
1758076679.71782,1758076679.57661,0.0,0.0,0.0,-15.75634,-127.02474,-59.41573,15.98,-3.98,7.85,2.0
1758076679.73366,1758076679.58661,0.0,0.0,0.0,-12.08941,-124.50373,-57.41038,15.98,-3.98,7.85,2.0
1758076679.73515,1758076679.59661,0.0,0.0,0.0,-10.37054,-117.74284,-48.35764,13.47,-3.42,5.67,2.0
1758076679.74987,1758076679.60661,0.0,0.0,0.0,-12.77696,-106.0545,-38.61736,13.47,-3.42,5.67,2.0
1758076679.76669,1758076679.61661,0.0,0.0,0.0,-17.6471,-95.34019,-27.33009,12.98,-0.88,2.74,2.0
1758076679.76998,1758076679.62661,0.0,0.0,0.0,-23.94964,-83.53725,-15.35527,12.98,-0.88,2.74,2.0
1758076679.78562,1758076679.63661,0.0,0.0,0.0,-32.77319,-58.3844,2.63561,12.95,0.82,1.57,2.0
1758076679.78688,1758076679.64661,0.0,0.0,0.0,-37.18496,-38.84654,12.2613,13.98,1.58,0.96,2.0
1758076679.80267,1758076679.65661,0.0,0.0,0.0,-40.10705,-19.88164,18.33465,13.98,1.58,0.96,2.0
1758076679.80531,1758076679.66661,0.0,0.0,0.0,-23.72045,-31.51268,21.02755,12.68,1.6,0.09,2.0
1758076679.82069,1758076679.67661,0.0,0.0,0.0,-35.92446,10.59972,19.59516,12.68,1.6,0.09,2.0
1758076679.82226,1758076679.68661,0.0,0.0,0.0,-43.14373,36.49741,16.84496,11.1,0.91,-0.54,2.0
1758076679.83818,1758076679.69661,0.0,0.0,0.0,-42.28429,50.76406,13.34992,11.1,0.91,-0.54,2.0
1758076679.85494,1758076679.70661,0.0,0.0,0.0,-41.36755,62.79618,9.28192,9.75,-0.18,-0.6,2.0
1758076679.85707,1758076679.71661,0.0,0.0,0.0,-38.61736,75.63043,2.29183,7.96,-1.16,0.08,2.0
1758076679.87277,1758076679.72661,0.0,0.0,0.0,-36.38282,80.27139,-2.46372,7.96,-1.16,0.08,2.0
1758076679.8737,1758076679.73661,0.0,0.0,0.0,-33.68992,83.25077,-6.70361,6.54,-1.79,0.95,2.0
1758076679.88897,1758076679.74661,0.0,0.0,0.0,-30.25217,86.74582,-10.71431,6.54,-1.79,0.95,2.0
1758076679.90499,1758076679.75661,0.0,0.0,0.0,-24.29341,89.26682,-11.74564,5.91,-2.15,1.55,2.0
1758076679.907,1758076679.76661,0.0,0.0,0.0,-19.76705,86.80311,-13.06344,5.91,-2.15,1.55,2.0
1758076679.9218,1758076679.77661,0.0,0.0,0.0,-14.43854,82.90699,-13.12073,5.01,-2.29,1.29,2.0
1758076679.92295,1758076679.78661,0.0,0.0,0.0,-6.41713,79.64114,-13.12073,5.01,-2.29,1.29,2.0
1758076679.93795,1758076679.79661,0.0,0.0,0.0,-1.3751,78.43793,-13.12073,5.66,-2.3,0.56,2.0
1758076679.95392,1758076679.80661,0.0,0.0,0.0,3.95341,78.20874,-11.34457,7.16,-2.35,0.23,2.0
1758076679.95537,1758076679.81661,0.0,0.0,0.0,9.22462,78.55252,-9.22462,7.16,-2.35,0.23,2.0
1758076679.96978,1758076679.82661,0.0,0.0,0.0,16.38659,78.7817,-3.89611,9.05,-2.46,0.45,2.0
1758076679.98577,1758076679.83661,0.0,0.0,0.0,20.97026,78.49522,0.22918,9.05,-2.46,0.45,2.0
1758076679.99258,1758076679.84661,0.0,0.0,0.0,24.98096,76.26069,4.81285,10.39,-2.19,0.86,2.0
1758076679.99322,1758076679.85661,0.0,0.0,0.0,28.99167,72.53646,9.22462,10.39,-2.19,0.86,2.0
1758076680.00887,1758076679.86661,0.0,0.0,0.0,35.2942,64.45775,14.32395,10.46,-1.57,0.77,2.0
1758076680.02577,1758076679.87661,0.0,0.0,0.0,39.76327,58.90006,16.3293,10.34,-1.18,0.52,2.0
1758076680.02936,1758076679.88661,0.0,0.0,0.0,44.11775,53.45696,17.13144,10.34,-1.18,0.52,2.0
1758076680.04513,1758076679.89661,0.0,0.0,0.0,48.01387,47.72739,15.92823,10.23,-0.97,0.33,2.0
1758076680.04713,1758076679.90661,0.0,0.0,0.0,53.17049,36.6693,12.49048,10.23,-0.97,0.33,2.0
1758076680.06512,1758076679.91661,0.0,0.0,0.0,56.14987,24.35071,9.96947,9.61,-0.76,0.27,2.0
1758076680.06714,1758076679.92661,0.0,0.0,0.0,57.52497,10.71431,6.53172,9.61,-0.76,0.27,2.0
1758076680.08514,1758076679.93661,0.0,0.0,0.0,58.67088,1.3751,3.38045,9.12,-0.38,-0.24,2.0
1758076680.08604,1758076679.94661,0.0,0.0,0.0,59.18654,2.00535,-0.0573,10.75,-0.09,-0.42,2.0
1758076680.10113,1758076679.95661,0.0,0.0,0.0,59.47303,0.97403,0.74485,10.75,-0.09,-0.42,2.0
1758076680.10521,1758076679.96661,0.0,0.0,0.0,58.72818,-0.45837,0.51566,11.48,-0.02,0.39,2.0
1758076680.1209,1758076679.97661,0.0,0.0,0.0,56.37905,3.60963,2.92208,11.48,-0.02,0.39,2.0
1758076680.12251,1758076679.98661,0.0,0.0,0.0,54.3737,15.0115,3.89611,12.57,-0.01,1.37,2.0
1758076680.13894,1758076679.99661,0.0,0.0,0.0,47.72739,18.10547,1.3751,12.57,-0.01,1.37,2.0
1758076680.15496,1758076680.00661,0.0,0.0,0.0,51.39432,-8.59437,0.57296,10.64,0.14,1.0,2.0
1758076680.15645,1758076680.01661,0.0,0.0,0.0,52.42564,-68.86953,9.62569,10.64,0.14,1.0,2.0
1758076680.17102,1758076680.02661,0.0,0.0,0.0,53.51426,-75.40125,15.92823,6.55,-0.39,-0.46,2.0
1758076680.17235,1758076680.03661,0.0,0.0,0.0,53.17049,-63.88479,18.33465,10.62,-1.12,-0.66,2.0
1758076680.18897,1758076680.04661,0.0,0.0,0.0,51.5662,-58.15522,21.02755,10.62,-1.12,-0.66,2.0
1758076680.20524,1758076680.05661,0.0,0.0,0.0,45.37826,-79.64114,27.67386,9.45,-0.43,1.25,2.0
1758076680.20942,1758076680.06661,0.0,0.0,0.0,38.21629,-100.5541,35.63798,9.45,-0.43,1.25,2.0
1758076680.22522,1758076680.07661,0.0,0.0,0.0,31.91375,-115.5656,45.83662,10.55,0.79,7.14,2.0
1758076680.22616,1758076680.08661,0.0,0.0,0.0,24.35071,-117.85743,53.39967,10.55,0.79,7.14,2.0
1758076680.24128,1758076680.09661,0.0,0.0,0.0,11.00079,-104.85127,57.41038,13.26,1.62,5.98,2.0
1758076680.24255,1758076680.10661,0.0,0.0,0.0,3.38045,-97.86119,56.55093,12.49,2.74,6.73,2.0
1758076680.25798,1758076680.11661,0.0,0.0,0.0,-1.77617,-96.65798,53.17049,12.49,2.74,6.73,2.0
1758076680.27398,1758076680.12661,0.0,0.0,0.0,-4.23989,-97.28824,49.38896,10.06,2.97,6.2,2.0
1758076680.27526,1758076680.13661,0.0,0.0,0.0,-1.71887,-89.20953,42.34158,10.06,2.97,6.2,2.0
1758076680.29,1758076680.14661,0.0,0.0,0.0,2.86479,-78.89629,35.2942,11.19,2.47,5.52,2.0
1758076680.30714,1758076680.15661,0.0,0.0,0.0,9.05273,-71.67702,28.30412,11.19,2.47,5.52,2.0
1758076680.30826,1758076680.16661,0.0,0.0,0.0,13.46451,-60.33246,14.78231,12.83,1.37,3.83,2.0
1758076680.32305,1758076680.17661,0.0,0.0,0.0,16.272,-35.2942,5.32851,14.9,0.18,2.48,2.0
1758076680.32502,1758076680.18661,0.0,0.0,0.0,15.87093,-17.24603,-3.20856,14.9,0.18,2.48,2.0
1758076680.34031,1758076680.19661,0.0,0.0,0.0,14.03747,-1.66158,-9.74028,13.59,-0.56,0.81,2.0
1758076680.3571,1758076680.20661,0.0,0.0,0.0,10.31324,19.42327,-15.29797,13.59,-0.56,0.81,2.0
1758076680.35804,1758076680.21661,0.0,0.0,0.0,7.50575,33.17426,-16.73037,11.01,-0.75,0.16,2.0
1758076680.37325,1758076680.22661,0.0,0.0,0.0,5.55769,46.2377,-16.90226,11.01,-0.75,0.16,2.0
1758076680.37424,1758076680.23661,0.0,0.0,0.0,3.49504,59.35843,-16.21471,9.68,-0.5,-0.58,2.0
1758076680.38927,1758076680.24661,0.0,0.0,0.0,3.49504,75.40125,-13.34992,9.68,-0.5,-0.48,2.0
1758076680.40517,1758076680.25661,0.0,0.0,0.0,5.21392,81.99026,-11.80293,8.65,-0.04,-0.48,2.0
1758076680.40708,1758076680.26661,0.0,0.0,0.0,7.44845,88.86576,-10.19865,7.75,0.03,0.27,2.0
1758076680.42206,1758076680.27661,0.0,0.0,0.0,10.19865,93.96508,-7.67763,7.75,0.03,0.27,2.0
1758076680.4244,1758076680.28661,0.0,0.0,0.0,13.5218,99.06441,-3.20856,6.94,0.2,0.51,2.0
1758076680.43938,1758076680.29661,0.0,0.0,0.0,14.78231,101.8719,-0.17189,6.94,0.2,0.51,2.0
1758076680.4554,1758076680.30661,0.0,0.0,0.0,15.92823,102.15839,3.49504,6.44,0.37,0.93,2.0
1758076680.45756,1758076680.31661,0.0,0.0,0.0,15.58445,100.03843,6.53172,6.44,0.37,0.93,2.0
1758076680.4724,1758076680.32661,0.0,0.0,0.0,13.69369,90.81382,10.59972,6.25,0.41,1.51,2.0
1758076680.47333,1758076680.33661,0.0,0.0,0.0,12.37589,81.87567,13.75099,6.51,0.45,1.48,2.0
1758076680.48968,1758076680.34661,0.0,0.0,0.0,9.91217,73.2813,15.35527,6.51,0.45,1.48,2.0
1758076680.50535,1758076680.35661,0.0,0.0,0.0,7.04738,64.85883,15.41257,7.46,0.45,1.6,2.0
1758076680.51064,1758076680.36661,0.0,0.0,0.0,2.46372,52.42564,13.17803,7.46,0.45,1.6,2.0
1758076680.52514,1758076680.37661,0.0,0.0,0.0,-0.45837,45.55015,9.05273,8.23,0.52,1.16,2.0
1758076680.52662,1758076680.38661,0.0,0.0,0.0,-2.57831,38.73195,4.0107,8.23,0.52,1.16,2.0
1758076680.54142,1758076680.39661,0.0,0.0,0.0,-6.7609,30.82513,-5.32851,9.14,0.71,1.4,2.0
1758076680.54267,1758076680.40661,0.0,0.0,0.0,-9.62569,28.01764,-10.8862,9.84,0.95,0.94,2.0
1758076680.56046,1758076680.41661,0.0,0.0,0.0,-12.43318,26.06958,-14.66772,9.84,0.95,0.94,2.0
1758076680.57619,1758076680.42661,0.0,0.0,0.0,-15.24068,21.31403,-17.30333,9.54,0.99,0.73,2.0
1758076680.57817,1758076680.43661,0.0,0.0,0.0,-19.70975,9.62569,-19.36597,9.54,0.99,0.73,2.0
1758076680.59321,1758076680.44661,0.0,0.0,0.0,-21.7724,-4.58366,-18.56383,9.04,0.87,0.62,2.0
1758076680.59443,1758076680.45661,0.0,0.0,0.0,-22.97561,-23.31938,-16.21471,9.04,0.87,0.62,2.0
1758076680.60949,1758076680.46661,0.0,0.0,0.0,-23.66316,-39.87786,-12.49048,8.53,0.65,-0.42,2.0
1758076680.62532,1758076680.47661,0.0,0.0,0.0,-25.38203,-53.39967,-3.60963,10.02,0.6,-0.95,2.0
1758076680.62749,1758076680.48661,0.0,0.0,0.0,-26.98631,-53.34238,3.26586,10.02,0.6,-0.95,2.0
1758076680.64231,1758076680.49661,0.0,0.0,0.0,-28.476,-39.3622,7.79223,12.62,0.93,-0.37,2.0
1758076680.64499,1758076680.50661,0.0,0.0,0.0,-31.16891,-20.62648,7.33386,12.62,0.93,-0.37,2.0
1758076680.66056,1758076680.51661,0.0,0.0,0.0,-33.34615,3.72423,9.5684,14.19,0.89,0.06,2.0
1758076680.67636,1758076680.52661,0.0,0.0,0.0,-36.03905,-25.09555,5.95876,14.19,0.89,0.06,2.0
1758076680.67754,1758076680.53661,0.0,0.0,0.0,-40.45082,-38.38818,2.23454,9.66,1.32,1.21,2.0
1758076680.69255,1758076680.54661,0.0,0.0,0.0,-45.03448,-41.02378,-2.6929,9.66,1.32,1.21,2.0
1758076680.69356,1758076680.55661,0.0,0.0,0.0,-48.07116,-40.7946,-7.04738,10.71,1.47,-0.26,2.0
1758076680.70853,1758076680.56661,0.0,0.0,0.0,-50.59217,-35.92446,-8.30789,9.51,1.42,-1.77,2.0
1758076680.72536,1758076680.57661,0.0,0.0,0.0,-52.13916,-31.62727,-8.59437,9.51,1.42,-1.77,2.0
1758076680.72734,1758076680.58661,0.0,0.0,0.0,-50.76406,-34.77854,-8.42248,7.93,1.13,0.09,2.0
1758076680.74461,1758076680.59661,0.0,0.0,0.0,-42.62806,-56.60823,-10.94349,7.93,1.13,0.09,2.0
1758076680.74555,1758076680.60661,0.0,0.0,0.0,-34.95043,-90.47005,-17.58981,7.45,0.5,3.99,2.0
1758076680.7603,1758076680.61661,0.0,0.0,0.0,-29.56462,-123.41511,-31.74186,7.45,0.5,3.99,2.0
1758076680.77661,1758076680.62661,0.0,0.0,0.0,-19.88164,-117.34176,-48.64412,10.65,-1.22,7.51,2.0
1758076680.77869,1758076680.63661,0.0,0.0,0.0,-12.83425,-112.35703,-54.3737,15.07,-3.51,6.87,2.0
1758076680.79357,1758076680.64661,0.0,0.0,0.0,-7.79223,-113.04458,-56.14987,15.07,-3.51,6.87,2.0
1758076680.79457,1758076680.65661,0.0,0.0,0.0,-5.27121,-110.75274,-53.28508,12.34,-4.21,6.81,2.0
1758076680.80943,1758076680.66661,0.0,0.0,0.0,-6.58902,-105.53883,-44.17505,12.34,-4.21,6.81,2.0
1758076680.82542,1758076680.67661,0.0,0.0,0.0,-11.11538,-96.60069,-35.12231,11.96,-2.31,4.09,2.0
1758076680.83054,1758076680.68661,0.0,0.0,0.0,-16.55848,-87.77714,-24.17882,11.96,-2.31,4.09,2.0
1758076680.84566,1758076680.69661,0.0,0.0,0.0,-22.00158,-78.7817,-12.71966,12.84,-0.07,2.87,2.0
1758076680.84848,1758076680.70661,0.0,0.0,0.0,-28.30412,-57.58226,2.46372,14.55,0.89,1.84,2.0
1758076680.86366,1758076680.71661,0.0,0.0,0.0,-29.8511,-38.78925,9.68299,14.55,0.89,1.84,2.0
1758076680.86462,1758076680.72661,0.0,0.0,0.0,-30.36677,-21.31403,13.06344,14.83,1.05,0.73,2.0
1758076680.87968,1758076680.73661,0.0,0.0,0.0,-28.99167,-5.09932,13.34992,14.83,1.05,0.73,2.0
1758076680.89573,1758076680.74661,0.0,0.0,0.0,-26.01229,16.55848,10.25595,12.36,0.45,-0.03,2.0
1758076680.8982,1758076680.75661,0.0,0.0,0.0,-23.94964,29.9084,6.53172,12.36,0.45,-0.03,2.0
1758076680.91344,1758076680.76661,0.0,0.0,0.0,-21.7724,41.99781,3.49504,10.43,-0.44,-0.43,2.0
1758076680.91468,1758076680.77661,0.0,0.0,0.0,-20.22541,53.80074,0.68755,10.43,-0.44,-0.43,2.0
1758076680.92967,1758076680.78661,0.0,0.0,0.0,-19.36597,69.95815,-2.97938,8.93,-1.08,-0.41,2.0
1758076680.9456,1758076680.79661,0.0,0.0,0.0,-18.27736,76.31798,-5.09932,7.23,-1.35,0.04,2.0
1758076680.94857,1758076680.80661,0.0,0.0,0.0,-17.36062,80.38599,-7.33386,7.23,-1.35,0.04,2.0
1758076680.96369,1758076680.81661,0.0,0.0,0.0,-16.3293,83.30807,-10.48513,6.03,-1.23,0.42,2.0
1758076680.96471,1758076680.82661,0.0,0.0,0.0,-14.9542,85.31342,-13.06344,6.03,-1.23,0.42,2.0
1758076680.97978,1758076680.83661,0.0,0.0,0.0,-12.89155,85.08423,-15.41257,5.78,-1.05,1.32,2.0
1758076680.9957,1758076680.84661,0.0,0.0,0.0,-10.08406,85.31342,-17.13144,5.78,-1.05,1.32,2.0
1758076680.99696,1758076680.85661,0.0,0.0,0.0,-4.98473,81.41731,-18.27736,5.87,-1.02,1.37,2.0
1758076681.01179,1758076680.86661,0.0,0.0,0.0,-0.68755,75.00018,-18.27736,5.84,-1.16,0.99,2.0
1758076681.01299,1758076680.87661,0.0,0.0,0.0,3.20856,68.23928,-18.16276,5.84,-1.16,0.99,2.0
1758076681.02861,1758076680.88661,0.0,0.0,0.0,6.87549,63.42643,-17.24603,6.96,-1.33,0.43,2.0
1758076681.0448,1758076680.89661,0.0,0.0,0.0,12.14671,61.99404,-13.46451,6.96,-1.33,0.43,2.0
1758076681.04564,1758076680.90661,0.0,0.0,0.0,15.87093,60.33246,-9.22462,8.68,-1.53,0.45,2.0
1758076681.06482,1758076680.91661,0.0,0.0,0.0,19.42327,56.78012,-3.95341,8.68,-1.53,0.45,2.0
1758076681.06572,1758076680.92661,0.0,0.0,0.0,22.68913,53.11319,2.23454,9.3,-1.54,1.05,2.0
1758076681.08081,1758076680.93661,0.0,0.0,0.0,27.73116,52.08187,11.00079,10.39,-1.25,1.01,2.0
1758076681.08443,1758076680.94661,0.0,0.0,0.0,31.39809,53.45696,15.92823,10.39,-1.25,1.01,2.0
1758076681.09982,1758076680.95661,0.0,0.0,0.0,34.60666,52.08187,19.07949,10.84,-1.05,0.62,2.0
1758076681.11583,1758076680.96661,0.0,0.0,0.0,37.52874,47.89928,20.3973,10.84,-1.05,0.62,2.0
1758076681.1168,1758076680.97661,0.0,0.0,0.0,41.94051,38.44547,18.33465,10.25,-1.05,0.79,2.0
1758076681.13186,1758076680.98661,0.0,0.0,0.0,44.9199,28.476,15.0115,10.25,-1.05,0.79,2.0
1758076681.1328,1758076680.99661,0.0,0.0,0.0,47.38361,13.34992,11.22997,9.36,-1.02,0.21,2.0
1758076681.14861,1758076681.00661,0.0,0.0,0.0,48.52953,-1.43239,3.32316,9.36,-1.02,0.21,2.0
1758076681.1649,1758076681.01661,0.0,0.0,0.0,49.33167,-4.64096,-1.08862,8.88,-0.7,-0.65,2.0
1758076681.16696,1758076681.02661,0.0,0.0,0.0,49.96192,0.0,-3.83882,10.77,-0.28,-0.63,2.0
1758076681.18162,1758076681.03661,0.0,0.0,0.0,50.53488,0.74485,-3.66693,10.77,-0.28,-0.63,2.0
1758076681.18282,1758076681.04661,0.0,0.0,0.0,50.2484,6.07335,-1.83346,11.16,-0.11,0.61,2.0
1758076681.19863,1758076681.05661,0.0,0.0,0.0,48.8733,16.95955,-1.20321,11.16,-0.11,0.61,2.0
1758076681.2149,1758076681.06661,0.0,0.0,0.0,47.61279,23.72045,-0.80214,12.99,-0.15,1.36,2.0
1758076681.21585,1758076681.07661,0.0,0.0,0.0,47.72739,15.92823,-0.45837,12.99,-0.15,1.36,2.0
1758076681.23092,1758076681.08661,0.0,0.0,0.0,48.30034,-32.54401,2.57831,10.62,-0.23,0.9,2.0
1758076681.24695,1758076681.09661,0.0,0.0,0.0,49.84733,-51.22243,11.00079,9.36,-0.78,-0.47,2.0
1758076681.24821,1758076681.10661,0.0,0.0,0.0,48.9306,-50.87865,17.18874,9.36,-0.78,-0.47,2.0
1758076681.26296,1758076681.11661,0.0,0.0,0.0,48.70141,-37.58603,18.85031,12.08,-1.31,-1.24,2.0
1758076681.26462,1758076681.12661,0.0,0.0,0.0,47.03984,-29.22085,20.68378,12.08,-1.31,-1.24,2.0
1758076681.27994,1758076681.13661,0.0,0.0,0.0,43.65939,-35.86716,22.23076,9.87,-0.93,-0.82,2.0
1758076681.29572,1758076681.14661,0.0,0.0,0.0,36.61201,-46.52417,23.72045,9.87,-0.93,-0.82,2.0
1758076681.29689,1758076681.15661,0.0,0.0,0.0,29.27814,-66.92148,27.61657,9.21,-0.04,3.95,2.0
1758076681.31279,1758076681.16661,0.0,0.0,0.0,18.62113,-97.17365,41.08107,10.47,1.18,4.95,2.0
1758076681.31474,1758076681.17661,0.0,0.0,0.0,10.48513,-97.51743,50.13381,10.47,1.18,4.95,2.0
1758076681.33002,1758076681.18661,0.0,0.0,0.0,1.77617,-92.64729,55.11855,13.41,2.76,6.63,2.0
1758076681.34598,1758076681.19661,0.0,0.0,0.0,-6.35983,-93.79319,55.57691,13.41,2.76,6.63,2.0
1758076681.3488,1758076681.20661,0.0,0.0,0.0,-12.71966,-100.72599,52.36834,10.84,3.89,7.38,2.0
1758076681.36474,1758076681.21661,0.0,0.0,0.0,-12.83425,-98.31956,48.30034,10.84,3.89,7.38,2.0
1758076681.36564,1758076681.22661,0.0,0.0,0.0,-9.91217,-91.15759,42.34158,10.61,3.26,6.47,2.0
1758076681.38253,1758076681.23661,0.0,0.0,0.0,-0.74485,-81.5892,30.25217,10.61,3.26,6.47,2.0
1758076681.38534,1758076681.24661,0.0,0.0,0.0,6.87549,-71.73432,22.00158,11.22,1.8,4.17,2.0
1758076681.40161,1758076681.25661,0.0,0.0,0.0,12.77696,-60.90542,12.37589,12.71,0.14,3.01,2.0
1758076681.40355,1758076681.26661,0.0,0.0,0.0,16.21471,-44.28964,3.26586,12.71,0.14,3.01,2.0
1758076681.41983,1758076681.27661,0.0,0.0,0.0,16.73037,-19.53786,-8.02141,14.72,-0.77,1.98,2.0
1758076681.43603,1758076681.28661,0.0,0.0,0.0,15.24068,-6.7609,-12.43318,14.72,-0.77,1.98,2.0
1758076681.43696,1758076681.29661,0.0,0.0,0.0,13.5218,6.41713,-14.15206,12.49,-0.67,1.0,2.0
1758076681.45288,1758076681.30661,0.0,0.0,0.0,11.91752,19.82434,-14.20935,12.49,-0.67,1.0,2.0
1758076681.45376,1758076681.31661,0.0,0.0,0.0,9.74028,38.78925,-12.49048,10.7,-0.23,0.02,2.0
1758076681.46905,1758076681.32661,0.0,0.0,0.0,8.136,51.10783,-10.59972,9.42,0.37,-0.42,2.0
1758076681.48479,1758076681.33661,0.0,0.0,0.0,7.21927,62.62429,-8.47978,9.42,0.37,-0.42,2.0
1758076681.48711,1758076681.34661,0.0,0.0,0.0,7.33386,70.81759,-6.99009,8.24,0.88,0.14,2.0
1758076681.5048,1758076681.35661,0.0,0.0,0.0,7.96411,79.81302,-4.98473,8.24,0.88,0.14,2.0
1758076681.50712,1758076681.36661,0.0,0.0,0.0,8.25059,83.88103,-3.26586,7.15,1.0,0.85,2.0
1758076681.5218,1758076681.37661,0.0,0.0,0.0,8.30789,87.54795,-1.20321,7.15,1.0,0.85,2.0
1758076681.52328,1758076681.38661,0.0,0.0,0.0,7.62034,90.41274,1.14592,6.35,1.06,0.99,2.0
1758076681.53985,1758076681.39661,0.0,0.0,0.0,4.69825,91.21489,4.35448,6.14,1.12,1.31,2.0
1758076681.55581,1758076681.40661,0.0,0.0,0.0,1.3751,87.0323,6.47442,6.14,1.12,1.31,2.0
1758076681.5578,1758076681.41661,0.0,0.0,0.0,-1.71887,79.12547,8.76626,6.05,1.06,1.54,2.0
1758076681.57302,1758076681.42661,0.0,0.0,0.0,-4.98473,69.90086,11.17268,6.05,1.06,1.54,2.0
1758076681.57434,1758076681.43661,0.0,0.0,0.0,-10.8289,57.86874,11.00079,6.89,1.05,1.08,2.0
1758076681.58878,1758076681.44661,0.0,0.0,0.0,-14.66772,51.27972,9.11003,6.89,1.05,1.08,2.0
1758076681.60488,1758076681.45661,0.0,0.0,0.0,-17.76169,45.89392,5.50039,8.16,1.07,0.53,2.0
1758076681.60691,1758076681.46661,0.0,0.0,0.0,-21.37133,37.24226,-1.60428,8.16,1.07,0.53,2.0
1758076681.62493,1758076681.47661,0.0,0.0,0.0,-24.23611,34.14828,-6.87549,9.01,1.06,0.63,2.0
1758076681.62694,1758076681.48661,0.0,0.0,0.0,-27.2155,32.77319,-12.2613,9.47,1.04,0.49,2.0
1758076681.64184,1758076681.49661,0.0,0.0,0.0,-29.96569,33.51803,-15.87093,9.47,1.04,0.49,2.0
1758076681.64461,1758076681.50661,0.0,0.0,0.0,-33.46074,32.6013,-18.79302,9.95,0.81,0.04,2.0
1758076681.66279,1758076681.51661,0.0,0.0,0.0,-35.92446,28.76248,-19.88164,9.95,0.81,0.04,2.0
1758076681.66445,1758076681.52661,0.0,0.0,0.0,-37.01308,19.07949,-18.9649,9.55,0.68,-0.09,2.0
1758076681.68005,1758076681.53661,0.0,0.0,0.0,-37.24226,2.6929,-15.92823,9.55,0.68,-0.09,2.0
1758076681.69775,1758076681.54661,0.0,0.0,0.0,-35.69527,-21.7724,-9.5684,8.66,0.45,-0.57,2.0
1758076681.69863,1758076681.55661,0.0,0.0,0.0,-35.86716,-34.14828,-3.38045,9.14,0.09,-1.14,2.0
1758076681.71498,1758076681.56661,0.0,0.0,0.0,-35.58068,-42.05511,2.34913,9.14,0.09,-1.14,2.0
1758076681.717,1758076681.57661,0.0,0.0,0.0,-36.89849,-41.71133,6.8182,10.95,0.05,-0.54,2.0
1758076681.73325,1758076681.58661,0.0,0.0,0.0,-37.35685,-22.68913,6.70361,10.95,0.05,-0.54,2.0
1758076681.73412,1758076681.59661,0.0,0.0,0.0,-39.01843,0.57296,5.21392,13.46,0.46,0.72,2.0
1758076681.75001,1758076681.60661,0.0,0.0,0.0,-37.58603,0.17189,9.5684,13.46,0.46,0.72,2.0
1758076681.76845,1758076681.61661,0.0,0.0,0.0,-43.25832,-32.77319,0.0,11.32,0.95,1.46,2.0
1758076681.77116,1758076681.62661,0.0,0.0,0.0,-45.03448,-44.51882,-6.35983,11.1,1.29,1.31,2.0
1758076681.78678,1758076681.63661,0.0,0.0,0.0,-45.20637,-49.04519,-11.17268,11.1,1.29,1.31,2.0
1758076681.7904,1758076681.64661,0.0,0.0,0.0,-46.52417,-49.96192,-15.24068,10.81,1.54,-0.88,2.0
1758076681.80676,1758076681.65661,0.0,0.0,0.0,-47.89928,-43.4875,-15.87093,10.81,1.54,-0.88,2.0
1758076681.80979,1758076681.66661,0.0,0.0,0.0,-46.46688,-41.02378,-14.20935,10.12,1.28,0.04,2.0
1758076681.82531,1758076681.67661,0.0,0.0,0.0,-41.88322,-46.40959,-13.23533,10.12,1.28,0.04,2.0
1758076681.8282,1758076681.68661,0.0,0.0,0.0,-35.06502,-61.07731,-14.15206,9.31,0.29,1.87,2.0
1758076681.84426,1758076681.69661,0.0,0.0,0.0,-25.49662,-94.02238,-21.7724,9.31,0.29,1.87,2.0
1758076681.84547,1758076681.70661,0.0,0.0,0.0,-18.62113,-106.91393,-29.73651,9.97,-1.69,5.18,2.0
1758076681.86008,1758076681.71661,0.0,0.0,0.0,-10.71431,-107.02851,-37.01308,12.7,-3.2,4.35,2.0
1758076681.87709,1758076681.72661,0.0,0.0,0.0,-2.7502,-106.0545,-40.7946,12.7,-3.2,4.35,2.0
1758076681.87913,1758076681.73661,0.0,0.0,0.0,5.27121,-105.65342,-40.85189,11.76,-3.19,4.95,2.0
1758076681.89409,1758076681.74661,0.0,0.0,0.0,7.39116,-105.65342,-38.56006,11.76,-3.19,4.95,2.0
1758076681.89524,1758076681.75661,0.0,0.0,0.0,5.95876,-99.98115,-35.40879,10.31,-1.89,4.15,2.0
1758076681.91006,1758076681.76661,0.0,0.0,0.0,1.71887,-89.15224,-31.56997,10.31,-1.89,4.15,2.0
1758076681.92684,1758076681.77661,0.0,0.0,0.0,-8.30789,-75.97421,-23.66316,11.8,-0.14,3.83,2.0
1758076681.92934,1758076681.78661,0.0,0.0,0.0,-16.61578,-68.64035,-17.6471,13.26,1.24,2.78,2.0
1758076681.94529,1758076681.79661,0.0,0.0,0.0,-74.7137,-29.67921,-11.57375,13.26,1.24,2.78,2.0
1758076681.94625,1758076681.80661,0.0,0.0,0.0,-6.18794,-43.94586,-5.95876,14.63,1.71,1.19,2.0
1758076681.96132,1758076681.81661,0.0,0.0,0.0,-27.96034,-13.5791,0.40107,14.63,1.71,1.19,2.0
1758076681.97733,1758076681.82661,0.0,0.0,0.0,-30.99702,4.29718,2.63561,13.13,1.47,-0.24,2.0
1758076681.97777,1758076681.83661,0.0,0.0,0.0,-31.39809,17.93358,4.1253,13.13,1.47,-0.24,2.0
1758076681.99407,1758076681.84661,0.0,0.0,0.0,-30.93972,29.50733,4.81285,10.76,0.74,-0.24,2.0
1758076681.99527,1758076681.85661,0.0,0.0,0.0,-29.8511,45.89392,4.81285,9.4,-0.08,0.01,2.0
1758076682.01005,1758076681.86661,0.0,0.0,0.0,-29.10626,55.29043,4.64096,9.4,-0.08,0.01,2.0
1758076682.02609,1758076681.87661,0.0,0.0,0.0,-29.27814,64.40046,3.32316,8.28,-0.68,-0.12,2.0
1758076682.02683,1758076681.88661,0.0,0.0,0.0,-29.27814,71.39055,-0.17189,8.28,-0.68,-0.12,2.0
1758076682.04209,1758076681.89661,0.0,0.0,0.0,-28.476,73.10942,-3.32316,6.73,-0.95,0.25,2.0
1758076682.04332,1758076681.90661,0.0,0.0,0.0,-27.33009,75.97421,-6.58902,6.73,-0.95,0.25,2.0
1758076682.05897,1758076681.91661,0.0,0.0,0.0,-25.38203,78.15145,-9.74028,6.21,-1.05,0.89,2.0
1758076682.0753,1758076681.92661,0.0,0.0,0.0,-20.79837,79.29736,-12.71966,6.21,-1.05,1.44,2.0
1758076682.07674,1758076681.93661,0.0,0.0,0.0,-16.84496,75.97421,-13.12073,5.9,-1.18,1.44,2.0
1758076682.09139,1758076681.94661,0.0,0.0,0.0,-13.00614,70.58841,-13.23533,5.62,-1.38,0.98,2.0
1758076682.10746,1758076681.95661,0.0,0.0,0.0,-8.93814,64.91612,-12.77696,5.62,-1.38,0.98,2.0
1758076682.1078,1758076681.96661,0.0,0.0,0.0,-2.63561,59.98868,-11.28727,6.83,-1.58,0.35,2.0
1758076682.12446,1758076681.97661,0.0,0.0,0.0,2.11994,60.33246,-8.88085,6.83,-1.58,0.35,2.0
1758076682.12539,1758076681.98661,0.0,0.0,0.0,6.53172,60.96271,-5.90147,9.12,-1.78,-0.05,2.0
1758076682.14048,1758076681.99661,0.0,0.0,0.0,10.94349,62.96807,-2.46372,9.12,-1.78,-0.05,2.0
1758076682.14471,1758076682.00661,0.0,0.0,0.0,16.95955,65.77556,3.72423,10.87,-1.72,0.17,2.0
1758076682.15999,1758076682.01661,0.0,0.0,0.0,20.97026,66.40582,7.62034,11.45,-1.25,0.42,2.0
1758076682.17653,1758076682.02661,0.0,0.0,0.0,25.09555,64.28587,11.00079,11.45,-1.25,0.42,2.0
1758076682.17763,1758076682.03661,0.0,0.0,0.0,29.39274,62.56699,13.40721,11.08,-1.0,0.28,2.0
1758076682.19432,1758076682.04661,0.0,0.0,0.0,34.49206,57.52497,14.66772,11.08,-1.0,0.28,2.0
1758076682.19577,1758076682.05661,0.0,0.0,0.0,37.01308,50.363,14.03747,10.44,-1.09,0.37,2.0
1758076682.21029,1758076682.06661,0.0,0.0,0.0,39.01843,40.27893,12.54778,10.44,-1.09,0.37,2.0
1758076682.21191,1758076682.07661,0.0,0.0,0.0,41.25296,25.61122,9.85487,9.2,-1.11,0.95,2.0
1758076682.22685,1758076682.08661,0.0,0.0,0.0,41.71133,1.20321,7.10468,8.27,-0.78,0.41,2.0
1758076682.24225,1758076682.09661,0.0,0.0,0.0,41.76862,-7.10468,3.60963,8.27,-0.78,0.41,2.0
1758076682.24347,1758076682.10661,0.0,0.0,0.0,41.42485,-2.40642,2.00535,10.19,-0.26,-0.22,2.0
1758076682.25935,1758076682.11661,0.0,0.0,0.0,42.34158,0.97403,2.11994,10.19,-0.26,-0.22,2.0
1758076682.27531,1758076682.12661,0.0,0.0,0.0,42.39888,5.90147,3.83882,11.6,-0.01,0.28,2.0
1758076682.27722,1758076682.13661,0.0,0.0,0.0,42.51347,18.22006,5.27121,11.6,-0.01,0.28,2.0
1758076682.29231,1758076682.14661,0.0,0.0,0.0,41.31026,30.13758,4.69825,13.56,-0.07,0.93,2.0
1758076682.2935,1758076682.15661,0.0,0.0,0.0,40.39353,17.6471,0.80214,11.13,-0.07,0.52,2.0
1758076682.30828,1758076682.16661,0.0,0.0,0.0,41.02378,-23.54857,3.03668,11.13,-0.08,0.52,2.0
1758076682.32456,1758076682.17661,0.0,0.0,0.0,44.40423,-52.19646,11.45916,8.26,-0.82,-0.7,2.0
1758076682.32549,1758076682.18661,0.0,0.0,0.0,45.20637,-53.11319,17.53251,8.26,-0.82,-0.7,2.0
1758076682.34059,1758076682.19661,0.0,0.0,0.0,45.89392,-28.59059,19.19409,12.12,-1.4,-1.51,2.0
1758076682.34391,1758076682.20661,0.0,0.0,0.0,46.69606,-20.79837,17.6471,12.12,-1.4,-1.51,2.0
1758076682.35957,1758076682.21661,0.0,0.0,0.0,46.98254,-19.59516,16.272,9.81,-0.92,-2.63,2.0
1758076682.37538,1758076682.22661,0.0,0.0,0.0,43.83128,-19.53786,13.23533,9.81,-0.92,-2.63,2.0
1758076682.37727,1758076682.23661,0.0,0.0,0.0,35.06502,-34.14828,11.17268,8.21,-0.65,0.93,2.0
1758076682.39434,1758076682.24661,0.0,0.0,0.0,28.13223,-56.83742,14.49583,8.31,-0.08,3.14,2.0
1758076682.39554,1758076682.25661,0.0,0.0,0.0,21.94428,-86.28745,26.18417,8.31,-0.08,3.14,2.0
1758076682.41033,1758076682.26661,0.0,0.0,0.0,16.21471,-103.1324,41.59674,11.67,1.24,6.58,2.0
1758076682.41201,1758076682.27661,0.0,0.0,0.0,5.27121,-98.94981,57.75415,11.67,1.24,6.58,2.0
1758076682.42973,1758076682.28661,0.0,0.0,0.0,-2.34913,-95.22559,61.93674,14.27,2.79,7.03,2.0
1758076682.44555,1758076682.29661,0.0,0.0,0.0,-7.39116,-97.6893,63.48372,14.27,2.79,7.03,2.0
1758076682.44912,1758076682.30661,0.0,0.0,0.0,-9.39651,-99.80926,60.10328,11.1,4.0,7.37,2.0
1758076682.4645,1758076682.31661,0.0,0.0,0.0,-6.99009,-93.6786,54.25911,10.2,3.27,5.54,2.0
1758076682.46568,1758076682.32661,0.0,0.0,0.0,-1.77617,-85.37071,46.06581,10.2,3.27,5.54,2.0
1758076682.48044,1758076682.33661,0.0,0.0,0.0,5.09932,-76.43258,35.3515,10.85,1.36,3.7,2.0
1758076682.48162,1758076682.34661,0.0,0.0,0.0,14.09476,-59.75951,17.36062,10.85,1.36,3.7,2.0
1758076682.50081,1758076682.35661,0.0,0.0,0.0,17.47521,-44.28964,4.64096,12.85,-0.38,2.87,2.0
1758076682.50409,1758076682.36661,0.0,0.0,0.0,18.33465,-27.84575,-6.58902,12.85,-0.38,2.87,2.0
1758076682.51975,1758076682.37661,0.0,0.0,0.0,18.44924,-13.23533,-14.49583,14.04,-1.17,1.39,2.0
1758076682.53554,1758076682.38661,0.0,0.0,0.0,17.53251,7.96411,-19.59516,12.09,-1.12,0.23,2.0
1758076682.53919,1758076682.39661,0.0,0.0,0.0,15.92823,21.37133,-19.53786,12.09,-1.12,0.23,2.0
1758076682.55474,1758076682.40661,0.0,0.0,0.0,14.03747,34.77854,-18.79302,10.36,-0.71,-0.61,2.0
1758076682.55568,1758076682.41661,0.0,0.0,0.0,13.17803,47.61279,-15.46986,10.36,-0.71,-0.61,2.0
1758076682.57178,1758076682.42661,0.0,0.0,0.0,12.83425,66.635,-10.48513,9.44,-0.16,-0.57,2.0
1758076682.57271,1758076682.43661,0.0,0.0,0.0,13.98017,75.57314,-8.02141,9.44,-0.16,-0.57,2.0
1758076682.58832,1758076682.44661,0.0,0.0,0.0,15.35527,82.16215,-6.35983,8.03,0.36,-0.11,2.0
1758076682.60454,1758076682.45661,0.0,0.0,0.0,16.50119,87.66255,-4.69825,8.03,0.36,-0.11,2.0
1758076682.60564,1758076682.46661,0.0,0.0,0.0,17.30333,91.043,-2.11994,7.1,0.61,0.86,2.0
1758076682.62173,1758076682.47661,0.0,0.0,0.0,17.24603,91.50137,0.45837,6.26,0.76,1.21,2.0
1758076682.62463,1758076682.48661,0.0,0.0,0.0,16.3293,90.47005,2.97938,6.26,0.76,1.21,2.0
1758076682.63955,1758076682.49661,0.0,0.0,0.0,15.06879,86.51663,7.67763,5.97,0.78,1.43,2.0
1758076682.65585,1758076682.50661,0.0,0.0,0.0,11.34457,77.12012,10.37054,5.97,0.78,1.43,2.0
1758076682.65792,1758076682.51661,0.0,0.0,0.0,8.36518,69.61437,11.91752,6.16,0.78,1.24,2.0
1758076682.67334,1758076682.52661,0.0,0.0,0.0,4.87014,63.54102,11.86023,6.16,0.78,1.24,2.0
1758076682.67456,1758076682.53661,0.0,0.0,0.0,-1.60428,56.66553,8.02141,7.23,0.9,0.46,2.0
1758076682.68961,1758076682.54661,0.0,0.0,0.0,-5.61499,52.08187,3.60963,8.93,1.17,0.43,2.0
1758076682.70744,1758076682.55661,0.0,0.0,0.0,-10.65701,51.85268,-2.6929,8.93,1.17,0.43,2.0
1758076682.70838,1758076682.56661,0.0,0.0,0.0,-14.61043,48.35764,-8.42248,9.96,1.33,0.92,2.0
1758076682.72446,1758076682.57661,0.0,0.0,0.0,-20.51189,45.14908,-15.58445,9.96,1.33,0.92,2.0
1758076682.7256,1758076682.58661,0.0,0.0,0.0,-23.83505,45.72203,-18.27736,10.45,1.24,1.15,2.0
1758076682.74252,1758076682.59661,0.0,0.0,0.0,-27.04361,44.28964,-19.88164,10.45,1.24,1.15,2.0
1758076682.74338,1758076682.60661,0.0,0.0,0.0,-29.39274,37.01308,-19.25138,10.27,1.08,0.75,2.0
1758076682.75869,1758076682.61661,0.0,0.0,0.0,-30.99702,14.61043,-14.15206,9.28,0.81,0.5,2.0
1758076682.77464,1758076682.62661,0.0,0.0,0.0,-31.28349,-1.94806,-9.62569,9.28,0.81,0.5,2.0
1758076682.77584,1758076682.63661,0.0,0.0,0.0,-31.79916,-16.21471,-4.18259,9.36,0.24,-0.71,2.0
1758076682.79167,1758076682.64661,0.0,0.0,0.0,-32.37212,-25.55392,1.60428,9.36,0.24,-0.71,2.0
1758076682.79285,1758076682.65661,0.0,0.0,0.0,-32.37212,-34.60666,9.39651,10.4,0.0,-1.39,2.0
1758076682.81008,1758076682.66661,0.0,0.0,0.0,-33.74722,-30.30947,13.12073,10.4,0.0,-1.39,2.0
1758076682.8257,1758076682.67661,0.0,0.0,0.0,-34.89313,-15.92823,6.53172,12.2,0.21,-0.24,2.0
1758076682.82728,1758076682.68661,0.0,0.0,0.0,-35.00772,0.68755,6.18794,12.2,0.21,-0.24,2.0
1758076682.84193,1758076682.69661,0.0,0.0,0.0,-35.3515,-17.87628,5.50039,13.24,0.38,-0.17,2.0
1758076682.84293,1758076682.70661,0.0,0.0,0.0,-42.22699,-37.12767,-3.03668,8.95,1.21,0.74,2.0
1758076682.8595,1758076682.71661,0.0,0.0,0.0,-45.26366,-41.59674,-6.8182,8.95,1.21,0.74,2.0
1758076682.87495,1758076682.72661,0.0,0.0,0.0,-49.56085,-51.39432,-13.23533,10.4,1.51,-0.37,2.0
1758076682.87704,1758076682.73661,0.0,0.0,0.0,-51.6235,-48.41494,-15.98552,10.4,1.51,-0.37,2.0
1758076682.89276,1758076682.74661,0.0,0.0,0.0,-52.36834,-44.63341,-17.53251,9.83,1.51,-0.67,2.0
1758076682.8937,1758076682.75661,0.0,0.0,0.0,-49.79003,-47.72739,-18.85031,9.83,1.51,-0.67,2.0
1758076682.90875,1758076682.76661,0.0,0.0,0.0,-40.33623,-74.54182,-22.68913,9.31,0.5,2.57,2.0
1758076682.92494,1758076682.77661,0.0,0.0,0.0,-33.11696,-94.70992,-29.8511,10.06,-1.59,6.49,2.0
1758076682.92703,1758076682.78661,0.0,0.0,0.0,-25.38203,-103.247,-37.58603,10.06,-1.59,6.49,2.0
1758076682.94275,1758076682.79661,0.0,0.0,0.0,-16.38659,-101.41353,-42.85724,13.79,-3.39,6.42,2.0
1758076682.94452,1758076682.80661,0.0,0.0,0.0,-4.46907,-97.11635,-42.28429,13.79,-3.39,6.42,2.0
1758076682.95979,1758076682.81661,0.0,0.0,0.0,0.0,-98.03308,-38.56006,12.37,-3.57,5.68,2.0
1758076682.97597,1758076682.82661,0.0,0.0,0.0,0.57296,-95.56937,-34.14828,12.37,-3.57,5.68,2.0
1758076682.97697,1758076682.83661,0.0,0.0,0.0,-2.92208,-88.57928,-29.33544,10.39,-2.1,3.7,2.0
1758076682.99195,1758076682.84661,0.0,0.0,0.0,-13.5791,-79.64114,-21.37133,10.79,-0.21,2.9,2.0
1758076682.99374,1758076682.85661,0.0,0.0,0.0,-22.00158,-75.91692,-15.12609,10.79,-0.21,2.9,2.0
1758076683.00879,1758076682.86661,0.0,0.0,0.0,-29.27814,-66.5204,-9.22462,12.82,1.13,2.25,2.0
1758076683.02508,1758076682.87661,0.0,0.0,0.0,-35.52338,-51.5662,-4.1253,12.82,1.13,2.25,2.0
1758076683.02675,1758076682.88661,0.0,0.0,0.0,-40.16434,-26.87172,0.74485,14.92,1.64,1.15,2.0
1758076683.04178,1758076682.89661,0.0,0.0,0.0,-41.02378,-13.5791,2.34913,14.92,1.64,1.15,2.0
1758076683.04357,1758076682.90661,0.0,0.0,0.0,-41.08107,-1.48969,2.29183,12.75,1.38,0.4,2.0
1758076683.05779,1758076682.91661,0.0,0.0,0.0,-40.33623,10.31324,1.20321,12.75,1.38,0.4,2.0
1758076683.07512,1758076682.92661,0.0,0.0,0.0,-38.21629,28.01764,0.40107,10.43,0.55,0.07,2.0
1758076683.0768,1758076682.93661,0.0,0.0,0.0,-36.84119,37.87251,0.22918,8.87,-0.35,0.05,2.0
1758076683.09293,1758076682.94661,0.0,0.0,0.0,-36.6693,47.49821,-0.0573,8.87,-0.35,0.05,2.0
1758076683.09383,1758076682.95661,0.0,0.0,0.0,-36.03905,57.58226,-0.85944,7.57,-0.95,0.57,2.0
1758076683.10916,1758076682.96661,0.0,0.0,0.0,-35.63798,62.16592,-2.23454,7.57,-0.95,0.57,2.0
1758076683.12512,1758076682.97661,0.0,0.0,0.0,-34.09099,65.2026,-3.32316,6.31,-1.23,0.79,2.0
1758076683.12608,1758076682.98661,0.0,0.0,0.0,-32.83048,68.98412,-5.4431,6.31,-1.23,0.79,2.0
1758076683.14112,1758076682.99661,0.0,0.0,0.0,-29.56462,73.51049,-8.42248,6.02,-1.38,1.15,2.0
1758076683.14205,1758076683.00661,0.0,0.0,0.0,-26.35606,75.17207,-9.96947,6.03,-1.46,1.53,2.0
1758076683.15779,1758076683.01661,0.0,0.0,0.0,-22.28806,76.89094,-11.34457,6.03,-1.46,1.53,2.0
1758076683.17515,1758076683.02661,0.0,0.0,0.0,-17.81899,75.85962,-12.14671,6.42,-1.66,1.01,2.0
1758076683.17632,1758076683.03661,0.0,0.0,0.0,-11.17268,69.55708,-13.46451,6.42,-1.66,1.01,2.0
1758076683.19114,1758076683.04661,0.0,0.0,0.0,-6.7609,66.74959,-13.98017,7.11,-1.73,0.54,2.0
1758076683.19225,1758076683.05661,0.0,0.0,0.0,-2.23454,66.92148,-13.75099,7.11,-1.73,0.54,2.0
1758076683.20895,1758076683.06661,0.0,0.0,0.0,2.23454,67.09336,-12.54778,8.99,-1.78,0.26,2.0
1758076683.22511,1758076683.07661,0.0,0.0,0.0,9.85487,67.09336,-9.22462,10.12,-1.9,0.54,2.0
1758076683.22609,1758076683.08661,0.0,0.0,0.0,15.69904,65.43179,-5.15662,10.12,-1.9,0.54,2.0
1758076683.24099,1758076683.09661,0.0,0.0,0.0,21.7724,62.91077,-0.40107,10.59,-1.92,0.87,2.0
1758076683.24209,1758076683.10661,0.0,0.0,0.0,27.96034,60.27517,4.64096,10.59,-1.92,0.87,2.0
1758076683.25881,1758076683.11661,0.0,0.0,0.0,36.55471,55.7488,10.8289,10.77,-1.75,0.52,2.0
1758076683.27525,1758076683.12661,0.0,0.0,0.0,41.59674,52.08187,13.46451,10.77,-1.75,0.52,2.0
1758076683.27639,1758076683.13661,0.0,0.0,0.0,46.1231,47.26902,14.61043,10.6,-1.65,0.39,2.0
1758076683.29096,1758076683.14661,0.0,0.0,0.0,51.73809,39.99245,13.5791,10.6,-1.65,0.39,2.0
1758076683.29369,1758076683.15661,0.0,0.0,0.0,54.48829,21.7151,11.97482,10.07,-1.46,0.4,2.0
1758076683.30992,1758076683.16661,0.0,0.0,0.0,55.7488,8.0787,8.70896,9.64,-1.09,-0.08,2.0
1758076683.32679,1758076683.17661,0.0,0.0,0.0,56.49364,-2.86479,4.81285,9.64,-1.09,-0.08,2.0
1758076683.32969,1758076683.18661,0.0,0.0,0.0,54.431,-6.18794,-0.74485,10.79,-0.49,-0.5,2.0
1758076683.34498,1758076683.19661,0.0,0.0,0.0,52.884,-3.26586,-2.40642,10.79,-0.49,-0.5,2.0
1758076683.34621,1758076683.20661,0.0,0.0,0.0,51.22243,-2.11994,-2.97938,11.95,-0.07,-0.15,2.0
1758076683.36102,1758076683.21661,0.0,0.0,0.0,50.13381,3.66693,-0.34377,11.95,-0.07,-0.15,2.0
1758076683.36373,1758076683.22661,0.0,0.0,0.0,45.20637,20.3973,-0.85944,12.54,0.14,0.56,2.0
1758076683.38028,1758076683.23661,0.0,0.0,0.0,42.51347,24.00693,-2.11994,11.67,0.27,0.94,2.0
1758076683.39684,1758076683.24661,0.0,0.0,0.0,43.77398,-3.32316,-2.46372,11.67,0.27,0.94,2.0
1758076683.39846,1758076683.25661,0.0,0.0,0.0,46.46688,-42.28429,0.34377,6.6,0.0,-0.62,2.0
1758076683.41301,1758076683.26661,0.0,0.0,0.0,47.78468,-62.79618,13.80828,6.6,0.0,-0.62,2.0
1758076683.41421,1758076683.27661,0.0,0.0,0.0,44.86259,-58.67088,15.69904,9.59,-1.2,-0.36,2.0
1758076683.42994,1758076683.28661,0.0,0.0,0.0,41.94051,-58.78547,21.94428,9.59,-1.2,-0.36,2.0
1758076683.44712,1758076683.29661,0.0,0.0,0.0,37.81522,-75.63043,29.9084,10.13,-0.62,1.57,2.0
1758076683.45127,1758076683.30661,0.0,0.0,0.0,30.30947,-104.10643,48.30034,10.87,0.52,6.61,2.0
1758076683.46608,1758076683.31661,0.0,0.0,0.0,24.12152,-105.82531,57.63955,10.87,0.52,6.61,2.0
1758076683.46724,1758076683.32661,0.0,0.0,0.0,15.98552,-99.75195,62.33781,13.7,1.66,6.51,2.0
1758076683.48204,1758076683.33661,0.0,0.0,0.0,6.58902,-94.93911,59.81679,13.7,1.66,6.51,2.0
1758076683.4841,1758076683.34661,0.0,0.0,0.0,-3.89611,-93.16295,55.6342,11.49,3.05,6.64,2.0
1758076683.49938,1758076683.35661,0.0,0.0,0.0,-7.62034,-91.38677,49.21708,11.49,3.05,6.64,2.0
1758076683.51546,1758076683.36661,0.0,0.0,0.0,-8.70896,-86.80311,41.94051,9.96,2.78,5.33,2.0
1758076683.51715,1758076683.37661,0.0,0.0,0.0,-5.32851,-71.04677,29.04896,9.96,2.78,5.33,2.0
1758076683.5324,1758076683.38661,0.0,0.0,0.0,-0.57296,-62.05133,20.74107,10.71,1.93,3.89,2.0
1758076683.53331,1758076683.39661,0.0,0.0,0.0,3.66693,-55.34772,12.54778,11.54,0.69,3.09,2.0
1758076683.54926,1758076683.40661,0.0,0.0,0.0,7.04738,-43.65939,4.81285,11.54,0.69,3.09,2.0
1758076683.56539,1758076683.41661,0.0,0.0,0.0,9.68299,-17.93358,-4.87014,13.19,-0.38,1.83,2.0
1758076683.56635,1758076683.42661,0.0,0.0,0.0,10.08406,-2.23454,-9.11003,13.19,-0.38,1.83,2.0
1758076683.5814,1758076683.43661,0.0,0.0,0.0,9.85487,12.2613,-11.17268,12.24,-0.75,0.29,2.0
1758076683.58263,1758076683.44661,0.0,0.0,0.0,8.0787,25.89769,-12.08941,12.24,-0.75,0.29,2.0
1758076683.59818,1758076683.45661,0.0,0.0,0.0,4.98473,44.28964,-13.46451,10.42,-0.53,-0.41,2.0
1758076683.61418,1758076683.46661,0.0,0.0,0.0,4.81285,57.92604,-11.74564,9.4,-0.2,-0.83,2.0
1758076683.61537,1758076683.47661,0.0,0.0,0.0,5.78687,70.58841,-9.4538,9.4,-0.2,-0.83,2.0
1758076683.6302,1758076683.48661,0.0,0.0,0.0,7.67763,78.03686,-7.73493,8.25,0.24,-0.13,2.0
1758076683.6462,1758076683.49661,0.0,0.0,0.0,9.91217,85.08423,-5.55769,8.25,0.24,-0.13,2.0
1758076683.65002,1758076683.50661,0.0,0.0,0.0,11.51645,88.06361,-3.55234,7.28,0.51,0.75,2.0
1758076683.66546,1758076683.51661,0.0,0.0,0.0,12.43318,90.18356,-1.3178,7.28,0.51,0.75,2.0
1758076683.66671,1758076683.52661,0.0,0.0,0.0,12.49048,89.78249,2.06265,6.7,0.86,1.37,2.0
1758076683.6815,1758076683.53661,0.0,0.0,0.0,11.22997,86.51663,7.67763,6.42,1.15,1.85,2.0
1758076683.68321,1758076683.54661,0.0,0.0,0.0,9.22462,83.93832,10.94349,6.42,1.15,1.85,2.0
1758076683.69918,1758076683.55661,0.0,0.0,0.0,5.90147,80.72976,13.17803,6.78,1.47,1.91,2.0
1758076683.71542,1758076683.56661,0.0,0.0,0.0,-0.17189,73.79697,13.98017,6.78,1.47,1.91,2.0
1758076683.71684,1758076683.57661,0.0,0.0,0.0,-5.61499,61.30648,12.14671,6.94,1.81,1.23,2.0
1758076683.73146,1758076683.58661,0.0,0.0,0.0,-11.28727,56.78012,8.59437,6.94,1.81,1.23,2.0
1758076683.7332,1758076683.59661,0.0,0.0,0.0,-17.01685,51.79538,2.40642,8.69,1.98,0.96,2.0
1758076683.74949,1758076683.60661,0.0,0.0,0.0,-26.69983,49.56085,-9.05273,8.69,1.98,0.96,2.0
1758076683.76548,1758076683.61661,0.0,0.0,0.0,-31.62727,47.72739,-15.29797,10.36,1.94,0.73,2.0
1758076683.76731,1758076683.62661,0.0,0.0,0.0,-36.55471,48.41494,-21.48592,11.3,1.66,1.11,2.0
1758076683.7823,1758076683.63661,0.0,0.0,0.0,-40.68,47.38361,-25.26744,11.3,1.66,1.11,2.0
1758076683.78391,1758076683.64661,0.0,0.0,0.0,-46.06581,41.94051,-26.64254,11.2,1.34,0.8,2.0
1758076683.79829,1758076683.65661,0.0,0.0,0.0,-48.24305,32.20023,-24.75178,11.2,1.34,0.8,2.0
1758076683.81429,1758076683.66661,0.0,0.0,0.0,-49.38896,17.81899,-21.60051,10.44,1.04,0.58,2.0
1758076683.81561,1758076683.67661,0.0,0.0,0.0,-49.79003,0.45837,-17.18874,10.44,1.04,0.58,2.0
1758076683.83032,1758076683.68661,0.0,0.0,0.0,-48.9306,-23.94964,-9.39651,9.58,0.58,-0.65,2.0
1758076683.84633,1758076683.69661,0.0,0.0,0.0,-48.07116,-37.75792,-3.32316,9.32,0.15,-1.63,2.0
1758076683.84995,1758076683.70661,0.0,0.0,0.0,-46.2377,-49.84733,2.23454,9.32,0.15,-1.63,2.0
1758076683.86571,1758076683.71661,0.0,0.0,0.0,-45.83662,-53.17049,6.70361,10.06,-0.03,-0.99,2.0
1758076683.87055,1758076683.72661,0.0,0.0,0.0,-43.88857,-20.68378,3.03668,10.06,-0.03,-0.99,2.0
1758076683.88563,1758076683.73661,0.0,0.0,0.0,-40.62271,-8.02141,4.35448,12.83,-0.13,-0.28,2.0
1758076683.88726,1758076683.74661,0.0,0.0,0.0,-27.96034,-48.07116,-1.3178,12.83,-0.13,-0.28,2.0
1758076683.90237,1758076683.75661,0.0,0.0,0.0,-27.33009,-67.43713,-5.72958,7.64,0.22,0.46,2.0
1758076683.90483,1758076683.76661,0.0,0.0,0.0,-53.11319,-58.78547,-7.79223,9.53,0.43,-0.04,2.0
1758076683.91982,1758076683.77661,0.0,0.0,0.0,-56.952,-63.19725,-9.4538,9.53,0.43,-0.04,2.0
1758076683.93564,1758076683.78661,0.0,0.0,0.0,-58.09792,-60.96271,-9.33921,8.2,0.75,-0.92,2.0
1758076683.93896,1758076683.79661,0.0,0.0,0.0,-54.66018,-73.96885,-12.60507,8.2,0.75,-0.92,2.0
1758076683.95438,1758076683.80661,0.0,0.0,0.0,-47.26902,-99.58006,-17.87628,7.6,0.39,5.03,2.0
1758076683.956,1758076683.81661,0.0,0.0,0.0,-39.70598,-127.25394,-31.97105,7.6,0.39,5.03,2.0
1758076683.97037,1758076683.82661,0.0,0.0,0.0,-29.96569,-120.66492,-45.89392,11.12,-1.76,8.45,2.0
1758076683.97314,1758076683.83661,0.0,0.0,0.0,-9.68299,-101.29894,-56.55093,11.12,-1.76,7.41,2.0
1758076683.98968,1758076683.84661,0.0,0.0,0.0,1.66158,-100.32492,-57.86874,16.32,-4.31,7.41,2.0
1758076684.00808,1758076683.85661,0.0,0.0,0.0,10.54242,-97.28824,-53.39967,11.88,-4.47,5.23,2.0
1758076684.01283,1758076683.86661,0.0,0.0,0.0,13.80828,-92.53268,-49.27437,11.88,-4.47,5.23,2.0
1758076684.01317,1758076683.87661,0.0,0.0,0.0,12.204,-82.7924,-35.92446,11.02,-2.31,3.33,2.0
1758076684.03003,1758076683.88661,0.0,0.0,0.0,8.30789,-77.92226,-24.23611,11.02,-2.31,3.33,2.0
1758076684.04544,1758076683.89661,0.0,0.0,0.0,0.51566,-72.88023,-12.49048,11.92,-0.26,2.73,2.0
1758076684.0474,1758076683.90661,0.0,0.0,0.0,18.22006,-90.12627,-1.3751,11.92,-0.26,2.73,2.0
1758076684.0644,1758076683.91661,0.0,0.0,0.0,-4.98473,-30.48136,10.94349,14.79,0.91,1.86,2.0
1758076684.06524,1758076683.92661,0.0,0.0,0.0,-7.21927,-13.80828,15.58445,14.15,1.47,0.54,2.0
1758076684.08073,1758076683.93661,0.0,0.0,0.0,-7.16197,-0.80214,17.18874,14.15,1.47,0.54,2.0
1758076684.09759,1758076683.94661,0.0,0.0,0.0,-6.99009,11.63104,16.90226,11.62,1.02,0.16,2.0
1758076684.09958,1758076683.95661,0.0,0.0,0.0,-5.4431,31.2262,13.86558,11.62,1.02,0.16,2.0
1758076684.11478,1758076683.96661,0.0,0.0,0.0,-4.18259,43.31561,11.45916,10.09,0.02,-0.12,2.0
1758076684.11569,1758076683.97661,0.0,0.0,0.0,-3.49504,54.94666,8.88085,10.09,0.02,-0.12,2.0
1758076684.13154,1758076683.98661,0.0,0.0,0.0,-2.6929,62.96807,4.52637,8.8,-0.81,0.12,2.0
1758076684.13272,1758076683.99661,0.0,0.0,0.0,-2.7502,69.95815,1.14592,7.15,-1.18,0.31,2.0
1758076684.14854,1758076684.00661,0.0,0.0,0.0,-2.34913,73.3386,-1.20321,7.15,-1.18,0.31,2.0
1758076684.16482,1758076684.01661,0.0,0.0,0.0,-1.3751,76.43258,-3.89611,6.56,-1.33,0.76,2.0
1758076684.16569,1758076684.02661,0.0,0.0,0.0,0.80214,78.26604,-7.44845,6.56,-1.33,0.76,2.0
1758076684.18081,1758076684.03661,0.0,0.0,0.0,2.92208,77.86497,-9.11003,6.15,-1.36,1.29,2.0
1758076684.19656,1758076684.04661,0.0,0.0,0.0,5.72958,77.92226,-10.31324,6.15,-1.36,1.29,2.0
1758076684.19771,1758076684.05661,0.0,0.0,0.0,8.93814,77.80767,-10.59972,6.28,-1.37,1.5,2.0
1758076684.21283,1758076684.06661,0.0,0.0,0.0,14.61043,73.10942,-9.05273,6.63,-1.37,1.42,2.0
1758076684.2137,1758076684.07661,0.0,0.0,0.0,18.27736,66.34852,-6.87549,6.63,-1.31,1.42,2.0
1758076684.22849,1758076684.08661,0.0,0.0,0.0,22.05888,60.33246,-4.1253,7.39,-1.26,1.03,2.0
1758076684.24478,1758076684.09661,0.0,0.0,0.0,25.89769,57.63955,-1.03132,7.39,-1.26,1.03,2.0
1758076684.24576,1758076684.10661,0.0,0.0,0.0,32.77319,53.62885,4.46907,9.23,-1.46,0.71,2.0
1758076684.26085,1758076684.11661,0.0,0.0,0.0,38.50277,49.90463,8.76626,9.23,-1.46,0.71,2.0
1758076684.2626,1758076684.12661,0.0,0.0,0.0,44.40423,49.15978,12.49048,10.28,-1.68,0.45,2.0
1758076684.27994,1758076684.13661,0.0,0.0,0.0,49.33167,48.9879,15.29797,10.28,-1.68,0.45,2.0
1758076684.29586,1758076684.14661,0.0,0.0,0.0,55.51962,46.69606,18.27736,11.42,-1.65,0.39,2.0
1758076684.29706,1758076684.15661,0.0,0.0,0.0,58.09792,43.37291,18.56383,11.42,-1.26,0.15,2.0
1758076684.31187,1758076684.16661,0.0,0.0,0.0,59.87409,36.38282,18.16276,11.42,-1.26,0.15,2.0
1758076684.31358,1758076684.17661,0.0,0.0,0.0,59.98868,24.86637,15.06879,10.74,-0.62,-0.1,2.0
1758076684.32895,1758076684.18661,0.0,0.0,0.0,56.78012,6.8182,10.94349,10.74,-0.62,-0.1,2.0
1758076684.34483,1758076684.19661,0.0,0.0,0.0,52.884,2.57831,6.07335,10.85,0.16,-0.74,2.0
1758076684.3467,1758076684.20661,0.0,0.0,0.0,47.95657,7.39116,1.14592,10.85,0.16,-0.74,2.0
1758076684.36167,1758076684.21661,0.0,0.0,0.0,42.1124,8.30789,-2.57831,12.1,0.68,-0.84,2.0
1758076684.36285,1758076684.22661,0.0,0.0,0.0,39.13302,9.39651,-3.26586,11.34,0.84,-0.19,2.0
1758076684.37868,1758076684.23661,0.0,0.0,0.0,36.15364,13.34992,-4.64096,11.34,0.84,-0.19,2.0
1758076684.39491,1758076684.24661,0.0,0.0,0.0,32.54401,17.18874,-5.4431,11.27,0.74,0.47,2.0
1758076684.41336,1758076684.25661,0.0,0.0,0.0,27.96034,18.27736,-6.87549,11.27,0.74,0.47,2.0
1758076684.41361,1758076684.26661,0.0,0.0,0.0,26.69983,1.66158,-9.62569,9.53,0.63,0.29,2.0
1758076684.41382,1758076684.27661,0.0,0.0,0.0,26.41335,-37.12767,-6.8182,9.53,0.63,0.29,2.0
1758076684.42894,1758076684.28661,0.0,0.0,0.0,27.73116,-75.00018,4.0107,5.31,0.01,0.33,2.0
1758076684.44496,1758076684.29661,0.0,0.0,0.0,22.91831,-87.26147,16.61578,9.64,-0.73,2.48,2.0
1758076684.44668,1758076684.30661,0.0,0.0,0.0,17.18874,-94.25156,27.61657,9.64,-0.73,2.48,2.0
1758076684.46194,1758076684.31661,0.0,0.0,0.0,11.74564,-106.79934,43.37291,11.94,0.51,5.42,2.0
1758076684.46291,1758076684.32661,0.0,0.0,0.0,4.52637,-110.40897,55.29043,11.94,0.51,5.42,2.0
1758076684.47999,1758076684.33661,0.0,0.0,0.0,-8.36518,-99.1217,65.37449,13.75,1.33,7.05,2.0
1758076684.49586,1758076684.34661,0.0,0.0,0.0,-16.10011,-94.65263,64.51505,13.75,1.33,7.05,2.0
1758076684.49775,1758076684.35661,0.0,0.0,0.0,-22.63183,-94.99641,60.38975,11.26,1.73,5.87,2.0
1758076684.51502,1758076684.36661,0.0,0.0,0.0,-26.24147,-94.02238,55.00395,11.26,1.73,5.87,2.0
1758076684.51687,1758076684.37661,0.0,0.0,0.0,-28.01764,-84.85506,42.34158,9.24,1.84,4.88,2.0
1758076684.53282,1758076684.38661,0.0,0.0,0.0,-25.49662,-79.18277,33.00237,9.59,1.69,3.94,2.0
1758076684.53374,1758076684.39661,0.0,0.0,0.0,-21.02755,-71.10406,23.89234,9.59,1.69,3.94,2.0
1758076684.5498,1758076684.40661,0.0,0.0,0.0,-13.46451,-61.07731,8.0787,11.37,0.92,3.78,2.0
1758076684.56578,1758076684.4166,0.0,0.0,0.0,-8.42248,-44.57612,-0.97403,11.37,0.92,3.78,2.0
1758076684.56814,1758076684.4266,0.0,0.0,0.0,-4.52637,-27.84575,-8.65166,12.79,-0.06,1.98,2.0
1758076684.58307,1758076684.4366,0.0,0.0,0.0,-1.43239,-11.11538,-13.98017,12.79,-0.06,1.98,2.0
1758076684.58401,1758076684.4466,0.0,0.0,0.0,1.48969,9.33921,-16.67307,12.94,-0.83,0.71,2.0
1758076684.59906,1758076684.4566,0.0,0.0,0.0,1.94806,23.0902,-16.84496,11.21,-0.95,-0.1,2.0
1758076684.61507,1758076684.4666,0.0,0.0,0.0,3.83882,35.40879,-14.43854,11.21,-0.95,-0.1,2.0
1758076684.616,1758076684.4766,0.0,0.0,0.0,5.32851,48.52953,-11.63104,9.85,-0.69,-0.57,2.0
1758076684.63112,1758076684.4866,0.0,0.0,0.0,7.67763,67.78091,-7.21927,9.85,-0.69,-0.57,2.0
1758076684.64684,1758076684.4966,0.0,0.0,0.0,10.8289,78.09415,-3.09397,8.61,-0.32,-0.5,2.0
1758076684.64808,1758076684.5066,0.0,0.0,0.0,13.00614,85.71449,-0.74485,8.61,-0.32,-0.5,2.0
1758076684.66316,1758076684.5166,0.0,0.0,0.0,15.0115,91.38677,2.29183,7.63,0.07,0.56,2.0
1758076684.66431,1758076684.5266,0.0,0.0,0.0,16.61578,96.19962,6.58902,7.0,0.45,1.21,2.0
1758076684.67914,1758076684.5366,0.0,0.0,0.0,16.95955,99.06441,9.4538,7.0,0.45,1.21,2.0
1758076684.69513,1758076684.5466,0.0,0.0,0.0,16.73037,99.75195,13.00614,7.08,0.65,1.44,2.0
1758076684.6969,1758076684.5566,0.0,0.0,0.0,15.12609,97.7466,15.29797,7.08,0.65,1.44,2.0
1758076684.7127,1758076684.5666,0.0,0.0,0.0,12.204,87.37608,18.50654,7.07,0.72,1.61,2.0
1758076684.71394,1758076684.5766,0.0,0.0,0.0,9.62569,77.92226,18.85031,7.07,0.72,1.61,2.0
1758076684.72887,1758076684.5866,0.0,0.0,0.0,6.35983,70.53111,17.99088,7.46,0.96,1.27,2.0
1758076684.74528,1758076684.5966,0.0,0.0,0.0,2.7502,65.08801,14.83961,7.46,0.96,1.27,2.0
1758076684.74611,1758076684.6066,0.0,0.0,0.0,-2.57831,56.60823,6.07335,8.62,1.17,0.94,2.0
1758076684.76279,1758076684.6166,0.0,0.0,0.0,-5.78687,48.8733,-1.3751,9.25,1.17,1.0,2.0
1758076684.76456,1758076684.6266,0.0,0.0,0.0,-10.25595,44.57612,-9.4538,9.25,1.17,1.0,2.0
1758076684.77996,1758076684.6366,0.0,0.0,0.0,-17.30333,38.15899,-18.56383,9.62,1.23,1.15,2.0
1758076684.7967,1758076684.6466,0.0,0.0,0.0,-21.88699,33.51803,-22.51724,9.62,1.23,1.15,2.0
1758076684.79743,1758076684.6566,0.0,0.0,0.0,-26.24147,27.33009,-24.92367,9.42,1.27,0.79,2.0
1758076684.81398,1758076684.6666,0.0,0.0,0.0,-30.65324,18.73572,-26.75713,9.42,1.27,0.79,2.0
1758076684.81514,1758076684.6766,0.0,0.0,0.0,-34.32018,-7.16197,-24.92367,9.07,1.3,0.7,2.0
1758076684.83004,1758076684.6866,0.0,0.0,0.0,-34.43476,-28.07493,-21.42862,8.43,1.18,-0.28,2.0
1758076684.84674,1758076684.6966,0.0,0.0,0.0,-34.43476,-41.76862,-17.13144,8.43,1.18,-0.28,2.0
1758076684.84852,1758076684.7066,0.0,0.0,0.0,-34.09099,-47.32632,-10.59972,10.5,0.73,-0.44,2.0
1758076684.86527,1758076684.7166,0.0,0.0,0.0,-32.25753,-43.02913,-0.17189,10.5,0.73,-0.44,2.0
1758076684.86617,1758076684.7266,0.0,0.0,0.0,-32.42941,-23.66316,-0.80214,13.18,0.43,-0.05,2.0
1758076684.88259,1758076684.7366,0.0,0.0,0.0,-31.91375,-5.4431,1.94806,13.18,0.43,-0.05,2.0
1758076684.88452,1758076684.7466,0.0,0.0,0.0,-31.39809,12.89155,5.4431,14.27,0.16,0.64,2.0
1758076684.90026,1758076684.7566,0.0,0.0,0.0,-33.00237,-27.10091,3.55234,9.5,0.27,1.1,2.0
1758076684.91776,1758076684.7666,0.0,0.0,0.0,-34.14828,-39.87786,2.97938,9.5,0.27,1.1,2.0
1758076684.91853,1758076684.7766,0.0,0.0,0.0,-37.12767,-39.64868,-0.0573,10.36,0.54,-0.35,2.0
1758076684.93405,1758076684.7866,0.0,0.0,0.0,-38.44547,-38.50277,-1.48969,10.36,0.54,-0.35,2.0
1758076684.93523,1758076684.7966,0.0,0.0,0.0,-37.58603,-42.68536,-4.18259,9.15,0.77,-1.33,2.0
1758076684.95037,1758076684.8066,0.0,0.0,0.0,-35.12231,-48.8733,-8.0787,9.15,0.77,-1.33,2.0
1758076684.96713,1758076684.8166,0.0,0.0,0.0,-30.13758,-64.62964,-13.5218,8.77,0.52,3.17,2.0
1758076684.96748,1758076684.8266,0.0,0.0,0.0,-20.3973,-88.98035,-28.99167,8.77,0.52,3.17,2.0
1758076684.98493,1758076684.8366,0.0,0.0,0.0,-13.34992,-99.98115,-40.62271,9.94,-1.11,6.08,2.0
1758076684.98698,1758076684.8466,0.0,0.0,0.0,-4.81285,-90.06896,-47.15443,14.35,-2.98,6.59,2.0
1758076685.00235,1758076684.8566,0.0,0.0,0.0,3.66693,-88.80846,-48.30034,14.35,-2.98,6.59,2.0
1758076685.00406,1758076684.8666,0.0,0.0,0.0,10.31324,-95.51206,-44.23235,10.65,-3.2,5.05,2.0
1758076685.0202,1758076684.8766,0.0,0.0,0.0,10.31324,-96.42879,-40.10705,10.65,-3.2,5.05,2.0
1758076685.0241,1758076684.8866,0.0,0.0,0.0,6.53172,-90.47005,-35.2369,9.19,-2.19,4.18,2.0
1758076685.04036,1758076684.8966,0.0,0.0,0.0,-0.85944,-81.24542,-29.22085,9.19,-2.19,4.18,2.0
1758076685.04128,1758076684.9066,0.0,0.0,0.0,-7.33386,-76.48987,-18.44924,10.55,-0.67,3.2,2.0
1758076685.05958,1758076684.9166,0.0,0.0,0.0,4.52637,-81.36001,-11.00079,12.27,0.64,2.75,2.0
1758076685.07526,1758076684.9266,0.0,0.0,0.0,-10.02676,-71.84892,-4.1253,12.27,0.64,2.75,2.0
1758076685.07795,1758076684.9366,0.0,0.0,0.0,-20.16812,-40.7373,1.3178,14.41,1.35,1.23,2.0
1758076685.09337,1758076684.9466,0.0,0.0,0.0,-20.45459,-18.9649,6.47442,14.41,1.35,1.23,2.0
1758076685.09431,1758076684.9566,0.0,0.0,0.0,-19.42327,-6.7609,7.73493,12.77,1.23,0.4,2.0
1758076685.10995,1758076684.9666,0.0,0.0,0.0,-17.87628,5.15662,8.0787,12.77,1.23,0.4,2.0
1758076685.11166,1758076684.9766,0.0,0.0,0.0,-16.10011,17.36062,8.02141,10.45,0.49,0.27,2.0
1758076685.12992,1758076684.9866,0.0,0.0,0.0,-13.17803,35.2942,7.44845,9.2,-0.4,0.25,2.0
1758076685.13111,1758076684.9966,0.0,0.0,0.0,-12.204,44.86259,6.8182,9.2,-0.4,0.25,2.0
1758076685.14993,1758076685.0066,0.0,0.0,0.0,-11.00079,52.65482,5.32851,7.89,-1.04,0.6,2.0
1758076685.15113,1758076685.0166,0.0,0.0,0.0,-9.68299,57.75415,3.20856,7.89,-1.04,0.6,2.0
1758076685.16992,1758076685.0266,0.0,0.0,0.0,-7.16197,63.88479,-0.11459,7.01,-1.26,0.88,2.0
1758076685.17114,1758076685.0366,0.0,0.0,0.0,-5.50039,68.75494,-2.23454,7.01,-1.26,0.88,2.0
1758076685.18828,1758076685.0466,0.0,0.0,0.0,-3.55234,72.70835,-4.29718,6.98,-1.36,1.22,2.0
1758076685.2042,1758076685.0566,0.0,0.0,0.0,-0.0573,77.75038,-6.8182,6.98,-1.36,1.22,2.0
1758076685.20521,1758076685.0666,0.0,0.0,0.0,3.20856,79.06818,-7.04738,6.94,-1.47,1.15,2.0
1758076685.22021,1758076685.0766,0.0,0.0,0.0,6.47442,77.4639,-8.136,7.11,-1.53,0.63,2.0
1758076685.22496,1758076685.0866,0.0,0.0,0.0,9.85487,75.57314,-8.36518,7.11,-1.53,0.63,2.0
1758076685.24046,1758076685.0966,0.0,0.0,0.0,14.43854,73.10942,-8.25059,8.01,-1.53,0.54,2.0
1758076685.24234,1758076685.1066,0.0,0.0,0.0,17.87628,74.42722,-6.53172,8.01,-1.53,0.54,2.0
1758076685.25918,1758076685.1166,0.0,0.0,0.0,21.7151,77.17742,-4.46907,9.71,-1.48,0.23,2.0
1758076685.27533,1758076685.1266,0.0,0.0,0.0,25.55392,78.7244,-1.3751,9.71,-1.48,0.23,2.0
1758076685.27724,1758076685.1366,0.0,0.0,0.0,31.39809,76.66176,3.83882,10.66,-1.31,0.76,2.0
1758076685.29249,1758076685.1466,0.0,0.0,0.0,35.69527,72.82294,7.50575,10.56,-1.01,0.82,2.0
1758076685.29347,1758076685.1566,0.0,0.0,0.0,39.87786,68.92683,10.31324,10.56,-1.01,0.82,2.0
1758076685.30835,1758076685.1666,0.0,0.0,0.0,43.77398,64.91612,12.204,10.38,-1.02,0.3,2.0
1758076685.32425,1758076685.1766,0.0,0.0,0.0,48.30034,56.32175,12.60507,10.38,-1.02,0.3,2.0
1758076685.3255,1758076685.1866,0.0,0.0,0.0,50.87865,46.63877,11.86023,9.87,-1.18,0.27,2.0
1758076685.34031,1758076685.1966,0.0,0.0,0.0,52.54023,31.79916,10.19865,9.87,-1.18,0.27,2.0
1758076685.34154,1758076685.2066,0.0,0.0,0.0,52.884,17.81899,7.44845,9.03,-1.01,-0.07,2.0
1758076685.3579,1758076685.2166,0.0,0.0,0.0,51.6235,7.62034,1.60428,10.03,-0.48,-0.75,2.0
1758076685.37365,1758076685.2266,0.0,0.0,0.0,50.64947,11.57375,0.22918,10.03,-0.48,-0.75,2.0
1758076685.37454,1758076685.2366,0.0,0.0,0.0,49.15978,11.63104,-0.97403,11.44,-0.05,-0.47,2.0
1758076685.38961,1758076685.2466,0.0,0.0,0.0,47.38361,11.11538,1.03132,11.44,-0.05,-0.47,2.0
1758076685.40565,1758076685.2566,0.0,0.0,0.0,45.03448,18.50654,0.17189,11.75,0.07,0.56,2.0
1758076685.4074,1758076685.2666,0.0,0.0,0.0,42.28429,23.26209,0.97403,11.75,0.07,0.56,2.0
1758076685.42234,1758076685.2766,0.0,0.0,0.0,38.73195,25.15285,-0.45837,11.69,0.3,0.79,2.0
1758076685.42352,1758076685.2866,0.0,0.0,0.0,34.77854,-20.62648,-2.34913,11.69,0.3,0.79,2.0
1758076685.43944,1758076685.2966,0.0,0.0,0.0,38.84654,-58.78547,0.74485,7.57,0.45,-0.14,2.0
1758076685.45564,1758076685.3066,0.0,0.0,0.0,40.7373,-72.99483,10.37054,7.53,-0.44,-1.28,2.0
1758076685.45729,1758076685.3166,0.0,0.0,0.0,37.18496,-64.28587,10.8289,7.53,-0.44,-1.28,2.0
1758076685.47264,1758076685.3266,0.0,0.0,0.0,29.56462,-63.48372,20.79837,11.02,-0.52,0.25,2.0
1758076685.47362,1758076685.3366,0.0,0.0,0.0,21.60051,-90.24085,31.85646,11.02,-0.52,0.25,2.0
1758076685.48837,1758076685.3466,0.0,0.0,0.0,14.49583,-111.4976,49.04519,10.32,1.13,6.25,2.0
1758076685.50457,1758076685.3566,0.0,0.0,0.0,5.09932,-111.84137,61.59297,10.32,1.13,6.25,2.0
1758076685.5056,1758076685.3666,0.0,0.0,0.0,-11.00079,-100.32492,69.67168,14.86,1.8,8.0,2.0
1758076685.52067,1758076685.3766,0.0,0.0,0.0,-20.34,-94.07968,66.92148,12.67,2.62,6.53,2.0
1758076685.52395,1758076685.3866,0.0,0.0,0.0,-26.98631,-93.6786,62.05133,12.67,2.62,6.53,2.0
1758076685.53963,1758076685.3966,0.0,0.0,0.0,-30.30947,-92.4754,55.40502,9.5,2.4,5.62,2.0
1758076685.55565,1758076685.4066,0.0,0.0,0.0,-26.87172,-85.94368,42.34158,9.5,2.4,5.62,2.0
1758076685.5585,1758076685.4166,0.0,0.0,0.0,-20.3973,-77.86497,31.11161,9.49,1.23,4.36,2.0
1758076685.57371,1758076685.4266,0.0,0.0,0.0,-11.80293,-72.07809,20.34,9.49,1.23,4.36,2.0
1758076685.57463,1758076685.4366,0.0,0.0,0.0,-4.46907,-62.79618,8.93814,11.14,-0.05,3.67,2.0
1758076685.58977,1758076685.4466,0.0,0.0,0.0,4.18259,-41.94051,-4.87014,13.48,-1.01,2.75,2.0
1758076685.60581,1758076685.4566,0.0,0.0,0.0,7.96411,-27.10091,-10.8289,13.48,-1.01,2.75,2.0
1758076685.60667,1758076685.4666,0.0,0.0,0.0,10.31324,-13.40721,-13.5218,12.9,-1.28,1.15,2.0
1758076685.6218,1758076685.4766,0.0,0.0,0.0,11.74564,6.7609,-13.06344,12.9,-1.28,1.15,2.0
1758076685.62314,1758076685.4866,0.0,0.0,0.0,11.34457,19.76705,-12.08941,11.05,-1.03,0.1,2.0
1758076685.63747,1758076685.4966,0.0,0.0,0.0,10.94349,32.48671,-11.51645,11.05,-1.03,0.1,2.0
1758076685.65354,1758076685.5066,0.0,0.0,0.0,9.91217,47.38361,-9.62569,9.39,-0.56,-0.6,2.0
1758076685.6547,1758076685.5166,0.0,0.0,0.0,15.0115,64.62964,-5.15662,9.39,-0.56,-0.6,2.0
1758076685.66983,1758076685.5266,0.0,0.0,0.0,18.50654,72.36457,-2.6929,8.14,-0.23,-0.34,2.0
1758076685.68581,1758076685.5366,0.0,0.0,0.0,21.48592,78.7244,-1.08862,6.93,-0.03,0.62,2.0
1758076685.68993,1758076685.5466,0.0,0.0,0.0,24.29341,83.30807,1.43239,6.93,-0.03,0.62,2.0
1758076685.70555,1758076685.5566,0.0,0.0,0.0,26.47065,90.47005,6.35983,6.55,0.21,1.06,2.0
1758076685.707,1758076685.5666,0.0,0.0,0.0,26.35606,92.93376,9.5684,6.55,0.21,1.06,2.0
1758076685.72179,1758076685.5766,0.0,0.0,0.0,25.38203,93.16295,13.80828,6.46,0.3,1.6,2.0
1758076685.723,1758076685.5866,0.0,0.0,0.0,23.0329,93.04835,17.13144,6.46,0.3,1.6,2.0
1758076685.73943,1758076685.5966,0.0,0.0,0.0,18.85031,86.40204,20.16812,6.89,0.44,1.61,2.0
1758076685.75481,1758076685.6066,0.0,0.0,0.0,15.06879,79.18277,21.14215,7.38,0.72,1.33,2.0
1758076685.756,1758076685.6166,0.0,0.0,0.0,10.48513,72.82294,20.16812,7.38,0.72,1.33,2.0
1758076685.77056,1758076685.6266,0.0,0.0,0.0,5.15662,67.78091,16.84496,8.86,1.18,1.1,2.0
1758076685.77256,1758076685.6366,0.0,0.0,0.0,-3.20856,60.38975,8.30789,8.86,1.18,1.1,2.0
1758076685.78851,1758076685.6466,0.0,0.0,0.0,-8.93814,58.55629,1.08862,10.36,1.59,1.08,2.0
1758076685.80484,1758076685.6566,0.0,0.0,0.0,-14.38124,54.48829,-5.55769,10.36,1.59,1.08,2.0
1758076685.80577,1758076685.6666,0.0,0.0,0.0,-20.34,51.6235,-13.98017,10.64,1.81,1.64,2.0
1758076685.82489,1758076685.6766,0.0,0.0,0.0,-28.59059,46.00851,-16.67307,10.34,1.93,1.18,2.0
1758076685.82578,1758076685.6866,0.0,0.0,0.0,-34.60666,37.87251,-18.62113,10.34,1.93,1.18,2.0
1758076685.84219,1758076685.6966,0.0,0.0,0.0,-39.87786,26.01229,-19.53786,9.44,1.79,0.73,2.0
1758076685.84376,1758076685.7066,0.0,0.0,0.0,-45.83662,-2.11994,-18.16276,9.44,1.79,0.73,2.0
1758076685.85953,1758076685.7166,0.0,0.0,0.0,-47.38361,-22.91831,-15.75634,8.58,1.51,-0.54,2.0
1758076685.87618,1758076685.7266,0.0,0.0,0.0,-48.01387,-38.84654,-13.06344,8.58,1.51,-0.54,2.0
1758076685.87764,1758076685.7366,0.0,0.0,0.0,-48.12846,-48.35764,-8.93814,9.15,0.94,-1.64,2.0
1758076685.89261,1758076685.7466,0.0,0.0,0.0,-46.06581,-44.23235,-3.20856,11.5,0.94,-0.5,2.0
1758076685.89383,1758076685.7566,0.0,0.0,0.0,-45.55015,-29.39274,-5.50039,11.5,0.59,-0.5,2.0
1758076685.90858,1758076685.7666,0.0,0.0,0.0,-43.31561,-7.16197,-5.90147,13.2,-0.07,-0.09,2.0
1758076685.92463,1758076685.7766,0.0,0.0,0.0,-39.13302,-15.64175,-2.86479,13.2,-0.07,-0.09,2.0
1758076685.92696,1758076685.7866,0.0,0.0,0.0,-41.88322,-50.1911,-10.48513,8.42,-0.06,0.98,2.0
1758076685.9427,1758076685.7966,0.0,0.0,0.0,-43.54479,-60.27517,-12.89155,8.42,-0.06,0.98,2.0
1758076685.94442,1758076685.8066,0.0,0.0,0.0,-45.72203,-70.47381,-18.27736,8.65,0.33,0.48,2.0
1758076685.95965,1758076685.8166,0.0,0.0,0.0,-43.65939,-75.91692,-22.00158,8.65,0.33,0.48,2.0
1758076685.97675,1758076685.8266,0.0,0.0,0.0,-37.01308,-101.35624,-32.25753,8.5,0.41,1.15,2.0
1758076685.97764,1758076685.8366,0.0,0.0,0.0,-33.80451,-123.30053,-46.1231,9.91,-1.33,7.38,2.0
1758076685.99497,1758076685.8466,0.0,0.0,0.0,-27.50197,-114.53426,-55.06125,9.91,-1.33,7.38,2.0
1758076685.99701,1758076685.8566,0.0,0.0,0.0,-19.19409,-93.44942,-58.49899,16.41,-3.52,6.9,2.0
1758076686.01458,1758076685.8666,0.0,0.0,0.0,-5.84417,-86.91771,-55.06125,16.41,-3.52,6.9,2.0
1758076686.0157,1758076685.8766,0.0,0.0,0.0,0.57296,-87.71984,-48.75871,12.73,-3.95,6.69,2.0
1758076686.03258,1758076685.8866,0.0,0.0,0.0,2.97938,-87.94903,-41.59674,12.73,-3.95,6.69,2.0
1758076686.03355,1758076685.8966,0.0,0.0,0.0,-2.46372,-81.64648,-29.73651,9.91,-2.6,4.03,2.0
1758076686.04874,1758076685.9066,0.0,0.0,0.0,-11.11538,-76.43258,-21.7151,10.72,-0.97,3.29,2.0
1758076686.06499,1758076685.9166,0.0,0.0,0.0,-20.97026,-70.47381,-13.46451,10.72,-0.97,3.29,2.0
1758076686.07026,1758076685.9266,0.0,0.0,0.0,-29.9084,-61.59297,-5.95876,13.83,0.34,3.08,2.0
1758076686.08479,1758076685.9366,0.0,0.0,0.0,-39.87786,-41.36755,1.48969,13.83,0.34,3.08,2.0
1758076686.08706,1758076685.9466,0.0,0.0,0.0,-44.51882,-27.84575,3.20856,15.82,1.53,1.91,2.0
1758076686.10504,1758076685.9566,0.0,0.0,0.0,-46.86795,-15.69904,2.34913,15.82,1.53,1.91,2.0
1758076686.10707,1758076685.9666,0.0,0.0,0.0,-47.49821,-4.58366,0.45837,13.17,1.75,0.55,2.0
1758076686.12176,1758076685.9766,0.0,0.0,0.0,-47.15443,10.54242,-3.09397,10.39,0.92,0.05,2.0
1758076686.12485,1758076685.9866,0.0,0.0,0.0,-46.63877,19.07949,-5.55769,10.39,0.92,0.05,2.0
1758076686.14009,1758076685.9966,0.0,0.0,0.0,-46.1804,27.2155,-7.73493,8.59,-0.16,-0.18,2.0
1758076686.15611,1758076686.0066,0.0,0.0,0.0,-45.72203,33.40344,-9.05273,8.59,-0.16,-0.18,2.0
1758076686.15783,1758076686.0166,0.0,0.0,0.0,-42.39888,41.42485,-9.33921,7.13,-1.13,0.06,2.0
1758076686.17311,1758076686.0266,0.0,0.0,0.0,-38.78925,47.26902,-8.76626,7.13,-1.13,0.06,2.0
1758076686.174,1758076686.0366,0.0,0.0,0.0,-35.00772,51.10783,-7.73493,5.9,-1.75,0.28,2.0
1758076686.18909,1758076686.0466,0.0,0.0,0.0,-30.13758,53.74345,-6.35983,5.9,-1.75,0.28,2.0
1758076686.20513,1758076686.0566,0.0,0.0,0.0,-23.20479,55.7488,-5.21392,4.79,-1.84,0.31,2.0
1758076686.21006,1758076686.0666,0.0,0.0,0.0,-18.56383,55.6342,-5.78687,5.02,-1.9,0.75,2.0
1758076686.22492,1758076686.0766,0.0,0.0,0.0,-13.80828,56.83742,-6.70361,5.02,-1.9,0.75,2.0
1758076686.22605,1758076686.0866,0.0,0.0,0.0,-8.88085,60.04598,-8.65166,6.49,-2.17,0.7,2.0
1758076686.24107,1758076686.0966,0.0,0.0,0.0,-0.34377,63.65561,-9.96947,6.49,-2.17,0.7,2.0
1758076686.24235,1758076686.1066,0.0,0.0,0.0,5.90147,63.88479,-9.91217,7.91,-2.53,1.03,2.0
1758076686.2601,1758076686.1166,0.0,0.0,0.0,11.74564,61.36378,-9.4538,7.91,-2.53,1.03,2.0
1758076686.27698,1758076686.1266,0.0,0.0,0.0,19.19409,55.51962,-7.62034,8.75,-2.48,1.07,2.0
1758076686.27795,1758076686.1366,0.0,0.0,0.0,24.17882,53.68615,-5.61499,9.73,-2.16,0.72,2.0
1758076686.29313,1758076686.1466,0.0,0.0,0.0,28.99167,52.36834,-2.92208,9.73,-2.16,0.72,2.0
1758076686.29406,1758076686.1566,0.0,0.0,0.0,34.0337,50.64947,0.97403,10.42,-1.72,0.44,2.0
1758076686.3092,1758076686.1666,0.0,0.0,0.0,40.96649,51.10783,7.21927,10.42,-1.72,0.44,2.0
1758076686.32526,1758076686.1766,0.0,0.0,0.0,44.57612,50.53488,11.17268,10.92,-1.19,0.34,2.0
1758076686.32665,1758076686.1866,0.0,0.0,0.0,47.61279,47.15443,14.43854,10.92,-1.19,0.34,2.0
1758076686.34126,1758076686.1966,0.0,0.0,0.0,49.21708,39.4768,16.55848,10.68,-0.76,0.5,2.0
1758076686.34213,1758076686.2066,0.0,0.0,0.0,50.64947,24.57989,17.24603,10.3,-0.38,0.37,2.0
1758076686.35798,1758076686.2166,0.0,0.0,0.0,49.90463,10.8862,16.04282,10.3,-0.38,0.37,2.0
1758076686.37397,1758076686.2266,0.0,0.0,0.0,47.95657,1.60428,13.12073,10.26,-0.06,-0.55,2.0
1758076686.37552,1758076686.2366,0.0,0.0,0.0,46.1804,-1.71887,9.4538,10.26,-0.06,-0.55,2.0
1758076686.38997,1758076686.2466,0.0,0.0,0.0,42.57077,11.11538,4.92744,12.01,0.1,-1.22,2.0
1758076686.40703,1758076686.2566,0.0,0.0,0.0,41.08107,16.3293,2.06265,12.01,0.1,-1.22,2.0
1758076686.40797,1758076686.2666,0.0,0.0,0.0,39.87786,18.50654,1.43239,12.47,-0.26,-0.57,2.0
1758076686.42327,1758076686.2766,0.0,0.0,0.0,39.07573,24.98096,-0.40107,12.47,-0.26,-0.57,2.0
1758076686.425,1758076686.2866,0.0,0.0,0.0,35.86716,31.2262,-3.03668,12.69,-0.59,0.39,2.0
1758076686.44004,1758076686.2966,0.0,0.0,0.0,35.06502,28.99167,-5.72958,11.53,-0.73,0.06,2.0
1758076686.45707,1758076686.3066,0.0,0.0,0.0,36.6693,6.53172,-7.16197,11.53,-0.73,0.06,2.0
1758076686.45889,1758076686.3166,0.0,0.0,0.0,40.27893,-25.8404,1.48969,7.62,-0.96,-0.62,2.0
1758076686.47404,1758076686.3266,0.0,0.0,0.0,40.39353,-54.88936,9.74028,7.62,-0.96,-0.62,2.0
1758076686.47522,1758076686.3366,0.0,0.0,0.0,35.75257,-58.4417,15.46986,9.6,-1.99,1.2,2.0
1758076686.49202,1758076686.3466,0.0,0.0,0.0,31.16891,-72.30728,27.67386,9.6,-1.99,1.2,2.0
1758076686.49325,1758076686.3566,0.0,0.0,0.0,24.17882,-104.5648,52.02457,11.27,-0.41,4.11,2.0
1758076686.50808,1758076686.3666,0.0,0.0,0.0,18.33465,-105.08047,65.71826,13.24,1.32,6.76,2.0
1758076686.52428,1758076686.3766,0.0,0.0,0.0,10.59972,-96.14232,72.42187,13.24,1.32,6.76,2.0
1758076686.52529,1758076686.3866,0.0,0.0,0.0,2.23454,-89.6106,71.73432,12.33,2.47,5.29,2.0
1758076686.54039,1758076686.3966,0.0,0.0,0.0,-8.136,-90.87111,64.85883,12.33,2.47,5.29,2.0
1758076686.55637,1758076686.4066,0.0,0.0,0.0,-11.80293,-88.2355,59.12925,8.59,3.07,4.62,2.0
1758076686.55727,1758076686.4166,0.0,0.0,0.0,-13.17803,-82.96429,50.59217,8.59,3.07,4.62,2.0
1758076686.57233,1758076686.4266,0.0,0.0,0.0,-11.00079,-81.07353,41.36755,8.66,2.48,4.6,2.0
1758076686.57353,1758076686.4366,0.0,0.0,0.0,-4.1253,-72.42187,28.07493,10.23,1.54,4.25,2.0
1758076686.58912,1758076686.4466,0.0,0.0,0.0,1.83346,-62.62429,18.85031,10.23,1.54,4.25,2.0
1758076686.60539,1758076686.4566,0.0,0.0,0.0,7.73493,-56.20716,11.45916,12.64,0.26,3.77,2.0
1758076686.60657,1758076686.4666,0.0,0.0,0.0,12.08941,-44.9199,3.66693,12.64,0.26,3.77,2.0
1758076686.62137,1758076686.4766,0.0,0.0,0.0,15.06879,-19.25138,-4.92744,13.74,-0.78,1.51,2.0
1758076686.62294,1758076686.4866,0.0,0.0,0.0,15.46986,-5.4431,-8.25059,13.74,-0.78,1.51,2.0
1758076686.6381,1758076686.4966,0.0,0.0,0.0,15.0115,6.24524,-9.68299,11.81,-1.2,0.33,2.0
1758076686.6541,1758076686.5066,0.0,0.0,0.0,14.03747,18.56383,-10.54242,11.81,-1.2,0.33,2.0
1758076686.65532,1758076686.5166,0.0,0.0,0.0,11.11538,39.3622,-11.91752,10.08,-0.93,-0.09,2.0
1758076686.67012,1758076686.5266,0.0,0.0,0.0,10.65701,51.39432,-11.17268,9.33,-0.42,-0.37,2.0
1758076686.68649,1758076686.5366,0.0,0.0,0.0,10.59972,61.93674,-11.57375,9.33,-0.42,-0.37,2.0
1758076686.68737,1758076686.5466,0.0,0.0,0.0,11.00079,78.15145,-9.62569,8.44,0.17,0.15,2.0
1758076686.70217,1758076686.5566,0.0,0.0,0.0,11.80293,86.05827,-8.30789,8.44,0.17,0.15,2.0
1758076686.70337,1758076686.5666,0.0,0.0,0.0,13.06344,90.69922,-5.78687,7.64,0.5,0.51,2.0
1758076686.71944,1758076686.5766,0.0,0.0,0.0,13.17803,95.97043,-3.60963,7.64,0.5,0.51,2.0
1758076686.73548,1758076686.5866,0.0,0.0,0.0,12.49048,101.92919,0.0,7.31,0.69,0.94,2.0
1758076686.73664,1758076686.5966,0.0,0.0,0.0,11.17268,103.53348,2.92208,7.28,0.84,0.94,2.0
1758076686.75142,1758076686.6066,0.0,0.0,0.0,8.99544,104.45021,5.21392,7.28,0.84,0.94,2.0
1758076686.75316,1758076686.6166,0.0,0.0,0.0,6.47442,101.41353,6.7609,7.53,0.9,1.29,2.0
1758076686.76948,1758076686.6266,0.0,0.0,0.0,2.29183,89.26682,8.136,7.53,0.9,1.29,2.0
1758076686.78547,1758076686.6366,0.0,0.0,0.0,-0.51566,80.95895,7.84952,7.39,0.95,1.4,2.0
1758076686.78637,1758076686.6466,0.0,0.0,0.0,-4.35448,71.84892,6.53172,7.39,0.95,1.4,2.0
1758076686.80124,1758076686.6566,0.0,0.0,0.0,-8.02141,60.38975,3.32316,8.01,0.92,1.65,2.0
1758076686.80317,1758076686.6666,0.0,0.0,0.0,-14.09476,48.52953,-3.66693,8.97,1.02,1.35,2.0
