timeStamp,timeStampAlign,roll,pitch,yaw,gyro_x,gyro_y,gyro_z,acc_x,acc_y,acc_z,flag_num
1758076240.20004,1758076240.10101,0.0,0.0,0.0,-7.21927,31.97105,-20.16812,9.27,1.3,1.57,2.0
1758076240.21604,1758076240.11101,0.0,0.0,0.0,-8.42248,34.37747,-18.44924,9.47,1.22,1.53,2.0
1758076240.21722,1758076240.12101,0.0,0.0,0.0,-8.88085,34.26288,-17.13144,9.3,1.26,1.56,2.0
1758076240.23203,1758076240.13101,0.0,0.0,0.0,-9.28192,32.83048,-15.64175,9.3,1.26,1.56,2.0
1758076240.23325,1758076240.14101,0.0,0.0,0.0,-9.74028,30.65324,-14.38124,9.02,1.28,1.55,2.0
1758076240.24826,1758076240.15101,0.0,0.0,0.0,-10.37054,26.47065,-12.83425,9.02,1.28,1.55,2.0
1758076240.26403,1758076240.16101,0.0,0.0,0.0,-10.94349,23.66316,-12.14671,8.9,1.23,1.45,2.0
1758076240.26524,1758076240.17101,0.0,0.0,0.0,-11.45916,21.25674,-11.91752,8.9,1.23,1.45,2.0
1758076240.28002,1758076240.18101,0.0,0.0,0.0,-12.204,17.13144,-12.2613,8.86,1.18,1.37,2.0
1758076240.29603,1758076240.19101,0.0,0.0,0.0,-12.60507,14.61043,-12.60507,8.9,1.14,1.42,2.0
1758076240.29726,1758076240.20101,0.0,0.0,0.0,-12.89155,12.77696,-13.06344,8.9,1.14,1.42,2.0
1758076240.312,1758076240.21101,0.0,0.0,0.0,-13.23533,11.86023,-13.12073,9.27,1.16,1.44,2.0
1758076240.31325,1758076240.22101,0.0,0.0,0.0,-13.40721,12.204,-12.60507,9.27,1.16,1.44,2.0
1758076240.32806,1758076240.23101,0.0,0.0,0.0,-13.75099,13.00614,-11.91752,9.73,1.24,1.3,2.0
1758076240.34403,1758076240.24101,0.0,0.0,0.0,-14.09476,13.69369,-10.8862,9.73,1.24,1.3,2.0
1758076240.34525,1758076240.25101,0.0,0.0,0.0,-14.83961,14.09476,-9.28192,9.85,1.37,1.29,2.0
1758076240.36032,1758076240.26101,0.0,0.0,0.0,-16.38659,13.75099,-6.53172,9.77,1.44,1.35,2.0
1758076240.37602,1758076240.27101,0.0,0.0,0.0,-17.76169,13.00614,-4.81285,9.77,1.44,1.35,2.0
1758076240.37728,1758076240.28101,0.0,0.0,0.0,-19.48057,12.2613,-3.38045,9.79,1.5,1.49,2.0
1758076240.39195,1758076240.29101,0.0,0.0,0.0,-21.14215,10.59972,-2.23454,9.79,1.5,1.49,2.0
1758076240.3932,1758076240.30101,0.0,0.0,0.0,-23.72045,7.79223,-1.3751,9.8,1.49,1.64,2.0
1758076240.40813,1758076240.31101,0.0,0.0,0.0,-25.55392,6.87549,-1.3751,9.8,1.49,1.64,2.0
1758076240.42402,1758076240.32101,0.0,0.0,0.0,-27.38738,6.8182,-1.43239,10.18,1.52,1.62,2.0
1758076240.42601,1758076240.33101,0.0,0.0,0.0,-29.39274,8.88085,-0.97403,10.18,1.52,1.62,2.0
1758076240.44098,1758076240.34101,0.0,0.0,0.0,-32.77319,10.71431,0.11459,10.92,1.52,1.59,2.0
1758076240.44221,1758076240.35101,0.0,0.0,0.0,-35.3515,9.4538,0.68755,11.34,1.69,1.87,2.0
1758076240.45799,1758076240.36101,0.0,0.0,0.0,-37.29956,6.99009,1.48969,11.34,1.69,1.87,2.0
1758076240.47398,1758076240.37101,0.0,0.0,0.0,-39.64868,2.63561,1.77617,12.04,1.85,2.69,2.0
1758076240.47522,1758076240.38101,0.0,0.0,0.0,-40.10705,2.86479,2.40642,12.04,1.85,2.69,2.0
1758076240.49073,1758076240.39101,0.0,0.0,0.0,-39.76327,16.38659,1.77617,14.03,1.69,3.52,2.0
1758076240.50611,1758076240.40101,0.0,0.0,0.0,-38.84654,31.97105,0.22918,14.03,1.69,3.52,2.0
1758076240.50731,1758076240.41101,0.0,0.0,0.0,-35.98175,41.08107,-2.97938,15.72,0.9,4.35,2.0
1758076240.52212,1758076240.42101,0.0,0.0,0.0,-32.88778,38.27358,-4.18259,14.09,0.13,5.16,2.0
1758076240.52335,1758076240.43101,0.0,0.0,0.0,-29.62192,30.30947,-4.69825,14.09,0.13,5.16,2.0
1758076240.53811,1758076240.44101,0.0,0.0,0.0,-26.12688,22.11617,-4.87014,13.1,-0.3,5.23,2.0
1758076240.55414,1758076240.45101,0.0,0.0,0.0,-20.85567,13.5791,-3.83882,13.1,-0.3,5.23,2.0
1758076240.55568,1758076240.46101,0.0,0.0,0.0,-18.50654,8.59437,-2.11994,12.76,-0.06,5.15,2.0
1758076240.57035,1758076240.47101,0.0,0.0,0.0,-17.30333,5.21392,0.22918,12.76,-0.06,5.15,2.0
1758076240.57319,1758076240.48101,0.0,0.0,0.0,-17.13144,1.60428,3.38045,11.56,0.63,4.79,2.0
1758076240.58915,1758076240.49101,0.0,0.0,0.0,-18.73572,-3.72423,8.02141,9.96,1.23,4.39,2.0
1758076240.60645,1758076240.50101,0.0,0.0,0.0,-20.68378,-8.59437,10.37054,9.96,1.23,4.39,2.0
1758076240.60729,1758076240.51101,0.0,0.0,0.0,-23.26209,-14.32395,11.86023,8.07,1.54,4.61,2.0
1758076240.62249,1758076240.52101,0.0,0.0,0.0,-26.69983,-21.42862,12.37589,8.07,1.54,4.61,2.0
1758076240.62332,1758076240.53101,0.0,0.0,0.0,-32.54401,-31.91375,11.22997,6.51,1.53,4.57,2.0
1758076240.63838,1758076240.54101,0.0,0.0,0.0,-36.55471,-36.95578,9.85487,6.51,1.53,4.57,2.0
1758076240.65439,1758076240.55101,0.0,0.0,0.0,-39.82057,-37.98711,8.88085,5.92,1.29,4.16,2.0
1758076240.65569,1758076240.56101,0.0,0.0,0.0,-43.4875,-37.18496,7.39116,5.92,1.29,4.16,2.0
1758076240.67053,1758076240.57101,0.0,0.0,0.0,-47.15443,-34.60666,6.35983,6.14,0.68,3.91,2.0
1758076240.6864,1758076240.58101,0.0,0.0,0.0,-47.72739,-41.99781,5.95876,5.77,-0.05,4.01,2.0
1758076240.68768,1758076240.59101,0.0,0.0,0.0,-48.58683,-59.87409,4.23989,5.77,-0.05,4.01,2.0
1758076240.70214,1758076240.60101,0.0,0.0,0.0,-48.07116,-70.53111,3.49504,5.67,-0.4,3.76,2.0
1758076240.70335,1758076240.61101,0.0,0.0,0.0,-46.46688,-65.83286,4.64096,5.67,-0.4,3.76,2.0
1758076240.71811,1758076240.62101,0.0,0.0,0.0,-44.23235,-57.63955,6.58902,8.38,-0.87,2.65,2.0
1758076240.73418,1758076240.63101,0.0,0.0,0.0,-41.76862,-49.27437,8.70896,8.38,-0.87,2.65,2.0
1758076240.73538,1758076240.64101,0.0,0.0,0.0,-38.15899,-37.81522,11.91752,8.81,-1.19,3.04,2.0
1758076240.75044,1758076240.65101,0.0,0.0,0.0,-35.92446,-27.44468,13.75099,8.58,-1.22,2.52,2.0
1758076240.7665,1758076240.66101,0.0,0.0,0.0,-33.86181,-16.10011,15.35527,8.58,-1.22,2.52,2.0
1758076240.76739,1758076240.67101,0.0,0.0,0.0,-31.79916,-7.67763,16.84496,8.58,-1.33,2.44,2.0
1758076240.78241,1758076240.68101,0.0,0.0,0.0,-28.59059,0.80214,18.73572,8.58,-1.33,2.44,2.0
1758076240.78368,1758076240.69101,0.0,0.0,0.0,-26.06958,5.78687,20.05352,8.54,-1.42,2.62,2.0
1758076240.79822,1758076240.70101,0.0,0.0,0.0,-23.83505,11.11538,21.31403,8.54,-1.42,2.62,2.0
1758076240.81481,1758076240.71101,0.0,0.0,0.0,-22.00158,16.55848,22.11617,9.19,-1.4,2.5,2.0
1758076240.81544,1758076240.72101,0.0,0.0,0.0,-19.76705,21.6578,22.34536,9.49,-1.25,2.65,2.0
1758076240.83021,1758076240.73101,0.0,0.0,0.0,-18.85031,23.66316,21.7151,9.49,-1.25,2.65,2.0
1758076240.84659,1758076240.74101,0.0,0.0,0.0,-18.10547,25.49662,20.74107,9.52,-0.98,2.74,2.0
1758076240.84738,1758076240.75101,0.0,0.0,0.0,-18.10547,26.87172,19.36597,9.52,-0.98,2.74,2.0
1758076240.86255,1758076240.76101,0.0,0.0,0.0,-19.19409,28.30412,15.75634,9.33,-0.74,2.79,2.0
1758076240.8638,1758076240.77101,0.0,0.0,0.0,-20.45459,29.10626,12.71966,9.33,-0.74,2.79,2.0
1758076240.87825,1758076240.78101,0.0,0.0,0.0,-22.05888,28.99167,9.68299,8.98,-0.45,2.86,2.0
1758076240.89461,1758076240.79101,0.0,0.0,0.0,-23.94964,27.61657,5.09932,8.98,-0.45,2.86,2.0
1758076240.89575,1758076240.80101,0.0,0.0,0.0,-26.69983,25.61122,2.46372,8.61,-0.26,2.84,2.0
1758076240.91047,1758076240.81101,0.0,0.0,0.0,-28.476,23.83505,0.40107,8.56,-0.26,2.77,2.0
1758076240.92652,1758076240.82101,0.0,0.0,0.0,-30.13758,20.79837,-0.97403,8.56,-0.26,2.77,2.0
1758076240.92747,1758076240.83101,0.0,0.0,0.0,-31.51268,15.58445,-1.48969,8.45,-0.42,2.71,2.0
1758076240.94225,1758076240.84101,0.0,0.0,0.0,-31.85646,12.60507,-1.3751,8.45,-0.42,2.71,2.0
1758076240.94346,1758076240.85101,0.0,0.0,0.0,-31.62727,9.28192,-0.80214,8.56,-0.67,2.54,2.0
1758076240.95827,1758076240.86101,0.0,0.0,0.0,-30.82513,5.84417,0.0,8.56,-0.67,2.54,2.0
1758076240.97425,1758076240.87101,0.0,0.0,0.0,-28.87707,0.85944,1.3751,8.52,-0.99,2.48,2.0
1758076240.9754,1758076240.88101,0.0,0.0,0.0,-27.1582,-2.6929,2.29183,8.45,-1.28,2.37,2.0
1758076240.99028,1758076240.89101,0.0,0.0,0.0,-25.26744,-6.58902,3.26586,8.45,-1.28,2.37,2.0
1758076241.00648,1758076240.90101,0.0,0.0,0.0,-23.37668,-10.31324,3.83882,8.46,-1.45,2.29,2.0
1758076241.00823,1758076240.91101,0.0,0.0,0.0,-20.62648,-14.72501,4.58366,8.46,-1.45,2.29,2.0
1758076241.02357,1758076240.92101,0.0,0.0,0.0,-19.19409,-17.30333,4.81285,8.63,-1.47,2.22,2.0
1758076241.02449,1758076240.93101,0.0,0.0,0.0,-17.87628,-19.19409,4.81285,8.63,-1.47,2.22,2.0
1758076241.03957,1758076240.94101,0.0,0.0,0.0,-16.90226,-20.16812,4.52637,8.86,-1.38,2.24,2.0
1758076241.05612,1758076240.95101,0.0,0.0,0.0,-15.75634,-20.68378,3.66693,9.1,-1.24,2.13,2.0
1758076241.05728,1758076240.96101,0.0,0.0,0.0,-15.24068,-20.97026,2.40642,9.1,-1.24,2.13,2.0
1758076241.07216,1758076240.97101,0.0,0.0,0.0,-14.61043,-20.85567,1.20321,9.21,-1.13,2.0,2.0
1758076241.07346,1758076240.98101,0.0,0.0,0.0,-13.98017,-19.76705,0.0,9.21,-1.13,2.0,2.0
1758076241.08859,1758076240.99101,0.0,0.0,0.0,-12.60507,-16.61578,-0.80214,9.43,-1.19,1.84,2.0
1758076241.10433,1758076241.00101,0.0,0.0,0.0,-10.71431,-12.2613,-1.08862,9.43,-1.19,1.84,2.0
1758076241.1055,1758076241.01101,0.0,0.0,0.0,-9.22462,-8.88085,-1.94806,9.79,-1.38,1.69,2.0
1758076241.12058,1758076241.02101,0.0,0.0,0.0,-7.04738,-5.55769,-4.29718,9.79,-1.38,1.69,2.0
1758076241.13632,1758076241.03101,0.0,0.0,0.0,-5.21392,-3.26586,-5.95876,9.57,-1.45,1.57,2.0
1758076241.13755,1758076241.04101,0.0,0.0,0.0,-3.26586,10.37054,-7.16197,10.38,-1.57,1.53,2.0
1758076241.15261,1758076241.05101,0.0,0.0,0.0,-0.51566,31.2262,-8.47978,10.38,-1.57,1.53,2.0
1758076241.15357,1758076241.06101,0.0,0.0,0.0,4.98473,26.87172,-8.25059,10.51,-1.73,1.85,2.0
1758076241.16861,1758076241.07101,0.0,0.0,0.0,8.47978,10.02676,-4.35448,10.51,-1.73,1.85,2.0
1758076241.18432,1758076241.08101,0.0,0.0,0.0,10.02676,0.11459,-1.3178,8.15,-1.97,2.01,2.0
1758076241.18554,1758076241.09101,0.0,0.0,0.0,13.46451,-6.13065,4.87014,8.15,-1.97,2.01,2.0
1758076241.20061,1758076241.10101,0.0,0.0,0.0,16.84496,-3.26586,9.39651,9.94,-2.3,1.22,2.0
1758076241.21662,1758076241.11101,0.0,0.0,0.0,17.36062,-0.0573,8.93814,10.06,-2.33,1.23,2.0
1758076241.21756,1758076241.12101,0.0,0.0,0.0,17.58981,4.52637,7.62034,10.06,-2.33,1.23,2.0
1758076241.23268,1758076241.13101,0.0,0.0,0.0,17.18874,9.22462,4.23989,9.64,-1.93,1.51,2.0
1758076241.23357,1758076241.14101,0.0,0.0,0.0,15.46986,13.5218,-0.80214,9.64,-1.93,1.51,2.0
1758076241.24861,1758076241.15101,0.0,0.0,0.0,13.46451,12.83425,-3.95341,9.31,-1.27,1.64,2.0
1758076241.2644,1758076241.16101,0.0,0.0,0.0,11.11538,11.91752,-5.95876,9.31,-1.27,1.64,2.0
1758076241.26561,1758076241.17101,0.0,0.0,0.0,8.136,12.2613,-7.33386,9.69,-0.81,1.86,2.0
1758076241.28165,1758076241.18101,0.0,0.0,0.0,3.95341,13.06344,-8.30789,10.39,-0.66,1.91,2.0
1758076241.28285,1758076241.19101,0.0,0.0,0.0,1.66158,9.96947,-8.02141,10.39,-0.66,1.91,2.0
1758076241.2984,1758076241.20101,0.0,0.0,0.0,-0.68755,5.21392,-7.16197,10.26,-0.9,1.94,2.0
1758076241.31437,1758076241.21101,0.0,0.0,0.0,-2.29183,1.77617,-4.1253,10.26,-0.9,1.94,2.0
1758076241.31639,1758076241.22101,0.0,0.0,0.0,-5.09932,12.14671,-3.60963,11.3,-1.24,2.22,2.0
1758076241.33244,1758076241.23101,0.0,0.0,0.0,-6.70361,23.37668,-4.81285,11.3,-1.24,2.22,2.0
1758076241.33333,1758076241.24101,0.0,0.0,0.0,-8.0787,28.476,-7.44845,12.4,-1.32,2.7,2.0
1758076241.34866,1758076241.25101,0.0,0.0,0.0,-9.39651,27.50197,-11.34457,12.4,-1.32,2.7,2.0
1758076241.36468,1758076241.26101,0.0,0.0,0.0,-9.68299,26.87172,-13.40721,11.78,-1.12,3.17,2.0
1758076241.36561,1758076241.27101,0.0,0.0,0.0,-9.4538,27.44468,-14.83961,12.19,-1.1,3.15,2.0
1758076241.38042,1758076241.28101,0.0,0.0,0.0,-8.93814,28.64789,-15.92823,12.19,-1.1,3.15,2.0
1758076241.39639,1758076241.29101,0.0,0.0,0.0,-7.73493,32.77319,-16.84496,12.52,-1.35,3.32,2.0
1758076241.39713,1758076241.30101,0.0,0.0,0.0,-6.58902,34.66395,-17.58981,12.52,-1.35,3.32,2.0
1758076241.41281,1758076241.31101,0.0,0.0,0.0,-5.32851,33.40344,-18.10547,12.78,-1.61,3.8,2.0
1758076241.41362,1758076241.32101,0.0,0.0,0.0,-3.55234,30.25217,-18.33465,12.78,-1.61,3.8,2.0
1758076241.42838,1758076241.33101,0.0,0.0,0.0,-1.08862,27.2155,-17.99088,12.82,-1.76,4.0,2.0
1758076241.44441,1758076241.34101,0.0,0.0,0.0,0.51566,25.72581,-17.36062,13.33,-1.79,4.14,2.0
1758076241.44744,1758076241.35101,0.0,0.0,0.0,2.29183,23.66316,-16.67307,13.33,-1.79,4.14,2.0
1758076241.46276,1758076241.36101,0.0,0.0,0.0,3.89611,20.16812,-15.69904,12.98,-1.55,4.32,2.0
1758076241.46364,1758076241.37101,0.0,0.0,0.0,6.41713,15.92823,-15.24068,12.98,-1.55,4.32,2.0
1758076241.47842,1758076241.38101,0.0,0.0,0.0,8.02141,14.15206,-14.66772,12.33,-1.36,4.23,2.0
1758076241.49466,1758076241.39101,0.0,0.0,0.0,9.91217,10.65701,-14.49583,12.33,-1.36,4.23,2.0
1758076241.49563,1758076241.40101,0.0,0.0,0.0,11.51645,6.07335,-14.61043,11.25,-1.16,4.23,2.0
1758076241.51224,1758076241.41101,0.0,0.0,0.0,14.09476,-4.52637,-15.12609,9.64,-0.98,4.06,2.0
1758076241.51322,1758076241.42101,0.0,0.0,0.0,16.04282,-13.5791,-15.0115,9.64,-0.98,4.06,2.0
1758076241.52879,1758076241.43101,0.0,0.0,0.0,18.10547,-22.74642,-14.43854,8.11,-0.73,3.98,2.0
1758076241.53366,1758076241.44101,0.0,0.0,0.0,21.7151,-31.16891,-11.86023,8.11,-0.73,3.98,2.0
1758076241.55136,1758076241.45101,0.0,0.0,0.0,24.57989,-44.23235,-9.11003,6.89,-0.29,3.97,2.0
1758076241.55257,1758076241.46101,0.0,0.0,0.0,27.2155,-52.42564,-6.13065,6.89,-0.29,3.97,2.0
1758076241.56787,1758076241.47101,0.0,0.0,0.0,29.67921,-59.41573,-2.40642,5.96,0.09,3.98,2.0
1758076241.58371,1758076241.48101,0.0,0.0,0.0,32.77319,-66.40582,3.26586,5.96,0.09,3.98,2.0
1758076241.58466,1758076241.49101,0.0,0.0,0.0,34.49206,-67.60902,6.70361,6.12,0.46,3.88,2.0
1758076241.59958,1758076241.50101,0.0,0.0,0.0,35.98175,-64.74423,9.11003,7.25,0.8,3.57,2.0
1758076241.6157,1758076241.51101,0.0,0.0,0.0,36.32552,-59.81679,10.94349,7.25,0.8,3.57,2.0
1758076241.61687,1758076241.52101,0.0,0.0,0.0,36.7266,-48.41494,10.31324,8.62,1.12,3.09,2.0
1758076241.63276,1758076241.53101,0.0,0.0,0.0,36.38282,-40.45082,7.96411,8.62,1.12,3.09,2.0
1758076241.63365,1758076241.54101,0.0,0.0,0.0,35.2942,-32.48671,4.29718,9.26,1.55,2.68,2.0
1758076241.64878,1758076241.55101,0.0,0.0,0.0,33.46074,-24.63719,-0.17189,9.26,1.55,2.68,2.0
1758076241.66572,1758076241.56101,0.0,0.0,0.0,29.9084,-12.89155,-6.87549,9.17,1.9,2.27,2.0
1758076241.66764,1758076241.57101,0.0,0.0,0.0,26.69983,-5.09932,-10.59972,8.83,2.01,2.25,2.0
1758076241.68337,1758076241.58101,0.0,0.0,0.0,23.54857,2.46372,-13.34992,8.83,2.01,2.25,2.0
1758076241.6846,1758076241.59101,0.0,0.0,0.0,19.99623,9.96947,-14.72501,8.62,1.85,2.28,2.0
1758076241.70075,1758076241.60101,0.0,0.0,0.0,14.49583,19.19409,-15.58445,8.62,1.85,2.28,2.0
1758076241.70346,1758076241.61101,0.0,0.0,0.0,11.22997,24.35071,-15.35527,8.45,1.61,2.29,2.0
1758076241.71851,1758076241.62101,0.0,0.0,0.0,8.25059,27.04361,-14.78231,8.45,1.61,2.29,2.0
1758076241.72271,1758076241.63101,0.0,0.0,0.0,5.78687,28.41871,-13.34992,8.24,1.4,2.39,2.0
1758076241.73759,1758076241.64101,0.0,0.0,0.0,3.38045,30.76784,-11.86023,8.31,1.13,2.49,2.0
1758076241.75349,1758076241.65101,0.0,0.0,0.0,2.46372,30.76784,-10.54242,8.31,1.13,2.49,2.0
1758076241.75473,1758076241.66101,0.0,0.0,0.0,2.57831,29.10626,-8.88085,8.06,0.83,2.62,2.0
1758076241.77233,1758076241.67101,0.0,0.0,0.0,3.49504,24.98096,-5.95876,8.06,0.83,2.62,2.0
1758076241.77334,1758076241.68101,0.0,0.0,0.0,4.46907,22.00158,-4.18259,7.86,0.49,2.8,2.0
1758076241.78879,1758076241.69101,0.0,0.0,0.0,5.78687,18.10547,-2.29183,7.86,0.49,2.8,2.0
1758076241.80654,1758076241.70101,0.0,0.0,0.0,7.16197,14.32395,-0.80214,7.78,0.23,2.83,2.0
1758076241.80801,1758076241.71101,0.0,0.0,0.0,8.0787,7.16197,-0.11459,7.78,0.23,2.91,2.0
1758076241.82353,1758076241.72101,0.0,0.0,0.0,8.0787,1.48969,-0.80214,7.81,0.2,2.91,2.0
1758076241.8279,1758076241.73101,0.0,0.0,0.0,7.73493,-3.32316,-1.66158,7.94,0.55,2.75,2.0
1758076241.84383,1758076241.74101,0.0,0.0,0.0,7.10468,-7.50575,-2.6929,7.94,0.55,2.75,2.0
1758076241.8447,1758076241.75101,0.0,0.0,0.0,5.90147,-12.89155,-2.86479,8.24,0.98,2.56,2.0
1758076241.85982,1758076241.76101,0.0,0.0,0.0,5.15662,-16.67307,-2.11994,8.24,0.98,2.56,2.0
1758076241.86235,1758076241.77101,0.0,0.0,0.0,4.29718,-19.59516,-1.03132,8.27,1.09,2.37,2.0
1758076241.87877,1758076241.78101,0.0,0.0,0.0,3.72423,-21.6578,0.34377,8.27,1.09,2.37,2.0
1758076241.89456,1758076241.79101,0.0,0.0,0.0,2.7502,-21.60051,2.11994,8.54,0.95,2.29,2.0
1758076241.89813,1758076241.80101,0.0,0.0,0.0,3.03668,-19.76705,5.61499,8.96,0.79,2.2,2.0
1758076241.91361,1758076241.81101,0.0,0.0,0.0,2.29183,-22.11617,5.15662,8.96,0.79,2.2,2.0
1758076241.91479,1758076241.82101,0.0,0.0,0.0,2.23454,-20.62648,4.69825,9.22,0.7,2.38,2.0
1758076241.93242,1758076241.83101,0.0,0.0,0.0,1.77617,-15.29797,3.03668,9.22,0.7,2.38,2.0
1758076241.93338,1758076241.84101,0.0,0.0,0.0,1.3751,-12.89155,1.14592,9.65,0.74,2.33,2.0
1758076241.94879,1758076241.85101,0.0,0.0,0.0,0.45837,-8.70896,-0.97403,9.65,0.74,2.33,2.0
1758076241.96466,1758076241.86101,0.0,0.0,0.0,-0.74485,-5.09932,-4.58366,9.74,0.86,2.32,2.0
1758076241.96845,1758076241.87101,0.0,0.0,0.0,-2.57831,-4.87014,-6.58902,9.38,1.04,2.14,2.0
1758076241.98384,1758076241.88101,0.0,0.0,0.0,-4.46907,-5.72958,-9.28192,9.38,1.04,2.14,2.0
1758076241.98503,1758076241.89101,0.0,0.0,0.0,-6.07335,-6.18794,-10.02676,9.28,1.21,2.04,2.0
1758076242.0006,1758076241.90101,0.0,0.0,0.0,-8.93814,-6.07335,-10.02676,9.28,1.21,2.04,2.0
1758076242.01902,1758076241.91101,0.0,0.0,0.0,-11.00079,-5.32851,-9.74028,9.54,1.22,1.91,2.0
1758076242.01923,1758076241.92101,0.0,0.0,0.0,-13.34992,-4.0107,-9.33921,9.54,1.22,1.91,2.0
1758076242.03292,1758076241.93101,0.0,0.0,0.0,-15.46986,-2.86479,-9.62569,9.52,1.25,1.79,2.0
1758076242.03386,1758076241.94101,0.0,0.0,0.0,-18.56383,-3.03668,-10.31324,9.21,1.25,1.66,2.0
1758076242.04862,1758076241.95101,0.0,0.0,0.0,-20.62648,-3.26586,-11.57375,9.21,1.3,1.66,2.0
1758076242.06489,1758076241.96101,0.0,0.0,0.0,-22.63183,-5.15662,-12.2613,9.16,1.35,1.62,2.0
1758076242.06585,1758076241.97101,0.0,0.0,0.0,-24.5226,-8.25059,-12.14671,9.16,1.35,1.62,2.0
1758076242.08087,1758076241.98101,0.0,0.0,0.0,-26.24147,-7.67763,-10.8862,9.21,1.16,1.61,2.0
1758076242.08183,1758076241.99101,0.0,0.0,0.0,-27.44468,-6.47442,-8.76626,9.21,1.16,1.61,2.0
1758076242.09717,1758076242.00101,0.0,0.0,0.0,-28.13223,-12.08941,-6.87549,9.41,1.07,1.5,2.0
1758076242.11266,1758076242.01101,0.0,0.0,0.0,-28.24682,-29.56462,-5.4431,9.41,1.07,1.5,2.0
1758076242.11389,1758076242.02101,0.0,0.0,0.0,-29.10626,-8.0787,-8.88085,9.16,1.07,2.28,2.0
1758076242.12862,1758076242.03101,0.0,0.0,0.0,-32.6013,10.8289,-9.39651,12.92,1.13,1.79,2.0
1758076242.14496,1758076242.04101,0.0,0.0,0.0,-34.95043,18.33465,-12.37589,12.92,1.13,1.79,2.0
1758076242.14585,1758076242.05101,0.0,0.0,0.0,-34.77854,7.10468,-14.49583,9.94,1.16,3.03,2.0
1758076242.16144,1758076242.06101,0.0,0.0,0.0,-32.25753,-7.16197,-14.38124,9.94,1.16,3.03,2.0
1758076242.16289,1758076242.07101,0.0,0.0,0.0,-30.25217,-1.83346,-13.34992,9.95,0.72,2.55,2.0
1758076242.17785,1758076242.08101,0.0,0.0,0.0,-28.64789,9.39651,-10.59972,9.95,0.72,2.55,2.0
1758076242.19389,1758076242.09101,0.0,0.0,0.0,-27.38738,22.05888,-6.99009,12.09,0.58,1.85,2.0
1758076242.19486,1758076242.10101,0.0,0.0,0.0,-26.24147,26.41335,-5.09932,12.47,0.6,2.66,2.0
1758076242.21046,1758076242.11101,0.0,0.0,0.0,-25.38203,27.04361,-3.49504,12.47,0.6,2.66,2.0
1758076242.21166,1758076242.12101,0.0,0.0,0.0,-24.29341,25.26744,-2.97938,12.5,0.4,2.35,2.0
1758076242.22803,1758076242.13101,0.0,0.0,0.0,-22.91831,24.80907,-4.1253,12.5,0.4,2.35,2.0
1758076242.24366,1758076242.14101,0.0,0.0,0.0,-21.94428,27.38738,-4.98473,13.27,0.33,2.5,2.0
1758076242.24487,1758076242.15101,0.0,0.0,0.0,-21.08485,29.50733,-5.61499,13.27,0.33,2.5,2.0
1758076242.25972,1758076242.16101,0.0,0.0,0.0,-20.85567,30.53865,-6.41713,13.62,0.5,2.74,2.0
1758076242.27597,1758076242.17101,0.0,0.0,0.0,-21.42862,32.14294,-7.04738,13.18,0.86,2.8,2.0
1758076242.2769,1758076242.18101,0.0,0.0,0.0,-22.34536,31.62727,-7.50575,13.18,0.86,2.8,2.0
1758076242.29247,1758076242.19101,0.0,0.0,0.0,-23.60586,29.9084,-8.02141,12.53,1.09,2.93,2.0
1758076242.29363,1758076242.20101,0.0,0.0,0.0,-24.92367,27.10091,-8.70896,12.53,1.09,2.93,2.0
1758076242.30892,1758076242.21101,0.0,0.0,0.0,-26.75713,21.7151,-9.96947,12.05,1.06,3.15,2.0
1758076242.31066,1758076242.22101,0.0,0.0,0.0,-27.73116,16.95955,-11.17268,12.05,1.06,3.15,2.0
1758076242.32726,1758076242.23101,0.0,0.0,0.0,-28.59059,12.37589,-12.49048,11.47,0.95,3.38,2.0
1758076242.34278,1758076242.24101,0.0,0.0,0.0,-29.27814,8.36518,-13.86558,11.47,0.95,3.38,2.0
1758076242.34432,1758076242.25101,0.0,0.0,0.0,-29.8511,4.1253,-14.66772,10.73,0.88,3.32,2.0
1758076242.35877,1758076242.26101,0.0,0.0,0.0,-30.36677,0.57296,-14.66772,9.72,0.89,3.17,2.0
1758076242.375,1758076242.27101,0.0,0.0,0.0,-30.76784,-2.23454,-13.86558,9.72,0.89,3.17,2.0
1758076242.37836,1758076242.28101,0.0,0.0,0.0,-31.74186,-5.27121,-11.57375,8.79,0.97,2.98,2.0
1758076242.39374,1758076242.29101,0.0,0.0,0.0,-32.77319,-10.65701,-9.68299,8.79,0.97,2.98,2.0
1758076242.39497,1758076242.30101,0.0,0.0,0.0,-33.68992,-14.72501,-7.44845,7.78,0.99,2.95,2.0
1758076242.41096,1758076242.31101,0.0,0.0,0.0,-34.26288,-19.48057,-5.32851,7.78,0.99,2.95,2.0
1758076242.4127,1758076242.32101,0.0,0.0,0.0,-34.95043,-27.04361,-2.06265,7.05,0.95,3.15,2.0
1758076242.42802,1758076242.33101,0.0,0.0,0.0,-35.06502,-32.48671,-0.17189,6.8,0.64,3.25,2.0
1758076242.4438,1758076242.34101,0.0,0.0,0.0,-34.72124,-38.61736,1.20321,6.8,0.64,3.25,2.0
1758076242.44494,1758076242.35101,0.0,0.0,0.0,-34.26288,-43.31561,2.11994,6.8,0.16,3.13,2.0
1758076242.46003,1758076242.36101,0.0,0.0,0.0,-33.40344,-48.70141,2.57831,6.8,0.16,3.13,2.0
1758076242.46292,1758076242.37101,0.0,0.0,0.0,-32.6013,-52.02457,2.11994,7.0,-0.25,2.99,2.0
1758076242.47888,1758076242.38101,0.0,0.0,0.0,-31.79916,-54.71747,1.08862,7.0,-0.25,2.99,2.0
1758076242.48189,1758076242.39101,0.0,0.0,0.0,-30.65324,-55.51962,0.22918,7.16,-0.35,3.04,2.0
1758076242.49796,1758076242.40101,0.0,0.0,0.0,-29.27814,-53.28508,-1.14592,7.73,-0.13,2.68,2.0
1758076242.51376,1758076242.41101,0.0,0.0,0.0,-28.76248,-49.15978,-1.77617,7.73,-0.13,2.68,2.0
1758076242.51659,1758076242.42101,0.0,0.0,0.0,-28.36141,-44.57612,-1.83346,8.29,0.11,2.42,2.0
1758076242.53191,1758076242.43101,0.0,0.0,0.0,-28.13223,-40.96649,-2.34913,8.29,0.11,2.42,2.0
1758076242.53301,1758076242.44101,0.0,0.0,0.0,-27.33009,-31.56997,-2.97938,8.98,-0.02,2.45,2.0
1758076242.54777,1758076242.45101,0.0,0.0,0.0,-26.47065,-24.00693,-2.92208,8.98,-0.02,2.45,2.0
1758076242.56412,1758076242.46101,0.0,0.0,0.0,-25.55392,-17.47521,-2.6929,9.34,-0.14,1.95,2.0
1758076242.56589,1758076242.47101,0.0,0.0,0.0,-24.29341,-11.11538,-2.34913,9.34,-0.14,1.95,2.0
1758076242.58083,1758076242.48101,0.0,0.0,0.0,-22.40265,-1.94806,-1.43239,9.34,-0.33,1.81,2.0
1758076242.58402,1758076242.49101,0.0,0.0,0.0,-20.62648,3.49504,-0.85944,9.56,-0.52,1.75,2.0
1758076242.5988,1758076242.50101,0.0,0.0,0.0,-18.73572,7.44845,-0.0573,9.56,-0.52,1.75,2.0
1758076242.61505,1758076242.51101,0.0,0.0,0.0,-16.10011,14.38124,1.08862,9.69,-0.62,1.77,2.0
1758076242.61686,1758076242.52101,0.0,0.0,0.0,-14.72501,18.27736,1.77617,9.69,-0.62,1.77,2.0
1758076242.63212,1758076242.53101,0.0,0.0,0.0,-14.03747,21.31403,2.46372,9.84,-0.6,1.81,2.0
1758076242.63329,1758076242.54101,0.0,0.0,0.0,-13.75099,23.72045,2.97938,9.84,-0.6,1.81,2.0
1758076242.64783,1758076242.55101,0.0,0.0,0.0,-13.86558,24.80907,3.20856,9.84,-0.43,2.14,2.0
1758076242.6641,1758076242.56101,0.0,0.0,0.0,-14.09476,24.98096,3.55234,9.64,-0.19,2.26,2.0
1758076242.66585,1758076242.57101,0.0,0.0,0.0,-14.72501,24.75178,3.66693,9.64,-0.19,2.26,2.0
1758076242.68197,1758076242.58101,0.0,0.0,0.0,-15.41257,24.00693,3.89611,9.55,-0.03,2.34,2.0
1758076242.68287,1758076242.59101,0.0,0.0,0.0,-16.84496,22.28806,3.26586,9.55,-0.03,2.34,2.0
1758076242.69801,1758076242.60101,0.0,0.0,0.0,-17.53251,20.79837,3.32316,9.44,0.05,2.47,2.0
1758076242.71396,1758076242.61101,0.0,0.0,0.0,-17.47521,19.07949,3.83882,9.44,0.05,2.47,2.0
1758076242.71703,1758076242.62101,0.0,0.0,0.0,-17.47521,15.41257,4.92744,9.2,-0.02,2.54,2.0
1758076242.73223,1758076242.63101,0.0,0.0,0.0,-17.24603,11.11538,7.21927,9.01,-0.29,2.28,2.0
1758076242.73336,1758076242.64101,0.0,0.0,0.0,-17.24603,6.13065,8.76626,9.01,-0.29,2.28,2.0
1758076242.74826,1758076242.65101,0.0,0.0,0.0,-17.53251,-0.97403,10.02676,8.72,-0.43,2.29,2.0
1758076242.76415,1758076242.66101,0.0,0.0,0.0,-17.81899,-7.62034,11.45916,8.72,-0.43,2.29,2.0
1758076242.76533,1758076242.67101,0.0,0.0,0.0,-17.99088,-16.04282,12.83425,8.9,-0.39,2.07,2.0
1758076242.77981,1758076242.68101,0.0,0.0,0.0,-18.27736,-20.22541,13.00614,8.9,-0.39,2.07,2.0
1758076242.78337,1758076242.69101,0.0,0.0,0.0,-18.62113,-24.4653,11.97482,8.9,-0.28,1.9,2.0
1758076242.79888,1758076242.70101,0.0,0.0,0.0,-18.90761,-28.64789,9.96947,8.9,-0.28,1.9,2.0
1758076242.80087,1758076242.71101,0.0,0.0,0.0,-18.73572,-31.85646,8.25059,8.88,-0.2,1.97,2.0
1758076242.8172,1758076242.72101,0.0,0.0,0.0,-17.47521,-31.62727,6.8182,9.27,-0.33,1.77,2.0
1758076242.83395,1758076242.73101,0.0,0.0,0.0,-16.21471,-29.73651,5.15662,9.27,-0.33,1.77,2.0
1758076242.83648,1758076242.74101,0.0,0.0,0.0,-12.43318,-29.27814,4.1253,9.44,-0.68,1.64,2.0
1758076242.85193,1758076242.75101,0.0,0.0,0.0,-10.48513,-28.99167,4.0107,9.44,-0.68,1.64,2.0
1758076242.85338,1758076242.76101,0.0,0.0,0.0,-9.28192,-26.64254,3.60963,9.66,-0.9,1.34,2.0
1758076242.86796,1758076242.77101,0.0,0.0,0.0,-8.36518,-22.91831,3.55234,9.66,-0.9,1.34,2.0
1758076242.8842,1758076242.78101,0.0,0.0,0.0,-6.99009,-15.12609,3.72423,10.15,-0.85,1.04,2.0
1758076242.88508,1758076242.79101,0.0,0.0,0.0,-4.87014,-8.65166,5.61499,10.38,-0.91,1.22,2.0
1758076242.89988,1758076242.80101,0.0,0.0,0.0,-2.29183,-0.80214,7.79223,10.38,-0.91,1.22,2.0
1758076242.90191,1758076242.81101,0.0,0.0,0.0,0.68755,4.0107,10.02676,10.14,-1.14,0.86,2.0
1758076242.91894,1758076242.82101,0.0,0.0,0.0,4.69825,8.47978,11.97482,10.14,-1.14,0.86,2.0
1758076242.93568,1758076242.83101,0.0,0.0,0.0,8.0787,11.74564,12.89155,9.64,-1.35,1.01,2.0
1758076242.9369,1758076242.84101,0.0,0.0,0.0,11.57375,14.66772,13.75099,9.64,-1.35,1.01,2.0
1758076242.95223,1758076242.85101,0.0,0.0,0.0,15.29797,17.76169,14.43854,9.47,-1.58,1.03,2.0
1758076242.95313,1758076242.86101,0.0,0.0,0.0,20.85567,18.56383,15.75634,9.04,-1.84,1.01,2.0
1758076242.9682,1758076242.87101,0.0,0.0,0.0,24.5226,17.87628,17.24603,9.04,-1.84,1.01,2.0
1758076242.98395,1758076242.88101,0.0,0.0,0.0,28.24682,15.06879,19.19409,8.65,-2.06,0.89,2.0
1758076242.98666,1758076242.89101,0.0,0.0,0.0,31.85646,5.50039,21.14215,8.65,-2.06,0.89,2.0
1758076243.004,1758076242.90101,0.0,0.0,0.0,35.40879,-11.80293,19.25138,7.6,-2.07,0.38,2.0
1758076243.00841,1758076242.91101,0.0,0.0,0.0,39.99245,6.87549,18.44924,7.6,-2.07,0.38,2.0
1758076243.0277,1758076242.92101,0.0,0.0,0.0,45.09178,39.24761,17.24603,11.3,-1.96,0.1,2.0
1758076243.03364,1758076242.93101,0.0,0.0,0.0,50.64947,65.43179,13.17803,11.3,-1.96,0.1,2.0
1758076243.03684,1758076242.94101,0.0,0.0,0.0,53.68615,46.75336,10.54242,11.76,-1.79,1.86,2.0
1758076243.05397,1758076242.95101,0.0,0.0,0.0,56.89471,13.06344,10.02676,7.68,-1.33,2.55,2.0
1758076243.05755,1758076242.96101,0.0,0.0,0.0,57.29578,-7.67763,10.48513,7.68,-1.33,2.55,2.0
1758076243.07332,1758076242.97101,0.0,0.0,0.0,57.92604,-20.45459,15.29797,10.72,-1.56,1.3,2.0
1758076243.0742,1758076242.98101,0.0,0.0,0.0,56.37905,-28.64789,15.0115,10.72,-1.56,1.3,2.0
1758076243.08923,1758076242.99101,0.0,0.0,0.0,56.37905,-45.43555,19.36597,10.7,-1.6,1.66,2.0
1758076243.0928,1758076243.00101,0.0,0.0,0.0,55.92068,-42.1124,25.43933,10.7,-1.6,1.66,2.0
1758076243.1083,1758076243.01101,0.0,0.0,0.0,49.90463,-3.49504,23.26209,12.62,-1.39,3.23,2.0
1758076243.12427,1758076243.02101,0.0,0.0,0.0,44.11775,9.74028,16.55848,13.21,-0.26,2.37,2.0
1758076243.1252,1758076243.03101,0.0,0.0,0.0,38.56006,8.99544,9.11003,13.21,-0.26,2.37,2.0
1758076243.14005,1758076243.04101,0.0,0.0,0.0,33.63263,8.99544,1.77617,11.55,0.9,2.69,2.0
1758076243.14365,1758076243.05101,0.0,0.0,0.0,27.73116,20.05352,-6.87549,11.55,0.9,2.69,2.0
1758076243.15903,1758076243.06101,0.0,0.0,0.0,25.15285,23.72045,-9.96947,13.99,1.05,2.37,2.0
1758076243.17529,1758076243.07101,0.0,0.0,0.0,23.60586,24.4653,-9.62569,13.99,1.05,2.37,2.0
1758076243.17702,1758076243.08101,0.0,0.0,0.0,22.23076,28.70519,-6.47442,14.17,-0.06,2.78,2.0
1758076243.19227,1758076243.09101,0.0,0.0,0.0,20.05352,38.56006,0.11459,14.87,-1.35,3.08,2.0
1758076243.19322,1758076243.10101,0.0,0.0,0.0,19.25138,43.20102,4.87014,14.87,-1.35,3.08,2.0
1758076243.20823,1758076243.11101,0.0,0.0,0.0,18.50654,46.86795,9.22462,14.24,-1.86,2.78,2.0
1758076243.2243,1758076243.12101,0.0,0.0,0.0,18.10547,50.64947,13.86558,14.24,-1.86,2.78,2.0
1758076243.22524,1758076243.13101,0.0,0.0,0.0,17.81899,52.19646,15.58445,13.52,-1.49,3.54,2.0
1758076243.2403,1758076243.14101,0.0,0.0,0.0,17.81899,50.64947,16.272,13.52,-1.49,3.54,2.0
1758076243.24361,1758076243.15101,0.0,0.0,0.0,18.22006,48.24305,16.10011,12.21,-0.73,4.1,2.0
1758076243.26008,1758076243.16101,0.0,0.0,0.0,19.59516,42.28429,14.32395,12.21,-0.73,4.1,2.0
1758076243.26287,1758076243.17101,0.0,0.0,0.0,21.14215,36.32552,12.71966,10.77,-0.24,4.42,2.0
1758076243.27898,1758076243.18101,0.0,0.0,0.0,23.49127,29.39274,10.8289,9.04,-0.29,4.27,2.0
1758076243.28255,1758076243.19101,0.0,0.0,0.0,26.01229,21.6578,9.22462,9.04,-0.29,4.27,2.0
1758076243.29806,1758076243.20101,0.0,0.0,0.0,30.59595,10.59972,8.02141,7.85,-0.63,4.14,2.0
1758076243.31444,1758076243.21101,0.0,0.0,0.0,33.74722,4.81285,7.96411,7.85,-0.63,4.14,2.0
1758076243.31695,1758076243.22101,0.0,0.0,0.0,36.7266,-1.3751,8.02141,7.34,-0.78,3.97,2.0
1758076243.33324,1758076243.23101,0.0,0.0,0.0,39.53409,-7.73493,8.42248,7.34,-0.78,3.97,2.0
1758076243.33405,1758076243.24101,0.0,0.0,0.0,43.02913,-15.92823,9.33921,6.76,-0.44,3.84,2.0
1758076243.35134,1758076243.25101,0.0,0.0,0.0,44.57612,-21.02755,9.5684,6.56,0.37,3.66,2.0
1758076243.35298,1758076243.26101,0.0,0.0,0.0,45.26366,-25.38203,9.62569,6.56,0.37,3.66,2.0
1758076243.36841,1758076243.27101,0.0,0.0,0.0,45.43555,-28.07493,9.5684,6.64,1.21,3.36,2.0
1758076243.38508,1758076243.28101,0.0,0.0,0.0,43.83128,-29.10626,8.76626,6.64,1.21,3.36,2.0
1758076243.38821,1758076243.29101,0.0,0.0,0.0,42.22699,-28.476,8.42248,7.18,1.71,3.26,2.0
1758076243.40295,1758076243.30101,0.0,0.0,0.0,40.68,-26.24147,8.136,7.18,1.71,3.26,2.0
1758076243.405,1758076243.31101,0.0,0.0,0.0,39.01843,-21.37133,7.50575,7.9,1.83,3.15,2.0
1758076243.42037,1758076243.32101,0.0,0.0,0.0,36.7266,-12.2613,6.87549,8.52,1.54,3.12,2.0
1758076243.42328,1758076243.33101,0.0,0.0,0.0,35.2369,-7.33386,5.15662,8.52,1.54,3.12,2.0
1758076243.44022,1758076243.34101,0.0,0.0,0.0,33.46074,-2.63561,2.97938,8.51,1.42,2.86,2.0
1758076243.44345,1758076243.35101,0.0,0.0,0.0,31.2262,2.29183,-1.3178,8.51,1.42,2.86,2.0
1758076243.45943,1758076243.36101,0.0,0.0,0.0,29.8511,9.33921,-3.95341,8.69,1.41,2.82,2.0
1758076243.46347,1758076243.37101,0.0,0.0,0.0,28.36141,11.74564,-6.41713,8.69,1.41,2.82,2.0
1758076243.4794,1758076243.38101,0.0,0.0,0.0,26.75713,13.46451,-7.79223,8.35,1.24,2.85,2.0
1758076243.48268,1758076243.39101,0.0,0.0,0.0,23.60586,14.83961,-7.67763,8.35,1.24,2.85,2.0
1758076243.49811,1758076243.40101,0.0,0.0,0.0,22.05888,15.0115,-6.41713,8.16,1.0,2.76,2.0
1758076243.51664,1758076243.41101,0.0,0.0,0.0,20.3973,14.78231,-4.87014,8.28,0.85,2.84,2.0
1758076243.51766,1758076243.42101,0.0,0.0,0.0,19.42327,13.5791,-3.32316,8.28,0.85,2.84,2.0
1758076243.53303,1758076243.43101,0.0,0.0,0.0,18.79302,11.45916,-1.94806,8.45,0.73,2.89,2.0
1758076243.53745,1758076243.44101,0.0,0.0,0.0,18.90761,10.48513,-1.94806,8.45,0.73,2.89,2.0
1758076243.55338,1758076243.45101,0.0,0.0,0.0,19.76705,9.68299,-1.77617,8.62,0.56,2.91,2.0
1758076243.55664,1758076243.46101,0.0,0.0,0.0,21.08485,7.79223,-1.43239,8.62,0.56,2.91,2.0
1758076243.60259,1758076243.47101,0.0,0.0,0.0,23.20479,3.95341,-0.45837,8.47,0.28,2.93,2.0
1758076243.60622,1758076243.48101,0.0,0.0,0.0,24.00693,1.48969,-1.08862,8.34,0.07,2.92,2.0
1758076243.60869,1758076243.49101,0.0,0.0,0.0,24.75178,-0.74485,-2.29183,8.34,0.07,2.92,2.0
1758076243.6137,1758076243.50101,0.0,0.0,0.0,25.09555,-4.23989,-3.55234,8.12,0.18,2.6,2.0
1758076243.61692,1758076243.51101,0.0,0.0,0.0,25.21014,-10.02676,-4.87014,8.12,0.18,2.6,2.0
1758076243.61868,1758076243.52101,0.0,0.0,0.0,24.92367,-13.80828,-5.15662,7.94,0.4,2.47,2.0
1758076243.63413,1758076243.53101,0.0,0.0,0.0,24.35071,-17.58981,-4.58366,7.94,0.4,2.47,2.0
1758076243.6378,1758076243.54101,0.0,0.0,0.0,23.60586,-20.85567,-2.7502,7.96,0.65,2.36,2.0
1758076243.65324,1758076243.55101,0.0,0.0,0.0,22.23076,-25.8404,-1.3178,7.97,0.81,2.26,2.0
1758076243.65705,1758076243.56101,0.0,0.0,0.0,21.37133,-28.36141,-0.0573,7.97,0.81,2.26,2.0
1758076243.67247,1758076243.57101,0.0,0.0,0.0,20.62648,-29.10626,0.74485,8.17,0.9,2.27,2.0
1758076243.67337,1758076243.58101,0.0,0.0,0.0,18.90761,-28.13223,1.3178,8.17,0.9,2.27,2.0
1758076243.68844,1758076243.59101,0.0,0.0,0.0,17.93358,-26.41335,0.22918,8.51,0.95,2.31,2.0
1758076243.69365,1758076243.60101,0.0,0.0,0.0,16.84496,-24.23611,-0.51566,8.51,0.95,2.31,2.0
1758076243.71118,1758076243.61101,0.0,0.0,0.0,15.41257,-21.48592,-2.06265,8.79,1.02,2.23,2.0
1758076243.71401,1758076243.62101,0.0,0.0,0.0,13.00614,-16.67307,-3.83882,8.79,1.02,2.05,2.0
1758076243.72954,1758076243.63101,0.0,0.0,0.0,11.00079,-13.98017,-4.0107,8.92,1.04,2.05,2.0
1758076243.74549,1758076243.64101,0.0,0.0,0.0,8.99544,-11.22997,-3.89611,9.03,1.02,1.95,2.0
1758076243.74881,1758076243.65101,0.0,0.0,0.0,7.10468,-9.33921,-3.32316,9.03,1.02,1.95,2.0
1758076243.76524,1758076243.66101,0.0,0.0,0.0,3.38045,-3.72423,-4.46907,9.43,1.12,1.98,2.0
1758076243.76641,1758076243.67101,0.0,0.0,0.0,0.80214,-2.86479,-5.27121,9.43,1.12,1.98,2.0
1758076243.78206,1758076243.68101,0.0,0.0,0.0,-1.71887,-4.46907,-6.70361,9.14,1.33,1.75,2.0
1758076243.78323,1758076243.691,0.0,0.0,0.0,-4.1253,-5.32851,-7.79223,9.14,1.33,1.75,2.0
1758076243.79813,1758076243.701,0.0,0.0,0.0,-6.47442,-7.73493,-9.91217,9.05,1.38,1.69,2.0
1758076243.81419,1758076243.711,0.0,0.0,0.0,-7.96411,-9.85487,-10.25595,9.21,1.3,1.43,2.0
1758076243.81733,1758076243.721,0.0,0.0,0.0,-11.97482,-8.0787,-15.06879,9.21,1.3,1.43,2.0
1758076243.83311,1758076243.731,0.0,0.0,0.0,-14.66772,-8.02141,-16.90226,9.38,1.38,1.5,2.0
1758076243.83418,1758076243.741,0.0,0.0,0.0,-18.62113,-6.35983,-22.97561,9.38,1.38,1.5,2.0
1758076243.85116,1758076243.751,0.0,0.0,0.0,-20.68378,-6.18794,-25.7831,9.45,1.5,1.16,2.0
1758076243.85483,1758076243.761,0.0,0.0,0.0,-22.63183,-5.95876,-30.02299,9.45,1.5,1.16,2.0
1758076243.87021,1758076243.771,0.0,0.0,0.0,-23.72045,-6.41713,-28.76248,9.51,1.62,1.09,2.0
1758076243.87381,1758076243.781,0.0,0.0,0.0,-22.91831,-9.22462,-24.63719,9.53,1.28,1.18,2.0
1758076243.89108,1758076243.791,0.0,0.0,0.0,-22.57454,-25.49662,-21.37133,9.53,1.28,1.18,2.0
1758076243.8923,1758076243.801,0.0,0.0,0.0,-20.97026,-33.40344,-14.32395,9.64,0.8,2.13,2.0
1758076243.90747,1758076243.811,0.0,0.0,0.0,-16.10011,5.21392,-6.24524,9.64,0.8,2.13,2.0
1758076243.92355,1758076243.821,0.0,0.0,0.0,-15.87093,29.33544,-3.60963,14.82,0.31,1.99,2.0
1758076243.92527,1758076243.831,0.0,0.0,0.0,-19.70975,34.72124,-7.62034,14.82,0.31,1.99,2.0
1758076243.94289,1758076243.841,0.0,0.0,0.0,-22.91831,22.34536,-10.19865,12.84,1.64,2.82,2.0
1758076243.94411,1758076243.851,0.0,0.0,0.0,-21.88699,0.40107,-11.74564,10.89,1.64,3.1,2.0
1758076243.96009,1758076243.861,0.0,0.0,0.0,-22.51724,0.22918,-13.40721,10.89,1.86,3.1,2.0
1758076243.96208,1758076243.871,0.0,0.0,0.0,-23.0902,14.9542,-13.12073,13.52,1.73,3.0,2.0
1758076243.97847,1758076243.881,0.0,0.0,0.0,-23.72045,27.33009,-11.86023,13.52,1.73,3.0,2.0
1758076243.99429,1758076243.891,0.0,0.0,0.0,-25.43933,34.77854,-10.54242,13.66,1.74,3.75,2.0
1758076243.99548,1758076243.901,0.0,0.0,0.0,-26.35606,37.52874,-9.74028,13.66,1.74,3.75,2.0
1758076244.0103,1758076243.911,0.0,0.0,0.0,-26.64254,38.90384,-9.11003,14.0,1.46,4.28,2.0
1758076244.0118,1758076243.921,0.0,0.0,0.0,-26.64254,39.64868,-8.42248,14.0,1.46,4.28,2.0
1758076244.02735,1758076243.931,0.0,0.0,0.0,-26.18417,35.86716,-7.67763,13.86,1.28,3.99,2.0
1758076244.04354,1758076243.941,0.0,0.0,0.0,-26.35606,31.45539,-8.02141,13.05,1.33,3.9,2.0
1758076244.04453,1758076243.951,0.0,0.0,0.0,-26.64254,27.44468,-9.28192,13.05,1.33,3.9,2.0
1758076244.06038,1758076243.961,0.0,0.0,0.0,-27.10091,21.7724,-12.83425,12.45,1.38,4.07,2.0
1758076244.06293,1758076243.971,0.0,0.0,0.0,-28.30412,9.5684,-15.87093,12.45,1.38,4.07,2.0
1758076244.0783,1758076243.981,0.0,0.0,0.0,-29.39274,2.34913,-18.27736,11.34,1.36,4.19,2.0
1758076244.0975,1758076243.991,0.0,0.0,0.0,-30.93972,-4.18259,-19.88164,11.34,1.36,4.19,2.0
1758076244.09872,1758076244.001,0.0,0.0,0.0,-33.86181,-13.34992,-20.16812,10.56,1.28,3.88,2.0
1758076244.1162,1758076244.011,0.0,0.0,0.0,-36.03905,-16.21471,-18.90761,9.8,1.34,3.35,2.0
1758076244.11709,1758076244.021,0.0,0.0,0.0,-38.15899,-17.18874,-16.61578,9.8,1.34,3.35,2.0
1758076244.13261,1758076244.031,0.0,0.0,0.0,-40.04975,-18.79302,-13.40721,8.74,1.35,3.08,2.0
1758076244.13356,1758076244.041,0.0,0.0,0.0,-41.08107,-20.51189,-6.13065,8.74,1.35,3.08,2.0
1758076244.14863,1758076244.051,0.0,0.0,0.0,-41.48215,-24.86637,-0.11459,6.97,1.05,2.92,2.0
1758076244.16466,1758076244.061,0.0,0.0,0.0,-40.7946,-31.51268,5.21392,6.97,1.05,2.92,2.0
1758076244.16556,1758076244.071,0.0,0.0,0.0,-40.27893,-36.32552,9.22462,5.74,0.4,2.78,2.0
1758076244.18046,1758076244.081,0.0,0.0,0.0,-38.73195,-40.7373,11.74564,6.59,-0.36,2.93,2.0
1758076244.18314,1758076244.091,0.0,0.0,0.0,-37.47144,-43.20102,11.45916,6.59,-0.36,2.93,2.0
1758076244.19936,1758076244.101,0.0,0.0,0.0,-35.98175,-45.60744,11.17268,7.07,-0.82,3.03,2.0
1758076244.21535,1758076244.111,0.0,0.0,0.0,-34.60666,-46.69606,10.65701,7.07,-0.82,3.03,2.0
1758076244.21658,1758076244.121,0.0,0.0,0.0,-32.42941,-45.89392,9.33921,7.36,-0.76,2.98,2.0
1758076244.23244,1758076244.131,0.0,0.0,0.0,-31.45539,-44.40423,8.02141,7.36,-0.76,2.98,2.0
1758076244.23336,1758076244.141,0.0,0.0,0.0,-30.48136,-41.36755,6.13065,7.79,-0.58,2.96,2.0
1758076244.24859,1758076244.151,0.0,0.0,0.0,-29.62192,-37.47144,3.89611,7.79,-0.58,2.96,2.0
1758076244.26598,1758076244.161,0.0,0.0,0.0,-29.22085,-30.76784,-1.3178,8.59,-0.62,2.96,2.0
1758076244.26794,1758076244.171,0.0,0.0,0.0,-30.36677,-24.4653,-4.29718,9.34,-0.5,2.49,2.0
1758076244.2837,1758076244.181,0.0,0.0,0.0,-28.59059,-17.76169,-4.87014,9.34,-0.5,2.49,2.0
1758076244.28501,1758076244.191,0.0,0.0,0.0,-25.7831,-11.80293,-4.58366,9.23,-0.47,2.4,2.0
1758076244.30019,1758076244.201,0.0,0.0,0.0,-23.20479,-4.46907,-3.49504,9.23,-0.47,2.4,2.0
1758076244.30294,1758076244.211,0.0,0.0,0.0,-20.68378,-0.22918,-1.83346,9.08,-0.75,2.37,2.0
1758076244.31841,1758076244.221,0.0,0.0,0.0,-17.58981,4.0107,0.34377,9.08,-0.75,2.37,2.0
1758076244.33618,1758076244.231,0.0,0.0,0.0,-13.17803,10.19865,3.49504,9.22,-1.05,2.28,2.0
1758076244.33712,1758076244.241,0.0,0.0,0.0,-10.08406,13.40721,5.72958,9.19,-1.1,2.27,2.0
1758076244.35348,1758076244.251,0.0,0.0,0.0,-7.21927,15.58445,6.8182,9.19,-1.1,2.27,2.0
1758076244.35675,1758076244.261,0.0,0.0,0.0,-4.46907,16.84496,7.73493,9.06,-1.03,2.33,2.0
1758076244.3735,1758076244.271,0.0,0.0,0.0,-0.68755,18.27736,8.88085,9.06,-1.03,2.33,2.0
1758076244.37834,1758076244.281,0.0,0.0,0.0,1.20321,18.44924,9.62569,9.02,-0.9,2.4,2.0
1758076244.39363,1758076244.291,0.0,0.0,0.0,2.11994,18.16276,10.54242,9.02,-0.9,2.4,2.0
1758076244.3973,1758076244.301,0.0,0.0,0.0,2.40642,19.48057,10.37054,8.97,-0.7,2.44,2.0
1758076244.41318,1758076244.311,0.0,0.0,0.0,2.6929,16.10011,10.71431,8.81,-0.43,2.7,2.0
1758076244.41717,1758076244.321,0.0,0.0,0.0,3.03668,14.15206,11.22997,8.81,-0.43,2.7,2.0
1758076244.43244,1758076244.331,0.0,0.0,0.0,3.09397,11.17268,12.60507,8.75,-0.36,2.81,2.0
1758076244.43365,1758076244.341,0.0,0.0,0.0,3.09397,8.136,14.15206,8.75,-0.36,2.81,2.0
1758076244.44832,1758076244.351,0.0,0.0,0.0,2.11994,1.66158,16.272,8.52,-0.42,2.57,2.0
1758076244.46566,1758076244.361,0.0,0.0,0.0,1.08862,-3.26586,17.01685,8.52,-0.42,2.57,2.0
1758076244.46749,1758076244.371,0.0,0.0,0.0,0.22918,-8.0787,17.24603,8.38,-0.41,2.6,2.0
1758076244.48374,1758076244.381,0.0,0.0,0.0,-0.80214,-11.80293,16.04282,8.38,-0.41,2.6,2.0
1758076244.48603,1758076244.391,0.0,0.0,0.0,-2.40642,-16.10011,13.00614,8.59,-0.3,2.39,2.0
1758076244.50225,1758076244.401,0.0,0.0,0.0,-3.20856,-18.79302,10.37054,8.72,-0.23,2.29,2.0
1758076244.50503,1758076244.411,0.0,0.0,0.0,-3.83882,-20.79837,7.96411,8.72,-0.23,2.29,2.0
1758076244.52149,1758076244.421,0.0,0.0,0.0,-4.46907,-23.60586,4.69825,8.88,-0.21,2.19,2.0
1758076244.52353,1758076244.431,0.0,0.0,0.0,-4.64096,-25.49662,3.49504,8.88,-0.21,2.19,2.0
1758076244.53873,1758076244.441,0.0,0.0,0.0,-4.46907,-25.61122,3.26586,8.98,-0.23,1.98,2.0
1758076244.55646,1758076244.451,0.0,0.0,0.0,-3.66693,-24.98096,3.83882,8.98,-0.23,1.98,2.0
1758076244.55909,1758076244.461,0.0,0.0,0.0,-2.00535,-22.11617,5.61499,9.27,-0.36,1.77,2.0
1758076244.57579,1758076244.471,0.0,0.0,0.0,-0.51566,-19.48057,7.10468,9.42,-0.6,1.68,2.0
1758076244.57821,1758076244.481,0.0,0.0,0.0,1.08862,-16.95955,8.30789,9.42,-0.6,1.68,2.0
1758076244.59359,1758076244.491,0.0,0.0,0.0,2.86479,-13.98017,9.11003,9.45,-0.77,1.63,2.0
1758076244.59636,1758076244.501,0.0,0.0,0.0,5.4431,-7.50575,9.11003,9.45,-0.77,1.63,2.0
1758076244.61177,1758076244.511,0.0,0.0,0.0,7.79223,-2.40642,9.62569,9.77,-0.93,1.7,2.0
1758076244.61354,1758076244.521,0.0,0.0,0.0,10.54242,2.34913,10.65701,9.77,-0.93,1.7,2.0
1758076244.62876,1758076244.531,0.0,0.0,0.0,13.75099,6.70361,12.83425,9.95,-1.08,1.8,2.0
1758076244.64558,1758076244.541,0.0,0.0,0.0,18.85031,13.00614,15.92823,9.77,-1.17,1.4,2.0
1758076244.64666,1758076244.551,0.0,0.0,0.0,22.00158,19.53786,17.6471,9.77,-1.17,1.4,2.0
1758076244.66279,1758076244.561,0.0,0.0,0.0,25.15285,26.06958,19.48057,9.95,-1.08,1.41,2.0
1758076244.66398,1758076244.571,0.0,0.0,0.0,28.24682,30.53865,21.14215,9.95,-1.08,1.41,2.0
1758076244.67852,1758076244.581,0.0,0.0,0.0,32.25753,33.05967,22.97561,9.37,-0.95,1.52,2.0
1758076244.69478,1758076244.591,0.0,0.0,0.0,34.72124,33.17426,23.66316,9.37,-0.95,1.52,2.0
1758076244.69732,1758076244.601,0.0,0.0,0.0,37.47144,32.83048,24.80907,8.95,-1.02,1.57,2.0
1758076244.71254,1758076244.611,0.0,0.0,0.0,40.45082,32.08564,26.35606,8.95,-1.02,1.57,2.0
1758076244.71368,1758076244.621,0.0,0.0,0.0,42.74266,28.13223,27.61657,8.78,-1.22,1.46,2.0
1758076244.72879,1758076244.631,0.0,0.0,0.0,44.23235,19.36597,29.04896,8.26,-1.46,1.29,2.0
1758076244.74589,1758076244.641,0.0,0.0,0.0,44.8053,7.16197,28.476,8.26,-1.46,1.29,2.0
1758076244.74675,1758076244.651,0.0,0.0,0.0,45.14908,33.68992,27.44468,9.1,-1.45,1.13,2.0
1758076244.76277,1758076244.661,0.0,0.0,0.0,47.09713,70.24463,27.04361,9.1,-1.45,1.13,2.0
1758076244.76375,1758076244.671,0.0,0.0,0.0,50.64947,86.68852,26.06958,13.32,-1.64,1.39,2.0
1758076244.77847,1758076244.681,0.0,0.0,0.0,50.47758,61.02001,22.74642,13.32,-1.64,1.39,2.0
1758076244.79454,1758076244.691,0.0,0.0,0.0,55.11855,1.20321,28.87707,7.14,-1.3,3.62,2.0
1758076244.79655,1758076244.701,0.0,0.0,0.0,56.83742,-8.136,30.99702,10.53,-1.61,3.01,2.0
1758076244.81264,1758076244.711,0.0,0.0,0.0,57.63955,-2.86479,32.88778,10.53,-1.61,3.01,2.0
1758076244.81348,1758076244.721,0.0,0.0,0.0,57.52497,1.48969,31.62727,12.69,-1.54,1.59,2.0
1758076244.82884,1758076244.731,0.0,0.0,0.0,54.60288,-18.50654,27.38738,12.69,-1.54,1.59,2.0
1758076244.83376,1758076244.741,0.0,0.0,0.0,52.884,-18.90761,26.18417,10.43,-1.26,3.59,2.0
1758076244.85155,1758076244.751,0.0,0.0,0.0,49.15978,-3.26586,20.62648,10.43,-1.26,3.59,2.0
1758076244.85273,1758076244.761,0.0,0.0,0.0,44.17505,8.47978,12.71966,13.6,-0.58,3.49,2.0
1758076244.86748,1758076244.771,0.0,0.0,0.0,37.47144,14.38124,1.94806,12.93,0.48,3.14,2.0
1758076244.88372,1758076244.781,0.0,0.0,0.0,33.51803,21.7724,-3.72423,12.93,0.48,3.14,2.0
1758076244.88805,1758076244.791,0.0,0.0,0.0,30.25217,31.28349,-7.62034,14.74,0.96,3.86,2.0
1758076244.9037,1758076244.801,0.0,0.0,0.0,28.07493,35.69527,-9.11003,14.74,0.96,3.86,2.0
1758076244.90753,1758076244.811,0.0,0.0,0.0,26.69983,32.37212,-7.16197,14.04,0.45,3.99,2.0
1758076244.92291,1758076244.821,0.0,0.0,0.0,26.52795,32.42941,-3.49504,14.04,0.45,3.99,2.0
1758076244.92408,1758076244.831,0.0,0.0,0.0,27.44468,33.00237,1.48969,13.84,-0.58,4.41,2.0
1758076244.93862,1758076244.841,0.0,0.0,0.0,30.13758,26.75713,9.28192,13.84,-0.58,4.41,2.0
1758076244.95458,1758076244.851,0.0,0.0,0.0,32.71589,20.45459,14.15206,13.02,-1.57,4.67,2.0
1758076244.95661,1758076244.861,0.0,0.0,0.0,35.58068,17.36062,18.27736,12.32,-2.09,4.91,2.0
1758076244.97185,1758076244.871,0.0,0.0,0.0,38.61736,15.58445,21.08485,12.32,-2.09,4.91,2.0
1758076244.97757,1758076244.881,0.0,0.0,0.0,43.14373,9.4538,22.23076,11.28,-1.88,4.76,2.0
1758076244.99285,1758076244.891,0.0,0.0,0.0,45.77933,4.1253,21.7724,11.28,-1.88,4.76,2.0
1758076244.99384,1758076244.901,0.0,0.0,0.0,48.12846,-1.48969,20.97026,9.66,-1.38,4.17,2.0
1758076245.0088,1758076244.911,0.0,0.0,0.0,50.1911,-6.87549,19.76705,9.66,-1.38,4.17,2.0
1758076245.01414,1758076244.921,0.0,0.0,0.0,52.08187,-15.46986,17.99088,8.17,-0.94,3.64,2.0
1758076245.02893,1758076244.931,0.0,0.0,0.0,52.65482,-24.63719,16.61578,6.35,-0.55,3.5,2.0
1758076245.03389,1758076244.941,0.0,0.0,0.0,52.71212,-33.74722,15.58445,6.35,-0.55,3.5,2.0
1758076245.04852,1758076244.951,0.0,0.0,0.0,51.90998,-41.08107,14.72501,5.39,-0.01,3.34,2.0
1758076245.06682,1758076244.961,0.0,0.0,0.0,49.50356,-51.50891,13.98017,5.39,-0.01,3.34,2.0
1758076245.06768,1758076244.971,0.0,0.0,0.0,47.26902,-57.52497,13.46451,5.37,0.73,3.44,2.0
1758076245.08266,1758076244.981,0.0,0.0,0.0,44.46153,-61.93674,13.06344,5.37,0.73,3.44,2.0
1758076245.08385,1758076244.991,0.0,0.0,0.0,40.96649,-62.85347,12.77696,5.95,1.43,3.24,2.0
1758076245.09863,1758076245.001,0.0,0.0,0.0,35.75257,-58.21251,11.97482,7.1,1.69,3.09,2.0
1758076245.1159,1758076245.011,0.0,0.0,0.0,32.20023,-51.79538,10.48513,7.1,1.69,3.09,2.0
1758076245.11687,1758076245.021,0.0,0.0,0.0,28.99167,-45.20637,8.88085,8.01,1.52,2.94,2.0
1758076245.13193,1758076245.031,0.0,0.0,0.0,26.12688,-38.15899,5.15662,8.01,1.52,2.94,2.0
1758076245.13312,1758076245.041,0.0,0.0,0.0,22.40265,-27.04361,2.46372,8.65,1.21,2.73,2.0
1758076245.14792,1758076245.051,0.0,0.0,0.0,20.62648,-18.90761,0.11459,8.65,1.21,2.73,2.0
1758076245.16393,1758076245.061,0.0,0.0,0.0,18.44924,-13.46451,-2.6929,9.03,0.84,2.46,2.0
1758076245.16489,1758076245.071,0.0,0.0,0.0,15.87093,0.22918,-6.99009,9.03,0.84,2.46,2.0
1758076245.17995,1758076245.081,0.0,0.0,0.0,13.98017,8.59437,-9.68299,9.42,0.69,2.29,2.0
1758076245.19557,1758076245.091,0.0,0.0,0.0,12.14671,14.43854,-12.54778,9.2,0.6,2.38,2.0
1758076245.19682,1758076245.101,0.0,0.0,0.0,10.71431,19.76705,-14.78231,9.2,0.6,2.38,2.0
1758076245.21171,1758076245.111,0.0,0.0,0.0,9.4538,24.92367,-17.13144,9.02,0.5,2.47,2.0
1758076245.21291,1758076245.121,0.0,0.0,0.0,8.88085,26.52795,-16.90226,9.02,0.5,2.47,2.0
1758076245.22769,1758076245.131,0.0,0.0,0.0,8.88085,26.98631,-16.272,8.85,0.37,2.6,2.0
1758076245.24394,1758076245.141,0.0,0.0,0.0,9.68299,26.52795,-14.49583,8.85,0.37,2.6,2.0
1758076245.24566,1758076245.151,0.0,0.0,0.0,12.08941,23.66316,-11.28727,8.82,0.21,2.76,2.0
1758076245.26074,1758076245.161,0.0,0.0,0.0,13.06344,23.37668,-9.4538,8.93,0.07,3.0,2.0
1758076245.26426,1758076245.171,0.0,0.0,0.0,13.5791,21.7151,-8.59437,8.93,0.07,3.0,2.0
1758076245.28098,1758076245.181,0.0,0.0,0.0,13.98017,18.56383,-8.42248,8.53,0.14,2.81,2.0
1758076245.28431,1758076245.191,0.0,0.0,0.0,14.32395,10.8862,-8.88085,8.53,0.14,2.81,2.0
1758076245.29971,1758076245.201,0.0,0.0,0.0,14.49583,4.69825,-8.99544,8.09,0.17,2.85,2.0
1758076245.31591,1758076245.211,0.0,0.0,0.0,15.0115,-1.43239,-8.65166,8.09,0.17,2.85,2.0
1758076245.31765,1758076245.221,0.0,0.0,0.0,15.35527,-7.44845,-7.62034,8.09,0.19,2.79,2.0
1758076245.33274,1758076245.231,0.0,0.0,0.0,16.10011,-16.50119,-5.27121,8.18,0.19,2.76,2.0
1758076245.33388,1758076245.241,0.0,0.0,0.0,16.73037,-22.05888,-3.60963,8.18,0.19,2.76,2.0
1758076245.35073,1758076245.251,0.0,0.0,0.0,17.24603,-26.01229,-1.94806,8.37,0.24,2.76,2.0
1758076245.35192,1758076245.261,0.0,0.0,0.0,17.76169,-29.96569,-0.34377,8.37,0.24,2.76,2.0
1758076245.368,1758076245.271,0.0,0.0,0.0,17.58981,-30.48136,0.11459,8.66,0.33,2.62,2.0
1758076245.38402,1758076245.281,0.0,0.0,0.0,17.13144,-26.01229,0.85944,8.66,0.33,2.62,2.0
1758076245.38522,1758076245.291,0.0,0.0,0.0,16.272,-26.52795,1.20321,9.06,0.42,2.47,2.0
1758076245.39979,1758076245.301,0.0,0.0,0.0,14.32395,-27.1582,-0.51566,9.06,0.42,2.47,2.0
1758076245.40368,1758076245.311,0.0,0.0,0.0,13.12073,-23.31938,-2.86479,8.81,0.61,2.2,2.0
1758076245.42267,1758076245.321,0.0,0.0,0.0,11.57375,-19.76705,-4.69825,9.4,0.77,2.03,2.0
1758076245.42389,1758076245.331,0.0,0.0,0.0,10.31324,-17.81899,-6.13065,9.4,0.77,2.03,2.0
1758076245.43885,1758076245.341,0.0,0.0,0.0,8.25059,-13.00614,-6.47442,9.25,0.83,1.83,2.0
1758076245.4558,1758076245.351,0.0,0.0,0.0,6.8182,-8.47978,-5.84417,9.25,0.83,1.83,2.0
1758076245.45696,1758076245.361,0.0,0.0,0.0,5.09932,-2.57831,-5.55769,9.59,0.83,1.97,2.0
1758076245.47283,1758076245.371,0.0,0.0,0.0,2.63561,3.20856,-6.58902,9.59,0.83,1.97,2.0
1758076245.4738,1758076245.381,0.0,0.0,0.0,-0.51566,5.09932,-9.05273,9.52,0.97,2.01,2.0
1758076245.48907,1758076245.391,0.0,0.0,0.0,-3.20856,5.50039,-11.28727,8.85,1.11,1.6,2.0
1758076245.50494,1758076245.401,0.0,0.0,0.0,-5.15662,4.1253,-13.00614,8.85,1.11,1.6,2.0
1758076245.51161,1758076245.411,0.0,0.0,0.0,-7.50575,4.23989,-13.46451,9.1,1.08,1.59,2.0
1758076245.51301,1758076245.421,0.0,0.0,0.0,-12.60507,5.50039,-17.13144,9.1,1.08,1.59,2.0
1758076245.52907,1758076245.431,0.0,0.0,0.0,-15.98552,4.98473,-19.48057,9.09,1.21,1.66,2.0
1758076245.54584,1758076245.441,0.0,0.0,0.0,-19.99623,4.98473,-22.28806,9.09,1.21,1.66,2.0
1758076245.54686,1758076245.451,0.0,0.0,0.0,-23.37668,6.13065,-26.18417,9.02,1.47,1.23,2.0
1758076245.56189,1758076245.461,0.0,0.0,0.0,-27.44468,0.85944,-29.33544,8.8,1.78,1.01,2.0
1758076245.56303,1758076245.471,0.0,0.0,0.0,-30.19488,-7.04738,-28.99167,8.8,1.78,1.01,2.0
1758076245.57782,1758076245.481,0.0,0.0,0.0,-31.45539,-12.49048,-26.24147,8.67,1.62,1.01,2.0
1758076245.59373,1758076245.491,0.0,0.0,0.0,-32.42941,-30.59595,-20.05352,8.67,1.62,1.01,2.0
1758076245.595,1758076245.501,0.0,0.0,0.0,-34.26288,-19.25138,-17.01685,9.54,1.23,1.22,2.0
1758076245.60987,1758076245.511,0.0,0.0,0.0,-33.17426,8.02141,-13.40721,9.54,1.23,1.22,2.0
1758076245.61289,1758076245.521,0.0,0.0,0.0,-35.40879,32.14294,-13.5218,14.21,1.01,1.64,2.0
1758076245.6302,1758076245.531,0.0,0.0,0.0,-32.48671,23.20479,-13.5218,14.21,1.01,3.21,2.0
1758076245.63403,1758076245.541,0.0,0.0,0.0,-24.35071,4.0107,-11.17268,11.01,0.72,3.21,2.0
1758076245.65086,1758076245.551,0.0,0.0,0.0,-19.25138,-19.42327,-13.98017,9.4,-0.18,3.61,2.0
1758076245.65692,1758076245.561,0.0,0.0,0.0,-17.13144,-13.46451,-18.56383,9.4,-0.18,3.61,2.0
1758076245.67392,1758076245.571,0.0,0.0,0.0,-14.72501,22.57454,-19.88164,14.79,-0.11,1.61,2.0
1758076245.67717,1758076245.581,0.0,0.0,0.0,-13.75099,33.9764,-18.56383,14.79,-0.11,1.61,2.0
1758076245.69325,1758076245.591,0.0,0.0,0.0,-12.204,37.52874,-16.21471,14.11,-0.01,3.35,2.0
1758076245.69627,1758076245.601,0.0,0.0,0.0,-10.31324,41.02378,-13.75099,14.11,-0.01,3.35,2.0
1758076245.71168,1758076245.611,0.0,0.0,0.0,-8.76626,44.28964,-10.71431,14.27,0.33,4.59,2.0
1758076245.71291,1758076245.621,0.0,0.0,0.0,-9.5684,40.27893,-8.59437,13.87,1.41,4.34,2.0
1758076245.72796,1758076245.631,0.0,0.0,0.0,-11.17268,34.72124,-6.7609,13.87,1.41,4.34,2.0
1758076245.744,1758076245.641,0.0,0.0,0.0,-13.75099,30.19488,-4.92744,13.88,2.62,4.4,2.0
1758076245.74537,1758076245.651,0.0,0.0,0.0,-18.85031,20.45459,-4.1253,13.88,2.62,4.4,2.0
1758076245.75998,1758076245.661,0.0,0.0,0.0,-22.23076,14.83961,-5.15662,13.85,2.83,4.3,2.0
1758076245.76259,1758076245.671,0.0,0.0,0.0,-25.8404,10.65701,-7.21927,13.85,2.83,4.3,2.0
1758076245.77922,1758076245.681,0.0,0.0,0.0,-30.76784,5.90147,-10.8862,13.24,2.19,4.33,2.0
1758076245.79594,1758076245.691,0.0,0.0,0.0,-33.86181,-3.38045,-13.06344,11.58,1.57,3.96,2.0
1758076245.80038,1758076245.701,0.0,0.0,0.0,-36.6693,-8.42248,-14.83961,11.58,1.57,3.96,2.0
1758076245.81567,1758076245.711,0.0,0.0,0.0,-39.01843,-11.91752,-16.10011,10.18,1.13,3.46,2.0
1758076245.81685,1758076245.721,0.0,0.0,0.0,-41.13837,-17.13144,-15.98552,10.18,1.13,3.46,2.0
1758076245.83292,1758076245.731,0.0,0.0,0.0,-41.02378,-20.3973,-14.20935,8.46,0.65,3.25,2.0
1758076245.83391,1758076245.741,0.0,0.0,0.0,-39.07573,-24.35071,-10.65701,8.46,0.65,3.25,2.0
1758076245.85192,1758076245.751,0.0,0.0,0.0,-38.21629,-32.08564,-7.33386,6.43,-0.15,3.31,2.0
1758076245.85291,1758076245.761,0.0,0.0,0.0,-39.07573,-42.39888,-2.7502,5.26,-0.3,2.58,2.0
1758076245.86789,1758076245.771,0.0,0.0,0.0,-39.53409,-46.75336,0.51566,5.26,-0.3,2.58,2.0
1758076245.88417,1758076245.781,0.0,0.0,0.0,-40.04975,-50.59217,3.09397,5.59,-0.64,3.01,2.0
1758076245.88514,1758076245.791,0.0,0.0,0.0,-40.33623,-53.45696,4.81285,5.59,-0.64,3.01,2.0
1758076245.9002,1758076245.801,0.0,0.0,0.0,-41.08107,-54.88936,5.55769,6.8,-0.99,3.69,2.0
1758076245.91698,1758076245.811,0.0,0.0,0.0,-41.88322,-53.11319,5.4431,6.8,-0.99,3.69,2.0
1758076245.91795,1758076245.821,0.0,0.0,0.0,-42.62806,-49.96192,4.52637,8.12,-0.71,3.24,2.0
1758076245.93312,1758076245.831,0.0,0.0,0.0,-43.54479,-46.35228,2.86479,8.12,-0.71,3.24,2.0
1758076245.93417,1758076245.841,0.0,0.0,0.0,-45.20637,-37.98711,0.0573,8.51,-0.38,2.93,2.0
1758076245.94966,1758076245.851,0.0,0.0,0.0,-46.35228,-31.56997,-1.43239,8.63,-0.12,2.5,2.0
1758076245.95333,1758076245.861,0.0,0.0,0.0,-47.44091,-26.64254,-2.6929,8.63,-0.12,2.5,2.0
1758076245.9692,1758076245.871,0.0,0.0,0.0,-49.33167,-20.62648,-4.64096,8.61,-0.26,2.27,2.0
1758076245.98512,1758076245.881,0.0,0.0,0.0,-48.30034,-10.19865,-5.50039,8.61,-0.26,2.27,2.0
1758076245.98852,1758076245.891,0.0,0.0,0.0,-47.03984,-4.29718,-6.07335,8.94,-0.68,2.06,2.0
1758076246.00505,1758076245.901,0.0,0.0,0.0,-45.09178,0.68755,-6.24524,8.94,-0.68,2.06,2.0
1758076246.00836,1758076245.911,0.0,0.0,0.0,-41.48215,8.36518,-5.61499,8.87,-1.11,2.04,2.0
1758076246.02424,1758076245.921,0.0,0.0,0.0,-38.84654,13.12073,-4.87014,8.9,-1.26,1.99,2.0
1758076246.02548,1758076245.931,0.0,0.0,0.0,-36.03905,17.01685,-3.83882,8.9,-1.26,1.99,2.0
1758076246.04114,1758076245.941,0.0,0.0,0.0,-33.34615,20.16812,-2.7502,8.84,-1.2,2.13,2.0
1758076246.04325,1758076245.951,0.0,0.0,0.0,-29.04896,22.63183,-1.08862,8.84,-1.2,2.13,2.0
1758076246.06,1758076245.961,0.0,0.0,0.0,-26.64254,23.49127,-0.40107,8.79,-1.1,2.28,2.0
1758076246.0628,1758076245.971,0.0,0.0,0.0,-24.35071,23.54857,0.57296,8.79,-1.1,2.28,2.0
1758076246.07895,1758076245.981,0.0,0.0,0.0,-22.86102,23.31938,1.20321,8.77,-0.99,2.28,2.0
1758076246.09607,1758076245.991,0.0,0.0,0.0,-21.31403,23.83505,2.00535,8.79,-0.74,2.36,2.0
1758076246.09699,1758076246.001,0.0,0.0,0.0,-20.34,24.4653,2.97938,8.79,-0.74,2.36,2.0
1758076246.11229,1758076246.011,0.0,0.0,0.0,-19.36597,22.97561,3.66693,8.51,-0.57,2.35,2.0
1758076246.11317,1758076246.021,0.0,0.0,0.0,-18.44924,18.16276,4.98473,8.51,-0.57,2.35,2.0
1758076246.12824,1758076246.031,0.0,0.0,0.0,-17.93358,14.83961,6.7609,8.39,-0.58,2.25,2.0
1758076246.14409,1758076246.041,0.0,0.0,0.0,-18.22006,11.97482,7.62034,8.39,-0.58,2.25,2.0
1758076246.14596,1758076246.051,0.0,0.0,0.0,-18.62113,7.21927,7.44845,8.6,-0.48,2.19,2.0
1758076246.16287,1758076246.061,0.0,0.0,0.0,-19.42327,2.34913,6.8182,8.6,-0.48,2.19,2.0
1758076246.16419,1758076246.071,0.0,0.0,0.0,-20.68378,-3.55234,4.58366,8.43,-0.28,2.07,2.0
1758076246.17904,1758076246.081,0.0,0.0,0.0,-21.60051,-8.0787,2.86479,8.39,-0.2,1.84,2.0
1758076246.19582,1758076246.091,0.0,0.0,0.0,-22.23076,-11.63104,1.14592,8.39,-0.2,1.84,2.0
1758076246.19702,1758076246.101,0.0,0.0,0.0,-22.97561,-14.49583,-1.3178,8.53,-0.23,1.93,2.0
1758076246.21314,1758076246.111,0.0,0.0,0.0,-23.26209,-18.90761,-2.23454,8.53,-0.23,1.93,2.0
1758076246.21405,1758076246.121,0.0,0.0,0.0,-23.26209,-20.79837,-2.86479,8.67,-0.32,1.78,2.0
1758076246.23064,1758076246.131,0.0,0.0,0.0,-23.31938,-21.88699,-2.86479,8.67,-0.32,1.78,2.0
1758076246.23354,1758076246.141,0.0,0.0,0.0,-22.74642,-22.51724,-1.94806,9.03,-0.47,1.76,2.0
1758076246.24935,1758076246.151,0.0,0.0,0.0,-22.23076,-21.94428,-0.97403,9.29,-0.65,1.65,2.0
1758076246.2672,1758076246.161,0.0,0.0,0.0,-21.60051,-20.97026,0.0,9.29,-0.65,1.65,2.0
1758076246.2689,1758076246.171,0.0,0.0,0.0,-20.79837,-20.05352,0.68755,9.41,-0.74,1.47,2.0
1758076246.28415,1758076246.181,0.0,0.0,0.0,-19.53786,-18.44924,0.45837,9.41,-0.74,1.47,2.0
1758076246.29011,1758076246.191,0.0,0.0,0.0,-18.44924,-16.95955,0.22918,9.48,-0.76,1.42,2.0
1758076246.29308,1758076246.201,0.0,0.0,0.0,-16.55848,-11.17268,1.08862,9.48,-0.76,1.42,2.0
1758076246.30936,1758076246.211,0.0,0.0,0.0,-14.43854,0.11459,1.77617,10.16,-0.93,1.47,2.0
1758076246.31662,1758076246.221,0.0,0.0,0.0,-10.54242,16.90226,4.46907,10.39,-1.18,1.34,2.0
1758076246.33196,1758076246.231,0.0,0.0,0.0,-7.39116,22.11617,6.24524,10.39,-1.18,1.34,2.0
1758076246.33406,1758076246.241,0.0,0.0,0.0,-3.95341,24.86637,7.96411,9.67,-1.31,1.63,2.0
1758076246.3507,1758076246.251,0.0,0.0,0.0,-0.40107,27.73116,9.4538,9.67,-1.31,1.63,2.0
1758076246.35344,1758076246.261,0.0,0.0,0.0,5.21392,30.82513,12.204,9.66,-1.5,1.73,2.0
1758076246.36936,1758076246.271,0.0,0.0,0.0,8.99544,31.2262,15.0115,9.66,-1.5,1.73,2.0
1758076246.38692,1758076246.281,0.0,0.0,0.0,13.06344,30.02299,18.90761,9.33,-1.74,1.58,2.0
1758076246.38965,1758076246.291,0.0,0.0,0.0,17.01685,26.75713,23.89234,9.33,-1.74,1.58,2.0
1758076246.40707,1758076246.301,0.0,0.0,0.0,22.68913,15.58445,26.75713,9.1,-2.04,1.58,2.0
1758076246.4089,1758076246.311,0.0,0.0,0.0,25.09555,0.17189,26.18417,8.4,-2.16,1.72,2.0
1758076246.42438,1758076246.321,0.0,0.0,0.0,27.10091,-2.29183,21.25674,8.4,-2.16,1.72,2.0
1758076246.4277,1758076246.331,0.0,0.0,0.0,33.00237,36.7266,19.82434,11.32,-2.06,1.16,2.0
1758076246.4433,1758076246.341,0.0,0.0,0.0,36.38282,61.42108,18.79302,11.32,-2.06,1.16,2.0
1758076246.44509,1758076246.351,0.0,0.0,0.0,40.27893,69.90086,13.98017,12.66,-2.1,2.65,2.0
1758076246.46037,1758076246.361,0.0,0.0,0.0,40.62271,46.98254,7.84952,12.66,-2.1,2.65,2.0
1758076246.46286,1758076246.371,0.0,0.0,0.0,45.09178,-27.78845,0.74485,8.18,-1.81,3.97,2.0
1758076246.47902,1758076246.381,0.0,0.0,0.0,50.2484,-72.13539,12.2613,8.78,-2.14,3.15,2.0
1758076246.49641,1758076246.391,0.0,0.0,0.0,49.27437,-57.63955,18.16276,8.78,-2.14,3.15,2.0
1758076246.49839,1758076246.401,0.0,0.0,0.0,47.49821,-16.21471,18.62113,17.78,-2.06,2.79,2.0
1758076246.51312,1758076246.411,0.0,0.0,0.0,42.97184,-1.48969,16.21471,17.78,-2.06,2.79,2.0
1758076246.51623,1758076246.421,0.0,0.0,0.0,38.73195,-4.23989,12.54778,13.62,-1.11,3.66,2.0
1758076246.53357,1758076246.431,0.0,0.0,0.0,34.09099,-3.09397,8.0787,13.62,-1.11,3.66,2.0
1758076246.5374,1758076246.441,0.0,0.0,0.0,28.59059,3.66693,1.3178,14.18,0.36,4.14,2.0
1758076246.5524,1758076246.451,0.0,0.0,0.0,22.00158,11.00079,-8.0787,13.9,1.24,3.36,2.0
1758076246.55415,1758076246.461,0.0,0.0,0.0,18.85031,18.10547,-12.49048,13.9,1.24,3.36,2.0
1758076246.57237,1758076246.471,0.0,0.0,0.0,16.84496,22.00158,-14.15206,14.33,0.93,4.77,2.0
1758076246.57413,1758076246.481,0.0,0.0,0.0,15.92823,19.53786,-13.5791,14.33,0.93,4.77,2.0
1758076246.59112,1758076246.491,0.0,0.0,0.0,16.55848,11.00079,-7.96411,12.81,-0.08,4.3,2.0
1758076246.59396,1758076246.501,0.0,0.0,0.0,17.87628,7.04738,-3.20856,12.81,-0.08,4.3,2.0
1758076246.61145,1758076246.511,0.0,0.0,0.0,20.34,2.11994,1.48969,11.3,-1.03,3.96,2.0
1758076246.61236,1758076246.521,0.0,0.0,0.0,25.15285,-4.18259,7.73493,11.3,-1.03,3.96,2.0
1758076246.62839,1758076246.531,0.0,0.0,0.0,28.64789,-11.28727,10.59972,9.44,-1.3,3.62,2.0
1758076246.64419,1758076246.541,0.0,0.0,0.0,31.91375,-13.86558,12.204,8.23,-0.97,3.63,2.0
1758076246.64536,1758076246.551,0.0,0.0,0.0,34.49206,-18.22006,12.60507,8.23,-0.97,3.63,2.0
1758076246.66254,1758076246.561,0.0,0.0,0.0,37.12767,-27.2155,11.51645,6.71,-0.4,3.65,2.0
1758076246.66369,1758076246.571,0.0,0.0,0.0,37.47144,-34.26288,10.31324,6.71,-0.4,3.65,2.0
1758076246.67916,1758076246.581,0.0,0.0,0.0,36.6693,-40.16434,8.65166,6.09,0.37,3.77,2.0
1758076246.70283,1758076246.591,0.0,0.0,0.0,35.12231,-44.51882,6.87549,6.09,0.37,3.77,2.0
1758076246.70319,1758076246.601,0.0,0.0,0.0,31.79916,-48.01387,4.29718,6.54,1.2,3.5,2.0
1758076246.70784,1758076246.611,0.0,0.0,0.0,29.22085,-47.26902,2.6929,7.58,1.67,3.42,2.0
1758076246.72344,1758076246.621,0.0,0.0,0.0,26.24147,-44.51882,1.3178,7.58,1.67,3.42,2.0
1758076246.72522,1758076246.631,0.0,0.0,0.0,23.60586,-40.39353,0.17189,8.56,1.72,3.25,2.0
1758076246.74021,1758076246.641,0.0,0.0,0.0,19.07949,-32.42941,-1.83346,8.56,1.72,3.25,2.0
1758076246.74381,1758076246.651,0.0,0.0,0.0,15.98552,-26.75713,-3.83882,8.94,1.55,2.89,2.0
1758076246.76029,1758076246.661,0.0,0.0,0.0,13.12073,-20.74107,-6.24524,8.94,1.55,2.89,2.0
1758076246.77615,1758076246.671,0.0,0.0,0.0,10.25595,-14.49583,-8.88085,8.82,1.48,2.59,2.0
1758076246.77678,1758076246.681,0.0,0.0,0.0,6.41713,-5.32851,-13.40721,8.76,1.61,2.6,2.0
1758076246.79233,1758076246.691,0.0,0.0,0.0,4.1253,-0.11459,-16.272,8.76,1.61,2.6,2.0
1758076246.79346,1758076246.701,0.0,0.0,0.0,1.94806,4.46907,-18.90761,8.76,1.71,2.73,2.0
1758076246.80819,1758076246.711,0.0,0.0,0.0,0.0,8.99544,-20.62648,8.76,1.71,2.73,2.0
1758076246.82424,1758076246.721,0.0,0.0,0.0,-2.92208,15.06879,-21.7151,8.79,1.49,2.65,2.0
1758076246.82702,1758076246.731,0.0,0.0,0.0,-4.58366,18.62113,-21.94428,8.79,1.49,2.65,2.0
1758076246.84224,1758076246.741,0.0,0.0,0.0,-6.07335,21.25674,-21.08485,8.77,1.14,2.68,2.0
1758076246.84384,1758076246.751,0.0,0.0,0.0,-7.44845,24.5226,-19.25138,8.77,1.14,2.68,2.0
1758076246.85833,1758076246.761,0.0,0.0,0.0,-7.84952,25.89769,-17.47521,8.79,0.82,2.7,2.0
1758076246.8743,1758076246.771,0.0,0.0,0.0,-7.96411,27.73116,-15.46986,8.8,0.56,2.76,2.0
1758076246.87625,1758076246.781,0.0,0.0,0.0,-7.33386,27.67386,-13.5218,8.8,0.56,2.76,2.0
1758076246.89229,1758076246.791,0.0,0.0,0.0,-5.61499,26.24147,-10.54242,8.51,0.39,2.85,2.0
1758076246.89324,1758076246.801,0.0,0.0,0.0,-4.18259,25.09555,-9.05273,8.51,0.39,2.85,2.0
1758076246.90839,1758076246.811,0.0,0.0,0.0,-2.34913,22.74642,-8.136,8.34,0.29,2.82,2.0
1758076246.91249,1758076246.821,0.0,0.0,0.0,-0.34377,19.82434,-6.7609,8.34,0.29,2.82,2.0
1758076246.92735,1758076246.831,0.0,0.0,0.0,2.46372,13.12073,-6.24524,8.2,0.24,2.85,2.0
1758076246.94329,1758076246.841,0.0,0.0,0.0,3.95341,9.22462,-6.07335,8.26,0.28,2.87,2.0
1758076246.94522,1758076246.851,0.0,0.0,0.0,5.55769,5.15662,-5.90147,8.26,0.28,2.87,2.0
1758076246.96053,1758076246.861,0.0,0.0,0.0,6.7609,2.06265,-5.95876,8.47,0.39,2.8,2.0
1758076246.96148,1758076246.871,0.0,0.0,0.0,7.44845,-1.08862,-6.58902,8.47,0.39,2.8,2.0
1758076246.97766,1758076246.881,0.0,0.0,0.0,7.44845,-3.38045,-7.33386,8.55,0.59,2.68,2.0
1758076246.99331,1758076246.891,0.0,0.0,0.0,6.99009,-5.84417,-8.25059,8.55,0.59,2.68,2.0
1758076246.99452,1758076246.901,0.0,0.0,0.0,5.84417,-7.62034,-9.28192,8.4,0.84,2.35,2.0
1758076247.01008,1758076246.911,0.0,0.0,0.0,4.0107,-8.88085,-10.19865,8.61,1.05,2.37,2.0
1758076247.02833,1758076246.921,0.0,0.0,0.0,2.46372,-9.68299,-10.37054,8.61,1.05,2.37,2.0
1758076247.02853,1758076246.931,0.0,0.0,0.0,1.43239,-9.5684,-10.25595,8.86,1.09,2.17,2.0
1758076247.033,1758076246.941,0.0,0.0,0.0,-0.17189,-8.65166,-9.28192,8.86,1.09,2.17,2.0
1758076247.04858,1758076246.951,0.0,0.0,0.0,-0.80214,-6.53172,-8.42248,9.15,1.01,2.09,2.0
1758076247.06543,1758076246.961,0.0,0.0,0.0,-1.14592,-4.18259,-7.67763,9.15,1.01,2.09,2.0
1758076247.06788,1758076246.971,0.0,0.0,0.0,-1.48969,-0.68755,-6.47442,9.34,0.88,2.04,2.0
1758076247.08359,1758076246.981,0.0,0.0,0.0,-1.60428,3.03668,-4.92744,9.34,0.88,2.04,2.0
1758076247.08481,1758076246.991,0.0,0.0,0.0,-1.77617,4.87014,-4.35448,9.32,0.75,2.08,2.0
1758076247.10014,1758076247.001,0.0,0.0,0.0,-2.11994,8.76626,-4.46907,9.48,0.71,2.08,2.0
1758076247.10294,1758076247.011,0.0,0.0,0.0,-2.46372,12.49048,-5.09932,9.48,0.71,2.08,2.0
1758076247.11865,1758076247.021,0.0,0.0,0.0,-3.26586,15.29797,-5.78687,9.42,0.7,1.95,2.0
1758076247.1344,1758076247.031,0.0,0.0,0.0,-3.95341,16.90226,-5.90147,9.42,0.7,1.95,2.0
1758076247.1372,1758076247.041,0.0,0.0,0.0,-4.46907,18.50654,-5.55769,9.35,0.74,1.89,2.0
1758076247.15237,1758076247.051,0.0,0.0,0.0,-5.27121,19.59516,-5.09932,9.35,0.74,1.89,2.0
1758076247.15361,1758076247.061,0.0,0.0,0.0,-6.24524,19.59516,-3.89611,9.31,0.79,1.82,2.0
1758076247.16866,1758076247.071,0.0,0.0,0.0,-6.58902,16.95955,-2.86479,9.13,0.82,1.89,2.0
1758076247.18463,1758076247.081,0.0,0.0,0.0,-7.04738,12.37589,-2.06265,9.13,0.82,1.89,2.0
1758076247.18559,1758076247.091,0.0,0.0,0.0,-7.44845,6.41713,-1.43239,9.08,0.8,2.0,2.0
1758076247.20071,1758076247.101,0.0,0.0,0.0,-8.59437,2.40642,-0.74485,9.08,0.8,2.0,2.0
1758076247.20165,1758076247.111,0.0,0.0,0.0,-9.5684,1.03132,-0.80214,9.58,0.84,1.91,2.0
1758076247.21839,1758076247.121,0.0,0.0,0.0,-10.54242,-0.11459,-1.94806,9.58,0.84,1.91,2.0
1758076247.23443,1758076247.131,0.0,0.0,0.0,-11.74564,-2.00535,-3.89611,9.42,0.96,1.96,2.0
1758076247.23869,1758076247.141,0.0,0.0,0.0,-13.40721,-5.4431,-7.44845,9.25,1.16,1.95,2.0
1758076247.25436,1758076247.151,0.0,0.0,0.0,-14.20935,-8.99544,-10.31324,9.25,1.16,1.95,2.0
1758076247.25563,1758076247.161,0.0,0.0,0.0,-15.29797,-16.90226,-12.204,8.83,1.22,1.6,2.0
1758076247.27251,1758076247.171,0.0,0.0,0.0,-14.49583,-23.83505,-11.63104,8.83,1.22,1.6,2.0
1758076247.27416,1758076247.181,0.0,0.0,0.0,-14.43854,-25.43933,-9.28192,9.25,1.02,1.55,2.0
1758076247.29019,1758076247.191,0.0,0.0,0.0,-14.20935,-29.10626,-7.33386,9.25,1.02,1.55,2.0
1758076247.2938,1758076247.201,0.0,0.0,0.0,-13.46451,-21.94428,-4.29718,10.03,0.84,1.74,2.0
1758076247.30967,1758076247.211,0.0,0.0,0.0,-15.29797,4.23989,-5.15662,10.03,0.84,1.74,2.0
1758076247.31061,1758076247.221,0.0,0.0,0.0,-16.55848,17.13144,-7.16197,12.48,1.07,1.87,2.0
1758076247.32815,1758076247.231,0.0,0.0,0.0,-18.16276,12.71966,-9.96947,10.68,1.44,2.45,2.0
1758076247.34378,1758076247.241,0.0,0.0,0.0,-18.62113,1.77617,-11.51645,10.68,1.44,2.45,2.0
1758076247.34462,1758076247.251,0.0,0.0,0.0,-17.47521,-10.08406,-11.11538,9.34,1.46,2.3,2.0
1758076247.3595,1758076247.261,0.0,0.0,0.0,-16.55848,-15.46986,-11.22997,9.34,1.46,2.3,2.0
1758076247.36061,1758076247.271,0.0,0.0,0.0,-16.50119,-7.67763,-12.14671,10.51,1.12,2.64,2.0
1758076247.37693,1758076247.281,0.0,0.0,0.0,-13.17803,12.204,-10.25595,10.51,1.12,2.64,2.0
1758076247.3927,1758076247.291,0.0,0.0,0.0,-7.67763,25.49662,-5.72958,13.23,0.73,3.17,2.0
1758076247.39364,1758076247.301,0.0,0.0,0.0,-5.15662,23.26209,-2.57831,11.66,0.17,3.64,2.0
1758076247.4084,1758076247.311,0.0,0.0,0.0,-3.89611,23.83505,-0.40107,11.66,0.17,3.64,2.0
1758076247.42533,1758076247.321,0.0,0.0,0.0,-3.32316,28.64789,0.57296,12.83,0.0,3.41,2.0
1758076247.42725,1758076247.331,0.0,0.0,0.0,-2.97938,33.40344,1.71887,12.83,0.0,3.41,2.0
1758076247.44273,1758076247.341,0.0,0.0,0.0,-3.89611,32.48671,2.00535,13.23,0.68,3.99,2.0
1758076247.44368,1758076247.351,0.0,0.0,0.0,-5.21392,32.08564,2.40642,13.23,0.68,3.99,2.0
1758076247.45844,1758076247.361,0.0,0.0,0.0,-7.16197,30.88243,2.46372,13.58,1.76,4.42,2.0
1758076247.47443,1758076247.371,0.0,0.0,0.0,-10.8862,26.24147,2.29183,13.47,2.42,4.28,2.0
1758076247.47731,1758076247.381,0.0,0.0,0.0,-13.75099,20.74107,1.66158,13.47,2.42,4.28,2.0
1758076247.49274,1758076247.391,0.0,0.0,0.0,-16.38659,15.64175,0.57296,12.81,2.21,4.26,2.0
1758076247.49366,1758076247.401,0.0,0.0,0.0,-19.76705,8.99544,-1.3178,12.81,2.21,4.26,2.0
1758076247.50877,1758076247.411,0.0,0.0,0.0,-21.48592,3.83882,-2.40642,11.93,1.64,4.27,2.0
1758076247.52449,1758076247.421,0.0,0.0,0.0,-23.0902,-1.71887,-3.32316,11.93,1.64,4.27,2.0
1758076247.52888,1758076247.431,0.0,0.0,0.0,-24.63719,-7.39116,-4.18259,10.52,1.15,4.02,2.0
1758076247.54613,1758076247.441,0.0,0.0,0.0,-27.04361,-15.35527,-4.69825,10.52,1.15,3.71,2.0
1758076247.54827,1758076247.451,0.0,0.0,0.0,-28.13223,-21.31403,-3.89611,9.24,0.74,3.71,2.0
1758076247.56381,1758076247.461,0.0,0.0,0.0,-29.39274,-28.76248,-2.97938,7.6,0.41,3.61,2.0
1758076247.56499,1758076247.471,0.0,0.0,0.0,-30.59595,-36.6693,-1.48969,7.6,0.41,3.61,2.0
1758076247.57973,1758076247.481,0.0,0.0,0.0,-31.91375,-47.61279,1.08862,6.38,0.19,3.52,2.0
1758076247.58236,1758076247.491,0.0,0.0,0.0,-32.25753,-53.97263,3.03668,6.38,0.19,3.52,2.0
1758076247.59884,1758076247.501,0.0,0.0,0.0,-32.25753,-59.41573,4.98473,6.06,-0.04,3.39,2.0
1758076247.61483,1758076247.511,0.0,0.0,0.0,-31.51268,-64.40046,6.87549,6.06,-0.04,3.39,2.0
1758076247.61578,1758076247.521,0.0,0.0,0.0,-29.22085,-69.67168,9.33921,6.34,-0.45,3.33,2.0
1758076247.63053,1758076247.531,0.0,0.0,0.0,-27.67386,-69.84356,10.31324,7.32,-0.84,3.1,2.0
1758076247.63254,1758076247.541,0.0,0.0,0.0,-26.35606,-67.66632,10.8862,7.32,-0.84,3.1,2.0
1758076247.6478,1758076247.551,0.0,0.0,0.0,-25.21014,-63.02536,10.8862,8.58,-0.98,2.87,2.0
1758076247.66382,1758076247.561,0.0,0.0,0.0,-24.12152,-53.51426,10.37054,8.58,-0.98,2.87,2.0
1758076247.66475,1758076247.571,0.0,0.0,0.0,-23.60586,-46.63877,10.02676,9.35,-0.93,2.64,2.0
1758076247.67984,1758076247.581,0.0,0.0,0.0,-23.0329,-39.07573,9.74028,9.35,-0.93,2.64,2.0
1758076247.68316,1758076247.591,0.0,0.0,0.0,-22.05888,-30.53865,9.4538,9.61,-0.81,2.26,2.0
1758076247.69859,1758076247.601,0.0,0.0,0.0,-21.31403,-17.47521,9.4538,9.68,-0.8,2.0,2.0
1758076247.71458,1758076247.611,0.0,0.0,0.0,-19.76705,-8.42248,9.85487,9.68,-0.8,2.0,2.0
1758076247.71576,1758076247.621,0.0,0.0,0.0,-17.58981,-0.0573,10.59972,9.67,-0.99,1.96,2.0
1758076247.73061,1758076247.631,0.0,0.0,0.0,-14.15206,11.57375,11.74564,9.67,-0.99,1.96,2.0
1758076247.73175,1758076247.641,0.0,0.0,0.0,-11.45916,17.6471,12.77696,9.57,-1.24,2.0,2.0
1758076247.74657,1758076247.651,0.0,0.0,0.0,-8.93814,22.11617,14.09476,9.57,-1.24,2.0,2.0
1758076247.76247,1758076247.661,0.0,0.0,0.0,-6.41713,26.47065,15.35527,9.47,-1.33,2.08,2.0
1758076247.76369,1758076247.671,0.0,0.0,0.0,-2.97938,31.45539,16.67307,9.48,-1.3,2.26,2.0
1758076247.77881,1758076247.681,0.0,0.0,0.0,-1.03132,33.74722,17.81899,9.48,-1.3,2.26,2.0
1758076247.78056,1758076247.691,0.0,0.0,0.0,-0.34377,35.2369,18.44924,9.24,-1.01,2.32,2.0
1758076247.79763,1758076247.701,0.0,0.0,0.0,0.11459,35.75257,18.79302,9.24,-1.01,2.32,2.0
1758076247.81359,1758076247.711,0.0,0.0,0.0,0.40107,35.00772,19.53786,8.98,-0.74,2.54,2.0
1758076247.81488,1758076247.721,0.0,0.0,0.0,0.40107,32.6013,19.53786,8.98,-0.74,2.54,2.0
1758076247.8296,1758076247.731,0.0,0.0,0.0,0.17189,30.36677,19.25138,8.64,-0.65,2.63,2.0
1758076247.83277,1758076247.741,0.0,0.0,0.0,-0.40107,28.07493,18.62113,8.64,-0.65,2.63,2.0
1758076247.84885,1758076247.751,0.0,0.0,0.0,-1.71887,24.4653,17.13144,8.58,-0.62,2.77,2.0
1758076247.86463,1758076247.761,0.0,0.0,0.0,-2.23454,20.85567,16.50119,8.34,-0.57,2.88,2.0
1758076247.86662,1758076247.771,0.0,0.0,0.0,-2.40642,17.01685,16.38659,8.34,-0.57,2.88,2.0
1758076247.88209,1758076247.781,0.0,0.0,0.0,-2.29183,12.77696,17.24603,8.14,-0.63,2.77,2.0
1758076247.88285,1758076247.791,0.0,0.0,0.0,-1.60428,5.72958,18.10547,8.14,-0.63,2.77,2.0
1758076247.8979,1758076247.801,0.0,0.0,0.0,-1.14592,0.40107,18.79302,8.01,-0.77,2.5,2.0
1758076247.91389,1758076247.811,0.0,0.0,0.0,-1.03132,-4.46907,18.90761,8.01,-0.77,2.5,2.0
1758076247.91486,1758076247.821,0.0,0.0,0.0,-0.68755,-11.11538,17.87628,7.97,-0.8,2.3,2.0
1758076247.92982,1758076247.831,0.0,0.0,0.0,-0.80214,-15.29797,16.73037,7.98,-0.7,2.22,2.0
1758076247.93086,1758076247.841,0.0,0.0,0.0,-1.20321,-17.6471,14.66772,7.98,-0.7,2.22,2.0
1758076247.94771,1758076247.851,0.0,0.0,0.0,-1.60428,-20.3973,12.77696,8.23,-0.57,2.12,2.0
1758076247.96399,1758076247.861,0.0,0.0,0.0,-1.94806,-23.89234,10.25595,8.23,-0.57,2.12,2.0
1758076247.96488,1758076247.871,0.0,0.0,0.0,-2.06265,-25.26744,9.22462,8.6,-0.59,2.05,2.0
1758076247.97991,1758076247.881,0.0,0.0,0.0,-1.60428,-26.24147,9.05273,8.6,-0.59,2.05,2.0
1758076247.9837,1758076247.891,0.0,0.0,0.0,-1.3751,-25.49662,8.88085,9.13,-0.8,1.86,2.0
1758076247.99864,1758076247.901,0.0,0.0,0.0,-0.34377,-23.0902,8.99544,9.47,-1.02,1.72,2.0
1758076248.00058,1758076247.911,0.0,0.0,0.0,0.34377,-21.37133,9.11003,9.47,-1.02,1.72,2.0
1758076248.01768,1758076247.921,0.0,0.0,0.0,1.20321,-18.62113,8.99544,9.6,-1.17,1.61,2.0
1758076248.03396,1758076247.931,0.0,0.0,0.0,2.40642,-14.49583,8.70896,9.6,-1.17,1.61,2.0
1758076248.03645,1758076247.941,0.0,0.0,0.0,3.89611,-6.41713,6.35983,9.75,-1.27,1.5,2.0
1758076248.05204,1758076247.951,0.0,0.0,0.0,5.4431,-6.53172,4.92744,9.75,-1.27,1.5,2.0
1758076248.05446,1758076247.961,0.0,0.0,0.0,7.16197,-5.72958,4.18259,9.24,-1.28,1.59,2.0
1758076248.06989,1758076247.971,0.0,0.0,0.0,8.36518,-2.06265,2.92208,9.24,-1.28,1.59,2.0
1758076248.07091,1758076247.981,0.0,0.0,0.0,10.65701,2.40642,3.32316,9.88,-1.28,1.56,2.0
1758076248.08773,1758076247.991,0.0,0.0,0.0,13.06344,4.81285,4.58366,9.84,-1.34,1.52,2.0
1758076248.10395,1758076248.001,0.0,0.0,0.0,15.29797,7.96411,5.84417,9.84,-1.34,1.52,2.0
1758076248.10727,1758076248.011,0.0,0.0,0.0,17.99088,13.17803,6.8182,9.87,-1.47,1.32,2.0
1758076248.12264,1758076248.021,0.0,0.0,0.0,20.05352,21.08485,7.33386,9.87,-1.47,1.32,2.0
1758076248.1239,1758076248.031,0.0,0.0,0.0,22.34536,23.49127,7.96411,9.81,-1.55,1.59,2.0
1758076248.13871,1758076248.041,0.0,0.0,0.0,24.75178,24.75178,8.59437,9.81,-1.55,1.59,2.0
1758076248.14232,1758076248.051,0.0,0.0,0.0,28.01764,24.4653,11.11538,9.44,-1.66,1.63,2.0
1758076248.15795,1758076248.061,0.0,0.0,0.0,29.50733,23.72045,13.34992,9.2,-1.84,1.39,2.0
1758076248.1739,1758076248.071,0.0,0.0,0.0,30.76784,22.40265,16.10011,9.2,-1.84,1.39,2.0
1758076248.17647,1758076248.081,0.0,0.0,0.0,32.14294,17.24603,18.50654,8.83,-1.96,1.27,2.0
1758076248.19195,1758076248.091,0.0,0.0,0.0,33.40344,1.48969,18.22006,8.83,-1.96,1.27,2.0
1758076248.19448,1758076248.101,0.0,0.0,0.0,33.9764,-7.44845,15.92823,8.21,-1.84,1.53,2.0
1758076248.20973,1758076248.111,0.0,0.0,0.0,33.74722,3.49504,11.17268,8.21,-1.84,1.53,2.0
1758076248.21369,1758076248.121,0.0,0.0,0.0,36.6693,24.86637,11.97482,10.51,-1.63,1.26,2.0
1758076248.23096,1758076248.131,0.0,0.0,0.0,38.56006,50.76406,8.88085,11.27,-1.79,2.24,2.0
1758076248.2327,1758076248.141,0.0,0.0,0.0,39.07573,54.08722,4.58366,11.27,-1.79,2.24,2.0
1758076248.24801,1758076248.151,0.0,0.0,0.0,39.24761,34.89313,3.26586,8.5,-1.48,3.37,2.0
1758076248.26401,1758076248.161,0.0,0.0,0.0,40.68,9.74028,3.03668,8.5,-1.48,3.37,2.0
1758076248.2657,1758076248.171,0.0,0.0,0.0,39.99245,-13.46451,4.64096,8.34,-1.49,1.65,2.0
1758076248.28547,1758076248.181,0.0,0.0,0.0,40.7373,-21.42862,6.24524,8.34,-1.49,1.65,2.0
