timeStamp,timeStampAlign,roll,pitch,yaw,gyro_x,gyro_y,gyro_z,acc_x,acc_y,acc_z,flag_num
1758087992.22219,1758087921.6893,0.0,0.0,0.0,22.57454,12.89155,-0.40107,9.84,0.01,0.01,2.0
1758087992.22515,1758087921.6993,0.0,0.0,0.0,22.34536,12.89155,-0.40107,9.79,0.26,0.02,2.0
1758087992.22803,1758087921.7093,0.0,0.0,0.0,21.37133,12.60507,-0.68755,9.79,0.26,0.02,2.0
1758087992.23582,1758087921.7193,0.0,0.0,0.0,20.62648,13.80828,-0.51566,9.55,0.65,-0.07,2.0
1758087992.23785,1758087921.7293,0.0,0.0,0.0,19.42327,16.55848,-0.17189,9.55,0.65,-0.07,2.0
1758087992.23847,1758087921.7393,0.0,0.0,0.0,17.53251,18.44924,1.08862,9.5,0.93,-0.2,2.0
1758087992.2432,1758087921.7493,0.0,0.0,0.0,16.272,18.50654,1.71887,9.06,1.01,-0.24,2.0
1758087992.24752,1758087921.7593,0.0,0.0,0.0,14.43854,20.62648,2.92208,9.06,1.01,-0.24,2.0
1758087992.24824,1758087921.7693,0.0,0.0,0.0,12.60507,22.00158,3.89611,9.28,1.09,-0.19,2.0
1758087992.25019,1758087921.7793,0.0,0.0,0.0,9.28192,21.88699,4.98473,9.28,1.09,-0.19,2.0
1758087992.25098,1758087921.7893,0.0,0.0,0.0,6.70361,17.53251,5.09932,9.05,1.14,0.01,2.0
1758087992.25205,1758087921.7993,0.0,0.0,0.0,3.55234,9.11003,5.4431,9.05,1.14,0.01,2.0
1758087992.25285,1758087921.8093,0.0,0.0,0.0,-0.97403,2.29183,4.64096,8.55,1.32,0.12,2.0
1758087992.25813,1758087921.8193,0.0,0.0,0.0,-8.59437,-5.50039,3.49504,8.85,1.74,-0.33,2.0
1758087992.26093,1758087921.8293,0.0,0.0,0.0,-13.80828,-10.94349,2.34913,8.85,1.74,-0.33,2.0
1758087992.26218,1758087921.8393,0.0,0.0,0.0,-19.25138,-15.75634,0.80214,8.84,1.91,-0.39,2.0
1758087992.2628,1758087921.8493,0.0,0.0,0.0,-24.35071,-18.56383,-1.3178,8.84,1.91,-0.39,2.0
1758087992.26646,1758087921.8593,0.0,0.0,0.0,-30.02299,-26.18417,-3.66693,9.19,1.81,-0.4,2.0
1758087992.26706,1758087921.8693,0.0,0.0,0.0,-32.42941,-30.36677,-5.50039,9.19,1.81,-0.4,2.0
1758087992.2691,1758087921.8793,0.0,0.0,0.0,-33.63263,-27.67386,-5.90147,9.51,1.48,-0.67,2.0
1758087992.27209,1758087921.8893,0.0,0.0,0.0,-33.9764,-22.86102,-4.98473,9.51,1.48,-0.67,2.0
1758087992.29256,1758087921.8993,0.0,0.0,0.0,-34.66395,-29.33544,-2.7502,10.31,1.08,-0.65,2.0
1758087992.31986,1758087921.9093,0.0,0.0,0.0,-36.15364,-40.85189,-3.20856,8.75,0.8,-0.76,2.0
1758087992.32021,1758087921.9193,0.0,0.0,0.0,-35.40879,-51.5662,-1.83346,8.75,0.8,-0.76,2.0
1758087992.32401,1758087921.9293,0.0,0.0,0.0,-35.69527,-51.22243,0.57296,9.77,0.71,-1.61,2.0
1758087992.32527,1758087921.9393,0.0,0.0,0.0,-37.81522,-21.42862,1.3751,9.77,0.71,-1.61,2.0
1758087992.32707,1758087921.9493,0.0,0.0,0.0,-41.42485,-4.64096,1.3178,13.12,1.12,-1.57,2.0
1758087992.32908,1758087921.9593,0.0,0.0,0.0,-44.63341,0.51566,1.94806,13.12,1.12,-1.57,2.0
1758087992.33727,1758087921.9693,0.0,0.0,0.0,-47.78468,-7.16197,4.23989,11.87,1.49,1.0,2.0
1758087992.35241,1758087921.9793,0.0,0.0,0.0,-48.52953,-9.5684,4.1253,12.11,1.04,0.41,2.0
1758087992.35766,1758087921.9893,0.0,0.0,0.0,-47.67009,-12.89155,3.49504,12.11,1.04,0.41,2.0
1758087992.42166,1758087921.9993,0.0,0.0,0.0,-46.00851,-17.01685,1.71887,13.24,0.49,0.11,2.0
1758087992.42716,1758087922.0093,0.0,0.0,0.0,-41.88322,-20.22541,-2.97938,13.24,0.49,0.11,2.0
1758087992.42752,1758087922.0193,0.0,0.0,0.0,-37.98711,-21.14215,-6.13065,14.1,-0.47,1.56,2.0
1758087992.43224,1758087922.0293,0.0,0.0,0.0,-33.00237,-19.25138,-8.47978,14.1,-0.47,1.56,2.0
1758087992.43259,1758087922.0393,0.0,0.0,0.0,-28.41871,-14.61043,-9.11003,13.12,-1.12,1.3,2.0
1758087992.46224,1758087922.0493,0.0,0.0,0.0,-23.60586,-8.59437,-6.53172,10.55,-0.86,0.86,2.0
1758087992.46707,1758087922.0593,0.0,0.0,0.0,-22.51724,-8.02141,-3.38045,10.55,-0.86,0.86,2.0
1758087992.46756,1758087922.0693,0.0,0.0,0.0,-23.54857,-8.99544,0.11459,8.29,-0.54,0.81,2.0
1758087992.5174,1758087922.0793,0.0,0.0,0.0,-26.06958,-9.62569,2.6929,8.29,-0.54,0.81,2.0
1758087992.51887,1758087922.0893,0.0,0.0,0.0,-32.14294,-8.36518,4.87014,8.63,-0.41,1.71,2.0
1758087992.52227,1758087922.0993,0.0,0.0,0.0,-36.15364,-5.90147,5.09932,8.63,-0.41,1.71,2.0
1758087992.5239,1758087922.1093,0.0,0.0,0.0,-39.24761,-2.34913,4.52637,10.63,-0.65,2.2,2.0
1758087992.52813,1758087922.1193,0.0,0.0,0.0,-40.96649,0.97403,2.97938,10.63,-0.65,2.2,2.0
1758087992.53305,1758087922.1293,0.0,0.0,0.0,-39.87786,5.4431,2.06265,12.15,-0.96,2.14,2.0
1758087992.53794,1758087922.1393,0.0,0.0,0.0,-37.29956,8.36518,1.71887,11.92,-1.09,1.75,2.0
1758087992.5398,1758087922.1493,0.0,0.0,0.0,-33.80451,11.51645,1.71887,11.92,-1.09,1.75,2.0
1758087992.54093,1758087922.1593,0.0,0.0,0.0,-27.33009,15.41257,2.7502,10.65,-0.9,1.0,2.0
1758087992.54127,1758087922.1693,0.0,0.0,0.0,-23.26209,17.53251,3.72423,10.65,-0.9,1.0,2.0
1758087992.54253,1758087922.1793,0.0,0.0,0.0,-19.88164,19.25138,4.58366,9.62,-0.89,0.58,2.0
1758087992.55822,1758087922.1893,0.0,0.0,0.0,-16.38659,19.42327,5.15662,9.62,-0.89,0.58,2.0
1758087992.57725,1758087922.1993,0.0,0.0,0.0,-12.49048,18.10547,5.32851,9.12,-1.12,0.51,2.0
1758087992.60115,1758087922.2093,0.0,0.0,0.0,-10.02676,17.53251,5.78687,8.9,-1.39,0.33,2.0
1758087992.60172,1758087922.2193,0.0,0.0,0.0,-7.79223,16.67307,5.78687,8.9,-1.39,0.33,2.0
1758087992.60809,1758087922.2293,0.0,0.0,0.0,-5.72958,14.49583,5.61499,8.57,-1.51,0.2,2.0
1758087992.6091,1758087922.2393,0.0,0.0,0.0,-3.03668,16.84496,4.35448,8.57,-1.51,0.2,2.0
1758087992.61195,1758087922.2493,0.0,0.0,0.0,-0.68755,10.31324,3.09397,8.44,-1.25,0.44,2.0
1758087992.63007,1758087922.2593,0.0,0.0,0.0,1.83346,4.18259,2.86479,8.44,-1.25,0.44,2.0
1758087992.637,1758087922.2693,0.0,0.0,0.0,4.52637,3.09397,2.23454,7.99,-1.15,0.22,2.0
1758087992.65219,1758087922.2793,0.0,0.0,0.0,7.73493,-0.17189,0.97403,8.64,-1.07,0.46,2.0
1758087992.65742,1758087922.2893,0.0,0.0,0.0,10.08406,-3.89611,0.51566,8.64,-1.07,0.46,2.0
1758087992.67222,1758087922.2993,0.0,0.0,0.0,12.37589,-6.24524,0.0,8.93,-1.08,0.87,2.0
1758087992.67581,1758087922.3093,0.0,0.0,0.0,15.0115,-6.87549,0.34377,8.93,-1.08,0.87,2.0
1758087992.69172,1758087922.3193,0.0,0.0,0.0,18.27736,-7.62034,0.80214,9.62,-1.11,0.79,2.0
1758087992.69241,1758087922.3293,0.0,0.0,0.0,19.99623,-6.87549,1.43239,9.62,-1.11,0.79,2.0
1758087992.70723,1758087922.3393,0.0,0.0,0.0,20.85567,-5.50039,1.48969,9.97,-0.89,0.67,2.0
1758087992.71635,1758087922.3493,0.0,0.0,0.0,21.31403,-4.87014,2.11994,9.97,-0.89,0.67,2.0
1758087992.7325,1758087922.3593,0.0,0.0,0.0,21.14215,-4.1253,2.40642,9.95,-0.55,0.4,2.0
1758087992.7353,1758087922.3693,0.0,0.0,0.0,20.62648,-2.34913,2.7502,9.88,-0.46,0.25,2.0
1758087992.75023,1758087922.3793,0.0,0.0,0.0,19.99623,-0.11459,2.86479,9.88,-0.46,0.25,2.0
1758087992.75697,1758087922.3893,0.0,0.0,0.0,18.90761,2.11994,2.63561,9.85,-0.48,0.06,2.0
1758087992.77244,1758087922.3993,0.0,0.0,0.0,18.44924,5.95876,2.23454,9.85,-0.48,0.06,2.0
1758087992.77737,1758087922.4093,0.0,0.0,0.0,18.50654,10.31324,1.83346,9.97,-0.6,0.09,2.0
1758087992.79216,1758087922.4193,0.0,0.0,0.0,19.19409,12.54778,2.00535,9.97,-0.6,0.09,2.0
1758087992.79737,1758087922.4293,0.0,0.0,0.0,20.34,13.98017,1.94806,9.63,-0.71,0.17,2.0
1758087992.81251,1758087922.4393,0.0,0.0,0.0,21.31403,15.69904,1.48969,9.53,-0.8,0.03,2.0
1758087992.81737,1758087922.4493,0.0,0.0,0.0,22.00158,17.47521,1.08862,9.53,-0.8,0.03,2.0
1758087992.8322,1758087922.4593,0.0,0.0,0.0,22.57454,18.90761,0.40107,9.55,-0.81,-0.11,2.0
1758087992.83579,1758087922.4693,0.0,0.0,0.0,22.91831,21.88699,-0.80214,9.55,-0.81,-0.11,2.0
1758087992.85148,1758087922.4793,0.0,0.0,0.0,22.74642,24.17882,-1.48969,9.75,-0.73,-0.23,2.0
1758087992.85269,1758087922.4893,0.0,0.0,0.0,21.88699,25.7831,-2.23454,9.75,-0.73,-0.23,2.0
1758087992.86748,1758087922.4993,0.0,0.0,0.0,21.42862,26.87172,-2.29183,9.89,-0.58,-0.36,2.0
1758087992.87267,1758087922.5093,0.0,0.0,0.0,20.3973,28.76248,-2.40642,10.08,-0.4,-0.34,2.0
1758087992.95676,1758087922.5193,0.0,0.0,0.0,20.34,30.19488,-2.00535,10.08,-0.4,-0.34,2.0
1758087992.95795,1758087922.5293,0.0,0.0,0.0,20.74107,29.56462,-1.3178,10.02,-0.37,-0.16,2.0
1758087992.95962,1758087922.5393,0.0,0.0,0.0,22.86102,27.04361,0.40107,10.02,-0.37,-0.16,2.0
1758087992.96302,1758087922.5493,0.0,0.0,0.0,25.43933,24.75178,2.00535,9.73,-0.61,-0.05,2.0
1758087992.96404,1758087922.5593,0.0,0.0,0.0,28.13223,21.25674,3.60963,9.73,-0.61,-0.05,2.0
1758087992.96648,1758087922.5693,0.0,0.0,0.0,31.39809,15.87093,4.92744,9.35,-1.01,-0.25,2.0
1758087992.96748,1758087922.5793,0.0,0.0,0.0,35.58068,3.60963,5.50039,9.35,-1.01,-0.25,2.0
1758087992.96782,1758087922.5893,0.0,0.0,0.0,37.12767,-8.65166,4.29718,8.73,-1.26,-0.23,2.0
1758087992.97055,1758087922.5993,0.0,0.0,0.0,36.7266,-18.44924,2.57831,8.25,-1.01,-0.5,2.0
1758087992.9713,1758087922.6093,0.0,0.0,0.0,35.58068,-17.87628,-0.85944,8.25,-1.01,-0.5,2.0
1758087992.98725,1758087922.6193,0.0,0.0,0.0,34.89313,2.29183,-2.86479,10.56,-0.52,-0.32,2.0
1758087992.99243,1758087922.6293,0.0,0.0,0.0,33.80451,15.06879,-3.09397,10.56,-0.52,-0.32,2.0
1758087993.01206,1758087922.6393,0.0,0.0,0.0,32.71589,17.58981,-3.20856,11.21,-0.44,0.78,2.0
1758087993.03088,1758087922.6493,0.0,0.0,0.0,31.2262,14.38124,-3.72423,11.21,-0.44,0.78,2.0
1758087993.03737,1758087922.6593,0.0,0.0,0.0,31.16891,7.50575,-5.4431,10.14,-0.48,0.67,2.0
1758087993.03801,1758087922.6693,0.0,0.0,0.0,32.71589,-13.98017,-3.55234,9.45,-0.37,-0.13,2.0
1758087993.04241,1758087922.6793,0.0,0.0,0.0,34.09099,-25.09555,-3.60963,9.45,-0.37,-0.13,2.0
1758087993.05755,1758087922.6893,0.0,0.0,0.0,35.75257,-26.01229,-2.92208,10.93,-0.5,-0.79,2.0
1758087993.07748,1758087922.6993,0.0,0.0,0.0,38.44547,-26.35606,-3.89611,10.93,-0.5,-0.79,2.0
1758087993.08243,1758087922.7093,0.0,0.0,0.0,40.10705,-30.30947,-3.32316,11.27,-0.5,0.7,2.0
1758087993.08306,1758087922.7193,0.0,0.0,0.0,41.08107,-32.6013,-1.48969,11.27,-0.5,0.7,2.0
1758087993.09958,1758087922.7293,0.0,0.0,0.0,40.04975,-31.16891,2.46372,12.74,-0.4,2.31,2.0
1758087993.10285,1758087922.7393,0.0,0.0,0.0,38.15899,-28.30412,5.27121,13.77,-0.45,2.28,2.0
1758087993.1194,1758087922.7493,0.0,0.0,0.0,35.63798,-27.67386,7.50575,13.77,-0.45,2.28,2.0
1758087993.12275,1758087922.7593,0.0,0.0,0.0,32.48671,-26.41335,8.59437,12.42,-0.58,2.05,2.0
1758087993.14211,1758087922.7693,0.0,0.0,0.0,28.93437,-23.0329,7.21927,12.42,-0.58,2.05,2.0
1758087993.14404,1758087922.7793,0.0,0.0,0.0,28.36141,-21.08485,5.84417,10.93,-0.49,1.32,2.0
1758087993.16231,1758087922.7893,0.0,0.0,0.0,29.62192,-18.33465,4.23989,10.93,-0.49,1.32,2.0
1758087993.16702,1758087922.7993,0.0,0.0,0.0,32.37212,-15.24068,3.03668,9.62,-0.25,1.27,2.0
1758087993.18253,1758087922.8093,0.0,0.0,0.0,39.01843,-10.8862,2.7502,8.69,-0.25,1.35,2.0
1758087993.18516,1758087922.8193,0.0,0.0,0.0,44.00316,-7.10468,3.83882,8.69,-0.07,1.35,2.0
1758087993.20116,1758087922.8293,0.0,0.0,0.0,49.04519,-1.60428,5.50039,9.18,0.0,1.26,2.0
1758087993.20274,1758087922.8393,0.0,0.0,0.0,52.71212,4.18259,7.33386,9.18,0.0,1.26,2.0
1758087993.26265,1758087922.8493,0.0,0.0,0.0,54.14451,10.8289,8.70896,10.25,0.15,1.37,2.0
1758087993.26502,1758087922.8593,0.0,0.0,0.0,52.13916,13.40721,8.99544,10.25,0.15,1.37,2.0
1758087993.26671,1758087922.8693,0.0,0.0,0.0,48.41494,15.46986,8.70896,10.82,0.51,1.65,2.0
1758087993.26776,1758087922.8793,0.0,0.0,0.0,43.65939,17.24603,8.0787,10.82,0.51,1.65,2.0
1758087993.26908,1758087922.8893,0.0,0.0,0.0,35.86716,18.62113,7.10468,11.07,1.08,1.67,2.0
1758087993.27034,1758087922.8993,0.0,0.0,0.0,30.93972,18.73572,5.90147,10.33,1.57,1.49,2.0
1758087993.27096,1758087922.9093,0.0,0.0,0.0,27.33009,18.9649,4.81285,10.33,1.57,1.49,2.0
1758087993.28736,1758087922.9193,0.0,0.0,0.0,24.4653,19.13679,3.09397,9.53,1.69,1.21,2.0
1758087993.29227,1758087922.9293,0.0,0.0,0.0,21.37133,18.9649,1.66158,9.53,1.69,1.21,2.0
1758087993.31229,1758087922.9393,0.0,0.0,0.0,20.22541,17.81899,0.85944,9.18,1.43,0.92,2.0
1758087993.31747,1758087922.9493,0.0,0.0,0.0,19.76705,15.35527,0.17189,9.18,1.43,0.92,2.0
1758087993.33231,1758087922.9593,0.0,0.0,0.0,19.76705,14.38124,-0.22918,8.94,0.99,0.97,2.0
1758087993.33672,1758087922.9693,0.0,0.0,0.0,20.16812,13.5791,-0.51566,9.08,0.57,1.08,2.0
1758087993.35232,1758087922.9793,0.0,0.0,0.0,20.51189,11.91752,-0.68755,9.08,0.57,1.08,2.0
1758087993.35752,1758087922.9893,0.0,0.0,0.0,21.08485,10.54242,-0.85944,8.81,0.31,0.97,2.0
1758087993.37259,1758087922.9993,0.0,0.0,0.0,22.23076,8.59437,-0.17189,8.81,0.31,0.97,2.0
1758087993.37752,1758087923.0093,0.0,0.0,0.0,22.34536,8.36518,0.22918,8.93,0.25,0.94,2.0
1758087993.39234,1758087923.0193,0.0,0.0,0.0,21.94428,8.93814,0.0573,8.93,0.25,0.94,2.0
1758087993.39786,1758087923.0293,0.0,0.0,0.0,21.6578,7.67763,0.17189,9.3,0.39,1.0,2.0
1758087993.41236,1758087923.0393,0.0,0.0,0.0,20.34,7.73493,-0.97403,9.52,0.63,0.95,2.0
1758087993.41749,1758087923.0493,0.0,0.0,0.0,19.59516,9.28192,-1.66158,9.52,0.63,0.95,2.0
1758087993.43264,1758087923.0593,0.0,0.0,0.0,18.85031,11.51645,-2.23454,9.93,0.69,0.94,2.0
1758087993.4375,1758087923.0693,0.0,0.0,0.0,18.44924,12.54778,-2.7502,9.93,0.69,0.94,2.0
1758087993.45249,1758087923.0793,0.0,0.0,0.0,18.56383,11.45916,-2.57831,9.66,0.56,0.76,2.0
1758087993.45748,1758087923.0893,0.0,0.0,0.0,19.07949,9.62569,-2.00535,9.66,0.56,0.76,2.0
1758087993.47266,1758087923.0993,0.0,0.0,0.0,19.99623,7.84952,-0.97403,9.54,0.35,0.6,2.0
1758087993.47705,1758087923.1093,0.0,0.0,0.0,20.97026,7.10468,-0.0573,9.54,0.35,0.6,2.0
1758087993.49262,1758087923.1193,0.0,0.0,0.0,22.00158,4.87014,0.80214,9.65,0.19,0.6,2.0
1758087993.49675,1758087923.1293,0.0,0.0,0.0,22.28806,4.29718,1.20321,9.61,0.22,0.8,2.0
1758087993.55759,1758087923.1393,0.0,0.0,0.0,22.34536,4.46907,1.3751,9.61,0.22,0.8,2.0
1758087993.56163,1758087923.1493,0.0,0.0,0.0,21.42862,3.83882,1.3178,9.62,0.4,0.92,2.0
1758087993.56227,1758087923.1593,0.0,0.0,0.0,20.51189,4.52637,1.3751,9.62,0.4,0.92,2.0
1758087993.5654,1758087923.1693,0.0,0.0,0.0,19.59516,7.16197,1.48969,9.6,0.56,0.79,2.0
1758087993.56581,1758087923.1793,0.0,0.0,0.0,18.44924,9.4538,1.77617,9.6,0.56,0.79,2.0
1758087993.56701,1758087923.1893,0.0,0.0,0.0,16.73037,11.45916,2.40642,9.63,0.61,0.62,2.0
1758087993.56764,1758087923.1993,0.0,0.0,0.0,15.46986,12.89155,2.92208,9.61,0.6,0.5,2.0
1758087993.57256,1758087923.2093,0.0,0.0,0.0,14.20935,14.83961,3.49504,9.61,0.6,0.5,2.0
1758087993.59262,1758087923.2193,0.0,0.0,0.0,12.71966,16.61578,3.49504,9.8,0.7,0.48,2.0
1758087993.6226,1758087923.2293,0.0,0.0,0.0,10.02676,15.12609,3.32316,9.8,0.7,0.48,2.0
1758087993.62295,1758087923.2393,0.0,0.0,0.0,7.50575,11.63104,2.86479,9.52,0.92,0.44,2.0
1758087993.62413,1758087923.2493,0.0,0.0,0.0,4.52637,8.02141,2.46372,9.52,0.92,0.44,2.0
1758087993.62473,1758087923.2593,0.0,0.0,0.0,1.03132,4.52637,2.11994,9.29,1.24,0.42,2.0
1758087993.64238,1758087923.2693,0.0,0.0,0.0,-4.92744,-1.14592,1.20321,9.11,1.49,0.31,2.0
1758087993.64386,1758087923.2793,0.0,0.0,0.0,-9.5684,-5.32851,0.45837,9.11,1.49,0.31,2.0
1758087993.65942,1758087923.2893,0.0,0.0,0.0,-13.98017,-8.65166,-0.22918,8.97,1.56,0.14,2.0
1758087993.66113,1758087923.2993,0.0,0.0,0.0,-18.22006,-11.11538,-1.14592,8.97,1.56,0.14,2.0
1758087993.67739,1758087923.3093,0.0,0.0,0.0,-23.0329,-17.99088,-2.11994,9.02,1.49,-0.05,2.0
1758087993.68164,1758087923.3193,0.0,0.0,0.0,-25.15285,-23.20479,-2.86479,9.02,1.49,-0.05,2.0
1758087993.69738,1758087923.3293,0.0,0.0,0.0,-26.69983,-24.80907,-3.66693,8.98,1.32,-0.36,2.0
1758087993.70087,1758087923.3393,0.0,0.0,0.0,-26.24147,-21.42862,-2.6929,8.98,1.32,-0.36,2.0
1758087993.71746,1758087923.3493,0.0,0.0,0.0,-25.49662,-22.68913,-0.68755,9.89,1.0,-0.34,2.0
1758087993.76409,1758087923.3593,0.0,0.0,0.0,-25.26744,-40.7373,-1.83346,8.08,0.66,0.0,2.0
1758087993.7826,1758087923.3693,0.0,0.0,0.0,-37.52874,-8.0787,-6.8182,13.13,1.29,-1.02,2.0
1758087993.78399,1758087923.3793,0.0,0.0,0.0,-40.68,-7.44845,-4.81285,10.14,1.27,1.13,2.0
1758087993.80144,1758087923.3893,0.0,0.0,0.0,-40.39353,-0.45837,-1.94806,11.55,0.99,0.84,2.0
1758087993.80292,1758087923.3993,0.0,0.0,0.0,-39.07573,4.87014,1.48969,11.55,0.99,0.84,2.0
1758087993.81751,1758087923.4093,0.0,0.0,0.0,-36.7266,4.58366,4.29718,11.73,0.09,-0.02,2.0
1758087993.83739,1758087923.4193,0.0,0.0,0.0,-32.25753,-0.74485,6.07335,11.73,0.09,-0.02,2.0
1758087993.83803,1758087923.4293,0.0,0.0,0.0,-28.41871,-4.81285,5.61499,11.66,-0.83,0.39,2.0
1758087993.84183,1758087923.4393,0.0,0.0,0.0,-24.00693,-9.22462,3.83882,11.66,-0.83,0.39,2.0
1758087993.85737,1758087923.4493,0.0,0.0,0.0,-19.82434,-12.71966,0.57296,12.74,-1.35,0.65,2.0
1758087993.87604,1758087923.4593,0.0,0.0,0.0,-13.80828,-13.69369,-3.89611,13.42,-1.13,1.45,2.0
1758087993.87693,1758087923.4693,0.0,0.0,0.0,-10.54242,-12.77696,-5.78687,13.42,-1.13,1.45,2.0
1758087993.9194,1758087923.4793,0.0,0.0,0.0,-8.02141,-11.91752,-5.72958,12.09,-0.25,1.15,2.0
1758087993.92302,1758087923.4893,0.0,0.0,0.0,-7.21927,-12.49048,-3.49504,12.09,-0.25,1.15,2.0
1758087993.92754,1758087923.4993,0.0,0.0,0.0,-9.05273,-13.80828,-1.20321,9.9,0.7,0.33,2.0
1758087993.9317,1758087923.5093,0.0,0.0,0.0,-11.57375,-13.5791,0.97403,9.9,0.7,0.33,2.0
1758087993.93262,1758087923.5193,0.0,0.0,0.0,-14.61043,-14.32395,2.57831,8.64,1.17,-0.02,2.0
1758087993.93681,1758087923.5293,0.0,0.0,0.0,-19.99623,-17.99088,2.86479,8.64,1.17,-0.02,2.0
1758087993.9527,1758087923.5393,0.0,0.0,0.0,-23.0902,-20.74107,1.48969,7.73,1.12,0.77,2.0
1758087993.9576,1758087923.5493,0.0,0.0,0.0,-25.55392,-23.20479,-0.0573,8.1,0.37,1.84,2.0
1758087993.97681,1758087923.5593,0.0,0.0,0.0,-27.2155,-23.37668,-2.29183,8.1,0.37,1.84,2.0
1758087993.98113,1758087923.5693,0.0,0.0,0.0,-28.01764,-21.25674,-5.72958,10.03,-0.68,2.66,2.0
1758087993.98286,1758087923.5793,0.0,0.0,0.0,-27.67386,-18.85031,-7.73493,10.03,-0.68,2.66,2.0
1758087994.0022,1758087923.5893,0.0,0.0,0.0,-26.98631,-16.38659,-8.88085,11.94,-1.51,2.61,2.0
1758087994.03139,1758087923.5993,0.0,0.0,0.0,-25.89769,-13.80828,-8.36518,11.94,-1.51,2.61,2.0
1758087994.03281,1758087923.6093,0.0,0.0,0.0,-24.00693,-9.4538,-4.98473,11.93,-1.72,2.1,2.0
1758087994.03693,1758087923.6193,0.0,0.0,0.0,-22.51724,-5.72958,-1.66158,10.87,-1.53,1.39,2.0
1758087994.03758,1758087923.6293,0.0,0.0,0.0,-20.22541,-1.14592,1.20321,10.87,-1.53,1.39,2.0
1758087994.042,1758087923.6393,0.0,0.0,0.0,-17.47521,3.03668,3.83882,10.24,-1.47,0.77,2.0
1758087994.05768,1758087923.6493,0.0,0.0,0.0,-12.37589,9.96947,6.41713,10.24,-1.47,0.77,2.0
1758087994.06247,1758087923.6593,0.0,0.0,0.0,-8.99544,14.49583,7.16197,10.39,-1.62,0.15,2.0
1758087994.07842,1758087923.6693,0.0,0.0,0.0,-5.78687,18.44924,7.16197,10.39,-1.62,0.15,2.0
1758087994.09688,1758087923.6793,0.0,0.0,0.0,-2.86479,21.42862,6.8182,10.51,-1.61,0.05,2.0
1758087994.09761,1758087923.6893,0.0,0.0,0.0,0.57296,23.54857,6.41713,10.14,-1.23,0.29,2.0
1758087994.10774,1758087923.6993,0.0,0.0,0.0,2.29183,23.0329,5.90147,10.14,-1.23,0.29,2.0
1758087994.11263,1758087923.7093,0.0,0.0,0.0,3.26586,21.31403,5.55769,9.39,-0.87,0.44,2.0
1758087994.13274,1758087923.7193,0.0,0.0,0.0,4.0107,16.21471,5.21392,9.39,-0.87,0.44,2.0
1758087994.13687,1758087923.7293,0.0,0.0,0.0,3.89611,11.63104,4.92744,8.9,-0.5,0.48,2.0
1758087994.15272,1758087923.7393,0.0,0.0,0.0,3.66693,7.67763,4.35448,8.9,-0.5,0.48,2.0
1758087994.15689,1758087923.7493,0.0,0.0,0.0,3.20856,3.49504,3.55234,8.78,-0.38,0.53,2.0
1758087994.17251,1758087923.7593,0.0,0.0,0.0,3.32316,-0.68755,2.97938,8.78,-0.38,0.74,2.0
1758087994.17685,1758087923.7693,0.0,0.0,0.0,3.95341,-2.40642,2.7502,8.98,-0.56,0.74,2.0
1758087994.19249,1758087923.7793,0.0,0.0,0.0,4.46907,-3.95341,2.63561,9.13,-0.87,0.68,2.0
1758087994.19684,1758087923.7893,0.0,0.0,0.0,5.15662,-6.13065,2.63561,9.13,-0.87,0.68,2.0
1758087994.21263,1758087923.7993,0.0,0.0,0.0,6.13065,-7.10468,2.40642,9.17,-1.06,0.55,2.0
1758087994.21688,1758087923.8093,0.0,0.0,0.0,6.41713,-7.04738,2.40642,9.17,-1.06,0.55,2.0
1758087994.23278,1758087923.8193,0.0,0.0,0.0,6.7609,-6.7609,2.40642,9.36,-1.06,0.36,2.0
1758087994.23688,1758087923.8293,0.0,0.0,0.0,6.87549,-4.58366,2.34913,9.36,-1.06,0.36,2.0
1758087994.2528,1758087923.8393,0.0,0.0,0.0,6.7609,-1.83346,1.66158,9.67,-0.86,0.31,2.0
1758087994.35549,1758087923.8493,0.0,0.0,0.0,7.04738,-1.83346,1.66158,9.68,-0.66,0.26,2.0
1758087994.3559,1758087923.8593,0.0,0.0,0.0,7.73493,-0.22918,2.06265,9.68,-0.66,0.26,2.0
1758087994.35709,1758087923.8693,0.0,0.0,0.0,8.36518,2.63561,2.34913,10.03,-0.77,0.02,2.0
1758087994.35772,1758087923.8793,0.0,0.0,0.0,9.4538,6.87549,2.86479,10.03,-0.77,0.02,2.0
1758087994.36213,1758087923.8893,0.0,0.0,0.0,10.08406,9.5684,3.03668,9.96,-0.9,0.06,2.0
1758087994.36276,1758087923.8993,0.0,0.0,0.0,10.8289,11.63104,3.09397,9.96,-0.9,0.06,2.0
1758087994.36437,1758087923.9093,0.0,0.0,0.0,11.34457,15.46986,2.46372,9.72,-0.96,0.05,2.0
1758087994.36774,1758087923.9193,0.0,0.0,0.0,11.80293,19.59516,1.71887,9.85,-0.93,-0.13,2.0
1758087994.36891,1758087923.9293,0.0,0.0,0.0,12.08941,25.21014,0.80214,9.85,-0.93,-0.13,2.0
1758087994.36974,1758087923.9393,0.0,0.0,0.0,12.49048,29.33544,0.40107,9.86,-0.87,-0.02,2.0
1758087994.37044,1758087923.9493,0.0,0.0,0.0,12.77696,30.02299,-0.74485,9.86,-0.87,-0.02,2.0
1758087994.37148,1758087923.9593,0.0,0.0,0.0,13.12073,29.73651,-1.43239,9.29,-0.9,0.22,2.0
1758087994.37273,1758087923.9693,0.0,0.0,0.0,13.80828,29.8511,-1.83346,9.29,-0.9,0.22,2.0
1758087994.38775,1758087923.9793,0.0,0.0,0.0,14.61043,28.07493,-2.34913,9.32,-0.99,0.33,2.0
1758087994.40374,1758087923.9893,0.0,0.0,0.0,17.99088,23.37668,-1.94806,9.17,-1.17,0.36,2.0
1758087994.40406,1758087923.9993,0.0,0.0,0.0,22.05888,20.22541,-0.74485,9.17,-1.17,0.36,2.0
1758087994.42253,1758087924.0093,0.0,0.0,0.0,27.04361,17.13144,0.97403,9.15,-1.64,0.01,2.0
1758087994.42374,1758087924.0193,0.0,0.0,0.0,32.88778,13.34992,2.92208,9.15,-1.64,0.01,2.0
1758087994.43876,1758087924.0293,0.0,0.0,0.0,40.62271,5.50039,4.81285,8.82,-2.13,-0.41,2.0
1758087994.44217,1758087924.0393,0.0,0.0,0.0,45.49285,-2.06265,5.09932,8.82,-2.13,-0.41,2.0
1758087994.4575,1758087924.0493,0.0,0.0,0.0,49.50356,-14.38124,4.29718,8.33,-2.24,-0.66,2.0
1758087994.46142,1758087924.0593,0.0,0.0,0.0,51.27972,-24.80907,2.29183,8.33,-2.24,-0.66,2.0
1758087994.51729,1758087924.0693,0.0,0.0,0.0,51.50891,-23.54857,-1.83346,8.42,-1.61,-1.15,2.0
1758087994.52222,1758087924.0793,0.0,0.0,0.0,50.2484,-11.17268,-3.32316,11.02,-0.82,-0.77,2.0
1758087994.5244,1758087924.0893,0.0,0.0,0.0,48.70141,1.71887,-3.09397,11.02,-0.82,-0.77,2.0
1758087994.52671,1758087924.0993,0.0,0.0,0.0,44.23235,6.53172,-2.92208,11.33,-0.24,0.66,2.0
1758087994.53136,1758087924.1093,0.0,0.0,0.0,41.08107,5.27121,-2.00535,11.33,-0.24,0.66,2.0
1758087994.53655,1758087924.1193,0.0,0.0,0.0,38.78925,2.06265,-0.51566,11.17,-0.12,1.1,2.0
1758087994.53688,1758087924.1293,0.0,0.0,0.0,36.38282,1.83346,-1.71887,11.17,-0.12,1.1,2.0
1758087994.55278,1758087924.1393,0.0,0.0,0.0,35.40879,-25.26744,-2.63561,11.23,-0.32,0.47,2.0
1758087994.55687,1758087924.1493,0.0,0.0,0.0,36.49741,-41.02378,0.34377,10.14,-0.6,0.19,2.0
1758087994.57281,1758087924.1593,0.0,0.0,0.0,38.1017,-47.09713,3.38045,10.14,-0.6,0.19,2.0
1758087994.57727,1758087924.1693,0.0,0.0,0.0,39.99245,-49.56085,5.72958,12.27,-0.99,1.12,2.0
1758087994.59289,1758087924.1793,0.0,0.0,0.0,40.96649,-45.55015,8.47978,12.27,-0.99,1.12,2.0
1758087994.59695,1758087924.1893,0.0,0.0,0.0,40.68,-38.84654,9.5684,13.47,-0.99,2.05,2.0
1758087994.61252,1758087924.1993,0.0,0.0,0.0,39.64868,-30.99702,10.02676,13.47,-0.99,2.05,2.0
1758087994.6169,1758087924.2093,0.0,0.0,0.0,37.52874,-25.21014,8.70896,13.81,-0.96,2.31,2.0
1758087994.63257,1758087924.2193,0.0,0.0,0.0,34.66395,-21.88699,5.55769,11.22,-0.75,1.42,2.0
1758087994.63691,1758087924.2293,0.0,0.0,0.0,33.68992,-18.85031,3.20856,11.22,-0.75,1.42,2.0
1758087994.65279,1758087924.2393,0.0,0.0,0.0,33.9764,-15.69904,0.45837,9.07,-0.22,0.86,2.0
1758087994.65692,1758087924.2493,0.0,0.0,0.0,36.49741,-12.89155,-1.03132,9.07,-0.22,0.86,2.0
1758087994.67519,1758087924.2593,0.0,0.0,0.0,43.14373,-9.62569,-0.68755,7.99,0.31,0.63,2.0
1758087994.67694,1758087924.2693,0.0,0.0,0.0,48.52953,-6.07335,1.20321,7.99,0.31,0.63,2.0
1758087994.69254,1758087924.2793,0.0,0.0,0.0,53.05589,-2.40642,3.49504,8.5,0.68,0.9,2.0
1758087994.69726,1758087924.2893,0.0,0.0,0.0,56.78012,0.68755,7.04738,8.5,0.68,0.9,2.0
1758087994.71255,1758087924.2993,0.0,0.0,0.0,58.55629,5.95876,8.76626,9.61,0.87,1.04,2.0
1758087994.71692,1758087924.3093,0.0,0.0,0.0,56.66553,9.22462,9.62569,10.77,0.84,1.47,2.0
1758087994.74055,1758087924.3193,0.0,0.0,0.0,52.9986,11.86023,9.33921,10.77,0.84,1.47,2.0
1758087994.74444,1758087924.3293,0.0,0.0,0.0,44.28964,15.46986,7.16197,11.26,0.76,1.66,2.0
1758087994.74632,1758087924.3393,0.0,0.0,0.0,37.75792,16.55848,5.09932,11.26,0.76,1.66,2.0
1758087994.76257,1758087924.3493,0.0,0.0,0.0,31.28349,17.47521,2.6929,10.95,1.04,1.63,2.0
1758087994.76732,1758087924.3593,0.0,0.0,0.0,25.8404,17.30333,0.51566,10.95,1.04,1.63,2.0
1758087994.78279,1758087924.3693,0.0,0.0,0.0,20.05352,16.84496,-2.29183,10.12,1.73,1.24,2.0
1758087994.78689,1758087924.3793,0.0,0.0,0.0,17.81899,17.01685,-3.60963,9.64,2.12,0.74,2.0
1758087994.80294,1758087924.3893,0.0,0.0,0.0,17.13144,17.13144,-4.52637,9.64,2.12,0.74,2.0
1758087994.80695,1758087924.3993,0.0,0.0,0.0,17.18874,16.272,-5.27121,9.21,1.7,0.39,2.0
1758087994.82261,1758087924.4093,0.0,0.0,0.0,18.73572,13.23533,-6.18794,9.21,1.7,0.39,2.0
1758087994.82727,1758087924.4193,0.0,0.0,0.0,20.05352,11.22997,-6.07335,8.78,0.88,0.35,2.0
1758087994.84283,1758087924.4293,0.0,0.0,0.0,21.6578,9.22462,-5.32851,8.78,0.88,0.35,2.0
1758087994.8473,1758087924.4393,0.0,0.0,0.0,22.86102,6.87549,-4.52637,8.84,0.31,0.64,2.0
1758087994.86259,1758087924.4493,0.0,0.0,0.0,23.0902,3.38045,-3.49504,8.9,0.17,1.0,2.0
1758087994.86376,1758087924.4593,0.0,0.0,0.0,22.74642,0.0,-3.38045,8.9,0.17,1.0,2.0
1758087994.87887,1758087924.4693,0.0,0.0,0.0,21.94428,-1.83346,-3.38045,8.94,0.43,0.96,2.0
1758087994.87976,1758087924.4793,0.0,0.0,0.0,20.79837,-2.23454,-3.66693,8.94,0.43,0.96,2.0
1758087994.89782,1758087924.4893,0.0,0.0,0.0,18.44924,-1.94806,-4.52637,9.36,0.77,0.87,2.0
1758087994.89963,1758087924.4993,0.0,0.0,0.0,17.18874,-2.7502,-4.58366,9.36,0.77,0.87,2.0
1758087994.91761,1758087924.5093,0.0,0.0,0.0,15.75634,-2.00535,-4.46907,9.55,0.87,0.73,2.0
1758087994.92147,1758087924.5193,0.0,0.0,0.0,14.43854,-1.83346,-4.23989,9.55,0.87,0.73,2.0
1758087994.93787,1758087924.5293,0.0,0.0,0.0,13.86558,-1.20321,-3.95341,9.89,0.71,0.66,2.0
1758087994.93988,1758087924.5393,0.0,0.0,0.0,13.23533,0.45837,-3.72423,10.12,0.5,0.55,2.0
1758087994.95753,1758087924.5493,0.0,0.0,0.0,12.71966,1.60428,-3.89611,10.12,0.5,0.55,2.0
1758087994.96199,1758087924.5593,0.0,0.0,0.0,12.14671,3.03668,-3.83882,10.13,0.42,0.54,2.0
1758087994.97759,1758087924.5693,0.0,0.0,0.0,11.57375,5.78687,-3.83882,10.13,0.42,0.54,2.0
1758087994.98202,1758087924.5793,0.0,0.0,0.0,11.17268,8.36518,-3.49504,10.31,0.47,0.53,2.0
1758087994.99755,1758087924.5893,0.0,0.0,0.0,10.31324,10.08406,-3.49504,10.31,0.47,0.53,2.0
1758087995.00297,1758087924.5993,0.0,0.0,0.0,9.05273,11.91752,-3.32316,10.0,0.53,0.59,2.0
1758087995.01858,1758087924.6093,0.0,0.0,0.0,8.0787,13.34992,-3.09397,9.79,0.55,0.5,2.0
1758087995.02407,1758087924.6193,0.0,0.0,0.0,7.33386,15.29797,-2.6929,9.79,0.55,0.5,2.0
1758087995.04203,1758087924.6293,0.0,0.0,0.0,6.58902,16.55848,-2.34913,9.66,0.51,0.36,2.0
1758087995.0432,1758087924.6393,0.0,0.0,0.0,6.07335,15.35527,-0.80214,9.66,0.51,0.36,2.0
1758087995.05862,1758087924.6493,0.0,0.0,0.0,5.50039,14.61043,0.40107,9.37,0.48,0.34,2.0
1758087995.06728,1758087924.6593,0.0,0.0,0.0,4.29718,15.24068,0.80214,9.37,0.48,0.34,2.0
1758087995.08263,1758087924.6693,0.0,0.0,0.0,2.86479,13.23533,0.74485,9.48,0.64,0.41,2.0
1758087995.08856,1758087924.6793,0.0,0.0,0.0,-0.45837,7.21927,0.97403,9.19,0.95,0.43,2.0
1758087995.09274,1758087924.6893,0.0,0.0,0.0,-3.60963,4.23989,0.74485,9.19,0.95,0.43,2.0
1758087995.11263,1758087924.6993,0.0,0.0,0.0,-7.44845,1.60428,0.34377,9.49,1.3,0.55,2.0
1758087995.11776,1758087924.7093,0.0,0.0,0.0,-14.03747,-0.85944,-0.85944,9.49,1.3,0.55,2.0
1758087995.13285,1758087924.7193,0.0,0.0,0.0,-18.56383,-3.95341,-1.71887,9.43,1.48,0.4,2.0
1758087995.13696,1758087924.7293,0.0,0.0,0.0,-22.91831,-4.64096,-3.03668,9.43,1.48,0.4,2.0
1758087995.15262,1758087924.7393,0.0,0.0,0.0,-26.24147,-7.96411,-3.95341,9.45,1.42,0.25,2.0
1758087995.2068,1758087924.7493,0.0,0.0,0.0,-29.39274,-16.55848,-4.52637,9.45,1.42,0.25,2.0
1758087995.20716,1758087924.7593,0.0,0.0,0.0,-30.59595,-19.99623,-4.98473,9.0,1.2,-0.21,2.0
1758087995.20914,1758087924.7693,0.0,0.0,0.0,-29.96569,-18.50654,-4.52637,9.57,0.87,-0.73,2.0
1758087995.21226,1758087924.7793,0.0,0.0,0.0,-29.10626,-16.90226,-3.72423,9.57,0.87,-0.73,2.0
1758087995.21684,1758087924.7893,0.0,0.0,0.0,-28.13223,-28.476,-1.43239,9.38,0.59,-0.26,2.0
1758087995.21716,1758087924.7993,0.0,0.0,0.0,-30.02299,-42.68536,-1.3178,9.38,0.59,-0.26,2.0
1758087995.21867,1758087924.8093,0.0,0.0,0.0,-30.82513,-33.63263,-0.97403,8.8,0.54,-0.41,2.0
1758087995.22063,1758087924.8193,0.0,0.0,0.0,-34.37747,-16.272,-3.55234,8.8,0.54,-0.41,2.0
1758087995.23796,1758087924.8293,0.0,0.0,0.0,-38.84654,-8.93814,-4.35448,11.92,0.78,-0.7,2.0
1758087995.24325,1758087924.8393,0.0,0.0,0.0,-39.82057,-11.51645,-3.38045,9.65,0.96,0.61,2.0
1758087995.25766,1758087924.8493,0.0,0.0,0.0,-40.96649,-10.8289,-2.63561,9.65,0.96,0.61,2.0
1758087995.28124,1758087924.8593,0.0,0.0,0.0,-40.85189,-4.64096,-0.74485,10.45,0.67,-0.18,2.0
1758087995.30293,1758087924.8693,0.0,0.0,0.0,-39.01843,4.87014,3.20856,10.45,0.67,-0.18,2.0
1758087995.30394,1758087924.8793,0.0,0.0,0.0,-37.01308,9.22462,5.84417,11.05,0.0,-0.38,2.0
1758087995.3067,1758087924.8893,0.0,0.0,0.0,-34.66395,9.11003,7.10468,11.05,0.0,-0.38,2.0
1758087995.30705,1758087924.8993,0.0,0.0,0.0,-31.74186,6.18794,7.10468,11.17,-0.74,0.44,2.0
1758087995.32263,1758087924.9093,0.0,0.0,0.0,-26.41335,2.40642,5.61499,11.58,-1.16,0.25,2.0
1758087995.32628,1758087924.9193,0.0,0.0,0.0,-23.37668,-0.51566,3.60963,11.58,-1.16,0.25,2.0
1758087995.34199,1758087924.9293,0.0,0.0,0.0,-21.02755,-4.1253,1.08862,11.97,-0.89,0.18,2.0
1758087995.34278,1758087924.9393,0.0,0.0,0.0,-18.62113,-8.93814,-2.00535,11.97,-0.89,0.18,2.0
1758087995.35787,1758087924.9493,0.0,0.0,0.0,-17.87628,-10.71431,-4.1253,12.27,-0.16,0.4,2.0
1758087995.35958,1758087924.9593,0.0,0.0,0.0,-17.13144,-11.57375,-5.32851,12.27,-0.16,0.4,2.0
1758087995.45243,1758087924.9693,0.0,0.0,0.0,-16.272,-12.2613,-6.18794,12.45,0.46,0.55,2.0
1758087995.46085,1758087924.9793,0.0,0.0,0.0,-14.78231,-15.29797,-5.78687,11.59,0.46,0.4,2.0
1758087995.46281,1758087924.9893,0.0,0.0,0.0,-14.61043,-17.76169,-4.92744,11.59,0.75,0.4,2.0
1758087995.46636,1758087924.9993,0.0,0.0,0.0,-14.78231,-17.99088,-3.49504,10.08,0.89,-0.41,2.0
1758087995.46728,1758087925.0093,0.0,0.0,0.0,-15.12609,-17.53251,-1.60428,10.08,0.89,-0.41,2.0
1758087995.47097,1758087925.0193,0.0,0.0,0.0,-15.92823,-19.13679,1.3178,8.78,0.85,-0.69,2.0
1758087995.47131,1758087925.0293,0.0,0.0,0.0,-16.67307,-20.3973,2.57831,8.78,0.85,-0.69,2.0
1758087995.47235,1758087925.0393,0.0,0.0,0.0,-17.58981,-21.25674,2.86479,8.25,0.65,-0.12,2.0
1758087995.47741,1758087925.0493,0.0,0.0,0.0,-18.79302,-22.11617,2.00535,8.25,0.65,-0.12,2.0
1758087995.47783,1758087925.0593,0.0,0.0,0.0,-20.11082,-22.97561,-0.45837,8.57,0.26,0.62,2.0
1758087995.48694,1758087925.0693,0.0,0.0,0.0,-20.16812,-23.0329,-2.57831,9.07,-0.32,1.65,2.0
1758087995.48941,1758087925.0793,0.0,0.0,0.0,-20.11082,-23.0329,-4.81285,9.07,-0.32,1.65,2.0
1758087995.63754,1758087925.0893,0.0,0.0,0.0,-19.42327,-22.63183,-6.7609,9.61,-0.95,2.33,2.0
1758087995.64244,1758087925.0993,0.0,0.0,0.0,-17.53251,-20.62648,-8.93814,9.61,-0.95,2.33,2.0
1758087995.64765,1758087925.1093,0.0,0.0,0.0,-15.87093,-17.76169,-9.39651,10.45,-1.35,2.28,2.0
1758087995.64801,1758087925.1193,0.0,0.0,0.0,-14.20935,-13.5791,-9.22462,10.45,-1.35,2.28,2.0
1758087995.65241,1758087925.1293,0.0,0.0,0.0,-11.22997,-7.50575,-6.41713,11.24,-1.29,1.71,2.0
1758087995.65657,1758087925.1393,0.0,0.0,0.0,-9.28192,-3.49504,-3.09397,11.3,-0.87,1.24,2.0
1758087995.65752,1758087925.1493,0.0,0.0,0.0,-7.33386,0.22918,0.45837,11.3,-0.87,1.24,2.0
1758087995.65814,1758087925.1593,0.0,0.0,0.0,-5.21392,4.18259,3.55234,11.16,-0.8,0.72,2.0
1758087995.65937,1758087925.1693,0.0,0.0,0.0,-1.94806,11.91752,5.95876,11.16,-0.8,0.72,2.0
1758087995.65999,1758087925.1793,0.0,0.0,0.0,0.17189,16.55848,6.35983,10.99,-1.02,-0.06,2.0
1758087995.66155,1758087925.1893,0.0,0.0,0.0,2.00535,19.13679,6.18794,10.99,-1.02,-0.06,2.0
1758087995.66272,1758087925.1993,0.0,0.0,0.0,3.03668,19.88164,5.61499,10.34,-0.99,-0.24,2.0
1758087995.66423,1758087925.2093,0.0,0.0,0.0,4.18259,20.16812,4.92744,10.0,-0.66,-0.27,2.0
1758087995.66725,1758087925.2193,0.0,0.0,0.0,4.23989,20.05352,4.81285,10.0,-0.66,-0.27,2.0
1758087995.66762,1758087925.2293,0.0,0.0,0.0,3.83882,19.76705,4.98473,9.92,-0.29,-0.16,2.0
1758087995.67142,1758087925.2393,0.0,0.0,0.0,3.03668,19.59516,5.4431,9.92,-0.29,-0.16,2.0
1758087995.67188,1758087925.2493,0.0,0.0,0.0,1.66158,19.07949,5.61499,9.64,-0.11,0.15,2.0
1758087995.67648,1758087925.2593,0.0,0.0,0.0,0.74485,17.93358,5.78687,9.64,-0.11,0.15,2.0
1758087995.67681,1758087925.2693,0.0,0.0,0.0,0.0,15.69904,5.4431,9.21,-0.14,0.27,2.0
1758087995.69665,1758087925.2793,0.0,0.0,0.0,-0.68755,12.43318,4.58366,9.21,-0.14,0.27,2.0
1758087995.7222,1758087925.2893,0.0,0.0,0.0,-1.14592,8.25059,2.7502,8.96,-0.31,0.22,2.0
1758087995.72544,1758087925.2993,0.0,0.0,0.0,-0.74485,5.72958,1.08862,9.18,-0.55,0.09,2.0
1758087995.77883,1758087925.3093,0.0,0.0,0.0,0.51566,3.55234,0.17189,9.18,-0.55,0.09,2.0
1758087995.78154,1758087925.3193,0.0,0.0,0.0,3.83882,1.83346,-0.45837,9.39,-0.86,0.11,2.0
1758087995.78707,1758087925.3293,0.0,0.0,0.0,6.87549,0.97403,0.45837,9.39,-0.86,0.11,2.0
1758087995.78741,1758087925.3393,0.0,0.0,0.0,9.85487,0.17189,1.48969,9.47,-1.23,0.02,2.0
1758087995.79752,1758087925.3493,0.0,0.0,0.0,12.71966,-0.57296,2.57831,9.47,-1.23,0.02,2.0
1758087995.79996,1758087925.3593,0.0,0.0,0.0,16.3293,-0.22918,4.18259,9.4,-1.4,-0.08,2.0
1758087995.80331,1758087925.3693,0.0,0.0,0.0,17.81899,0.74485,4.69825,9.58,-1.11,-0.23,2.0
1758087995.80701,1758087925.3793,0.0,0.0,0.0,18.73572,2.23454,4.64096,9.58,-1.11,-0.23,2.0
1758087995.80825,1758087925.3893,0.0,0.0,0.0,19.53786,3.20856,4.1253,9.67,-0.71,-0.36,2.0
1758087995.8113,1758087925.3993,0.0,0.0,0.0,20.05352,5.27121,3.03668,9.67,-0.71,-0.36,2.0
1758087995.8124,1758087925.4093,0.0,0.0,0.0,20.3973,7.84952,2.23454,9.75,-0.51,-0.48,2.0
1758087995.83079,1758087925.4193,0.0,0.0,0.0,20.79837,11.17268,1.83346,9.75,-0.51,-0.48,2.0
1758087995.8319,1758087925.4293,0.0,0.0,0.0,21.31403,15.06879,1.43239,9.93,-0.57,-0.56,2.0
1758087995.84777,1758087925.4393,0.0,0.0,0.0,22.28806,23.0902,1.08862,10.08,-0.81,-0.4,2.0
1758087995.84898,1758087925.4493,0.0,0.0,0.0,22.97561,27.61657,1.14592,10.08,-0.81,-0.4,2.0
1758087995.86651,1758087925.4593,0.0,0.0,0.0,23.31938,29.27814,1.03132,9.74,-0.91,-0.16,2.0
1758087995.88305,1758087925.4693,0.0,0.0,0.0,23.72045,29.10626,0.97403,9.74,-0.91,-0.16,2.0
1758087995.88903,1758087925.4793,0.0,0.0,0.0,24.4653,27.33009,0.40107,9.33,-0.91,-0.12,2.0
1758087995.8925,1758087925.4893,0.0,0.0,0.0,25.26744,23.37668,0.17189,9.33,-0.91,-0.12,2.0
1758087995.91299,1758087925.4993,0.0,0.0,0.0,26.69983,19.19409,0.34377,8.98,-0.91,-0.39,2.0
1758087995.92119,1758087925.5093,0.0,0.0,0.0,29.33544,15.0115,0.45837,8.98,-0.91,-0.39,2.0
1758087995.92171,1758087925.5193,0.0,0.0,0.0,31.74186,8.02141,0.80214,8.95,-0.99,-0.79,2.0
1758087995.93795,1758087925.5293,0.0,0.0,0.0,34.60666,2.7502,0.97403,8.78,-1.21,-0.73,2.0
1758087995.94046,1758087925.5393,0.0,0.0,0.0,38.50277,-3.60963,1.60428,8.78,-1.21,-0.73,2.0
1758087995.98201,1758087925.5493,0.0,0.0,0.0,45.55015,-13.40721,3.66693,8.44,-1.54,-0.52,2.0
1758087996.00222,1758087925.5593,0.0,0.0,0.0,50.1911,-19.59516,5.27121,8.44,-1.54,-0.52,2.0
1758087996.00714,1758087925.5693,0.0,0.0,0.0,53.91533,-26.35606,7.16197,8.44,-1.86,-0.58,2.0
1758087996.05224,1758087925.5793,0.0,0.0,0.0,56.03527,-32.88778,8.02141,8.44,-1.86,-0.58,2.0
1758087996.0569,1758087925.5893,0.0,0.0,0.0,56.60823,-32.20023,8.136,8.86,-1.72,-0.6,2.0
1758087996.05847,1758087925.5993,0.0,0.0,0.0,56.49364,-28.64789,7.39116,9.78,-1.24,-0.29,2.0
1758087996.06191,1758087925.6093,0.0,0.0,0.0,56.60823,-24.12152,6.58902,9.78,-1.24,-0.29,2.0
1758087996.06267,1758087925.6193,0.0,0.0,0.0,57.92604,-18.62113,7.10468,10.77,-0.67,0.61,2.0
1758087996.0718,1758087925.6293,0.0,0.0,0.0,59.87409,-7.67763,7.50575,10.77,-0.67,0.61,2.0
1758087996.07248,1758087925.6393,0.0,0.0,0.0,62.33781,-4.46907,8.70896,12.4,-0.14,1.78,2.0
1758087996.07758,1758087925.6493,0.0,0.0,0.0,64.57235,-14.49583,6.07335,12.4,-0.14,1.78,2.0
1758087996.08009,1758087925.6593,0.0,0.0,0.0,70.41652,-41.31026,10.08406,11.16,0.18,2.9,2.0
1758087996.0818,1758087925.6693,0.0,0.0,0.0,75.05748,-59.07195,14.78231,12.98,-0.21,1.77,2.0
1758087996.08255,1758087925.6793,0.0,0.0,0.0,76.1461,-50.363,17.36062,12.98,-0.21,1.77,2.0
1758087996.10177,1758087925.6893,0.0,0.0,0.0,75.22936,-41.36755,17.93358,14.9,-0.73,1.21,2.0
1758087996.10464,1758087925.6993,0.0,0.0,0.0,73.96885,-36.7266,14.83961,14.9,-0.73,1.21,2.0
1758087996.12212,1758087925.7093,0.0,0.0,0.0,70.93218,-30.48136,11.17268,11.42,-0.66,1.66,2.0
1758087996.12598,1758087925.7193,0.0,0.0,0.0,70.30193,-25.8404,6.41713,11.42,-0.66,1.66,2.0
1758087996.14177,1758087925.7293,0.0,0.0,0.0,71.50513,-20.45459,2.7502,9.9,-0.04,1.2,2.0
1758087996.14299,1758087925.7393,0.0,0.0,0.0,74.94289,-9.4538,-0.34377,9.9,-0.04,1.2,2.0
1758087996.15774,1758087925.7493,0.0,0.0,0.0,77.80767,-2.29183,-0.74485,9.89,0.92,0.49,2.0
1758087996.17776,1758087925.7593,0.0,0.0,0.0,79.92762,5.4431,-0.11459,10.51,1.68,-0.02,2.0
1758087996.1822,1758087925.7693,0.0,0.0,0.0,80.90164,12.37589,2.00535,10.51,1.68,-0.02,2.0
1758087996.18275,1758087925.7793,0.0,0.0,0.0,79.69843,18.79302,5.84417,11.24,1.94,-0.09,2.0
1758087996.20277,1758087925.7893,0.0,0.0,0.0,76.83365,21.37133,7.73493,11.24,1.94,-0.09,2.0
1758087996.21143,1758087925.7993,0.0,0.0,0.0,72.76565,23.72045,8.59437,11.19,1.57,0.07,2.0
1758087996.21178,1758087925.8093,0.0,0.0,0.0,68.52576,25.61122,7.73493,11.19,1.57,0.07,2.0
1758087996.23201,1758087925.8193,0.0,0.0,0.0,62.96807,28.59059,4.69825,10.53,1.08,0.29,2.0
1758087996.25722,1758087925.8293,0.0,0.0,0.0,59.98868,29.73651,1.66158,9.99,1.17,0.64,2.0
1758087996.25786,1758087925.8393,0.0,0.0,0.0,57.81144,29.62192,-1.14592,9.99,1.17,0.64,2.0
1758087996.25996,1758087925.8493,0.0,0.0,0.0,56.83742,28.70519,-3.38045,9.53,1.43,0.51,2.0
1758087996.26089,1758087925.8593,0.0,0.0,0.0,56.49364,28.59059,-5.55769,9.53,1.43,0.51,2.0
1758087996.27686,1758087925.8693,0.0,0.0,0.0,56.55093,27.84575,-5.61499,9.35,1.36,-0.08,2.0
1758087996.29306,1758087925.8793,0.0,0.0,0.0,56.83742,25.8404,-4.58366,9.35,1.36,-0.08,2.0
1758087996.29758,1758087925.8893,0.0,0.0,0.0,57.29578,23.0902,-3.09397,9.06,1.03,0.1,2.0
1758087996.31279,1758087925.8993,0.0,0.0,0.0,57.81144,18.9649,-1.66158,8.96,0.76,-0.09,2.0
1758087996.31874,1758087925.9093,0.0,0.0,0.0,58.3844,16.90226,-0.80214,8.96,0.76,-0.09,2.0
1758087996.32045,1758087925.9193,0.0,0.0,0.0,58.72818,15.06879,-0.51566,9.07,0.64,-0.01,2.0
1758087996.33775,1758087925.9293,0.0,0.0,0.0,59.64491,10.8289,-0.34377,9.07,0.64,-0.01,2.0
1758087996.34087,1758087925.9393,0.0,0.0,0.0,60.10328,8.36518,-0.0573,9.0,0.66,-0.02,2.0
1758087996.35707,1758087925.9493,0.0,0.0,0.0,60.38975,6.13065,0.0,9.0,0.66,-0.02,2.0
1758087996.3728,1758087925.9593,0.0,0.0,0.0,60.67623,4.0107,0.11459,9.13,0.75,-0.02,2.0
1758087996.37719,1758087925.9693,0.0,0.0,0.0,60.73353,2.11994,0.68755,9.13,0.75,-0.02,2.0
1758087996.39278,1758087925.9793,0.0,0.0,0.0,60.96271,0.97403,1.20321,9.35,0.85,-0.07,2.0
1758087996.4175,1758087925.9893,0.0,0.0,0.0,60.79083,0.51566,1.71887,9.56,0.93,0.04,2.0
1758087996.41812,1758087925.9993,0.0,0.0,0.0,60.44705,1.3751,2.29183,9.56,0.93,0.04,2.0
1758087996.42178,1758087926.0093,0.0,0.0,0.0,59.87409,3.60963,2.97938,9.85,0.97,0.28,2.0
1758087996.42237,1758087926.0193,0.0,0.0,0.0,59.12925,5.21392,3.38045,9.85,0.97,0.28,2.0
1758087996.44204,1758087926.0293,0.0,0.0,0.0,57.92604,6.58902,3.72423,9.92,0.97,0.57,2.0
1758087996.44295,1758087926.0393,0.0,0.0,0.0,56.37905,8.70896,3.72423,9.92,0.97,0.57,2.0
1758087996.46005,1758087926.0493,0.0,0.0,0.0,53.39967,13.12073,3.95341,10.08,0.99,0.58,2.0
1758087996.46258,1758087926.0593,0.0,0.0,0.0,51.10783,16.3293,3.89611,10.21,1.0,0.37,2.0
1758087996.47779,1758087926.0693,0.0,0.0,0.0,48.58683,19.13679,4.0107,10.21,1.0,0.37,2.0
1758087996.479,1758087926.0793,0.0,0.0,0.0,46.1231,22.28806,4.58366,10.09,0.95,0.14,2.0
1758087996.49695,1758087926.0893,0.0,0.0,0.0,42.51347,23.49127,5.78687,10.09,0.95,0.14,2.0
1758087996.51282,1758087926.0993,0.0,0.0,0.0,40.27893,19.53786,6.87549,9.55,0.86,-0.11,2.0
1758087996.51894,1758087926.1093,0.0,0.0,0.0,37.35685,16.21471,7.84952,9.55,0.86,-0.11,2.0
1758087996.52129,1758087926.1193,0.0,0.0,0.0,32.6013,13.69369,8.65166,9.22,0.96,-0.39,2.0
1758087996.584,1758087926.1293,0.0,0.0,0.0,28.76248,12.43318,8.0787,9.36,1.34,-0.64,2.0
1758087996.59004,1758087926.1393,0.0,0.0,0.0,24.4653,11.51645,6.87549,9.36,1.34,-0.64,2.0
1758087996.59308,1758087926.1493,0.0,0.0,0.0,19.70975,11.11538,5.32851,9.22,1.83,-0.56,2.0
1758087996.65637,1758087926.1593,0.0,0.0,0.0,13.46451,8.02141,3.95341,9.22,1.83,-0.56,2.0
1758087996.65765,1758087926.1693,0.0,0.0,0.0,10.25595,3.20856,3.38045,9.03,2.05,-0.6,2.0
1758087996.66209,1758087926.1793,0.0,0.0,0.0,7.79223,-1.3178,2.86479,9.03,2.05,-0.6,2.0
1758087996.66272,1758087926.1893,0.0,0.0,0.0,6.99009,-3.03668,3.26586,8.9,1.9,-0.82,2.0
1758087996.66477,1758087926.1993,0.0,0.0,0.0,7.73493,-2.57831,4.0107,9.21,1.9,-0.82,2.0
1758087996.66696,1758087926.2093,0.0,0.0,0.0,8.42248,-7.96411,5.27121,9.21,1.4,-0.82,2.0
1758087996.66771,1758087926.2193,0.0,0.0,0.0,9.33921,-20.85567,5.72958,8.0,1.0,-0.67,2.0
1758087996.67546,1758087926.2293,0.0,0.0,0.0,8.47978,-36.49741,4.98473,8.0,1.0,-0.67,2.0
1758087996.67796,1758087926.2393,0.0,0.0,0.0,7.33386,-21.14215,4.69825,9.08,0.99,-1.2,2.0
1758087996.68181,1758087926.24929,0.0,0.0,0.0,2.6929,-4.46907,2.40642,9.08,0.99,-1.2,2.0
1758087996.68258,1758087926.25929,0.0,0.0,0.0,-1.71887,-3.49504,1.03132,11.36,1.49,-0.39,2.0
1758087996.68802,1758087926.26929,0.0,0.0,0.0,-4.46907,-7.84952,0.57296,11.36,1.49,-0.39,2.0
1758087996.68906,1758087926.27929,0.0,0.0,0.0,-9.62569,-4.46907,1.77617,9.13,1.68,0.06,2.0
1758087996.6923,1758087926.28929,0.0,0.0,0.0,-11.11538,2.97938,4.69825,10.73,1.8,-0.66,2.0
1758087996.70684,1758087926.29929,0.0,0.0,0.0,-11.91752,6.8182,9.11003,10.73,1.8,-0.66,2.0
1758087996.71195,1758087926.30929,0.0,0.0,0.0,-12.204,6.24524,14.9542,10.7,1.34,0.32,2.0
1758087996.73024,1758087926.31929,0.0,0.0,0.0,-11.22997,-0.45837,17.18874,10.7,1.34,0.32,2.0
1758087996.79124,1758087926.32929,0.0,0.0,0.0,-8.93814,-6.53172,17.47521,11.89,0.52,1.24,2.0
1758087996.79266,1758087926.33929,0.0,0.0,0.0,-5.84417,-13.80828,14.66772,11.89,0.52,1.24,2.0
1758087996.79709,1758087926.34929,0.0,0.0,0.0,0.85944,-22.11617,6.87549,14.13,-0.5,1.96,2.0
1758087996.79774,1758087926.35929,0.0,0.0,0.0,5.55769,-26.41335,0.45837,15.15,-1.44,2.11,2.0
1758087996.80375,1758087926.36929,0.0,0.0,0.0,9.11003,-28.41871,-5.15662,15.15,-1.44,2.11,2.0
1758087996.8052,1758087926.37929,0.0,0.0,0.0,11.80293,-23.49127,-6.99009,13.32,-1.02,0.88,2.0
1758087996.80591,1758087926.38929,0.0,0.0,0.0,14.20935,-16.95955,-3.89611,13.32,-1.02,0.88,2.0
1758087996.80697,1758087926.39929,0.0,0.0,0.0,14.9542,-14.9542,-0.45837,10.21,0.19,-0.1,2.0
1758087996.80905,1758087926.40929,0.0,0.0,0.0,14.72501,-14.43854,3.20856,10.21,0.19,-0.1,2.0
1758087996.82582,1758087926.41929,0.0,0.0,0.0,13.12073,-15.64175,6.07335,8.38,1.08,0.3,2.0
1758087996.84196,1758087926.42929,0.0,0.0,0.0,8.25059,-17.93358,8.0787,8.09,1.23,0.97,2.0
1758087996.84336,1758087926.43929,0.0,0.0,0.0,3.89611,-18.9649,7.50575,8.09,1.23,0.97,2.0
1758087996.86089,1758087926.44929,0.0,0.0,0.0,-2.7502,-20.34,6.35983,8.9,0.44,2.02,2.0
1758087996.86186,1758087926.45929,0.0,0.0,0.0,-3.32316,-18.62113,4.29718,8.9,0.44,2.02,2.0
1758087996.89912,1758087926.46929,0.0,0.0,0.0,-5.84417,-14.72501,0.57296,10.48,-0.87,2.44,2.0
1758087996.9016,1758087926.47929,0.0,0.0,0.0,-5.90147,-11.57375,-1.3178,10.48,-0.87,2.44,2.0
1758087996.90255,1758087926.48929,0.0,0.0,0.0,-4.23989,-9.33921,-1.94806,11.85,-1.93,2.52,2.0
1758087996.90378,1758087926.49929,0.0,0.0,0.0,-1.3178,-8.36518,-1.3751,11.85,-1.93,2.52,2.0
1758087996.91918,1758087926.50929,0.0,0.0,0.0,4.81285,-6.7609,1.20321,11.53,-2.21,2.18,2.0
1758087996.92165,1758087926.51929,0.0,0.0,0.0,9.5684,-3.26586,3.20856,10.6,-1.78,1.18,2.0
1758087996.93717,1758087926.52929,0.0,0.0,0.0,13.5791,1.20321,4.87014,10.6,-1.78,1.18,2.0
1758087996.9555,1758087926.53929,0.0,0.0,0.0,19.19409,7.67763,6.35983,10.1,-1.25,0.54,2.0
1758087996.95803,1758087926.54929,0.0,0.0,0.0,21.88699,9.96947,7.39116,10.1,-1.25,0.54,2.0
1758087996.95982,1758087926.55929,0.0,0.0,0.0,23.54857,12.08941,7.79223,9.8,-1.1,0.39,2.0
1758087996.97721,1758087926.56929,0.0,0.0,0.0,24.5226,15.0115,8.0787,9.8,-1.1,0.39,2.0
1758087996.99545,1758087926.57929,0.0,0.0,0.0,24.86637,15.75634,8.136,9.9,-1.11,0.55,2.0
1758087996.99886,1758087926.58929,0.0,0.0,0.0,24.4653,14.9542,8.136,9.3,-0.95,0.57,2.0
1758087996.99945,1758087926.59929,0.0,0.0,0.0,23.37668,13.80828,7.84952,9.3,-0.95,0.57,2.0
1758087997.01717,1758087926.60929,0.0,0.0,0.0,22.05888,12.83425,7.39116,9.0,-0.71,0.52,2.0
1758087997.03713,1758087926.61929,0.0,0.0,0.0,19.88164,9.11003,6.35983,9.0,-0.71,0.52,2.0
1758087997.03999,1758087926.62929,0.0,0.0,0.0,18.56383,5.55769,5.4431,8.6,-0.5,0.51,2.0
1758087997.04198,1758087926.63929,0.0,0.0,0.0,17.36062,4.0107,4.35448,8.6,-0.5,0.51,2.0
1758087997.05805,1758087926.64929,0.0,0.0,0.0,16.67307,2.92208,2.92208,8.84,-0.43,0.5,2.0
1758087997.07625,1758087926.65929,0.0,0.0,0.0,17.18874,-1.83346,1.66158,8.9,-0.51,0.49,2.0
1758087997.07766,1758087926.66929,0.0,0.0,0.0,18.44924,-2.29183,1.48969,8.9,-0.51,0.49,2.0
1758087997.09548,1758087926.67929,0.0,0.0,0.0,21.14215,-1.60428,2.23454,9.49,-0.88,0.59,2.0
1758087997.09728,1758087926.68929,0.0,0.0,0.0,23.66316,-0.51566,2.97938,9.49,-0.88,0.59,2.0
1758087997.11549,1758087926.69929,0.0,0.0,0.0,26.87172,2.06265,3.89611,9.54,-1.09,0.43,2.0
1758087997.1173,1758087926.70929,0.0,0.0,0.0,28.24682,2.97938,4.18259,9.54,-1.09,0.43,2.0
1758087997.13522,1758087926.71929,0.0,0.0,0.0,29.04896,3.89611,4.1253,9.33,-0.81,0.05,2.0
1758087997.13729,1758087926.72929,0.0,0.0,0.0,29.22085,4.98473,3.66693,9.33,-0.81,0.05,2.0
1758087997.18041,1758087926.73929,0.0,0.0,0.0,28.41871,6.24524,2.92208,9.32,-0.53,-0.14,2.0
1758087997.18168,1758087926.74929,0.0,0.0,0.0,27.61657,7.50575,2.46372,9.28,-0.38,-0.22,2.0
1758087997.18226,1758087926.75929,0.0,0.0,0.0,26.52795,8.88085,1.83346,9.28,-0.38,-0.22,2.0
1758087997.1854,1758087926.76929,0.0,0.0,0.0,24.63719,9.85487,1.43239,9.24,-0.41,-0.14,2.0
1758087997.18761,1758087926.77929,0.0,0.0,0.0,23.72045,12.37589,1.3178,9.24,-0.41,-0.14,2.0
1758087997.20319,1758087926.78929,0.0,0.0,0.0,23.0329,14.38124,1.60428,9.43,-0.52,-0.12,2.0
1758087997.2044,1758087926.79929,0.0,0.0,0.0,22.57454,15.35527,1.77617,9.43,-0.52,-0.12,2.0
1758087997.22082,1758087926.80929,0.0,0.0,0.0,21.6578,18.50654,1.66158,9.3,-0.63,-0.2,2.0
1758087997.22253,1758087926.81929,0.0,0.0,0.0,21.02755,23.26209,1.3178,9.59,-0.67,-0.38,2.0
1758087997.23793,1758087926.82929,0.0,0.0,0.0,20.62648,28.41871,0.74485,9.59,-0.67,-0.38,2.0
1758087997.24419,1758087926.83929,0.0,0.0,0.0,20.3973,32.37212,0.22918,9.7,-0.68,-0.17,2.0
1758087997.26211,1758087926.84929,0.0,0.0,0.0,20.68378,35.40879,0.0573,9.7,-0.68,-0.17,2.0
1758087997.3618,1758087926.85929,0.0,0.0,0.0,21.7151,34.43476,0.80214,9.66,-0.84,0.33,2.0
1758087997.36243,1758087926.86929,0.0,0.0,0.0,23.60586,31.2262,1.94806,9.66,-0.84,0.33,2.0
1758087997.36679,1758087926.87929,0.0,0.0,0.0,26.06958,27.1582,3.26586,9.58,-1.13,0.42,2.0
1758087997.36777,1758087926.88929,0.0,0.0,0.0,30.48136,18.79302,4.58366,9.34,-1.45,0.0,2.0
1758087997.36875,1758087926.89929,0.0,0.0,0.0,33.23156,7.16197,5.15662,9.34,-1.45,0.0,2.0
1758087997.36931,1758087926.90929,0.0,0.0,0.0,34.49206,-7.50575,4.46907,7.98,-1.46,-0.48,2.0
1758087997.3717,1758087926.91929,0.0,0.0,0.0,34.95043,-17.53251,0.0,7.98,-1.46,-0.48,2.0
1758087997.37706,1758087926.92929,0.0,0.0,0.0,36.7266,-6.99009,-1.08862,9.15,-1.05,-1.08,2.0
1758087997.37757,1758087926.93929,0.0,0.0,0.0,37.92981,7.39116,-2.00535,9.15,-1.05,-1.08,2.0
1758087997.40721,1758087926.94929,0.0,0.0,0.0,37.92981,15.98552,-2.46372,11.28,-0.96,0.51,2.0
1758087997.41237,1758087926.95929,0.0,0.0,0.0,38.1017,7.79223,-3.83882,11.28,-0.96,0.51,2.0
1758087997.41657,1758087926.96929,0.0,0.0,0.0,37.24226,-4.0107,-6.8182,9.91,-0.77,1.38,2.0
1758087997.41695,1758087926.97929,0.0,0.0,0.0,38.21629,-29.10626,-5.84417,8.84,-0.63,0.55,2.0
1758087997.4181,1758087926.98929,0.0,0.0,0.0,38.38818,-44.11775,-3.83882,8.84,-0.63,0.55,2.0
1758087997.4191,1758087926.99929,0.0,0.0,0.0,36.89849,-37.12767,-2.34913,11.63,-0.94,-0.93,2.0
1758087997.42,1758087927.00929,0.0,0.0,0.0,36.21093,-28.59059,-2.46372,11.63,-0.94,-0.93,2.0
1758087997.42142,1758087927.01929,0.0,0.0,0.0,35.52338,-23.49127,-2.97938,12.74,-0.82,-0.69,2.0
1758087997.4372,1758087927.02929,0.0,0.0,0.0,34.49206,-20.74107,-3.03668,12.74,-0.82,-0.69,2.0
1758087997.45773,1758087927.03929,0.0,0.0,0.0,33.05967,-20.97026,-1.3751,11.75,-0.57,0.85,2.0
1758087997.46211,1758087927.04929,0.0,0.0,0.0,31.85646,-23.66316,0.34377,11.96,-0.24,1.83,2.0
1758087997.46273,1758087927.05929,0.0,0.0,0.0,30.13758,-25.43933,2.7502,11.96,-0.24,1.83,2.0
1758087997.47895,1758087927.06929,0.0,0.0,0.0,27.61657,-25.21014,4.52637,12.63,-0.06,2.05,2.0
1758087997.48187,1758087927.07929,0.0,0.0,0.0,24.75178,-24.17882,5.90147,12.63,-0.06,2.05,2.0
1758087997.49717,1758087927.08929,0.0,0.0,0.0,23.0902,-24.57989,5.72958,11.49,-0.1,2.19,2.0
1758087997.51718,1758087927.09929,0.0,0.0,0.0,22.68913,-24.35071,5.4431,11.49,-0.1,2.19,2.0
1758087997.51843,1758087927.10929,0.0,0.0,0.0,23.49127,-22.63183,5.72958,10.38,-0.1,2.16,2.0
1758087997.53723,1758087927.11929,0.0,0.0,0.0,26.52795,-17.01685,6.41713,10.24,-0.18,2.28,2.0
1758087997.53806,1758087927.12929,0.0,0.0,0.0,29.27814,-12.49048,6.53172,10.24,-0.18,2.28,2.0
1758087997.55564,1758087927.13929,0.0,0.0,0.0,32.42941,-9.39651,6.70361,10.16,-0.32,2.58,2.0
1758087997.5592,1758087927.14929,0.0,0.0,0.0,36.84119,-7.50575,6.53172,10.16,-0.32,2.58,2.0
1758087997.55954,1758087927.15929,0.0,0.0,0.0,39.01843,-4.98473,6.13065,10.59,-0.33,2.24,2.0
1758087997.57906,1758087927.16929,0.0,0.0,0.0,39.53409,-1.08862,5.09932,10.59,-0.33,2.24,2.0
1758087997.58312,1758087927.17929,0.0,0.0,0.0,38.61736,3.83882,4.0107,11.39,-0.1,1.88,2.0
1758087997.59885,1758087927.18929,0.0,0.0,0.0,35.52338,7.67763,2.00535,11.39,-0.1,1.61,2.0
1758087997.59996,1758087927.19929,0.0,0.0,0.0,32.88778,9.5684,0.68755,10.9,0.34,1.61,2.0
1758087997.61579,1758087927.20929,0.0,0.0,0.0,30.88243,11.22997,0.0,10.23,0.67,1.5,2.0
1758087997.63224,1758087927.21929,0.0,0.0,0.0,28.93437,12.71966,-0.40107,10.23,0.67,1.5,2.0
1758087997.63634,1758087927.22929,0.0,0.0,0.0,27.10091,13.17803,-0.68755,9.52,0.81,1.03,2.0
1758087997.65197,1758087927.23929,0.0,0.0,0.0,26.47065,12.204,-0.57296,9.52,0.81,1.03,2.0
1758087997.6567,1758087927.24929,0.0,0.0,0.0,26.18417,11.17268,-1.08862,8.99,0.74,0.97,2.0
1758087997.67225,1758087927.25929,0.0,0.0,0.0,26.18417,9.62569,-1.83346,8.99,0.74,0.97,2.0
1758087997.6766,1758087927.26929,0.0,0.0,0.0,26.12688,6.41713,-2.92208,8.72,0.49,0.9,2.0
1758087997.69199,1758087927.27929,0.0,0.0,0.0,26.18417,4.46907,-3.38045,8.62,0.26,0.91,2.0
1758087997.69641,1758087927.28929,0.0,0.0,0.0,26.35606,3.32316,-3.38045,8.62,0.26,0.91,2.0
1758087997.71201,1758087927.29929,0.0,0.0,0.0,26.41335,1.77617,-3.32316,8.88,0.16,0.98,2.0
1758087997.71639,1758087927.30929,0.0,0.0,0.0,26.69983,-0.51566,-2.23454,8.88,0.16,0.98,2.0
1758087997.73231,1758087927.31929,0.0,0.0,0.0,26.52795,-1.48969,-1.77617,9.01,0.17,0.99,2.0
1758087997.73518,1758087927.32929,0.0,0.0,0.0,26.12688,-2.00535,-1.3178,9.01,0.17,0.99,2.0
1758087997.75189,1758087927.33929,0.0,0.0,0.0,24.80907,-1.94806,-2.00535,9.18,0.3,0.96,2.0
1758087997.75704,1758087927.34929,0.0,0.0,0.0,23.49127,-1.60428,-2.7502,9.12,0.58,0.9,2.0
1758087997.77226,1758087927.35929,0.0,0.0,0.0,22.28806,-2.06265,-3.20856,9.12,0.58,0.9,2.0
1758087997.77669,1758087927.36929,0.0,0.0,0.0,20.97026,-1.71887,-3.83882,9.17,0.73,0.78,2.0
1758087997.79227,1758087927.37929,0.0,0.0,0.0,19.76705,-0.57296,-3.95341,9.17,0.73,0.78,2.0
1758087997.7967,1758087927.38929,0.0,0.0,0.0,19.25138,0.34377,-3.89611,9.27,0.64,0.51,2.0
1758087997.81201,1758087927.39929,0.0,0.0,0.0,18.90761,1.43239,-3.09397,9.27,0.64,0.51,2.0
1758087997.81514,1758087927.40929,0.0,0.0,0.0,18.79302,2.63561,-2.46372,9.24,0.4,0.36,2.0
1758087997.83098,1758087927.41929,0.0,0.0,0.0,18.50654,5.84417,-1.20321,9.36,0.3,0.27,2.0
1758087997.83218,1758087927.42929,0.0,0.0,0.0,17.99088,7.62034,-0.51566,9.36,0.3,0.27,2.0
1758087997.847,1758087927.43929,0.0,0.0,0.0,16.90226,10.25595,0.0,9.53,0.46,0.31,2.0
1758087997.86298,1758087927.44929,0.0,0.0,0.0,15.41257,13.69369,0.22918,9.53,0.46,0.31,2.0
1758087997.86423,1758087927.45929,0.0,0.0,0.0,12.77696,16.50119,0.17189,9.54,0.69,0.37,2.0
1758087997.8872,1758087927.46929,0.0,0.0,0.0,10.8289,18.44924,0.0573,9.54,0.69,0.37,2.0
1758087997.91741,1758087927.47929,0.0,0.0,0.0,9.05273,20.51189,0.40107,9.38,0.83,0.06,2.0
1758087997.91921,1758087927.48929,0.0,0.0,0.0,7.44845,23.26209,1.43239,9.38,0.83,0.06,2.0
1758087997.92009,1758087927.49929,0.0,0.0,0.0,4.46907,25.72581,2.63561,9.49,0.84,-0.11,2.0
1758087997.92341,1758087927.50929,0.0,0.0,0.0,2.29183,22.00158,3.32316,9.01,0.87,-0.07,2.0
1758087997.92511,1758087927.51929,0.0,0.0,0.0,-0.40107,18.10547,3.95341,9.01,0.87,-0.07,2.0
1758087997.94231,1758087927.52929,0.0,0.0,0.0,-5.27121,14.32395,4.1253,9.05,1.05,-0.19,2.0
1758087997.94432,1758087927.53929,0.0,0.0,0.0,-9.11003,8.99544,3.60963,9.05,1.05,-0.19,2.0
1758087997.9591,1758087927.54929,0.0,0.0,0.0,-13.5218,5.84417,2.6929,9.12,1.37,-0.2,2.0
1758087997.97681,1758087927.55929,0.0,0.0,0.0,-17.87628,2.92208,1.20321,9.12,1.37,-0.2,2.0
1758087998.00692,1758087927.56929,0.0,0.0,0.0,-24.29341,-4.18259,-1.43239,9.05,1.63,-0.11,2.0
1758087998.01544,1758087927.57929,0.0,0.0,0.0,-27.33009,-12.77696,-2.86479,8.75,1.61,-0.39,2.0
1758087998.01729,1758087927.58929,0.0,0.0,0.0,-29.22085,-21.42862,-4.23989,8.75,1.61,-0.39,2.0
1758087998.01877,1758087927.59929,0.0,0.0,0.0,-29.9084,-24.00693,-4.92744,9.35,1.34,-0.58,2.0
1758087998.02158,1758087927.60929,0.0,0.0,0.0,-29.9084,-29.96569,-3.60963,9.35,1.34,-0.58,2.0
1758087998.02258,1758087927.61929,0.0,0.0,0.0,-31.45539,-42.57077,-3.72423,9.45,1.02,-0.12,2.0
1758087998.03886,1758087927.62929,0.0,0.0,0.0,-32.71589,-56.37905,-5.21392,9.45,1.02,-0.12,2.0
1758087998.04188,1758087927.63929,0.0,0.0,0.0,-33.40344,-57.0093,-3.72423,8.88,1.05,-0.51,2.0
1758087998.10629,1758087927.64929,0.0,0.0,0.0,-38.38818,-24.86637,-5.90147,13.14,1.56,-0.79,2.0
1758087998.10762,1758087927.65929,0.0,0.0,0.0,-42.74266,-16.10011,-5.78687,13.14,1.56,-0.79,2.0
1758087998.11725,1758087927.66929,0.0,0.0,0.0,-46.52417,-13.17803,-4.64096,12.0,1.28,0.33,2.0
1758087998.12154,1758087927.67929,0.0,0.0,0.0,-49.61814,-12.08941,-2.57831,12.0,1.28,0.33,2.0
1758087998.12195,1758087927.68929,0.0,0.0,0.0,-51.5662,-9.33921,1.71887,12.9,0.83,1.01,2.0
1758087998.12747,1758087927.69929,0.0,0.0,0.0,-50.82136,-11.22997,3.32316,12.9,0.83,1.01,2.0
1758087998.12781,1758087927.70929,0.0,0.0,0.0,-48.9306,-15.46986,2.40642,13.44,-0.34,0.7,2.0
1758087998.12857,1758087927.71929,0.0,0.0,0.0,-44.86259,-20.45459,-2.6929,13.44,-0.34,0.7,2.0
1758087998.12976,1758087927.72929,0.0,0.0,0.0,-36.21093,-21.42862,-6.8182,14.07,-1.58,1.94,2.0
1758087998.14685,1758087927.73929,0.0,0.0,0.0,-29.8511,-18.10547,-9.28192,13.9,-2.28,1.71,2.0
1758087998.16337,1758087927.74929,0.0,0.0,0.0,-23.83505,-14.83961,-10.08406,13.9,-2.28,1.71,2.0
1758087998.16757,1758087927.75929,0.0,0.0,0.0,-18.16276,-11.57375,-8.02141,11.08,-1.58,1.56,2.0
1758087998.18329,1758087927.76929,0.0,0.0,0.0,-16.84496,-10.94349,-5.84417,11.08,-1.58,1.56,2.0
1758087998.18755,1758087927.77929,0.0,0.0,0.0,-17.24603,-10.94349,-3.66693,8.43,-0.71,1.29,2.0
1758087998.20306,1758087927.78929,0.0,0.0,0.0,-19.07949,-10.8862,-2.40642,8.43,-0.71,1.29,2.0
1758087998.20773,1758087927.79929,0.0,0.0,0.0,-22.86102,-10.8289,-1.14592,7.64,-0.29,1.86,2.0
1758087998.2233,1758087927.80929,0.0,0.0,0.0,-24.86637,-8.76626,-1.03132,8.94,-0.54,2.18,2.0
1758087998.22743,1758087927.81929,0.0,0.0,0.0,-26.01229,-4.81285,-1.14592,8.94,-0.54,2.18,2.0
1758087998.24332,1758087927.82929,0.0,0.0,0.0,-26.18417,-0.80214,-1.48969,11.33,-1.29,2.03,2.0
1758087998.24503,1758087927.83929,0.0,0.0,0.0,-24.86637,4.29718,-1.48969,11.33,-1.29,2.03,2.0
1758087998.26085,1758087927.84929,0.0,0.0,0.0,-23.0329,6.87549,-1.3178,12.07,-1.84,2.05,2.0
1758087998.26286,1758087927.85929,0.0,0.0,0.0,-20.74107,8.76626,-0.74485,12.07,-1.84,2.05,2.0
1758087998.27918,1758087927.86929,0.0,0.0,0.0,-18.27736,11.45916,-0.17189,10.98,-1.77,1.56,2.0
1758087998.2828,1758087927.87929,0.0,0.0,0.0,-15.0115,15.35527,0.97403,10.11,-1.37,0.97,2.0
1758087998.29803,1758087927.88929,0.0,0.0,0.0,-13.23533,16.95955,1.94806,10.11,-1.37,0.97,2.0
1758087998.30246,1758087927.89929,0.0,0.0,0.0,-12.204,17.93358,2.46372,9.67,-1.09,0.65,2.0
1758087998.31989,1758087927.90929,0.0,0.0,0.0,-11.17268,18.56383,3.03668,9.67,-1.09,0.65,2.0
1758087998.32246,1758087927.91929,0.0,0.0,0.0,-10.37054,17.58981,3.89611,9.58,-1.0,0.55,2.0
1758087998.33806,1758087927.92929,0.0,0.0,0.0,-10.19865,16.67307,3.89611,9.58,-1.0,0.55,2.0
1758087998.3419,1758087927.93929,0.0,0.0,0.0,-10.19865,15.87093,3.83882,9.42,-0.99,0.62,2.0
1758087998.35735,1758087927.94929,0.0,0.0,0.0,-10.48513,13.34992,3.20856,9.42,-0.99,0.62,2.0
1758087998.37652,1758087927.95929,0.0,0.0,0.0,-10.94349,11.22997,2.57831,9.18,-0.91,0.61,2.0
1758087998.37747,1758087927.96929,0.0,0.0,0.0,-11.22997,9.22462,1.66158,9.04,-0.79,0.5,2.0
1758087998.39622,1758087927.97929,0.0,0.0,0.0,-11.34457,7.44845,0.74485,9.04,-0.79,0.5,2.0
1758087998.3974,1758087927.98929,0.0,0.0,0.0,-11.86023,4.92744,-0.74485,8.93,-0.67,0.36,2.0
1758087998.41653,1758087927.99929,0.0,0.0,0.0,-11.97482,4.0107,-0.80214,8.93,-0.67,0.36,2.0
1758087998.41744,1758087928.00929,0.0,0.0,0.0,-12.08941,2.92208,-1.03132,8.87,-0.62,0.39,2.0
1758087998.43625,1758087928.01929,0.0,0.0,0.0,-12.14671,3.09397,-1.03132,8.87,-0.62,0.39,2.0
1758087998.43745,1758087928.02929,0.0,0.0,0.0,-12.89155,4.29718,-2.11994,9.15,-0.73,0.43,2.0
1758087998.45649,1758087928.03929,0.0,0.0,0.0,-11.97482,2.57831,-2.00535,9.22,-0.94,0.43,2.0
1758087998.45745,1758087928.04929,0.0,0.0,0.0,-9.96947,2.34913,-1.43239,9.22,-0.94,0.43,2.0
1758087998.47652,1758087928.05929,0.0,0.0,0.0,-7.84952,4.0107,-0.40107,9.67,-1.38,0.31,2.0
1758087998.47747,1758087928.06929,0.0,0.0,0.0,-4.46907,7.73493,1.3751,9.67,-1.38,0.31,2.0
1758087998.4964,1758087928.07929,0.0,0.0,0.0,-2.63561,9.74028,2.46372,9.63,-1.42,0.13,2.0
1758087998.49745,1758087928.08929,0.0,0.0,0.0,-1.43239,12.08941,3.32316,9.63,-1.42,0.13,2.0
1758087998.51625,1758087928.09929,0.0,0.0,0.0,-0.74485,14.32395,3.66693,9.31,-1.12,0.06,2.0
1758087998.51742,1758087928.10929,0.0,0.0,0.0,-0.68755,14.72501,3.32316,8.94,-0.89,-0.09,2.0
1758087998.53643,1758087928.11929,0.0,0.0,0.0,-0.74485,14.66772,3.03668,8.94,-0.89,-0.09,2.0
1758087998.53747,1758087928.12929,0.0,0.0,0.0,-1.08862,15.12609,2.11994,8.95,-0.79,-0.07,2.0
1758087998.55625,1758087928.13929,0.0,0.0,0.0,-1.08862,15.0115,1.14592,8.95,-0.79,-0.07,2.0
1758087998.55747,1758087928.14929,0.0,0.0,0.0,-0.74485,19.07949,0.40107,9.13,-0.89,-0.07,2.0
1758087998.57654,1758087928.15929,0.0,0.0,0.0,-0.40107,22.57454,-0.11459,9.13,-0.89,-0.07,2.0
1758087998.5775,1758087928.16929,0.0,0.0,0.0,0.0,26.12688,-0.80214,9.34,-1.12,0.09,2.0
1758087998.59625,1758087928.17929,0.0,0.0,0.0,1.03132,32.83048,-1.94806,9.34,-1.12,0.09,2.0
1758087998.60304,1758087928.18929,0.0,0.0,0.0,1.77617,35.58068,-2.23454,9.29,-1.32,0.15,2.0
1758087998.6373,1758087928.19929,0.0,0.0,0.0,2.86479,34.72124,-1.94806,8.93,-1.32,0.04,2.0
1758087998.66526,1758087928.20929,0.0,0.0,0.0,3.83882,31.28349,-1.43239,8.93,-1.32,0.04,2.0
1758087998.6664,1758087928.21929,0.0,0.0,0.0,5.15662,26.52795,-1.14592,8.73,-1.2,-0.23,2.0
1758087998.67033,1758087928.22929,0.0,0.0,0.0,6.47442,22.28806,-1.43239,8.73,-1.2,-0.23,2.0
1758087998.67237,1758087928.23929,0.0,0.0,0.0,8.25059,16.272,-1.71887,8.83,-1.07,-0.22,2.0
1758087998.67759,1758087928.24929,0.0,0.0,0.0,10.8862,9.62569,-1.77617,8.83,-1.07,-0.22,2.0
1758087998.67921,1758087928.25929,0.0,0.0,0.0,16.38659,-0.80214,-1.60428,8.88,-1.15,0.22,2.0
1758087998.68148,1758087928.26929,0.0,0.0,0.0,20.74107,-9.28192,-1.03132,8.9,-1.58,0.33,2.0
1758087998.68754,1758087928.27929,0.0,0.0,0.0,25.09555,-16.90226,-0.51566,8.9,-1.58,0.33,2.0
1758087998.7328,1758087928.28929,0.0,0.0,0.0,28.76248,-22.23076,-0.0573,9.35,-2.05,0.13,2.0
1758087998.73722,1758087928.29929,0.0,0.0,0.0,32.20023,-24.5226,-0.51566,9.35,-2.05,0.13,2.0
1758087998.73785,1758087928.30929,0.0,0.0,0.0,33.80451,-22.28806,-1.60428,10.56,-2.15,-0.27,2.0
1758087998.73907,1758087928.31929,0.0,0.0,0.0,34.72124,-17.93358,-2.97938,10.56,-2.15,-0.27,2.0
1758087998.7409,1758087928.32929,0.0,0.0,0.0,35.52338,-12.83425,-5.78687,11.74,-1.73,-0.65,2.0
1758087998.74283,1758087928.33929,0.0,0.0,0.0,35.92446,-8.59437,-7.33386,12.61,-0.76,-0.75,2.0
1758087998.7589,1758087928.34929,0.0,0.0,0.0,35.63798,-9.85487,-8.59437,12.61,-0.76,-0.75,2.0
1758087998.76166,1758087928.35929,0.0,0.0,0.0,35.63798,-14.66772,-8.59437,11.98,-0.16,0.28,2.0
1758087998.7819,1758087928.36929,0.0,0.0,0.0,35.98175,-27.96034,-4.58366,11.98,-0.16,0.28,2.0
1758087998.78708,1758087928.37929,0.0,0.0,0.0,36.15364,-35.58068,-0.17189,11.56,-0.17,2.02,2.0
1758087998.80211,1758087928.38929,0.0,0.0,0.0,35.63798,-37.24226,3.26586,11.56,-0.17,2.02,2.0
1758087998.80416,1758087928.39929,0.0,0.0,0.0,35.98175,-34.26288,5.4431,12.37,-0.28,3.4,2.0
1758087998.82427,1758087928.40929,0.0,0.0,0.0,42.85724,-24.75178,7.16197,11.85,-0.28,3.3,2.0
1758087998.83007,1758087928.41929,0.0,0.0,0.0,47.26902,-28.70519,6.53172,11.85,-0.72,3.3,2.0
1758087998.83243,1758087928.42929,0.0,0.0,0.0,51.27972,-39.4768,6.58902,9.23,-1.03,3.25,2.0
1758087998.85094,1758087928.43929,0.0,0.0,0.0,55.40502,-48.9879,8.36518,9.23,-1.03,3.25,2.0
1758087998.85224,1758087928.44929,0.0,0.0,0.0,59.01466,-43.31561,8.30789,10.46,-1.34,1.82,2.0
1758087998.8671,1758087928.45929,0.0,0.0,0.0,61.24919,-39.01843,7.67763,10.46,-1.34,1.82,2.0
1758087998.8726,1758087928.46929,0.0,0.0,0.0,62.22322,-33.80451,6.99009,11.13,-0.9,1.43,2.0
1758087998.89794,1758087928.47929,0.0,0.0,0.0,60.90542,-27.10091,6.07335,11.13,-0.9,1.43,2.0
1758087998.90392,1758087928.48929,0.0,0.0,0.0,55.00395,-14.83961,3.95341,11.85,0.32,2.31,2.0
1758087998.90533,1758087928.49929,0.0,0.0,0.0,48.75871,-7.96411,2.63561,12.13,1.82,1.89,2.0
1758087998.92214,1758087928.50929,0.0,0.0,0.0,41.88322,-2.29183,1.48969,12.13,1.82,1.89,2.0
1758087998.92442,1758087928.51929,0.0,0.0,0.0,34.95043,0.97403,0.57296,11.25,2.64,1.67,2.0
1758087998.94111,1758087928.52929,0.0,0.0,0.0,27.2155,3.20856,-0.97403,11.25,2.64,1.67,2.0
1758087998.94503,1758087928.53929,0.0,0.0,0.0,24.35071,3.89611,-1.71887,9.8,2.32,0.76,2.0
1758087999.01711,1758087928.54929,0.0,0.0,0.0,23.20479,5.27121,-2.06265,9.8,2.32,0.76,2.0
1758087999.02197,1758087928.55929,0.0,0.0,0.0,23.37668,6.18794,-2.00535,9.04,1.35,0.39,2.0
1758087999.02296,1758087928.56929,0.0,0.0,0.0,24.29341,6.41713,-1.77617,8.8,0.5,0.61,2.0
1758087999.03189,1758087928.57929,0.0,0.0,0.0,25.15285,6.18794,-2.63561,8.8,0.5,0.61,2.0
1758087999.03241,1758087928.58929,0.0,0.0,0.0,25.61122,6.07335,-3.49504,9.02,0.13,0.96,2.0
1758087999.03775,1758087928.59929,0.0,0.0,0.0,24.92367,5.4431,-4.81285,9.02,0.13,0.96,2.0
1758087999.0402,1758087928.60929,0.0,0.0,0.0,23.94964,4.69825,-5.32851,9.14,0.25,1.15,2.0
1758087999.04245,1758087928.61929,0.0,0.0,0.0,22.57454,5.27121,-5.61499,9.14,0.25,1.15,2.0
1758087999.04681,1758087928.62929,0.0,0.0,0.0,21.08485,5.72958,-5.15662,9.26,0.55,0.92,2.0
1758087999.04725,1758087928.63929,0.0,0.0,0.0,19.25138,4.81285,-4.1253,9.02,0.71,0.66,2.0
1758087999.06744,1758087928.64929,0.0,0.0,0.0,18.33465,4.23989,-2.7502,9.02,0.71,0.66,2.0
1758087999.0967,1758087928.65929,0.0,0.0,0.0,17.6471,4.52637,-1.60428,9.08,0.69,0.45,2.0
1758087999.09727,1758087928.66929,0.0,0.0,0.0,17.13144,4.64096,-0.40107,9.08,0.69,0.45,2.0
1758087999.10089,1758087928.67929,0.0,0.0,0.0,15.69904,5.27121,0.0573,9.27,0.63,0.5,2.0
1758087999.10149,1758087928.68929,0.0,0.0,0.0,14.15206,5.27121,-0.45837,9.27,0.63,0.5,2.0
1758087999.10382,1758087928.69929,0.0,0.0,0.0,12.14671,5.95876,-1.43239,9.33,0.73,0.58,2.0
1758087999.12019,1758087928.70929,0.0,0.0,0.0,10.08406,6.13065,-2.40642,9.33,0.73,0.58,2.0
1758087999.12197,1758087928.71929,0.0,0.0,0.0,7.33386,5.61499,-3.32316,9.33,0.85,0.44,2.0
1758087999.13746,1758087928.72929,0.0,0.0,0.0,5.78687,6.18794,-3.49504,9.24,0.85,0.18,2.0
1758087999.15655,1758087928.73929,0.0,0.0,0.0,4.64096,7.16197,-2.92208,9.24,0.85,0.18,2.0
1758087999.1618,1758087928.74929,0.0,0.0,0.0,3.66693,7.84952,-1.20321,9.08,0.71,0.0,2.0
1758087999.16212,1758087928.75929,0.0,0.0,0.0,3.60963,7.10468,0.22918,9.08,0.71,0.0,2.0
1758087999.17832,1758087928.76929,0.0,0.0,0.0,3.26586,6.18794,1.3751,8.71,0.57,0.06,2.0
1758087999.18259,1758087928.77929,0.0,0.0,0.0,2.92208,7.04738,2.46372,8.71,0.57,0.06,2.0
1758087999.19936,1758087928.78929,0.0,0.0,0.0,2.34913,10.8862,3.38045,8.86,0.52,-0.03,2.0
1758087999.20276,1758087928.79929,0.0,0.0,0.0,1.83346,14.43854,3.95341,9.2,0.56,-0.06,2.0
1758087999.2182,1758087928.80929,0.0,0.0,0.0,1.20321,17.47521,4.87014,9.2,0.56,-0.06,2.0
1758087999.22017,1758087928.81929,0.0,0.0,0.0,0.0,18.79302,5.4431,9.2,0.67,0.05,2.0
1758087999.23744,1758087928.82929,0.0,0.0,0.0,-2.6929,20.05352,6.24524,9.2,0.67,0.05,2.0
1758087999.24237,1758087928.83929,0.0,0.0,0.0,-4.98473,21.48592,6.47442,9.27,0.82,0.08,2.0
1758087999.2681,1758087928.84929,0.0,0.0,0.0,-7.50575,21.88699,6.70361,9.27,0.82,0.08,2.0
1758087999.27138,1758087928.85929,0.0,0.0,0.0,-10.31324,19.76705,6.70361,9.35,0.91,0.11,2.0
1758087999.27785,1758087928.86929,0.0,0.0,0.0,-14.78231,10.94349,6.18794,8.96,0.89,-0.03,2.0
1758087999.29638,1758087928.87929,0.0,0.0,0.0,-17.76169,3.83882,5.72958,8.96,0.89,-0.03,2.0
1758087999.29753,1758087928.88929,0.0,0.0,0.0,-20.97026,-2.57831,4.81285,8.97,1.0,-0.64,2.0
1758087999.31721,1758087928.89929,0.0,0.0,0.0,-24.29341,-8.36518,3.20856,8.97,1.0,-0.64,2.0
1758087999.31837,1758087928.90929,0.0,0.0,0.0,-29.22085,-16.10011,0.85944,9.13,1.36,-0.88,2.0
1758087999.36192,1758087928.91929,0.0,0.0,0.0,-32.83048,-19.19409,-0.68755,9.13,1.36,-0.88,2.0
1758087999.36314,1758087928.92929,0.0,0.0,0.0,-36.6693,-20.97026,-2.23454,9.61,1.75,-0.62,2.0
1758087999.36377,1758087928.93929,0.0,0.0,0.0,-41.76862,-24.00693,-3.95341,9.61,1.75,-0.62,2.0
1758087999.3673,1758087928.94929,0.0,0.0,0.0,-45.55015,-27.33009,-4.81285,9.97,1.97,-0.56,2.0
1758087999.37129,1758087928.95929,0.0,0.0,0.0,-48.52953,-22.63183,-4.29718,10.75,1.87,-0.97,2.0
1758087999.37237,1758087928.96929,0.0,0.0,0.0,-51.39432,-17.30333,-2.06265,10.75,1.87,-0.97,2.0
1758087999.42836,1758087928.97929,0.0,0.0,0.0,-54.94666,-14.15206,1.66158,10.97,1.36,-1.08,2.0
1758087999.51758,1758087928.98929,0.0,0.0,0.0,-58.09792,-17.30333,4.29718,10.97,1.36,-1.08,2.0
1758087999.52192,1758087928.99929,0.0,0.0,0.0,-60.79083,-24.4653,5.21392,10.58,0.92,-0.62,2.0
1758087999.52391,1758087929.00929,0.0,0.0,0.0,-62.96807,-29.73651,6.13065,10.58,0.92,-0.62,2.0
1758087999.52493,1758087929.01929,0.0,0.0,0.0,-63.94209,-28.99167,4.64096,11.89,0.43,-0.66,2.0
1758087999.52735,1758087929.02929,0.0,0.0,0.0,-65.66096,-23.0329,0.51566,14.45,0.25,-0.02,2.0
1758087999.52822,1758087929.03929,0.0,0.0,0.0,-66.92148,-19.19409,-5.21392,14.45,0.25,-0.02,2.0
1758087999.53117,1758087929.04929,0.0,0.0,0.0,-66.46311,-29.22085,-10.31324,14.44,0.01,2.19,2.0
1758087999.53227,1758087929.05929,0.0,0.0,0.0,-63.02536,-36.38282,-18.22006,14.44,0.01,2.19,2.0
1758087999.53727,1758087929.06929,0.0,0.0,0.0,-58.26981,-30.36677,-19.07949,14.14,-0.65,2.61,2.0
1758087999.54043,1758087929.07929,0.0,0.0,0.0,-51.39432,-25.21014,-15.98552,14.14,-0.65,2.61,2.0
1758087999.54112,1758087929.08929,0.0,0.0,0.0,-43.88857,-23.72045,-11.28727,11.57,-1.58,0.74,2.0
1758087999.55281,1758087929.09929,0.0,0.0,0.0,-34.77854,-22.05888,-4.23989,8.12,-2.2,1.32,2.0
1758087999.66719,1758087929.10929,0.0,0.0,0.0,-30.53865,-20.74107,-0.22918,8.12,-2.2,1.32,2.0
1758087999.66905,1758087929.11929,0.0,0.0,0.0,-27.96034,-18.50654,2.40642,7.21,-2.15,1.56,2.0
1758087999.67261,1758087929.12929,0.0,0.0,0.0,-26.81443,-14.9542,3.38045,7.21,-2.15,1.56,2.0
1758087999.77854,1758087929.13929,0.0,0.0,0.0,-27.10091,-10.59972,2.7502,8.89,-1.69,2.22,2.0
1758087999.84257,1758087929.14929,0.0,0.0,0.0,-27.78845,-7.62034,1.66158,8.89,-1.69,2.22,2.0
1758087999.84748,1758087929.15929,0.0,0.0,0.0,-28.87707,-3.55234,0.22918,11.24,-1.25,1.89,2.0
1758087999.84809,1758087929.16929,0.0,0.0,0.0,-28.99167,2.57831,0.0,11.24,-1.25,1.89,2.0
1758087999.90059,1758087929.17929,0.0,0.0,0.0,-27.96034,6.53172,0.80214,12.19,-0.89,1.74,2.0
1758087999.9011,1758087929.18929,0.0,0.0,0.0,-26.01229,10.94349,2.23454,11.33,-1.11,1.28,2.0
1758087999.90469,1758087929.19929,0.0,0.0,0.0,-23.31938,15.29797,3.60963,11.33,-1.11,1.28,2.0
1758087999.91256,1758087929.20929,0.0,0.0,0.0,-19.13679,21.08485,5.61499,10.43,-1.42,0.69,2.0
1758087999.91779,1758087929.21929,0.0,0.0,0.0,-16.61578,23.0329,6.47442,10.43,-1.42,0.69,2.0
1758087999.92159,1758087929.22929,0.0,0.0,0.0,-14.78231,24.17882,6.8182,10.07,-1.62,0.35,2.0
1758087999.92273,1758087929.23929,0.0,0.0,0.0,-13.12073,24.63719,6.8182,10.07,-1.62,0.35,2.0
1758087999.9274,1758087929.24929,0.0,0.0,0.0,-11.74564,24.12152,5.95876,10.12,-1.58,0.28,2.0
1758087999.92862,1758087929.25929,0.0,0.0,0.0,-11.17268,22.63183,5.4431,9.95,-1.37,0.39,2.0
1758087999.92933,1758087929.26929,0.0,0.0,0.0,-10.94349,21.6578,4.92744,9.95,-1.37,0.39,2.0
1758087999.92991,1758087929.27929,0.0,0.0,0.0,-10.8289,19.07949,4.1253,9.64,-1.06,0.49,2.0
1758087999.93117,1758087929.28929,0.0,0.0,0.0,-10.48513,14.15206,3.03668,9.64,-1.06,0.49,2.0
1758087999.9318,1758087929.29929,0.0,0.0,0.0,-9.96947,11.57375,2.23454,9.19,-0.79,0.52,2.0
1758087999.93703,1758087929.30929,0.0,0.0,0.0,-9.28192,8.88085,1.43239,9.19,-0.79,0.52,2.0
1758087999.93771,1758087929.31929,0.0,0.0,0.0,-8.59437,6.58902,0.74485,8.99,-0.72,0.45,2.0
1758087999.94204,1758087929.32929,0.0,0.0,0.0,-6.58902,3.60963,-0.34377,8.86,-0.76,0.53,2.0
1758087999.94302,1758087929.33929,0.0,0.0,0.0,-5.78687,1.71887,-1.14592,8.86,-0.76,0.53,2.0
1758087999.94754,1758087929.34929,0.0,0.0,0.0,-4.92744,-0.22918,-1.94806,8.85,-0.86,0.45,2.0
1758087999.95252,1758087929.35929,0.0,0.0,0.0,-3.03668,-1.43239,-2.97938,8.85,-0.86,0.45,2.0
1758087999.9569,1758087929.36929,0.0,0.0,0.0,-1.94806,-0.74485,-3.38045,9.12,-1.0,0.45,2.0
1758087999.9576,1758087929.37929,0.0,0.0,0.0,0.11459,-2.29183,-2.40642,9.12,-1.0,0.45,2.0
1758087999.95909,1758087929.38929,0.0,0.0,0.0,2.57831,-3.38045,-1.03132,8.91,-1.26,0.5,2.0
1758087999.96261,1758087929.39929,0.0,0.0,0.0,6.18794,-1.48969,1.3178,8.91,-1.26,0.5,2.0
1758087999.9699,1758087929.40929,0.0,0.0,0.0,8.42248,2.34913,2.06265,9.09,-1.54,0.39,2.0
1758087999.97753,1758087929.41929,0.0,0.0,0.0,10.19865,5.95876,2.23454,9.36,-1.45,0.14,2.0
1758087999.97799,1758087929.42929,0.0,0.0,0.0,11.63104,7.67763,1.66158,9.36,-1.45,0.14,2.0
1758087999.97907,1758087929.43929,0.0,0.0,0.0,13.06344,10.19865,0.11459,9.11,-1.06,0.1,2.0
1758087999.98212,1758087929.44929,0.0,0.0,0.0,13.86558,13.23533,-0.45837,9.11,-1.06,0.1,2.0
1758087999.98729,1758087929.45929,0.0,0.0,0.0,14.20935,17.18874,-0.85944,9.56,-0.72,-0.11,2.0
1758087999.99189,1758087929.46929,0.0,0.0,0.0,14.32395,22.05888,-1.08862,9.56,-0.72,-0.11,2.0
1758087999.99651,1758087929.47929,0.0,0.0,0.0,14.03747,28.07493,-1.3178,9.72,-0.56,-0.16,2.0
1758087999.99696,1758087929.48929,0.0,0.0,0.0,13.69369,31.39809,-1.60428,9.44,-0.57,-0.21,2.0
1758087999.9978,1758087929.49929,0.0,0.0,0.0,13.46451,33.05967,-1.3178,9.44,-0.57,-0.21,2.0
1758087999.99963,1758087929.50929,0.0,0.0,0.0,13.17803,32.77319,-1.08862,9.16,-0.66,-0.28,2.0
1758088000.0028,1758087929.51929,0.0,0.0,0.0,12.54778,29.67921,-1.20321,9.16,-0.66,-0.28,2.0
1758088000.00886,1758087929.52929,0.0,0.0,0.0,12.14671,27.78845,-1.3751,9.05,-0.66,-0.37,2.0
1758088000.00947,1758087929.53929,0.0,0.0,0.0,11.97482,26.18417,-2.00535,9.05,-0.66,-0.37,2.0
1758088000.01729,1758087929.54929,0.0,0.0,0.0,11.86023,24.5226,-3.26586,9.14,-0.56,-0.35,2.0
1758088000.01772,1758087929.55929,0.0,0.0,0.0,12.2613,21.7724,-4.29718,9.23,-0.55,-0.16,2.0
1758088000.02196,1758087929.56929,0.0,0.0,0.0,13.17803,19.48057,-4.69825,9.23,-0.55,-0.16,2.0
1758088000.0226,1758087929.57929,0.0,0.0,0.0,14.72501,15.46986,-4.92744,9.35,-0.73,0.06,2.0
1758088000.02891,1758087929.58929,0.0,0.0,0.0,18.10547,9.4538,-4.69825,9.35,-0.73,0.06,2.0
1758088000.03273,1758087929.59929,0.0,0.0,0.0,21.25674,5.15662,-4.23989,9.56,-1.06,0.06,2.0
1758088000.03686,1758087929.60929,0.0,0.0,0.0,24.57989,0.51566,-3.60963,9.56,-1.06,0.06,2.0
1758088000.03748,1758087929.61929,0.0,0.0,0.0,28.01764,-3.26586,-2.86479,9.77,-1.37,-0.15,2.0
1758088000.04111,1758087929.62929,0.0,0.0,0.0,31.79916,-8.0787,-2.40642,10.26,-1.37,-0.4,2.0
1758088000.04172,1758087929.63929,0.0,0.0,0.0,33.34615,-9.74028,-2.7502,10.26,-1.55,-0.4,2.0
1758088000.07721,1758087929.64929,0.0,0.0,0.0,34.43476,-11.17268,-2.63561,11.01,-1.33,-0.41,2.0
1758088000.08168,1758087929.65929,0.0,0.0,0.0,33.80451,-10.8289,-3.38045,11.01,-1.33,-0.41,2.0
1758088000.08204,1758087929.66929,0.0,0.0,0.0,31.56997,-8.76626,-4.0107,12.11,-0.62,-0.29,2.0
1758088000.08665,1758087929.67929,0.0,0.0,0.0,29.73651,-11.00079,-3.72423,12.11,-0.62,-0.29,2.0
1758088000.10126,1758087929.68929,0.0,0.0,0.0,28.41871,-15.92823,-3.20856,11.87,-0.08,0.28,2.0
1758088000.10275,1758087929.69929,0.0,0.0,0.0,27.73116,-20.74107,-2.29183,11.87,-0.08,0.28,2.0
1758088000.11727,1758087929.70929,0.0,0.0,0.0,27.33009,-25.26744,0.0,11.72,-0.19,1.34,2.0
1758088000.19255,1758087929.71929,0.0,0.0,0.0,27.38738,-25.49662,1.20321,12.46,-0.32,2.46,2.0
1758088000.19697,1758087929.72929,0.0,0.0,0.0,28.476,-28.76248,1.14592,12.46,-0.32,2.46,2.0
1758088000.19761,1758087929.73929,0.0,0.0,0.0,31.39809,-30.76784,0.40107,11.4,-0.59,2.74,2.0
1758088000.20204,1758087929.74929,0.0,0.0,0.0,36.84119,-36.55471,1.3751,11.4,-0.59,2.74,2.0
1758088000.20261,1758087929.75929,0.0,0.0,0.0,40.68,-43.4875,2.11994,10.0,-0.95,2.28,2.0
1758088000.20706,1758087929.76929,0.0,0.0,0.0,44.8053,-44.40423,4.92744,10.0,-0.95,2.28,2.0
1758088000.20777,1758087929.77929,0.0,0.0,0.0,51.39432,-35.40879,6.58902,9.95,-1.34,1.47,2.0
1758088000.20923,1758087929.78929,0.0,0.0,0.0,55.00395,-31.79916,7.10468,9.59,-1.17,1.64,2.0
1758088000.21033,1758087929.79929,0.0,0.0,0.0,57.12389,-29.39274,7.04738,9.59,-1.17,1.64,2.0
1758088000.22628,1758087929.80929,0.0,0.0,0.0,57.75415,-24.98096,7.16197,10.01,-0.48,1.82,2.0
1758088000.2276,1758087929.81929,0.0,0.0,0.0,55.00395,-14.78231,6.35983,10.01,-0.48,1.82,2.0
1758088000.2425,1758087929.82929,0.0,0.0,0.0,51.22243,-7.73493,5.09932,11.67,0.68,1.85,2.0
1758088000.24667,1758087929.83929,0.0,0.0,0.0,46.46688,-1.83346,4.29718,11.67,0.68,1.85,2.0
1758088000.26704,1758087929.84929,0.0,0.0,0.0,41.42485,1.08862,4.52637,11.69,1.69,1.7,2.0
1758088000.27173,1758087929.85929,0.0,0.0,0.0,34.72124,3.20856,4.64096,10.67,1.93,1.42,2.0
1758088000.27703,1758087929.86929,0.0,0.0,0.0,31.62727,4.35448,4.35448,10.67,1.93,1.42,2.0
1758088000.29259,1758087929.87929,0.0,0.0,0.0,29.62192,6.35983,4.0107,9.81,1.39,0.7,2.0
1758088000.29676,1758087929.88929,0.0,0.0,0.0,28.13223,8.02141,3.66693,9.81,1.39,0.7,2.0
1758088000.31228,1758087929.89929,0.0,0.0,0.0,26.81443,9.68299,2.6929,9.36,0.74,0.47,2.0
1758088000.31666,1758087929.90929,0.0,0.0,0.0,25.72581,11.11538,1.43239,9.36,0.74,0.47,2.0
1758088000.33256,1758087929.91929,0.0,0.0,0.0,24.63719,13.12073,0.11459,9.52,0.47,0.57,2.0
1758088000.33748,1758087929.92929,0.0,0.0,0.0,23.0902,14.09476,-1.08862,9.52,0.47,0.57,2.0
1758088000.35255,1758087929.93929,0.0,0.0,0.0,20.3973,12.71966,-2.7502,9.54,0.57,0.98,2.0
1758088000.35698,1758087929.94929,0.0,0.0,0.0,18.85031,12.2613,-3.60963,9.3,0.76,1.0,2.0
1758088000.37256,1758087929.95929,0.0,0.0,0.0,17.47521,12.204,-4.1253,9.3,0.76,1.0,2.0
1758088000.37747,1758087929.96929,0.0,0.0,0.0,16.272,9.74028,-3.55234,9.11,0.8,0.8,2.0
1758088000.39629,1758087929.97929,0.0,0.0,0.0,16.272,7.50575,-2.57831,9.11,0.8,0.8,2.0
1758088000.40704,1758087929.98929,0.0,0.0,0.0,16.3293,6.35983,-1.60428,8.89,0.6,0.66,2.0
1758088000.41114,1758087929.99929,0.0,0.0,0.0,16.272,5.55769,-1.3178,8.89,0.6,0.66,2.0
1758088000.47671,1758087930.00929,0.0,0.0,0.0,15.58445,4.69825,-1.43239,9.02,0.39,0.64,2.0
1758088000.47704,1758087930.01929,0.0,0.0,0.0,15.24068,4.23989,-1.83346,9.18,0.45,0.6,2.0
1758088000.47934,1758087930.02929,0.0,0.0,0.0,14.49583,4.1253,-2.40642,9.18,0.45,0.6,2.0
1758088000.48205,1758087930.03929,0.0,0.0,0.0,13.80828,4.98473,-2.57831,9.41,0.59,0.45,2.0
1758088000.48418,1758087930.04929,0.0,0.0,0.0,12.77696,4.92744,-2.40642,9.41,0.59,0.45,2.0
1758088000.48631,1758087930.05929,0.0,0.0,0.0,11.97482,5.15662,-2.23454,9.35,0.62,0.29,2.0
1758088000.48753,1758087930.06929,0.0,0.0,0.0,11.63104,5.4431,-1.77617,9.35,0.62,0.29,2.0
1758088000.48895,1758087930.07929,0.0,0.0,0.0,11.22997,5.72958,-1.3178,9.37,0.46,0.19,2.0
1758088000.49087,1758087930.08929,0.0,0.0,0.0,10.65701,5.61499,-0.51566,9.31,0.32,0.22,2.0
1758088000.50755,1758087930.09929,0.0,0.0,0.0,10.25595,6.53172,-0.45837,9.31,0.32,0.22,2.0
1758088000.51172,1758087930.10929,0.0,0.0,0.0,9.85487,9.05273,-0.22918,9.47,0.33,0.19,2.0
1758088000.52754,1758087930.11929,0.0,0.0,0.0,9.5684,12.54778,0.22918,9.47,0.33,0.19,2.0
1758088000.54523,1758087930.12929,0.0,0.0,0.0,8.93814,17.87628,1.03132,9.59,0.42,0.23,2.0
1758088000.5469,1758087930.13929,0.0,0.0,0.0,8.36518,21.48592,1.14592,9.59,0.42,0.23,2.0
1758088000.56235,1758087930.14929,0.0,0.0,0.0,7.62034,22.57454,1.66158,9.51,0.49,0.26,2.0
1758088000.56547,1758087930.15929,0.0,0.0,0.0,5.78687,21.88699,2.46372,9.51,0.49,0.26,2.0
1758088000.58274,1758087930.16929,0.0,0.0,0.0,4.23989,21.31403,3.03668,9.24,0.58,0.1,2.0
1758088000.63579,1758087930.17929,0.0,0.0,0.0,2.97938,21.7151,3.55234,9.52,0.68,-0.19,2.0
1758088000.63665,1758087930.18929,0.0,0.0,0.0,1.60428,20.74107,4.1253,9.52,0.68,-0.19,2.0
1758088000.63791,1758087930.19929,0.0,0.0,0.0,-1.43239,14.61043,4.92744,9.29,0.8,0.03,2.0
1758088000.63853,1758087930.20929,0.0,0.0,0.0,-4.23989,9.05273,4.92744,9.29,0.8,0.03,2.0
1758088000.63976,1758087930.21929,0.0,0.0,0.0,-7.67763,3.20856,4.58366,9.03,0.99,0.0,2.0
1758088000.642,1758087930.22929,0.0,0.0,0.0,-11.80293,-1.66158,3.55234,9.03,0.99,0.0,2.0
1758088000.64315,1758087930.23929,0.0,0.0,0.0,-18.62113,-9.11003,1.03132,9.18,1.34,-0.31,2.0
1758088000.66234,1758087930.24929,0.0,0.0,0.0,-23.0902,-14.09476,-1.08862,9.16,1.66,-0.32,2.0
1758088000.6675,1758087930.25929,0.0,0.0,0.0,-27.50197,-18.56383,-3.55234,9.16,1.66,-0.32,2.0
1758088000.67778,1758087930.26929,0.0,0.0,0.0,-31.39809,-22.91831,-5.32851,9.36,1.66,-0.37,2.0
1758088000.68133,1758087930.27929,0.0,0.0,0.0,-35.92446,-25.43933,-7.79223,9.36,1.66,-0.37,2.0
1758088000.72246,1758087930.28929,0.0,0.0,0.0,-37.01308,-21.7151,-7.21927,9.91,1.39,-0.48,2.0
1758088000.72658,1758087930.29929,0.0,0.0,0.0,-38.1017,-19.36597,-5.15662,9.91,1.39,-0.48,2.0
1758088000.72722,1758087930.30929,0.0,0.0,0.0,-39.87786,-24.17882,-4.92744,10.0,0.83,-0.18,2.0
1758088000.73246,1758087930.31929,0.0,0.0,0.0,-39.99245,-41.25296,-3.72423,8.59,0.44,-0.47,2.0
1758088000.73729,1758087930.32929,0.0,0.0,0.0,-40.62271,-46.52417,-3.09397,8.59,0.44,-0.47,2.0
1758088000.79926,1758087930.33929,0.0,0.0,0.0,-40.7946,-39.07573,-0.80214,10.54,0.37,-1.6,2.0
1758088000.80555,1758087930.34929,0.0,0.0,0.0,-43.02913,-16.21471,0.17189,10.54,0.37,-1.6,2.0
1758088000.80701,1758087930.35929,0.0,0.0,0.0,-45.83662,4.18259,0.68755,13.51,0.86,-0.89,2.0
1758088000.81213,1758087930.36929,0.0,0.0,0.0,-46.81066,5.50039,2.63561,13.51,0.86,-0.89,2.0
1758088000.81248,1758087930.37929,0.0,0.0,0.0,-47.09713,-0.40107,4.1253,12.08,0.57,1.57,2.0
1758088000.86223,1758087930.38929,0.0,0.0,0.0,-45.49285,-8.136,4.64096,12.08,0.57,1.57,2.0
1758088000.86554,1758087930.39929,0.0,0.0,0.0,-42.74266,-11.97482,2.97938,12.72,0.08,0.72,2.0
1758088000.86777,1758087930.40929,0.0,0.0,0.0,-39.13302,-15.35527,0.0,13.75,-0.61,0.66,2.0
1758088000.87206,1758087930.41929,0.0,0.0,0.0,-34.26288,-17.58981,-2.86479,13.75,-0.61,0.66,2.0
1758088000.87307,1758087930.42929,0.0,0.0,0.0,-25.72581,-15.75634,-6.13065,13.38,-1.3,1.11,2.0
1758088000.88126,1758087930.43929,0.0,0.0,0.0,-20.62648,-11.45916,-6.58902,13.38,-1.3,1.11,2.0
1758088000.88245,1758087930.44929,0.0,0.0,0.0,-16.84496,-7.67763,-5.09932,11.95,-1.22,0.9,2.0
1758088000.88517,1758087930.45929,0.0,0.0,0.0,-14.9542,-5.21392,-2.23454,11.95,-1.22,0.9,2.0
1758088000.88783,1758087930.46929,0.0,0.0,0.0,-15.29797,-4.46907,2.23454,9.67,-0.58,0.49,2.0
1758088000.89107,1758087930.47929,0.0,0.0,0.0,-17.76169,-6.53172,4.1253,8.38,0.14,0.84,2.0
1758088000.89163,1758087930.48929,0.0,0.0,0.0,-21.25674,-8.59437,4.29718,8.38,0.14,0.84,2.0
1758088000.90741,1758087930.49929,0.0,0.0,0.0,-25.26744,-9.91217,2.97938,8.64,0.4,1.62,2.0
1758088000.90971,1758087930.50929,0.0,0.0,0.0,-30.30947,-9.91217,-0.22918,8.64,0.4,1.62,2.0
1758088000.92724,1758087930.51929,0.0,0.0,0.0,-31.91375,-8.93814,-2.57831,10.0,-0.13,2.17,2.0
1758088000.94243,1758087930.52929,0.0,0.0,0.0,-32.42941,-6.99009,-4.52637,10.0,-0.13,2.17,2.0
1758088000.9479,1758087930.53929,0.0,0.0,0.0,-31.74186,-4.29718,-5.78687,11.54,-0.9,2.26,2.0
1758088000.9624,1758087930.54929,0.0,0.0,0.0,-28.70519,-1.3178,-5.15662,11.8,-1.34,2.09,2.0
1758088000.96551,1758087930.55929,0.0,0.0,0.0,-26.24147,-0.45837,-3.26586,11.8,-1.34,2.09,2.0
1758088000.98269,1758087930.56929,0.0,0.0,0.0,-23.0902,0.11459,-0.97403,10.7,-1.33,1.6,2.0
1758088001.07743,1758087930.57929,0.0,0.0,0.0,-18.44924,2.97938,2.86479,10.7,-1.33,1.6,2.0
1758088001.07787,1758087930.58929,0.0,0.0,0.0,-15.98552,5.78687,4.52637,10.04,-1.32,0.82,2.0
1758088001.08411,1758087930.59929,0.0,0.0,0.0,-12.89155,9.28192,5.55769,10.04,-1.32,0.82,2.0
1758088001.08718,1758087930.60929,0.0,0.0,0.0,-10.54242,11.51645,5.90147,9.57,-1.42,0.29,2.0
1758088001.08989,1758087930.61929,0.0,0.0,0.0,-7.73493,13.5791,5.72958,9.57,-1.42,0.1,2.0
1758088001.09267,1758087930.62929,0.0,0.0,0.0,-6.18794,15.12609,5.21392,9.25,-1.4,0.1,2.0
1758088001.09666,1758087930.63929,0.0,0.0,0.0,-5.27121,16.10011,4.35448,9.2,-1.08,0.28,2.0
1758088001.09763,1758087930.64929,0.0,0.0,0.0,-5.21392,16.272,3.38045,9.2,-1.08,0.28,2.0
1758088001.09959,1758087930.65929,0.0,0.0,0.0,-5.27121,15.75634,2.29183,8.96,-0.62,0.31,2.0
1758088001.10269,1758087930.66929,0.0,0.0,0.0,-5.95876,14.72501,1.60428,8.96,-0.62,0.31,2.0
1758088001.10601,1758087930.67929,0.0,0.0,0.0,-7.04738,13.69369,1.14592,8.71,-0.24,0.24,2.0
1758088001.11248,1758087930.68929,0.0,0.0,0.0,-8.136,12.43318,0.51566,8.71,-0.24,0.24,2.0
1758088001.11646,1758087930.69929,0.0,0.0,0.0,-9.62569,9.85487,-0.22918,8.67,-0.08,0.29,2.0
1758088001.11837,1758087930.70929,0.0,0.0,0.0,-9.96947,8.70896,-0.51566,8.99,-0.23,0.4,2.0
1758088001.13537,1758087930.71929,0.0,0.0,0.0,-9.5684,8.70896,-0.57296,8.99,-0.23,0.4,2.0
1758088001.13728,1758087930.72929,0.0,0.0,0.0,-8.59437,8.70896,-0.22918,9.64,-0.67,0.59,2.0
1758088001.20254,1758087930.73929,0.0,0.0,0.0,-6.53172,8.65166,0.34377,9.64,-0.67,0.59,2.0
1758088001.20773,1758087930.74929,0.0,0.0,0.0,-5.09932,8.36518,0.85944,9.74,-1.1,0.7,2.0
1758088001.21052,1758087930.75929,0.0,0.0,0.0,-4.35448,8.25059,1.3751,9.74,-1.1,0.7,2.0
1758088001.21279,1758087930.76929,0.0,0.0,0.0,-3.95341,8.70896,1.77617,9.56,-1.18,0.51,2.0
1758088001.21649,1758087930.77929,0.0,0.0,0.0,-4.23989,8.76626,1.71887,9.36,-0.84,0.25,2.0
1758088001.21762,1758087930.78929,0.0,0.0,0.0,-4.52637,9.05273,1.83346,9.36,-0.84,0.25,2.0
1758088001.22143,1758087930.79929,0.0,0.0,0.0,-5.09932,9.91217,1.43239,9.44,-0.46,0.15,2.0
1758088001.22215,1758087930.80929,0.0,0.0,0.0,-5.61499,10.65701,1.14592,9.44,-0.46,0.15,2.0
1758088001.22766,1758087930.81929,0.0,0.0,0.0,-5.78687,12.54778,0.85944,9.51,-0.3,0.09,2.0
1758088001.236,1758087930.82929,0.0,0.0,0.0,-5.78687,14.72501,0.85944,9.51,-0.3,0.09,2.0
1758088001.25239,1758087930.83929,0.0,0.0,0.0,-5.50039,16.04282,0.80214,9.54,-0.38,0.08,2.0
1758088001.25675,1758087930.84929,0.0,0.0,0.0,-5.32851,17.93358,0.40107,9.33,-0.59,-0.05,2.0
1758088001.27244,1758087930.85929,0.0,0.0,0.0,-5.32851,18.9649,0.0,9.33,-0.59,-0.05,2.0
1758088001.33267,1758087930.86929,0.0,0.0,0.0,-4.98473,20.3973,-0.45837,9.36,-0.84,-0.12,2.0
1758088001.33726,1758087930.87929,0.0,0.0,0.0,-4.35448,23.37668,-1.03132,9.36,-0.84,-0.12,2.0
1758088001.3406,1758087930.88929,0.0,0.0,0.0,-3.38045,28.93437,-2.06265,9.67,-0.97,-0.26,2.0
1758088001.3412,1758087930.89929,0.0,0.0,0.0,-2.86479,31.56997,-2.57831,9.67,-0.97,-0.26,2.0
1758088001.34244,1758087930.90929,0.0,0.0,0.0,-2.63561,32.54401,-2.92208,9.59,-0.91,-0.28,2.0
1758088001.34308,1758087930.91929,0.0,0.0,0.0,-2.34913,32.48671,-2.92208,9.59,-0.91,-0.28,2.0
1758088001.34667,1758087930.92929,0.0,0.0,0.0,-1.77617,31.39809,-2.6929,9.5,-0.78,-0.25,2.0
1758088001.34783,1758087930.93929,0.0,0.0,0.0,-0.85944,29.96569,-2.23454,9.6,-0.74,-0.25,2.0
1758088001.3635,1758087930.94929,0.0,0.0,0.0,0.51566,27.2155,-1.60428,9.6,-0.74,-0.25,2.0
1758088001.37225,1758087930.95929,0.0,0.0,0.0,3.72423,23.83505,0.34377,9.43,-0.9,-0.05,2.0
1758088001.40665,1758087930.96929,0.0,0.0,0.0,6.58902,16.67307,2.00535,9.43,-0.9,-0.05,2.0
1758088001.40763,1758087930.97929,0.0,0.0,0.0,9.62569,11.17268,3.49504,9.17,-1.24,0.05,2.0
1758088001.41252,1758087930.98929,0.0,0.0,0.0,13.00614,3.83882,4.29718,9.17,-1.24,0.05,2.0
1758088001.41695,1758087930.99929,0.0,0.0,0.0,17.36062,-11.51645,4.29718,8.69,-1.53,0.09,2.0
1758088001.41728,1758087931.00929,0.0,0.0,0.0,18.44924,-21.02755,3.38045,8.45,-1.48,0.03,2.0
1758088001.42009,1758087931.01929,0.0,0.0,0.0,18.16276,-22.68913,2.00535,8.45,-1.48,0.03,2.0
1758088001.43782,1758087931.02929,0.0,0.0,0.0,17.81899,-16.84496,-0.45837,10.25,-1.33,0.06,2.0
1758088001.50582,1758087931.03929,0.0,0.0,0.0,18.90761,-2.40642,-2.57831,10.25,-1.33,0.06,2.0
1758088001.51209,1758087931.04929,0.0,0.0,0.0,20.11082,5.61499,-2.97938,11.82,-1.25,0.52,2.0
1758088001.51675,1758087931.05929,0.0,0.0,0.0,21.42862,8.70896,-3.32316,11.82,-1.25,0.52,2.0
1758088001.51762,1758087931.06929,0.0,0.0,0.0,22.40265,7.04738,-3.83882,12.31,-0.93,0.83,2.0
1758088001.52149,1758087931.07929,0.0,0.0,0.0,24.80907,4.1253,-4.23989,11.92,-0.37,0.7,2.0
1758088001.52295,1758087931.08929,0.0,0.0,0.0,25.7831,-9.62569,-5.78687,11.92,-0.37,0.7,2.0
1758088001.52512,1758087931.09929,0.0,0.0,0.0,27.96034,-23.0902,-3.32316,10.55,-0.2,0.98,2.0
1758088001.52694,1758087931.10929,0.0,0.0,0.0,29.62192,-33.9764,0.17189,10.55,-0.2,0.98,2.0
1758088001.52755,1758087931.11929,0.0,0.0,0.0,29.39274,-29.67921,5.55769,12.78,-0.61,0.89,2.0
1758088001.53743,1758087931.12929,0.0,0.0,0.0,28.64789,-25.61122,8.25059,12.78,-0.61,0.89,2.0
1758088001.55272,1758087931.13929,0.0,0.0,0.0,27.50197,-25.61122,9.96947,12.87,-0.94,1.67,2.0
1758088001.55692,1758087931.14929,0.0,0.0,0.0,25.72581,-25.8404,10.25595,12.87,-0.94,1.67,2.0
1758088001.57591,1758087931.15929,0.0,0.0,0.0,23.20479,-23.37668,8.76626,11.44,-1.05,2.49,2.0
1758088001.59765,1758087931.16929,0.0,0.0,0.0,22.74642,-22.23076,7.10468,10.76,-0.46,2.22,2.0
1758088001.59907,1758087931.17929,0.0,0.0,0.0,23.0902,-19.36597,5.32851,10.76,-0.46,2.22,2.0
1758088001.60213,1758087931.18929,0.0,0.0,0.0,25.49662,-14.43854,4.18259,9.84,0.25,2.53,2.0
1758088001.60248,1758087931.19929,0.0,0.0,0.0,28.70519,-11.28727,4.35448,9.84,0.25,2.53,2.0
1758088001.62253,1758087931.20929,0.0,0.0,0.0,32.71589,-8.59437,4.92744,9.28,0.47,2.27,2.0
1758088001.6268,1758087931.21929,0.0,0.0,0.0,36.84119,-5.4431,6.35983,9.28,0.47,2.27,2.0
1758088001.64179,1758087931.22929,0.0,0.0,0.0,41.02378,1.60428,7.10468,9.82,0.23,1.47,2.0
1758088001.64275,1758087931.23929,0.0,0.0,0.0,42.62806,5.50039,7.84952,10.85,0.01,1.34,2.0
1758088001.72706,1758087931.24929,0.0,0.0,0.0,41.94051,8.88085,8.30789,10.85,0.01,1.34,2.0
1758088001.73143,1758087931.25929,0.0,0.0,0.0,40.10705,11.51645,8.70896,11.19,0.07,1.68,2.0
1758088001.73713,1758087931.26929,0.0,0.0,0.0,35.52338,16.10011,8.70896,11.19,0.07,1.68,2.0
1758088001.74681,1758087931.27929,0.0,0.0,0.0,31.91375,18.73572,8.136,10.8,0.42,1.8,2.0
1758088001.74744,1758087931.28929,0.0,0.0,0.0,28.70519,20.68378,7.21927,10.8,0.42,1.8,2.0
1758088001.75287,1758087931.29929,0.0,0.0,0.0,25.61122,21.31403,5.78687,9.66,0.92,1.52,2.0
1758088001.75597,1758087931.30929,0.0,0.0,0.0,22.11617,19.88164,3.20856,8.84,1.4,1.17,2.0
1758088001.75896,1758087931.31929,0.0,0.0,0.0,20.68378,18.56383,1.43239,8.84,1.4,1.17,2.0
1758088001.76351,1758087931.32929,0.0,0.0,0.0,20.11082,15.87093,0.11459,8.44,1.46,0.86,2.0
1758088001.76758,1758087931.33929,0.0,0.0,0.0,20.16812,12.08941,-0.85944,8.44,1.46,0.86,2.0
1758088001.77244,1758087931.34929,0.0,0.0,0.0,21.48592,6.18794,-1.03132,8.0,1.01,0.78,2.0
1758088001.77281,1758087931.35929,0.0,0.0,0.0,23.0902,2.92208,-0.34377,8.0,1.01,0.78,2.0
1758088001.77668,1758087931.36929,0.0,0.0,0.0,24.80907,-0.34377,0.34377,8.11,0.3,0.82,2.0
1758088001.79254,1758087931.37929,0.0,0.0,0.0,26.81443,-4.52637,1.3178,8.11,0.3,0.82,2.0
1758088001.83802,1758087931.38929,0.0,0.0,0.0,27.73116,-6.87549,2.00535,8.4,-0.15,0.91,2.0
1758088001.8419,1758087931.39929,0.0,0.0,0.0,28.01764,-7.84952,2.40642,8.9,-0.13,1.05,2.0
1758088001.84633,1758087931.40929,0.0,0.0,0.0,27.50197,-8.02141,2.6929,8.9,-0.13,1.05,2.0
1758088001.84692,1758087931.41929,0.0,0.0,0.0,26.18417,-7.96411,2.40642,9.41,0.22,1.12,2.0
1758088001.85217,1758087931.42929,0.0,0.0,0.0,24.00693,-5.50039,1.3178,9.41,0.22,1.12,2.0
1758088001.85682,1758087931.43929,0.0,0.0,0.0,22.74642,-3.55234,0.68755,9.75,0.62,0.97,2.0
1758088001.85753,1758087931.44929,0.0,0.0,0.0,21.48592,-3.03668,-0.11459,9.75,0.62,0.97,2.0
1758088001.87519,1758087931.45929,0.0,0.0,0.0,20.51189,0.0573,-1.03132,9.69,0.75,0.75,2.0
1758088001.87637,1758087931.46929,0.0,0.0,0.0,20.3973,2.7502,-1.08862,9.84,0.62,0.35,2.0
1758088001.89189,1758087931.47929,0.0,0.0,0.0,20.68378,5.32851,-0.68755,9.84,0.62,0.35,2.0
1758088001.89549,1758087931.48929,0.0,0.0,0.0,21.08485,7.33386,-0.22918,9.74,0.47,0.24,2.0
1758088001.91189,1758087931.49929,0.0,0.0,0.0,21.42862,11.22997,0.80214,9.74,0.47,0.24,2.0
1758088001.91549,1758087931.50929,0.0,0.0,0.0,21.37133,12.43318,1.3178,9.68,0.48,0.39,2.0
1758088001.93168,1758087931.51929,0.0,0.0,0.0,20.62648,13.40721,1.66158,9.68,0.48,0.39,2.0
1758088001.93286,1758087931.52929,0.0,0.0,0.0,19.59516,14.38124,1.71887,9.42,0.62,0.51,2.0
1758088001.94769,1758087931.53929,0.0,0.0,0.0,16.90226,14.72501,1.20321,9.16,0.86,0.45,2.0
1758088001.9555,1758087931.54929,0.0,0.0,0.0,15.0115,15.69904,1.48969,9.16,0.86,0.45,2.0
1758088001.97063,1758087931.55929,0.0,0.0,0.0,13.00614,18.22006,1.77617,9.25,1.09,0.26,2.0
1758088001.97581,1758087931.56929,0.0,0.0,0.0,9.62569,20.34,3.32316,9.25,1.09,0.26,2.0
1758088001.99062,1758087931.57929,0.0,0.0,0.0,7.79223,20.3973,4.64096,9.05,1.17,0.31,2.0
1758088001.99208,1758087931.58929,0.0,0.0,0.0,6.13065,20.22541,5.84417,9.05,1.17,0.31,2.0
1758088002.00767,1758087931.59929,0.0,0.0,0.0,4.52637,21.60051,6.7609,9.14,1.13,0.37,2.0
1758088002.02393,1758087931.60929,0.0,0.0,0.0,2.11994,22.11617,8.136,9.14,1.13,0.37,2.0
1758088002.02485,1758087931.61929,0.0,0.0,0.0,0.0573,19.13679,7.84952,9.44,1.06,0.61,2.0
1758088002.04151,1758087931.62929,0.0,0.0,0.0,-2.40642,13.00614,7.62034,9.04,1.01,0.7,2.0
1758088002.04248,1758087931.63929,0.0,0.0,0.0,-5.21392,4.46907,6.8182,9.04,1.01,0.7,2.0
1758088002.05792,1758087931.64929,0.0,0.0,0.0,-10.25595,-6.99009,5.61499,8.99,1.12,0.32,2.0
1758088002.05965,1758087931.65929,0.0,0.0,0.0,-14.03747,-13.00614,4.0107,8.99,1.12,0.32,2.0
1758088002.07687,1758087931.66929,0.0,0.0,0.0,-17.99088,-18.22006,2.29183,9.11,1.46,-0.11,2.0
1758088002.09304,1758087931.67929,0.0,0.0,0.0,-22.23076,-23.66316,0.0573,9.11,1.46,-0.11,2.0
1758088002.09623,1758087931.68929,0.0,0.0,0.0,-27.84575,-33.23156,-1.03132,9.06,1.91,-0.38,2.0
1758088002.11193,1758087931.69929,0.0,0.0,0.0,-31.39809,-37.87251,-1.20321,9.31,2.08,-0.83,2.0
1758088002.11551,1758087931.70929,0.0,0.0,0.0,-35.12231,-36.21093,0.0573,9.31,2.08,-0.83,2.0
1758088002.13067,1758087931.71929,0.0,0.0,0.0,-38.38818,-31.11161,2.29183,10.58,1.95,-1.16,2.0
1758088002.13748,1758087931.72929,0.0,0.0,0.0,-44.9199,-26.12688,6.41713,10.58,1.95,-1.16,2.0
1758088002.15291,1758087931.73929,0.0,0.0,0.0,-48.9306,-29.96569,9.4538,10.9,1.51,-0.18,2.0
1758088002.157,1758087931.74929,0.0,0.0,0.0,-53.17049,-39.07573,8.36518,10.9,1.51,-0.18,2.0
1758088002.17293,1758087931.75929,0.0,0.0,0.0,-55.6915,-50.13381,3.55234,11.79,0.96,1.14,2.0
1758088002.17626,1758087931.76929,0.0,0.0,0.0,-56.49364,-64.40046,-1.83346,14.59,0.09,2.0,2.0
1758088002.19247,1758087931.77929,0.0,0.0,0.0,-56.03527,-59.35843,-9.96947,14.59,0.09,2.0,2.0
1758088002.19685,1758087931.78929,0.0,0.0,0.0,-54.66018,-48.52953,-17.99088,17.91,-1.01,2.98,2.0
1758088002.21183,1758087931.79929,0.0,0.0,0.0,-51.6235,-36.89849,-23.54857,17.91,-1.01,2.98,2.0
1758088002.21559,1758087931.80929,0.0,0.0,0.0,-47.72739,-25.26744,-21.08485,14.01,-1.36,2.33,2.0
1758088002.23068,1758087931.81929,0.0,0.0,0.0,-42.68536,-20.68378,-16.3293,14.01,-1.36,2.33,2.0
1758088002.23263,1758087931.82929,0.0,0.0,0.0,-37.98711,-20.74107,-10.59972,9.79,-1.07,1.28,2.0
1758088002.25083,1758087931.83929,0.0,0.0,0.0,-33.05967,-19.48057,-2.46372,9.79,-1.07,1.08,2.0
1758088002.25224,1758087931.84929,0.0,0.0,0.0,-31.51268,-16.272,2.11994,7.87,-1.32,1.08,2.0
1758088002.26691,1758087931.85929,0.0,0.0,0.0,-31.28349,-13.5791,5.4431,8.52,-1.94,1.68,2.0
1758088002.28295,1758087931.86929,0.0,0.0,0.0,-31.51268,-9.5684,7.50575,8.52,-1.94,1.68,2.0
1758088002.28708,1758087931.87929,0.0,0.0,0.0,-31.56997,-1.60428,8.99544,10.49,-2.49,2.25,2.0
1758088002.30268,1758087931.88929,0.0,0.0,0.0,-31.28349,1.48969,8.76626,10.49,-2.49,2.25,2.0
1758088002.30739,1758087931.89929,0.0,0.0,0.0,-30.65324,3.09397,8.02141,11.52,-2.39,2.18,2.0
1758088002.32294,1758087931.90929,0.0,0.0,0.0,-29.67921,5.50039,6.58902,11.52,-2.39,2.18,2.0
1758088002.3263,1758087931.91929,0.0,0.0,0.0,-26.69983,10.8289,4.46907,11.53,-1.6,1.79,2.0
1758088002.3427,1758087931.92929,0.0,0.0,0.0,-24.29341,14.49583,4.0107,10.8,-0.87,1.46,2.0
1758088002.3439,1758087931.93929,0.0,0.0,0.0,-20.97026,16.55848,4.58366,10.8,-0.87,1.46,2.0
1758088002.35896,1758087931.94929,0.0,0.0,0.0,-17.99088,17.47521,5.21392,9.88,-0.66,1.04,2.0
1758088002.36184,1758087931.95929,0.0,0.0,0.0,-15.06879,17.36062,5.55769,9.88,-0.66,1.04,2.0
1758088002.37791,1758087931.96929,0.0,0.0,0.0,-13.5791,16.04282,5.09932,9.35,-0.85,0.77,2.0
1758088002.37967,1758087931.97929,0.0,0.0,0.0,-12.43318,15.06879,4.81285,9.35,-0.85,0.77,2.0
1758088002.39812,1758087931.98929,0.0,0.0,0.0,-11.45916,15.06879,3.66693,8.98,-1.2,0.48,2.0
1758088002.3997,1758087931.99929,0.0,0.0,0.0,-10.94349,14.49583,3.38045,8.79,-1.45,0.43,2.0
1758088002.41692,1758087932.00929,0.0,0.0,0.0,-10.19865,12.89155,2.63561,8.79,-1.45,0.43,2.0
1758088002.43695,1758087932.01929,0.0,0.0,0.0,-9.11003,10.94349,2.63561,8.42,-1.51,0.55,2.0
1758088002.43952,1758087932.02929,0.0,0.0,0.0,-7.62034,7.84952,2.06265,8.42,-1.51,0.55,2.0
1758088002.44088,1758087932.03929,0.0,0.0,0.0,-6.18794,4.52637,1.77617,8.32,-1.46,0.62,2.0
1758088002.45794,1758087932.04929,0.0,0.0,0.0,-4.92744,2.29183,1.48969,8.32,-1.46,0.62,2.0
1758088002.47655,1758087932.05929,0.0,0.0,0.0,-3.55234,1.20321,1.14592,8.48,-1.43,0.56,2.0
1758088002.4775,1758087932.06929,0.0,0.0,0.0,-1.3751,-2.92208,0.40107,8.71,-1.42,0.7,2.0
1758088002.49296,1758087932.07929,0.0,0.0,0.0,0.68755,-5.84417,0.22918,8.71,-1.42,0.7,2.0
1758088002.4987,1758087932.08929,0.0,0.0,0.0,3.55234,-6.47442,0.34377,9.24,-1.49,0.81,2.0
1758088002.51718,1758087932.09929,0.0,0.0,0.0,6.7609,-6.87549,0.97403,9.24,-1.49,0.81,2.0
1758088002.51836,1758087932.10929,0.0,0.0,0.0,12.08941,-6.35983,2.00535,9.68,-1.49,0.83,2.0
1758088002.5353,1758087932.11929,0.0,0.0,0.0,15.41257,-5.84417,2.97938,9.68,-1.49,0.83,2.0
1758088002.53723,1758087932.12929,0.0,0.0,0.0,18.33465,-5.61499,3.83882,9.53,-1.34,0.73,2.0
1758088002.55271,1758087932.13929,0.0,0.0,0.0,20.74107,-5.4431,4.1253,9.53,-1.34,0.73,2.0
1758088002.55737,1758087932.14929,0.0,0.0,0.0,23.26209,-3.38045,4.18259,9.27,-1.15,0.2,2.0
1758088002.57285,1758087932.15929,0.0,0.0,0.0,24.17882,-0.45837,3.49504,9.38,-0.93,-0.18,2.0
1758088002.57708,1758087932.16929,0.0,0.0,0.0,24.17882,2.23454,2.57831,9.38,-0.93,-0.18,2.0
1758088002.5928,1758087932.17929,0.0,0.0,0.0,23.94964,4.0107,1.3178,9.36,-0.79,-0.13,2.0
1758088002.60146,1758087932.18929,0.0,0.0,0.0,23.60586,7.16197,0.34377,9.36,-0.79,-0.13,2.0
1758088002.60184,1758087932.19929,0.0,0.0,0.0,23.54857,10.8862,-0.17189,9.64,-0.9,0.03,2.0
1758088002.61785,1758087932.20929,0.0,0.0,0.0,23.60586,15.64175,-0.68755,9.64,-0.9,0.03,2.0
1758088002.62155,1758087932.21929,0.0,0.0,0.0,23.60586,23.0329,-0.57296,10.03,-1.06,-0.02,2.0
1758088002.63752,1758087932.22929,0.0,0.0,0.0,23.26209,25.61122,-0.40107,9.69,-1.05,-0.13,2.0
1758088002.64308,1758087932.23929,0.0,0.0,0.0,22.57454,27.44468,-0.17189,9.69,-1.05,-0.13,2.0
1758088002.66284,1758087932.24929,0.0,0.0,0.0,21.48592,28.99167,0.0573,9.52,-0.94,-0.26,2.0
1758088002.67114,1758087932.25929,0.0,0.0,0.0,19.70975,30.82513,0.34377,9.52,-0.94,-0.26,2.0
1758088002.69787,1758087932.26929,0.0,0.0,0.0,18.62113,30.88243,0.40107,9.58,-0.74,-0.4,2.0
1758088002.7046,1758087932.27929,0.0,0.0,0.0,17.81899,30.13758,0.51566,9.58,-0.74,-0.4,2.0
1758088002.70685,1758087932.28929,0.0,0.0,0.0,17.18874,29.50733,-0.0573,9.61,-0.6,-0.46,2.0
1758088002.70888,1758087932.29929,0.0,0.0,0.0,16.73037,26.81443,-1.08862,9.6,-0.48,-0.52,2.0
1758088002.72409,1758087932.30929,0.0,0.0,0.0,17.18874,24.17882,-2.11994,9.6,-0.48,-0.52,2.0
1758088002.7273,1758087932.31929,0.0,0.0,0.0,17.99088,20.51189,-3.32316,9.53,-0.46,-0.18,2.0
1758088002.74307,1758087932.32929,0.0,0.0,0.0,19.70975,14.78231,-4.35448,9.53,-0.46,-0.18,2.0
1758088002.74394,1758087932.33929,0.0,0.0,0.0,23.60586,6.53172,-4.52637,9.4,-0.63,0.18,2.0
1758088002.78707,1758087932.34929,0.0,0.0,0.0,27.1582,0.80214,-3.95341,9.4,-0.63,0.18,2.0
1758088002.79524,1758087932.35929,0.0,0.0,0.0,30.82513,-4.46907,-3.60963,9.42,-1.07,0.3,2.0
1758088002.79661,1758087932.36929,0.0,0.0,0.0,34.72124,-8.88085,-3.72423,9.42,-1.07,0.3,2.0
1758088002.79787,1758087932.37929,0.0,0.0,0.0,38.78925,-12.2613,-4.29718,9.72,-1.57,0.02,2.0
1758088002.80042,1758087932.38929,0.0,0.0,0.0,40.7946,-13.5791,-5.78687,10.36,-1.73,-0.61,2.0
1758088002.80135,1758087932.39929,0.0,0.0,0.0,42.34158,-13.46451,-7.16197,10.36,-1.73,-0.61,2.0
1758088002.81685,1758087932.40929,0.0,0.0,0.0,43.02913,-11.22997,-9.4538,11.05,-1.28,-1.01,2.0
1758088002.8368,1758087932.41929,0.0,0.0,0.0,42.91454,-9.5684,-9.91217,11.05,-1.28,-1.01,2.0
1758088002.86231,1758087932.42929,0.0,0.0,0.0,42.39888,-11.74564,-9.5684,11.73,-0.36,-0.59,2.0
1758088002.86565,1758087932.43929,0.0,0.0,0.0,42.28429,-18.79302,-8.70896,11.73,-0.36,-0.59,2.0
1758088002.86825,1758087932.44929,0.0,0.0,0.0,42.91454,-27.44468,-7.50575,10.93,-0.01,0.6,2.0
1758088002.87285,1758087932.45929,0.0,0.0,0.0,42.85724,-21.08485,-6.58902,12.65,-0.22,1.54,2.0
1758088002.87631,1758087932.46929,0.0,0.0,0.0,44.46153,-10.71431,-6.07335,12.65,-0.22,1.54,2.0
1758088002.89213,1758087932.47929,0.0,0.0,0.0,47.38361,-15.12609,-2.92208,12.85,-0.49,2.89,2.0
1758088002.89625,1758087932.48929,0.0,0.0,0.0,49.96192,-45.09178,-1.43239,12.85,-0.49,2.89,2.0
1758088002.91208,1758087932.49929,0.0,0.0,0.0,51.16513,-59.70221,0.68755,9.16,-0.75,3.01,2.0
1758088002.917,1758087932.50929,0.0,0.0,0.0,51.16513,-65.37449,3.38045,9.16,-0.75,3.01,2.0
1758088002.93399,1758087932.51929,0.0,0.0,0.0,52.76942,-63.88479,5.95876,10.25,-1.01,2.23,2.0
1758088002.93739,1758087932.52929,0.0,0.0,0.0,54.71747,-55.6915,5.78687,10.11,-0.84,1.59,2.0
1758088002.95307,1758087932.53929,0.0,0.0,0.0,55.92068,-49.61814,4.69825,10.11,-0.84,1.59,2.0
1758088002.95752,1758087932.54929,0.0,0.0,0.0,56.37905,-43.88857,3.83882,9.83,-0.37,2.11,2.0
1758088002.97759,1758087932.55929,0.0,0.0,0.0,56.78012,-37.12767,2.34913,9.83,-0.37,2.11,2.0
1758088002.98039,1758087932.56929,0.0,0.0,0.0,56.66553,-24.57989,-1.03132,10.98,0.19,1.3,2.0
1758088002.98131,1758087932.57929,0.0,0.0,0.0,55.34772,-15.69904,-3.20856,10.98,0.19,1.3,2.0
1758088002.99882,1758087932.58929,0.0,0.0,0.0,53.74345,-8.88085,-4.0107,12.28,0.88,1.24,2.0
1758088003.00062,1758087932.59929,0.0,0.0,0.0,51.27972,-2.97938,-2.97938,12.28,0.88,1.24,2.0
1758088003.01704,1758087932.60929,0.0,0.0,0.0,50.3057,0.97403,-1.77617,11.93,1.26,0.74,2.0
1758088003.03311,1758087932.61929,0.0,0.0,0.0,49.96192,6.24524,0.0,11.31,1.06,0.45,2.0
1758088003.03672,1758087932.62929,0.0,0.0,0.0,49.38896,11.51645,1.60428,11.31,1.06,0.45,2.0
1758088003.05211,1758087932.63929,0.0,0.0,0.0,47.78468,17.36062,3.32316,10.27,0.64,0.22,2.0
1758088003.05651,1758087932.64929,0.0,0.0,0.0,46.35228,19.53786,3.38045,10.27,0.64,0.22,2.0
1758088003.07183,1758087932.65929,0.0,0.0,0.0,44.28964,21.6578,2.29183,9.42,0.53,0.34,2.0
1758088003.07621,1758087932.66929,0.0,0.0,0.0,41.94051,22.63183,1.43239,9.42,0.53,0.34,2.0
1758088003.09183,1758087932.67929,0.0,0.0,0.0,37.87251,21.60051,-1.03132,9.06,0.81,0.48,2.0
1758088003.09621,1758087932.68929,0.0,0.0,0.0,34.95043,20.11082,-2.29183,8.56,1.19,0.5,2.0
1758088003.11185,1758087932.69929,0.0,0.0,0.0,32.48671,17.6471,-2.97938,8.56,1.19,0.5,2.0
1758088003.11651,1758087932.70929,0.0,0.0,0.0,30.02299,14.9542,-3.03668,8.18,1.39,0.64,2.0
1758088003.13187,1758087932.71929,0.0,0.0,0.0,26.81443,9.11003,-1.60428,8.18,1.39,0.64,2.0
1758088003.13641,1758087932.72929,0.0,0.0,0.0,24.63719,5.4431,-0.57296,7.92,1.4,0.83,2.0
1758088003.17211,1758087932.73929,0.0,0.0,0.0,22.34536,2.34913,-0.17189,7.92,1.4,0.83,2.0
1758088003.17646,1758087932.74929,0.0,0.0,0.0,19.99623,-0.22918,-0.22918,8.17,1.27,0.86,2.0
1758088003.17682,1758087932.75929,0.0,0.0,0.0,17.01685,-4.18259,-1.14592,8.74,0.98,0.76,2.0
1758088003.17914,1758087932.76929,0.0,0.0,0.0,15.69904,-5.4431,-1.94806,8.74,0.98,0.76,2.0
1758088003.19625,1758087932.77929,0.0,0.0,0.0,15.12609,-5.32851,-2.86479,9.48,0.61,0.43,2.0
1758088003.19745,1758087932.78929,0.0,0.0,0.0,15.75634,-4.58366,-3.72423,9.48,0.61,0.43,2.0
1758088003.21709,1758087932.79929,0.0,0.0,0.0,17.01685,-1.94806,-3.72423,9.81,0.3,0.18,2.0
1758088003.21827,1758087932.80929,0.0,0.0,0.0,18.73572,-0.11459,-3.26586,9.81,0.3,0.18,2.0
1758088003.23689,1758087932.81929,0.0,0.0,0.0,20.85567,2.34913,-2.34913,9.83,0.1,0.02,2.0
1758088003.24367,1758087932.82929,0.0,0.0,0.0,23.89234,7.10468,-0.45837,9.83,0.1,0.02,2.0
1758088003.27039,1758087932.83929,0.0,0.0,0.0,25.49662,9.4538,0.68755,9.88,-0.02,-0.15,2.0
1758088003.27192,1758087932.84929,0.0,0.0,0.0,26.47065,12.71966,1.43239,9.81,0.03,-0.22,2.0
1758088003.27228,1758087932.85929,0.0,0.0,0.0,26.64254,16.272,2.06265,9.81,0.03,-0.22,2.0
1758088003.27696,1758087932.86929,0.0,0.0,0.0,26.18417,19.88164,2.57831,9.71,0.43,-0.4,2.0
1758088003.29214,1758087932.87929,0.0,0.0,0.0,25.21014,22.34536,3.09397,9.71,0.43,-0.4,2.0
1758088003.29632,1758087932.88929,0.0,0.0,0.0,23.83505,25.26744,3.38045,9.53,0.88,-0.46,2.0
1758088003.31213,1758087932.89929,0.0,0.0,0.0,22.11617,27.10091,3.83882,9.53,0.88,-0.46,2.0
1758088003.31626,1758087932.90929,0.0,0.0,0.0,18.85031,27.84575,4.35448,9.34,1.26,-0.26,2.0
1758088003.33222,1758087932.91929,0.0,0.0,0.0,16.55848,27.2155,5.32851,9.11,1.42,-0.02,2.0
1758088003.33629,1758087932.92929,0.0,0.0,0.0,13.86558,25.49662,6.58902,9.11,1.42,-0.02,2.0
1758088003.35216,1758087932.93929,0.0,0.0,0.0,10.19865,22.28806,7.21927,8.89,1.44,0.21,2.0
1758088003.35655,1758087932.94929,0.0,0.0,0.0,4.0107,7.67763,8.36518,8.89,1.44,0.21,2.0
1758088003.37221,1758087932.95929,0.0,0.0,0.0,-0.74485,-3.66693,7.67763,8.02,1.48,-0.1,2.0
1758088003.37633,1758087932.96929,0.0,0.0,0.0,-5.95876,-13.5218,6.58902,8.02,1.48,-0.1,2.0
1758088003.39219,1758087932.97929,0.0,0.0,0.0,-11.28727,-23.0902,4.92744,8.17,1.76,-0.58,2.0
1758088003.39632,1758087932.98929,0.0,0.0,0.0,-19.42327,-34.14828,3.03668,8.79,2.12,-0.72,2.0
1758088003.41217,1758087932.99929,0.0,0.0,0.0,-24.17882,-38.50277,0.68755,8.79,2.12,-0.72,2.0
1758088003.41591,1758087933.00929,0.0,0.0,0.0,-27.84575,-43.4875,-1.43239,9.6,2.25,-0.65,2.0
1758088003.4312,1758087933.01929,0.0,0.0,0.0,-31.28349,-43.25832,-4.1253,9.6,2.25,-0.65,2.0
1758088003.43243,1758087933.02929,0.0,0.0,0.0,-31.62727,-35.92446,-3.49504,10.8,2.1,-0.95,2.0
1758088003.44694,1758087933.03929,0.0,0.0,0.0,-33.68992,-36.38282,-3.60963,10.8,2.1,-0.95,2.0
1758088003.46496,1758087933.04929,0.0,0.0,0.0,-34.37747,-46.46688,-2.40642,10.58,1.59,-0.88,2.0
1758088003.46748,1758087933.05929,0.0,0.0,0.0,-36.32552,-56.37905,-1.66158,10.36,1.59,-1.24,2.0
1758088003.48475,1758087933.06929,0.0,0.0,0.0,-36.26823,-49.50356,0.40107,10.36,1.12,-1.24,2.0
1758088003.48747,1758087933.07929,0.0,0.0,0.0,-38.44547,-30.76784,0.68755,14.14,0.72,-1.39,2.0
1758088003.50471,1758087933.08929,0.0,0.0,0.0,-40.39353,-14.83961,-0.0573,14.14,0.72,-1.39,2.0
1758088003.50748,1758087933.09929,0.0,0.0,0.0,-41.13837,-9.74028,-1.20321,14.76,0.01,0.42,2.0
1758088003.52497,1758087933.10929,0.0,0.0,0.0,-40.7946,-16.3293,-2.6929,14.76,0.01,0.42,2.0
1758088003.52749,1758087933.11929,0.0,0.0,0.0,-39.70598,-22.51724,-5.32851,13.67,-0.23,1.89,2.0
1758088003.54473,1758087933.12929,0.0,0.0,0.0,-37.01308,-22.23076,-7.10468,13.67,-0.23,1.89,2.0
1758088003.54753,1758087933.13929,0.0,0.0,0.0,-30.53865,-14.32395,-7.96411,14.49,-0.84,1.11,2.0
1758088003.55237,1758087933.14929,0.0,0.0,0.0,-26.01229,-9.62569,-6.13065,12.77,-1.07,0.56,2.0
1758088003.56974,1758087933.15929,0.0,0.0,0.0,-22.05888,-3.60963,-3.20856,12.77,-1.07,0.56,2.0
1758088003.57582,1758087933.16929,0.0,0.0,0.0,-19.19409,3.20856,2.06265,9.95,-0.43,0.41,2.0
1758088003.59191,1758087933.17929,0.0,0.0,0.0,-17.99088,8.25059,5.21392,9.95,-0.43,0.41,2.0
1758088003.59569,1758087933.18929,0.0,0.0,0.0,-19.59516,7.79223,6.87549,7.91,-0.2,0.72,2.0
1758088003.61124,1758087933.19929,0.0,0.0,0.0,-22.86102,6.87549,7.04738,7.91,-0.2,0.72,2.0
1758088003.61219,1758087933.20929,0.0,0.0,0.0,-28.87707,7.39116,4.87014,7.95,-0.33,1.43,2.0
1758088003.62695,1758087933.21929,0.0,0.0,0.0,-32.37212,8.47978,2.86479,9.72,-0.67,1.91,2.0
1758088003.6444,1758087933.22929,0.0,0.0,0.0,-34.77854,9.39651,0.40107,9.72,-0.67,1.91,2.0
1758088003.64711,1758087933.23929,0.0,0.0,0.0,-35.86716,9.4538,-1.3178,11.06,-0.94,1.93,2.0
1758088003.66197,1758087933.24929,0.0,0.0,0.0,-34.14828,9.85487,-2.7502,11.06,-0.94,1.93,2.0
1758088003.66397,1758087933.25929,0.0,0.0,0.0,-31.2262,10.25595,-2.29183,11.21,-1.09,1.54,2.0
1758088003.67896,1758087933.26929,0.0,0.0,0.0,-27.33009,11.28727,-0.74485,11.21,-1.09,1.54,2.0
1758088003.6802,1758087933.27929,0.0,0.0,0.0,-23.37668,12.54778,0.74485,10.42,-1.03,0.91,2.0
1758088003.69723,1758087933.28929,0.0,0.0,0.0,-17.6471,13.80828,3.38045,9.74,-1.19,0.5,2.0
1758088003.71656,1758087933.29929,0.0,0.0,0.0,-14.49583,13.69369,4.46907,9.74,-1.19,0.5,2.0
1758088003.71707,1758087933.30929,0.0,0.0,0.0,-12.43318,12.83425,5.27121,9.46,-1.41,0.19,2.0
1758088003.73651,1758087933.31929,0.0,0.0,0.0,-11.28727,12.54778,5.61499,9.46,-1.41,0.19,2.0
1758088003.73712,1758087933.32929,0.0,0.0,0.0,-9.4538,11.00079,5.32851,9.35,-1.42,0.08,2.0
1758088003.75638,1758087933.33929,0.0,0.0,0.0,-8.88085,10.65701,4.87014,9.35,-1.42,0.08,2.0
1758088003.75709,1758087933.34929,0.0,0.0,0.0,-8.30789,10.48513,4.29718,9.33,-1.33,0.0,2.0
1758088003.76044,1758087933.35929,0.0,0.0,0.0,-7.73493,10.19865,3.55234,9.33,-1.33,0.0,2.0
1758088003.77725,1758087933.36929,0.0,0.0,0.0,-7.21927,8.76626,2.63561,9.2,-1.13,0.1,2.0
1758088003.79643,1758087933.37929,0.0,0.0,0.0,-7.10468,7.50575,2.23454,8.98,-0.84,0.26,2.0
1758088003.79709,1758087933.38929,0.0,0.0,0.0,-6.7609,6.70361,2.06265,8.98,-0.84,0.26,2.0
1758088003.81503,1758087933.39929,0.0,0.0,0.0,-6.18794,5.90147,1.66158,8.96,-0.6,0.25,2.0
1758088003.81667,1758087933.40929,0.0,0.0,0.0,-5.90147,4.81285,1.43239,8.96,-0.6,0.25,2.0
1758088003.8323,1758087933.41929,0.0,0.0,0.0,-5.4431,3.55234,1.3178,8.95,-0.51,0.29,2.0
1758088003.83726,1758087933.42929,0.0,0.0,0.0,-4.92744,2.86479,0.97403,8.95,-0.51,0.29,2.0
1758088003.85225,1758087933.43929,0.0,0.0,0.0,-3.20856,3.09397,0.74485,9.17,-0.63,0.34,2.0
1758088003.85669,1758087933.44929,0.0,0.0,0.0,-1.3178,4.29718,1.20321,9.46,-0.92,0.32,2.0
1758088003.87225,1758087933.45929,0.0,0.0,0.0,0.80214,5.27121,1.94806,9.46,-0.92,0.32,2.0
1758088003.87483,1758087933.46929,0.0,0.0,0.0,3.03668,7.73493,2.86479,9.49,-1.22,0.17,2.0
1758088003.89045,1758087933.47929,0.0,0.0,0.0,6.35983,11.22997,3.89611,9.49,-1.22,0.17,2.0
1758088003.89162,1758087933.48929,0.0,0.0,0.0,7.79223,14.15206,3.95341,9.41,-1.19,-0.07,2.0
1758088003.90696,1758087933.49929,0.0,0.0,0.0,8.88085,17.13144,3.20856,9.41,-1.19,-0.07,2.0
1758088003.92509,1758087933.50929,0.0,0.0,0.0,9.74028,18.90761,2.57831,9.4,-0.84,-0.13,2.0
1758088003.9267,1758087933.51929,0.0,0.0,0.0,11.63104,20.11082,2.06265,9.38,-0.68,-0.36,2.0
1758088003.94203,1758087933.52929,0.0,0.0,0.0,12.37589,22.28806,1.3178,9.38,-0.68,-0.36,2.0
1758088003.94432,1758087933.53929,0.0,0.0,0.0,13.34992,23.94964,1.03132,9.58,-0.7,-0.32,2.0
1758088003.95901,1758087933.54929,0.0,0.0,0.0,14.03747,25.61122,0.80214,9.58,-0.7,-0.32,2.0
1758088003.96111,1758087933.55929,0.0,0.0,0.0,15.06879,24.80907,0.85944,9.4,-0.82,-0.11,2.0
1758088003.97702,1758087933.56929,0.0,0.0,0.0,15.69904,24.75178,0.45837,9.4,-0.82,-0.11,2.0
1758088003.99638,1758087933.57929,0.0,0.0,0.0,15.98552,26.12688,0.0,9.27,-0.92,-0.18,2.0
1758088003.9971,1758087933.58929,0.0,0.0,0.0,15.87093,27.33009,-0.97403,9.27,-0.92,-0.18,2.0
1758088004.01511,1758087933.59929,0.0,0.0,0.0,15.64175,27.38738,-1.08862,9.26,-0.91,-0.29,2.0
1758088004.01632,1758087933.60929,0.0,0.0,0.0,15.06879,26.47065,-1.43239,9.22,-0.75,-0.4,2.0
1758088004.03202,1758087933.61929,0.0,0.0,0.0,14.38124,25.26744,-1.20321,9.22,-0.75,-0.4,2.0
1758088004.03675,1758087933.62929,0.0,0.0,0.0,13.69369,23.83505,-1.14592,9.46,-0.57,-0.63,2.0
1758088004.05234,1758087933.63929,0.0,0.0,0.0,13.06344,22.63183,-1.48969,9.46,-0.57,-0.63,2.0
1758088004.05596,1758087933.64929,0.0,0.0,0.0,13.06344,21.14215,-1.77617,9.74,-0.48,-0.6,2.0
1758088004.07231,1758087933.65929,0.0,0.0,0.0,13.86558,19.70975,-2.11994,9.74,-0.48,-0.6,2.0
1758088004.07593,1758087933.66929,0.0,0.0,0.0,16.10011,14.9542,-2.40642,9.92,-0.48,-0.28,2.0
1758088004.09213,1758087933.67929,0.0,0.0,0.0,18.44924,10.08406,-1.94806,9.8,-0.68,0.07,2.0
1758088004.09565,1758087933.68929,0.0,0.0,0.0,21.14215,4.92744,-1.71887,9.8,-0.68,0.07,2.0
1758088004.11232,1758087933.69929,0.0,0.0,0.0,24.23611,0.0573,-1.48969,9.85,-1.09,0.04,2.0
1758088004.11746,1758087933.70929,0.0,0.0,0.0,28.13223,-4.87014,-1.66158,9.85,-1.09,0.04,2.0
1758088004.1322,1758087933.71929,0.0,0.0,0.0,30.19488,-6.7609,-2.06265,10.3,-1.43,-0.49,2.0
1758088004.13592,1758087933.72929,0.0,0.0,0.0,31.45539,-8.02141,-2.7502,10.3,-1.43,-0.49,2.0
1758088004.15233,1758087933.73929,0.0,0.0,0.0,31.97105,-9.39651,-3.26586,11.01,-1.35,-0.5,2.0
1758088004.15488,1758087933.74929,0.0,0.0,0.0,31.16891,-12.14671,-3.72423,11.58,-0.57,-0.64,2.0
1758088004.17004,1758087933.75929,0.0,0.0,0.0,29.96569,-15.35527,-4.0107,11.58,-0.57,-0.64,2.0
1758088004.17537,1758087933.76929,0.0,0.0,0.0,29.22085,-21.08485,-3.89611,11.17,-0.05,-0.12,2.0
1758088004.19029,1758087933.77929,0.0,0.0,0.0,29.27814,-29.04896,-2.23454,11.17,-0.05,-0.12,2.0
1758088004.19126,1758087933.78929,0.0,0.0,0.0,29.67921,-39.70598,-0.80214,11.03,-0.03,0.81,2.0
1758088004.20686,1758087933.79929,0.0,0.0,0.0,30.02299,-41.13837,0.51566,11.03,-0.03,0.81,2.0
1758088004.22305,1758087933.80929,0.0,0.0,0.0,30.53865,-34.49206,1.03132,12.4,-0.08,1.91,2.0
1758088004.22363,1758087933.81929,0.0,0.0,0.0,34.66395,-23.89234,2.06265,12.4,-0.08,1.91,2.0
1758088004.2408,1758087933.82929,0.0,0.0,0.0,39.07573,-26.41335,1.14592,13.01,-0.49,2.89,2.0
1758088004.24262,1758087933.83929,0.0,0.0,0.0,44.00316,-44.57612,2.97938,9.51,-1.01,3.29,2.0
1758088004.25732,1758087933.84929,0.0,0.0,0.0,47.72739,-58.49899,1.48969,9.51,-1.01,3.29,2.0
1758088004.27572,1758087933.85929,0.0,0.0,0.0,55.97798,-60.73353,4.64096,9.26,-1.49,2.19,2.0
1758088004.27666,1758087933.86929,0.0,0.0,0.0,60.10328,-53.34238,6.07335,9.26,-1.49,2.19,2.0
1758088004.29207,1758087933.87929,0.0,0.0,0.0,63.8275,-46.52417,6.41713,10.17,-1.56,1.57,2.0
1758088004.2949,1758087933.88929,0.0,0.0,0.0,66.97877,-41.59674,6.7609,10.17,-1.56,1.57,2.0
1758088004.31008,1758087933.89929,0.0,0.0,0.0,68.69764,-31.51268,6.7609,9.69,-1.11,1.61,2.0
1758088004.31555,1758087933.90929,0.0,0.0,0.0,67.66632,-23.31938,5.4431,10.92,-0.24,1.55,2.0
1758088004.33009,1758087933.91929,0.0,0.0,0.0,64.80153,-14.9542,3.60963,10.92,-0.24,1.55,2.0
1758088004.33552,1758087933.92929,0.0,0.0,0.0,60.44705,-6.35983,2.40642,12.02,1.0,1.19,2.0
1758088004.35035,1758087933.93929,0.0,0.0,0.0,53.17049,2.29183,2.40642,12.02,1.0,1.19,2.0
1758088004.3532,1758087933.94929,0.0,0.0,0.0,49.04519,5.95876,3.03668,12.02,1.89,1.03,2.0
1758088004.37009,1758087933.95929,0.0,0.0,0.0,45.83662,10.19865,3.55234,12.02,1.89,1.03,2.0
1758088004.37133,1758087933.96929,0.0,0.0,0.0,43.14373,14.78231,3.66693,11.18,1.98,0.46,2.0
1758088004.38711,1758087933.97929,0.0,0.0,0.0,40.33623,20.45459,3.20856,9.78,1.42,0.22,2.0
1758088004.4031,1758087933.98929,0.0,0.0,0.0,39.01843,22.11617,2.11994,9.78,1.42,0.22,2.0
1758088004.40562,1758087933.99929,0.0,0.0,0.0,37.75792,24.35071,0.45837,9.05,0.89,0.2,2.0
1758088004.40807,1758087934.00929,0.0,0.0,0.0,35.69527,26.24147,-1.66158,9.05,0.89,0.2,2.0
1758088004.42715,1758087934.01929,0.0,0.0,0.0,33.74722,25.72581,-2.97938,9.04,0.73,0.61,2.0
1758088004.42834,1758087934.02929,0.0,0.0,0.0,31.51268,24.63719,-3.89611,9.04,0.73,0.61,2.0
1758088004.44364,1758087934.03929,0.0,0.0,0.0,29.22085,23.0329,-4.1253,8.82,0.75,0.91,2.0
1758088004.46013,1758087934.04929,0.0,0.0,0.0,26.12688,20.05352,-3.32316,8.82,0.75,0.91,2.0
1758088004.46211,1758087934.05929,0.0,0.0,0.0,25.09555,16.90226,-2.23454,8.5,0.73,1.04,2.0
1758088004.47737,1758087934.06929,0.0,0.0,0.0,24.12152,14.78231,-0.80214,8.28,0.6,0.84,2.0
1758088004.47878,1758087934.07929,0.0,0.0,0.0,22.97561,12.71966,-0.0573,8.28,0.6,0.84,2.0
1758088004.4973,1758087934.08929,0.0,0.0,0.0,21.6578,9.74028,0.51566,8.49,0.5,0.64,2.0
1758088004.50011,1758087934.09929,0.0,0.0,0.0,20.3973,9.96947,0.17189,8.49,0.5,0.64,2.0
1758088004.51542,1758087934.10929,0.0,0.0,0.0,19.19409,10.19865,-0.45837,9.13,0.61,0.44,2.0
1758088004.53146,1758087934.11929,0.0,0.0,0.0,18.10547,9.96947,-1.03132,9.13,0.61,0.44,2.0
1758088004.53636,1758087934.12929,0.0,0.0,0.0,17.01685,10.02676,-2.00535,9.57,0.73,0.31,2.0
1758088004.55119,1758087934.13929,0.0,0.0,0.0,16.73037,11.00079,-2.23454,9.93,0.57,-0.04,2.0
1758088004.55283,1758087934.14929,0.0,0.0,0.0,16.84496,13.40721,-2.29183,9.93,0.57,-0.04,2.0
1758088004.56715,1758087934.15929,0.0,0.0,0.0,17.24603,15.24068,-2.11994,9.98,0.27,-0.18,2.0
1758088004.56841,1758087934.16929,0.0,0.0,0.0,18.10547,16.3293,-1.66158,9.98,0.27,-0.18,2.0
1758088004.5838,1758087934.17929,0.0,0.0,0.0,18.79302,16.3293,-0.97403,9.63,0.1,-0.22,2.0
1758088004.59917,1758087934.18929,0.0,0.0,0.0,19.42327,16.55848,-0.22918,9.63,0.1,-0.22,2.0
1758088004.60119,1758087934.19929,0.0,0.0,0.0,19.70975,17.58981,0.45837,9.55,0.12,-0.13,2.0
1758088004.61643,1758087934.20929,0.0,0.0,0.0,19.42327,19.07949,0.80214,9.45,0.3,-0.11,2.0
1758088004.63246,1758087934.21929,0.0,0.0,0.0,18.79302,19.42327,0.97403,9.45,0.3,-0.11,2.0
1758088004.63523,1758087934.22929,0.0,0.0,0.0,17.87628,19.70975,1.3178,9.18,0.54,-0.05,2.0
1758088004.65021,1758087934.23929,0.0,0.0,0.0,16.3293,20.85567,2.7502,9.18,0.54,-0.05,2.0
1758088004.65295,1758087934.24929,0.0,0.0,0.0,15.0115,21.7151,3.26586,9.23,0.73,-0.04,2.0
1758088004.6715,1758087934.25929,0.0,0.0,0.0,13.00614,23.60586,4.0107,9.23,0.73,-0.04,2.0
1758088004.6748,1758087934.26929,0.0,0.0,0.0,10.71431,24.4653,4.87014,9.27,0.89,-0.04,2.0
1758088004.69022,1758087934.27929,0.0,0.0,0.0,6.35983,24.98096,5.95876,9.3,0.89,0.17,2.0
1758088004.69143,1758087934.28929,0.0,0.0,0.0,2.23454,22.00158,6.18794,9.3,1.02,0.17,2.0
1758088004.70613,1758087934.29929,0.0,0.0,0.0,-2.63561,15.75634,5.55769,8.98,1.29,0.23,2.0
1758088004.7222,1758087934.30929,0.0,0.0,0.0,-7.67763,7.50575,4.35448,8.98,1.29,0.23,2.0
1758088004.72531,1758087934.31929,0.0,0.0,0.0,-15.64175,-3.89611,2.11994,8.85,1.65,-0.23,2.0
1758088004.74101,1758087934.32929,0.0,0.0,0.0,-20.62648,-11.11538,0.74485,8.85,1.65,-0.23,2.0
1758088004.7422,1758087934.33929,0.0,0.0,0.0,-25.49662,-16.67307,-1.43239,9.13,1.97,-0.46,2.0
1758088004.75747,1758087934.34929,0.0,0.0,0.0,-30.30947,-21.94428,-3.95341,9.13,1.97,-0.46,2.0
1758088004.7584,1758087934.35929,0.0,0.0,0.0,-35.52338,-33.00237,-7.39116,9.44,2.13,-0.43,2.0
1758088004.77626,1758087934.36929,0.0,0.0,0.0,-37.58603,-35.2369,-8.59437,9.77,2.03,-0.55,2.0
1758088004.79119,1758087934.37929,0.0,0.0,0.0,-38.61736,-30.93972,-8.93814,9.77,2.03,-0.55,2.0
1758088004.79243,1758087934.38929,0.0,0.0,0.0,-39.07573,-27.96034,-7.21927,10.88,1.62,-0.67,2.0
1758088004.80737,1758087934.39929,0.0,0.0,0.0,-40.16434,-36.15364,-4.69825,10.88,1.62,-0.67,2.0
1758088004.80872,1758087934.40929,0.0,0.0,0.0,-41.08107,-45.26366,-3.60963,9.54,1.2,-0.76,2.0
1758088004.82704,1758087934.41929,0.0,0.0,0.0,-42.34158,-48.35764,-2.57831,9.54,1.2,-0.76,2.0
1758088004.84151,1758087934.42929,0.0,0.0,0.0,-45.20637,-29.39274,0.97403,10.63,0.91,-1.72,2.0
1758088004.84243,1758087934.43929,0.0,0.0,0.0,-48.58683,-11.17268,1.66158,13.64,0.97,-1.87,2.0
1758088004.85725,1758087934.44929,0.0,0.0,0.0,-52.65482,-3.38045,1.83346,13.64,0.97,-1.87,2.0
1758088004.85953,1758087934.45929,0.0,0.0,0.0,-55.00395,-5.21392,2.57831,12.51,0.62,0.35,2.0
1758088004.87549,1758087934.46929,0.0,0.0,0.0,-56.66553,-17.47521,3.03668,12.51,0.62,0.35,2.0
1758088004.89139,1758087934.47929,0.0,0.0,0.0,-57.0093,-23.66316,0.45837,12.49,0.0,1.58,2.0
1758088004.89266,1758087934.48929,0.0,0.0,0.0,-55.86338,-28.93437,-3.38045,12.49,0.0,1.58,2.0
1758088004.90727,1758087934.49929,0.0,0.0,0.0,-52.71212,-31.51268,-7.67763,13.97,-0.65,1.4,2.0
1758088004.90884,1758087934.50929,0.0,0.0,0.0,-43.83128,-27.84575,-12.77696,13.98,-1.51,2.03,2.0
1758088004.9267,1758087934.51929,0.0,0.0,0.0,-36.84119,-28.01764,-14.03747,13.98,-1.51,2.03,2.0
1758088004.94147,1758087934.52929,0.0,0.0,0.0,-30.59595,-28.93437,-14.43854,11.22,-1.58,2.07,2.0
1758088004.94266,1758087934.53929,0.0,0.0,0.0,-26.47065,-25.26744,-13.12073,11.22,-1.58,2.07,2.0
1758088004.95748,1758087934.54929,0.0,0.0,0.0,-23.0902,-19.59516,-8.30789,8.95,-0.99,1.67,2.0
1758088004.95856,1758087934.55929,0.0,0.0,0.0,-22.91831,-19.42327,-4.52637,8.95,-0.99,1.67,2.0
1758088004.97668,1758087934.56929,0.0,0.0,0.0,-24.35071,-19.48057,-1.48969,7.19,-0.72,2.08,2.0
1758088004.9912,1758087934.57929,0.0,0.0,0.0,-26.69983,-17.93358,1.3178,7.19,-0.72,2.08,2.0
1758088004.99239,1758087934.58929,0.0,0.0,0.0,-30.59595,-11.74564,4.0107,8.84,-1.12,2.19,2.0
1758088005.00765,1758087934.59929,0.0,0.0,0.0,-32.14294,-6.07335,4.64096,11.75,-1.76,1.66,2.0
1758088005.00879,1758087934.60929,0.0,0.0,0.0,-32.42941,-0.51566,4.87014,11.75,-1.76,1.66,2.0
1758088005.02638,1758087934.61929,0.0,0.0,0.0,-30.13758,6.99009,4.81285,12.51,-1.73,1.61,2.0
1758088005.04149,1758087934.62929,0.0,0.0,0.0,-27.67386,11.34457,4.52637,12.51,-1.73,1.61,2.0
1758088005.04245,1758087934.63929,0.0,0.0,0.0,-24.80907,15.24068,4.58366,11.17,-1.2,1.2,2.0
1758088005.05721,1758087934.64929,0.0,0.0,0.0,-21.48592,19.13679,4.64096,11.17,-1.2,1.2,2.0
1758088005.05872,1758087934.65929,0.0,0.0,0.0,-17.01685,23.0902,4.87014,10.0,-0.85,0.46,2.0
1758088005.07651,1758087934.66929,0.0,0.0,0.0,-14.72501,23.60586,4.92744,9.39,-0.73,0.14,2.0
1758088005.09251,1758087934.67929,0.0,0.0,0.0,-13.12073,23.54857,4.87014,9.39,-0.73,0.14,2.0
1758088005.09693,1758087934.68929,0.0,0.0,0.0,-11.57375,22.63183,5.09932,9.08,-0.89,0.05,2.0
1758088005.11227,1758087934.69929,0.0,0.0,0.0,-10.25595,21.02755,4.81285,9.08,-0.89,0.05,2.0
1758088005.11695,1758087934.70929,0.0,0.0,0.0,-9.62569,19.13679,4.18259,8.84,-1.1,0.16,2.0
1758088005.1323,1758087934.71929,0.0,0.0,0.0,-9.05273,16.90226,3.72423,8.84,-1.1,0.16,2.0
1758088005.13691,1758087934.72929,0.0,0.0,0.0,-8.70896,13.98017,3.03668,8.59,-1.2,0.27,2.0
1758088005.15254,1758087934.73929,0.0,0.0,0.0,-8.0787,10.08406,2.06265,8.63,-1.16,0.36,2.0
1758088005.15694,1758087934.74929,0.0,0.0,0.0,-7.67763,7.44845,1.3751,8.63,-1.16,0.36,2.0
