timeStamp,timeStampAlign,roll,pitch,yaw,gyro_x,gyro_y,gyro_z,acc_x,acc_y,acc_z,flag_num
1758077918.68083,1758077917.85569,0.0,0.0,0.0,-14.09476,-2.00535,11.28727,9.31,0.44,0.25,4.0
1758077918.74294,1758077917.86569,0.0,0.0,0.0,-13.5218,-2.97938,11.51645,9.31,0.44,0.25,4.0
1758077918.74699,1758077917.87569,0.0,0.0,0.0,-13.06344,-4.18259,11.86023,9.22,0.43,0.42,4.0
1758077918.74759,1758077917.88569,0.0,0.0,0.0,-12.71966,-4.58366,11.97482,9.12,0.51,0.28,4.0
1758077918.74875,1758077917.89569,0.0,0.0,0.0,-12.71966,-5.27121,12.08941,9.12,0.51,0.28,4.0
1758077918.75103,1758077917.90569,0.0,0.0,0.0,-12.89155,-6.47442,11.86023,8.78,0.6,0.27,4.0
1758077918.75243,1758077917.91569,0.0,0.0,0.0,-13.00614,-8.88085,11.57375,8.78,0.6,0.27,4.0
1758077918.75331,1758077917.92569,0.0,0.0,0.0,-13.12073,-10.8289,11.45916,8.32,0.67,0.34,4.0
1758077918.75459,1758077917.93569,0.0,0.0,0.0,-13.5791,-11.97482,11.17268,8.32,0.67,0.34,4.0
1758077918.75559,1758077917.94569,0.0,0.0,0.0,-14.20935,-13.00614,11.34457,8.12,0.76,0.21,4.0
1758077918.75631,1758077917.95569,0.0,0.0,0.0,-14.72501,-13.5218,11.34457,7.96,0.8,-0.03,4.0
1758077918.75827,1758077917.96569,0.0,0.0,0.0,-15.12609,-14.9542,11.00079,7.96,0.8,-0.03,4.0
1758077918.75925,1758077917.97569,0.0,0.0,0.0,-15.58445,-16.67307,10.65701,7.69,0.7,0.1,4.0
1758077918.77461,1758077917.98569,0.0,0.0,0.0,-15.69904,-18.73572,9.74028,7.69,0.7,0.1,4.0
1758077918.77625,1758077917.99569,0.0,0.0,0.0,-15.87093,-19.99623,8.99544,8.12,0.41,0.78,4.0
1758077918.7913,1758077918.00569,0.0,0.0,0.0,-16.21471,-21.7151,7.79223,8.12,0.41,0.78,4.0
1758077918.79678,1758077918.01569,0.0,0.0,0.0,-16.38659,-23.83505,6.87549,9.15,-0.02,1.41,4.0
1758077918.81434,1758077918.02569,0.0,0.0,0.0,-16.50119,-27.96034,6.70361,9.87,-0.48,1.88,4.0
1758077918.81558,1758077918.03569,0.0,0.0,0.0,-16.21471,-30.25217,6.8182,9.87,-0.48,1.88,4.0
1758077918.83039,1758077918.04569,0.0,0.0,0.0,-16.10011,-30.53865,7.04738,10.32,-1.08,2.22,4.0
1758077918.84639,1758077918.05569,0.0,0.0,0.0,-16.38659,-29.33544,7.10468,10.32,-1.08,2.22,4.0
1758077918.84753,1758077918.06569,0.0,0.0,0.0,-16.50119,-20.22541,4.29718,12.51,-1.74,4.13,4.0
1758077918.86259,1758077918.07569,0.0,0.0,0.0,-14.09476,-8.36518,0.0,12.51,-1.74,4.13,4.0
1758077918.8654,1758077918.08569,0.0,0.0,0.0,-10.25595,3.03668,-7.16197,20.06,-3.18,3.39,4.0
1758077918.88036,1758077918.09569,0.0,0.0,0.0,-4.29718,6.70361,-16.61578,20.06,-3.18,3.39,4.0
1758077918.89677,1758077918.10569,0.0,0.0,0.0,0.68755,-5.61499,-19.48057,20.88,-4.93,0.56,4.0
1758077918.89754,1758077918.11569,0.0,0.0,0.0,3.20856,-10.71431,-17.36062,14.72,-3.03,-0.09,4.0
1758077918.91271,1758077918.12569,0.0,0.0,0.0,7.73493,-5.72958,-10.94349,14.72,-3.03,-0.09,4.0
1758077918.91353,1758077918.13569,0.0,0.0,0.0,11.22997,-0.97403,0.0,12.17,-0.69,0.98,4.0
1758077918.92894,1758077918.14569,0.0,0.0,0.0,11.57375,2.86479,5.50039,12.17,-0.69,0.98,4.0
1758077918.94512,1758077918.15569,0.0,0.0,0.0,11.17268,6.13065,8.42248,10.89,-0.02,1.01,4.0
1758077918.94634,1758077918.16569,0.0,0.0,0.0,9.5684,7.33386,9.11003,10.89,-0.02,1.01,4.0
1758077918.96165,1758077918.17569,0.0,0.0,0.0,6.58902,7.16197,7.96411,9.41,-0.68,1.19,4.0
1758077918.96612,1758077918.18569,0.0,0.0,0.0,5.84417,11.63104,6.99009,8.41,-1.68,1.49,4.0
1758077918.98179,1758077918.19569,0.0,0.0,0.0,5.15662,17.87628,6.41713,8.41,-1.68,1.49,4.0
1758077918.98264,1758077918.20569,0.0,0.0,0.0,5.15662,18.56383,6.7609,8.2,-1.74,1.71,4.0
1758077919.00062,1758077918.21569,0.0,0.0,0.0,5.50039,8.76626,7.79223,8.2,-1.74,1.71,4.0
1758077919.0164,1758077918.22569,0.0,0.0,0.0,5.90147,3.38045,8.42248,7.42,-0.92,1.67,4.0
1758077919.01765,1758077918.23569,0.0,0.0,0.0,6.47442,1.20321,8.65166,7.42,-0.92,1.67,4.0
1758077919.03243,1758077918.24569,0.0,0.0,0.0,7.04738,1.94806,8.36518,8.59,-0.24,1.48,4.0
1758077919.03361,1758077918.25569,0.0,0.0,0.0,6.99009,2.97938,6.18794,9.27,-0.27,2.01,4.0
1758077919.04871,1758077918.26569,0.0,0.0,0.0,5.55769,2.86479,3.89611,9.27,-0.27,2.01,4.0
1758077919.06555,1758077918.27569,0.0,0.0,0.0,3.60963,3.20856,1.08862,9.58,-0.64,1.96,4.0
1758077919.06646,1758077918.28569,0.0,0.0,0.0,1.03132,3.89611,-1.66158,9.58,-0.64,1.96,4.0
1758077919.08172,1758077918.29569,0.0,0.0,0.0,-3.03668,5.21392,-4.81285,10.25,-0.97,1.56,4.0
1758077919.08263,1758077918.30569,0.0,0.0,0.0,-6.13065,6.70361,-6.18794,10.25,-0.97,1.56,4.0
1758077919.10048,1758077918.31569,0.0,0.0,0.0,-8.88085,7.84952,-6.8182,10.91,-1.01,1.27,4.0
1758077919.11672,1758077918.32569,0.0,0.0,0.0,-12.2613,8.65166,-6.87549,10.91,-1.01,1.27,4.0
1758077919.11791,1758077918.33569,0.0,0.0,0.0,-13.86558,9.05273,-6.24524,11.09,-0.85,1.12,4.0
1758077919.13372,1758077918.34569,0.0,0.0,0.0,-14.61043,8.47978,-5.50039,10.85,-0.73,1.16,4.0
1758077919.13546,1758077918.35569,0.0,0.0,0.0,-14.43854,6.87549,-4.18259,10.85,-0.73,1.16,4.0
1758077919.15046,1758077918.36569,0.0,0.0,0.0,-13.34992,0.68755,-1.83346,10.29,-0.84,1.31,4.0
1758077919.16678,1758077918.37569,0.0,0.0,0.0,-11.97482,-3.60963,-0.68755,10.29,-0.84,1.31,4.0
1758077919.16798,1758077918.38569,0.0,0.0,0.0,-9.96947,-3.89611,1.08862,9.69,-1.09,1.14,4.0
1758077919.18264,1758077918.39569,0.0,0.0,0.0,-7.44845,-2.6929,2.97938,9.69,-1.09,1.14,4.0
1758077919.18561,1758077918.40569,0.0,0.0,0.0,-4.35448,-0.74485,4.98473,9.64,-1.26,1.06,4.0
1758077919.20055,1758077918.41569,0.0,0.0,0.0,-2.7502,1.77617,5.95876,9.35,-1.19,1.22,4.0
1758077919.21685,1758077918.42569,0.0,0.0,0.0,-1.77617,4.58366,6.8182,9.35,-1.19,1.22,4.0
1758077919.218,1758077918.43569,0.0,0.0,0.0,-1.14592,6.13065,6.87549,9.28,-0.78,1.09,4.0
1758077919.23541,1758077918.44569,0.0,0.0,0.0,-1.60428,7.16197,6.24524,9.28,-0.78,1.09,4.0
1758077919.23657,1758077918.45569,0.0,0.0,0.0,-2.46372,7.39116,5.27121,9.25,-0.3,1.02,4.0
1758077919.25196,1758077918.46569,0.0,0.0,0.0,-3.55234,7.21927,3.83882,9.25,-0.3,1.02,4.0
1758077919.25357,1758077918.47569,0.0,0.0,0.0,-4.81285,6.87549,2.23454,9.4,-0.02,1.07,4.0
1758077919.26955,1758077918.48569,0.0,0.0,0.0,-6.47442,6.24524,-0.51566,9.7,-0.05,1.09,4.0
1758077919.28628,1758077918.49569,0.0,0.0,0.0,-7.16197,5.78687,-2.00535,9.7,-0.05,1.09,4.0
1758077919.28783,1758077918.50569,0.0,0.0,0.0,-7.62034,5.55769,-3.26586,9.93,-0.32,1.01,4.0
1758077919.30258,1758077918.51569,0.0,0.0,0.0,-7.50575,5.78687,-4.1253,9.93,-0.32,1.01,4.0
1758077919.30534,1758077918.52569,0.0,0.0,0.0,-6.58902,6.18794,-4.1253,10.09,-0.71,1.04,4.0
1758077919.32095,1758077918.53569,0.0,0.0,0.0,-5.78687,5.55769,-3.66693,10.09,-0.71,1.04,4.0
1758077919.33688,1758077918.54569,0.0,0.0,0.0,-4.46907,5.21392,-2.86479,10.19,-1.02,1.08,4.0
1758077919.33975,1758077918.55569,0.0,0.0,0.0,-1.77617,3.66693,-1.3178,10.19,-1.02,1.08,4.0
1758077919.35485,1758077918.56569,0.0,0.0,0.0,-0.17189,2.11994,-0.45837,10.25,-1.17,1.04,4.0
1758077919.35608,1758077918.57569,0.0,0.0,0.0,1.71887,-0.40107,0.85944,10.05,-1.22,0.96,4.0
1758077919.37061,1758077918.58569,0.0,0.0,0.0,3.83882,-2.40642,1.77617,10.05,-1.22,0.96,4.0
1758077919.38682,1758077918.59569,0.0,0.0,0.0,6.70361,-5.21392,3.32316,9.81,-1.18,0.83,4.0
1758077919.38821,1758077918.60569,0.0,0.0,0.0,8.02141,-5.55769,4.1253,9.81,-1.18,0.83,4.0
1758077919.40295,1758077918.61569,0.0,0.0,0.0,9.33921,-4.92744,4.29718,9.8,-1.06,0.91,4.0
1758077919.4054,1758077918.62569,0.0,0.0,0.0,10.31324,-4.87014,4.29718,9.8,-1.06,0.91,4.0
1758077919.42245,1758077918.63569,0.0,0.0,0.0,10.94349,-2.06265,3.89611,9.76,-0.81,0.84,4.0
1758077919.42614,1758077918.64569,0.0,0.0,0.0,11.00079,0.22918,2.97938,9.97,-0.52,0.79,4.0
1758077919.44178,1758077918.65569,0.0,0.0,0.0,10.48513,3.55234,2.34913,9.97,-0.52,0.79,4.0
1758077919.44526,1758077918.66569,0.0,0.0,0.0,9.74028,8.99544,0.97403,10.15,-0.32,0.8,4.0
1758077919.46197,1758077918.67569,0.0,0.0,0.0,8.42248,13.40721,-0.34377,10.15,-0.32,0.8,4.0
1758077919.46285,1758077918.68569,0.0,0.0,0.0,7.44845,10.8289,-0.74485,9.79,-0.22,1.03,4.0
1758077919.48199,1758077918.69569,0.0,0.0,0.0,6.8182,6.35983,-1.03132,9.79,-0.22,1.03,4.0
1758077919.48288,1758077918.70569,0.0,0.0,0.0,5.84417,1.66158,-0.97403,9.35,-0.24,0.7,4.0
1758077919.50096,1758077918.71569,0.0,0.0,0.0,4.29718,-3.49504,-0.97403,9.52,-0.36,0.55,4.0
1758077919.51689,1758077918.72569,0.0,0.0,0.0,3.38045,-6.07335,-0.85944,9.52,-0.36,0.55,4.0
1758077919.51815,1758077918.73569,0.0,0.0,0.0,2.7502,-7.73493,-0.80214,9.83,-0.46,0.83,4.0
1758077919.53279,1758077918.74569,0.0,0.0,0.0,2.06265,-10.48513,-0.51566,9.83,-0.46,0.83,4.0
1758077919.53626,1758077918.75569,0.0,0.0,0.0,1.83346,-12.71966,-0.34377,9.93,-0.47,0.79,4.0
1758077919.55166,1758077918.76569,0.0,0.0,0.0,1.66158,-14.20935,-0.40107,9.93,-0.47,0.79,4.0
1758077919.55314,1758077918.77569,0.0,0.0,0.0,1.3751,-15.29797,-0.51566,9.75,-0.39,0.66,4.0
1758077919.56895,1758077918.78569,0.0,0.0,0.0,1.3178,-15.12609,-0.57296,9.75,-0.39,0.66,4.0
1758077919.58497,1758077918.79569,0.0,0.0,0.0,1.3751,-13.80828,-0.68755,9.68,-0.3,0.83,4.0
1758077919.58607,1758077918.80569,0.0,0.0,0.0,1.3178,-11.97482,-0.97403,9.88,-0.21,0.88,4.0
1758077919.601,1758077918.81569,0.0,0.0,0.0,1.03132,-10.08406,-1.08862,9.88,-0.21,0.88,4.0
1758077919.60553,1758077918.82569,0.0,0.0,0.0,0.17189,-8.30789,-1.60428,9.9,-0.19,0.9,4.0
1758077919.62098,1758077918.83569,0.0,0.0,0.0,-0.68755,-7.84952,-1.94806,9.9,-0.19,0.9,4.0
1758077919.637,1758077918.84569,0.0,0.0,0.0,-1.71887,-8.136,-2.40642,9.81,-0.16,0.77,4.0
1758077919.63803,1758077918.85569,0.0,0.0,0.0,-2.7502,-8.42248,-2.86479,9.81,-0.16,0.77,4.0
1758077919.65276,1758077918.86569,0.0,0.0,0.0,-4.35448,-8.59437,-3.38045,9.84,-0.16,0.67,4.0
1758077919.65419,1758077918.87569,0.0,0.0,0.0,-5.4431,-8.0787,-3.66693,9.94,-0.14,0.6,4.0
1758077919.66903,1758077918.88569,0.0,0.0,0.0,-6.35983,-7.44845,-3.83882,9.94,-0.14,0.6,4.0
1758077919.685,1758077918.89569,0.0,0.0,0.0,-7.16197,-6.18794,-3.72423,9.88,-0.11,0.61,4.0
1758077919.68604,1758077918.90569,0.0,0.0,0.0,-8.42248,-5.4431,-3.66693,9.88,-0.11,0.61,4.0
1758077919.70095,1758077918.91569,0.0,0.0,0.0,-8.99544,-5.55769,-3.89611,9.63,-0.14,0.62,4.0
1758077919.71686,1758077918.92569,0.0,0.0,0.0,-9.4538,-5.21392,-3.95341,9.63,-0.14,0.62,4.0
1758077919.72153,1758077918.93569,0.0,0.0,0.0,-9.96947,-5.27121,-4.23989,9.51,-0.22,0.41,4.0
1758077919.7371,1758077918.94569,0.0,0.0,0.0,-10.48513,-5.32851,-4.64096,9.52,-0.29,0.2,4.0
1758077919.74281,1758077918.95569,0.0,0.0,0.0,-10.59972,-4.87014,-5.09932,9.52,-0.29,0.2,4.0
1758077919.74664,1758077918.96569,0.0,0.0,0.0,-10.54242,-4.0107,-5.55769,9.79,-0.3,0.15,4.0
1758077919.76278,1758077918.97569,0.0,0.0,0.0,-10.37054,-2.29183,-6.35983,9.79,-0.3,0.15,4.0
1758077919.76532,1758077918.98569,0.0,0.0,0.0,-10.08406,-2.40642,-6.8182,10.0,-0.3,0.27,4.0
1758077919.7801,1758077918.99569,0.0,0.0,0.0,-9.62569,-2.46372,-7.44845,10.0,-0.3,0.27,4.0
1758077919.79585,1758077919.00569,0.0,0.0,0.0,-9.11003,-2.34913,-7.67763,10.08,-0.36,0.29,4.0
1758077919.79701,1758077919.01569,0.0,0.0,0.0,-8.47978,-2.7502,-8.02141,10.11,-0.36,0.27,4.0
1758077919.81185,1758077919.02569,0.0,0.0,0.0,-7.79223,-3.60963,-8.136,10.11,-0.5,0.27,4.0
1758077919.81379,1758077919.03569,0.0,0.0,0.0,-7.16197,-4.0107,-8.136,9.96,-0.63,0.33,4.0
1758077919.82912,1758077919.04569,0.0,0.0,0.0,-6.24524,-3.95341,-7.96411,9.96,-0.63,0.33,4.0
1758077919.84667,1758077919.05569,0.0,0.0,0.0,-4.81285,-4.46907,-7.21927,9.83,-0.74,0.44,4.0
1758077919.85101,1758077919.06569,0.0,0.0,0.0,-3.72423,-5.50039,-6.70361,9.83,-0.74,0.44,4.0
1758077919.86617,1758077919.07569,0.0,0.0,0.0,-2.86479,-6.70361,-5.95876,9.57,-0.78,0.46,4.0
1758077919.8697,1758077919.08569,0.0,0.0,0.0,-2.00535,-7.62034,-5.27121,9.57,-0.78,0.46,4.0
1758077919.8858,1758077919.09569,0.0,0.0,0.0,-0.85944,-7.67763,-4.23989,9.48,-0.76,0.35,4.0
1758077919.8896,1758077919.10569,0.0,0.0,0.0,0.0,-7.04738,-3.72423,9.5,-0.71,0.33,4.0
1758077919.90593,1758077919.11569,0.0,0.0,0.0,0.68755,-6.53172,-3.20856,9.5,-0.71,0.33,4.0
1758077919.90818,1758077919.12569,0.0,0.0,0.0,1.3751,-6.35983,-2.92208,9.5,-0.62,0.32,4.0
1758077919.92328,1758077919.13569,0.0,0.0,0.0,2.29183,-5.84417,-2.97938,9.5,-0.62,0.32,4.0
1758077919.92731,1758077919.14569,0.0,0.0,0.0,2.7502,-4.98473,-3.26586,9.57,-0.51,0.26,4.0
1758077920.04537,1758077919.15569,0.0,0.0,0.0,3.55234,-4.64096,-3.55234,9.57,-0.51,0.26,4.0
1758077920.05458,1758077919.16569,0.0,0.0,0.0,4.18259,-4.87014,-4.23989,9.65,-0.47,0.31,4.0
1758077920.05495,1758077919.17569,0.0,0.0,0.0,4.35448,-5.27121,-4.92744,9.58,-0.5,0.32,4.0
1758077920.05858,1758077919.18569,0.0,0.0,0.0,4.69825,-4.92744,-5.55769,9.58,-0.5,0.32,4.0
1758077920.05914,1758077919.19569,0.0,0.0,0.0,5.15662,-4.29718,-6.13065,9.63,-0.63,0.3,4.0
1758077920.06689,1758077919.20569,0.0,0.0,0.0,5.84417,-3.20856,-6.58902,9.63,-0.63,0.3,4.0
1758077920.06737,1758077919.21569,0.0,0.0,0.0,6.35983,-2.11994,-6.87549,9.64,-0.75,0.25,4.0
1758077920.06818,1758077919.22569,0.0,0.0,0.0,6.87549,-1.03132,-7.16197,9.64,-0.75,0.25,4.0
1758077920.07033,1758077919.23569,0.0,0.0,0.0,7.50575,-0.57296,-7.44845,9.68,-0.75,0.15,4.0
1758077920.07076,1758077919.24569,0.0,0.0,0.0,8.59437,0.45837,-7.50575,9.8,-0.67,0.1,4.0
1758077920.07348,1758077919.25569,0.0,0.0,0.0,9.33921,1.3178,-7.73493,9.8,-0.67,0.1,4.0
1758077920.07467,1758077919.26569,0.0,0.0,0.0,9.85487,1.77617,-8.136,9.92,-0.59,0.15,4.0
1758077920.07569,1758077919.27569,0.0,0.0,0.0,10.48513,1.94806,-8.76626,9.92,-0.59,0.15,4.0
1758077920.07604,1758077919.28569,0.0,0.0,0.0,11.57375,2.34913,-9.68299,9.99,-0.54,0.15,4.0
1758077920.07723,1758077919.29569,0.0,0.0,0.0,12.37589,1.94806,-10.31324,9.99,-0.54,0.15,4.0
1758077920.09478,1758077919.30569,0.0,0.0,0.0,13.34992,1.3178,-10.59972,9.96,-0.57,0.13,4.0
1758077920.09624,1758077919.31569,0.0,0.0,0.0,14.09476,0.74485,-10.8862,9.96,-0.57,0.13,4.0
1758077920.11131,1758077919.32569,0.0,0.0,0.0,15.35527,0.57296,-10.8289,9.72,-0.66,0.17,4.0
1758077920.12708,1758077919.33569,0.0,0.0,0.0,16.04282,0.68755,-10.8289,9.52,-0.76,0.24,4.0
1758077920.12825,1758077919.34569,0.0,0.0,0.0,16.73037,-0.0573,-10.65701,9.52,-0.76,0.24,4.0
1758077920.14307,1758077919.35569,0.0,0.0,0.0,17.47521,-1.03132,-10.25595,9.08,-0.78,0.27,4.0
1758077920.14667,1758077919.36569,0.0,0.0,0.0,18.16276,-0.97403,-10.02676,9.08,-0.78,0.27,4.0
1758077920.1646,1758077919.37569,0.0,0.0,0.0,18.10547,-0.34377,-9.62569,8.88,-0.66,0.13,4.0
1758077920.20502,1758077919.38569,0.0,0.0,0.0,17.87628,0.0573,-9.33921,8.88,-0.66,0.13,4.0
1758077920.20986,1758077919.39569,0.0,0.0,0.0,16.84496,-0.85944,-9.22462,8.67,-0.42,0.12,4.0
1758077920.21077,1758077919.40569,0.0,0.0,0.0,15.87093,-1.3751,-9.28192,8.6,-0.13,0.16,4.0
1758077920.21141,1758077919.41569,0.0,0.0,0.0,14.32395,-1.71887,-9.4538,8.6,-0.13,0.16,4.0
1758077920.2134,1758077919.42569,0.0,0.0,0.0,12.83425,-1.94806,-9.91217,8.68,0.09,0.02,4.0
1758077920.21407,1758077919.43569,0.0,0.0,0.0,10.8862,-2.7502,-10.65701,8.68,0.09,0.02,4.0
1758077920.23014,1758077919.44569,0.0,0.0,0.0,9.5684,-3.32316,-11.28727,8.62,0.16,-0.05,4.0
1758077920.24828,1758077919.45569,0.0,0.0,0.0,8.30789,-3.66693,-11.91752,8.62,0.16,-0.05,4.0
1758077920.24936,1758077919.46569,0.0,0.0,0.0,7.33386,-3.72423,-12.71966,8.53,0.06,-0.26,4.0
1758077920.26496,1758077919.47569,0.0,0.0,0.0,5.90147,-4.52637,-13.5218,8.34,-0.07,-0.31,4.0
1758077920.26637,1758077919.48569,0.0,0.0,0.0,5.09932,-5.15662,-13.80828,8.34,-0.07,-0.31,4.0
1758077920.28138,1758077919.49569,0.0,0.0,0.0,4.58366,-6.47442,-13.86558,8.0,-0.21,-0.3,4.0
1758077920.29894,1758077919.50569,0.0,0.0,0.0,4.23989,-7.79223,-13.75099,8.0,-0.21,-0.3,4.0
1758077920.41046,1758077919.51569,0.0,0.0,0.0,3.72423,-9.74028,-13.5218,7.6,-0.34,-0.34,4.0
1758077920.41089,1758077919.52569,0.0,0.0,0.0,3.66693,-10.54242,-13.12073,7.6,-0.34,-0.34,4.0
1758077920.4171,1758077919.53569,0.0,0.0,0.0,3.66693,-11.57375,-12.77696,7.29,-0.39,-0.57,4.0
1758077920.41896,1758077919.54569,0.0,0.0,0.0,3.83882,-13.23533,-12.2613,7.29,-0.39,-0.57,4.0
1758077920.42176,1758077919.55569,0.0,0.0,0.0,3.83882,-17.87628,-11.63104,6.8,-0.38,-0.65,4.0
1758077920.42637,1758077919.56569,0.0,0.0,0.0,3.89611,-21.42862,-11.17268,6.33,-0.35,-0.47,4.0
1758077920.42713,1758077919.57569,0.0,0.0,0.0,3.89611,-26.18417,-10.59972,6.33,-0.35,-0.47,4.0
1758077920.42824,1758077919.58569,0.0,0.0,0.0,4.46907,-33.17426,-8.93814,6.55,-0.34,-0.03,4.0
1758077920.42901,1758077919.59569,0.0,0.0,0.0,4.87014,-36.32552,-7.79223,6.55,-0.34,-0.03,4.0
1758077920.43041,1758077919.60569,0.0,0.0,0.0,4.81285,-36.38282,-6.24524,8.31,-0.22,0.52,4.0
1758077920.43086,1758077919.61569,0.0,0.0,0.0,3.95341,-33.86181,-4.87014,8.31,-0.22,0.52,4.0
1758077920.43309,1758077919.62569,0.0,0.0,0.0,1.60428,-30.53865,-2.63561,10.84,0.19,1.43,4.0
1758077920.43348,1758077919.63569,0.0,0.0,0.0,-0.0573,-26.18417,-1.43239,12.6,0.92,1.69,4.0
1758077920.43467,1758077919.64569,0.0,0.0,0.0,-0.97403,-19.36597,1.03132,12.6,0.92,1.69,4.0
1758077920.4353,1758077919.65569,0.0,0.0,0.0,-2.92208,-14.78231,1.43239,14.15,1.67,2.29,4.0
1758077920.45152,1758077919.66569,0.0,0.0,0.0,-7.50575,7.04738,6.99009,14.15,1.67,2.29,4.0
1758077920.46725,1758077919.67569,0.0,0.0,0.0,-15.0115,18.33465,14.78231,22.31,3.21,3.02,4.0
1758077920.46924,1758077919.68569,0.0,0.0,0.0,-23.49127,20.3973,18.44924,22.31,3.21,3.02,4.0
1758077920.48443,1758077919.69569,0.0,0.0,0.0,-24.80907,-5.55769,20.34,21.47,4.28,0.09,4.0
1758077920.48542,1758077919.70569,0.0,0.0,0.0,-32.48671,-41.88322,10.48513,11.57,1.36,-2.13,4.0
1758077920.50052,1758077919.71569,0.0,0.0,0.0,-30.99702,-9.91217,7.04738,11.57,1.36,-2.13,4.0
1758077920.51655,1758077919.72569,0.0,0.0,0.0,-28.24682,16.21471,1.20321,14.05,-0.7,-1.18,4.0
1758077920.51747,1758077919.73569,0.0,0.0,0.0,-23.20479,12.71966,-4.58366,14.05,-0.7,-1.18,4.0
1758077920.53326,1758077919.74569,0.0,0.0,0.0,-14.43854,2.11994,-11.34457,9.94,-0.56,0.4,4.0
1758077920.53478,1758077919.75569,0.0,0.0,0.0,-7.62034,-4.18259,-16.10011,9.94,-0.56,0.4,4.0
1758077920.55036,1758077919.76569,0.0,0.0,0.0,-0.74485,-10.19865,-19.42327,12.05,-0.26,-0.48,4.0
1758077920.56637,1758077919.77569,0.0,0.0,0.0,4.69825,-14.32395,-18.56383,12.05,-0.26,-0.48,4.0
1758077920.56785,1758077919.78569,0.0,0.0,0.0,3.55234,-12.49048,-15.64175,12.87,0.0,0.44,4.0
1758077920.5826,1758077919.79569,0.0,0.0,0.0,-0.40107,-6.07335,-11.97482,13.15,0.6,1.16,4.0
1758077920.58595,1758077919.80569,0.0,0.0,0.0,-6.13065,5.95876,-9.33921,13.15,0.6,1.16,4.0
1758077920.60254,1758077919.81569,0.0,0.0,0.0,-15.24068,22.91831,-7.79223,12.77,1.14,1.33,4.0
1758077920.60588,1758077919.82569,0.0,0.0,0.0,-17.87628,23.26209,-8.47978,12.77,1.14,1.33,4.0
1758077920.62635,1758077919.83569,0.0,0.0,0.0,-17.93358,16.55848,-9.33921,10.08,1.67,1.11,4.0
1758077920.63045,1758077919.84569,0.0,0.0,0.0,-16.84496,10.65701,-10.71431,10.08,1.67,1.11,4.0
1758077920.71854,1758077919.85569,0.0,0.0,0.0,-14.83961,8.99544,-12.54778,9.15,2.02,0.59,4.0
1758077920.72053,1758077919.86569,0.0,0.0,0.0,-13.5218,10.71431,-12.83425,9.81,1.94,0.49,4.0
1758077920.72086,1758077919.87569,0.0,0.0,0.0,-11.97482,12.08941,-12.43318,9.81,1.94,0.49,4.0
1758077920.72611,1758077919.88569,0.0,0.0,0.0,-10.25595,11.86023,-11.51645,9.71,1.35,1.01,4.0
1758077920.72785,1758077919.89569,0.0,0.0,0.0,-8.02141,8.70896,-9.22462,9.71,1.35,1.01,4.0
1758077920.7328,1758077919.90569,0.0,0.0,0.0,-6.7609,7.79223,-7.04738,9.17,0.76,0.83,4.0
1758077920.73454,1758077919.91569,0.0,0.0,0.0,-5.84417,8.136,-4.87014,9.17,0.76,0.83,4.0
1758077920.73748,1758077919.92569,0.0,0.0,0.0,-5.32851,10.59972,-2.46372,9.24,0.34,0.56,4.0
1758077920.74243,1758077919.93569,0.0,0.0,0.0,-4.69825,15.12609,0.68755,9.42,0.24,0.69,4.0
1758077920.74813,1758077919.94569,0.0,0.0,0.0,-4.46907,17.81899,2.7502,9.42,0.24,0.69,4.0
1758077920.75174,1758077919.95569,0.0,0.0,0.0,-4.35448,20.68378,4.1253,9.39,0.47,0.71,4.0
1758077920.7531,1758077919.96569,0.0,0.0,0.0,-4.23989,21.7151,5.32851,9.39,0.47,0.71,4.0
1758077920.75691,1758077919.97569,0.0,0.0,0.0,-4.46907,19.76705,6.07335,9.27,0.86,0.9,4.0
1758077920.77623,1758077919.98569,0.0,0.0,0.0,-5.15662,17.6471,5.90147,9.27,0.86,0.9,4.0
1758077920.89179,1758077919.99569,0.0,0.0,0.0,-5.84417,17.30333,5.72958,9.66,1.24,0.74,4.0
1758077920.89413,1758077920.00569,0.0,0.0,0.0,-7.04738,18.44924,5.55769,9.66,1.24,0.74,4.0
1758077920.89552,1758077920.01569,0.0,0.0,0.0,-7.79223,19.25138,5.4431,10.19,1.39,0.6,4.0
1758077920.89584,1758077920.02569,0.0,0.0,0.0,-8.59437,19.13679,5.27121,10.09,1.24,0.61,4.0
1758077920.89945,1758077920.03569,0.0,0.0,0.0,-9.39651,19.48057,5.09932,10.09,1.24,0.61,4.0
1758077920.90104,1758077920.04569,0.0,0.0,0.0,-10.65701,19.07949,4.18259,9.99,1.03,0.43,4.0
1758077920.90226,1758077920.05569,0.0,0.0,0.0,-11.34457,17.81899,3.49504,9.99,1.03,0.43,4.0
1758077920.90673,1758077920.06569,0.0,0.0,0.0,-12.14671,16.61578,2.92208,9.78,0.95,0.31,4.0
1758077920.90946,1758077920.07569,0.0,0.0,0.0,-12.54778,15.12609,2.46372,9.78,0.95,0.31,4.0
1758077920.91649,1758077920.08569,0.0,0.0,0.0,-12.77696,13.17803,2.29183,9.72,0.99,0.31,4.0
1758077920.91732,1758077920.09569,0.0,0.0,0.0,-12.60507,11.97482,2.40642,9.69,0.99,0.33,4.0
1758077920.94114,1758077920.10569,0.0,0.0,0.0,-11.97482,11.80293,2.6929,9.69,0.99,0.33,4.0
1758077920.94176,1758077920.11569,0.0,0.0,0.0,-11.28727,11.91752,3.09397,9.76,0.84,0.31,4.0
1758077921.04194,1758077920.12569,0.0,0.0,0.0,-9.68299,12.49048,3.95341,9.76,0.84,0.31,4.0
1758077921.04623,1758077920.13569,0.0,0.0,0.0,-8.42248,12.71966,4.52637,9.68,0.57,0.24,4.0
1758077921.04935,1758077920.14569,0.0,0.0,0.0,-7.04738,13.12073,5.32851,9.68,0.57,0.24,4.0
1758077921.04971,1758077920.15569,0.0,0.0,0.0,-5.55769,13.5791,6.18794,9.61,0.31,0.25,4.0
1758077921.05088,1758077920.16569,0.0,0.0,0.0,-3.89611,14.15206,7.79223,9.65,0.15,0.34,4.0
1758077921.05207,1758077920.17569,0.0,0.0,0.0,-2.92208,14.32395,8.70896,9.65,0.15,0.34,4.0
1758077921.05322,1758077920.18569,0.0,0.0,0.0,-2.40642,14.20935,9.39651,9.59,0.23,0.31,4.0
1758077921.05354,1758077920.19569,0.0,0.0,0.0,-2.23454,14.03747,10.08406,9.59,0.23,0.31,4.0
1758077921.05416,1758077920.20569,0.0,0.0,0.0,-2.29183,13.69369,10.37054,9.5,0.46,0.34,4.0
1758077921.05529,1758077920.21569,0.0,0.0,0.0,-2.46372,13.06344,10.25595,9.5,0.46,0.34,4.0
1758077921.05605,1758077920.22569,0.0,0.0,0.0,-2.7502,12.43318,10.19865,9.37,0.71,0.41,4.0
1758077921.05715,1758077920.23569,0.0,0.0,0.0,-3.32316,9.74028,9.91217,9.37,0.71,0.41,4.0
1758077921.05992,1758077920.24569,0.0,0.0,0.0,-3.83882,7.44845,9.74028,9.27,0.86,0.47,4.0
1758077921.06165,1758077920.25569,0.0,0.0,0.0,-3.95341,4.98473,9.39651,9.25,0.81,0.57,4.0
1758077921.06344,1758077920.26569,0.0,0.0,0.0,-4.23989,2.97938,9.22462,9.25,0.81,0.57,4.0
1758077921.06653,1758077920.27569,0.0,0.0,0.0,-4.23989,1.14592,8.65166,9.3,0.55,0.62,4.0
1758077921.06705,1758077920.28569,0.0,0.0,0.0,-4.18259,0.0573,8.136,9.3,0.55,0.62,4.0
1758077921.08258,1758077920.29569,0.0,0.0,0.0,-3.72423,-2.00535,8.136,9.12,0.27,0.65,4.0
1758077921.08613,1758077920.30569,0.0,0.0,0.0,-3.09397,-3.38045,8.30789,9.12,0.27,0.65,4.0
1758077921.10265,1758077920.31569,0.0,0.0,0.0,-2.23454,-4.81285,8.42248,8.95,0.09,0.63,4.0
1758077921.10534,1758077920.32569,0.0,0.0,0.0,-1.20321,-6.13065,8.76626,8.86,0.08,0.62,4.0
1758077921.12161,1758077920.33569,0.0,0.0,0.0,-0.68755,-8.47978,8.76626,8.86,0.08,0.62,4.0
1758077921.12549,1758077920.34569,0.0,0.0,0.0,0.22918,-11.91752,9.05273,8.41,0.14,0.65,4.0
1758077921.14079,1758077920.35569,0.0,0.0,0.0,1.03132,-13.46451,8.99544,8.41,0.14,0.65,4.0
1758077921.15686,1758077920.36569,0.0,0.0,0.0,1.14592,-12.2613,8.59437,8.42,0.24,0.46,4.0
1758077921.1589,1758077920.37569,0.0,0.0,0.0,1.14592,-10.8862,8.0787,8.42,0.24,0.46,4.0
1758077921.17467,1758077920.38569,0.0,0.0,0.0,1.60428,-8.36518,7.33386,8.57,0.39,0.34,4.0
1758077921.1764,1758077920.39569,0.0,0.0,0.0,-0.57296,-6.35983,6.53172,8.86,0.49,0.34,4.0
1758077921.19189,1758077920.40569,0.0,0.0,0.0,-1.03132,-4.23989,6.47442,8.86,0.49,0.34,4.0
1758077921.20762,1758077920.41569,0.0,0.0,0.0,-1.71887,-2.97938,6.53172,9.2,0.48,0.24,4.0
1758077921.20962,1758077920.42569,0.0,0.0,0.0,-2.40642,-2.6929,7.16197,9.2,0.48,0.24,4.0
1758077921.22571,1758077920.43569,0.0,0.0,0.0,-2.6929,-2.97938,7.79223,9.34,0.38,0.14,4.0
1758077921.22664,1758077920.44569,0.0,0.0,0.0,-2.63561,-2.57831,8.30789,9.34,0.38,0.14,4.0
1758077921.24194,1758077920.45569,0.0,0.0,0.0,-2.00535,-1.94806,8.70896,9.74,0.22,-0.01,4.0
1758077921.25794,1758077920.46569,0.0,0.0,0.0,-0.74485,-3.26586,9.33921,9.74,0.22,0.03,4.0
1758077921.25966,1758077920.47569,0.0,0.0,0.0,0.74485,-5.90147,9.68299,10.01,0.02,0.03,4.0
1758077921.27473,1758077920.48569,0.0,0.0,0.0,2.63561,-7.21927,10.08406,10.2,-0.18,0.11,4.0
1758077921.27696,1758077920.49569,0.0,0.0,0.0,4.35448,-6.8182,10.31324,10.2,-0.18,0.11,4.0
1758077921.29204,1758077920.50569,0.0,0.0,0.0,6.99009,-4.92744,10.94349,10.32,-0.35,0.34,4.0
1758077921.29526,1758077920.51569,0.0,0.0,0.0,8.36518,-4.87014,10.8862,10.32,-0.35,0.34,4.0
1758077921.31075,1758077920.52569,0.0,0.0,0.0,9.28192,-5.32851,10.71431,9.88,-0.25,0.55,4.0
1758077921.32692,1758077920.53569,0.0,0.0,0.0,10.08406,-6.35983,10.25595,9.88,-0.25,0.55,4.0
1758077921.32836,1758077920.54569,0.0,0.0,0.0,10.8862,-6.7609,9.4538,9.6,0.1,0.45,4.0
1758077921.34304,1758077920.55569,0.0,0.0,0.0,11.11538,-7.21927,9.11003,9.49,0.43,0.46,4.0
1758077921.34626,1758077920.56569,0.0,0.0,0.0,11.11538,-7.33386,8.70896,9.49,0.43,0.46,4.0
1758077921.38873,1758077920.57569,0.0,0.0,0.0,10.8862,-6.70361,8.47978,9.47,0.65,0.53,4.0
1758077921.39156,1758077920.58569,0.0,0.0,0.0,10.31324,-5.15662,8.59437,9.47,0.65,0.53,4.0
1758077921.39192,1758077920.59569,0.0,0.0,0.0,9.62569,-4.23989,8.47978,9.56,0.74,0.46,4.0
1758077921.39307,1758077920.60569,0.0,0.0,0.0,9.05273,-3.60963,8.47978,9.56,0.74,0.46,4.0
1758077921.39376,1758077920.61569,0.0,0.0,0.0,8.136,-3.38045,8.88085,9.63,0.74,0.38,4.0
1758077921.41155,1758077920.62569,0.0,0.0,0.0,7.67763,-5.4431,8.99544,9.56,0.65,0.3,4.0
1758077921.41689,1758077920.63569,0.0,0.0,0.0,7.16197,-7.50575,9.74028,9.56,0.65,0.3,4.0
1758077921.43208,1758077920.64569,0.0,0.0,0.0,6.99009,-8.42248,9.85487,9.54,0.53,0.24,4.0
1758077921.43538,1758077920.65569,0.0,0.0,0.0,6.35983,-8.0787,10.65701,9.54,0.53,0.24,4.0
1758077921.45105,1758077920.66569,0.0,0.0,0.0,5.72958,-7.79223,10.8289,9.63,0.49,0.36,4.0
1758077921.45623,1758077920.67569,0.0,0.0,0.0,4.92744,-6.87549,11.11538,9.63,0.49,0.36,4.0
1758077921.47602,1758077920.68569,0.0,0.0,0.0,4.0107,-6.07335,11.17268,9.56,0.57,0.39,4.0
1758077921.52494,1758077920.69569,0.0,0.0,0.0,2.57831,-4.1253,11.11538,9.44,0.57,0.19,4.0
1758077921.52642,1758077920.70569,0.0,0.0,0.0,1.66158,-2.40642,10.8289,9.44,0.72,0.19,4.0
1758077921.53187,1758077920.71569,0.0,0.0,0.0,1.03132,-0.74485,10.59972,9.27,0.83,-0.11,4.0
1758077921.53701,1758077920.72569,0.0,0.0,0.0,0.40107,0.45837,10.19865,9.27,0.83,-0.11,4.0
1758077921.5408,1758077920.73569,0.0,0.0,0.0,0.0573,0.34377,9.68299,8.98,0.81,-0.26,4.0
1758077921.54113,1758077920.74569,0.0,0.0,0.0,0.0573,-0.45837,9.33921,8.98,0.81,-0.26,4.0
1758077921.54214,1758077920.75569,0.0,0.0,0.0,0.34377,-1.3751,9.05273,8.76,0.67,-0.23,4.0
1758077921.54594,1758077920.76569,0.0,0.0,0.0,0.34377,-2.40642,8.93814,8.76,0.67,-0.23,4.0
1758077921.58932,1758077920.77569,0.0,0.0,0.0,0.57296,-4.18259,8.65166,8.65,0.54,-0.2,4.0
1758077921.60996,1758077920.78569,0.0,0.0,0.0,0.97403,-5.50039,8.30789,8.5,0.47,-0.06,4.0
1758077921.61058,1758077920.79569,0.0,0.0,0.0,1.08862,-7.50575,7.84952,8.5,0.47,-0.06,4.0
1758077921.61287,1758077920.80569,0.0,0.0,0.0,1.20321,-9.85487,6.47442,8.41,0.33,0.18,4.0
1758077921.61318,1758077920.81569,0.0,0.0,0.0,1.83346,-13.5218,5.09932,8.41,0.33,0.18,4.0
1758077921.61447,1758077920.82569,0.0,0.0,0.0,2.29183,-16.38659,3.09397,9.11,0.0,0.81,4.0
1758077921.61508,1758077920.83569,0.0,0.0,0.0,3.20856,-18.44924,1.3178,9.11,0.0,0.81,4.0
1758077921.63193,1758077920.84569,0.0,0.0,0.0,4.58366,-18.79302,-0.11459,10.68,-0.59,1.4,4.0
1758077921.63633,1758077920.85569,0.0,0.0,0.0,5.78687,-18.22006,0.0,11.86,-1.25,1.8,4.0
1758077921.65215,1758077920.86569,0.0,0.0,0.0,6.87549,-17.36062,0.74485,11.86,-1.25,1.8,4.0
1758077921.72693,1758077920.87569,0.0,0.0,0.0,8.0787,-14.83961,2.23454,11.97,-1.87,1.63,4.0
1758077921.73055,1758077920.88569,0.0,0.0,0.0,9.5684,-6.07335,3.83882,11.97,-1.87,1.63,4.0
1758077921.7326,1758077920.89569,0.0,0.0,0.0,11.28727,-3.20856,1.3178,14.38,-2.32,3.11,4.0
1758077921.73321,1758077920.90569,0.0,0.0,0.0,14.66772,2.46372,-4.52637,14.38,-2.32,3.11,4.0
1758077921.73458,1758077920.91569,0.0,0.0,0.0,19.59516,11.51645,-10.48513,20.51,-3.34,2.07,4.0
1758077921.73513,1758077920.92569,0.0,0.0,0.0,24.86637,11.97482,-15.46986,19.0,-3.88,-0.39,4.0
1758077921.73595,1758077920.93569,0.0,0.0,0.0,26.24147,8.93814,-14.66772,19.0,-3.88,-0.39,4.0
1758077921.73861,1758077920.94569,0.0,0.0,0.0,26.87172,7.67763,-9.68299,12.72,-2.39,-1.43,4.0
1758077921.74103,1758077920.95569,0.0,0.0,0.0,27.33009,6.47442,-2.7502,12.72,-2.39,-1.43,4.0
1758077921.74684,1758077920.96569,0.0,0.0,0.0,26.35606,4.46907,7.39116,9.87,-0.83,-0.04,4.0
1758077921.76297,1758077920.97569,0.0,0.0,0.0,25.49662,3.89611,12.83425,9.87,-0.83,-0.04,4.0
1758077921.76567,1758077920.98569,0.0,0.0,0.0,24.29341,5.4431,15.69904,9.73,-0.13,0.59,4.0
1758077921.78095,1758077920.99569,0.0,0.0,0.0,23.0902,9.96947,17.30333,9.73,-0.13,0.59,4.0
1758077921.7856,1758077921.00569,0.0,0.0,0.0,22.05888,16.95955,17.53251,10.04,-0.36,1.08,4.0
1758077921.80108,1758077921.01569,0.0,0.0,0.0,21.14215,17.18874,17.76169,8.85,-0.86,2.07,4.0
1758077921.8172,1758077921.02569,0.0,0.0,0.0,20.22541,12.43318,17.47521,8.85,-0.86,2.07,4.0
1758077921.81767,1758077921.03569,0.0,0.0,0.0,17.93358,3.72423,16.61578,7.17,-0.87,2.12,4.0
1758077921.83322,1758077921.04569,0.0,0.0,0.0,16.38659,-8.76626,16.10011,7.17,-0.87,2.12,4.0
1758077921.83577,1758077921.05569,0.0,0.0,0.0,15.12609,-13.75099,15.69904,7.26,-0.62,1.7,4.0
1758077921.85097,1758077921.06569,0.0,0.0,0.0,13.98017,-15.0115,15.12609,7.26,-0.62,1.7,4.0
1758077921.86701,1758077921.07569,0.0,0.0,0.0,11.57375,-13.00614,13.46451,8.84,-0.33,1.57,4.0
1758077921.86853,1758077921.08569,0.0,0.0,0.0,9.5684,-9.62569,11.57375,10.05,-0.27,1.5,4.0
1758077921.88524,1758077921.09569,0.0,0.0,0.0,7.67763,-5.32851,9.4538,10.05,-0.27,1.5,4.0
1758077921.88694,1758077921.10569,0.0,0.0,0.0,5.55769,-1.77617,7.04738,10.59,-0.42,1.15,4.0
1758077921.90276,1758077921.11569,0.0,0.0,0.0,2.40642,2.6929,3.09397,10.59,-0.42,1.15,4.0
1758077921.90637,1758077921.12569,0.0,0.0,0.0,0.34377,5.55769,0.57296,10.83,-0.7,0.9,4.0
1758077921.92291,1758077921.13569,0.0,0.0,0.0,-1.43239,8.0787,-1.43239,10.83,-0.7,0.9,4.0
1758077921.9248,1758077921.14569,0.0,0.0,0.0,-2.92208,9.62569,-2.97938,11.03,-0.92,0.86,4.0
1758077921.94029,1758077921.15569,0.0,0.0,0.0,-4.52637,6.58902,-3.72423,10.54,-1.03,0.85,4.0
1758077921.95626,1758077921.16569,0.0,0.0,0.0,-4.98473,2.6929,-3.38045,10.54,-1.03,0.85,4.0
1758077921.95997,1758077921.17569,0.0,0.0,0.0,-5.09932,0.34377,-1.60428,10.2,-1.13,0.67,4.0
1758077921.97604,1758077921.18569,0.0,0.0,0.0,-4.81285,0.97403,0.34377,10.2,-1.13,0.67,4.0
1758077921.97885,1758077921.19569,0.0,0.0,0.0,-4.46907,3.38045,2.11994,10.29,-1.2,0.55,4.0
1758077921.99489,1758077921.20569,0.0,0.0,0.0,-4.1253,4.23989,2.34913,10.29,-1.2,0.55,4.0
1758077922.00191,1758077921.21569,0.0,0.0,0.0,-3.72423,5.27121,1.94806,9.83,-1.17,0.68,4.0
1758077922.00633,1758077921.22569,0.0,0.0,0.0,-3.32316,5.78687,0.22918,9.83,-1.17,0.68,4.0
1758077922.02291,1758077921.23569,0.0,0.0,0.0,-2.7502,6.47442,-1.03132,9.63,-1.01,0.7,4.0
1758077922.02641,1758077921.24569,0.0,0.0,0.0,-2.57831,7.16197,-2.46372,9.69,-0.91,0.89,4.0
1758077922.04445,1758077921.25569,0.0,0.0,0.0,-2.63561,6.7609,-3.32316,9.69,-0.91,0.89,4.0
1758077922.04723,1758077921.26569,0.0,0.0,0.0,-2.92208,3.66693,-3.20856,9.83,-0.92,1.26,4.0
1758077922.06295,1758077921.27569,0.0,0.0,0.0,-3.20856,2.92208,-2.86479,9.83,-0.92,1.26,4.0
1758077922.13868,1758077921.28569,0.0,0.0,0.0,-3.03668,1.3751,-1.77617,9.93,-1.01,1.17,4.0
1758077922.13924,1758077921.29569,0.0,0.0,0.0,-3.03668,1.43239,-0.74485,9.93,-1.01,1.17,4.0
1758077922.14134,1758077921.30569,0.0,0.0,0.0,-3.03668,3.20856,0.57296,9.82,-1.09,0.96,4.0
1758077922.14188,1758077921.31569,0.0,0.0,0.0,-3.32316,4.64096,0.57296,9.75,-0.96,1.14,4.0
1758077922.1459,1758077921.32569,0.0,0.0,0.0,-3.20856,3.26586,1.3178,9.75,-0.96,1.14,4.0
1758077922.14623,1758077921.33569,0.0,0.0,0.0,-3.49504,4.58366,0.40107,9.65,-0.86,1.16,4.0
1758077922.14689,1758077921.34569,0.0,0.0,0.0,-3.83882,5.90147,-1.94806,9.65,-0.86,1.16,4.0
1758077922.14886,1758077921.35569,0.0,0.0,0.0,-4.23989,6.41713,-3.89611,9.74,-0.66,0.88,4.0
1758077922.1503,1758077921.36569,0.0,0.0,0.0,-4.58366,6.87549,-5.61499,9.74,-0.66,0.88,4.0
1758077922.16643,1758077921.37569,0.0,0.0,0.0,-4.98473,7.16197,-7.10468,9.74,-0.59,0.78,4.0
1758077922.16763,1758077921.38569,0.0,0.0,0.0,-5.78687,7.21927,-8.30789,9.79,-0.58,0.63,4.0
1758077922.18293,1758077921.39569,0.0,0.0,0.0,-6.24524,7.16197,-8.30789,9.79,-0.58,0.63,4.0
1758077922.18496,1758077921.40569,0.0,0.0,0.0,-6.8182,6.87549,-7.96411,9.93,-0.67,0.53,4.0
1758077922.20099,1758077921.41569,0.0,0.0,0.0,-7.33386,6.35983,-7.10468,9.93,-0.67,0.53,4.0
1758077922.20212,1758077921.42569,0.0,0.0,0.0,-7.79223,4.58366,-5.4431,9.94,-0.78,0.48,4.0
1758077922.2181,1758077921.43569,0.0,0.0,0.0,-8.02141,3.09397,-4.18259,9.94,-0.78,0.48,4.0
1758077922.23517,1758077921.44569,0.0,0.0,0.0,-8.25059,1.60428,-3.20856,9.81,-0.89,0.44,4.0
1758077922.23636,1758077921.45569,0.0,0.0,0.0,-7.84952,-0.17189,-1.94806,9.81,-0.89,0.44,4.0
1758077922.25115,1758077921.46569,0.0,0.0,0.0,-7.67763,-2.11994,-1.60428,9.66,-0.95,0.43,4.0
1758077922.25317,1758077921.47569,0.0,0.0,0.0,-7.21927,-2.97938,-1.3751,9.63,-0.88,0.39,4.0
1758077922.26874,1758077921.48569,0.0,0.0,0.0,-6.7609,-3.38045,-1.43239,9.63,-0.88,0.39,4.0
1758077922.28418,1758077921.49569,0.0,0.0,0.0,-5.95876,-2.6929,-1.83346,9.64,-0.8,0.43,4.0
1758077922.28543,1758077921.50569,0.0,0.0,0.0,-5.4431,-1.83346,-2.34913,9.64,-0.8,0.43,4.0
1758077922.30022,1758077921.51569,0.0,0.0,0.0,-4.81285,-1.48969,-2.97938,9.73,-0.72,0.49,4.0
1758077922.31653,1758077921.52569,0.0,0.0,0.0,-4.23989,-1.83346,-3.55234,9.73,-0.72,0.49,4.0
1758077922.31857,1758077921.53569,0.0,0.0,0.0,-3.83882,-3.38045,-4.46907,9.71,-0.68,0.53,4.0
1758077922.33333,1758077921.54569,0.0,0.0,0.0,-3.20856,-4.92744,-4.52637,9.69,-0.73,0.47,4.0
1758077922.33445,1758077921.55569,0.0,0.0,0.0,-2.97938,-5.55769,-4.69825,9.69,-0.73,0.47,4.0
1758077922.35035,1758077921.56569,0.0,0.0,0.0,-2.92208,-6.35983,-4.64096,9.74,-0.77,0.43,4.0
1758077922.36655,1758077921.57569,0.0,0.0,0.0,-2.46372,-7.16197,-4.58366,9.74,-0.77,0.43,4.0
1758077922.36745,1758077921.58569,0.0,0.0,0.0,-2.57831,-6.07335,-4.58366,9.72,-0.8,0.47,4.0
1758077922.38358,1758077921.59569,0.0,0.0,0.0,-2.46372,-2.34913,-5.15662,9.72,-0.8,0.47,4.0
1758077922.38682,1758077921.60569,0.0,0.0,0.0,-3.09397,6.35983,-6.41713,10.11,-0.67,0.47,4.0
1758077922.40246,1758077921.61569,0.0,0.0,0.0,-3.20856,14.78231,-8.30789,10.09,-0.54,0.54,4.0
1758077922.40622,1758077921.62569,0.0,0.0,0.0,-2.57831,11.86023,-8.76626,10.09,-0.54,0.54,4.0
1758077922.42159,1758077921.63569,0.0,0.0,0.0,-2.06265,4.29718,-8.70896,8.83,-0.42,0.34,4.0
1758077922.42247,1758077921.64569,0.0,0.0,0.0,-1.83346,-3.03668,-8.42248,8.83,-0.42,0.34,4.0
1758077922.44056,1758077921.65569,0.0,0.0,0.0,-1.94806,-10.31324,-8.25059,8.97,-0.33,-0.09,4.0
1758077922.45649,1758077921.66569,0.0,0.0,0.0,-1.94806,-13.12073,-7.44845,8.97,-0.33,-0.09,4.0
1758077922.4578,1758077921.67569,0.0,0.0,0.0,-1.48969,-15.75634,-6.41713,9.44,-0.31,0.12,4.0
1758077922.47488,1758077921.68569,0.0,0.0,0.0,-1.20321,-18.62113,-4.98473,9.44,-0.31,0.12,4.0
1758077922.47685,1758077921.69569,0.0,0.0,0.0,-0.97403,-20.34,-4.18259,9.69,-0.3,0.22,4.0
1758077922.49256,1758077921.70569,0.0,0.0,0.0,-0.80214,-21.42862,-3.60963,9.83,-0.27,0.22,4.0
1758077922.49429,1758077921.71569,0.0,0.0,0.0,-0.85944,-22.34536,-3.38045,9.83,-0.27,0.22,4.0
1758077922.51039,1758077921.72569,0.0,0.0,0.0,-0.80214,-21.88699,-3.89611,10.04,-0.21,0.3,4.0
1758077922.59316,1758077921.73569,0.0,0.0,0.0,-1.08862,-20.79837,-4.46907,10.04,-0.21,0.3,4.0
1758077922.68691,1758077921.74569,0.0,0.0,0.0,-1.14592,-18.56383,-4.98473,10.36,-0.15,0.28,4.0
1758077922.68729,1758077921.75569,0.0,0.0,0.0,-1.3751,-15.75634,-5.95876,10.36,-0.15,0.28,4.0
1758077922.69076,1758077921.76569,0.0,0.0,0.0,-1.77617,-11.97482,-7.04738,10.56,-0.12,0.22,4.0
1758077922.69139,1758077921.77569,0.0,0.0,0.0,-2.06265,-11.57375,-7.50575,10.23,0.0,0.19,4.0
1758077922.69691,1758077921.78569,0.0,0.0,0.0,-2.46372,-12.37589,-7.73493,10.23,0.0,0.19,4.0
1758077922.69729,1758077921.79569,0.0,0.0,0.0,-2.6929,-12.89155,-7.67763,9.89,0.05,0.23,4.0
1758077922.70156,1758077921.80569,0.0,0.0,0.0,-2.86479,-13.12073,-7.33386,9.89,0.05,0.23,4.0
1758077922.70227,1758077921.81569,0.0,0.0,0.0,-2.86479,-12.14671,-7.04738,9.88,-0.08,0.33,4.0
1758077922.703,1758077921.82569,0.0,0.0,0.0,-3.09397,-10.19865,-6.7609,9.88,-0.08,0.33,4.0
1758077922.70765,1758077921.83569,0.0,0.0,0.0,-3.49504,-7.50575,-6.47442,10.05,-0.22,0.39,4.0
1758077922.70802,1758077921.84569,0.0,0.0,0.0,-4.35448,-4.46907,-6.35983,10.07,-0.2,0.29,4.0
1758077922.7092,1758077921.85569,0.0,0.0,0.0,-4.92744,-3.66693,-6.47442,10.07,-0.2,0.29,4.0
1758077922.71082,1758077921.86569,0.0,0.0,0.0,-5.50039,-2.92208,-6.70361,10.11,-0.11,0.25,4.0
1758077922.71188,1758077921.87569,0.0,0.0,0.0,-6.13065,-2.23454,-7.21927,10.11,-0.11,0.25,4.0
1758077922.71681,1758077921.88569,0.0,0.0,0.0,-6.53172,-1.77617,-7.67763,10.36,-0.08,0.23,4.0
1758077922.71864,1758077921.89569,0.0,0.0,0.0,-6.70361,-1.77617,-7.84952,10.36,-0.08,0.23,4.0
1758077922.71914,1758077921.90569,0.0,0.0,0.0,-6.58902,-1.94806,-8.25059,10.48,-0.14,0.22,4.0
1758077922.7204,1758077921.91569,0.0,0.0,0.0,-6.35983,-2.40642,-8.0787,10.48,-0.14,0.22,4.0
1758077922.72102,1758077921.92569,0.0,0.0,0.0,-5.78687,-3.20856,-7.84952,10.44,-0.37,0.21,4.0
1758077922.725,1758077921.93569,0.0,0.0,0.0,-4.92744,-4.52637,-7.39116,10.19,-0.66,0.19,4.0
1758077922.72535,1758077921.94569,0.0,0.0,0.0,-3.72423,-5.90147,-6.7609,10.19,-0.66,0.19,4.0
1758077922.74162,1758077921.95569,0.0,0.0,0.0,-1.20321,-5.32851,-5.84417,10.04,-0.93,0.31,4.0
1758077922.74535,1758077921.96569,0.0,0.0,0.0,0.40107,-3.20856,-5.32851,10.04,-0.93,0.31,4.0
1758077922.76075,1758077921.97569,0.0,0.0,0.0,2.06265,0.0573,-4.92744,10.27,-1.11,0.33,4.0
1758077922.77679,1758077921.98569,0.0,0.0,0.0,3.60963,2.97938,-4.87014,10.27,-1.11,0.33,4.0
1758077922.77762,1758077921.99569,0.0,0.0,0.0,5.95876,4.81285,-4.64096,10.13,-1.17,0.36,4.0
1758077922.79348,1758077922.00569,0.0,0.0,0.0,7.39116,4.81285,-4.46907,9.73,-0.93,0.17,4.0
1758077922.79625,1758077922.01569,0.0,0.0,0.0,8.136,3.38045,-4.0107,9.73,-0.93,0.17,4.0
1758077922.81181,1758077922.02569,0.0,0.0,0.0,8.93814,0.68755,-3.55234,9.32,-0.5,0.09,4.0
1758077922.81607,1758077922.03569,0.0,0.0,0.0,9.4538,-3.72423,-2.97938,9.32,-0.5,0.09,4.0
1758077922.83176,1758077922.04569,0.0,0.0,0.0,9.68299,-5.50039,-2.92208,9.25,-0.27,0.07,4.0
1758077922.83359,1758077922.05569,0.0,0.0,0.0,9.74028,-5.90147,-3.03668,9.25,-0.27,0.07,4.0
1758077922.84983,1758077922.06569,0.0,0.0,0.0,9.5684,-6.07335,-3.38045,9.56,-0.24,-0.01,4.0
1758077922.86567,1758077922.07569,0.0,0.0,0.0,9.22462,-5.78687,-3.38045,9.53,-0.3,-0.07,4.0
1758077922.86674,1758077922.08569,0.0,0.0,0.0,8.70896,-5.50039,-3.32316,9.53,-0.3,-0.07,4.0
1758077922.88158,1758077922.09569,0.0,0.0,0.0,8.25059,-4.98473,-3.09397,9.24,-0.28,0.1,4.0
1758077922.88272,1758077922.10569,0.0,0.0,0.0,7.33386,-4.35448,-2.7502,9.24,-0.28,0.1,4.0
1758077922.90083,1758077922.11569,0.0,0.0,0.0,6.53172,-4.52637,-2.34913,9.23,-0.18,0.19,4.0
1758077922.91667,1758077922.12569,0.0,0.0,0.0,5.50039,-4.46907,-2.00535,9.23,-0.18,0.19,4.0
1758077922.91854,1758077922.13569,0.0,0.0,0.0,4.64096,-3.95341,-1.77617,9.29,-0.07,0.03,4.0
1758077922.93373,1758077922.14569,0.0,0.0,0.0,2.97938,-1.60428,-1.83346,9.24,-0.07,-0.25,4.0
1758077922.93477,1758077922.15569,0.0,0.0,0.0,1.83346,2.06265,-2.06265,9.24,-0.02,-0.25,4.0
1758077922.94962,1758077922.16569,0.0,0.0,0.0,0.97403,7.62034,-2.57831,9.3,0.06,-0.56,4.0
1758077922.96566,1758077922.17569,0.0,0.0,0.0,0.22918,13.12073,-3.55234,9.3,0.06,-0.56,4.0
1758077922.96674,1758077922.18569,0.0,0.0,0.0,-0.80214,18.33465,-5.72958,9.28,0.21,-0.6,4.0
1758077922.98212,1758077922.19569,0.0,0.0,0.0,-1.60428,19.42327,-7.50575,9.28,0.21,-0.6,4.0
1758077922.98278,1758077922.20569,0.0,0.0,0.0,-2.11994,18.62113,-9.39651,9.24,0.29,-0.64,4.0
1758077923.00085,1758077922.21569,0.0,0.0,0.0,-2.46372,17.24603,-11.45916,9.24,0.29,-0.64,4.0
1758077923.01687,1758077922.22569,0.0,0.0,0.0,-2.57831,15.0115,-13.80828,9.57,0.03,-0.66,4.0
1758077923.01935,1758077922.23569,0.0,0.0,0.0,-2.00535,13.23533,-14.72501,9.7,-0.45,-0.55,4.0
1758077923.0354,1758077922.24569,0.0,0.0,0.0,-1.3751,11.74564,-15.0115,9.7,-0.45,-0.55,4.0
1758077923.03661,1758077922.25569,0.0,0.0,0.0,-0.51566,11.11538,-14.78231,9.33,-0.83,-0.46,4.0
1758077923.05183,1758077922.26569,0.0,0.0,0.0,0.51566,11.86023,-13.5791,9.33,-0.83,-0.46,4.0
1758077923.05309,1758077922.27569,0.0,0.0,0.0,0.97403,12.08941,-12.77696,8.82,-0.92,-0.43,4.0
1758077923.07122,1758077922.28569,0.0,0.0,0.0,1.43239,11.28727,-11.97482,8.82,-0.92,-0.43,4.0
1758077923.09527,1758077922.29569,0.0,0.0,0.0,1.66158,10.08406,-11.57375,8.28,-0.81,-0.38,4.0
1758077923.09886,1758077922.30569,0.0,0.0,0.0,1.3751,10.37054,-11.74564,8.32,-0.5,-0.5,4.0
1758077923.09913,1758077922.31569,0.0,0.0,0.0,0.85944,10.65701,-11.97482,8.32,-0.5,-0.5,4.0
1758077923.11568,1758077922.32569,0.0,0.0,0.0,0.22918,11.17268,-12.43318,8.35,-0.09,-0.59,4.0
1758077923.11698,1758077922.33569,0.0,0.0,0.0,-1.08862,9.96947,-12.60507,8.35,-0.09,-0.59,4.0
1758077923.13548,1758077922.34569,0.0,0.0,0.0,-2.11994,7.16197,-12.49048,7.85,0.13,-0.58,4.0
1758077923.16073,1758077922.35569,0.0,0.0,0.0,-3.32316,3.49504,-12.37589,7.85,0.13,-0.58,4.0
1758077923.16109,1758077922.36569,0.0,0.0,0.0,-4.23989,-1.08862,-11.74564,7.2,0.06,-0.62,4.0
1758077923.16655,1758077922.37569,0.0,0.0,0.0,-5.72958,-6.35983,-11.51645,6.78,-0.18,-0.67,4.0
1758077923.16695,1758077922.38569,0.0,0.0,0.0,-6.13065,-9.05273,-11.51645,6.78,-0.18,-0.67,4.0
1758077923.18267,1758077922.39569,0.0,0.0,0.0,-6.24524,-11.97482,-11.63104,6.48,-0.46,-0.62,4.0
1758077923.1866,1758077922.40569,0.0,0.0,0.0,-6.24524,-15.69904,-11.80293,6.48,-0.46,-0.62,4.0
1758077923.20254,1758077922.41569,0.0,0.0,0.0,-5.4431,-21.60051,-12.14671,5.78,-0.64,-0.61,4.0
1758077923.20525,1758077922.42569,0.0,0.0,0.0,-4.81285,-25.21014,-11.86023,5.78,-0.64,-0.61,4.0
1758077923.22098,1758077922.43569,0.0,0.0,0.0,-3.83882,-28.99167,-10.8289,5.64,-0.64,-0.1,4.0
1758077923.23841,1758077922.44569,0.0,0.0,0.0,-2.6929,-33.86181,-9.4538,5.64,-0.64,-0.1,4.0
1758077923.23981,1758077922.45569,0.0,0.0,0.0,-1.60428,-34.72124,-7.10468,6.81,-0.43,0.71,4.0
1758077923.25586,1758077922.46569,0.0,0.0,0.0,-1.77617,-31.39809,-5.90147,10.4,-0.07,2.17,4.0
1758077923.27573,1758077922.47569,0.0,0.0,0.0,-2.40642,-29.50733,-4.1253,10.4,-0.07,2.17,4.0
1758077923.27612,1758077922.48569,0.0,0.0,0.0,-2.97938,-26.75713,-0.51566,13.41,0.44,2.71,4.0
1758077923.28696,1758077922.49569,0.0,0.0,0.0,-3.83882,-13.86558,1.48969,13.41,0.44,2.71,4.0
1758077923.2875,1758077922.50569,0.0,0.0,0.0,-5.78687,1.71887,3.03668,15.48,1.29,1.89,4.0
1758077923.32634,1758077922.51569,0.0,0.0,0.0,-8.47978,20.85567,5.21392,15.48,1.29,1.89,4.0
1758077923.33053,1758077922.52569,0.0,0.0,0.0,-17.76169,47.72739,14.78231,19.91,2.66,4.17,4.0
1758077923.33112,1758077922.53569,0.0,0.0,0.0,-24.57989,29.33544,21.08485,23.86,5.29,2.04,4.0
1758077923.33232,1758077922.54569,0.0,0.0,0.0,-27.50197,-8.59437,23.26209,23.86,5.29,2.04,4.0
1758077923.33329,1758077922.55569,0.0,0.0,0.0,-27.67386,-50.13381,24.12152,16.4,3.81,-1.64,4.0
1758077923.34913,1758077922.56569,0.0,0.0,0.0,-30.30947,9.5684,13.5791,16.4,3.81,-1.64,4.0
1758077923.39286,1758077922.57569,0.0,0.0,0.0,-30.48136,42.91454,2.57831,18.04,-0.61,-0.97,4.0
1758077923.39425,1758077922.58569,0.0,0.0,0.0,-27.73116,41.65404,-3.66693,18.04,-0.61,-0.97,4.0
1758077923.39465,1758077922.59569,0.0,0.0,0.0,-23.66316,28.99167,-8.36518,10.39,-1.92,2.42,4.0
1758077923.3961,1758077922.60569,0.0,0.0,0.0,-15.87093,21.08485,-12.204,10.87,-1.0,-0.68,4.0
1758077923.39642,1758077922.61569,0.0,0.0,0.0,-8.70896,12.89155,-11.22997,10.87,-1.0,-0.68,4.0
1758077923.41385,1758077922.62569,0.0,0.0,0.0,-4.23989,5.27121,-10.02676,9.82,-0.27,-0.83,4.0
1758077923.41504,1758077922.63569,0.0,0.0,0.0,-0.34377,2.92208,-6.87549,9.82,-0.27,-0.83,4.0
1758077923.43083,1758077922.64569,0.0,0.0,0.0,-0.51566,40.7373,-5.84417,11.84,0.67,1.33,4.0
1758077923.44695,1758077922.65569,0.0,0.0,0.0,-3.89611,63.42643,-5.95876,11.84,0.67,1.33,4.0
1758077923.45057,1758077922.66569,0.0,0.0,0.0,-5.90147,53.45696,-4.58366,11.5,1.25,2.04,4.0
1758077923.46589,1758077922.67569,0.0,0.0,0.0,-7.67763,28.24682,-4.64096,11.5,1.25,2.04,4.0
1758077923.46867,1758077922.68569,0.0,0.0,0.0,-11.57375,12.77696,-4.46907,6.41,1.81,1.31,4.0
1758077923.48551,1758077922.69569,0.0,0.0,0.0,-14.61043,9.91217,-4.46907,7.84,2.17,-0.22,4.0
1758077923.48818,1758077922.70569,0.0,0.0,0.0,-18.56383,6.87549,-4.46907,7.84,2.17,-0.22,4.0
1758077923.5042,1758077922.71569,0.0,0.0,0.0,-23.54857,5.84417,-3.66693,7.84,2.13,0.91,4.0
1758077923.50586,1758077922.72569,0.0,0.0,0.0,-26.35606,9.4538,-3.38045,7.84,2.13,0.91,4.0
1758077923.52116,1758077922.73569,0.0,0.0,0.0,-27.84575,17.6471,-2.06265,8.7,1.69,0.84,4.0
1758077923.52287,1758077922.74569,0.0,0.0,0.0,-28.64789,24.98096,-1.20321,8.7,1.69,0.84,4.0
1758077923.54092,1758077922.75569,0.0,0.0,0.0,-28.87707,27.73116,-0.68755,8.93,0.94,0.83,4.0
1758077923.55723,1758077922.76569,0.0,0.0,0.0,-28.476,24.92367,-1.20321,8.18,0.54,0.61,4.0
1758077923.55899,1758077922.77569,0.0,0.0,0.0,-27.73116,19.59516,-1.77617,8.18,0.54,0.61,4.0
1758077923.57418,1758077922.78569,0.0,0.0,0.0,-26.47065,13.34992,-2.40642,8.27,0.38,-0.17,4.0
1758077923.5762,1758077922.79569,0.0,0.0,0.0,-24.4653,4.35448,-3.03668,8.27,0.38,-0.17,4.0
1758077923.59091,1758077922.80569,0.0,0.0,0.0,-23.0902,-0.51566,-3.09397,8.88,0.29,-0.26,4.0
1758077923.6081,1758077922.81569,0.0,0.0,0.0,-21.7724,-4.18259,-2.92208,8.88,0.29,-0.26,4.0
1758077923.6094,1758077922.82569,0.0,0.0,0.0,-20.51189,-7.21927,-2.40642,9.29,0.28,-0.01,4.0
1758077923.62596,1758077922.83569,0.0,0.0,0.0,-18.56383,-11.97482,-1.60428,9.18,0.28,0.42,4.0
1758077923.6272,1758077922.84569,0.0,0.0,0.0,-17.47521,-16.10011,-1.08862,9.18,0.28,0.42,4.0
1758077923.64621,1758077922.85569,0.0,0.0,0.0,-16.73037,-20.3973,-0.97403,8.79,0.34,0.56,4.0
1758077923.64716,1758077922.86569,0.0,0.0,0.0,-16.21471,-23.31938,-1.03132,8.79,0.34,0.56,4.0
1758077923.6907,1758077922.87569,0.0,0.0,0.0,-15.98552,-24.92367,-1.3751,8.78,0.52,0.53,4.0
1758077923.69648,1758077922.88569,0.0,0.0,0.0,-16.3293,-24.17882,-2.00535,8.78,0.52,0.53,4.0
1758077923.69973,1758077922.89569,0.0,0.0,0.0,-16.73037,-21.6578,-2.40642,8.9,0.76,0.62,4.0
1758077923.70504,1758077922.90569,0.0,0.0,0.0,-17.81899,-17.13144,-2.86479,8.9,0.76,0.62,4.0
1758077923.70539,1758077922.91569,0.0,0.0,0.0,-17.93358,-12.83425,-2.63561,9.09,0.92,0.83,4.0
1758077923.70659,1758077922.92569,0.0,0.0,0.0,-18.10547,-12.08941,-2.63561,8.51,0.9,0.9,4.0
1758077923.72541,1758077922.93569,0.0,0.0,0.0,-18.16276,-12.71966,-3.20856,8.51,0.9,0.9,4.0
1758077923.72638,1758077922.94569,0.0,0.0,0.0,-16.95955,-16.67307,-2.63561,7.9,0.87,0.59,4.0
1758077923.74296,1758077922.95569,0.0,0.0,0.0,-15.75634,-19.70975,-1.71887,7.9,0.87,0.59,4.0
1758077923.74636,1758077922.96569,0.0,0.0,0.0,-14.66772,-18.50654,-0.97403,7.85,0.72,0.31,4.0
1758077923.76292,1758077922.97569,0.0,0.0,0.0,-13.12073,-13.23533,0.40107,7.85,0.72,0.31,4.0
1758077923.76555,1758077922.98569,0.0,0.0,0.0,-10.71431,-5.15662,3.20856,9.05,0.54,0.21,4.0
1758077923.78105,1758077922.99569,0.0,0.0,0.0,-9.05273,-1.66158,4.98473,9.48,0.45,0.61,4.0
1758077923.7989,1758077923.00569,0.0,0.0,0.0,-7.39116,0.17189,6.87549,9.48,0.45,0.61,4.0
1758077923.80011,1758077923.01569,0.0,0.0,0.0,-5.95876,1.3751,8.59437,9.69,0.49,0.54,4.0
1758077923.81503,1758077923.02569,0.0,0.0,0.0,-4.69825,3.66693,10.25595,9.69,0.49,0.54,4.0
1758077923.95054,1758077923.03569,0.0,0.0,0.0,-4.18259,5.21392,10.54242,10.04,0.64,0.43,4.0
1758077923.95256,1758077923.04569,0.0,0.0,0.0,-4.1253,7.04738,10.54242,10.04,0.64,0.43,4.0
1758077923.95395,1758077923.05569,0.0,0.0,0.0,-3.95341,8.136,10.31324,10.22,0.85,0.5,4.0
1758077923.95427,1758077923.06569,0.0,0.0,0.0,-4.1253,8.65166,10.02676,10.12,1.06,0.55,4.0
1758077923.95665,1758077923.07569,0.0,0.0,0.0,-4.46907,9.22462,9.4538,10.12,1.06,0.55,4.0
1758077923.95969,1758077923.08569,0.0,0.0,0.0,-4.87014,9.62569,8.88085,10.06,1.18,0.48,4.0
1758077923.96003,1758077923.09569,0.0,0.0,0.0,-5.09932,10.19865,8.136,10.06,1.18,0.48,4.0
1758077923.96282,1758077923.10569,0.0,0.0,0.0,-5.21392,11.86023,8.02141,9.96,1.21,0.39,4.0
1758077923.96703,1758077923.11569,0.0,0.0,0.0,-4.98473,13.40721,8.30789,9.96,1.21,0.39,4.0
1758077923.96788,1758077923.12569,0.0,0.0,0.0,-4.58366,13.69369,8.59437,10.0,1.16,0.46,4.0
1758077923.96866,1758077923.13569,0.0,0.0,0.0,-3.83882,11.97482,9.33921,10.0,1.16,0.46,4.0
1758077923.97162,1758077923.14569,0.0,0.0,0.0,-3.26586,9.62569,9.68299,9.96,1.09,0.45,4.0
1758077923.97288,1758077923.15569,0.0,0.0,0.0,-2.63561,7.10468,10.02676,10.06,1.02,0.26,4.0
1758077923.97399,1758077923.16569,0.0,0.0,0.0,-1.94806,4.69825,10.48513,10.06,1.02,0.26,4.0
1758077923.9746,1758077923.17569,0.0,0.0,0.0,-0.74485,-0.22918,11.28727,9.93,0.93,0.33,4.0
1758077923.97582,1758077923.18569,0.0,0.0,0.0,-0.11459,-3.95341,11.97482,9.93,0.93,0.33,4.0
1758077923.97654,1758077923.19569,0.0,0.0,0.0,0.17189,-7.10468,12.83425,9.61,0.9,0.55,4.0
1758077923.99492,1758077923.20569,0.0,0.0,0.0,0.22918,-9.5684,13.69369,9.61,0.9,0.55,4.0
1758077924.04089,1758077923.21569,0.0,0.0,0.0,-0.0573,-12.08941,15.12609,9.32,0.98,0.3,4.0
1758077924.04145,1758077923.22569,0.0,0.0,0.0,0.0,-13.5218,15.92823,8.91,1.04,-0.21,4.0
1758077924.04541,1758077923.23569,0.0,0.0,0.0,0.22918,-15.24068,16.3293,8.91,1.04,-0.21,4.0
1758077924.04576,1758077923.24569,0.0,0.0,0.0,0.57296,-17.47521,16.55848,8.29,0.96,-0.57,4.0
1758077924.04875,1758077923.25569,0.0,0.0,0.0,1.77617,-21.88699,16.67307,8.29,0.96,-0.57,4.0
1758077924.04996,1758077923.26569,0.0,0.0,0.0,2.63561,-24.75178,16.67307,7.78,0.82,-0.53,4.0
1758077924.06645,1758077923.27569,0.0,0.0,0.0,3.60963,-27.50197,16.61578,7.78,0.82,-0.53,4.0
1758077924.0677,1758077923.28569,0.0,0.0,0.0,4.29718,-29.27814,16.61578,7.56,0.7,-0.38,4.0
1758077924.08218,1758077923.29569,0.0,0.0,0.0,5.15662,-29.27814,16.73037,8.01,0.57,-0.22,4.0
1758077924.08591,1758077923.30569,0.0,0.0,0.0,5.84417,-28.70519,16.3293,8.01,0.57,-0.22,4.0
1758077924.10142,1758077923.31569,0.0,0.0,0.0,6.7609,-29.62192,14.83961,9.0,0.17,0.37,4.0
1758077924.11881,1758077923.32569,0.0,0.0,0.0,9.28192,-32.25753,11.74564,9.0,0.17,0.37,4.0
1758077924.12001,1758077923.33569,0.0,0.0,0.0,10.94349,-36.84119,10.02676,10.25,-0.51,1.29,4.0
1758077924.13637,1758077923.34569,0.0,0.0,0.0,12.71966,-40.04975,9.33921,10.25,-0.51,1.29,4.0
1758077924.13808,1758077923.35569,0.0,0.0,0.0,13.86558,-42.74266,9.85487,10.84,-1.3,1.92,4.0
1758077924.15352,1758077923.36569,0.0,0.0,0.0,15.41257,-44.9199,10.37054,10.84,-1.3,1.92,4.0
1758077924.15451,1758077923.37569,0.0,0.0,0.0,17.81899,-43.4875,7.39116,12.2,-2.12,3.63,4.0
1758077924.17084,1758077923.38569,0.0,0.0,0.0,20.68378,-36.55471,2.46372,19.2,-3.14,3.12,4.0
1758077924.18626,1758077923.39569,0.0,0.0,0.0,25.09555,-25.55392,-2.11994,19.2,-3.14,3.12,4.0
1758077924.18784,1758077923.40569,0.0,0.0,0.0,24.98096,-29.9084,-6.70361,20.66,-4.18,-1.04,4.0
1758077924.20246,1758077923.41569,0.0,0.0,0.0,22.11617,-32.6013,-5.95876,20.66,-4.18,-1.04,4.0
1758077924.20583,1758077923.42569,0.0,0.0,0.0,21.31403,-24.4653,-0.80214,15.12,-2.37,-1.95,4.0
1758077924.22158,1758077923.43569,0.0,0.0,0.0,21.48592,-16.10011,5.61499,15.12,-2.37,-1.95,4.0
1758077924.23889,1758077923.44569,0.0,0.0,0.0,21.94428,-9.62569,14.09476,12.44,-0.24,0.06,4.0
1758077924.24009,1758077923.45569,0.0,0.0,0.0,21.25674,-7.16197,17.13144,10.43,0.52,0.78,4.0
1758077924.25638,1758077923.46569,0.0,0.0,0.0,19.59516,-4.98473,16.95955,10.43,0.52,0.78,4.0
1758077924.25891,1758077923.47569,0.0,0.0,0.0,17.87628,-3.38045,14.72501,10.03,0.28,0.24,4.0
1758077924.27434,1758077923.48569,0.0,0.0,0.0,16.10011,-1.43239,8.99544,10.03,0.28,0.24,4.0
1758077924.27663,1758077923.49569,0.0,0.0,0.0,16.3293,0.97403,4.1253,9.72,-0.56,0.29,4.0
1758077924.29167,1758077923.50569,0.0,0.0,0.0,17.36062,8.47978,1.77617,9.72,-0.56,0.29,4.0
1758077924.30008,1758077923.51569,0.0,0.0,0.0,18.22006,14.09476,0.0,10.77,-1.4,0.86,4.0
1758077924.31533,1758077923.52569,0.0,0.0,0.0,17.18874,11.28727,0.97403,10.2,-1.48,0.89,4.0
1758077924.31684,1758077923.53569,0.0,0.0,0.0,15.35527,7.21927,2.63561,10.2,-1.48,0.89,4.0
1758077924.33138,1758077923.54569,0.0,0.0,0.0,13.00614,5.61499,4.18259,9.83,-1.04,0.62,4.0
1758077924.33655,1758077923.55569,0.0,0.0,0.0,9.5684,5.55769,4.98473,9.83,-1.04,0.62,4.0
1758077924.35156,1758077923.56569,0.0,0.0,0.0,7.44845,5.95876,4.64096,9.58,-0.6,0.59,4.0
1758077924.35609,1758077923.57569,0.0,0.0,0.0,5.32851,5.84417,3.20856,9.58,-0.6,0.59,4.0
1758077924.37158,1758077923.58569,0.0,0.0,0.0,3.72423,6.41713,1.3751,9.18,-0.57,0.7,4.0
1758077924.37613,1758077923.59569,0.0,0.0,0.0,1.66158,6.35983,-1.66158,9.18,-0.57,0.61,4.0
1758077924.39164,1758077923.60569,0.0,0.0,0.0,0.68755,6.58902,-3.66693,9.12,-0.61,0.61,4.0
1758077924.39334,1758077923.61569,0.0,0.0,0.0,0.17189,7.62034,-5.78687,9.35,-0.81,0.45,4.0
1758077924.41015,1758077923.62569,0.0,0.0,0.0,0.34377,8.93814,-7.79223,9.35,-0.81,0.45,4.0
1758077924.42637,1758077923.63569,0.0,0.0,0.0,2.06265,11.45916,-10.71431,9.73,-1.09,0.05,4.0
1758077924.43022,1758077923.64569,0.0,0.0,0.0,4.23989,13.46451,-12.37589,9.73,-1.09,0.05,4.0
1758077924.44632,1758077923.65569,0.0,0.0,0.0,7.33386,15.92823,-13.75099,10.12,-1.54,-0.09,4.0
1758077924.44816,1758077923.66569,0.0,0.0,0.0,11.22997,18.33465,-14.9542,10.12,-1.54,-0.09,4.0
1758077924.46606,1758077923.67569,0.0,0.0,0.0,18.44924,21.60051,-15.06879,10.43,-2.05,-0.13,4.0
1758077924.46808,1758077923.68569,0.0,0.0,0.0,23.94964,22.68913,-13.46451,10.37,-2.31,-0.23,4.0
1758077924.48646,1758077923.69569,0.0,0.0,0.0,28.70519,20.97026,-11.00079,10.37,-2.31,-0.23,4.0
1758077924.51989,1758077923.70569,0.0,0.0,0.0,33.17426,16.90226,-7.10468,9.49,-2.01,-0.25,4.0
1758077924.52046,1758077923.71569,0.0,0.0,0.0,36.95578,5.55769,-0.74485,9.49,-2.01,-0.25,4.0
1758077924.52565,1758077923.72569,0.0,0.0,0.0,37.98711,-3.32316,3.09397,8.7,-1.38,-0.15,4.0
1758077924.5263,1758077923.73569,0.0,0.0,0.0,37.92981,-10.65701,6.8182,8.7,-1.38,-0.15,4.0
1758077924.52832,1758077923.74569,0.0,0.0,0.0,34.95043,-13.17803,10.8862,8.94,-0.54,-0.1,4.0
1758077924.54606,1758077923.75569,0.0,0.0,0.0,31.79916,-7.16197,11.86023,9.93,0.3,-0.01,4.0
1758077924.54781,1758077923.76569,0.0,0.0,0.0,27.73116,5.21392,11.45916,9.93,0.3,-0.01,4.0
1758077924.56592,1758077923.77569,0.0,0.0,0.0,21.88699,18.90761,8.70896,10.61,1.15,-0.04,4.0
1758077924.56816,1758077923.78569,0.0,0.0,0.0,13.40721,21.37133,3.60963,10.61,1.15,-0.04,4.0
1758077924.58373,1758077923.79569,0.0,0.0,0.0,8.25059,16.90226,0.80214,8.82,1.79,0.22,4.0
1758077924.58625,1758077923.80569,0.0,0.0,0.0,4.18259,14.72501,-1.48969,8.82,1.79,0.22,4.0
1758077924.60148,1758077923.81569,0.0,0.0,0.0,0.97403,13.5218,-3.03668,8.95,1.69,-0.28,4.0
1758077924.60668,1758077923.82569,0.0,0.0,0.0,-1.60428,10.25595,-4.1253,9.35,1.69,0.03,4.0
1758077924.62246,1758077923.83569,0.0,0.0,0.0,-1.3751,9.62569,-3.60963,9.35,0.78,0.03,4.0
1758077924.62692,1758077923.84569,0.0,0.0,0.0,-1.94806,8.65166,-3.60963,9.94,-0.34,0.08,4.0
1758077924.64252,1758077923.85569,0.0,0.0,0.0,-3.20856,5.32851,-4.1253,9.94,-0.34,0.08,4.0
1758077924.64524,1758077923.86569,0.0,0.0,0.0,-4.35448,1.3178,-4.64096,9.81,-0.52,-0.42,4.0
1758077924.66177,1758077923.87569,0.0,0.0,0.0,-4.18259,2.46372,-4.98473,9.81,-0.52,-0.42,4.0
1758077924.66536,1758077923.88569,0.0,0.0,0.0,-3.89611,4.23989,-5.32851,10.15,-0.77,0.03,4.0
1758077924.68134,1758077923.89569,0.0,0.0,0.0,-3.32316,4.64096,-5.27121,10.15,-0.77,0.03,4.0
1758077924.6991,1758077923.90569,0.0,0.0,0.0,-2.11994,1.48969,-4.52637,9.89,-0.82,0.27,4.0
1758077924.70031,1758077923.91569,0.0,0.0,0.0,-0.74485,-0.11459,-3.83882,9.61,-0.74,0.34,4.0
1758077924.71643,1758077923.92569,0.0,0.0,0.0,0.68755,-1.08862,-3.09397,9.61,-0.74,0.34,4.0
1758077924.71991,1758077923.93569,0.0,0.0,0.0,2.29183,-1.83346,-2.06265,9.57,-0.56,0.26,4.0
1758077924.73575,1758077923.94569,0.0,0.0,0.0,5.21392,-1.83346,-1.77617,9.57,-0.56,0.26,4.0
1758077924.73836,1758077923.95569,0.0,0.0,0.0,7.44845,-2.00535,-1.60428,9.54,-0.46,0.37,4.0
1758077924.75359,1758077923.96569,0.0,0.0,0.0,9.4538,-2.23454,-1.3751,9.54,-0.46,0.37,4.0
1758077924.75472,1758077923.97569,0.0,0.0,0.0,12.49048,-3.20856,-1.43239,9.5,-0.53,0.31,4.0
1758077924.76985,1758077923.98569,0.0,0.0,0.0,13.98017,-3.60963,-1.83346,9.42,-0.61,0.14,4.0
1758077924.78576,1758077923.99569,0.0,0.0,0.0,15.29797,-3.83882,-2.29183,9.42,-0.61,0.14,4.0
1758077924.78675,1758077924.00569,0.0,0.0,0.0,16.272,-3.83882,-3.26586,9.38,-0.62,0.0,4.0
1758077924.80518,1758077924.01569,0.0,0.0,0.0,17.01685,-3.26586,-4.92744,9.38,-0.62,0.0,4.0
1758077924.80636,1758077924.02569,0.0,0.0,0.0,17.24603,-3.60963,-6.18794,9.3,-0.61,-0.06,4.0
1758077924.82157,1758077924.03569,0.0,0.0,0.0,17.24603,-4.0107,-7.67763,9.3,-0.61,-0.06,4.0
1758077924.826,1758077924.04569,0.0,0.0,0.0,17.13144,-4.35448,-9.05273,9.2,-0.57,-0.13,4.0
1758077924.84194,1758077924.05569,0.0,0.0,0.0,17.24603,-4.35448,-11.00079,9.25,-0.56,-0.13,4.0
1758077924.85869,1758077924.06569,0.0,0.0,0.0,17.24603,-3.83882,-12.2613,9.25,-0.56,-0.13,4.0
1758077924.86074,1758077924.07569,0.0,0.0,0.0,17.53251,-2.86479,-13.40721,9.36,-0.65,-0.14,4.0
1758077924.87566,1758077924.08569,0.0,0.0,0.0,17.81899,-1.60428,-14.15206,9.36,-0.65,-0.14,4.0
1758077924.87682,1758077924.09569,0.0,0.0,0.0,18.10547,0.0573,-15.06879,9.37,-0.7,-0.15,4.0
1758077924.89189,1758077924.10569,0.0,0.0,0.0,18.27736,0.74485,-15.41257,9.37,-0.7,-0.15,4.0
1758077924.90786,1758077924.11569,0.0,0.0,0.0,18.27736,1.43239,-15.69904,9.24,-0.67,-0.12,4.0
1758077924.91037,1758077924.12569,0.0,0.0,0.0,18.10547,2.11994,-15.98552,9.24,-0.67,-0.12,4.0
1758077924.9258,1758077924.13569,0.0,0.0,0.0,17.58981,3.03668,-16.21471,9.18,-0.57,-0.15,4.0
1758077924.92684,1758077924.14569,0.0,0.0,0.0,16.90226,2.97938,-16.38659,9.07,-0.48,-0.12,4.0
1758077924.98289,1758077924.15569,0.0,0.0,0.0,15.87093,3.03668,-16.55848,9.07,-0.48,-0.12,4.0
1758077924.99208,1758077924.16569,0.0,0.0,0.0,14.03747,2.92208,-16.67307,8.97,-0.44,-0.13,4.0
1758077924.99355,1758077924.17569,0.0,0.0,0.0,13.12073,1.83346,-16.84496,8.97,-0.44,-0.13,4.0
1758077924.99555,1758077924.18569,0.0,0.0,0.0,11.86023,1.60428,-16.84496,8.86,-0.46,-0.05,4.0
1758077924.99588,1758077924.19569,0.0,0.0,0.0,11.11538,0.40107,-16.84496,8.86,-0.46,-0.05,4.0
1758077924.99955,1758077924.20569,0.0,0.0,0.0,10.37054,-1.83346,-16.84496,8.5,-0.5,-0.12,4.0
1758077925.00008,1758077924.21569,0.0,0.0,0.0,10.31324,-3.49504,-17.13144,8.11,-0.56,-0.28,4.0
1758077925.01572,1758077924.22569,0.0,0.0,0.0,10.31324,-4.92744,-17.30333,8.11,-0.56,-0.28,4.0
1758077925.01858,1758077924.23569,0.0,0.0,0.0,10.54242,-6.35983,-17.30333,7.65,-0.66,-0.52,4.0
1758077925.03612,1758077924.24569,0.0,0.0,0.0,10.65701,-8.25059,-17.18874,7.65,-0.66,-0.52,4.0
1758077925.0384,1758077924.25569,0.0,0.0,0.0,11.00079,-9.85487,-16.84496,7.33,-0.7,-0.71,4.0
1758077925.0561,1758077924.26569,0.0,0.0,0.0,11.28727,-11.57375,-16.38659,7.33,-0.7,-0.71,4.0
1758077925.05735,1758077924.27569,0.0,0.0,0.0,11.80293,-13.12073,-15.87093,7.19,-0.72,-0.85,4.0
1758077925.0727,1758077924.28569,0.0,0.0,0.0,12.60507,-15.87093,-15.0115,7.07,-0.77,-0.85,4.0
1758077925.07391,1758077924.29569,0.0,0.0,0.0,13.5218,-18.85031,-14.38124,7.07,-0.77,-0.85,4.0
1758077925.09069,1758077924.30569,0.0,0.0,0.0,14.38124,-22.74642,-13.86558,6.56,-0.8,-0.62,4.0
1758077925.10803,1758077924.31569,0.0,0.0,0.0,15.29797,-26.69983,-13.00614,6.56,-0.8,-0.62,4.0
1758077925.10921,1758077924.32569,0.0,0.0,0.0,16.73037,-31.45539,-11.51645,6.34,-0.83,-0.25,4.0
1758077925.12607,1758077924.33569,0.0,0.0,0.0,17.87628,-33.74722,-10.19865,6.34,-0.83,-0.25,4.0
1758077925.12775,1758077924.34569,0.0,0.0,0.0,18.9649,-36.89849,-8.30789,7.09,-0.59,0.3,4.0
1758077925.14273,1758077924.35569,0.0,0.0,0.0,19.59516,-39.3622,-5.27121,7.09,-0.59,0.3,4.0
1758077925.14516,1758077924.36569,0.0,0.0,0.0,18.79302,-37.12767,-3.09397,9.02,0.0,1.06,4.0
1758077925.16108,1758077924.37569,0.0,0.0,0.0,17.18874,-33.51803,-0.85944,12.05,0.78,2.16,4.0
1758077925.16579,1758077924.38569,0.0,0.0,0.0,15.46986,-30.02299,1.43239,12.05,0.78,2.16,4.0
1758077925.186,1758077924.39569,0.0,0.0,0.0,12.08941,-16.38659,5.4431,14.59,1.69,2.3,4.0
1758077925.21094,1758077924.40569,0.0,0.0,0.0,7.16197,3.49504,8.65166,14.59,1.69,2.3,4.0
1758077925.21213,1758077924.41569,0.0,0.0,0.0,-1.08862,25.8404,14.09476,20.61,3.07,3.85,4.0
1758077925.21495,1758077924.42569,0.0,0.0,0.0,-11.63104,40.45082,21.6578,20.61,3.07,3.85,4.0
1758077925.21558,1758077924.43569,0.0,0.0,0.0,-21.08485,-20.22541,29.73651,25.93,6.0,1.25,4.0
1758077925.23211,1758077924.44569,0.0,0.0,0.0,-27.38738,-60.38975,24.23611,16.79,3.89,-2.0,4.0
1758077925.23896,1758077924.45569,0.0,0.0,0.0,-31.2262,-27.96034,20.68378,16.79,3.89,-2.0,4.0
1758077925.25381,1758077924.46569,0.0,0.0,0.0,-32.54401,15.24068,14.38124,18.64,-1.11,-1.5,4.0
1758077925.25658,1758077924.47569,0.0,0.0,0.0,-29.27814,29.39274,2.97938,18.64,-1.11,-1.5,4.0
1758077925.27212,1758077924.48569,0.0,0.0,0.0,-22.74642,14.03747,-2.23454,10.18,-1.34,1.56,4.0
1758077925.28883,1758077924.49569,0.0,0.0,0.0,-14.43854,-0.80214,-5.84417,10.18,-1.34,1.56,4.0
1758077925.29017,1758077924.50569,0.0,0.0,0.0,-3.66693,-12.2613,-7.79223,8.73,-0.49,-1.45,4.0
1758077925.30606,1758077924.51569,0.0,0.0,0.0,9.85487,-21.25674,-7.73493,9.7,-0.86,-0.56,4.0
1758077925.30896,1758077924.52569,0.0,0.0,0.0,14.15206,-0.68755,-7.21927,9.7,-0.86,-0.56,4.0
1758077925.32499,1758077924.53569,0.0,0.0,0.0,14.83961,28.36141,-8.30789,13.6,-0.77,2.13,4.0
1758077925.32579,1758077924.54569,0.0,0.0,0.0,12.2613,51.39432,-10.54242,13.6,-0.77,2.13,4.0
1758077925.34113,1758077924.55569,0.0,0.0,0.0,11.74564,25.72581,-9.33921,9.62,-0.03,3.16,4.0
1758077925.34592,1758077924.56569,0.0,0.0,0.0,9.28192,0.45837,-10.02676,9.62,-0.03,3.16,4.0
1758077925.36118,1758077924.57569,0.0,0.0,0.0,7.39116,-10.02676,-9.68299,5.76,1.09,0.49,4.0
1758077925.36663,1758077924.58569,0.0,0.0,0.0,3.66693,-14.49583,-8.136,5.76,1.09,0.49,4.0
1758077925.38216,1758077924.59569,0.0,0.0,0.0,0.85944,-14.9542,-6.99009,7.79,2.13,0.01,4.0
1758077925.38622,1758077924.60569,0.0,0.0,0.0,-1.03132,-11.22997,-5.55769,8.82,2.35,1.17,4.0
1758077925.40121,1758077924.61569,0.0,0.0,0.0,-2.97938,-3.72423,-4.92744,8.82,2.35,1.17,4.0
1758077925.41714,1758077924.62569,0.0,0.0,0.0,-4.1253,12.08941,-3.89611,9.94,1.52,0.51,4.0
1758077925.41866,1758077924.63569,0.0,0.0,0.0,-4.23989,18.27736,-3.83882,9.94,1.52,0.51,4.0
1758077925.43423,1758077924.64569,0.0,0.0,0.0,-3.60963,19.82434,-3.95341,9.33,0.3,0.19,4.0
1758077925.43605,1758077924.65569,0.0,0.0,0.0,-2.63561,18.62113,-4.18259,9.33,0.3,0.19,4.0
1758077925.45092,1758077924.66569,0.0,0.0,0.0,0.11459,14.49583,-4.35448,8.77,-0.23,-0.49,4.0
1758077925.45286,1758077924.67569,0.0,0.0,0.0,2.40642,12.14671,-4.35448,9.32,-0.19,-1.19,4.0
1758077925.4702,1758077924.68569,0.0,0.0,0.0,4.92744,10.31324,-4.46907,9.32,-0.19,-1.19,4.0
1758077925.48599,1758077924.69569,0.0,0.0,0.0,8.25059,8.25059,-4.18259,10.16,0.26,-1.6,4.0
1758077925.4871,1758077924.70569,0.0,0.0,0.0,13.69369,5.55769,-3.38045,10.16,0.26,-1.6,4.0
1758077925.50272,1758077924.71569,0.0,0.0,0.0,18.22006,2.29183,-2.11994,10.54,0.61,-1.75,4.0
1758077925.50629,1758077924.72569,0.0,0.0,0.0,23.0902,-2.6929,-1.14592,10.54,0.61,-1.75,4.0
1758077925.52271,1758077924.73569,0.0,0.0,0.0,28.41871,-7.21927,-0.74485,10.23,0.23,-1.59,4.0
1758077925.52665,1758077924.74569,0.0,0.0,0.0,35.92446,-11.63104,-1.48969,9.9,-0.45,-1.2,4.0
1758077925.54586,1758077924.75569,0.0,0.0,0.0,40.10705,-14.43854,-2.46372,9.9,-0.45,-1.2,4.0
1758077925.54677,1758077924.76569,0.0,0.0,0.0,43.60209,-16.50119,-3.49504,9.48,-0.66,-0.67,4.0
1758077925.56537,1758077924.77569,0.0,0.0,0.0,45.89392,-17.6471,-4.46907,9.48,-0.66,-0.67,4.0
1758077925.56664,1758077924.78569,0.0,0.0,0.0,47.09713,-18.73572,-4.69825,9.56,-0.17,-0.42,4.0
1758077925.58292,1758077924.79569,0.0,0.0,0.0,46.35228,-18.9649,-4.52637,9.56,-0.17,-0.42,4.0
1758077925.58553,1758077924.80569,0.0,0.0,0.0,44.28964,-16.90226,-3.72423,10.03,0.78,-0.23,4.0
1758077925.60115,1758077924.81569,0.0,0.0,0.0,39.4195,-12.43318,-2.40642,10.03,0.78,-0.23,4.0
1758077925.60459,1758077924.82569,0.0,0.0,0.0,34.77854,-9.11003,-1.14592,10.54,1.72,0.04,4.0
1758077925.62029,1758077924.83569,0.0,0.0,0.0,29.50733,-7.44845,-0.45837,10.28,2.4,0.28,4.0
1758077925.63601,1758077924.84569,0.0,0.0,0.0,23.60586,-6.8182,0.0,10.28,2.4,0.28,4.0
1758077925.64035,1758077924.85569,0.0,0.0,0.0,14.78231,-8.76626,-0.0573,9.68,2.68,0.45,4.0
1758077925.65624,1758077924.86569,0.0,0.0,0.0,8.47978,-10.8862,-0.85944,9.68,2.68,0.45,4.0
1758077925.66121,1758077924.87569,0.0,0.0,0.0,2.97938,-10.71431,-1.71887,9.54,2.57,0.46,4.0
1758077925.6763,1758077924.88569,0.0,0.0,0.0,-1.77617,-8.02141,-2.11994,9.54,2.57,0.46,4.0
1758077925.68047,1758077924.89569,0.0,0.0,0.0,-6.99009,-1.66158,-2.46372,10.24,2.15,0.47,4.0
1758077925.69633,1758077924.90569,0.0,0.0,0.0,-9.28192,0.80214,-2.57831,10.38,1.61,0.53,4.0
1758077925.70016,1758077924.91569,0.0,0.0,0.0,-10.54242,2.11994,-2.57831,10.38,1.61,0.53,4.0
1758077925.90141,1758077924.92569,0.0,0.0,0.0,-11.17268,3.03668,-2.57831,10.26,1.08,0.27,4.0
1758077925.93299,1758077924.93569,0.0,0.0,0.0,-10.65701,2.40642,-3.03668,10.26,1.08,0.27,4.0
1758077925.93503,1758077924.94569,0.0,0.0,0.0,-9.85487,2.23454,-3.49504,10.29,0.58,-0.01,4.0
1758077925.94121,1758077924.95569,0.0,0.0,0.0,-8.42248,3.03668,-3.89611,10.29,0.58,-0.01,4.0
1758077925.94498,1758077924.96569,0.0,0.0,0.0,-6.8182,4.52637,-3.95341,10.79,0.18,-0.18,4.0
1758077925.94671,1758077924.97569,0.0,0.0,0.0,-4.23989,5.4431,-4.18259,10.69,0.07,-0.22,4.0
1758077925.97069,1758077924.98569,0.0,0.0,0.0,-2.63561,5.55769,-3.95341,10.69,0.07,-0.22,4.0
1758077925.97492,1758077924.99569,0.0,0.0,0.0,-1.66158,5.09932,-3.55234,10.1,0.51,-0.19,4.0
1758077925.9763,1758077925.00569,0.0,0.0,0.0,-0.74485,4.92744,-2.6929,10.1,0.51,-0.19,4.0
1758077925.97994,1758077925.01569,0.0,0.0,0.0,-0.74485,4.98473,-2.11994,9.85,1.22,-0.28,4.0
1758077925.99095,1758077925.02569,0.0,0.0,0.0,-0.80214,5.72958,-1.66158,9.85,1.22,-0.28,4.0
1758077925.99218,1758077925.03569,0.0,0.0,0.0,-1.3178,6.24524,-1.3751,9.92,1.69,-0.36,4.0
1758077925.99437,1758077925.04569,0.0,0.0,0.0,-1.94806,7.10468,-1.3178,9.92,1.69,-0.36,4.0
1758077925.99512,1758077925.05569,0.0,0.0,0.0,-2.23454,7.79223,-1.3178,10.05,1.74,-0.26,4.0
1758077925.99978,1758077925.06569,0.0,0.0,0.0,-2.46372,8.25059,-1.48969,10.14,1.54,-0.22,4.0
1758077926.00109,1758077925.07569,0.0,0.0,0.0,-2.46372,8.42248,-1.83346,10.14,1.54,-0.22,4.0
1758077926.03166,1758077925.08569,0.0,0.0,0.0,-2.34913,8.136,-2.23454,10.14,1.27,-0.22,4.0
1758077926.03384,1758077925.09569,0.0,0.0,0.0,-1.94806,7.67763,-2.29183,10.14,1.27,-0.22,4.0
1758077926.03477,1758077925.10569,0.0,0.0,0.0,-1.3751,7.39116,-2.29183,10.13,0.99,-0.18,4.0
1758077926.03543,1758077925.11569,0.0,0.0,0.0,-0.97403,7.16197,-2.06265,10.13,0.99,-0.18,4.0
1758077926.03985,1758077925.12569,0.0,0.0,0.0,-0.45837,7.50575,-1.77617,10.1,0.83,-0.23,4.0
1758077926.06502,1758077925.13569,0.0,0.0,0.0,-0.11459,7.79223,-1.43239,9.95,0.81,-0.26,4.0
1758077926.07073,1758077925.14569,0.0,0.0,0.0,0.11459,7.96411,-1.03132,9.95,0.81,-0.26,4.0
1758077926.10525,1758077925.15569,0.0,0.0,0.0,0.17189,8.0787,-0.80214,9.79,0.84,-0.3,4.0
1758077926.10914,1758077925.16569,0.0,0.0,0.0,0.45837,7.67763,-0.22918,9.79,0.84,-0.3,4.0
1758077926.14189,1758077925.17569,0.0,0.0,0.0,0.45837,7.79223,0.0573,9.73,0.8,-0.36,4.0
1758077926.148,1758077925.18569,0.0,0.0,0.0,0.51566,7.84952,0.45837,9.73,0.8,-0.36,4.0
1758077926.28674,1758077925.19569,0.0,0.0,0.0,0.51566,8.02141,1.3178,9.73,0.75,-0.35,4.0
1758077926.29533,1758077925.20569,0.0,0.0,0.0,0.80214,8.47978,1.77617,9.8,0.72,-0.4,4.0
1758077926.32751,1758077925.21569,0.0,0.0,0.0,0.97403,9.11003,2.11994,9.8,0.72,-0.4,4.0
1758077926.32973,1758077925.22569,0.0,0.0,0.0,1.3178,9.22462,2.63561,9.88,0.68,-0.46,4.0
1758077926.49003,1758077925.23569,0.0,0.0,0.0,1.77617,8.76626,3.09397,9.88,0.68,-0.46,4.0
1758077926.49136,1758077925.24569,0.0,0.0,0.0,2.11994,8.0787,3.55234,9.86,0.63,-0.48,4.0
1758077926.50084,1758077925.25569,0.0,0.0,0.0,2.40642,7.84952,3.72423,9.86,0.63,-0.48,4.0
1758077926.50119,1758077925.26569,0.0,0.0,0.0,2.57831,7.50575,3.95341,9.89,0.56,-0.49,4.0
1758077926.50637,1758077925.27569,0.0,0.0,0.0,2.7502,7.10468,4.18259,9.9,0.56,-0.39,4.0
1758077926.50945,1758077925.28569,0.0,0.0,0.0,2.7502,6.87549,4.23989,9.9,0.49,-0.39,4.0
1758077926.51299,1758077925.29569,0.0,0.0,0.0,2.86479,6.70361,4.35448,9.9,0.5,-0.25,4.0
1758077926.5193,1758077925.30569,0.0,0.0,0.0,2.92208,6.18794,4.23989,9.9,0.5,-0.25,4.0
1758077926.52201,1758077925.31569,0.0,0.0,0.0,3.03668,4.81285,4.0107,9.99,0.56,-0.26,4.0
1758077926.52662,1758077925.32569,0.0,0.0,0.0,3.20856,4.0107,3.95341,9.99,0.56,-0.26,4.0
1758077926.52946,1758077925.33569,0.0,0.0,0.0,3.38045,3.20856,4.18259,10.1,0.57,-0.41,4.0
1758077926.53014,1758077925.34569,0.0,0.0,0.0,3.32316,2.63561,4.18259,10.1,0.57,-0.41,4.0
1758077926.53093,1758077925.35569,0.0,0.0,0.0,3.32316,2.97938,4.69825,10.07,0.56,-0.39,4.0
1758077926.53517,1758077925.36569,0.0,0.0,0.0,3.09397,3.38045,5.15662,10.02,0.53,-0.26,4.0
1758077926.53579,1758077925.37569,0.0,0.0,0.0,2.63561,3.60963,5.32851,10.02,0.53,-0.26,4.0
1758077926.53887,1758077925.38569,0.0,0.0,0.0,2.23454,3.66693,5.32851,9.85,0.59,-0.2,4.0
1758077926.53921,1758077925.39569,0.0,0.0,0.0,1.48969,3.66693,5.15662,9.85,0.59,-0.2,4.0
1758077926.54056,1758077925.40569,0.0,0.0,0.0,1.03132,3.55234,5.09932,9.76,0.66,-0.13,4.0
1758077926.54115,1758077925.41569,0.0,0.0,0.0,0.57296,3.20856,5.32851,9.76,0.66,-0.13,4.0
1758077926.54653,1758077925.42569,0.0,0.0,0.0,0.0573,1.71887,5.55769,9.69,0.69,-0.05,4.0
1758077926.54785,1758077925.43569,0.0,0.0,0.0,-0.0573,0.51566,5.61499,9.51,0.68,-0.07,4.0
1758077926.55029,1758077925.44569,0.0,0.0,0.0,-0.22918,-0.68755,5.95876,9.51,0.68,-0.07,4.0
1758077926.56002,1758077925.45569,0.0,0.0,0.0,-0.34377,-0.74485,6.13065,9.45,0.67,-0.15,4.0
1758077926.56079,1758077925.46569,0.0,0.0,0.0,-0.34377,0.85944,6.35983,9.45,0.67,-0.15,4.0
1758077926.56673,1758077925.47569,0.0,0.0,0.0,-0.40107,2.92208,6.41713,9.56,0.6,-0.16,4.0
1758077926.56934,1758077925.48569,0.0,0.0,0.0,-0.22918,4.46907,6.58902,9.56,0.6,-0.16,4.0
1758077926.57011,1758077925.49569,0.0,0.0,0.0,-0.34377,5.55769,6.8182,9.65,0.54,-0.07,4.0
1758077926.57089,1758077925.50569,0.0,0.0,0.0,-0.57296,7.04738,7.10468,9.82,0.54,0.0,4.0
1758077926.57311,1758077925.51569,0.0,0.0,0.0,-0.80214,7.79223,7.33386,9.82,0.54,0.0,4.0
1758077926.57344,1758077925.52569,0.0,0.0,0.0,-1.20321,8.136,7.62034,9.9,0.62,0.13,4.0
1758077926.5762,1758077925.53569,0.0,0.0,0.0,-1.71887,8.0787,7.73493,9.9,0.62,0.13,4.0
1758077926.57924,1758077925.54569,0.0,0.0,0.0,-2.7502,6.99009,7.62034,9.71,0.76,0.19,4.0
1758077926.58059,1758077925.55569,0.0,0.0,0.0,-3.66693,6.13065,7.44845,9.71,0.76,0.19,4.0
1758077926.58113,1758077925.56569,0.0,0.0,0.0,-4.58366,5.72958,7.10468,9.36,0.97,0.16,4.0
1758077926.58823,1758077925.57569,0.0,0.0,0.0,-5.61499,5.78687,6.58902,9.36,0.97,0.16,4.0
1758077926.59019,1758077925.58569,0.0,0.0,0.0,-7.10468,6.24524,5.95876,9.1,1.13,0.12,4.0
1758077926.59294,1758077925.59569,0.0,0.0,0.0,-7.79223,6.7609,5.55769,8.88,1.15,0.07,4.0
1758077926.59836,1758077925.60569,0.0,0.0,0.0,-8.65166,7.62034,4.98473,8.88,1.15,0.07,4.0
1758077926.60164,1758077925.61569,0.0,0.0,0.0,-9.62569,8.36518,4.52637,8.84,1.03,0.01,4.0
1758077926.65141,1758077925.62569,0.0,0.0,0.0,-10.08406,9.11003,4.46907,8.84,1.03,0.01,4.0
1758077926.65315,1758077925.63569,0.0,0.0,0.0,-10.25595,9.11003,4.69825,8.94,0.84,-0.03,4.0
1758077926.65499,1758077925.64569,0.0,0.0,0.0,-10.54242,8.99544,5.09932,8.94,0.84,-0.03,4.0
1758077926.65611,1758077925.65569,0.0,0.0,0.0,-10.71431,9.4538,6.24524,9.16,0.6,-0.02,4.0
1758077926.65866,1758077925.66569,0.0,0.0,0.0,-10.65701,10.54242,7.10468,9.66,0.39,-0.07,4.0
1758077926.65902,1758077925.67569,0.0,0.0,0.0,-10.59972,11.28727,8.02141,9.66,0.39,-0.07,4.0
1758077926.66024,1758077925.68569,0.0,0.0,0.0,-10.37054,11.91752,8.93814,9.89,0.23,-0.19,4.0
1758077926.66089,1758077925.69569,0.0,0.0,0.0,-9.62569,11.91752,9.74028,9.89,0.23,-0.19,4.0
1758077926.66287,1758077925.70569,0.0,0.0,0.0,-8.93814,11.34457,10.02676,10.0,0.12,-0.23,4.0
1758077926.66593,1758077925.71569,0.0,0.0,0.0,-8.25059,10.54242,10.08406,10.0,0.12,-0.23,4.0
1758077926.66955,1758077925.72569,0.0,0.0,0.0,-7.33386,9.39651,10.08406,9.9,0.05,-0.16,4.0
1758077926.67014,1758077925.73569,0.0,0.0,0.0,-6.18794,7.62034,9.96947,9.73,0.05,-0.07,4.0
1758077926.6709,1758077925.74569,0.0,0.0,0.0,-5.4431,6.47442,9.96947,9.73,0.05,-0.07,4.0
1758077926.67308,1758077925.75569,0.0,0.0,0.0,-4.58366,5.27121,9.96947,9.62,0.12,-0.1,4.0
1758077926.67352,1758077925.76569,0.0,0.0,0.0,-4.0107,4.23989,10.19865,9.62,0.12,-0.1,4.0
1758077926.67486,1758077925.77569,0.0,0.0,0.0,-3.03668,3.20856,10.59972,9.66,0.2,-0.11,4.0
1758077926.67666,1758077925.78569,0.0,0.0,0.0,-2.34913,2.63561,11.00079,9.66,0.2,-0.11,4.0
1758077926.67895,1758077925.79569,0.0,0.0,0.0,-1.77617,2.29183,11.28727,9.69,0.19,0.02,4.0
1758077926.6797,1758077925.80569,0.0,0.0,0.0,-1.3178,2.23454,11.80293,9.69,0.19,0.02,4.0
1758077926.6808,1758077925.81569,0.0,0.0,0.0,-0.57296,2.86479,11.91752,9.61,0.16,0.13,4.0
1758077926.68144,1758077925.82569,0.0,0.0,0.0,-0.17189,3.60963,11.97482,9.48,0.16,0.08,4.0
1758077926.68272,1758077925.83569,0.0,0.0,0.0,0.0,4.46907,11.86023,9.48,0.16,0.08,4.0
1758077926.68656,1758077925.84569,0.0,0.0,0.0,0.11459,3.72423,11.57375,9.4,0.26,0.12,4.0
1758077926.69017,1758077925.85569,0.0,0.0,0.0,0.11459,2.6929,11.22997,9.4,0.26,0.12,4.0
1758077926.69078,1758077925.86569,0.0,0.0,0.0,0.17189,1.77617,11.22997,9.56,0.39,0.1,4.0
1758077926.69282,1758077925.87569,0.0,0.0,0.0,0.22918,0.85944,11.34457,9.56,0.39,0.1,4.0
1758077926.69583,1758077925.88569,0.0,0.0,0.0,0.0,-0.51566,11.00079,9.93,0.45,-0.1,4.0
1758077926.6966,1758077925.89569,0.0,0.0,0.0,-0.0573,-1.48969,10.65701,10.01,0.41,-0.25,4.0
1758077926.69962,1758077925.90569,0.0,0.0,0.0,-0.0573,-2.57831,10.31324,10.01,0.41,-0.25,4.0
1758077926.69997,1758077925.91569,0.0,0.0,0.0,0.17189,-3.72423,10.19865,9.92,0.29,-0.18,4.0
1758077926.71562,1758077925.92569,0.0,0.0,0.0,0.51566,-4.98473,9.96947,9.92,0.29,-0.18,4.0
1758077926.71679,1758077925.93569,0.0,0.0,0.0,0.80214,-5.78687,10.02676,9.84,0.21,-0.17,4.0
1758077926.73185,1758077925.94569,0.0,0.0,0.0,1.14592,-6.70361,9.91217,9.84,0.21,-0.17,4.0
1758077926.73376,1758077925.95569,0.0,0.0,0.0,1.71887,-7.44845,10.31324,9.7,0.23,-0.1,4.0
1758077926.74864,1758077925.96569,0.0,0.0,0.0,2.7502,-8.76626,10.48513,9.63,0.28,-0.01,4.0
1758077926.76591,1758077925.97569,0.0,0.0,0.0,3.72423,-10.48513,10.8289,9.63,0.28,-0.01,4.0
1758077926.76683,1758077925.98569,0.0,0.0,0.0,4.35448,-11.63104,11.00079,9.55,0.35,-0.12,4.0
1758077926.78194,1758077925.99569,0.0,0.0,0.0,4.81285,-12.204,11.11538,9.55,0.35,-0.12,4.0
1758077926.78282,1758077926.00569,0.0,0.0,0.0,5.32851,-14.03747,11.34457,9.31,0.41,-0.16,4.0
1758077926.80069,1758077926.01569,0.0,0.0,0.0,5.50039,-15.58445,11.28727,9.31,0.41,-0.16,4.0
1758077926.81905,1758077926.02569,0.0,0.0,0.0,5.61499,-16.55848,11.34457,8.84,0.44,-0.34,4.0
1758077926.82026,1758077926.03569,0.0,0.0,0.0,5.61499,-16.84496,10.54242,8.84,0.44,-0.34,4.0
1758077926.83569,1758077926.04569,0.0,0.0,0.0,5.50039,-17.30333,9.5684,8.58,0.44,-0.65,4.0
1758077926.83963,1758077926.05569,0.0,0.0,0.0,5.72958,-19.53786,8.36518,8.07,0.39,-0.66,4.0
1758077926.85505,1758077926.06569,0.0,0.0,0.0,5.78687,-22.34536,7.04738,8.07,0.39,-0.66,4.0
1758077926.8559,1758077926.07569,0.0,0.0,0.0,5.90147,-26.87172,4.98473,7.8,0.42,-0.49,4.0
1758077926.87094,1758077926.08569,0.0,0.0,0.0,6.24524,-29.27814,3.60963,7.8,0.42,-0.49,4.0
1758077926.88689,1758077926.09569,0.0,0.0,0.0,6.47442,-30.82513,2.40642,7.97,0.38,-0.26,4.0
1758077926.8911,1758077926.10569,0.0,0.0,0.0,6.99009,-32.08564,1.3751,7.97,0.38,-0.26,4.0
1758077926.90701,1758077926.11569,0.0,0.0,0.0,8.59437,-31.91375,-0.51566,8.58,0.1,0.07,4.0
1758077926.90874,1758077926.12569,0.0,0.0,0.0,10.71431,-29.73651,-1.77617,9.64,-0.45,0.15,4.0
1758077926.92531,1758077926.13569,0.0,0.0,0.0,13.86558,-27.78845,-2.92208,9.64,-0.45,0.15,4.0
1758077926.92657,1758077926.14569,0.0,0.0,0.0,18.44924,-26.75713,-4.0107,10.23,-1.26,0.56,4.0
1758077926.942,1758077926.15569,0.0,0.0,0.0,26.81443,-23.66316,-5.15662,10.23,-1.26,0.56,4.0
1758077926.94399,1758077926.16569,0.0,0.0,0.0,32.77319,-19.70975,-5.84417,10.78,-2.22,0.84,4.0
1758077926.96102,1758077926.17569,0.0,0.0,0.0,39.13302,-13.75099,-7.10468,10.78,-2.22,0.84,4.0
1758077926.97761,1758077926.18569,0.0,0.0,0.0,46.35228,-5.21392,-10.8862,12.51,-3.41,2.02,4.0
1758077926.98032,1758077926.19569,0.0,0.0,0.0,59.01466,2.97938,-20.79837,17.48,-4.92,1.61,4.0
1758077926.99603,1758077926.20569,0.0,0.0,0.0,68.52576,7.21927,-26.35606,17.48,-4.92,1.61,4.0
1758077926.99962,1758077926.21569,0.0,0.0,0.0,75.91692,-1.94806,-31.16891,19.24,-5.25,-0.78,4.0
1758077927.01477,1758077926.22569,0.0,0.0,0.0,79.35466,-11.45916,-28.476,19.24,-5.25,-0.78,4.0
1758077927.01602,1758077926.23569,0.0,0.0,0.0,80.95895,-10.65701,-20.45459,15.34,-2.02,-1.21,4.0
1758077927.03076,1758077926.24569,0.0,0.0,0.0,79.01089,-4.18259,-11.51645,15.34,-2.02,-1.21,4.0
1758077927.04692,1758077926.25569,0.0,0.0,0.0,74.14074,0.85944,-2.57831,13.11,0.25,-0.19,4.0
1758077927.05038,1758077926.26569,0.0,0.0,0.0,62.22322,7.79223,6.7609,13.11,0.25,-0.19,4.0
1758077927.06598,1758077926.27569,0.0,0.0,0.0,52.42564,13.46451,11.00079,11.67,1.18,0.57,4.0
1758077927.06808,1758077926.28569,0.0,0.0,0.0,41.88322,16.61578,12.49048,10.43,1.32,0.4,4.0
1758077927.08387,1758077926.29569,0.0,0.0,0.0,32.77319,20.68378,12.08941,10.43,1.32,0.4,4.0
1758077927.08636,1758077926.30569,0.0,0.0,0.0,22.11617,31.39809,10.59972,9.85,1.49,0.35,4.0
1758077927.102,1758077926.31569,0.0,0.0,0.0,16.90226,34.14828,8.42248,9.85,1.49,0.35,4.0
1758077927.10654,1758077926.32569,0.0,0.0,0.0,13.06344,30.65324,5.61499,9.49,1.65,1.25,4.0
1758077927.12182,1758077926.33569,0.0,0.0,0.0,10.59972,22.86102,2.86479,9.49,1.65,1.25,4.0
1758077927.12492,1758077926.34569,0.0,0.0,0.0,8.36518,6.41713,-0.34377,9.0,1.31,1.55,4.0
1758077927.14114,1758077926.35569,0.0,0.0,0.0,7.44845,0.11459,-0.74485,9.38,0.12,1.07,4.0
1758077927.15868,1758077926.36569,0.0,0.0,0.0,6.70361,0.0,-0.11459,9.38,0.12,1.07,4.0
1758077927.15968,1758077926.37569,0.0,0.0,0.0,5.78687,1.83346,0.85944,9.92,-1.27,0.95,4.0
1758077927.17491,1758077926.38569,0.0,0.0,0.0,4.0107,3.72423,2.34913,9.92,-1.27,0.95,4.0
1758077927.17636,1758077926.39569,0.0,0.0,0.0,3.03668,5.61499,3.55234,9.49,-1.88,1.07,4.0
1758077927.19092,1758077926.40569,0.0,0.0,0.0,2.63561,8.99544,4.98473,9.49,-1.88,1.07,4.0
1758077927.19283,1758077926.41569,0.0,0.0,0.0,2.63561,11.74564,5.72958,9.82,-1.63,0.79,4.0
1758077927.21095,1758077926.42569,0.0,0.0,0.0,3.38045,13.06344,6.41713,9.73,-0.92,0.63,4.0
1758077927.22691,1758077926.43569,0.0,0.0,0.0,4.35448,12.54778,6.18794,9.73,-0.92,0.63,4.0
1758077927.23179,1758077926.44569,0.0,0.0,0.0,5.21392,11.80293,5.55769,9.51,-0.2,0.39,4.0
1758077927.23593,1758077926.45569,0.0,0.0,0.0,5.90147,11.17268,3.95341,9.51,-0.2,0.39,4.0
1758077927.25429,1758077926.46569,0.0,0.0,0.0,6.07335,11.22997,2.63561,9.47,0.18,0.23,4.0
1758077927.25704,1758077926.47569,0.0,0.0,0.0,5.95876,11.86023,1.08862,9.47,0.18,0.23,4.0
1758077927.2749,1758077926.48569,0.0,0.0,0.0,5.32851,12.37589,-0.17189,9.68,0.1,0.26,4.0
1758077927.27889,1758077926.49569,0.0,0.0,0.0,4.35448,12.204,-1.71887,9.68,0.1,0.26,4.0
1758077927.29581,1758077926.50569,0.0,0.0,0.0,3.66693,11.80293,-2.00535,9.92,-0.27,0.27,4.0
1758077927.29697,1758077926.51569,0.0,0.0,0.0,3.20856,11.11538,-1.83346,10.05,-0.63,0.13,4.0
1758077927.31589,1758077926.52569,0.0,0.0,0.0,2.86479,10.08406,-1.60428,10.05,-0.63,0.13,4.0
1758077927.32673,1758077926.53569,0.0,0.0,0.0,2.57831,10.31324,-0.22918,9.98,-0.89,-0.03,4.0
1758077927.33059,1758077926.54569,0.0,0.0,0.0,2.7502,10.94349,0.97403,9.98,-0.89,-0.03,4.0
1758077927.33576,1758077926.55569,0.0,0.0,0.0,3.03668,11.22997,2.06265,9.84,-0.98,0.04,4.0
1758077927.36638,1758077926.56569,0.0,0.0,0.0,3.83882,10.31324,3.32316,9.84,-0.98,0.04,4.0
1758077927.371,1758077926.57569,0.0,0.0,0.0,3.95341,13.46451,4.58366,9.46,-1.0,-0.09,4.0
1758077927.37158,1758077926.58569,0.0,0.0,0.0,4.18259,18.56383,5.4431,9.6,-0.89,-0.03,4.0
1758077927.38804,1758077926.59569,0.0,0.0,0.0,3.55234,27.10091,4.69825,9.6,-0.89,-0.03,4.0
1758077927.39091,1758077926.60568,0.0,0.0,0.0,3.09397,30.99702,4.29718,9.42,-0.64,0.13,4.0
1758077927.40599,1758077926.61568,0.0,0.0,0.0,2.92208,24.80907,3.20856,9.42,-0.64,0.13,4.0
1758077927.40713,1758077926.62568,0.0,0.0,0.0,3.26586,19.88164,2.6929,8.66,-0.32,0.28,4.0
1758077927.42289,1758077926.63568,0.0,0.0,0.0,3.60963,16.90226,2.46372,8.66,-0.32,0.28,4.0
1758077927.42637,1758077926.64568,0.0,0.0,0.0,4.23989,13.17803,2.29183,9.5,-0.2,-0.19,4.0
1758077927.44283,1758077926.65568,0.0,0.0,0.0,4.29718,3.55234,1.83346,9.42,-0.16,0.1,4.0
1758077927.44639,1758077926.66568,0.0,0.0,0.0,4.46907,-0.57296,1.83346,9.42,-0.16,0.1,4.0
1758077927.46297,1758077926.67568,0.0,0.0,0.0,4.35448,-4.58366,1.3751,9.69,-0.1,0.02,4.0
1758077927.4656,1758077926.68568,0.0,0.0,0.0,4.58366,-7.21927,0.51566,9.69,-0.1,0.02,4.0
1758077927.48108,1758077926.69568,0.0,0.0,0.0,5.90147,-3.95341,0.34377,10.03,-0.09,0.02,4.0
1758077927.49708,1758077926.70568,0.0,0.0,0.0,7.44845,-0.40107,0.74485,10.03,-0.09,0.02,4.0
1758077927.49904,1758077926.71568,0.0,0.0,0.0,9.39651,1.03132,1.3178,10.51,-0.33,0.41,4.0
1758077927.5148,1758077926.72568,0.0,0.0,0.0,12.08941,-0.68755,2.06265,10.51,-0.33,0.55,4.0
1758077927.51639,1758077926.73568,0.0,0.0,0.0,13.69369,-3.03668,2.34913,10.12,-0.57,0.55,4.0
1758077927.53109,1758077926.74568,0.0,0.0,0.0,15.12609,-4.92744,2.7502,9.99,-0.62,0.11,4.0
1758077927.54895,1758077926.75568,0.0,0.0,0.0,16.55848,-5.21392,2.97938,9.99,-0.62,0.11,4.0
1758077927.55064,1758077926.76568,0.0,0.0,0.0,17.53251,-4.64096,2.92208,10.15,-0.46,0.0,4.0
1758077927.56891,1758077926.77568,0.0,0.0,0.0,17.24603,-4.64096,2.34913,10.15,-0.46,0.0,4.0
1758077927.57067,1758077926.78568,0.0,0.0,0.0,16.55848,-4.18259,1.43239,10.02,-0.07,0.06,4.0
1758077927.5863,1758077926.79568,0.0,0.0,0.0,15.46986,-3.49504,0.68755,10.02,-0.07,0.06,4.0
1758077927.58839,1758077926.80568,0.0,0.0,0.0,13.5791,-2.63561,-0.74485,9.86,0.25,0.33,4.0
1758077927.60489,1758077926.81568,0.0,0.0,0.0,12.37589,-2.34913,-1.77617,9.53,0.38,0.52,4.0
1758077927.60592,1758077926.82568,0.0,0.0,0.0,11.00079,-2.63561,-2.6929,9.53,0.38,0.52,4.0
1758077927.62123,1758077926.83568,0.0,0.0,0.0,9.62569,-2.63561,-3.66693,9.16,0.28,0.6,4.0
1758077927.63734,1758077926.84568,0.0,0.0,0.0,8.136,-2.97938,-4.98473,9.16,0.28,0.6,4.0
1758077927.6407,1758077926.85568,0.0,0.0,0.0,7.50575,-2.97938,-5.95876,8.93,-0.02,0.5,4.0
1758077927.65892,1758077926.86568,0.0,0.0,0.0,7.16197,-2.00535,-6.8182,8.93,-0.02,0.5,4.0
1758077927.6602,1758077926.87568,0.0,0.0,0.0,7.16197,-0.34377,-8.25059,8.93,-0.42,0.36,4.0
1758077927.67516,1758077926.88568,0.0,0.0,0.0,7.44845,2.34913,-8.88085,8.99,-0.76,0.26,4.0
1758077927.67635,1758077926.89568,0.0,0.0,0.0,8.0787,4.1253,-9.39651,8.99,-0.76,0.26,4.0
1758077927.69116,1758077926.90568,0.0,0.0,0.0,8.76626,5.95876,-9.74028,9.07,-0.89,0.18,4.0
1758077927.69645,1758077926.91568,0.0,0.0,0.0,9.74028,8.136,-10.59972,9.07,-0.89,0.18,4.0
1758077927.7142,1758077926.92568,0.0,0.0,0.0,10.59972,8.0787,-11.00079,9.13,-0.84,0.0,4.0
1758077927.71592,1758077926.93568,0.0,0.0,0.0,11.17268,7.62034,-11.63104,9.13,-0.84,0.0,4.0
1758077927.73021,1758077926.94568,0.0,0.0,0.0,11.57375,6.18794,-12.204,9.12,-0.73,0.0,4.0
1758077927.74646,1758077926.95568,0.0,0.0,0.0,11.97482,3.09397,-12.77696,9.07,-0.66,0.1,4.0
1758077927.74741,1758077926.96568,0.0,0.0,0.0,12.49048,-0.0573,-12.49048,9.07,-0.66,0.1,4.0
1758077927.76656,1758077926.97568,0.0,0.0,0.0,12.83425,-4.87014,-12.2613,8.69,-0.69,0.19,4.0
1758077927.76767,1758077926.98568,0.0,0.0,0.0,13.40721,-7.62034,-11.80293,8.69,-0.69,0.19,4.0
1758077927.78254,1758077926.99568,0.0,0.0,0.0,14.03747,-8.30789,-11.00079,8.69,-0.79,0.17,4.0
1758077927.78581,1758077927.00568,0.0,0.0,0.0,15.06879,-8.36518,-10.25595,8.69,-0.79,0.17,4.0
1758077927.80137,1758077927.01568,0.0,0.0,0.0,16.272,-8.88085,-9.4538,8.6,-0.92,0.25,4.0
1758077927.8183,1758077927.02568,0.0,0.0,0.0,17.53251,-9.33921,-8.99544,8.6,-0.92,0.25,4.0
1758077927.81922,1758077927.03568,0.0,0.0,0.0,19.53786,-8.93814,-8.93814,8.43,-0.94,0.38,4.0
1758077927.83454,1758077927.04568,0.0,0.0,0.0,20.85567,-8.65166,-9.28192,8.44,-0.87,0.2,4.0
1758077927.83669,1758077927.05568,0.0,0.0,0.0,22.23076,-7.96411,-9.68299,8.44,-0.87,0.2,4.0
1758077927.91649,1758077927.06568,0.0,0.0,0.0,23.37668,-6.70361,-10.19865,8.25,-0.7,-0.17,4.0
1758077927.91896,1758077927.07568,0.0,0.0,0.0,24.86637,-4.58366,-10.59972,8.25,-0.7,-0.17,4.0
1758077927.91962,1758077927.08568,0.0,0.0,0.0,25.38203,-3.83882,-10.71431,7.97,-0.54,-0.53,4.0
1758077927.92099,1758077927.09568,0.0,0.0,0.0,25.61122,-3.72423,-11.11538,7.97,-0.54,-0.53,4.0
1758077927.92147,1758077927.10568,0.0,0.0,0.0,25.55392,-3.95341,-11.28727,7.7,-0.44,-0.63,4.0
1758077927.92273,1758077927.11568,0.0,0.0,0.0,25.26744,-4.0107,-11.22997,7.62,-0.42,-0.49,4.0
1758077927.92532,1758077927.12568,0.0,0.0,0.0,25.21014,-4.29718,-10.71431,7.62,-0.42,-0.49,4.0
1758077927.92568,1758077927.13568,0.0,0.0,0.0,24.80907,-5.21392,-10.19865,7.38,-0.38,-0.31,4.0
1758077927.92681,1758077927.14568,0.0,0.0,0.0,23.83505,-8.02141,-9.05273,7.38,-0.38,-0.31,4.0
1758077927.94603,1758077927.15568,0.0,0.0,0.0,22.68913,-10.94349,-8.136,6.73,-0.31,-0.15,4.0
1758077927.94888,1758077927.16568,0.0,0.0,0.0,21.94428,-14.66772,-7.50575,6.73,-0.31,-0.15,4.0
1758077927.97051,1758077927.17568,0.0,0.0,0.0,21.25674,-18.22006,-6.7609,6.1,-0.37,0.12,4.0
1758077927.97201,1758077927.18568,0.0,0.0,0.0,20.3973,-25.21014,-4.81285,6.33,-0.36,0.89,4.0
1758077927.98851,1758077927.19568,0.0,0.0,0.0,20.05352,-32.14294,-2.97938,6.33,-0.36,0.89,4.0
1758077927.99011,1758077927.20568,0.0,0.0,0.0,19.07949,-33.68992,-1.20321,8.32,-0.06,1.69,4.0
1758077928.00556,1758077927.21568,0.0,0.0,0.0,17.24603,-30.30947,-0.74485,8.32,-0.06,1.69,4.0
1758077928.00656,1758077927.22568,0.0,0.0,0.0,14.78231,-24.75178,0.17189,11.5,0.49,2.6,4.0
1758077928.02157,1758077927.23568,0.0,0.0,0.0,13.80828,-21.14215,0.85944,11.5,0.49,2.6,4.0
1758077928.02334,1758077927.24568,0.0,0.0,0.0,12.60507,-13.5791,2.11994,13.0,1.09,2.72,4.0
1758077928.04065,1758077927.25568,0.0,0.0,0.0,10.8862,2.06265,6.99009,13.0,1.09,2.72,4.0
1758077928.05667,1758077927.26568,0.0,0.0,0.0,1.20321,29.62192,24.57989,20.18,2.18,5.64,4.0
1758077928.05787,1758077927.27568,0.0,0.0,0.0,-10.94349,24.29341,30.76784,26.56,5.36,2.63,4.0
1758077928.07371,1758077927.28568,0.0,0.0,0.0,-10.25595,-41.71133,38.84654,26.56,5.36,2.63,4.0
1758077928.07458,1758077927.29568,0.0,0.0,0.0,-17.18874,-53.17049,28.36141,15.06,3.83,-1.76,4.0
1758077928.09044,1758077927.30568,0.0,0.0,0.0,-17.24603,-1.20321,28.70519,15.06,3.83,-1.76,4.0
1758077928.10645,1758077927.31568,0.0,0.0,0.0,-20.3973,42.74266,15.12609,17.18,-0.29,-2.6,4.0
1758077928.10761,1758077927.32568,0.0,0.0,0.0,-19.59516,35.98175,6.13065,17.18,-0.29,-2.6,4.0
1758077928.1227,1758077927.33568,0.0,0.0,0.0,-16.95955,11.80293,-7.39116,7.99,-0.66,3.25,4.0
1758077928.12521,1758077927.34568,0.0,0.0,0.0,-12.54778,11.51645,-13.75099,10.66,0.12,1.13,4.0
1758077928.14175,1758077927.35568,0.0,0.0,0.0,-5.27121,10.8289,-16.73037,10.66,0.12,1.13,4.0
1758077928.14614,1758077927.36568,0.0,0.0,0.0,2.92208,9.5684,-18.22006,11.86,0.04,-0.53,4.0
1758077928.18848,1758077927.37568,0.0,0.0,0.0,9.05273,10.8289,-13.80828,11.86,0.04,-0.53,4.0
1758077928.19819,1758077927.38568,0.0,0.0,0.0,9.05273,20.22541,-10.31324,12.44,-0.33,0.9,4.0
1758077928.21713,1758077927.39568,0.0,0.0,0.0,4.87014,27.67386,-10.8862,12.44,-0.33,0.9,4.0
1758077928.21961,1758077927.40568,0.0,0.0,0.0,-0.45837,28.87707,-13.98017,12.88,0.76,1.07,4.0
1758077928.22025,1758077927.41568,0.0,0.0,0.0,-2.40642,18.79302,-13.80828,9.95,0.96,1.08,4.0
1758077928.22146,1758077927.42568,0.0,0.0,0.0,-0.74485,13.06344,-11.34457,9.95,0.96,1.08,4.0
1758077928.22239,1758077927.43568,0.0,0.0,0.0,2.00535,6.70361,-7.96411,8.45,0.71,-0.42,4.0
1758077928.23778,1758077927.44568,0.0,0.0,0.0,3.89611,1.66158,-5.95876,8.45,0.71,-0.42,4.0
1758077928.24002,1758077927.45568,0.0,0.0,0.0,7.67763,4.1253,-3.20856,8.7,0.74,0.38,4.0
1758077928.25477,1758077927.46568,0.0,0.0,0.0,10.59972,8.136,-1.03132,8.7,0.74,0.38,4.0
1758077928.25572,1758077927.47568,0.0,0.0,0.0,13.5791,12.14671,1.3751,9.47,0.54,0.44,4.0
1758077928.27083,1758077927.48568,0.0,0.0,0.0,17.18874,14.15206,4.87014,9.47,0.54,0.44,4.0
1758077928.28656,1758077927.49568,0.0,0.0,0.0,20.68378,12.2613,6.13065,9.77,0.02,0.77,4.0
1758077928.28774,1758077927.50568,0.0,0.0,0.0,22.11617,9.05273,6.58902,9.35,-0.24,0.37,4.0
1758077928.3026,1758077927.51568,0.0,0.0,0.0,23.0902,5.84417,6.8182,9.35,-0.24,0.37,4.0
1758077928.30374,1758077927.52568,0.0,0.0,0.0,23.26209,2.6929,6.41713,9.09,-0.1,-0.05,4.0
1758077928.3223,1758077927.53568,0.0,0.0,0.0,22.57454,1.14592,5.90147,9.09,-0.1,-0.05,4.0
1758077928.32589,1758077927.54568,0.0,0.0,0.0,21.48592,-0.57296,5.55769,8.93,0.27,-0.08,4.0
1758077928.34161,1758077927.55568,0.0,0.0,0.0,20.11082,-2.63561,5.27121,8.93,0.27,-0.08,4.0
1758077928.34383,1758077927.56568,0.0,0.0,0.0,17.87628,-5.27121,4.98473,8.75,0.68,-0.04,4.0
1758077928.3609,1758077927.57568,0.0,0.0,0.0,16.10011,-6.53172,4.98473,8.71,1.01,-0.17,4.0
1758077928.37689,1758077927.58568,0.0,0.0,0.0,14.43854,-7.79223,4.87014,8.71,1.01,-0.17,4.0
1758077928.37967,1758077927.59568,0.0,0.0,0.0,12.89155,-9.96947,4.69825,8.54,1.12,-0.25,4.0
1758077928.3954,1758077927.60568,0.0,0.0,0.0,10.54242,-13.12073,4.29718,8.54,1.12,-0.25,4.0
1758077928.40009,1758077927.61568,0.0,0.0,0.0,9.39651,-14.78231,4.29718,8.53,1.01,-0.45,4.0
1758077928.45682,1758077927.62568,0.0,0.0,0.0,8.47978,-15.64175,4.29718,8.53,1.01,-0.45,4.0
1758077928.4612,1758077927.63568,0.0,0.0,0.0,8.02141,-16.90226,4.58366,8.78,0.76,-0.45,4.0
1758077928.46506,1758077927.64568,0.0,0.0,0.0,8.02141,-19.76705,4.81285,8.93,0.46,-0.54,4.0
1758077928.46592,1758077927.65568,0.0,0.0,0.0,8.42248,-21.37133,4.81285,8.93,0.46,-0.54,4.0
1758077928.46678,1758077927.66568,0.0,0.0,0.0,9.4538,-21.88699,4.87014,9.33,0.22,-0.59,4.0
1758077928.46807,1758077927.67568,0.0,0.0,0.0,10.8289,-22.00158,4.98473,9.33,0.22,-0.59,4.0
1758077928.46842,1758077927.68568,0.0,0.0,0.0,13.80828,-21.08485,5.55769,9.67,0.0,-0.69,4.0
1758077928.48871,1758077927.69568,0.0,0.0,0.0,16.10011,-19.82434,6.18794,9.67,0.0,-0.69,4.0
1758077928.48905,1758077927.70568,0.0,0.0,0.0,18.73572,-18.33465,7.21927,9.93,-0.21,-0.82,4.0
1758077928.49647,1758077927.71568,0.0,0.0,0.0,22.63183,-17.36062,8.88085,9.93,-0.21,-0.82,4.0
1758077928.51268,1758077927.72568,0.0,0.0,0.0,25.09555,-17.30333,9.68299,9.9,-0.3,-0.89,4.0
1758077928.51384,1758077927.73568,0.0,0.0,0.0,27.33009,-17.24603,10.19865,9.83,-0.25,-0.9,4.0
1758077928.53125,1758077927.74568,0.0,0.0,0.0,29.10626,-16.90226,10.59972,9.83,-0.25,-0.9,4.0
1758077928.54674,1758077927.75568,0.0,0.0,0.0,31.16891,-15.24068,10.31324,9.79,-0.04,-0.92,4.0
1758077928.54819,1758077927.76568,0.0,0.0,0.0,31.97105,-13.69369,9.85487,9.79,-0.04,-0.92,4.0
1758077928.56556,1758077927.77568,0.0,0.0,0.0,32.71589,-12.77696,9.22462,9.78,0.24,-0.84,4.0
1758077928.56653,1758077927.78568,0.0,0.0,0.0,33.00237,-12.49048,8.65166,9.78,0.24,-0.84,4.0
1758077928.58198,1758077927.79568,0.0,0.0,0.0,33.34615,-11.17268,8.0787,9.61,0.54,-0.76,4.0
1758077928.59774,1758077927.80568,0.0,0.0,0.0,33.11696,-9.74028,7.79223,9.55,0.74,-0.7,4.0
1758077928.59946,1758077927.81568,0.0,0.0,0.0,32.71589,-8.47978,7.62034,9.55,0.74,-0.7,4.0
1758077928.61466,1758077927.82568,0.0,0.0,0.0,32.20023,-7.44845,7.39116,9.35,0.84,-0.66,4.0
1758077928.61592,1758077927.83568,0.0,0.0,0.0,31.2262,-5.27121,6.7609,9.35,0.84,-0.66,4.0
1758077928.63075,1758077927.84568,0.0,0.0,0.0,30.59595,-4.0107,6.53172,9.13,0.87,-0.66,4.0
1758077928.64774,1758077927.85568,0.0,0.0,0.0,30.02299,-2.97938,6.53172,9.13,0.87,-0.66,4.0
1758077928.65024,1758077927.86568,0.0,0.0,0.0,29.39274,-2.11994,6.70361,8.9,0.86,-0.72,4.0
1758077928.66801,1758077927.87568,0.0,0.0,0.0,28.87707,-0.11459,7.73493,8.96,0.85,-0.86,4.0
1758077928.66841,1758077927.88568,0.0,0.0,0.0,28.41871,1.08862,8.59437,8.96,0.85,-0.86,4.0
1758077928.68561,1758077927.89568,0.0,0.0,0.0,28.41871,1.60428,9.5684,9.12,0.79,-1.01,4.0
1758077928.68656,1758077927.90568,0.0,0.0,0.0,28.70519,1.71887,10.65701,9.12,0.79,-1.01,4.0
1758077928.70207,1758077927.91568,0.0,0.0,0.0,29.67921,2.00535,11.63104,9.27,0.68,-1.22,4.0
1758077928.70539,1758077927.92568,0.0,0.0,0.0,30.59595,2.46372,12.2613,9.27,0.68,-1.22,4.0
1758077928.72079,1758077927.93568,0.0,0.0,0.0,31.45539,2.97938,12.37589,9.47,0.61,-1.37,4.0
1758077928.72289,1758077927.94568,0.0,0.0,0.0,32.77319,3.03668,12.43318,9.47,0.61,-1.37,4.0
1758077928.73915,1758077927.95568,0.0,0.0,0.0,33.86181,1.83346,12.14671,9.44,0.58,-1.47,4.0
1758077928.75496,1758077927.96568,0.0,0.0,0.0,34.89313,0.17189,11.45916,8.99,0.59,-1.58,4.0
1758077928.75599,1758077927.97568,0.0,0.0,0.0,36.21093,-2.11994,10.65701,8.99,0.59,-1.58,4.0
1758077928.7708,1758077927.98568,0.0,0.0,0.0,37.98711,-6.99009,9.4538,8.48,0.67,-1.55,4.0
1758077928.77392,1758077927.99568,0.0,0.0,0.0,39.07573,-9.91217,8.99544,8.48,0.67,-1.55,4.0
1758077928.79089,1758077928.00568,0.0,0.0,0.0,39.87786,-11.91752,8.70896,8.29,0.76,-1.56,4.0
1758077928.79208,1758077928.01568,0.0,0.0,0.0,40.62271,-13.40721,8.88085,8.29,0.76,-1.56,4.0
1758077928.80742,1758077928.02568,0.0,0.0,0.0,41.36755,-14.9542,9.74028,8.33,0.76,-1.56,4.0
1758077928.82407,1758077928.03568,0.0,0.0,0.0,42.34158,-16.272,10.65701,7.97,0.71,-1.56,4.0
1758077928.82584,1758077928.04568,0.0,0.0,0.0,43.25832,-18.44924,11.51645,7.97,0.71,-1.56,4.0
