timeStamp,timeStampAlign,roll,pitch,yaw,gyro_x,gyro_y,gyro_z,acc_x,acc_y,acc_z,flag_num
1758076152.2974,1758076152.24109,0.0,0.0,0.0,-44.86259,-53.05589,-25.38203,8.9,0.98,2.14,3.0
1758076152.29863,1758076152.25109,0.0,0.0,0.0,-51.27972,-53.34238,-23.20479,8.9,0.98,2.14,3.0
1758076152.31334,1758076152.26109,0.0,0.0,0.0,-56.83742,-50.99325,-22.91831,8.8,1.39,3.12,3.0
1758076152.32941,1758076152.27109,0.0,0.0,0.0,-67.03606,-41.76862,-25.7831,8.8,1.39,3.12,3.0
1758076152.33124,1758076152.28109,0.0,0.0,0.0,-74.31263,-35.2942,-28.76248,10.18,1.28,3.41,3.0
1758076152.34562,1758076152.29109,0.0,0.0,0.0,-81.24542,-30.02299,-31.45539,10.18,1.28,3.41,3.0
1758076152.34664,1758076152.30109,0.0,0.0,0.0,-86.45934,-24.98096,-32.42941,10.84,1.0,2.01,3.0
1758076152.36148,1758076152.31109,0.0,0.0,0.0,-89.43871,-13.06344,-28.64789,12.04,0.29,0.79,3.0
1758076152.37749,1758076152.32109,0.0,0.0,0.0,-88.29281,-2.11994,-23.20479,12.04,0.29,0.79,3.0
1758076152.37866,1758076152.33109,0.0,0.0,0.0,-85.02695,9.28192,-16.61578,12.76,-0.57,-0.06,3.0
1758076152.3937,1758076152.34109,0.0,0.0,0.0,-80.38599,19.53786,-8.99544,12.76,-0.57,-0.06,3.0
1758076152.40969,1758076152.35109,0.0,0.0,0.0,-72.13539,29.9084,1.83346,11.58,-1.2,0.09,3.0
1758076152.41091,1758076152.36109,0.0,0.0,0.0,-66.46311,36.15364,7.79223,11.58,-1.2,0.09,3.0
1758076152.42546,1758076152.37109,0.0,0.0,0.0,-61.07731,42.05511,12.08941,10.43,-1.58,0.16,3.0
1758076152.42748,1758076152.38109,0.0,0.0,0.0,-56.20716,47.26902,14.9542,10.43,-1.58,0.16,3.0
1758076152.44279,1758076152.39109,0.0,0.0,0.0,-49.38896,53.91533,16.90226,9.9,-1.8,0.33,3.0
1758076152.45847,1758076152.40109,0.0,0.0,0.0,-44.8053,56.66553,16.95955,9.45,-1.84,0.43,3.0
1758076152.45967,1758076152.41109,0.0,0.0,0.0,-40.7373,58.3844,16.10011,9.45,-1.84,0.43,3.0
1758076152.47441,1758076152.42109,0.0,0.0,0.0,-35.75257,58.55629,13.23533,9.01,-1.64,0.39,3.0
1758076152.47565,1758076152.43109,0.0,0.0,0.0,-33.51803,59.41573,10.31324,9.01,-1.64,0.39,3.0
1758076152.4927,1758076152.44109,0.0,0.0,0.0,-31.79916,58.49899,7.67763,8.67,-1.18,0.53,3.0
1758076152.50848,1758076152.45109,0.0,0.0,0.0,-30.13758,55.23313,5.32851,8.67,-1.18,0.53,3.0
1758076152.50969,1758076152.46109,0.0,0.0,0.0,-27.04361,49.90463,2.92208,7.91,-0.77,0.72,3.0
1758076152.52449,1758076152.47109,0.0,0.0,0.0,-24.29341,46.1231,2.57831,7.74,-0.6,0.9,3.0
1758076152.52569,1758076152.48109,0.0,0.0,0.0,-21.42862,40.50812,3.09397,7.74,-0.6,0.9,3.0
1758076152.5418,1758076152.49109,0.0,0.0,0.0,-17.93358,34.0337,4.18259,7.44,-0.69,0.83,3.0
1758076152.55852,1758076152.50109,0.0,0.0,0.0,-11.51645,25.89769,5.95876,7.44,-0.69,0.83,3.0
1758076152.55969,1758076152.51109,0.0,0.0,0.0,-6.58902,24.23611,6.53172,7.78,-0.98,0.69,3.0
1758076152.57486,1758076152.52109,0.0,0.0,0.0,-1.66158,24.17882,6.87549,7.78,-0.98,0.69,3.0
1758076152.57572,1758076152.53109,0.0,0.0,0.0,3.26586,23.26209,6.58902,8.38,-1.36,0.7,3.0
1758076152.59275,1758076152.54109,0.0,0.0,0.0,10.71431,17.81899,5.15662,8.31,-1.74,0.86,3.0
1758076152.60852,1758076152.55109,0.0,0.0,0.0,16.10011,11.51645,3.55234,8.31,-1.74,0.86,3.0
1758076152.60971,1758076152.56109,0.0,0.0,0.0,21.42862,2.46372,1.83346,8.16,-2.0,0.52,3.0
1758076152.62457,1758076152.57109,0.0,0.0,0.0,26.18417,-10.8289,-0.22918,8.16,-2.0,0.52,3.0
1758076152.62566,1758076152.58109,0.0,0.0,0.0,31.45539,-29.27814,-4.18259,7.92,-1.93,-0.06,3.0
1758076152.64156,1758076152.59109,0.0,0.0,0.0,36.15364,-24.75178,-6.8182,7.92,-1.93,-0.06,3.0
1758076152.6576,1758076152.60109,0.0,0.0,0.0,40.85189,-15.75634,-6.24524,10.31,-1.69,0.02,3.0
1758076152.65869,1758076152.61109,0.0,0.0,0.0,45.14908,-1.20321,-5.50039,10.31,-1.69,0.02,3.0
1758076152.67355,1758076152.62109,0.0,0.0,0.0,49.21708,22.97561,-5.61499,12.55,-1.23,1.01,3.0
1758076152.68952,1758076152.63109,0.0,0.0,0.0,53.17049,11.97482,-7.50575,11.28,-0.5,1.52,3.0
1758076152.69074,1758076152.64109,0.0,0.0,0.0,55.57691,-23.94964,-6.24524,11.28,-0.5,1.52,3.0
1758076152.70562,1758076152.65109,0.0,0.0,0.0,64.11398,-68.29657,1.43239,8.23,-0.16,-0.35,3.0
1758076152.70702,1758076152.66109,0.0,0.0,0.0,66.00475,-62.79618,4.58366,8.23,-0.16,-0.35,3.0
1758076152.7216,1758076152.67109,0.0,0.0,0.0,68.06739,-48.64412,5.72958,13.14,-0.29,-0.63,3.0
1758076152.73754,1758076152.68109,0.0,0.0,0.0,70.01544,-36.03905,8.93814,13.14,-0.29,-0.63,3.0
1758076152.7391,1758076152.69109,0.0,0.0,0.0,70.87489,-29.50733,9.91217,12.71,-0.44,-0.55,3.0
1758076152.7536,1758076152.70109,0.0,0.0,0.0,69.49979,-25.55392,10.31324,11.32,-0.61,0.82,3.0
1758076152.76981,1758076152.71109,0.0,0.0,0.0,67.03606,-20.85567,9.74028,11.32,-0.61,0.82,3.0
1758076152.77088,1758076152.72109,0.0,0.0,0.0,63.8275,-17.30333,8.47978,11.54,-0.13,1.16,3.0
1758076152.78563,1758076152.73109,0.0,0.0,0.0,57.23849,-18.44924,8.30789,11.54,-0.13,1.16,3.0
1758076152.78684,1758076152.74109,0.0,0.0,0.0,52.25375,-27.61657,10.31324,11.52,0.77,1.97,3.0
1758076152.80185,1758076152.75109,0.0,0.0,0.0,47.72739,-37.29956,14.78231,11.52,0.77,1.97,3.0
1758076152.81764,1758076152.76109,0.0,0.0,0.0,43.65939,-41.59674,20.97026,11.4,1.3,2.46,3.0
1758076152.81886,1758076152.77109,0.0,0.0,0.0,37.01308,-41.25296,29.62192,11.53,1.37,2.93,3.0
1758076152.8339,1758076152.78109,0.0,0.0,0.0,32.54401,-41.36755,34.72124,11.53,1.37,2.93,3.0
1758076152.84985,1758076152.79109,0.0,0.0,0.0,29.33544,-39.76327,39.3622,10.38,1.1,3.88,3.0
1758076152.85084,1758076152.80109,0.0,0.0,0.0,27.1582,-35.00772,41.48215,10.38,1.1,3.88,3.0
1758076152.86672,1758076152.81109,0.0,0.0,0.0,25.55392,-24.98096,40.27893,9.1,0.73,3.24,3.0
1758076152.86796,1758076152.82109,0.0,0.0,0.0,25.26744,-18.27736,37.35685,9.1,0.73,3.24,3.0
1758076152.88284,1758076152.83109,0.0,0.0,0.0,25.72581,-12.204,32.48671,8.55,0.34,3.76,3.0
1758076152.8986,1758076152.84109,0.0,0.0,0.0,26.64254,-7.44845,22.97561,8.55,0.34,3.76,3.0
1758076152.89983,1758076152.85109,0.0,0.0,0.0,26.18417,0.40107,16.272,9.61,0.38,3.64,3.0
1758076152.91662,1758076152.86109,0.0,0.0,0.0,24.17882,8.25059,9.91217,11.68,0.62,2.61,3.0
1758076152.91788,1758076152.87109,0.0,0.0,0.0,21.02755,15.69904,5.4431,11.68,0.62,2.61,3.0
1758076152.93347,1758076152.88109,0.0,0.0,0.0,14.15206,25.26744,0.51566,12.53,0.96,1.94,3.0
1758076152.94966,1758076152.89109,0.0,0.0,0.0,9.22462,30.82513,-0.80214,12.53,0.96,1.94,3.0
1758076152.95087,1758076152.90109,0.0,0.0,0.0,4.64096,35.58068,-2.11994,11.78,1.32,1.99,3.0
1758076152.96668,1758076152.91109,0.0,0.0,0.0,0.68755,40.7946,-3.03668,11.78,1.32,1.99,3.0
1758076152.96768,1758076152.92109,0.0,0.0,0.0,-3.95341,47.26902,-5.61499,10.63,1.34,1.94,3.0
1758076152.9837,1758076152.93109,0.0,0.0,0.0,-6.41713,49.33167,-7.04738,9.55,1.25,2.02,3.0
1758076152.99993,1758076152.94109,0.0,0.0,0.0,-8.59437,49.96192,-8.30789,9.55,1.25,2.02,3.0
1758076153.00087,1758076152.95109,0.0,0.0,0.0,-10.94349,52.02457,-9.68299,8.86,1.2,2.01,3.0
1758076153.01598,1758076152.96109,0.0,0.0,0.0,-14.09476,55.40502,-12.204,8.86,1.2,2.01,3.0
1758076153.01692,1758076152.97109,0.0,0.0,0.0,-15.58445,54.48829,-11.97482,8.55,1.23,2.09,3.0
1758076153.03178,1758076152.98109,0.0,0.0,0.0,-18.10547,50.93595,-11.80293,8.55,1.23,2.09,3.0
1758076153.04765,1758076152.99109,0.0,0.0,0.0,-22.51724,46.75336,-12.204,7.89,1.22,2.23,3.0
1758076153.04879,1758076153.00109,0.0,0.0,0.0,-29.62192,42.74266,-11.57375,8.3,1.38,1.83,3.0
1758076153.06366,1758076153.01109,0.0,0.0,0.0,-34.26288,40.16434,-11.45916,8.3,1.38,1.83,3.0
1758076153.07967,1758076153.02109,0.0,0.0,0.0,-38.56006,35.92446,-11.80293,8.51,1.57,1.89,3.0
1758076153.08091,1758076153.03109,0.0,0.0,0.0,-42.51347,29.96569,-12.54778,8.51,1.57,1.89,3.0
1758076153.0978,1758076153.04109,0.0,0.0,0.0,-47.67009,17.93358,-13.23533,8.34,1.56,1.91,3.0
1758076153.09909,1758076153.05109,0.0,0.0,0.0,-50.363,8.30789,-13.86558,8.34,1.56,1.91,3.0
1758076153.11395,1758076153.06109,0.0,0.0,0.0,-53.51426,5.15662,-14.72501,8.31,1.28,1.63,3.0
1758076153.12966,1758076153.07109,0.0,0.0,0.0,-56.66553,1.83346,-15.0115,8.31,1.28,1.63,3.0
1758076153.13204,1758076153.08109,0.0,0.0,0.0,-58.3844,-1.71887,-15.29797,8.66,0.96,1.53,3.0
1758076153.1467,1758076153.09109,0.0,0.0,0.0,-59.64491,-6.7609,-15.0115,8.49,0.72,1.39,3.0
1758076153.14833,1758076153.10109,0.0,0.0,0.0,-60.67623,-11.45916,-15.06879,8.49,0.72,1.39,3.0
1758076153.16316,1758076153.11109,0.0,0.0,0.0,-61.42108,-18.33465,-15.29797,8.59,0.62,0.98,3.0
1758076153.19863,1758076153.12109,0.0,0.0,0.0,-61.59297,-22.57454,-15.41257,8.59,0.62,0.98,3.0
1758076153.19989,1758076153.13109,0.0,0.0,0.0,-61.1346,-28.01764,-15.87093,8.77,0.59,0.81,3.0
1758076153.20122,1758076153.14109,0.0,0.0,0.0,-60.27517,-36.84119,-15.41257,8.77,0.59,0.81,3.0
1758076153.20247,1758076153.15109,0.0,0.0,0.0,-57.81144,-48.8733,-14.20935,8.4,0.28,0.49,3.0
1758076153.21804,1758076153.16109,0.0,0.0,0.0,-55.34772,-52.25375,-13.75099,8.76,-0.11,0.33,3.0
1758076153.21891,1758076153.17109,0.0,0.0,0.0,-53.45696,-51.22243,-12.2613,8.76,-0.11,0.33,3.0
1758076153.23395,1758076153.18109,0.0,0.0,0.0,-52.13916,-39.76327,-9.68299,10.12,-0.46,0.28,3.0
1758076153.24995,1758076153.19109,0.0,0.0,0.0,-51.45161,-28.13223,-6.7609,10.12,-0.46,0.28,3.0
1758076153.25095,1758076153.20109,0.0,0.0,0.0,-54.88936,-27.73116,-7.16197,10.54,-0.21,0.55,3.0
1758076153.26567,1758076153.21109,0.0,0.0,0.0,-55.86338,-29.73651,-7.16197,10.54,-0.21,0.55,3.0
1758076153.26932,1758076153.22109,0.0,0.0,0.0,-58.21251,-37.18496,-9.39651,9.67,0.48,0.61,3.0
1758076153.2857,1758076153.23109,0.0,0.0,0.0,-60.50434,-28.70519,-11.45916,10.53,0.91,0.13,3.0
1758076153.28947,1758076153.24109,0.0,0.0,0.0,-61.07731,-14.72501,-11.17268,10.53,0.91,0.13,3.0
1758076153.30481,1758076153.25109,0.0,0.0,0.0,-60.90542,-3.26586,-9.33921,11.4,0.85,0.32,3.0
1758076153.30592,1758076153.26109,0.0,0.0,0.0,-59.01466,5.09932,-4.35448,11.4,0.85,0.32,3.0
1758076153.32378,1758076153.27109,0.0,0.0,0.0,-57.52497,10.19865,-1.03132,10.59,0.28,0.67,3.0
1758076153.34004,1758076153.28109,0.0,0.0,0.0,-55.6915,11.86023,2.06265,10.59,0.28,0.67,3.0
1758076153.34184,1758076153.29109,0.0,0.0,0.0,-54.08722,13.98017,4.87014,10.56,-0.31,0.48,3.0
1758076153.35701,1758076153.30109,0.0,0.0,0.0,-50.363,12.2613,8.70896,10.56,-0.31,0.48,3.0
1758076153.35872,1758076153.31109,0.0,0.0,0.0,-46.81066,6.35983,9.91217,10.85,-0.62,0.98,3.0
1758076153.37371,1758076153.32109,0.0,0.0,0.0,-42.22699,-2.34913,9.33921,11.04,-0.98,1.82,3.0
1758076153.39086,1758076153.33109,0.0,0.0,0.0,-36.89849,-13.5218,6.53172,11.04,-0.98,1.82,3.0
1758076153.39331,1758076153.34109,0.0,0.0,0.0,-28.76248,-34.09099,-1.83346,11.54,-1.33,2.84,3.0
1758076153.40898,1758076153.35109,0.0,0.0,0.0,-24.17882,-43.94586,-9.91217,11.54,-1.33,2.84,3.0
1758076153.41029,1758076153.36109,0.0,0.0,0.0,-20.11082,-46.35228,-16.90226,12.45,-1.48,3.11,3.0
1758076153.42471,1758076153.37109,0.0,0.0,0.0,-16.61578,-43.65939,-21.6578,12.45,-1.48,3.11,3.0
1758076153.42772,1758076153.38109,0.0,0.0,0.0,-13.12073,-40.33623,-22.68913,12.34,-1.47,2.26,3.0
1758076153.44402,1758076153.39109,0.0,0.0,0.0,-11.51645,-40.27893,-19.25138,9.77,-0.55,1.55,3.0
1758076153.44749,1758076153.40109,0.0,0.0,0.0,-11.11538,-42.28429,-14.49583,9.77,-0.55,1.55,3.0
1758076153.46267,1758076153.41109,0.0,0.0,0.0,-11.97482,-44.23235,-9.22462,8.14,0.58,1.63,3.0
1758076153.47902,1758076153.42109,0.0,0.0,0.0,-16.95955,-44.23235,-1.94806,8.14,0.58,1.63,3.0
1758076153.48083,1758076153.43109,0.0,0.0,0.0,-22.63183,-42.85724,0.97403,8.56,1.28,2.68,3.0
1758076153.49587,1758076153.44109,0.0,0.0,0.0,-29.9084,-39.4195,2.06265,8.56,1.28,2.68,3.0
1758076153.49775,1758076153.45109,0.0,0.0,0.0,-37.87251,-36.49741,0.57296,10.13,1.75,4.28,3.0
1758076153.513,1758076153.46109,0.0,0.0,0.0,-48.12846,-36.03905,-4.64096,10.88,1.77,4.13,3.0
1758076153.52878,1758076153.47109,0.0,0.0,0.0,-53.34238,-33.17426,-9.22462,10.88,1.77,4.13,3.0
1758076153.52999,1758076153.48109,0.0,0.0,0.0,-56.66553,-26.69983,-12.60507,11.59,0.91,2.8,3.0
1758076153.54576,1758076153.49109,0.0,0.0,0.0,-57.29578,-12.60507,-13.69369,11.59,0.91,2.8,3.0
1758076153.54696,1758076153.50109,0.0,0.0,0.0,-55.00395,-2.29183,-11.28727,11.89,-0.56,1.62,3.0
1758076153.56408,1758076153.51109,0.0,0.0,0.0,-51.10783,7.04738,-7.04738,11.89,-0.56,1.62,3.0
1758076153.57995,1758076153.52109,0.0,0.0,0.0,-45.77933,13.98017,-1.48969,11.37,-1.72,1.39,3.0
1758076153.58332,1758076153.53109,0.0,0.0,0.0,-36.55471,24.00693,8.70896,11.37,-1.72,1.41,3.0
1758076153.59885,1758076153.54109,0.0,0.0,0.0,-30.59595,29.67921,15.98552,10.76,-2.33,1.41,3.0
1758076153.60092,1758076153.55109,0.0,0.0,0.0,-25.43933,33.86181,22.05888,10.55,-2.56,1.29,3.0
1758076153.61609,1758076153.56109,0.0,0.0,0.0,-20.51189,36.03905,26.01229,10.55,-2.56,1.29,3.0
1758076153.6179,1758076153.57109,0.0,0.0,0.0,-14.32395,38.78925,27.50197,10.36,-2.25,1.32,3.0
1758076153.63289,1758076153.58109,0.0,0.0,0.0,-10.31324,40.10705,26.35606,10.36,-2.25,1.32,3.0
1758076153.6488,1758076153.59109,0.0,0.0,0.0,-6.53172,40.10705,23.94964,10.25,-1.81,1.29,3.0
1758076153.65121,1758076153.60109,0.0,0.0,0.0,-3.32316,39.19032,21.25674,10.25,-1.81,1.29,3.0
1758076153.66849,1758076153.61109,0.0,0.0,0.0,0.45837,36.03905,17.24603,9.79,-1.36,1.44,3.0
1758076153.66943,1758076153.62109,0.0,0.0,0.0,2.57831,35.12231,15.69904,9.42,-0.99,1.54,3.0
1758076153.68643,1758076153.63109,0.0,0.0,0.0,4.18259,35.58068,15.46986,9.42,-0.99,1.54,3.0
1758076153.68956,1758076153.64109,0.0,0.0,0.0,5.15662,35.12231,16.55848,9.16,-0.71,1.63,3.0
1758076153.70509,1758076153.65109,0.0,0.0,0.0,5.72958,33.17426,19.59516,9.16,-0.71,1.63,3.0
1758076153.70843,1758076153.66109,0.0,0.0,0.0,6.07335,31.85646,22.40265,8.8,-0.55,1.78,3.0
1758076153.72414,1758076153.67109,0.0,0.0,0.0,6.13065,31.51268,25.26744,8.8,-0.55,1.78,3.0
1758076153.72588,1758076153.68109,0.0,0.0,0.0,6.18794,31.51268,28.87707,8.98,-0.58,1.75,3.0
1758076153.74344,1758076153.69109,0.0,0.0,0.0,6.18794,35.52338,30.53865,9.47,-0.68,1.77,3.0
1758076153.75891,1758076153.70109,0.0,0.0,0.0,6.07335,40.7373,30.99702,9.47,-0.68,1.77,3.0
1758076153.76083,1758076153.71109,0.0,0.0,0.0,5.61499,46.40959,29.62192,9.84,-0.9,1.82,3.0
1758076153.7769,1758076153.72109,0.0,0.0,0.0,4.69825,50.87865,26.35606,9.84,-0.9,1.82,3.0
1758076153.7779,1758076153.73109,0.0,0.0,0.0,4.18259,50.64947,23.49127,9.42,-0.92,2.02,3.0
1758076153.79316,1758076153.74109,0.0,0.0,0.0,4.0107,43.94586,19.82434,9.42,-0.92,2.02,3.0
1758076153.80923,1758076153.75109,0.0,0.0,0.0,3.60963,24.00693,16.67307,8.19,-1.03,2.05,3.0
1758076153.81168,1758076153.76109,0.0,0.0,0.0,6.13065,26.69983,15.06879,8.96,-1.03,1.54,3.0
1758076153.82765,1758076153.77109,0.0,0.0,0.0,6.07335,32.25753,12.14671,8.96,-1.01,1.54,3.0
1758076153.83043,1758076153.78109,0.0,0.0,0.0,9.4538,27.84575,17.81899,10.04,-1.59,2.14,3.0
1758076153.84596,1758076153.79109,0.0,0.0,0.0,11.63104,27.2155,18.33465,10.04,-1.59,2.14,3.0
1758076153.84707,1758076153.80109,0.0,0.0,0.0,13.86558,20.34,22.00158,9.56,-1.87,2.03,3.0
1758076153.8619,1758076153.81109,0.0,0.0,0.0,14.09476,16.04282,22.28806,9.56,-1.87,2.03,3.0
1758076153.87887,1758076153.82109,0.0,0.0,0.0,13.5791,13.00614,20.16812,8.84,-1.72,1.67,3.0
1758076153.88089,1758076153.83109,0.0,0.0,0.0,13.40721,12.08941,17.53251,8.84,-1.72,1.67,3.0
1758076153.89772,1758076153.84109,0.0,0.0,0.0,13.17803,12.14671,12.2613,8.61,-1.27,1.33,3.0
1758076153.89866,1758076153.85109,0.0,0.0,0.0,13.17803,10.54242,8.76626,8.63,-0.87,1.81,3.0
1758076153.91399,1758076153.86109,0.0,0.0,0.0,13.46451,9.05273,6.13065,8.63,-0.87,1.81,3.0
1758076153.93001,1758076153.87109,0.0,0.0,0.0,13.5791,8.0787,3.66693,9.11,-0.8,2.18,3.0
1758076153.93309,1758076153.88109,0.0,0.0,0.0,13.80828,5.84417,0.97403,9.11,-0.8,2.18,3.0
1758076153.94818,1758076153.89109,0.0,0.0,0.0,14.38124,4.69825,-0.11459,9.32,-0.98,2.19,3.0
1758076153.94913,1758076153.90109,0.0,0.0,0.0,15.0115,4.0107,-0.51566,9.32,-0.98,2.19,3.0
1758076153.96417,1758076153.91109,0.0,0.0,0.0,16.04282,3.60963,0.0573,9.61,-1.28,2.18,3.0
1758076153.97996,1758076153.92109,0.0,0.0,0.0,17.18874,2.29183,1.14592,9.78,-1.54,2.32,3.0
1758076153.9811,1758076153.93109,0.0,0.0,0.0,18.16276,-0.0573,3.03668,9.78,-1.54,2.32,3.0
1758076153.99586,1758076153.94109,0.0,0.0,0.0,19.13679,-4.0107,5.21392,9.78,-1.67,2.64,3.0
1758076153.99708,1758076153.95109,0.0,0.0,0.0,19.53786,-12.43318,8.93814,9.78,-1.67,2.64,3.0
1758076154.01217,1758076153.96109,0.0,0.0,0.0,20.22541,-12.54778,12.89155,9.88,-1.53,2.82,3.0
1758076154.02795,1758076153.97109,0.0,0.0,0.0,19.88164,-4.64096,15.41257,9.88,-1.53,2.82,3.0
1758076154.02906,1758076153.98109,0.0,0.0,0.0,19.36597,5.32851,16.38659,10.86,-1.21,2.49,3.0
1758076154.04395,1758076153.99109,0.0,0.0,0.0,18.50654,10.02676,15.35527,9.68,-0.71,2.35,3.0
1758076154.06018,1758076154.00109,0.0,0.0,0.0,17.30333,7.84952,13.98017,9.68,-0.71,2.35,3.0
1758076154.06112,1758076154.01109,0.0,0.0,0.0,15.58445,6.35983,12.2613,9.09,-0.25,2.31,3.0
1758076154.07608,1758076154.02109,0.0,0.0,0.0,13.5218,6.18794,10.37054,9.09,-0.25,2.31,3.0
1758076154.07718,1758076154.03109,0.0,0.0,0.0,9.85487,7.33386,7.79223,9.63,-0.16,2.26,3.0
1758076154.09197,1758076154.04109,0.0,0.0,0.0,7.39116,8.30789,6.18794,9.63,-0.16,2.26,3.0
1758076154.10783,1758076154.05109,0.0,0.0,0.0,5.15662,9.11003,4.87014,9.81,-0.43,2.39,3.0
1758076154.10906,1758076154.06109,0.0,0.0,0.0,3.09397,9.62569,3.83882,9.81,-0.43,2.39,3.0
1758076154.12438,1758076154.07109,0.0,0.0,0.0,1.08862,9.74028,2.63561,9.68,-0.8,2.3,3.0
1758076154.14027,1758076154.08109,0.0,0.0,0.0,0.51566,9.85487,2.11994,9.59,-1.16,2.22,3.0
1758076154.1411,1758076154.09109,0.0,0.0,0.0,0.45837,9.22462,2.23454,9.59,-1.16,2.22,3.0
1758076154.15623,1758076154.10109,0.0,0.0,0.0,0.51566,8.42248,1.83346,9.66,-1.37,2.31,3.0
1758076154.15717,1758076154.11109,0.0,0.0,0.0,0.85944,8.99544,1.83346,9.66,-1.37,2.31,3.0
1758076154.17225,1758076154.12109,0.0,0.0,0.0,0.80214,10.25595,1.83346,9.91,-1.4,2.27,3.0
1758076154.18898,1758076154.13109,0.0,0.0,0.0,0.80214,11.86023,1.3178,9.91,-1.4,2.27,3.0
1758076154.19016,1758076154.14109,0.0,0.0,0.0,0.57296,10.71431,0.57296,9.86,-1.17,2.31,3.0
1758076154.20524,1758076154.15109,0.0,0.0,0.0,-0.0573,10.19865,0.51566,9.53,-1.01,2.02,3.0
1758076154.20619,1758076154.16109,0.0,0.0,0.0,-1.03132,10.37054,0.45837,9.53,-1.01,2.02,3.0
1758076154.22308,1758076154.17109,0.0,0.0,0.0,-2.23454,10.59972,0.80214,9.52,-0.92,2.08,3.0
1758076154.23896,1758076154.18109,0.0,0.0,0.0,-4.52637,10.8862,0.97403,9.52,-0.92,2.08,3.0
1758076154.24016,1758076154.19109,0.0,0.0,0.0,-5.90147,11.11538,0.85944,9.44,-0.86,2.0,3.0
1758076154.25492,1758076154.20109,0.0,0.0,0.0,-7.50575,11.28727,0.40107,9.44,-0.86,2.0,3.0
1758076154.25617,1758076154.21109,0.0,0.0,0.0,-8.59437,11.17268,-0.57296,9.45,-0.85,1.99,3.0
1758076154.27234,1758076154.22109,0.0,0.0,0.0,-9.91217,10.54242,-2.86479,9.41,-0.88,1.86,3.0
1758076154.28927,1758076154.23109,0.0,0.0,0.0,-10.31324,9.62569,-4.81285,9.41,-0.88,1.86,3.0
1758076154.29016,1758076154.24109,0.0,0.0,0.0,-10.8862,9.33921,-6.35983,9.45,-0.96,1.85,3.0
1758076154.30527,1758076154.25109,0.0,0.0,0.0,-11.00079,9.68299,-7.96411,9.45,-0.96,1.85,3.0
1758076154.3062,1758076154.26109,0.0,0.0,0.0,-10.8862,9.68299,-9.91217,9.58,-1.15,1.87,3.0
1758076154.32203,1758076154.27109,0.0,0.0,0.0,-10.71431,9.74028,-10.65701,9.58,-1.15,1.87,3.0
1758076154.33801,1758076154.28109,0.0,0.0,0.0,-10.25595,9.5684,-11.51645,9.59,-1.34,1.92,3.0
1758076154.33926,1758076154.29109,0.0,0.0,0.0,-9.91217,9.68299,-11.97482,9.59,-1.34,1.92,3.0
1758076154.35397,1758076154.30109,0.0,0.0,0.0,-8.76626,9.96947,-12.2613,9.66,-1.49,1.96,3.0
1758076154.37005,1758076154.31109,0.0,0.0,0.0,-8.0787,10.37054,-12.2613,9.76,-1.56,2.09,3.0
1758076154.37124,1758076154.32109,0.0,0.0,0.0,-7.39116,10.8862,-12.2613,9.76,-1.56,2.09,3.0
1758076154.38603,1758076154.33109,0.0,0.0,0.0,-6.18794,11.34457,-12.43318,9.88,-1.57,2.31,3.0
1758076154.38728,1758076154.34109,0.0,0.0,0.0,-5.4431,10.8862,-12.49048,9.88,-1.57,2.31,3.0
1758076154.40199,1758076154.35109,0.0,0.0,0.0,-4.69825,10.08406,-12.60507,9.96,-1.54,2.54,3.0
1758076154.418,1758076154.36109,0.0,0.0,0.0,-4.23989,9.39651,-12.60507,9.96,-1.54,2.54,3.0
1758076154.41925,1758076154.37109,0.0,0.0,0.0,-3.60963,8.93814,-12.89155,10.09,-1.43,2.65,3.0
1758076154.43402,1758076154.38109,0.0,0.0,0.0,-3.03668,8.65166,-13.00614,10.25,-1.29,2.85,3.0
1758076154.45036,1758076154.39109,0.0,0.0,0.0,-2.63561,7.96411,-13.12073,10.25,-1.29,2.85,3.0
1758076154.45123,1758076154.40109,0.0,0.0,0.0,-2.11994,8.47978,-13.23533,10.41,-1.24,3.12,3.0
1758076154.46627,1758076154.41109,0.0,0.0,0.0,-1.3178,9.62569,-13.98017,10.41,-1.24,3.12,3.0
1758076154.46721,1758076154.42109,0.0,0.0,0.0,-0.51566,10.54242,-14.61043,10.67,-1.35,3.32,3.0
1758076154.48204,1758076154.43109,0.0,0.0,0.0,0.0573,11.91752,-15.41257,10.67,-1.35,3.32,3.0
1758076154.49801,1758076154.44109,0.0,0.0,0.0,1.14592,14.49583,-16.21471,11.05,-1.55,3.52,3.0
1758076154.49926,1758076154.45109,0.0,0.0,0.0,2.97938,18.16276,-17.18874,11.48,-1.73,3.58,3.0
1758076154.51404,1758076154.46109,0.0,0.0,0.0,4.1253,19.25138,-17.58981,11.48,-1.73,3.58,3.0
1758076154.53028,1758076154.47109,0.0,0.0,0.0,5.15662,19.70975,-17.6471,11.43,-1.7,3.6,3.0
1758076154.53123,1758076154.48109,0.0,0.0,0.0,6.24524,20.3973,-17.36062,11.43,-1.7,3.6,3.0
1758076154.54628,1758076154.49109,0.0,0.0,0.0,7.67763,22.34536,-16.90226,11.36,-1.55,3.56,3.0
1758076154.54762,1758076154.50109,0.0,0.0,0.0,8.76626,24.12152,-16.38659,11.36,-1.55,3.56,3.0
1758076154.56205,1758076154.51109,0.0,0.0,0.0,9.5684,26.47065,-15.98552,11.46,-1.39,3.59,3.0
1758076154.57814,1758076154.52109,0.0,0.0,0.0,10.94349,27.73116,-14.72501,11.46,-1.39,3.59,3.0
1758076154.5793,1758076154.53109,0.0,0.0,0.0,11.97482,29.96569,-13.5218,11.56,-1.29,3.75,3.0
1758076154.59415,1758076154.54109,0.0,0.0,0.0,12.71966,31.51268,-12.204,11.74,-1.24,3.88,3.0
1758076154.61007,1758076154.55109,0.0,0.0,0.0,13.46451,32.37212,-10.8862,11.74,-1.24,3.88,3.0
1758076154.61129,1758076154.56109,0.0,0.0,0.0,14.78231,32.54401,-7.73493,11.69,-1.17,4.01,3.0
1758076154.6261,1758076154.57109,0.0,0.0,0.0,15.24068,33.23156,-5.61499,11.69,-1.17,4.01,3.0
1758076154.62729,1758076154.58109,0.0,0.0,0.0,15.75634,34.26288,-2.97938,11.8,-1.05,4.13,3.0
1758076154.64208,1758076154.59109,0.0,0.0,0.0,15.92823,34.89313,-0.74485,11.8,-1.05,4.13,3.0
1758076154.65845,1758076154.60109,0.0,0.0,0.0,15.35527,35.86716,2.86479,11.57,-0.78,4.13,3.0
1758076154.65929,1758076154.61109,0.0,0.0,0.0,14.49583,36.21093,4.81285,11.17,-0.51,4.05,3.0
1758076154.67438,1758076154.62109,0.0,0.0,0.0,13.40721,36.95578,6.07335,11.17,-0.51,4.05,3.0
1758076154.69122,1758076154.63109,0.0,0.0,0.0,12.204,36.6693,7.04738,10.43,-0.24,4.07,3.0
1758076154.69295,1758076154.64109,0.0,0.0,0.0,10.65701,34.77854,7.39116,10.43,-0.24,4.07,3.0
1758076154.70813,1758076154.65109,0.0,0.0,0.0,10.02676,33.23156,7.16197,9.41,-0.14,4.15,3.0
1758076154.70933,1758076154.66109,0.0,0.0,0.0,9.85487,30.13758,6.13065,9.41,-0.14,4.15,3.0
1758076154.72413,1758076154.67109,0.0,0.0,0.0,10.02676,26.18417,4.92744,8.33,-0.27,4.14,3.0
1758076154.74008,1758076154.68109,0.0,0.0,0.0,11.34457,20.22541,2.34913,7.54,-0.47,4.17,3.0
1758076154.74289,1758076154.69109,0.0,0.0,0.0,12.71966,15.98552,0.40107,7.54,-0.47,4.17,3.0
1758076154.758,1758076154.70109,0.0,0.0,0.0,13.86558,11.91752,-1.60428,7.14,-0.39,4.16,3.0
1758076154.75923,1758076154.71109,0.0,0.0,0.0,15.12609,8.42248,-3.66693,7.14,-0.39,4.16,3.0
1758076154.77411,1758076154.72109,0.0,0.0,0.0,16.61578,2.7502,-6.07335,7.0,0.0,4.11,3.0
1758076154.79009,1758076154.73109,0.0,0.0,0.0,17.13144,-1.77617,-7.33386,7.0,0.0,4.11,3.0
1758076154.79291,1758076154.74109,0.0,0.0,0.0,17.30333,-6.58902,-8.25059,6.74,0.44,4.12,3.0
1758076154.80845,1758076154.75109,0.0,0.0,0.0,16.61578,-11.34457,-8.88085,6.74,0.44,4.12,3.0
1758076154.80933,1758076154.76109,0.0,0.0,0.0,15.58445,-14.03747,-9.05273,6.68,0.85,4.06,3.0
1758076154.82443,1758076154.77109,0.0,0.0,0.0,14.20935,-16.50119,-9.22462,6.75,1.11,4.19,3.0
1758076154.8412,1758076154.78109,0.0,0.0,0.0,12.83425,-17.93358,-9.28192,6.75,1.11,4.19,3.0
1758076154.84324,1758076154.79109,0.0,0.0,0.0,10.54242,-18.90761,-9.68299,7.19,1.14,4.03,3.0
1758076154.85811,1758076154.80109,0.0,0.0,0.0,9.22462,-18.50654,-10.25595,7.19,1.14,4.03,3.0
1758076154.8594,1758076154.81109,0.0,0.0,0.0,8.02141,-16.67307,-10.94349,7.88,1.09,3.96,3.0
1758076154.87415,1758076154.82109,0.0,0.0,0.0,7.16197,-14.15206,-11.74564,7.88,1.09,3.96,3.0
1758076154.89011,1758076154.83109,0.0,0.0,0.0,5.95876,-11.45916,-12.54778,8.37,1.08,3.84,3.0
1758076154.89209,1758076154.84109,0.0,0.0,0.0,5.27121,-10.08406,-12.49048,8.3,1.01,3.86,3.0
1758076154.90907,1758076154.85109,0.0,0.0,0.0,4.64096,-8.70896,-12.14671,8.3,1.01,3.86,3.0
1758076154.91071,1758076154.86109,0.0,0.0,0.0,4.1253,-7.44845,-11.34457,8.4,0.87,3.91,3.0
1758076154.92727,1758076154.87109,0.0,0.0,0.0,3.49504,-4.87014,-10.37054,8.4,0.87,3.91,3.0
1758076154.92843,1758076154.88109,0.0,0.0,0.0,3.03668,-3.55234,-9.85487,8.56,0.74,3.88,3.0
1758076154.94317,1758076154.89109,0.0,0.0,0.0,2.63561,-2.63561,-9.4538,8.56,0.74,3.88,3.0
1758076154.95943,1758076154.90109,0.0,0.0,0.0,2.34913,-2.34913,-9.22462,8.5,0.6,3.8,3.0
1758076154.96121,1758076154.91109,0.0,0.0,0.0,2.00535,-3.32316,-9.11003,8.36,0.54,3.85,3.0
1758076154.97616,1758076154.92109,0.0,0.0,0.0,2.06265,-5.09932,-9.05273,8.36,0.54,3.85,3.0
1758076154.97738,1758076154.93109,0.0,0.0,0.0,2.11994,-6.7609,-8.93814,8.31,0.52,3.91,3.0
1758076154.99215,1758076154.94109,0.0,0.0,0.0,2.46372,-8.76626,-8.30789,8.31,0.52,3.91,3.0
1758076155.00942,1758076154.95109,0.0,0.0,0.0,3.03668,-11.51645,-8.02141,8.33,0.46,3.91,3.0
1758076155.01037,1758076154.96109,0.0,0.0,0.0,3.55234,-13.12073,-7.84952,8.33,0.46,3.91,3.0
1758076155.02586,1758076154.97109,0.0,0.0,0.0,4.18259,-14.61043,-7.62034,8.39,0.4,3.94,3.0
1758076155.02877,1758076154.98109,0.0,0.0,0.0,5.50039,-17.01685,-7.21927,8.39,0.4,3.94,3.0
1758076155.0442,1758076154.99109,0.0,0.0,0.0,6.58902,-19.25138,-6.99009,8.51,0.39,3.97,3.0
1758076155.06051,1758076155.00109,0.0,0.0,0.0,7.96411,-22.11617,-6.58902,8.56,0.35,3.91,3.0
1758076155.06143,1758076155.01109,0.0,0.0,0.0,9.33921,-24.92367,-5.95876,8.56,0.35,3.91,3.0
1758076155.07624,1758076155.02109,0.0,0.0,0.0,10.94349,-29.10626,-4.64096,8.61,0.27,3.79,3.0
1758076155.07898,1758076155.03109,0.0,0.0,0.0,12.2613,-31.2262,-3.49504,8.61,0.27,3.79,3.0
1758076155.09422,1758076155.04109,0.0,0.0,0.0,13.75099,-32.6013,-2.40642,8.73,0.22,3.65,3.0
1758076155.1105,1758076155.05109,0.0,0.0,0.0,15.29797,-33.34615,-1.20321,8.73,0.22,3.65,3.0
1758076155.11173,1758076155.06109,0.0,0.0,0.0,17.01685,-33.11696,0.17189,8.97,0.23,3.54,3.0
1758076155.1279,1758076155.07109,0.0,0.0,0.0,18.16276,-32.48671,1.48969,9.18,0.26,3.34,3.0
1758076155.12903,1758076155.08109,0.0,0.0,0.0,19.59516,-30.59595,2.11994,9.18,0.26,3.34,3.0
1758076155.14413,1758076155.09109,0.0,0.0,0.0,20.68378,-27.67386,2.29183,9.42,0.3,3.17,3.0
1758076155.16048,1758076155.10109,0.0,0.0,0.0,21.60051,-22.11617,1.3178,9.42,0.3,3.17,3.0
1758076155.16226,1758076155.11109,0.0,0.0,0.0,22.05888,-21.37133,0.68755,9.4,0.46,2.96,3.0
1758076155.17749,1758076155.12109,0.0,0.0,0.0,20.68378,-16.67307,-2.40642,9.4,0.46,2.96,3.0
1758076155.17846,1758076155.13109,0.0,0.0,0.0,19.70975,-15.12609,-5.90147,9.19,0.78,2.79,3.0
1758076155.19404,1758076155.14109,0.0,0.0,0.0,16.67307,-16.90226,-12.204,8.68,1.07,2.73,3.0
1758076155.21055,1758076155.15109,0.0,0.0,0.0,14.66772,-18.22006,-15.92823,8.68,1.07,2.73,3.0
1758076155.21148,1758076155.16109,0.0,0.0,0.0,12.54778,-17.53251,-19.13679,8.96,1.22,2.65,3.0
1758076155.2283,1758076155.17109,0.0,0.0,0.0,9.62569,-12.77696,-23.0329,8.96,1.22,2.65,3.0
1758076155.22949,1758076155.18109,0.0,0.0,0.0,7.79223,-8.36518,-24.86637,9.45,1.25,2.51,3.0
1758076155.24445,1758076155.19109,0.0,0.0,0.0,6.41713,-4.18259,-25.89769,9.45,1.25,2.51,3.0
1758076155.26025,1758076155.20109,0.0,0.0,0.0,5.4431,-1.3751,-25.89769,9.46,1.21,2.51,3.0
1758076155.26141,1758076155.21109,0.0,0.0,0.0,4.23989,3.26586,-24.63719,9.46,1.21,2.51,3.0
1758076155.27661,1758076155.22109,0.0,0.0,0.0,3.95341,6.07335,-22.11617,9.42,1.15,2.46,3.0
1758076155.27747,1758076155.23109,0.0,0.0,0.0,3.38045,5.90147,-19.76705,9.31,1.15,2.38,3.0
1758076155.29316,1758076155.24109,0.0,0.0,0.0,3.55234,3.32316,-16.55848,9.31,1.15,2.38,3.0
1758076155.30929,1758076155.25109,0.0,0.0,0.0,4.0107,-8.99544,-12.204,8.82,1.08,2.62,3.0
1758076155.3107,1758076155.26109,0.0,0.0,0.0,4.52637,-21.02755,-9.74028,8.82,1.08,2.62,3.0
1758076155.32529,1758076155.27109,0.0,0.0,0.0,5.27121,-35.12231,-7.39116,8.36,1.1,2.44,3.0
1758076155.32653,1758076155.28109,0.0,0.0,0.0,4.58366,-32.88778,-4.64096,8.36,1.1,2.44,3.0
1758076155.34334,1758076155.29109,0.0,0.0,0.0,1.71887,11.80293,-6.7609,10.55,1.37,2.32,3.0
1758076155.35928,1758076155.30109,0.0,0.0,0.0,0.0,33.05967,-10.02676,12.48,1.94,2.42,3.0
1758076155.36072,1758076155.31109,0.0,0.0,0.0,-2.6929,32.20023,-14.43854,12.48,1.94,2.42,3.0
1758076155.37537,1758076155.32109,0.0,0.0,0.0,-4.92744,13.23533,-17.76169,7.87,2.3,3.31,3.0
1758076155.37648,1758076155.33109,0.0,0.0,0.0,-7.67763,0.11459,-20.22541,7.87,2.3,3.31,3.0
1758076155.39261,1758076155.34109,0.0,0.0,0.0,-8.76626,4.58366,-20.05352,8.87,2.17,2.15,3.0
1758076155.40936,1758076155.35109,0.0,0.0,0.0,-10.19865,11.11538,-19.13679,8.87,2.17,2.15,3.0
1758076155.41054,1758076155.36109,0.0,0.0,0.0,-11.51645,15.64175,-16.50119,9.65,1.9,2.1,3.0
1758076155.42567,1758076155.37109,0.0,0.0,0.0,-11.80293,16.3293,-14.43854,9.18,1.65,2.47,3.0
1758076155.42654,1758076155.38109,0.0,0.0,0.0,-11.74564,12.83425,-12.77696,9.18,1.65,2.47,3.0
1758076155.4444,1758076155.39109,0.0,0.0,0.0,-11.28727,9.05273,-11.22997,8.76,1.35,2.35,3.0
1758076155.46038,1758076155.40109,0.0,0.0,0.0,-10.71431,6.53172,-9.28192,8.76,1.35,2.35,3.0
1758076155.46159,1758076155.41109,0.0,0.0,0.0,-10.54242,7.84952,-7.79223,9.16,1.19,2.24,3.0
1758076155.47632,1758076155.42109,0.0,0.0,0.0,-10.19865,9.11003,-6.18794,9.16,1.19,2.24,3.0
1758076155.4784,1758076155.43109,0.0,0.0,0.0,-10.25595,9.39651,-4.87014,9.43,1.32,2.43,3.0
1758076155.49322,1758076155.44109,0.0,0.0,0.0,-10.8862,9.05273,-2.7502,9.37,1.32,2.52,3.0
1758076155.50966,1758076155.45109,0.0,0.0,0.0,-11.63104,6.87549,-1.71887,9.37,1.59,2.52,3.0
1758076155.51056,1758076155.46109,0.0,0.0,0.0,-13.17803,2.7502,-1.3751,9.1,1.91,2.46,3.0
1758076155.52564,1758076155.47109,0.0,0.0,0.0,-15.41257,-0.34377,-1.71887,9.1,1.91,2.46,3.0
1758076155.52653,1758076155.48109,0.0,0.0,0.0,-18.73572,1.3751,-3.09397,9.59,2.14,2.36,3.0
1758076155.54341,1758076155.49109,0.0,0.0,0.0,-20.85567,4.18259,-4.29718,9.59,2.14,2.36,3.0
1758076155.55935,1758076155.50109,0.0,0.0,0.0,-23.20479,7.79223,-5.55769,10.34,2.25,2.42,3.0
1758076155.56056,1758076155.51109,0.0,0.0,0.0,-25.21014,13.06344,-6.87549,10.34,2.25,2.42,3.0
1758076155.57535,1758076155.52109,0.0,0.0,0.0,-28.01764,20.45459,-8.36518,11.09,2.18,2.48,3.0
1758076155.57653,1758076155.53109,0.0,0.0,0.0,-29.39274,24.92367,-9.11003,11.41,1.94,2.98,3.0
1758076155.59366,1758076155.54109,0.0,0.0,0.0,-30.13758,29.9084,-8.88085,11.41,1.94,2.98,3.0
1758076155.60965,1758076155.55109,0.0,0.0,0.0,-32.20023,31.62727,-7.84952,11.57,1.25,3.74,3.0
1758076155.61088,1758076155.56109,0.0,0.0,0.0,-35.00772,27.04361,-7.50575,11.57,1.25,3.74,3.0
1758076155.62536,1758076155.57109,0.0,0.0,0.0,-36.03905,30.36677,-8.02141,11.32,1.82,3.25,3.0
1758076155.62727,1758076155.58109,0.0,0.0,0.0,-36.38282,32.42941,-8.59437,11.32,1.82,3.25,3.0
1758076155.64239,1758076155.59109,0.0,0.0,0.0,-36.49741,30.25217,-8.93814,12.29,2.35,4.74,3.0
1758076155.65968,1758076155.60109,0.0,0.0,0.0,-36.49741,27.04361,-8.88085,12.41,2.38,4.75,3.0
1758076155.66138,1758076155.61109,0.0,0.0,0.0,-36.15364,24.86637,-7.84952,12.41,2.38,4.75,3.0
1758076155.67871,1758076155.62109,0.0,0.0,0.0,-35.2369,23.37668,-7.10468,12.93,2.2,4.9,3.0
1758076155.67961,1758076155.63109,0.0,0.0,0.0,-34.49206,21.7724,-6.70361,12.93,2.2,4.9,3.0
1758076155.69533,1758076155.64109,0.0,0.0,0.0,-34.60666,21.42862,-7.39116,13.01,1.9,4.86,3.0
1758076155.69678,1758076155.65109,0.0,0.0,0.0,-34.89313,20.51189,-8.0787,13.01,1.9,4.86,3.0
1758076155.71373,1758076155.66109,0.0,0.0,0.0,-35.40879,20.51189,-8.88085,12.91,1.53,4.85,3.0
1758076155.72967,1758076155.67109,0.0,0.0,0.0,-37.29956,23.0329,-9.62569,12.91,1.2,4.78,3.0
1758076155.73101,1758076155.68109,0.0,0.0,0.0,-39.13302,25.49662,-9.62569,12.91,1.2,4.78,3.0
1758076155.74642,1758076155.69109,0.0,0.0,0.0,-41.48215,26.35606,-9.05273,12.36,1.29,4.91,3.0
1758076155.74847,1758076155.70109,0.0,0.0,0.0,-44.57612,25.72581,-8.42248,12.36,1.29,4.91,3.0
1758076155.76344,1758076155.71109,0.0,0.0,0.0,-49.27437,23.94964,-7.16197,10.87,1.58,4.83,3.0
1758076155.7805,1758076155.72109,0.0,0.0,0.0,-52.42564,22.68913,-6.7609,10.87,1.58,4.83,3.0
1758076155.78119,1758076155.73109,0.0,0.0,0.0,-55.00395,21.14215,-6.47442,9.14,1.51,4.48,3.0
1758076155.79642,1758076155.74109,0.0,0.0,0.0,-56.89471,17.99088,-6.18794,9.14,1.51,4.48,3.0
1758076155.79849,1758076155.75109,0.0,0.0,0.0,-58.04062,11.00079,-5.50039,7.23,1.03,4.25,3.0
1758076155.81429,1758076155.76109,0.0,0.0,0.0,-57.86874,4.92744,-4.58366,5.72,0.39,4.11,3.0
1758076155.83044,1758076155.77109,0.0,0.0,0.0,-56.952,-1.66158,-3.49504,5.72,0.39,4.11,3.0
1758076155.83116,1758076155.78109,0.0,0.0,0.0,-55.29043,-8.88085,-0.97403,4.93,-0.33,4.03,3.0
1758076155.84648,1758076155.79109,0.0,0.0,0.0,-51.27972,-22.86102,0.80214,4.93,-0.33,4.03,3.0
1758076155.84923,1758076155.80109,0.0,0.0,0.0,-48.07116,-34.26288,3.03668,4.58,-1.01,4.06,3.0
1758076155.8669,1758076155.81109,0.0,0.0,0.0,-44.8053,-45.60744,5.4431,4.58,-1.01,4.06,3.0
1758076155.87532,1758076155.82109,0.0,0.0,0.0,-39.53409,-58.90006,9.11003,4.99,-1.34,4.04,3.0
1758076155.8797,1758076155.83109,0.0,0.0,0.0,-36.55471,-65.08801,11.28727,6.14,-1.24,3.9,3.0
1758076155.89541,1758076155.84109,0.0,0.0,0.0,-34.09099,-68.86953,12.71966,6.14,-1.24,3.9,3.0
1758076155.89747,1758076155.85109,0.0,0.0,0.0,-32.71589,-69.90086,13.12073,7.19,-0.81,3.89,3.0
1758076155.91248,1758076155.86109,0.0,0.0,0.0,-31.56997,-68.41116,11.74564,7.19,-0.81,3.89,3.0
1758076155.92844,1758076155.87109,0.0,0.0,0.0,-31.28349,-66.06203,10.19865,7.82,-0.33,3.69,3.0
1758076155.92966,1758076155.88109,0.0,0.0,0.0,-31.56997,-63.42643,8.136,7.82,-0.33,3.69,3.0
1758076155.94455,1758076155.89109,0.0,0.0,0.0,-32.25753,-60.33246,6.13065,7.96,-0.15,3.46,3.0
1758076155.96081,1758076155.90109,0.0,0.0,0.0,-33.11696,-54.02992,4.81285,8.19,-0.26,3.26,3.0
1758076155.96118,1758076155.91109,0.0,0.0,0.0,-33.05967,-48.12846,5.21392,8.19,-0.26,3.26,3.0
1758076155.97673,1758076155.92109,0.0,0.0,0.0,-32.83048,-41.71133,6.7609,8.51,-0.6,2.97,3.0
1758076155.97772,1758076155.93109,0.0,0.0,0.0,-31.85646,-34.95043,8.70896,8.51,-0.6,2.97,3.0
1758076155.99278,1758076155.94109,0.0,0.0,0.0,-29.22085,-24.57989,12.14671,8.6,-0.92,2.66,3.0
1758076156.00878,1758076155.95109,0.0,0.0,0.0,-26.87172,-17.76169,13.69369,8.6,-0.92,2.66,3.0
1758076156.00972,1758076155.96109,0.0,0.0,0.0,-24.35071,-11.57375,15.0115,8.68,-1.09,2.58,3.0
1758076156.02465,1758076155.97109,0.0,0.0,0.0,-22.00158,-5.4431,15.24068,8.68,-1.09,2.58,3.0
1758076156.02758,1758076155.98109,0.0,0.0,0.0,-18.56383,2.57831,14.78231,8.78,-1.02,2.57,3.0
1758076156.04354,1758076155.99109,0.0,0.0,0.0,-16.67307,6.53172,14.03747,8.81,-0.89,2.65,3.0
1758076156.05967,1758076156.00109,0.0,0.0,0.0,-15.24068,8.99544,13.06344,8.81,-0.89,2.65,3.0
1758076156.06091,1758076156.01109,0.0,0.0,0.0,-13.5791,11.34457,12.08941,8.88,-0.85,2.91,3.0
1758076156.07679,1758076156.02109,0.0,0.0,0.0,-13.06344,11.97482,11.63104,8.88,-0.85,2.91,3.0
1758076156.07846,1758076156.03109,0.0,0.0,0.0,-12.71966,13.12073,11.57375,9.09,-0.94,3.17,3.0
1758076156.09355,1758076156.04109,0.0,0.0,0.0,-12.2613,14.43854,11.51645,9.09,-0.94,3.17,3.0
1758076156.11055,1758076156.05109,0.0,0.0,0.0,-11.51645,14.38124,11.34457,9.41,-1.08,3.49,3.0
1758076156.11096,1758076156.06109,0.0,0.0,0.0,-11.00079,13.46451,11.00079,9.35,-1.12,3.57,3.0
1758076156.1306,1758076156.07109,0.0,0.0,0.0,-10.02676,11.97482,10.54242,9.35,-1.12,3.57,3.0
1758076156.13098,1758076156.08109,0.0,0.0,0.0,-9.11003,10.08406,10.08406,9.27,-1.11,3.62,3.0
1758076156.14815,1758076156.09109,0.0,0.0,0.0,-7.62034,6.18794,9.85487,9.27,-1.11,3.62,3.0
1758076156.14931,1758076156.10109,0.0,0.0,0.0,-6.24524,4.23989,10.02676,9.19,-1.09,3.55,3.0
1758076156.16581,1758076156.11109,0.0,0.0,0.0,-4.58366,3.60963,10.48513,9.19,-1.09,3.55,3.0
1758076156.16702,1758076156.12109,0.0,0.0,0.0,-2.6929,2.06265,11.45916,9.47,-1.18,3.66,3.0
1758076156.18312,1758076156.13109,0.0,0.0,0.0,-0.0573,-3.03668,12.77696,9.26,-1.35,3.38,3.0
1758076156.19852,1758076156.14109,0.0,0.0,0.0,1.3178,-7.16197,13.00614,9.26,-1.35,3.38,3.0
1758076156.19977,1758076156.15109,0.0,0.0,0.0,2.46372,-10.65701,12.37589,9.26,-1.41,3.33,3.0
1758076156.21557,1758076156.16109,0.0,0.0,0.0,3.60963,-14.38124,11.28727,9.26,-1.41,3.33,3.0
1758076156.23382,1758076156.17109,0.0,0.0,0.0,4.46907,-18.62113,8.36518,9.28,-1.29,3.14,3.0
1758076156.23404,1758076156.18109,0.0,0.0,0.0,4.58366,-21.42862,6.41713,9.28,-1.29,3.14,3.0
1758076156.24866,1758076156.19109,0.0,0.0,0.0,4.64096,-22.23076,4.98473,9.32,-1.03,3.17,3.0
1758076156.24976,1758076156.20109,0.0,0.0,0.0,4.64096,-23.94964,5.32851,9.32,-1.03,3.17,3.0
1758076156.26455,1758076156.21109,0.0,0.0,0.0,4.92744,-24.57989,7.21927,9.21,-0.92,3.12,3.0
1758076156.26654,1758076156.22109,0.0,0.0,0.0,5.32851,-24.63719,10.59972,9.0,-1.11,2.93,3.0
1758076156.28155,1758076156.23109,0.0,0.0,0.0,6.18794,-24.23611,15.24068,9.0,-1.11,2.93,3.0
1758076156.29858,1758076156.24109,0.0,0.0,0.0,7.39116,-23.49127,22.86102,8.88,-1.36,2.69,3.0
1758076156.29956,1758076156.25109,0.0,0.0,0.0,8.36518,-21.48592,27.50197,8.88,-1.36,2.69,3.0
1758076156.31458,1758076156.26109,0.0,0.0,0.0,9.28192,-18.90761,31.11161,8.89,-1.48,2.54,3.0
1758076156.31582,1758076156.27109,0.0,0.0,0.0,9.91217,-15.58445,33.63263,8.89,-1.48,2.54,3.0
1758076156.33115,1758076156.28109,0.0,0.0,0.0,10.71431,-9.5684,34.09099,8.91,-1.42,2.43,3.0
1758076156.34865,1758076156.29109,0.0,0.0,0.0,11.34457,-4.46907,32.54401,8.86,-1.38,2.38,3.0
1758076156.34959,1758076156.30109,0.0,0.0,0.0,11.91752,-0.0573,29.56462,8.86,-1.38,2.38,3.0
1758076156.36487,1758076156.31109,0.0,0.0,0.0,12.37589,4.0107,25.89769,8.66,-1.3,2.37,3.0
1758076156.36585,1758076156.32109,0.0,0.0,0.0,13.12073,10.54242,19.13679,8.66,-1.3,2.37,3.0
1758076156.38112,1758076156.33109,0.0,0.0,0.0,13.46451,14.03747,14.9542,8.73,-1.3,2.26,3.0
1758076156.39836,1758076156.34109,0.0,0.0,0.0,13.69369,16.04282,10.19865,8.73,-1.3,2.26,3.0
1758076156.39962,1758076156.35109,0.0,0.0,0.0,15.41257,2.97938,7.50575,8.37,-1.29,2.43,3.0
1758076156.41486,1758076156.36109,0.0,0.0,0.0,15.75634,-5.4431,1.83346,8.13,-1.23,1.99,3.0
1758076156.41584,1758076156.37109,0.0,0.0,0.0,17.47521,4.98473,2.92208,8.13,-1.23,1.99,3.0
1758076156.43385,1758076156.38109,0.0,0.0,0.0,20.97026,10.59972,5.78687,10.79,-1.7,2.56,3.0
1758076156.44881,1758076156.39109,0.0,0.0,0.0,24.63719,14.15206,8.93814,10.79,-1.7,2.56,3.0
1758076156.44987,1758076156.40109,0.0,0.0,0.0,28.64789,14.83961,13.46451,10.2,-2.11,2.77,3.0
1758076156.46465,1758076156.41109,0.0,0.0,0.0,29.8511,13.80828,13.98017,10.2,-2.11,2.77,3.0
1758076156.46575,1758076156.42109,0.0,0.0,0.0,30.53865,10.54242,12.83425,9.51,-2.13,2.63,3.0
1758076156.48131,1758076156.43109,0.0,0.0,0.0,30.48136,6.87549,8.59437,9.51,-2.13,2.63,3.0
1758076156.49672,1758076156.44109,0.0,0.0,0.0,30.30947,8.25059,5.15662,9.13,-1.71,2.27,3.0
1758076156.49788,1758076156.45109,0.0,0.0,0.0,29.62192,10.31324,1.71887,9.76,-1.17,2.61,3.0
1758076156.5129,1758076156.46109,0.0,0.0,0.0,28.41871,11.34457,-1.71887,9.76,-1.17,2.61,3.0
1758076156.52893,1758076156.47109,0.0,0.0,0.0,25.38203,9.74028,-5.55769,9.71,-0.62,2.7,3.0
1758076156.52986,1758076156.48109,0.0,0.0,0.0,23.26209,7.50575,-6.53172,9.71,-0.62,2.7,3.0
1758076156.54499,1758076156.49109,0.0,0.0,0.0,21.14215,5.78687,-5.95876,9.61,-0.35,2.63,3.0
1758076156.54589,1758076156.50109,0.0,0.0,0.0,19.13679,8.02141,-4.46907,9.61,-0.35,2.63,3.0
1758076156.56121,1758076156.51109,0.0,0.0,0.0,16.272,15.0115,-2.57831,10.19,-0.55,2.76,3.0
1758076156.57683,1758076156.52109,0.0,0.0,0.0,15.24068,15.98552,-1.20321,10.27,-0.75,3.32,3.0
1758076156.5779,1758076156.53109,0.0,0.0,0.0,14.43854,16.10011,0.11459,10.27,-0.75,3.32,3.0
1758076156.59296,1758076156.54109,0.0,0.0,0.0,13.98017,16.90226,0.80214,10.32,-0.9,3.43,3.0
1758076156.60892,1758076156.55109,0.0,0.0,0.0,13.5791,18.27736,1.08862,10.32,-0.9,3.43,3.0
1758076156.6099,1758076156.56109,0.0,0.0,0.0,13.5791,18.22006,0.85944,10.41,-1.01,3.5,3.0
1758076156.62502,1758076156.57109,0.0,0.0,0.0,13.17803,16.84496,0.17189,10.41,-1.01,3.5,3.0
1758076156.62589,1758076156.58109,0.0,0.0,0.0,12.83425,15.29797,-0.57296,10.16,-1.07,3.6,3.0
1758076156.64129,1758076156.59109,0.0,0.0,0.0,12.2613,14.20935,-2.06265,10.37,-1.04,3.56,3.0
1758076156.65755,1758076156.60109,0.0,0.0,0.0,12.14671,14.20935,-2.7502,10.37,-1.04,3.56,3.0
1758076156.65897,1758076156.61109,0.0,0.0,0.0,11.91752,14.15206,-3.49504,10.76,-1.03,3.66,3.0
1758076156.67369,1758076156.62109,0.0,0.0,0.0,11.22997,13.46451,-4.18259,10.76,-1.03,3.66,3.0
1758076156.67522,1758076156.63109,0.0,0.0,0.0,10.08406,14.61043,-4.18259,10.9,-0.98,3.69,3.0
1758076156.69095,1758076156.64109,0.0,0.0,0.0,8.93814,17.01685,-3.72423,10.9,-0.98,3.69,3.0
1758076156.7086,1758076156.65109,0.0,0.0,0.0,7.62034,19.19409,-2.86479,11.31,-0.73,3.7,3.0
1758076156.70959,1758076156.66109,0.0,0.0,0.0,4.81285,23.54857,-1.71887,11.31,-0.73,3.7,3.0
1758076156.72474,1758076156.67109,0.0,0.0,0.0,2.6929,24.92367,-1.03132,11.58,-0.35,3.94,3.0
1758076156.72591,1758076156.68109,0.0,0.0,0.0,0.40107,26.24147,-1.03132,11.67,-0.05,4.23,3.0
1758076156.74136,1758076156.69109,0.0,0.0,0.0,-2.11994,27.78845,-1.43239,11.67,-0.05,4.23,3.0
1758076156.757,1758076156.70109,0.0,0.0,0.0,-5.21392,28.476,-2.97938,12.04,-0.01,4.56,3.0
1758076156.75875,1758076156.71109,0.0,0.0,0.0,-6.87549,28.76248,-4.64096,12.04,-0.01,4.56,3.0
1758076156.77378,1758076156.72109,0.0,0.0,0.0,-7.96411,29.56462,-6.58902,12.45,-0.34,4.76,3.0
1758076156.77488,1758076156.73109,0.0,0.0,0.0,-8.136,29.9084,-8.93814,12.45,-0.34,4.76,3.0
1758076156.79104,1758076156.74109,0.0,0.0,0.0,-6.70361,29.27814,-12.49048,12.85,-0.85,5.05,3.0
1758076156.80965,1758076156.75109,0.0,0.0,0.0,-4.52637,28.41871,-14.38124,12.79,-1.51,5.04,3.0
1758076156.81136,1758076156.76109,0.0,0.0,0.0,-1.71887,28.07493,-15.98552,12.79,-1.51,5.04,3.0
1758076156.82827,1758076156.77109,0.0,0.0,0.0,1.60428,27.78845,-17.24603,12.03,-1.89,4.74,3.0
1758076156.83065,1758076156.78109,0.0,0.0,0.0,7.67763,24.80907,-18.16276,12.03,-1.89,4.74,3.0
1758076156.84904,1758076156.79109,0.0,0.0,0.0,12.2613,21.25674,-18.16276,10.2,-1.85,4.47,3.0
1758076156.85097,1758076156.80109,0.0,0.0,0.0,16.90226,16.50119,-17.76169,10.2,-1.85,4.47,3.0
1758076156.86654,1758076156.81109,0.0,0.0,0.0,21.14215,10.08406,-17.18874,8.14,-1.66,4.37,3.0
1758076156.86857,1758076156.82109,0.0,0.0,0.0,26.06958,-1.83346,-16.04282,6.31,-1.39,4.22,3.0
1758076156.88378,1758076156.83109,0.0,0.0,0.0,28.13223,-10.65701,-15.12609,6.31,-1.39,4.22,3.0
1758076156.88493,1758076156.84109,0.0,0.0,0.0,29.27814,-19.42327,-14.32395,5.32,-0.77,3.99,3.0
1758076156.90171,1758076156.85109,0.0,0.0,0.0,28.59059,-32.88778,-13.12073,5.32,-0.77,3.99,3.0
1758076156.91905,1758076156.86109,0.0,0.0,0.0,26.98631,-41.42485,-12.2613,4.95,0.03,3.9,3.0
1758076156.92073,1758076156.87109,0.0,0.0,0.0,24.98096,-48.75871,-10.94349,4.95,0.03,3.9,3.0
1758076156.93684,1758076156.88109,0.0,0.0,0.0,22.68913,-54.08722,-9.85487,5.22,0.68,3.93,3.0
1758076156.93779,1758076156.89109,0.0,0.0,0.0,19.36597,-59.18654,-8.02141,5.22,0.68,3.93,3.0
1758076156.96064,1758076156.90109,0.0,0.0,0.0,17.53251,-58.3844,-6.7609,5.94,0.86,3.84,3.0
1758076157.00927,1758076156.91109,0.0,0.0,0.0,15.12609,-56.32175,-5.50039,7.0,0.74,3.51,3.0
1758076157.00989,1758076156.92109,0.0,0.0,0.0,13.69369,-53.39967,-4.81285,7.0,0.74,3.51,3.0
1758076157.01198,1758076156.93109,0.0,0.0,0.0,12.14671,-48.8733,-4.0107,7.6,0.56,3.29,3.0
1758076157.01337,1758076156.94109,0.0,0.0,0.0,11.51645,-45.43555,-4.35448,7.6,0.56,3.29,3.0
1758076157.01469,1758076156.95109,0.0,0.0,0.0,10.8862,-41.42485,-5.21392,8.06,0.51,3.27,3.0
1758076157.01774,1758076156.96109,0.0,0.0,0.0,10.31324,-37.24226,-6.53172,8.06,0.51,3.27,3.0
1758076157.01845,1758076156.97109,0.0,0.0,0.0,9.22462,-30.99702,-8.76626,8.34,0.65,3.17,3.0
1758076157.03382,1758076156.98109,0.0,0.0,0.0,8.25059,-26.52795,-10.25595,8.4,0.71,3.02,3.0
1758076157.03498,1758076156.99109,0.0,0.0,0.0,7.21927,-22.11617,-11.51645,8.4,0.71,3.02,3.0
1758076157.05206,1758076157.00109,0.0,0.0,0.0,6.13065,-18.62113,-12.49048,8.45,0.65,2.88,3.0
1758076157.06914,1758076157.01109,0.0,0.0,0.0,4.52637,-15.69904,-13.17803,8.45,0.65,2.88,3.0
1758076157.07084,1758076157.02109,0.0,0.0,0.0,3.89611,-14.43854,-12.71966,8.62,0.54,2.93,3.0
1758076157.0859,1758076157.03109,0.0,0.0,0.0,3.32316,-13.40721,-11.57375,8.62,0.54,2.93,3.0
1758076157.08789,1758076157.04109,0.0,0.0,0.0,3.09397,-12.49048,-9.33921,9.04,0.4,2.98,3.0
1758076157.10273,1758076157.05109,0.0,0.0,0.0,3.49504,-11.34457,-7.33386,9.33,0.32,3.06,3.0
1758076157.11905,1758076157.06109,0.0,0.0,0.0,4.35448,-10.65701,-5.61499,9.33,0.32,3.06,3.0
1758076157.12,1758076157.07109,0.0,0.0,0.0,5.90147,-9.85487,-4.0107,9.52,0.23,3.11,3.0
1758076157.13478,1758076157.08109,0.0,0.0,0.0,8.36518,-9.28192,-2.57831,9.52,0.23,3.11,3.0
1758076157.13595,1758076157.09109,0.0,0.0,0.0,10.65701,-9.33921,-1.71887,9.42,0.12,3.26,3.0
1758076157.15087,1758076157.10109,0.0,0.0,0.0,12.83425,-10.19865,-1.48969,9.42,0.12,3.26,3.0
1758076157.1671,1758076157.11109,0.0,0.0,0.0,15.29797,-11.51645,-1.60428,9.09,0.04,3.26,3.0
1758076157.1683,1758076157.12109,0.0,0.0,0.0,17.6471,-12.43318,-2.29183,9.09,0.04,3.26,3.0
1758076157.18318,1758076157.13109,0.0,0.0,0.0,18.44924,-12.60507,-3.95341,9.06,0.07,3.26,3.0
1758076157.19914,1758076157.14109,0.0,0.0,0.0,18.73572,-13.5791,-5.95876,8.99,0.41,3.12,3.0
1758076157.2003,1758076157.15109,0.0,0.0,0.0,18.22006,-14.72501,-8.36518,8.99,0.41,3.12,3.0
1758076157.21501,1758076157.16109,0.0,0.0,0.0,16.67307,-15.69904,-11.63104,9.0,0.8,2.75,3.0
1758076157.2163,1758076157.17109,0.0,0.0,0.0,15.24068,-16.84496,-12.54778,9.0,0.8,2.75,3.0
1758076157.23089,1758076157.18109,0.0,0.0,0.0,13.75099,-18.10547,-12.54778,9.01,1.05,2.56,3.0
1758076157.24692,1758076157.19109,0.0,0.0,0.0,12.2613,-18.56383,-11.63104,9.01,1.05,2.56,3.0
1758076157.24916,1758076157.20109,0.0,0.0,0.0,10.48513,-18.16276,-8.76626,9.13,1.1,2.42,3.0
1758076157.26413,1758076157.21109,0.0,0.0,0.0,9.5684,-17.13144,-6.24524,9.23,1.03,2.44,3.0
1758076157.26532,1758076157.22109,0.0,0.0,0.0,8.65166,-15.69904,-3.89611,9.23,1.03,2.44,3.0
1758076157.28095,1758076157.23109,0.0,0.0,0.0,7.67763,-14.09476,-1.83346,9.25,0.91,2.52,3.0
1758076157.29717,1758076157.24109,0.0,0.0,0.0,6.7609,-11.11538,0.40107,9.25,0.91,2.52,3.0
1758076157.29803,1758076157.25109,0.0,0.0,0.0,5.50039,-8.42248,0.0573,9.26,0.89,2.67,3.0
1758076157.31314,1758076157.26109,0.0,0.0,0.0,4.1253,-6.41713,-1.83346,9.26,0.89,2.67,3.0
1758076157.31486,1758076157.27109,0.0,0.0,0.0,2.34913,-10.94349,-5.55769,9.11,0.98,2.7,3.0
1758076157.33113,1758076157.28109,0.0,0.0,0.0,-0.0573,-14.32395,-11.45916,8.57,1.12,2.51,3.0
1758076157.34711,1758076157.29109,0.0,0.0,0.0,-1.60428,-17.81899,-14.83961,8.57,1.12,2.51,3.0
1758076157.34834,1758076157.30109,0.0,0.0,0.0,-3.38045,-17.76169,-18.85031,8.9,1.2,2.36,3.0
1758076157.36321,1758076157.31109,0.0,0.0,0.0,-5.55769,-15.41257,-22.74642,8.9,1.2,2.36,3.0
1758076157.37913,1758076157.32109,0.0,0.0,0.0,-6.87549,-12.204,-24.29341,9.31,1.24,2.18,3.0
1758076157.38012,1758076157.33109,0.0,0.0,0.0,-7.96411,-8.88085,-24.75178,9.31,1.24,2.18,3.0
1758076157.39487,1758076157.34109,0.0,0.0,0.0,-8.76626,-5.72958,-24.17882,9.55,1.25,2.13,3.0
1758076157.39607,1758076157.35109,0.0,0.0,0.0,-10.02676,-1.3178,-21.60051,9.46,1.25,1.93,3.0
1758076157.41092,1758076157.36109,0.0,0.0,0.0,-10.48513,2.6929,-18.73572,9.46,1.25,1.93,3.0
1758076157.4277,1758076157.37109,0.0,0.0,0.0,-10.37054,6.07335,-15.41257,9.45,1.14,1.89,3.0
1758076157.42886,1758076157.38109,0.0,0.0,0.0,-10.37054,8.88085,-11.91752,9.45,1.14,1.89,3.0
1758076157.44417,1758076157.39109,0.0,0.0,0.0,-10.19865,6.7609,-8.36518,9.21,0.96,1.95,3.0
1758076157.44507,1758076157.40109,0.0,0.0,0.0,-9.11003,-2.46372,-6.8182,9.21,0.96,1.95,3.0
1758076157.46105,1758076157.41109,0.0,0.0,0.0,-9.28192,-14.49583,-6.53172,8.3,0.73,2.04,3.0
1758076157.47791,1758076157.42109,0.0,0.0,0.0,-8.99544,-24.63719,-5.55769,8.3,0.73,2.04,3.0
1758076157.47913,1758076157.43109,0.0,0.0,0.0,-9.96947,-7.21927,-5.27121,8.87,0.75,1.91,3.0
1758076157.49387,1758076157.44109,0.0,0.0,0.0,-12.60507,23.0329,-8.02141,12.78,1.36,1.88,3.0
1758076157.49549,1758076157.45109,0.0,0.0,0.0,-15.35527,44.23235,-12.71966,12.78,1.36,1.88,3.0
1758076157.51089,1758076157.46109,0.0,0.0,0.0,-18.10547,42.68536,-18.9649,10.29,2.05,2.86,3.0
1758076157.52688,1758076157.47109,0.0,0.0,0.0,-22.74642,18.33465,-22.97561,10.29,2.05,2.86,3.0
1758076157.52889,1758076157.48109,0.0,0.0,0.0,-24.63719,16.272,-22.86102,8.09,2.08,2.47,3.0
1758076157.54421,1758076157.49109,0.0,0.0,0.0,-25.61122,17.76169,-20.45459,8.09,2.08,2.47,3.0
1758076157.54666,1758076157.50109,0.0,0.0,0.0,-26.52795,15.35527,-14.83961,9.48,1.63,1.71,3.0
1758076157.56302,1758076157.51109,0.0,0.0,0.0,-26.52795,16.55848,-10.65701,9.77,1.21,2.27,3.0
1758076157.57916,1758076157.52109,0.0,0.0,0.0,-25.38203,18.73572,-6.41713,9.77,1.21,2.27,3.0
1758076157.58006,1758076157.53109,0.0,0.0,0.0,-23.31938,17.87628,-2.6929,10.32,0.74,2.52,3.0
1758076157.59518,1758076157.54109,0.0,0.0,0.0,-19.25138,11.91752,1.08862,10.32,0.74,2.52,3.0
1758076157.59607,1758076157.55109,0.0,0.0,0.0,-16.61578,9.5684,1.60428,10.01,0.45,2.6,3.0
1758076157.61092,1758076157.56109,0.0,0.0,0.0,-13.98017,10.25595,1.03132,10.01,0.45,2.6,3.0
1758076157.62706,1758076157.57109,0.0,0.0,0.0,-11.74564,11.80293,-0.40107,10.61,0.4,2.73,3.0
1758076157.62896,1758076157.58109,0.0,0.0,0.0,-9.22462,14.83961,-1.94806,10.84,0.59,2.74,3.0
1758076157.64422,1758076157.59109,0.0,0.0,0.0,-8.42248,18.10547,-2.11994,10.84,0.59,2.74,3.0
1758076157.64537,1758076157.60109,0.0,0.0,0.0,-8.136,19.70975,-2.23454,10.94,0.91,2.6,3.0
1758076157.66991,1758076157.61109,0.0,0.0,0.0,-8.47978,21.31403,-2.46372,10.94,0.91,2.6,3.0
1758076157.69244,1758076157.62109,0.0,0.0,0.0,-9.11003,24.17882,-3.09397,11.14,1.18,2.77,3.0
1758076157.69385,1758076157.63109,0.0,0.0,0.0,-9.62569,26.41335,-3.72423,11.14,1.18,2.77,3.0
1758076157.69508,1758076157.64109,0.0,0.0,0.0,-9.74028,28.64789,-3.83882,11.7,1.38,2.98,3.0
1758076157.69653,1758076157.65109,0.0,0.0,0.0,-10.08406,30.82513,-3.72423,11.7,1.38,2.98,3.0
1758076157.7128,1758076157.66109,0.0,0.0,0.0,-10.59972,33.51803,-3.09397,12.21,1.52,3.25,3.0
1758076157.72896,1758076157.67109,0.0,0.0,0.0,-10.71431,33.74722,-2.46372,12.59,1.58,3.55,3.0
1758076157.73021,1758076157.68109,0.0,0.0,0.0,-10.59972,32.54401,-2.11994,12.59,1.58,3.55,3.0
1758076157.74686,1758076157.69109,0.0,0.0,0.0,-10.19865,31.62727,-1.71887,12.84,1.52,3.69,3.0
1758076157.74783,1758076157.70109,0.0,0.0,0.0,-9.68299,30.48136,-1.43239,12.84,1.52,3.69,3.0
1758076157.76323,1758076157.71109,0.0,0.0,0.0,-9.05273,30.30947,-1.3751,12.97,1.43,3.77,3.0
1758076157.77923,1758076157.72109,0.0,0.0,0.0,-8.59437,31.28349,-1.3751,12.97,1.43,3.77,3.0
1758076157.7802,1758076157.73109,0.0,0.0,0.0,-8.02141,32.71589,-0.22918,13.1,1.31,4.04,3.0
1758076157.79489,1758076157.74109,0.0,0.0,0.0,-8.136,36.49741,0.85944,13.14,1.16,4.14,3.0
1758076157.7983,1758076157.75109,0.0,0.0,0.0,-8.93814,40.62271,2.40642,13.14,1.16,4.14,3.0
1758076157.81304,1758076157.76109,0.0,0.0,0.0,-10.19865,42.62806,4.0107,12.67,1.13,4.48,3.0
1758076157.82934,1758076157.77109,0.0,0.0,0.0,-13.17803,40.68,6.7609,12.67,1.13,4.48,3.0
1758076157.83023,1758076157.78109,0.0,0.0,0.0,-15.87093,37.52874,8.59437,11.31,1.36,4.65,3.0
1758076157.84507,1758076157.79109,0.0,0.0,0.0,-18.79302,33.9764,9.85487,11.31,1.36,4.65,3.0
1758076157.84861,1758076157.80109,0.0,0.0,0.0,-22.05888,29.56462,10.37054,9.96,1.53,4.46,3.0
1758076157.86434,1758076157.81109,0.0,0.0,0.0,-26.75713,23.31938,10.48513,8.25,1.48,4.13,3.0
1758076157.86603,1758076157.82109,0.0,0.0,0.0,-30.25217,16.73037,9.62569,8.25,1.48,4.13,3.0
1758076157.88201,1758076157.83109,0.0,0.0,0.0,-33.34615,9.11003,8.88085,6.37,1.26,4.19,3.0
1758076157.89797,1758076157.84109,0.0,0.0,0.0,-35.86716,0.57296,8.47978,6.37,1.26,4.19,3.0
1758076157.89918,1758076157.85109,0.0,0.0,0.0,-38.50277,-14.72501,7.73493,5.24,0.94,4.38,3.0
1758076157.9139,1758076157.86109,0.0,0.0,0.0,-39.4195,-27.10091,7.33386,5.24,0.94,4.38,3.0
1758076157.91516,1758076157.87109,0.0,0.0,0.0,-39.24761,-40.16434,7.21927,4.68,0.25,4.52,3.0
1758076157.93106,1758076157.88109,0.0,0.0,0.0,-38.21629,-53.05589,7.96411,4.68,0.25,4.52,3.0
1758076157.94706,1758076157.89109,0.0,0.0,0.0,-35.58068,-68.92683,8.99544,5.01,-0.45,4.35,3.0
1758076157.94821,1758076157.90109,0.0,0.0,0.0,-33.51803,-74.36993,9.96947,6.27,-0.84,3.98,3.0
1758076157.96331,1758076157.91109,0.0,0.0,0.0,-31.62727,-75.68773,10.8862,6.27,-0.84,3.98,3.0
1758076157.97907,1758076157.92109,0.0,0.0,0.0,-29.67921,-74.14074,11.17268,7.59,-0.86,3.82,3.0
1758076157.98133,1758076157.93109,0.0,0.0,0.0,-28.76248,-73.05212,10.71431,7.59,-0.86,3.82,3.0
1758076157.99642,1758076157.94109,0.0,0.0,0.0,-28.30412,-71.10406,9.91217,8.07,-0.58,3.55,3.0
1758076157.99723,1758076157.95109,0.0,0.0,0.0,-28.36141,-67.72362,8.65166,8.07,-0.58,3.55,3.0
1758076158.01319,1758076157.96109,0.0,0.0,0.0,-28.13223,-61.65026,7.62034,8.51,-0.34,3.34,3.0
1758076158.02896,1758076157.97109,0.0,0.0,0.0,-27.96034,-56.32175,7.73493,8.82,-0.35,3.14,3.0
1758076158.03017,1758076157.98109,0.0,0.0,0.0,-27.50197,-50.01921,8.70896,8.82,-0.35,3.14,3.0
1758076158.04543,1758076157.99109,0.0,0.0,0.0,-27.04361,-42.85724,10.54242,9.11,-0.64,2.8,3.0
1758076158.04635,1758076158.00109,0.0,0.0,0.0,-25.49662,-31.16891,14.43854,9.11,-0.64,2.8,3.0
1758076158.06112,1758076158.01109,0.0,0.0,0.0,-24.00693,-23.72045,17.47521,9.14,-1.02,2.48,3.0
1758076158.0784,1758076158.02109,0.0,0.0,0.0,-22.34536,-16.67307,19.59516,9.14,-1.02,2.48,3.0
1758076158.07929,1758076158.03109,0.0,0.0,0.0,-20.34,-9.85487,21.60051,9.05,-1.21,2.39,3.0
1758076158.09411,1758076158.04109,0.0,0.0,0.0,-17.30333,-0.80214,22.68913,9.08,-1.16,2.43,3.0
1758076158.09531,1758076158.05109,0.0,0.0,0.0,-15.35527,4.35448,22.11617,9.08,-1.16,2.43,3.0
1758076158.1124,1758076158.06109,0.0,0.0,0.0,-13.5791,8.76626,20.79837,9.02,-1.01,2.54,3.0
1758076158.12815,1758076158.07109,0.0,0.0,0.0,-11.86023,12.2613,18.9649,9.02,-1.01,2.54,3.0
1758076158.12934,1758076158.08109,0.0,0.0,0.0,-10.19865,15.98552,16.3293,8.96,-0.93,2.62,3.0
1758076158.14432,1758076158.09109,0.0,0.0,0.0,-9.11003,18.50654,14.72501,8.96,-0.93,2.62,3.0
1758076158.14609,1758076158.10109,0.0,0.0,0.0,-8.65166,21.88699,13.69369,9.02,-0.89,2.65,3.0
1758076158.16279,1758076158.11109,0.0,0.0,0.0,-8.25059,24.29341,12.2613,9.02,-0.89,2.65,3.0
1758076158.17951,1758076158.12109,0.0,0.0,0.0,-8.47978,24.92367,11.51645,8.89,-0.82,2.82,3.0
1758076158.18033,1758076158.13109,0.0,0.0,0.0,-8.70896,24.00693,10.71431,8.62,-0.74,3.11,3.0
1758076158.19811,1758076158.14109,0.0,0.0,0.0,-8.99544,23.26209,10.08406,8.62,-0.74,3.11,3.0
1758076158.19933,1758076158.15109,0.0,0.0,0.0,-9.05273,20.85567,9.68299,8.6,-0.73,3.15,3.0
1758076158.21413,1758076158.16109,0.0,0.0,0.0,-8.99544,18.33465,9.39651,8.6,-0.73,3.15,3.0
1758076158.21571,1758076158.17109,0.0,0.0,0.0,-8.93814,15.87093,9.4538,8.45,-0.72,3.09,3.0
1758076158.23211,1758076158.18109,0.0,0.0,0.0,-8.30789,13.86558,9.62569,8.45,-0.72,3.09,3.0
1758076158.24847,1758076158.19109,0.0,0.0,0.0,-6.7609,11.28727,11.11538,8.49,-0.77,3.16,3.0
1758076158.24935,1758076158.20109,0.0,0.0,0.0,-5.72958,7.96411,12.77696,8.35,-0.92,3.02,3.0
1758076158.2644,1758076158.21109,0.0,0.0,0.0,-4.46907,3.72423,14.20935,8.35,-0.92,3.02,3.0
1758076158.26534,1758076158.22109,0.0,0.0,0.0,-3.95341,-1.20321,15.29797,8.25,-0.97,2.91,3.0
1758076158.28134,1758076158.23109,0.0,0.0,0.0,-4.0107,-8.76626,14.66772,8.25,-0.97,2.91,3.0
1758076158.29745,1758076158.24109,0.0,0.0,0.0,-4.69825,-13.5218,12.83425,8.38,-0.83,2.78,3.0
1758076158.29834,1758076158.25109,0.0,0.0,0.0,-6.13065,-17.47521,10.25595,8.38,-0.83,2.78,3.0
1758076158.3132,1758076158.26109,0.0,0.0,0.0,-7.67763,-20.85567,7.39116,8.68,-0.6,2.74,3.0
1758076158.32916,1758076158.27109,0.0,0.0,0.0,-10.65701,-25.43933,2.92208,8.92,-0.42,2.71,3.0
1758076158.33115,1758076158.28109,0.0,0.0,0.0,-12.83425,-27.67386,0.40107,8.92,-0.42,2.71,3.0
1758076158.34618,1758076158.29109,0.0,0.0,0.0,-14.78231,-30.02299,-1.66158,9.07,-0.4,2.61,3.0
1758076158.34848,1758076158.30109,0.0,0.0,0.0,-16.67307,-31.97105,-3.20856,9.07,-0.4,2.61,3.0
1758076158.36315,1758076158.31109,0.0,0.0,0.0,-18.9649,-33.63263,-3.95341,9.15,-0.55,2.39,3.0
1758076158.37946,1758076158.32109,0.0,0.0,0.0,-19.82434,-33.34615,-3.66693,9.15,-0.55,2.39,3.0
1758076158.38135,1758076158.33109,0.0,0.0,0.0,-19.82434,-32.20023,-2.92208,9.39,-0.79,2.25,3.0
1758076158.39608,1758076158.34109,0.0,0.0,0.0,-17.99088,-28.36141,-0.57296,9.39,-0.79,2.25,3.0
1758076158.3973,1758076158.35109,0.0,0.0,0.0,-15.69904,-22.40265,1.94806,9.63,-1.24,2.14,3.0
1758076158.41311,1758076158.36109,0.0,0.0,0.0,-12.54778,-14.9542,4.87014,10.03,-1.82,1.9,3.0
1758076158.42923,1758076158.37109,0.0,0.0,0.0,-8.93814,-7.96411,7.84952,10.03,-1.82,1.9,3.0
1758076158.43115,1758076158.38109,0.0,0.0,0.0,-2.86479,-1.48969,12.14671,9.75,-2.16,1.86,3.0
1758076158.44729,1758076158.39109,0.0,0.0,0.0,0.85944,-0.17189,14.03747,9.75,-2.16,1.86,3.0
1758076158.44897,1758076158.40109,0.0,0.0,0.0,4.64096,-0.11459,15.12609,9.15,-2.18,1.75,3.0
1758076158.46445,1758076158.41109,0.0,0.0,0.0,8.136,0.51566,15.24068,9.15,-2.18,1.75,3.0
1758076158.46812,1758076158.42109,0.0,0.0,0.0,12.204,3.20856,13.75099,9.07,-2.01,1.67,3.0
1758076158.48345,1758076158.43109,0.0,0.0,0.0,14.72501,4.92744,12.2613,9.23,-1.8,1.62,3.0
1758076158.49948,1758076158.44109,0.0,0.0,0.0,16.73037,6.41713,10.59972,9.23,-1.8,1.62,3.0
1758076158.50367,1758076158.45109,0.0,0.0,0.0,18.79302,9.05273,8.65166,9.32,-1.64,1.57,3.0
1758076158.5192,1758076158.46109,0.0,0.0,0.0,20.85567,13.12073,5.78687,9.32,-1.64,1.57,3.0
1758076158.52044,1758076158.47109,0.0,0.0,0.0,21.42862,13.5791,3.20856,9.28,-1.48,1.52,3.0
1758076158.53519,1758076158.48109,0.0,0.0,0.0,22.34536,13.98017,0.80214,9.28,-1.48,1.52,3.0
1758076158.538,1758076158.49109,0.0,0.0,0.0,22.23076,19.07949,-3.95341,9.12,-1.26,1.71,3.0
1758076158.5534,1758076158.50109,0.0,0.0,0.0,25.43933,45.43555,-4.58366,11.06,-1.46,1.72,3.0
1758076158.56947,1758076158.51109,0.0,0.0,0.0,25.89769,47.09713,-5.61499,11.06,-1.46,1.72,3.0
1758076158.5743,1758076158.52109,0.0,0.0,0.0,26.87172,27.38738,-3.38045,8.44,-1.56,2.78,3.0
1758076158.58947,1758076158.53109,0.0,0.0,0.0,32.20023,7.44845,3.49504,8.44,-1.56,2.78,3.0
1758076158.5904,1758076158.54109,0.0,0.0,0.0,34.43476,0.51566,7.16197,9.73,-2.08,2.42,3.0
1758076158.60624,1758076158.55109,0.0,0.0,0.0,34.66395,5.4431,8.88085,9.73,-2.08,2.42,3.0
1758076158.60819,1758076158.56109,0.0,0.0,0.0,35.06502,9.5684,9.96947,10.97,-2.16,1.65,3.0
1758076158.62348,1758076158.57109,0.0,0.0,0.0,33.80451,9.5684,6.41713,10.97,-2.16,1.65,3.0
1758076158.63923,1758076158.58109,0.0,0.0,0.0,32.25753,1.43239,3.26586,9.78,-1.98,2.53,3.0
1758076158.64049,1758076158.59109,0.0,0.0,0.0,31.56997,-4.23989,2.46372,9.42,-1.4,3.08,3.0
1758076158.65527,1758076158.60109,0.0,0.0,0.0,29.73651,2.29183,1.03132,9.42,-1.4,3.08,3.0
1758076158.65644,1758076158.61109,0.0,0.0,0.0,25.15285,17.24603,-2.63561,11.76,-0.76,3.22,3.0
1758076158.67327,1758076158.62109,0.0,0.0,0.0,22.05888,21.02755,-5.15662,11.76,-0.76,3.22,3.0
1758076158.68925,1758076158.63109,0.0,0.0,0.0,19.25138,22.05888,-7.21927,11.42,-0.12,3.45,3.0
1758076158.69044,1758076158.64109,0.0,0.0,0.0,16.50119,22.97561,-8.76626,11.42,-0.12,3.45,3.0
1758076158.70529,1758076158.65109,0.0,0.0,0.0,13.06344,24.75178,-10.02676,11.75,0.05,3.46,3.0
1758076158.70754,1758076158.66109,0.0,0.0,0.0,11.51645,24.75178,-10.37054,12.23,-0.41,3.68,3.0
1758076158.72352,1758076158.67109,0.0,0.0,0.0,11.22997,23.89234,-9.74028,12.23,-0.41,3.68,3.0
1758076158.73955,1758076158.68109,0.0,0.0,0.0,11.86023,23.72045,-8.76626,12.89,-1.36,4.28,3.0
1758076158.74045,1758076158.69109,0.0,0.0,0.0,14.32395,23.66316,-6.87549,12.89,-1.36,4.28,3.0
1758076158.75553,1758076158.70109,0.0,0.0,0.0,16.38659,23.37668,-5.21392,13.57,-2.21,4.45,3.0
1758076158.75726,1758076158.71109,0.0,0.0,0.0,18.44924,22.57454,-2.97938,13.57,-2.21,4.45,3.0
1758076158.77395,1758076158.72109,0.0,0.0,0.0,19.99623,23.0329,0.97403,13.71,-2.39,4.5,3.0
1758076158.78957,1758076158.73109,0.0,0.0,0.0,21.08485,23.54857,3.38045,13.45,-1.79,4.65,3.0
1758076158.79526,1758076158.74109,0.0,0.0,0.0,21.25674,22.86102,5.61499,13.45,-1.79,4.65,3.0
1758076158.79668,1758076158.75109,0.0,0.0,0.0,21.02755,20.85567,7.16197,12.65,-0.91,4.75,3.0
1758076158.81309,1758076158.76109,0.0,0.0,0.0,20.22541,17.01685,7.96411,12.65,-0.91,4.75,3.0
1758076158.82957,1758076158.77109,0.0,0.0,0.0,19.59516,15.0115,7.39116,11.85,-0.27,4.56,3.0
1758076158.83369,1758076158.78109,0.0,0.0,0.0,18.90761,12.71966,5.78687,11.85,-0.27,4.56,3.0
1758076158.84968,1758076158.79109,0.0,0.0,0.0,18.79302,9.68299,3.03668,10.8,-0.28,4.13,3.0
1758076158.85128,1758076158.80109,0.0,0.0,0.0,19.48057,3.95341,-1.20321,10.8,-0.28,3.79,3.0
1758076158.86629,1758076158.81109,0.0,0.0,0.0,20.11082,0.45837,-3.89611,9.28,-0.6,3.79,3.0
1758076158.86942,1758076158.82109,0.0,0.0,0.0,21.14215,-3.83882,-6.18794,8.01,-0.7,3.63,3.0
1758076158.88428,1758076158.83109,0.0,0.0,0.0,21.7151,-8.136,-8.02141,8.01,-0.7,3.63,3.0
1758076158.88658,1758076158.84109,0.0,0.0,0.0,22.68913,-12.60507,-9.74028,7.08,-0.55,3.6,3.0
1758076158.90359,1758076158.85109,0.0,0.0,0.0,23.26209,-17.30333,-10.31324,7.08,-0.55,3.6,3.0
1758076158.91923,1758076158.86109,0.0,0.0,0.0,23.54857,-22.97561,-10.25595,6.26,-0.24,3.79,3.0
1758076158.92125,1758076158.87109,0.0,0.0,0.0,23.54857,-28.01764,-9.85487,6.26,-0.24,3.79,3.0
1758076158.93661,1758076158.88109,0.0,0.0,0.0,22.74642,-35.2369,-9.39651,5.95,0.2,3.86,3.0
1758076158.93832,1758076158.89109,0.0,0.0,0.0,21.7151,-39.4768,-8.88085,5.94,0.69,3.68,3.0
1758076158.95333,1758076158.90109,0.0,0.0,0.0,20.62648,-42.85724,-8.136,5.94,0.69,3.68,3.0
1758076158.96971,1758076158.91109,0.0,0.0,0.0,19.25138,-44.00316,-7.39116,6.44,0.95,3.65,3.0
1758076158.97136,1758076158.92109,0.0,0.0,0.0,17.18874,-40.85189,-6.70361,6.44,0.95,3.65,3.0
1758076158.98746,1758076158.93109,0.0,0.0,0.0,15.98552,-38.1017,-6.53172,7.38,0.99,3.5,3.0
1758076158.98961,1758076158.94109,0.0,0.0,0.0,15.46986,-34.43476,-5.90147,7.38,0.99,3.5,3.0
1758076159.00467,1758076158.95109,0.0,0.0,0.0,15.41257,-30.25217,-5.90147,8.22,0.85,3.42,3.0
1758076159.00829,1758076158.96109,0.0,0.0,0.0,15.35527,-24.57989,-6.35983,8.73,0.71,3.17,3.0
1758076159.02337,1758076158.97109,0.0,0.0,0.0,15.06879,-20.11082,-7.16197,8.73,0.71,3.17,3.0
1758076159.02536,1758076158.98109,0.0,0.0,0.0,14.72501,-15.06879,-8.76626,8.99,0.76,2.94,3.0
1758076159.0437,1758076158.99109,0.0,0.0,0.0,13.69369,-7.21927,-11.51645,8.99,0.76,2.94,3.0
1758076159.05938,1758076159.00109,0.0,0.0,0.0,12.204,-3.09397,-13.46451,8.93,0.97,2.88,3.0
1758076159.06138,1758076159.01109,0.0,0.0,0.0,10.37054,-0.0573,-15.12609,8.93,0.97,2.88,3.0
1758076159.07661,1758076159.02109,0.0,0.0,0.0,8.65166,1.3178,-16.38659,8.65,1.18,2.83,3.0
1758076159.07846,1758076159.03109,0.0,0.0,0.0,5.55769,1.43239,-17.30333,8.51,1.18,2.73,3.0
1758076159.09464,1758076159.04109,0.0,0.0,0.0,3.66693,0.97403,-16.84496,8.51,1.19,2.73,3.0
1758076159.09797,1758076159.05109,0.0,0.0,0.0,2.00535,0.0,-16.04282,8.66,1.05,2.75,3.0
1758076159.11618,1758076159.06109,0.0,0.0,0.0,0.74485,-1.77617,-14.38124,8.66,1.05,2.75,3.0
1758076159.11896,1758076159.07109,0.0,0.0,0.0,0.34377,-4.29718,-11.11538,8.74,0.77,2.94,3.0
1758076159.13776,1758076159.08109,0.0,0.0,0.0,1.14592,-5.72958,-8.88085,8.74,0.77,2.94,3.0
1758076159.13876,1758076159.09109,0.0,0.0,0.0,2.40642,-7.50575,-6.58902,8.85,0.41,3.04,3.0
1758076159.15441,1758076159.10109,0.0,0.0,0.0,4.1253,-9.5684,-4.35448,8.85,0.41,3.04,3.0
1758076159.1556,1758076159.11109,0.0,0.0,0.0,7.84952,-11.45916,-1.3751,8.74,0.04,3.07,3.0
1758076159.17368,1758076159.12109,0.0,0.0,0.0,10.59972,-14.20935,0.57296,8.62,-0.28,2.95,3.0
1758076159.18931,1758076159.13109,0.0,0.0,0.0,13.17803,-16.04282,1.14592,8.62,-0.28,2.95,3.0
1758076159.1914,1758076159.14109,0.0,0.0,0.0,15.12609,-16.272,0.57296,8.65,-0.31,2.95,3.0
1758076159.2069,1758076159.15109,0.0,0.0,0.0,17.18874,-18.22006,-0.85944,8.65,-0.31,2.95,3.0
1758076159.20844,1758076159.16109,0.0,0.0,0.0,17.99088,-21.02755,-2.63561,8.31,-0.02,2.78,3.0
1758076159.22374,1758076159.17109,0.0,0.0,0.0,18.62113,-23.49127,-4.35448,8.31,-0.02,2.78,3.0
1758076159.23951,1758076159.18109,0.0,0.0,0.0,19.42327,-26.52795,-5.84417,8.16,0.25,2.6,3.0
1758076159.24169,1758076159.19109,0.0,0.0,0.0,19.53786,-27.96034,-5.78687,8.28,0.39,2.34,3.0
1758076159.2566,1758076159.20109,0.0,0.0,0.0,19.70975,-28.59059,-4.92744,8.28,0.39,2.34,3.0
1758076159.25758,1758076159.21109,0.0,0.0,0.0,19.82434,-28.24682,-3.26586,8.64,0.37,2.27,3.0
1758076159.27271,1758076159.22109,0.0,0.0,0.0,20.3973,-25.43933,-0.0573,8.64,0.37,2.27,3.0
1758076159.28875,1758076159.23109,0.0,0.0,0.0,20.85567,-22.97561,2.00535,9.13,0.34,2.23,3.0
1758076159.28961,1758076159.24109,0.0,0.0,0.0,21.48592,-19.53786,3.89611,9.13,0.34,2.23,3.0
1758076159.30471,1758076159.25109,0.0,0.0,0.0,22.00158,-15.46986,5.21392,9.53,0.33,2.18,3.0
1758076159.30559,1758076159.26109,0.0,0.0,0.0,21.94428,-8.36518,5.4431,9.75,0.4,2.13,3.0
1758076159.32145,1758076159.27109,0.0,0.0,0.0,21.37133,-3.38045,4.69825,9.75,0.4,2.13,3.0
1758076159.33747,1758076159.28109,0.0,0.0,0.0,20.51189,0.97403,3.55234,9.69,0.59,2.0,3.0
1758076159.33896,1758076159.29109,0.0,0.0,0.0,19.42327,4.87014,2.46372,9.69,0.59,2.0,3.0
1758076159.3536,1758076159.30109,0.0,0.0,0.0,17.53251,9.74028,1.03132,9.6,0.76,1.99,3.0
1758076159.36938,1758076159.31109,0.0,0.0,0.0,15.98552,11.86023,-0.57296,9.6,0.76,1.99,3.0
1758076159.37225,1758076159.32109,0.0,0.0,0.0,14.72501,9.74028,-2.06265,9.5,0.89,2.14,3.0
1758076159.38842,1758076159.33109,0.0,0.0,0.0,13.5791,4.0107,-2.92208,9.5,0.89,2.14,3.0
1758076159.38945,1758076159.34109,0.0,0.0,0.0,10.94349,0.22918,-6.13065,9.05,0.96,2.0,3.0
1758076159.40449,1758076159.35109,0.0,0.0,0.0,9.5684,0.22918,-7.79223,9.48,1.07,2.0,3.0
1758076159.40647,1758076159.36109,0.0,0.0,0.0,7.44845,2.34913,-10.8862,9.48,1.07,2.0,3.0
1758076159.42175,1758076159.37109,0.0,0.0,0.0,4.29718,4.1253,-14.72501,9.57,1.19,1.69,3.0
1758076159.43874,1758076159.38109,0.0,0.0,0.0,2.29183,7.39116,-16.90226,9.57,1.19,1.69,3.0
1758076159.43966,1758076159.39109,0.0,0.0,0.0,0.74485,8.99544,-18.33465,9.44,1.24,1.66,3.0
1758076159.45457,1758076159.40109,0.0,0.0,0.0,-0.51566,10.48513,-18.9649,9.44,1.24,1.66,3.0
1758076159.45575,1758076159.41109,0.0,0.0,0.0,-2.11994,11.22997,-18.90761,9.22,1.18,1.51,3.0
1758076159.47155,1758076159.42109,0.0,0.0,0.0,-2.97938,11.00079,-17.87628,9.01,1.12,1.46,3.0
1758076159.48838,1758076159.43109,0.0,0.0,0.0,-3.55234,9.74028,-15.92823,9.01,1.12,1.46,3.0
1758076159.4897,1758076159.44109,0.0,0.0,0.0,-4.0107,7.84952,-13.5218,8.94,0.99,1.31,3.0
1758076159.50558,1758076159.45109,0.0,0.0,0.0,-4.23989,3.66693,-8.36518,8.94,0.99,1.31,3.0
1758076159.50832,1758076159.46109,0.0,0.0,0.0,-3.89611,0.57296,-5.09932,9.22,1.0,1.42,3.0
1758076159.52375,1758076159.47109,0.0,0.0,0.0,-3.66693,-2.92208,-2.06265,9.22,1.0,1.42,3.0
1758076159.53978,1758076159.48109,0.0,0.0,0.0,-2.92208,-0.80214,1.14592,9.84,1.02,1.68,3.0
1758076159.54098,1758076159.49109,0.0,0.0,0.0,-3.72423,28.64789,-0.45837,12.51,1.24,1.85,3.0
1758076159.55579,1758076159.50109,0.0,0.0,0.0,-4.23989,42.68536,-3.66693,12.51,1.24,1.85,3.0
1758076159.55674,1758076159.51109,0.0,0.0,0.0,-6.47442,36.49741,-8.30789,10.75,1.75,2.7,3.0
1758076159.57181,1758076159.52109,0.0,0.0,0.0,-8.76626,23.20479,-12.71966,10.75,1.75,2.7,3.0
1758076159.58853,1758076159.53109,0.0,0.0,0.0,-9.96947,13.69369,-14.20935,9.16,1.81,2.0,3.0
1758076159.58976,1758076159.54109,0.0,0.0,0.0,-9.62569,9.05273,-12.2613,9.16,1.81,2.0,3.0
1758076159.60588,1758076159.55109,0.0,0.0,0.0,-9.5684,4.46907,-9.68299,9.47,1.56,1.65,3.0
1758076159.60708,1758076159.56109,0.0,0.0,0.0,-10.19865,7.16197,-7.62034,9.47,1.56,1.65,3.0
1758076159.62167,1758076159.57109,0.0,0.0,0.0,-9.5684,25.26744,-5.95876,11.59,1.36,2.87,3.0
1758076159.63858,1758076159.58109,0.0,0.0,0.0,-8.99544,32.37212,-4.46907,13.58,1.04,3.49,3.0
1758076159.63977,1758076159.59109,0.0,0.0,0.0,-8.59437,32.37212,-3.03668,13.58,1.04,3.49,3.0
1758076159.65484,1758076159.60109,0.0,0.0,0.0,-7.62034,33.80451,-2.40642,13.65,0.7,3.69,3.0
1758076159.65584,1758076159.61109,0.0,0.0,0.0,-6.99009,38.38818,-1.66158,13.65,0.7,3.69,3.0
1758076159.67183,1758076159.62109,0.0,0.0,0.0,-6.70361,40.33623,-0.45837,14.61,0.95,3.86,3.0
1758076159.68855,1758076159.63109,0.0,0.0,0.0,-7.16197,38.90384,0.22918,14.61,0.95,3.86,3.0
1758076159.68982,1758076159.64109,0.0,0.0,0.0,-8.59437,37.58603,0.34377,14.46,1.75,4.26,3.0
1758076159.70466,1758076159.65109,0.0,0.0,0.0,-9.91217,36.84119,-0.40107,14.99,2.55,4.61,3.0
1758076159.70588,1758076159.66109,0.0,0.0,0.0,-11.17268,35.2942,-1.83346,14.99,2.55,4.61,3.0
1758076159.7227,1758076159.67109,0.0,0.0,0.0,-12.89155,33.05967,-3.38045,14.61,2.57,4.72,3.0
1758076159.73851,1758076159.68109,0.0,0.0,0.0,-16.21471,29.62192,-4.98473,14.61,2.57,4.72,3.0
1758076159.73979,1758076159.69109,0.0,0.0,0.0,-19.19409,26.75713,-5.32851,13.53,2.11,4.85,3.0
1758076159.75489,1758076159.70109,0.0,0.0,0.0,-22.34536,24.4653,-5.15662,13.53,2.11,4.85,3.0
1758076159.75589,1758076159.71109,0.0,0.0,0.0,-25.55392,22.51724,-4.29718,12.08,1.74,4.66,3.0
1758076159.77161,1758076159.72109,0.0,0.0,0.0,-30.59595,17.99088,-2.29183,10.21,1.49,4.29,3.0
1758076159.78786,1758076159.73109,0.0,0.0,0.0,-34.09099,13.5791,-1.71887,10.21,1.49,4.29,3.0
1758076159.78974,1758076159.74109,0.0,0.0,0.0,-36.95578,10.59972,-0.68755,8.01,1.26,3.9,3.0
1758076159.80468,1758076159.75109,0.0,0.0,0.0,-39.70598,4.92744,0.85944,8.01,1.26,3.9,3.0
1758076159.80758,1758076159.76109,0.0,0.0,0.0,-42.85724,-10.08406,3.72423,5.6,1.06,3.93,3.0
1758076159.82394,1758076159.77109,0.0,0.0,0.0,-44.00316,-22.57454,5.84417,5.6,1.06,3.93,3.0
1758076159.83993,1758076159.78109,0.0,0.0,0.0,-44.23235,-36.84119,7.96411,3.94,0.62,3.92,3.0
1758076159.84085,1758076159.79109,0.0,0.0,0.0,-43.37291,-51.73809,10.48513,3.94,0.62,3.92,3.0
1758076159.85665,1758076159.80108,0.0,0.0,0.0,-41.88322,-71.90621,11.80293,3.55,-0.19,3.84,3.0
1758076159.85848,1758076159.81108,0.0,0.0,0.0,-40.10705,-79.98491,12.43318,4.71,-0.97,3.66,3.0
1758076159.87364,1758076159.82108,0.0,0.0,0.0,-37.81522,-82.96429,12.49048,4.71,-0.97,3.66,3.0
1758076159.89289,1758076159.83108,0.0,0.0,0.0,-35.40879,-81.76109,10.54242,6.78,-1.35,3.59,3.0
1758076159.894,1758076159.84108,0.0,0.0,0.0,-34.49206,-78.839,8.25059,6.78,-1.35,3.59,3.0
1758076159.93746,1758076159.85108,0.0,0.0,0.0,-33.86181,-74.88559,5.21392,8.32,-1.19,3.57,3.0
1758076159.94181,1758076159.86108,0.0,0.0,0.0,-33.51803,-71.44785,2.34913,8.32,-1.19,3.57,3.0
1758076159.9433,1758076159.87108,0.0,0.0,0.0,-33.05967,-65.03072,-0.68755,8.76,-0.66,3.13,3.0
1758076159.94415,1758076159.88108,0.0,0.0,0.0,-32.6013,-59.01466,-1.60428,8.87,-0.35,2.76,3.0
1758076159.94563,1758076159.89108,0.0,0.0,0.0,-32.37212,-50.76406,-1.14592,8.87,-0.35,2.76,3.0
1758076159.94919,1758076159.90108,0.0,0.0,0.0,-31.85646,-41.59674,0.34377,9.07,-0.61,2.33,3.0
1758076159.96459,1758076159.91108,0.0,0.0,0.0,-30.48136,-27.73116,4.98473,9.07,-0.61,2.33,3.0
1758076159.96589,1758076159.92108,0.0,0.0,0.0,-28.76248,-18.44924,9.05273,9.13,-1.13,2.05,3.0
1758076159.98358,1758076159.93108,0.0,0.0,0.0,-26.69983,-10.08406,13.12073,9.13,-1.13,2.05,3.0
1758076159.99897,1758076159.94108,0.0,0.0,0.0,-24.35071,-2.40642,16.67307,9.21,-1.49,1.87,3.0
1758076159.99985,1758076159.95108,0.0,0.0,0.0,-20.85567,8.76626,20.11082,9.46,-1.51,1.97,3.0
1758076160.01493,1758076159.96108,0.0,0.0,0.0,-18.56383,15.64175,21.08485,9.46,-1.51,1.97,3.0
1758076160.01868,1758076159.97108,0.0,0.0,0.0,-16.61578,22.51724,21.02755,9.68,-1.28,2.06,3.0
1758076160.0337,1758076159.98108,0.0,0.0,0.0,-14.9542,28.01764,20.34,9.68,-1.28,2.06,3.0
1758076160.04991,1758076159.99108,0.0,0.0,0.0,-13.06344,33.34615,18.62113,9.53,-1.0,2.24,3.0
1758076160.05091,1758076160.00108,0.0,0.0,0.0,-12.49048,36.95578,17.01685,9.53,-1.0,2.24,3.0
1758076160.06645,1758076160.01108,0.0,0.0,0.0,-12.37589,41.42485,15.58445,9.47,-0.78,2.35,3.0
1758076160.06938,1758076160.02108,0.0,0.0,0.0,-12.54778,47.49821,12.89155,9.47,-0.78,2.35,3.0
1758076160.08493,1758076160.03108,0.0,0.0,0.0,-12.71966,48.8733,11.45916,9.32,-0.58,2.42,3.0
1758076160.08661,1758076160.04108,0.0,0.0,0.0,-13.00614,48.9306,9.85487,8.75,-0.54,2.5,3.0
1758076160.10402,1758076160.05108,0.0,0.0,0.0,-13.06344,48.64412,8.36518,8.75,-0.54,2.5,3.0
1758076160.11992,1758076160.06108,0.0,0.0,0.0,-13.23533,45.26366,6.18794,8.56,-0.59,2.53,3.0
1758076160.12168,1758076160.07108,0.0,0.0,0.0,-12.60507,40.96649,5.27121,8.56,-0.59,2.53,3.0
1758076160.13674,1758076160.08108,0.0,0.0,0.0,-11.28727,36.55471,4.98473,8.11,-0.75,2.58,3.0
1758076160.13793,1758076160.09108,0.0,0.0,0.0,-9.62569,33.23156,4.98473,8.11,-0.75,2.58,3.0
1758076160.15277,1758076160.10108,0.0,0.0,0.0,-6.41713,29.50733,5.90147,8.08,-1.07,2.41,3.0
1758076160.16877,1758076160.11108,0.0,0.0,0.0,-3.83882,26.41335,6.47442,7.96,-1.33,2.31,3.0
1758076160.17075,1758076160.12108,0.0,0.0,0.0,-1.20321,21.14215,6.87549,7.96,-1.33,2.31,3.0
1758076160.18598,1758076160.13108,0.0,0.0,0.0,0.80214,14.61043,6.58902,7.65,-1.39,2.23,3.0
1758076160.18778,1758076160.14108,0.0,0.0,0.0,3.49504,5.61499,5.15662,7.65,-1.39,2.23,3.0
1758076160.20304,1758076160.15108,0.0,0.0,0.0,4.81285,-0.34377,3.89611,7.77,-1.24,2.08,3.0
1758076160.21875,1758076160.16108,0.0,0.0,0.0,5.27121,-6.8182,2.06265,7.77,-1.24,2.08,3.0
1758076160.22112,1758076160.17108,0.0,0.0,0.0,5.27121,-13.00614,0.17189,7.93,-0.93,2.15,3.0
1758076160.236,1758076160.18108,0.0,0.0,0.0,4.52637,-21.31403,-2.97938,8.18,-0.56,2.08,3.0
1758076160.23699,1758076160.19108,0.0,0.0,0.0,3.72423,-26.75713,-5.09932,8.18,-0.56,2.08,3.0
1758076160.25205,1758076160.20108,0.0,0.0,0.0,2.86479,-34.26288,-6.7609,8.07,-0.26,1.92,3.0
1758076160.26869,1758076160.21108,0.0,0.0,0.0,1.71887,-40.7373,-8.0787,8.07,-0.26,1.92,3.0
1758076160.27091,1758076160.22108,0.0,0.0,0.0,1.43239,-40.96649,-8.99544,8.37,-0.14,1.46,3.0
1758076160.28595,1758076160.23108,0.0,0.0,0.0,1.08862,-39.3622,-10.31324,8.37,-0.14,1.46,3.0
1758076160.28734,1758076160.24108,0.0,0.0,0.0,0.97403,-35.92446,-12.08941,8.91,-0.22,1.16,3.0
1758076160.30365,1758076160.25108,0.0,0.0,0.0,1.66158,-23.66316,-14.83961,8.91,-0.22,1.16,3.0
1758076160.31916,1758076160.26108,0.0,0.0,0.0,3.03668,-12.89155,-15.98552,9.83,-0.45,1.46,3.0
1758076160.32077,1758076160.27108,0.0,0.0,0.0,4.98473,-3.26586,-15.98552,10.49,-0.87,1.79,3.0
1758076160.33688,1758076160.28108,0.0,0.0,0.0,7.84952,4.29718,-14.32395,10.49,-0.87,1.79,3.0
1758076160.33787,1758076160.29108,0.0,0.0,0.0,12.49048,8.93814,-9.96947,10.42,-1.36,1.9,3.0
1758076160.35306,1758076160.30108,0.0,0.0,0.0,16.61578,9.05273,-6.13065,10.42,-1.36,1.9,3.0
1758076160.36982,1758076160.31108,0.0,0.0,0.0,21.48592,9.11003,-1.71887,10.49,-1.74,1.71,3.0
1758076160.37188,1758076160.32108,0.0,0.0,0.0,26.41335,8.88085,2.57831,10.49,-1.74,1.71,3.0
1758076160.3871,1758076160.33108,0.0,0.0,0.0,33.80451,9.28192,7.79223,11.3,-1.97,1.99,3.0
1758076160.38887,1758076160.34108,0.0,0.0,0.0,38.78925,9.33921,10.59972,12.24,-2.02,2.57,3.0
1758076160.40412,1758076160.35108,0.0,0.0,0.0,43.02913,6.58902,11.91752,12.24,-2.02,2.57,3.0
1758076160.40659,1758076160.36108,0.0,0.0,0.0,46.40959,-1.3178,10.94349,12.04,-1.8,2.93,3.0
1758076160.4227,1758076160.37108,0.0,0.0,0.0,52.25375,-14.03747,6.87549,12.04,-1.8,2.93,3.0
1758076160.4391,1758076160.38108,0.0,0.0,0.0,54.08722,-4.18259,5.21392,12.69,-1.73,3.9,3.0
1758076160.44089,1758076160.39108,0.0,0.0,0.0,53.91533,17.6471,5.4431,12.69,-1.73,3.9,3.0
1758076160.45694,1758076160.40108,0.0,0.0,0.0,51.16513,33.68992,6.99009,17.11,-1.16,5.99,3.0
1758076160.45803,1758076160.41108,0.0,0.0,0.0,45.60744,33.11696,10.19865,15.41,0.27,5.69,3.0
1758076160.47325,1758076160.42108,0.0,0.0,0.0,40.27893,10.37054,13.40721,15.41,0.27,5.69,3.0
1758076160.48905,1758076160.43108,0.0,0.0,0.0,37.87251,-4.92744,21.02755,13.52,1.19,4.56,3.0
1758076160.4909,1758076160.44108,0.0,0.0,0.0,31.11161,6.41713,25.09555,13.52,1.19,4.56,3.0
1758076160.5082,1758076160.45108,0.0,0.0,0.0,26.98631,14.72501,24.63719,15.76,1.05,4.01,3.0
1758076160.50901,1758076160.46108,0.0,0.0,0.0,24.12152,19.19409,24.92367,15.76,1.05,4.01,3.0
1758076160.52395,1758076160.47108,0.0,0.0,0.0,21.25674,21.60051,24.92367,14.14,0.39,4.77,3.0
1758076160.52583,1758076160.48108,0.0,0.0,0.0,16.95955,27.2155,23.0329,14.14,0.39,4.36,3.0
1758076160.54324,1758076160.49108,0.0,0.0,0.0,14.09476,28.30412,21.02755,12.77,-0.23,4.36,3.0
1758076160.55895,1758076160.50108,0.0,0.0,0.0,11.22997,25.89769,18.27736,10.2,-0.27,3.53,3.0
1758076160.56094,1758076160.51108,0.0,0.0,0.0,8.70896,22.51724,15.29797,10.2,-0.27,3.53,3.0
1758076160.57617,1758076160.52108,0.0,0.0,0.0,6.58902,15.98552,10.19865,7.84,-0.14,3.79,3.0
1758076160.57709,1758076160.53108,0.0,0.0,0.0,6.41713,8.47978,5.50039,7.84,-0.14,3.79,3.0
1758076160.59193,1758076160.54108,0.0,0.0,0.0,7.50575,-1.03132,0.80214,5.3,-0.28,4.03,3.0
1758076160.60793,1758076160.55108,0.0,0.0,0.0,9.33921,-12.77696,-3.89611,5.3,-0.28,4.03,3.0
1758076160.60909,1758076160.56108,0.0,0.0,0.0,13.34992,-29.39274,-9.62569,3.63,-0.56,4.53,3.0
1758076160.62421,1758076160.57108,0.0,0.0,0.0,16.10011,-38.84654,-12.71966,4.0,-0.41,4.4,3.0
1758076160.64022,1758076160.58108,0.0,0.0,0.0,18.85031,-46.86795,-14.03747,4.0,-0.41,4.4,3.0
1758076160.64102,1758076160.59108,0.0,0.0,0.0,21.08485,-50.76406,-14.72501,5.41,-0.2,3.89,3.0
1758076160.65595,1758076160.60108,0.0,0.0,0.0,23.89234,-48.01387,-13.98017,5.41,-0.2,3.89,3.0
1758076160.65789,1758076160.61108,0.0,0.0,0.0,25.61122,-42.85724,-12.08941,7.22,-0.14,2.99,3.0
1758076160.67318,1758076160.62108,0.0,0.0,0.0,27.10091,-36.89849,-9.5684,7.22,-0.14,2.99,3.0
1758076160.69002,1758076160.63108,0.0,0.0,0.0,28.41871,-31.16891,-5.09932,8.39,-0.02,2.54,3.0
1758076160.69375,1758076160.64108,0.0,0.0,0.0,28.76248,-20.68378,-2.11994,9.17,0.42,2.11,3.0
1758076160.70889,1758076160.65108,0.0,0.0,0.0,28.476,-13.12073,-0.51566,9.17,0.42,2.11,3.0
1758076160.71013,1758076160.66108,0.0,0.0,0.0,27.38738,-6.58902,0.0573,9.38,1.17,2.1,3.0
1758076160.72477,1758076160.67108,0.0,0.0,0.0,24.12152,2.86479,-1.83346,9.38,1.17,2.1,3.0
1758076160.72685,1758076160.68108,0.0,0.0,0.0,21.60051,8.70896,-4.64096,9.26,1.83,2.23,3.0
1758076160.74294,1758076160.69108,0.0,0.0,0.0,18.22006,13.46451,-8.65166,9.26,1.83,2.23,3.0
1758076160.75913,1758076160.70108,0.0,0.0,0.0,14.66772,18.56383,-12.77696,9.17,1.84,2.59,3.0
1758076160.76008,1758076160.71108,0.0,0.0,0.0,10.19865,20.34,-17.36062,8.84,1.84,2.85,3.0
1758076160.77493,1758076160.72108,0.0,0.0,0.0,8.25059,20.11082,-19.19409,8.84,1.24,2.85,3.0
1758076160.77614,1758076160.73108,0.0,0.0,0.0,6.87549,20.68378,-19.59516,8.96,0.58,3.22,3.0
1758076160.79214,1758076160.74108,0.0,0.0,0.0,6.7609,20.16812,-18.50654,8.96,0.58,3.22,3.0
1758076160.808,1758076160.75108,0.0,0.0,0.0,8.70896,18.44924,-15.92823,8.85,0.09,3.11,3.0
1758076160.8096,1758076160.76108,0.0,0.0,0.0,10.71431,16.61578,-12.83425,8.85,0.09,3.11,3.0
1758076160.82425,1758076160.77108,0.0,0.0,0.0,12.54778,14.83961,-9.28192,8.47,-0.22,3.07,3.0
1758076160.84075,1758076160.78108,0.0,0.0,0.0,14.66772,13.12073,-5.61499,8.47,-0.22,3.07,3.0
1758076160.84192,1758076160.79108,0.0,0.0,0.0,16.84496,13.46451,-1.66158,8.03,-0.29,2.9,3.0
1758076160.8569,1758076160.80108,0.0,0.0,0.0,17.36062,13.34992,-0.51566,7.73,-0.04,2.76,3.0
1758076160.85886,1758076160.81108,0.0,0.0,0.0,17.6471,12.08941,-0.57296,7.73,-0.04,2.76,3.0
1758076160.87395,1758076160.82108,0.0,0.0,0.0,17.6471,9.62569,-1.3751,7.06,0.46,2.48,3.0
1758076160.89104,1758076160.83108,0.0,0.0,0.0,17.24603,4.98473,-4.0107,7.06,0.46,2.48,3.0
1758076160.89274,1758076160.84108,0.0,0.0,0.0,16.272,1.83346,-5.90147,6.87,0.99,2.52,3.0
1758076160.90822,1758076160.85108,0.0,0.0,0.0,14.83961,-1.3178,-7.16197,6.87,0.99,2.52,3.0
1758076160.90915,1758076160.86108,0.0,0.0,0.0,11.86023,-5.50039,-7.67763,6.9,1.3,2.4,3.0
1758076160.92394,1758076160.87108,0.0,0.0,0.0,9.28192,-7.10468,-6.99009,7.1,1.39,2.27,3.0
1758076160.94017,1758076160.88108,0.0,0.0,0.0,6.87549,-8.47978,-5.84417,7.1,1.39,2.27,3.0
1758076160.94116,1758076160.89108,0.0,0.0,0.0,4.58366,-9.85487,-4.18259,7.44,1.31,2.27,3.0
1758076160.957,1758076160.90108,0.0,0.0,0.0,1.43239,-10.54242,-1.77617,7.44,1.31,2.27,3.0
1758076160.95881,1758076160.91108,0.0,0.0,0.0,-0.22918,-10.37054,-0.45837,7.84,1.12,2.26,3.0
1758076160.97399,1758076160.92108,0.0,0.0,0.0,-1.94806,-10.02676,0.68755,7.84,1.12,2.26,3.0
1758076160.99072,1758076160.93108,0.0,0.0,0.0,-3.32316,-9.33921,0.80214,8.18,0.9,2.19,3.0
1758076160.99381,1758076160.94108,0.0,0.0,0.0,-4.87014,-8.136,0.17189,8.54,0.76,1.95,3.0
1758076161.00892,1758076160.95108,0.0,0.0,0.0,-5.95876,-7.10468,-0.45837,8.54,0.76,1.95,3.0
1758076161.011,1758076160.96108,0.0,0.0,0.0,-6.58902,-4.92744,-1.20321,9.03,0.66,1.69,3.0
1758076161.026,1758076160.97108,0.0,0.0,0.0,-7.33386,-4.81285,-2.57831,9.03,0.66,1.69,3.0
1758076161.02826,1758076160.98108,0.0,0.0,0.0,-8.47978,-3.49504,-4.64096,9.4,0.56,1.66,3.0
1758076161.04332,1758076160.99108,0.0,0.0,0.0,-9.33921,-0.80214,-5.90147,9.4,0.56,1.66,3.0
1758076161.05901,1758076161.00108,0.0,0.0,0.0,-10.19865,0.51566,-6.53172,10.4,0.6,1.52,3.0
1758076161.0602,1758076161.01108,0.0,0.0,0.0,-12.08941,2.6929,-7.44845,10.4,0.6,1.52,3.0
1758076161.07522,1758076161.02108,0.0,0.0,0.0,-15.06879,7.16197,-9.5684,11.27,0.79,1.76,3.0
1758076161.07935,1758076161.03108,0.0,0.0,0.0,-17.76169,9.85487,-11.74564,12.44,1.1,2.03,3.0
1758076161.09527,1758076161.04108,0.0,0.0,0.0,-20.85567,14.03747,-14.72501,12.44,1.1,2.03,3.0
1758076161.09786,1758076161.05108,0.0,0.0,0.0,-25.61122,19.82434,-20.16812,13.81,1.42,2.29,3.0
1758076161.1133,1758076161.06108,0.0,0.0,0.0,-28.24682,26.12688,-24.00693,13.81,1.42,2.29,3.0
1758076161.12908,1758076161.07108,0.0,0.0,0.0,-31.28349,21.60051,-26.01229,14.48,1.58,2.94,3.0
1758076161.13022,1758076161.08108,0.0,0.0,0.0,-34.0337,7.21927,-25.89769,14.48,1.58,2.94,3.0
1758076161.1469,1758076161.09108,0.0,0.0,0.0,-37.12767,-22.40265,-23.37668,13.2,1.44,3.83,3.0
1758076161.14859,1758076161.10108,0.0,0.0,0.0,-35.86716,-30.93972,-21.6578,14.55,1.31,5.1,3.0
1758076161.16402,1758076161.11108,0.0,0.0,0.0,-34.26288,-3.55234,-24.57989,14.55,1.31,5.1,3.0
1758076161.18118,1758076161.12108,0.0,0.0,0.0,-30.99702,26.47065,-24.80907,20.42,0.58,6.54,3.0
1758076161.18285,1758076161.13108,0.0,0.0,0.0,-27.61657,33.51803,-29.39274,20.42,0.58,6.54,3.0
1758076161.19803,1758076161.14108,0.0,0.0,0.0,-24.5226,27.04361,-29.22085,15.78,0.25,5.89,3.0
1758076161.19973,1758076161.15108,0.0,0.0,0.0,-22.23076,24.29341,-27.33009,15.78,0.25,5.89,3.0
1758076161.21406,1758076161.16108,0.0,0.0,0.0,-20.97026,25.72581,-23.20479,14.0,0.46,4.93,3.0
1758076161.23005,1758076161.17108,0.0,0.0,0.0,-22.34536,28.36141,-15.92823,12.61,1.13,4.7,3.0
1758076161.23149,1758076161.18108,0.0,0.0,0.0,-24.80907,30.02299,-11.17268,12.61,1.13,4.7,3.0
1758076161.2463,1758076161.19108,0.0,0.0,0.0,-27.61657,32.25753,-6.8182,11.32,1.73,4.93,3.0
1758076161.24837,1758076161.20108,0.0,0.0,0.0,-30.53865,30.53865,-2.29183,11.32,1.73,4.93,3.0
1758076161.26334,1758076161.21108,0.0,0.0,0.0,-34.43476,19.36597,3.26586,8.59,1.66,4.19,3.0
1758076161.27903,1758076161.22108,0.0,0.0,0.0,-36.6693,8.99544,5.72958,8.59,1.66,4.19,3.0
1758076161.28023,1758076161.23108,0.0,0.0,0.0,-38.78925,-2.23454,7.39116,5.78,1.25,4.12,3.0
1758076161.29502,1758076161.24108,0.0,0.0,0.0,-40.7946,-16.95955,8.25059,5.78,1.25,4.12,3.0
1758076161.29729,1758076161.25108,0.0,0.0,0.0,-43.37291,-39.82057,8.30789,3.91,0.86,4.4,3.0
1758076161.31326,1758076161.26108,0.0,0.0,0.0,-45.03448,-52.19646,7.84952,3.56,0.48,4.47,3.0
1758076161.32908,1758076161.27108,0.0,0.0,0.0,-46.69606,-60.61894,7.39116,3.56,0.48,4.47,3.0
1758076161.33026,1758076161.28108,0.0,0.0,0.0,-48.30034,-65.08801,6.35983,4.78,0.33,3.75,3.0
1758076161.34539,1758076161.29108,0.0,0.0,0.0,-49.21708,-63.54102,4.81285,4.78,0.33,3.75,3.0
1758076161.34631,1758076161.30108,0.0,0.0,0.0,-50.363,-59.47303,2.57831,6.4,0.26,2.83,3.0
1758076161.36337,1758076161.31108,0.0,0.0,0.0,-50.99325,-55.00395,0.0573,6.4,0.26,2.83,3.0
1758076161.37917,1758076161.32108,0.0,0.0,0.0,-50.93595,-48.8733,-3.03668,7.64,0.0,2.61,3.0
1758076161.38059,1758076161.33108,0.0,0.0,0.0,-49.96192,-43.37291,-4.69825,8.5,-0.56,2.39,3.0
1758076161.39506,1758076161.34108,0.0,0.0,0.0,-48.12846,-36.03905,-5.21392,8.5,-0.56,2.39,3.0
1758076161.39627,1758076161.35108,0.0,0.0,0.0,-45.55015,-27.78845,-4.46907,9.11,-1.32,1.94,3.0
1758076161.41304,1758076161.36108,0.0,0.0,0.0,-40.7946,-16.50119,-0.22918,9.11,-1.32,1.94,3.0
1758076161.42933,1758076161.37108,0.0,0.0,0.0,-36.95578,-9.74028,4.1253,8.89,-2.03,2.02,3.0
1758076161.43024,1758076161.38108,0.0,0.0,0.0,-32.83048,-3.55234,9.11003,8.89,-2.03,2.02,3.0
1758076161.44589,1758076161.39108,0.0,0.0,0.0,-28.70519,2.06265,13.40721,8.56,-2.0,2.19,3.0
1758076161.44716,1758076161.40108,0.0,0.0,0.0,-23.0902,8.47978,17.99088,8.47,-1.41,2.37,3.0
1758076161.46294,1758076161.41108,0.0,0.0,0.0,-20.11082,12.37589,19.99623,8.47,-1.41,2.37,3.0
1758076161.4794,1758076161.42108,0.0,0.0,0.0,-17.99088,16.10011,20.51189,8.71,-0.87,2.5,3.0
1758076161.47979,1758076161.43108,0.0,0.0,0.0,-16.61578,19.53786,20.51189,8.71,-0.87,2.5,3.0
1758076161.49546,1758076161.44108,0.0,0.0,0.0,-16.21471,25.55392,18.22006,8.92,-0.45,2.6,3.0
1758076161.49659,1758076161.45108,0.0,0.0,0.0,-16.50119,27.78845,16.272,8.92,-0.45,2.6,3.0
1758076161.5124,1758076161.46108,0.0,0.0,0.0,-17.36062,29.9084,13.5791,8.58,-0.18,2.6,3.0
1758076161.52839,1758076161.47108,0.0,0.0,0.0,-18.22006,31.56997,10.08406,8.58,-0.18,2.6,3.0
1758076161.52936,1758076161.48108,0.0,0.0,0.0,-19.48057,33.40344,7.73493,8.24,-0.12,2.65,3.0
1758076161.54413,1758076161.49108,0.0,0.0,0.0,-20.16812,33.11696,5.61499,7.78,-0.21,2.64,3.0
1758076161.56044,1758076161.50108,0.0,0.0,0.0,-20.45459,31.97105,3.95341,7.78,-0.21,2.64,3.0
1758076161.56087,1758076161.51108,0.0,0.0,0.0,-19.59516,30.19488,3.32316,7.45,-0.52,2.69,3.0
1758076161.5765,1758076161.52108,0.0,0.0,0.0,-18.27736,27.96034,4.1253,7.45,-0.52,2.69,3.0
1758076161.57736,1758076161.53108,0.0,0.0,0.0,-16.90226,24.63719,5.61499,7.1,-0.97,2.49,3.0
1758076161.59324,1758076161.54108,0.0,0.0,0.0,-15.12609,20.62648,7.50575,7.1,-0.97,2.49,3.0
1758076161.60943,1758076161.55108,0.0,0.0,0.0,-11.97482,14.32395,10.02676,6.76,-1.27,2.36,3.0
1758076161.6099,1758076161.56108,0.0,0.0,0.0,-9.96947,10.25595,10.8862,6.67,-1.3,2.19,3.0
1758076161.62623,1758076161.57108,0.0,0.0,0.0,-8.36518,5.72958,10.94349,6.67,-1.3,2.19,3.0
1758076161.6278,1758076161.58108,0.0,0.0,0.0,-6.70361,0.45837,9.91217,6.81,-1.08,2.31,3.0
1758076161.64254,1758076161.59108,0.0,0.0,0.0,-7.79223,-38.73195,9.22462,6.81,-1.08,2.31,3.0
1758076161.65815,1758076161.60108,0.0,0.0,0.0,-6.70361,-58.15522,9.5684,5.47,-0.58,3.23,3.0
1758076161.65935,1758076161.61108,0.0,0.0,0.0,-4.52637,-63.99939,11.80293,5.47,-0.58,3.23,3.0
1758076161.67523,1758076161.62108,0.0,0.0,0.0,-4.58366,-57.23849,11.28727,8.18,-0.62,1.4,3.0
1758076161.67713,1758076161.63108,0.0,0.0,0.0,-4.46907,-53.80074,8.136,9.16,-0.56,1.4,3.0
1758076161.69344,1758076161.64108,0.0,0.0,0.0,-4.23989,-55.6342,4.1253,9.16,-0.56,1.4,3.0
1758076161.70918,1758076161.65108,0.0,0.0,0.0,-4.29718,-53.05589,-1.83346,9.3,-0.34,1.6,3.0
1758076161.70989,1758076161.66108,0.0,0.0,0.0,-4.69825,-45.26366,-8.42248,9.3,-0.34,1.6,3.0
1758076161.7253,1758076161.67108,0.0,0.0,0.0,-5.15662,-28.07493,-18.27736,9.93,-0.38,0.64,3.0
1758076161.72637,1758076161.68108,0.0,0.0,0.0,-5.09932,-15.12609,-23.72045,9.93,-0.38,0.64,3.0
1758076161.74121,1758076161.69108,0.0,0.0,0.0,-4.58366,-1.71887,-27.96034,10.15,-0.57,0.66,3.0
1758076161.7582,1758076161.70108,0.0,0.0,0.0,-1.94806,15.41257,-30.82513,10.15,-0.57,0.66,3.0
1758076161.75941,1758076161.71108,0.0,0.0,0.0,1.03132,23.31938,-30.48136,10.65,-0.92,0.84,3.0
1758076161.77416,1758076161.72108,0.0,0.0,0.0,4.58366,29.39274,-28.93437,11.0,-1.27,1.09,3.0
1758076161.79014,1758076161.73108,0.0,0.0,0.0,8.25059,35.52338,-25.7831,11.0,-1.27,1.09,3.0
1758076161.79114,1758076161.74108,0.0,0.0,0.0,13.75099,44.17505,-18.62113,11.52,-1.47,1.43,3.0
1758076161.80646,1758076161.75108,0.0,0.0,0.0,17.6471,48.8733,-12.204,11.52,-1.47,1.43,3.0
1758076161.80772,1758076161.76108,0.0,0.0,0.0,21.37133,53.28508,-4.98473,11.83,-1.53,1.81,3.0
1758076161.82328,1758076161.77108,0.0,0.0,0.0,24.63719,56.83742,2.00535,11.83,-1.53,1.81,3.0
1758076161.83948,1758076161.78108,0.0,0.0,0.0,28.07493,61.07731,10.8862,12.22,-1.41,2.36,3.0
1758076161.83986,1758076161.79108,0.0,0.0,0.0,29.73651,59.07195,14.9542,12.37,-1.22,3.02,3.0
1758076161.85553,1758076161.80108,0.0,0.0,0.0,32.25753,48.30034,19.82434,12.37,-1.22,3.02,3.0
1758076161.85644,1758076161.81108,0.0,0.0,0.0,31.97105,33.63263,19.82434,11.87,-1.06,4.03,3.0
1758076161.87126,1758076161.82108,0.0,0.0,0.0,25.49662,27.1582,20.68378,11.87,-1.06,4.03,3.0
1758076161.88728,1758076161.83108,0.0,0.0,0.0,23.37668,53.17049,23.54857,16.26,-0.22,5.82,3.0
1758076161.88841,1758076161.84108,0.0,0.0,0.0,20.34,75.80232,23.89234,16.26,-0.22,5.82,3.0
1758076161.90337,1758076161.85108,0.0,0.0,0.0,16.61578,87.08958,23.54857,19.36,1.07,6.23,3.0
1758076161.9192,1758076161.86108,0.0,0.0,0.0,9.62569,74.08345,17.93358,15.95,1.45,7.09,3.0
1758076161.91987,1758076161.87108,0.0,0.0,0.0,5.32851,53.34238,13.46451,15.95,1.45,7.09,3.0
1758076161.93529,1758076161.88108,0.0,0.0,0.0,3.20856,37.24226,11.57375,13.95,0.66,6.22,3.0
1758076161.93644,1758076161.89108,0.0,0.0,0.0,1.48969,30.82513,7.96411,13.95,0.66,6.22,3.0
1758076161.95175,1758076161.90108,0.0,0.0,0.0,-0.85944,31.39809,2.40642,13.95,-0.59,5.67,3.0
1758076161.96854,1758076161.91108,0.0,0.0,0.0,-1.14592,33.80451,-0.85944,13.95,-0.59,5.67,3.0
1758076161.96948,1758076161.92108,0.0,0.0,0.0,-0.51566,29.96569,-4.35448,12.31,-1.35,5.78,3.0
1758076161.98454,1758076161.93108,0.0,0.0,0.0,0.74485,23.0902,-8.59437,12.31,-1.35,5.78,3.0
1758076161.98628,1758076161.94108,0.0,0.0,0.0,2.11994,20.3973,-10.8862,9.58,-1.47,4.88,3.0
1758076162.0016,1758076161.95108,0.0,0.0,0.0,3.60963,16.04282,-12.83425,7.03,-1.15,4.16,3.0
1758076162.01759,1758076161.96108,0.0,0.0,0.0,5.15662,7.50575,-14.03747,7.03,-1.15,4.16,3.0
1758076162.01844,1758076161.97108,0.0,0.0,0.0,6.7609,-13.46451,-15.58445,3.76,-0.74,4.16,3.0
1758076162.03323,1758076161.98108,0.0,0.0,0.0,6.99009,-30.02299,-16.272,3.76,-0.74,4.16,3.0
1758076162.03437,1758076161.99108,0.0,0.0,0.0,6.41713,-45.77933,-17.13144,1.98,-0.26,4.04,3.0
1758076162.04978,1758076162.00108,0.0,0.0,0.0,5.4431,-59.35843,-17.58981,1.98,-0.26,4.04,3.0
1758076162.06658,1758076162.01108,0.0,0.0,0.0,2.7502,-74.02615,-18.16276,2.41,0.35,3.55,3.0
1758076162.06906,1758076162.02108,0.0,0.0,0.0,0.57296,-77.92226,-18.33465,4.11,0.78,3.38,3.0
1758076162.08462,1758076162.03108,0.0,0.0,0.0,-1.3178,-78.89629,-17.76169,4.11,0.78,3.38,3.0
1758076162.08547,1758076162.04108,0.0,0.0,0.0,-2.63561,-77.17742,-16.61578,6.1,0.97,3.33,3.0
1758076162.10082,1758076162.05108,0.0,0.0,0.0,-4.23989,-73.79697,-13.80828,6.1,0.97,3.33,3.0
1758076162.11629,1758076162.06108,0.0,0.0,0.0,-4.87014,-69.49979,-11.63104,7.43,1.02,3.06,3.0
1758076162.1175,1758076162.07108,0.0,0.0,0.0,-5.27121,-65.48907,-9.91217,7.43,1.02,3.06,3.0
1758076162.1323,1758076162.08108,0.0,0.0,0.0,-5.84417,-61.36378,-8.42248,8.17,0.95,2.64,3.0
1758076162.13427,1758076162.09108,0.0,0.0,0.0,-7.39116,-54.08722,-8.136,8.31,0.89,2.43,3.0
1758076162.15143,1758076162.10108,0.0,0.0,0.0,-9.11003,-47.61279,-9.22462,8.31,0.89,2.43,3.0
1758076162.16724,1758076162.11108,0.0,0.0,0.0,-11.11538,-39.76327,-11.51645,8.68,0.9,2.46,3.0
1758076162.16929,1758076162.12108,0.0,0.0,0.0,-14.03747,-26.47065,-15.92823,8.68,0.9,2.46,3.0
1758076162.18714,1758076162.13108,0.0,0.0,0.0,-15.75634,-17.58981,-19.13679,9.03,0.78,2.64,3.0
1758076162.18884,1758076162.14108,0.0,0.0,0.0,-17.13144,-10.48513,-21.48592,9.03,0.78,2.64,3.0
1758076162.20453,1758076162.15108,0.0,0.0,0.0,-17.53251,-4.69825,-22.74642,9.1,0.38,2.83,3.0
1758076162.20554,1758076162.16108,0.0,0.0,0.0,-17.76169,0.68755,-22.05888,9.1,0.38,2.83,3.0
1758076162.22128,1758076162.17108,0.0,0.0,0.0,-17.30333,3.38045,-20.74107,9.05,0.0,3.15,3.0
1758076162.23834,1758076162.18108,0.0,0.0,0.0,-16.67307,4.1253,-18.79302,8.93,-0.11,3.23,3.0
1758076162.2398,1758076162.19108,0.0,0.0,0.0,-15.41257,3.55234,-16.73037,8.93,-0.11,3.23,3.0
1758076162.25433,1758076162.20108,0.0,0.0,0.0,-12.60507,0.80214,-13.75099,8.78,-0.15,3.3,3.0
1758076162.25576,1758076162.21108,0.0,0.0,0.0,-10.08406,-0.40107,-12.08941,8.78,-0.15,3.3,3.0
1758076162.27331,1758076162.22108,0.0,0.0,0.0,-7.62034,0.0,-10.8289,8.95,-0.25,3.38,3.0
1758076162.27453,1758076162.23108,0.0,0.0,0.0,-5.09932,0.17189,-10.08406,8.95,-0.25,3.38,3.0
1758076162.28984,1758076162.24108,0.0,0.0,0.0,-2.23454,-0.68755,-9.62569,8.9,-0.31,3.26,3.0
1758076162.3066,1758076162.25108,0.0,0.0,0.0,-0.74485,-0.85944,-9.11003,8.56,-0.13,3.04,3.0
1758076162.30783,1758076162.26108,0.0,0.0,0.0,0.45837,-1.08862,-8.59437,8.56,-0.13,3.04,3.0
1758076162.3234,1758076162.27108,0.0,0.0,0.0,0.80214,-1.48969,-8.25059,8.34,0.28,2.84,3.0
1758076162.3273,1758076162.28108,0.0,0.0,0.0,-0.34377,-2.34913,-6.7609,8.34,0.28,2.84,3.0
1758076162.3437,1758076162.29108,0.0,0.0,0.0,-2.40642,-1.60428,-6.41713,8.35,0.78,2.58,3.0
1758076162.34734,1758076162.30108,0.0,0.0,0.0,-5.09932,-2.00535,-6.8182,8.35,0.78,2.58,3.0
1758076162.36262,1758076162.31108,0.0,0.0,0.0,-8.30789,-2.97938,-8.42248,8.21,1.29,2.3,3.0
1758076162.37861,1758076162.32108,0.0,0.0,0.0,-13.23533,-4.18259,-9.62569,8.08,1.61,2.25,3.0
1758076162.37983,1758076162.33108,0.0,0.0,0.0,-16.67307,-4.64096,-10.71431,8.08,1.61,2.25,3.0
1758076162.39434,1758076162.34108,0.0,0.0,0.0,-20.11082,-4.46907,-11.17268,8.15,1.67,2.08,3.0
1758076162.39554,1758076162.35108,0.0,0.0,0.0,-25.15285,-5.32851,-10.94349,8.15,1.67,2.08,3.0
1758076162.41369,1758076162.36108,0.0,0.0,0.0,-27.96034,-5.50039,-10.37054,8.2,1.5,1.89,3.0
1758076162.41459,1758076162.37108,0.0,0.0,0.0,-30.36677,-5.55769,-9.85487,8.2,1.5,1.89,3.0
1758076162.43095,1758076162.38108,0.0,0.0,0.0,-32.37212,-5.09932,-9.22462,8.58,1.16,1.8,3.0
1758076162.44668,1758076162.39108,0.0,0.0,0.0,-35.2369,-4.23989,-8.136,8.58,1.16,1.53,3.0
1758076162.44891,1758076162.40108,0.0,0.0,0.0,-36.95578,-2.92208,-7.84952,8.84,0.78,1.53,3.0
1758076162.46346,1758076162.41108,0.0,0.0,0.0,-38.78925,0.34377,-6.87549,9.13,0.59,1.21,3.0
1758076162.46455,1758076162.42108,0.0,0.0,0.0,-40.33623,4.81285,-5.90147,9.13,0.59,1.21,3.0
1758076162.48097,1758076162.43108,0.0,0.0,0.0,-42.34158,11.11538,-3.95341,9.33,0.59,1.17,3.0
1758076162.49639,1758076162.44108,0.0,0.0,0.0,-43.65939,13.75099,-3.03668,9.33,0.59,1.17,3.0
1758076162.49761,1758076162.45108,0.0,0.0,0.0,-44.9199,16.21471,-1.94806,9.13,0.61,1.3,3.0
1758076162.5123,1758076162.46108,0.0,0.0,0.0,-46.06581,17.81899,-1.14592,9.13,0.61,1.3,3.0
1758076162.52844,1758076162.47108,0.0,0.0,0.0,-48.30034,19.42327,-0.11459,9.16,0.56,1.48,3.0
1758076162.52962,1758076162.48108,0.0,0.0,0.0,-50.363,19.25138,0.0,9.45,0.6,1.66,3.0
1758076162.54448,1758076162.49108,0.0,0.0,0.0,-52.9986,19.53786,-0.51566,9.45,0.6,1.66,3.0
1758076162.54961,1758076162.50108,0.0,0.0,0.0,-56.37905,16.95955,-1.77617,9.74,0.85,1.76,3.0
1758076162.56847,1758076162.51108,0.0,0.0,0.0,-61.99404,2.86479,-4.46907,9.74,0.85,1.76,3.0
1758076162.56965,1758076162.52108,0.0,0.0,0.0,-67.15066,-5.21392,-6.7609,9.26,1.24,1.26,3.0
1758076162.58472,1758076162.53108,0.0,0.0,0.0,-73.3386,-11.91752,-9.5684,9.26,1.24,1.26,3.0
1758076162.58569,1758076162.54108,0.0,0.0,0.0,-83.53725,-17.81899,-13.12073,9.36,1.58,1.07,3.0
1758076162.60102,1758076162.55108,0.0,0.0,0.0,-90.47005,-22.63183,-16.04282,9.43,1.67,0.77,3.0
1758076162.6165,1758076162.56108,0.0,0.0,0.0,-97.28824,-25.26744,-18.9649,9.43,1.67,0.77,3.0
1758076162.61762,1758076162.57108,0.0,0.0,0.0,-103.53348,-31.2262,-20.79837,9.37,1.63,0.56,3.0
1758076162.63277,1758076162.58108,0.0,0.0,0.0,-112.18513,-40.04975,-21.94428,9.37,1.63,0.56,3.0
1758076162.64833,1758076162.59108,0.0,0.0,0.0,-116.9407,-40.39353,-21.7724,9.33,1.32,0.4,3.0
1758076162.65393,1758076162.60108,0.0,0.0,0.0,-120.95139,-36.84119,-21.25674,9.33,1.32,0.4,3.0
1758076162.66848,1758076162.61108,0.0,0.0,0.0,-124.33184,-35.69527,-20.16812,10.14,1.07,0.39,3.0
1758076162.67158,1758076162.62108,0.0,0.0,0.0,-125.99342,-44.51882,-20.68378,10.02,0.78,3.32,3.0
1758076162.68871,1758076162.63108,0.0,0.0,0.0,-124.15995,-54.3164,-22.86102,10.02,0.78,3.32,3.0
1758076162.69081,1758076162.64108,0.0,0.0,0.0,-115.5656,-77.63579,-23.20479,10.73,-1.1,6.04,3.0
1758076162.70571,1758076162.65108,0.0,0.0,0.0,-109.20576,-96.65798,-29.04896,10.73,-1.1,6.04,3.0
1758076162.70693,1758076162.66108,0.0,0.0,0.0,-98.09039,-85.37071,-35.75257,13.87,-4.18,5.77,3.0
1758076162.72171,1758076162.67108,0.0,0.0,0.0,-90.52733,-67.15066,-38.78925,13.87,-4.18,5.77,3.0
1758076162.73774,1758076162.68108,0.0,0.0,0.0,-83.25077,-53.34238,-40.50812,14.49,-4.49,1.96,3.0
1758076162.73868,1758076162.69108,0.0,0.0,0.0,-76.1461,-50.87865,-38.44547,14.49,-4.49,1.96,3.0
1758076162.75423,1758076162.70108,0.0,0.0,0.0,-68.92683,-51.85268,-32.42941,10.16,-2.41,2.79,3.0
1758076162.75545,1758076162.71108,0.0,0.0,0.0,-68.52576,-46.69606,-28.41871,9.98,-0.94,3.75,3.0
1758076162.77046,1758076162.72108,0.0,0.0,0.0,-72.76565,-38.78925,-27.38738,9.98,-0.94,3.75,3.0
1758076162.7868,1758076162.73108,0.0,0.0,0.0,-77.52119,-26.47065,-26.81443,12.15,-0.48,3.51,3.0
1758076162.78766,1758076162.74108,0.0,0.0,0.0,-85.37071,-12.54778,-28.13223,12.15,-0.48,3.51,3.0
1758076162.80274,1758076162.75108,0.0,0.0,0.0,-89.15224,-8.47978,-29.67921,11.66,0.1,3.79,3.0
1758076162.81878,1758076162.76108,0.0,0.0,0.0,-91.50137,-4.81285,-30.53865,11.66,0.1,3.79,3.0
1758076162.81968,1758076162.77108,0.0,0.0,0.0,-93.33482,2.06265,-29.56462,10.74,0.22,2.74,3.0
1758076162.83681,1758076162.78108,0.0,0.0,0.0,-93.56402,6.87549,-27.38738,10.58,-0.22,2.41,3.0
1758076162.83768,1758076162.79108,0.0,0.0,0.0,-93.04835,10.8862,-24.5226,10.58,-0.22,2.41,3.0
1758076162.85278,1758076162.80108,0.0,0.0,0.0,-91.67325,14.9542,-20.3973,10.14,-0.91,2.14,3.0
1758076162.86855,1758076162.81108,0.0,0.0,0.0,-88.06361,21.48592,-13.12073,10.14,-0.91,2.14,3.0
1758076162.8697,1758076162.82108,0.0,0.0,0.0,-84.91235,24.86637,-8.0787,9.82,-1.86,1.89,3.0
1758076162.88539,1758076162.83108,0.0,0.0,0.0,-81.07353,27.10091,-3.49504,9.82,-1.86,1.89,3.0
1758076162.88668,1758076162.84108,0.0,0.0,0.0,-77.06283,29.56462,0.11459,9.38,-2.6,1.84,3.0
1758076162.90155,1758076162.85108,0.0,0.0,0.0,-71.39055,30.99702,3.66693,8.95,-2.75,1.69,3.0
1758076162.91889,1758076162.86108,0.0,0.0,0.0,-67.78091,31.2262,4.29718,8.95,-2.75,1.69,3.0
1758076162.92015,1758076162.87108,0.0,0.0,0.0,-63.99939,30.59595,4.23989,8.51,-2.47,1.67,3.0
1758076162.93456,1758076162.88108,0.0,0.0,0.0,-60.33246,29.50733,3.49504,8.51,-2.47,1.67,3.0
1758076162.93732,1758076162.89108,0.0,0.0,0.0,-55.51962,28.01764,1.3751,8.38,-2.03,1.6,3.0
1758076162.95289,1758076162.90108,0.0,0.0,0.0,-52.36834,27.1582,-0.17189,8.38,-2.03,1.6,3.0
1758076162.96877,1758076162.91108,0.0,0.0,0.0,-49.84733,26.41335,-2.00535,8.45,-1.62,1.66,3.0
1758076162.96972,1758076162.92108,0.0,0.0,0.0,-47.38361,25.38203,-3.83882,8.45,-1.62,1.66,3.0
1758076162.98481,1758076162.93108,0.0,0.0,0.0,-44.63341,22.68913,-7.16197,8.45,-1.27,1.69,3.0
1758076162.9876,1758076162.94108,0.0,0.0,0.0,-42.97184,20.85567,-9.11003,8.47,-1.03,1.76,3.0
1758076163.00279,1758076162.95108,0.0,0.0,0.0,-41.02378,19.13679,-10.59972,8.47,-1.03,1.76,3.0
1758076163.01854,1758076162.96108,0.0,0.0,0.0,-37.81522,17.47521,-10.94349,8.51,-0.98,1.72,3.0
1758076163.01978,1758076162.97108,0.0,0.0,0.0,-35.63798,12.71966,-10.48513,8.51,-0.98,1.72,3.0
1758076163.03455,1758076162.98108,0.0,0.0,0.0,-33.51803,10.25595,-9.74028,8.34,-1.03,1.54,3.0
1758076163.03611,1758076162.99108,0.0,0.0,0.0,-31.85646,8.25059,-9.11003,8.34,-1.03,1.54,3.0
1758076163.05045,1758076163.00108,0.0,0.0,0.0,-29.73651,2.97938,-9.05273,8.47,-1.06,1.43,3.0
1758076163.06875,1758076163.01108,0.0,0.0,0.0,-28.99167,-0.97403,-9.68299,8.49,-1.05,1.32,3.0
1758076163.06982,1758076163.02108,0.0,0.0,0.0,-28.13223,-3.95341,-10.31324,8.49,-1.05,1.32,3.0
1758076163.08495,1758076163.03108,0.0,0.0,0.0,-27.78845,-4.58366,-11.51645,9.07,-1.04,1.11,3.0
1758076163.08588,1758076163.04108,0.0,0.0,0.0,-27.50197,-2.92208,-13.86558,9.07,-1.04,1.11,3.0
1758076163.10088,1758076163.05108,0.0,0.0,0.0,-27.67386,-1.08862,-15.29797,9.59,-1.03,0.89,3.0
1758076163.11737,1758076163.06108,0.0,0.0,0.0,-27.84575,0.97403,-16.90226,9.59,-1.03,0.89,3.0
1758076163.11858,1758076163.07108,0.0,0.0,0.0,-27.73116,2.97938,-18.33465,9.77,-1.03,0.86,3.0
1758076163.13362,1758076163.08108,0.0,0.0,0.0,-27.2155,5.55769,-19.99623,9.61,-0.95,0.79,3.0
1758076163.13488,1758076163.09108,0.0,0.0,0.0,-26.47065,6.87549,-20.45459,9.61,-0.95,0.79,3.0
1758076163.15066,1758076163.10108,0.0,0.0,0.0,-25.43933,7.16197,-20.3973,9.44,-0.85,0.81,3.0
1758076163.16698,1758076163.11108,0.0,0.0,0.0,-24.00693,6.18794,-19.88164,9.44,-0.85,0.81,3.0
1758076163.16791,1758076163.12108,0.0,0.0,0.0,-21.48592,2.34913,-18.44924,9.27,-0.83,0.78,3.0
1758076163.18264,1758076163.13108,0.0,0.0,0.0,-19.48057,-0.80214,-17.30333,9.27,-0.83,0.78,3.0
1758076163.19867,1758076163.14108,0.0,0.0,0.0,-17.76169,-4.81285,-16.3293,9.27,-0.88,0.82,3.0
1758076163.19989,1758076163.15108,0.0,0.0,0.0,-15.87093,-7.67763,-15.41257,9.27,-0.88,0.82,3.0
1758076163.21462,1758076163.16108,0.0,0.0,0.0,-13.23533,-7.10468,-15.12609,9.62,-0.91,0.84,3.0
1758076163.21577,1758076163.17108,0.0,0.0,0.0,-11.17268,-4.92744,-14.61043,10.04,-0.92,0.87,3.0
1758076163.2307,1758076163.18108,0.0,0.0,0.0,-8.93814,-1.48969,-14.15206,10.04,-0.92,0.87,3.0
1758076163.24667,1758076163.19108,0.0,0.0,0.0,-5.4431,4.0107,-13.80828,10.2,-1.01,0.86,3.0
1758076163.24788,1758076163.20108,0.0,0.0,0.0,-2.46372,6.58902,-13.69369,10.2,-1.01,0.86,3.0
1758076163.26289,1758076163.21108,0.0,0.0,0.0,0.74485,8.30789,-13.46451,10.15,-1.19,0.73,3.0
1758076163.27892,1758076163.22108,0.0,0.0,0.0,3.66693,8.36518,-13.46451,10.15,-1.19,0.73,3.0
1758076163.28333,1758076163.23108,0.0,0.0,0.0,7.79223,6.87549,-14.43854,10.26,-1.48,0.53,3.0
1758076163.29866,1758076163.24108,0.0,0.0,0.0,10.48513,5.27121,-15.29797,10.67,-1.74,0.51,3.0
1758076163.29985,1758076163.25108,0.0,0.0,0.0,13.12073,3.83882,-16.10011,10.67,-1.74,0.51,3.0
1758076163.31464,1758076163.26108,0.0,0.0,0.0,15.12609,2.6929,-17.81899,11.18,-1.87,0.46,3.0
1758076163.3159,1758076163.27108,0.0,0.0,0.0,17.18874,-1.60428,-20.68378,11.18,-1.87,0.46,3.0
1758076163.33104,1758076163.28108,0.0,0.0,0.0,17.99088,-7.21927,-21.7724,11.02,-1.85,0.78,3.0
1758076163.347,1758076163.29108,0.0,0.0,0.0,17.76169,-14.09476,-22.00158,11.02,-1.85,0.78,3.0
1758076163.34874,1758076163.30108,0.0,0.0,0.0,17.36062,-16.95955,-18.16276,11.23,-1.61,2.55,3.0
1758076163.36398,1758076163.31108,0.0,0.0,0.0,13.5218,-3.89611,-9.5684,14.45,-0.64,5.28,3.0
1758076163.36491,1758076163.32108,0.0,0.0,0.0,6.13065,9.05273,-3.38045,14.45,-0.64,5.28,3.0
1758076163.38071,1758076163.33108,0.0,0.0,0.0,3.55234,-21.14215,4.23989,12.65,1.57,6.49,3.0
1758076163.39703,1758076163.34108,0.0,0.0,0.0,2.11994,-57.63955,8.02141,12.65,1.57,6.49,3.0
1758076163.3979,1758076163.35108,0.0,0.0,0.0,-3.32316,-75.91692,16.67307,8.83,2.48,2.71,3.0
1758076163.41259,1758076163.36108,0.0,0.0,0.0,-7.73493,-60.61894,13.86558,8.83,2.48,2.71,3.0
1758076163.42881,1758076163.37108,0.0,0.0,0.0,-10.37054,-48.01387,10.59972,11.49,1.74,2.56,3.0
1758076163.42994,1758076163.38108,0.0,0.0,0.0,-11.97482,-48.58683,6.18794,11.49,1.74,2.56,3.0
1758076163.44506,1758076163.39108,0.0,0.0,0.0,-11.57375,-50.76406,4.52637,8.95,-0.11,3.78,3.0
1758076163.44634,1758076163.40108,0.0,0.0,0.0,-10.25595,-45.55015,2.86479,9.81,-1.0,5.42,3.0
1758076163.46095,1758076163.41108,0.0,0.0,0.0,-8.25059,-38.56006,0.85944,9.81,-1.0,5.42,3.0
1758076163.47677,1758076163.42108,0.0,0.0,0.0,-4.58366,-31.28349,-0.17189,9.88,-0.72,4.84,3.0
1758076163.47985,1758076163.43108,0.0,0.0,0.0,-1.48969,-27.44468,1.08862,9.88,-0.72,4.84,3.0
1758076163.49479,1758076163.44108,0.0,0.0,0.0,1.3178,-23.26209,2.29183,9.99,0.24,4.3,3.0
1758076163.49756,1758076163.45108,0.0,0.0,0.0,3.26586,-19.70975,2.97938,9.99,0.24,4.3,3.0
1758076163.51296,1758076163.46108,0.0,0.0,0.0,4.29718,-14.03747,2.92208,10.08,0.87,2.86,3.0
1758076163.529,1758076163.47108,0.0,0.0,0.0,3.49504,-8.0787,1.48969,10.62,1.4,2.28,3.0
1758076163.53106,1758076163.48108,0.0,0.0,0.0,1.20321,1.08862,-0.80214,10.62,1.4,2.28,3.0
1758076163.54657,1758076163.49108,0.0,0.0,0.0,-2.11994,11.22997,-4.29718,11.06,1.86,2.12,3.0
1758076163.54798,1758076163.50108,0.0,0.0,0.0,-7.73493,24.17882,-10.19865,11.06,1.86,2.12,3.0
1758076163.5628,1758076163.51108,0.0,0.0,0.0,-12.204,32.77319,-14.38124,10.3,2.16,2.1,3.0
1758076163.57867,1758076163.52108,0.0,0.0,0.0,-16.3293,39.70598,-17.53251,10.3,2.16,2.1,3.0
1758076163.57989,1758076163.53108,0.0,0.0,0.0,-20.68378,45.60744,-20.79837,9.62,2.27,2.16,3.0
1758076163.59474,1758076163.54108,0.0,0.0,0.0,-27.04361,47.03984,-24.00693,8.78,2.39,2.16,3.0
1758076163.59603,1758076163.55108,0.0,0.0,0.0,-30.82513,45.09178,-24.75178,8.78,2.39,2.16,3.0
1758076163.61101,1758076163.56108,0.0,0.0,0.0,-34.14828,43.02913,-24.75178,8.53,2.31,2.0,3.0
1758076163.62709,1758076163.57108,0.0,0.0,0.0,-37.24226,40.27893,-23.66316,8.53,2.31,2.0,3.0
1758076163.62795,1758076163.58108,0.0,0.0,0.0,-41.31026,32.77319,-22.97561,8.5,1.97,2.0,3.0
1758076163.64305,1758076163.59108,0.0,0.0,0.0,-43.31561,28.87707,-21.88699,8.5,1.97,2.0,3.0
1758076163.65905,1758076163.60108,0.0,0.0,0.0,-44.9199,26.75713,-20.97026,8.69,1.57,1.83,3.0
1758076163.66,1758076163.61108,0.0,0.0,0.0,-46.06581,24.5226,-19.42327,8.69,1.57,1.83,3.0
1758076163.67506,1758076163.62108,0.0,0.0,0.0,-46.06581,23.20479,-18.9649,8.91,1.14,1.81,3.0
1758076163.67602,1758076163.63108,0.0,0.0,0.0,-45.60744,22.34536,-18.56383,8.86,0.81,1.92,3.0
1758076163.69079,1758076163.64108,0.0,0.0,0.0,-44.86259,22.00158,-18.56383,8.86,0.81,1.92,3.0
1758076163.70681,1758076163.65108,0.0,0.0,0.0,-43.37291,21.6578,-18.62113,8.83,0.54,1.98,3.0
1758076163.70793,1758076163.66108,0.0,0.0,0.0,-42.34158,21.6578,-18.62113,8.83,0.54,1.98,3.0
1758076163.72324,1758076163.67108,0.0,0.0,0.0,-41.42485,21.88699,-18.56383,8.78,0.38,2.04,3.0
1758076163.7391,1758076163.68108,0.0,0.0,0.0,-40.7373,22.51724,-18.27736,8.78,0.38,2.04,3.0
1758076163.74108,1758076163.69108,0.0,0.0,0.0,-40.10705,23.31938,-17.6471,8.94,0.43,2.05,3.0
1758076163.75692,1758076163.70108,0.0,0.0,0.0,-40.04975,23.31938,-16.90226,9.11,0.59,2.05,3.0
1758076163.75781,1758076163.71108,0.0,0.0,0.0,-40.10705,23.31938,-15.92823,9.11,0.59,2.05,3.0
1758076163.77312,1758076163.72108,0.0,0.0,0.0,-40.45082,22.97561,-14.66772,9.24,0.72,2.02,3.0
1758076163.78893,1758076163.73108,0.0,0.0,0.0,-40.7946,21.60051,-13.17803,9.24,0.72,2.02,3.0
1758076163.79082,1758076163.74108,0.0,0.0,0.0,-41.31026,20.16812,-12.204,9.2,0.72,2.01,3.0
1758076163.80589,1758076163.75108,0.0,0.0,0.0,-41.88322,18.50654,-11.45916,9.2,0.72,2.01,3.0
1758076163.80781,1758076163.76108,0.0,0.0,0.0,-42.34158,15.64175,-10.94349,9.17,0.64,2.04,3.0
1758076163.82315,1758076163.77108,0.0,0.0,0.0,-42.97184,9.28192,-9.85487,9.14,0.64,2.02,3.0
1758076163.82483,1758076163.78108,0.0,0.0,0.0,-43.37291,4.58366,-8.65166,9.14,0.64,2.02,3.0
1758076163.84318,1758076163.79108,0.0,0.0,0.0,-43.88857,1.14592,-7.96411,9.64,0.74,2.16,3.0
1758076163.85876,1758076163.80108,0.0,0.0,0.0,-45.77933,0.40107,-8.36518,9.64,0.74,2.16,3.0
1758076163.85999,1758076163.81108,0.0,0.0,0.0,-46.81066,-2.34913,-9.33921,10.1,1.01,2.25,3.0
1758076163.87514,1758076163.82108,0.0,0.0,0.0,-47.95657,-5.09932,-10.59972,10.1,1.01,2.25,3.0
1758076163.87605,1758076163.83108,0.0,0.0,0.0,-49.15978,-7.50575,-11.74564,10.05,1.19,2.22,3.0
1758076163.89117,1758076163.84108,0.0,0.0,0.0,-51.10783,-8.93814,-13.46451,10.05,1.19,2.22,3.0
1758076163.90716,1758076163.85108,0.0,0.0,0.0,-52.65482,-9.28192,-15.24068,10.59,1.28,2.3,3.0
1758076163.90806,1758076163.86108,0.0,0.0,0.0,-54.14451,-10.08406,-16.50119,11.01,1.38,2.32,3.0
1758076163.92314,1758076163.87108,0.0,0.0,0.0,-55.6915,-10.71431,-17.87628,11.01,1.38,2.32,3.0
1758076163.9392,1758076163.88108,0.0,0.0,0.0,-58.3844,-13.75099,-18.50654,11.71,1.49,2.61,3.0
1758076163.94011,1758076163.89108,0.0,0.0,0.0,-59.81679,-15.87093,-18.10547,11.71,1.49,2.61,3.0
1758076163.9552,1758076163.90108,0.0,0.0,0.0,-59.81679,-15.41257,-16.38659,12.43,1.33,3.12,3.0
1758076163.95638,1758076163.91108,0.0,0.0,0.0,-60.33246,-21.88699,-15.41257,12.43,1.33,3.12,3.0
1758076163.97082,1758076163.92108,0.0,0.0,0.0,-56.26446,-39.3622,-17.13144,13.12,0.98,3.72,3.0
1758076163.9882,1758076163.93108,0.0,0.0,0.0,-52.42564,-31.28349,-16.04282,15.32,0.25,4.49,3.0
1758076163.98939,1758076163.94108,0.0,0.0,0.0,-50.13381,-3.26586,-20.11082,15.32,0.25,4.49,3.0
1758076164.00419,1758076163.95108,0.0,0.0,0.0,-48.07116,19.19409,-22.68913,18.27,-0.33,3.7,3.0
1758076164.0059,1758076163.96108,0.0,0.0,0.0,-43.94586,25.49662,-26.98631,18.27,-0.33,3.7,3.0
1758076164.02192,1758076163.97108,0.0,0.0,0.0,-41.02378,15.87093,-27.78845,14.15,-0.04,4.94,3.0
1758076164.03921,1758076163.98108,0.0,0.0,0.0,-38.61736,13.86558,-26.81443,14.15,-0.04,4.94,3.0
1758076164.04017,1758076163.99108,0.0,0.0,0.0,-36.61201,18.33465,-20.79837,12.95,0.32,4.08,3.0
1758076164.05521,1758076164.00108,0.0,0.0,0.0,-36.32552,20.3973,-15.29797,11.93,0.69,3.9,3.0
1758076164.05609,1758076164.01108,0.0,0.0,0.0,-37.29956,17.53251,-9.74028,11.93,0.69,3.9,3.0
1758076164.07095,1758076164.02108,0.0,0.0,0.0,-38.56006,14.78231,-4.92744,9.98,1.06,3.76,3.0
1758076164.08821,1758076164.03108,0.0,0.0,0.0,-41.71133,11.86023,0.11459,9.98,1.06,3.76,3.0
1758076164.08909,1758076164.04108,0.0,0.0,0.0,-44.63341,8.88085,1.3178,8.35,1.03,3.21,3.0
1758076164.10418,1758076164.05108,0.0,0.0,0.0,-48.01387,6.07335,1.20321,8.35,1.03,3.21,3.0
1758076164.1054,1758076164.06108,0.0,0.0,0.0,-51.22243,2.23454,0.74485,6.81,0.98,3.54,3.0
1758076164.12092,1758076164.07108,0.0,0.0,0.0,-54.71747,-7.62034,-0.97403,6.81,0.98,3.77,3.0
1758076164.13687,1758076164.08108,0.0,0.0,0.0,-56.89471,-14.72501,-2.11994,5.63,0.87,3.77,3.0
1758076164.13853,1758076164.09108,0.0,0.0,0.0,-58.26981,-21.02755,-3.26586,5.4,0.29,3.66,3.0
1758076164.15323,1758076164.10108,0.0,0.0,0.0,-58.49899,-26.69983,-3.60963,5.4,0.29,3.66,3.0
1758076164.16926,1758076164.11108,0.0,0.0,0.0,-57.63955,-31.85646,-2.6929,5.85,-0.39,3.26,3.0
1758076164.17049,1758076164.12108,0.0,0.0,0.0,-56.03527,-31.85646,-1.48969,5.85,-0.39,3.26,3.0
1758076164.18498,1758076164.13108,0.0,0.0,0.0,-53.97263,-30.82513,0.11459,6.82,-0.82,3.13,3.0
1758076164.1862,1758076164.14108,0.0,0.0,0.0,-51.22243,-28.76248,1.83346,6.82,-0.82,3.13,3.0
1758076164.20112,1758076164.15108,0.0,0.0,0.0,-46.63877,-25.43933,3.89611,7.55,-1.07,3.15,3.0
1758076164.21703,1758076164.16108,0.0,0.0,0.0,-43.60209,-23.20479,4.69825,8.01,-1.18,3.13,3.0
1758076164.21825,1758076164.17108,0.0,0.0,0.0,-40.7373,-20.45459,4.92744,8.01,-1.18,3.13,3.0
1758076164.23328,1758076164.18108,0.0,0.0,0.0,-37.98711,-16.84496,5.21392,8.4,-1.16,2.93,3.0
1758076164.24929,1758076164.19108,0.0,0.0,0.0,-34.49206,-10.25595,5.4431,8.4,-1.16,2.93,3.0
1758076164.25022,1758076164.20108,0.0,0.0,0.0,-33.05967,-5.72958,5.27121,8.68,-1.07,2.81,3.0
1758076164.26527,1758076164.21108,0.0,0.0,0.0,-31.28349,-1.60428,5.61499,8.68,-1.07,2.81,3.0
1758076164.26693,1758076164.22108,0.0,0.0,0.0,-29.62192,1.48969,6.53172,8.82,-0.95,2.78,3.0
1758076164.28229,1758076164.23108,0.0,0.0,0.0,-28.476,7.04738,7.33386,9.06,-0.94,2.88,3.0
1758076164.298,1758076164.24108,0.0,0.0,0.0,-27.1582,10.25595,8.47978,9.06,-0.94,2.88,3.0
1758076164.29919,1758076164.25108,0.0,0.0,0.0,-25.8404,13.34992,9.39651,9.21,-0.94,2.91,3.0
1758076164.31397,1758076164.26108,0.0,0.0,0.0,-24.23611,17.30333,10.19865,9.21,-0.94,2.91,3.0
1758076164.31519,1758076164.27108,0.0,0.0,0.0,-23.37668,18.79302,10.37054,9.13,-0.9,3.02,3.0
1758076164.33132,1758076164.28108,0.0,0.0,0.0,-22.57454,18.33465,10.25595,9.13,-0.9,3.02,3.0
1758076164.34701,1758076164.29108,0.0,0.0,0.0,-22.05888,18.22006,9.96947,8.83,-0.75,3.1,3.0
1758076164.34826,1758076164.30108,0.0,0.0,0.0,-21.7724,18.27736,9.22462,8.92,-0.75,3.13,3.0
1758076164.36306,1758076164.31108,0.0,0.0,0.0,-21.7724,18.9649,8.59437,8.92,-0.56,3.13,3.0
1758076164.37906,1758076164.32108,0.0,0.0,0.0,-22.40265,18.85031,7.21927,8.92,-0.4,3.06,3.0
1758076164.38056,1758076164.33108,0.0,0.0,0.0,-22.74642,17.58981,5.95876,8.92,-0.4,3.06,3.0
1758076164.39532,1758076164.34108,0.0,0.0,0.0,-23.20479,15.58445,3.49504,8.79,-0.27,3.09,3.0
1758076164.39742,1758076164.35108,0.0,0.0,0.0,-23.49127,14.38124,2.23454,8.79,-0.27,3.09,3.0
1758076164.41235,1758076164.36108,0.0,0.0,0.0,-23.49127,13.5218,1.03132,8.85,-0.15,2.95,3.0
1758076164.42811,1758076164.37108,0.0,0.0,0.0,-23.60586,11.86023,-0.17189,8.85,-0.15,2.95,3.0
1758076164.42924,1758076164.38108,0.0,0.0,0.0,-23.31938,8.65166,-1.14592,8.65,-0.09,2.84,3.0
1758076164.44433,1758076164.39108,0.0,0.0,0.0,-22.28806,6.99009,-0.97403,8.45,-0.12,2.75,3.0
1758076164.44522,1758076164.40108,0.0,0.0,0.0,-20.62648,5.50039,-0.0573,8.45,-0.12,2.75,3.0
1758076164.46109,1758076164.41108,0.0,0.0,0.0,-18.62113,3.89611,2.00535,8.42,-0.31,2.36,3.0
1758076164.47828,1758076164.42108,0.0,0.0,0.0,-15.75634,0.57296,3.49504,8.42,-0.31,2.36,3.0
1758076164.47921,1758076164.43108,0.0,0.0,0.0,-13.86558,-1.48969,4.52637,8.46,-0.51,2.22,3.0
1758076164.49517,1758076164.44108,0.0,0.0,0.0,-12.43318,-3.55234,4.35448,8.46,-0.51,2.22,3.0
1758076164.49611,1758076164.45108,0.0,0.0,0.0,-10.8862,-6.35983,2.7502,8.4,-0.54,2.2,3.0
1758076164.51232,1758076164.46108,0.0,0.0,0.0,-10.48513,-8.0787,0.57296,8.14,-0.43,2.18,3.0
1758076164.5155,1758076164.47108,0.0,0.0,0.0,-10.37054,-9.33921,-2.00535,8.14,-0.43,2.18,3.0
1758076164.53191,1758076164.48108,0.0,0.0,0.0,-10.8862,-9.96947,-4.69825,8.04,-0.22,2.23,3.0
1758076164.54904,1758076164.49108,0.0,0.0,0.0,-12.37589,-11.80293,-8.30789,8.04,-0.22,2.23,3.0
1758076164.55106,1758076164.50108,0.0,0.0,0.0,-13.80828,-13.69369,-9.96947,7.85,-0.11,2.33,3.0
1758076164.56607,1758076164.51108,0.0,0.0,0.0,-15.75634,-15.98552,-11.00079,7.85,-0.11,2.33,3.0
1758076164.56918,1758076164.52108,0.0,0.0,0.0,-17.81899,-17.93358,-11.74564,7.64,0.0,2.21,3.0
1758076164.58436,1758076164.53108,0.0,0.0,0.0,-20.85567,-19.07949,-11.91752,7.69,0.08,1.82,3.0
1758076164.58528,1758076164.54108,0.0,0.0,0.0,-22.63183,-18.62113,-11.74564,7.69,0.08,1.82,3.0
1758076164.60208,1758076164.55108,0.0,0.0,0.0,-24.17882,-18.73572,-12.14671,7.89,0.11,1.35,3.0
1758076164.61804,1758076164.56108,0.0,0.0,0.0,-25.72581,-18.73572,-13.12073,7.89,0.11,1.35,3.0
1758076164.61922,1758076164.57108,0.0,0.0,0.0,-27.1582,-18.22006,-15.92823,8.25,-0.02,0.93,3.0
1758076164.63406,1758076164.58108,0.0,0.0,0.0,-27.61657,-16.67307,-18.79302,8.25,-0.02,0.93,3.0
1758076164.63558,1758076164.59108,0.0,0.0,0.0,-27.44468,-12.43318,-22.00158,8.95,-0.51,0.74,3.0
1758076164.65139,1758076164.60108,0.0,0.0,0.0,-26.01229,-5.27121,-24.86637,8.95,-0.51,0.74,3.0
1758076164.66741,1758076164.61108,0.0,0.0,0.0,-23.26209,2.11994,-28.76248,10.0,-1.29,0.93,3.0
1758076164.66858,1758076164.62108,0.0,0.0,0.0,-20.79837,5.15662,-30.25217,10.09,-2.0,1.29,3.0
1758076164.68345,1758076164.63108,0.0,0.0,0.0,-18.10547,8.59437,-30.88243,10.09,-2.0,1.29,3.0
1758076164.69911,1758076164.64108,0.0,0.0,0.0,-12.77696,11.91752,-29.27814,10.56,-2.38,1.8,3.0
1758076164.70025,1758076164.65108,0.0,0.0,0.0,-8.88085,14.66772,-26.64254,10.56,-2.38,1.8,3.0
1758076164.71504,1758076164.66108,0.0,0.0,0.0,-4.92744,15.46986,-22.74642,10.95,-2.31,2.22,3.0
1758076164.71632,1758076164.67108,0.0,0.0,0.0,-1.14592,15.75634,-18.50654,10.95,-2.31,2.22,3.0
1758076164.73111,1758076164.68108,0.0,0.0,0.0,4.64096,14.38124,-11.57375,11.58,-1.8,2.74,3.0
1758076164.74737,1758076164.69108,0.0,0.0,0.0,8.70896,4.29718,-6.7609,11.61,-1.37,2.97,3.0
1758076164.74836,1758076164.70108,0.0,0.0,0.0,11.22997,-12.71966,-3.20856,11.61,-1.37,2.97,3.0
1758076164.76322,1758076164.71108,0.0,0.0,0.0,10.8862,-17.24603,-1.43239,12.59,-1.03,3.18,3.0
1758076164.77939,1758076164.72108,0.0,0.0,0.0,12.2613,22.57454,6.53172,12.59,-1.03,3.18,3.0
1758076164.7806,1758076164.73108,0.0,0.0,0.0,10.8289,48.07116,10.94349,18.82,-0.36,4.42,3.0
1758076164.79542,1758076164.74108,0.0,0.0,0.0,8.99544,60.10328,15.12609,18.82,-0.36,4.42,3.0
1758076164.79662,1758076164.75108,0.0,0.0,0.0,6.70361,52.76942,18.90761,17.13,0.36,5.01,3.0
1758076164.81307,1758076164.76108,0.0,0.0,0.0,-0.51566,27.44468,18.33465,14.25,0.37,5.03,3.0
1758076164.82913,1758076164.77108,0.0,0.0,0.0,-2.00535,13.98017,19.42327,14.25,0.37,5.03,3.0
1758076164.83032,1758076164.78108,0.0,0.0,0.0,-2.34913,10.02676,19.42327,15.59,-0.48,4.75,3.0
1758076164.84534,1758076164.79108,0.0,0.0,0.0,-1.83346,11.86023,15.46986,15.59,-0.48,4.75,3.0
1758076164.84634,1758076164.80108,0.0,0.0,0.0,3.03668,17.93358,9.96947,16.57,-1.85,5.13,3.0
1758076164.86116,1758076164.81108,0.0,0.0,0.0,7.62034,19.88164,6.7609,16.57,-1.85,5.13,3.0
1758076164.87719,1758076164.82108,0.0,0.0,0.0,11.74564,20.45459,3.95341,15.95,-2.79,5.11,3.0
1758076164.87836,1758076164.83108,0.0,0.0,0.0,15.87093,22.34536,2.63561,15.95,-2.79,5.11,3.0
1758076164.89342,1758076164.84108,0.0,0.0,0.0,21.37133,23.26209,1.60428,14.2,-2.59,4.41,3.0
1758076164.90945,1758076164.85108,0.0,0.0,0.0,24.86637,21.25674,1.83346,11.44,-1.33,4.19,3.0
1758076164.91039,1758076164.86108,0.0,0.0,0.0,27.96034,18.90761,2.63561,11.44,-1.33,4.19,3.0
1758076164.92546,1758076164.87108,0.0,0.0,0.0,32.08564,12.37589,4.1253,8.85,-0.01,3.77,3.0
1758076164.92641,1758076164.88108,0.0,0.0,0.0,34.37747,6.18794,4.81285,8.85,-0.01,3.77,3.0
1758076164.94313,1758076164.89108,0.0,0.0,0.0,36.21093,-3.32316,5.27121,6.05,0.79,3.28,3.0
1758076164.95817,1758076164.90108,0.0,0.0,0.0,37.81522,-14.03747,5.61499,6.05,0.79,3.28,3.0
1758076164.95938,1758076164.91108,0.0,0.0,0.0,39.76327,-30.88243,4.64096,3.79,0.85,2.95,3.0
1758076164.97415,1758076164.92108,0.0,0.0,0.0,40.7373,-42.68536,4.0107,2.88,0.65,2.7,3.0
1758076164.97539,1758076164.93108,0.0,0.0,0.0,41.42485,-53.62885,2.97938,2.88,0.65,2.7,3.0
1758076164.99147,1758076164.94108,0.0,0.0,0.0,41.88322,-62.22322,1.48969,3.41,0.59,2.68,3.0
1758076165.00748,1758076164.95108,0.0,0.0,0.0,42.28429,-66.69229,0.0,3.41,0.59,2.68,3.0
1758076165.00919,1758076164.96108,0.0,0.0,0.0,42.62806,-66.40582,-0.74485,5.37,0.78,2.63,3.0
1758076165.02452,1758076164.97108,0.0,0.0,0.0,43.37291,-64.74423,-0.45837,5.37,0.78,2.63,3.0
1758076165.02857,1758076164.98108,0.0,0.0,0.0,44.46153,-61.1346,-0.34377,7.15,0.97,2.62,3.0
1758076165.04424,1758076164.99108,0.0,0.0,0.0,46.2377,-54.48829,0.45837,8.13,0.83,2.27,3.0
1758076165.04541,1758076165.00108,0.0,0.0,0.0,47.15443,-48.75871,1.08862,8.13,0.83,2.27,3.0
1758076165.06328,1758076165.01108,0.0,0.0,0.0,48.07116,-42.68536,1.48969,8.41,0.77,2.1,3.0
1758076165.07949,1758076165.02108,0.0,0.0,0.0,48.30034,-35.86716,2.29183,8.41,0.77,2.1,3.0
1758076165.08068,1758076165.03108,0.0,0.0,0.0,47.72739,-24.00693,2.57831,8.45,0.99,2.14,3.0
1758076165.0955,1758076165.04108,0.0,0.0,0.0,46.69606,-16.21471,2.34913,8.45,0.99,2.14,3.0
1758076165.09727,1758076165.05108,0.0,0.0,0.0,45.03448,-9.33921,1.48969,8.43,1.46,2.27,3.0
1758076165.11238,1758076165.06108,0.0,0.0,0.0,41.48215,-3.03668,-0.40107,8.43,1.46,2.27,3.0
1758076165.12932,1758076165.07108,0.0,0.0,0.0,38.78925,6.35983,-1.83346,8.42,1.9,2.53,3.0
1758076165.13214,1758076165.08108,0.0,0.0,0.0,35.75257,12.71966,-3.03668,8.66,2.1,2.58,3.0
1758076165.14859,1758076165.09108,0.0,0.0,0.0,32.6013,19.42327,-4.58366,8.66,2.1,2.58,3.0
1758076165.15057,1758076165.10108,0.0,0.0,0.0,28.01764,28.476,-5.78687,8.84,2.11,2.64,3.0
1758076165.16529,1758076165.11108,0.0,0.0,0.0,25.15285,32.77319,-6.07335,8.84,2.11,2.64,3.0
1758076165.16651,1758076165.12108,0.0,0.0,0.0,22.40265,34.77854,-5.84417,8.72,2.02,2.77,3.0
1758076165.20296,1758076165.13108,0.0,0.0,0.0,19.82434,36.6693,-4.98473,8.72,2.02,2.77,3.0
1758076165.20795,1758076165.14108,0.0,0.0,0.0,16.90226,39.19032,-3.55234,8.73,1.81,3.02,3.0
1758076165.20861,1758076165.15108,0.0,0.0,0.0,15.12609,40.10705,-2.23454,8.87,1.54,3.13,3.0
1758076165.2106,1758076165.16108,0.0,0.0,0.0,13.86558,39.4768,-1.20321,8.87,1.54,3.13,3.0
1758076165.22623,1758076165.17108,0.0,0.0,0.0,12.89155,37.29956,-0.45837,8.62,1.23,3.25,3.0
