timeStamp,timeStampAlign,roll,pitch,yaw,gyro_x,gyro_y,gyro_z,acc_x,acc_y,acc_z,flag_num
1758088389.102,1758088386.53635,0.0,0.0,0.0,-15.46986,-24.4653,2.6929,8.77,0.42,0.64,4.0
1758088389.10309,1758088386.54635,0.0,0.0,0.0,-14.9542,-23.89234,3.03668,8.92,0.26,0.55,4.0
1758088389.10366,1758088386.55635,0.0,0.0,0.0,-14.15206,-23.20479,4.0107,9.1,0.16,0.43,4.0
1758088389.10569,1758088386.56635,0.0,0.0,0.0,-13.75099,-22.40265,4.69825,9.1,0.16,0.43,4.0
1758088389.10633,1758088386.57635,0.0,0.0,0.0,-13.46451,-21.42862,5.55769,9.29,0.15,0.44,4.0
1758088389.12385,1758088386.58635,0.0,0.0,0.0,-13.17803,-19.70975,6.41713,9.29,0.15,0.44,4.0
1758088389.12595,1758088386.59635,0.0,0.0,0.0,-12.77696,-16.84496,7.73493,9.42,0.21,0.41,4.0
1758088389.14121,1758088386.60635,0.0,0.0,0.0,-12.43318,-14.83961,8.136,9.42,0.21,0.41,4.0
1758088389.15802,1758088386.61635,0.0,0.0,0.0,-11.91752,-13.5791,8.47978,9.27,0.34,0.36,4.0
1758088389.16072,1758088386.62635,0.0,0.0,0.0,-11.34457,-12.14671,8.65166,9.27,0.34,0.36,4.0
1758088389.17702,1758088386.63635,0.0,0.0,0.0,-9.85487,-9.5684,8.70896,9.15,0.51,0.19,4.0
1758088389.18031,1758088386.64635,0.0,0.0,0.0,-8.76626,-8.99544,8.65166,8.91,0.67,0.16,4.0
1758088389.22367,1758088386.65635,0.0,0.0,0.0,-7.33386,-9.11003,8.25059,8.91,0.67,0.16,4.0
1758088389.22563,1758088386.66635,0.0,0.0,0.0,-4.92744,-10.19865,7.16197,8.63,0.75,0.08,4.0
1758088389.22625,1758088386.67635,0.0,0.0,0.0,-3.20856,-13.17803,6.41713,8.63,0.75,0.08,4.0
1758088389.22834,1758088386.68635,0.0,0.0,0.0,-1.60428,-15.46986,5.72958,8.33,0.74,-0.04,4.0
1758088389.22893,1758088386.69635,0.0,0.0,0.0,-0.0573,-18.33465,5.15662,8.33,0.74,-0.04,4.0
1758088389.24503,1758088386.70635,0.0,0.0,0.0,1.94806,-22.74642,4.69825,7.86,0.72,-0.27,4.0
1758088389.24617,1758088386.71635,0.0,0.0,0.0,3.09397,-26.01229,4.64096,7.34,0.67,-0.33,4.0
1758088389.26125,1758088386.72635,0.0,0.0,0.0,3.83882,-28.59059,4.87014,7.34,0.67,-0.33,4.0
1758088389.27888,1758088386.73635,0.0,0.0,0.0,4.35448,-28.01764,5.72958,7.14,0.77,-0.17,4.0
1758088389.28134,1758088386.74635,0.0,0.0,0.0,3.38045,-23.83505,5.50039,7.14,0.77,-0.17,4.0
1758088389.29967,1758088386.75635,0.0,0.0,0.0,2.57831,-24.80907,5.61499,6.97,1.01,0.03,4.0
1758088389.3049,1758088386.76635,0.0,0.0,0.0,1.66158,-27.78845,5.84417,6.97,1.01,0.03,4.0
1758088389.3053,1758088386.77635,0.0,0.0,0.0,1.14592,-31.74186,6.24524,5.95,1.18,0.34,4.0
1758088389.32058,1758088386.78635,0.0,0.0,0.0,0.45837,-36.38282,6.41713,6.11,1.04,0.95,4.0
1758088389.33627,1758088386.79635,0.0,0.0,0.0,0.22918,-43.54479,4.35448,6.11,1.04,0.95,4.0
1758088389.33805,1758088386.80635,0.0,0.0,0.0,0.17189,-47.95657,0.40107,7.92,-0.05,2.51,4.0
1758088389.35563,1758088386.81635,0.0,0.0,0.0,1.94806,-45.43555,-2.86479,7.92,-0.05,2.51,4.0
1758088389.3566,1758088386.82635,0.0,0.0,0.0,5.72958,-34.43476,-10.48513,13.53,-1.47,5.18,4.0
1758088389.37391,1758088386.83635,0.0,0.0,0.0,10.19865,-26.81443,-14.49583,13.53,-1.47,5.18,4.0
1758088389.37473,1758088386.84635,0.0,0.0,0.0,17.18874,-39.99245,-13.06344,17.21,-3.62,5.41,4.0
1758088389.3909,1758088386.85635,0.0,0.0,0.0,26.24147,-71.90621,-4.87014,17.21,-3.62,5.41,4.0
1758088389.406,1758088386.86635,0.0,0.0,0.0,38.84654,-83.93832,2.00535,12.78,-5.46,3.46,4.0
1758088389.41141,1758088386.87635,0.0,0.0,0.0,45.14908,-66.11933,7.10468,18.26,-6.57,0.27,4.0
1758088389.42601,1758088386.88635,0.0,0.0,0.0,48.70141,-48.64412,9.39651,18.26,-6.57,0.27,4.0
1758088389.43117,1758088386.89635,0.0,0.0,0.0,49.21708,-33.51803,12.08941,19.08,-5.21,-0.28,4.0
1758088389.44598,1758088386.90635,0.0,0.0,0.0,47.89928,-11.57375,13.06344,19.08,-5.21,-0.28,4.0
1758088389.45117,1758088386.91635,0.0,0.0,0.0,47.49821,11.45916,15.24068,16.7,-2.43,-0.26,4.0
1758088389.46602,1758088386.92635,0.0,0.0,0.0,46.86795,26.06958,17.30333,16.7,-2.43,-0.26,4.0
1758088389.47139,1758088386.93635,0.0,0.0,0.0,42.91454,35.86716,18.56383,14.65,-0.96,-0.29,4.0
1758088389.48593,1758088386.94635,0.0,0.0,0.0,38.15899,38.27358,18.10547,14.76,-0.18,1.11,4.0
1758088389.48879,1758088386.95635,0.0,0.0,0.0,32.42941,43.14373,14.32395,14.76,-0.18,1.11,4.0
1758088389.50598,1758088386.96635,0.0,0.0,0.0,26.87172,51.10783,8.136,15.51,-0.28,0.46,4.0
1758088389.50779,1758088386.97635,0.0,0.0,0.0,20.45459,59.64491,-1.20321,15.51,-0.28,0.46,4.0
1758088389.52282,1758088386.98635,0.0,0.0,0.0,18.22006,64.40046,-6.07335,13.66,-0.99,0.87,4.0
1758088389.52561,1758088386.99635,0.0,0.0,0.0,17.36062,68.75494,-8.25059,13.66,-0.99,0.87,4.0
1758088389.54121,1758088387.00635,0.0,0.0,0.0,16.95955,71.50513,-8.136,12.05,-1.41,0.83,4.0
1758088389.55807,1758088387.01635,0.0,0.0,0.0,16.84496,69.21331,-5.61499,10.63,-1.55,0.56,4.0
1758088389.56094,1758088387.02635,0.0,0.0,0.0,17.01685,63.19725,-3.20856,10.63,-1.55,0.56,4.0
1758088389.57627,1758088387.03635,0.0,0.0,0.0,17.58981,53.97263,0.17189,9.13,-1.59,0.31,4.0
1758088389.57747,1758088387.04635,0.0,0.0,0.0,17.93358,44.8053,3.95341,9.13,-1.59,0.31,4.0
1758088389.59365,1758088387.05635,0.0,0.0,0.0,17.93358,34.14828,9.22462,8.18,-1.65,0.11,4.0
1758088389.59483,1758088387.06635,0.0,0.0,0.0,16.04282,32.83048,10.8862,8.18,-1.65,0.11,4.0
1758088389.61058,1758088387.07635,0.0,0.0,0.0,16.272,47.09713,11.22997,8.09,-1.59,0.14,4.0
1758088389.62601,1758088387.08635,0.0,0.0,0.0,13.98017,66.06203,7.79223,8.09,-1.59,0.14,4.0
1758088389.63118,1758088387.09635,0.0,0.0,0.0,13.12073,68.98412,7.62034,8.68,-1.24,0.32,4.0
1758088389.67089,1758088387.10635,0.0,0.0,0.0,13.23533,48.75871,8.30789,4.58,-0.9,2.01,4.0
1758088389.6753,1758088387.11635,0.0,0.0,0.0,12.83425,26.06958,7.44845,4.58,-0.9,2.01,4.0
1758088389.67667,1758088387.12635,0.0,0.0,0.0,12.54778,16.73037,6.18794,4.61,-0.69,0.14,4.0
1758088389.68035,1758088387.13635,0.0,0.0,0.0,13.12073,17.01685,5.09932,4.61,-0.69,0.14,4.0
1758088389.681,1758088387.14635,0.0,0.0,0.0,14.38124,13.80828,4.35448,6.08,-0.53,-0.6,4.0
1758088389.69978,1758088387.15635,0.0,0.0,0.0,16.10011,7.84952,3.20856,6.08,-0.53,-0.6,4.0
1758088389.7009,1758088387.16635,0.0,0.0,0.0,18.9649,0.0573,1.20321,5.64,-0.7,-0.1,4.0
1758088389.71711,1758088387.17635,0.0,0.0,0.0,20.97026,-5.78687,-0.11459,6.29,-0.88,0.02,4.0
1758088389.71846,1758088387.18635,0.0,0.0,0.0,22.68913,-13.06344,-1.3751,6.29,-0.88,0.02,4.0
1758088389.73383,1758088387.19635,0.0,0.0,0.0,23.83505,-19.53786,-2.34913,6.8,-1.02,0.04,4.0
1758088389.73586,1758088387.20635,0.0,0.0,0.0,24.98096,-27.2155,-3.26586,6.8,-1.02,0.04,4.0
1758088389.75315,1758088387.21635,0.0,0.0,0.0,25.55392,-31.28349,-3.38045,7.64,-1.12,0.04,4.0
1758088389.75402,1758088387.22635,0.0,0.0,0.0,25.38203,-34.66395,-4.23989,7.64,-1.12,0.04,4.0
1758088389.77028,1758088387.23635,0.0,0.0,0.0,24.98096,-37.29956,-4.64096,8.23,-1.19,0.19,4.0
1758088389.78606,1758088387.24635,0.0,0.0,0.0,23.89234,-39.53409,-4.52637,9.01,-1.19,0.56,4.0
1758088389.78727,1758088387.25635,0.0,0.0,0.0,22.51724,-37.24226,-4.58366,9.01,-1.19,0.56,4.0
1758088389.8266,1758088387.26635,0.0,0.0,0.0,20.79837,-33.11696,-4.87014,9.95,-1.12,0.71,4.0
1758088389.82946,1758088387.27635,0.0,0.0,0.0,18.9649,-27.38738,-6.47442,9.95,-1.12,0.71,4.0
1758088389.82992,1758088387.28635,0.0,0.0,0.0,15.87093,-21.08485,-7.84952,10.13,-0.92,0.68,4.0
1758088389.83344,1758088387.29635,0.0,0.0,0.0,13.40721,-19.53786,-9.4538,10.13,-0.92,0.68,4.0
1758088389.83409,1758088387.30635,0.0,0.0,0.0,11.11538,-19.76705,-10.71431,9.54,-0.62,0.63,4.0
1758088389.85035,1758088387.31635,0.0,0.0,0.0,8.136,-21.94428,-12.37589,9.54,-0.62,0.63,4.0
1758088389.86651,1758088387.32635,0.0,0.0,0.0,6.7609,-21.7151,-13.06344,9.17,-0.43,0.34,4.0
1758088389.87043,1758088387.33635,0.0,0.0,0.0,5.55769,-20.05352,-13.5218,9.35,-0.58,0.25,4.0
1758088389.91305,1758088387.34635,0.0,0.0,0.0,4.69825,-16.67307,-14.03747,9.35,-0.58,0.25,4.0
1758088389.91589,1758088387.35635,0.0,0.0,0.0,3.38045,-12.08941,-14.83961,9.45,-0.89,0.44,4.0
1758088389.91639,1758088387.36635,0.0,0.0,0.0,2.06265,-10.19865,-15.35527,9.45,-0.89,0.44,4.0
1758088389.91745,1758088387.37635,0.0,0.0,0.0,0.51566,-9.39651,-15.58445,9.04,-1.11,0.48,4.0
1758088389.9192,1758088387.38635,0.0,0.0,0.0,-1.3751,-9.5684,-15.41257,9.04,-1.11,0.48,4.0
1758088389.93612,1758088387.39635,0.0,0.0,0.0,-4.52637,-10.19865,-15.06879,8.54,-1.14,0.22,4.0
1758088389.93726,1758088387.40635,0.0,0.0,0.0,-6.70361,-11.11538,-14.66772,8.15,-1.07,-0.15,4.0
1758088389.95228,1758088387.41635,0.0,0.0,0.0,-8.99544,-11.86023,-14.09476,8.15,-1.07,-0.15,4.0
1758088389.95409,1758088387.42635,0.0,0.0,0.0,-11.22997,-12.37589,-13.5218,7.87,-0.89,-0.29,4.0
1758088389.97038,1758088387.43635,0.0,0.0,0.0,-14.61043,-12.77696,-13.5218,7.87,-0.89,-0.29,4.0
1758088389.98596,1758088387.44635,0.0,0.0,0.0,-16.55848,-14.38124,-13.69369,7.51,-0.64,-0.44,4.0
1758088389.99039,1758088387.45635,0.0,0.0,0.0,-18.50654,-16.61578,-13.80828,7.51,-0.64,-0.44,4.0
1758088390.00606,1758088387.46635,0.0,0.0,0.0,-19.99623,-19.25138,-14.38124,6.93,-0.42,-0.63,4.0
1758088390.00726,1758088387.47635,0.0,0.0,0.0,-21.48592,-25.38203,-13.86558,6.82,-0.23,-0.35,4.0
1758088390.02368,1758088387.48635,0.0,0.0,0.0,-22.34536,-29.22085,-12.43318,6.82,-0.23,-0.35,4.0
1758088390.02583,1758088387.49635,0.0,0.0,0.0,-23.60586,-33.46074,-10.48513,8.24,0.15,1.19,4.0
1758088390.04106,1758088387.50635,0.0,0.0,0.0,-24.57989,-39.76327,-7.44845,8.24,0.15,1.19,4.0
1758088390.05806,1758088387.51635,0.0,0.0,0.0,-26.41335,-48.41494,-6.35983,11.07,0.41,2.8,4.0
1758088390.06067,1758088387.52635,0.0,0.0,0.0,-30.19488,-53.68615,-7.16197,11.07,0.41,2.8,4.0
1758088390.07725,1758088387.53635,0.0,0.0,0.0,-34.49206,-50.01921,-9.22462,14.1,1.07,3.72,4.0
1758088390.08127,1758088387.54635,0.0,0.0,0.0,-40.39353,-35.3515,-11.51645,14.1,1.07,3.72,4.0
1758088390.09638,1758088387.55635,0.0,0.0,0.0,-44.63341,-23.89234,-13.00614,15.28,1.9,2.2,4.0
1758088390.09763,1758088387.56635,0.0,0.0,0.0,-49.50356,-12.49048,-13.69369,15.14,2.22,2.56,4.0
1758088390.1138,1758088387.57635,0.0,0.0,0.0,-54.02992,2.46372,-13.46451,15.14,2.22,2.56,4.0
1758088390.11744,1758088387.58635,0.0,0.0,0.0,-62.16592,26.12688,-12.54778,18.56,2.97,2.87,4.0
1758088390.1345,1758088387.59635,0.0,0.0,0.0,-64.85883,29.9084,-14.20935,18.56,2.97,2.87,4.0
1758088390.13656,1758088387.60635,0.0,0.0,0.0,-60.73353,14.9542,-16.3293,17.84,2.06,1.09,4.0
1758088390.1521,1758088387.61635,0.0,0.0,0.0,-53.74345,-7.96411,-14.78231,17.84,2.06,1.09,4.0
1758088390.15483,1758088387.62635,0.0,0.0,0.0,-48.64412,-14.66772,-13.34992,12.24,-0.57,0.02,4.0
1758088390.17115,1758088387.63635,0.0,0.0,0.0,-43.65939,13.06344,-14.9542,15.33,-2.19,-0.61,4.0
1758088390.17466,1758088387.64635,0.0,0.0,0.0,-35.98175,41.42485,-14.03747,15.33,-2.19,-0.61,4.0
1758088390.19109,1758088387.65635,0.0,0.0,0.0,-28.36141,50.93595,-14.03747,14.96,-2.75,0.9,4.0
1758088390.40501,1758088387.66635,0.0,0.0,0.0,-18.79302,52.42564,-10.94349,14.96,-2.75,0.9,4.0
1758088390.40623,1758088387.67635,0.0,0.0,0.0,-13.06344,48.64412,-6.41713,13.42,-1.57,2.78,4.0
1758088390.40721,1758088387.68635,0.0,0.0,0.0,-9.28192,40.7373,-2.00535,13.42,-1.57,2.78,4.0
1758088390.40978,1758088387.69635,0.0,0.0,0.0,-8.59437,25.61122,2.40642,12.21,-0.38,1.28,4.0
1758088390.41031,1758088387.70635,0.0,0.0,0.0,-9.85487,9.91217,4.29718,10.71,0.39,0.85,4.0
1758088390.41481,1758088387.71635,0.0,0.0,0.0,-11.11538,5.78687,5.84417,10.71,0.39,0.85,4.0
1758088390.41537,1758088387.72635,0.0,0.0,0.0,-12.89155,6.13065,5.32851,10.77,0.71,0.08,4.0
1758088390.41653,1758088387.73635,0.0,0.0,0.0,-15.24068,9.91217,2.57831,10.77,0.71,0.08,4.0
1758088390.41726,1758088387.74635,0.0,0.0,0.0,-16.272,11.63104,-0.45837,10.3,0.9,0.64,4.0
1758088390.41808,1758088387.75635,0.0,0.0,0.0,-16.3293,14.32395,-2.92208,10.3,0.9,0.64,4.0
1758088390.41993,1758088387.76635,0.0,0.0,0.0,-16.90226,17.99088,-5.61499,9.33,0.98,0.73,4.0
1758088390.4207,1758088387.77635,0.0,0.0,0.0,-16.90226,23.66316,-8.47978,8.72,0.98,0.9,4.0
1758088390.42186,1758088387.78635,0.0,0.0,0.0,-16.3293,25.43933,-9.4538,8.72,0.91,0.9,4.0
1758088390.42261,1758088387.79635,0.0,0.0,0.0,-15.69904,25.15285,-9.96947,7.98,0.72,0.91,4.0
1758088390.42448,1758088387.80635,0.0,0.0,0.0,-15.12609,24.00693,-9.68299,7.98,0.72,0.91,4.0
1758088390.42512,1758088387.81635,0.0,0.0,0.0,-14.38124,22.34536,-9.05273,7.76,0.45,0.85,4.0
1758088390.42675,1758088387.82635,0.0,0.0,0.0,-13.5791,20.34,-8.25059,7.76,0.45,0.85,4.0
1758088390.42786,1758088387.83635,0.0,0.0,0.0,-13.12073,18.62113,-7.16197,7.66,0.18,0.58,4.0
1758088390.42905,1758088387.84635,0.0,0.0,0.0,-12.71966,17.6471,-5.90147,7.66,0.18,0.58,4.0
1758088390.42965,1758088387.85635,0.0,0.0,0.0,-12.2613,21.08485,-3.83882,7.77,-0.02,0.62,4.0
1758088390.43092,1758088387.86635,0.0,0.0,0.0,-11.80293,24.75178,-2.11994,8.16,-0.1,0.65,4.0
1758088390.43189,1758088387.87635,0.0,0.0,0.0,-11.34457,28.64789,-0.57296,8.16,-0.1,0.65,4.0
1758088390.43226,1758088387.88635,0.0,0.0,0.0,-11.22997,30.88243,0.74485,8.08,-0.05,0.86,4.0
1758088390.43502,1758088387.89635,0.0,0.0,0.0,-11.28727,30.36677,1.3751,8.08,-0.05,0.86,4.0
1758088390.43582,1758088387.90635,0.0,0.0,0.0,-11.11538,29.10626,1.94806,7.78,0.15,0.79,4.0
1758088390.45112,1758088387.91635,0.0,0.0,0.0,-11.11538,25.72581,1.3178,7.78,0.15,0.79,4.0
1758088390.46841,1758088387.92635,0.0,0.0,0.0,-11.00079,17.47521,1.03132,7.68,0.29,0.4,4.0
1758088390.46936,1758088387.93635,0.0,0.0,0.0,-9.39651,4.58366,3.66693,6.89,0.4,-0.1,4.0
1758088390.48501,1758088387.94635,0.0,0.0,0.0,-8.88085,-4.1253,4.46907,6.89,0.4,-0.1,4.0
1758088390.48616,1758088387.95635,0.0,0.0,0.0,-8.42248,-5.21392,6.47442,7.69,0.41,-0.28,4.0
1758088390.50121,1758088387.96635,0.0,0.0,0.0,-9.22462,-4.35448,7.67763,7.69,0.41,-0.28,4.0
1758088390.52004,1758088387.97635,0.0,0.0,0.0,-10.59972,-6.99009,7.79223,8.18,0.49,-0.25,4.0
1758088390.52525,1758088387.98635,0.0,0.0,0.0,-12.43318,-11.45916,7.67763,8.18,0.49,-0.25,4.0
1758088390.52671,1758088387.99635,0.0,0.0,0.0,-13.75099,-16.21471,7.50575,8.13,0.7,0.36,4.0
1758088390.54332,1758088388.00635,0.0,0.0,0.0,-15.69904,-23.94964,7.39116,8.51,0.84,0.36,4.0
1758088390.5455,1758088388.01635,0.0,0.0,0.0,-15.98552,-28.13223,7.21927,8.51,0.84,0.36,4.0
1758088390.56145,1758088388.02635,0.0,0.0,0.0,-15.58445,-29.22085,6.8182,9.03,0.68,0.37,4.0
1758088390.57718,1758088388.03635,0.0,0.0,0.0,-14.66772,-28.36141,6.53172,9.03,0.68,0.37,4.0
1758088390.57997,1758088388.04635,0.0,0.0,0.0,-12.77696,-23.66316,6.41713,9.5,0.34,0.37,4.0
1758088390.5953,1758088388.05635,0.0,0.0,0.0,-11.17268,-19.13679,6.35983,9.5,0.34,0.37,4.0
1758088390.59667,1758088388.06635,0.0,0.0,0.0,-9.5684,-15.06879,6.99009,9.6,0.01,0.46,4.0
1758088390.65612,1758088388.07635,0.0,0.0,0.0,-7.67763,-12.89155,7.62034,9.6,0.01,0.46,4.0
1758088390.65998,1758088388.08635,0.0,0.0,0.0,-5.09932,-13.80828,9.05273,9.22,-0.27,0.35,4.0
1758088390.66035,1758088388.09635,0.0,0.0,0.0,-3.26586,-17.13144,10.59972,8.7,-0.38,0.13,4.0
1758088390.66347,1758088388.10635,0.0,0.0,0.0,-1.83346,-19.36597,11.45916,8.7,-0.38,0.13,4.0
1758088390.66385,1758088388.11635,0.0,0.0,0.0,0.11459,-18.33465,13.23533,8.87,-0.33,-0.33,4.0
1758088390.66588,1758088388.12635,0.0,0.0,0.0,1.43239,-13.34992,14.49583,8.87,-0.33,-0.33,4.0
1758088390.66881,1758088388.13635,0.0,0.0,0.0,2.63561,-9.5684,15.46986,9.07,-0.12,-0.41,4.0
1758088390.68618,1758088388.14635,0.0,0.0,0.0,3.49504,-7.50575,16.04282,9.07,-0.12,-0.41,4.0
1758088390.68819,1758088388.15635,0.0,0.0,0.0,4.81285,-7.50575,16.3293,8.57,0.08,-0.24,4.0
1758088390.72554,1758088388.16635,0.0,0.0,0.0,5.72958,-9.4538,15.98552,7.95,0.29,-0.14,4.0
1758088390.72649,1758088388.17635,0.0,0.0,0.0,6.7609,-11.86023,15.46986,7.95,0.29,-0.14,4.0
1758088390.72712,1758088388.18635,0.0,0.0,0.0,7.67763,-14.32395,14.83961,7.52,0.52,-0.2,4.0
1758088390.7299,1758088388.19635,0.0,0.0,0.0,9.39651,-19.07949,13.17803,7.52,0.52,-0.2,4.0
1758088390.74514,1758088388.20635,0.0,0.0,0.0,10.71431,-22.34536,12.2613,7.01,0.72,-0.19,4.0
1758088390.74654,1758088388.21635,0.0,0.0,0.0,11.97482,-25.7831,11.51645,7.01,0.72,-0.19,4.0
1758088390.76641,1758088388.22635,0.0,0.0,0.0,13.17803,-28.07493,10.8862,6.59,0.85,-0.02,4.0
1758088390.77141,1758088388.23635,0.0,0.0,0.0,14.83961,-30.36677,9.74028,6.68,0.81,0.87,4.0
1758088390.78619,1758088388.24635,0.0,0.0,0.0,16.50119,-37.98711,8.30789,6.68,0.81,0.87,4.0
1758088390.79139,1758088388.25635,0.0,0.0,0.0,17.76169,-51.90998,5.72958,7.18,0.2,2.63,4.0
1758088390.80619,1758088388.26635,0.0,0.0,0.0,19.19409,-62.91077,3.38045,7.18,0.2,2.63,4.0
1758088390.80773,1758088388.27635,0.0,0.0,0.0,22.23076,-70.01544,1.71887,10.87,-0.69,3.47,4.0
1758088390.8255,1758088388.28635,0.0,0.0,0.0,23.66316,-69.04142,1.3751,10.87,-0.69,3.47,4.0
1758088390.82639,1758088388.29635,0.0,0.0,0.0,25.43933,-62.16592,1.83346,14.49,-2.01,2.42,4.0
1758088390.84545,1758088388.30635,0.0,0.0,0.0,27.33009,-50.3057,3.89611,14.49,-2.01,2.42,4.0
1758088390.84681,1758088388.31635,0.0,0.0,0.0,30.48136,-27.67386,6.18794,15.07,-3.41,1.07,4.0
1758088390.86119,1758088388.32635,0.0,0.0,0.0,32.83048,-11.80293,8.76626,15.13,-3.91,1.51,4.0
1758088390.87727,1758088388.33635,0.0,0.0,0.0,35.52338,4.87014,10.71431,15.13,-3.91,1.51,4.0
1758088390.88085,1758088388.34635,0.0,0.0,0.0,37.29956,-4.1253,10.08406,18.14,-3.79,2.39,4.0
1758088390.92019,1758088388.35635,0.0,0.0,0.0,33.23156,-17.87628,6.99009,18.14,-3.79,2.39,4.0
1758088390.92392,1758088388.36635,0.0,0.0,0.0,27.1582,-15.0115,0.97403,17.53,-2.62,-0.22,4.0
1758088390.92522,1758088388.37635,0.0,0.0,0.0,27.33009,5.72958,2.6929,17.53,-2.62,-0.22,4.0
1758088390.92663,1758088388.38635,0.0,0.0,0.0,29.56462,36.15364,5.72958,17.79,-1.13,-1.4,4.0
1758088390.92792,1758088388.39635,0.0,0.0,0.0,30.99702,52.71212,8.47978,14.84,-0.11,0.88,4.0
1758088390.94505,1758088388.40635,0.0,0.0,0.0,29.96569,64.17127,10.48513,14.84,-0.11,0.88,4.0
1758088390.94624,1758088388.41635,0.0,0.0,0.0,26.98631,69.90086,10.94349,14.06,0.07,2.29,4.0
1758088390.96148,1758088388.42635,0.0,0.0,0.0,22.23076,64.22858,9.74028,14.06,0.07,2.29,4.0
1758088390.97901,1758088388.43635,0.0,0.0,0.0,19.19409,56.60823,7.33386,13.47,-0.6,1.48,4.0
1758088390.98021,1758088388.44635,0.0,0.0,0.0,16.73037,46.00851,4.69825,13.47,-0.6,1.48,4.0
1758088390.99548,1758088388.45635,0.0,0.0,0.0,15.75634,45.20637,1.94806,12.5,-1.47,0.71,4.0
1758088390.99798,1758088388.46635,0.0,0.0,0.0,16.38659,57.0093,2.29183,12.74,-1.88,0.47,4.0
1758088391.01324,1758088388.47635,0.0,0.0,0.0,16.3293,57.92604,2.6929,12.74,-1.88,0.47,4.0
1758088391.0152,1758088388.48635,0.0,0.0,0.0,15.58445,51.27972,3.20856,9.89,-1.53,1.19,4.0
1758088391.03155,1758088388.49635,0.0,0.0,0.0,14.61043,39.3622,4.58366,9.89,-1.53,1.19,4.0
1758088391.04744,1758088388.50635,0.0,0.0,0.0,13.00614,25.8404,8.70896,8.15,-0.79,0.53,4.0
1758088391.04871,1758088388.51635,0.0,0.0,0.0,12.204,21.14215,11.45916,8.15,-0.79,0.53,4.0
1758088391.06322,1758088388.52635,0.0,0.0,0.0,11.51645,15.0115,13.46451,7.93,-0.43,0.15,4.0
1758088391.06604,1758088388.53635,0.0,0.0,0.0,8.70896,12.08941,14.32395,7.93,-0.43,0.15,4.0
1758088391.08631,1758088388.54635,0.0,0.0,0.0,8.25059,21.88699,12.60507,7.54,-0.47,0.36,4.0
1758088391.08741,1758088388.55635,0.0,0.0,0.0,6.7609,34.77854,9.39651,8.76,-0.46,0.31,4.0
1758088391.10254,1758088388.56635,0.0,0.0,0.0,4.1253,45.03448,5.61499,8.76,-0.46,0.31,4.0
1758088391.12007,1758088388.57635,0.0,0.0,0.0,2.46372,40.7946,2.63561,7.58,-0.52,1.33,4.0
1758088391.12183,1758088388.58635,0.0,0.0,0.0,2.11994,28.24682,2.11994,7.58,-0.52,1.33,4.0
1758088391.13724,1758088388.59635,0.0,0.0,0.0,0.45837,12.54778,-0.11459,5.73,-0.54,0.57,4.0
1758088391.13951,1758088388.60635,0.0,0.0,0.0,-0.34377,5.84417,-0.85944,5.73,-0.54,0.57,4.0
1758088391.15424,1758088388.61635,0.0,0.0,0.0,-0.74485,1.20321,-2.46372,6.26,-0.53,-0.73,4.0
1758088391.15624,1758088388.62635,0.0,0.0,0.0,-0.0573,-4.58366,-2.97938,6.16,-0.62,-0.69,4.0
1758088391.17121,1758088388.63635,0.0,0.0,0.0,0.85944,-10.71431,-3.20856,6.16,-0.62,-0.69,4.0
1758088391.18722,1758088388.64635,0.0,0.0,0.0,2.23454,-17.01685,-3.72423,6.28,-0.77,-0.14,4.0
1758088391.18921,1758088388.65635,0.0,0.0,0.0,4.46907,-28.476,-4.46907,6.28,-0.77,-0.14,4.0
1758088391.2058,1758088388.66635,0.0,0.0,0.0,5.32851,-33.63263,-5.09932,6.64,-0.88,-0.22,4.0
1758088391.20812,1758088388.67635,0.0,0.0,0.0,6.7609,-38.27358,-4.87014,6.64,-0.88,-0.22,4.0
1758088391.22541,1758088388.68635,0.0,0.0,0.0,7.39116,-41.88322,-4.98473,7.45,-1.08,-0.1,4.0
1758088391.22627,1758088388.69635,0.0,0.0,0.0,7.16197,-44.11775,-5.72958,8.22,-1.21,0.01,4.0
1758088391.27035,1758088388.70635,0.0,0.0,0.0,6.87549,-42.57077,-6.35983,8.22,-1.21,0.01,4.0
1758088391.27503,1758088388.71635,0.0,0.0,0.0,6.18794,-37.52874,-6.07335,9.27,-1.22,0.16,4.0
1758088391.279,1758088388.72635,0.0,0.0,0.0,4.46907,-29.50733,-6.8182,9.27,-1.22,0.16,4.0
1758088391.28065,1758088388.73635,0.0,0.0,0.0,2.63561,-20.68378,-7.73493,9.85,-1.08,0.31,4.0
1758088391.28119,1758088388.74635,0.0,0.0,0.0,0.11459,-17.58981,-8.76626,9.85,-1.08,0.31,4.0
1758088391.29931,1758088388.75635,0.0,0.0,0.0,-2.57831,-15.12609,-9.62569,9.37,-0.73,0.48,4.0
1758088391.30048,1758088388.76635,0.0,0.0,0.0,-5.90147,-13.5218,-10.37054,9.37,-0.73,0.48,4.0
1758088391.31535,1758088388.77635,0.0,0.0,0.0,-8.0787,-13.46451,-10.8862,9.24,-0.38,0.08,4.0
1758088391.31652,1758088388.78635,0.0,0.0,0.0,-10.19865,-13.5218,-11.51645,9.16,-0.38,-0.13,4.0
1758088391.33152,1758088388.79635,0.0,0.0,0.0,-12.204,-13.12073,-12.08941,9.16,-0.38,-0.13,4.0
1758088391.34913,1758088388.80635,0.0,0.0,0.0,-15.0115,-11.45916,-13.00614,9.34,-0.56,-0.16,4.0
1758088391.35171,1758088388.81635,0.0,0.0,0.0,-16.90226,-9.96947,-13.12073,9.34,-0.56,-0.16,4.0
1758088391.35546,1758088388.82635,0.0,0.0,0.0,-18.62113,-8.136,-13.17803,9.37,-0.79,-0.15,4.0
1758088391.37123,1758088388.83635,0.0,0.0,0.0,-20.45459,-6.7609,-12.71966,9.37,-0.79,-0.15,4.0
1758088391.38844,1758088388.84635,0.0,0.0,0.0,-23.66316,-5.4431,-11.74564,9.24,-0.98,0.04,4.0
1758088391.39024,1758088388.85635,0.0,0.0,0.0,-25.89769,-4.69825,-10.8862,8.94,-1.07,0.08,4.0
1758088391.4052,1758088388.86635,0.0,0.0,0.0,-28.36141,-4.23989,-10.25595,8.94,-1.07,0.08,4.0
1758088391.40645,1758088388.87635,0.0,0.0,0.0,-30.93972,-3.95341,-9.68299,8.51,-1.05,0.02,4.0
1758088391.42126,1758088388.88635,0.0,0.0,0.0,-35.06502,-4.18259,-9.22462,8.51,-1.05,0.02,4.0
1758088391.43725,1758088388.89635,0.0,0.0,0.0,-37.52874,-6.07335,-9.11003,8.02,-0.93,0.02,4.0
1758088391.44011,1758088388.90635,0.0,0.0,0.0,-39.82057,-9.33921,-9.33921,8.02,-0.93,0.02,4.0
1758088391.4553,1758088388.91635,0.0,0.0,0.0,-41.88322,-12.89155,-9.96947,7.4,-0.77,-0.07,4.0
1758088391.45684,1758088388.92635,0.0,0.0,0.0,-43.60209,-19.19409,-10.37054,7.01,-0.69,-0.06,4.0
1758088391.47127,1758088388.93635,0.0,0.0,0.0,-44.17505,-22.40265,-10.37054,7.01,-0.69,-0.06,4.0
1758088391.48735,1758088388.94635,0.0,0.0,0.0,-44.11775,-24.12152,-9.68299,7.41,-0.6,0.66,4.0
1758088391.48854,1758088388.95635,0.0,0.0,0.0,-44.28964,-24.75178,-7.62034,7.41,-0.6,0.66,4.0
1758088391.50357,1758088388.96635,0.0,0.0,0.0,-43.88857,-36.49741,-4.92744,8.79,-0.23,2.31,4.0
1758088391.50458,1758088388.97635,0.0,0.0,0.0,-46.1231,-55.57691,-4.69825,8.79,-0.23,2.31,4.0
1758088391.52381,1758088388.98635,0.0,0.0,0.0,-48.9879,-62.16592,-5.84417,9.85,0.36,3.47,4.0
1758088391.52816,1758088388.99635,0.0,0.0,0.0,-50.93595,-49.61814,-7.33386,9.85,0.36,2.62,4.0
1758088391.5358,1758088389.00635,0.0,0.0,0.0,-52.02457,-38.78925,-8.36518,14.31,1.09,2.62,4.0
1758088391.55174,1758088389.01635,0.0,0.0,0.0,-52.65482,-24.4653,-8.93814,14.98,1.44,1.7,4.0
1758088391.55489,1758088389.02635,0.0,0.0,0.0,-53.28508,-4.69825,-10.19865,14.98,1.44,1.7,4.0
1758088391.57125,1758088389.03635,0.0,0.0,0.0,-54.88936,28.476,-12.08941,15.87,1.56,1.55,4.0
1758088391.57487,1758088389.04635,0.0,0.0,0.0,-56.83742,46.75336,-13.75099,15.87,1.56,1.55,4.0
1758088391.59071,1758088389.05635,0.0,0.0,0.0,-58.78547,59.41573,-15.0115,17.34,1.71,2.67,4.0
1758088391.59628,1758088389.06635,0.0,0.0,0.0,-56.83742,45.26366,-18.56383,17.34,1.71,2.67,4.0
1758088391.61324,1758088389.07635,0.0,0.0,0.0,-45.03448,-6.70361,-12.43318,16.16,1.29,1.52,4.0
1758088391.61452,1758088389.08635,0.0,0.0,0.0,-35.92446,-18.85031,-8.136,14.92,-0.61,-0.2,4.0
1758088391.63033,1758088389.09635,0.0,0.0,0.0,-33.51803,13.12073,-10.8862,14.92,-0.61,-0.2,4.0
1758088391.64663,1758088389.10635,0.0,0.0,0.0,-24.98096,56.66553,-9.05273,17.98,-2.76,-0.77,4.0
1758088391.64871,1758088389.11635,0.0,0.0,0.0,-17.6471,78.03686,-13.34992,17.98,-2.76,-0.77,4.0
1758088391.66897,1758088389.12635,0.0,0.0,0.0,-14.78231,78.26604,-14.78231,12.03,-3.16,2.0,4.0
1758088391.68321,1758088389.13635,0.0,0.0,0.0,-10.59972,80.78706,-12.14671,12.03,-3.16,2.0,4.0
1758088391.68389,1758088389.14635,0.0,0.0,0.0,-5.50039,76.43258,-7.04738,12.39,-1.58,1.33,4.0
1758088391.68512,1758088389.15635,0.0,0.0,0.0,-5.15662,56.26446,-4.0107,11.97,-0.15,-0.14,4.0
1758088391.70066,1758088389.16635,0.0,0.0,0.0,-4.92744,47.72739,-2.00535,11.97,-0.15,-0.14,4.0
1758088391.71651,1758088389.17635,0.0,0.0,0.0,-3.49504,38.78925,0.74485,11.8,0.65,0.49,4.0
1758088391.72025,1758088389.18635,0.0,0.0,0.0,-4.69825,31.51268,0.11459,11.8,0.65,0.49,4.0
1758088391.73537,1758088389.19635,0.0,0.0,0.0,-7.50575,33.9764,-1.3751,10.54,0.81,0.83,4.0
1758088391.73661,1758088389.20635,0.0,0.0,0.0,-9.74028,55.6915,-4.81285,10.54,0.81,0.83,4.0
1758088391.75139,1758088389.21635,0.0,0.0,0.0,-9.74028,69.55708,-4.81285,11.55,0.85,0.95,4.0
1758088391.7686,1758088389.22635,0.0,0.0,0.0,-11.63104,63.25455,-8.42248,8.2,0.7,2.13,4.0
1758088391.7712,1758088389.23635,0.0,0.0,0.0,-12.54778,50.87865,-10.08406,8.2,0.7,2.13,4.0
1758088391.78638,1758088389.24635,0.0,0.0,0.0,-12.89155,40.96649,-10.8862,6.98,0.62,1.01,4.0
1758088391.79113,1758088389.25635,0.0,0.0,0.0,-12.43318,34.09099,-11.00079,6.98,0.62,1.01,4.0
1758088391.80635,1758088389.26635,0.0,0.0,0.0,-11.28727,29.67921,-9.62569,7.24,0.45,-0.05,4.0
1758088391.81079,1758088389.27635,0.0,0.0,0.0,-9.96947,26.98631,-8.30789,7.24,0.45,-0.05,4.0
1758088391.82629,1758088389.28635,0.0,0.0,0.0,-8.59437,22.28806,-6.58902,6.82,0.2,0.39,4.0
1758088391.8319,1758088389.29635,0.0,0.0,0.0,-7.62034,16.73037,-4.98473,6.82,0.2,0.39,4.0
1758088391.8466,1758088389.30635,0.0,0.0,0.0,-6.70361,7.33386,-2.6929,6.33,-0.01,0.82,4.0
1758088391.84935,1758088389.31635,0.0,0.0,0.0,-6.41713,0.74485,-1.3751,6.26,-0.06,0.77,4.0
1758088391.8652,1758088389.32635,0.0,0.0,0.0,-6.24524,-5.27121,-0.0573,6.26,-0.06,0.77,4.0
1758088391.86668,1758088389.33635,0.0,0.0,0.0,-6.53172,-10.65701,1.77617,6.41,0.02,0.41,4.0
1758088391.88534,1758088389.34635,0.0,0.0,0.0,-7.21927,-17.99088,2.86479,6.41,0.02,0.41,4.0
1758088391.88731,1758088389.35635,0.0,0.0,0.0,-7.50575,-22.57454,3.83882,6.8,0.18,0.23,4.0
1758088391.92855,1758088389.36635,0.0,0.0,0.0,-8.0787,-26.24147,4.46907,6.8,0.18,0.23,4.0
1758088391.92953,1758088389.37635,0.0,0.0,0.0,-8.42248,-31.11161,4.81285,7.4,0.41,0.29,4.0
1758088391.93018,1758088389.38635,0.0,0.0,0.0,-8.36518,-33.9764,4.64096,8.11,0.58,0.52,4.0
1758088391.93141,1758088389.39635,0.0,0.0,0.0,-7.84952,-34.72124,4.35448,8.11,0.58,0.52,4.0
1758088391.94641,1758088389.40635,0.0,0.0,0.0,-6.8182,-33.86181,3.72423,8.9,0.53,0.69,4.0
1758088391.95162,1758088389.41635,0.0,0.0,0.0,-4.52637,-28.30412,3.26586,8.9,0.53,0.69,4.0
1758088391.9667,1758088389.42635,0.0,0.0,0.0,-2.57831,-23.49127,2.86479,9.33,0.3,0.62,4.0
1758088391.96839,1758088389.43635,0.0,0.0,0.0,-0.17189,-20.51189,3.03668,9.33,0.3,0.62,4.0
1758088391.98364,1758088389.44635,0.0,0.0,0.0,1.71887,-20.79837,4.18259,8.83,-0.02,0.69,4.0
1758088391.98624,1758088389.45635,0.0,0.0,0.0,3.95341,-28.99167,4.98473,7.71,-0.19,0.42,4.0
1758088392.00149,1758088389.46635,0.0,0.0,0.0,5.15662,-32.71589,5.50039,7.71,-0.19,0.42,4.0
1758088392.01848,1758088389.47635,0.0,0.0,0.0,6.70361,-31.62727,7.10468,8.25,-0.27,-0.1,4.0
1758088392.01964,1758088389.48635,0.0,0.0,0.0,8.42248,-26.81443,9.4538,8.25,-0.27,-0.1,4.0
1758088392.03435,1758088389.49635,0.0,0.0,0.0,10.94349,-16.67307,13.23533,9.3,-0.23,-0.18,4.0
1758088392.03743,1758088389.50635,0.0,0.0,0.0,12.71966,-11.74564,15.64175,9.3,-0.23,-0.18,4.0
1758088392.05325,1758088389.51635,0.0,0.0,0.0,14.09476,-9.05273,17.47521,9.21,-0.23,0.16,4.0
1758088392.05444,1758088389.52635,0.0,0.0,0.0,15.24068,-7.62034,18.73572,9.21,-0.23,0.16,4.0
1758088392.07044,1758088389.53635,0.0,0.0,0.0,16.55848,-6.58902,19.70975,8.76,-0.16,0.26,4.0
1758088392.08643,1758088389.54635,0.0,0.0,0.0,17.6471,-7.33386,19.70975,8.4,0.0,-0.03,4.0
1758088392.08844,1758088389.55635,0.0,0.0,0.0,18.56383,-8.30789,19.25138,8.4,0.0,-0.03,4.0
1758088392.10352,1758088389.56635,0.0,0.0,0.0,19.82434,-10.31324,18.27736,8.17,0.25,-0.14,4.0
1758088392.1062,1758088389.57635,0.0,0.0,0.0,20.85567,-10.94349,17.01685,8.17,0.25,-0.14,4.0
1758088392.14724,1758088389.58635,0.0,0.0,0.0,21.88699,-11.28727,16.50119,8.13,0.57,-0.14,4.0
1758088392.1504,1758088389.59635,0.0,0.0,0.0,23.0329,-9.85487,15.64175,8.13,0.57,-0.14,4.0
1758088392.15081,1758088389.60635,0.0,0.0,0.0,24.63719,-5.27121,14.9542,8.14,0.83,-0.1,4.0
1758088392.15361,1758088389.61635,0.0,0.0,0.0,25.55392,-5.15662,14.38124,7.72,0.98,0.13,4.0
1758088392.16867,1758088389.62635,0.0,0.0,0.0,25.89769,-8.88085,13.40721,7.72,0.98,0.13,4.0
1758088392.17479,1758088389.63635,0.0,0.0,0.0,25.89769,-15.06879,12.49048,6.57,1.03,0.45,4.0
1758088392.17519,1758088389.64635,0.0,0.0,0.0,25.61122,-25.26744,11.45916,6.57,1.03,0.45,4.0
1758088392.19074,1758088389.65635,0.0,0.0,0.0,25.7831,-34.95043,10.08406,6.64,0.81,1.37,4.0
1758088392.20671,1758088389.66635,0.0,0.0,0.0,25.38203,-44.11775,7.44845,6.64,0.81,1.37,4.0
1758088392.20841,1758088389.67635,0.0,0.0,0.0,25.89769,-49.21708,4.92744,8.56,0.2,2.58,4.0
1758088392.22476,1758088389.68635,0.0,0.0,0.0,27.67386,-54.3164,3.20856,12.3,-0.79,3.63,4.0
1758088392.22674,1758088389.69635,0.0,0.0,0.0,29.9084,-65.14531,4.23989,12.3,-0.79,3.63,4.0
1758088392.24166,1758088389.70635,0.0,0.0,0.0,32.6013,-71.44785,4.98473,13.28,-2.51,2.84,4.0
1758088392.25953,1758088389.71635,0.0,0.0,0.0,36.26823,-65.14531,8.136,13.28,-2.51,2.84,4.0
1758088392.26072,1758088389.72635,0.0,0.0,0.0,42.85724,-44.00316,14.09476,15.0,-3.89,1.45,4.0
1758088392.27626,1758088389.73635,0.0,0.0,0.0,46.35228,-36.84119,15.29797,15.0,-3.89,1.45,4.0
1758088392.27748,1758088389.74635,0.0,0.0,0.0,50.87865,-24.35071,16.90226,16.99,-4.67,4.03,4.0
1758088392.29325,1758088389.75635,0.0,0.0,0.0,50.1911,-35.63798,13.40721,16.99,-4.67,4.03,4.0
1758088392.29446,1758088389.76635,0.0,0.0,0.0,46.40959,-40.45082,7.39116,18.1,-4.14,1.04,4.0
1758088392.31122,1758088389.77635,0.0,0.0,0.0,44.46153,-22.00158,7.79223,17.07,-1.95,-0.8,4.0
1758088392.32745,1758088389.78635,0.0,0.0,0.0,44.11775,5.27121,9.39651,17.07,-1.95,-0.8,4.0
1758088392.32892,1758088389.79635,0.0,0.0,0.0,44.46153,41.99781,14.72501,16.06,-0.15,-0.93,4.0
1758088392.34344,1758088389.80635,0.0,0.0,0.0,41.59674,53.17049,16.50119,16.06,-0.15,-0.93,4.0
1758088392.34628,1758088389.81635,0.0,0.0,0.0,35.2942,54.14451,15.12609,14.85,0.66,2.85,4.0
1758088392.36726,1758088389.82635,0.0,0.0,0.0,29.39274,48.35764,13.80828,14.85,0.66,2.85,4.0
1758088392.36844,1758088389.83635,0.0,0.0,0.0,22.57454,45.37826,6.07335,15.24,0.2,1.91,4.0
1758088392.38526,1758088389.84635,0.0,0.0,0.0,19.36597,42.28429,3.03668,14.27,-0.85,0.9,4.0
1758088392.38625,1758088389.85635,0.0,0.0,0.0,16.61578,42.05511,-1.48969,14.27,-0.85,0.9,4.0
1758088392.4017,1758088389.86635,0.0,0.0,0.0,16.272,52.9986,-3.26586,13.0,-1.31,0.16,4.0
1758088392.41747,1758088389.87635,0.0,0.0,0.0,16.95955,65.66096,-3.49504,13.0,-1.31,0.16,4.0
1758088392.41947,1758088389.88635,0.0,0.0,0.0,16.50119,63.19725,-2.23454,11.62,-1.36,0.72,4.0
1758088392.4345,1758088389.89635,0.0,0.0,0.0,14.78231,56.83742,-0.97403,11.62,-1.36,0.72,4.0
1758088392.43649,1758088389.90635,0.0,0.0,0.0,13.12073,49.04519,1.14592,9.56,-1.08,0.91,4.0
1758088392.45151,1758088389.91635,0.0,0.0,0.0,11.74564,36.61201,5.32851,8.63,-0.81,0.17,4.0
1758088392.46999,1758088389.92635,0.0,0.0,0.0,11.00079,30.36677,8.02141,8.63,-0.81,0.17,4.0
1758088392.47106,1758088389.93635,0.0,0.0,0.0,10.54242,25.72581,10.31324,7.92,-0.83,0.09,4.0
1758088392.48649,1758088389.94635,0.0,0.0,0.0,10.54242,25.15285,11.57375,7.92,-0.83,0.09,4.0
1758088392.48847,1758088389.95635,0.0,0.0,0.0,9.33921,38.15899,11.11538,7.99,-0.94,0.42,4.0
1758088392.50376,1758088389.96635,0.0,0.0,0.0,9.62569,52.02457,8.25059,7.99,-0.94,0.42,4.0
1758088392.50631,1758088389.97635,0.0,0.0,0.0,8.0787,59.53032,5.27121,8.21,-0.91,0.35,4.0
1758088392.52354,1758088389.98635,0.0,0.0,0.0,8.0787,51.27972,3.20856,8.21,-0.91,0.35,4.0
1758088392.52477,1758088389.99635,0.0,0.0,0.0,8.65166,36.84119,3.38045,5.85,-0.77,1.55,4.0
1758088392.54081,1758088390.00635,0.0,0.0,0.0,8.136,19.88164,1.03132,4.58,-0.61,0.52,4.0
1758088392.55678,1758088390.01635,0.0,0.0,0.0,7.50575,11.57375,-0.22918,4.58,-0.61,0.52,4.0
1758088392.55853,1758088390.02635,0.0,0.0,0.0,6.87549,8.99544,-2.46372,5.77,-0.36,-0.55,4.0
1758088392.57452,1758088390.03635,0.0,0.0,0.0,7.10468,5.55769,-3.49504,5.77,-0.36,-0.55,4.0
1758088392.57628,1758088390.04635,0.0,0.0,0.0,8.0787,0.22918,-3.72423,5.9,-0.46,-0.46,4.0
1758088392.59179,1758088390.05635,0.0,0.0,0.0,9.39651,-5.27121,-4.23989,5.9,-0.46,-0.46,4.0
1758088392.5959,1758088390.06635,0.0,0.0,0.0,11.22997,-16.272,-4.52637,6.17,-0.73,-0.1,4.0
1758088392.61187,1758088390.07635,0.0,0.0,0.0,12.204,-25.61122,-5.15662,6.48,-0.97,-0.1,4.0
1758088392.62859,1758088390.08635,0.0,0.0,0.0,12.37589,-33.00237,-4.64096,6.48,-0.97,-0.1,4.0
1758088392.63125,1758088390.09635,0.0,0.0,0.0,12.49048,-39.4195,-4.52637,7.27,-1.05,0.05,4.0
1758088392.64656,1758088390.10635,0.0,0.0,0.0,10.94349,-43.83128,-5.09932,7.27,-1.05,0.05,4.0
1758088392.64772,1758088390.11635,0.0,0.0,0.0,10.54242,-41.59674,-4.0107,8.39,-1.05,0.14,4.0
1758088392.66356,1758088390.12635,0.0,0.0,0.0,9.68299,-36.32552,-2.92208,8.39,-1.05,0.14,4.0
1758088392.66612,1758088390.13635,0.0,0.0,0.0,8.30789,-31.97105,-2.7502,9.72,-1.11,0.86,4.0
1758088392.68273,1758088390.14635,0.0,0.0,0.0,4.98473,-29.27814,-4.46907,9.35,-0.98,0.95,4.0
1758088392.69938,1758088390.15635,0.0,0.0,0.0,1.83346,-29.04896,-6.07335,9.35,-0.98,0.95,4.0
1758088392.70059,1758088390.16635,0.0,0.0,0.0,-1.03132,-28.13223,-7.62034,8.98,-0.73,0.68,4.0
1758088392.71577,1758088390.17635,0.0,0.0,0.0,-4.92744,-25.61122,-9.5684,8.98,-0.73,0.68,4.0
1758088392.71673,1758088390.18635,0.0,0.0,0.0,-7.10468,-21.94428,-11.00079,9.09,-0.56,0.01,4.0
1758088392.73594,1758088390.19635,0.0,0.0,0.0,-9.11003,-20.22541,-12.37589,9.09,-0.56,0.01,4.0
1758088392.73673,1758088390.20635,0.0,0.0,0.0,-10.94349,-18.85031,-13.34992,9.03,-0.56,0.04,4.0
1758088392.75467,1758088390.21635,0.0,0.0,0.0,-13.06344,-15.75634,-14.15206,9.03,-0.56,0.04,4.0
1758088392.75574,1758088390.22635,0.0,0.0,0.0,-14.09476,-13.34992,-14.32395,9.17,-0.6,0.06,4.0
1758088392.77061,1758088390.23635,0.0,0.0,0.0,-15.06879,-11.11538,-13.98017,9.11,-0.76,0.11,4.0
1758088392.78738,1758088390.24635,0.0,0.0,0.0,-15.75634,-9.74028,-13.5791,9.11,-0.76,0.11,4.0
1758088392.7897,1758088390.25635,0.0,0.0,0.0,-17.24603,-8.136,-12.77696,8.71,-0.95,0.18,4.0
1758088392.80478,1758088390.26635,0.0,0.0,0.0,-18.16276,-8.136,-12.204,8.71,-0.95,0.18,4.0
1758088392.80574,1758088390.27635,0.0,0.0,0.0,-18.90761,-9.5684,-11.74564,8.22,-1.15,0.19,4.0
1758088392.82063,1758088390.28635,0.0,0.0,0.0,-19.88164,-12.37589,-11.57375,8.22,-1.15,0.19,4.0
1758088392.83752,1758088390.29635,0.0,0.0,0.0,-21.7724,-17.24603,-11.57375,7.55,-1.26,0.14,4.0
1758088392.84487,1758088390.30635,0.0,0.0,0.0,-22.97561,-21.08485,-11.91752,7.0,-1.24,-0.03,4.0
1758088392.84554,1758088390.31635,0.0,0.0,0.0,-24.00693,-25.21014,-11.97482,7.0,-1.24,-0.03,4.0
1758088392.86165,1758088390.32635,0.0,0.0,0.0,-24.80907,-28.36141,-11.74564,6.82,-1.06,0.23,4.0
1758088392.87892,1758088390.33635,0.0,0.0,0.0,-26.64254,-30.59595,-9.22462,6.82,-1.06,0.23,4.0
1758088392.88057,1758088390.34635,0.0,0.0,0.0,-27.96034,-32.77319,-6.58902,8.05,-0.48,1.81,4.0
1758088392.89592,1758088390.35635,0.0,0.0,0.0,-29.10626,-43.60209,-2.6929,8.05,-0.48,1.81,4.0
1758088392.89707,1758088390.36635,0.0,0.0,0.0,-34.26288,-62.68159,-0.11459,9.66,0.22,3.89,4.0
1758088392.91398,1758088390.37635,0.0,0.0,0.0,-41.48215,-72.65105,0.45837,13.69,1.45,4.7,4.0
1758088392.91557,1758088390.38635,0.0,0.0,0.0,-45.09178,-62.16592,0.22918,13.69,1.45,4.7,4.0
1758088392.97885,1758088390.39635,0.0,0.0,0.0,-46.98254,-47.09713,-1.66158,16.28,2.14,1.59,4.0
1758088392.97969,1758088390.40635,0.0,0.0,0.0,-48.58683,-17.01685,-8.65166,16.28,2.14,1.59,4.0
1758088392.98033,1758088390.41635,0.0,0.0,0.0,-49.61814,4.0107,-14.38124,14.86,1.64,1.32,4.0
1758088392.98162,1758088390.42635,0.0,0.0,0.0,-50.47758,25.21014,-18.10547,14.86,1.64,1.32,4.0
1758088392.98221,1758088390.43635,0.0,0.0,0.0,-51.85268,44.17505,-19.99623,17.82,1.76,3.27,4.0
1758088392.98342,1758088390.44635,0.0,0.0,0.0,-48.07116,30.19488,-19.25138,18.3,1.76,0.89,4.0
1758088392.99889,1758088390.45635,0.0,0.0,0.0,-43.77398,8.76626,-20.11082,18.3,1.72,0.89,4.0
1758088393.00059,1758088390.46635,0.0,0.0,0.0,-34.43476,-10.37054,-9.28192,13.69,-0.38,-0.23,4.0
1758088393.01659,1758088390.47635,0.0,0.0,0.0,-31.28349,-3.38045,-11.00079,13.69,-0.38,-0.23,4.0
1758088393.0444,1758088390.48635,0.0,0.0,0.0,-22.51724,53.17049,-10.31324,15.62,-2.83,-0.51,4.0
1758088393.04632,1758088390.49635,0.0,0.0,0.0,-16.04282,69.67168,-12.14671,15.62,-2.83,-0.51,4.0
1758088393.05229,1758088390.50635,0.0,0.0,0.0,-9.33921,71.10406,-12.60507,13.47,-3.83,1.58,4.0
1758088393.05364,1758088390.51635,0.0,0.0,0.0,-3.09397,73.45319,-10.19865,13.47,-3.83,1.58,4.0
1758088393.05497,1758088390.52635,0.0,0.0,0.0,2.92208,72.47916,-3.32316,13.26,-2.36,2.89,4.0
1758088393.07066,1758088390.53635,0.0,0.0,0.0,5.09932,59.47303,0.51566,12.76,-0.61,0.42,4.0
1758088393.07501,1758088390.54635,0.0,0.0,0.0,4.69825,44.748,2.57831,12.76,-0.61,0.42,4.0
1758088393.09094,1758088390.55635,0.0,0.0,0.0,4.0107,36.03905,4.23989,11.88,0.45,0.85,4.0
1758088393.1069,1758088390.56635,0.0,0.0,0.0,2.46372,27.73116,4.35448,11.88,0.45,0.85,4.0
1758088393.10943,1758088390.57635,0.0,0.0,0.0,0.40107,23.66316,2.86479,11.17,0.86,0.63,4.0
1758088393.12545,1758088390.58635,0.0,0.0,0.0,-2.29183,32.6013,0.74485,11.17,0.86,0.63,4.0
1758088393.12702,1758088390.59635,0.0,0.0,0.0,-6.13065,59.18654,-2.57831,11.57,1.11,1.29,4.0
1758088393.14188,1758088390.60635,0.0,0.0,0.0,-6.53172,62.62429,-3.66693,10.2,0.96,1.66,4.0
1758088393.15792,1758088390.61635,0.0,0.0,0.0,-7.73493,54.60288,-5.27121,10.2,0.96,1.66,4.0
1758088393.15881,1758088390.62635,0.0,0.0,0.0,-8.136,44.40423,-6.24524,7.54,0.71,1.73,4.0
1758088393.17491,1758088390.63635,0.0,0.0,0.0,-8.42248,32.25753,-6.18794,7.54,0.71,1.73,4.0
1758088393.17824,1758088390.64635,0.0,0.0,0.0,-8.25059,26.75713,-5.61499,7.4,0.37,0.42,4.0
1758088393.19682,1758088390.65635,0.0,0.0,0.0,-7.79223,22.68913,-4.92744,7.4,0.37,0.42,4.0
1758088393.24777,1758088390.66635,0.0,0.0,0.0,-7.21927,19.82434,-3.89611,6.97,0.11,0.33,4.0
1758088393.24838,1758088390.67635,0.0,0.0,0.0,-6.7609,13.46451,-1.94806,6.47,0.0,0.82,4.0
1758088393.24963,1758088390.68635,0.0,0.0,0.0,-6.7609,8.59437,-0.51566,6.47,0.0,0.82,4.0
1758088393.25023,1758088390.69635,0.0,0.0,0.0,-6.8182,2.92208,0.80214,6.18,0.05,0.87,4.0
1758088393.25146,1758088390.70635,0.0,0.0,0.0,-7.33386,-2.11994,1.94806,6.18,0.05,0.87,4.0
1758088393.25364,1758088390.71635,0.0,0.0,0.0,-8.88085,-8.76626,3.38045,6.31,0.23,0.64,4.0
1758088393.2553,1758088390.72635,0.0,0.0,0.0,-10.31324,-12.14671,4.29718,6.31,0.23,0.64,4.0
1758088393.27065,1758088390.73635,0.0,0.0,0.0,-11.91752,-15.06879,4.87014,6.72,0.45,0.4,4.0
1758088393.28752,1758088390.74635,0.0,0.0,0.0,-13.5791,-17.58981,5.4431,6.72,0.45,0.4,4.0
1758088393.29183,1758088390.75635,0.0,0.0,0.0,-16.04282,-21.42862,5.72958,7.17,0.63,0.35,4.0
1758088393.30692,1758088390.76635,0.0,0.0,0.0,-17.36062,-23.66316,5.90147,7.64,0.7,0.46,4.0
1758088393.30785,1758088390.77635,0.0,0.0,0.0,-17.99088,-25.09555,5.90147,7.64,0.7,0.46,4.0
1758088393.32293,1758088390.78635,0.0,0.0,0.0,-17.99088,-26.12688,5.72958,8.28,0.57,0.62,4.0
1758088393.32651,1758088390.79635,0.0,0.0,0.0,-17.18874,-25.21014,5.27121,8.28,0.57,0.62,4.0
1758088393.34189,1758088390.80635,0.0,0.0,0.0,-15.92823,-22.97561,5.15662,9.02,0.29,0.73,4.0
1758088393.36025,1758088390.81635,0.0,0.0,0.0,-14.38124,-19.88164,5.09932,9.02,0.29,0.73,4.0
1758088393.36711,1758088390.82635,0.0,0.0,0.0,-11.57375,-16.61578,5.15662,9.48,-0.03,0.69,4.0
1758088393.36747,1758088390.83635,0.0,0.0,0.0,-9.96947,-15.06879,5.72958,9.5,-0.32,0.63,4.0
1758088393.38569,1758088390.84635,0.0,0.0,0.0,-8.136,-13.75099,6.35983,9.5,-0.32,0.63,4.0
1758088393.38666,1758088390.85635,0.0,0.0,0.0,-6.7609,-14.32395,7.33386,9.41,-0.45,0.49,4.0
1758088393.40164,1758088390.86635,0.0,0.0,0.0,-5.09932,-17.13144,9.05273,9.41,-0.45,0.49,4.0
1758088393.41767,1758088390.87635,0.0,0.0,0.0,-3.55234,-19.25138,9.85487,9.25,-0.42,0.43,4.0
1758088393.41916,1758088390.88635,0.0,0.0,0.0,-2.11994,-19.59516,10.71431,9.25,-0.42,0.43,4.0
1758088393.43363,1758088390.89635,0.0,0.0,0.0,-1.03132,-17.93358,11.34457,9.42,-0.34,0.37,4.0
1758088393.43489,1758088390.90635,0.0,0.0,0.0,0.22918,-13.12073,12.2613,9.4,-0.19,0.42,4.0
1758088393.45077,1758088390.91635,0.0,0.0,0.0,0.68755,-10.19865,13.12073,9.4,-0.19,0.42,4.0
1758088393.46984,1758088390.92635,0.0,0.0,0.0,0.85944,-8.02141,13.46451,8.8,0.03,0.48,4.0
1758088393.47104,1758088390.93635,0.0,0.0,0.0,0.68755,-6.87549,13.86558,8.8,0.03,0.48,4.0
1758088393.49061,1758088390.94635,0.0,0.0,0.0,0.45837,-7.21927,14.20935,8.15,0.3,0.28,4.0
1758088393.50068,1758088390.95635,0.0,0.0,0.0,0.11459,-7.62034,14.03747,8.15,0.3,0.28,4.0
1758088393.50523,1758088390.96635,0.0,0.0,0.0,-0.0573,-7.96411,13.5218,7.87,0.59,-0.03,4.0
1758088393.50808,1758088390.97635,0.0,0.0,0.0,-0.0573,-9.68299,12.37589,7.87,0.59,-0.03,4.0
1758088393.52366,1758088390.98635,0.0,0.0,0.0,0.45837,-11.11538,11.74564,7.62,0.8,-0.16,4.0
1758088393.52568,1758088390.99635,0.0,0.0,0.0,0.80214,-11.11538,10.8289,7.5,0.78,-0.1,4.0
1758088393.54565,1758088391.00635,0.0,0.0,0.0,1.3178,-7.79223,10.19865,7.5,0.78,-0.1,4.0
1758088393.55408,1758088391.01635,0.0,0.0,0.0,2.40642,-3.20856,9.39651,7.64,0.55,0.09,4.0
1758088393.55654,1758088391.02635,0.0,0.0,0.0,2.97938,-4.81285,8.70896,7.64,0.55,0.09,4.0
1758088393.57775,1758088391.03635,0.0,0.0,0.0,3.38045,-9.05273,8.02141,6.64,0.35,0.3,4.0
1758088393.58108,1758088391.04635,0.0,0.0,0.0,3.72423,-13.75099,7.39116,6.64,0.35,0.3,4.0
1758088393.59682,1758088391.05635,0.0,0.0,0.0,4.92744,-22.05888,6.47442,6.24,0.2,0.62,4.0
1758088393.60058,1758088391.06635,0.0,0.0,0.0,7.04738,-33.80451,4.52637,6.81,-0.35,1.94,4.0
1758088393.61594,1758088391.07635,0.0,0.0,0.0,8.25059,-44.8053,1.03132,6.81,-0.35,1.94,4.0
1758088393.61763,1758088391.08635,0.0,0.0,0.0,11.91752,-55.51962,-1.43239,9.44,-1.09,3.19,4.0
1758088393.6336,1758088391.09635,0.0,0.0,0.0,18.50654,-70.53111,-3.49504,9.44,-1.09,3.19,4.0
1758088393.63473,1758088391.10635,0.0,0.0,0.0,22.86102,-73.3959,-2.63561,13.15,-2.47,3.87,4.0
1758088393.65073,1758088391.11635,0.0,0.0,0.0,26.75713,-68.23928,-0.51566,13.15,-2.47,3.87,4.0
1758088393.66842,1758088391.12635,0.0,0.0,0.0,30.65324,-57.12389,2.40642,15.24,-3.79,1.79,4.0
1758088393.67456,1758088391.13635,0.0,0.0,0.0,35.52338,-36.7266,10.02676,14.15,-3.74,1.64,4.0
1758088393.67497,1758088391.14635,0.0,0.0,0.0,37.98711,-21.48592,13.75099,14.15,-3.74,1.64,4.0
1758088393.69079,1758088391.15635,0.0,0.0,0.0,41.02378,-13.40721,18.62113,17.25,-3.6,3.37,4.0
1758088393.73666,1758088391.16635,0.0,0.0,0.0,37.58603,-32.71589,13.69369,17.25,-3.6,3.37,4.0
1758088393.74597,1758088391.17635,0.0,0.0,0.0,28.476,-30.99702,4.64096,17.23,-2.66,-0.21,4.0
1758088393.74634,1758088391.18635,0.0,0.0,0.0,26.47065,-7.04738,2.57831,17.23,-2.66,-0.21,4.0
1758088393.75664,1758088391.19635,0.0,0.0,0.0,25.72581,19.42327,0.80214,17.19,-0.99,-2.3,4.0
1758088393.76525,1758088391.20635,0.0,0.0,0.0,26.69983,42.74266,2.57831,17.19,-0.99,-2.3,4.0
1758088393.76934,1758088391.21635,0.0,0.0,0.0,25.72581,61.65026,3.26586,14.95,0.66,0.39,4.0
1758088393.77577,1758088391.22635,0.0,0.0,0.0,22.23076,59.12925,2.7502,14.13,0.56,2.64,4.0
1758088393.77809,1758088391.23635,0.0,0.0,0.0,18.90761,56.49364,1.14592,14.13,0.56,2.64,4.0
1758088393.78218,1758088391.24635,0.0,0.0,0.0,13.40721,52.19646,-3.03668,14.89,-0.78,1.36,4.0
1758088393.79796,1758088391.25635,0.0,0.0,0.0,11.34457,50.99325,-4.98473,14.89,-0.78,1.36,4.0
1758088393.80412,1758088391.26635,0.0,0.0,0.0,10.25595,54.77477,-7.62034,13.8,-2.17,0.84,4.0
1758088393.82034,1758088391.27635,0.0,0.0,0.0,11.91752,63.77021,-7.67763,13.8,-2.17,0.84,4.0
1758088393.82346,1758088391.28635,0.0,0.0,0.0,14.38124,67.37984,-5.50039,12.96,-2.46,0.67,4.0
1758088393.84057,1758088391.29635,0.0,0.0,0.0,15.75634,62.56699,-3.60963,10.95,-2.07,1.48,4.0
1758088393.84342,1758088391.30635,0.0,0.0,0.0,16.50119,52.25375,-1.48969,10.95,-2.07,1.48,4.0
1758088393.85977,1758088391.31635,0.0,0.0,0.0,16.95955,41.08107,1.83346,9.26,-1.19,0.65,4.0
1758088393.86073,1758088391.32635,0.0,0.0,0.0,17.36062,29.96569,7.44845,9.26,-1.19,0.65,4.0
1758088393.87579,1758088391.33635,0.0,0.0,0.0,17.24603,27.73116,10.71431,8.76,-0.93,0.33,4.0
1758088393.87772,1758088391.34635,0.0,0.0,0.0,16.84496,30.99702,12.37589,8.76,-0.93,0.33,4.0
1758088393.89539,1758088391.35635,0.0,0.0,0.0,15.12609,42.34158,10.59972,8.79,-0.96,0.31,4.0
1758088393.89637,1758088391.36635,0.0,0.0,0.0,13.40721,57.86874,6.41713,8.45,-0.93,0.72,4.0
1758088393.91198,1758088391.37635,0.0,0.0,0.0,12.89155,57.29578,5.50039,8.45,-0.93,0.72,4.0
1758088393.9297,1758088391.38635,0.0,0.0,0.0,13.5218,48.07116,5.21392,6.37,-0.82,1.68,4.0
1758088393.93138,1758088391.39635,0.0,0.0,0.0,13.46451,36.26823,5.4431,6.37,-0.82,1.68,4.0
1758088393.99177,1758088391.40635,0.0,0.0,0.0,13.46451,17.93358,4.52637,5.52,-0.82,0.35,4.0
1758088393.99697,1758088391.41635,0.0,0.0,0.0,14.03747,10.8289,4.52637,5.52,-0.82,0.35,4.0
1758088393.99732,1758088391.42635,0.0,0.0,0.0,15.0115,5.72958,4.0107,5.72,-0.84,-0.36,4.0
1758088394.00253,1758088391.43635,0.0,0.0,0.0,17.6471,-0.97403,3.26586,5.72,-0.84,-0.36,4.0
1758088394.00313,1758088391.44635,0.0,0.0,0.0,19.76705,-5.61499,2.7502,5.73,-1.0,-0.43,4.0
1758088394.00631,1758088391.45635,0.0,0.0,0.0,22.23076,-11.80293,2.00535,5.86,-1.17,-0.2,4.0
1758088394.00772,1758088391.46635,0.0,0.0,0.0,24.75178,-19.19409,1.60428,5.86,-1.17,-0.2,4.0
1758088394.01055,1758088391.47635,0.0,0.0,0.0,27.96034,-31.11161,0.51566,6.05,-1.29,-0.25,4.0
1758088394.02578,1758088391.48635,0.0,0.0,0.0,29.9084,-37.12767,0.45837,6.05,-1.29,-0.25,4.0
1758088394.02813,1758088391.49635,0.0,0.0,0.0,31.2262,-43.77398,0.11459,6.69,-1.32,-0.3,4.0
1758088394.04308,1758088391.50635,0.0,0.0,0.0,32.08564,-49.79003,0.11459,6.69,-1.32,-0.3,4.0
1758088394.08349,1758088391.51635,0.0,0.0,0.0,31.62727,-52.48294,-0.74485,7.44,-1.22,0.15,4.0
1758088394.08955,1758088391.52635,0.0,0.0,0.0,31.2262,-48.30034,-1.3178,8.91,-1.04,0.47,4.0
1758088394.11075,1758088391.53635,0.0,0.0,0.0,30.93972,-41.36755,-1.71887,8.91,-1.04,0.47,4.0
1758088394.14517,1758088391.54635,0.0,0.0,0.0,30.36677,-33.34615,-2.46372,10.05,-0.91,1.01,4.0
1758088394.14927,1758088391.55635,0.0,0.0,0.0,27.67386,-26.47065,-4.98473,10.05,-0.91,1.01,4.0
1758088394.20513,1758088391.56635,0.0,0.0,0.0,24.98096,-23.66316,-6.53172,9.65,-0.61,0.95,4.0
1758088394.20567,1758088391.57635,0.0,0.0,0.0,21.7724,-22.23076,-7.79223,9.65,-0.61,0.95,4.0
1758088394.20781,1758088391.58635,0.0,0.0,0.0,18.9649,-22.40265,-8.42248,9.21,-0.33,0.59,4.0
1758088394.20896,1758088391.59635,0.0,0.0,0.0,14.9542,-21.88699,-8.99544,8.94,-0.34,-0.05,4.0
1758088394.20932,1758088391.60635,0.0,0.0,0.0,12.54778,-20.34,-9.05273,8.94,-0.34,-0.05,4.0
1758088394.21025,1758088391.61635,0.0,0.0,0.0,10.59972,-17.81899,-9.22462,9.32,-0.5,0.08,4.0
1758088394.21103,1758088391.62635,0.0,0.0,0.0,8.30789,-14.38124,-9.33921,9.32,-0.5,0.08,4.0
1758088394.21375,1758088391.63635,0.0,0.0,0.0,7.16197,-12.49048,-9.05273,9.37,-0.77,0.3,4.0
1758088394.21451,1758088391.64635,0.0,0.0,0.0,5.84417,-11.17268,-8.93814,9.37,-0.77,0.3,4.0
1758088394.21561,1758088391.65635,0.0,0.0,0.0,4.64096,-10.94349,-8.42248,9.09,-0.97,0.45,4.0
1758088394.21623,1758088391.66635,0.0,0.0,0.0,2.29183,-11.86023,-7.44845,9.09,-0.97,0.45,4.0
1758088394.21746,1758088391.67635,0.0,0.0,0.0,0.74485,-13.40721,-6.7609,8.59,-1.08,0.33,4.0
1758088394.21846,1758088391.68635,0.0,0.0,0.0,-1.03132,-15.87093,-6.41713,7.98,-1.12,0.27,4.0
1758088394.234,1758088391.69635,0.0,0.0,0.0,-2.86479,-18.56383,-6.35983,7.98,-1.12,0.27,4.0
1758088394.23504,1758088391.70635,0.0,0.0,0.0,-5.55769,-21.42862,-6.18794,7.62,-1.11,0.28,4.0
1758088394.25088,1758088391.71635,0.0,0.0,0.0,-7.04738,-22.63183,-6.07335,7.62,-1.11,0.28,4.0
1758088394.26683,1758088391.72635,0.0,0.0,0.0,-8.47978,-23.0902,-6.07335,7.42,-1.06,0.42,4.0
1758088394.27122,1758088391.73635,0.0,0.0,0.0,-10.31324,-23.66316,-6.13065,7.42,-1.06,0.42,4.0
1758088394.30704,1758088391.74635,0.0,0.0,0.0,-13.5791,-25.7831,-3.89611,7.55,-0.73,1.08,4.0
1758088394.30872,1758088391.75635,0.0,0.0,0.0,-15.64175,-36.49741,-0.45837,8.47,0.0,2.81,4.0
1758088394.30939,1758088391.76635,0.0,0.0,0.0,-21.08485,-54.71747,0.97403,8.47,0.0,2.81,4.0
1758088394.31067,1758088391.77635,0.0,0.0,0.0,-27.2155,-67.26525,2.57831,11.2,1.03,4.51,4.0
1758088394.32581,1758088391.78635,0.0,0.0,0.0,-35.3515,-58.67088,5.55769,11.2,1.03,4.51,4.0
1758088394.32784,1758088391.79635,0.0,0.0,0.0,-40.62271,-41.76862,5.84417,17.01,2.08,3.27,4.0
1758088394.34286,1758088391.80635,0.0,0.0,0.0,-44.57612,-25.72581,4.23989,17.01,2.08,3.27,4.0
1758088394.3599,1758088391.81635,0.0,0.0,0.0,-48.9306,-6.8182,-1.20321,16.52,2.16,1.35,4.0
1758088394.36088,1758088391.82635,0.0,0.0,0.0,-50.47758,23.54857,-5.72958,14.84,1.26,0.34,4.0
1758088394.37614,1758088391.83635,0.0,0.0,0.0,-51.45161,39.13302,-9.5684,14.84,1.26,0.34,4.0
1758088394.37871,1758088391.84635,0.0,0.0,0.0,-50.3057,47.49821,-11.91752,14.4,0.33,0.7,4.0
1758088394.39492,1758088391.85635,0.0,0.0,0.0,-45.60744,39.4768,-13.69369,14.4,0.33,0.7,4.0
1758088394.39586,1758088391.86635,0.0,0.0,0.0,-39.01843,28.30412,-9.74028,14.29,-0.59,1.46,4.0
1758088394.41115,1758088391.87635,0.0,0.0,0.0,-32.08564,19.36597,-5.32851,14.29,-0.59,1.46,4.0
1758088394.42692,1758088391.88635,0.0,0.0,0.0,-27.04361,22.97561,-2.06265,16.03,-1.21,0.95,4.0
1758088394.42811,1758088391.89635,0.0,0.0,0.0,-20.3973,45.03448,2.11994,17.0,-1.21,0.77,4.0
1758088394.4439,1758088391.90635,0.0,0.0,0.0,-16.90226,57.46767,4.18259,17.0,-1.7,0.77,4.0
1758088394.44563,1758088391.91635,0.0,0.0,0.0,-14.15206,61.99404,4.69825,13.76,-1.68,1.85,4.0
1758088394.46186,1758088391.92635,0.0,0.0,0.0,-12.89155,59.81679,3.95341,13.76,-1.68,1.85,4.0
1758088394.4662,1758088391.93635,0.0,0.0,0.0,-11.86023,51.16513,2.92208,11.53,-1.0,1.85,4.0
1758088394.48589,1758088391.94635,0.0,0.0,0.0,-11.34457,44.51882,2.23454,11.53,-1.0,1.85,4.0
1758088394.48707,1758088391.95635,0.0,0.0,0.0,-10.8862,37.64333,1.3751,11.08,-0.23,1.01,4.0
1758088394.50186,1758088391.96635,0.0,0.0,0.0,-10.48513,32.08564,1.3751,11.08,-0.23,1.01,4.0
1758088394.5205,1758088391.97635,0.0,0.0,0.0,-9.33921,29.10626,0.80214,10.6,0.38,0.84,4.0
1758088394.52338,1758088391.98635,0.0,0.0,0.0,-8.76626,28.59059,0.17189,10.04,0.56,0.95,4.0
1758088394.53932,1758088391.99635,0.0,0.0,0.0,-8.36518,27.33009,-0.80214,10.04,0.56,0.95,4.0
1758088394.5409,1758088392.00635,0.0,0.0,0.0,-8.25059,25.61122,-2.11994,8.97,0.57,1.22,4.0
1758088394.55591,1758088392.01635,0.0,0.0,0.0,-8.65166,24.00693,-3.32316,8.97,0.57,1.22,4.0
1758088394.5571,1758088392.02635,0.0,0.0,0.0,-9.11003,22.34536,-4.81285,8.24,0.56,1.31,4.0
1758088394.5719,1758088392.03635,0.0,0.0,0.0,-9.33921,17.76169,-6.41713,8.24,0.56,1.31,4.0
1758088394.58996,1758088392.04635,0.0,0.0,0.0,-10.08406,13.34992,-7.84952,7.19,0.45,1.14,4.0
1758088394.59091,1758088392.05635,0.0,0.0,0.0,-10.54242,13.40721,-8.47978,7.15,0.28,0.89,4.0
1758088394.60587,1758088392.06635,0.0,0.0,0.0,-10.8289,13.86558,-8.47978,7.15,0.28,0.89,4.0
1758088394.60707,1758088392.07635,0.0,0.0,0.0,-10.59972,14.03747,-8.136,7.18,0.0,0.76,4.0
1758088394.62191,1758088392.08635,0.0,0.0,0.0,-10.08406,13.69369,-7.16197,7.18,0.0,0.76,4.0
1758088394.63916,1758088392.09635,0.0,0.0,0.0,-9.62569,12.83425,-6.18794,7.33,-0.19,0.79,4.0
1758088394.64092,1758088392.10635,0.0,0.0,0.0,-8.99544,12.204,-4.92744,7.33,-0.19,0.79,4.0
1758088394.65594,1758088392.11635,0.0,0.0,0.0,-8.36518,11.11538,-3.66693,7.73,-0.24,0.65,4.0
1758088394.65716,1758088392.12635,0.0,0.0,0.0,-7.16197,8.0787,-1.43239,8.01,-0.15,0.6,4.0
1758088394.71789,1758088392.13635,0.0,0.0,0.0,-6.7609,6.13065,-0.0573,8.01,-0.15,0.6,4.0
1758088394.72095,1758088392.14635,0.0,0.0,0.0,-6.07335,3.38045,1.3178,8.26,-0.05,0.55,4.0
1758088394.7229,1758088392.15635,0.0,0.0,0.0,-5.50039,-0.45837,2.86479,8.26,-0.05,0.55,4.0
1758088394.7305,1758088392.16635,0.0,0.0,0.0,-5.21392,-5.15662,4.46907,8.25,0.0,0.43,4.0
1758088394.73508,1758088392.17635,0.0,0.0,0.0,-5.4431,-8.65166,5.32851,8.25,0.0,0.43,4.0
1758088394.73709,1758088392.18635,0.0,0.0,0.0,-5.55769,-12.43318,5.90147,8.3,0.0,0.32,4.0
1758088394.73771,1758088392.19635,0.0,0.0,0.0,-5.84417,-16.10011,6.18794,8.3,0.0,0.32,4.0
1758088394.73933,1758088392.20635,0.0,0.0,0.0,-6.35983,-20.97026,6.07335,8.33,-0.03,0.23,4.0
1758088394.75526,1758088392.21635,0.0,0.0,0.0,-6.53172,-23.94964,5.72958,8.56,-0.01,0.27,4.0
1758088394.75772,1758088392.22635,0.0,0.0,0.0,-6.35983,-27.1582,5.15662,8.56,-0.01,0.27,4.0
1758088394.77372,1758088392.23635,0.0,0.0,0.0,-5.55769,-28.99167,4.52637,8.85,0.13,0.33,4.0
1758088394.77545,1758088392.24635,0.0,0.0,0.0,-4.92744,-30.36677,4.1253,8.85,0.13,0.33,4.0
1758088394.79138,1758088392.25635,0.0,0.0,0.0,-4.18259,-30.02299,3.89611,9.3,0.28,0.46,4.0
1758088394.80938,1758088392.26635,0.0,0.0,0.0,-3.49504,-29.10626,3.95341,9.3,0.28,0.46,4.0
1758088394.81136,1758088392.27635,0.0,0.0,0.0,-1.83346,-24.80907,4.64096,9.57,0.31,0.43,4.0
1758088394.82806,1758088392.28635,0.0,0.0,0.0,-0.97403,-21.94428,5.15662,9.65,0.16,0.44,4.0
1758088394.82977,1758088392.29634,0.0,0.0,0.0,-0.11459,-18.9649,5.78687,9.65,0.16,0.44,4.0
1758088394.84534,1758088392.30634,0.0,0.0,0.0,0.97403,-16.67307,6.70361,9.24,-0.07,0.38,4.0
1758088394.84806,1758088392.31634,0.0,0.0,0.0,2.63561,-16.84496,7.96411,9.24,-0.07,0.38,4.0
1758088394.86323,1758088392.32634,0.0,0.0,0.0,3.89611,-20.3973,7.84952,8.53,-0.27,0.22,4.0
1758088394.88065,1758088392.33634,0.0,0.0,0.0,4.52637,-22.86102,7.67763,8.53,-0.27,0.22,4.0
1758088394.88176,1758088392.34634,0.0,0.0,0.0,5.90147,-21.14215,7.62034,8.33,-0.29,-0.06,4.0
1758088394.89797,1758088392.35634,0.0,0.0,0.0,8.0787,-13.00614,7.96411,8.96,-0.19,-0.4,4.0
1758088394.89978,1758088392.36634,0.0,0.0,0.0,9.74028,-8.0787,8.30789,8.96,-0.19,-0.4,4.0
1758088394.91525,1758088392.37634,0.0,0.0,0.0,11.91752,-4.64096,8.93814,8.71,-0.13,-0.3,4.0
1758088394.91618,1758088392.38634,0.0,0.0,0.0,14.32395,-2.23454,9.85487,8.71,-0.13,-0.3,4.0
1758088394.93124,1758088392.39634,0.0,0.0,0.0,17.6471,0.40107,10.94349,8.51,-0.11,-0.51,4.0
1758088394.94975,1758088392.40634,0.0,0.0,0.0,20.05352,0.74485,11.63104,8.51,-0.11,-0.51,4.0
