timeStamp,timeStampAlign,roll,pitch,yaw,gyro_x,gyro_y,gyro_z,acc_x,acc_y,acc_z,flag_num
1758088590.34006,1758088587.60276,0.0,0.0,0.0,-1.08862,-75.68773,-22.34536,11.03,-0.59,5.5,2.0
1758088590.34126,1758088587.61276,0.0,0.0,0.0,2.46372,-77.23472,-32.54401,11.03,-0.59,6.99,2.0
1758088590.34515,1758088587.62276,0.0,0.0,0.0,5.55769,-71.73432,-38.21629,13.6,-1.17,6.99,2.0
1758088590.34794,1758088587.63276,0.0,0.0,0.0,7.39116,-60.61894,-41.08107,13.02,-1.81,4.29,2.0
1758088590.35112,1758088587.64276,0.0,0.0,0.0,7.39116,-45.60744,-41.02378,13.02,-1.81,4.29,2.0
1758088590.3561,1758088587.65276,0.0,0.0,0.0,4.0107,-23.37668,-35.52338,11.0,-0.98,3.27,2.0
1758088590.37335,1758088587.66276,0.0,0.0,0.0,0.17189,-12.71966,-29.39274,11.0,-0.98,3.27,2.0
1758088590.37514,1758088587.67276,0.0,0.0,0.0,-5.21392,-7.10468,-23.0902,10.25,-0.07,3.36,2.0
1758088590.39089,1758088587.68276,0.0,0.0,0.0,-10.48513,-4.35448,-16.95955,10.25,-0.07,3.36,2.0
1758088590.40738,1758088587.69276,0.0,0.0,0.0,-17.6471,2.23454,-9.33921,10.58,0.81,2.91,2.0
1758088590.40857,1758088587.70276,0.0,0.0,0.0,-21.37133,9.05273,-6.41713,11.77,0.96,1.95,2.0
1758088590.42519,1758088587.71276,0.0,0.0,0.0,-23.83505,17.30333,-4.1253,11.77,0.96,1.95,2.0
1758088590.4272,1758088587.72276,0.0,0.0,0.0,-25.61122,33.05967,-2.11994,12.03,0.56,1.31,2.0
1758088590.44338,1758088587.73276,0.0,0.0,0.0,-29.67921,57.29578,-1.43239,12.03,0.56,1.31,2.0
1758088590.44939,1758088587.74276,0.0,0.0,0.0,-30.93972,64.80153,-1.83346,11.01,0.03,1.16,2.0
1758088590.46491,1758088587.75276,0.0,0.0,0.0,-30.13758,66.29122,-1.77617,11.01,0.03,1.16,2.0
1758088590.46579,1758088587.76276,0.0,0.0,0.0,-28.07493,67.37984,-1.20321,9.08,-0.61,1.66,2.0
1758088590.48582,1758088587.77276,0.0,0.0,0.0,-26.06958,69.04142,0.17189,8.79,-1.46,1.45,2.0
1758088590.48758,1758088587.78276,0.0,0.0,0.0,-23.20479,69.90086,1.77617,8.79,-1.46,1.45,2.0
1758088590.50364,1758088587.79276,0.0,0.0,0.0,-19.99623,68.86953,3.89611,8.21,-2.07,1.5,2.0
1758088590.50542,1758088587.80276,0.0,0.0,0.0,-14.9542,66.635,6.99009,8.21,-2.07,1.5,2.0
1758088590.52063,1758088587.81276,0.0,0.0,0.0,-11.11538,64.17127,8.59437,7.8,-2.31,1.44,2.0
1758088590.53739,1758088587.82276,0.0,0.0,0.0,-7.16197,60.27517,9.74028,7.8,-2.31,1.44,2.0
1758088590.53937,1758088587.83276,0.0,0.0,0.0,-3.55234,54.71747,10.08406,7.47,-2.19,1.07,2.0
1758088590.55464,1758088587.84276,0.0,0.0,0.0,1.20321,44.40423,10.54242,7.39,-1.86,1.02,2.0
1758088590.55583,1758088587.85276,0.0,0.0,0.0,3.89611,37.87251,10.02676,7.39,-1.86,1.02,2.0
1758088590.57088,1758088587.86276,0.0,0.0,0.0,6.13065,31.85646,9.39651,7.75,-1.44,0.94,2.0
1758088590.58772,1758088587.87276,0.0,0.0,0.0,8.136,26.24147,8.65166,7.75,-1.44,0.94,2.0
1758088590.59619,1758088587.88276,0.0,0.0,0.0,10.71431,18.85031,6.7609,8.0,-1.03,0.87,2.0
1758088590.59719,1758088587.89276,0.0,0.0,0.0,12.49048,13.34992,5.21392,8.0,-1.03,0.87,2.0
1758088590.60799,1758088587.90276,0.0,0.0,0.0,14.20935,9.91217,3.60963,8.06,-0.78,0.72,2.0
1758088590.62618,1758088587.91276,0.0,0.0,0.0,15.64175,9.11003,2.00535,8.06,-0.78,0.72,2.0
1758088590.62802,1758088587.92276,0.0,0.0,0.0,17.18874,9.28192,-0.57296,8.48,-0.67,0.56,2.0
1758088590.64552,1758088587.93276,0.0,0.0,0.0,17.99088,6.53172,-2.06265,8.04,-0.61,0.59,2.0
1758088590.64727,1758088587.94276,0.0,0.0,0.0,18.62113,2.00535,-3.03668,8.04,-0.61,0.59,2.0
1758088590.66268,1758088587.95276,0.0,0.0,0.0,19.42327,-2.97938,-3.09397,7.65,-0.68,0.39,2.0
1758088590.66466,1758088587.96276,0.0,0.0,0.0,19.36597,-11.22997,-2.00535,7.65,-0.68,0.39,2.0
1758088590.68095,1758088587.97276,0.0,0.0,0.0,19.19409,-19.88164,0.74485,7.86,-0.8,0.22,2.0
1758088590.69693,1758088587.98276,0.0,0.0,0.0,17.87628,-31.11161,3.09397,7.86,-0.8,0.22,2.0
1758088590.70057,1758088587.99276,0.0,0.0,0.0,14.49583,-44.51882,8.59437,8.24,-0.59,0.22,2.0
1758088590.71593,1758088588.00276,0.0,0.0,0.0,11.86023,-42.28429,10.08406,9.99,-0.03,0.09,2.0
1758088590.71776,1758088588.01276,0.0,0.0,0.0,10.48513,-31.45539,14.49583,9.99,-0.03,0.09,2.0
1758088590.73293,1758088588.02276,0.0,0.0,0.0,9.4538,-17.47521,16.95955,12.09,0.25,0.57,2.0
1758088590.73479,1758088588.03276,0.0,0.0,0.0,7.16197,-7.10468,15.98552,12.09,0.25,0.57,2.0
1758088590.75062,1758088588.04276,0.0,0.0,0.0,5.4431,-9.85487,14.66772,11.26,0.14,0.5,2.0
1758088590.76826,1758088588.05276,0.0,0.0,0.0,3.55234,-14.09476,12.60507,11.26,0.14,0.5,2.0
1758088590.76967,1758088588.06276,0.0,0.0,0.0,2.6929,-19.59516,10.94349,11.12,-0.32,0.05,2.0
1758088590.78503,1758088588.07276,0.0,0.0,0.0,3.03668,-19.88164,9.62569,12.43,-0.91,0.45,2.0
1758088590.78593,1758088588.08276,0.0,0.0,0.0,3.60963,-19.42327,9.68299,12.43,-0.91,0.45,2.0
1758088590.80074,1758088588.09276,0.0,0.0,0.0,4.18259,-22.97561,9.74028,12.76,-1.03,0.85,2.0
1758088590.81696,1758088588.10276,0.0,0.0,0.0,4.92744,-32.25753,9.74028,12.76,-1.03,0.85,2.0
1758088590.82063,1758088588.11276,0.0,0.0,0.0,7.16197,-48.58683,10.65701,11.07,-1.25,1.29,2.0
1758088590.83573,1758088588.12276,0.0,0.0,0.0,8.47978,-53.80074,12.37589,11.07,-1.25,1.29,2.0
1758088590.83931,1758088588.13276,0.0,0.0,0.0,8.99544,-58.21251,15.35527,11.32,-1.38,2.55,2.0
1758088590.85476,1758088588.14276,0.0,0.0,0.0,8.99544,-63.25455,24.35071,11.32,-1.38,2.55,2.0
1758088590.85672,1758088588.15276,0.0,0.0,0.0,8.42248,-64.11398,31.28349,12.55,-1.01,4.84,2.0
1758088590.87411,1758088588.16276,0.0,0.0,0.0,6.18794,-60.27517,36.15364,13.04,0.05,4.71,2.0
1758088590.87644,1758088588.17276,0.0,0.0,0.0,3.26586,-55.40502,38.44547,13.04,0.05,4.71,2.0
1758088590.89768,1758088588.18276,0.0,0.0,0.0,-0.11459,-48.9879,36.55471,10.37,0.5,3.99,2.0
1758088590.90038,1758088588.19276,0.0,0.0,0.0,-0.68755,-42.85724,32.6013,10.37,0.5,3.99,2.0
1758088590.91578,1758088588.20276,0.0,0.0,0.0,0.0573,-35.3515,27.10091,9.02,-0.03,3.03,2.0
1758088590.91969,1758088588.21276,0.0,0.0,0.0,1.83346,-27.50197,20.85567,9.02,-0.03,3.03,2.0
1758088590.93493,1758088588.22276,0.0,0.0,0.0,6.13065,-17.6471,12.77696,9.47,-0.91,2.87,2.0
1758088590.93596,1758088588.23276,0.0,0.0,0.0,9.91217,-10.8862,8.76626,10.65,-1.68,2.62,2.0
1758088590.95071,1758088588.24276,0.0,0.0,0.0,14.03747,-2.97938,7.44845,10.65,-1.68,2.62,2.0
1758088590.96677,1758088588.25276,0.0,0.0,0.0,17.81899,7.33386,6.8182,11.81,-2.04,1.87,2.0
1758088590.96959,1758088588.26276,0.0,0.0,0.0,22.74642,24.63719,8.25059,11.81,-2.04,1.87,2.0
1758088590.98477,1758088588.27276,0.0,0.0,0.0,24.98096,34.89313,8.99544,11.78,-1.79,1.56,2.0
1758088590.98777,1758088588.28276,0.0,0.0,0.0,26.24147,43.60209,9.28192,11.78,-1.79,1.56,2.0
1758088591.00306,1758088588.29276,0.0,0.0,0.0,26.81443,51.85268,8.88085,11.0,-1.07,1.47,2.0
1758088591.0056,1758088588.30276,0.0,0.0,0.0,26.12688,60.96271,8.02141,10.43,-0.44,1.36,2.0
1758088591.02481,1758088588.31276,0.0,0.0,0.0,24.63719,66.17663,6.99009,10.43,-0.44,1.36,2.0
1758088591.02603,1758088588.32276,0.0,0.0,0.0,22.91831,70.13004,5.50039,9.87,0.05,1.34,2.0
1758088591.04108,1758088588.33276,0.0,0.0,0.0,21.25674,71.84892,3.26586,9.87,0.05,1.34,2.0
1758088591.05864,1758088588.34276,0.0,0.0,0.0,18.33465,74.31263,-0.68755,9.17,0.42,1.33,2.0
1758088591.06093,1758088588.35276,0.0,0.0,0.0,16.61578,74.59911,-2.97938,9.17,0.42,1.33,2.0
1758088591.0761,1758088588.36276,0.0,0.0,0.0,14.9542,72.70835,-4.98473,8.74,0.43,1.44,2.0
1758088591.07785,1758088588.37276,0.0,0.0,0.0,13.06344,67.37984,-7.73493,8.74,0.43,1.44,2.0
1758088591.09309,1758088588.38276,0.0,0.0,0.0,12.204,61.36378,-9.11003,8.16,0.18,1.46,2.0
1758088591.09564,1758088588.39276,0.0,0.0,0.0,11.17268,54.14451,-10.19865,7.66,-0.03,1.35,2.0
1758088591.12979,1758088588.40276,0.0,0.0,0.0,10.08406,47.03984,-9.96947,7.66,-0.03,1.35,2.0
1758088591.13495,1758088588.41276,0.0,0.0,0.0,7.73493,34.66395,-8.47978,7.47,-0.1,1.28,2.0
1758088591.13666,1758088588.42276,0.0,0.0,0.0,6.35983,27.67386,-7.16197,7.47,-0.1,1.28,2.0
1758088591.13874,1758088588.43276,0.0,0.0,0.0,4.81285,21.14215,-5.32851,7.51,-0.03,1.2,2.0
1758088591.18046,1758088588.44276,0.0,0.0,0.0,3.20856,14.03747,-3.55234,7.51,-0.03,1.2,2.0
1758088591.18572,1758088588.45276,0.0,0.0,0.0,0.34377,3.66693,-0.51566,7.52,0.04,1.12,2.0
1758088591.1864,1758088588.46276,0.0,0.0,0.0,-1.71887,-4.18259,1.14592,7.42,0.04,0.98,2.0
1758088591.18798,1758088588.47276,0.0,0.0,0.0,-4.1253,-10.25595,2.63561,7.42,0.04,0.98,2.0
1758088591.18905,1758088588.48276,0.0,0.0,0.0,-6.18794,-14.03747,4.18259,7.79,0.01,0.85,2.0
1758088591.20598,1758088588.49276,0.0,0.0,0.0,-9.5684,-16.61578,5.84417,7.79,0.01,0.85,2.0
1758088591.21167,1758088588.50276,0.0,0.0,0.0,-11.57375,-18.44924,6.24524,8.18,0.02,0.78,2.0
1758088591.22589,1758088588.51276,0.0,0.0,0.0,-13.5218,-19.36597,5.4431,8.18,0.02,0.78,2.0
1758088591.22898,1758088588.52276,0.0,0.0,0.0,-15.41257,-19.48057,4.0107,8.37,-0.04,0.38,2.0
1758088591.24498,1758088588.53276,0.0,0.0,0.0,-17.24603,-19.99623,0.85944,8.73,-0.33,0.0,2.0
1758088591.2459,1758088588.54276,0.0,0.0,0.0,-17.99088,-21.08485,-1.3178,8.73,-0.33,0.0,2.0
1758088591.26115,1758088588.55276,0.0,0.0,0.0,-18.27736,-22.34536,-3.55234,9.16,-0.78,-0.34,2.0
1758088591.27803,1758088588.56276,0.0,0.0,0.0,-17.81899,-23.54857,-6.07335,9.16,-0.78,-0.34,2.0
1758088591.27989,1758088588.57276,0.0,0.0,0.0,-17.01685,-23.37668,-7.04738,9.92,-0.93,-0.5,2.0
1758088591.29697,1758088588.58276,0.0,0.0,0.0,-16.21471,-21.7151,-8.02141,9.92,-0.93,-0.5,2.0
1758088591.29907,1758088588.59276,0.0,0.0,0.0,-15.41257,-20.51189,-8.70896,10.87,-0.73,-0.73,2.0
1758088591.314,1758088588.60276,0.0,0.0,0.0,-14.20935,-19.48057,-9.33921,10.87,-0.73,-0.73,2.0
1758088591.3154,1758088588.61276,0.0,0.0,0.0,-13.34992,-20.74107,-9.62569,11.34,-0.25,-0.51,2.0
1758088591.32991,1758088588.62276,0.0,0.0,0.0,-11.97482,-22.63183,-10.02676,11.99,0.07,0.72,2.0
1758088591.34692,1758088588.63276,0.0,0.0,0.0,-10.25595,-24.75178,-10.37054,11.99,0.07,0.72,2.0
1758088591.34923,1758088588.64276,0.0,0.0,0.0,-6.8182,-26.81443,-11.63104,13.14,-0.45,1.47,2.0
1758088591.36499,1758088588.65276,0.0,0.0,0.0,-5.21392,-25.49662,-11.86023,13.14,-0.45,1.47,2.0
1758088591.36594,1758088588.66276,0.0,0.0,0.0,-3.03668,-24.23611,-9.62569,12.73,-0.82,1.83,2.0
1758088591.38513,1758088588.67276,0.0,0.0,0.0,-2.34913,-33.23156,-9.33921,12.73,-0.82,1.83,2.0
1758088591.38653,1758088588.68276,0.0,0.0,0.0,-0.11459,-71.10406,-14.66772,9.67,-0.48,3.23,2.0
1758088591.40095,1758088588.69276,0.0,0.0,0.0,2.11994,-86.80311,-21.02755,10.11,-0.02,5.58,2.0
1758088591.41795,1758088588.70276,0.0,0.0,0.0,5.4431,-88.57928,-27.44468,10.11,-0.02,5.58,2.0
1758088591.421,1758088588.71276,0.0,0.0,0.0,8.88085,-83.93832,-33.63263,13.55,-1.28,5.28,2.0
1758088591.43622,1758088588.72276,0.0,0.0,0.0,14.61043,-71.79161,-37.29956,13.55,-1.28,5.28,2.0
1758088591.4494,1758088588.73276,0.0,0.0,0.0,16.67307,-58.90006,-36.6693,12.06,-1.93,3.72,2.0
1758088591.44984,1758088588.74276,0.0,0.0,0.0,17.18874,-43.02913,-33.86181,12.06,-1.93,3.72,2.0
1758088591.45611,1758088588.75276,0.0,0.0,0.0,15.69904,-27.04361,-27.1582,10.75,-1.45,2.83,2.0
1758088591.47302,1758088588.76276,0.0,0.0,0.0,11.74564,-14.38124,-22.97561,10.0,-0.34,3.16,2.0
1758088591.47395,1758088588.77276,0.0,0.0,0.0,8.47978,-11.97482,-19.76705,10.0,-0.34,3.16,2.0
1758088591.48995,1758088588.78276,0.0,0.0,0.0,5.15662,-9.74028,-17.36062,10.49,0.69,2.86,2.0
1758088591.50672,1758088588.79276,0.0,0.0,0.0,1.14592,-1.48969,-14.61043,10.49,0.69,2.86,2.0
1758088591.51508,1758088588.80276,0.0,0.0,0.0,-0.80214,4.52637,-13.17803,11.61,0.78,2.04,2.0
1758088591.51573,1758088588.81276,0.0,0.0,0.0,-1.48969,10.71431,-11.11538,11.61,0.78,2.04,2.0
1758088591.54171,1758088588.82276,0.0,0.0,0.0,-1.60428,24.4653,-8.136,11.32,0.22,1.61,2.0
1758088591.54612,1758088588.83276,0.0,0.0,0.0,-3.38045,49.04519,-5.27121,11.32,0.22,1.19,2.0
1758088591.54671,1758088588.84276,0.0,0.0,0.0,-3.72423,58.09792,-4.18259,11.43,-0.27,1.19,2.0
1758088591.565,1758088588.85276,0.0,0.0,0.0,-2.57831,61.1346,-2.00535,9.52,-0.86,1.8,2.0
1758088591.56595,1758088588.86276,0.0,0.0,0.0,-0.40107,62.05133,-0.34377,9.52,-0.86,1.8,2.0
1758088591.581,1758088588.87276,0.0,0.0,0.0,4.35448,63.77021,3.72423,8.94,-1.61,1.46,2.0
1758088591.59798,1758088588.88276,0.0,0.0,0.0,8.47978,63.25455,6.7609,8.94,-1.61,1.46,2.0
1758088591.60074,1758088588.89276,0.0,0.0,0.0,11.86023,62.79618,9.5684,8.77,-2.12,1.5,2.0
1758088591.61621,1758088588.90276,0.0,0.0,0.0,14.78231,61.65026,11.86023,8.77,-2.12,1.5,2.0
1758088591.62033,1758088588.91276,0.0,0.0,0.0,19.25138,57.46767,14.72501,8.42,-2.07,1.42,2.0
1758088591.68036,1758088588.92276,0.0,0.0,0.0,22.40265,54.48829,15.92823,8.07,-1.7,1.18,2.0
1758088591.68559,1758088588.93276,0.0,0.0,0.0,25.09555,50.13381,16.55848,8.07,-1.7,1.18,2.0
1758088591.69014,1758088588.94276,0.0,0.0,0.0,26.87172,43.65939,16.38659,7.87,-1.27,1.08,2.0
1758088591.69611,1758088588.95276,0.0,0.0,0.0,28.24682,33.46074,14.61043,7.87,-1.27,1.08,2.0
1758088591.69675,1758088588.96276,0.0,0.0,0.0,28.41871,27.10091,12.89155,7.98,-0.88,1.1,2.0
1758088591.69878,1758088588.97276,0.0,0.0,0.0,28.41871,20.68378,10.71431,7.98,-0.88,1.1,2.0
1758088591.6994,1758088588.98276,0.0,0.0,0.0,28.01764,12.14671,7.79223,8.14,-0.56,0.98,2.0
1758088591.70111,1758088588.99276,0.0,0.0,0.0,28.01764,7.96411,6.07335,8.27,-0.33,0.84,2.0
1758088591.70844,1758088589.00276,0.0,0.0,0.0,28.01764,6.99009,4.35448,8.27,-0.33,0.84,2.0
1758088591.72622,1758088589.01276,0.0,0.0,0.0,27.84575,8.0787,3.26586,8.57,-0.22,0.76,2.0
1758088591.73073,1758088589.02276,0.0,0.0,0.0,28.01764,9.05273,1.77617,8.57,-0.22,0.76,2.0
1758088591.74608,1758088589.03276,0.0,0.0,0.0,28.24682,7.33386,1.60428,8.37,-0.26,0.75,2.0
1758088591.74801,1758088589.04276,0.0,0.0,0.0,28.99167,3.89611,2.11994,8.37,-0.26,0.75,2.0
1758088591.76308,1758088589.05276,0.0,0.0,0.0,29.56462,-0.22918,3.38045,7.97,-0.41,0.4,2.0
1758088591.76592,1758088589.06276,0.0,0.0,0.0,30.13758,-10.19865,7.04738,7.96,-0.58,0.09,2.0
1758088591.78131,1758088589.07276,0.0,0.0,0.0,30.19488,-23.54857,9.74028,7.96,-0.58,0.09,2.0
1758088591.79966,1758088589.08276,0.0,0.0,0.0,28.76248,-35.40879,13.5791,7.95,-0.61,-0.04,2.0
1758088591.80083,1758088589.09276,0.0,0.0,0.0,26.35606,-46.06581,16.10011,7.95,-0.61,-0.04,2.0
1758088591.81633,1758088589.10276,0.0,0.0,0.0,24.86637,-35.75257,19.53786,9.78,-0.28,-0.25,2.0
1758088591.81836,1758088589.11276,0.0,0.0,0.0,24.63719,-22.86102,20.22541,9.78,-0.28,-0.25,2.0
1758088591.83464,1758088589.12276,0.0,0.0,0.0,24.63719,-13.69369,19.88164,11.44,-0.08,0.17,2.0
1758088591.83608,1758088589.13276,0.0,0.0,0.0,23.89234,-13.75099,16.84496,11.44,-0.08,0.17,2.0
1758088591.85103,1758088589.14276,0.0,0.0,0.0,22.51724,-23.0329,12.14671,10.07,-0.13,0.48,2.0
1758088591.85627,1758088589.15276,0.0,0.0,0.0,21.94428,-28.476,9.39651,10.69,-0.21,0.37,2.0
1758088591.87131,1758088589.16276,0.0,0.0,0.0,22.40265,-34.09099,7.62034,10.69,-0.21,0.37,2.0
1758088591.87467,1758088589.17276,0.0,0.0,0.0,23.94964,-34.72124,5.78687,11.94,-0.37,0.18,2.0
1758088591.89046,1758088589.18276,0.0,0.0,0.0,24.86637,-37.29956,6.13065,11.94,-0.37,0.18,2.0
1758088591.90609,1758088589.19276,0.0,0.0,0.0,24.98096,-44.00316,7.84952,11.75,-0.94,1.9,2.0
1758088591.90807,1758088589.20276,0.0,0.0,0.0,24.5226,-56.60823,13.00614,11.75,-0.94,1.9,2.0
1758088591.92474,1758088589.21276,0.0,0.0,0.0,24.75178,-73.79697,30.65324,13.19,-1.27,5.37,2.0
1758088591.92682,1758088589.22276,0.0,0.0,0.0,23.66316,-74.08345,43.20102,16.68,0.26,5.55,2.0
1758088591.94311,1758088589.23276,0.0,0.0,0.0,20.62648,-68.86953,50.3057,16.68,0.26,5.55,2.0
1758088591.94593,1758088589.24276,0.0,0.0,0.0,17.47521,-63.48372,53.11319,13.31,0.73,4.65,2.0
1758088591.96502,1758088589.25276,0.0,0.0,0.0,15.0115,-49.27437,49.27437,13.31,0.73,4.65,2.0
1758088591.9659,1758088589.26276,0.0,0.0,0.0,16.272,-39.64868,42.97184,9.8,-0.03,3.76,2.0
1758088591.98137,1758088589.27276,0.0,0.0,0.0,19.59516,-34.26288,35.2369,9.8,-0.03,3.76,2.0
1758088592.00049,1758088589.28276,0.0,0.0,0.0,24.23611,-30.99702,27.2155,8.76,-1.05,3.49,2.0
1758088592.00259,1758088589.29276,0.0,0.0,0.0,33.05967,-25.8404,17.58981,10.23,-1.93,2.9,2.0
1758088592.01735,1758088589.30276,0.0,0.0,0.0,39.64868,-16.21471,12.71966,10.23,-1.93,2.9,2.0
1758088592.01873,1758088589.31276,0.0,0.0,0.0,45.49285,-4.18259,9.22462,12.2,-2.28,2.17,2.0
1758088592.03337,1758088589.32276,0.0,0.0,0.0,50.01921,9.33921,7.39116,12.2,-2.28,2.17,2.0
1758088592.03511,1758088589.33276,0.0,0.0,0.0,54.14451,29.67921,6.8182,12.23,-1.84,1.93,2.0
1758088592.05112,1758088589.34276,0.0,0.0,0.0,55.29043,40.39353,6.47442,12.23,-1.84,1.93,2.0
1758088592.06819,1758088589.35276,0.0,0.0,0.0,55.34772,47.67009,6.35983,10.72,-0.8,1.74,2.0
1758088592.07634,1758088589.36276,0.0,0.0,0.0,54.60288,53.62885,5.90147,10.72,-0.8,1.74,2.0
1758088592.08042,1758088589.37276,0.0,0.0,0.0,52.76942,60.27517,5.32851,9.41,0.1,1.83,2.0
1758088592.0992,1758088589.38276,0.0,0.0,0.0,51.22243,60.50434,4.92744,8.46,0.79,1.92,2.0
1758088592.10041,1758088589.39276,0.0,0.0,0.0,50.13381,58.4417,4.23989,8.46,0.79,1.92,2.0
1758088592.11541,1758088589.40276,0.0,0.0,0.0,48.9879,56.49364,3.72423,8.11,1.05,1.83,2.0
1758088592.11633,1758088589.41276,0.0,0.0,0.0,48.30034,55.6342,3.38045,8.11,1.05,1.83,2.0
1758088592.1336,1758088589.42276,0.0,0.0,0.0,47.61279,54.66018,3.20856,8.34,0.78,1.73,2.0
1758088592.13548,1758088589.43276,0.0,0.0,0.0,47.15443,52.9986,3.20856,8.34,0.78,1.73,2.0
1758088592.15541,1758088589.44276,0.0,0.0,0.0,46.06581,49.79003,3.60963,8.23,0.4,1.63,2.0
1758088592.15633,1758088589.45276,0.0,0.0,0.0,45.49285,47.67009,4.1253,8.28,0.13,1.53,2.0
1758088592.17321,1758088589.46276,0.0,0.0,0.0,44.9199,44.748,4.81285,8.28,0.13,1.53,2.0
1758088592.17416,1758088589.47276,0.0,0.0,0.0,44.51882,41.31026,5.90147,8.46,0.0,1.6,2.0
1758088592.19012,1758088589.48276,0.0,0.0,0.0,44.11775,36.21093,7.79223,8.46,0.0,1.6,2.0
1758088592.20691,1758088589.49276,0.0,0.0,0.0,43.65939,33.17426,9.33921,8.72,-0.03,1.52,2.0
1758088592.21056,1758088589.50276,0.0,0.0,0.0,42.97184,29.56462,10.8289,8.72,-0.03,1.52,2.0
1758088592.22616,1758088589.51276,0.0,0.0,0.0,41.99781,25.09555,11.97482,8.6,-0.08,1.42,2.0
1758088592.22737,1758088589.52276,0.0,0.0,0.0,39.70598,16.95955,12.49048,8.06,-0.14,1.08,2.0
1758088592.24487,1758088589.53276,0.0,0.0,0.0,38.1017,10.08406,12.2613,8.06,-0.14,1.08,2.0
1758088592.24574,1758088589.54276,0.0,0.0,0.0,35.98175,3.72423,11.86023,7.78,-0.11,1.1,2.0
1758088592.26133,1758088589.55276,0.0,0.0,0.0,33.9764,-1.94806,11.97482,7.78,-0.11,1.1,2.0
1758088592.28002,1758088589.56276,0.0,0.0,0.0,31.51268,-8.02141,13.69369,8.62,0.11,1.16,2.0
1758088592.28138,1758088589.57276,0.0,0.0,0.0,30.02299,-11.34457,15.41257,8.62,0.11,1.16,2.0
1758088592.29648,1758088589.58276,0.0,0.0,0.0,28.13223,-15.35527,16.50119,9.16,0.34,1.22,2.0
1758088592.29819,1758088589.59276,0.0,0.0,0.0,24.80907,-22.57454,16.61578,9.16,0.34,1.22,2.0
1758088592.31321,1758088589.60276,0.0,0.0,0.0,22.40265,-27.50197,15.06879,8.79,0.39,1.12,2.0
1758088592.31544,1758088589.61276,0.0,0.0,0.0,20.22541,-31.91375,12.49048,8.39,0.28,0.82,2.0
1758088592.33147,1758088589.62276,0.0,0.0,0.0,18.10547,-36.15364,9.5684,8.39,0.28,0.82,2.0
1758088592.34743,1758088589.63276,0.0,0.0,0.0,15.24068,-40.10705,4.52637,8.56,0.0,0.52,2.0
1758088592.34842,1758088589.64276,0.0,0.0,0.0,13.06344,-40.50812,1.71887,8.56,0.0,0.52,2.0
1758088592.3634,1758088589.65276,0.0,0.0,0.0,10.8289,-37.24226,-1.08862,9.53,-0.11,0.24,2.0
1758088592.36552,1758088589.66276,0.0,0.0,0.0,9.33921,-30.82513,-3.26586,9.53,-0.11,0.24,2.0
1758088592.38145,1758088589.67276,0.0,0.0,0.0,7.96411,-10.8862,-4.52637,10.91,-0.05,0.43,2.0
1758088592.39954,1758088589.68276,0.0,0.0,0.0,6.70361,1.77617,-6.18794,12.28,0.34,1.14,2.0
1758088592.40112,1758088589.69276,0.0,0.0,0.0,7.04738,-8.0787,-7.96411,12.28,0.34,1.14,2.0
1758088592.41628,1758088589.70276,0.0,0.0,0.0,6.18794,-18.62113,-11.11538,10.56,0.52,1.72,2.0
1758088592.41978,1758088589.71276,0.0,0.0,0.0,6.35983,-19.53786,-15.46986,10.56,0.52,1.72,2.0
1758088592.43519,1758088589.72276,0.0,0.0,0.0,7.73493,-19.19409,-16.50119,12.01,0.38,1.29,2.0
1758088592.45143,1758088589.73276,0.0,0.0,0.0,9.22462,-22.68913,-16.50119,12.01,0.38,1.29,2.0
1758088592.45403,1758088589.74276,0.0,0.0,0.0,11.11538,-27.33009,-15.87093,11.62,0.19,3.18,2.0
1758088592.45495,1758088589.75276,0.0,0.0,0.0,15.35527,-30.36677,-14.66772,12.84,-0.71,3.61,2.0
1758088592.47024,1758088589.76276,0.0,0.0,0.0,19.70975,-29.10626,-13.69369,12.84,-0.71,3.61,2.0
1758088592.48948,1758088589.77276,0.0,0.0,0.0,23.94964,-26.64254,-12.37589,12.62,-1.74,2.43,2.0
1758088592.49488,1758088589.78276,0.0,0.0,0.0,29.27814,-25.55392,-10.48513,12.62,-1.74,2.43,2.0
1758088592.49528,1758088589.79276,0.0,0.0,0.0,31.51268,-24.35071,-9.28192,9.93,-1.64,1.89,2.0
1758088592.51364,1758088589.80276,0.0,0.0,0.0,32.48671,-21.94428,-8.76626,9.93,-1.64,1.89,2.0
1758088592.51481,1758088589.81276,0.0,0.0,0.0,31.91375,-20.45459,-8.93814,8.88,-0.73,2.29,2.0
1758088592.5303,1758088589.82276,0.0,0.0,0.0,29.56462,-20.97026,-10.71431,8.88,-0.73,2.29,2.0
1758088592.54627,1758088589.83276,0.0,0.0,0.0,27.10091,-20.45459,-12.89155,9.04,0.1,2.99,2.0
1758088592.54762,1758088589.84276,0.0,0.0,0.0,24.23611,-18.50654,-15.69904,10.04,0.44,3.3,2.0
1758088592.56945,1758088589.85276,0.0,0.0,0.0,21.02755,-15.92823,-17.99088,10.04,0.44,3.3,2.0
1758088592.57489,1758088589.86276,0.0,0.0,0.0,16.38659,-10.08406,-19.99623,10.31,0.18,2.99,2.0
1758088592.57539,1758088589.87276,0.0,0.0,0.0,13.75099,-5.95876,-19.70975,10.31,0.18,2.99,2.0
1758088592.59145,1758088589.88276,0.0,0.0,0.0,12.08941,-0.80214,-17.93358,10.27,-0.45,2.49,2.0
1758088592.60827,1758088589.89276,0.0,0.0,0.0,11.28727,6.18794,-14.9542,10.27,-0.45,2.49,2.0
1758088592.60953,1758088589.90276,0.0,0.0,0.0,11.74564,18.85031,-9.11003,10.77,-1.07,2.3,2.0
1758088592.62515,1758088589.91276,0.0,0.0,0.0,12.49048,28.07493,-4.52637,11.13,-1.13,2.03,2.0
1758088592.62815,1758088589.92276,0.0,0.0,0.0,14.03747,35.3515,0.17189,11.13,-1.13,2.03,2.0
1758088592.64536,1758088589.93276,0.0,0.0,0.0,15.87093,40.68,3.95341,10.63,-1.02,1.79,2.0
1758088592.66988,1758088589.94276,0.0,0.0,0.0,18.27736,48.52953,8.42248,10.63,-1.02,1.79,2.0
1758088592.67044,1758088589.95276,0.0,0.0,0.0,19.59516,53.05589,10.54242,10.22,-1.02,1.62,2.0
1758088592.67323,1758088589.96276,0.0,0.0,0.0,20.74107,54.60288,12.49048,10.22,-1.02,1.62,2.0
1758088592.71049,1758088589.97276,0.0,0.0,0.0,21.6578,56.49364,14.49583,9.74,-1.17,1.43,2.0
1758088592.71168,1758088589.98276,0.0,0.0,0.0,22.34536,57.18119,15.64175,9.59,-1.23,1.36,2.0
1758088592.71287,1758088589.99276,0.0,0.0,0.0,22.74642,56.55093,16.50119,9.59,-1.23,1.36,2.0
1758088592.71408,1758088590.00276,0.0,0.0,0.0,22.91831,54.66018,17.30333,9.24,-1.12,1.3,2.0
1758088592.71471,1758088590.01276,0.0,0.0,0.0,22.68913,51.27972,17.99088,9.24,-1.12,1.3,2.0
1758088592.73054,1758088590.02276,0.0,0.0,0.0,22.28806,48.35764,17.99088,8.9,-0.9,1.33,2.0
1758088592.74672,1758088590.03276,0.0,0.0,0.0,22.28806,44.46153,17.87628,8.9,-0.9,1.33,2.0
1758088592.74832,1758088590.04276,0.0,0.0,0.0,22.11617,39.76327,17.18874,8.51,-0.67,1.31,2.0
1758088592.76337,1758088590.05276,0.0,0.0,0.0,21.7151,30.02299,16.21471,8.51,-0.67,1.28,2.0
1758088592.76537,1758088590.06276,0.0,0.0,0.0,21.7151,23.83505,15.24068,8.18,-0.49,1.28,2.0
1758088592.78134,1758088590.07276,0.0,0.0,0.0,21.94428,19.07949,14.15206,8.23,-0.43,1.16,2.0
1758088592.78578,1758088590.08276,0.0,0.0,0.0,22.11617,15.12609,12.89155,8.23,-0.43,1.16,2.0
1758088592.80133,1758088590.09276,0.0,0.0,0.0,22.40265,9.74028,11.17268,8.2,-0.48,1.05,2.0
1758088592.81917,1758088590.10276,0.0,0.0,0.0,22.40265,7.96411,9.74028,8.2,-0.48,1.05,2.0
1758088592.82153,1758088590.11276,0.0,0.0,0.0,22.40265,6.35983,8.42248,8.25,-0.62,0.94,2.0
1758088592.83981,1758088590.12276,0.0,0.0,0.0,22.51724,4.29718,7.33386,8.25,-0.62,0.94,2.0
1758088592.84339,1758088590.13276,0.0,0.0,0.0,22.11617,0.80214,5.61499,8.24,-0.73,0.79,2.0
1758088592.85834,1758088590.14276,0.0,0.0,0.0,21.94428,-1.94806,4.87014,8.2,-0.64,0.56,2.0
1758088592.85971,1758088590.15276,0.0,0.0,0.0,21.88699,-5.72958,4.1253,8.2,-0.64,0.56,2.0
1758088592.87516,1758088590.16276,0.0,0.0,0.0,21.31403,-10.8289,3.26586,8.04,-0.44,0.34,2.0
1758088592.87634,1758088590.17276,0.0,0.0,0.0,20.11082,-17.76169,1.3751,8.04,-0.44,0.34,2.0
1758088592.8948,1758088590.18276,0.0,0.0,0.0,19.53786,-14.78231,0.68755,8.46,-0.28,0.2,2.0
1758088592.9134,1758088590.19276,0.0,0.0,0.0,19.25138,-8.70896,0.74485,8.46,-0.28,0.2,2.0
1758088592.91367,1758088590.20276,0.0,0.0,0.0,17.93358,-0.57296,2.00535,9.93,-0.26,0.61,2.0
1758088592.92835,1758088590.21276,0.0,0.0,0.0,16.10011,2.06265,2.11994,10.25,-0.27,1.01,2.0
1758088592.93116,1758088590.22276,0.0,0.0,0.0,13.17803,1.71887,2.06265,10.25,-0.27,1.01,2.0
1758088592.94663,1758088590.23276,0.0,0.0,0.0,10.25595,-1.60428,1.66158,10.12,0.0,0.97,2.0
1758088592.94839,1758088590.24276,0.0,0.0,0.0,7.21927,-20.97026,-0.34377,10.12,0.0,0.97,2.0
1758088592.96568,1758088590.25276,0.0,0.0,0.0,6.13065,-43.20102,0.0,8.93,-0.04,0.37,2.0
1758088592.9674,1758088590.26276,0.0,0.0,0.0,4.23989,-50.363,-0.11459,8.93,-0.04,0.37,2.0
1758088592.9833,1758088590.27276,0.0,0.0,0.0,5.27121,-48.52953,3.49504,10.4,-0.56,0.25,2.0
1758088592.9852,1758088590.28276,0.0,0.0,0.0,8.136,-39.4768,5.4431,12.08,-1.38,1.5,2.0
1758088593.00141,1758088590.29276,0.0,0.0,0.0,9.28192,-37.58603,4.81285,12.08,-1.38,1.5,2.0
1758088593.01741,1758088590.30276,0.0,0.0,0.0,8.76626,-37.52874,3.83882,11.96,-1.47,1.8,2.0
1758088593.01859,1758088590.31276,0.0,0.0,0.0,6.35983,-37.87251,2.97938,11.96,-1.47,1.8,2.0
1758088593.03366,1758088590.32276,0.0,0.0,0.0,-4.58366,-42.91454,2.11994,11.84,-0.44,3.42,2.0
1758088593.03457,1758088590.33276,0.0,0.0,0.0,-13.69369,-50.1911,4.64096,11.84,-0.44,3.42,2.0
1758088593.05044,1758088590.34276,0.0,0.0,0.0,-24.17882,-49.79003,8.65166,13.56,1.08,6.1,2.0
1758088593.07359,1758088590.35276,0.0,0.0,0.0,-33.34615,-43.4875,12.43318,13.56,1.08,6.1,2.0
1758088593.07557,1758088590.36276,0.0,0.0,0.0,-46.69606,-26.24147,12.60507,14.33,2.46,4.48,2.0
1758088593.0765,1758088590.37276,0.0,0.0,0.0,-53.51426,-14.49583,10.19865,11.14,1.75,4.25,2.0
1758088593.094,1758088590.38276,0.0,0.0,0.0,-55.29043,-10.48513,7.84952,11.14,1.75,4.25,2.0
1758088593.09528,1758088590.39276,0.0,0.0,0.0,-51.39432,-10.37054,5.32851,9.03,-0.39,3.44,2.0
1758088593.1104,1758088590.40276,0.0,0.0,0.0,-46.86795,-6.87549,4.46907,9.03,-0.39,3.44,2.0
1758088593.12643,1758088590.41276,0.0,0.0,0.0,-41.71133,-4.23989,4.64096,10.23,-2.25,3.67,2.0
1758088593.13361,1758088590.42276,0.0,0.0,0.0,-35.2369,-1.71887,5.72958,10.23,-2.25,3.67,2.0
1758088593.14871,1758088590.43276,0.0,0.0,0.0,-24.17882,5.4431,7.33386,10.91,-3.24,3.29,2.0
1758088593.15046,1758088590.44276,0.0,0.0,0.0,-17.53251,10.71431,8.25059,10.55,-3.37,3.03,2.0
1758088593.16571,1758088590.45276,0.0,0.0,0.0,-11.86023,13.69369,8.65166,10.55,-3.37,3.03,2.0
1758088593.17545,1758088590.46276,0.0,0.0,0.0,-7.84952,16.61578,8.36518,9.48,-2.57,2.96,2.0
1758088593.17603,1758088590.47276,0.0,0.0,0.0,-3.95341,22.28806,6.87549,9.48,-2.57,2.96,2.0
1758088593.19552,1758088590.48276,0.0,0.0,0.0,-2.46372,26.69983,5.09932,9.44,-1.68,2.66,2.0
1758088593.19966,1758088590.49276,0.0,0.0,0.0,-1.83346,30.25217,3.09397,9.44,-1.68,2.66,2.0
1758088593.21581,1758088590.50276,0.0,0.0,0.0,-2.57831,31.74186,1.3178,9.69,-0.82,2.49,2.0
1758088593.21742,1758088590.51276,0.0,0.0,0.0,-4.69825,33.23156,-2.00535,9.54,0.02,2.26,2.0
1758088593.23325,1758088590.52276,0.0,0.0,0.0,-6.58902,34.49206,-3.83882,9.54,0.02,2.26,2.0
1758088593.23478,1758088590.53276,0.0,0.0,0.0,-9.05273,34.66395,-5.61499,9.21,0.49,2.03,2.0
1758088593.25067,1758088590.54276,0.0,0.0,0.0,-11.86023,35.52338,-7.50575,9.21,0.49,2.03,2.0
1758088593.26741,1758088590.55276,0.0,0.0,0.0,-15.0115,35.2369,-11.34457,8.55,0.71,1.91,2.0
1758088593.2685,1758088590.56276,0.0,0.0,0.0,-16.84496,34.77854,-13.06344,8.55,0.71,1.91,2.0
1758088593.28372,1758088590.57276,0.0,0.0,0.0,-18.33465,33.80451,-15.0115,8.2,0.48,1.64,2.0
1758088593.28736,1758088590.58276,0.0,0.0,0.0,-19.59516,32.83048,-16.73037,8.2,0.48,1.64,2.0
1758088593.30414,1758088590.59276,0.0,0.0,0.0,-21.6578,29.22085,-17.30333,8.17,0.06,1.57,2.0
1758088593.30531,1758088590.60276,0.0,0.0,0.0,-22.91831,25.8404,-17.53251,8.11,-0.2,1.38,2.0
1758088593.32061,1758088590.61276,0.0,0.0,0.0,-24.12152,22.28806,-17.01685,8.11,-0.2,1.38,2.0
1758088593.3376,1758088590.62276,0.0,0.0,0.0,-25.7831,16.67307,-16.21471,8.22,-0.31,1.29,2.0
1758088593.33881,1758088590.63276,0.0,0.0,0.0,-26.81443,12.14671,-15.35527,8.22,-0.31,1.29,2.0
1758088593.35457,1758088590.64276,0.0,0.0,0.0,-27.84575,7.44845,-14.32395,8.11,-0.34,1.22,2.0
1758088593.35573,1758088590.65276,0.0,0.0,0.0,-29.10626,2.97938,-13.17803,8.11,-0.34,1.22,2.0
1758088593.37058,1758088590.66276,0.0,0.0,0.0,-31.62727,-3.03668,-11.51645,7.95,-0.3,0.99,2.0
1758088593.38895,1758088590.67276,0.0,0.0,0.0,-33.34615,-3.03668,-10.19865,8.06,-0.23,0.69,2.0
1758088593.39093,1758088590.68276,0.0,0.0,0.0,-34.95043,-1.66158,-8.42248,8.06,-0.23,0.69,2.0
1758088593.40894,1758088590.69276,0.0,0.0,0.0,-36.6693,-0.57296,-6.99009,8.25,-0.18,0.57,2.0
1758088593.41014,1758088590.70276,0.0,0.0,0.0,-39.07573,-2.46372,-4.87014,8.25,-0.18,0.57,2.0
1758088593.42565,1758088590.71276,0.0,0.0,0.0,-41.02378,-5.72958,-3.89611,7.9,-0.1,0.48,2.0
1758088593.42756,1758088590.72276,0.0,0.0,0.0,-43.02913,-10.02676,-3.60963,7.9,-0.1,0.48,2.0
1758088593.44359,1758088590.73276,0.0,0.0,0.0,-46.06581,-16.38659,-3.95341,7.66,0.04,0.25,2.0
1758088593.44688,1758088590.74276,0.0,0.0,0.0,-49.50356,-25.49662,-5.09932,7.75,0.15,-0.13,2.0
1758088593.46592,1758088590.75276,0.0,0.0,0.0,-52.02457,-30.88243,-6.87549,7.75,0.15,-0.13,2.0
1758088593.47342,1758088590.76276,0.0,0.0,0.0,-53.62885,-34.14828,-8.76626,8.41,0.04,-0.48,2.0
1758088593.48939,1758088590.77276,0.0,0.0,0.0,-55.86338,-38.44547,-11.63104,8.41,0.04,-0.48,2.0
1758088593.49617,1758088590.78276,0.0,0.0,0.0,-58.4417,-42.97184,-15.06879,8.88,-0.22,-0.75,2.0
1758088593.49917,1758088590.79276,0.0,0.0,0.0,-59.35843,-30.53865,-17.36062,8.88,-0.22,-0.75,2.0
1758088593.5205,1758088590.80276,0.0,0.0,0.0,-59.87409,-7.73493,-19.07949,11.3,-0.29,-0.51,2.0
1758088593.5248,1758088590.81276,0.0,0.0,0.0,-59.47303,24.75178,-20.11082,11.3,-0.29,-0.51,2.0
1758088593.52536,1758088590.82276,0.0,0.0,0.0,-59.01466,11.57375,-23.0902,12.56,-0.58,-0.14,2.0
1758088593.54503,1758088590.83276,0.0,0.0,0.0,-58.72818,-10.02676,-26.12688,8.62,-0.51,0.16,2.0
1758088593.55498,1758088590.84276,0.0,0.0,0.0,-56.32175,-19.42327,-28.476,8.62,-0.51,0.16,2.0
1758088593.55537,1758088590.85276,0.0,0.0,0.0,-49.50356,-19.59516,-29.67921,11.54,-0.89,0.19,2.0
1758088593.57339,1758088590.86276,0.0,0.0,0.0,-43.54479,-25.09555,-30.48136,11.54,-0.89,0.19,2.0
1758088593.57514,1758088590.87276,0.0,0.0,0.0,-37.24226,-36.89849,-32.08564,11.96,-2.07,1.74,2.0
1758088593.591,1758088590.88276,0.0,0.0,0.0,-30.19488,-49.04519,-33.86181,11.96,-2.07,1.74,2.0
1758088593.60738,1758088590.89276,0.0,0.0,0.0,-16.3293,-72.82294,-39.4768,12.08,-2.7,3.74,2.0
1758088593.61093,1758088590.90276,0.0,0.0,0.0,-7.16197,-82.62051,-47.61279,15.23,-4.26,7.49,2.0
1758088593.62765,1758088590.91276,0.0,0.0,0.0,4.87014,-76.83365,-54.25911,15.23,-4.26,7.49,2.0
1758088593.62936,1758088590.92276,0.0,0.0,0.0,17.18874,-65.2026,-56.78012,17.16,-6.14,3.56,2.0
1758088593.64457,1758088590.93276,0.0,0.0,0.0,28.99167,-50.64947,-54.431,17.16,-6.14,3.56,2.0
1758088593.67552,1758088590.94276,0.0,0.0,0.0,32.42941,-40.50812,-48.52953,11.17,-3.0,2.45,2.0
1758088593.6761,1758088590.95276,0.0,0.0,0.0,31.11161,-34.37747,-41.76862,11.17,-3.0,2.45,2.0
1758088593.6805,1758088590.96276,0.0,0.0,0.0,27.61657,-34.43476,-34.37747,8.34,-0.47,4.07,2.0
1758088593.68231,1758088590.97276,0.0,0.0,0.0,18.90761,-37.01308,-24.00693,9.09,0.98,4.84,2.0
1758088593.68559,1758088590.98276,0.0,0.0,0.0,10.94349,-36.6693,-18.79302,9.09,0.98,4.84,2.0
1758088593.70301,1758088590.99276,0.0,0.0,0.0,1.66158,-35.2942,-15.64175,12.28,1.74,3.72,2.0
1758088593.71965,1758088591.00276,0.0,0.0,0.0,-12.49048,-28.36141,-14.03747,12.28,1.74,3.72,2.0
1758088593.7206,1758088591.01276,0.0,0.0,0.0,-20.74107,-6.41713,-13.40721,13.36,1.91,2.4,2.0
1758088593.73555,1758088591.02276,0.0,0.0,0.0,-27.1582,13.46451,-12.89155,13.36,1.91,2.4,2.0
1758088593.73673,1758088591.03276,0.0,0.0,0.0,-32.20023,29.9084,-13.00614,12.34,1.33,1.67,2.0
1758088593.75396,1758088591.04276,0.0,0.0,0.0,-35.98175,43.77398,-11.34457,12.34,1.33,1.67,2.0
1758088593.75519,1758088591.05276,0.0,0.0,0.0,-36.7266,51.10783,-9.22462,10.45,0.33,1.68,2.0
1758088593.77089,1758088591.06276,0.0,0.0,0.0,-35.75257,57.63955,-6.47442,10.03,-0.68,1.37,2.0
1758088593.79063,1758088591.07276,0.0,0.0,0.0,-34.0337,63.25455,-3.32316,10.03,-0.68,1.37,2.0
1758088593.79303,1758088591.08276,0.0,0.0,0.0,-29.73651,70.41652,0.85944,9.59,-1.51,1.37,2.0
1758088593.8097,1758088591.09276,0.0,0.0,0.0,-27.10091,72.13539,3.60963,9.59,-1.51,1.37,2.0
1758088593.811,1758088591.10276,0.0,0.0,0.0,-23.66316,72.42187,5.95876,8.88,-1.95,1.29,2.0
1758088593.82575,1758088591.11276,0.0,0.0,0.0,-21.02755,72.70835,7.62034,8.88,-1.95,1.29,2.0
1758088593.82686,1758088591.12276,0.0,0.0,0.0,-17.24603,71.10406,10.08406,8.43,-1.87,1.13,2.0
1758088593.84328,1758088591.13276,0.0,0.0,0.0,-14.9542,68.01009,11.34457,7.9,-1.58,1.07,2.0
1758088593.84525,1758088591.14276,0.0,0.0,0.0,-13.12073,63.42643,12.49048,7.9,-1.58,1.07,2.0
1758088593.86071,1758088591.15276,0.0,0.0,0.0,-11.45916,59.18654,13.46451,7.64,-1.27,0.81,2.0
1758088593.87672,1758088591.16276,0.0,0.0,0.0,-9.85487,52.13916,13.5791,7.64,-1.27,0.81,2.0
1758088593.88022,1758088591.17276,0.0,0.0,0.0,-9.28192,45.60744,13.5218,7.64,-0.92,0.81,2.0
1758088593.89594,1758088591.18276,0.0,0.0,0.0,-9.05273,39.4768,12.54778,7.64,-0.92,0.81,2.0
1758088593.89729,1758088591.19276,0.0,0.0,0.0,-8.99544,33.17426,10.08406,7.61,-0.72,0.94,2.0
1758088593.91194,1758088591.20276,0.0,0.0,0.0,-8.36518,22.91831,8.02141,7.41,-0.78,0.75,2.0
1758088593.92953,1758088591.21276,0.0,0.0,0.0,-7.33386,16.272,5.90147,7.41,-0.78,0.75,2.0
1758088593.93106,1758088591.22276,0.0,0.0,0.0,-5.84417,13.23533,3.66693,7.48,-1.02,0.5,2.0
1758088593.94572,1758088591.23276,0.0,0.0,0.0,-3.55234,10.08406,-0.22918,7.48,-1.02,0.5,2.0
1758088593.95009,1758088591.24276,0.0,0.0,0.0,-2.06265,4.87014,-2.57831,7.22,-1.08,0.37,2.0
1758088593.9657,1758088591.25276,0.0,0.0,0.0,-0.68755,-2.34913,-4.64096,7.22,-1.08,0.37,2.0
1758088593.96936,1758088591.26276,0.0,0.0,0.0,0.34377,-10.71431,-6.13065,6.59,-1.05,0.18,2.0
1758088593.98479,1758088591.27276,0.0,0.0,0.0,1.43239,-27.04361,-7.16197,6.59,-1.05,-0.08,2.0
1758088593.98593,1758088591.28276,0.0,0.0,0.0,1.77617,-38.27358,-6.58902,6.65,-1.18,-0.08,2.0
1758088594.00075,1758088591.29276,0.0,0.0,0.0,1.3751,-48.01387,-5.21392,7.76,-1.25,-0.14,2.0
1758088594.01933,1758088591.30276,0.0,0.0,0.0,2.23454,-50.13381,-2.7502,7.76,-1.25,-0.14,2.0
1758088594.02054,1758088591.31276,0.0,0.0,0.0,2.40642,-38.73195,1.43239,10.46,-0.89,-0.25,2.0
1758088594.03573,1758088591.32276,0.0,0.0,0.0,3.26586,-27.50197,5.90147,10.46,-0.89,-0.25,2.0
1758088594.03774,1758088591.33276,0.0,0.0,0.0,3.20856,-19.82434,8.136,12.29,-0.46,0.06,2.0
1758088594.05543,1758088591.34276,0.0,0.0,0.0,2.97938,-17.01685,9.68299,12.29,-0.46,0.06,2.0
1758088594.05629,1758088591.35276,0.0,0.0,0.0,1.71887,-17.87628,10.08406,11.96,-0.39,0.08,2.0
1758088594.07362,1758088591.36276,0.0,0.0,0.0,1.60428,-22.51724,9.85487,12.17,-0.78,0.59,2.0
1758088594.07475,1758088591.37276,0.0,0.0,0.0,2.40642,-24.5226,11.57375,12.17,-0.78,0.59,2.0
1758088594.09074,1758088591.38276,0.0,0.0,0.0,1.14592,-32.83048,11.51645,13.04,-0.95,1.11,2.0
1758088594.10996,1758088591.39276,0.0,0.0,0.0,-0.97403,-53.05589,14.03747,13.04,-0.95,1.11,2.0
1758088594.11144,1758088591.40276,0.0,0.0,0.0,-3.20856,-60.33246,15.64175,12.63,-0.84,1.46,2.0
1758088594.12994,1758088591.41276,0.0,0.0,0.0,-6.07335,-61.76485,16.67307,12.63,-0.84,1.46,2.0
1758088594.13115,1758088591.42276,0.0,0.0,0.0,-12.71966,-63.31184,18.62113,12.77,-0.65,2.72,2.0
1758088594.14998,1758088591.43276,0.0,0.0,0.0,-17.18874,-66.34852,22.00158,13.11,-0.07,4.91,2.0
1758088594.15144,1758088591.44276,0.0,0.0,0.0,-22.23076,-60.27517,24.57989,13.11,-0.07,4.91,2.0
1758088594.16843,1758088591.45276,0.0,0.0,0.0,-28.24682,-50.59217,26.12688,13.44,0.76,4.25,2.0
1758088594.17517,1758088591.46276,0.0,0.0,0.0,-36.03905,-36.26823,24.75178,13.44,0.76,4.25,2.0
1758088594.17569,1758088591.47276,0.0,0.0,0.0,-38.61736,-27.61657,22.74642,10.87,0.5,4.09,2.0
1758088594.19362,1758088591.48276,0.0,0.0,0.0,-38.90384,-20.85567,20.45459,10.87,0.5,4.09,2.0
1758088594.19616,1758088591.49276,0.0,0.0,0.0,-36.6693,-15.64175,18.50654,9.78,-0.6,3.52,2.0
1758088594.21176,1758088591.50276,0.0,0.0,0.0,-30.93972,-9.39651,16.61578,10.16,-1.69,3.26,2.0
1758088594.21536,1758088591.51276,0.0,0.0,0.0,-25.8404,-4.64096,15.64175,10.16,-1.69,3.26,2.0
1758088594.23079,1758088591.52276,0.0,0.0,0.0,-20.74107,0.22918,14.61043,11.15,-2.41,2.7,2.0
1758088594.25082,1758088591.53276,0.0,0.0,0.0,-15.0115,9.91217,13.86558,11.15,-2.41,2.7,2.0
1758088594.25535,1758088591.54276,0.0,0.0,0.0,-7.96411,22.63183,13.34992,11.7,-2.52,2.21,2.0
1758088594.25585,1758088591.55276,0.0,0.0,0.0,-4.35448,31.16891,12.49048,11.7,-2.52,2.21,2.0
1758088594.27359,1758088591.56276,0.0,0.0,0.0,-1.03132,39.82057,11.51645,10.88,-2.3,2.15,2.0
1758088594.3108,1758088591.57276,0.0,0.0,0.0,1.43239,47.78468,10.37054,10.88,-2.3,2.15,2.0
1758088594.3141,1758088591.58276,0.0,0.0,0.0,3.20856,56.83742,7.84952,10.23,-1.74,1.93,2.0
1758088594.31473,1758088591.59276,0.0,0.0,0.0,2.57831,60.38975,5.90147,9.59,-0.92,1.98,2.0
1758088594.31603,1758088591.60276,0.0,0.0,0.0,1.20321,62.79618,3.95341,9.59,-0.92,1.98,2.0
1758088594.31825,1758088591.61276,0.0,0.0,0.0,-2.11994,63.77021,-0.45837,9.17,-0.02,1.85,2.0
1758088594.33507,1758088591.62276,0.0,0.0,0.0,-4.92744,63.19725,-3.32316,9.17,-0.02,1.85,2.0
1758088594.33601,1758088591.63276,0.0,0.0,0.0,-7.21927,62.39511,-5.95876,8.82,0.66,1.79,2.0
1758088594.35083,1758088591.64276,0.0,0.0,0.0,-9.68299,62.91077,-9.28192,8.82,0.66,1.79,2.0
1758088594.35574,1758088591.65276,0.0,0.0,0.0,-12.77696,61.1346,-12.83425,8.79,0.87,1.73,2.0
1758088594.37109,1758088591.66276,0.0,0.0,0.0,-15.41257,57.58226,-14.66772,8.14,0.73,1.55,2.0
1758088594.37524,1758088591.67276,0.0,0.0,0.0,-17.58981,53.45696,-16.84496,8.14,0.73,1.55,2.0
1758088594.39512,1758088591.68276,0.0,0.0,0.0,-19.36597,48.12846,-18.27736,7.74,0.46,1.34,2.0
1758088594.39627,1758088591.69276,0.0,0.0,0.0,-22.00158,37.18496,-19.19409,7.74,0.46,1.34,2.0
1758088594.4111,1758088591.70276,0.0,0.0,0.0,-23.66316,28.76248,-19.36597,7.32,0.13,1.19,2.0
1758088594.41517,1758088591.71276,0.0,0.0,0.0,-25.15285,21.31403,-18.9649,7.32,0.13,1.19,2.0
1758088594.43525,1758088591.72276,0.0,0.0,0.0,-26.24147,14.78231,-17.53251,7.52,-0.07,1.1,2.0
1758088594.43738,1758088591.73276,0.0,0.0,0.0,-27.84575,5.50039,-15.06879,7.65,-0.1,1.04,2.0
1758088594.4537,1758088591.74276,0.0,0.0,0.0,-29.22085,-0.74485,-13.46451,7.65,-0.1,1.04,2.0
1758088594.4691,1758088591.75276,0.0,0.0,0.0,-30.53865,-2.86479,-11.97482,7.8,-0.03,0.83,2.0
1758088594.46954,1758088591.76276,0.0,0.0,0.0,-31.74186,-2.23454,-10.31324,7.8,-0.03,0.83,2.0
1758088594.4849,1758088591.77276,0.0,0.0,0.0,-33.00237,-1.94806,-7.10468,8.08,-0.03,0.66,2.0
1758088594.48647,1758088591.78276,0.0,0.0,0.0,-33.74722,-2.92208,-5.21392,8.08,-0.03,0.66,2.0
1758088594.50086,1758088591.79276,0.0,0.0,0.0,-34.77854,-5.55769,-3.72423,7.76,-0.02,0.66,2.0
1758088594.505,1758088591.80276,0.0,0.0,0.0,-35.86716,-9.39651,-2.6929,7.76,-0.02,0.66,2.0
1758088594.52084,1758088591.81276,0.0,0.0,0.0,-37.87251,-15.24068,-2.6929,7.68,0.09,0.37,2.0
1758088594.54029,1758088591.82276,0.0,0.0,0.0,-39.19032,-18.33465,-3.49504,8.27,0.07,0.16,2.0
1758088594.54106,1758088591.83276,0.0,0.0,0.0,-40.7946,-21.7724,-4.64096,8.27,0.07,0.16,2.0
1758088594.54599,1758088591.84276,0.0,0.0,0.0,-43.20102,-25.89769,-8.30789,9.15,-0.31,-0.05,2.0
1758088594.56593,1758088591.85276,0.0,0.0,0.0,-44.46153,-30.65324,-10.94349,9.15,-0.31,-0.05,2.0
1758088594.57101,1758088591.86276,0.0,0.0,0.0,-45.60744,-34.37747,-13.5218,9.8,-0.7,-0.2,2.0
1758088594.58601,1758088591.87276,0.0,0.0,0.0,-46.69606,-35.00772,-15.0115,9.8,-0.7,-0.2,2.0
1758088594.58823,1758088591.88276,0.0,0.0,0.0,-48.41494,-17.47521,-18.62113,10.97,-0.71,-0.22,2.0
1758088594.60292,1758088591.89276,0.0,0.0,0.0,-49.61814,1.3751,-20.16812,12.81,-0.45,-0.21,2.0
1758088594.60564,1758088591.90276,0.0,0.0,0.0,-50.2484,16.10011,-19.99623,12.81,-0.45,-0.21,2.0
1758088594.62089,1758088591.91276,0.0,0.0,0.0,-49.61814,18.9649,-19.25138,11.79,-0.21,0.35,2.0
1758088594.62526,1758088591.92276,0.0,0.0,0.0,-48.01387,-9.96947,-19.88164,11.79,-0.21,0.35,2.0
1758088594.64899,1758088591.93276,0.0,0.0,0.0,-44.51882,-22.51724,-20.11082,10.12,-0.36,1.11,2.0
1758088594.64962,1758088591.94276,0.0,0.0,0.0,-40.16434,-29.39274,-20.85567,10.12,-0.36,1.11,2.0
1758088594.67771,1758088591.95276,0.0,0.0,0.0,-36.7266,-38.90384,-21.14215,12.08,-1.5,1.12,2.0
1758088594.68129,1758088591.96276,0.0,0.0,0.0,-33.11696,-52.9986,-21.60051,10.76,-1.86,1.74,2.0
1758088594.68176,1758088591.97276,0.0,0.0,0.0,-29.10626,-56.03527,-21.48592,10.76,-1.86,1.74,2.0
1758088594.69993,1758088591.98276,0.0,0.0,0.0,-22.34536,-62.28051,-22.34536,10.68,-2.0,4.69,2.0
1758088594.70143,1758088591.99276,0.0,0.0,0.0,-15.29797,-75.00018,-27.38738,10.68,-2.0,4.69,2.0
1758088594.71596,1758088592.00276,0.0,0.0,0.0,-2.97938,-78.7817,-39.24761,13.27,-3.29,7.37,2.0
1758088594.72191,1758088592.01276,0.0,0.0,0.0,5.61499,-71.50513,-43.83128,13.27,-3.29,7.37,2.0
1758088594.74283,1758088592.02276,0.0,0.0,0.0,11.74564,-65.03072,-45.20637,13.72,-3.79,3.84,2.0
1758088594.74535,1758088592.03276,0.0,0.0,0.0,14.61043,-54.88936,-41.13837,13.72,-3.79,3.84,2.0
1758088594.74595,1758088592.04276,0.0,0.0,0.0,11.97482,-37.98711,-35.98175,9.75,-1.57,3.07,2.0
1758088594.76485,1758088592.05276,0.0,0.0,0.0,6.7609,-31.51268,-29.62192,8.96,0.18,3.7,2.0
1758088594.76574,1758088592.06276,0.0,0.0,0.0,0.17189,-28.30412,-23.31938,8.96,0.18,3.7,2.0
1758088594.78124,1758088592.07276,0.0,0.0,0.0,-11.97482,-22.34536,-14.9542,10.58,1.5,3.57,2.0
1758088594.78645,1758088592.08276,0.0,0.0,0.0,-20.62648,-15.12609,-11.22997,10.58,1.5,3.57,2.0
1758088594.80197,1758088592.09276,0.0,0.0,0.0,-28.64789,-2.92208,-8.99544,12.75,1.93,2.31,2.0
1758088594.80636,1758088592.10276,0.0,0.0,0.0,-35.40879,15.12609,-7.84952,12.75,1.93,2.31,2.0
1758088594.82199,1758088592.11276,0.0,0.0,0.0,-42.51347,36.89849,-7.33386,13.61,1.44,1.45,2.0
1758088594.82472,1758088592.12276,0.0,0.0,0.0,-45.37826,46.40959,-7.21927,11.8,0.58,1.37,2.0
1758088594.84121,1758088592.13276,0.0,0.0,0.0,-46.81066,53.91533,-6.99009,11.8,0.58,1.37,2.0
1758088594.84487,1758088592.14276,0.0,0.0,0.0,-46.35228,60.27517,-6.53172,10.6,-0.35,1.21,2.0
1758088594.86101,1758088592.15276,0.0,0.0,0.0,-44.46153,66.00475,-6.18794,10.6,-0.35,1.21,2.0
1758088594.87722,1758088592.16276,0.0,0.0,0.0,-42.05511,67.15066,-5.50039,9.63,-1.24,1.45,2.0
1758088594.87818,1758088592.17276,0.0,0.0,0.0,-39.4195,67.72362,-4.81285,9.63,-1.24,1.45,2.0
1758088594.89808,1758088592.18276,0.0,0.0,0.0,-36.6693,67.09336,-3.09397,8.83,-1.88,1.48,2.0
1758088594.9007,1758088592.19276,0.0,0.0,0.0,-32.37212,63.48372,0.51566,8.0,-2.08,1.5,2.0
1758088594.91629,1758088592.20276,0.0,0.0,0.0,-28.01764,60.10328,4.1253,8.0,-2.08,1.5,2.0
1758088594.9204,1758088592.21276,0.0,0.0,0.0,-23.54857,55.57691,8.30789,7.06,-2.08,1.36,2.0
1758088594.93627,1758088592.22276,0.0,0.0,0.0,-18.56383,51.45161,13.86558,7.06,-2.08,1.36,2.0
1758088594.93803,1758088592.23276,0.0,0.0,0.0,-12.89155,43.37291,16.3293,7.01,-2.14,1.19,2.0
1758088594.95381,1758088592.24276,0.0,0.0,0.0,-10.19865,37.01308,17.47521,7.01,-2.14,1.19,2.0
1758088594.95609,1758088592.25276,0.0,0.0,0.0,-8.02141,30.65324,17.99088,7.15,-2.01,1.07,2.0
1758088594.97118,1758088592.26276,0.0,0.0,0.0,-5.55769,21.7724,16.90226,7.15,-2.01,1.07,2.0
1758088594.97544,1758088592.27276,0.0,0.0,0.0,-4.1253,15.46986,15.29797,7.34,-1.71,1.32,2.0
1758088595.01591,1758088592.28276,0.0,0.0,0.0,-2.63561,9.68299,13.00614,7.25,-1.38,1.3,2.0
1758088595.01754,1758088592.29276,0.0,0.0,0.0,-1.83346,7.21927,9.62569,7.25,-1.38,1.3,2.0
1758088595.01819,1758088592.30276,0.0,0.0,0.0,-1.20321,8.02141,4.29718,7.51,-0.98,1.34,2.0
1758088595.02575,1758088592.31276,0.0,0.0,0.0,-0.85944,7.79223,0.40107,7.51,-0.98,1.34,2.0
1758088595.03384,1758088592.32276,0.0,0.0,0.0,-0.57296,5.32851,-2.92208,7.3,-0.53,0.98,2.0
1758088595.03664,1758088592.33276,0.0,0.0,0.0,-0.34377,1.83346,-5.61499,7.3,-0.53,0.98,2.0
1758088595.0537,1758088592.34276,0.0,0.0,0.0,0.17189,-6.13065,-7.33386,7.06,-0.31,0.55,2.0
1758088595.05562,1758088592.35276,0.0,0.0,0.0,-0.0573,-15.06879,-6.70361,7.28,-0.48,0.08,2.0
1758088595.07132,1758088592.36276,0.0,0.0,0.0,-2.06265,-25.89769,-4.98473,7.28,-0.48,0.08,2.0
1758088595.07482,1758088592.37276,0.0,0.0,0.0,-5.21392,-34.66395,-2.63561,8.33,-0.35,-0.07,2.0
1758088595.09007,1758088592.38276,0.0,0.0,0.0,-9.5684,-33.9764,1.48969,8.33,-0.35,-0.07,2.0
1758088595.10608,1758088592.39276,0.0,0.0,0.0,-12.77696,-23.0902,3.55234,11.1,0.2,-0.37,2.0
1758088595.10729,1758088592.40276,0.0,0.0,0.0,-14.72501,-11.97482,5.78687,11.1,0.2,-0.37,2.0
1758088595.12528,1758088592.41276,0.0,0.0,0.0,-16.3293,-6.58902,5.72958,12.41,0.5,-0.15,2.0
1758088595.12725,1758088592.42276,0.0,0.0,0.0,-18.62113,-7.44845,3.20856,11.47,0.4,-0.41,2.0
1758088595.14313,1758088592.43276,0.0,0.0,0.0,-19.13679,-9.74028,0.97403,11.47,0.4,-0.41,2.0
1758088595.14572,1758088592.44276,0.0,0.0,0.0,-18.85031,-14.38124,-2.11994,11.54,0.01,-1.37,2.0
1758088595.16119,1758088592.45276,0.0,0.0,0.0,-17.58981,-20.11082,-5.78687,11.54,0.01,-1.37,2.0
1758088595.17739,1758088592.46276,0.0,0.0,0.0,-15.87093,-25.7831,-5.90147,11.89,-0.66,-0.16,2.0
1758088595.17998,1758088592.47276,0.0,0.0,0.0,-14.38124,-29.22085,-5.55769,11.89,-0.66,-0.16,2.0
1758088595.19537,1758088592.48276,0.0,0.0,0.0,-13.5791,-34.89313,-5.61499,11.95,-0.58,0.66,2.0
1758088595.19635,1758088592.49276,0.0,0.0,0.0,-12.89155,-55.6915,-4.0107,11.95,-0.58,2.42,2.0
1758088595.21234,1758088592.50276,0.0,0.0,0.0,-13.00614,-70.53111,-0.45837,9.85,-1.0,2.42,2.0
1758088595.21568,1758088592.51276,0.0,0.0,0.0,-13.69369,-77.80767,5.72958,10.54,-1.9,5.07,2.0
1758088595.23448,1758088592.52276,0.0,0.0,0.0,-15.0115,-77.75038,15.06879,10.54,-1.9,5.07,2.0
1758088595.23572,1758088592.53276,0.0,0.0,0.0,-19.25138,-73.45319,30.30947,13.66,-1.56,6.67,2.0
1758088595.25175,1758088592.54276,0.0,0.0,0.0,-22.74642,-69.38519,36.89849,13.66,-1.56,6.67,2.0
1758088595.25473,1758088592.55276,0.0,0.0,0.0,-25.72581,-62.68159,39.4768,12.54,-0.61,5.99,2.0
1758088595.27012,1758088592.56276,0.0,0.0,0.0,-27.10091,-53.17049,39.4195,12.54,-0.61,5.99,2.0
1758088595.27529,1758088592.57276,0.0,0.0,0.0,-25.61122,-35.52338,35.06502,11.01,-0.25,3.66,2.0
1758088595.29357,1758088592.58276,0.0,0.0,0.0,-22.68913,-23.54857,29.96569,11.03,-1.04,2.65,2.0
1758088595.3019,1758088592.59276,0.0,0.0,0.0,-18.85031,-12.60507,24.29341,11.03,-1.04,2.65,2.0
1758088595.32466,1758088592.60276,0.0,0.0,0.0,-14.49583,-4.69825,19.13679,11.5,-2.15,2.3,2.0
1758088595.32586,1758088592.61276,0.0,0.0,0.0,-8.59437,3.38045,13.69369,11.5,-2.15,2.3,2.0
1758088595.33082,1758088592.62276,0.0,0.0,0.0,-5.4431,12.71966,11.97482,12.34,-2.61,1.81,2.0
1758088595.33603,1758088592.63276,0.0,0.0,0.0,-2.29183,25.09555,9.68299,12.34,-2.61,1.81,2.0
1758088595.35531,1758088592.64276,0.0,0.0,0.0,1.83346,40.62271,6.8182,12.76,-2.29,1.55,2.0
1758088595.35669,1758088592.65276,0.0,0.0,0.0,4.1253,55.57691,5.50039,11.37,-1.58,1.68,2.0
1758088595.37131,1758088592.66276,0.0,0.0,0.0,4.35448,58.55629,4.29718,11.37,-1.58,1.68,2.0
1758088595.37392,1758088592.67276,0.0,0.0,0.0,3.60963,57.58226,2.92208,9.84,-0.67,1.91,2.0
1758088595.39015,1758088592.68276,0.0,0.0,0.0,0.34377,55.57691,0.51566,9.84,-0.67,1.91,2.0
1758088595.40636,1758088592.69276,0.0,0.0,0.0,-2.7502,55.34772,-1.77617,9.47,0.23,1.76,2.0
1758088595.40927,1758088592.70276,0.0,0.0,0.0,-5.90147,54.08722,-4.92744,9.47,0.23,1.76,2.0
1758088595.42497,1758088592.71276,0.0,0.0,0.0,-8.70896,52.36834,-8.02141,8.93,0.92,1.69,2.0
1758088595.42694,1758088592.72276,0.0,0.0,0.0,-12.49048,48.75871,-12.54778,8.29,0.93,1.56,2.0
1758088595.46516,1758088592.73276,0.0,0.0,0.0,-14.49583,45.37826,-15.41257,8.29,0.93,1.56,2.0
1758088595.46717,1758088592.74276,0.0,0.0,0.0,-16.21471,40.68,-17.99088,7.53,0.62,1.33,2.0
1758088595.46754,1758088592.75276,0.0,0.0,0.0,-17.18874,33.74722,-20.16812,7.53,0.62,1.33,2.0
1758088595.46952,1758088592.76276,0.0,0.0,0.0,-17.87628,20.62648,-21.48592,6.85,0.25,1.27,2.0
1758088595.48545,1758088592.77276,0.0,0.0,0.0,-17.93358,13.06344,-20.79837,6.85,0.25,1.27,2.0
1758088595.48677,1758088592.78276,0.0,0.0,0.0,-17.93358,7.39116,-19.13679,6.98,-0.09,1.02,2.0
1758088595.5015,1758088592.79276,0.0,0.0,0.0,-18.22006,2.00535,-16.50119,6.98,-0.09,1.02,2.0
1758088595.50399,1758088592.80276,0.0,0.0,0.0,-18.90761,-7.10468,-11.86023,7.11,-0.39,0.94,2.0
1758088595.52052,1758088592.81276,0.0,0.0,0.0,-19.76705,-9.85487,-8.70896,7.18,-0.51,0.66,2.0
1758088595.53624,1758088592.82276,0.0,0.0,0.0,-20.62648,-8.76626,-5.21392,7.18,-0.51,0.66,2.0
1758088595.53744,1758088592.83276,0.0,0.0,0.0,-21.48592,-6.07335,0.11459,7.74,-0.52,0.37,2.0
1758088595.55463,1758088592.84276,0.0,0.0,0.0,-23.31938,-2.40642,2.92208,7.74,-0.52,0.37,2.0
1758088595.5561,1758088592.85276,0.0,0.0,0.0,-24.80907,-2.40642,4.98473,7.69,-0.4,0.25,2.0
1758088595.57355,1758088592.86276,0.0,0.0,0.0,-26.64254,-3.60963,5.90147,7.69,-0.4,0.25,2.0
1758088595.57524,1758088592.87276,0.0,0.0,0.0,-29.62192,-8.47978,6.41713,7.66,-0.03,0.05,2.0
1758088595.59027,1758088592.88276,0.0,0.0,0.0,-31.74186,-12.83425,5.61499,8.12,0.19,-0.1,2.0
1758088595.60622,1758088592.89276,0.0,0.0,0.0,-33.80451,-17.18874,4.87014,8.12,0.19,-0.1,2.0
1758088595.60746,1758088592.90276,0.0,0.0,0.0,-35.75257,-19.36597,3.26586,9.06,0.04,-0.38,2.0
1758088595.62224,1758088592.91276,0.0,0.0,0.0,-37.52874,-19.07949,0.45837,9.06,0.04,-0.38,2.0
1758088595.6258,1758088592.92276,0.0,0.0,0.0,-37.87251,-16.38659,-2.23454,10.19,-0.6,-0.56,2.0
1758088595.6425,1758088592.93276,0.0,0.0,0.0,-37.58603,-13.86558,-4.64096,10.19,-0.6,-0.56,2.0
1758088595.65698,1758088592.94276,0.0,0.0,0.0,-36.95578,-12.43318,-6.8182,10.91,-1.02,-0.58,2.0
1758088595.66261,1758088592.95276,0.0,0.0,0.0,-35.58068,-10.71431,-9.5684,11.08,-1.05,-0.83,2.0
1758088595.68868,1758088592.96276,0.0,0.0,0.0,-34.43476,-2.57831,-11.45916,11.08,-1.05,-0.83,2.0
1758088595.68935,1758088592.97276,0.0,0.0,0.0,-33.17426,9.85487,-12.37589,12.68,-0.73,-0.22,2.0
1758088595.69079,1758088592.98276,0.0,0.0,0.0,-31.28349,24.4653,-14.03747,12.68,-0.73,-0.22,2.0
1758088595.70645,1758088592.99276,0.0,0.0,0.0,-26.18417,24.63719,-15.41257,13.44,-0.78,1.28,2.0
1758088595.70751,1758088593.00276,0.0,0.0,0.0,-23.72045,0.68755,-19.88164,13.44,-0.78,1.28,2.0
1758088595.72463,1758088593.01276,0.0,0.0,0.0,-20.16812,-21.14215,-22.11617,11.5,-1.03,1.61,2.0
1758088595.72586,1758088593.02276,0.0,0.0,0.0,-18.73572,-30.82513,-24.5226,11.5,-1.03,1.61,2.0
1758088595.74522,1758088593.03276,0.0,0.0,0.0,-16.95955,-28.59059,-22.68913,12.19,-1.2,0.63,2.0
1758088595.74751,1758088593.04276,0.0,0.0,0.0,-15.35527,-25.72581,-20.51189,11.41,-1.25,1.56,2.0
1758088595.76489,1758088593.05276,0.0,0.0,0.0,-11.97482,-31.11161,-18.90761,11.41,-1.25,1.56,2.0
1758088595.7659,1758088593.06276,0.0,0.0,0.0,-6.7609,-48.58683,-22.74642,10.19,-0.98,5.32,2.0
1758088595.78129,1758088593.07276,0.0,0.0,0.0,-2.40642,-52.08187,-28.36141,10.19,-0.98,5.32,2.0
1758088595.78762,1758088593.08276,0.0,0.0,0.0,2.46372,-51.50891,-32.88778,12.96,-2.02,4.9,2.0
1758088595.80256,1758088593.09276,0.0,0.0,0.0,6.7609,-49.84733,-34.95043,12.96,-2.02,4.9,2.0
1758088595.8051,1758088593.10276,0.0,0.0,0.0,7.67763,-41.88322,-34.66395,11.3,-2.22,3.69,2.0
1758088595.82231,1758088593.11276,0.0,0.0,0.0,4.58366,-37.01308,-32.71589,9.42,-1.18,3.51,2.0
1758088595.82514,1758088593.12276,0.0,0.0,0.0,-0.51566,-35.92446,-29.8511,9.42,-1.18,3.51,2.0
1758088595.86847,1758088593.13276,0.0,0.0,0.0,-7.44845,-36.38282,-27.1582,9.15,0.12,3.74,2.0
1758088595.87101,1758088593.14276,0.0,0.0,0.0,-18.27736,-34.14828,-23.0329,9.15,0.12,3.74,2.0
1758088595.87405,1758088593.15276,0.0,0.0,0.0,-25.15285,-26.81443,-20.3973,10.78,1.25,3.22,2.0
1758088595.87569,1758088593.16276,0.0,0.0,0.0,-31.62727,-12.49048,-18.62113,10.78,1.25,3.22,2.0
1758088595.87605,1758088593.17276,0.0,0.0,0.0,-37.01308,1.60428,-17.24603,12.47,1.51,2.48,2.0
1758088595.89583,1758088593.18276,0.0,0.0,0.0,-42.34158,14.83961,-14.72501,11.45,0.88,2.1,2.0
1758088595.89768,1758088593.19276,0.0,0.0,0.0,-43.65939,23.49127,-12.43318,11.45,0.88,2.1,2.0
1758088595.91498,1758088593.20276,0.0,0.0,0.0,-43.54479,32.48671,-9.5684,11.13,-0.1,1.67,2.0
1758088595.92074,1758088593.21276,0.0,0.0,0.0,-41.88322,40.85189,-6.70361,11.13,-0.1,1.67,2.0
1758088595.93633,1758088593.22276,0.0,0.0,0.0,-37.98711,48.9879,-3.26586,10.42,-1.0,1.54,2.0
1758088595.94575,1758088593.23276,0.0,0.0,0.0,-34.77854,53.80074,-1.14592,10.42,-1.0,1.54,2.0
1758088595.94963,1758088593.24276,0.0,0.0,0.0,-31.79916,57.29578,0.0573,9.75,-1.63,1.46,2.0
1758088595.97533,1758088593.25276,0.0,0.0,0.0,-26.75713,59.47303,1.3178,9.75,-1.63,1.46,2.0
1758088595.97594,1758088593.26276,0.0,0.0,0.0,-23.66316,60.79083,2.11994,9.1,-2.01,1.39,2.0
1758088595.97797,1758088593.27276,0.0,0.0,0.0,-20.79837,60.67623,3.20856,8.71,-2.16,1.37,2.0
1758088595.99525,1758088593.28276,0.0,0.0,0.0,-18.16276,59.24384,4.18259,8.71,-2.16,1.37,2.0
1758088595.99645,1758088593.29276,0.0,0.0,0.0,-14.20935,55.97798,5.95876,8.36,-1.99,1.08,2.0
1758088596.01485,1758088593.30276,0.0,0.0,0.0,-11.91752,53.17049,6.87549,8.36,-1.99,1.08,2.0
1758088596.016,1758088593.31276,0.0,0.0,0.0,-9.62569,49.21708,7.79223,8.04,-1.7,0.97,2.0
1758088596.03479,1758088593.32276,0.0,0.0,0.0,-7.67763,44.63341,8.42248,8.04,-1.7,0.97,2.0
1758088596.0506,1758088593.33276,0.0,0.0,0.0,-5.21392,36.21093,8.76626,7.58,-1.46,1.0,2.0
1758088596.05664,1758088593.34276,0.0,0.0,0.0,-3.49504,31.85646,8.59437,7.39,-1.29,0.81,2.0
1758088596.05941,1758088593.35276,0.0,0.0,0.0,-1.83346,26.87172,7.73493,7.39,-1.29,0.81,2.0
1758088596.07587,1758088593.36276,0.0,0.0,0.0,0.0,21.37133,6.70361,7.2,-1.2,0.59,2.0
1758088596.07662,1758088593.37276,0.0,0.0,0.0,3.03668,15.75634,4.69825,7.2,-1.2,0.59,2.0
1758088596.09461,1758088593.38276,0.0,0.0,0.0,5.72958,15.06879,3.20856,7.52,-1.13,0.52,2.0
1758088596.09581,1758088593.39276,0.0,0.0,0.0,8.30789,14.43854,1.20321,7.52,-1.13,0.52,2.0
1758088596.11463,1758088593.40276,0.0,0.0,0.0,10.8289,12.2613,-0.57296,7.82,-1.08,0.56,2.0
1758088596.11608,1758088593.41276,0.0,0.0,0.0,14.49583,4.0107,-2.92208,7.4,-1.11,0.54,2.0
1758088596.13461,1758088593.42276,0.0,0.0,0.0,16.84496,-2.34913,-3.66693,7.4,-1.11,0.54,2.0
1758088596.13608,1758088593.43276,0.0,0.0,0.0,18.85031,-8.99544,-3.66693,7.36,-1.2,0.39,2.0
1758088596.1549,1758088593.44276,0.0,0.0,0.0,20.79837,-19.13679,-2.40642,7.36,-1.2,0.39,2.0
1758088596.15625,1758088593.45276,0.0,0.0,0.0,22.11617,-34.37747,-0.0573,7.44,-1.15,0.24,2.0
1758088596.17382,1758088593.46276,0.0,0.0,0.0,22.05888,-40.16434,1.71887,7.44,-1.15,0.24,2.0
1758088596.17505,1758088593.47276,0.0,0.0,0.0,22.23076,-37.58603,5.15662,9.01,-0.62,-0.22,2.0
1758088596.19067,1758088593.48276,0.0,0.0,0.0,20.62648,-19.99623,10.25595,9.01,-0.62,-0.22,2.0
1758088596.20887,1758088593.49276,0.0,0.0,0.0,18.16276,-6.47442,12.14671,11.83,0.05,-0.04,2.0
1758088596.21002,1758088593.50276,0.0,0.0,0.0,15.41257,-0.11459,13.75099,12.28,0.3,0.24,2.0
1758088596.22551,1758088593.51276,0.0,0.0,0.0,12.08941,0.22918,13.40721,12.28,0.3,0.24,2.0
1758088596.23071,1758088593.52276,0.0,0.0,0.0,9.62569,-16.21471,11.28727,11.21,0.16,-0.48,2.0
1758088596.24583,1758088593.53276,0.0,0.0,0.0,8.30789,-34.60666,10.59972,11.21,0.16,-0.48,2.0
1758088596.24837,1758088593.54276,0.0,0.0,0.0,6.58902,-38.44547,11.63104,11.2,-0.44,-0.34,2.0
1758088596.26541,1758088593.55276,0.0,0.0,0.0,4.87014,-32.83048,11.74564,11.2,-0.44,-0.34,2.0
1758088596.26716,1758088593.56276,0.0,0.0,0.0,1.77617,-29.8511,11.11538,13.75,-0.61,0.42,2.0
1758088596.28329,1758088593.57276,0.0,0.0,0.0,-0.40107,-35.92446,9.91217,11.88,0.01,0.86,2.0
1758088596.28527,1758088593.58276,0.0,0.0,0.0,-2.86479,-46.00851,8.0787,11.88,0.01,0.86,2.0
1758088596.30061,1758088593.59276,0.0,0.0,0.0,-4.0107,-56.55093,7.79223,9.64,-0.25,1.7,2.0
1758088596.31745,1758088593.60276,0.0,0.0,0.0,-6.24524,-62.85347,9.74028,9.64,-0.25,1.7,2.0
1758088596.32043,1758088593.61276,0.0,0.0,0.0,-8.30789,-67.55173,15.69904,10.37,-0.96,4.28,2.0
1758088596.33585,1758088593.62276,0.0,0.0,0.0,-9.96947,-69.95815,26.12688,10.37,-0.96,4.28,2.0
1758088596.33703,1758088593.63276,0.0,0.0,0.0,-12.204,-68.52576,37.47144,12.89,-0.39,6.09,2.0
1758088596.35564,1758088593.64276,0.0,0.0,0.0,-16.90226,-61.42108,47.78468,12.37,0.12,5.07,2.0
1758088596.35754,1758088593.65276,0.0,0.0,0.0,-18.9649,-57.58226,49.38896,12.37,0.12,5.07,2.0
1758088596.37414,1758088593.66276,0.0,0.0,0.0,-19.82434,-52.02457,47.72739,9.83,-0.11,3.88,2.0
1758088596.37537,1758088593.67276,0.0,0.0,0.0,-18.44924,-38.84654,39.76327,9.83,-0.11,3.88,2.0
1758088596.39084,1758088593.68276,0.0,0.0,0.0,-16.272,-29.10626,31.74186,9.89,-0.75,3.01,2.0
1758088596.39413,1758088593.69276,0.0,0.0,0.0,-13.00614,-19.36597,22.86102,9.89,-0.75,3.01,2.0
1758088596.40964,1758088593.70276,0.0,0.0,0.0,-8.99544,-11.11538,14.72501,10.65,-1.6,2.45,2.0
1758088596.42565,1758088593.71276,0.0,0.0,0.0,-2.63561,-0.45837,5.90147,10.65,-1.6,1.92,2.0
1758088596.4268,1758088593.72276,0.0,0.0,0.0,0.80214,10.31324,2.57831,11.75,-2.2,1.92,2.0
1758088596.44341,1758088593.73276,0.0,0.0,0.0,4.1253,23.83505,0.85944,12.98,-2.24,1.66,2.0
1758088596.44512,1758088593.74276,0.0,0.0,0.0,6.8182,36.38282,0.0,12.98,-2.24,1.66,2.0
1758088596.46065,1758088593.75276,0.0,0.0,0.0,8.93814,49.27437,-0.80214,12.2,-1.69,1.52,2.0
1758088596.47771,1758088593.76276,0.0,0.0,0.0,8.76626,56.20716,-0.68755,12.2,-1.69,1.52,2.0
1758088596.48072,1758088593.77276,0.0,0.0,0.0,7.33386,61.65026,-0.85944,11.09,-0.91,1.46,2.0
1758088596.49588,1758088593.78276,0.0,0.0,0.0,5.21392,65.77556,-0.80214,11.09,-0.91,1.46,2.0
1758088596.49707,1758088593.79276,0.0,0.0,0.0,1.71887,69.04142,-1.77617,10.26,-0.13,1.46,2.0
1758088596.51397,1758088593.80276,0.0,0.0,0.0,-0.68755,69.55708,-3.20856,9.59,0.43,1.42,2.0
1758088596.51512,1758088593.81276,0.0,0.0,0.0,-2.6929,70.53111,-5.21392,9.59,0.43,1.42,2.0
1758088596.53061,1758088593.82276,0.0,0.0,0.0,-4.35448,69.95815,-7.33386,8.97,0.61,1.47,2.0
1758088596.53499,1758088593.83276,0.0,0.0,0.0,-6.99009,64.45775,-11.22997,8.97,0.61,1.47,2.0
1758088596.55063,1758088593.84276,0.0,0.0,0.0,-8.65166,59.24384,-14.03747,8.22,0.49,1.5,2.0
1758088596.55611,1758088593.85276,0.0,0.0,0.0,-9.62569,53.45696,-16.84496,8.22,0.49,1.5,2.0
1758088596.57402,1758088593.86276,0.0,0.0,0.0,-11.45916,46.06581,-19.76705,7.78,0.23,1.24,2.0
1758088596.57603,1758088593.87276,0.0,0.0,0.0,-12.49048,33.68992,-20.79837,7.43,-0.06,1.12,2.0
1758088596.59434,1758088593.88276,0.0,0.0,0.0,-13.23533,25.72581,-20.51189,7.43,-0.06,1.12,2.0
1758088596.59549,1758088593.89276,0.0,0.0,0.0,-13.86558,18.44924,-18.79302,7.47,-0.29,0.94,2.0
1758088596.6106,1758088593.90276,0.0,0.0,0.0,-15.24068,8.70896,-14.72501,7.47,-0.29,0.94,2.0
1758088596.61583,1758088593.91276,0.0,0.0,0.0,-16.272,2.29183,-11.17268,7.41,-0.36,0.78,2.0
1758088596.63503,1758088593.92276,0.0,0.0,0.0,-17.53251,-1.66158,-7.67763,7.41,-0.36,0.78,2.0
1758088596.63628,1758088593.93276,0.0,0.0,0.0,-18.73572,-2.57831,-3.83882,7.43,-0.24,0.58,2.0
1758088596.68602,1758088593.94276,0.0,0.0,0.0,-20.22541,-2.00535,1.77617,7.61,-0.11,0.52,2.0
1758088596.69621,1758088593.95276,0.0,0.0,0.0,-21.14215,-1.77617,4.92744,7.61,-0.11,0.52,2.0
1758088596.69763,1758088593.96276,0.0,0.0,0.0,-22.11617,-2.40642,7.44845,7.66,-0.1,0.46,2.0
1758088596.69933,1758088593.97276,0.0,0.0,0.0,-23.26209,-4.35448,9.05273,7.66,-0.1,0.46,2.0
1758088596.70002,1758088593.98276,0.0,0.0,0.0,-25.15285,-9.4538,9.11003,7.83,-0.06,0.3,2.0
1758088596.70524,1758088593.99276,0.0,0.0,0.0,-26.18417,-13.5791,7.73493,7.83,-0.06,0.3,2.0
1758088596.70581,1758088594.00276,0.0,0.0,0.0,-27.04361,-17.47521,5.27121,8.39,-0.1,0.15,2.0
1758088596.7162,1758088594.01276,0.0,0.0,0.0,-27.73116,-21.25674,2.11994,8.39,-0.1,0.15,2.0
1758088596.73547,1758088594.02276,0.0,0.0,0.0,-27.73116,-24.29341,-2.63561,9.02,-0.28,-0.02,2.0
1758088596.73702,1758088594.03276,0.0,0.0,0.0,-27.84575,-24.57989,-6.13065,9.7,-0.61,-0.36,2.0
1758088596.75326,1758088594.04276,0.0,0.0,0.0,-27.73116,-22.40265,-9.39651,9.7,-0.61,-0.36,2.0
1758088596.75452,1758088594.05276,0.0,0.0,0.0,-28.59059,-21.48592,-13.40721,10.31,-0.67,-0.67,2.0
1758088596.7706,1758088594.06276,0.0,0.0,0.0,-30.13758,-22.91831,-15.06879,10.31,-0.67,-0.67,2.0
1758088596.78671,1758088594.07276,0.0,0.0,0.0,-31.85646,-18.9649,-16.04282,10.48,-0.34,-0.91,2.0
1758088596.78991,1758088594.08276,0.0,0.0,0.0,-32.71589,-5.95876,-16.50119,10.48,-0.34,-0.91,2.0
1758088596.80499,1758088594.09276,0.0,0.0,0.0,-33.00237,19.13679,-16.73037,12.5,0.03,-0.2,2.0
1758088596.80596,1758088594.10276,0.0,0.0,0.0,-31.97105,26.18417,-17.18874,13.02,-0.15,1.26,2.0
1758088596.82105,1758088594.11276,0.0,0.0,0.0,-29.67921,12.83425,-17.99088,13.02,-0.15,1.26,2.0
1758088596.8377,1758088594.12276,0.0,0.0,0.0,-28.76248,-12.60507,-22.00158,10.89,-0.69,1.59,2.0
1758088596.83972,1758088594.13276,0.0,0.0,0.0,-26.24147,-34.0337,-25.7831,10.89,-0.69,1.59,2.0
1758088596.85477,1758088594.14276,0.0,0.0,0.0,-24.92367,-32.71589,-26.47065,12.28,-0.89,0.61,2.0
1758088596.85621,1758088594.15276,0.0,0.0,0.0,-23.37668,-27.38738,-25.7831,12.28,-0.89,0.61,2.0
1758088596.87099,1758088594.16276,0.0,0.0,0.0,-20.68378,-27.04361,-25.15285,12.18,-1.07,1.83,2.0
1758088596.88701,1758088594.17276,0.0,0.0,0.0,-14.83961,-43.02913,-28.13223,10.86,-0.95,5.56,2.0
1758088596.88969,1758088594.18275,0.0,0.0,0.0,-10.25595,-49.56085,-33.46074,10.86,-0.95,5.56,2.0
1758088596.90505,1758088594.19275,0.0,0.0,0.0,-3.32316,-45.49285,-38.21629,13.94,-2.56,4.41,2.0
1758088596.90675,1758088594.20275,0.0,0.0,0.0,3.60963,-40.96649,-41.25296,13.94,-2.56,4.41,2.0
1758088596.92177,1758088594.21275,0.0,0.0,0.0,10.59972,-38.44547,-40.7373,11.98,-2.76,3.36,2.0
1758088596.93805,1758088594.22275,0.0,0.0,0.0,11.74564,-34.72124,-37.87251,11.98,-2.76,3.36,2.0
1758088596.94091,1758088594.23275,0.0,0.0,0.0,9.96947,-31.28349,-33.23156,9.37,-1.34,3.7,2.0
1758088596.95596,1758088594.24275,0.0,0.0,0.0,5.95876,-27.10091,-27.67386,9.37,-1.34,3.7,2.0
1758088596.95702,1758088594.25275,0.0,0.0,0.0,-2.46372,-30.13758,-21.02755,9.24,0.02,4.03,2.0
1758088596.97262,1758088594.26275,0.0,0.0,0.0,-9.39651,-33.68992,-17.93358,9.91,1.06,3.94,2.0
1758088596.97378,1758088594.27275,0.0,0.0,0.0,-16.73037,-29.56462,-15.35527,9.91,1.06,3.94,2.0
1758088596.98976,1758088594.28275,0.0,0.0,0.0,-27.84575,-7.33386,-13.80828,12.08,1.41,2.98,2.0
1758088597.00585,1758088594.29275,0.0,0.0,0.0,-33.63263,5.61499,-12.83425,12.08,1.41,2.98,2.0
1758088597.00703,1758088594.30275,0.0,0.0,0.0,-37.12767,14.66772,-11.17268,11.49,1.09,2.54,2.0
1758088597.0229,1758088594.31275,0.0,0.0,0.0,-38.38818,23.37668,-8.42248,11.49,1.09,2.54,2.0
1758088597.0257,1758088594.32275,0.0,0.0,0.0,-37.52874,36.95578,-3.26586,10.7,0.28,1.96,2.0
1758088597.04512,1758088594.33275,0.0,0.0,0.0,-35.86716,44.8053,-0.0573,10.51,-0.6,1.55,2.0
1758088597.04642,1758088594.34275,0.0,0.0,0.0,-33.34615,51.50891,2.86479,10.51,-0.6,1.55,2.0
1758088597.0611,1758088594.35275,0.0,0.0,0.0,-30.65324,56.14987,5.09932,9.7,-1.37,1.53,2.0
1758088597.08045,1758088594.36275,0.0,0.0,0.0,-26.35606,60.27517,6.99009,9.7,-1.37,1.53,2.0
1758088597.08141,1758088594.37275,0.0,0.0,0.0,-23.54857,62.39511,7.67763,9.06,-1.83,1.44,2.0
1758088597.09704,1758088594.38275,0.0,0.0,0.0,-21.14215,61.65026,8.0787,9.06,-1.83,1.44,2.0
1758088597.09988,1758088594.39275,0.0,0.0,0.0,-18.50654,60.73353,8.99544,8.47,-1.96,1.38,2.0
1758088597.11509,1758088594.40275,0.0,0.0,0.0,-15.12609,57.18119,10.25595,8.21,-1.8,1.3,2.0
1758088597.11627,1758088594.41275,0.0,0.0,0.0,-12.83425,54.3164,10.8862,8.21,-1.8,1.3,2.0
1758088597.13107,1758088594.42275,0.0,0.0,0.0,-10.71431,50.82136,11.22997,8.18,-1.5,1.19,2.0
1758088597.13483,1758088594.43275,0.0,0.0,0.0,-8.65166,47.15443,11.45916,8.18,-1.5,1.19,2.0
1758088597.15077,1758088594.44275,0.0,0.0,0.0,-6.13065,41.71133,10.94349,8.15,-1.18,1.12,2.0
1758088597.15499,1758088594.45275,0.0,0.0,0.0,-4.81285,36.38282,10.31324,8.15,-1.18,1.12,2.0
1758088597.17114,1758088594.46275,0.0,0.0,0.0,-3.83882,31.2262,9.11003,7.98,-0.92,1.03,2.0
1758088597.17557,1758088594.47275,0.0,0.0,0.0,-2.6929,26.24147,6.47442,7.98,-0.92,1.03,2.0
1758088597.1911,1758088594.48275,0.0,0.0,0.0,-1.94806,17.76169,4.1253,7.8,-0.82,0.95,2.0
1758088597.20791,1758088594.49275,0.0,0.0,0.0,-0.85944,12.37589,1.66158,7.59,-0.83,0.9,2.0
1758088597.21065,1758088594.50275,0.0,0.0,0.0,0.17189,9.33921,-0.80214,7.59,-0.83,0.9,2.0
1758088597.22587,1758088594.51275,0.0,0.0,0.0,2.34913,8.25059,-4.58366,7.83,-0.83,0.78,2.0
1758088597.22895,1758088594.52275,0.0,0.0,0.0,3.89611,6.7609,-6.8182,7.83,-0.83,0.78,2.0
1758088597.24479,1758088594.53275,0.0,0.0,0.0,5.55769,3.09397,-8.30789,7.66,-0.8,0.82,2.0
1758088597.24626,1758088594.54275,0.0,0.0,0.0,7.16197,-1.48969,-9.11003,7.66,-0.8,0.82,2.0
1758088597.26088,1758088594.55275,0.0,0.0,0.0,9.39651,-10.54242,-8.136,7.45,-0.91,0.67,2.0
1758088597.27718,1758088594.56275,0.0,0.0,0.0,10.54242,-18.16276,-5.78687,7.7,-1.07,0.5,2.0
1758088597.2781,1758088594.57275,0.0,0.0,0.0,11.17268,-31.45539,-2.6929,7.7,-1.07,0.5,2.0
1758088597.29316,1758088594.58275,0.0,0.0,0.0,10.08406,-42.51347,1.20321,8.12,-0.88,0.27,2.0
1758088597.29409,1758088594.59275,0.0,0.0,0.0,7.10468,-50.53488,5.21392,8.12,-0.88,0.27,2.0
1758088597.30991,1758088594.60275,0.0,0.0,0.0,6.13065,-38.90384,9.4538,10.12,-0.28,-0.15,2.0
1758088597.32596,1758088594.61275,0.0,0.0,0.0,4.35448,-23.49127,11.51645,10.12,-0.28,-0.15,2.0
1758088597.32793,1758088594.62275,0.0,0.0,0.0,2.7502,-10.31324,13.17803,12.12,0.14,0.11,2.0
1758088597.34318,1758088594.63275,0.0,0.0,0.0,-0.97403,-7.10468,10.94349,11.01,0.13,-0.01,2.0
1758088597.34577,1758088594.64275,0.0,0.0,0.0,-3.83882,-11.51645,8.0787,11.01,0.13,-0.01,2.0
1758088597.36118,1758088594.65275,0.0,0.0,0.0,-6.13065,-15.75634,4.64096,10.85,-0.06,-0.62,2.0
1758088597.37899,1758088594.66275,0.0,0.0,0.0,-6.58902,-20.62648,1.83346,10.85,-0.06,-0.62,2.0
1758088597.37995,1758088594.67275,0.0,0.0,0.0,-8.36518,-27.04361,1.83346,11.89,-0.67,0.15,2.0
1758088597.39523,1758088594.68275,0.0,0.0,0.0,-9.28192,-30.36677,2.63561,11.89,-0.67,0.15,2.0
1758088597.39643,1758088594.69275,0.0,0.0,0.0,-9.96947,-33.86181,4.29718,12.66,-0.69,0.23,2.0
1758088597.41129,1758088594.70275,0.0,0.0,0.0,-10.94349,-42.57077,5.95876,12.66,-0.69,0.23,2.0
1758088597.42697,1758088594.71275,0.0,0.0,0.0,-11.00079,-48.24305,7.21927,11.47,-0.74,0.58,2.0
1758088597.42819,1758088594.72275,0.0,0.0,0.0,-11.34457,-52.36834,8.88085,10.48,-0.99,1.89,2.0
1758088597.44323,1758088594.73275,0.0,0.0,0.0,-12.2613,-57.46767,12.14671,10.48,-0.99,1.89,2.0
1758088597.44531,1758088594.74275,0.0,0.0,0.0,-14.03747,-63.19725,22.68913,11.49,-0.96,4.27,2.0
1758088597.46133,1758088594.75275,0.0,0.0,0.0,-15.12609,-62.05133,30.99702,11.49,-0.96,4.27,2.0
1758088597.47805,1758088594.76275,0.0,0.0,0.0,-17.76169,-59.53032,38.38818,13.3,-0.05,5.09,2.0
1758088597.48008,1758088594.77275,0.0,0.0,0.0,-20.85567,-56.26446,41.65404,13.3,-0.05,5.09,2.0
1758088597.49535,1758088594.78275,0.0,0.0,0.0,-23.83505,-50.64947,41.71133,11.17,0.25,4.59,2.0
1758088597.49645,1758088594.79275,0.0,0.0,0.0,-23.66316,-44.00316,38.56006,9.26,-0.18,3.12,2.0
1758088597.51118,1758088594.80275,0.0,0.0,0.0,-22.00158,-35.58068,33.46074,9.26,-0.18,3.12,2.0
1758088597.51495,1758088594.81275,0.0,0.0,0.0,-19.25138,-27.38738,26.98631,9.13,-0.95,2.53,2.0
1758088597.53055,1758088594.82275,0.0,0.0,0.0,-13.06344,-16.55848,17.18874,9.13,-0.95,2.53,2.0
1758088597.54605,1758088594.83275,0.0,0.0,0.0,-8.02141,-9.22462,12.08941,9.94,-1.97,2.28,2.0
1758088597.54797,1758088594.84275,0.0,0.0,0.0,-2.63561,-1.77617,8.99544,9.94,-1.97,2.28,2.0
1758088597.56297,1758088594.85275,0.0,0.0,0.0,2.40642,7.10468,7.44845,11.62,-2.7,1.94,2.0
1758088597.56575,1758088594.86275,0.0,0.0,0.0,9.11003,23.31938,6.99009,12.47,-2.67,1.66,2.0
1758088597.58199,1758088594.87275,0.0,0.0,0.0,12.2613,33.80451,6.24524,12.47,-2.67,1.66,2.0
1758088597.59806,1758088594.88275,0.0,0.0,0.0,14.32395,41.88322,5.55769,11.76,-1.9,1.69,2.0
1758088597.60081,1758088594.89275,0.0,0.0,0.0,14.83961,50.93595,3.95341,11.76,-1.9,1.69,2.0
1758088597.61641,1758088594.90275,0.0,0.0,0.0,13.69369,56.37905,3.26586,11.17,-0.96,1.74,2.0
1758088597.61725,1758088594.91275,0.0,0.0,0.0,12.204,60.50434,1.94806,11.17,-0.96,1.74,2.0
1758088597.63286,1758088594.92275,0.0,0.0,0.0,9.68299,64.85883,0.74485,10.8,-0.1,1.58,2.0
1758088597.63568,1758088594.93275,0.0,0.0,0.0,5.95876,66.5204,-2.57831,10.8,-0.1,1.47,2.0
1758088597.65529,1758088594.94275,0.0,0.0,0.0,4.64096,68.52576,-4.92744,10.12,0.4,1.47,2.0
1758088597.65727,1758088594.95275,0.0,0.0,0.0,3.26586,70.01544,-8.42248,9.63,0.45,1.49,2.0
1758088597.67468,1758088594.96275,0.0,0.0,0.0,2.00535,68.75494,-10.59972,9.63,0.45,1.49,2.0
1758088597.67565,1758088594.97275,0.0,0.0,0.0,-1.03132,61.70755,-13.5791,8.9,0.21,1.5,2.0
1758088597.6912,1758088594.98275,0.0,0.0,0.0,-2.40642,58.3844,-15.92823,8.9,0.21,1.5,2.0
1758088597.69468,1758088594.99275,0.0,0.0,0.0,-3.32316,54.66018,-17.99088,8.56,0.0,1.33,2.0
1758088597.71114,1758088595.00275,0.0,0.0,0.0,-2.6929,47.95657,-19.76705,8.56,0.0,1.33,2.0
1758088597.71527,1758088595.01275,0.0,0.0,0.0,-3.55234,34.09099,-19.53786,7.77,-0.08,1.02,2.0
1758088597.73139,1758088595.02275,0.0,0.0,0.0,-4.58366,25.61122,-18.62113,7.3,-0.13,1.06,2.0
1758088597.73471,1758088595.03275,0.0,0.0,0.0,-5.50039,19.07949,-15.92823,7.3,-0.13,1.06,2.0
1758088597.75014,1758088595.04275,0.0,0.0,0.0,-6.87549,12.43318,-13.5218,7.29,-0.06,0.84,2.0
1758088597.76889,1758088595.05275,0.0,0.0,0.0,-9.5684,1.48969,-9.33921,7.29,-0.06,0.84,2.0
1758088597.76932,1758088595.06275,0.0,0.0,0.0,-11.34457,-1.77617,-6.47442,7.13,0.11,0.82,2.0
1758088597.78423,1758088595.07275,0.0,0.0,0.0,-13.12073,-1.14592,-3.55234,7.13,0.11,0.82,2.0
1758088597.78696,1758088595.08275,0.0,0.0,0.0,-15.64175,-0.97403,0.57296,7.47,0.18,0.56,2.0
1758088597.80543,1758088595.09275,0.0,0.0,0.0,-17.87628,-1.83346,3.09397,7.39,0.12,0.56,2.0
1758088597.80634,1758088595.10275,0.0,0.0,0.0,-20.22541,-3.66693,4.81285,7.39,0.12,0.56,2.0
1758088597.84553,1758088595.11275,0.0,0.0,0.0,-22.91831,-6.87549,5.55769,7.61,0.06,0.4,2.0
1758088597.84969,1758088595.12275,0.0,0.0,0.0,-26.64254,-13.80828,5.09932,7.61,0.06,0.4,2.0
1758088597.85017,1758088595.13275,0.0,0.0,0.0,-28.476,-20.11082,3.66693,8.14,0.05,0.26,2.0
1758088597.85498,1758088595.14275,0.0,0.0,0.0,-30.02299,-26.41335,1.08862,8.14,0.05,0.26,2.0
1758088597.85535,1758088595.15275,0.0,0.0,0.0,-30.88243,-31.74186,-1.43239,8.76,-0.14,0.2,2.0
1758088597.87511,1758088595.16275,0.0,0.0,0.0,-31.45539,-33.86181,-6.07335,9.75,-0.14,-0.11,2.0
1758088597.88059,1758088595.17275,0.0,0.0,0.0,-31.28349,-32.83048,-8.76626,9.75,-0.37,-0.11,2.0
1758088597.89517,1758088595.18275,0.0,0.0,0.0,-31.2262,-28.30412,-11.74564,10.71,-0.69,-0.32,2.0
1758088597.91374,1758088595.19275,0.0,0.0,0.0,-31.16891,-24.17882,-14.03747,10.71,-0.69,-0.32,2.0
1758088597.91397,1758088595.20275,0.0,0.0,0.0,-31.11161,-18.90761,-15.87093,11.04,-0.76,-0.7,2.0
1758088597.91557,1758088595.21275,0.0,0.0,0.0,-30.99702,-13.75099,-15.87093,11.04,-0.76,-0.7,2.0
1758088597.93361,1758088595.22275,0.0,0.0,0.0,-30.30947,-4.98473,-15.69904,11.55,-0.61,-0.74,2.0
1758088597.93557,1758088595.23275,0.0,0.0,0.0,-29.73651,5.4431,-15.0115,11.55,-0.61,-0.74,2.0
1758088597.95387,1758088595.24275,0.0,0.0,0.0,-26.98631,16.73037,-14.15206,13.08,-0.4,0.51,2.0
1758088597.95477,1758088595.25275,0.0,0.0,0.0,-25.43933,1.3751,-16.21471,12.06,-0.68,1.25,2.0
1758088597.97018,1758088595.26275,0.0,0.0,0.0,-24.17882,-15.92823,-17.76169,12.06,-0.68,1.25,2.0
1758088597.98621,1758088595.27275,0.0,0.0,0.0,-23.31938,-26.01229,-19.82434,11.67,-0.91,0.45,2.0
1758088597.9874,1758088595.28275,0.0,0.0,0.0,-22.97561,-26.06958,-19.59516,11.67,-0.91,0.45,2.0
1758088598.0032,1758088595.29275,0.0,0.0,0.0,-21.31403,-23.94964,-18.50654,11.95,-0.92,1.03,2.0
1758088598.00588,1758088595.30275,0.0,0.0,0.0,-17.93358,-27.67386,-18.27736,11.95,-0.92,1.03,2.0
1758088598.02463,1758088595.31275,0.0,0.0,0.0,-12.204,-42.74266,-22.97561,10.88,-0.59,4.78,2.0
1758088598.0258,1758088595.32275,0.0,0.0,0.0,-7.21927,-49.27437,-28.07493,11.99,-1.36,5.7,2.0
1758088598.04551,1758088595.33275,0.0,0.0,0.0,-1.83346,-51.10783,-32.83048,11.99,-1.36,5.7,2.0
1758088598.04721,1758088595.34275,0.0,0.0,0.0,2.86479,-50.87865,-35.12231,11.68,-2.18,4.09,2.0
1758088598.06463,1758088595.35275,0.0,0.0,0.0,5.72958,-44.46153,-34.32018,11.68,-2.18,4.09,2.0
1758088598.06581,1758088595.36275,0.0,0.0,0.0,4.46907,-37.81522,-31.11161,9.91,-1.45,3.53,2.0
1758088598.08151,1758088595.37275,0.0,0.0,0.0,1.08862,-32.71589,-27.10091,9.91,-1.45,3.53,2.0
1758088598.09824,1758088595.38275,0.0,0.0,0.0,-3.60963,-30.25217,-22.63183,9.49,-0.4,3.64,2.0
1758088598.09984,1758088595.39275,0.0,0.0,0.0,-12.2613,-27.78845,-17.47521,10.12,0.62,3.41,2.0
1758088598.11549,1758088595.40275,0.0,0.0,0.0,-18.27736,-22.34536,-14.9542,10.12,0.62,3.41,2.0
1758088598.11736,1758088595.41275,0.0,0.0,0.0,-24.29341,-10.08406,-13.98017,12.03,1.17,2.86,2.0
1758088598.13336,1758088595.42275,0.0,0.0,0.0,-29.50733,3.20856,-13.5218,12.03,1.17,2.86,2.0
1758088598.13426,1758088595.43275,0.0,0.0,0.0,-34.0337,17.93358,-12.2613,11.95,1.03,2.46,2.0
1758088598.1503,1758088595.44275,0.0,0.0,0.0,-35.12231,27.33009,-10.59972,11.95,1.03,2.46,2.0
1758088598.16654,1758088595.45275,0.0,0.0,0.0,-34.60666,36.21093,-8.25059,11.1,0.3,2.23,2.0
1758088598.16985,1758088595.46275,0.0,0.0,0.0,-32.88778,43.77398,-5.4431,11.1,0.3,2.23,2.0
1758088598.18534,1758088595.47275,0.0,0.0,0.0,-29.04896,52.82671,-0.80214,10.51,-0.67,1.93,2.0
1758088598.18762,1758088595.48275,0.0,0.0,0.0,-25.89769,56.83742,1.83346,9.75,-1.57,1.71,2.0
1758088598.2027,1758088595.49275,0.0,0.0,0.0,-22.34536,58.84277,4.23989,9.75,-1.57,1.71,2.0
1758088598.22019,1758088595.50275,0.0,0.0,0.0,-17.18874,60.38975,6.58902,9.11,-2.09,1.54,2.0
1758088598.22113,1758088595.51275,0.0,0.0,0.0,-13.75099,59.81679,7.84952,9.11,-2.09,1.54,2.0
1758088598.23662,1758088595.52275,0.0,0.0,0.0,-10.54242,58.21251,9.39651,8.63,-2.16,1.45,2.0
1758088598.23872,1758088595.53275,0.0,0.0,0.0,-7.39116,54.94666,10.65701,8.63,-2.16,1.45,2.0
1758088598.2556,1758088595.54275,0.0,0.0,0.0,-2.6929,48.64412,12.37589,8.27,-1.92,1.42,2.0
1758088598.25759,1758088595.55275,0.0,0.0,0.0,0.11459,43.94586,12.71966,8.19,-1.59,1.21,2.0
1758088598.27339,1758088595.56275,0.0,0.0,0.0,2.86479,39.01843,13.23533,8.19,-1.59,1.21,2.0
1758088598.27464,1758088595.57275,0.0,0.0,0.0,5.21392,33.9764,12.89155,8.04,-1.3,1.07,2.0
1758088598.29066,1758088595.58275,0.0,0.0,0.0,7.84952,24.92367,12.08941,8.04,-1.3,1.07,2.0
1758088598.30635,1758088595.59275,0.0,0.0,0.0,9.11003,18.90761,11.22997,7.74,-1.06,1.0,2.0
1758088598.30762,1758088595.60275,0.0,0.0,0.0,10.02676,13.23533,9.85487,7.74,-1.06,1.0,2.0
1758088598.32342,1758088595.61275,0.0,0.0,0.0,10.94349,7.21927,8.59437,7.46,-0.91,0.78,2.0
1758088598.32519,1758088595.62275,0.0,0.0,0.0,11.97482,1.20321,6.07335,7.43,-0.78,0.63,2.0
1758088598.34136,1758088595.63275,0.0,0.0,0.0,13.06344,1.94806,4.0107,7.43,-0.78,0.63,2.0
1758088598.3576,1758088595.64275,0.0,0.0,0.0,14.32395,3.60963,1.77617,7.9,-0.6,0.55,2.0
1758088598.36024,1758088595.65275,0.0,0.0,0.0,15.58445,3.72423,-0.34377,7.9,-0.6,0.55,2.0
1758088598.37544,1758088595.66275,0.0,0.0,0.0,18.10547,0.57296,-3.38045,7.72,-0.47,0.57,2.0
1758088598.37739,1758088595.67275,0.0,0.0,0.0,19.88164,-3.09397,-4.64096,7.72,-0.47,0.57,2.0
1758088598.39396,1758088595.68275,0.0,0.0,0.0,21.6578,-7.73493,-4.58366,7.62,-0.59,0.42,2.0
1758088598.39525,1758088595.69275,0.0,0.0,0.0,23.49127,-12.83425,-2.11994,7.62,-0.59,0.42,2.0
1758088598.41073,1758088595.70275,0.0,0.0,0.0,23.83505,-27.1582,1.03132,7.83,-0.89,0.37,2.0
1758088598.42668,1758088595.71275,0.0,0.0,0.0,21.88699,-38.90384,4.69825,7.85,-0.85,0.0,2.0
1758088598.42872,1758088595.72275,0.0,0.0,0.0,19.36597,-46.98254,8.88085,7.85,-0.85,0.0,2.0
1758088598.44339,1758088595.73275,0.0,0.0,0.0,14.03747,-41.59674,13.06344,9.8,-0.28,-0.65,2.0
1758088598.44462,1758088595.74275,0.0,0.0,0.0,11.80293,-22.97561,16.90226,9.8,-0.28,-0.65,2.0
1758088598.46068,1758088595.75275,0.0,0.0,0.0,9.22462,-5.21392,17.01685,12.88,0.2,-0.66,2.0
1758088598.4768,1758088595.76275,0.0,0.0,0.0,6.13065,1.83346,15.35527,12.88,0.2,-0.66,2.0
1758088598.4784,1758088595.77275,0.0,0.0,0.0,1.14592,-1.94806,9.5684,11.88,0.33,-0.44,2.0
1758088598.49471,1758088595.78275,0.0,0.0,0.0,-1.66158,-6.7609,5.61499,11.34,0.0,-0.78,2.0
1758088598.49559,1758088595.79275,0.0,0.0,0.0,-3.66693,-14.32395,2.46372,11.34,0.0,-0.78,2.0
1758088598.51071,1758088595.80275,0.0,0.0,0.0,-5.72958,-19.36597,0.45837,12.39,-0.55,0.08,2.0
1758088598.52646,1758088595.81275,0.0,0.0,0.0,-7.33386,-21.48592,1.14592,12.39,-0.55,0.08,2.0
1758088598.52814,1758088595.82275,0.0,0.0,0.0,-8.36518,-24.57989,2.92208,13.35,-0.39,0.09,2.0
1758088598.54246,1758088595.83275,0.0,0.0,0.0,-9.4538,-31.11161,4.23989,13.35,-0.39,0.09,2.0
1758088598.54523,1758088595.84275,0.0,0.0,0.0,-9.96947,-38.21629,6.70361,11.64,-0.52,0.81,2.0
1758088598.56171,1758088595.85275,0.0,0.0,0.0,-11.45916,-46.86795,11.57375,10.92,-0.95,2.99,2.0
1758088598.57869,1758088595.86275,0.0,0.0,0.0,-12.2613,-53.91533,17.13144,10.92,-0.95,2.99,2.0
1758088598.58076,1758088595.87275,0.0,0.0,0.0,-13.46451,-58.3844,25.15285,11.94,-0.47,5.07,2.0
1758088598.59553,1758088595.88275,0.0,0.0,0.0,-14.66772,-58.67088,37.29956,11.94,-0.47,5.07,2.0
1758088598.59722,1758088595.89275,0.0,0.0,0.0,-17.93358,-55.86338,41.76862,12.59,0.33,5.35,2.0
1758088598.61151,1758088595.90275,0.0,0.0,0.0,-19.88164,-53.97263,43.02913,12.59,0.33,5.35,2.0
1758088598.62746,1758088595.91275,0.0,0.0,0.0,-20.22541,-49.90463,41.36755,10.27,0.05,4.55,2.0
1758088598.62873,1758088595.92275,0.0,0.0,0.0,-18.33465,-39.53409,34.32018,10.27,0.05,4.55,2.0
1758088598.64376,1758088595.93275,0.0,0.0,0.0,-15.75634,-31.62727,28.01764,9.23,-0.73,3.37,2.0
1758088598.64553,1758088595.94275,0.0,0.0,0.0,-12.71966,-24.75178,21.08485,9.28,-1.5,2.82,2.0
1758088598.66072,1758088595.95275,0.0,0.0,0.0,-9.22462,-18.50654,15.0115,9.28,-1.5,2.82,2.0
1758088598.67735,1758088595.96275,0.0,0.0,0.0,-3.03668,-6.99009,8.76626,10.36,-1.98,2.34,2.0
1758088598.68012,1758088595.97275,0.0,0.0,0.0,0.97403,2.34913,6.8182,10.36,-1.98,2.34,2.0
1758088598.69574,1758088595.98275,0.0,0.0,0.0,4.52637,14.38124,6.18794,11.89,-2.13,1.97,2.0
1758088598.69713,1758088595.99275,0.0,0.0,0.0,7.44845,26.98631,6.53172,11.89,-2.13,1.97,2.0
1758088598.71333,1758088596.00275,0.0,0.0,0.0,9.85487,43.77398,6.7609,12.31,-1.88,1.78,2.0
1758088598.73008,1758088596.01275,0.0,0.0,0.0,9.85487,51.85268,6.13065,11.38,-1.26,1.63,2.0
1758088598.73175,1758088596.02275,0.0,0.0,0.0,9.11003,58.4417,5.78687,11.38,-1.26,1.63,2.0
1758088598.7476,1758088596.03275,0.0,0.0,0.0,6.8182,64.45775,4.52637,10.65,-0.51,1.52,2.0
1758088598.74856,1758088596.04275,0.0,0.0,0.0,3.89611,70.47381,2.86479,10.65,-0.51,1.52,2.0
1758088598.76362,1758088596.05275,0.0,0.0,0.0,2.57831,72.76565,0.40107,9.92,0.27,1.58,2.0
1758088598.76632,1758088596.06275,0.0,0.0,0.0,1.48969,74.08345,-2.11994,9.92,0.27,1.58,2.0
1758088598.78231,1758088596.07275,0.0,0.0,0.0,0.97403,73.79697,-4.92744,9.37,0.4,1.84,2.0
1758088598.79956,1758088596.08275,0.0,0.0,0.0,1.08862,69.67168,-8.65166,8.57,0.05,1.63,2.0
1758088598.8007,1758088596.09275,0.0,0.0,0.0,1.08862,64.40046,-10.48513,8.57,0.05,1.63,2.0
1758088598.81584,1758088596.10275,0.0,0.0,0.0,0.74485,59.81679,-12.49048,8.16,-0.24,1.72,2.0
1758088598.81676,1758088596.11275,0.0,0.0,0.0,-0.45837,50.01921,-14.72501,8.16,-0.24,1.72,2.0
1758088598.83342,1758088596.12275,0.0,0.0,0.0,-2.00535,42.57077,-15.29797,7.64,-0.19,1.23,2.0
1758088598.83516,1758088596.13275,0.0,0.0,0.0,-3.38045,34.60666,-14.78231,7.64,-0.19,1.23,2.0
1758088598.85062,1758088596.14275,0.0,0.0,0.0,-4.64096,26.75713,-14.38124,7.44,0.0,1.19,2.0
1758088598.85558,1758088596.15275,0.0,0.0,0.0,-6.41713,16.21471,-11.63104,7.44,0.0,1.07,2.0
1758088598.8734,1758088596.16275,0.0,0.0,0.0,-7.73493,8.76626,-9.11003,7.54,0.12,1.07,2.0
1758088598.87675,1758088596.17275,0.0,0.0,0.0,-9.11003,1.83346,-6.35983,7.34,0.18,0.87,2.0
1758088598.89262,1758088596.18275,0.0,0.0,0.0,-11.11538,-2.06265,-4.23989,7.34,0.18,0.87,2.0
1758088598.89486,1758088596.19275,0.0,0.0,0.0,-14.32395,-2.29183,-1.03132,7.61,0.24,0.68,2.0
1758088598.9106,1758088596.20275,0.0,0.0,0.0,-16.67307,-2.6929,0.74485,7.61,0.24,0.68,2.0
1758088598.9158,1758088596.21275,0.0,0.0,0.0,-19.13679,-4.92744,2.00535,7.38,0.3,0.78,2.0
1758088598.93461,1758088596.22275,0.0,0.0,0.0,-22.00158,-8.136,2.92208,7.38,0.3,0.78,2.0
1758088598.93589,1758088596.23275,0.0,0.0,0.0,-26.41335,-14.32395,2.92208,7.12,0.36,0.71,2.0
1758088598.95488,1758088596.24275,0.0,0.0,0.0,-29.27814,-19.19409,2.57831,7.48,0.39,0.41,2.0
1758088598.95822,1758088596.25275,0.0,0.0,0.0,-32.08564,-24.35071,1.3751,7.48,0.39,0.41,2.0
1758088598.97363,1758088596.26275,0.0,0.0,0.0,-34.77854,-29.73651,-0.34377,8.23,0.14,0.11,2.0
1758088598.97635,1758088596.27275,0.0,0.0,0.0,-37.98711,-36.15364,-3.49504,8.23,0.14,0.11,2.0
1758088598.99363,1758088596.28275,0.0,0.0,0.0,-39.19032,-37.24226,-6.35983,9.37,-0.21,-0.42,2.0
1758088598.99463,1758088596.29275,0.0,0.0,0.0,-39.19032,-35.00772,-8.99544,9.37,-0.21,-0.42,2.0
1758088599.01341,1758088596.30275,0.0,0.0,0.0,-38.73195,-30.88243,-13.5218,10.81,-0.69,-0.68,2.0
1758088599.01593,1758088596.31275,0.0,0.0,0.0,-37.87251,-25.8404,-15.98552,11.56,-0.79,-0.89,2.0
1758088599.03513,1758088596.32275,0.0,0.0,0.0,-36.26823,-21.42862,-17.36062,11.56,-0.79,-0.89,2.0
1758088599.036,1758088596.33275,0.0,0.0,0.0,-34.14828,-13.80828,-18.73572,12.57,-0.73,-0.26,2.0
1758088599.05348,1758088596.34275,0.0,0.0,0.0,-28.24682,2.29183,-18.9649,12.57,-0.73,-0.26,2.0
1758088599.05533,1758088596.35275,0.0,0.0,0.0,-23.89234,9.85487,-18.79302,14.37,-1.04,0.84,2.0
1758088599.0707,1758088596.36275,0.0,0.0,0.0,-19.70975,-9.22462,-20.11082,14.37,-1.04,0.84,2.0
1758088599.07585,1758088596.37275,0.0,0.0,0.0,-15.87093,-31.74186,-20.85567,11.89,-1.57,1.28,2.0
1758088599.09496,1758088596.38275,0.0,0.0,0.0,-12.14671,-41.31026,-21.37133,11.93,-1.57,0.41,2.0
1758088599.0959,1758088596.39275,0.0,0.0,0.0,-8.36518,-36.7266,-19.59516,11.93,-1.52,0.41,2.0
1758088599.1107,1758088596.40275,0.0,0.0,0.0,-3.66693,-37.64333,-18.33465,12.09,-1.19,3.8,2.0
1758088599.11519,1758088596.41275,0.0,0.0,0.0,1.3751,-43.14373,-19.19409,12.09,-1.19,3.8,2.0
1758088599.1307,1758088596.42275,0.0,0.0,0.0,11.11538,-41.99781,-24.00693,12.85,-1.56,5.41,2.0
1758088599.1489,1758088596.43275,0.0,0.0,0.0,17.87628,-38.56006,-26.06958,12.85,-1.56,5.41,2.0
1758088599.14933,1758088596.44275,0.0,0.0,0.0,22.86102,-37.18496,-26.01229,12.24,-2.34,3.52,2.0
1758088599.16591,1758088596.45275,0.0,0.0,0.0,25.38203,-34.09099,-24.17882,12.24,-2.34,3.52,2.0
1758088599.16859,1758088596.46275,0.0,0.0,0.0,23.54857,-26.18417,-19.70975,9.57,-1.62,3.36,2.0
1758088599.18463,1758088596.47275,0.0,0.0,0.0,19.70975,-19.42327,-15.75634,9.46,-0.38,3.49,2.0
1758088599.20068,1758088596.48275,0.0,0.0,0.0,14.72501,-16.73037,-12.204,9.46,-0.38,3.49,2.0
1758088599.20272,1758088596.49275,0.0,0.0,0.0,8.42248,-18.85031,-9.91217,9.71,0.87,3.5,2.0
1758088599.21873,1758088596.50275,0.0,0.0,0.0,-1.08862,-20.51189,-9.74028,9.71,0.87,3.5,2.0
1758088599.21934,1758088596.51275,0.0,0.0,0.0,-6.41713,-13.5791,-10.08406,11.0,1.45,2.83,2.0
1758088599.235,1758088596.52275,0.0,0.0,0.0,-11.22997,-0.0573,-11.22997,11.0,1.45,2.83,2.0
1758088599.2362,1758088596.53275,0.0,0.0,0.0,-16.21471,15.46986,-12.49048,12.17,1.07,2.41,2.0
1758088599.2536,1758088596.54275,0.0,0.0,0.0,-17.13144,23.72045,-12.49048,11.05,0.19,2.49,2.0
1758088599.25545,1758088596.55275,0.0,0.0,0.0,-16.50119,30.93972,-11.57375,11.05,0.19,2.49,2.0
1758088599.27107,1758088596.56275,0.0,0.0,0.0,-14.20935,37.01308,-9.28192,10.66,-0.77,2.19,2.0
1758088599.28699,1758088596.57275,0.0,0.0,0.0,-9.05273,45.55015,-4.58366,10.66,-0.77,2.19,2.0
1758088599.28868,1758088596.58275,0.0,0.0,0.0,-5.21392,48.41494,-0.97403,10.02,-1.79,2.14,2.0
1758088599.30549,1758088596.59275,0.0,0.0,0.0,-0.57296,50.3057,2.6929,10.02,-1.79,2.14,2.0
1758088599.31061,1758088596.60275,0.0,0.0,0.0,4.1253,51.16513,5.78687,9.3,-2.4,2.14,2.0
1758088599.32577,1758088596.61275,0.0,0.0,0.0,10.8862,52.54023,9.74028,8.83,-2.52,1.8,2.0
1758088599.32727,1758088596.62275,0.0,0.0,0.0,15.0115,50.93595,12.37589,8.83,-2.52,1.8,2.0
1758088599.34363,1758088596.63275,0.0,0.0,0.0,18.27736,50.363,14.15206,8.5,-2.23,1.7,2.0
1758088599.3457,1758088596.64275,0.0,0.0,0.0,20.97026,48.30034,15.92823,8.5,-2.23,1.7,2.0
1758088599.36093,1758088596.65275,0.0,0.0,0.0,24.12152,43.20102,17.76169,8.21,-1.8,1.49,2.0
1758088599.36574,1758088596.66275,0.0,0.0,0.0,25.55392,39.13302,18.27736,8.21,-1.8,1.49,2.0
1758088599.38104,1758088596.67275,0.0,0.0,0.0,26.12688,34.37747,18.22006,7.92,-1.27,1.38,2.0
1758088599.38388,1758088596.68275,0.0,0.0,0.0,26.35606,30.19488,17.76169,7.92,-1.27,1.38,2.0
1758088599.40083,1758088596.69275,0.0,0.0,0.0,25.49662,23.83505,16.10011,7.73,-0.78,1.38,2.0
1758088599.41771,1758088596.70275,0.0,0.0,0.0,24.57989,18.90761,14.61043,7.46,-0.5,1.26,2.0
1758088599.41881,1758088596.71275,0.0,0.0,0.0,23.26209,13.46451,12.204,7.46,-0.5,1.26,2.0
1758088599.43377,1758088596.72275,0.0,0.0,0.0,21.37133,7.10468,8.42248,7.31,-0.37,1.0,2.0
1758088599.43505,1758088596.73275,0.0,0.0,0.0,20.51189,4.0107,5.84417,7.31,-0.37,1.0,2.0
1758088599.45004,1758088596.74275,0.0,0.0,0.0,20.11082,3.49504,3.20856,7.52,-0.37,0.82,2.0
1758088599.466,1758088596.75275,0.0,0.0,0.0,20.22541,5.15662,0.57296,7.52,-0.37,0.82,2.0
1758088599.46736,1758088596.76275,0.0,0.0,0.0,20.85567,7.33386,-2.92208,7.84,-0.46,0.83,2.0
1758088599.482,1758088596.77275,0.0,0.0,0.0,21.7151,5.61499,-4.52637,7.62,-0.55,0.78,2.0
1758088599.48332,1758088596.78275,0.0,0.0,0.0,22.91831,1.83346,-5.15662,7.62,-0.55,0.78,2.0
1758088599.50073,1758088596.79275,0.0,0.0,0.0,24.23611,-2.7502,-4.29718,7.54,-0.73,0.41,2.0
1758088599.51687,1758088596.80275,0.0,0.0,0.0,25.55392,-9.74028,-1.03132,7.54,-0.73,0.41,2.0
1758088599.51802,1758088596.81275,0.0,0.0,0.0,26.18417,-18.62113,2.46372,8.2,-0.91,0.16,2.0
1758088599.5331,1758088596.82275,0.0,0.0,0.0,25.15285,-29.22085,5.55769,8.2,-0.91,0.16,2.0
1758088599.53399,1758088596.83275,0.0,0.0,0.0,23.60586,-36.6693,9.74028,8.82,-0.65,-0.06,2.0
1758088599.54944,1758088596.84275,0.0,0.0,0.0,19.25138,-39.99245,13.5791,10.54,0.1,-0.55,2.0
1758088599.56587,1758088596.85275,0.0,0.0,0.0,17.6471,-33.46074,14.32395,10.54,0.1,-0.55,2.0
1758088599.56941,1758088596.86275,0.0,0.0,0.0,15.69904,-23.66316,14.72501,12.29,0.7,-0.59,2.0
1758088599.58489,1758088596.87275,0.0,0.0,0.0,13.69369,-15.41257,13.75099,12.29,0.7,-0.59,2.0
1758088599.5861,1758088596.88275,0.0,0.0,0.0,10.02676,-11.57375,8.88085,12.36,0.83,-0.55,2.0
1758088599.60082,1758088596.89275,0.0,0.0,0.0,7.44845,-14.9542,5.61499,12.36,0.83,-0.55,2.0
1758088599.60442,1758088596.90275,0.0,0.0,0.0,4.92744,-19.36597,2.23454,11.8,0.57,-0.26,2.0
1758088599.62016,1758088596.91275,0.0,0.0,0.0,2.7502,-23.83505,-0.68755,11.8,0.57,-0.26,2.0
1758088599.63613,1758088596.92275,0.0,0.0,0.0,1.71887,-28.01764,-1.60428,12.08,0.41,-0.05,2.0
1758088599.65311,1758088596.93275,0.0,0.0,0.0,0.57296,-30.13758,-2.46372,11.61,0.21,0.97,2.0
1758088599.65442,1758088596.94275,0.0,0.0,0.0,-0.11459,-33.68992,-2.34913,11.61,0.21,0.97,2.0
1758088599.65481,1758088596.95275,0.0,0.0,0.0,-2.00535,-49.56085,2.97938,10.63,-0.94,3.78,2.0
1758088599.67118,1758088596.96275,0.0,0.0,0.0,-4.35448,-62.28051,9.22462,10.63,-0.94,3.78,2.0
1758088599.67292,1758088596.97275,0.0,0.0,0.0,-6.70361,-73.96885,18.50654,11.95,-1.32,5.96,2.0
1758088599.68959,1758088596.98275,0.0,0.0,0.0,-9.96947,-82.84971,26.98631,11.95,-1.32,5.96,2.0
1758088599.70519,1758088596.99275,0.0,0.0,0.0,-15.98552,-88.17821,31.62727,12.46,-0.35,6.15,2.0
1758088599.70696,1758088597.00275,0.0,0.0,0.0,-18.16276,-85.54259,30.93972,10.26,0.2,4.4,2.0
1758088599.72202,1758088597.01275,0.0,0.0,0.0,-18.85031,-77.63579,28.64789,10.26,0.2,4.4,2.0
1758088599.72475,1758088597.02275,0.0,0.0,0.0,-17.76169,-65.03072,25.15285,10.12,-0.76,2.9,2.0
1758088599.74093,1758088597.03275,0.0,0.0,0.0,-13.17803,-43.31561,18.44924,10.12,-0.76,2.9,2.0
1758088599.74323,1758088597.04275,0.0,0.0,0.0,-8.42248,-30.53865,14.32395,10.68,-2.02,2.44,2.0
1758088599.76026,1758088597.05275,0.0,0.0,0.0,-3.09397,-18.9649,10.71431,10.68,-2.02,2.44,2.0
1758088599.77621,1758088597.06275,0.0,0.0,0.0,2.23454,-9.4538,8.59437,11.6,-2.64,2.35,2.0
1758088599.77983,1758088597.07275,0.0,0.0,0.0,9.62569,4.0107,7.21927,12.48,-2.4,1.91,2.0
1758088599.7952,1758088597.08275,0.0,0.0,0.0,13.98017,13.17803,7.39116,12.48,-2.4,1.91,2.0
1758088599.79614,1758088597.09275,0.0,0.0,0.0,17.01685,23.89234,6.87549,12.33,-1.71,1.5,2.0
1758088599.81096,1758088597.10275,0.0,0.0,0.0,18.56383,38.21629,5.72958,12.33,-1.71,1.5,2.0
1758088599.81373,1758088597.11275,0.0,0.0,0.0,17.81899,54.48829,4.98473,11.69,-1.07,1.57,2.0
1758088599.82995,1758088597.12275,0.0,0.0,0.0,16.21471,60.67623,5.15662,11.69,-1.07,1.57,2.0
1758088599.84605,1758088597.13275,0.0,0.0,0.0,14.49583,64.45775,4.69825,10.37,-0.24,1.77,2.0
1758088599.84796,1758088597.14275,0.0,0.0,0.0,11.45916,66.40582,3.20856,10.37,-0.24,1.77,2.0
1758088599.86331,1758088597.15275,0.0,0.0,0.0,9.11003,67.32255,1.08862,9.44,0.47,1.38,2.0
1758088599.86581,1758088597.16275,0.0,0.0,0.0,6.99009,69.15601,-1.83346,9.13,0.83,1.56,2.0
1758088599.88631,1758088597.17275,0.0,0.0,0.0,4.35448,69.61437,-5.50039,9.13,0.83,1.56,2.0
1758088599.89116,1758088597.18275,0.0,0.0,0.0,0.97403,66.92148,-10.54242,8.46,0.73,1.61,2.0
1758088599.89424,1758088597.19275,0.0,0.0,0.0,-0.85944,62.56699,-13.69369,8.46,0.73,1.61,2.0
1758088599.91104,1758088597.20275,0.0,0.0,0.0,-2.23454,56.26446,-15.92823,7.77,0.41,1.42,2.0
1758088599.91384,1758088597.21275,0.0,0.0,0.0,-3.26586,49.04519,-17.53251,7.77,0.41,1.42,2.0
1758088599.92998,1758088597.22275,0.0,0.0,0.0,-4.23989,35.00772,-18.33465,7.49,0.16,1.28,2.0
1758088599.94603,1758088597.23275,0.0,0.0,0.0,-4.29718,26.81443,-17.18874,7.53,-0.09,1.04,2.0
1758088599.94794,1758088597.24275,0.0,0.0,0.0,-4.29718,19.76705,-14.83961,7.53,-0.09,1.04,2.0
1758088599.9634,1758088597.25275,0.0,0.0,0.0,-4.18259,12.60507,-11.86023,7.69,-0.39,0.84,2.0
1758088599.9658,1758088597.26275,0.0,0.0,0.0,-4.35448,0.85944,-6.7609,7.69,-0.39,0.84,2.0
1758088599.98505,1758088597.27275,0.0,0.0,0.0,-4.81285,-6.41713,-3.55234,7.38,-0.55,0.7,2.0
1758088599.98626,1758088597.28275,0.0,0.0,0.0,-5.61499,-10.31324,-0.74485,7.38,-0.55,0.7,2.0
1758088600.00283,1758088597.29275,0.0,0.0,0.0,-6.58902,-11.57375,2.00535,7.61,-0.52,0.57,2.0
1758088600.00427,1758088597.30275,0.0,0.0,0.0,-8.47978,-12.71966,5.21392,7.87,-0.19,0.6,2.0
1758088600.01936,1758088597.31275,0.0,0.0,0.0,-10.37054,-12.89155,6.53172,7.87,-0.19,0.6,2.0
1758088600.03711,1758088597.32275,0.0,0.0,0.0,-12.77696,-12.60507,7.16197,8.17,0.33,0.61,2.0
1758088600.04071,1758088597.33275,0.0,0.0,0.0,-16.90226,-13.34992,6.53172,8.17,0.33,0.61,2.0
1758088600.05631,1758088597.34275,0.0,0.0,0.0,-19.59516,-13.5218,4.81285,8.44,0.68,0.34,2.0
1758088600.05883,1758088597.35275,0.0,0.0,0.0,-22.57454,-14.32395,2.29183,8.44,0.68,0.34,2.0
1758088600.07405,1758088597.36275,0.0,0.0,0.0,-24.98096,-16.67307,-0.51566,8.88,0.5,-0.01,2.0
1758088600.07517,1758088597.37275,0.0,0.0,0.0,-27.73116,-21.48592,-5.50039,8.88,0.5,-0.01,2.0
1758088600.09005,1758088597.38275,0.0,0.0,0.0,-28.30412,-21.48592,-8.76626,9.19,-0.28,-0.37,2.0
1758088600.10712,1758088597.39275,0.0,0.0,0.0,-28.93437,-19.70975,-11.28727,10.27,-0.9,-0.72,2.0
1758088600.11315,1758088597.40275,0.0,0.0,0.0,-27.84575,-14.66772,-13.00614,10.27,-0.9,-0.72,2.0
1758088600.11373,1758088597.41275,0.0,0.0,0.0,-26.81443,-7.84952,-14.43854,11.45,-1.18,-0.74,2.0
1758088600.13011,1758088597.42275,0.0,0.0,0.0,-25.49662,-5.27121,-15.0115,11.45,-1.18,-0.74,2.0
1758088600.1461,1758088597.43275,0.0,0.0,0.0,-23.66316,-2.23454,-14.61043,11.72,-1.07,-0.7,2.0
1758088600.14918,1758088597.44275,0.0,0.0,0.0,-21.25674,2.23454,-14.66772,11.72,-1.07,-0.7,2.0
1758088600.16532,1758088597.45275,0.0,0.0,0.0,-16.84496,11.34457,-14.61043,12.6,-0.85,0.14,2.0
1758088600.16658,1758088597.46275,0.0,0.0,0.0,-13.00614,18.16276,-15.64175,13.55,-1.1,0.87,2.0
1758088600.18212,1758088597.47275,0.0,0.0,0.0,-9.85487,17.36062,-16.272,13.55,-1.1,0.87,2.0
1758088600.18565,1758088597.48275,0.0,0.0,0.0,-5.95876,-2.34913,-15.98552,11.31,-1.13,1.26,2.0
1758088600.20475,1758088597.49275,0.0,0.0,0.0,-6.8182,-35.06502,-17.81899,11.31,-1.13,1.26,2.0
1758088600.20568,1758088597.50275,0.0,0.0,0.0,-6.8182,-38.27358,-17.87628,10.06,-0.66,0.74,2.0
1758088600.22137,1758088597.51275,0.0,0.0,0.0,-5.95876,-32.08564,-16.84496,10.06,-0.66,0.74,2.0
1758088600.22468,1758088597.52275,0.0,0.0,0.0,-2.11994,-28.36141,-14.83961,11.45,-0.56,1.35,2.0
1758088600.24021,1758088597.53275,0.0,0.0,0.0,0.74485,-35.06502,-15.41257,10.48,-0.41,4.14,2.0
1758088600.28562,1758088597.54275,0.0,0.0,0.0,3.89611,-38.27358,-17.99088,10.48,-0.41,4.14,2.0
1758088600.29001,1758088597.55275,0.0,0.0,0.0,7.33386,-37.24226,-21.31403,11.92,-1.12,4.03,2.0
1758088600.29064,1758088597.56275,0.0,0.0,0.0,13.69369,-34.0337,-24.12152,11.92,-1.12,4.03,2.0
1758088600.29509,1758088597.57275,0.0,0.0,0.0,16.84496,-33.05967,-23.66316,10.97,-1.85,3.25,2.0
1758088600.29569,1758088597.58275,0.0,0.0,0.0,17.76169,-30.65324,-22.34536,10.97,-1.85,3.25,2.0
1758088600.29695,1758088597.59275,0.0,0.0,0.0,16.272,-27.50197,-19.99623,9.3,-1.46,3.28,2.0
1758088600.31316,1758088597.60275,0.0,0.0,0.0,10.8862,-22.97561,-15.87093,9.42,-1.46,3.38,2.0
1758088600.31565,1758088597.61275,0.0,0.0,0.0,6.24524,-21.25674,-13.86558,9.42,-0.44,3.38,2.0
1758088600.33139,1758088597.62275,0.0,0.0,0.0,0.80214,-20.62648,-12.89155,10.14,0.51,3.5,2.0
1758088600.33625,1758088597.63275,0.0,0.0,0.0,-4.92744,-17.47521,-12.37589,10.14,0.51,3.5,2.0
1758088600.35384,1758088597.64275,0.0,0.0,0.0,-13.40721,-3.32316,-13.17803,11.25,1.15,2.93,2.0
1758088600.3555,1758088597.65275,0.0,0.0,0.0,-18.56383,4.18259,-13.5218,11.25,1.15,2.93,2.0
1758088600.37518,1758088597.66275,0.0,0.0,0.0,-22.34536,11.57375,-13.5791,11.02,1.08,2.51,2.0
1758088600.37629,1758088597.67275,0.0,0.0,0.0,-24.63719,18.73572,-12.89155,11.02,1.08,2.51,2.0
1758088600.39481,1758088597.68275,0.0,0.0,0.0,-25.21014,29.96569,-10.02676,10.78,0.48,2.22,2.0
1758088600.39602,1758088597.69275,0.0,0.0,0.0,-24.17882,36.55471,-7.21927,10.67,-0.36,1.9,2.0
1758088600.41387,1758088597.70275,0.0,0.0,0.0,-22.51724,41.71133,-4.1253,10.67,-0.36,1.9,2.0
1758088600.41633,1758088597.71275,0.0,0.0,0.0,-20.74107,46.40959,0.97403,10.2,-1.17,1.73,2.0
1758088600.43117,1758088597.72275,0.0,0.0,0.0,-17.58981,50.64947,3.66693,10.2,-1.17,1.73,2.0
1758088600.43552,1758088597.73275,0.0,0.0,0.0,-15.69904,51.79538,6.07335,9.72,-1.63,1.58,2.0
1758088600.45542,1758088597.74275,0.0,0.0,0.0,-13.75099,53.39967,7.62034,9.72,-1.63,1.58,2.0
1758088600.45635,1758088597.75275,0.0,0.0,0.0,-11.22997,53.62885,9.74028,9.45,-1.69,1.39,2.0
1758088600.47118,1758088597.76275,0.0,0.0,0.0,-9.68299,52.42564,10.31324,9.05,-1.55,1.29,2.0
1758088600.47556,1758088597.77275,0.0,0.0,0.0,-8.47978,50.3057,10.31324,9.05,-1.55,1.29,2.0
1758088600.49301,1758088597.78275,0.0,0.0,0.0,-7.39116,47.38361,10.02676,8.85,-1.23,1.18,2.0
1758088600.49438,1758088597.79275,0.0,0.0,0.0,-5.90147,42.91454,9.33921,8.85,-1.23,1.18,2.0
1758088600.50918,1758088597.80275,0.0,0.0,0.0,-5.21392,39.4195,8.30789,8.6,-0.9,1.14,2.0
1758088600.52519,1758088597.81275,0.0,0.0,0.0,-4.64096,35.40879,7.04738,8.6,-0.9,1.14,2.0
1758088600.52722,1758088597.82275,0.0,0.0,0.0,-4.1253,31.16891,5.72958,8.21,-0.73,1.12,2.0
1758088600.5433,1758088597.83275,0.0,0.0,0.0,-3.32316,23.26209,3.26586,7.85,-0.67,1.13,2.0
1758088600.54581,1758088597.84275,0.0,0.0,0.0,-2.63561,17.99088,1.60428,7.85,-0.67,1.13,2.0
1758088600.56119,1758088597.85275,0.0,0.0,0.0,-1.60428,12.49048,0.0,7.73,-0.72,0.98,2.0
1758088600.564,1758088597.86275,0.0,0.0,0.0,-0.22918,7.67763,-1.20321,7.73,-0.72,0.98,2.0
1758088600.58047,1758088597.87275,0.0,0.0,0.0,2.11994,6.24524,-3.20856,7.98,-0.86,0.79,2.0
1758088600.59649,1758088597.88275,0.0,0.0,0.0,3.89611,7.04738,-3.89611,7.98,-0.86,0.79,2.0
1758088600.59741,1758088597.89275,0.0,0.0,0.0,5.78687,6.8182,-4.35448,8.31,-1.02,0.83,2.0
1758088600.61304,1758088597.90275,0.0,0.0,0.0,7.79223,4.98473,-4.58366,8.31,-1.02,0.83,2.0
1758088600.61425,1758088597.91275,0.0,0.0,0.0,11.51645,-0.17189,-4.1253,7.98,-1.24,0.89,2.0
1758088600.62926,1758088597.92275,0.0,0.0,0.0,14.32395,-4.69825,-2.6929,7.83,-1.57,0.7,2.0
1758088600.64551,1758088597.93275,0.0,0.0,0.0,16.73037,-10.65701,-0.11459,7.83,-1.57,0.7,2.0
1758088600.64758,1758088597.94275,0.0,0.0,0.0,19.13679,-27.96034,4.81285,7.92,-1.8,0.5,2.0
1758088600.6633,1758088597.95275,0.0,0.0,0.0,18.9649,-38.56006,8.65166,7.92,-1.8,0.5,2.0
1758088600.66588,1758088597.96275,0.0,0.0,0.0,17.58981,-45.49285,11.45916,8.63,-1.51,0.17,2.0
1758088600.68153,1758088597.97275,0.0,0.0,0.0,17.01685,-37.52874,13.5791,8.63,-1.51,0.17,2.0
1758088600.69809,1758088597.98275,0.0,0.0,0.0,15.58445,-10.08406,16.55848,11.16,-0.83,-0.14,2.0
1758088600.69929,1758088597.99275,0.0,0.0,0.0,14.09476,1.77617,15.92823,11.9,-0.42,0.44,2.0
1758088600.71427,1758088598.00275,0.0,0.0,0.0,12.77696,2.57831,13.46451,11.9,-0.42,0.44,2.0
1758088600.71549,1758088598.01275,0.0,0.0,0.0,10.54242,-0.17189,8.99544,10.48,-0.41,0.23,2.0
1758088600.73059,1758088598.02275,0.0,0.0,0.0,7.67763,-13.80828,4.58366,10.48,-0.41,0.23,2.0
1758088600.74625,1758088598.03275,0.0,0.0,0.0,4.81285,-25.7831,2.6929,11.08,-0.45,0.36,2.0
1758088600.74772,1758088598.04275,0.0,0.0,0.0,1.3178,-33.23156,3.20856,11.08,-0.45,0.36,2.0
1758088600.76434,1758088598.05275,0.0,0.0,0.0,-1.77617,-35.63798,4.35448,12.38,-0.34,0.13,2.0
1758088600.7653,1758088598.06275,0.0,0.0,0.0,-5.95876,-36.95578,5.72958,11.88,-0.53,0.23,2.0
1758088600.78057,1758088598.07275,0.0,0.0,0.0,-7.73493,-38.27358,6.13065,11.88,-0.53,0.23,2.0
1758088600.79646,1758088598.08275,0.0,0.0,0.0,-10.25595,-39.87786,6.58902,10.66,-0.7,1.25,2.0
1758088600.7983,1758088598.09275,0.0,0.0,0.0,-13.17803,-44.86259,8.93814,10.66,-0.7,1.25,2.0
1758088600.81555,1758088598.10275,0.0,0.0,0.0,-16.90226,-52.884,18.9649,11.9,-0.35,4.11,2.0
1758088600.81735,1758088598.11275,0.0,0.0,0.0,-18.50654,-52.71212,27.10091,11.9,-0.35,4.11,2.0
1758088600.83341,1758088598.12275,0.0,0.0,0.0,-20.62648,-50.3057,33.51803,14.57,0.99,4.66,2.0
1758088600.83433,1758088598.13275,0.0,0.0,0.0,-23.49127,-47.32632,38.38818,14.57,0.99,4.66,2.0
1758088600.84934,1758088598.14275,0.0,0.0,0.0,-23.94964,-42.34158,37.75792,12.44,0.95,4.23,2.0
1758088600.86562,1758088598.15275,0.0,0.0,0.0,-22.97561,-40.16434,34.60666,9.11,0.0,3.51,2.0
1758088600.86744,1758088598.16275,0.0,0.0,0.0,-20.51189,-38.21629,29.8511,9.11,0.0,3.51,2.0
1758088600.88499,1758088598.17275,0.0,0.0,0.0,-15.12609,-33.68992,20.97026,8.15,-0.84,3.34,2.0
1758088600.88594,1758088598.18275,0.0,0.0,0.0,-10.37054,-29.56462,15.46986,8.15,-0.84,3.34,2.0
1758088600.90163,1758088598.19275,0.0,0.0,0.0,-5.09932,-23.72045,11.28727,9.2,-1.51,3.01,2.0
1758088600.90529,1758088598.20275,0.0,0.0,0.0,0.34377,-15.46986,8.30789,9.2,-1.51,3.01,2.0
1758088600.92065,1758088598.21275,0.0,0.0,0.0,8.36518,-2.97938,6.70361,10.8,-2.03,2.51,2.0
1758088600.9366,1758088598.22275,0.0,0.0,0.0,12.71966,4.98473,6.53172,11.27,-2.03,2.05,2.0
1758088600.93834,1758088598.23275,0.0,0.0,0.0,16.10011,13.34992,6.53172,11.27,-2.03,2.05,2.0
1758088600.9567,1758088598.24275,0.0,0.0,0.0,18.44924,22.05888,6.7609,10.84,-1.44,1.74,2.0
1758088600.95835,1758088598.25275,0.0,0.0,0.0,19.88164,34.49206,6.70361,10.84,-1.44,1.74,2.0
1758088600.97532,1758088598.26275,0.0,0.0,0.0,19.82434,41.25296,6.35983,10.23,-0.69,1.72,2.0
1758088600.97733,1758088598.27275,0.0,0.0,0.0,19.19409,47.44091,5.78687,10.23,-0.69,1.72,2.0
1758088600.99322,1758088598.28275,0.0,0.0,0.0,18.10547,52.08187,4.81285,9.83,-0.02,1.66,2.0
1758088600.9946,1758088598.29275,0.0,0.0,0.0,15.98552,55.29043,3.55234,9.52,0.34,1.63,2.0
1758088601.00936,1758088598.30275,0.0,0.0,0.0,14.49583,56.78012,2.23454,9.52,0.34,1.63,2.0
1758088601.02636,1758088598.31275,0.0,0.0,0.0,13.00614,58.3844,0.51566,9.39,0.39,1.54,2.0
1758088601.02785,1758088598.32275,0.0,0.0,0.0,11.57375,59.70221,-1.60428,9.39,0.39,1.54,2.0
1758088601.04237,1758088598.33275,0.0,0.0,0.0,9.62569,60.33246,-3.49504,9.29,0.21,1.54,2.0
1758088601.04512,1758088598.34275,0.0,0.0,0.0,8.0787,57.46767,-4.69825,9.29,0.21,1.54,2.0
1758088601.06063,1758088598.35275,0.0,0.0,0.0,6.35983,53.17049,-5.95876,8.91,0.09,1.57,2.0
1758088601.0764,1758088598.36275,0.0,0.0,0.0,4.81285,46.98254,-8.136,8.91,0.09,1.57,2.0
1758088601.07758,1758088598.37275,0.0,0.0,0.0,3.32316,41.25296,-8.88085,8.75,0.1,1.34,2.0
1758088601.09341,1758088598.38275,0.0,0.0,0.0,1.71887,35.52338,-8.76626,8.56,0.11,1.24,2.0
1758088601.09436,1758088598.39275,0.0,0.0,0.0,0.17189,31.2262,-8.65166,8.56,0.11,1.24,2.0
1758088601.10976,1758088598.40275,0.0,0.0,0.0,-1.83346,25.26744,-7.67763,8.68,0.12,1.06,2.0
1758088601.12666,1758088598.41275,0.0,0.0,0.0,-3.20856,20.74107,-6.53172,8.68,0.12,1.06,2.0
1758088601.12793,1758088598.42275,0.0,0.0,0.0,-4.64096,16.04282,-5.4431,8.39,0.15,0.91,2.0
1758088601.14237,1758088598.43275,0.0,0.0,0.0,-6.35983,10.65701,-4.23989,8.39,0.15,0.91,2.0
1758088601.14552,1758088598.44275,0.0,0.0,0.0,-9.22462,4.52637,-2.97938,8.08,0.17,0.82,2.0
1758088601.16144,1758088598.45275,0.0,0.0,0.0,-11.17268,3.20856,-1.60428,8.28,0.14,0.96,2.0
1758088601.16578,1758088598.46275,0.0,0.0,0.0,-13.23533,2.46372,0.17189,8.28,0.14,0.96,2.0
1758088601.1857,1758088598.47275,0.0,0.0,0.0,-15.12609,0.51566,2.40642,8.36,0.09,1.38,2.0
1758088601.18666,1758088598.48275,0.0,0.0,0.0,-18.50654,-3.66693,5.50039,8.36,0.09,1.38,2.0
1758088601.20145,1758088598.49275,0.0,0.0,0.0,-21.25674,-4.64096,6.53172,8.21,0.25,1.31,2.0
1758088601.20598,1758088598.50275,0.0,0.0,0.0,-24.23611,-4.0107,6.58902,8.21,0.25,1.31,2.0
1758088601.22151,1758088598.51275,0.0,0.0,0.0,-27.38738,-3.66693,5.21392,8.41,0.53,1.04,2.0
1758088601.22583,1758088598.52275,0.0,0.0,0.0,-31.85646,-8.70896,1.60428,8.09,0.52,0.62,2.0
1758088601.24547,1758088598.53275,0.0,0.0,0.0,-34.32018,-15.69904,-1.60428,8.09,0.52,0.62,2.0
1758088601.25071,1758088598.54275,0.0,0.0,0.0,-35.00772,-20.3973,-4.92744,8.1,-0.05,0.33,2.0
1758088601.26548,1758088598.55275,0.0,0.0,0.0,-35.75257,-22.05888,-9.22462,8.1,-0.05,0.33,2.0
1758088601.26866,1758088598.56275,0.0,0.0,0.0,-36.55471,-19.53786,-11.97482,9.52,-0.86,-0.19,2.0
1758088601.28375,1758088598.57275,0.0,0.0,0.0,-36.7266,-17.99088,-13.23533,9.52,-0.86,-0.19,2.0
1758088601.28815,1758088598.58275,0.0,0.0,0.0,-36.61201,-11.97482,-13.5791,10.71,-1.35,0.09,2.0
1758088601.30569,1758088598.59275,0.0,0.0,0.0,-36.55471,3.60963,-13.40721,10.71,-1.35,0.09,2.0
1758088601.3067,1758088598.60275,0.0,0.0,0.0,-34.89313,5.84417,-12.37589,12.32,-1.4,0.03,2.0
1758088601.32232,1758088598.61275,0.0,0.0,0.0,-34.66395,-2.00535,-13.5791,11.42,-1.06,0.36,2.0
1758088601.3235,1758088598.62275,0.0,0.0,0.0,-33.9764,-5.78687,-15.46986,11.42,-1.06,0.36,2.0
1758088601.34072,1758088598.63275,0.0,0.0,0.0,-29.8511,0.0573,-16.73037,12.79,-0.79,0.59,2.0
1758088601.35807,1758088598.64275,0.0,0.0,0.0,-26.18417,0.34377,-17.18874,12.79,-0.79,0.59,2.0
1758088601.36023,1758088598.65275,0.0,0.0,0.0,-22.57454,-3.60963,-17.01685,12.92,-1.15,1.25,2.0
1758088601.37552,1758088598.66275,0.0,0.0,0.0,-19.36597,-8.02141,-16.38659,12.92,-1.15,1.25,2.0
1758088601.3767,1758088598.67275,0.0,0.0,0.0,-14.61043,-12.14671,-13.98017,11.82,-1.34,1.38,2.0
1758088601.39471,1758088598.68275,0.0,0.0,0.0,-11.28727,-12.89155,-11.57375,10.96,-1.5,1.45,2.0
1758088601.39588,1758088598.69275,0.0,0.0,0.0,-8.136,-15.24068,-9.05273,10.96,-1.5,1.45,2.0
1758088601.41337,1758088598.70275,0.0,0.0,0.0,-5.15662,-22.00158,-7.21927,9.65,-1.34,2.46,2.0
1758088601.41537,1758088598.71275,0.0,0.0,0.0,-0.0573,-39.19032,-8.136,9.65,-1.34,2.46,2.0
1758088601.43054,1758088598.72275,0.0,0.0,0.0,2.92208,-48.58683,-11.80293,9.89,-0.77,4.54,2.0
1758088601.45058,1758088598.73275,0.0,0.0,0.0,6.07335,-52.71212,-16.50119,9.89,-0.77,4.54,2.0
1758088601.45519,1758088598.74275,0.0,0.0,0.0,9.74028,-52.65482,-22.05888,11.57,-0.85,4.27,2.0
1758088601.45563,1758088598.75275,0.0,0.0,0.0,11.00079,-48.41494,-23.31938,10.52,-0.73,3.34,2.0
1758088601.47473,1758088598.76275,0.0,0.0,0.0,10.48513,-44.57612,-23.20479,10.52,-0.73,3.34,2.0
1758088601.47753,1758088598.77275,0.0,0.0,0.0,7.84952,-40.7373,-21.7724,9.35,-0.27,2.99,2.0
1758088601.49484,1758088598.78275,0.0,0.0,0.0,1.43239,-34.0337,-18.90761,9.35,-0.27,2.99,2.0
1758088601.49764,1758088598.79275,0.0,0.0,0.0,-3.72423,-28.70519,-17.18874,9.59,0.48,3.21,2.0
1758088601.5152,1758088598.80275,0.0,0.0,0.0,-9.11003,-24.12152,-16.21471,9.59,0.48,3.21,2.0
1758088601.51963,1758088598.81275,0.0,0.0,0.0,-14.20935,-18.27736,-16.04282,10.33,1.15,3.33,2.0
1758088601.53483,1758088598.82275,0.0,0.0,0.0,-20.51189,-7.96411,-16.10011,10.98,1.15,2.91,2.0
1758088601.53606,1758088598.83275,0.0,0.0,0.0,-22.91831,-0.22918,-15.75634,10.98,1.07,2.91,2.0
1758088601.55061,1758088598.84275,0.0,0.0,0.0,-23.94964,8.25059,-14.61043,11.13,0.27,2.42,2.0
1758088601.56742,1758088598.85275,0.0,0.0,0.0,-23.54857,16.73037,-12.83425,11.13,0.27,2.42,2.0
1758088601.57023,1758088598.86275,0.0,0.0,0.0,-21.25674,28.41871,-8.76626,11.03,-0.55,2.05,2.0
1758088601.58562,1758088598.87275,0.0,0.0,0.0,-19.07949,34.77854,-5.78687,11.03,-0.55,2.05,2.0
1758088601.58705,1758088598.88275,0.0,0.0,0.0,-16.50119,39.87786,-2.06265,10.52,-1.18,1.78,2.0
1758088601.60238,1758088598.89275,0.0,0.0,0.0,-13.17803,43.25832,1.08862,10.52,-1.18,1.78,2.0
1758088601.60595,1758088598.90275,0.0,0.0,0.0,-8.02141,46.46688,4.92744,9.95,-1.68,1.59,2.0
1758088601.62236,1758088598.91275,0.0,0.0,0.0,-4.87014,48.64412,6.7609,9.55,-2.02,1.47,2.0
1758088601.62541,1758088598.92275,0.0,0.0,0.0,0.0573,50.01921,9.5684,9.55,-2.02,1.47,2.0
1758088601.64089,1758088598.93275,0.0,0.0,0.0,2.92208,48.64412,11.63104,9.11,-2.08,1.45,2.0
1758088601.65739,1758088598.94275,0.0,0.0,0.0,6.58902,48.24305,13.46451,9.11,-2.08,1.45,2.0
1758088601.6594,1758088598.95275,0.0,0.0,0.0,8.70896,45.14908,14.72501,8.87,-1.86,1.44,2.0
1758088601.67463,1758088598.96275,0.0,0.0,0.0,11.11538,41.99781,15.75634,8.87,-1.86,1.44,2.0
1758088601.67581,1758088598.97275,0.0,0.0,0.0,14.38124,37.24226,16.3293,8.62,-1.49,1.36,2.0
1758088601.69061,1758088598.98275,0.0,0.0,0.0,16.38659,33.34615,15.87093,8.45,-1.14,1.26,2.0
1758088601.70843,1758088598.99275,0.0,0.0,0.0,17.93358,28.64789,14.9542,8.45,-1.14,1.26,2.0
1758088601.71202,1758088599.00275,0.0,0.0,0.0,18.73572,22.63183,13.80828,7.88,-0.84,1.09,2.0
1758088601.72847,1758088599.01275,0.0,0.0,0.0,19.59516,13.12073,11.45916,7.88,-0.84,1.09,2.0
1758088601.7307,1758088599.02275,0.0,0.0,0.0,20.11082,6.41713,9.4538,7.5,-0.63,1.08,2.0
1758088601.74592,1758088599.03275,0.0,0.0,0.0,20.74107,0.45837,7.73493,7.5,-0.63,1.08,2.0
1758088601.74923,1758088599.04275,0.0,0.0,0.0,21.6578,-1.94806,5.61499,7.57,-0.56,1.16,2.0
1758088601.76489,1758088599.05275,0.0,0.0,0.0,22.97561,0.17189,2.63561,8.23,-0.62,1.08,2.0
1758088601.76584,1758088599.06275,0.0,0.0,0.0,23.72045,1.60428,0.97403,8.23,-0.62,1.08,2.0
1758088601.78553,1758088599.07275,0.0,0.0,0.0,24.80907,1.14592,0.11459,8.18,-0.74,0.99,2.0
1758088601.79062,1758088599.08275,0.0,0.0,0.0,25.89769,-0.34377,-0.34377,8.18,-0.74,0.99,2.0
1758088601.80591,1758088599.09275,0.0,0.0,0.0,27.73116,-4.64096,1.48969,7.98,-0.95,0.6,2.0
1758088601.81093,1758088599.10275,0.0,0.0,0.0,29.04896,-11.63104,4.0107,7.98,-0.95,0.6,2.0
1758088601.82582,1758088599.11275,0.0,0.0,0.0,28.59059,-21.37133,6.70361,7.72,-1.12,0.35,2.0
1758088601.82799,1758088599.12275,0.0,0.0,0.0,27.67386,-30.82513,10.25595,7.72,-1.12,0.35,2.0
1758088601.84373,1758088599.13275,0.0,0.0,0.0,24.12152,-33.74722,14.03747,8.23,-0.85,-0.04,2.0
1758088601.84631,1758088599.14275,0.0,0.0,0.0,22.86102,-19.59516,18.44924,10.93,-0.29,-0.17,2.0
1758088601.86573,1758088599.15275,0.0,0.0,0.0,22.00158,-2.57831,21.14215,10.93,-0.29,-0.17,2.0
1758088601.87122,1758088599.16275,0.0,0.0,0.0,18.73572,8.02141,20.45459,11.79,0.1,0.38,2.0
1758088601.88575,1758088599.17275,0.0,0.0,0.0,16.50119,5.84417,17.53251,11.79,0.1,0.38,2.0
1758088601.88805,1758088599.18275,0.0,0.0,0.0,13.69369,-2.00535,13.40721,10.35,0.48,0.16,2.0
1758088601.90467,1758088599.19275,0.0,0.0,0.0,12.54778,-16.67307,9.28192,10.35,0.48,0.16,2.0
1758088601.90591,1758088599.20275,0.0,0.0,0.0,11.22997,-35.92446,6.13065,10.03,0.28,-0.84,2.0
1758088601.92072,1758088599.21275,0.0,0.0,0.0,10.08406,-33.05967,5.15662,12.08,-0.47,-0.25,2.0
1758088601.93882,1758088599.22275,0.0,0.0,0.0,9.39651,-25.8404,5.27121,12.08,-0.47,-0.25,2.0
1758088601.94001,1758088599.23275,0.0,0.0,0.0,8.36518,-23.0329,4.98473,13.28,-0.7,0.57,2.0
1758088601.95501,1758088599.24275,0.0,0.0,0.0,5.84417,-27.84575,5.15662,13.28,-0.7,0.57,2.0
1758088601.95595,1758088599.25275,0.0,0.0,0.0,4.58366,-34.09099,5.21392,12.33,-0.49,0.65,2.0
1758088601.97105,1758088599.26275,0.0,0.0,0.0,3.95341,-39.76327,5.32851,12.33,-0.49,0.65,2.0
1758088601.98701,1758088599.27275,0.0,0.0,0.0,3.60963,-42.1124,5.32851,11.3,-0.33,0.47,2.0
1758088601.98798,1758088599.28275,0.0,0.0,0.0,2.92208,-45.55015,7.73493,11.43,-0.55,2.78,2.0
1758088602.00279,1758088599.29275,0.0,0.0,0.0,2.92208,-50.1911,12.77696,11.43,-0.55,2.78,2.0
1758088602.00423,1758088599.30275,0.0,0.0,0.0,3.38045,-52.884,19.25138,12.81,-0.54,4.46,2.0
1758088602.02106,1758088599.31275,0.0,0.0,0.0,3.32316,-53.97263,25.26744,12.81,-0.54,4.46,2.0
1758088602.03693,1758088599.32275,0.0,0.0,0.0,1.60428,-55.40502,29.04896,12.54,-0.29,4.31,2.0
1758088602.03985,1758088599.33275,0.0,0.0,0.0,1.03132,-55.6342,27.84575,12.54,-0.29,4.31,2.0
1758088602.05522,1758088599.34275,0.0,0.0,0.0,1.3178,-53.62885,24.63719,9.94,-0.4,3.67,2.0
1758088602.05597,1758088599.35275,0.0,0.0,0.0,4.0107,-47.67009,17.6471,9.94,-0.4,3.67,2.0
1758088602.07107,1758088599.36275,0.0,0.0,0.0,6.87549,-35.40879,12.43318,9.19,-0.97,2.98,2.0
1758088602.08868,1758088599.37275,0.0,0.0,0.0,10.25595,-28.59059,8.136,9.27,-1.65,2.9,2.0
1758088602.08962,1758088599.38275,0.0,0.0,0.0,14.09476,-23.0329,5.21392,9.27,-1.65,2.9,2.0
1758088602.10508,1758088599.39275,0.0,0.0,0.0,19.48057,-14.38124,4.64096,9.92,-2.02,2.69,2.0
1758088602.10645,1758088599.40275,0.0,0.0,0.0,23.0329,-6.58902,5.90147,9.92,-2.02,2.69,2.0
1758088602.1208,1758088599.41275,0.0,0.0,0.0,26.12688,1.83346,7.62034,10.77,-1.89,2.19,2.0
1758088602.13767,1758088599.42275,0.0,0.0,0.0,28.476,10.25595,8.99544,10.77,-1.89,2.19,2.0
1758088602.1392,1758088599.43275,0.0,0.0,0.0,30.59595,22.23076,9.62569,10.66,-1.49,1.89,2.0
1758088602.15492,1758088599.44275,0.0,0.0,0.0,31.2262,30.02299,9.28192,10.52,-1.0,1.65,2.0
1758088602.15605,1758088599.45275,0.0,0.0,0.0,31.2262,37.12767,7.79223,10.52,-1.0,1.65,2.0
1758088602.17106,1758088599.46275,0.0,0.0,0.0,30.82513,43.14373,6.07335,10.32,-0.55,1.39,2.0
1758088602.18677,1758088599.47275,0.0,0.0,0.0,29.8511,49.84733,3.03668,10.32,-0.55,1.39,2.0
1758088602.18798,1758088599.48275,0.0,0.0,0.0,28.36141,53.51426,0.80214,9.97,-0.16,1.18,2.0
1758088602.2028,1758088599.49275,0.0,0.0,0.0,27.1582,55.92068,-1.08862,9.97,-0.16,1.18,2.0
1758088602.20407,1758088599.50275,0.0,0.0,0.0,25.8404,57.63955,-3.32316,9.54,0.16,1.09,2.0
1758088602.22013,1758088599.51275,0.0,0.0,0.0,23.83505,59.01466,-6.07335,9.21,0.32,1.04,2.0
1758088602.2361,1758088599.52275,0.0,0.0,0.0,22.57454,58.78547,-7.16197,9.21,0.32,1.04,2.0
1758088602.23792,1758088599.53275,0.0,0.0,0.0,21.31403,57.12389,-7.84952,8.87,0.28,0.98,2.0
1758088602.25365,1758088599.54275,0.0,0.0,0.0,19.88164,53.51426,-8.36518,8.87,0.28,0.98,2.0
1758088602.25517,1758088599.55275,0.0,0.0,0.0,17.6471,45.49285,-8.02141,8.53,0.18,0.89,2.0
1758088602.26983,1758088599.56275,0.0,0.0,0.0,16.04282,40.27893,-7.39116,8.53,0.18,0.89,2.0
1758088602.28596,1758088599.57275,0.0,0.0,0.0,14.03747,35.2369,-6.41713,8.42,0.1,0.8,2.0
1758088602.28865,1758088599.58275,0.0,0.0,0.0,11.74564,26.24147,-4.98473,8.42,0.1,0.8,2.0
1758088602.30461,1758088599.59275,0.0,0.0,0.0,10.02676,20.11082,-3.38045,8.12,0.08,0.71,2.0
1758088602.30589,1758088599.60275,0.0,0.0,0.0,8.30789,14.15206,-1.94806,7.82,0.05,0.69,2.0
1758088602.32516,1758088599.61275,0.0,0.0,0.0,6.58902,8.70896,-0.34377,7.82,0.05,0.69,2.0
1758088602.32609,1758088599.62275,0.0,0.0,0.0,3.83882,1.48969,1.66158,7.68,0.08,0.55,2.0
1758088602.34106,1758088599.63275,0.0,0.0,0.0,1.60428,1.20321,2.34913,7.68,0.08,0.55,2.0
1758088602.35789,1758088599.64275,0.0,0.0,0.0,-0.51566,3.89611,3.20856,8.12,0.14,0.44,2.0
1758088602.36065,1758088599.65275,0.0,0.0,0.0,-2.57831,6.47442,4.23989,8.12,0.14,0.44,2.0
1758088602.37619,1758088599.66275,0.0,0.0,0.0,-6.07335,6.58902,4.98473,8.37,0.19,0.47,2.0
1758088602.38023,1758088599.67275,0.0,0.0,0.0,-8.65166,4.87014,4.81285,8.27,0.24,0.47,2.0
1758088602.39608,1758088599.68275,0.0,0.0,0.0,-11.63104,2.46372,4.1253,8.27,0.24,0.47,2.0
1758088602.40188,1758088599.69275,0.0,0.0,0.0,-14.49583,-0.68755,2.92208,8.61,0.36,0.33,2.0
1758088602.40604,1758088599.70275,0.0,0.0,0.0,-18.9649,-8.36518,0.51566,8.61,0.36,0.33,2.0
1758088602.42601,1758088599.71275,0.0,0.0,0.0,-21.60051,-13.75099,-1.20321,9.09,0.37,0.22,2.0
1758088602.43354,1758088599.72275,0.0,0.0,0.0,-23.83505,-18.79302,-3.72423,9.09,0.37,0.22,2.0
1758088602.43601,1758088599.73275,0.0,0.0,0.0,-25.72581,-22.34536,-6.58902,9.8,0.33,-0.05,2.0
1758088602.4562,1758088599.74275,0.0,0.0,0.0,-27.84575,-23.89234,-11.51645,10.43,0.27,-0.38,2.0
1758088602.4603,1758088599.75275,0.0,0.0,0.0,-29.10626,-24.35071,-15.29797,10.43,0.27,-0.38,2.0
1758088602.49985,1758088599.76275,0.0,0.0,0.0,-30.02299,-25.09555,-18.50654,10.59,0.26,-0.65,2.0
1758088602.50776,1758088599.77275,0.0,0.0,0.0,-31.56997,-22.63183,-21.6578,10.59,0.26,-0.65,2.0
1758088602.51076,1758088599.78275,0.0,0.0,0.0,-31.91375,-2.6929,-22.11617,11.78,0.33,-0.54,2.0
1758088602.51563,1758088599.79275,0.0,0.0,0.0,-31.2262,17.76169,-21.7151,11.78,0.33,-0.54,2.0
1758088602.51657,1758088599.80275,0.0,0.0,0.0,-29.9084,30.99702,-21.31403,13.97,0.12,0.65,2.0
1758088602.52817,1758088599.81275,0.0,0.0,0.0,-25.38203,6.18794,-21.7724,13.97,0.12,0.65,2.0
1758088602.53512,1758088599.82275,0.0,0.0,0.0,-22.91831,-15.46986,-21.94428,11.8,-0.29,1.84,2.0
1758088602.53555,1758088599.83275,0.0,0.0,0.0,-21.02755,-24.63719,-22.11617,11.6,-0.61,0.5,2.0
1758088602.55514,1758088599.84275,0.0,0.0,0.0,-20.45459,-24.63719,-19.99623,11.6,-0.61,0.5,2.0
1758088602.5572,1758088599.85275,0.0,0.0,0.0,-19.70975,-20.51189,-14.9542,11.33,-0.76,1.2,2.0
1758088602.57385,1758088599.86275,0.0,0.0,0.0,-16.61578,-23.83505,-12.37589,11.33,-0.76,1.2,2.0
1758088602.57555,1758088599.87275,0.0,0.0,0.0,-12.49048,-33.46074,-12.89155,9.9,-0.73,4.0,2.0
1758088602.59114,1758088599.88275,0.0,0.0,0.0,-8.0787,-45.03448,-16.84496,9.9,-0.73,4.0,2.0
1758088602.6005,1758088599.89275,0.0,0.0,0.0,-0.40107,-49.21708,-25.55392,11.51,-1.38,6.04,2.0
1758088602.6158,1758088599.90275,0.0,0.0,0.0,5.15662,-47.95657,-29.62192,12.43,-2.78,4.34,2.0
1758088602.62012,1758088599.91275,0.0,0.0,0.0,8.99544,-46.75336,-30.99702,12.43,-2.78,4.34,2.0
1758088602.63605,1758088599.92275,0.0,0.0,0.0,10.25595,-43.65939,-30.48136,9.15,-2.16,3.45,2.0
1758088602.63797,1758088599.93275,0.0,0.0,0.0,7.50575,-37.01308,-26.41335,9.15,-2.16,3.45,2.0
1758088602.65456,1758088599.94275,0.0,0.0,0.0,3.66693,-33.17426,-22.86102,8.52,-1.04,3.31,2.0
1758088602.65587,1758088599.95275,0.0,0.0,0.0,-1.08862,-30.59595,-19.13679,8.52,-1.04,3.31,2.0
1758088602.67125,1758088599.96275,0.0,0.0,0.0,-6.53172,-27.50197,-15.35527,9.65,0.07,3.77,2.0
1758088602.68802,1758088599.97275,0.0,0.0,0.0,-15.06879,-16.21471,-14.20935,11.73,0.85,3.38,2.0
1758088602.69081,1758088599.98275,0.0,0.0,0.0,-20.16812,-8.0787,-13.80828,11.73,0.85,3.38,2.0
1758088602.7084,1758088599.99275,0.0,0.0,0.0,-24.4653,0.0573,-13.75099,12.13,0.83,2.76,2.0
1758088602.71628,1758088600.00275,0.0,0.0,0.0,-27.61657,12.60507,-13.5791,12.13,0.83,2.76,2.0
1758088602.71741,1758088600.01275,0.0,0.0,0.0,-27.78845,20.68378,-12.49048,11.6,0.18,2.27,2.0
1758088602.73844,1758088600.02275,0.0,0.0,0.0,-26.35606,28.87707,-10.8289,11.6,0.18,2.27,2.0
1758088602.74116,1758088600.03275,0.0,0.0,0.0,-24.12152,35.58068,-8.76626,11.1,-0.71,2.09,2.0
1758088602.76024,1758088600.04275,0.0,0.0,0.0,-19.07949,43.94586,-5.50039,10.32,-0.71,2.02,2.0
1758088602.78533,1758088600.05275,0.0,0.0,0.0,-14.83961,48.64412,-2.97938,10.32,-1.52,2.02,2.0
1758088602.78604,1758088600.06275,0.0,0.0,0.0,-10.65701,52.19646,-0.51566,9.65,-2.03,1.98,2.0
1758088602.79515,1758088600.07275,0.0,0.0,0.0,-6.35983,53.51426,1.60428,9.65,-2.03,1.98,2.0
1758088602.79577,1758088600.08275,0.0,0.0,0.0,-0.11459,54.25911,4.92744,8.98,-2.2,1.93,2.0
1758088602.7994,1758088600.09275,0.0,0.0,0.0,3.32316,53.45696,7.16197,8.98,-2.2,1.93,2.0
1758088602.81535,1758088600.10275,0.0,0.0,0.0,6.47442,52.19646,8.93814,8.68,-2.06,1.71,2.0
1758088602.8167,1758088600.11275,0.0,0.0,0.0,9.33921,49.15978,10.59972,8.68,-2.06,1.71,2.0
1758088602.83391,1758088600.12275,0.0,0.0,0.0,12.54778,44.8053,12.204,8.45,-1.67,1.52,2.0
1758088602.83563,1758088600.13275,0.0,0.0,0.0,14.43854,41.94051,12.54778,8.39,-1.27,1.27,2.0
1758088602.85103,1758088600.14275,0.0,0.0,0.0,15.75634,38.38818,12.60507,8.39,-1.27,1.27,2.0
1758088602.85495,1758088600.15275,0.0,0.0,0.0,16.55848,34.14828,12.37589,8.04,-0.95,1.2,2.0
1758088602.87004,1758088600.16275,0.0,0.0,0.0,16.90226,26.64254,11.17268,8.04,-0.95,1.2,2.0
1758088602.88602,1758088600.17275,0.0,0.0,0.0,16.95955,21.42862,10.08406,7.64,-0.76,1.11,2.0
1758088602.89048,1758088600.18275,0.0,0.0,0.0,16.84496,16.04282,8.47978,7.64,-0.76,1.11,2.0
1758088602.90605,1758088600.19275,0.0,0.0,0.0,17.18874,7.44845,5.84417,7.34,-0.69,0.97,2.0
1758088602.92442,1758088600.20275,0.0,0.0,0.0,17.81899,4.64096,3.89611,7.36,-0.64,0.78,2.0
1758088602.92467,1758088600.21275,0.0,0.0,0.0,18.85031,4.0107,1.77617,7.36,-0.64,0.78,2.0
1758088602.93814,1758088600.22275,0.0,0.0,0.0,19.99623,3.95341,-0.34377,7.66,-0.57,0.75,2.0
1758088602.94041,1758088600.23275,0.0,0.0,0.0,21.88699,-0.51566,-3.55234,7.66,-0.57,0.75,2.0
1758088602.95538,1758088600.24275,0.0,0.0,0.0,23.49127,-4.98473,-5.09932,7.44,-0.58,0.72,2.0
1758088602.95656,1758088600.25275,0.0,0.0,0.0,25.38203,-9.62569,-5.72958,7.44,-0.58,0.72,2.0
1758088602.97339,1758088600.26275,0.0,0.0,0.0,27.1582,-14.72501,-5.21392,7.66,-0.84,0.5,2.0
1758088602.97431,1758088600.27275,0.0,0.0,0.0,29.50733,-27.1582,-2.23454,7.88,-1.12,0.44,2.0
1758088602.99013,1758088600.28275,0.0,0.0,0.0,29.96569,-39.64868,0.11459,7.88,-1.12,0.44,2.0
1758088603.00651,1758088600.29275,0.0,0.0,0.0,29.62192,-48.24305,4.23989,8.49,-0.89,-0.04,2.0
1758088603.00734,1758088600.30275,0.0,0.0,0.0,27.96034,-53.17049,7.10468,8.49,-0.89,-0.04,2.0
1758088603.02237,1758088600.31275,0.0,0.0,0.0,26.52795,-39.07573,12.14671,10.69,-0.23,-0.37,2.0
1758088603.03846,1758088600.32275,0.0,0.0,0.0,25.61122,-24.23611,13.80828,10.69,-0.23,-0.37,2.0
1758088603.04093,1758088600.33275,0.0,0.0,0.0,23.89234,-12.60507,13.5791,12.44,0.18,-0.09,2.0
1758088603.05648,1758088600.34275,0.0,0.0,0.0,21.94428,-11.17268,12.43318,12.44,0.18,-0.09,2.0
1758088603.05739,1758088600.35275,0.0,0.0,0.0,17.6471,-16.10011,8.30789,11.38,0.41,-0.16,2.0
1758088603.07244,1758088600.36275,0.0,0.0,0.0,15.98552,-22.40265,6.70361,11.62,0.29,-0.31,2.0
1758088603.07417,1758088600.37275,0.0,0.0,0.0,12.83425,-23.49127,3.95341,11.62,0.29,-0.31,2.0
1758088603.09015,1758088600.38275,0.0,0.0,0.0,9.96947,-27.84575,4.35448,12.51,0.35,-0.18,2.0
1758088603.107,1758088600.39275,0.0,0.0,0.0,8.36518,-37.52874,5.55769,12.51,0.35,-0.18,2.0
1758088603.11053,1758088600.40275,0.0,0.0,0.0,6.70361,-50.01921,7.67763,11.36,0.16,0.52,2.0
1758088603.12725,1758088600.41275,0.0,0.0,0.0,5.21392,-59.18654,12.37589,11.36,0.16,0.52,2.0
1758088603.1309,1758088600.42275,0.0,0.0,0.0,2.29183,-62.28051,21.88699,10.92,-0.64,2.24,2.0
1758088603.14617,1758088600.43275,0.0,0.0,0.0,-0.34377,-60.38975,29.8511,13.17,-0.72,4.3,2.0
1758088603.14776,1758088600.44275,0.0,0.0,0.0,-3.09397,-59.01466,37.29956,13.17,-0.72,4.3,2.0
1758088603.16322,1758088600.45275,0.0,0.0,0.0,-6.8182,-58.72818,43.54479,13.48,0.1,5.34,2.0
1758088603.16527,1758088600.46275,0.0,0.0,0.0,-12.49048,-57.63955,46.98254,13.48,0.1,5.34,2.0
1758088603.1812,1758088600.47275,0.0,0.0,0.0,-15.06879,-55.00395,45.14908,11.43,0.33,4.52,2.0
