timeStamp,timeStampAlign,roll,pitch,yaw,gyro_x,gyro_y,gyro_z,acc_x,acc_y,acc_z,flag_num
1758088959.63964,1758088959.64654,0.0,0.0,0.0,1.71887,-7.33386,3.55234,9.37,-1.63,-0.52,3.0
1758088959.64249,1758088959.65654,0.0,0.0,0.0,6.35983,-10.54242,1.48969,9.37,-1.63,-0.52,3.0
1758088959.65845,1758088959.66654,0.0,0.0,0.0,9.22462,-12.49048,0.0,9.3,-1.55,-0.47,3.0
1758088959.65968,1758088959.67654,0.0,0.0,0.0,11.51645,-13.00614,-1.71887,9.3,-1.55,-0.47,3.0
1758088959.67477,1758088959.68654,0.0,0.0,0.0,13.80828,-10.08406,-3.26586,9.68,-1.48,-0.61,3.0
1758088959.67594,1758088959.69654,0.0,0.0,0.0,16.67307,7.39116,-5.32851,10.7,-1.37,-0.69,3.0
1758088959.69173,1758088959.70654,0.0,0.0,0.0,18.50654,22.23076,-6.07335,10.7,-1.37,-0.69,3.0
1758088959.7088,1758088959.71654,0.0,0.0,0.0,20.05352,31.62727,-5.72958,10.41,-1.61,-0.63,3.0
1758088959.70974,1758088959.72654,0.0,0.0,0.0,22.23076,28.41871,-5.32851,10.41,-1.61,-0.63,3.0
1758088959.72482,1758088959.73654,0.0,0.0,0.0,22.00158,-4.58366,-4.18259,7.7,-1.31,-0.15,3.0
1758088959.72799,1758088959.74654,0.0,0.0,0.0,22.86102,-22.00158,0.34377,7.7,-1.31,-0.15,3.0
1758088959.7451,1758088959.75654,0.0,0.0,0.0,22.86102,-24.00693,4.58366,8.85,-1.58,-0.05,3.0
1758088959.74597,1758088959.76654,0.0,0.0,0.0,23.0329,-16.272,6.35983,8.85,-1.58,-0.05,3.0
1758088959.76256,1758088959.77654,0.0,0.0,0.0,23.94964,-2.7502,7.67763,11.54,-1.4,-1.02,3.0
1758088959.77877,1758088959.78654,0.0,0.0,0.0,23.37668,4.64096,6.24524,11.32,-1.21,-0.32,3.0
1758088959.78006,1758088959.79654,0.0,0.0,0.0,21.25674,6.35983,3.32316,11.32,-1.21,-0.32,3.0
1758088959.79529,1758088959.80654,0.0,0.0,0.0,16.3293,2.29183,0.68755,10.78,-1.09,0.67,3.0
1758088959.79602,1758088959.81654,0.0,0.0,0.0,13.5218,-3.72423,2.63561,10.78,-1.09,0.67,3.0
1758088959.81187,1758088959.82654,0.0,0.0,0.0,8.70896,5.55769,4.58366,12.84,-0.98,1.0,3.0
1758088959.82788,1758088959.83654,0.0,0.0,0.0,3.38045,21.08485,6.24524,12.84,-0.98,1.0,3.0
1758088959.82979,1758088959.84654,0.0,0.0,0.0,-2.97938,36.21093,8.30789,15.51,-0.33,-0.47,3.0
1758088959.84478,1758088959.85654,0.0,0.0,0.0,-6.18794,41.88322,7.84952,14.88,0.18,-0.96,3.0
1758088959.84685,1758088959.86654,0.0,0.0,0.0,-8.0787,47.38361,6.53172,14.88,0.18,-0.96,3.0
1758088959.86395,1758088959.87654,0.0,0.0,0.0,-8.59437,53.74345,4.23989,15.6,-0.21,-0.44,3.0
1758088959.87987,1758088959.88654,0.0,0.0,0.0,-6.58902,62.5097,-0.45837,15.6,-0.21,-0.44,3.0
1758088959.88428,1758088959.89654,0.0,0.0,0.0,-4.58366,63.48372,-3.32316,15.78,-1.39,0.07,3.0
1758088959.90009,1758088959.90654,0.0,0.0,0.0,-2.34913,63.77021,-4.87014,15.78,-1.39,0.07,3.0
1758088959.903,1758088959.91654,0.0,0.0,0.0,-0.97403,65.89015,-5.78687,15.41,-2.55,0.71,3.0
1758088959.91897,1758088959.92654,0.0,0.0,0.0,0.17189,69.55708,-5.84417,15.02,-2.66,1.18,3.0
1758088959.91986,1758088959.93654,0.0,0.0,0.0,0.11459,67.15066,-5.32851,15.02,-2.66,1.18,3.0
1758088959.93523,1758088959.94654,0.0,0.0,0.0,-0.85944,62.16592,-4.58366,13.5,-1.58,1.66,3.0
1758088959.93607,1758088959.95654,0.0,0.0,0.0,-2.00535,56.20716,-3.83882,13.5,-1.58,1.66,3.0
1758088959.95284,1758088959.96654,0.0,0.0,0.0,-3.66693,47.67009,-2.34913,12.4,-0.46,1.76,3.0
1758088959.96885,1758088959.97654,0.0,0.0,0.0,-3.95341,41.76862,-1.3178,12.4,-0.46,1.76,3.0
1758088959.97006,1758088959.98654,0.0,0.0,0.0,-3.95341,34.60666,-0.34377,11.05,-0.12,2.09,3.0
1758088959.98916,1758088959.99654,0.0,0.0,0.0,-3.09397,25.89769,0.68755,11.05,-0.12,2.09,3.0
1758088959.99036,1758088960.00654,0.0,0.0,0.0,-1.14592,12.49048,2.29183,9.17,-0.39,2.52,3.0
1758088960.008,1758088960.01654,0.0,0.0,0.0,0.68755,3.95341,3.03668,7.81,-0.8,2.93,3.0
1758088960.0089,1758088960.02654,0.0,0.0,0.0,2.7502,-4.92744,3.55234,7.81,-0.8,2.93,3.0
1758088960.02432,1758088960.03654,0.0,0.0,0.0,5.95876,-20.79837,3.49504,6.72,-1.06,3.47,3.0
1758088960.04014,1758088960.04654,0.0,0.0,0.0,7.96411,-30.30947,2.63561,6.72,-1.06,3.47,3.0
1758088960.04121,1758088960.05654,0.0,0.0,0.0,9.39651,-37.98711,1.3751,6.37,-1.11,3.49,3.0
1758088960.05702,1758088960.06654,0.0,0.0,0.0,10.71431,-42.22699,0.11459,6.37,-1.11,3.49,3.0
1758088960.05837,1758088960.07654,0.0,0.0,0.0,12.43318,-43.94586,-2.29183,6.96,-1.07,3.13,3.0
1758088960.07379,1758088960.08654,0.0,0.0,0.0,13.34992,-43.83128,-4.29718,7.59,-0.96,2.97,3.0
1758088960.08995,1758088960.09654,0.0,0.0,0.0,14.20935,-42.1124,-5.90147,7.59,-0.96,2.97,3.0
1758088960.09155,1758088960.10654,0.0,0.0,0.0,14.66772,-38.61736,-7.62034,8.16,-0.68,2.65,3.0
1758088960.10596,1758088960.11654,0.0,0.0,0.0,14.61043,-30.02299,-9.91217,8.16,-0.68,2.65,3.0
1758088960.10726,1758088960.12654,0.0,0.0,0.0,14.43854,-23.72045,-10.8289,8.7,-0.22,2.36,3.0
1758088960.12202,1758088960.13654,0.0,0.0,0.0,13.5791,-16.38659,-11.86023,8.7,-0.22,2.36,3.0
1758088960.1388,1758088960.14654,0.0,0.0,0.0,12.83425,-9.68299,-12.77696,8.85,0.21,2.15,3.0
1758088960.13999,1758088960.15654,0.0,0.0,0.0,13.34992,-0.80214,-12.54778,8.86,0.21,1.97,3.0
1758088960.15499,1758088960.16654,0.0,0.0,0.0,13.98017,5.95876,-12.60507,8.86,0.21,1.97,3.0
1758088960.15694,1758088960.17654,0.0,0.0,0.0,14.78231,12.54778,-12.89155,9.18,0.11,2.0,3.0
1758088960.17402,1758088960.18654,0.0,0.0,0.0,15.64175,18.90761,-13.75099,9.18,0.11,2.0,3.0
1758088960.19002,1758088960.19654,0.0,0.0,0.0,17.24603,26.18417,-14.78231,9.23,-0.02,2.06,3.0
1758088960.19122,1758088960.20654,0.0,0.0,0.0,18.44924,29.10626,-15.06879,9.23,-0.02,2.06,3.0
1758088960.20652,1758088960.21654,0.0,0.0,0.0,18.90761,31.74186,-15.24068,8.91,-0.19,2.08,3.0
1758088960.20884,1758088960.22654,0.0,0.0,0.0,19.99623,33.23156,-14.15206,8.91,-0.19,2.08,3.0
1758088960.22428,1758088960.23654,0.0,0.0,0.0,20.79837,34.89313,-13.06344,8.7,-0.29,2.16,3.0
1758088960.24027,1758088960.24654,0.0,0.0,0.0,21.08485,35.06502,-12.37589,8.4,-0.32,2.06,3.0
1758088960.244,1758088960.25654,0.0,0.0,0.0,21.7151,34.09099,-10.94349,8.4,-0.32,2.06,3.0
1758088960.25951,1758088960.26654,0.0,0.0,0.0,21.94428,30.53865,-9.11003,8.19,-0.24,2.0,3.0
1758088960.26026,1758088960.27654,0.0,0.0,0.0,21.60051,26.41335,-8.42248,8.19,-0.24,2.0,3.0
1758088960.27513,1758088960.28654,0.0,0.0,0.0,20.97026,22.57454,-7.50575,7.98,-0.09,1.9,3.0
1758088960.27702,1758088960.29654,0.0,0.0,0.0,20.16812,18.27736,-7.21927,7.98,-0.09,1.9,3.0
1758088960.29434,1758088960.30654,0.0,0.0,0.0,17.58981,13.5791,-6.58902,7.96,0.09,1.68,3.0
1758088960.31008,1758088960.31654,0.0,0.0,0.0,15.58445,10.31324,-6.58902,7.96,0.33,1.66,3.0
1758088960.31293,1758088960.32654,0.0,0.0,0.0,13.34992,7.04738,-7.04738,7.96,0.33,1.66,3.0
1758088960.32838,1758088960.33654,0.0,0.0,0.0,10.8862,3.66693,-8.02141,7.86,0.56,1.5,3.0
1758088960.33013,1758088960.34654,0.0,0.0,0.0,7.21927,-1.48969,-10.31324,7.86,0.56,1.5,3.0
1758088960.34542,1758088960.35654,0.0,0.0,0.0,5.09932,-4.35448,-11.97482,7.78,0.73,1.4,3.0
1758088960.34825,1758088960.36654,0.0,0.0,0.0,2.92208,-6.41713,-13.69369,7.78,0.73,1.4,3.0
1758088960.36444,1758088960.37654,0.0,0.0,0.0,1.3178,-7.96411,-14.83961,7.97,0.72,1.36,3.0
1758088960.38011,1758088960.38654,0.0,0.0,0.0,0.0,-8.93814,-15.69904,8.23,0.45,1.29,3.0
1758088960.38135,1758088960.39654,0.0,0.0,0.0,-0.22918,-9.11003,-15.41257,8.23,0.45,1.29,3.0
1758088960.39643,1758088960.40654,0.0,0.0,0.0,0.0573,-9.74028,-14.78231,8.43,0.03,1.31,3.0
1758088960.39735,1758088960.41654,0.0,0.0,0.0,0.68755,-8.93814,-12.49048,8.43,0.03,1.31,3.0
1758088960.41216,1758088960.42654,0.0,0.0,0.0,1.94806,-8.136,-11.11538,8.71,-0.32,1.47,3.0
1758088960.42806,1758088960.43654,0.0,0.0,0.0,2.86479,-7.21927,-9.96947,8.71,-0.32,1.47,3.0
1758088960.42931,1758088960.44654,0.0,0.0,0.0,3.20856,-6.47442,-9.62569,8.98,-0.4,1.62,3.0
1758088960.44425,1758088960.45654,0.0,0.0,0.0,3.20856,-12.60507,-10.65701,8.98,-0.4,1.62,3.0
1758088960.46053,1758088960.46654,0.0,0.0,0.0,2.34913,-18.56383,-11.97482,8.76,-0.09,1.37,3.0
1758088960.46145,1758088960.47654,0.0,0.0,0.0,1.03132,-22.86102,-12.77696,8.89,0.38,0.81,3.0
1758088960.47652,1758088960.48654,0.0,0.0,0.0,-1.71887,-22.74642,-14.61043,8.89,0.38,0.81,3.0
1758088960.4774,1758088960.49654,0.0,0.0,0.0,-6.24524,-20.85567,-16.21471,9.37,0.73,0.67,3.0
1758088960.4942,1758088960.50654,0.0,0.0,0.0,-9.5684,-19.88164,-16.95955,9.37,0.73,0.67,3.0
1758088960.51056,1758088960.51654,0.0,0.0,0.0,-12.49048,-19.36597,-17.76169,9.41,0.83,0.64,3.0
1758088960.51224,1758088960.52654,0.0,0.0,0.0,-15.46986,-21.02755,-18.10547,9.41,0.83,0.64,3.0
1758088960.52762,1758088960.53654,0.0,0.0,0.0,-18.85031,-28.30412,-17.01685,9.25,0.84,0.51,3.0
1758088960.52842,1758088960.54654,0.0,0.0,0.0,-20.16812,-33.17426,-16.50119,9.24,0.74,0.64,3.0
1758088960.54321,1758088960.55654,0.0,0.0,0.0,-21.25674,-35.69527,-15.58445,9.24,0.74,0.64,3.0
1758088960.55956,1758088960.56654,0.0,0.0,0.0,-22.28806,-35.58068,-14.49583,10.35,0.71,0.83,3.0
1758088960.56047,1758088960.57654,0.0,0.0,0.0,-23.83505,-30.53865,-13.23533,10.35,0.71,0.83,3.0
1758088960.57755,1758088960.58654,0.0,0.0,0.0,-24.63719,-20.79837,-12.43318,11.74,0.82,1.17,3.0
1758088960.57873,1758088960.59654,0.0,0.0,0.0,-25.49662,1.48969,-11.57375,11.74,0.82,1.17,3.0
1758088960.59355,1758088960.60654,0.0,0.0,0.0,-26.87172,17.30333,-10.71431,13.54,0.86,1.23,3.0
1758088960.60934,1758088960.61654,0.0,0.0,0.0,-27.33009,17.13144,-11.28727,11.58,0.84,1.69,3.0
1758088960.61048,1758088960.62654,0.0,0.0,0.0,-26.64254,9.62569,-10.48513,11.58,0.84,1.69,3.0
1758088960.62529,1758088960.63654,0.0,0.0,0.0,-23.89234,-12.49048,-8.70896,10.28,1.02,1.85,3.0
1758088960.62652,1758088960.64654,0.0,0.0,0.0,-23.66316,-55.92068,-17.76169,10.28,1.02,1.85,3.0
1758088960.64234,1758088960.65654,0.0,0.0,0.0,-20.62648,-42.28429,-24.5226,11.84,1.27,2.88,3.0
1758088960.6583,1758088960.66654,0.0,0.0,0.0,-17.81899,-8.0787,-26.01229,11.84,1.27,2.88,3.0
1758088960.65949,1758088960.67654,0.0,0.0,0.0,-16.55848,19.48057,-26.24147,16.8,0.94,0.32,3.0
1758088960.67456,1758088960.68654,0.0,0.0,0.0,-15.35527,41.02378,-25.15285,16.8,0.94,0.32,3.0
1758088960.69036,1758088960.69654,0.0,0.0,0.0,-13.5791,45.55015,-22.68913,14.33,0.25,0.8,3.0
1758088960.6911,1758088960.70654,0.0,0.0,0.0,-12.83425,47.67009,-20.11082,14.53,-0.04,1.28,3.0
1758088960.70765,1758088960.71654,0.0,0.0,0.0,-12.37589,51.5662,-16.38659,14.53,-0.04,1.28,3.0
1758088960.70856,1758088960.72654,0.0,0.0,0.0,-13.34992,55.7488,-9.33921,15.7,0.93,2.12,3.0
1758088960.72436,1758088960.73654,0.0,0.0,0.0,-14.83961,54.94666,-4.23989,15.7,0.93,2.12,3.0
1758088960.7404,1758088960.74654,0.0,0.0,0.0,-15.98552,50.99325,0.45837,14.49,2.14,2.72,3.0
1758088960.76982,1758088960.75654,0.0,0.0,0.0,-16.50119,44.23235,4.52637,14.49,2.14,2.72,3.0
1758088960.77069,1758088960.76654,0.0,0.0,0.0,-15.92823,34.37747,8.65166,13.18,2.31,2.96,3.0
1758088960.77148,1758088960.77654,0.0,0.0,0.0,-15.24068,28.13223,10.8289,12.69,1.53,2.88,3.0
1758088960.77335,1758088960.78654,0.0,0.0,0.0,-14.61043,21.25674,12.37589,12.69,1.53,2.88,3.0
1758088960.78936,1758088960.79654,0.0,0.0,0.0,-14.43854,14.09476,12.89155,11.21,0.64,2.98,3.0
1758088960.79093,1758088960.80654,0.0,0.0,0.0,-14.78231,1.66158,12.37589,11.21,0.64,2.98,3.0
1758088960.80641,1758088960.81654,0.0,0.0,0.0,-15.35527,-9.4538,10.8862,9.0,0.17,3.11,3.0
1758088960.80872,1758088960.82654,0.0,0.0,0.0,-17.6471,-21.7724,8.99544,9.0,0.17,3.11,3.0
1758088960.82387,1758088960.83654,0.0,0.0,0.0,-24.23611,-37.92981,4.92744,7.0,-0.16,3.4,3.0
1758088960.84229,1758088960.84654,0.0,0.0,0.0,-26.47065,-54.431,3.49504,6.59,-0.14,2.88,3.0
1758088960.84256,1758088960.85654,0.0,0.0,0.0,-25.43933,-61.1346,2.6929,6.59,-0.14,2.88,3.0
1758088960.85584,1758088960.86654,0.0,0.0,0.0,-22.97561,-66.11933,1.94806,7.26,0.61,3.53,3.0
1758088960.85738,1758088960.87654,0.0,0.0,0.0,-19.99623,-73.2813,0.74485,7.26,0.61,3.53,3.0
1758088960.87282,1758088960.88654,0.0,0.0,0.0,-18.62113,-74.59911,-0.0573,6.86,0.64,2.23,3.0
1758088960.8885,1758088960.89654,0.0,0.0,0.0,-18.22006,-71.79161,-1.03132,6.86,0.64,2.23,3.0
1758088960.88963,1758088960.90654,0.0,0.0,0.0,-18.56383,-67.55173,-1.83346,7.68,0.46,1.98,3.0
1758088960.90435,1758088960.91654,0.0,0.0,0.0,-20.22541,-61.42108,-2.6929,7.96,0.46,1.65,3.0
1758088960.90779,1758088960.92654,0.0,0.0,0.0,-21.48592,-56.49364,-3.26586,7.96,0.34,1.65,3.0
1758088960.92451,1758088960.93654,0.0,0.0,0.0,-22.97561,-51.16513,-3.03668,8.14,0.33,1.28,3.0
1758088960.94049,1758088960.94654,0.0,0.0,0.0,-24.80907,-44.57612,-2.23454,8.14,0.33,1.28,3.0
1758088960.94188,1758088960.95654,0.0,0.0,0.0,-27.84575,-31.2262,0.57296,8.85,0.39,0.98,3.0
1758088960.95769,1758088960.96654,0.0,0.0,0.0,-30.36677,-21.25674,3.26586,8.85,0.39,0.98,3.0
1758088960.95997,1758088960.97654,0.0,0.0,0.0,-33.00237,-11.34457,6.47442,9.57,0.66,0.67,3.0
1758088960.97454,1758088960.98654,0.0,0.0,0.0,-35.58068,-2.11994,9.4538,9.57,0.66,0.67,3.0
1758088960.97652,1758088960.99654,0.0,0.0,0.0,-39.82057,10.48513,13.98017,9.77,1.01,0.6,3.0
1758088960.9925,1758088961.00654,0.0,0.0,0.0,-42.22699,18.33465,16.21471,9.68,1.16,0.57,3.0
1758088961.00851,1758088961.01654,0.0,0.0,0.0,-44.17505,26.35606,17.81899,9.68,1.16,0.57,3.0
1758088961.00967,1758088961.02654,0.0,0.0,0.0,-46.1804,32.77319,18.10547,9.21,0.99,0.7,3.0
1758088961.02446,1758088961.03654,0.0,0.0,0.0,-48.70141,40.04975,16.73037,9.21,0.99,0.7,3.0
1758088961.02643,1758088961.04654,0.0,0.0,0.0,-50.13381,40.7373,17.53251,8.45,0.54,0.95,3.0
1758088961.04255,1758088961.05654,0.0,0.0,0.0,-51.90998,45.55015,15.35527,8.45,0.54,0.95,3.0
1758088961.05855,1758088961.06654,0.0,0.0,0.0,-51.90998,48.64412,12.08941,8.62,-0.04,0.98,3.0
1758088961.05999,1758088961.07654,0.0,0.0,0.0,-51.73809,50.93595,7.39116,7.94,-0.5,0.55,3.0
1758088961.07479,1758088961.08654,0.0,0.0,0.0,-49.21708,49.27437,2.11994,7.94,-0.5,0.55,3.0
1758088961.07657,1758088961.09654,0.0,0.0,0.0,-46.40959,45.55015,-1.94806,7.39,-0.81,0.83,3.0
1758088961.09347,1758088961.10654,0.0,0.0,0.0,-40.50812,43.37291,-7.44845,7.39,-0.81,0.83,3.0
1758088961.10849,1758088961.11654,0.0,0.0,0.0,-36.03905,40.96649,-9.05273,7.82,-1.1,0.82,3.0
1758088961.10972,1758088961.12654,0.0,0.0,0.0,-31.16891,38.27358,-9.39651,7.82,-1.1,0.82,3.0
1758088961.12459,1758088961.13654,0.0,0.0,0.0,-26.52795,34.60666,-8.59437,7.8,-1.34,0.7,3.0
1758088961.1258,1758088961.14654,0.0,0.0,0.0,-20.11082,28.24682,-5.61499,7.77,-1.39,0.9,3.0
1758088961.14189,1758088961.15654,0.0,0.0,0.0,-16.3293,21.94428,-3.03668,7.77,-1.39,0.9,3.0
1758088961.15793,1758088961.16654,0.0,0.0,0.0,-13.23533,15.92823,-0.45837,7.81,-1.25,1.13,3.0
1758088961.15962,1758088961.17654,0.0,0.0,0.0,-11.11538,9.74028,1.94806,7.81,-1.25,1.13,3.0
1758088961.17489,1758088961.18654,0.0,0.0,0.0,-9.11003,0.0,4.58366,8.2,-0.84,1.31,3.0
1758088961.17665,1758088961.19654,0.0,0.0,0.0,-8.76626,-6.41713,5.21392,8.2,-0.84,1.31,3.0
1758088961.19289,1758088961.20654,0.0,0.0,0.0,-8.76626,-12.2613,5.4431,8.63,-0.31,1.35,3.0
1758088961.20867,1758088961.21654,0.0,0.0,0.0,-8.59437,-16.84496,4.81285,8.63,-0.31,1.35,3.0
1758088961.20985,1758088961.22654,0.0,0.0,0.0,-7.73493,-14.83961,1.66158,9.02,0.04,1.01,3.0
1758088961.22493,1758088961.23654,0.0,0.0,0.0,-7.04738,-10.65701,-1.20321,9.69,0.1,0.77,3.0
1758088961.22745,1758088961.24654,0.0,0.0,0.0,-5.90147,-5.72958,-4.18259,9.69,0.1,0.77,3.0
1758088961.24469,1758088961.25654,0.0,0.0,0.0,-3.49504,-1.60428,-6.7609,10.08,-0.11,1.01,3.0
1758088961.24746,1758088961.26654,0.0,0.0,0.0,-1.20321,1.66158,-6.35983,10.08,-0.11,1.01,3.0
1758088961.2649,1758088961.27654,0.0,0.0,0.0,0.68755,0.22918,-4.69825,10.27,-0.48,0.67,3.0
1758088961.26586,1758088961.28654,0.0,0.0,0.0,3.09397,-0.57296,-2.06265,10.27,-0.48,0.67,3.0
1758088961.28199,1758088961.29654,0.0,0.0,0.0,7.04738,0.17189,2.97938,10.96,-0.81,0.39,3.0
1758088961.29801,1758088961.30654,0.0,0.0,0.0,9.96947,1.60428,6.24524,11.88,-0.98,0.37,3.0
1758088961.29968,1758088961.31654,0.0,0.0,0.0,12.43318,3.09397,8.88085,11.88,-0.98,0.37,3.0
1758088961.31461,1758088961.32654,0.0,0.0,0.0,14.43854,-10.37054,8.76626,11.08,-1.03,0.67,3.0
1758088961.31663,1758088961.33654,0.0,0.0,0.0,18.62113,-49.21708,11.34457,11.08,-1.03,0.67,3.0
1758088961.33249,1758088961.34654,0.0,0.0,0.0,18.90761,-29.96569,15.41257,11.42,-1.13,1.57,3.0
1758088961.34958,1758088961.35654,0.0,0.0,0.0,16.61578,-1.08862,15.64175,11.42,-1.13,1.57,3.0
1758088961.3507,1758088961.36654,0.0,0.0,0.0,13.5791,25.7831,17.47521,18.57,-0.18,3.39,3.0
1758088961.3665,1758088961.37654,0.0,0.0,0.0,7.10468,39.13302,18.22006,16.58,1.18,3.93,3.0
1758088961.37008,1758088961.38654,0.0,0.0,0.0,4.46907,30.65324,17.76169,16.58,1.18,3.93,3.0
1758088961.3865,1758088961.39654,0.0,0.0,0.0,1.48969,16.67307,15.69904,13.72,1.3,3.45,3.0
1758088961.39065,1758088961.40654,0.0,0.0,0.0,-2.57831,7.73493,11.80293,13.72,1.3,3.45,3.0
1758088961.4068,1758088961.41654,0.0,0.0,0.0,-3.55234,3.03668,6.7609,14.04,0.54,3.17,3.0
1758088961.40775,1758088961.42654,0.0,0.0,0.0,-3.09397,3.38045,4.35448,14.04,0.54,3.17,3.0
1758088961.42276,1758088961.43654,0.0,0.0,0.0,-2.40642,4.64096,2.40642,14.19,-0.31,3.06,3.0
1758088961.42478,1758088961.44654,0.0,0.0,0.0,-1.94806,6.07335,0.11459,14.19,-0.31,3.06,3.0
1758088961.44081,1758088961.45654,0.0,0.0,0.0,-1.60428,6.35983,-0.97403,12.86,-0.8,2.55,3.0
1758088961.45692,1758088961.46654,0.0,0.0,0.0,-1.20321,5.15662,-1.71887,10.69,-0.8,2.07,3.0
1758088961.45796,1758088961.47654,0.0,0.0,0.0,-0.85944,3.89611,-2.34913,10.69,-0.8,2.07,3.0
1758088961.47369,1758088961.48654,0.0,0.0,0.0,0.97403,-2.40642,-1.83346,8.65,-0.6,2.52,3.0
1758088961.47472,1758088961.49654,0.0,0.0,0.0,2.57831,-11.34457,-0.97403,8.65,-0.6,2.52,3.0
1758088961.49207,1758088961.50654,0.0,0.0,0.0,4.46907,-23.89234,0.0573,6.3,-0.48,3.45,3.0
1758088961.5091,1758088961.51654,0.0,0.0,0.0,6.53172,-34.49206,1.08862,6.3,-0.48,3.45,3.0
1758088961.51006,1758088961.52654,0.0,0.0,0.0,10.19865,-43.60209,2.06265,5.7,-0.5,3.25,3.0
1758088961.52475,1758088961.53654,0.0,0.0,0.0,13.00614,-46.1231,2.40642,7.11,-0.53,2.58,3.0
1758088961.5288,1758088961.54654,0.0,0.0,0.0,16.04282,-46.46688,2.63561,7.11,-0.53,2.58,3.0
1758088961.54409,1758088961.55654,0.0,0.0,0.0,19.19409,-44.11775,2.40642,8.68,-0.44,2.25,3.0
1758088961.54503,1758088961.56654,0.0,0.0,0.0,24.57989,-35.2369,1.60428,8.68,-0.44,2.25,3.0
1758088961.5619,1758088961.57654,0.0,0.0,0.0,28.87707,-28.476,2.63561,9.61,-0.24,1.65,3.0
1758088961.57913,1758088961.58654,0.0,0.0,0.0,32.88778,-22.86102,3.89611,9.61,-0.24,1.65,3.0
1758088961.58005,1758088961.59654,0.0,0.0,0.0,36.21093,-18.62113,5.27121,9.3,0.02,1.56,3.0
1758088961.59515,1758088961.60654,0.0,0.0,0.0,39.76327,-11.28727,6.58902,8.77,0.41,1.8,3.0
1758088961.59609,1758088961.61654,0.0,0.0,0.0,41.31026,-5.78687,6.70361,8.77,0.41,1.8,3.0
1758088961.61112,1758088961.62654,0.0,0.0,0.0,42.22699,0.0573,5.84417,8.8,0.86,1.84,3.0
1758088961.62818,1758088961.63654,0.0,0.0,0.0,42.39888,5.32851,4.1253,8.8,0.86,1.84,3.0
1758088961.62905,1758088961.64654,0.0,0.0,0.0,41.71133,11.80293,0.34377,8.85,1.06,1.84,3.0
1758088961.64416,1758088961.65654,0.0,0.0,0.0,40.85189,14.72501,-2.6929,8.85,1.06,1.84,3.0
1758088961.64506,1758088961.66654,0.0,0.0,0.0,40.27893,17.24603,-5.95876,8.94,0.82,1.93,3.0
1758088961.66206,1758088961.67654,0.0,0.0,0.0,39.64868,19.53786,-9.68299,8.94,0.82,1.93,3.0
1758088961.67867,1758088961.68654,0.0,0.0,0.0,39.70598,20.62648,-11.17268,8.87,0.35,1.95,3.0
1758088961.67988,1758088961.69654,0.0,0.0,0.0,39.99245,21.48592,-11.97482,8.52,0.0,1.95,3.0
1758088961.69491,1758088961.70654,0.0,0.0,0.0,40.7373,22.28806,-11.74564,8.52,0.0,1.95,3.0
1758088961.69613,1758088961.71654,0.0,0.0,0.0,41.71133,20.51189,-10.31324,8.0,-0.05,1.89,3.0
1758088961.71116,1758088961.72654,0.0,0.0,0.0,42.74266,18.9649,-8.25059,8.0,-0.05,1.89,3.0
1758088961.72787,1758088961.73654,0.0,0.0,0.0,43.88857,16.50119,-6.47442,7.59,0.09,1.74,3.0
1758088961.7299,1758088961.74654,0.0,0.0,0.0,44.46153,13.5791,-4.58366,7.59,0.09,1.74,3.0
1758088961.74519,1758088961.75654,0.0,0.0,0.0,45.14908,9.68299,-3.20856,7.33,0.37,1.52,3.0
1758088961.74701,1758088961.76654,0.0,0.0,0.0,44.63341,7.62034,-2.34913,7.31,0.68,1.22,3.0
1758088961.76196,1758088961.77654,0.0,0.0,0.0,43.94586,5.61499,-1.48969,7.31,0.68,1.22,3.0
1758088961.77809,1758088961.78654,0.0,0.0,0.0,42.57077,4.35448,-0.74485,7.45,0.92,1.04,3.0
1758088961.77917,1758088961.79654,0.0,0.0,0.0,39.19032,2.92208,0.17189,7.45,0.92,1.04,3.0
1758088961.79396,1758088961.80654,0.0,0.0,0.0,36.26823,1.83346,0.80214,7.64,1.06,0.99,3.0
1758088961.79514,1758088961.81654,0.0,0.0,0.0,33.17426,1.3178,1.20321,7.64,1.06,0.99,3.0
1758088961.81084,1758088961.82654,0.0,0.0,0.0,29.62192,1.20321,1.83346,8.04,1.17,0.95,3.0
1758088961.82829,1758088961.83654,0.0,0.0,0.0,24.63719,2.6929,2.63561,8.57,1.17,0.89,3.0
1758088961.8292,1758088961.84654,0.0,0.0,0.0,21.60051,4.23989,2.97938,8.57,1.17,0.89,3.0
1758088961.84423,1758088961.85654,0.0,0.0,0.0,18.79302,6.35983,3.26586,8.98,1.0,0.95,3.0
1758088961.84522,1758088961.86654,0.0,0.0,0.0,15.58445,9.11003,3.89611,8.98,1.0,0.95,3.0
1758088961.8612,1758088961.87654,0.0,0.0,0.0,14.32395,12.71966,3.49504,9.3,0.73,1.03,3.0
1758088961.87726,1758088961.88654,0.0,0.0,0.0,13.5791,14.83961,3.66693,9.3,0.73,1.03,3.0
1758088961.87896,1758088961.89654,0.0,0.0,0.0,13.00614,16.95955,3.38045,9.39,0.49,1.2,3.0
1758088961.894,1758088961.90654,0.0,0.0,0.0,12.37589,20.05352,2.57831,9.39,0.49,1.2,3.0
1758088961.89523,1758088961.91654,0.0,0.0,0.0,12.08941,20.3973,2.57831,9.44,0.4,1.18,3.0
1758088961.91101,1758088961.92654,0.0,0.0,0.0,11.74564,19.07949,2.46372,9.25,0.45,1.19,3.0
1758088961.92797,1758088961.93654,0.0,0.0,0.0,11.00079,17.30333,2.86479,9.25,0.45,1.19,3.0
1758088961.92939,1758088961.94654,0.0,0.0,0.0,9.05273,13.23533,3.89611,9.37,0.56,1.26,3.0
1758088961.94432,1758088961.95654,0.0,0.0,0.0,7.33386,9.33921,4.0107,9.37,0.56,1.26,3.0
1758088961.94525,1758088961.96654,0.0,0.0,0.0,4.92744,6.13065,4.23989,9.46,0.76,1.18,3.0
1758088961.96107,1758088961.97654,0.0,0.0,0.0,2.40642,3.89611,3.66693,9.46,0.76,1.18,3.0
1758088961.9771,1758088961.98654,0.0,0.0,0.0,-1.60428,-0.11459,2.46372,9.8,0.97,1.02,3.0
1758088961.97819,1758088961.99654,0.0,0.0,0.0,-3.89611,-4.29718,1.3178,9.86,1.08,1.01,3.0
1758088961.99333,1758088962.00654,0.0,0.0,0.0,-6.13065,-8.76626,0.0,9.86,1.08,1.01,3.0
1758088962.00926,1758088962.01654,0.0,0.0,0.0,-8.70896,-11.17268,-2.6929,9.95,1.06,1.04,3.0
1758088962.0103,1758088962.02654,0.0,0.0,0.0,-11.97482,-12.83425,-6.58902,9.95,1.06,1.04,3.0
1758088962.0251,1758088962.03654,0.0,0.0,0.0,-13.5218,-14.49583,-9.85487,10.14,1.03,0.98,3.0
1758088962.02788,1758088962.04654,0.0,0.0,0.0,-14.83961,-18.9649,-12.204,10.14,1.03,0.98,3.0
1758088962.04381,1758088962.05654,0.0,0.0,0.0,-15.92823,-23.83505,-14.20935,9.79,0.92,0.91,3.0
1758088962.04581,1758088962.06654,0.0,0.0,0.0,-16.272,-27.73116,-16.95955,9.95,0.64,0.85,3.0
1758088962.06208,1758088962.07654,0.0,0.0,0.0,-16.84496,-27.61657,-18.16276,9.95,0.64,0.85,3.0
1758088962.07918,1758088962.08654,0.0,0.0,0.0,-17.18874,-24.80907,-18.50654,10.87,0.54,1.0,3.0
1758088962.08003,1758088962.09654,0.0,0.0,0.0,-15.35527,-19.13679,-15.75634,10.87,0.54,1.0,3.0
1758088962.09536,1758088962.10654,0.0,0.0,0.0,-13.12073,-40.16434,-18.10547,10.78,0.63,1.9,3.0
1758088962.09632,1758088962.11654,0.0,0.0,0.0,-10.8289,-37.81522,-25.55392,10.78,0.63,1.9,3.0
1758088962.11136,1758088962.12654,0.0,0.0,0.0,-5.4431,-30.48136,-27.50197,12.2,0.84,2.42,3.0
1758088962.12893,1758088962.13654,0.0,0.0,0.0,-2.23454,-10.25595,-32.37212,12.2,0.84,0.34,3.0
1758088962.12991,1758088962.14654,0.0,0.0,0.0,-0.40107,3.55234,-33.40344,13.44,0.53,0.34,3.0
1758088962.14614,1758088962.15654,0.0,0.0,0.0,0.68755,15.06879,-32.08564,13.05,0.2,1.23,3.0
1758088962.14706,1758088962.16654,0.0,0.0,0.0,1.3178,21.14215,-28.59059,13.05,0.2,1.23,3.0
1758088962.16203,1758088962.17654,0.0,0.0,0.0,2.57831,28.01764,-22.11617,12.62,0.18,1.86,3.0
1758088962.17818,1758088962.18654,0.0,0.0,0.0,3.26586,33.40344,-16.84496,12.62,0.18,1.86,3.0
1758088962.17984,1758088962.19654,0.0,0.0,0.0,3.03668,37.29956,-11.91752,13.41,0.86,2.27,3.0
1758088962.19499,1758088962.20654,0.0,0.0,0.0,3.32316,39.19032,-7.39116,13.41,0.86,2.27,3.0
1758088962.19623,1758088962.21654,0.0,0.0,0.0,3.66693,40.68,-1.83346,13.57,1.61,2.83,3.0
1758088962.21141,1758088962.22654,0.0,0.0,0.0,4.29718,40.45082,0.74485,14.2,1.87,3.28,3.0
1758088962.24606,1758088962.23654,0.0,0.0,0.0,4.81285,39.24761,2.97938,14.2,1.87,3.28,3.0
1758088962.24969,1758088962.24654,0.0,0.0,0.0,4.87014,37.24226,4.69825,14.39,1.8,3.17,3.0
1758088962.25024,1758088962.25654,0.0,0.0,0.0,3.26586,31.74186,6.58902,14.39,1.8,3.17,3.0
1758088962.25151,1758088962.26654,0.0,0.0,0.0,1.3751,25.15285,7.33386,13.34,1.8,3.38,3.0
1758088962.26737,1758088962.27654,0.0,0.0,0.0,-1.20321,16.55848,7.79223,13.34,1.8,3.38,3.0
1758088962.26839,1758088962.28654,0.0,0.0,0.0,-6.24524,6.7609,7.67763,11.32,1.73,3.5,3.0
1758088962.28324,1758088962.29654,0.0,0.0,0.0,-10.08406,-9.39651,7.04738,9.24,1.53,3.48,3.0
1758088962.29914,1758088962.30654,0.0,0.0,0.0,-13.75099,-21.02755,6.13065,9.24,1.53,3.48,3.0
1758088962.30032,1758088962.31654,0.0,0.0,0.0,-16.84496,-32.48671,5.27121,7.62,1.3,3.72,3.0
1758088962.31528,1758088962.32654,0.0,0.0,0.0,-21.14215,-45.83662,3.72423,7.62,1.3,3.72,3.0
1758088962.31641,1758088962.33654,0.0,0.0,0.0,-23.60586,-52.13916,2.6929,7.23,1.15,3.33,3.0
1758088962.33154,1758088962.34654,0.0,0.0,0.0,-25.55392,-57.23849,1.3751,7.23,1.15,3.33,3.0
1758088962.34724,1758088962.35654,0.0,0.0,0.0,-26.75713,-60.16057,0.22918,7.49,1.01,2.91,3.0
1758088962.34843,1758088962.36654,0.0,0.0,0.0,-28.07493,-62.5097,-1.60428,8.1,1.01,2.44,3.0
1758088962.3633,1758088962.37654,0.0,0.0,0.0,-28.36141,-61.42108,-2.7502,8.1,0.78,2.44,3.0
1758088962.36535,1758088962.38654,0.0,0.0,0.0,-28.76248,-59.64491,-3.72423,8.68,0.47,2.16,3.0
1758088962.38128,1758088962.39654,0.0,0.0,0.0,-28.87707,-56.60823,-4.35448,8.68,0.47,2.16,3.0
1758088962.39758,1758088962.40654,0.0,0.0,0.0,-28.70519,-51.73809,-4.69825,8.69,0.15,1.99,3.0
1758088962.39935,1758088962.41654,0.0,0.0,0.0,-32.14294,-48.52953,-2.34913,8.69,0.15,1.99,3.0
1758088962.4143,1758088962.42654,0.0,0.0,0.0,-34.32018,-48.24305,-0.68755,7.89,-1.55,1.15,3.0
1758088962.41549,1758088962.43654,0.0,0.0,0.0,-33.00237,-38.21629,0.74485,7.89,-1.55,1.15,3.0
1758088962.4313,1758088962.44654,0.0,0.0,0.0,-29.67921,-26.69983,4.69825,9.54,0.73,2.28,3.0
1758088962.44817,1758088962.45654,0.0,0.0,0.0,-27.67386,-20.97026,7.67763,8.05,1.02,0.94,3.0
1758088962.4493,1758088962.46654,0.0,0.0,0.0,-26.18417,-13.12073,9.91217,8.05,1.02,0.94,3.0
1758088962.4642,1758088962.47654,0.0,0.0,0.0,-24.92367,-6.07335,13.86558,8.66,0.65,1.15,3.0
1758088962.46546,1758088962.48654,0.0,0.0,0.0,-23.94964,3.26586,16.55848,8.66,0.65,1.15,3.0
1758088962.48214,1758088962.49654,0.0,0.0,0.0,-23.54857,9.11003,18.56383,9.16,0.24,1.08,3.0
1758088962.49836,1758088962.50654,0.0,0.0,0.0,-23.60586,15.12609,20.22541,9.16,0.24,1.08,3.0
1758088962.49955,1758088962.51654,0.0,0.0,0.0,-24.63719,22.34536,21.94428,9.16,0.01,0.72,3.0
1758088962.5144,1758088962.52654,0.0,0.0,0.0,-26.06958,27.67386,21.88699,9.04,-0.02,0.9,3.0
1758088962.51641,1758088962.53654,0.0,0.0,0.0,-28.30412,26.87172,22.86102,9.04,-0.02,0.9,3.0
1758088962.53311,1758088962.54654,0.0,0.0,0.0,-30.48136,30.65324,23.20479,8.98,0.08,1.08,3.0
1758088962.54936,1758088962.55654,0.0,0.0,0.0,-33.86181,34.26288,22.05888,8.98,0.08,1.08,3.0
1758088962.55057,1758088962.56654,0.0,0.0,0.0,-35.58068,34.09099,20.62648,8.75,0.36,0.89,3.0
1758088962.5669,1758088962.57654,0.0,0.0,0.0,-37.18496,33.86181,18.50654,8.75,0.36,0.89,3.0
1758088962.5697,1758088962.58654,0.0,0.0,0.0,-38.1017,32.6013,15.58445,8.32,0.51,1.29,3.0
1758088962.58696,1758088962.59654,0.0,0.0,0.0,-39.01843,31.74186,10.59972,8.18,0.51,1.28,3.0
1758088962.58979,1758088962.60654,0.0,0.0,0.0,-38.50277,30.02299,7.44845,8.18,0.51,1.28,3.0
1758088962.60703,1758088962.61654,0.0,0.0,0.0,-37.12767,28.01764,4.87014,8.01,0.14,1.29,3.0
1758088962.60974,1758088962.62654,0.0,0.0,0.0,-35.2369,25.61122,2.6929,8.01,0.14,1.29,3.0
1758088962.62543,1758088962.63654,0.0,0.0,0.0,-31.91375,21.31403,1.3178,8.07,-0.45,1.19,3.0
1758088962.62904,1758088962.64654,0.0,0.0,0.0,-29.56462,17.58981,0.80214,8.07,-0.45,1.19,3.0
1758088962.64444,1758088962.65654,0.0,0.0,0.0,-27.10091,14.9542,0.85944,8.34,-0.86,1.14,3.0
1758088962.64664,1758088962.66654,0.0,0.0,0.0,-25.09555,11.45916,1.14592,8.34,-0.86,1.14,3.0
1758088962.66702,1758088962.67654,0.0,0.0,0.0,-22.40265,5.32851,2.00535,8.64,-0.97,1.27,3.0
1758088962.67224,1758088962.68654,0.0,0.0,0.0,-21.31403,1.14592,2.6929,8.81,-0.81,1.34,3.0
1758088962.709,1758088962.69654,0.0,0.0,0.0,-20.51189,-2.63561,3.49504,8.81,-0.81,1.34,3.0
1758088962.71023,1758088962.70654,0.0,0.0,0.0,-20.11082,-7.84952,4.52637,9.11,-0.48,1.35,3.0
1758088962.71079,1758088962.71654,0.0,0.0,0.0,-20.05352,-11.00079,4.98473,9.11,-0.48,1.35,3.0
1758088962.71474,1758088962.72654,0.0,0.0,0.0,-20.11082,-14.38124,5.4431,9.32,-0.11,1.28,3.0
1758088962.7295,1758088962.73654,0.0,0.0,0.0,-20.05352,-16.272,5.90147,9.32,-0.11,1.28,3.0
1758088962.73226,1758088962.74654,0.0,0.0,0.0,-19.70975,-14.38124,4.87014,9.35,0.05,1.13,3.0
1758088962.7475,1758088962.75654,0.0,0.0,0.0,-19.25138,-11.80293,3.38045,9.53,0.06,0.97,3.0
1758088962.75025,1758088962.76654,0.0,0.0,0.0,-18.62113,-8.99544,1.3751,9.53,0.06,0.97,3.0
1758088962.76537,1758088962.77654,0.0,0.0,0.0,-17.53251,-5.95876,-1.14592,9.45,-0.05,0.93,3.0
1758088962.76821,1758088962.78654,0.0,0.0,0.0,-15.41257,0.22918,-4.69825,9.45,-0.05,0.93,3.0
1758088962.78483,1758088962.79654,0.0,0.0,0.0,-13.46451,4.81285,-5.95876,9.64,-0.39,0.76,3.0
1758088962.83474,1758088962.80654,0.0,0.0,0.0,-11.11538,6.58902,-6.24524,9.64,-0.39,0.76,3.0
1758088962.83674,1758088962.81654,0.0,0.0,0.0,-8.70896,5.78687,-5.27121,9.59,-0.78,0.67,3.0
1758088962.83896,1758088962.82654,0.0,0.0,0.0,-4.92744,3.38045,-2.29183,9.76,-0.99,0.61,3.0
1758088962.83988,1758088962.83654,0.0,0.0,0.0,-2.23454,3.20856,0.51566,9.76,-0.99,0.61,3.0
1758088962.84051,1758088962.84654,0.0,0.0,0.0,0.51566,3.60963,3.55234,10.16,-0.96,0.59,3.0
1758088962.84493,1758088962.85654,0.0,0.0,0.0,3.09397,3.72423,6.53172,10.16,-0.96,0.59,3.0
1758088962.84828,1758088962.86654,0.0,0.0,0.0,6.87549,2.11994,10.19865,10.09,-0.87,0.8,3.0
1758088962.86453,1758088962.87654,0.0,0.0,0.0,8.88085,-2.86479,11.63104,10.09,-0.87,0.8,3.0
1758088962.86653,1758088962.88654,0.0,0.0,0.0,10.48513,-13.00614,12.54778,9.54,-0.82,1.05,3.0
1758088962.8845,1758088962.89654,0.0,0.0,0.0,11.91752,-22.91831,13.23533,9.54,-0.82,1.05,3.0
1758088962.88575,1758088962.90654,0.0,0.0,0.0,13.40721,-19.99623,12.83425,9.6,-0.87,1.24,3.0
1758088962.90345,1758088962.91654,0.0,0.0,0.0,13.5791,-2.11994,12.54778,12.65,-0.91,1.29,3.0
1758088962.91887,1758088962.92654,0.0,0.0,0.0,13.69369,17.53251,11.91752,12.65,-0.91,1.29,3.0
1758088962.9198,1758088962.93654,0.0,0.0,0.0,12.60507,39.4195,11.22997,13.33,-0.73,1.71,3.0
1758088962.9348,1758088962.94654,0.0,0.0,0.0,14.09476,34.89313,11.63104,13.33,-0.73,1.71,3.0
1758088962.93582,1758088962.95654,0.0,0.0,0.0,13.23533,23.0902,10.8289,11.5,-0.4,2.16,3.0
1758088962.95161,1758088962.96654,0.0,0.0,0.0,10.48513,7.10468,11.91752,11.5,-0.4,2.16,3.0
1758088962.96761,1758088962.97654,0.0,0.0,0.0,7.16197,0.17189,15.46986,12.37,-0.23,2.22,3.0
1758088962.9688,1758088962.98654,0.0,0.0,0.0,6.87549,5.27121,16.73037,15.46,-0.5,2.44,3.0
1758088962.98362,1758088962.99654,0.0,0.0,0.0,6.99009,14.66772,17.93358,15.46,-0.5,2.44,3.0
1758088962.99961,1758088963.00654,0.0,0.0,0.0,7.39116,22.57454,18.56383,15.87,-0.92,3.33,3.0
1758088963.0008,1758088963.01654,0.0,0.0,0.0,7.10468,31.2262,17.93358,15.87,-0.92,3.33,3.0
1758088963.0165,1758088963.02654,0.0,0.0,0.0,6.24524,35.12231,15.75634,14.95,-1.13,2.86,3.0
1758088963.01845,1758088963.03654,0.0,0.0,0.0,4.92744,37.92981,11.97482,14.95,-1.13,2.86,3.0
1758088963.03392,1758088963.04654,0.0,0.0,0.0,4.18259,39.01843,7.73493,14.28,-0.8,2.62,3.0
1758088963.04964,1758088963.05654,0.0,0.0,0.0,4.1253,37.35685,1.08862,13.13,-0.45,2.58,3.0
1758088963.05082,1758088963.06654,0.0,0.0,0.0,4.81285,32.88778,-2.7502,13.13,-0.45,2.58,3.0
1758088963.0664,1758088963.07654,0.0,0.0,0.0,6.24524,27.10091,-5.61499,10.98,-0.31,2.55,3.0
1758088963.06959,1758088963.08654,0.0,0.0,0.0,7.84952,21.6578,-7.10468,10.98,-0.31,2.55,3.0
1758088963.08471,1758088963.09654,0.0,0.0,0.0,11.17268,14.32395,-7.33386,9.32,-0.39,2.36,3.0
1758088963.08676,1758088963.10654,0.0,0.0,0.0,13.69369,7.39116,-5.95876,9.32,-0.39,2.36,3.0
1758088963.10298,1758088963.11654,0.0,0.0,0.0,16.04282,-2.63561,-4.58366,7.6,-0.55,2.53,3.0
1758088963.11867,1758088963.12654,0.0,0.0,0.0,18.73572,-19.53786,-0.74485,7.6,-0.55,2.53,3.0
1758088963.11981,1758088963.13654,0.0,0.0,0.0,20.05352,-30.82513,1.08862,6.2,-0.73,3.14,3.0
1758088963.13513,1758088963.14654,0.0,0.0,0.0,21.02755,-37.87251,2.46372,6.36,-0.87,2.91,3.0
1758088963.13591,1758088963.15654,0.0,0.0,0.0,21.88699,-41.25296,3.09397,6.36,-0.87,2.91,3.0
1758088963.15176,1758088963.16654,0.0,0.0,0.0,22.40265,-40.7946,3.20856,7.9,-0.76,2.48,3.0
1758088963.16773,1758088963.17654,0.0,0.0,0.0,22.86102,-37.87251,2.7502,7.9,-0.76,2.48,3.0
1758088963.16913,1758088963.18654,0.0,0.0,0.0,23.37668,-33.9764,2.34913,9.01,-0.43,2.3,3.0
1758088963.18376,1758088963.19654,0.0,0.0,0.0,24.57989,-30.53865,2.11994,9.01,-0.43,2.3,3.0
1758088963.19975,1758088963.20654,0.0,0.0,0.0,26.87172,-26.75713,1.71887,9.21,-0.16,2.06,3.0
1758088963.20096,1758088963.21654,0.0,0.0,0.0,28.41871,-24.17882,1.60428,8.96,0.08,2.07,3.0
1758088963.2158,1758088963.22654,0.0,0.0,0.0,30.30947,-19.88164,0.51566,8.96,0.08,2.07,3.0
1758088963.21698,1758088963.23654,0.0,0.0,0.0,31.97105,-14.43854,-0.85944,8.95,0.21,2.03,3.0
1758088963.23173,1758088963.24654,0.0,0.0,0.0,34.0337,-7.50575,-3.95341,8.95,0.21,2.03,3.0
1758088963.24871,1758088963.25654,0.0,0.0,0.0,35.3515,-2.92208,-6.53172,8.77,0.17,2.08,3.0
1758088963.24988,1758088963.26654,0.0,0.0,0.0,36.21093,2.00535,-9.74028,8.77,0.17,2.08,3.0
1758088963.26501,1758088963.27654,0.0,0.0,0.0,37.29956,6.8182,-12.83425,9.16,-0.01,2.1,3.0
1758088963.26599,1758088963.28654,0.0,0.0,0.0,38.27358,11.86023,-17.18874,9.26,-0.28,2.02,3.0
1758088963.28176,1758088963.29654,0.0,0.0,0.0,39.13302,14.43854,-19.42327,9.26,-0.28,2.02,3.0
1758088963.29805,1758088963.30654,0.0,0.0,0.0,39.4768,15.75634,-20.3973,8.95,-0.45,1.98,3.0
1758088963.29897,1758088963.31654,0.0,0.0,0.0,40.68,18.27736,-20.68378,8.95,-0.45,1.98,3.0
1758088963.31397,1758088963.32654,0.0,0.0,0.0,41.65404,19.59516,-19.82434,8.43,-0.41,1.85,3.0
1758088963.32977,1758088963.33654,0.0,0.0,0.0,42.1124,18.62113,-17.99088,8.43,-0.41,1.85,3.0
1758088963.33102,1758088963.34654,0.0,0.0,0.0,41.99781,16.73037,-15.98552,7.78,-0.15,1.91,3.0
1758088963.34595,1758088963.35654,0.0,0.0,0.0,42.34158,12.83425,-11.74564,7.78,-0.15,1.91,3.0
1758088963.34703,1758088963.36654,0.0,0.0,0.0,42.34158,11.00079,-9.5684,7.38,0.25,1.66,3.0
1758088963.36371,1758088963.37654,0.0,0.0,0.0,41.59674,9.68299,-7.39116,7.36,0.67,1.38,3.0
1758088963.38013,1758088963.38654,0.0,0.0,0.0,41.02378,8.42248,-5.61499,7.36,0.67,1.38,3.0
1758088963.38101,1758088963.39654,0.0,0.0,0.0,38.61736,5.72958,-3.03668,7.27,0.94,1.28,3.0
1758088963.39616,1758088963.40654,0.0,0.0,0.0,36.95578,3.89611,-2.06265,7.27,0.94,1.28,3.0
1758088963.39706,1758088963.41654,0.0,0.0,0.0,34.66395,3.09397,-1.14592,7.36,1.13,1.28,3.0
1758088963.41215,1758088963.42654,0.0,0.0,0.0,31.62727,2.86479,-1.20321,7.36,1.13,1.28,3.0
1758088963.42888,1758088963.43654,0.0,0.0,0.0,26.69983,2.63561,-2.34913,7.76,1.24,1.18,3.0
1758088963.42988,1758088963.44654,0.0,0.0,0.0,22.91831,3.03668,-3.60963,8.23,1.3,1.25,3.0
1758088963.44491,1758088963.45654,0.0,0.0,0.0,19.25138,3.55234,-4.87014,8.23,1.3,1.25,3.0
1758088963.44639,1758088963.46654,0.0,0.0,0.0,16.04282,4.64096,-6.24524,8.73,1.23,1.29,3.0
1758088963.46505,1758088963.47654,0.0,0.0,0.0,11.63104,6.47442,-7.79223,8.73,1.23,1.29,3.0
1758088963.49466,1758088963.48654,0.0,0.0,0.0,9.62569,8.30789,-8.42248,9.12,1.0,1.38,3.0
1758088963.4971,1758088963.49654,0.0,0.0,0.0,7.96411,11.00079,-8.76626,9.12,1.0,1.38,3.0
1758088963.50619,1758088963.50654,0.0,0.0,0.0,6.8182,13.46451,-8.88085,9.48,0.79,1.53,3.0
1758088963.54785,1758088963.51654,0.0,0.0,0.0,5.72958,15.24068,-8.42248,9.43,0.62,1.45,3.0
1758088963.55043,1758088963.52654,0.0,0.0,0.0,4.87014,15.69904,-7.96411,9.43,0.62,1.45,3.0
1758088963.55978,1758088963.53654,0.0,0.0,0.0,4.46907,15.35527,-7.10468,9.49,0.52,1.47,3.0
1758088963.56061,1758088963.54654,0.0,0.0,0.0,3.26586,12.83425,-5.72958,9.49,0.52,1.47,3.0
1758088963.56406,1758088963.55654,0.0,0.0,0.0,1.83346,10.19865,-4.64096,9.4,0.56,1.41,3.0
1758088963.56484,1758088963.56654,0.0,0.0,0.0,0.40107,8.02141,-3.55234,9.4,0.56,1.41,3.0
1758088963.56594,1758088963.57654,0.0,0.0,0.0,-1.71887,6.18794,-2.7502,9.39,0.73,1.34,3.0
1758088963.5667,1758088963.58654,0.0,0.0,0.0,-5.50039,5.95876,-1.94806,9.39,0.73,1.08,3.0
1758088963.58403,1758088963.59654,0.0,0.0,0.0,-7.96411,6.70361,-1.71887,9.52,0.98,1.08,3.0
1758088963.59984,1758088963.60654,0.0,0.0,0.0,-10.48513,5.95876,-1.77617,9.68,1.15,1.21,3.0
1758088963.60109,1758088963.61654,0.0,0.0,0.0,-12.83425,4.0107,-2.11994,9.68,1.15,1.21,3.0
1758088963.61596,1758088963.62654,0.0,0.0,0.0,-16.67307,0.11459,-4.18259,9.89,1.27,1.38,3.0
1758088963.61721,1758088963.63654,0.0,0.0,0.0,-18.79302,-3.60963,-6.18794,9.89,1.27,1.38,3.0
1758088963.63209,1758088963.64654,0.0,0.0,0.0,-20.22541,-8.42248,-7.84952,10.15,1.36,1.35,3.0
1758088963.64819,1758088963.65654,0.0,0.0,0.0,-22.57454,-10.8289,-11.28727,10.15,1.36,1.35,3.0
1758088963.64923,1758088963.66654,0.0,0.0,0.0,-24.86637,-14.32395,-15.75634,10.32,1.27,1.5,3.0
1758088963.66426,1758088963.67654,0.0,0.0,0.0,-26.12688,-17.81899,-19.07949,10.24,1.02,1.53,3.0
1758088963.68027,1758088963.68654,0.0,0.0,0.0,-26.75713,-24.80907,-20.85567,10.24,1.02,1.53,3.0
1758088963.68122,1758088963.69654,0.0,0.0,0.0,-27.38738,-30.76784,-22.57454,9.96,0.7,1.66,3.0
1758088963.696,1758088963.70654,0.0,0.0,0.0,-27.33009,-34.95043,-23.54857,9.96,0.7,1.66,3.0
1758088963.69724,1758088963.71654,0.0,0.0,0.0,-27.33009,-32.37212,-23.72045,10.74,0.66,1.68,3.0
1758088963.71218,1758088963.72654,0.0,0.0,0.0,-26.81443,-26.64254,-23.31938,10.74,0.66,1.68,3.0
1758088963.72832,1758088963.73654,0.0,0.0,0.0,-25.72581,-16.90226,-21.6578,11.78,0.82,1.76,3.0
1758088963.72923,1758088963.74654,0.0,0.0,0.0,-22.63183,-12.60507,-17.36062,12.23,1.18,2.51,3.0
1758088963.74427,1758088963.75654,0.0,0.0,0.0,-20.3973,-25.61122,-22.74642,12.23,1.18,2.51,3.0
1758088963.76006,1758088963.76654,0.0,0.0,0.0,-15.41257,-25.49662,-25.72581,12.77,1.29,3.15,3.0
1758088963.76123,1758088963.77654,0.0,0.0,0.0,-8.99544,-12.77696,-33.68992,12.77,1.29,3.15,3.0
1758088963.77592,1758088963.78654,0.0,0.0,0.0,-5.32851,3.20856,-35.2369,15.58,0.92,1.35,3.0
1758088963.77717,1758088963.79654,0.0,0.0,0.0,-3.32316,13.12073,-34.14828,15.58,0.92,1.35,3.0
1758088963.79234,1758088963.80654,0.0,0.0,0.0,-2.57831,17.58981,-31.45539,15.01,0.81,2.46,3.0
1758088963.80797,1758088963.81654,0.0,0.0,0.0,-1.83346,23.0329,-23.26209,14.56,1.32,3.33,3.0
1758088963.8092,1758088963.82654,0.0,0.0,0.0,-2.23454,26.24147,-15.87093,14.56,1.32,3.33,3.0
1758088963.82412,1758088963.83654,0.0,0.0,0.0,-3.38045,27.67386,-7.39116,14.32,1.95,3.61,3.0
1758088963.8401,1758088963.84654,0.0,0.0,0.0,-4.46907,27.2155,1.3178,14.32,1.95,3.61,3.0
1758088963.84127,1758088963.85654,0.0,0.0,0.0,-5.21392,23.54857,13.23533,13.35,1.92,3.89,3.0
1758088963.85608,1758088963.86654,0.0,0.0,0.0,-5.27121,19.76705,19.48057,13.35,1.92,3.89,3.0
1758088963.85731,1758088963.87654,0.0,0.0,0.0,-5.4431,13.86558,24.00693,11.71,1.26,3.81,3.0
1758088963.87209,1758088963.88654,0.0,0.0,0.0,-5.78687,6.13065,26.41335,11.71,1.26,3.81,3.0
1758088963.88837,1758088963.89654,0.0,0.0,0.0,-6.70361,-8.25059,26.64254,9.44,0.56,3.74,3.0
1758088963.88932,1758088963.90654,0.0,0.0,0.0,-7.39116,-18.79302,24.80907,7.72,0.19,3.83,3.0
1758088963.90407,1758088963.91654,0.0,0.0,0.0,-7.96411,-29.27814,22.23076,7.72,0.19,3.83,3.0
1758088963.9201,1758088963.92654,0.0,0.0,0.0,-8.70896,-39.82057,17.30333,6.79,0.12,3.59,3.0
1758088963.92128,1758088963.93654,0.0,0.0,0.0,-9.05273,-51.50891,14.03747,6.79,0.12,3.59,3.0
1758088963.93633,1758088963.94654,0.0,0.0,0.0,-8.93814,-55.7488,11.11538,7.04,0.09,3.0,3.0
1758088963.93735,1758088963.95654,0.0,0.0,0.0,-8.47978,-57.46767,8.25059,7.04,0.09,3.0,3.0
1758088963.95241,1758088963.96654,0.0,0.0,0.0,-7.67763,-56.89471,4.81285,7.74,0.01,2.27,3.0
1758088963.96814,1758088963.97654,0.0,0.0,0.0,-7.33386,-55.23313,3.32316,8.17,-0.01,1.81,3.0
1758088963.96934,1758088963.98654,0.0,0.0,0.0,-7.16197,-52.48294,2.40642,8.17,-0.01,1.81,3.0
1758088963.98417,1758088963.99654,0.0,0.0,0.0,-7.39116,-49.27437,2.40642,8.32,0.06,1.43,3.0
1758088964.00017,1758088964.00654,0.0,0.0,0.0,-8.0787,-43.31561,3.55234,8.32,0.06,1.43,3.0
1758088964.00137,1758088964.01654,0.0,0.0,0.0,-9.22462,-38.56006,5.15662,8.45,0.22,1.3,3.0
1758088964.01619,1758088964.02654,0.0,0.0,0.0,-10.54242,-32.88778,7.44845,8.45,0.22,1.3,3.0
1758088964.01731,1758088964.03654,0.0,0.0,0.0,-12.54778,-26.87172,10.19865,8.79,0.5,1.11,3.0
1758088964.03206,1758088964.04654,0.0,0.0,0.0,-16.10011,-18.22006,14.72501,9.13,0.9,0.89,3.0
1758088964.04845,1758088964.05654,0.0,0.0,0.0,-18.79302,-13.12073,17.81899,9.13,0.9,0.89,3.0
1758088964.04935,1758088964.06654,0.0,0.0,0.0,-21.7151,-7.79223,20.51189,9.41,1.21,0.76,3.0
1758088964.06445,1758088964.07654,0.0,0.0,0.0,-24.86637,-2.06265,23.0329,9.41,1.21,0.76,3.0
1758088964.08056,1758088964.08654,0.0,0.0,0.0,-29.96569,6.99009,25.61122,9.54,1.28,0.61,3.0
1758088964.08097,1758088964.09654,0.0,0.0,0.0,-33.46074,11.17268,25.89769,9.54,1.28,0.61,3.0
1758088964.09753,1758088964.10654,0.0,0.0,0.0,-36.89849,15.0115,25.55392,9.03,1.11,0.79,3.0
1758088964.09839,1758088964.11654,0.0,0.0,0.0,-40.39353,17.99088,24.57989,9.03,1.11,0.79,3.0
1758088964.11325,1758088964.12654,0.0,0.0,0.0,-45.49285,19.59516,23.37668,8.43,0.69,0.93,3.0
1758088964.12929,1758088964.13654,0.0,0.0,0.0,-48.12846,23.0329,20.51189,8.72,0.21,1.05,3.0
1758088964.12995,1758088964.14654,0.0,0.0,0.0,-49.27437,24.86637,17.18874,8.72,0.21,1.05,3.0
1758088964.14527,1758088964.15654,0.0,0.0,0.0,-49.38896,25.7831,10.08406,8.22,-0.16,0.71,3.0
1758088964.14643,1758088964.16654,0.0,0.0,0.0,-48.30034,25.7831,4.98473,8.22,-0.16,0.71,3.0
1758088964.16271,1758088964.17654,0.0,0.0,0.0,-46.52417,25.43933,-0.17189,8.05,-0.35,0.81,3.0
1758088964.17822,1758088964.18654,0.0,0.0,0.0,-44.46153,24.57989,-4.64096,8.05,-0.35,0.81,3.0
1758088964.17945,1758088964.19654,0.0,0.0,0.0,-40.7373,24.00693,-9.11003,8.08,-0.49,0.9,3.0
1758088964.19424,1758088964.20654,0.0,0.0,0.0,-37.58603,24.12152,-10.25595,8.32,-0.66,0.88,3.0
1758088964.2103,1758088964.21654,0.0,0.0,0.0,-34.66395,22.63183,-10.02676,8.32,-0.66,0.88,3.0
1758088964.21086,1758088964.22654,0.0,0.0,0.0,-31.45539,20.3973,-9.05273,8.1,-0.84,0.74,3.0
1758088964.22669,1758088964.23654,0.0,0.0,0.0,-26.12688,15.92823,-6.07335,8.1,-0.84,0.74,3.0
1758088964.22778,1758088964.24654,0.0,0.0,0.0,-22.68913,12.89155,-3.20856,8.17,-0.98,0.99,3.0
1758088964.24357,1758088964.25654,0.0,0.0,0.0,-20.05352,8.99544,-0.40107,8.17,-0.98,0.99,3.0
1758088964.25938,1758088964.26654,0.0,0.0,0.0,-17.87628,4.64096,2.40642,8.24,-0.9,1.23,3.0
1758088964.25986,1758088964.27654,0.0,0.0,0.0,-15.46986,-1.3178,6.07335,8.34,-0.7,1.32,3.0
1758088964.27537,1758088964.28654,0.0,0.0,0.0,-14.66772,-4.64096,7.73493,8.34,-0.7,1.32,3.0
1758088964.2765,1758088964.29654,0.0,0.0,0.0,-14.15206,-7.67763,8.65166,8.6,-0.46,1.14,3.0
1758088964.29134,1758088964.30654,0.0,0.0,0.0,-14.20935,-10.37054,8.47978,8.6,-0.46,1.14,3.0
1758088964.30856,1758088964.31654,0.0,0.0,0.0,-13.5218,-14.03747,7.50575,8.68,-0.25,1.01,3.0
1758088964.30951,1758088964.32654,0.0,0.0,0.0,-12.54778,-12.83425,5.84417,8.68,-0.25,1.01,3.0
1758088964.32462,1758088964.33654,0.0,0.0,0.0,-11.28727,-9.4538,3.95341,9.04,-0.12,0.66,3.0
1758088964.32551,1758088964.34654,0.0,0.0,0.0,-9.11003,-4.35448,0.22918,9.04,-0.12,0.66,3.0
1758088964.3409,1758088964.35654,0.0,0.0,0.0,-7.21927,3.49504,-2.34913,9.44,-0.18,0.6,3.0
1758088964.35636,1758088964.36654,0.0,0.0,0.0,-5.09932,8.36518,-4.58366,9.7,-0.41,0.46,3.0
1758088964.35757,1758088964.37654,0.0,0.0,0.0,-2.7502,14.03747,-6.58902,9.7,-0.41,0.46,3.0
1758088964.37238,1758088964.38654,0.0,0.0,0.0,0.40107,20.34,-7.44845,10.5,-0.67,0.41,3.0
1758088964.38831,1758088964.39654,0.0,0.0,0.0,2.57831,22.28806,-6.47442,10.5,-0.67,0.41,3.0
1758088964.38951,1758088964.40654,0.0,0.0,0.0,4.58366,23.20479,-4.58366,11.59,-0.85,0.62,3.0
1758088964.40459,1758088964.41654,0.0,0.0,0.0,6.70361,25.26744,-1.83346,11.59,-0.85,0.62,3.0
1758088964.40558,1758088964.42654,0.0,0.0,0.0,9.39651,30.36677,3.72423,13.19,-0.95,0.71,3.0
1758088964.42096,1758088964.43654,0.0,0.0,0.0,11.28727,33.80451,7.84952,14.17,-0.94,1.15,3.0
1758088964.43631,1758088964.44654,0.0,0.0,0.0,12.77696,29.22085,10.37054,14.17,-0.94,1.15,3.0
1758088964.43754,1758088964.45654,0.0,0.0,0.0,15.58445,5.84417,13.46451,12.31,-1.14,2.4,3.0
1758088964.4528,1758088964.46654,0.0,0.0,0.0,18.22006,-42.74266,23.37668,12.31,-1.14,2.4,3.0
1758088964.4684,1758088964.47654,0.0,0.0,0.0,15.58445,-20.79837,27.10091,14.21,-1.04,3.78,3.0
1758088964.46963,1758088964.48654,0.0,0.0,0.0,13.40721,5.4431,31.97105,14.21,-1.04,3.78,3.0
1758088964.48464,1758088964.49654,0.0,0.0,0.0,10.19865,23.89234,33.11696,19.78,0.53,4.47,3.0
1758088964.48564,1758088964.50654,0.0,0.0,0.0,6.35983,39.07573,30.25217,15.52,1.0,3.55,3.0
1758088964.50093,1758088964.51654,0.0,0.0,0.0,4.52637,32.54401,24.57989,15.52,1.0,3.55,3.0
1758088964.51658,1758088964.52654,0.0,0.0,0.0,3.49504,20.79837,16.61578,12.06,-0.09,2.91,3.0
1758088964.51844,1758088964.53654,0.0,0.0,0.0,3.49504,12.204,2.23454,12.06,-0.09,2.91,3.0
1758088964.5335,1758088964.54654,0.0,0.0,0.0,4.87014,11.11538,-5.90147,12.85,-1.01,3.39,3.0
1758088964.53469,1758088964.55654,0.0,0.0,0.0,6.47442,17.99088,-12.2613,12.85,-1.01,3.39,3.0
1758088964.55101,1758088964.56654,0.0,0.0,0.0,8.25059,21.48592,-16.61578,13.0,-1.28,3.46,3.0
1758088964.5665,1758088964.57654,0.0,0.0,0.0,11.86023,18.62113,-19.48057,13.0,-1.28,3.46,3.0
1758088964.56927,1758088964.58654,0.0,0.0,0.0,14.72501,8.76626,-19.36597,9.83,-1.12,2.97,3.0
1758088964.58452,1758088964.59654,0.0,0.0,0.0,15.64175,-12.37589,-17.6471,6.34,-0.67,3.05,3.0
1758088964.58568,1758088964.60654,0.0,0.0,0.0,17.58981,-36.61201,-12.204,6.34,-0.67,3.05,3.0
1758088964.60106,1758088964.61654,0.0,0.0,0.0,20.45459,-60.79083,-3.20856,5.37,-0.83,3.7,3.0
1758088964.61639,1758088964.62654,0.0,0.0,0.0,22.86102,-67.66632,1.66158,5.37,-0.83,3.7,3.0
1758088964.61762,1758088964.63654,0.0,0.0,0.0,25.7831,-68.29657,5.78687,6.85,-1.05,3.11,3.0
1758088964.63279,1758088964.64654,0.0,0.0,0.0,28.70519,-67.03606,7.73493,6.85,-1.05,3.11,3.0
1758088964.64852,1758088964.65654,0.0,0.0,0.0,33.40344,-62.96807,7.84952,7.94,-1.12,2.37,3.0
1758088964.64968,1758088964.66654,0.0,0.0,0.0,36.03905,-57.12389,6.53172,8.5,-0.9,1.76,3.0
1758088964.66477,1758088964.67654,0.0,0.0,0.0,38.61736,-47.67009,4.58366,8.5,-0.9,1.76,3.0
1758088964.66568,1758088964.68654,0.0,0.0,0.0,40.50812,-36.32552,2.29183,8.85,-0.34,1.55,3.0
1758088964.68105,1758088964.69654,0.0,0.0,0.0,43.37291,-25.61122,0.51566,8.85,-0.34,1.55,3.0
1758088964.6967,1758088964.70654,0.0,0.0,0.0,43.65939,-18.33465,-0.17189,8.45,0.39,1.95,3.0
1758088964.69777,1758088964.71654,0.0,0.0,0.0,42.97184,-10.48513,-0.80214,8.45,0.39,1.95,3.0
1758088964.71256,1758088964.72654,0.0,0.0,0.0,43.54479,-3.72423,-0.11459,8.61,0.99,2.0,3.0
1758088964.72856,1758088964.73654,0.0,0.0,0.0,44.23235,8.59437,0.40107,9.14,1.03,1.7,3.0
1758088964.72981,1758088964.74654,0.0,0.0,0.0,44.46153,18.27736,-0.45837,9.14,1.03,1.7,3.0
1758088964.74459,1758088964.75654,0.0,0.0,0.0,44.28964,26.52795,-2.06265,9.4,0.83,1.81,3.0
1758088964.74569,1758088964.76654,0.0,0.0,0.0,43.60209,34.77854,-5.4431,9.4,0.83,1.81,3.0
1758088964.76083,1758088964.77654,0.0,0.0,0.0,42.85724,38.56006,-8.25059,8.82,0.31,1.98,3.0
1758088964.7766,1758088964.78654,0.0,0.0,0.0,42.57077,41.08107,-10.08406,8.82,0.31,1.98,3.0
1758088964.77778,1758088964.79654,0.0,0.0,0.0,42.34158,42.34158,-12.08941,8.31,-0.1,1.91,3.0
1758088964.79278,1758088964.80654,0.0,0.0,0.0,42.74266,44.86259,-13.80828,8.31,-0.1,1.91,3.0
1758088964.80861,1758088964.81654,0.0,0.0,0.0,43.4875,44.63341,-13.69369,8.16,-0.22,1.77,3.0
1758088964.80982,1758088964.82654,0.0,0.0,0.0,44.23235,43.20102,-12.54778,7.95,-0.13,1.59,3.0
1758088964.82459,1758088964.83654,0.0,0.0,0.0,44.8053,41.08107,-10.65701,7.95,-0.13,1.59,3.0
1758088964.82583,1758088964.84654,0.0,0.0,0.0,46.1804,39.70598,-6.8182,8.07,0.18,1.33,3.0
1758088964.84087,1758088964.85654,0.0,0.0,0.0,46.1231,37.52874,-3.95341,8.07,0.18,1.33,3.0
1758088964.85693,1758088964.86654,0.0,0.0,0.0,45.60744,34.49206,-0.85944,7.93,0.63,1.4,3.0
1758088964.8578,1758088964.87654,0.0,0.0,0.0,45.03448,31.79916,1.83346,7.93,0.63,1.4,3.0
1758088964.87289,1758088964.88654,0.0,0.0,0.0,42.62806,28.76248,4.52637,7.85,0.97,1.38,3.0
1758088964.88888,1758088964.89654,0.0,0.0,0.0,40.16434,25.09555,4.87014,7.81,1.17,1.47,3.0
1758088964.88978,1758088964.90654,0.0,0.0,0.0,37.47144,20.68378,4.29718,7.81,1.17,1.47,3.0
1758088964.90463,1758088964.91654,0.0,0.0,0.0,34.14828,16.90226,3.49504,7.77,1.24,1.51,3.0
1758088964.90584,1758088964.92654,0.0,0.0,0.0,29.10626,11.22997,1.66158,7.77,1.24,1.51,3.0
1758088964.9209,1758088964.93654,0.0,0.0,0.0,26.01229,7.62034,0.74485,7.93,1.16,1.55,3.0
1758088964.93669,1758088964.94654,0.0,0.0,0.0,23.0902,3.95341,0.40107,7.93,1.16,1.55,3.0
1758088964.93798,1758088964.95654,0.0,0.0,0.0,20.74107,0.85944,0.0,8.11,0.95,1.63,3.0
1758088964.953,1758088964.96654,0.0,0.0,0.0,18.56383,0.11459,0.34377,8.79,0.78,1.78,3.0
1758088964.9689,1758088964.97654,0.0,0.0,0.0,17.53251,-1.14592,0.45837,8.79,0.78,1.78,3.0
1758088964.96987,1758088964.98654,0.0,0.0,0.0,16.90226,-2.06265,0.57296,9.14,0.67,1.87,3.0
1758088964.98466,1758088964.99654,0.0,0.0,0.0,16.272,-1.3751,0.40107,9.14,0.67,1.87,3.0
1758088964.98586,1758088965.00654,0.0,0.0,0.0,15.75634,-1.14592,0.22918,9.55,0.61,1.9,3.0
1758088965.00066,1758088965.01654,0.0,0.0,0.0,15.41257,-1.94806,-0.0573,9.55,0.61,1.9,3.0
1758088965.0166,1758088965.02654,0.0,0.0,0.0,14.61043,-2.97938,0.0,9.32,0.58,1.71,3.0
1758088965.01785,1758088965.03654,0.0,0.0,0.0,13.00614,-4.92744,-0.40107,9.23,0.58,1.58,3.0
1758088965.0327,1758088965.04654,0.0,0.0,0.0,11.22997,-5.21392,-0.0573,9.23,0.65,1.58,3.0
1758088965.04867,1758088965.05654,0.0,0.0,0.0,9.22462,-4.81285,0.11459,9.46,0.73,1.56,3.0
1758088965.04992,1758088965.06654,0.0,0.0,0.0,6.99009,-3.89611,1.14592,9.46,0.73,1.56,3.0
1758088965.06479,1758088965.07654,0.0,0.0,0.0,2.97938,-2.29183,3.03668,9.6,0.81,1.56,3.0
1758088965.06593,1758088965.08654,0.0,0.0,0.0,0.51566,-1.43239,4.35448,9.6,0.81,1.56,3.0
1758088965.08098,1758088965.09654,0.0,0.0,0.0,-2.06265,-0.17189,4.29718,9.74,0.92,1.6,3.0
1758088965.09679,1758088965.10654,0.0,0.0,0.0,-4.18259,-2.40642,3.20856,9.74,0.92,1.6,3.0
1758088965.09875,1758088965.11654,0.0,0.0,0.0,-5.61499,-12.2613,0.22918,9.57,1.04,1.65,3.0
1758088965.11387,1758088965.12654,0.0,0.0,0.0,-6.7609,-18.10547,-3.09397,9.49,1.05,1.57,3.0
1758088965.11488,1758088965.13654,0.0,0.0,0.0,-7.50575,-22.11617,-6.70361,9.49,1.05,1.57,3.0
1758088965.13104,1758088965.14654,0.0,0.0,0.0,-8.47978,-23.31938,-10.8289,9.9,1.05,1.54,3.0
1758088965.14676,1758088965.15654,0.0,0.0,0.0,-9.91217,-28.07493,-16.3293,9.9,1.05,1.54,3.0
1758088965.14794,1758088965.16654,0.0,0.0,0.0,-10.71431,-34.49206,-18.50654,9.66,1.03,1.47,3.0
1758088965.16305,1758088965.17654,0.0,0.0,0.0,-11.11538,-39.53409,-20.51189,9.66,1.03,1.47,3.0
1758088965.17903,1758088965.18654,0.0,0.0,0.0,-12.54778,-41.42485,-21.88699,9.57,0.79,1.35,3.0
1758088965.17998,1758088965.19654,0.0,0.0,0.0,-13.5791,-36.61201,-21.7724,10.6,0.61,1.17,3.0
1758088965.19503,1758088965.20654,0.0,0.0,0.0,-14.38124,-26.52795,-20.68378,10.6,0.61,1.17,3.0
1758088965.19624,1758088965.21654,0.0,0.0,0.0,-15.87093,-12.77696,-20.05352,11.75,0.66,1.22,3.0
1758088965.21103,1758088965.22654,0.0,0.0,0.0,-14.66772,-2.92208,-18.73572,11.75,0.66,1.22,3.0
1758088965.2268,1758088965.23654,0.0,0.0,0.0,-11.45916,-26.01229,-17.6471,10.37,0.81,2.28,3.0
1758088965.228,1758088965.24654,0.0,0.0,0.0,-10.8862,-43.14373,-25.49662,10.37,0.81,2.28,3.0
1758088965.24307,1758088965.25654,0.0,0.0,0.0,-6.47442,-36.21093,-29.96569,10.43,0.93,2.51,3.0
1758088965.25885,1758088965.26654,0.0,0.0,0.0,-2.92208,-13.80828,-32.54401,12.89,0.65,0.24,3.0
1758088965.26005,1758088965.27654,0.0,0.0,0.0,-2.00535,1.43239,-32.42941,12.89,0.65,0.24,3.0
1758088965.27508,1758088965.28654,0.0,0.0,0.0,-1.60428,14.43854,-30.30947,11.67,0.3,0.68,3.0
1758088965.27604,1758088965.29654,0.0,0.0,0.0,-0.45837,22.57454,-26.52795,11.67,0.3,0.68,3.0
1758088965.29111,1758088965.30654,0.0,0.0,0.0,1.03132,29.10626,-19.53786,11.23,0.15,1.4,3.0
1758088965.30713,1758088965.31654,0.0,0.0,0.0,1.66158,32.08564,-15.0115,11.23,0.15,1.4,3.0
1758088965.30831,1758088965.32654,0.0,0.0,0.0,1.83346,37.87251,-10.65701,12.36,0.59,1.7,3.0
1758088965.32286,1758088965.33654,0.0,0.0,0.0,1.60428,42.97184,-6.99009,12.36,0.59,1.7,3.0
1758088965.33918,1758088965.34654,0.0,0.0,0.0,1.20321,44.28964,-2.11994,13.67,1.51,2.23,3.0
1758088965.34011,1758088965.35654,0.0,0.0,0.0,1.14592,41.88322,-0.40107,13.34,2.13,2.98,3.0
1758088965.35488,1758088965.36654,0.0,0.0,0.0,1.14592,38.21629,0.57296,13.34,2.13,2.98,3.0
1758088965.35608,1758088965.37654,0.0,0.0,0.0,1.3178,33.80451,1.14592,13.12,2.13,3.4,3.0
1758088965.37087,1758088965.38654,0.0,0.0,0.0,0.74485,27.78845,1.43239,13.12,2.13,3.4,3.0
1758088965.38716,1758088965.39654,0.0,0.0,0.0,-0.11459,22.68913,1.71887,13.41,1.95,3.58,3.0
1758088965.38811,1758088965.40654,0.0,0.0,0.0,-1.77617,16.67307,2.29183,13.41,1.95,3.58,3.0
1758088965.40317,1758088965.41654,0.0,0.0,0.0,-5.50039,5.72958,3.60963,13.21,1.97,3.61,3.0
1758088965.41917,1758088965.42654,0.0,0.0,0.0,-8.76626,-2.86479,4.81285,12.03,2.14,3.58,3.0
1758088965.42053,1758088965.43654,0.0,0.0,0.0,-12.204,-12.14671,6.41713,12.03,2.14,3.58,3.0
1758088965.43526,1758088965.44654,0.0,0.0,0.0,-16.21471,-21.48592,7.79223,10.34,2.13,3.43,3.0
1758088965.4363,1758088965.45654,0.0,0.0,0.0,-22.40265,-35.98175,9.68299,10.34,2.13,3.43,3.0
1758088965.45098,1758088965.46654,0.0,0.0,0.0,-26.24147,-46.86795,10.37054,8.6,1.93,3.33,3.0
1758088965.46713,1758088965.47654,0.0,0.0,0.0,-29.96569,-57.63955,10.8862,8.6,1.93,3.33,3.0
1758088965.46815,1758088965.48654,0.0,0.0,0.0,-33.46074,-68.06739,10.8862,7.17,1.7,3.25,3.0
1758088965.48296,1758088965.49654,0.0,0.0,0.0,-37.87251,-80.0995,9.74028,6.83,1.45,2.82,3.0
1758088965.49926,1758088965.50654,0.0,0.0,0.0,-40.33623,-85.14153,8.36518,6.83,1.45,2.82,3.0
1758088965.50016,1758088965.51654,0.0,0.0,0.0,-42.57077,-86.975,6.7609,7.28,1.15,2.19,3.0
1758088965.51494,1758088965.52654,0.0,0.0,0.0,-44.57612,-85.94368,4.92744,7.28,1.15,2.19,3.0
1758088965.51623,1758088965.53654,0.0,0.0,0.0,-47.32632,-80.38599,2.40642,8.08,0.9,1.64,3.0
1758088965.531,1758088965.54654,0.0,0.0,0.0,-48.8733,-75.40125,0.68755,8.08,0.9,1.64,3.0
1758088965.5472,1758088965.55654,0.0,0.0,0.0,-50.47758,-71.04677,-0.68755,8.46,0.67,1.26,3.0
1758088965.54914,1758088965.56654,0.0,0.0,0.0,-51.6235,-65.37449,-1.66158,8.46,0.67,1.26,3.0
1758088965.56399,1758088965.57654,0.0,0.0,0.0,-52.82671,-54.431,-1.3178,8.58,0.46,0.99,3.0
1758088965.56524,1758088965.58654,0.0,0.0,0.0,-53.74345,-46.46688,0.22918,8.87,0.1,0.92,3.0
1758088965.58103,1758088965.59654,0.0,0.0,0.0,-59.75951,-41.42485,1.20321,8.87,0.1,0.92,3.0
1758088965.59704,1758088965.60654,0.0,0.0,0.0,-62.16592,-26.87172,6.99009,9.27,-0.17,0.1,3.0
1758088965.59908,1758088965.61654,0.0,0.0,0.0,-61.70755,-15.24068,9.91217,9.27,-0.17,0.1,3.0
1758088965.61401,1758088965.62654,0.0,0.0,0.0,-60.73353,-9.22462,12.49048,9.64,0.89,1.01,3.0
1758088965.61518,1758088965.63654,0.0,0.0,0.0,-59.07195,-2.57831,14.20935,9.64,0.89,1.01,3.0
1758088965.63108,1758088965.64654,0.0,0.0,0.0,-55.29043,9.96947,18.33465,8.63,0.7,0.89,3.0
1758088965.64711,1758088965.65654,0.0,0.0,0.0,-53.11319,14.03747,22.51724,9.17,0.02,0.71,3.0
1758088965.64909,1758088965.66654,0.0,0.0,0.0,-51.5662,22.23076,24.23611,9.17,0.02,0.71,3.0
1758088965.66404,1758088965.67654,0.0,0.0,0.0,-49.61814,28.476,25.8404,9.36,-0.56,0.55,3.0
1758088965.66518,1758088965.68654,0.0,0.0,0.0,-47.72739,35.75257,26.24147,9.36,-0.56,0.55,3.0
1758088965.68135,1758088965.69654,0.0,0.0,0.0,-46.63877,39.70598,25.09555,8.92,-0.9,0.67,3.0
1758088965.69808,1758088965.70654,0.0,0.0,0.0,-45.37826,41.59674,22.86102,8.92,-0.9,0.67,3.0
1758088965.6993,1758088965.71654,0.0,0.0,0.0,-44.11775,44.23235,19.53786,8.82,-0.93,0.67,3.0
1758088965.71414,1758088965.72654,0.0,0.0,0.0,-41.02378,43.25832,14.09476,8.74,-0.81,0.82,3.0
1758088965.7153,1758088965.73654,0.0,0.0,0.0,-38.1017,40.10705,10.19865,8.74,-0.81,0.82,3.0
1758088965.73101,1758088965.74654,0.0,0.0,0.0,-35.00772,37.87251,6.13065,8.58,-0.64,0.76,3.0
1758088965.74739,1758088965.75654,0.0,0.0,0.0,-31.56997,36.49741,2.57831,8.58,-0.64,0.76,3.0
1758088965.74836,1758088965.76654,0.0,0.0,0.0,-27.10091,35.52338,-1.14592,8.71,-0.45,0.96,3.0
1758088965.76344,1758088965.77654,0.0,0.0,0.0,-24.29341,34.37747,-2.57831,8.71,-0.45,0.96,3.0
1758088965.77943,1758088965.78654,0.0,0.0,0.0,-21.7724,32.25753,-2.86479,8.36,-0.33,1.07,3.0
1758088965.78114,1758088965.79654,0.0,0.0,0.0,-18.79302,29.33544,-1.83346,8.36,-0.33,1.07,3.0
1758088965.79624,1758088965.80654,0.0,0.0,0.0,-17.18874,23.72045,-0.34377,8.15,-0.42,1.29,3.0
1758088965.79735,1758088965.81654,0.0,0.0,0.0,-15.87093,19.42327,1.77617,8.39,-0.54,1.47,3.0
1758088965.81218,1758088965.82654,0.0,0.0,0.0,-15.0115,14.43854,3.83882,8.39,-0.54,1.47,3.0
1758088965.8285,1758088965.83654,0.0,0.0,0.0,-14.09476,7.84952,6.24524,8.7,-0.66,1.58,3.0
1758088965.86127,1758088965.84654,0.0,0.0,0.0,-10.8289,-10.8289,5.32851,8.64,-0.34,1.3,3.0
1758088965.87736,1758088965.85654,0.0,0.0,0.0,-8.99544,-9.11003,2.92208,8.93,-0.29,0.96,3.0
1758088965.8784,1758088965.86654,0.0,0.0,0.0,-7.04738,-5.78687,0.97403,8.93,-0.29,0.96,3.0
1758088965.89342,1758088965.87654,0.0,0.0,0.0,-4.92744,-1.3751,-1.77617,9.2,-0.26,0.76,3.0
1758088965.90921,1758088965.88654,0.0,0.0,0.0,-0.51566,3.83882,-6.13065,9.2,-0.26,0.76,3.0
1758088965.91065,1758088965.89654,0.0,0.0,0.0,2.86479,7.33386,-8.47978,9.09,-0.34,0.48,3.0
1758088965.9252,1758088965.90654,0.0,0.0,0.0,6.58902,9.96947,-9.68299,9.09,-0.34,0.48,3.0
1758088965.92641,1758088965.91654,0.0,0.0,0.0,10.54242,10.37054,-9.22462,9.3,-0.61,0.42,3.0
1758088965.94125,1758088965.92654,0.0,0.0,0.0,16.10011,4.69825,-5.61499,9.29,-0.84,0.34,3.0
1758088965.95749,1758088965.93654,0.0,0.0,0.0,19.53786,0.45837,-2.11994,9.29,-0.84,0.34,3.0
1758088965.95841,1758088965.94654,0.0,0.0,0.0,22.40265,-3.32316,2.00535,9.78,-0.98,0.44,3.0
1758088965.97335,1758088965.95654,0.0,0.0,0.0,24.57989,-6.07335,8.59437,9.78,-0.98,0.44,3.0
1758088965.98924,1758088965.96654,0.0,0.0,0.0,26.75713,-9.22462,12.54778,10.0,-0.89,0.64,3.0
1758088965.99043,1758088965.97654,0.0,0.0,0.0,27.61657,-9.5684,16.38659,10.0,-0.89,0.64,3.0
1758088966.00538,1758088965.98654,0.0,0.0,0.0,28.24682,-11.00079,19.42327,10.16,-0.62,0.71,3.0
1758088966.00646,1758088965.99654,0.0,0.0,0.0,28.01764,-15.75634,20.51189,10.16,-0.62,0.71,3.0
1758088966.02134,1758088966.00654,0.0,0.0,0.0,27.50197,-14.83961,19.76705,9.96,-0.24,0.51,3.0
1758088966.03731,1758088966.01654,0.0,0.0,0.0,27.61657,-8.99544,17.53251,10.94,-0.05,0.41,3.0
1758088966.03851,1758088966.02654,0.0,0.0,0.0,27.33009,0.34377,14.43854,10.94,-0.05,0.41,3.0
1758088966.05332,1758088966.03654,0.0,0.0,0.0,26.01229,18.10547,8.59437,11.82,-0.03,0.87,3.0
