timeStamp,timeStampAlign,roll,pitch,yaw,gyro_x,gyro_y,gyro_z,acc_x,acc_y,acc_z,flag_num
1758086878.52712,1758086878.4998,0.0,0.0,0.0,-10.19865,29.50733,7.04738,9.35,0.21,-0.04,2.0
1758086878.54335,1758086878.5098,0.0,0.0,0.0,-8.88085,33.51803,5.15662,9.35,0.21,-0.04,2.0
1758086878.54512,1758086878.5198,0.0,0.0,0.0,-8.136,35.12231,3.38045,9.47,0.09,-0.36,2.0
1758086878.56014,1758086878.5298,0.0,0.0,0.0,-7.39116,34.43476,1.3178,9.47,0.09,-0.36,2.0
1758086878.56133,1758086878.5398,0.0,0.0,0.0,-5.95876,31.51268,-2.23454,9.31,-0.13,-0.06,2.0
1758086878.57612,1758086878.5498,0.0,0.0,0.0,-4.69825,23.54857,-4.29718,9.46,-0.46,0.15,2.0
1758086878.59234,1758086878.5598,0.0,0.0,0.0,-3.26586,15.98552,-6.41713,9.46,-0.46,0.15,2.0
1758086878.59332,1758086878.5698,0.0,0.0,0.0,-1.60428,6.7609,-7.73493,9.72,-0.84,0.2,2.0
1758086878.60812,1758086878.5798,0.0,0.0,0.0,0.45837,-6.7609,-7.44845,9.72,-0.84,0.2,2.0
1758086878.61013,1758086878.5898,0.0,0.0,0.0,3.38045,-13.34992,-7.16197,10.22,-0.92,0.2,2.0
1758086878.62612,1758086878.5998,0.0,0.0,0.0,5.95876,-21.42862,-6.13065,10.22,-0.92,0.2,2.0
1758086878.64378,1758086878.6098,0.0,0.0,0.0,8.0787,-31.39809,-4.35448,10.39,-0.24,-0.71,2.0
1758086878.64575,1758086878.6198,0.0,0.0,0.0,9.4538,-39.01843,-1.71887,10.97,-0.24,-0.79,2.0
1758086878.66118,1758086878.6298,0.0,0.0,0.0,12.71966,-35.86716,0.57296,10.97,0.09,-0.79,2.0
1758086878.66232,1758086878.6398,0.0,0.0,0.0,15.87093,-29.50733,2.63561,12.57,-0.05,-1.01,2.0
1758086878.67712,1758086878.6498,0.0,0.0,0.0,20.05352,-22.74642,5.15662,12.57,-0.05,-1.01,2.0
1758086878.69316,1758086878.6598,0.0,0.0,0.0,26.35606,-20.51189,10.59972,12.89,-0.77,0.41,2.0
1758086878.69433,1758086878.6698,0.0,0.0,0.0,30.25217,-21.48592,16.04282,12.89,-0.77,0.41,2.0
1758086878.70917,1758086878.6798,0.0,0.0,0.0,31.28349,-29.73651,20.74107,12.83,-1.02,2.37,2.0
1758086878.71033,1758086878.6898,0.0,0.0,0.0,29.50733,-40.7373,23.89234,12.83,-1.02,2.37,2.0
1758086878.72595,1758086878.6998,0.0,0.0,0.0,23.89234,-55.7488,28.36141,12.74,-0.19,3.93,2.0
1758086878.74317,1758086878.7098,0.0,0.0,0.0,19.53786,-61.53567,30.88243,13.16,0.82,4.8,2.0
1758086878.74652,1758086878.7198,0.0,0.0,0.0,15.92823,-63.31184,32.42941,13.16,0.82,4.8,2.0
1758086878.7656,1758086878.7298,0.0,0.0,0.0,14.49583,-64.45775,31.39809,11.76,0.88,5.13,2.0
1758086878.76652,1758086878.7398,0.0,0.0,0.0,16.90226,-68.12468,29.67921,11.76,0.88,5.13,2.0
1758086878.78317,1758086878.7498,0.0,0.0,0.0,20.79837,-72.65105,27.10091,9.0,0.5,4.91,2.0
1758086878.78411,1758086878.7598,0.0,0.0,0.0,25.8404,-73.79697,23.0902,9.0,0.5,4.91,2.0
1758086878.79914,1758086878.7698,0.0,0.0,0.0,33.40344,-68.23928,16.04282,8.27,-0.2,4.16,2.0
1758086878.80033,1758086878.7798,0.0,0.0,0.0,37.47144,-62.22322,11.11538,9.47,-0.55,3.18,2.0
1758086878.81534,1758086878.7898,0.0,0.0,0.0,40.16434,-54.71747,6.47442,9.47,-0.55,3.18,2.0
1758086878.8314,1758086878.7998,0.0,0.0,0.0,41.76862,-47.26902,2.57831,10.62,-0.17,2.75,2.0
1758086878.83263,1758086878.8098,0.0,0.0,0.0,40.50812,-34.09099,-1.48969,10.62,-0.17,2.75,2.0
1758086878.84718,1758086878.8198,0.0,0.0,0.0,37.92981,-23.20479,-3.83882,11.16,0.51,2.01,2.0
1758086878.86318,1758086878.8298,0.0,0.0,0.0,33.74722,-13.12073,-5.32851,11.16,0.51,2.01,2.0
1758086878.86514,1758086878.8398,0.0,0.0,0.0,28.76248,-4.81285,-6.47442,10.64,1.19,1.26,2.0
1758086878.88034,1758086878.8498,0.0,0.0,0.0,19.82434,7.04738,-7.84952,9.59,1.66,0.95,2.0
1758086878.88133,1758086878.8598,0.0,0.0,0.0,14.03747,16.38659,-8.59437,9.59,1.66,0.95,2.0
1758086878.89616,1758086878.8698,0.0,0.0,0.0,8.36518,25.21014,-8.93814,9.43,1.79,0.91,2.0
1758086878.91479,1758086878.8798,0.0,0.0,0.0,2.92208,31.56997,-9.33921,9.43,1.79,0.91,2.0
1758086878.91573,1758086878.8898,0.0,0.0,0.0,-3.32316,40.85189,-8.47978,8.88,1.67,1.04,2.0
1758086878.93119,1758086878.8998,0.0,0.0,0.0,-5.72958,48.30034,-7.10468,8.88,1.67,1.04,2.0
1758086878.93261,1758086878.9098,0.0,0.0,0.0,-7.16197,53.45696,-6.13065,8.9,1.19,1.1,2.0
1758086878.94901,1758086878.9198,0.0,0.0,0.0,-8.42248,56.78012,-5.72958,8.9,1.19,1.1,2.0
1758086878.95071,1758086878.9298,0.0,0.0,0.0,-10.19865,62.05133,-6.53172,8.91,1.09,0.99,2.0
1758086878.96615,1758086878.9398,0.0,0.0,0.0,-11.17268,66.29122,-7.73493,9.39,1.08,1.12,2.0
1758086878.98295,1758086878.9498,0.0,0.0,0.0,-11.57375,67.15066,-8.76626,9.39,1.08,1.12,2.0
1758086878.98594,1758086878.9598,0.0,0.0,0.0,-11.97482,61.87944,-10.25595,8.83,0.85,1.41,2.0
1758086879.00117,1758086878.9698,0.0,0.0,0.0,-12.204,56.89471,-10.71431,8.83,0.85,1.41,2.0
1758086879.00315,1758086878.9798,0.0,0.0,0.0,-12.71966,51.85268,-10.71431,8.28,0.55,1.52,2.0
1758086879.02003,1758086878.9898,0.0,0.0,0.0,-14.03747,46.2377,-10.8289,8.28,0.55,1.52,2.0
1758086879.02113,1758086878.9998,0.0,0.0,0.0,-16.61578,41.13837,-10.71431,8.15,0.5,1.3,2.0
1758086879.04333,1758086879.0098,0.0,0.0,0.0,-17.81899,39.19032,-10.48513,8.35,0.48,1.45,2.0
1758086879.04722,1758086879.0198,0.0,0.0,0.0,-19.13679,35.98175,-10.31324,8.35,0.48,1.45,2.0
1758086879.06318,1758086879.0298,0.0,0.0,0.0,-20.45459,32.54401,-10.25595,8.28,0.62,1.43,2.0
1758086879.06491,1758086879.0398,0.0,0.0,0.0,-22.86102,28.59059,-11.00079,8.28,0.62,1.43,2.0
1758086879.07117,1758086879.0498,0.0,0.0,0.0,-24.17882,27.2155,-11.17268,8.48,0.86,1.23,2.0
1758086879.08987,1758086879.0598,0.0,0.0,0.0,-25.38203,25.43933,-11.51645,8.48,0.86,1.23,2.0
1758086879.09094,1758086879.0698,0.0,0.0,0.0,-26.64254,24.12152,-11.80293,8.7,0.81,1.15,2.0
1758086879.10614,1758086879.0798,0.0,0.0,0.0,-28.59059,23.0902,-11.63104,9.07,0.76,0.87,2.0
1758086879.11133,1758086879.0898,0.0,0.0,0.0,-29.62192,21.02755,-11.22997,9.07,0.76,0.87,2.0
1758086879.13137,1758086879.0998,0.0,0.0,0.0,-31.2262,18.10547,-11.00079,9.09,0.71,0.6,2.0
1758086879.13236,1758086879.1098,0.0,0.0,0.0,-32.71589,14.15206,-10.54242,9.09,0.71,0.6,2.0
1758086879.1472,1758086879.1198,0.0,0.0,0.0,-35.2942,4.92744,-9.4538,8.91,0.84,0.35,2.0
1758086879.16323,1758086879.1298,0.0,0.0,0.0,-36.49741,-6.13065,-8.0787,8.91,0.84,0.35,2.0
1758086879.16596,1758086879.1398,0.0,0.0,0.0,-37.18496,-16.10011,-7.16197,8.2,0.79,-0.06,2.0
1758086879.18146,1758086879.1498,0.0,0.0,0.0,-37.58603,-31.62727,-5.32851,8.2,0.79,-0.06,2.0
1758086879.18264,1758086879.1598,0.0,0.0,0.0,-38.15899,-40.33623,-4.81285,8.27,0.6,-0.61,2.0
1758086879.19955,1758086879.1698,0.0,0.0,0.0,-38.44547,-48.41494,-5.15662,8.86,0.45,-0.21,2.0
1758086879.20072,1758086879.1798,0.0,0.0,0.0,-39.13302,-54.66018,-5.61499,8.86,0.45,-0.21,2.0
1758086879.21645,1758086879.1898,0.0,0.0,0.0,-39.70598,-43.77398,-7.84952,10.6,0.7,0.06,2.0
1758086879.23487,1758086879.1998,0.0,0.0,0.0,-40.96649,-22.34536,-11.17268,10.6,0.7,0.06,2.0
1758086879.23601,1758086879.2098,0.0,0.0,0.0,-39.64868,-9.68299,-12.54778,13.79,0.88,0.2,2.0
1758086879.2512,1758086879.2198,0.0,0.0,0.0,-39.64868,-29.39274,-15.69904,13.79,0.88,0.2,2.0
1758086879.25669,1758086879.2298,0.0,0.0,0.0,-37.47144,-46.75336,-17.81899,9.68,1.04,0.19,2.0
1758086879.27142,1758086879.2398,0.0,0.0,0.0,-35.86716,-48.30034,-19.76705,10.06,0.87,-0.9,2.0
1758086879.27642,1758086879.2498,0.0,0.0,0.0,-33.40344,-42.85724,-21.42862,10.06,0.87,-0.9,2.0
1758086879.29142,1758086879.2598,0.0,0.0,0.0,-29.67921,-37.58603,-24.12152,12.92,0.59,0.41,2.0
1758086879.29401,1758086879.2698,0.0,0.0,0.0,-21.37133,-38.56006,-29.73651,12.92,0.59,0.41,2.0
1758086879.31118,1758086879.2798,0.0,0.0,0.0,-14.09476,-44.46153,-33.9764,14.55,-0.41,3.42,2.0
1758086879.31397,1758086879.2898,0.0,0.0,0.0,-6.13065,-45.49285,-37.58603,14.55,-0.41,3.42,2.0
1758086879.33147,1758086879.2998,0.0,0.0,0.0,1.08862,-41.42485,-39.53409,15.71,-0.92,3.82,2.0
1758086879.33586,1758086879.3098,0.0,0.0,0.0,8.0787,-35.3515,-37.87251,13.51,0.16,3.59,2.0
1758086879.35157,1758086879.3198,0.0,0.0,0.0,8.65166,-32.71589,-34.89313,13.51,0.16,3.59,2.0
1758086879.35593,1758086879.3298,0.0,0.0,0.0,5.84417,-31.79916,-31.28349,10.47,1.77,4.9,2.0
1758086879.3715,1758086879.3398,0.0,0.0,0.0,-3.60963,-29.9084,-23.60586,10.47,1.77,4.9,2.0
1758086879.37242,1758086879.3498,0.0,0.0,0.0,-13.06344,-26.69983,-16.84496,9.29,2.25,4.97,2.0
1758086879.38907,1758086879.3598,0.0,0.0,0.0,-24.29341,-23.94964,-10.02676,9.29,2.25,4.97,2.0
1758086879.39077,1758086879.3698,0.0,0.0,0.0,-35.63798,-21.31403,-3.89611,8.79,2.32,3.72,2.0
1758086879.40617,1758086879.3798,0.0,0.0,0.0,-52.54023,-17.01685,1.03132,8.79,2.32,3.72,2.0
1758086879.42318,1758086879.3898,0.0,0.0,0.0,-62.05133,-14.72501,2.06265,8.51,2.72,3.03,2.0
1758086879.42602,1758086879.3998,0.0,0.0,0.0,-67.26525,-10.02676,2.46372,9.43,2.07,2.39,2.0
1758086879.44147,1758086879.4098,0.0,0.0,0.0,-69.04142,-4.98473,2.7502,9.43,2.07,2.39,2.0
1758086879.44239,1758086879.4198,0.0,0.0,0.0,-67.15066,0.45837,1.66158,10.44,0.44,1.57,2.0
1758086879.45749,1758086879.4298,0.0,0.0,0.0,-64.11398,5.61499,0.40107,10.44,0.44,1.57,2.0
1758086879.47346,1758086879.4398,0.0,0.0,0.0,-59.87409,11.11538,-0.85944,10.26,-1.04,1.16,2.0
1758086879.47519,1758086879.4498,0.0,0.0,0.0,-55.11855,15.12609,-1.66158,10.26,-1.04,1.16,2.0
1758086879.49044,1758086879.4598,0.0,0.0,0.0,-47.44091,18.27736,-1.66158,9.25,-1.82,0.93,2.0
1758086879.49299,1758086879.4698,0.0,0.0,0.0,-42.22699,19.59516,-1.3751,8.43,-1.85,1.2,2.0
1758086879.50926,1758086879.4798,0.0,0.0,0.0,-36.6693,21.31403,-0.57296,8.43,-1.85,1.2,2.0
1758086879.51041,1758086879.4898,0.0,0.0,0.0,-31.62727,22.86102,0.45837,8.22,-1.44,1.19,2.0
1758086879.5254,1758086879.4998,0.0,0.0,0.0,-24.98096,25.21014,2.57831,8.22,-1.44,1.19,2.0
1758086879.54121,1758086879.5098,0.0,0.0,0.0,-21.37133,25.7831,4.1253,8.35,-0.83,1.21,2.0
1758086879.54235,1758086879.5198,0.0,0.0,0.0,-18.62113,25.55392,5.32851,8.35,-0.83,1.21,2.0
1758086879.55719,1758086879.5298,0.0,0.0,0.0,-15.92823,25.72581,7.16197,8.75,-0.23,1.46,2.0
1758086879.57353,1758086879.5398,0.0,0.0,0.0,-14.83961,24.75178,8.0787,9.25,0.21,1.43,2.0
1758086879.57434,1758086879.5498,0.0,0.0,0.0,-13.98017,24.75178,8.93814,9.25,0.21,1.43,2.0
1758086879.58943,1758086879.5598,0.0,0.0,0.0,-13.23533,25.61122,9.85487,9.79,0.36,1.4,2.0
1758086879.59148,1758086879.5698,0.0,0.0,0.0,-12.2613,25.55392,11.22997,9.79,0.36,1.4,2.0
1758086879.60621,1758086879.5798,0.0,0.0,0.0,-11.86023,25.43933,12.08941,9.67,0.31,1.19,2.0
1758086879.62323,1758086879.5898,0.0,0.0,0.0,-11.57375,25.55392,12.49048,9.67,0.31,1.19,2.0
1758086879.62496,1758086879.5998,0.0,0.0,0.0,-11.57375,25.72581,12.71966,9.55,0.2,1.06,2.0
1758086879.64041,1758086879.6098,0.0,0.0,0.0,-12.08941,24.57989,11.97482,9.32,0.18,0.88,2.0
1758086879.64138,1758086879.6198,0.0,0.0,0.0,-12.83425,23.20479,10.94349,9.32,0.18,0.88,2.0
1758086879.65641,1758086879.6298,0.0,0.0,0.0,-13.46451,22.28806,9.5684,9.23,0.27,0.73,2.0
1758086879.67295,1758086879.6398,0.0,0.0,0.0,-13.86558,21.60051,8.36518,9.23,0.27,0.73,2.0
1758086879.67417,1758086879.6498,0.0,0.0,0.0,-14.72501,19.88164,8.36518,9.3,0.27,0.54,2.0
1758086879.68947,1758086879.6598,0.0,0.0,0.0,-14.43854,23.0329,6.70361,9.3,0.27,0.54,2.0
1758086879.69213,1758086879.6698,0.0,0.0,0.0,-14.49583,24.17882,5.50039,9.73,0.06,0.91,2.0
1758086879.70899,1758086879.6798,0.0,0.0,0.0,-13.5218,22.74642,4.81285,9.73,0.06,0.91,2.0
1758086879.7108,1758086879.6898,0.0,0.0,0.0,-11.80293,20.74107,3.03668,9.29,0.02,-0.11,2.0
1758086879.72624,1758086879.6998,0.0,0.0,0.0,-10.37054,16.90226,1.94806,9.29,-0.24,0.74,2.0
1758086879.74302,1758086879.7098,0.0,0.0,0.0,-8.65166,10.8862,0.85944,9.29,-0.24,0.74,2.0
1758086879.74497,1758086879.7198,0.0,0.0,0.0,-5.90147,4.46907,-0.68755,8.84,-0.51,0.49,2.0
1758086879.76028,1758086879.7298,0.0,0.0,0.0,-3.32316,-6.7609,-1.71887,8.84,-0.51,0.49,2.0
1758086879.76144,1758086879.7398,0.0,0.0,0.0,-0.57296,-14.9542,-2.6929,8.79,-0.49,0.33,2.0
1758086879.77644,1758086879.7498,0.0,0.0,0.0,1.3178,-21.7724,-2.86479,8.79,-0.49,0.33,2.0
1758086879.79308,1758086879.7598,0.0,0.0,0.0,5.15662,-29.73651,-2.57831,9.33,-0.3,-0.08,2.0
1758086879.79421,1758086879.7698,0.0,0.0,0.0,7.04738,-32.6013,-1.83346,10.13,0.04,-0.59,2.0
1758086879.80925,1758086879.7798,0.0,0.0,0.0,8.99544,-29.67921,0.51566,10.13,0.04,-0.59,2.0
1758086879.81118,1758086879.7898,0.0,0.0,0.0,10.31324,-21.42862,2.97938,11.83,0.07,-0.29,2.0
1758086879.82616,1758086879.7998,0.0,0.0,0.0,11.91752,-9.5684,5.72958,11.83,0.07,-0.29,2.0
1758086879.84325,1758086879.8098,0.0,0.0,0.0,13.23533,-5.55769,6.70361,12.34,0.12,-0.6,2.0
1758086879.8466,1758086879.8198,0.0,0.0,0.0,14.32395,-14.32395,7.10468,12.34,0.12,-0.6,2.0
1758086879.86325,1758086879.8298,0.0,0.0,0.0,13.69369,-29.96569,5.95876,10.66,-0.02,-0.15,2.0
1758086879.86526,1758086879.8398,0.0,0.0,0.0,11.17268,-52.48294,9.4538,10.26,0.08,0.65,2.0
1758086879.88119,1758086879.8498,0.0,0.0,0.0,8.65166,-67.55173,13.5791,10.26,0.08,0.65,2.0
1758086879.88314,1758086879.8598,0.0,0.0,0.0,6.47442,-75.51585,19.25138,11.74,0.39,1.97,2.0
1758086879.89925,1758086879.8698,0.0,0.0,0.0,3.55234,-72.47916,23.89234,11.74,0.39,1.97,2.0
1758086879.90017,1758086879.8798,0.0,0.0,0.0,1.08862,-62.28051,30.36677,14.25,0.8,3.02,2.0
1758086879.91543,1758086879.8898,0.0,0.0,0.0,1.20321,-53.91533,32.25753,14.25,0.8,3.02,2.0
1758086879.93141,1758086879.8998,0.0,0.0,0.0,3.26586,-47.26902,33.40344,13.7,0.95,3.73,2.0
1758086879.93267,1758086879.9098,0.0,0.0,0.0,11.28727,-40.68,34.09099,13.7,0.95,3.73,2.0
1758086879.94751,1758086879.9198,0.0,0.0,0.0,16.50119,-46.35228,29.10626,11.04,-0.39,4.47,2.0
1758086879.96587,1758086879.9298,0.0,0.0,0.0,19.53786,-49.67545,23.72045,9.12,-0.77,3.59,2.0
1758086879.96704,1758086879.9398,0.0,0.0,0.0,23.26209,-49.27437,19.25138,9.12,-0.77,3.59,2.0
1758086879.98327,1758086879.9498,0.0,0.0,0.0,30.19488,-40.39353,14.66772,9.96,-0.68,4.15,2.0
1758086879.98498,1758086879.9598,0.0,0.0,0.0,35.2942,-33.80451,12.37589,9.96,-0.68,4.15,2.0
1758086880.00021,1758086879.9698,0.0,0.0,0.0,40.45082,-26.24147,9.96947,10.16,-0.72,3.57,2.0
1758086880.00141,1758086879.9798,0.0,0.0,0.0,44.9199,-22.23076,9.85487,10.16,-0.72,3.57,2.0
1758086880.01619,1758086879.9898,0.0,0.0,0.0,48.64412,-15.69904,7.67763,9.72,-0.7,2.43,2.0
1758086880.03319,1758086879.9998,0.0,0.0,0.0,49.96192,-8.99544,6.8182,10.28,-0.13,1.75,2.0
1758086880.03461,1758086880.0098,0.0,0.0,0.0,49.90463,-1.43239,5.61499,10.28,-0.13,1.75,2.0
1758086880.04941,1758086880.0198,0.0,0.0,0.0,49.15978,7.10468,5.84417,10.39,0.58,1.22,2.0
1758086880.05359,1758086880.0298,0.0,0.0,0.0,44.748,15.24068,2.97938,10.39,0.58,1.22,2.0
1758086880.06948,1758086880.0398,0.0,0.0,0.0,40.50812,22.23076,0.97403,10.01,1.37,0.9,2.0
1758086880.07357,1758086880.0498,0.0,0.0,0.0,35.2369,30.25217,-0.97403,10.01,1.37,0.9,2.0
1758086880.08939,1758086880.0598,0.0,0.0,0.0,29.62192,34.89313,-1.43239,9.93,1.88,0.53,2.0
1758086880.09197,1758086880.0698,0.0,0.0,0.0,20.85567,39.87786,-3.60963,9.24,1.98,0.4,2.0
1758086880.1075,1758086880.0798,0.0,0.0,0.0,15.64175,45.72203,-4.58366,9.24,1.98,0.4,2.0
1758086880.12335,1758086880.0898,0.0,0.0,0.0,11.00079,48.70141,-5.55769,9.24,1.57,0.39,2.0
1758086880.12596,1758086880.0998,0.0,0.0,0.0,7.33386,51.39432,-6.35983,9.24,1.57,0.39,2.0
1758086880.1412,1758086880.1098,0.0,0.0,0.0,3.72423,53.45696,-6.41713,9.04,1.12,0.5,2.0
1758086880.1427,1758086880.1198,0.0,0.0,0.0,2.34913,56.14987,-6.58902,9.04,1.12,0.5,2.0
1758086880.15742,1758086880.1298,0.0,0.0,0.0,1.71887,57.63955,-6.7609,9.24,0.76,0.6,2.0
1758086880.17347,1758086880.1398,0.0,0.0,0.0,1.83346,55.00395,-6.70361,9.24,0.76,0.6,2.0
1758086880.17439,1758086880.1498,0.0,0.0,0.0,2.63561,51.79538,-6.18794,8.85,0.58,0.62,2.0
1758086880.18946,1758086880.1598,0.0,0.0,0.0,3.83882,47.67009,-5.50039,8.53,0.42,0.8,2.0
1758086880.19114,1758086880.1698,0.0,0.0,0.0,4.81285,42.57077,-4.58366,8.53,0.42,0.8,2.0
1758086880.20619,1758086880.1798,0.0,0.0,0.0,5.32851,36.7266,-3.72423,8.6,0.41,0.73,2.0
1758086880.22324,1758086880.1898,0.0,0.0,0.0,5.09932,34.60666,-3.55234,8.6,0.41,0.73,2.0
1758086880.22416,1758086880.1998,0.0,0.0,0.0,4.69825,34.0337,-3.32316,9.19,0.54,0.59,2.0
1758086880.23946,1758086880.2098,0.0,0.0,0.0,4.35448,33.11696,-2.92208,9.19,0.54,0.59,2.0
1758086880.24038,1758086880.2198,0.0,0.0,0.0,4.29718,29.67921,-2.34913,9.31,0.55,0.63,2.0
1758086880.25621,1758086880.2298,0.0,0.0,0.0,4.46907,27.2155,-2.11994,8.95,0.44,0.62,2.0
1758086880.27322,1758086880.2398,0.0,0.0,0.0,4.81285,23.94964,-2.29183,8.95,0.44,0.62,2.0
1758086880.2753,1758086880.2498,0.0,0.0,0.0,5.4431,21.7724,-2.63561,8.71,0.39,0.46,2.0
1758086880.29017,1758086880.2598,0.0,0.0,0.0,5.84417,20.97026,-3.60963,8.71,0.39,0.46,2.0
1758086880.29144,1758086880.2698,0.0,0.0,0.0,5.61499,20.22541,-4.46907,8.97,0.44,0.42,2.0
1758086880.30618,1758086880.2798,0.0,0.0,0.0,5.27121,18.22006,-4.98473,8.97,0.44,0.42,2.0
1758086880.323,1758086880.2898,0.0,0.0,0.0,4.81285,13.69369,-5.50039,8.85,0.62,0.34,2.0
1758086880.32598,1758086880.2998,0.0,0.0,0.0,4.18259,4.18259,-5.15662,8.2,0.78,0.36,2.0
1758086880.34117,1758086880.3098,0.0,0.0,0.0,3.89611,-2.97938,-4.52637,8.2,0.78,0.36,2.0
1758086880.34317,1758086880.3198,0.0,0.0,0.0,3.49504,-10.8289,-3.89611,7.63,0.95,0.14,2.0
1758086880.35902,1758086880.3298,0.0,0.0,0.0,1.66158,-22.57454,-2.86479,7.63,0.95,0.14,2.0
1758086880.36048,1758086880.3398,0.0,0.0,0.0,0.51566,-30.76784,-2.34913,7.35,1.1,0.03,2.0
1758086880.37556,1758086880.3498,0.0,0.0,0.0,-1.66158,-36.7266,-1.66158,7.35,1.1,0.03,2.0
1758086880.39154,1758086880.3598,0.0,0.0,0.0,-4.46907,-32.37212,-1.66158,8.27,1.29,-0.2,2.0
1758086880.39268,1758086880.3698,0.0,0.0,0.0,-9.85487,-6.07335,-4.92744,8.27,1.29,-0.05,2.0
1758086880.40751,1758086880.3798,0.0,0.0,0.0,-12.14671,3.03668,-5.09932,12.02,1.66,-0.05,2.0
1758086880.42428,1758086880.3898,0.0,0.0,0.0,-16.10011,-17.13144,-8.88085,10.74,2.14,0.9,2.0
1758086880.42543,1758086880.3998,0.0,0.0,0.0,-17.53251,-30.65324,-10.54242,10.74,2.14,0.9,2.0
1758086880.44016,1758086880.4098,0.0,0.0,0.0,-19.13679,-42.34158,-14.09476,10.48,2.09,0.68,2.0
1758086880.44142,1758086880.4198,0.0,0.0,0.0,-19.82434,-41.42485,-15.35527,10.48,2.09,0.68,2.0
1758086880.45646,1758086880.4298,0.0,0.0,0.0,-20.85567,-35.69527,-15.58445,12.01,1.79,-0.71,2.0
1758086880.47321,1758086880.4398,0.0,0.0,0.0,-21.88699,-29.10626,-14.72501,12.01,1.79,-0.71,2.0
1758086880.47535,1758086880.4498,0.0,0.0,0.0,-21.60051,-22.74642,-13.00614,12.46,1.52,-0.9,2.0
1758086880.49054,1758086880.4598,0.0,0.0,0.0,-19.48057,-21.88699,-12.43318,12.43,1.13,0.2,2.0
1758086880.49188,1758086880.4698,0.0,0.0,0.0,-15.41257,-23.0902,-13.5791,12.43,1.13,0.2,2.0
1758086880.5062,1758086880.4798,0.0,0.0,0.0,-9.5684,-25.15285,-17.53251,13.46,0.09,1.1,2.0
1758086880.52327,1758086880.4898,0.0,0.0,0.0,1.3751,-33.9764,-26.75713,13.46,0.09,1.1,2.0
1758086880.5253,1758086880.4998,0.0,0.0,0.0,9.11003,-40.7946,-34.26288,13.63,-0.66,2.29,2.0
1758086880.5402,1758086880.5098,0.0,0.0,0.0,16.272,-45.20637,-41.31026,13.63,-0.66,2.29,2.0
1758086880.54347,1758086880.5198,0.0,0.0,0.0,23.72045,-49.61814,-46.1804,13.29,-1.01,2.23,2.0
1758086880.55923,1758086880.5298,0.0,0.0,0.0,25.55392,-52.82671,-44.51882,10.51,-0.32,2.13,2.0
1758086880.56017,1758086880.5398,0.0,0.0,0.0,24.80907,-57.12389,-40.39353,10.51,-0.32,2.13,2.0
1758086880.57517,1758086880.5498,0.0,0.0,0.0,21.02755,-58.67088,-34.72124,8.8,0.9,4.19,2.0
1758086880.59305,1758086880.5598,0.0,0.0,0.0,10.59972,-50.47758,-23.26209,8.8,0.9,4.19,2.0
1758086880.59688,1758086880.5698,0.0,0.0,0.0,-0.51566,-43.14373,-16.50119,9.28,1.72,5.09,2.0
1758086880.61305,1758086880.5798,0.0,0.0,0.0,-15.75634,-31.74186,-12.49048,9.28,1.72,5.09,2.0
1758086880.61506,1758086880.5898,0.0,0.0,0.0,-34.89313,-24.35071,-12.08941,8.41,3.54,4.66,2.0
1758086880.63052,1758086880.5998,0.0,0.0,0.0,-51.50891,-30.25217,-5.84417,7.28,3.58,2.16,2.0
1758086880.63175,1758086880.6098,0.0,0.0,0.0,-57.58226,-28.13223,-1.77617,7.28,3.58,2.16,2.0
1758086880.64721,1758086880.6198,0.0,0.0,0.0,-61.65026,-16.84496,0.22918,10.99,1.99,1.07,2.0
1758086880.65614,1758086880.6298,0.0,0.0,0.0,-63.31184,-3.09397,0.85944,10.99,1.99,1.07,2.0
1758086880.67323,1758086880.6398,0.0,0.0,0.0,-61.99404,14.20935,-0.11459,13.06,0.5,1.21,2.0
1758086880.67496,1758086880.6498,0.0,0.0,0.0,-59.24384,21.88699,-1.48969,13.06,0.5,1.21,2.0
1758086880.69018,1758086880.6598,0.0,0.0,0.0,-55.57691,27.67386,-3.32316,11.49,-0.56,0.51,2.0
1758086880.71884,1758086880.6698,0.0,0.0,0.0,-51.45161,32.42941,-4.52637,11.49,-0.56,0.51,2.0
1758086880.72078,1758086880.6798,0.0,0.0,0.0,-44.46153,39.01843,-4.52637,9.96,-0.96,0.41,2.0
1758086880.72302,1758086880.6898,0.0,0.0,0.0,-39.4768,42.28429,-2.86479,9.16,-0.85,0.51,2.0
1758086880.72578,1758086880.6998,0.0,0.0,0.0,-34.60666,45.43555,-0.22918,9.16,-0.85,0.51,2.0
1758086880.74139,1758086880.7098,0.0,0.0,0.0,-27.96034,47.72739,4.69825,8.93,-0.72,0.64,2.0
1758086880.74239,1758086880.7198,0.0,0.0,0.0,-24.17882,48.70141,8.136,8.93,-0.72,0.64,2.0
1758086880.75722,1758086880.7298,0.0,0.0,0.0,-21.08485,46.98254,11.17268,8.79,-0.55,0.73,2.0
1758086880.75952,1758086880.7398,0.0,0.0,0.0,-18.85031,44.748,13.17803,8.79,-0.55,0.73,2.0
1758086880.77602,1758086880.7498,0.0,0.0,0.0,-16.67307,39.82057,15.0115,8.74,-0.27,0.88,2.0
1758086880.7933,1758086880.7598,0.0,0.0,0.0,-15.75634,36.89849,15.46986,8.74,0.03,1.07,2.0
1758086880.79501,1758086880.7698,0.0,0.0,0.0,-15.06879,33.05967,15.46986,8.74,0.03,1.07,2.0
1758086880.81286,1758086880.7798,0.0,0.0,0.0,-14.09476,28.41871,15.58445,8.47,0.2,1.13,2.0
1758086880.817,1758086880.7898,0.0,0.0,0.0,-13.23533,21.37133,15.29797,8.47,0.2,1.13,2.0
1758086880.83464,1758086880.7998,0.0,0.0,0.0,-12.89155,17.53251,15.06879,8.18,0.17,1.13,2.0
1758086880.83671,1758086880.8098,0.0,0.0,0.0,-12.60507,13.12073,14.72501,8.18,0.17,1.13,2.0
1758086880.85324,1758086880.8198,0.0,0.0,0.0,-12.37589,8.93814,14.38124,8.13,0.08,1.09,2.0
1758086880.8568,1758086880.8298,0.0,0.0,0.0,-11.91752,4.98473,13.34992,8.74,0.0,0.89,2.0
1758086880.87487,1758086880.8398,0.0,0.0,0.0,-11.57375,3.26586,12.89155,8.74,0.0,0.89,2.0
1758086880.87657,1758086880.8498,0.0,0.0,0.0,-11.80293,3.09397,12.08941,9.45,0.04,0.4,2.0
1758086880.89324,1758086880.8598,0.0,0.0,0.0,-12.204,5.09932,10.94349,9.45,0.04,0.4,2.0
1758086880.89418,1758086880.8698,0.0,0.0,0.0,-14.32395,10.37054,10.25595,10.02,0.2,-0.04,2.0
1758086880.90921,1758086880.8798,0.0,0.0,0.0,-14.72501,15.75634,8.65166,10.02,0.2,-0.04,2.0
1758086880.91119,1758086880.8898,0.0,0.0,0.0,-15.64175,17.53251,6.8182,10.03,0.36,0.33,2.0
1758086880.92653,1758086880.8998,0.0,0.0,0.0,-15.98552,15.64175,4.92744,10.03,0.36,0.33,2.0
1758086880.94307,1758086880.9098,0.0,0.0,0.0,-16.50119,8.70896,3.72423,8.82,0.56,-0.37,2.0
1758086880.94577,1758086880.9198,0.0,0.0,0.0,-16.90226,3.66693,2.97938,8.33,0.46,0.07,2.0
1758086880.96122,1758086880.9298,0.0,0.0,0.0,-16.95955,-2.63561,2.40642,8.33,0.46,0.07,2.0
1758086880.96241,1758086880.9398,0.0,0.0,0.0,-15.0115,-7.50575,1.3751,8.59,0.18,-0.44,2.0
1758086880.97877,1758086880.9498,0.0,0.0,0.0,-12.89155,-8.47978,0.80214,8.59,0.18,-0.44,2.0
1758086880.97999,1758086880.9598,0.0,0.0,0.0,-9.85487,-7.96411,1.48969,9.9,-0.23,-0.32,2.0
1758086880.99521,1758086880.9698,0.0,0.0,0.0,-7.44845,-4.87014,2.97938,9.9,-0.23,-0.32,2.0
1758086881.01123,1758086880.9798,0.0,0.0,0.0,-4.0107,6.7609,4.0107,11.55,-0.78,-0.11,2.0
1758086881.01275,1758086880.9898,0.0,0.0,0.0,-1.48969,10.94349,4.58366,12.46,-0.91,-0.3,2.0
1758086881.02752,1758086880.9998,0.0,0.0,0.0,0.40107,6.70361,4.87014,12.46,-0.91,-0.3,2.0
1758086881.04588,1758086881.0098,0.0,0.0,0.0,2.97938,-10.31324,5.84417,10.52,-0.85,-0.03,2.0
1758086881.04712,1758086881.0198,0.0,0.0,0.0,6.07335,-36.32552,8.59437,10.52,-0.85,-0.03,2.0
1758086881.06328,1758086881.0298,0.0,0.0,0.0,10.08406,-41.59674,13.23533,9.35,-0.93,-0.85,2.0
1758086881.06584,1758086881.0398,0.0,0.0,0.0,14.20935,-42.28429,17.13144,9.35,-0.93,-0.85,2.0
1758086881.0815,1758086881.0498,0.0,0.0,0.0,16.84496,-40.62271,17.47521,11.13,-1.28,-0.97,2.0
1758086881.08269,1758086881.0598,0.0,0.0,0.0,17.99088,-35.98175,16.10011,12.37,-0.48,-0.52,2.0
1758086881.09908,1758086881.0698,0.0,0.0,0.0,16.50119,-36.26823,16.55848,12.37,-0.48,-0.52,2.0
1758086881.10005,1758086881.0798,0.0,0.0,0.0,13.06344,-41.88322,19.25138,13.56,0.69,2.27,2.0
1758086881.11528,1758086881.0898,0.0,0.0,0.0,8.59437,-47.15443,26.81443,13.56,0.69,2.27,2.0
1758086881.13125,1758086881.0998,0.0,0.0,0.0,0.0,-47.03984,31.62727,14.93,1.86,4.28,2.0
1758086881.13315,1758086881.1098,0.0,0.0,0.0,-5.84417,-46.98254,35.40879,14.93,1.86,4.28,2.0
1758086881.14747,1758086881.1198,0.0,0.0,0.0,-9.39651,-48.64412,35.58068,13.63,2.01,3.49,2.0
1758086881.16348,1758086881.1298,0.0,0.0,0.0,-9.4538,-51.22243,30.53865,13.63,2.01,3.49,2.0
1758086881.16713,1758086881.1398,0.0,0.0,0.0,-6.13065,-52.13916,24.92367,9.59,0.32,3.52,2.0
1758086881.18323,1758086881.1498,0.0,0.0,0.0,-0.34377,-50.3057,18.50654,8.31,-0.51,4.2,2.0
1758086881.18437,1758086881.1598,0.0,0.0,0.0,6.99009,-45.72203,11.97482,8.31,-0.51,4.2,2.0
1758086881.19922,1758086881.1698,0.0,0.0,0.0,18.56383,-37.18496,2.63561,9.19,-1.09,4.02,2.0
1758086881.20039,1758086881.1798,0.0,0.0,0.0,25.38203,-32.42941,-2.34913,9.19,-1.09,4.02,2.0
1758086881.21556,1758086881.1898,0.0,0.0,0.0,31.39809,-27.73116,-4.23989,10.1,-1.33,2.7,2.0
1758086881.23153,1758086881.1998,0.0,0.0,0.0,35.92446,-21.25674,-4.87014,10.1,-1.33,2.7,2.0
1758086881.23248,1758086881.2098,0.0,0.0,0.0,41.02378,-11.28727,-3.72423,11.07,-1.12,1.52,2.0
1758086881.2483,1758086881.2198,0.0,0.0,0.0,43.25832,-4.29718,-2.23454,10.91,-0.31,0.95,2.0
1758086881.2495,1758086881.2298,0.0,0.0,0.0,44.51882,2.46372,-0.85944,10.91,-0.31,0.95,2.0
1758086881.26625,1758086881.2398,0.0,0.0,0.0,44.51882,8.136,0.11459,10.1,0.5,0.61,2.0
1758086881.28333,1758086881.2498,0.0,0.0,0.0,42.74266,18.62113,0.80214,10.1,0.5,0.61,2.0
1758086881.28692,1758086881.2598,0.0,0.0,0.0,40.50812,25.26744,0.80214,9.58,1.12,0.56,2.0
1758086881.3033,1758086881.2698,0.0,0.0,0.0,37.24226,29.27814,0.40107,9.58,1.12,0.56,2.0
1758086881.3045,1758086881.2798,0.0,0.0,0.0,33.11696,32.88778,-0.51566,8.87,1.5,0.62,2.0
1758086881.31935,1758086881.2898,0.0,0.0,0.0,25.89769,37.52874,-1.60428,8.66,1.64,0.76,2.0
1758086881.32332,1758086881.2998,0.0,0.0,0.0,21.14215,42.05511,-3.09397,8.66,1.64,0.76,2.0
1758086881.33927,1758086881.3098,0.0,0.0,0.0,17.01685,44.86259,-4.1253,8.73,1.52,0.71,2.0
1758086881.34139,1758086881.3198,0.0,0.0,0.0,11.28727,45.09178,-5.95876,8.73,1.52,0.71,2.0
1758086881.35627,1758086881.3298,0.0,0.0,0.0,8.25059,45.20637,-6.8182,8.29,1.27,0.72,2.0
1758086881.35978,1758086881.3398,0.0,0.0,0.0,5.84417,45.72203,-7.44845,8.29,1.27,0.72,2.0
1758086881.3755,1758086881.3498,0.0,0.0,0.0,3.55234,45.72203,-8.65166,8.7,0.93,0.67,2.0
1758086881.39148,1758086881.3598,0.0,0.0,0.0,1.60428,42.1124,-10.08406,8.7,0.93,0.68,2.0
1758086881.39243,1758086881.3698,0.0,0.0,0.0,1.20321,38.21629,-10.59972,8.72,0.64,0.68,2.0
1758086881.40823,1758086881.3798,0.0,0.0,0.0,1.3178,36.15364,-10.02676,8.84,0.37,0.78,2.0
1758086881.40948,1758086881.3898,0.0,0.0,0.0,1.60428,30.25217,-9.22462,8.84,0.37,0.78,2.0
1758086881.42624,1758086881.3998,0.0,0.0,0.0,2.06265,22.63183,-8.88085,8.7,0.3,0.74,2.0
1758086881.44326,1758086881.4098,0.0,0.0,0.0,2.40642,20.16812,-8.76626,8.7,0.3,0.74,2.0
1758086881.44674,1758086881.4198,0.0,0.0,0.0,2.46372,18.27736,-8.65166,9.21,0.5,0.64,2.0
1758086881.46332,1758086881.4298,0.0,0.0,0.0,2.06265,17.01685,-8.99544,9.21,0.5,0.64,2.0
1758086881.46423,1758086881.4398,0.0,0.0,0.0,1.43239,15.92823,-9.62569,9.28,0.78,0.47,2.0
1758086881.48033,1758086881.4498,0.0,0.0,0.0,0.97403,16.55848,-9.62569,9.36,0.98,0.5,2.0
1758086881.48124,1758086881.4598,0.0,0.0,0.0,0.22918,17.24603,-8.93814,9.36,0.98,0.5,2.0
1758086881.49627,1758086881.4698,0.0,0.0,0.0,-0.11459,16.95955,-7.96411,9.21,0.93,0.46,2.0
1758086881.4998,1758086881.4798,0.0,0.0,0.0,0.11459,18.10547,-4.87014,9.21,0.93,0.46,2.0
1758086881.5155,1758086881.4898,0.0,0.0,0.0,2.86479,21.08485,-0.80214,8.99,0.56,0.56,2.0
1758086881.53145,1758086881.4998,0.0,0.0,0.0,2.63561,17.87628,0.11459,8.99,0.56,0.56,2.0
1758086881.53567,1758086881.5098,0.0,0.0,0.0,0.57296,9.62569,0.11459,8.68,0.48,0.33,2.0
1758086881.55177,1758086881.5198,0.0,0.0,0.0,-1.3751,5.4431,-0.34377,8.69,1.04,-0.18,2.0
1758086881.55245,1758086881.5298,0.0,0.0,0.0,-3.03668,1.60428,-0.57296,8.69,1.04,-0.18,2.0
1758086881.56877,1758086881.5398,0.0,0.0,0.0,-4.58366,-3.09397,-0.74485,8.62,1.42,0.09,2.0
1758086881.57083,1758086881.5498,0.0,0.0,0.0,-7.73493,-10.31324,-1.60428,8.62,1.42,0.09,2.0
1758086881.58655,1758086881.5598,0.0,0.0,0.0,-10.25595,-8.59437,-2.11994,9.1,1.71,0.11,2.0
1758086881.60303,1758086881.5698,0.0,0.0,0.0,-13.46451,5.50039,-4.0107,9.1,1.71,0.11,2.0
1758086881.60671,1758086881.5798,0.0,0.0,0.0,-17.13144,21.31403,-6.41713,12.08,1.78,0.16,2.0
1758086881.60971,1758086881.5898,0.0,0.0,0.0,-21.7151,-4.46907,-9.91217,10.18,1.78,0.35,2.0
1758086881.62627,1758086881.5998,0.0,0.0,0.0,-22.57454,-18.44924,-10.59972,10.18,1.78,0.35,2.0
1758086881.64333,1758086881.6098,0.0,0.0,0.0,-23.20479,-26.06958,-12.77696,9.97,1.5,-0.14,2.0
1758086881.64586,1758086881.6198,0.0,0.0,0.0,-24.5226,-28.30412,-14.61043,9.97,1.5,-0.14,2.0
1758086881.66129,1758086881.6298,0.0,0.0,0.0,-27.78845,-23.94964,-16.73037,11.04,1.53,-0.97,2.0
1758086881.66441,1758086881.6398,0.0,0.0,0.0,-33.17426,-14.15206,-19.59516,11.04,1.53,-0.97,2.0
1758086881.67954,1758086881.6498,0.0,0.0,0.0,-36.26823,-10.19865,-20.85567,11.54,2.03,-0.41,2.0
1758086881.68044,1758086881.6598,0.0,0.0,0.0,-36.15364,-11.80293,-20.05352,11.54,2.03,-0.41,2.0
1758086881.69557,1758086881.6698,0.0,0.0,0.0,-31.74186,-17.24603,-18.56383,11.4,1.74,0.39,2.0
1758086881.71127,1758086881.6798,0.0,0.0,0.0,-26.75713,-22.97561,-19.88164,12.89,0.46,1.49,2.0
1758086881.71569,1758086881.6898,0.0,0.0,0.0,-20.79837,-33.11696,-23.0902,12.89,0.46,1.49,2.0
1758086881.73123,1758086881.6998,0.0,0.0,0.0,-10.71431,-43.60209,-31.16891,13.29,-0.7,3.93,2.0
1758086881.73303,1758086881.7098,0.0,0.0,0.0,-3.66693,-51.73809,-37.01308,13.29,-0.7,3.93,2.0
1758086881.74753,1758086881.7198,0.0,0.0,0.0,2.57831,-51.6235,-40.62271,13.36,-1.26,3.91,2.0
1758086881.76327,1758086881.7298,0.0,0.0,0.0,6.41713,-51.50891,-40.7373,13.36,-1.26,3.91,2.0
1758086881.76605,1758086881.7398,0.0,0.0,0.0,6.07335,-50.93595,-38.44547,10.17,-0.13,2.82,2.0
1758086881.7813,1758086881.7498,0.0,0.0,0.0,2.34913,-48.75871,-35.2369,8.66,0.94,4.79,2.0
1758086881.78248,1758086881.7598,0.0,0.0,0.0,-3.72423,-43.94586,-29.9084,8.66,0.94,4.79,2.0
1758086881.79889,1758086881.7698,0.0,0.0,0.0,-11.11538,-38.73195,-22.11617,9.05,1.3,5.09,2.0
1758086881.80036,1758086881.7798,0.0,0.0,0.0,-23.31938,-35.3515,-9.22462,9.05,1.3,5.09,2.0
1758086881.81557,1758086881.7898,0.0,0.0,0.0,-31.16891,-32.42941,-0.97403,8.95,1.57,3.14,2.0
1758086881.83157,1758086881.7998,0.0,0.0,0.0,-37.81522,-29.56462,5.90147,8.95,1.57,3.14,2.0
1758086881.8325,1758086881.8098,0.0,0.0,0.0,-42.74266,-24.4653,10.37054,9.44,1.63,1.64,2.0
1758086881.84917,1758086881.8198,0.0,0.0,0.0,-46.46688,-11.74564,13.06344,11.0,1.19,1.39,2.0
1758086881.85009,1758086881.8298,0.0,0.0,0.0,-46.52417,-2.29183,12.204,11.0,1.19,1.39,2.0
1758086881.86554,1758086881.8398,0.0,0.0,0.0,-44.86259,6.70361,10.02676,11.5,0.24,0.68,2.0
1758086881.8816,1758086881.8498,0.0,0.0,0.0,-42.39888,14.49583,7.10468,11.5,0.24,0.68,2.0
1758086881.88251,1758086881.8598,0.0,0.0,0.0,-37.64333,22.97561,2.92208,10.77,-0.6,0.21,2.0
1758086881.89916,1758086881.8698,0.0,0.0,0.0,-33.74722,27.67386,1.14592,10.77,-0.6,0.21,2.0
1758086881.90035,1758086881.8798,0.0,0.0,0.0,-29.33544,31.2262,0.0573,9.88,-0.94,0.38,2.0
1758086881.91532,1758086881.8898,0.0,0.0,0.0,-21.94428,33.68992,0.17189,9.88,-0.94,0.38,2.0
1758086881.93159,1758086881.8998,0.0,0.0,0.0,-16.95955,37.52874,2.06265,9.28,-1.12,0.67,2.0
1758086881.93276,1758086881.9098,0.0,0.0,0.0,-11.91752,38.50277,4.18259,8.98,-1.21,0.75,2.0
1758086881.9476,1758086881.9198,0.0,0.0,0.0,-7.33386,38.78925,7.39116,8.98,-1.21,0.75,2.0
1758086881.96357,1758086881.9298,0.0,0.0,0.0,-1.14592,37.58603,12.37589,8.73,-1.04,0.77,2.0
1758086881.9657,1758086881.9398,0.0,0.0,0.0,2.23454,35.86716,15.75634,8.73,-1.04,0.77,2.0
1758086881.98029,1758086881.9498,0.0,0.0,0.0,5.4431,33.34615,18.9649,8.56,-0.66,0.87,2.0
1758086881.98148,1758086881.9598,0.0,0.0,0.0,7.79223,30.53865,21.7151,8.56,-0.66,0.87,2.0
1758086881.99656,1758086881.9698,0.0,0.0,0.0,10.8289,26.64254,24.29341,8.52,-0.26,1.07,2.0
1758086882.01331,1758086881.9798,0.0,0.0,0.0,12.43318,24.86637,25.21014,8.62,-0.03,1.1,2.0
1758086882.01455,1758086881.9898,0.0,0.0,0.0,13.5791,22.74642,25.49662,8.62,-0.03,1.1,2.0
1758086882.02927,1758086881.9998,0.0,0.0,0.0,14.43854,20.22541,24.92367,8.71,-0.05,1.05,2.0
1758086882.03047,1758086882.0098,0.0,0.0,0.0,15.41257,16.55848,23.49127,8.71,-0.05,1.05,2.0
1758086882.04548,1758086882.0198,0.0,0.0,0.0,15.75634,12.89155,22.23076,8.81,-0.15,0.83,2.0
1758086882.06149,1758086882.0298,0.0,0.0,0.0,15.87093,9.28192,21.02755,8.81,-0.15,0.83,2.0
1758086882.06246,1758086882.0398,0.0,0.0,0.0,15.98552,8.76626,19.53786,8.85,-0.13,0.48,2.0
1758086882.0773,1758086882.0498,0.0,0.0,0.0,14.09476,12.37589,18.16276,9.4,-0.12,0.16,2.0
1758086882.0936,1758086882.0598,0.0,0.0,0.0,14.49583,15.69904,16.50119,9.4,-0.12,0.16,2.0
1758086882.09556,1758086882.0698,0.0,0.0,0.0,14.32395,16.84496,14.49583,9.32,0.18,0.32,2.0
1758086882.11029,1758086882.0798,0.0,0.0,0.0,14.03747,15.46986,11.86023,9.32,0.18,0.32,2.0
1758086882.11149,1758086882.0898,0.0,0.0,0.0,13.86558,13.69369,10.54242,8.95,0.28,-0.1,2.0
1758086882.12628,1758086882.0998,0.0,0.0,0.0,14.09476,11.34457,9.28192,8.95,0.28,-0.1,2.0
1758086882.14309,1758086882.1098,0.0,0.0,0.0,14.03747,6.99009,8.30789,8.87,0.25,-0.28,2.0
1758086882.1442,1758086882.1198,0.0,0.0,0.0,15.87093,1.94806,6.53172,8.87,0.25,-0.28,2.0
1758086882.16009,1758086882.1298,0.0,0.0,0.0,17.36062,0.22918,5.09932,8.91,0.03,-0.29,2.0
1758086882.16132,1758086882.1398,0.0,0.0,0.0,19.53786,-0.85944,4.35448,9.63,-0.17,-0.66,2.0
1758086882.17658,1758086882.1498,0.0,0.0,0.0,22.05888,0.45837,4.35448,9.63,-0.17,-0.66,2.0
1758086882.19335,1758086882.1598,0.0,0.0,0.0,22.68913,12.54778,2.7502,10.94,-0.2,-0.93,2.0
1758086882.19424,1758086882.1698,0.0,0.0,0.0,21.7151,19.82434,1.77617,10.94,-0.2,-0.93,2.0
1758086882.20963,1758086882.1798,0.0,0.0,0.0,19.76705,19.13679,0.17189,11.79,0.18,-0.24,2.0
1758086882.21048,1758086882.1898,0.0,0.0,0.0,15.92823,4.81285,-3.32316,11.79,0.18,-0.24,2.0
1758086882.22546,1758086882.1998,0.0,0.0,0.0,2.46372,-35.75257,-7.10468,8.8,1.21,0.62,2.0
1758086882.24135,1758086882.2098,0.0,0.0,0.0,-1.20321,-50.3057,-2.7502,9.6,0.96,-0.87,2.0
1758086882.24311,1758086882.2198,0.0,0.0,0.0,-4.23989,-50.59217,1.48969,9.6,0.96,-0.87,2.0
1758086882.2573,1758086882.2298,0.0,0.0,0.0,-5.15662,-43.02913,3.03668,12.24,-0.11,-2.09,2.0
1758086882.2602,1758086882.2398,0.0,0.0,0.0,-3.60963,-31.85646,2.7502,12.24,-0.11,-2.09,2.0
1758086882.27627,1758086882.2498,0.0,0.0,0.0,-2.92208,-29.39274,1.48969,12.26,-0.29,-0.07,2.0
1758086882.29326,1758086882.2598,0.0,0.0,0.0,-4.29718,-36.15364,2.11994,12.26,-0.29,-0.07,2.0
1758086882.2954,1758086882.2698,0.0,0.0,0.0,-7.50575,-48.70141,7.50575,12.67,0.63,2.04,2.0
1758086882.3103,1758086882.2798,0.0,0.0,0.0,-14.03747,-58.04062,13.5218,14.47,1.58,4.39,2.0
1758086882.31176,1758086882.2898,0.0,0.0,0.0,-18.27736,-56.20716,20.05352,14.47,1.58,4.39,2.0
1758086882.3265,1758086882.2998,0.0,0.0,0.0,-20.34,-50.3057,25.61122,14.84,1.53,3.92,2.0
1758086882.34335,1758086882.3098,0.0,0.0,0.0,-16.3293,-41.02378,30.65324,14.84,1.53,3.92,2.0
1758086882.34509,1758086882.3198,0.0,0.0,0.0,-10.19865,-40.10705,29.96569,11.16,-1.03,3.86,2.0
1758086882.36031,1758086882.3298,0.0,0.0,0.0,-2.34913,-41.02378,26.81443,11.16,-1.03,3.86,2.0
1758086882.36147,1758086882.3398,0.0,0.0,0.0,6.18794,-37.64333,21.94428,8.71,-1.74,3.5,2.0
1758086882.37655,1758086882.3498,0.0,0.0,0.0,19.07949,-26.06958,14.09476,8.71,-1.74,3.43,2.0
1758086882.39335,1758086882.3598,0.0,0.0,0.0,26.35606,-18.44924,8.42248,10.03,-1.38,3.43,2.0
1758086882.39426,1758086882.3698,0.0,0.0,0.0,32.37212,-13.75099,5.21392,10.83,-1.26,3.04,2.0
1758086882.41088,1758086882.3798,0.0,0.0,0.0,35.92446,-8.25059,3.60963,10.83,-1.26,3.04,2.0
1758086882.41289,1758086882.3898,0.0,0.0,0.0,38.84654,-0.68755,2.57831,11.11,-0.9,2.08,2.0
1758086882.42861,1758086882.3998,0.0,0.0,0.0,39.87786,4.52637,1.94806,11.11,-0.9,2.08,2.0
1758086882.42951,1758086882.4098,0.0,0.0,0.0,40.04975,8.59437,1.20321,10.23,-0.17,1.39,2.0
1758086882.44534,1758086882.4198,0.0,0.0,0.0,39.01843,12.49048,0.34377,10.23,-0.17,1.39,2.0
1758086882.46132,1758086882.4298,0.0,0.0,0.0,36.26823,19.88164,-2.29183,9.24,0.45,1.04,2.0
1758086882.46363,1758086882.4398,0.0,0.0,0.0,33.80451,25.7831,-3.89611,8.94,1.05,1.06,2.0
1758086882.47912,1758086882.4498,0.0,0.0,0.0,30.88243,30.65324,-5.55769,8.94,1.05,1.06,2.0
1758086882.48111,1758086882.4598,0.0,0.0,0.0,27.2155,33.34615,-6.8182,8.37,1.54,1.05,2.0
1758086882.49628,1758086882.4698,0.0,0.0,0.0,20.97026,38.1017,-7.39116,8.37,1.54,1.05,2.0
1758086882.51263,1758086882.4798,0.0,0.0,0.0,17.01685,38.56006,-6.47442,8.11,1.64,0.78,2.0
1758086882.51351,1758086882.4898,0.0,0.0,0.0,12.89155,40.16434,-6.99009,8.11,1.64,0.78,2.0
1758086882.52828,1758086882.4998,0.0,0.0,0.0,8.59437,43.77398,-6.7609,8.07,1.54,0.73,2.0
1758086882.52953,1758086882.5098,0.0,0.0,0.0,6.58902,44.17505,-6.18794,8.35,1.23,0.81,2.0
1758086882.54536,1758086882.5198,0.0,0.0,0.0,4.87014,42.74266,-6.07335,8.35,1.23,0.81,2.0
1758086882.5616,1758086882.5298,0.0,0.0,0.0,3.38045,41.42485,-5.72958,8.55,0.96,0.96,2.0
1758086882.56254,1758086882.5398,0.0,0.0,0.0,1.43239,40.39353,-6.18794,8.55,0.96,0.96,2.0
1758086882.57733,1758086882.5498,0.0,0.0,0.0,0.40107,36.89849,-6.53172,9.01,0.73,0.87,2.0
1758086882.5941,1758086882.5598,0.0,0.0,0.0,-0.68755,31.62727,-6.47442,9.01,0.73,0.87,2.0
1758086882.59613,1758086882.5698,0.0,0.0,0.0,-1.3751,26.12688,-6.8182,8.81,0.53,0.73,2.0
1758086882.61151,1758086882.5798,0.0,0.0,0.0,-2.40642,19.42327,-7.67763,8.92,0.45,0.57,2.0
1758086882.6128,1758086882.5898,0.0,0.0,0.0,-2.86479,16.38659,-8.65166,8.92,0.45,0.57,2.0
1758086882.6273,1758086882.5998,0.0,0.0,0.0,-3.20856,14.43854,-9.91217,9.05,0.47,0.45,2.0
1758086882.6436,1758086882.6098,0.0,0.0,0.0,-3.26586,13.98017,-10.8862,9.05,0.47,0.45,2.0
1758086882.64614,1758086882.6198,0.0,0.0,0.0,-2.7502,14.9542,-11.91752,9.34,0.58,0.45,2.0
1758086882.6613,1758086882.6298,0.0,0.0,0.0,-1.60428,15.12609,-10.94349,9.34,0.58,0.45,2.0
1758086882.66251,1758086882.6398,0.0,0.0,0.0,-0.0573,13.5218,-9.22462,9.23,0.55,0.38,2.0
1758086882.67731,1758086882.6498,0.0,0.0,0.0,1.83346,12.37589,-6.7609,9.23,0.55,0.38,2.0
1758086882.69332,1758086882.6598,0.0,0.0,0.0,7.33386,12.54778,-1.3178,8.81,0.27,0.32,2.0
1758086882.69453,1758086882.6698,0.0,0.0,0.0,8.36518,7.50575,-0.11459,8.39,0.1,0.16,2.0
1758086882.71091,1758086882.6798,0.0,0.0,0.0,8.02141,1.94806,-0.17189,8.39,0.1,0.16,2.0
1758086882.71293,1758086882.6898,0.0,0.0,0.0,7.16197,-4.92744,-0.34377,8.26,0.6,-0.52,2.0
1758086882.72835,1758086882.6998,0.0,0.0,0.0,5.27121,-11.22997,-1.03132,8.26,0.6,-0.52,2.0
1758086882.72955,1758086882.7098,0.0,0.0,0.0,3.55234,-16.55848,-0.40107,8.11,1.18,-0.4,2.0
1758086882.74568,1758086882.7198,0.0,0.0,0.0,0.40107,-11.34457,-0.22918,8.11,1.18,-0.4,2.0
1758086882.76138,1758086882.7298,0.0,0.0,0.0,-5.32851,13.17803,-1.48969,10.07,1.85,-0.32,2.0
1758086882.7635,1758086882.7398,0.0,0.0,0.0,-8.36518,23.94964,-1.3178,12.13,2.02,-0.31,2.0
1758086882.77827,1758086882.7498,0.0,0.0,0.0,-12.37589,2.23454,-3.95341,12.13,2.02,-0.31,2.0
1758086882.78048,1758086882.7598,0.0,0.0,0.0,-13.5791,-14.49583,-5.50039,9.08,2.15,0.63,2.0
1758086882.79658,1758086882.7698,0.0,0.0,0.0,-14.15206,-30.02299,-9.74028,9.08,2.15,0.63,2.0
1758086882.81314,1758086882.7798,0.0,0.0,0.0,-14.03747,-34.09099,-11.63104,10.58,1.72,-0.27,2.0
1758086882.81668,1758086882.7898,0.0,0.0,0.0,-14.61043,-33.00237,-13.46451,10.58,1.72,-0.27,2.0
1758086882.83336,1758086882.7998,0.0,0.0,0.0,-15.35527,-29.27814,-14.15206,11.49,1.29,-0.68,2.0
1758086882.83671,1758086882.8098,0.0,0.0,0.0,-15.92823,-25.49662,-14.03747,11.28,1.02,-0.46,2.0
1758086882.85261,1758086882.8198,0.0,0.0,0.0,-15.35527,-26.12688,-14.09476,11.28,1.02,-0.46,2.0
1758086882.85352,1758086882.8298,0.0,0.0,0.0,-13.46451,-28.30412,-14.61043,11.6,0.65,1.08,2.0
1758086882.86835,1758086882.8398,0.0,0.0,0.0,-9.62569,-33.74722,-17.13144,11.6,0.65,1.08,2.0
1758086882.87069,1758086882.8498,0.0,0.0,0.0,-0.51566,-47.89928,-25.49662,13.02,-0.19,2.55,2.0
1758086882.88654,1758086882.8598,0.0,0.0,0.0,6.7609,-56.83742,-32.42941,13.02,-0.19,2.55,2.0
1758086882.90233,1758086882.8698,0.0,0.0,0.0,13.12073,-61.1346,-39.24761,14.04,-0.71,3.6,2.0
1758086882.90352,1758086882.8798,0.0,0.0,0.0,16.73037,-60.04598,-44.23235,14.04,-0.71,3.6,2.0
1758086882.91916,1758086882.8898,0.0,0.0,0.0,14.20935,-57.12389,-43.20102,13.2,-0.14,3.18,2.0
1758086882.92036,1758086882.8998,0.0,0.0,0.0,8.76626,-54.66018,-40.33623,9.9,1.55,3.99,2.0
1758086882.93533,1758086882.9098,0.0,0.0,0.0,-0.74485,-48.01387,-36.7266,9.9,1.55,3.99,2.0
1758086882.95155,1758086882.9198,0.0,0.0,0.0,-13.40721,-38.44547,-23.49127,9.66,2.33,5.03,2.0
1758086882.95536,1758086882.9298,0.0,0.0,0.0,-22.51724,-34.14828,-13.80828,9.66,2.33,5.03,2.0
1758086882.97032,1758086882.9398,0.0,0.0,0.0,-30.99702,-28.87707,-4.1253,9.62,2.06,3.26,2.0
1758086882.97153,1758086882.9498,0.0,0.0,0.0,-38.44547,-23.66316,4.29718,9.62,2.06,3.26,2.0
1758086882.98632,1758086882.9598,0.0,0.0,0.0,-47.38361,-15.29797,11.74564,10.09,1.83,2.07,2.0
1758086883.00233,1758086882.9698,0.0,0.0,0.0,-50.87865,-7.33386,12.60507,11.15,1.12,1.69,2.0
1758086883.00352,1758086882.9798,0.0,0.0,0.0,-52.19646,2.6929,11.34457,11.15,1.12,1.69,2.0
1758086883.02059,1758086882.9898,0.0,0.0,0.0,-51.85268,12.14671,8.136,11.78,0.02,1.03,2.0
1758086883.02152,1758086882.9998,0.0,0.0,0.0,-48.52953,23.31938,2.29183,11.78,0.02,1.03,2.0
1758086883.03661,1758086883.0098,0.0,0.0,0.0,-45.09178,27.84575,-1.08862,10.72,-0.81,0.76,2.0
1758086883.05311,1758086883.0198,0.0,0.0,0.0,-41.25296,31.74186,-3.49504,10.72,-0.81,0.76,2.0
1758086883.05691,1758086883.0298,0.0,0.0,0.0,-36.7266,35.2942,-4.64096,9.45,-1.08,0.8,2.0
1758086883.0726,1758086883.0398,0.0,0.0,0.0,-29.27814,38.27358,-4.0107,8.65,-1.1,0.93,2.0
1758086883.07353,1758086883.0498,0.0,0.0,0.0,-24.00693,38.15899,-2.23454,8.65,-1.1,0.93,2.0
1758086883.08836,1758086883.0598,0.0,0.0,0.0,-18.79302,37.29956,0.74485,8.24,-1.21,0.97,2.0
1758086883.09029,1758086883.0698,0.0,0.0,0.0,-11.51645,36.26823,6.70361,8.24,-1.21,0.97,2.0
1758086883.10632,1758086883.0798,0.0,0.0,0.0,-7.39116,34.32018,11.00079,8.28,-1.2,0.95,2.0
1758086883.12233,1758086883.0898,0.0,0.0,0.0,-4.29718,32.14294,15.0115,8.28,-1.2,0.95,2.0
1758086883.12592,1758086883.0998,0.0,0.0,0.0,-1.94806,29.39274,18.44924,8.27,-0.8,0.94,2.0
1758086883.1416,1758086883.1098,0.0,0.0,0.0,0.45837,24.92367,21.7151,8.27,-0.8,0.94,2.0
1758086883.14413,1758086883.1198,0.0,0.0,0.0,1.3178,21.42862,22.57454,8.38,-0.19,1.16,2.0
1758086883.16014,1758086883.1298,0.0,0.0,0.0,2.00535,18.73572,22.57454,8.62,0.28,1.14,2.0
1758086883.16135,1758086883.1398,0.0,0.0,0.0,2.34913,16.21471,21.48592,8.62,0.28,1.14,2.0
1758086883.17659,1758086883.1498,0.0,0.0,0.0,2.63561,13.34992,19.13679,8.9,0.46,1.05,2.0
1758086883.18071,1758086883.1598,0.0,0.0,0.0,2.34913,12.204,16.90226,8.9,0.46,1.05,2.0
1758086883.19635,1758086883.1698,0.0,0.0,0.0,1.71887,9.96947,15.06879,8.94,0.4,0.94,2.0
1758086883.20074,1758086883.1798,0.0,0.0,0.0,0.97403,9.05273,12.83425,8.94,0.4,0.94,2.0
1758086883.21659,1758086883.1898,0.0,0.0,0.0,-0.40107,6.35983,10.8289,8.86,0.24,0.67,2.0
1758086883.23417,1758086883.1998,0.0,0.0,0.0,-1.3751,7.84952,9.74028,9.13,0.11,0.45,2.0
1758086883.23769,1758086883.2098,0.0,0.0,0.0,-3.03668,11.57375,8.47978,9.13,0.11,0.45,2.0
1758086883.25341,1758086883.2198,0.0,0.0,0.0,-5.32851,15.64175,6.7609,9.5,0.27,0.28,2.0
1758086883.25512,1758086883.2298,0.0,0.0,0.0,-8.88085,16.55848,6.53172,9.5,0.27,0.28,2.0
1758086883.27022,1758086883.2398,0.0,0.0,0.0,-8.70896,20.45459,6.07335,9.52,0.16,0.05,2.0
1758086883.27164,1758086883.2498,0.0,0.0,0.0,-8.99544,23.94964,5.32851,9.52,0.16,0.05,2.0
1758086883.28656,1758086883.2598,0.0,0.0,0.0,-8.76626,25.49662,4.81285,9.71,0.36,-0.51,2.0
1758086883.30266,1758086883.2698,0.0,0.0,0.0,-7.67763,26.06958,4.64096,9.38,0.15,0.2,2.0
1758086883.30472,1758086883.2798,0.0,0.0,0.0,-6.7609,22.97561,4.1253,9.38,0.15,0.2,2.0
1758086883.31937,1758086883.2898,0.0,0.0,0.0,-4.69825,19.48057,3.72423,8.85,-0.28,-0.02,2.0
1758086883.32063,1758086883.2998,0.0,0.0,0.0,-0.40107,14.9542,2.92208,8.85,-0.28,-0.02,2.0
1758086883.33643,1758086883.3098,0.0,0.0,0.0,4.92744,17.99088,4.52637,9.3,-0.88,0.16,2.0
1758086883.35258,1758086883.3198,0.0,0.0,0.0,8.70896,23.66316,4.1253,9.3,-0.88,0.16,2.0
1758086883.35358,1758086883.3298,0.0,0.0,0.0,9.85487,27.33009,3.26586,11.16,-1.05,-0.57,2.0
1758086883.36942,1758086883.3398,0.0,0.0,0.0,11.28727,24.00693,1.03132,11.71,-1.05,-0.36,2.0
1758086883.37034,1758086883.3498,0.0,0.0,0.0,12.89155,6.47442,0.97403,11.71,-0.46,-0.36,2.0
1758086883.38615,1758086883.3598,0.0,0.0,0.0,13.80828,-17.6471,1.83346,9.22,-0.33,0.02,2.0
1758086883.40274,1758086883.3698,0.0,0.0,0.0,13.5218,-33.80451,3.55234,9.22,-0.33,0.02,2.0
1758086883.40357,1758086883.3798,0.0,0.0,0.0,14.78231,-41.31026,9.05273,10.31,-0.75,-0.4,2.0
1758086883.42066,1758086883.3898,0.0,0.0,0.0,16.10011,-38.84654,9.5684,10.31,-0.75,-0.4,2.0
1758086883.4216,1758086883.3998,0.0,0.0,0.0,18.33465,-34.77854,9.22462,11.57,-0.74,-1.41,2.0
1758086883.43677,1758086883.4098,0.0,0.0,0.0,19.53786,-29.8511,7.73493,11.57,-0.74,-1.41,2.0
1758086883.45319,1758086883.4198,0.0,0.0,0.0,19.13679,-29.50733,6.70361,12.13,-0.41,-0.37,2.0
1758086883.45675,1758086883.4298,0.0,0.0,0.0,16.95955,-36.61201,8.30789,12.41,0.49,1.55,2.0
1758086883.47265,1758086883.4398,0.0,0.0,0.0,13.69369,-47.09713,12.2613,12.41,0.49,1.55,2.0
1758086883.47358,1758086883.4498,0.0,0.0,0.0,8.70896,-55.6915,22.40265,13.28,1.2,3.88,2.0
1758086883.48862,1758086883.4598,0.0,0.0,0.0,-0.22918,-61.70755,29.73651,13.28,1.2,3.88,2.0
1758086883.49069,1758086883.4698,0.0,0.0,0.0,-5.27121,-61.42108,35.63798,14.65,1.81,3.77,2.0
1758086883.50664,1758086883.4798,0.0,0.0,0.0,-7.62034,-60.04598,37.64333,14.65,1.81,3.77,2.0
1758086883.52364,1758086883.4898,0.0,0.0,0.0,-4.98473,-60.10328,34.0337,11.73,0.79,3.64,2.0
1758086883.52616,1758086883.4998,0.0,0.0,0.0,0.0,-60.33246,28.64789,8.28,-0.36,4.38,2.0
1758086883.54176,1758086883.5098,0.0,0.0,0.0,6.99009,-57.12389,22.97561,8.28,-0.36,4.38,2.0
1758086883.5437,1758086883.5198,0.0,0.0,0.0,14.61043,-50.64947,15.75634,8.35,-0.98,4.46,2.0
1758086883.55834,1758086883.5298,0.0,0.0,0.0,25.61122,-43.88857,4.81285,8.35,-0.98,4.46,2.0
1758086883.56035,1758086883.5398,0.0,0.0,0.0,31.2262,-40.10705,-1.03132,9.02,-1.41,3.32,2.0
1758086883.57876,1758086883.5498,0.0,0.0,0.0,35.2369,-34.89313,-4.64096,9.02,-1.41,3.32,2.0
1758086883.60252,1758086883.5598,0.0,0.0,0.0,37.29956,-27.73116,-6.7609,10.46,-1.2,2.07,2.0
1758086883.60542,1758086883.5698,0.0,0.0,0.0,38.27358,-15.12609,-7.62034,11.27,-0.25,1.09,2.0
1758086883.60832,1758086883.5798,0.0,0.0,0.0,37.52874,-6.41713,-7.10468,11.27,-0.25,1.09,2.0
1758086883.62421,1758086883.5898,0.0,0.0,0.0,35.92446,1.66158,-6.7609,10.79,0.95,0.46,2.0
1758086883.63019,1758086883.5998,0.0,0.0,0.0,33.23156,10.19865,-6.53172,10.79,0.95,0.46,2.0
1758086883.6308,1758086883.6098,0.0,0.0,0.0,27.78845,22.97561,-6.18794,10.16,1.82,0.21,2.0
1758086883.64667,1758086883.6198,0.0,0.0,0.0,23.72045,30.36677,-6.18794,10.16,1.82,0.21,2.0
1758086883.66367,1758086883.6298,0.0,0.0,0.0,19.70975,36.95578,-6.13065,9.58,2.08,0.22,2.0
1758086883.66624,1758086883.6398,0.0,0.0,0.0,15.35527,42.68536,-6.53172,9.58,2.08,0.22,2.0
1758086883.68237,1758086883.6498,0.0,0.0,0.0,9.4538,49.56085,-7.10468,8.97,1.85,0.19,2.0
1758086883.68379,1758086883.6598,0.0,0.0,0.0,5.90147,53.45696,-7.21927,8.81,1.46,0.35,2.0
1758086883.69861,1758086883.6698,0.0,0.0,0.0,3.20856,56.89471,-7.62034,8.81,1.46,0.35,2.0
1758086883.69961,1758086883.6798,0.0,0.0,0.0,0.17189,59.18654,-8.65166,8.92,1.15,0.44,2.0
1758086883.71565,1758086883.6898,0.0,0.0,0.0,-0.85944,60.44705,-9.22462,8.92,1.15,0.44,2.0
1758086883.73138,1758086883.6998,0.0,0.0,0.0,-1.77617,62.5097,-10.54242,9.22,0.83,0.67,2.0
1758086883.73258,1758086883.7098,0.0,0.0,0.0,-1.71887,61.30648,-10.19865,9.22,0.83,0.67,2.0
1758086883.74765,1758086883.7198,0.0,0.0,0.0,-1.66158,50.82136,-11.86023,9.01,0.39,0.92,2.0
1758086883.74938,1758086883.7298,0.0,0.0,0.0,-1.43239,44.748,-11.74564,8.44,0.22,1.02,2.0
1758086883.76567,1758086883.7398,0.0,0.0,0.0,-0.85944,38.90384,-11.22997,8.44,0.22,1.02,2.0
1758086883.78153,1758086883.7498,0.0,0.0,0.0,-0.0573,33.80451,-10.71431,8.35,0.15,0.93,2.0
1758086883.78257,1758086883.7598,0.0,0.0,0.0,1.43239,26.47065,-8.88085,8.35,0.15,0.93,2.0
1758086883.79766,1758086883.7698,0.0,0.0,0.0,2.92208,22.40265,-7.04738,8.12,0.18,1.14,2.0
1758086883.80122,1758086883.7798,0.0,0.0,0.0,6.35983,19.99623,-3.60963,8.12,0.18,1.14,2.0
1758086883.81669,1758086883.7898,0.0,0.0,0.0,7.10468,15.92823,-2.86479,7.97,0.09,1.15,2.0
1758086883.83265,1758086883.7998,0.0,0.0,0.0,5.78687,13.5218,-3.95341,8.89,0.81,0.35,2.0
1758086883.83361,1758086883.8098,0.0,0.0,0.0,3.60963,11.86023,-5.21392,8.89,0.81,0.35,2.0
1758086883.85166,1758086883.8198,0.0,0.0,0.0,1.48969,9.96947,-5.90147,9.04,1.32,0.29,2.0
1758086883.85284,1758086883.8298,0.0,0.0,0.0,-0.11459,10.37054,-6.07335,9.04,1.32,0.29,2.0
1758086883.86757,1758086883.8398,0.0,0.0,0.0,-2.63561,9.39651,-5.50039,9.0,1.24,0.42,2.0
1758086883.88335,1758086883.8498,0.0,0.0,0.0,-4.58366,6.7609,-5.27121,9.0,1.24,0.42,2.0
1758086883.88552,1758086883.8598,0.0,0.0,0.0,-5.61499,3.09397,-4.35448,8.54,0.96,0.1,2.0
1758086883.90043,1758086883.8698,0.0,0.0,0.0,-7.33386,-2.29183,-2.92208,8.54,0.96,0.1,2.0
1758086883.90164,1758086883.8798,0.0,0.0,0.0,-8.42248,-12.54778,-1.94806,8.23,0.72,-0.13,2.0
1758086883.91664,1758086883.8898,0.0,0.0,0.0,-9.85487,-15.87093,0.22918,8.81,0.9,-0.34,2.0
1758086883.93267,1758086883.8998,0.0,0.0,0.0,-11.86023,-13.23533,0.97403,8.81,0.9,-0.34,2.0
1758086883.93361,1758086883.9098,0.0,0.0,0.0,-15.75634,2.6929,-1.43239,11.19,1.29,-0.23,2.0
1758086883.94871,1758086883.9198,0.0,0.0,0.0,-17.87628,14.15206,-2.86479,11.19,1.29,-0.23,2.0
1758086883.94964,1758086883.9298,0.0,0.0,0.0,-18.27736,-1.20321,-2.97938,12.21,1.62,0.17,2.0
1758086883.96543,1758086883.9398,0.0,0.0,0.0,-19.88164,-19.42327,-5.09932,12.21,1.62,0.17,2.0
1758086883.9814,1758086883.9498,0.0,0.0,0.0,-19.42327,-34.60666,-7.10468,9.71,1.51,0.25,2.0
1758086883.98259,1758086883.9598,0.0,0.0,0.0,-18.62113,-37.29956,-8.88085,10.81,1.22,-1.04,2.0
1758086883.99767,1758086883.9698,0.0,0.0,0.0,-17.87628,-36.49741,-10.31324,10.81,1.22,-1.04,2.0
1758086883.99938,1758086883.9798,0.0,0.0,0.0,-17.36062,-31.91375,-11.22997,11.21,1.06,-0.95,2.0
1758086884.01565,1758086883.9898,0.0,0.0,0.0,-15.98552,-26.98631,-10.65701,11.21,1.06,-0.95,2.0
1758086884.03165,1758086883.9998,0.0,0.0,0.0,-14.38124,-25.43933,-9.85487,10.83,0.92,-0.27,2.0
1758086884.03262,1758086884.0098,0.0,0.0,0.0,-11.00079,-26.35606,-9.28192,10.83,0.92,-0.27,2.0
1758086884.04771,1758086884.0198,0.0,0.0,0.0,-5.95876,-30.02299,-10.25595,11.38,0.35,0.9,2.0
1758086884.06344,1758086884.0298,0.0,0.0,0.0,3.32316,-43.65939,-16.84496,12.44,-0.37,2.93,2.0
1758086884.06465,1758086884.0398,0.0,0.0,0.0,10.65701,-52.884,-22.68913,12.44,-0.37,2.93,2.0
1758086884.07967,1758086884.0498,0.0,0.0,0.0,17.13144,-57.41038,-30.02299,14.03,-0.71,3.99,2.0
1758086884.09807,1758086884.0598,0.0,0.0,0.0,22.63183,-56.26446,-37.12767,14.03,-0.71,3.99,2.0
1758086884.09834,1758086884.0698,0.0,0.0,0.0,22.23076,-54.94666,-38.1017,12.99,-0.24,4.04,2.0
1758086884.11168,1758086884.0798,0.0,0.0,0.0,18.9649,-54.3164,-36.32552,12.99,-0.24,4.04,2.0
1758086884.11273,1758086884.0898,0.0,0.0,0.0,12.60507,-51.73809,-33.23156,9.93,0.9,4.99,2.0
1758086884.12746,1758086884.0998,0.0,0.0,0.0,0.11459,-41.48215,-23.66316,9.93,0.9,4.99,2.0
1758086884.12949,1758086884.1098,0.0,0.0,0.0,-9.05273,-35.63798,-15.92823,9.39,1.59,4.4,2.0
1758086884.1457,1758086884.1198,0.0,0.0,0.0,-17.76169,-30.30947,-7.62034,9.14,2.16,2.8,2.0
1758086884.16146,1758086884.1298,0.0,0.0,0.0,-25.72581,-25.26744,0.45837,9.14,2.16,2.8,2.0
1758086884.16298,1758086884.1398,0.0,0.0,0.0,-35.00772,-16.55848,9.74028,9.73,2.36,1.87,2.0
1758086884.17769,1758086884.1498,0.0,0.0,0.0,-39.3622,-7.33386,12.54778,9.73,2.36,1.87,2.0
1758086884.1934,1758086884.1598,0.0,0.0,0.0,-41.94051,1.83346,13.23533,11.22,1.83,1.65,2.0
1758086884.19516,1758086884.1698,0.0,0.0,0.0,-42.91454,11.45916,11.74564,11.22,1.83,1.65,2.0
1758086884.20946,1758086884.1798,0.0,0.0,0.0,-42.05511,21.48592,6.99009,11.43,0.69,1.09,2.0
1758086884.21072,1758086884.1898,0.0,0.0,0.0,-40.27893,25.8404,3.38045,10.43,-0.43,0.76,2.0
1758086884.22575,1758086884.1998,0.0,0.0,0.0,-37.47144,30.19488,0.17189,10.43,-0.43,0.76,2.0
1758086884.24167,1758086884.2098,0.0,0.0,0.0,-34.14828,33.86181,-2.06265,9.64,-1.04,0.68,2.0
1758086884.24298,1758086884.2198,0.0,0.0,0.0,-27.50197,37.87251,-3.38045,9.64,-1.04,0.68,2.0
1758086884.25749,1758086884.2298,0.0,0.0,0.0,-22.68913,39.4768,-2.97938,8.93,-1.2,0.76,2.0
1758086884.25941,1758086884.2398,0.0,0.0,0.0,-17.87628,40.62271,-1.3751,8.93,-1.2,0.76,2.0
1758086884.2755,1758086884.2498,0.0,0.0,0.0,-13.69369,44.00316,0.97403,8.6,-1.12,0.92,2.0
1758086884.29147,1758086884.2598,0.0,0.0,0.0,-8.93814,43.02913,4.1253,8.21,-0.72,0.96,2.0
1758086884.29301,1758086884.2698,0.0,0.0,0.0,-7.04738,43.54479,6.24524,8.21,-0.72,0.96,2.0
1758086884.30782,1758086884.2798,0.0,0.0,0.0,-5.4431,42.62806,8.93814,8.25,-0.25,1.14,2.0
1758086884.32372,1758086884.2898,0.0,0.0,0.0,-2.97938,39.53409,12.60507,8.25,-0.25,1.14,2.0
1758086884.32576,1758086884.2998,0.0,0.0,0.0,-1.83346,38.44547,14.61043,8.38,-0.02,0.87,2.0
1758086884.34075,1758086884.3098,0.0,0.0,0.0,-0.85944,37.18496,15.58445,8.38,-0.02,0.87,2.0
1758086884.3417,1758086884.3198,0.0,0.0,0.0,0.11459,36.6693,15.92823,8.76,0.17,1.01,2.0
1758086884.35672,1758086884.3298,0.0,0.0,0.0,1.43239,33.9764,15.0115,8.95,0.17,0.99,2.0
1758086884.37267,1758086884.3398,0.0,0.0,0.0,2.06265,30.93972,13.86558,8.95,0.23,0.99,2.0
1758086884.37443,1758086884.3498,0.0,0.0,0.0,2.92208,27.67386,12.54778,9.06,0.17,0.87,2.0
1758086884.38946,1758086884.3598,0.0,0.0,0.0,3.49504,23.72045,11.34457,9.06,0.17,0.87,2.0
1758086884.39107,1758086884.3698,0.0,0.0,0.0,3.83882,17.18874,9.33921,9.19,0.14,0.58,2.0
1758086884.40544,1758086884.3798,0.0,0.0,0.0,3.89611,14.38124,8.36518,9.19,0.14,0.58,2.0
1758086884.42148,1758086884.3898,0.0,0.0,0.0,4.1253,14.78231,7.44845,9.41,0.18,0.42,2.0
1758086884.42277,1758086884.3998,0.0,0.0,0.0,4.23989,17.18874,6.53172,9.41,0.18,0.42,2.0
1758086884.43747,1758086884.4098,0.0,0.0,0.0,2.92208,19.99623,6.99009,9.84,0.15,0.22,2.0
1758086884.45373,1758086884.4198,0.0,0.0,0.0,3.60963,21.7151,6.35983,9.78,0.1,0.48,2.0
1758086884.45576,1758086884.4298,0.0,0.0,0.0,3.60963,20.05352,5.61499,9.78,0.1,0.48,2.0
1758086884.47126,1758086884.4398,0.0,0.0,0.0,4.0107,15.87093,4.64096,9.04,0.29,-0.11,2.0
1758086884.47245,1758086884.4498,0.0,0.0,0.0,4.98473,6.47442,3.95341,9.04,0.29,-0.11,2.0
1758086884.48772,1758086884.4598,0.0,0.0,0.0,5.32851,0.74485,3.09397,8.62,0.22,0.23,2.0
1758086884.50371,1758086884.4698,0.0,0.0,0.0,6.07335,-4.98473,2.29183,8.62,0.22,0.23,2.0
1758086884.50473,1758086884.4798,0.0,0.0,0.0,8.42248,-10.8862,0.97403,8.78,-0.03,-0.61,2.0
1758086884.5196,1758086884.4898,0.0,0.0,0.0,9.91217,-13.23533,0.0,9.83,-0.25,-0.96,2.0
1758086884.52154,1758086884.4998,0.0,0.0,0.0,12.43318,-13.40721,0.57296,9.83,-0.25,-0.96,2.0
1758086884.5377,1758086884.5098,0.0,0.0,0.0,13.86558,-10.08406,2.46372,11.12,-0.51,-0.78,2.0
1758086884.53944,1758086884.5198,0.0,0.0,0.0,14.49583,-1.43239,5.15662,11.12,-0.51,-0.78,2.0
1758086884.55555,1758086884.5298,0.0,0.0,0.0,15.0115,0.80214,6.99009,12.09,-0.25,-0.29,2.0
1758086884.57142,1758086884.5398,0.0,0.0,0.0,15.41257,-6.35983,7.44845,12.09,-0.25,-0.29,2.0
1758086884.57273,1758086884.5498,0.0,0.0,0.0,15.87093,-23.66316,8.136,10.62,-0.03,-0.13,2.0
1758086884.58774,1758086884.5598,0.0,0.0,0.0,15.29797,-46.1804,8.30789,9.0,-0.01,-1.18,2.0
1758086884.60343,1758086884.5698,0.0,0.0,0.0,14.78231,-55.51962,9.91217,9.0,-0.01,-1.18,2.0
1758086884.60546,1758086884.5798,0.0,0.0,0.0,14.32395,-58.72818,10.8289,10.46,-0.4,-0.63,2.0
1758086884.62045,1758086884.5898,0.0,0.0,0.0,13.40721,-60.10328,12.60507,10.46,-0.4,-0.63,2.0
1758086884.62166,1758086884.5998,0.0,0.0,0.0,10.48513,-64.57235,17.36062,12.33,0.0,0.87,2.0
1758086884.63672,1758086884.6098,0.0,0.0,0.0,7.39116,-68.29657,21.7151,12.33,0.0,0.87,2.0
1758086884.65274,1758086884.6198,0.0,0.0,0.0,2.7502,-68.23928,25.43933,13.64,0.91,3.21,2.0
1758086884.65366,1758086884.6298,0.0,0.0,0.0,-2.6929,-65.48907,29.50733,13.64,0.91,3.21,2.0
1758086884.66846,1758086884.6398,0.0,0.0,0.0,-8.70896,-58.21251,33.00237,14.56,1.79,3.41,2.0
1758086884.66966,1758086884.6498,0.0,0.0,0.0,-9.4538,-54.94666,32.83048,12.42,1.31,3.83,2.0
1758086884.68577,1758086884.6598,0.0,0.0,0.0,-6.70361,-54.77477,30.88243,12.42,1.31,3.83,2.0
1758086884.70167,1758086884.6698,0.0,0.0,0.0,2.97938,-55.34772,25.8404,9.54,0.25,4.64,2.0
1758086884.70356,1758086884.6798,0.0,0.0,0.0,12.2613,-51.27972,22.00158,9.54,0.25,4.64,2.0
1758086884.71866,1758086884.6898,0.0,0.0,0.0,22.23076,-44.00316,17.93358,9.68,-0.85,4.38,2.0
1758086884.71975,1758086884.6998,0.0,0.0,0.0,32.6013,-35.58068,14.32395,9.68,-0.85,4.38,2.0
1758086884.73552,1758086884.7098,0.0,0.0,0.0,46.69606,-21.48592,9.39651,10.57,-1.89,3.11,2.0
1758086884.75188,1758086884.7198,0.0,0.0,0.0,53.34238,-13.06344,6.8182,11.28,-1.98,1.71,2.0
1758086884.75299,1758086884.7298,0.0,0.0,0.0,56.89471,-5.21392,4.0107,11.28,-1.98,1.71,2.0
1758086884.76906,1758086884.7398,0.0,0.0,0.0,58.4417,3.32316,1.66158,11.49,-0.66,1.08,2.0
1758086884.77029,1758086884.7498,0.0,0.0,0.0,58.4417,15.64175,-0.97403,11.49,-0.66,1.08,2.0
1758086884.78573,1758086884.7598,0.0,0.0,0.0,57.29578,23.26209,-2.23454,10.75,0.58,0.97,2.0
1758086884.80146,1758086884.7698,0.0,0.0,0.0,54.71747,30.19488,-3.03668,10.75,0.58,0.97,2.0
1758086884.80273,1758086884.7798,0.0,0.0,0.0,51.45161,35.86716,-3.60963,9.92,1.44,0.97,2.0
1758086884.81766,1758086884.7898,0.0,0.0,0.0,44.86259,41.65404,-4.29718,9.08,1.72,0.82,2.0
1758086884.81939,1758086884.7998,0.0,0.0,0.0,40.04975,45.37826,-4.58366,9.08,1.72,0.82,2.0
1758086884.83567,1758086884.8098,0.0,0.0,0.0,34.89313,50.59217,-5.55769,8.8,1.68,0.8,2.0
1758086884.85144,1758086884.8198,0.0,0.0,0.0,30.76784,55.29043,-4.87014,8.8,1.68,0.8,2.0
1758086884.85304,1758086884.8298,0.0,0.0,0.0,24.5226,57.23849,-5.90147,8.31,1.41,0.85,2.0
1758086884.86759,1758086884.8398,0.0,0.0,0.0,21.14215,58.78547,-5.09932,8.31,1.41,0.85,2.0
1758086884.88342,1758086884.8498,0.0,0.0,0.0,18.50654,58.09792,-4.29718,8.16,1.14,1.05,2.0
1758086884.88541,1758086884.8598,0.0,0.0,0.0,15.35527,58.55629,-4.18259,8.16,1.14,1.05,2.0
1758086884.90073,1758086884.8698,0.0,0.0,0.0,14.20935,58.49899,-4.46907,8.37,0.92,0.94,2.0
1758086884.90165,1758086884.8798,0.0,0.0,0.0,13.46451,56.49364,-4.69825,8.65,0.7,1.01,2.0
1758086884.91674,1758086884.8898,0.0,0.0,0.0,12.83425,52.54023,-5.15662,8.65,0.7,1.01,2.0
1758086884.9325,1758086884.8998,0.0,0.0,0.0,11.91752,44.40423,-5.27121,8.56,0.54,1.02,2.0
1758086884.93378,1758086884.9098,0.0,0.0,0.0,11.51645,37.92981,-5.61499,8.56,0.54,1.02,2.0
1758086884.94851,1758086884.9198,0.0,0.0,0.0,11.11538,31.62727,-5.4431,8.48,0.42,1.14,2.0
1758086884.94965,1758086884.9298,0.0,0.0,0.0,10.19865,25.49662,-5.4431,8.48,0.42,1.14,2.0
1758086884.96677,1758086884.9398,0.0,0.0,0.0,8.65166,17.24603,-5.4431,8.49,0.46,1.24,2.0
1758086884.98253,1758086884.9498,0.0,0.0,0.0,7.33386,13.5791,-5.90147,8.72,0.71,1.07,2.0
1758086884.98373,1758086884.9598,0.0,0.0,0.0,5.90147,13.46451,-6.41713,8.72,0.71,1.07,2.0
1758086884.99853,1758086884.9698,0.0,0.0,0.0,4.46907,13.40721,-6.7609,9.26,0.97,0.82,2.0
1758086884.99974,1758086884.9798,0.0,0.0,0.0,2.46372,11.51645,-6.35983,9.26,0.97,0.82,2.0
1758086885.01552,1758086884.9898,0.0,0.0,0.0,1.60428,9.33921,-5.61499,9.15,0.96,0.8,2.0
1758086885.03171,1758086884.9998,0.0,0.0,0.0,0.40107,7.84952,-4.98473,9.15,0.96,0.8,2.0
1758086885.03353,1758086885.0098,0.0,0.0,0.0,-0.68755,6.18794,-4.46907,9.15,0.92,0.57,2.0
1758086885.05051,1758086885.0198,0.0,0.0,0.0,-2.11994,2.29183,-3.72423,8.98,0.91,0.48,2.0
1758086885.05147,1758086885.0298,0.0,0.0,0.0,-3.32316,-1.43239,-3.55234,8.98,0.91,0.48,2.0
1758086885.06649,1758086885.0398,0.0,0.0,0.0,-4.46907,-5.72958,-3.38045,8.71,1.01,0.41,2.0
1758086885.07194,1758086885.0498,0.0,0.0,0.0,-6.53172,-11.11538,-2.63561,8.71,1.01,0.41,2.0
1758086885.08745,1758086885.0598,0.0,0.0,0.0,-8.02141,-20.97026,-2.11994,8.61,1.2,0.19,2.0
1758086885.09032,1758086885.0698,0.0,0.0,0.0,-10.59972,-20.05352,-2.00535,8.61,1.2,0.19,2.0
1758086885.10648,1758086885.0798,0.0,0.0,0.0,-13.69369,-9.05273,-2.00535,10.17,1.56,0.1,2.0
1758086885.12273,1758086885.0898,0.0,0.0,0.0,-19.53786,14.9542,-4.0107,10.17,1.56,0.1,2.0
1758086885.12535,1758086885.0998,0.0,0.0,0.0,-23.20479,1.3178,-4.58366,12.59,1.68,0.16,2.0
1758086885.14075,1758086885.1098,0.0,0.0,0.0,-26.47065,-15.98552,-6.87549,9.1,1.76,0.59,2.0
1758086885.14166,1758086885.1198,0.0,0.0,0.0,-28.30412,-25.15285,-8.76626,9.1,1.76,0.59,2.0
1758086885.15646,1758086885.1298,0.0,0.0,0.0,-29.62192,-31.39809,-12.83425,9.77,1.4,-0.31,2.0
1758086885.17453,1758086885.1398,0.0,0.0,0.0,-30.48136,-30.02299,-15.06879,9.77,1.4,-0.31,2.0
1758086885.17686,1758086885.1498,0.0,0.0,0.0,-31.51268,-26.18417,-16.61578,10.61,1.33,-0.45,2.0
1758086885.19407,1758086885.1598,0.0,0.0,0.0,-31.74186,-23.0329,-17.30333,10.61,1.33,-0.45,2.0
1758086885.19638,1758086885.1698,0.0,0.0,0.0,-30.76784,-19.48057,-17.30333,10.77,1.28,-0.44,2.0
1758086885.21144,1758086885.1798,0.0,0.0,0.0,-28.76248,-18.9649,-17.53251,10.91,1.02,0.35,2.0
1758086885.21429,1758086885.1898,0.0,0.0,0.0,-25.49662,-20.34,-18.62113,10.91,1.02,0.35,2.0
1758086885.23109,1758086885.1998,0.0,0.0,0.0,-20.68378,-24.12152,-21.7151,12.23,0.05,1.37,2.0
1758086885.23308,1758086885.2098,0.0,0.0,0.0,-11.22997,-35.92446,-29.9084,12.23,0.05,1.37,2.0
1758086885.2487,1758086885.2198,0.0,0.0,0.0,-3.95341,-43.31561,-37.01308,13.42,-0.95,3.45,2.0
1758086885.25152,1758086885.2298,0.0,0.0,0.0,2.46372,-46.52417,-43.37291,13.42,-0.95,3.45,2.0
1758086885.27061,1758086885.2398,0.0,0.0,0.0,4.64096,-43.77398,-48.9879,13.88,-1.22,3.12,2.0
1758086885.27176,1758086885.2498,0.0,0.0,0.0,2.97938,-44.40423,-47.38361,10.88,0.39,3.42,2.0
1758086885.28776,1758086885.2598,0.0,0.0,0.0,1.14592,-47.61279,-42.28429,10.88,0.39,3.42,2.0
1758086885.3035,1758086885.2698,0.0,0.0,0.0,-1.71887,-44.748,-34.95043,9.48,1.45,3.6,2.0
1758086885.30504,1758086885.2798,0.0,0.0,0.0,-9.4538,-29.8511,-22.68913,9.48,1.45,3.6,2.0
1758086885.31983,1758086885.2898,0.0,0.0,0.0,-16.50119,-22.28806,-14.20935,10.05,1.81,4.14,2.0
1758086885.32075,1758086885.2998,0.0,0.0,0.0,-24.12152,-20.05352,-7.33386,10.05,1.81,4.14,2.0
1758086885.33575,1758086885.3098,0.0,0.0,0.0,-31.16891,-18.22006,-1.3751,8.88,1.94,3.62,2.0
1758086885.35152,1758086885.3198,0.0,0.0,0.0,-40.7946,-16.04282,4.18259,8.75,1.94,2.32,2.0
1758086885.35668,1758086885.3298,0.0,0.0,0.0,-45.20637,-12.37589,5.61499,8.75,1.83,2.32,2.0
1758086885.37179,1758086885.3398,0.0,0.0,0.0,-47.67009,-5.15662,4.98473,10.39,1.15,1.9,2.0
1758086885.37533,1758086885.3498,0.0,0.0,0.0,-48.12846,1.94806,2.86479,10.39,1.15,1.9,2.0
1758086885.39051,1758086885.3598,0.0,0.0,0.0,-45.77933,10.02676,-1.77617,11.24,0.0,1.24,2.0
1758086885.39277,1758086885.3698,0.0,0.0,0.0,-42.68536,14.72501,-4.87014,11.24,0.0,1.24,2.0
1758086885.41048,1758086885.3798,0.0,0.0,0.0,-38.73195,18.85031,-7.44845,10.61,-0.97,0.69,2.0
1758086885.41244,1758086885.3898,0.0,0.0,0.0,-34.0337,22.40265,-8.65166,10.61,-0.97,0.69,2.0
1758086885.42937,1758086885.3998,0.0,0.0,0.0,-26.69983,26.18417,-8.42248,9.72,-1.2,0.73,2.0
1758086885.43269,1758086885.4098,0.0,0.0,0.0,-21.37133,28.36141,-6.7609,9.34,-1.01,0.99,2.0
1758086885.44935,1758086885.4198,0.0,0.0,0.0,-16.50119,29.27814,-3.83882,9.34,-1.01,0.99,2.0
1758086885.45343,1758086885.4298,0.0,0.0,0.0,-12.204,30.36677,1.83346,9.13,-0.9,0.92,2.0
1758086885.47174,1758086885.4398,0.0,0.0,0.0,-6.58902,31.56997,6.13065,9.13,-0.9,0.92,2.0
1758086885.4727,1758086885.4498,0.0,0.0,0.0,-3.55234,31.2262,10.54242,9.01,-0.75,0.95,2.0
1758086885.48772,1758086885.4598,0.0,0.0,0.0,-1.20321,30.02299,14.38124,9.01,-0.75,0.95,2.0
1758086885.49137,1758086885.4698,0.0,0.0,0.0,1.3178,27.38738,18.9649,8.74,-0.51,1.04,2.0
1758086885.51157,1758086885.4798,0.0,0.0,0.0,2.6929,24.98096,20.74107,8.52,-0.17,1.17,2.0
1758086885.51569,1758086885.4898,0.0,0.0,0.0,4.0107,23.31938,21.42862,8.52,-0.17,1.17,2.0
1758086885.53073,1758086885.4998,0.0,0.0,0.0,5.27121,21.31403,21.02755,8.73,0.06,1.27,2.0
1758086885.53278,1758086885.5098,0.0,0.0,0.0,6.8182,19.42327,18.50654,8.73,0.06,1.27,2.0
1758086885.54776,1758086885.5198,0.0,0.0,0.0,7.84952,18.56383,16.3293,9.14,0.06,1.18,2.0
1758086885.56377,1758086885.5298,0.0,0.0,0.0,8.76626,17.30333,14.15206,9.14,0.06,1.18,2.0
1758086885.56633,1758086885.5398,0.0,0.0,0.0,9.39651,15.35527,12.08941,9.26,-0.04,0.97,2.0
1758086885.58169,1758086885.5498,0.0,0.0,0.0,9.91217,13.00614,9.74028,9.16,-0.09,0.8,2.0
1758086885.5859,1758086885.5598,0.0,0.0,0.0,10.02676,11.91752,8.88085,9.16,-0.09,0.8,2.0
1758086885.60155,1758086885.5698,0.0,0.0,0.0,9.68299,10.8862,9.28192,9.13,-0.15,0.44,2.0
1758086885.60347,1758086885.5798,0.0,0.0,0.0,9.5684,13.23533,8.47978,9.13,-0.15,0.44,2.0
1758086885.62171,1758086885.5898,0.0,0.0,0.0,8.76626,16.10011,7.62034,9.38,0.22,0.55,2.0
1758086885.62344,1758086885.5998,0.0,0.0,0.0,8.30789,18.9649,6.87549,9.38,0.22,0.55,2.0
1758086885.63931,1758086885.6098,0.0,0.0,0.0,7.96411,22.40265,6.13065,9.45,0.41,0.01,2.0
1758086885.64072,1758086885.6198,0.0,0.0,0.0,7.44845,22.63183,5.72958,9.45,0.41,0.01,2.0
1758086885.65547,1758086885.6298,0.0,0.0,0.0,6.18794,17.99088,5.55769,9.21,0.55,0.11,2.0
1758086885.67174,1758086885.6398,0.0,0.0,0.0,5.50039,14.66772,5.72958,8.89,0.48,0.24,2.0
1758086885.67341,1758086885.6498,0.0,0.0,0.0,3.09397,12.14671,3.83882,8.89,0.48,0.24,2.0
1758086885.68873,1758086885.6598,0.0,0.0,0.0,-0.0573,3.66693,0.68755,8.52,0.57,0.33,2.0
1758086885.68967,1758086885.6698,0.0,0.0,0.0,0.0573,-4.98473,0.51566,8.52,0.57,0.33,2.0
1758086885.70575,1758086885.6798,0.0,0.0,0.0,0.85944,-7.10468,0.74485,8.71,0.05,-0.14,2.0
1758086885.72175,1758086885.6898,0.0,0.0,0.0,2.29183,-1.03132,1.94806,8.71,0.05,-0.14,2.0
1758086885.72341,1758086885.6998,0.0,0.0,0.0,3.66693,12.89155,3.66693,10.93,-0.46,-0.53,2.0
1758086885.74075,1758086885.7098,0.0,0.0,0.0,4.81285,16.04282,4.1253,11.83,-0.35,0.09,2.0
1758086885.74166,1758086885.7198,0.0,0.0,0.0,6.8182,3.32316,4.23989,11.83,-0.35,0.09,2.0
1758086885.75656,1758086885.7298,0.0,0.0,0.0,6.8182,-22.05888,3.60963,9.29,-0.19,0.24,2.0
1758086885.7735,1758086885.7398,0.0,0.0,0.0,6.13065,-46.98254,5.95876,9.29,-0.19,0.24,2.0
1758086885.77508,1758086885.7498,0.0,0.0,0.0,6.70361,-51.79538,10.37054,10.03,-0.18,-0.59,2.0
1758086885.79136,1758086885.7598,0.0,0.0,0.0,9.28192,-46.86795,13.00614,10.03,-0.18,-0.59,2.0
1758086885.79273,1758086885.7698,0.0,0.0,0.0,13.69369,-39.4768,15.41257,12.29,-0.64,-0.27,2.0
1758086885.80772,1758086885.7798,0.0,0.0,0.0,19.07949,-28.59059,19.25138,13.92,-0.65,1.0,2.0
1758086885.82372,1758086885.7898,0.0,0.0,0.0,20.74107,-29.56462,23.72045,13.92,-0.65,1.0,2.0
1758086885.82493,1758086885.7998,0.0,0.0,0.0,16.84496,-36.21093,26.81443,14.18,0.35,2.87,2.0
1758086885.84068,1758086885.8098,0.0,0.0,0.0,11.00079,-39.4195,29.33544,14.18,0.35,2.87,2.0
1758086885.84168,1758086885.8198,0.0,0.0,0.0,1.3751,-37.29956,32.6013,14.74,1.88,1.68,2.0
1758086885.85674,1758086885.8298,0.0,0.0,0.0,-2.97938,-36.21093,32.20023,14.74,1.88,1.68,2.0
1758086885.86004,1758086885.8398,0.0,0.0,0.0,-5.15662,-37.52874,29.33544,12.53,1.64,1.98,2.0
1758086885.87579,1758086885.8498,0.0,0.0,0.0,-4.1253,-41.02378,21.48592,12.53,1.64,1.98,2.0
1758086885.89169,1758086885.8598,0.0,0.0,0.0,-1.14592,-42.34158,15.06879,8.91,0.21,2.19,2.0
1758086885.89509,1758086885.8698,0.0,0.0,0.0,2.97938,-41.65404,8.76626,7.94,-0.43,3.14,2.0
1758086885.91185,1758086885.8798,0.0,0.0,0.0,7.73493,-37.47144,3.26586,7.94,-0.43,3.14,2.0
1758086885.91702,1758086885.8898,0.0,0.0,0.0,17.01685,-29.73651,-1.48969,8.79,-0.8,4.06,2.0
1758086885.93155,1758086885.8998,0.0,0.0,0.0,23.66316,-26.81443,-2.06265,8.79,-0.8,4.06,2.0
1758086885.93354,1758086885.9098,0.0,0.0,0.0,29.27814,-25.72581,-0.97403,9.12,-1.24,3.58,2.0
1758086885.94856,1758086885.9198,0.0,0.0,0.0,33.23156,-24.4653,1.20321,9.12,-1.24,3.58,2.0
1758086885.95155,1758086885.9298,0.0,0.0,0.0,36.95578,-16.90226,4.35448,9.57,-1.22,2.55,2.0
1758086885.96855,1758086885.9398,0.0,0.0,0.0,38.15899,-8.93814,5.95876,10.5,-0.29,1.45,2.0
1758086885.97031,1758086885.9498,0.0,0.0,0.0,38.1017,-1.66158,7.50575,10.5,-0.29,1.45,2.0
1758086885.98644,1758086885.9598,0.0,0.0,0.0,37.12767,4.58366,8.36518,10.45,0.9,1.23,2.0
1758086886.00376,1758086885.9698,0.0,0.0,0.0,33.9764,12.2613,8.59437,10.45,0.9,1.23,2.0
1758086886.00631,1758086885.9798,0.0,0.0,0.0,31.39809,18.27736,7.21927,10.22,1.6,1.0,2.0
1758086886.02154,1758086885.9898,0.0,0.0,0.0,28.93437,22.91831,5.78687,10.22,1.6,1.0,2.0
1758086886.02459,1758086885.9998,0.0,0.0,0.0,25.89769,27.2155,3.60963,10.03,1.75,0.9,2.0
1758086886.04061,1758086886.0098,0.0,0.0,0.0,21.88699,33.11696,0.34377,9.69,1.43,0.84,2.0
1758086886.04151,1758086886.0198,0.0,0.0,0.0,18.9649,37.18496,-1.83346,9.69,1.43,0.84,2.0
1758086886.05678,1758086886.0298,0.0,0.0,0.0,16.61578,41.08107,-4.1253,9.52,1.01,0.66,2.0
1758086886.07376,1758086886.0398,0.0,0.0,0.0,13.69369,45.14908,-7.44845,9.52,1.01,0.66,2.0
1758086886.07496,1758086886.0498,0.0,0.0,0.0,12.2613,49.15978,-9.11003,9.47,0.8,0.63,2.0
1758086886.0903,1758086886.0598,0.0,0.0,0.0,11.34457,49.84733,-10.48513,9.47,0.8,0.63,2.0
1758086886.09192,1758086886.0698,0.0,0.0,0.0,10.65701,49.21708,-11.17268,9.26,0.7,0.69,2.0
1758086886.10682,1758086886.0798,0.0,0.0,0.0,10.02676,47.32632,-11.51645,9.26,0.7,0.69,2.0
1758086886.11087,1758086886.0898,0.0,0.0,0.0,9.28192,44.8053,-11.63104,9.1,0.66,0.77,2.0
1758086886.13075,1758086886.0998,0.0,0.0,0.0,8.59437,40.7373,-11.34457,8.68,0.66,0.88,2.0
1758086886.132,1758086886.1098,0.0,0.0,0.0,7.62034,35.69527,-11.00079,8.68,0.66,0.88,2.0
1758086886.14654,1758086886.1198,0.0,0.0,0.0,5.4431,26.52795,-10.71431,8.21,0.74,0.92,2.0
1758086886.1638,1758086886.1298,0.0,0.0,0.0,3.32316,20.05352,-10.54242,8.21,0.74,0.92,2.0
1758086886.1663,1758086886.1398,0.0,0.0,0.0,0.97403,15.41257,-10.8289,8.05,0.96,0.82,2.0
1758086886.18153,1758086886.1498,0.0,0.0,0.0,-1.71887,11.45916,-11.57375,8.05,0.96,0.82,2.0
1758086886.18437,1758086886.1598,0.0,0.0,0.0,-5.84417,9.22462,-13.34992,8.4,1.3,0.72,2.0
1758086886.1995,1758086886.1698,0.0,0.0,0.0,-8.136,8.99544,-13.80828,8.95,1.55,0.57,2.0
1758086886.20072,1758086886.1798,0.0,0.0,0.0,-10.37054,8.136,-13.69369,8.95,1.55,0.57,2.0
1758086886.21551,1758086886.1898,0.0,0.0,0.0,-12.2613,7.21927,-12.83425,8.96,1.5,0.67,2.0
1758086886.23163,1758086886.1998,0.0,0.0,0.0,-14.32395,8.59437,-10.8289,8.96,1.5,0.67,2.0
1758086886.23669,1758086886.2098,0.0,0.0,0.0,-14.78231,8.93814,-9.11003,9.02,1.31,0.53,2.0
1758086886.25177,1758086886.2198,0.0,0.0,0.0,-14.83961,7.67763,-7.16197,9.02,1.31,0.53,2.0
1758086886.25354,1758086886.2298,0.0,0.0,0.0,-14.20935,5.32851,-4.46907,8.63,0.9,0.59,2.0
1758086886.26875,1758086886.2398,0.0,0.0,0.0,-11.63104,3.20856,-1.3178,8.4,0.34,0.49,2.0
1758086886.27636,1758086886.2498,0.0,0.0,0.0,-6.87549,2.23454,3.20856,8.4,0.34,0.49,2.0
1758086886.29153,1758086886.2598,0.0,0.0,0.0,-5.4431,-5.27121,4.18259,8.28,-0.02,0.38,2.0
1758086886.29672,1758086886.2698,0.0,0.0,0.0,-5.72958,-11.17268,3.60963,8.28,-0.02,0.38,2.0
1758086886.31192,1758086886.2798,0.0,0.0,0.0,-6.58902,1.14592,1.03132,10.03,0.82,-0.45,2.0
1758086886.3135,1758086886.2898,0.0,0.0,0.0,-8.42248,20.11082,-1.66158,10.03,0.82,-0.45,2.0
1758086886.32853,1758086886.2998,0.0,0.0,0.0,-9.11003,24.35071,-1.60428,12.69,1.14,-0.05,2.0
1758086886.33142,1758086886.3098,0.0,0.0,0.0,-11.57375,-5.27121,-5.72958,9.4,1.14,0.53,2.0
1758086886.34832,1758086886.3198,0.0,0.0,0.0,-11.97482,-16.272,-6.47442,9.4,1.37,0.53,2.0
1758086886.35071,1758086886.3298,0.0,0.0,0.0,-12.83425,-23.66316,-8.42248,10.36,1.21,-0.47,2.0
1758086886.36653,1758086886.3398,0.0,0.0,0.0,-13.40721,-27.84575,-9.68299,10.36,1.21,-0.47,2.0
1758086886.38256,1758086886.3498,0.0,0.0,0.0,-15.0115,-28.59059,-12.49048,11.17,1.47,-0.23,2.0
1758086886.38372,1758086886.3598,0.0,0.0,0.0,-15.98552,-27.04361,-13.12073,11.17,1.47,-0.23,2.0
1758086886.39876,1758086886.3698,0.0,0.0,0.0,-16.272,-26.64254,-12.89155,11.45,1.6,-0.06,2.0
1758086886.39975,1758086886.3798,0.0,0.0,0.0,-15.87093,-27.04361,-12.83425,11.45,1.6,-0.06,2.0
1758086886.41577,1758086886.3898,0.0,0.0,0.0,-13.5218,-28.87707,-13.75099,11.25,1.49,0.49,2.0
1758086886.43183,1758086886.3998,0.0,0.0,0.0,-9.85487,-31.16891,-16.38659,12.45,0.83,1.06,2.0
1758086886.43458,1758086886.4098,0.0,0.0,0.0,-4.58366,-34.77854,-21.08485,12.45,0.83,1.06,2.0
1758086886.45039,1758086886.4198,0.0,0.0,0.0,2.11994,-40.96649,-30.59595,13.57,-0.09,2.61,2.0
1758086886.452,1758086886.4298,0.0,0.0,0.0,11.34457,-48.30034,-35.92446,13.57,-0.09,2.61,2.0
1758086886.4706,1758086886.4398,0.0,0.0,0.0,15.46986,-50.59217,-38.38818,13.04,-0.77,1.67,2.0
1758086886.4717,1758086886.4498,0.0,0.0,0.0,17.13144,-53.28508,-37.64333,13.04,-0.77,1.67,2.0
1758086886.48654,1758086886.4598,0.0,0.0,0.0,14.38124,-56.14987,-32.20023,10.2,0.07,1.58,2.0
1758086886.50282,1758086886.4698,0.0,0.0,0.0,9.5684,-54.14451,-26.81443,9.2,1.43,3.27,2.0
1758086886.50454,1758086886.4798,0.0,0.0,0.0,2.63561,-49.61814,-20.45459,9.2,1.43,3.27,2.0
1758086886.51979,1758086886.4898,0.0,0.0,0.0,-5.84417,-43.14373,-13.98017,9.56,2.11,4.43,2.0
1758086886.52111,1758086886.4998,0.0,0.0,0.0,-19.48057,-36.84119,-4.29718,9.56,2.11,4.43,2.0
1758086886.53581,1758086886.5098,0.0,0.0,0.0,-28.07493,-34.95043,0.74485,9.24,2.15,3.92,2.0
1758086886.55186,1758086886.5198,0.0,0.0,0.0,-35.92446,-34.09099,3.95341,9.24,2.15,3.92,2.0
1758086886.55354,1758086886.5298,0.0,0.0,0.0,-42.34158,-31.97105,4.98473,9.3,2.04,2.71,2.0
1758086886.56884,1758086886.5398,0.0,0.0,0.0,-48.70141,-22.63183,3.72423,10.4,1.49,1.77,2.0
1758086886.57086,1758086886.5498,0.0,0.0,0.0,-50.53488,-14.61043,1.71887,10.4,1.49,1.77,2.0
1758086886.58681,1758086886.5598,0.0,0.0,0.0,-50.3057,-5.50039,0.0573,11.17,0.31,1.25,2.0
1758086886.60247,1758086886.5698,0.0,0.0,0.0,-48.70141,2.92208,-1.94806,11.17,0.31,1.25,2.0
1758086886.60535,1758086886.5798,0.0,0.0,0.0,-43.77398,13.5791,-3.72423,10.92,-0.73,0.68,2.0
1758086886.62082,1758086886.5898,0.0,0.0,0.0,-39.3622,20.3973,-4.0107,10.92,-0.73,0.68,2.0
1758086886.62174,1758086886.5998,0.0,0.0,0.0,-34.60666,27.04361,-3.20856,10.26,-1.15,0.43,2.0
1758086886.63668,1758086886.6098,0.0,0.0,0.0,-29.8511,33.63263,-0.45837,10.26,-1.15,0.43,2.0
1758086886.65385,1758086886.6198,0.0,0.0,0.0,-22.40265,40.62271,2.40642,9.86,-0.97,0.46,2.0
1758086886.65479,1758086886.6298,0.0,0.0,0.0,-17.93358,42.91454,5.84417,9.37,-0.69,0.48,2.0
1758086886.67041,1758086886.6398,0.0,0.0,0.0,-13.75099,44.748,9.4538,9.37,-0.69,0.48,2.0
1758086886.67186,1758086886.6498,0.0,0.0,0.0,-8.59437,46.81066,14.66772,9.39,-0.57,0.54,2.0
1758086886.68684,1758086886.6598,0.0,0.0,0.0,-6.07335,45.77933,17.53251,9.39,-0.57,0.54,2.0
1758086886.70387,1758086886.6698,0.0,0.0,0.0,-4.1253,44.23235,19.76705,9.14,-0.39,0.57,2.0
1758086886.7056,1758086886.6798,0.0,0.0,0.0,-2.40642,43.25832,21.14215,9.14,-0.39,0.57,2.0
1758086886.72063,1758086886.6898,0.0,0.0,0.0,-0.11459,41.65404,22.57454,8.99,-0.27,0.72,2.0
1758086886.72175,1758086886.6998,0.0,0.0,0.0,1.3178,39.82057,22.68913,8.76,-0.22,0.85,2.0
1758086886.73693,1758086886.7098,0.0,0.0,0.0,2.6929,36.38282,22.34536,8.76,-0.22,0.85,2.0
1758086886.75359,1758086886.7198,0.0,0.0,0.0,4.1253,32.42941,21.60051,8.41,-0.21,0.94,2.0
1758086886.75635,1758086886.7298,0.0,0.0,0.0,5.78687,27.73116,19.59516,8.41,-0.21,0.94,2.0
1758086886.77186,1758086886.7398,0.0,0.0,0.0,6.70361,25.43933,17.36062,8.6,-0.25,0.87,2.0
1758086886.77628,1758086886.7498,0.0,0.0,0.0,8.02141,21.31403,15.87093,8.6,-0.25,0.87,2.0
1758086886.79181,1758086886.7598,0.0,0.0,0.0,8.99544,18.10547,13.86558,8.65,-0.24,0.81,2.0
1758086886.79354,1758086886.7698,0.0,0.0,0.0,10.19865,12.49048,12.204,8.78,-0.19,0.6,2.0
1758086886.80886,1758086886.7798,0.0,0.0,0.0,10.8289,8.93814,11.51645,8.78,-0.19,0.6,2.0
1758086886.81056,1758086886.7898,0.0,0.0,0.0,11.45916,6.7609,10.94349,8.85,-0.12,0.27,2.0
1758086886.82655,1758086886.7998,0.0,0.0,0.0,10.37054,8.47978,10.19865,8.85,-0.12,0.27,2.0
1758086886.8438,1758086886.8098,0.0,0.0,0.0,11.00079,14.49583,9.62569,9.51,-0.02,0.52,2.0
1758086886.84632,1758086886.8198,0.0,0.0,0.0,11.63104,16.04282,9.11003,9.51,-0.02,0.52,2.0
1758086886.86171,1758086886.8298,0.0,0.0,0.0,12.43318,16.38659,8.70896,9.31,0.04,-0.05,2.0
1758086886.8636,1758086886.8398,0.0,0.0,0.0,13.40721,12.54778,7.67763,9.31,0.04,-0.05,2.0
1758086886.87859,1758086886.8498,0.0,0.0,0.0,14.43854,9.05273,7.10468,9.11,-0.08,0.04,2.0
1758086886.88008,1758086886.8598,0.0,0.0,0.0,15.35527,8.25059,5.90147,9.32,-0.25,-0.26,2.0
1758086886.89591,1758086886.8698,0.0,0.0,0.0,16.04282,9.68299,4.81285,9.32,-0.25,-0.26,2.0
1758086886.91211,1758086886.8798,0.0,0.0,0.0,15.06879,15.24068,1.3751,10.12,-0.04,-0.52,2.0
1758086886.91359,1758086886.8898,0.0,0.0,0.0,14.32395,19.36597,-0.45837,10.12,-0.04,-0.52,2.0
1758086886.92887,1758086886.8998,0.0,0.0,0.0,13.69369,22.68913,-0.74485,10.94,0.18,-0.69,2.0
1758086886.9306,1758086886.9098,0.0,0.0,0.0,12.83425,21.37133,-1.03132,10.94,0.18,-0.69,2.0
1758086886.94686,1758086886.9198,0.0,0.0,0.0,11.45916,-4.69825,-0.85944,10.99,0.2,-0.6,2.0
1758086886.96377,1758086886.9298,0.0,0.0,0.0,10.19865,-28.99167,1.3751,8.65,-0.03,-0.04,2.0
1758086886.96639,1758086886.9398,0.0,0.0,0.0,8.0787,-44.51882,4.58366,8.65,-0.03,-0.04,2.0
1758086886.98164,1758086886.9498,0.0,0.0,0.0,8.36518,-50.53488,10.37054,9.94,-0.65,-0.34,2.0
1758086886.98462,1758086886.95979,0.0,0.0,0.0,13.5791,-43.54479,15.87093,9.94,-0.65,-0.34,2.0
1758086886.99969,1758086886.96979,0.0,0.0,0.0,21.25674,-36.32552,18.9649,11.2,-1.33,-0.9,2.0
1758086887.00071,1758086886.97979,0.0,0.0,0.0,23.60586,-32.88778,17.53251,11.2,-1.33,-0.9,2.0
1758086887.01589,1758086886.98979,0.0,0.0,0.0,22.91831,-33.9764,15.69904,11.91,-1.18,0.06,2.0
1758086887.03189,1758086886.99979,0.0,0.0,0.0,16.95955,-46.1231,15.98552,13.2,0.37,2.01,2.0
1758086887.03362,1758086887.00979,0.0,0.0,0.0,11.28727,-54.431,22.34536,13.2,0.37,2.01,2.0
1758086887.0512,1758086887.01979,0.0,0.0,0.0,3.89611,-56.20716,30.65324,16.64,2.41,5.18,2.0
1758086887.0524,1758086887.02979,0.0,0.0,0.0,-8.30789,-53.17049,41.08107,16.64,2.41,5.18,2.0
1758086887.06765,1758086887.03979,0.0,0.0,0.0,-13.75099,-49.84733,43.14373,15.64,2.83,3.28,2.0
1758086887.08389,1758086887.04979,0.0,0.0,0.0,-16.10011,-49.90463,40.7946,15.64,2.83,3.28,2.0
1758086887.08561,1758086887.05979,0.0,0.0,0.0,-15.58445,-50.01921,35.63798,9.91,1.07,2.73,2.0
1758086887.10058,1758086887.06979,0.0,0.0,0.0,-10.8862,-44.8053,24.86637,9.91,1.07,2.73,2.0
1758086887.10178,1758086887.07979,0.0,0.0,0.0,-5.50039,-38.38818,15.87093,7.66,0.0,4.02,2.0
1758086887.1169,1758086887.08979,0.0,0.0,0.0,1.48969,-34.09099,7.44845,7.91,-0.69,4.29,2.0
1758086887.13382,1758086887.09979,0.0,0.0,0.0,7.96411,-30.88243,0.11459,7.91,-0.69,4.29,2.0
1758086887.1348,1758086887.10979,0.0,0.0,0.0,15.41257,-25.09555,-5.95876,9.15,-1.29,3.02,2.0
1758086887.15041,1758086887.11979,0.0,0.0,0.0,18.50654,-18.56383,-7.44845,9.15,-1.29,3.02,2.0
1758086887.15161,1758086887.12979,0.0,0.0,0.0,20.3973,-11.97482,-7.16197,10.67,-1.3,1.47,2.0
1758086887.17087,1758086887.13979,0.0,0.0,0.0,21.6578,-5.55769,-5.72958,10.67,-1.3,1.47,2.0
1758086887.17261,1758086887.14979,0.0,0.0,0.0,22.57454,4.29718,-3.66693,10.71,-0.55,0.89,2.0
1758086887.19084,1758086887.15979,0.0,0.0,0.0,22.34536,10.8289,-2.34913,10.17,0.53,0.51,2.0
1758086887.1918,1758086887.16979,0.0,0.0,0.0,21.60051,17.81899,-1.71887,10.17,0.53,0.51,2.0
1758086887.20684,1758086887.17979,0.0,0.0,0.0,20.3973,23.94964,-1.08862,9.62,1.25,0.61,2.0
1758086887.2236,1758086887.18979,0.0,0.0,0.0,17.36062,28.99167,-0.85944,9.62,1.25,0.61,2.0
1758086887.22563,1758086887.19979,0.0,0.0,0.0,14.78231,32.6013,-1.14592,8.94,1.38,0.8,2.0
1758086887.24174,1758086887.20979,0.0,0.0,0.0,12.08941,36.26823,-1.66158,8.94,1.38,0.8,2.0
1758086887.24338,1758086887.21979,0.0,0.0,0.0,8.42248,39.4768,-2.57831,8.77,1.17,0.85,2.0
1758086887.25894,1758086887.22979,0.0,0.0,0.0,6.41713,43.54479,-3.20856,8.55,0.88,0.85,2.0
1758086887.26057,1758086887.23979,0.0,0.0,0.0,4.69825,44.00316,-3.89611,8.55,0.88,0.85,2.0
1758086887.2766,1758086887.24979,0.0,0.0,0.0,3.32316,45.20637,-4.52637,8.57,0.67,0.83,2.0
1758086887.29435,1758086887.25979,0.0,0.0,0.0,1.60428,46.2377,-5.4431,8.57,0.67,0.83,2.0
1758086887.29596,1758086887.26979,0.0,0.0,0.0,0.74485,43.60209,-6.70361,8.96,0.51,0.78,2.0
1758086887.31056,1758086887.27979,0.0,0.0,0.0,0.11459,38.61736,-7.39116,8.96,0.51,0.78,2.0
1758086887.31261,1758086887.28979,0.0,0.0,0.0,-0.40107,33.34615,-7.84952,8.73,0.4,0.65,2.0
1758086887.3306,1758086887.29979,0.0,0.0,0.0,-1.14592,24.75178,-8.42248,8.79,0.34,0.67,2.0
1758086887.33182,1758086887.30979,0.0,0.0,0.0,-1.66158,19.13679,-8.99544,8.79,0.34,0.67,2.0
1758086887.34686,1758086887.31979,0.0,0.0,0.0,-2.23454,14.78231,-9.74028,8.77,0.46,0.64,2.0
1758086887.35185,1758086887.32979,0.0,0.0,0.0,-2.86479,12.08941,-10.54242,8.77,0.46,0.64,2.0
1758086887.36868,1758086887.33979,0.0,0.0,0.0,-3.32316,9.91217,-12.14671,9.04,0.68,0.72,2.0
1758086887.36959,1758086887.34979,0.0,0.0,0.0,-2.92208,8.47978,-12.2613,9.04,0.68,0.72,2.0
1758086887.38675,1758086887.35979,0.0,0.0,0.0,-2.06265,7.50575,-11.63104,9.06,0.73,0.7,2.0
1758086887.40551,1758086887.36979,0.0,0.0,0.0,-0.74485,9.28192,-10.25595,9.06,0.73,0.7,2.0
1758086887.40636,1758086887.37979,0.0,0.0,0.0,4.64096,19.36597,-4.52637,9.31,0.51,0.56,2.0
1758086887.42161,1758086887.38979,0.0,0.0,0.0,6.8182,22.74642,-2.34913,9.58,0.07,0.62,2.0
1758086887.42438,1758086887.39979,0.0,0.0,0.0,7.04738,22.11617,-1.83346,9.58,0.07,0.62,2.0
1758086887.43985,1758086887.40979,0.0,0.0,0.0,6.58902,20.05352,-1.3178,9.24,0.45,0.03,2.0
1758086887.44118,1758086887.41979,0.0,0.0,0.0,5.21392,18.22006,-1.20321,9.24,0.45,0.03,2.0
1758086887.45587,1758086887.42979,0.0,0.0,0.0,4.58366,14.32395,-1.03132,9.09,0.73,0.28,2.0
1758086887.47184,1758086887.43979,0.0,0.0,0.0,3.55234,6.87549,-0.85944,9.09,0.73,0.28,2.0
1758086887.47355,1758086887.44979,0.0,0.0,0.0,-0.80214,6.70361,-0.57296,8.44,1.07,0.33,2.0
1758086887.48857,1758086887.45979,0.0,0.0,0.0,-4.35448,19.53786,-1.71887,10.68,1.69,0.09,2.0
1758086887.49064,1758086887.46979,0.0,0.0,0.0,-8.76626,34.77854,-3.66693,10.68,1.69,0.09,2.0
1758086887.50689,1758086887.47979,0.0,0.0,0.0,-11.45916,29.50733,-3.55234,11.05,2.18,0.43,2.0
1758086887.52634,1758086887.48979,0.0,0.0,0.0,-17.81899,-3.89611,-7.50575,11.05,2.18,0.43,2.0
1758086887.52801,1758086887.49979,0.0,0.0,0.0,-19.53786,-15.46986,-9.4538,8.67,2.11,1.0,2.0
1758086887.54445,1758086887.50979,0.0,0.0,0.0,-21.88699,-19.53786,-11.97482,8.67,2.11,1.0,2.0
1758086887.54641,1758086887.51979,0.0,0.0,0.0,-23.89234,-17.99088,-14.15206,10.96,1.59,-0.36,2.0
1758086887.56165,1758086887.52979,0.0,0.0,0.0,-26.18417,-13.23533,-17.30333,11.89,1.34,-0.4,2.0
1758086887.56603,1758086887.53979,0.0,0.0,0.0,-26.01229,-13.75099,-18.56383,11.89,1.34,-0.4,2.0
1758086887.58164,1758086887.54979,0.0,0.0,0.0,-24.00693,-18.62113,-20.16812,11.38,1.15,0.98,2.0
1758086887.58355,1758086887.55979,0.0,0.0,0.0,-20.51189,-23.54857,-22.74642,11.38,1.15,0.98,2.0
1758086887.59884,1758086887.56979,0.0,0.0,0.0,-12.204,-27.10091,-27.78845,12.73,0.51,1.91,2.0
1758086887.59983,1758086887.57979,0.0,0.0,0.0,-5.32851,-30.88243,-32.48671,12.73,0.51,1.91,2.0
1758086887.6158,1758086887.58979,0.0,0.0,0.0,1.71887,-34.89313,-36.49741,13.9,-0.51,2.65,2.0
1758086887.63193,1758086887.59979,0.0,0.0,0.0,7.50575,-37.24226,-38.50277,13.9,-0.51,2.65,2.0
1758086887.63473,1758086887.60979,0.0,0.0,0.0,13.12073,-44.63341,-36.21093,12.69,-0.84,1.7,2.0
1758086887.64995,1758086887.61979,0.0,0.0,0.0,14.03747,-49.56085,-33.00237,9.39,0.05,1.73,2.0
1758086887.65163,1758086887.62979,0.0,0.0,0.0,12.54778,-51.45161,-28.30412,9.39,0.05,1.73,2.0
1758086887.66689,1758086887.63979,0.0,0.0,0.0,4.92744,-50.99325,-20.11082,8.78,1.09,3.19,2.0
1758086887.68286,1758086887.64979,0.0,0.0,0.0,-2.86479,-48.12846,-15.06879,8.78,1.09,3.19,2.0
1758086887.68576,1758086887.65979,0.0,0.0,0.0,-11.00079,-44.57612,-10.08406,9.41,1.69,4.56,2.0
1758086887.70085,1758086887.66979,0.0,0.0,0.0,-19.53786,-41.65404,-5.90147,9.41,1.69,4.56,2.0
1758086887.7018,1758086887.67979,0.0,0.0,0.0,-31.11161,-37.98711,-2.23454,9.68,1.77,3.56,2.0
1758086887.71692,1758086887.68979,0.0,0.0,0.0,-37.24226,-35.2369,-1.48969,9.76,1.66,2.67,2.0
1758086887.73265,1758086887.69979,0.0,0.0,0.0,-41.76862,-31.11161,-1.94806,9.76,1.66,2.67,2.0
1758086887.73383,1758086887.70979,0.0,0.0,0.0,-44.40423,-24.17882,-3.32316,10.35,0.91,1.76,2.0
1758086887.75019,1758086887.71979,0.0,0.0,0.0,-44.40423,-11.17268,-5.61499,10.35,0.91,1.76,2.0
1758086887.75142,1758086887.72979,0.0,0.0,0.0,-41.99781,-2.97938,-6.58902,10.94,-0.25,1.33,2.0
1758086887.76697,1758086887.73979,0.0,0.0,0.0,-37.92981,4.69825,-7.16197,10.94,-0.25,1.33,2.0
1758086887.78265,1758086887.74979,0.0,0.0,0.0,-33.23156,11.97482,-6.87549,10.56,-1.12,0.77,2.0
1758086887.78456,1758086887.75979,0.0,0.0,0.0,-25.49662,22.86102,-5.27121,10.0,-1.32,0.67,2.0
1758086887.79991,1758086887.76979,0.0,0.0,0.0,-20.3973,29.27814,-3.49504,10.0,-1.32,0.67,2.0
1758086887.8008,1758086887.77979,0.0,0.0,0.0,-15.64175,33.51803,-1.20321,9.6,-1.09,0.86,2.0
1758086887.81594,1758086887.78979,0.0,0.0,0.0,-11.11538,36.38282,1.43239,9.6,-1.09,0.86,2.0
1758086887.83171,1758086887.79979,0.0,0.0,0.0,-5.21392,39.82057,6.35983,9.24,-0.82,0.81,2.0
1758086887.83363,1758086887.80979,0.0,0.0,0.0,-2.00535,42.51347,9.68299,9.24,-0.82,0.81,2.0
1758086887.84889,1758086887.81979,0.0,0.0,0.0,0.11459,44.28964,12.71966,9.24,-0.62,0.72,2.0
1758086887.85173,1758086887.82979,0.0,0.0,0.0,2.97938,44.28964,16.10011,9.24,-0.62,0.72,2.0
1758086887.86768,1758086887.83979,0.0,0.0,0.0,4.81285,42.97184,17.99088,8.8,-0.44,0.88,2.0
1758086887.86963,1758086887.84979,0.0,0.0,0.0,6.13065,40.62271,19.25138,8.41,-0.36,1.11,2.0
1758086887.88596,1758086887.85979,0.0,0.0,0.0,7.39116,38.61736,19.59516,8.41,-0.36,1.11,2.0
1758086887.90164,1758086887.86979,0.0,0.0,0.0,9.11003,33.74722,19.07949,8.26,-0.36,1.36,2.0
1758086887.9036,1758086887.87979,0.0,0.0,0.0,10.65701,29.50733,17.93358,8.26,-0.36,1.36,2.0
1758086887.91882,1758086887.88979,0.0,0.0,0.0,12.204,25.15285,16.67307,8.24,-0.36,1.52,2.0
1758086887.91984,1758086887.89979,0.0,0.0,0.0,13.80828,21.6578,15.29797,8.24,-0.36,1.52,2.0
1758086887.9359,1758086887.90979,0.0,0.0,0.0,16.3293,17.81899,13.86558,8.69,-0.41,1.35,2.0
1758086887.95211,1758086887.91979,0.0,0.0,0.0,17.76169,14.66772,13.23533,8.99,-0.49,1.03,2.0
1758086887.95363,1758086887.92979,0.0,0.0,0.0,19.13679,13.06344,12.83425,8.99,-0.49,1.03,2.0
1758086887.97026,1758086887.93979,0.0,0.0,0.0,20.22541,12.08941,12.37589,9.28,-0.38,0.71,2.0
1758086887.97196,1758086887.94979,0.0,0.0,0.0,21.37133,14.15206,11.28727,9.28,-0.38,0.71,2.0
1758086887.98666,1758086887.95979,0.0,0.0,0.0,22.05888,17.6471,10.59972,9.67,-0.15,0.47,2.0
1758086888.00603,1758086887.96979,0.0,0.0,0.0,21.37133,22.23076,9.28192,9.67,-0.15,0.47,2.0
1758086888.00889,1758086887.97979,0.0,0.0,0.0,21.31403,24.98096,8.136,9.96,0.06,0.48,2.0
1758086888.02353,1758086887.98979,0.0,0.0,0.0,20.22541,22.97561,6.70361,9.41,0.31,-0.07,2.0
1758086888.02477,1758086887.99979,0.0,0.0,0.0,19.76705,19.42327,5.78687,9.41,0.31,-0.07,2.0
1758086888.0396,1758086888.00979,0.0,0.0,0.0,19.07949,15.06879,4.92744,9.21,0.31,0.05,2.0
1758086888.04077,1758086888.01979,0.0,0.0,0.0,17.58981,6.35983,3.95341,9.21,0.31,0.05,2.0
1758086888.05558,1758086888.02979,0.0,0.0,0.0,16.61578,-0.0573,2.57831,8.99,0.31,-0.31,2.0
1758086888.07158,1758086888.03979,0.0,0.0,0.0,16.95955,-5.72958,2.00535,8.99,0.31,-0.31,2.0
1758086888.07365,1758086888.04979,0.0,0.0,0.0,17.81899,-9.28192,1.71887,9.39,0.13,-0.33,2.0
1758086888.08853,1758086888.05979,0.0,0.0,0.0,20.3973,-4.52637,4.23989,9.39,0.13,-0.33,2.0
1758086888.09137,1758086888.06979,0.0,0.0,0.0,22.91831,3.72423,5.78687,10.93,-0.39,-0.37,2.0
1758086888.10792,1758086888.07979,0.0,0.0,0.0,25.61122,7.84952,7.50575,12.0,-0.6,0.16,2.0
1758086888.10972,1758086888.08979,0.0,0.0,0.0,28.476,-0.40107,7.50575,12.0,-0.6,0.16,2.0
1758086888.12565,1758086888.09979,0.0,0.0,0.0,33.17426,-36.84119,10.19865,9.24,-0.92,0.33,2.0
1758086888.14192,1758086888.10979,0.0,0.0,0.0,32.20023,-53.39967,10.08406,9.24,-0.92,0.33,2.0
1758086888.14329,1758086888.11979,0.0,0.0,0.0,33.51803,-63.19725,14.49583,8.73,-0.81,-0.78,2.0
1758086888.15926,1758086888.12979,0.0,0.0,0.0,34.72124,-60.96271,17.13144,8.73,-0.81,-0.78,2.0
1758086888.16045,1758086888.13979,0.0,0.0,0.0,35.92446,-54.77477,18.79302,11.26,-0.88,-0.88,2.0
1758086888.17571,1758086888.14979,0.0,0.0,0.0,34.72124,-52.13916,20.11082,13.1,-0.02,0.76,2.0
1758086888.1927,1758086888.15979,0.0,0.0,0.0,30.59595,-53.45696,22.63183,13.1,-0.02,0.76,2.0
1758086888.19634,1758086888.16979,0.0,0.0,0.0,25.21014,-55.6915,26.98631,14.98,1.4,4.62,2.0
1758086888.21178,1758086888.17979,0.0,0.0,0.0,15.12609,-50.2484,32.83048,14.98,1.4,4.62,2.0
1758086888.21317,1758086888.18979,0.0,0.0,0.0,8.76626,-46.46688,33.9764,16.31,2.71,3.26,2.0
1758086888.22959,1758086888.19979,0.0,0.0,0.0,5.15662,-44.57612,32.08564,16.31,2.71,3.26,2.0
1758086888.23955,1758086888.20979,0.0,0.0,0.0,5.15662,-45.77933,25.15285,11.75,1.55,3.49,2.0
1758086888.2399,1758086888.21979,0.0,0.0,0.0,8.30789,-50.01921,19.25138,7.87,0.43,3.79,2.0
1758086888.25598,1758086888.22979,0.0,0.0,0.0,13.46451,-45.43555,12.89155,7.87,0.43,3.79,2.0
1758086888.27197,1758086888.23979,0.0,0.0,0.0,19.99623,-35.3515,6.58902,8.78,-0.25,3.7,2.0
1758086888.27291,1758086888.24979,0.0,0.0,0.0,30.36677,-22.23076,-2.23454,8.78,-0.25,3.7,2.0
1758086888.28789,1758086888.25979,0.0,0.0,0.0,36.55471,-18.27736,-4.92744,9.74,-0.85,2.87,2.0
1758086888.30612,1758086888.26979,0.0,0.0,0.0,41.65404,-14.38124,-5.55769,9.74,-0.85,2.87,2.0
1758086888.30779,1758086888.27979,0.0,0.0,0.0,45.09178,-8.99544,-4.69825,10.68,-0.99,2.06,2.0
1758086888.32299,1758086888.28979,0.0,0.0,0.0,48.30034,2.00535,-2.40642,11.22,-0.33,1.35,2.0
1758086888.32577,1758086888.29979,0.0,0.0,0.0,49.15978,10.02676,-0.97403,11.22,-0.33,1.35,2.0
1758086888.34099,1758086888.30979,0.0,0.0,0.0,49.15978,16.73037,0.34377,10.78,0.67,1.13,2.0
1758086888.3419,1758086888.31979,0.0,0.0,0.0,48.01387,21.88699,0.85944,10.78,0.67,1.13,2.0
1758086888.35956,1758086888.32979,0.0,0.0,0.0,45.09178,27.78845,1.20321,9.92,1.46,1.09,2.0
1758086888.36048,1758086888.33979,0.0,0.0,0.0,42.28429,30.99702,0.57296,9.92,1.46,1.09,2.0
1758086888.37594,1758086888.34979,0.0,0.0,0.0,39.24761,34.09099,-0.0573,9.38,1.85,1.23,2.0
1758086888.3917,1758086888.35979,0.0,0.0,0.0,35.75257,36.55471,-0.85944,9.38,1.85,1.23,2.0
1758086888.39291,1758086888.36979,0.0,0.0,0.0,30.65324,41.02378,-3.26586,8.83,1.89,1.38,2.0
1758086888.40801,1758086888.37979,0.0,0.0,0.0,27.38738,44.40423,-4.1253,8.69,1.78,1.27,2.0
1758086888.42475,1758086888.38979,0.0,0.0,0.0,24.17882,46.52417,-5.4431,8.69,1.78,1.27,2.0
1758086888.42679,1758086888.39979,0.0,0.0,0.0,20.16812,48.24305,-6.99009,8.54,1.62,1.19,2.0
1758086888.44199,1758086888.40979,0.0,0.0,0.0,17.6471,51.16513,-7.84952,8.54,1.62,1.19,2.0
1758086888.44314,1758086888.41979,0.0,0.0,0.0,15.46986,52.48294,-8.65166,8.87,1.43,1.12,2.0
1758086888.45955,1758086888.42979,0.0,0.0,0.0,13.46451,51.73809,-9.33921,8.87,1.43,1.12,2.0
1758086888.46047,1758086888.43979,0.0,0.0,0.0,10.71431,45.55015,-9.68299,8.83,1.19,1.19,2.0
1758086888.47595,1758086888.44979,0.0,0.0,0.0,9.05273,40.04975,-9.4538,8.54,0.98,1.28,2.0
1758086888.4918,1758086888.45979,0.0,0.0,0.0,7.44845,34.14828,-8.99544,8.54,0.98,1.28,2.0
1758086888.49289,1758086888.46979,0.0,0.0,0.0,5.95876,28.87707,-8.47978,8.43,0.84,1.33,2.0
1758086888.5078,1758086888.47979,0.0,0.0,0.0,4.29718,22.40265,-7.33386,8.43,0.84,1.33,2.0
1758086888.5256,1758086888.48979,0.0,0.0,0.0,3.32316,19.07949,-6.47442,8.44,0.74,1.53,2.0
1758086888.52689,1758086888.49979,0.0,0.0,0.0,2.6929,15.98552,-5.72958,8.44,0.74,1.53,2.0
1758086888.54197,1758086888.50979,0.0,0.0,0.0,3.38045,15.29797,-4.0107,8.47,0.71,1.48,2.0
1758086888.54376,1758086888.51979,0.0,0.0,0.0,6.87549,14.83961,1.03132,8.62,0.46,1.57,2.0
1758086888.55918,1758086888.52979,0.0,0.0,0.0,6.41713,11.11538,1.71887,8.62,0.46,1.57,2.0
1758086888.55993,1758086888.53979,0.0,0.0,0.0,5.15662,9.96947,2.34913,9.01,0.87,0.57,2.0
1758086888.5761,1758086888.54979,0.0,0.0,0.0,3.89611,12.71966,2.57831,9.01,0.87,0.57,2.0
1758086888.59204,1758086888.55979,0.0,0.0,0.0,2.29183,18.50654,2.7502,9.73,1.31,0.55,2.0
1758086888.59294,1758086888.56979,0.0,0.0,0.0,0.85944,18.22006,2.34913,9.73,1.31,0.55,2.0
1758086888.60774,1758086888.57979,0.0,0.0,0.0,-0.17189,15.0115,2.00535,9.3,1.51,0.62,2.0
1758086888.61132,1758086888.58979,0.0,0.0,0.0,-0.97403,9.68299,1.66158,9.3,1.51,0.62,2.0
1758086888.63073,1758086888.59979,0.0,0.0,0.0,-1.94806,-1.71887,1.60428,8.73,1.46,0.36,2.0
1758086888.63194,1758086888.60979,0.0,0.0,0.0,-2.86479,-10.65701,1.66158,8.31,1.25,-0.02,2.0
1758086888.64872,1758086888.61979,0.0,0.0,0.0,-3.60963,-17.93358,2.46372,8.31,1.25,-0.02,2.0
1758086888.65156,1758086888.62979,0.0,0.0,0.0,-6.53172,-4.69825,0.57296,9.49,1.2,0.0,2.0
1758086888.66782,1758086888.63979,0.0,0.0,0.0,-9.05273,14.03747,-1.03132,9.49,1.2,0.0,2.0
1758086888.67161,1758086888.64979,0.0,0.0,0.0,-10.08406,13.98017,-0.17189,11.89,1.28,0.27,2.0
1758086888.68781,1758086888.65979,0.0,0.0,0.0,-13.12073,-9.5684,-3.26586,11.89,1.28,0.27,2.0
1758086888.70374,1758086888.66979,0.0,0.0,0.0,-13.5791,-24.12152,-3.32316,8.3,1.5,1.02,2.0
1758086888.70492,1758086888.67979,0.0,0.0,0.0,-13.12073,-28.76248,-3.89611,9.83,1.09,-0.38,2.0
1758086888.71974,1758086888.68979,0.0,0.0,0.0,-12.43318,-32.88778,-3.49504,9.83,1.09,-0.38,2.0
1758086888.72092,1758086888.69979,0.0,0.0,0.0,-11.57375,-33.51803,-2.63561,10.31,0.88,-0.59,2.0
1758086888.73602,1758086888.70979,0.0,0.0,0.0,-9.68299,-32.48671,0.17189,10.31,0.88,-0.59,2.0
1758086888.75201,1758086888.71979,0.0,0.0,0.0,-7.62034,-31.79916,2.57831,10.57,0.71,-0.5,2.0
1758086888.75289,1758086888.72979,0.0,0.0,0.0,-4.98473,-31.39809,4.58366,10.57,0.71,-0.5,2.0
1758086888.76791,1758086888.73979,0.0,0.0,0.0,-2.29183,-30.36677,6.41713,10.3,0.55,-0.49,2.0
1758086888.78406,1758086888.74979,0.0,0.0,0.0,1.83346,-30.30947,8.36518,10.2,0.35,0.21,2.0
1758086888.78649,1758086888.75979,0.0,0.0,0.0,6.47442,-31.45539,7.21927,10.2,0.35,0.21,2.0
1758086888.80178,1758086888.76979,0.0,0.0,0.0,13.40721,-36.15364,2.23454,12.16,0.0,1.83,2.0
1758086888.80321,1758086888.77979,0.0,0.0,0.0,23.0902,-45.09178,-5.27121,12.16,0.0,1.83,2.0
1758086888.81778,1758086888.78979,0.0,0.0,0.0,33.86181,-57.92604,-22.68913,14.34,-0.25,3.95,2.0
1758086888.81973,1758086888.79979,0.0,0.0,0.0,38.84654,-54.02992,-31.11161,14.34,-0.25,3.95,2.0
1758086888.83609,1758086888.80979,0.0,0.0,0.0,41.13837,-48.12846,-34.49206,14.25,0.07,2.66,2.0
1758086888.8518,1758086888.81979,0.0,0.0,0.0,39.99245,-39.13302,-33.11696,14.25,0.07,2.66,2.0
1758086888.85289,1758086888.82979,0.0,0.0,0.0,36.26823,-34.72124,-29.50733,10.14,1.24,3.41,2.0
1758086888.8686,1758086888.83979,0.0,0.0,0.0,31.91375,-29.10626,-22.86102,8.72,1.92,4.8,2.0
1758086888.87163,1758086888.84979,0.0,0.0,0.0,26.41335,-23.89234,-14.38124,8.72,1.92,4.8,2.0
1758086888.88882,1758086888.85979,0.0,0.0,0.0,17.36062,-19.70975,-1.3178,9.08,2.14,4.05,2.0
1758086888.89163,1758086888.86979,0.0,0.0,0.0,11.86023,-17.18874,6.07335,9.08,2.14,4.05,2.0
1758086888.90705,1758086888.87979,0.0,0.0,0.0,7.33386,-13.46451,11.86023,10.22,2.18,2.7,2.0
1758086888.92561,1758086888.88979,0.0,0.0,0.0,4.18259,-6.07335,14.9542,10.22,2.18,2.7,2.0
1758086888.92652,1758086888.89979,0.0,0.0,0.0,2.11994,8.136,15.75634,11.78,1.75,1.48,2.0
1758086888.94206,1758086888.90979,0.0,0.0,0.0,2.40642,17.58981,14.09476,12.25,0.75,1.04,2.0
1758086888.94294,1758086888.91979,0.0,0.0,0.0,4.29718,24.12152,11.57375,12.25,0.75,1.04,2.0
1758086888.95795,1758086888.92979,0.0,0.0,0.0,7.33386,28.476,9.05273,10.77,-0.19,0.82,2.0
1758086888.97377,1758086888.93979,0.0,0.0,0.0,13.69369,34.0337,5.78687,10.77,-0.19,0.82,2.0
1758086888.97554,1758086888.94979,0.0,0.0,0.0,18.79302,37.47144,4.69825,9.46,-0.68,0.8,2.0
1758086888.98973,1758086888.95979,0.0,0.0,0.0,24.57989,40.68,5.09932,9.46,-0.68,0.8,2.0
1758086888.99095,1758086888.96979,0.0,0.0,0.0,30.48136,42.85724,6.24524,8.69,-0.92,0.75,2.0
1758086889.0058,1758086888.97979,0.0,0.0,0.0,39.4768,45.49285,9.85487,8.4,-1.2,0.56,2.0
1758086889.0218,1758086888.98979,0.0,0.0,0.0,45.14908,45.60744,12.83425,8.4,-1.2,0.56,2.0
1758086889.02334,1758086888.99979,0.0,0.0,0.0,49.79003,45.89392,16.10011,8.53,-1.28,0.4,2.0
1758086889.03794,1758086889.00979,0.0,0.0,0.0,55.97798,45.14908,20.51189,8.53,-1.28,0.4,2.0
1758086889.05454,1758086889.01979,0.0,0.0,0.0,59.12925,45.09178,23.20479,8.91,-1.09,0.19,2.0
1758086889.05607,1758086889.02979,0.0,0.0,0.0,61.59297,43.83128,24.86637,8.91,-1.09,0.19,2.0
1758086889.07106,1758086889.03979,0.0,0.0,0.0,63.13995,41.71133,25.7831,9.08,-0.53,0.53,2.0
1758086889.07221,1758086889.04979,0.0,0.0,0.0,64.40046,38.1017,26.01229,9.08,-0.53,0.74,2.0
1758086889.08681,1758086889.05979,0.0,0.0,0.0,64.80153,34.95043,25.8404,8.95,0.06,0.74,2.0
1758086889.10527,1758086889.06979,0.0,0.0,0.0,64.57235,31.74186,25.21014,8.76,0.6,0.9,2.0
1758086889.10553,1758086889.07979,0.0,0.0,0.0,63.94209,29.27814,24.29341,8.76,0.6,0.9,2.0
1758086889.12102,1758086889.08979,0.0,0.0,0.0,62.22322,26.41335,23.26209,8.93,0.97,0.88,2.0
1758086889.12191,1758086889.09979,0.0,0.0,0.0,60.61894,23.0902,22.34536,8.93,0.97,0.88,2.0
1758086889.13702,1758086889.10979,0.0,0.0,0.0,58.67088,19.59516,21.7724,9.0,1.21,0.86,2.0
1758086889.15302,1758086889.11979,0.0,0.0,0.0,56.20716,17.47521,21.02755,9.0,1.21,0.86,2.0
1758086889.15551,1758086889.12979,0.0,0.0,0.0,50.1911,21.42862,17.47521,9.4,1.3,0.65,2.0
1758086889.17121,1758086889.13979,0.0,0.0,0.0,47.32632,22.11617,16.272,9.84,1.35,0.71,2.0
1758086889.17192,1758086889.14979,0.0,0.0,0.0,46.40959,21.88699,16.61578,9.84,1.35,0.71,2.0
1758086889.18677,1758086889.15979,0.0,0.0,0.0,46.1231,21.88699,17.13144,10.01,0.65,0.14,2.0
1758086889.20272,1758086889.16979,0.0,0.0,0.0,46.1231,19.76705,17.53251,10.01,0.65,0.14,2.0
1758086889.20388,1758086889.17979,0.0,0.0,0.0,47.26902,17.93358,18.62113,9.8,0.3,0.3,2.0
1758086889.21878,1758086889.18979,0.0,0.0,0.0,48.52953,13.00614,19.42327,9.8,0.3,0.3,2.0
1758086889.2203,1758086889.19979,0.0,0.0,0.0,50.87865,6.58902,20.85567,9.46,0.16,0.16,2.0
1758086889.23599,1758086889.20979,0.0,0.0,0.0,52.82671,3.72423,21.14215,9.73,0.14,0.02,2.0
1758086889.25205,1758086889.21979,0.0,0.0,0.0,54.60288,3.95341,21.42862,9.73,0.14,0.02,2.0
1758086889.25336,1758086889.22979,0.0,0.0,0.0,56.49364,2.7502,22.68913,10.34,0.0,-0.08,2.0
1758086889.26866,1758086889.23979,0.0,0.0,0.0,58.21251,2.00535,23.60586,10.34,0.0,-0.08,2.0
1758086889.26972,1758086889.24979,0.0,0.0,0.0,58.26981,4.81285,23.72045,10.69,-0.01,-0.16,2.0
1758086889.2858,1758086889.25979,0.0,0.0,0.0,58.67088,3.60963,23.0902,10.69,-0.01,-0.16,2.0
1758086889.30183,1758086889.26979,0.0,0.0,0.0,57.41038,-7.62034,22.23076,10.37,0.19,-0.7,2.0
1758086889.30324,1758086889.27979,0.0,0.0,0.0,57.63955,-37.98711,20.22541,8.0,0.49,-0.57,2.0
1758086889.3178,1758086889.28979,0.0,0.0,0.0,55.97798,-50.3057,18.62113,8.0,0.49,-0.57,2.0
1758086889.33404,1758086889.29979,0.0,0.0,0.0,54.66018,-60.90542,17.01685,8.25,0.64,-1.73,2.0
1758086889.33572,1758086889.30979,0.0,0.0,0.0,54.71747,-67.15066,16.50119,8.25,0.64,-1.73,2.0
1758086889.35079,1758086889.31979,0.0,0.0,0.0,57.63955,-73.16672,14.78231,9.33,0.47,0.02,2.0
1758086889.35196,1758086889.32979,0.0,0.0,0.0,59.35843,-82.56322,16.38659,9.33,0.47,0.02,2.0
1758086889.36697,1758086889.33979,0.0,0.0,0.0,60.27517,-93.39213,22.11617,11.99,0.78,4.51,2.0
1758086889.38307,1758086889.34979,0.0,0.0,0.0,61.30648,-92.3035,31.91375,11.99,0.78,4.51,2.0
1758086889.38475,1758086889.35979,0.0,0.0,0.0,58.3844,-78.7244,43.83128,17.76,1.6,7.71,2.0
1758086889.39987,1758086889.36979,0.0,0.0,0.0,54.66018,-63.88479,45.03448,17.5,1.23,4.12,2.0
1758086889.40098,1758086889.37979,0.0,0.0,0.0,54.48829,-52.19646,42.34158,17.5,1.23,4.12,2.0
1758086889.41579,1758086889.38979,0.0,0.0,0.0,60.27517,-49.96192,33.9764,11.12,-0.1,2.6,2.0
1758086889.4318,1758086889.39979,0.0,0.0,0.0,66.97877,-54.88936,26.06958,11.12,-0.1,2.6,2.0
1758086889.43297,1758086889.40979,0.0,0.0,0.0,74.59911,-53.97263,16.55848,8.13,-0.69,3.33,2.0
1758086889.44808,1758086889.41979,0.0,0.0,0.0,82.04756,-47.03984,7.62034,8.13,-0.69,3.33,2.0
1758086889.46483,1758086889.42979,0.0,0.0,0.0,90.58463,-23.49127,-4.46907,10.14,-0.77,2.6,2.0
1758086889.46682,1758086889.43979,0.0,0.0,0.0,95.0537,-11.97482,-8.70896,11.35,-0.28,1.59,2.0
1758086889.4826,1758086889.44979,0.0,0.0,0.0,98.43416,-4.0107,-10.31324,11.35,-0.28,1.59,2.0
1758086889.48547,1758086889.45979,0.0,0.0,0.0,100.03843,1.14592,-10.94349,10.43,0.2,1.28,2.0
1758086889.50097,1758086889.46979,0.0,0.0,0.0,100.66869,7.67763,-10.37054,10.43,0.2,1.28,2.0
1758086889.50199,1758086889.47979,0.0,0.0,0.0,99.69466,15.24068,-9.33921,10.18,1.0,0.54,2.0
1758086889.51708,1758086889.48979,0.0,0.0,0.0,97.6893,23.83505,-8.136,10.18,1.0,0.54,2.0
1758086889.53397,1758086889.49979,0.0,0.0,0.0,94.30885,32.37212,-7.50575,10.34,1.77,0.03,2.0
1758086889.53655,1758086889.50979,0.0,0.0,0.0,88.40739,41.88322,-7.04738,9.25,2.08,0.19,2.0
1758086889.55206,1758086889.51979,0.0,0.0,0.0,84.39669,45.83662,-6.87549,9.25,2.08,0.19,2.0
1758086889.55455,1758086889.52979,0.0,0.0,0.0,80.04221,48.75871,-6.8182,8.02,1.97,0.46,2.0
1758086889.56996,1758086889.53979,0.0,0.0,0.0,76.48987,50.47758,-6.18794,8.02,1.97,0.46,2.0
1758086889.57134,1758086889.54979,0.0,0.0,0.0,71.39055,51.5662,-4.87014,7.38,1.61,0.62,2.0
1758086889.58578,1758086889.55979,0.0,0.0,0.0,68.35387,51.90998,-3.49504,7.38,1.61,0.62,2.0
1758086889.60175,1758086889.56979,0.0,0.0,0.0,65.83286,52.02457,-1.71887,7.4,1.28,0.66,2.0
1758086889.60296,1758086889.57979,0.0,0.0,0.0,63.31184,51.6235,0.51566,7.4,1.28,0.66,2.0
1758086889.61779,1758086889.58979,0.0,0.0,0.0,59.87409,47.72739,1.48969,7.81,1.12,0.71,2.0
1758086889.63378,1758086889.59979,0.0,0.0,0.0,57.46767,45.14908,2.29183,8.2,1.17,0.74,2.0
1758086889.63498,1758086889.60979,0.0,0.0,0.0,54.94666,43.88857,2.86479,8.2,1.17,0.74,2.0
1758086889.6497,1758086889.61979,0.0,0.0,0.0,50.87865,40.62271,2.7502,8.79,1.39,0.79,2.0
1758086889.65111,1758086889.62979,0.0,0.0,0.0,48.07116,36.95578,2.34913,8.79,1.39,0.79,2.0
1758086889.66608,1758086889.63979,0.0,0.0,0.0,45.72203,33.34615,2.34913,8.65,1.58,0.83,2.0
1758086889.68205,1758086889.64979,0.0,0.0,0.0,43.77398,29.56462,3.09397,8.65,1.58,0.83,2.0
1758086889.6857,1758086889.65979,0.0,0.0,0.0,40.7946,24.57989,4.35448,8.59,1.61,0.89,2.0
1758086889.70079,1758086889.66979,0.0,0.0,0.0,39.07573,21.60051,5.78687,8.67,1.54,0.82,2.0
1758086889.70196,1758086889.67979,0.0,0.0,0.0,37.58603,20.11082,6.99009,8.67,1.54,0.82,2.0
1758086889.71679,1758086889.68979,0.0,0.0,0.0,36.95578,22.68913,8.88085,9.24,1.39,0.71,2.0
1758086889.73462,1758086889.69979,0.0,0.0,0.0,33.63263,22.97561,10.08406,9.24,1.39,0.71,2.0
1758086889.73651,1758086889.70979,0.0,0.0,0.0,29.9084,22.23076,9.96947,10.02,1.73,0.02,2.0
1758086889.75204,1758086889.71979,0.0,0.0,0.0,26.47065,22.57454,9.91217,10.02,1.73,0.02,2.0
1758086889.75298,1758086889.72979,0.0,0.0,0.0,23.0902,22.23076,10.08406,10.85,2.08,-0.52,2.0
1758086889.76782,1758086889.73979,0.0,0.0,0.0,18.62113,15.98552,10.31324,10.59,2.08,-0.68,2.0
1758086889.78399,1758086889.74979,0.0,0.0,0.0,15.75634,8.88085,10.19865,10.59,2.08,-0.68,2.0
1758086889.78445,1758086889.75979,0.0,0.0,0.0,13.23533,0.0,9.91217,9.84,2.17,-0.52,2.0
1758086889.80008,1758086889.76979,0.0,0.0,0.0,10.59972,-10.02676,6.99009,9.84,2.17,-0.52,2.0
1758086889.80134,1758086889.77979,0.0,0.0,0.0,6.35983,-25.15285,4.0107,9.26,2.28,-0.06,2.0
1758086889.81604,1758086889.78979,0.0,0.0,0.0,3.66693,-35.63798,0.80214,9.26,2.28,-0.06,2.0
1758086889.83286,1758086889.79979,0.0,0.0,0.0,0.80214,-43.60209,-2.34913,9.28,2.12,-0.37,2.0
1758086889.8362,1758086889.80979,0.0,0.0,0.0,-3.60963,-44.57612,-6.87549,9.28,2.12,-0.37,2.0
1758086889.85522,1758086889.81979,0.0,0.0,0.0,-7.10468,-34.72124,-10.37054,10.2,2.02,-0.79,2.0
1758086889.86095,1758086889.82979,0.0,0.0,0.0,-9.85487,-25.38203,-13.23533,11.44,2.06,-0.71,2.0
1758086889.86155,1758086889.83979,0.0,0.0,0.0,-12.89155,-37.18496,-13.98017,11.44,2.06,-0.71,2.0
1758086889.87906,1758086889.84979,0.0,0.0,0.0,-16.04282,-62.33781,-16.38659,8.38,2.35,0.85,2.0
1758086889.88083,1758086889.85979,0.0,0.0,0.0,-15.29797,-72.76565,-19.82434,8.38,2.35,0.85,2.0
1758086889.89701,1758086889.86979,0.0,0.0,0.0,-11.91752,-80.61517,-26.12688,11.08,1.88,2.75,2.0
1758086889.91459,1758086889.87979,0.0,0.0,0.0,-7.44845,-91.043,-35.12231,11.08,1.88,2.75,2.0
1758086889.91655,1758086889.88979,0.0,0.0,0.0,0.45837,-89.78249,-48.24305,14.12,0.43,5.45,2.0
1758086889.9326,1758086889.89979,0.0,0.0,0.0,4.52637,-78.66711,-53.45696,15.31,-0.68,5.08,2.0
1758086889.93391,1758086889.90979,0.0,0.0,0.0,7.39116,-71.67702,-54.60288,15.31,-0.68,5.08,2.0
1758086889.94907,1758086889.91979,0.0,0.0,0.0,8.136,-68.52576,-54.94666,10.9,-0.78,4.51,2.0
1758086889.95079,1758086889.92979,0.0,0.0,0.0,5.61499,-60.33246,-50.59217,10.9,-0.78,4.51,2.0
1758086889.96699,1758086889.93979,0.0,0.0,0.0,2.11994,-51.85268,-44.11775,9.66,-0.11,5.05,2.0
1758086889.98374,1758086889.94979,0.0,0.0,0.0,-2.57831,-42.34158,-36.15364,9.66,-0.11,5.05,2.0
1758086889.98438,1758086889.95979,0.0,0.0,0.0,-6.58902,-34.14828,-26.87172,10.98,0.56,3.69,2.0
1758086889.9998,1758086889.96979,0.0,0.0,0.0,-11.86023,-28.87707,-13.23533,11.3,1.14,2.02,2.0
1758086890.00107,1758086889.97979,0.0,0.0,0.0,-14.20935,-28.01764,-4.87014,11.3,1.14,2.02,2.0
1758086890.0161,1758086889.98979,0.0,0.0,0.0,-15.75634,-24.98096,1.60428,11.71,1.29,0.87,2.0
1758086890.03211,1758086889.99979,0.0,0.0,0.0,-17.01685,1.14592,8.65166,11.71,1.29,0.87,2.0
1758086890.03304,1758086890.00979,0.0,0.0,0.0,-18.79302,23.54857,9.85487,13.02,1.15,0.0,2.0
1758086890.0481,1758086890.01979,0.0,0.0,0.0,-18.79302,37.24226,10.08406,13.02,1.15,0.0,2.0
1758086890.06386,1758086890.02979,0.0,0.0,0.0,-17.76169,41.65404,9.96947,10.46,0.76,0.54,2.0
1758086890.06585,1758086890.03979,0.0,0.0,0.0,-14.38124,44.86259,8.65166,10.46,0.76,0.72,2.0
1758086890.08109,1758086890.04979,0.0,0.0,0.0,-11.00079,48.41494,8.93814,8.36,0.23,0.72,2.0
1758086890.08238,1758086890.05979,0.0,0.0,0.0,-7.44845,52.36834,9.39651,8.63,-0.56,0.53,2.0
1758086890.09684,1758086890.06979,0.0,0.0,0.0,-2.86479,54.60288,10.65701,8.63,-0.56,0.53,2.0
1758086890.11403,1758086890.07979,0.0,0.0,0.0,4.81285,56.66553,13.17803,8.51,-1.22,0.76,2.0
1758086890.1145,1758086890.08979,0.0,0.0,0.0,9.91217,56.20716,14.78231,8.51,-1.22,0.76,2.0
1758086890.13088,1758086890.09979,0.0,0.0,0.0,14.9542,55.11855,16.50119,8.21,-1.46,0.83,2.0
1758086890.13213,1758086890.10979,0.0,0.0,0.0,19.36597,53.51426,17.81899,8.21,-1.46,0.83,2.0
1758086890.14682,1758086890.11979,0.0,0.0,0.0,24.75178,50.2484,18.79302,7.99,-1.25,0.61,2.0
1758086890.16574,1758086890.12979,0.0,0.0,0.0,27.10091,48.35764,18.85031,8.08,-0.73,0.73,2.0
1758086890.16623,1758086890.13979,0.0,0.0,0.0,28.70519,46.63877,18.62113,8.08,-0.73,0.73,2.0
1758086890.18184,1758086890.14979,0.0,0.0,0.0,29.39274,43.94586,17.99088,8.21,-0.17,0.91,2.0
1758086890.183,1758086890.15979,0.0,0.0,0.0,28.41871,40.96649,16.04282,8.21,-0.17,0.91,2.0
1758086890.19883,1758086890.16979,0.0,0.0,0.0,26.52795,38.61736,14.32395,8.34,0.44,1.24,2.0
1758086890.20085,1758086890.17979,0.0,0.0,0.0,25.61122,33.80451,13.5791,8.34,0.44,1.24,2.0
1758086890.21922,1758086890.18979,0.0,0.0,0.0,24.5226,29.96569,13.06344,8.61,0.51,0.97,2.0
1758086890.22198,1758086890.19979,0.0,0.0,0.0,23.83505,27.73116,12.54778,9.18,0.37,0.64,2.0
1758086890.23925,1758086890.20979,0.0,0.0,0.0,22.86102,25.21014,12.08941,9.18,0.37,0.64,2.0
1758086890.24122,1758086890.21979,0.0,0.0,0.0,22.40265,21.88699,11.63104,8.89,0.28,0.7,2.0
1758086890.25947,1758086890.22979,0.0,0.0,0.0,22.28806,20.85567,11.17268,8.89,0.28,0.7,2.0
1758086890.26204,1758086890.23979,0.0,0.0,0.0,22.34536,20.34,11.11538,9.06,0.16,0.52,2.0
1758086890.27945,1758086890.24979,0.0,0.0,0.0,22.97561,17.47521,11.11538,9.06,0.16,0.52,2.0
1758086890.28124,1758086890.25979,0.0,0.0,0.0,23.60586,13.5218,11.11538,8.92,0.05,0.44,2.0
1758086890.29712,1758086890.26979,0.0,0.0,0.0,24.98096,5.95876,10.94349,8.95,-0.04,0.21,2.0
1758086890.30042,1758086890.27979,0.0,0.0,0.0,26.06958,-1.83346,10.54242,8.95,-0.04,0.21,2.0
1758086890.31615,1758086890.28979,0.0,0.0,0.0,26.41335,-9.33921,9.96947,8.85,-0.03,-0.19,2.0
1758086890.3321,1758086890.29979,0.0,0.0,0.0,26.69983,-16.50119,8.88085,8.85,-0.03,-0.19,2.0
1758086890.33306,1758086890.30979,0.0,0.0,0.0,28.30412,-20.51189,6.7609,9.61,0.2,-0.83,2.0
1758086890.3479,1758086890.31979,0.0,0.0,0.0,29.50733,-18.62113,6.70361,9.61,0.2,-0.83,2.0
1758086890.3657,1758086890.32979,0.0,0.0,0.0,30.65324,-16.67307,7.73493,11.33,0.23,-0.67,2.0
1758086890.36609,1758086890.33979,0.0,0.0,0.0,31.51268,-14.49583,8.88085,11.33,0.23,-0.67,2.0
1758086890.38194,1758086890.34979,0.0,0.0,0.0,30.82513,-9.91217,9.74028,12.13,0.22,-0.54,2.0
1758086890.38307,1758086890.35979,0.0,0.0,0.0,30.48136,-9.96947,10.02676,12.19,0.3,-0.36,2.0
1758086890.39949,1758086890.36979,0.0,0.0,0.0,29.67921,-13.17803,9.05273,12.19,0.3,-0.36,2.0
1758086890.40147,1758086890.37979,0.0,0.0,0.0,29.56462,-25.8404,7.16197,10.16,0.28,-1.04,2.0
1758086890.41713,1758086890.38979,0.0,0.0,0.0,30.25217,-44.11775,6.58902,10.16,0.28,-1.04,2.0
1758086890.4338,1758086890.39979,0.0,0.0,0.0,30.59595,-52.48294,5.4431,9.01,0.04,-1.15,2.0
1758086890.43447,1758086890.40979,0.0,0.0,0.0,31.28349,-59.98868,5.15662,9.01,0.04,-1.15,2.0
1758086890.45093,1758086890.41979,0.0,0.0,0.0,31.62727,-73.05212,8.0787,10.15,-0.07,0.32,2.0
1758086890.45182,1758086890.42979,0.0,0.0,0.0,31.11161,-82.67782,12.43318,12.03,0.31,3.49,2.0
1758086890.46889,1758086890.43979,0.0,0.0,0.0,30.19488,-85.19884,18.62113,12.03,0.31,3.49,2.0
1758086890.47144,1758086890.44979,0.0,0.0,0.0,27.38738,-80.55787,24.75178,15.02,0.78,4.82,2.0
1758086890.48711,1758086890.45979,0.0,0.0,0.0,24.57989,-63.02536,33.86181,15.02,0.78,4.82,2.0
1758086890.49059,1758086890.46979,0.0,0.0,0.0,26.06958,-50.76406,37.75792,15.47,0.83,5.01,2.0
1758086890.50587,1758086890.47979,0.0,0.0,0.0,31.16891,-43.54479,38.61736,15.47,0.83,5.01,2.0
1758086890.52197,1758086890.48979,0.0,0.0,0.0,41.65404,-39.64868,38.73195,11.2,-0.07,4.64,2.0
1758086890.52306,1758086890.49979,0.0,0.0,0.0,54.3737,-44.28964,31.56997,8.81,-0.75,3.78,2.0
1758086890.54051,1758086890.50979,0.0,0.0,0.0,58.90006,-43.88857,23.31938,8.81,-0.75,3.78,2.0
1758086890.54147,1758086890.51979,0.0,0.0,0.0,61.76485,-36.26823,14.78231,11.19,-0.31,2.18,2.0
1758086890.5595,1758086890.52979,0.0,0.0,0.0,63.25455,-21.7724,6.18794,11.19,-0.31,2.18,2.0
1758086890.56048,1758086890.53979,0.0,0.0,0.0,64.74423,0.97403,-3.49504,12.94,0.24,1.74,2.0
1758086890.57619,1758086890.54979,0.0,0.0,0.0,64.85883,9.85487,-8.25059,12.94,0.24,1.74,2.0
1758086890.59217,1758086890.55979,0.0,0.0,0.0,64.28587,15.87093,-10.25595,10.93,0.6,1.47,2.0
1758086890.59335,1758086890.56979,0.0,0.0,0.0,62.62429,21.37133,-11.97482,10.93,0.6,1.47,2.0
1758086890.60817,1758086890.57979,0.0,0.0,0.0,57.81144,30.59595,-11.74564,10.08,1.02,1.46,2.0
1758086890.61133,1758086890.58979,0.0,0.0,0.0,53.39967,37.47144,-11.00079,9.97,1.56,0.97,2.0
1758086890.6269,1758086890.59979,0.0,0.0,0.0,48.30034,44.23235,-10.71431,9.97,1.56,0.97,2.0
1758086890.64525,1758086890.60979,0.0,0.0,0.0,40.33623,50.93595,-10.54242,9.33,1.9,0.86,2.0
1758086890.64587,1758086890.61979,0.0,0.0,0.0,34.72124,53.34238,-10.08406,9.33,1.9,0.86,2.0
1758086890.66191,1758086890.62979,0.0,0.0,0.0,28.93437,56.55093,-9.85487,8.61,2.0,1.01,2.0
1758086890.66507,1758086890.63979,0.0,0.0,0.0,23.66316,59.07195,-9.62569,8.61,2.0,1.01,2.0
1758086890.68019,1758086890.64979,0.0,0.0,0.0,16.95955,59.01466,-9.91217,8.06,1.92,0.9,2.0
1758086890.68113,1758086890.65979,0.0,0.0,0.0,13.5218,59.24384,-9.85487,7.54,1.73,0.92,2.0
1758086890.69591,1758086890.66979,0.0,0.0,0.0,11.11538,58.3844,-9.22462,7.54,1.73,0.92,2.0
1758086890.71221,1758086890.67979,0.0,0.0,0.0,9.11003,56.49364,-8.93814,7.49,1.4,1.01,2.0
1758086890.71311,1758086890.68979,0.0,0.0,0.0,7.84952,53.34238,-7.50575,7.49,1.4,1.01,2.0
1758086890.72804,1758086890.69979,0.0,0.0,0.0,7.84952,50.87865,-6.18794,7.72,0.91,1.26,2.0
1758086890.7291,1758086890.70979,0.0,0.0,0.0,8.65166,47.32632,-4.92744,7.72,0.91,1.26,2.0
1758086890.7445,1758086890.71979,0.0,0.0,0.0,9.11003,42.62806,-4.18259,7.79,0.42,1.35,2.0
1758086890.76092,1758086890.72979,0.0,0.0,0.0,9.28192,33.68992,-3.60963,7.85,0.3,1.13,2.0
1758086890.76316,1758086890.73979,0.0,0.0,0.0,9.11003,29.04896,-3.95341,7.85,0.3,1.13,2.0
1758086890.77893,1758086890.74979,0.0,0.0,0.0,8.65166,25.21014,-4.46907,8.17,0.4,1.04,2.0
1758086890.78103,1758086890.75979,0.0,0.0,0.0,7.67763,22.05888,-5.27121,8.17,0.4,1.04,2.0
1758086890.79622,1758086890.76979,0.0,0.0,0.0,5.55769,18.50654,-5.90147,8.48,0.68,0.94,2.0
1758086890.81376,1758086890.77979,0.0,0.0,0.0,3.95341,18.44924,-5.55769,8.48,0.68,0.94,2.0
1758086890.81979,1758086890.78979,0.0,0.0,0.0,2.29183,18.90761,-4.81285,9.01,1.07,0.71,2.0
1758086890.82016,1758086890.79979,0.0,0.0,0.0,0.11459,19.42327,-2.86479,9.01,1.07,0.71,2.0
1758086890.83622,1758086890.80979,0.0,0.0,0.0,-1.08862,18.56383,-1.20321,9.29,1.24,0.44,2.0
1758086890.85217,1758086890.81979,0.0,0.0,0.0,-2.06265,15.64175,0.17189,9.12,1.23,0.21,2.0
1758086890.85353,1758086890.82979,0.0,0.0,0.0,-2.92208,10.71431,1.83346,9.12,1.23,0.21,2.0
1758086890.86823,1758086890.83979,0.0,0.0,0.0,-3.55234,0.97403,4.98473,8.84,1.07,-0.22,2.0
1758086890.86911,1758086890.84979,0.0,0.0,0.0,-4.0107,-6.35983,7.39116,8.84,1.07,-0.22,2.0
1758086890.88719,1758086890.85979,0.0,0.0,0.0,-4.64096,-13.23533,9.39651,9.04,0.98,-0.72,2.0
1758086890.88836,1758086890.86979,0.0,0.0,0.0,-5.21392,-17.6471,11.63104,9.04,0.98,-0.72,2.0
1758086890.90346,1758086890.87979,0.0,0.0,0.0,-7.67763,-8.136,10.25595,10.12,1.1,-0.93,2.0
1758086890.91921,1758086890.88979,0.0,0.0,0.0,-10.37054,6.41713,7.21927,12.79,1.51,-0.39,2.0
1758086890.92011,1758086890.89979,0.0,0.0,0.0,-11.97482,14.61043,4.81285,12.79,1.51,-0.39,2.0
1758086890.93514,1758086890.90979,0.0,0.0,0.0,-15.0115,-8.47978,1.03132,10.63,1.94,0.56,2.0
1758086890.95096,1758086890.91979,0.0,0.0,0.0,-15.12609,-33.17426,-2.46372,10.63,1.94,0.56,2.0
1758086890.95292,1758086890.92979,0.0,0.0,0.0,-15.41257,-40.39353,-5.90147,9.28,1.7,-0.01,2.0
1758086890.96823,1758086890.93979,0.0,0.0,0.0,-15.58445,-43.77398,-9.85487,9.28,1.7,-0.01,2.0
1758086890.97154,1758086890.94979,0.0,0.0,0.0,-15.41257,-43.65939,-13.23533,10.01,1.62,-0.73,2.0
1758086890.98823,1758086890.95979,0.0,0.0,0.0,-13.5791,-43.77398,-18.44924,10.79,1.49,0.86,2.0
1758086890.99177,1758086890.96979,0.0,0.0,0.0,-9.96947,-44.63341,-22.63183,10.79,1.49,0.86,2.0
1758086891.00719,1758086890.97979,0.0,0.0,0.0,-3.60963,-50.3057,-28.01764,12.9,0.49,3.14,2.0
1758086891.00925,1758086890.98979,0.0,0.0,0.0,9.68299,-62.85347,-38.73195,12.9,0.49,3.14,2.0
1758086891.02691,1758086890.99979,0.0,0.0,0.0,17.87628,-63.42643,-45.37826,14.69,-0.85,5.01,2.0
1758086891.03059,1758086891.00979,0.0,0.0,0.0,24.4653,-58.49899,-48.70141,14.69,-0.85,5.01,2.0
1758086891.046,1758086891.01979,0.0,0.0,0.0,27.44468,-54.94666,-49.04519,14.21,-1.42,3.6,2.0
1758086891.06193,1758086891.02979,0.0,0.0,0.0,26.35606,-55.34772,-45.55015,14.21,-1.42,4.43,2.0
1758086891.06667,1758086891.03979,0.0,0.0,0.0,22.00158,-53.34238,-41.36755,10.17,-0.09,4.43,2.0
1758086891.08305,1758086891.04979,0.0,0.0,0.0,15.12609,-48.35764,-35.58068,9.29,1.22,4.81,2.0
1758086891.08586,1758086891.05979,0.0,0.0,0.0,6.8182,-42.34158,-28.01764,9.29,1.22,4.81,2.0
1758086891.10095,1758086891.06979,0.0,0.0,0.0,-5.72958,-34.37747,-15.58445,9.92,2.14,3.89,2.0
1758086891.103,1758086891.07979,0.0,0.0,0.0,-13.00614,-29.8511,-7.50575,9.92,2.14,3.89,2.0
1758086891.11907,1758086891.08979,0.0,0.0,0.0,-19.70975,-24.29341,-1.03132,10.49,2.55,2.38,2.0
1758086891.12027,1758086891.09979,0.0,0.0,0.0,-25.15285,-17.81899,3.38045,10.49,2.55,2.38,2.0
1758086891.13607,1758086891.10979,0.0,0.0,0.0,-30.13758,-7.44845,7.04738,11.09,2.28,1.64,2.0
1758086891.15383,1758086891.11979,0.0,0.0,0.0,-31.2262,1.14592,6.99009,11.0,1.01,1.11,2.0
1758086891.15637,1758086891.12979,0.0,0.0,0.0,-30.30947,9.68299,6.41713,11.0,1.01,1.11,2.0
1758086891.17358,1758086891.13979,0.0,0.0,0.0,-27.61657,17.47521,5.4431,10.3,-0.39,0.77,2.0
1758086891.17629,1758086891.14979,0.0,0.0,0.0,-21.6578,27.2155,4.23989,10.3,-0.39,0.77,2.0
1758086891.19216,1758086891.15979,0.0,0.0,0.0,-16.61578,31.91375,4.1253,9.41,-1.32,0.8,2.0
1758086891.19394,1758086891.16979,0.0,0.0,0.0,-11.11538,35.69527,4.58366,9.41,-1.32,0.8,2.0
1758086891.20924,1758086891.17979,0.0,0.0,0.0,-2.11994,38.73195,6.41713,8.75,-1.65,0.82,2.0
1758086891.21089,1758086891.18979,0.0,0.0,0.0,3.83882,41.25296,8.30789,8.42,-1.62,0.91,2.0
1758086891.22598,1758086891.19979,0.0,0.0,0.0,9.28192,43.14373,10.54242,8.42,-1.62,0.91,2.0
1758086891.24307,1758086891.20979,0.0,0.0,0.0,14.43854,44.00316,12.71966,8.4,-1.39,1.02,2.0
1758086891.24515,1758086891.21979,0.0,0.0,0.0,20.97026,43.77398,15.98552,8.4,-1.39,1.02,2.0
1758086891.26021,1758086891.22979,0.0,0.0,0.0,24.4653,42.68536,17.36062,8.4,-1.02,1.12,2.0
1758086891.26117,1758086891.23979,0.0,0.0,0.0,26.87172,41.08107,17.93358,8.4,-1.02,1.12,2.0
1758086891.27622,1758086891.24979,0.0,0.0,0.0,28.87707,39.64868,18.33465,8.59,-0.59,1.29,2.0
1758086891.29222,1758086891.25979,0.0,0.0,0.0,30.25217,37.64333,17.58981,8.72,-0.12,1.42,2.0
1758086891.29399,1758086891.26979,0.0,0.0,0.0,30.02299,37.12767,16.38659,8.72,-0.12,1.42,2.0
1758086891.30989,1758086891.27979,0.0,0.0,0.0,29.33544,35.98175,15.06879,8.79,0.28,1.55,2.0
1758086891.3126,1758086891.28979,0.0,0.0,0.0,29.22085,32.71589,14.20935,8.79,0.28,1.55,2.0
1758086891.32793,1758086891.29979,0.0,0.0,0.0,29.22085,26.64254,13.5791,8.73,0.22,1.24,2.0
1758086891.32916,1758086891.30979,0.0,0.0,0.0,29.50733,24.57989,13.34992,8.73,0.22,1.24,2.0
1758086891.34617,1758086891.31979,0.0,0.0,0.0,29.62192,22.97561,13.34992,9.13,0.09,1.04,2.0
1758086891.36103,1758086891.32979,0.0,0.0,0.0,29.9084,19.36597,13.34992,9.13,0.09,1.04,2.0
1758086891.36295,1758086891.33979,0.0,0.0,0.0,29.96569,15.35527,13.5791,9.03,0.06,0.82,2.0
1758086891.38122,1758086891.34979,0.0,0.0,0.0,29.96569,15.58445,13.5218,9.32,0.16,0.38,2.0
1758086891.38318,1758086891.35979,0.0,0.0,0.0,29.73651,16.50119,13.46451,9.32,0.16,0.38,2.0
1758086891.39874,1758086891.36979,0.0,0.0,0.0,28.99167,16.50119,12.71966,9.61,0.33,0.08,2.0
1758086891.40022,1758086891.37979,0.0,0.0,0.0,28.30412,10.8289,11.86023,9.61,0.33,0.08,2.0
1758086891.41604,1758086891.38979,0.0,0.0,0.0,27.1582,7.50575,10.8289,9.36,0.52,-0.16,2.0
1758086891.43284,1758086891.39979,0.0,0.0,0.0,26.24147,3.32316,9.05273,9.36,0.52,-0.16,2.0
1758086891.43634,1758086891.40979,0.0,0.0,0.0,26.52795,-0.68755,5.72958,9.62,0.6,-0.52,2.0
1758086891.45219,1758086891.41979,0.0,0.0,0.0,27.10091,-0.51566,3.20856,10.27,0.35,-0.41,2.0
1758086891.45435,1758086891.42979,0.0,0.0,0.0,28.70519,0.0573,2.00535,10.27,0.35,-0.41,2.0
1758086891.46923,1758086891.43979,0.0,0.0,0.0,30.99702,0.0573,1.60428,10.84,-0.11,-0.15,2.0
1758086891.47093,1758086891.44979,0.0,0.0,0.0,34.09099,2.97938,2.23454,10.84,-0.11,-0.15,2.0
1758086891.48601,1758086891.45979,0.0,0.0,0.0,36.49741,6.58902,2.6929,11.42,-0.4,-0.15,2.0
1758086891.50194,1758086891.46979,0.0,0.0,0.0,39.07573,7.33386,3.89611,11.42,-0.4,-0.15,2.0
1758086891.5032,1758086891.47979,0.0,0.0,0.0,41.94051,2.7502,4.58366,11.12,-0.22,-0.33,2.0
1758086891.51901,1758086891.48979,0.0,0.0,0.0,45.89392,-23.54857,7.96411,8.9,-0.34,-0.39,2.0
1758086891.51994,1758086891.49979,0.0,0.0,0.0,51.22243,-34.26288,11.45916,8.9,-0.34,-0.39,2.0
1758086891.53489,1758086891.50979,0.0,0.0,0.0,56.952,-45.60744,15.64175,8.65,-0.83,-0.65,2.0
1758086891.55101,1758086891.51979,0.0,0.0,0.0,58.78547,-55.00395,17.87628,8.65,-0.83,-0.65,2.0
1758086891.55327,1758086891.52979,0.0,0.0,0.0,58.49899,-64.22858,20.11082,10.2,-0.69,-0.37,2.0
1758086891.56902,1758086891.53979,0.0,0.0,0.0,56.952,-68.75494,22.40265,10.2,-0.69,-0.37,2.0
1758086891.57069,1758086891.54979,0.0,0.0,0.0,54.60288,-71.16136,26.35606,12.55,0.41,1.71,2.0
1758086891.58596,1758086891.55979,0.0,0.0,0.0,49.79003,-70.93218,31.85646,12.55,0.41,1.71,2.0
