timeStamp,timeStampAlign,roll,pitch,yaw,gyro_x,gyro_y,gyro_z,acc_x,acc_y,acc_z,flag_num
1758078470.94679,1758078470.9544,0.0,0.0,0.0,-18.16276,-20.85567,7.04738,8.81,-0.08,0.97,2.0
1758078470.96277,1758078470.9644,0.0,0.0,0.0,-20.51189,-19.99623,7.39116,8.81,-0.08,0.97,2.0
1758078470.96517,1758078470.9744,0.0,0.0,0.0,-24.63719,-17.58981,4.23989,9.02,-0.39,1.48,2.0
1758078470.98033,1758078470.9844,0.0,0.0,0.0,-27.38738,-15.69904,0.74485,9.02,-0.39,1.48,2.0
1758078470.98267,1758078470.9944,0.0,0.0,0.0,-29.10626,-15.24068,-3.20856,9.52,-0.29,2.01,2.0
1758078470.99805,1758078471.0044,0.0,0.0,0.0,-30.02299,-14.83961,-7.16197,9.52,-0.29,2.01,2.0
1758078471.01505,1758078471.0144,0.0,0.0,0.0,-29.62192,-12.08941,-12.14671,9.58,-0.17,1.93,2.0
1758078471.01636,1758078471.0244,0.0,0.0,0.0,-28.01764,-8.99544,-13.86558,9.7,-0.28,1.62,2.0
1758078471.03082,1758078471.0344,0.0,0.0,0.0,-25.89769,-5.4431,-14.66772,9.7,-0.28,1.62,2.0
1758078471.03236,1758078471.0444,0.0,0.0,0.0,-23.20479,-1.66158,-12.83425,9.69,-0.64,1.58,2.0
1758078471.04681,1758078471.0544,0.0,0.0,0.0,-18.62113,4.0107,-10.59972,9.69,-0.64,1.58,2.0
1758078471.06315,1758078471.0644,0.0,0.0,0.0,-15.69904,7.73493,-7.44845,9.85,-1.01,1.6,2.0
1758078471.06431,1758078471.0744,0.0,0.0,0.0,-13.12073,10.19865,-4.64096,9.85,-1.01,1.6,2.0
1758078471.08046,1758078471.0844,0.0,0.0,0.0,-9.68299,14.61043,-0.80214,9.94,-1.1,1.43,2.0
1758078471.08208,1758078471.0944,0.0,0.0,0.0,-7.67763,17.30333,0.85944,10.13,-0.94,1.13,2.0
1758078471.09713,1758078471.1044,0.0,0.0,0.0,-6.41713,19.48057,1.77617,10.13,-0.94,1.13,2.0
1758078471.11314,1758078471.1144,0.0,0.0,0.0,-5.21392,21.6578,2.23454,10.09,-0.79,0.93,2.0
1758078471.116,1758078471.1244,0.0,0.0,0.0,-3.38045,25.55392,2.23454,10.09,-0.79,0.93,2.0
1758078471.13114,1758078471.1344,0.0,0.0,0.0,-2.40642,27.44468,2.23454,10.17,-0.77,0.92,2.0
1758078471.13287,1758078471.1444,0.0,0.0,0.0,-1.3751,27.73116,2.40642,10.17,-0.77,0.92,2.0
1758078471.14789,1758078471.1544,0.0,0.0,0.0,-0.45837,26.75713,2.57831,10.01,-0.58,0.87,2.0
1758078471.16414,1758078471.1644,0.0,0.0,0.0,0.17189,24.75178,2.97938,9.77,-0.44,0.75,2.0
1758078471.16507,1758078471.1744,0.0,0.0,0.0,0.34377,21.7151,3.03668,9.77,-0.44,0.75,2.0
1758078471.18218,1758078471.1844,0.0,0.0,0.0,0.22918,18.44924,2.57831,9.24,-0.33,0.61,2.0
1758078471.18309,1758078471.1944,0.0,0.0,0.0,0.22918,16.21471,2.29183,9.24,-0.33,0.61,2.0
1758078471.19814,1758078471.2044,0.0,0.0,0.0,0.68755,13.00614,1.43239,9.22,-0.29,0.74,2.0
1758078471.21493,1758078471.2144,0.0,0.0,0.0,1.60428,9.96947,1.20321,9.22,-0.29,0.74,2.0
1758078471.21585,1758078471.2244,0.0,0.0,0.0,2.97938,8.30789,1.66158,9.23,-0.38,0.78,2.0
1758078471.23097,1758078471.2344,0.0,0.0,0.0,4.64096,6.7609,2.63561,9.23,-0.38,0.78,2.0
1758078471.23284,1758078471.2444,0.0,0.0,0.0,7.62034,3.03668,4.23989,9.44,-0.56,0.69,2.0
1758078471.24817,1758078471.2544,0.0,0.0,0.0,9.39651,1.77617,5.15662,9.37,-0.74,0.45,2.0
1758078471.26417,1758078471.2644,0.0,0.0,0.0,10.94349,1.77617,5.78687,9.37,-0.74,0.45,2.0
1758078471.26588,1758078471.2744,0.0,0.0,0.0,12.43318,1.71887,5.72958,9.55,-0.73,0.47,2.0
1758078471.28119,1758078471.2844,0.0,0.0,0.0,12.83425,1.3751,5.15662,9.55,-0.73,0.47,2.0
1758078471.28213,1758078471.2944,0.0,0.0,0.0,12.83425,1.3751,4.0107,9.53,-0.49,0.39,2.0
1758078471.29723,1758078471.3044,0.0,0.0,0.0,12.60507,1.43239,2.86479,9.53,-0.49,0.39,2.0
1758078471.31319,1758078471.3144,0.0,0.0,0.0,12.204,1.48969,0.97403,9.58,-0.3,0.25,2.0
1758078471.31487,1758078471.3244,0.0,0.0,0.0,12.60507,2.40642,0.17189,9.56,-0.38,0.26,2.0
1758078471.32991,1758078471.3344,0.0,0.0,0.0,13.00614,4.87014,-0.45837,9.56,-0.38,0.26,2.0
1758078471.33152,1758078471.3444,0.0,0.0,0.0,13.5791,8.70896,-1.03132,9.79,-0.51,0.26,2.0
1758078471.347,1758078471.3544,0.0,0.0,0.0,14.83961,14.32395,-1.43239,9.79,-0.51,0.26,2.0
1758078471.36293,1758078471.3644,0.0,0.0,0.0,15.64175,17.01685,-1.48969,9.74,-0.57,0.36,2.0
1758078471.36469,1758078471.3744,0.0,0.0,0.0,16.55848,19.76705,-1.3751,9.74,-0.57,0.36,2.0
1758078471.37896,1758078471.3844,0.0,0.0,0.0,17.53251,22.05888,-1.20321,9.62,-0.53,0.33,2.0
1758078471.39494,1758078471.3944,0.0,0.0,0.0,18.90761,23.0902,-0.74485,9.48,-0.38,0.36,2.0
1758078471.39607,1758078471.4044,0.0,0.0,0.0,19.82434,22.11617,-0.22918,9.48,-0.38,0.36,2.0
1758078471.41131,1758078471.4144,0.0,0.0,0.0,20.62648,20.45459,0.11459,9.49,-0.22,0.22,2.0
1758078471.4121,1758078471.4244,0.0,0.0,0.0,21.37133,18.9649,0.74485,9.49,-0.22,0.22,2.0
1758078471.42699,1758078471.4344,0.0,0.0,0.0,22.40265,15.24068,1.03132,9.75,-0.18,0.25,2.0
1758078471.44318,1758078471.4444,0.0,0.0,0.0,23.60586,12.37589,1.43239,9.75,-0.18,0.25,2.0
1758078471.44447,1758078471.4544,0.0,0.0,0.0,24.86637,9.68299,2.06265,9.79,-0.31,0.33,2.0
1758078471.45891,1758078471.4644,0.0,0.0,0.0,27.33009,6.13065,3.55234,9.79,-0.31,0.33,2.0
1758078471.46166,1758078471.4744,0.0,0.0,0.0,29.27814,-0.68755,4.46907,9.64,-0.56,0.37,2.0
1758078471.47869,1758078471.4844,0.0,0.0,0.0,31.79916,-5.21392,5.78687,9.41,-0.81,0.19,2.0
1758078471.49579,1758078471.4944,0.0,0.0,0.0,34.32018,-9.5684,6.58902,9.41,-0.81,0.19,2.0
1758078471.49718,1758078471.5044,0.0,0.0,0.0,39.4195,-14.78231,7.33386,9.44,-0.94,0.06,2.0
1758078471.51219,1758078471.51439,0.0,0.0,0.0,42.62806,-18.73572,8.30789,9.44,-0.94,0.06,2.0
1758078471.51341,1758078471.52439,0.0,0.0,0.0,44.57612,-23.37668,8.59437,9.47,-0.99,-0.16,2.0
1758078471.52823,1758078471.53439,0.0,0.0,0.0,45.89392,-26.12688,8.59437,9.47,-0.99,-0.16,2.0
1758078471.54416,1758078471.54439,0.0,0.0,0.0,48.58683,-21.14215,6.18794,9.66,-0.91,-0.18,2.0
1758078471.54623,1758078471.55439,0.0,0.0,0.0,49.84733,-11.74564,5.61499,10.48,-0.74,-0.3,2.0
1758078471.56116,1758078471.56439,0.0,0.0,0.0,50.3057,-1.08862,4.0107,10.48,-0.74,-0.3,2.0
1758078471.56215,1758078471.57439,0.0,0.0,0.0,51.6235,10.65701,2.97938,10.97,-0.52,0.15,2.0
1758078471.57717,1758078471.58439,0.0,0.0,0.0,54.94666,12.14671,1.3178,10.97,-0.52,0.15,2.0
1758078471.59399,1758078471.59439,0.0,0.0,0.0,56.32175,-8.99544,0.22918,9.36,-0.44,0.33,2.0
1758078471.59497,1758078471.60439,0.0,0.0,0.0,59.75951,-25.8404,2.97938,9.36,-0.44,0.33,2.0
1758078471.61026,1758078471.61439,0.0,0.0,0.0,63.13995,-34.09099,7.96411,9.4,-0.51,-0.46,2.0
1758078471.61117,1758078471.62439,0.0,0.0,0.0,63.48372,-28.476,13.75099,13.18,0.0,-0.05,2.0
1758078471.62694,1758078471.63439,0.0,0.0,0.0,62.28051,-28.24682,18.16276,13.18,0.0,-0.05,2.0
1758078471.64295,1758078471.64439,0.0,0.0,0.0,58.90006,-30.53865,23.0902,14.48,1.4,2.3,2.0
1758078471.64423,1758078471.65439,0.0,0.0,0.0,53.91533,-29.9084,30.36677,14.48,1.4,2.3,2.0
1758078471.65898,1758078471.66439,0.0,0.0,0.0,43.02913,-20.79837,31.2262,15.12,2.07,2.76,2.0
1758078471.67498,1758078471.67439,0.0,0.0,0.0,35.06502,-14.43854,28.01764,15.12,2.07,2.76,2.0
1758078471.67694,1758078471.68439,0.0,0.0,0.0,27.61657,-11.22997,21.14215,12.18,0.9,1.04,2.0
1758078471.69198,1758078471.69439,0.0,0.0,0.0,19.70975,-8.70896,7.50575,12.18,0.9,1.04,2.0
1758078471.69374,1758078471.70439,0.0,0.0,0.0,17.36062,-8.30789,-0.97403,8.89,-0.25,0.39,2.0
1758078471.7116,1758078471.71439,0.0,0.0,0.0,17.58981,-8.65166,-7.50575,8.1,-0.29,0.2,2.0
1758078471.71281,1758078471.72439,0.0,0.0,0.0,20.05352,-10.59972,-10.31324,8.1,-0.29,0.2,2.0
1758078471.72909,1758078471.73439,0.0,0.0,0.0,25.55392,-11.74564,-8.30789,9.0,0.26,1.17,2.0
1758078471.73323,1758078471.74439,0.0,0.0,0.0,28.93437,-10.08406,-3.72423,9.0,0.26,1.17,2.0
1758078471.75006,1758078471.75439,0.0,0.0,0.0,31.39809,-8.88085,1.66158,10.51,0.57,1.94,2.0
1758078471.75172,1758078471.76439,0.0,0.0,0.0,33.63263,-8.47978,7.16197,10.51,0.57,1.94,2.0
1758078471.76726,1758078471.77439,0.0,0.0,0.0,36.15364,-8.30789,12.83425,9.96,0.28,2.1,2.0
1758078471.78384,1758078471.78439,0.0,0.0,0.0,37.52874,-8.30789,14.9542,8.89,0.19,1.8,2.0
1758078471.78536,1758078471.79439,0.0,0.0,0.0,38.61736,-6.87549,15.24068,8.89,0.19,1.8,2.0
1758078471.80199,1758078471.80439,0.0,0.0,0.0,38.84654,-4.46907,14.66772,8.93,0.69,1.73,2.0
1758078471.80282,1758078471.81439,0.0,0.0,0.0,37.64333,1.20321,11.86023,8.93,0.69,1.73,2.0
1758078471.81892,1758078471.82439,0.0,0.0,0.0,36.26823,5.21392,9.4538,9.42,1.1,1.94,2.0
1758078471.82197,1758078471.83439,0.0,0.0,0.0,34.32018,9.4538,7.21927,9.42,1.1,1.94,2.0
1758078471.83733,1758078471.84439,0.0,0.0,0.0,31.85646,13.86558,5.15662,9.89,1.04,1.8,2.0
1758078471.85494,1758078471.85439,0.0,0.0,0.0,27.61657,20.3973,2.57831,10.46,0.89,1.51,2.0
1758078471.85602,1758078471.86439,0.0,0.0,0.0,24.63719,25.09555,1.3178,10.46,0.89,1.51,2.0
1758078471.87106,1758078471.87439,0.0,0.0,0.0,21.48592,29.8511,-0.0573,10.77,1.01,1.27,2.0
1758078471.87224,1758078471.88439,0.0,0.0,0.0,17.87628,32.20023,-2.23454,10.77,1.01,1.27,2.0
1758078471.88728,1758078471.89439,0.0,0.0,0.0,16.84496,33.00237,-3.20856,10.32,1.1,1.1,2.0
1758078471.89188,1758078471.90439,0.0,0.0,0.0,16.21471,33.23156,-4.23989,10.32,1.1,1.1,2.0
1758078471.90705,1758078471.91439,0.0,0.0,0.0,16.10011,32.83048,-4.81285,10.11,0.9,0.99,2.0
1758078471.92308,1758078471.92439,0.0,0.0,0.0,16.50119,32.54401,-4.69825,10.11,0.9,0.99,2.0
1758078471.92469,1758078471.93439,0.0,0.0,0.0,16.90226,31.62727,-4.46907,9.9,0.7,1.02,2.0
1758078471.93905,1758078471.94439,0.0,0.0,0.0,17.01685,30.48136,-3.95341,9.69,0.53,1.18,2.0
1758078471.95507,1758078471.95439,0.0,0.0,0.0,17.13144,28.13223,-3.89611,9.69,0.53,1.18,2.0
1758078471.95707,1758078471.96439,0.0,0.0,0.0,17.01685,22.23076,-3.49504,9.45,0.43,1.18,2.0
1758078471.97232,1758078471.97439,0.0,0.0,0.0,16.90226,16.73037,-3.55234,9.45,0.43,1.18,2.0
1758078471.97413,1758078471.98439,0.0,0.0,0.0,16.95955,10.59972,-2.97938,9.11,0.43,0.98,2.0
1758078471.99014,1758078471.99439,0.0,0.0,0.0,16.95955,5.4431,-2.86479,9.11,0.43,0.98,2.0
1758078471.99258,1758078472.00439,0.0,0.0,0.0,15.46986,0.40107,-3.03668,9.07,0.58,0.79,2.0
1758078472.00886,1758078472.01439,0.0,0.0,0.0,14.09476,-3.09397,-3.38045,8.98,0.88,0.83,2.0
1758078472.01244,1758078472.02439,0.0,0.0,0.0,12.49048,-7.21927,-4.29718,8.98,0.88,0.83,2.0
1758078472.02884,1758078472.03439,0.0,0.0,0.0,10.8862,-10.54242,-4.87014,8.74,1.14,0.76,2.0
1758078472.04696,1758078472.04439,0.0,0.0,0.0,8.36518,-13.17803,-5.78687,8.74,1.14,0.76,2.0
1758078472.05219,1758078472.05439,0.0,0.0,0.0,6.7609,-13.5218,-6.13065,8.91,1.24,0.7,2.0
1758078472.05258,1758078472.06439,0.0,0.0,0.0,5.61499,-12.54778,-5.72958,8.91,1.24,0.7,2.0
1758078472.06918,1758078472.07439,0.0,0.0,0.0,4.87014,-11.00079,-4.29718,9.19,1.13,0.65,2.0
1758078472.08614,1758078472.08439,0.0,0.0,0.0,4.35448,-6.07335,-2.86479,9.39,0.85,0.54,2.0
1758078472.08711,1758078472.09439,0.0,0.0,0.0,4.46907,-1.43239,-1.3751,9.39,0.85,0.54,2.0
1758078472.10235,1758078472.10439,0.0,0.0,0.0,4.1253,3.83882,0.17189,9.66,0.62,0.53,2.0
1758078472.10354,1758078472.11439,0.0,0.0,0.0,3.55234,12.204,2.06265,9.66,0.62,0.53,2.0
1758078472.11888,1758078472.12439,0.0,0.0,0.0,2.86479,17.76169,3.03668,9.86,0.56,0.55,2.0
1758078472.137,1758078472.13439,0.0,0.0,0.0,1.71887,22.57454,3.83882,9.86,0.56,0.55,2.0
1758078472.13899,1758078472.14439,0.0,0.0,0.0,0.34377,26.01229,4.35448,9.92,0.66,0.58,2.0
1758078472.1549,1758078472.15439,0.0,0.0,0.0,-2.29183,28.59059,4.46907,9.69,0.66,0.54,2.0
1758078472.15694,1758078472.16439,0.0,0.0,0.0,-3.95341,28.13223,4.29718,9.69,0.76,0.54,2.0
1758078472.17212,1758078472.17439,0.0,0.0,0.0,-5.50039,26.35606,3.89611,9.47,0.76,0.57,2.0
1758078472.17681,1758078472.18439,0.0,0.0,0.0,-6.7609,24.00693,3.49504,9.47,0.76,0.57,2.0
1758078472.19213,1758078472.19439,0.0,0.0,0.0,-8.0787,20.11082,2.86479,9.53,0.75,0.62,2.0
1758078472.19451,1758078472.20439,0.0,0.0,0.0,-8.88085,16.95955,2.23454,9.53,0.75,0.62,2.0
1758078472.20996,1758078472.21439,0.0,0.0,0.0,-9.68299,11.57375,1.71887,9.54,0.72,0.71,2.0
1758078472.21351,1758078472.22439,0.0,0.0,0.0,-11.11538,3.89611,1.08862,9.54,0.72,0.71,2.0
1758078472.23072,1758078472.23439,0.0,0.0,0.0,-14.43854,-8.136,-0.34377,9.16,0.78,0.55,2.0
1758078472.23351,1758078472.24439,0.0,0.0,0.0,-18.16276,-14.83961,-1.66158,9.12,1.08,0.21,2.0
1758078472.24942,1758078472.25439,0.0,0.0,0.0,-22.74642,-20.34,-2.86479,9.12,1.08,0.21,2.0
1758078472.25116,1758078472.26439,0.0,0.0,0.0,-28.41871,-24.12152,-4.0107,9.17,1.69,-0.04,2.0
1758078472.26718,1758078472.27439,0.0,0.0,0.0,-37.58603,-28.01764,-5.4431,9.17,1.69,-0.04,2.0
1758078472.28496,1758078472.28439,0.0,0.0,0.0,-43.20102,-31.45539,-5.55769,9.41,2.19,-0.12,2.0
1758078472.28618,1758078472.29439,0.0,0.0,0.0,-48.64412,-35.86716,-4.69825,9.41,2.19,-0.12,2.0
1758078472.30141,1758078472.30439,0.0,0.0,0.0,-55.34772,-42.51347,-2.11994,9.47,2.03,-0.68,2.0
1758078472.30238,1758078472.31439,0.0,0.0,0.0,-58.72818,-43.14373,-0.11459,10.2,1.32,-0.9,2.0
1758078472.31745,1758078472.32439,0.0,0.0,0.0,-60.10328,-41.59674,1.14592,10.2,1.32,-0.9,2.0
1758078472.33599,1758078472.33439,0.0,0.0,0.0,-59.81679,-38.84654,2.63561,11.84,0.46,0.0,2.0
1758078472.3373,1758078472.34439,0.0,0.0,0.0,-54.3737,-30.19488,-0.85944,11.84,0.46,0.0,2.0
1758078472.35245,1758078472.35439,0.0,0.0,0.0,-48.07116,-20.68378,-5.21392,14.34,-0.94,1.73,2.0
1758078472.35455,1758078472.36439,0.0,0.0,0.0,-39.64868,-12.2613,-9.91217,14.34,-0.94,1.73,2.0
1758078472.37092,1758078472.37439,0.0,0.0,0.0,-28.13223,-35.98175,-15.58445,15.74,-2.3,3.29,2.0
1758078472.37194,1758078472.38439,0.0,0.0,0.0,-19.53786,-70.58841,-24.86637,11.69,-1.86,1.77,2.0
1758078472.38719,1758078472.39439,0.0,0.0,0.0,-17.99088,-70.93218,-29.67921,11.69,-1.86,1.77,2.0
1758078472.40519,1758078472.40439,0.0,0.0,0.0,-17.47521,-58.90006,-28.87707,12.19,0.41,0.2,2.0
1758078472.4064,1758078472.41439,0.0,0.0,0.0,-17.18874,-45.89392,-22.74642,12.19,0.41,0.2,2.0
1758078472.4213,1758078472.42439,0.0,0.0,0.0,-16.84496,-32.20023,-9.96947,10.58,1.73,1.02,2.0
1758078472.42239,1758078472.43439,0.0,0.0,0.0,-18.22006,-27.44468,-1.83346,10.58,1.73,1.02,2.0
1758078472.43734,1758078472.44439,0.0,0.0,0.0,-20.68378,-26.24147,4.64096,8.73,1.3,1.61,2.0
1758078472.4535,1758078472.45439,0.0,0.0,0.0,-24.23611,-26.81443,8.136,8.73,1.3,1.61,2.0
1758078472.45442,1758078472.46439,0.0,0.0,0.0,-29.67921,-24.29341,7.73493,8.2,0.11,1.24,2.0
1758078472.47125,1758078472.47439,0.0,0.0,0.0,-31.79916,-19.25138,4.1253,10.2,-0.62,2.26,2.0
1758078472.47277,1758078472.48439,0.0,0.0,0.0,-32.54401,-13.75099,-1.14592,10.2,-0.62,2.26,2.0
1758078472.48723,1758078472.49439,0.0,0.0,0.0,-31.74186,-11.34457,-10.54242,11.22,-0.78,2.33,2.0
1758078472.50325,1758078472.50439,0.0,0.0,0.0,-30.65324,-6.99009,-16.21471,11.22,-0.78,2.33,2.0
1758078472.50683,1758078472.51439,0.0,0.0,0.0,-28.93437,-2.34913,-19.42327,10.44,-0.48,1.64,2.0
1758078472.52258,1758078472.52439,0.0,0.0,0.0,-26.81443,2.40642,-20.45459,10.44,-0.48,1.64,2.0
1758078472.52501,1758078472.53439,0.0,0.0,0.0,-23.26209,8.136,-17.53251,9.67,-0.24,1.23,2.0
1758078472.54056,1758078472.54439,0.0,0.0,0.0,-20.16812,13.46451,-13.23533,9.57,-0.56,1.35,2.0
1758078472.54143,1758078472.55439,0.0,0.0,0.0,-17.13144,18.33465,-8.25059,9.57,-0.56,1.35,2.0
1758078472.55751,1758078472.56439,0.0,0.0,0.0,-13.86558,22.57454,-3.32316,9.89,-1.09,1.23,2.0
1758078472.57328,1758078472.57439,0.0,0.0,0.0,-8.88085,27.67386,2.63561,9.89,-1.09,1.23,2.0
1758078472.57606,1758078472.58439,0.0,0.0,0.0,-5.78687,29.96569,4.58366,9.9,-1.46,0.98,2.0
1758078472.59203,1758078472.59439,0.0,0.0,0.0,-3.38045,31.39809,5.21392,9.9,-1.46,0.98,2.0
1758078472.59332,1758078472.60439,0.0,0.0,0.0,-1.60428,32.88778,4.81285,9.92,-1.38,0.81,2.0
1758078472.60825,1758078472.61439,0.0,0.0,0.0,-0.0573,34.14828,3.72423,10.25,-0.83,0.84,2.0
1758078472.62451,1758078472.62439,0.0,0.0,0.0,0.51566,32.54401,2.92208,10.25,-0.83,0.84,2.0
1758078472.62703,1758078472.63439,0.0,0.0,0.0,0.80214,30.13758,2.00535,9.91,-0.35,0.67,2.0
1758078472.64229,1758078472.64439,0.0,0.0,0.0,0.85944,27.78845,0.97403,9.91,-0.35,0.67,2.0
1758078472.64348,1758078472.65439,0.0,0.0,0.0,1.14592,24.23611,-0.17189,9.52,-0.19,0.53,2.0
1758078472.65826,1758078472.66439,0.0,0.0,0.0,1.77617,22.00158,-0.57296,9.52,-0.19,0.53,2.0
1758078472.67551,1758078472.67439,0.0,0.0,0.0,2.46372,18.85031,-0.80214,9.2,-0.22,0.57,2.0
1758078472.67648,1758078472.68439,0.0,0.0,0.0,3.03668,15.24068,-0.80214,9.2,-0.22,0.57,2.0
1758078472.69129,1758078472.69439,0.0,0.0,0.0,3.89611,10.19865,-0.68755,9.03,-0.33,0.58,2.0
1758078472.6925,1758078472.70439,0.0,0.0,0.0,4.69825,6.87549,-0.80214,9.15,-0.45,0.57,2.0
1758078472.70731,1758078472.71439,0.0,0.0,0.0,5.55769,4.18259,-0.74485,9.15,-0.45,0.57,2.0
1758078472.72334,1758078472.72439,0.0,0.0,0.0,7.44845,1.71887,-0.11459,9.32,-0.54,0.56,2.0
1758078472.7248,1758078472.73439,0.0,0.0,0.0,9.05273,-0.45837,0.68755,9.32,-0.54,0.56,2.0
1758078472.73956,1758078472.74439,0.0,0.0,0.0,10.54242,-2.57831,1.83346,9.21,-0.63,0.4,2.0
1758078472.74209,1758078472.75439,0.0,0.0,0.0,11.97482,-2.29183,3.03668,9.21,-0.63,0.4,2.0
1758078472.7583,1758078472.76439,0.0,0.0,0.0,13.12073,-1.48969,3.60963,9.43,-0.65,0.17,2.0
1758078472.77423,1758078472.77439,0.0,0.0,0.0,13.40721,-2.40642,3.20856,9.22,-0.51,0.09,2.0
1758078472.77625,1758078472.78439,0.0,0.0,0.0,13.69369,-2.23454,2.57831,9.22,-0.51,0.09,2.0
1758078472.79128,1758078472.79439,0.0,0.0,0.0,13.40721,-0.45837,1.3178,9.28,-0.33,-0.01,2.0
1758078472.7925,1758078472.80439,0.0,0.0,0.0,12.71966,4.23989,-0.45837,9.28,-0.33,-0.01,2.0
1758078472.80731,1758078472.81439,0.0,0.0,0.0,11.97482,7.79223,-1.48969,9.47,-0.15,0.01,2.0
1758078472.82354,1758078472.82439,0.0,0.0,0.0,11.86023,10.94349,-2.34913,9.47,-0.15,0.01,2.0
1758078472.82609,1758078472.83439,0.0,0.0,0.0,11.51645,13.98017,-3.20856,9.57,-0.08,0.03,2.0
1758078472.8413,1758078472.84439,0.0,0.0,0.0,11.57375,16.38659,-3.95341,9.43,-0.09,0.01,2.0
1758078472.84253,1758078472.85439,0.0,0.0,0.0,11.57375,17.36062,-4.35448,9.43,-0.09,0.01,2.0
1758078472.85733,1758078472.86439,0.0,0.0,0.0,11.80293,17.99088,-4.29718,9.39,-0.14,0.03,2.0
1758078472.8746,1758078472.87439,0.0,0.0,0.0,12.2613,17.58981,-3.89611,9.39,-0.14,0.03,2.0
1758078472.87555,1758078472.88439,0.0,0.0,0.0,12.37589,15.64175,-3.38045,9.36,-0.11,0.06,2.0
1758078472.89062,1758078472.89439,0.0,0.0,0.0,11.91752,14.32395,-3.32316,9.36,-0.11,0.06,2.0
1758078472.8915,1758078472.90439,0.0,0.0,0.0,11.57375,13.12073,-3.32316,9.4,-0.04,0.22,2.0
1758078472.90731,1758078472.91439,0.0,0.0,0.0,10.71431,10.65701,-3.83882,9.4,-0.04,0.22,2.0
1758078472.92637,1758078472.92439,0.0,0.0,0.0,10.54242,5.4431,-4.35448,9.35,0.01,0.31,2.0
1758078472.92733,1758078472.93439,0.0,0.0,0.0,11.51645,2.46372,-4.46907,9.52,-0.02,0.27,2.0
1758078472.94256,1758078472.94439,0.0,0.0,0.0,13.69369,0.0573,-3.83882,9.52,-0.02,0.27,2.0
1758078472.94356,1758078472.95439,0.0,0.0,0.0,17.99088,-7.10468,-2.06265,9.68,-0.35,0.14,2.0
1758078472.95835,1758078472.96439,0.0,0.0,0.0,21.7151,-11.74564,-0.57296,9.68,-0.35,0.14,2.0
1758078472.97538,1758078472.97439,0.0,0.0,0.0,26.01229,-15.46986,0.74485,9.48,-0.8,-0.25,2.0
1758078472.97665,1758078472.98439,0.0,0.0,0.0,30.19488,-18.10547,2.06265,9.48,-0.8,-0.25,2.0
1758078472.9914,1758078472.99439,0.0,0.0,0.0,36.32552,-20.22541,4.35448,9.63,-1.13,-0.56,2.0
1758078472.99257,1758078473.00439,0.0,0.0,0.0,40.10705,-19.99623,5.32851,10.12,-1.17,-0.73,2.0
1758078473.00738,1758078473.01439,0.0,0.0,0.0,43.20102,-20.34,6.07335,10.12,-1.17,-0.73,2.0
1758078473.02339,1758078473.02439,0.0,0.0,0.0,45.26366,-21.94428,6.41713,10.5,-0.94,-1.03,2.0
1758078473.02464,1758078473.03439,0.0,0.0,0.0,46.52417,-22.11617,5.27121,10.5,-0.94,-1.03,2.0
1758078473.03937,1758078473.04439,0.0,0.0,0.0,46.35228,-19.42327,4.52637,11.41,-0.35,-0.83,2.0
1758078473.04134,1758078473.05439,0.0,0.0,0.0,44.28964,-17.01685,4.0107,11.41,-0.35,-0.83,2.0
1758078473.05764,1758078473.06439,0.0,0.0,0.0,40.85189,-14.61043,5.72958,13.19,0.71,0.68,2.0
1758078473.07371,1758078473.07439,0.0,0.0,0.0,31.56997,-9.85487,10.71431,15.61,2.42,2.81,2.0
1758078473.07619,1758078473.08439,0.0,0.0,0.0,23.89234,-3.03668,13.69369,15.61,2.42,2.81,2.0
1758078473.09139,1758078473.09439,0.0,0.0,0.0,18.22006,-12.43318,16.10011,14.66,2.92,2.86,2.0
1758078473.09264,1758078473.10439,0.0,0.0,0.0,12.49048,-33.23156,15.12609,14.66,2.92,2.86,2.0
1758078473.1074,1758078473.11439,0.0,0.0,0.0,13.40721,-58.78547,14.61043,8.68,0.27,0.94,2.0
1758078473.12441,1758078473.12439,0.0,0.0,0.0,14.43854,-55.11855,13.06344,8.68,0.27,0.94,2.0
1758078473.12591,1758078473.13439,0.0,0.0,0.0,15.75634,-43.88857,8.136,9.52,-1.66,0.07,2.0
1758078473.14072,1758078473.14439,0.0,0.0,0.0,19.36597,-40.33623,3.89611,9.52,-1.66,0.07,2.0
1758078473.14159,1758078473.15439,0.0,0.0,0.0,21.88699,-42.34158,1.83346,8.62,-1.66,1.67,2.0
1758078473.15774,1758078473.16439,0.0,0.0,0.0,23.0329,-41.88322,0.57296,8.4,-0.4,2.85,2.0
1758078473.17442,1758078473.17439,0.0,0.0,0.0,22.57454,-38.38818,0.45837,8.4,-0.4,2.85,2.0
1758078473.17725,1758078473.18439,0.0,0.0,0.0,19.13679,-28.64789,2.06265,9.89,1.67,2.22,2.0
1758078473.19272,1758078473.19439,0.0,0.0,0.0,15.92823,-21.7151,3.95341,9.89,1.67,2.22,2.0
1758078473.19444,1758078473.20439,0.0,0.0,0.0,12.60507,-15.0115,5.78687,10.54,2.83,1.88,2.0
1758078473.20967,1758078473.21439,0.0,0.0,0.0,10.08406,-8.59437,7.10468,10.54,2.83,1.88,2.0
1758078473.21144,1758078473.22439,0.0,0.0,0.0,7.21927,2.57831,8.02141,10.14,2.19,1.28,2.0
1758078473.22745,1758078473.23439,0.0,0.0,0.0,5.90147,10.8862,7.62034,10.24,0.89,1.28,2.0
1758078473.24469,1758078473.24439,0.0,0.0,0.0,4.58366,19.82434,6.47442,10.24,0.89,1.28,2.0
1758078473.24681,1758078473.25439,0.0,0.0,0.0,3.20856,28.476,4.23989,10.85,0.11,1.54,2.0
1758078473.26254,1758078473.26439,0.0,0.0,0.0,0.57296,37.87251,-0.34377,10.85,0.11,1.54,2.0
1758078473.26533,1758078473.27439,0.0,0.0,0.0,-0.51566,37.92981,-2.86479,10.75,0.24,1.55,2.0
1758078473.2815,1758078473.28439,0.0,0.0,0.0,-1.48969,37.01308,-4.69825,10.75,0.24,1.55,2.0
1758078473.28243,1758078473.29439,0.0,0.0,0.0,-2.63561,36.84119,-5.95876,10.41,0.76,1.2,2.0
1758078473.29768,1758078473.30439,0.0,0.0,0.0,-4.18259,35.92446,-6.41713,10.37,1.17,0.89,2.0
1758078473.31474,1758078473.31439,0.0,0.0,0.0,-5.15662,34.60666,-6.24524,10.37,1.17,0.89,2.0
1758078473.31762,1758078473.32439,0.0,0.0,0.0,-5.95876,33.51803,-5.55769,9.9,1.25,0.93,2.0
1758078473.33283,1758078473.33439,0.0,0.0,0.0,-7.50575,32.42941,-4.87014,9.9,1.25,0.93,2.0
1758078473.33641,1758078473.34439,0.0,0.0,0.0,-8.59437,31.79916,-4.69825,9.64,1.04,0.99,2.0
1758078473.35171,1758078473.35439,0.0,0.0,0.0,-9.62569,31.51268,-5.15662,9.64,1.04,0.99,2.0
1758078473.35262,1758078473.36439,0.0,0.0,0.0,-10.59972,31.11161,-5.78687,9.5,0.81,1.18,2.0
1758078473.36745,1758078473.37439,0.0,0.0,0.0,-12.08941,31.56997,-7.10468,9.5,0.81,1.18,2.0
1758078473.37264,1758078473.38439,0.0,0.0,0.0,-12.89155,31.74186,-7.96411,9.46,0.72,1.33,2.0
1758078473.38777,1758078473.39439,0.0,0.0,0.0,-13.12073,29.27814,-8.25059,9.23,0.73,1.33,2.0
1758078473.39507,1758078473.40439,0.0,0.0,0.0,-13.5791,27.67386,-8.70896,9.23,0.73,1.33,2.0
1758078473.41073,1758078473.41439,0.0,0.0,0.0,-13.46451,27.10091,-7.96411,9.23,0.74,1.1,2.0
1758078473.41192,1758078473.42439,0.0,0.0,0.0,-13.5218,26.12688,-7.04738,9.23,0.74,1.1,2.0
1758078473.42745,1758078473.43439,0.0,0.0,0.0,-13.69369,24.35071,-6.24524,9.32,0.72,1.16,2.0
1758078473.44459,1758078473.44439,0.0,0.0,0.0,-14.20935,21.14215,-5.61499,9.32,0.72,1.16,2.0
1758078473.44653,1758078473.45439,0.0,0.0,0.0,-15.87093,16.04282,-5.55769,9.21,0.7,1.18,2.0
1758078473.46179,1758078473.46439,0.0,0.0,0.0,-17.18874,13.80828,-5.95876,9.25,0.75,1.01,2.0
1758078473.46461,1758078473.47439,0.0,0.0,0.0,-18.44924,12.08941,-6.35983,9.25,0.75,1.01,2.0
1758078473.48137,1758078473.48439,0.0,0.0,0.0,-19.42327,9.4538,-7.04738,9.18,0.81,1.01,2.0
1758078473.48228,1758078473.49439,0.0,0.0,0.0,-20.05352,4.29718,-7.50575,9.18,0.81,1.01,2.0
1758078473.49772,1758078473.50439,0.0,0.0,0.0,-19.88164,2.63561,-7.10468,9.12,0.76,0.86,2.0
1758078473.51551,1758078473.51439,0.0,0.0,0.0,-19.59516,1.03132,-6.41713,9.12,0.76,0.86,2.0
1758078473.51671,1758078473.52439,0.0,0.0,0.0,-18.79302,-0.74485,-5.4431,9.37,0.57,0.81,2.0
1758078473.53178,1758078473.53439,0.0,0.0,0.0,-18.16276,-1.20321,-4.52637,9.59,0.32,0.72,2.0
1758078473.53298,1758078473.54439,0.0,0.0,0.0,-17.81899,0.0573,-3.72423,9.59,0.32,0.72,2.0
1758078473.54772,1758078473.55439,0.0,0.0,0.0,-17.36062,2.23454,-2.86479,9.78,0.17,0.75,2.0
1758078473.56482,1758078473.56439,0.0,0.0,0.0,-17.30333,5.4431,-1.48969,9.78,0.17,0.75,2.0
1758078473.56653,1758078473.57439,0.0,0.0,0.0,-17.53251,8.136,-1.08862,9.73,0.21,0.77,2.0
1758078473.58213,1758078473.58439,0.0,0.0,0.0,-17.81899,10.59972,-0.68755,9.73,0.21,0.77,2.0
1758078473.58276,1758078473.59439,0.0,0.0,0.0,-18.27736,12.89155,-0.68755,9.8,0.35,0.76,2.0
1758078473.59775,1758078473.60439,0.0,0.0,0.0,-19.07949,16.90226,-0.68755,9.98,0.35,0.71,2.0
1758078473.61374,1758078473.61439,0.0,0.0,0.0,-19.76705,19.07949,-0.80214,9.98,0.54,0.71,2.0
1758078473.6158,1758078473.62439,0.0,0.0,0.0,-20.51189,20.51189,-1.3178,9.92,0.65,0.74,2.0
1758078473.63086,1758078473.63439,0.0,0.0,0.0,-21.14215,20.3973,-1.77617,9.92,0.65,0.74,2.0
1758078473.63172,1758078473.64439,0.0,0.0,0.0,-21.94428,17.36062,-2.29183,9.62,0.59,0.88,2.0
1758078473.64781,1758078473.65439,0.0,0.0,0.0,-22.57454,13.12073,-2.57831,9.62,0.59,0.88,2.0
1758078473.66354,1758078473.66439,0.0,0.0,0.0,-23.20479,6.87549,-3.09397,9.37,0.48,0.94,2.0
1758078473.66474,1758078473.67439,0.0,0.0,0.0,-24.12152,-0.51566,-4.0107,9.37,0.48,0.94,2.0
1758078473.68141,1758078473.68439,0.0,0.0,0.0,-26.24147,-11.22997,-5.32851,9.19,0.52,0.8,2.0
1758078473.68228,1758078473.69439,0.0,0.0,0.0,-27.73116,-17.01685,-6.70361,9.31,0.84,0.58,2.0
1758078473.69955,1758078473.70439,0.0,0.0,0.0,-29.50733,-22.34536,-8.02141,9.31,0.84,0.58,2.0
1758078473.70152,1758078473.71439,0.0,0.0,0.0,-31.28349,-26.01229,-9.5684,9.46,1.21,0.29,2.0
1758078473.71778,1758078473.72439,0.0,0.0,0.0,-34.14828,-30.53865,-11.74564,9.46,1.21,0.29,2.0
1758078473.73436,1758078473.73439,0.0,0.0,0.0,-35.52338,-35.63798,-12.204,9.54,1.43,0.06,2.0
1758078473.736,1758078473.74439,0.0,0.0,0.0,-35.86716,-41.08107,-11.80293,9.54,1.43,0.06,2.0
1758078473.75085,1758078473.75439,0.0,0.0,0.0,-36.89849,-43.4875,-10.02676,9.36,1.23,-0.37,2.0
1758078473.75284,1758078473.76439,0.0,0.0,0.0,-37.52874,-40.45082,-8.42248,9.94,0.84,-0.74,2.0
1758078473.76879,1758078473.77439,0.0,0.0,0.0,-38.1017,-35.3515,-5.15662,9.94,0.84,-0.74,2.0
1758078473.78452,1758078473.78439,0.0,0.0,0.0,-39.76327,-24.5226,-3.32316,10.9,0.76,-0.46,2.0
1758078473.78663,1758078473.79439,0.0,0.0,0.0,-41.36755,-4.92744,2.34913,10.9,0.76,-0.46,2.0
1758078473.80186,1758078473.80439,0.0,0.0,0.0,-41.31026,-6.18794,2.23454,11.48,0.57,0.15,2.0
1758078473.80279,1758078473.81439,0.0,0.0,0.0,-42.57077,-8.42248,1.20321,11.48,0.57,0.15,2.0
1758078473.81785,1758078473.82439,0.0,0.0,0.0,-43.37291,-9.85487,-1.03132,11.19,0.49,0.64,2.0
1758078473.83388,1758078473.83439,0.0,0.0,0.0,-41.94051,-17.6471,-4.58366,11.73,0.08,0.59,2.0
1758078473.83479,1758078473.84439,0.0,0.0,0.0,-40.04975,-24.00693,-7.16197,11.73,0.08,0.59,2.0
1758078473.85062,1758078473.85439,0.0,0.0,0.0,-37.18496,-28.99167,-10.59972,11.96,-0.31,0.85,2.0
1758078473.85192,1758078473.86439,0.0,0.0,0.0,-34.32018,-32.88778,-14.72501,11.96,-0.31,0.85,2.0
1758078473.86785,1758078473.87439,0.0,0.0,0.0,-29.22085,-31.91375,-19.48057,12.63,-0.57,1.46,2.0
1758078473.88465,1758078473.88439,0.0,0.0,0.0,-26.41335,-28.01764,-20.3973,12.63,-0.57,1.46,2.0
1758078473.88561,1758078473.89439,0.0,0.0,0.0,-22.68913,-23.20479,-18.22006,12.08,-0.23,1.67,2.0
1758078473.90083,1758078473.90439,0.0,0.0,0.0,-18.73572,-19.19409,-14.15206,12.08,-0.23,1.67,2.0
1758078473.90177,1758078473.91439,0.0,0.0,0.0,-13.69369,-15.87093,-6.41713,10.27,0.32,1.42,2.0
1758078473.91768,1758078473.92439,0.0,0.0,0.0,-12.37589,-16.67307,-1.71887,8.33,0.52,0.81,2.0
1758078473.93399,1758078473.93439,0.0,0.0,0.0,-12.43318,-17.76169,2.11994,8.33,0.52,0.81,2.0
1758078473.93482,1758078473.94439,0.0,0.0,0.0,-15.98552,-17.58981,4.98473,7.76,0.44,0.47,2.0
1758078473.95044,1758078473.95439,0.0,0.0,0.0,-19.99623,-17.81899,4.46907,7.76,0.44,0.47,2.0
1758078473.95332,1758078473.96439,0.0,0.0,0.0,-24.5226,-18.44924,1.94806,8.63,0.12,1.45,2.0
1758078473.96961,1758078473.97439,0.0,0.0,0.0,-28.70519,-18.73572,-1.94806,8.63,0.12,1.45,2.0
1758078473.97228,1758078473.98439,0.0,0.0,0.0,-32.88778,-19.36597,-8.47978,10.2,-0.22,2.02,2.0
1758078473.98845,1758078473.99439,0.0,0.0,0.0,-34.14828,-19.36597,-12.54778,10.62,-0.25,1.91,2.0
1758078473.99234,1758078474.00439,0.0,0.0,0.0,-34.72124,-18.50654,-15.12609,10.62,-0.25,1.91,2.0
1758078474.00767,1758078474.01439,0.0,0.0,0.0,-34.37747,-16.61578,-16.3293,10.05,-0.09,1.55,2.0
1758078474.02368,1758078474.02439,0.0,0.0,0.0,-32.6013,-13.75099,-15.24068,10.05,-0.09,1.55,2.0
1758078474.02484,1758078474.03439,0.0,0.0,0.0,-30.82513,-10.48513,-13.17803,9.64,-0.21,1.47,2.0
1758078474.03971,1758078474.04439,0.0,0.0,0.0,-28.30412,-6.07335,-10.25595,9.64,-0.21,1.47,2.0
1758078474.04166,1758078474.05439,0.0,0.0,0.0,-25.49662,-1.94806,-6.7609,10.18,-0.54,1.54,2.0
1758078474.05778,1758078474.06439,0.0,0.0,0.0,-21.02755,4.29718,-1.3178,10.72,-0.86,1.31,2.0
1758078474.07372,1758078474.07439,0.0,0.0,0.0,-18.10547,8.59437,1.83346,10.72,-0.86,1.31,2.0
1758078474.07565,1758078474.08439,0.0,0.0,0.0,-15.46986,13.46451,4.29718,11.07,-0.84,0.87,2.0
1758078474.09063,1758078474.09439,0.0,0.0,0.0,-13.5791,18.33465,5.84417,11.07,-0.84,0.87,2.0
1758078474.09263,1758078474.10439,0.0,0.0,0.0,-12.2613,23.31938,6.7609,10.77,-0.55,0.74,2.0
1758078474.10873,1758078474.11439,0.0,0.0,0.0,-12.43318,25.38203,6.53172,10.77,-0.55,0.74,2.0
1758078474.12469,1758078474.12439,0.0,0.0,0.0,-13.06344,26.35606,6.13065,10.22,-0.23,0.79,2.0
1758078474.12541,1758078474.13439,0.0,0.0,0.0,-14.20935,27.04361,5.50039,10.22,-0.23,0.79,2.0
1758078474.14084,1758078474.14439,0.0,0.0,0.0,-16.50119,26.35606,5.21392,10.18,0.12,0.77,2.0
1758078474.14188,1758078474.15439,0.0,0.0,0.0,-18.10547,27.04361,4.92744,10.24,0.36,0.8,2.0
1758078474.15775,1758078474.16439,0.0,0.0,0.0,-19.48057,27.61657,4.29718,10.24,0.36,0.8,2.0
1758078474.17371,1758078474.17439,0.0,0.0,0.0,-21.60051,25.7831,2.6929,9.82,0.44,0.9,2.0
1758078474.17572,1758078474.18439,0.0,0.0,0.0,-22.57454,23.66316,2.11994,9.82,0.44,0.9,2.0
1758078474.19072,1758078474.19439,0.0,0.0,0.0,-23.54857,21.48592,1.71887,9.44,0.32,0.99,2.0
1758078474.1919,1758078474.20439,0.0,0.0,0.0,-24.35071,19.48057,1.66158,9.44,0.32,0.99,2.0
1758078474.20796,1758078474.21439,0.0,0.0,0.0,-25.55392,16.04282,1.71887,9.37,0.1,0.85,2.0
1758078474.22407,1758078474.22439,0.0,0.0,0.0,-25.89769,14.38124,1.77617,9.31,-0.04,0.78,2.0
1758078474.22488,1758078474.23439,0.0,0.0,0.0,-26.41335,12.60507,1.48969,9.31,-0.04,0.78,2.0
1758078474.24002,1758078474.24439,0.0,0.0,0.0,-26.81443,11.11538,1.08862,9.33,-0.11,0.72,2.0
1758078474.24168,1758078474.25439,0.0,0.0,0.0,-27.44468,8.93814,0.11459,9.33,-0.11,0.72,2.0
1758078474.25697,1758078474.26439,0.0,0.0,0.0,-27.50197,8.02141,-0.51566,9.45,-0.22,0.6,2.0
1758078474.27303,1758078474.27439,0.0,0.0,0.0,-27.38738,7.62034,-1.3178,9.45,-0.22,0.6,2.0
1758078474.27464,1758078474.28439,0.0,0.0,0.0,-26.98631,7.04738,-1.77617,9.62,-0.41,0.48,2.0
1758078474.29,1758078474.29439,0.0,0.0,0.0,-25.61122,7.16197,-2.7502,9.54,-0.67,0.35,2.0
1758078474.30686,1758078474.30439,0.0,0.0,0.0,-24.23611,9.62569,-3.09397,9.54,-0.67,0.35,2.0
1758078474.30725,1758078474.31439,0.0,0.0,0.0,-22.86102,13.5218,-3.72423,9.62,-0.82,0.22,2.0
1758078474.323,1758078474.32439,0.0,0.0,0.0,-21.7724,17.18874,-4.46907,9.62,-0.82,0.22,2.0
1758078474.32392,1758078474.33439,0.0,0.0,0.0,-20.22541,20.79837,-5.50039,9.4,-0.76,0.36,2.0
1758078474.33896,1758078474.34439,0.0,0.0,0.0,-19.48057,23.0329,-6.13065,9.4,-0.76,0.36,2.0
1758078474.35555,1758078474.35439,0.0,0.0,0.0,-18.90761,24.29341,-6.7609,9.25,-0.56,0.43,2.0
1758078474.35608,1758078474.36439,0.0,0.0,0.0,-18.16276,24.4653,-7.62034,9.25,-0.56,0.43,2.0
1758078474.37204,1758078474.37439,0.0,0.0,0.0,-17.76169,22.74642,-7.67763,9.11,-0.32,0.5,2.0
1758078474.37408,1758078474.38439,0.0,0.0,0.0,-17.18874,20.62648,-7.73493,9.17,-0.19,0.46,2.0
1758078474.39193,1758078474.39439,0.0,0.0,0.0,-16.04282,17.13144,-7.50575,9.17,-0.19,0.46,2.0
1758078474.39313,1758078474.40439,0.0,0.0,0.0,-14.20935,8.47978,-7.39116,9.06,-0.37,0.32,2.0
1758078474.40874,1758078474.41439,0.0,0.0,0.0,-12.43318,2.23454,-6.7609,9.06,-0.37,0.32,2.0
1758078474.42478,1758078474.42439,0.0,0.0,0.0,-10.25595,-2.86479,-5.78687,9.05,-0.83,0.29,2.0
1758078474.42645,1758078474.43439,0.0,0.0,0.0,-7.84952,-8.25059,-4.69825,9.05,-0.83,0.29,2.0
1758078474.44183,1758078474.44439,0.0,0.0,0.0,-3.38045,-15.06879,-3.09397,9.18,-1.24,0.15,2.0
1758078474.44556,1758078474.45439,0.0,0.0,0.0,0.0,-19.36597,-1.94806,9.18,-1.42,-0.06,2.0
1758078474.46076,1758078474.46439,0.0,0.0,0.0,3.83882,-22.34536,-0.85944,9.18,-1.42,-0.06,2.0
1758078474.46196,1758078474.47439,0.0,0.0,0.0,7.79223,-25.38203,-0.40107,9.31,-1.4,-0.43,2.0
1758078474.47684,1758078474.48439,0.0,0.0,0.0,13.34992,-27.96034,-1.20321,9.31,-1.4,-0.43,2.0
1758078474.49301,1758078474.49439,0.0,0.0,0.0,16.38659,-29.67921,-1.94806,9.3,-1.22,-0.54,2.0
1758078474.49477,1758078474.50439,0.0,0.0,0.0,18.33465,-31.11161,-3.55234,9.3,-1.22,-0.54,2.0
1758078474.51061,1758078474.51439,0.0,0.0,0.0,18.90761,-33.51803,-4.46907,9.42,-0.84,-0.26,2.0
1758078474.51177,1758078474.52439,0.0,0.0,0.0,18.27736,-37.35685,-2.97938,10.54,-0.1,1.25,2.0
1758078474.52678,1758078474.53439,0.0,0.0,0.0,15.41257,-36.61201,0.85944,10.54,-0.1,1.25,2.0
1758078474.54278,1758078474.54439,0.0,0.0,0.0,10.37054,-28.24682,7.39116,14.7,1.51,3.2,2.0
1758078474.54499,1758078474.55439,0.0,0.0,0.0,1.20321,-17.87628,13.40721,14.7,1.51,3.2,2.0
1758078474.55981,1758078474.56439,0.0,0.0,0.0,-8.65166,-31.16891,12.83425,14.85,2.74,3.99,2.0
1758078474.56269,1758078474.57439,0.0,0.0,0.0,-11.11538,-71.10406,14.20935,14.85,2.74,3.99,2.0
1758078474.57781,1758078474.58439,0.0,0.0,0.0,-10.8289,-84.74047,17.99088,8.19,0.85,0.89,2.0
1758078474.57979,1758078474.59439,0.0,0.0,0.0,-14.78231,-55.57691,13.17803,8.19,0.85,0.89,2.0
1758078474.59535,1758078474.60439,0.0,0.0,0.0,-16.61578,-35.69527,10.54242,12.4,-0.98,-0.98,2.0
1758078474.61083,1758078474.61439,0.0,0.0,0.0,-18.56383,-29.8511,4.35448,10.64,-0.97,0.75,2.0
1758078474.61202,1758078474.62439,0.0,0.0,0.0,-19.76705,-29.22085,0.0573,10.64,-0.97,0.75,2.0
1758078474.62685,1758078474.63439,0.0,0.0,0.0,-21.08485,-24.23611,-4.87014,9.55,0.22,1.78,2.0
1758078474.64275,1758078474.64439,0.0,0.0,0.0,-22.40265,-19.07949,-6.99009,9.55,0.22,1.78,2.0
1758078474.64399,1758078474.65439,0.0,0.0,0.0,-24.35071,-13.46451,-7.96411,10.28,1.6,0.73,2.0
1758078474.6588,1758078474.66439,0.0,0.0,0.0,-26.87172,-8.65166,-7.33386,10.28,1.6,0.73,2.0
1758078474.66163,1758078474.67439,0.0,0.0,0.0,-30.19488,-3.66693,-3.72423,10.62,2.14,1.77,2.0
1758078474.67795,1758078474.68439,0.0,0.0,0.0,-31.16891,-0.17189,-1.03132,10.1,1.49,1.58,2.0
1758078474.69493,1758078474.69439,0.0,0.0,0.0,-31.51268,3.55234,1.08862,10.1,1.49,1.58,2.0
1758078474.69768,1758078474.70439,0.0,0.0,0.0,-31.11161,6.8182,2.7502,9.52,0.72,1.37,2.0
1758078474.71328,1758078474.71439,0.0,0.0,0.0,-30.99702,12.89155,3.20856,9.52,0.72,1.37,2.0
1758078474.71491,1758078474.72439,0.0,0.0,0.0,-31.45539,17.6471,2.97938,9.63,0.56,1.35,2.0
1758078474.7301,1758078474.73439,0.0,0.0,0.0,-32.71589,22.34536,2.00535,9.63,0.56,1.35,2.0
1758078474.73265,1758078474.74439,0.0,0.0,0.0,-34.49206,25.55392,0.45837,9.95,0.84,1.47,2.0
1758078474.74788,1758078474.75439,0.0,0.0,0.0,-37.87251,25.72581,-1.08862,9.72,1.15,1.38,2.0
1758078474.76471,1758078474.76439,0.0,0.0,0.0,-40.68,25.61122,-2.00535,9.72,1.15,1.38,2.0
1758078474.7667,1758078474.77439,0.0,0.0,0.0,-43.4875,25.43933,-2.40642,9.95,1.5,1.25,2.0
1758078474.78191,1758078474.78439,0.0,0.0,0.0,-47.67009,25.43933,-2.86479,9.95,1.5,1.25,2.0
1758078474.78498,1758078474.79439,0.0,0.0,0.0,-50.47758,24.92367,-3.20856,10.2,1.65,1.12,2.0
1758078474.80096,1758078474.80439,0.0,0.0,0.0,-52.884,24.12152,-3.95341,10.2,1.65,1.12,2.0
1758078474.80232,1758078474.81439,0.0,0.0,0.0,-55.00395,23.31938,-4.87014,10.16,1.4,1.05,2.0
1758078474.81723,1758078474.82439,0.0,0.0,0.0,-57.46767,22.63183,-6.47442,10.16,1.4,1.05,2.0
1758078474.83314,1758078474.83439,0.0,0.0,0.0,-58.72818,22.23076,-7.62034,10.04,1.07,1.0,2.0
1758078474.83606,1758078474.84439,0.0,0.0,0.0,-59.87409,21.37133,-8.25059,9.82,0.94,1.03,2.0
1758078474.85088,1758078474.85439,0.0,0.0,0.0,-61.07731,20.34,-8.93814,9.82,0.94,1.03,2.0
1758078474.85209,1758078474.86439,0.0,0.0,0.0,-62.33781,18.62113,-9.4538,9.64,0.93,1.02,2.0
1758078474.86689,1758078474.87439,0.0,0.0,0.0,-63.02536,16.55848,-9.68299,9.64,0.93,1.02,2.0
1758078474.8829,1758078474.88439,0.0,0.0,0.0,-63.48372,14.09476,-9.4538,9.49,0.89,0.92,2.0
1758078474.88438,1758078474.89439,0.0,0.0,0.0,-63.99939,12.37589,-9.62569,9.49,0.89,0.92,2.0
1758078474.89968,1758078474.90439,0.0,0.0,0.0,-64.11398,9.39651,-9.28192,9.56,0.81,0.83,2.0
1758078474.90089,1758078474.91439,0.0,0.0,0.0,-63.88479,8.42248,-8.99544,9.66,0.71,0.83,2.0
1758078474.91728,1758078474.92439,0.0,0.0,0.0,-63.88479,7.84952,-8.88085,9.66,0.71,0.83,2.0
1758078474.93608,1758078474.93439,0.0,0.0,0.0,-63.99939,6.18794,-8.70896,9.71,0.63,0.98,2.0
1758078474.93728,1758078474.94439,0.0,0.0,0.0,-64.45775,3.72423,-8.88085,9.71,0.63,0.98,2.0
1758078474.94212,1758078474.95439,0.0,0.0,0.0,-65.08801,3.03668,-9.5684,9.76,0.67,0.97,2.0
1758078474.95792,1758078474.96439,0.0,0.0,0.0,-65.89015,2.11994,-10.65701,9.76,0.67,0.97,2.0
1758078474.97472,1758078474.97439,0.0,0.0,0.0,-66.80688,1.3751,-12.54778,9.76,0.8,0.84,2.0
1758078474.97594,1758078474.98439,0.0,0.0,0.0,-67.03606,1.94806,-13.46451,9.79,0.84,0.69,2.0
1758078474.99092,1758078474.99439,0.0,0.0,0.0,-66.74959,2.92208,-14.03747,9.79,0.84,0.69,2.0
1758078474.99253,1758078475.00439,0.0,0.0,0.0,-66.00475,2.86479,-14.15206,9.81,0.66,0.67,2.0
1758078475.00698,1758078475.01439,0.0,0.0,0.0,-64.22858,0.97403,-13.98017,9.81,0.66,0.67,2.0
1758078475.02299,1758078475.02439,0.0,0.0,0.0,-62.79618,0.45837,-13.40721,9.76,0.32,0.56,2.0
1758078475.02415,1758078475.03439,0.0,0.0,0.0,-61.53567,1.60428,-12.43318,9.76,0.32,0.56,2.0
1758078475.03893,1758078475.04439,0.0,0.0,0.0,-60.04598,1.43239,-11.80293,10.11,0.04,0.56,2.0
1758078475.04174,1758078475.05439,0.0,0.0,0.0,-58.09792,0.40107,-11.00079,9.88,0.04,0.56,2.0
1758078475.06209,1758078475.06439,0.0,0.0,0.0,-57.23849,1.14592,-10.37054,9.88,0.0,0.56,2.0
1758078475.06586,1758078475.07439,0.0,0.0,0.0,-56.26446,1.83346,-9.39651,9.85,0.18,0.47,2.0
1758078475.08124,1758078475.08439,0.0,0.0,0.0,-55.7488,3.38045,-9.05273,9.85,0.18,0.47,2.0
1758078475.08218,1758078475.09439,0.0,0.0,0.0,-55.34772,4.69825,-8.42248,9.77,0.38,0.43,2.0
1758078475.09723,1758078475.10439,0.0,0.0,0.0,-55.34772,4.1253,-8.36518,9.77,0.38,0.43,2.0
1758078475.1138,1758078475.11439,0.0,0.0,0.0,-55.34772,3.66693,-8.02141,9.58,0.52,0.28,2.0
1758078475.11495,1758078475.12439,0.0,0.0,0.0,-55.40502,3.72423,-7.39116,9.58,0.52,0.28,2.0
1758078475.13075,1758078475.13439,0.0,0.0,0.0,-56.03527,4.1253,-6.47442,9.74,0.6,0.21,2.0
1758078475.1331,1758078475.14439,0.0,0.0,0.0,-56.89471,6.24524,-5.90147,9.96,0.63,0.28,2.0
1758078475.14907,1758078475.15439,0.0,0.0,0.0,-58.21251,8.65166,-5.32851,9.96,0.63,0.28,2.0
1758078475.15239,1758078475.16439,0.0,0.0,0.0,-59.75951,8.02141,-5.09932,9.87,0.68,0.5,2.0
1758078475.16915,1758078475.17439,0.0,0.0,0.0,-62.91077,2.00535,-5.27121,9.87,0.68,0.5,2.0
1758078475.17076,1758078475.18439,0.0,0.0,0.0,-65.66096,-1.20321,-5.84417,9.39,0.83,0.43,2.0
1758078475.18693,1758078475.19439,0.0,0.0,0.0,-69.27061,-3.95341,-6.7609,9.39,0.83,0.43,2.0
1758078475.203,1758078475.20439,0.0,0.0,0.0,-75.28666,-7.96411,-8.88085,9.47,1.13,0.31,2.0
1758078475.2053,1758078475.21439,0.0,0.0,0.0,-79.46925,-9.85487,-10.37054,9.31,1.46,0.15,2.0
1758078475.22018,1758078475.22439,0.0,0.0,0.0,-83.47996,-12.54778,-11.91752,9.31,1.46,0.15,2.0
1758078475.22119,1758078475.23439,0.0,0.0,0.0,-86.11556,-19.25138,-13.40721,8.94,1.54,-0.13,2.0
1758078475.23603,1758078475.24439,0.0,0.0,0.0,-89.55331,-31.74186,-13.5218,8.94,1.54,-0.13,2.0
1758078475.25204,1758078475.25439,0.0,0.0,0.0,-91.1003,-35.75257,-13.00614,8.79,1.37,-0.43,2.0
1758078475.25365,1758078475.26439,0.0,0.0,0.0,-91.84514,-31.45539,-11.97482,8.79,1.37,-0.43,2.0
1758078475.26883,1758078475.27439,0.0,0.0,0.0,-92.4754,-26.35606,-11.22997,10.11,0.89,-0.75,2.0
1758078475.27046,1758078475.28439,0.0,0.0,0.0,-91.73055,-26.69983,-6.58902,9.92,0.49,-0.4,2.0
1758078475.28631,1758078475.29439,0.0,0.0,0.0,-92.01703,-37.35685,-6.18794,9.92,0.49,-0.4,2.0
1758078475.30236,1758078475.30439,0.0,0.0,0.0,-92.18892,-30.99702,-4.58366,9.91,0.49,-0.52,2.0
1758078475.30433,1758078475.31439,0.0,0.0,0.0,-94.07968,-12.71966,-5.50039,9.91,0.49,-0.52,2.0
1758078475.31902,1758078475.32439,0.0,0.0,0.0,-98.66334,-3.26586,-8.02141,12.04,0.77,-0.74,2.0
1758078475.32214,1758078475.33439,0.0,0.0,0.0,-99.80926,-8.42248,-9.05273,12.04,0.77,-0.74,2.0
1758078475.33898,1758078475.34439,0.0,0.0,0.0,-100.15303,-10.02676,-10.54242,11.02,0.49,1.64,2.0
1758078475.3409,1758078475.35439,0.0,0.0,0.0,-98.49145,-6.87549,-12.204,11.02,0.49,1.64,2.0
1758078475.35721,1758078475.36439,0.0,0.0,0.0,-92.64729,-4.0107,-15.69904,13.41,-0.8,0.76,2.0
1758078475.37671,1758078475.37439,0.0,0.0,0.0,-86.45934,-4.81285,-18.27736,13.1,-1.6,1.33,2.0
1758078475.37802,1758078475.38439,0.0,0.0,0.0,-78.89629,-5.32851,-20.34,13.1,-1.6,1.33,2.0
1758078475.39618,1758078475.39439,0.0,0.0,0.0,-67.37984,-6.18794,-21.7151,12.17,-1.32,1.46,2.0
1758078475.39743,1758078475.40439,0.0,0.0,0.0,-61.1346,-6.87549,-20.45459,12.17,-1.32,1.46,2.0
1758078475.41507,1758078475.41439,0.0,0.0,0.0,-57.0093,-6.58902,-16.90226,11.04,-0.6,0.66,2.0
1758078475.41664,1758078475.42439,0.0,0.0,0.0,-55.06125,-6.41713,-12.14671,11.04,-0.6,0.66,2.0
1758078475.43233,1758078475.43439,0.0,0.0,0.0,-54.48829,-5.55769,-4.46907,9.68,0.31,0.49,2.0
1758078475.43649,1758078475.44439,0.0,0.0,0.0,-56.26446,-5.4431,-0.74485,8.74,0.62,0.52,2.0
1758078475.45235,1758078475.45439,0.0,0.0,0.0,-59.18654,-7.16197,1.3178,8.74,0.62,0.52,2.0
1758078475.45889,1758078475.46439,0.0,0.0,0.0,-63.54102,-9.5684,1.66158,8.16,0.73,0.7,2.0
1758078475.47407,1758078475.47439,0.0,0.0,0.0,-71.04677,-13.34992,-1.03132,8.16,0.73,0.7,2.0
1758078475.47762,1758078475.48439,0.0,0.0,0.0,-75.57314,-13.5218,-4.18259,8.8,0.73,1.01,2.0
1758078475.49483,1758078475.49439,0.0,0.0,0.0,-79.92762,-13.98017,-7.79223,8.8,0.73,1.01,2.0
1758078475.49663,1758078475.50439,0.0,0.0,0.0,-82.90699,-15.29797,-11.22997,9.77,0.44,1.36,2.0
1758078475.51927,1758078475.51439,0.0,0.0,0.0,-86.45934,-17.01685,-15.41257,10.09,-0.17,1.43,2.0
1758078475.52167,1758078475.52439,0.0,0.0,0.0,-87.60525,-17.13144,-17.24603,10.09,-0.17,1.43,2.0
1758078475.52206,1758078475.53439,0.0,0.0,0.0,-88.35009,-16.272,-18.22006,10.37,-0.67,1.32,2.0
1758078475.53995,1758078475.54439,0.0,0.0,0.0,-88.52198,-15.24068,-18.16276,10.37,-0.67,1.32,2.0
1758078475.5409,1758078475.55439,0.0,0.0,0.0,-87.14688,-13.12073,-16.3293,10.1,-0.72,1.35,2.0
1758078475.5572,1758078475.56439,0.0,0.0,0.0,-85.19884,-10.65701,-14.09476,10.1,-0.72,1.35,2.0
1758078475.57476,1758078475.57439,0.0,0.0,0.0,-82.7924,-7.84952,-11.57375,9.94,-0.68,1.38,2.0
1758078475.57672,1758078475.58439,0.0,0.0,0.0,-80.04221,-4.23989,-7.96411,9.94,-0.68,1.38,2.0
1758078475.59226,1758078475.59439,0.0,0.0,0.0,-75.68773,3.09397,-5.61499,10.3,-0.91,1.27,2.0
1758078475.59808,1758078475.60439,0.0,0.0,0.0,-73.16672,7.62034,-3.89611,10.61,-1.21,0.97,2.0
1758078475.61487,1758078475.61439,0.0,0.0,0.0,-71.16136,11.45916,-2.57831,10.61,-1.21,0.97,2.0
1758078475.61669,1758078475.62439,0.0,0.0,0.0,-69.21331,17.99088,-1.3751,10.59,-1.25,0.75,2.0
1758078475.63242,1758078475.63439,0.0,0.0,0.0,-68.35387,22.74642,-1.03132,10.59,-1.25,0.75,2.0
1758078475.63729,1758078475.64439,0.0,0.0,0.0,-67.89551,26.06958,-0.68755,10.52,-0.94,0.82,2.0
1758078475.65237,1758078475.65439,0.0,0.0,0.0,-67.89551,28.24682,-0.34377,10.52,-0.94,0.82,2.0
1758078475.65654,1758078475.66439,0.0,0.0,0.0,-68.12468,29.67921,-0.0573,10.15,-0.54,0.96,2.0
1758078475.67236,1758078475.67439,0.0,0.0,0.0,-68.64035,29.73651,-0.22918,9.97,-0.36,0.93,2.0
1758078475.67654,1758078475.68439,0.0,0.0,0.0,-69.04142,27.96034,-0.34377,9.97,-0.36,0.93,2.0
1758078475.69209,1758078475.69439,0.0,0.0,0.0,-68.98412,24.80907,-0.74485,9.7,-0.38,1.0,2.0
1758078475.69493,1758078475.70439,0.0,0.0,0.0,-69.04142,21.14215,-0.68755,9.7,-0.38,1.0,2.0
1758078475.71095,1758078475.71439,0.0,0.0,0.0,-68.92683,20.11082,-0.40107,9.86,-0.34,0.95,2.0
1758078475.71648,1758078475.72439,0.0,0.0,0.0,-69.04142,19.99623,0.0573,9.86,-0.34,0.95,2.0
1758078475.73222,1758078475.73439,0.0,0.0,0.0,-69.27061,19.82434,0.40107,9.89,-0.32,1.04,2.0
1758078475.73578,1758078475.74439,0.0,0.0,0.0,-69.61437,19.70975,0.85944,9.59,-0.38,1.05,2.0
1758078475.75218,1758078475.75439,0.0,0.0,0.0,-69.90086,19.07949,0.74485,9.59,-0.38,1.05,2.0
1758078475.75484,1758078475.76439,0.0,0.0,0.0,-70.24463,18.50654,0.22918,9.44,-0.43,0.97,2.0
1758078475.77092,1758078475.77439,0.0,0.0,0.0,-70.58841,18.50654,-0.51566,9.44,-0.43,0.97,2.0
1758078475.77485,1758078475.78439,0.0,0.0,0.0,-70.87489,19.48057,-2.11994,9.58,-0.48,0.95,2.0
1758078475.79053,1758078475.79439,0.0,0.0,0.0,-70.76029,19.99623,-3.26586,9.58,-0.48,0.95,2.0
1758078475.79247,1758078475.80439,0.0,0.0,0.0,-70.81759,19.42327,-4.29718,9.57,-0.59,0.91,2.0
1758078475.80718,1758078475.81439,0.0,0.0,0.0,-69.95815,18.90761,-5.95876,9.57,-0.59,0.91,2.0
1758078475.81266,1758078475.82439,0.0,0.0,0.0,-68.75494,19.07949,-6.8182,9.52,-0.76,0.83,2.0
1758078475.87734,1758078475.83439,0.0,0.0,0.0,-66.80688,19.13679,-7.33386,9.51,-1.06,0.76,2.0
1758078475.88253,1758078475.84439,0.0,0.0,0.0,-64.51505,18.10547,-7.33386,9.51,-1.06,0.76,2.0
1758078475.88362,1758078475.85439,0.0,0.0,0.0,-60.33246,16.50119,-7.21927,9.27,-1.48,0.66,2.0
1758078475.88753,1758078475.86439,0.0,0.0,0.0,-56.89471,15.92823,-7.39116,9.27,-1.48,0.66,2.0
1758078475.89216,1758078475.87439,0.0,0.0,0.0,-53.80074,17.01685,-8.42248,9.28,-1.75,0.65,2.0
1758078475.89741,1758078475.88439,0.0,0.0,0.0,-50.64947,19.70975,-9.4538,9.28,-1.75,0.65,2.0
1758078475.89774,1758078475.89439,0.0,0.0,0.0,-46.06581,23.0902,-11.00079,9.48,-1.79,0.81,2.0
1758078475.90128,1758078475.90439,0.0,0.0,0.0,-42.85724,22.28806,-11.80293,9.25,-1.68,1.11,2.0
1758078475.90281,1758078475.91439,0.0,0.0,0.0,-39.07573,17.81899,-12.08941,9.25,-1.68,1.11,2.0
1758078475.92202,1758078475.92439,0.0,0.0,0.0,-34.60666,11.86023,-11.45916,8.75,-1.67,1.01,2.0
1758078475.92409,1758078475.93439,0.0,0.0,0.0,-27.50197,3.72423,-9.22462,8.75,-1.67,1.01,2.0
1758078475.94198,1758078475.94439,0.0,0.0,0.0,-22.51724,-0.51566,-6.87549,8.99,-1.82,0.77,2.0
1758078475.94317,1758078475.95439,0.0,0.0,0.0,-17.53251,-4.87014,-4.35448,8.99,-1.82,0.77,2.0
1758078475.95843,1758078475.96439,0.0,0.0,0.0,-12.77696,-8.93814,-1.71887,9.23,-1.99,0.85,2.0
1758078475.97687,1758078475.97439,0.0,0.0,0.0,-5.84417,-14.78231,0.74485,9.44,-2.06,0.7,2.0
1758078476.00094,1758078475.98439,0.0,0.0,0.0,-2.00535,-21.25674,1.77617,9.44,-2.06,0.7,2.0
1758078476.00266,1758078475.99439,0.0,0.0,0.0,0.34377,-27.2155,1.60428,9.45,-1.88,0.45,2.0
1758078476.00671,1758078476.00439,0.0,0.0,0.0,2.63561,-30.02299,-0.45837,9.45,-1.88,0.45,2.0
1758078476.01138,1758078476.01439,0.0,0.0,0.0,3.26586,-27.61657,-3.32316,10.16,-1.58,0.52,2.0
1758078476.01496,1758078476.02439,0.0,0.0,0.0,4.35448,-22.57454,-4.29718,10.16,-1.58,0.52,2.0
1758078476.13283,1758078476.03439,0.0,0.0,0.0,3.60963,-18.22006,-6.8182,10.66,-1.33,0.74,2.0
1758078476.13803,1758078476.04439,0.0,0.0,0.0,3.03668,-5.15662,-8.99544,10.66,-1.33,0.74,2.0
1758078476.14408,1758078476.05439,0.0,0.0,0.0,3.60963,-7.33386,-9.91217,10.99,-1.06,1.16,2.0
1758078476.15264,1758078476.06439,0.0,0.0,0.0,1.83346,-28.64789,-12.43318,9.0,-0.78,1.64,2.0
1758078476.15614,1758078476.07439,0.0,0.0,0.0,7.62034,-55.6915,-6.8182,9.0,-0.78,1.64,2.0
1758078476.15759,1758078476.08439,0.0,0.0,0.0,12.71966,-62.28051,5.72958,10.41,-0.76,0.78,2.0
1758078476.15967,1758078476.09439,0.0,0.0,0.0,12.204,-50.363,10.8862,10.41,-0.76,0.78,2.0
1758078476.16169,1758078476.10439,0.0,0.0,0.0,10.65701,-44.40423,15.0115,14.26,-0.67,1.64,2.0
1758078476.16226,1758078476.11439,0.0,0.0,0.0,9.22462,-43.60209,17.30333,14.26,-0.67,1.64,2.0
1758078476.16367,1758078476.12439,0.0,0.0,0.0,6.8182,-36.21093,16.38659,12.17,-0.7,2.93,2.0
1758078476.16497,1758078476.13439,0.0,0.0,0.0,4.46907,-28.87707,12.71966,11.46,-0.57,1.57,2.0
1758078476.17639,1758078476.14439,0.0,0.0,0.0,1.3178,-24.57989,7.62034,11.46,-0.57,1.57,2.0
1758078476.17709,1758078476.15439,0.0,0.0,0.0,-1.77617,-21.7151,2.6929,9.7,-0.06,0.85,2.0
1758078476.20747,1758078476.16439,0.0,0.0,0.0,-5.55769,-16.04282,-2.40642,9.7,-0.06,0.85,2.0
1758078476.20972,1758078476.17439,0.0,0.0,0.0,-6.7609,-13.17803,-4.1253,9.18,0.43,1.27,2.0
1758078476.21014,1758078476.18439,0.0,0.0,0.0,-7.04738,-11.63104,-3.49504,9.18,0.43,1.27,2.0
1758078476.21106,1758078476.19439,0.0,0.0,0.0,-5.90147,-10.59972,-1.20321,9.11,0.57,1.56,2.0
1758078476.21166,1758078476.20439,0.0,0.0,0.0,-2.7502,-8.93814,3.20856,9.33,0.3,1.94,2.0
1758078476.21476,1758078476.21439,0.0,0.0,0.0,-0.22918,-8.136,6.35983,9.33,0.3,1.94,2.0
1758078476.21522,1758078476.22439,0.0,0.0,0.0,1.43239,-6.8182,8.99544,9.47,0.2,2.13,2.0
1758078476.23236,1758078476.23439,0.0,0.0,0.0,2.97938,-3.95341,11.74564,9.47,0.2,2.13,2.0
1758078476.23652,1758078476.24439,0.0,0.0,0.0,2.7502,-2.06265,12.54778,9.64,0.51,2.28,2.0
1758078476.25127,1758078476.25439,0.0,0.0,0.0,1.08862,0.0573,12.08941,9.64,0.51,2.28,2.0
1758078476.25277,1758078476.26439,0.0,0.0,0.0,-1.66158,2.6929,11.00079,9.79,1.1,2.22,2.0
1758078476.27231,1758078476.27439,0.0,0.0,0.0,-7.79223,7.79223,7.33386,9.79,1.1,2.11,2.0
1758078476.27548,1758078476.28439,0.0,0.0,0.0,-12.14671,10.37054,4.29718,9.99,1.63,2.11,2.0
1758078476.29106,1758078476.29439,0.0,0.0,0.0,-15.98552,12.08941,1.48969,9.84,1.81,1.97,2.0
1758078476.29229,1758078476.30439,0.0,0.0,0.0,-19.36597,13.86558,-1.3178,9.84,1.81,1.97,2.0
1758078476.30748,1758078476.31439,0.0,0.0,0.0,-23.26209,17.99088,-4.35448,10.09,1.69,1.82,2.0
1758078476.32434,1758078476.32439,0.0,0.0,0.0,-25.09555,20.16812,-5.72958,10.09,1.69,1.82,2.0
1758078476.33218,1758078476.33439,0.0,0.0,0.0,-26.47065,20.79837,-6.47442,10.26,1.38,1.63,2.0
1758078476.38993,1758078476.34439,0.0,0.0,0.0,-27.38738,20.85567,-6.58902,10.26,1.38,1.63,2.0
1758078476.417,1758078476.35439,0.0,0.0,0.0,-28.30412,22.00158,-6.41713,10.31,0.97,1.55,2.0
1758078476.41875,1758078476.36439,0.0,0.0,0.0,-28.76248,22.05888,-6.53172,10.54,0.65,1.43,2.0
1758078476.4197,1758078476.37439,0.0,0.0,0.0,-29.22085,22.00158,-6.87549,10.54,0.65,1.43,2.0
1758078476.42191,1758078476.38439,0.0,0.0,0.0,-29.50733,21.7724,-7.33386,10.55,0.55,1.48,2.0
1758078476.4248,1758078476.39439,0.0,0.0,0.0,-30.02299,21.37133,-8.36518,10.55,0.55,1.48,2.0
1758078476.42695,1758078476.40439,0.0,0.0,0.0,-30.82513,21.25674,-9.11003,10.19,0.65,1.51,2.0
1758078476.4287,1758078476.41439,0.0,0.0,0.0,-31.56997,20.85567,-9.85487,10.19,0.65,1.51,2.0
1758078476.43867,1758078476.42439,0.0,0.0,0.0,-33.05967,19.70975,-10.08406,9.77,0.81,1.43,2.0
1758078476.43994,1758078476.43439,0.0,0.0,0.0,-34.66395,16.61578,-10.8862,9.46,0.89,1.36,2.0
1758078476.44264,1758078476.44439,0.0,0.0,0.0,-36.38282,14.38124,-11.80293,9.46,0.89,1.36,2.0
1758078476.44696,1758078476.45439,0.0,0.0,0.0,-38.21629,11.97482,-13.06344,9.34,0.97,1.34,2.0
1758078476.46238,1758078476.46439,0.0,0.0,0.0,-40.85189,8.47978,-15.06879,9.34,0.97,1.34,2.0
1758078476.46662,1758078476.47439,0.0,0.0,0.0,-41.99781,5.21392,-15.98552,9.29,1.04,1.19,2.0
1758078476.4863,1758078476.48439,0.0,0.0,0.0,-42.85724,1.08862,-16.3293,9.29,1.04,1.19,2.0
1758078476.50911,1758078476.49439,0.0,0.0,0.0,-43.31561,-2.86479,-16.04282,9.13,0.93,0.99,2.0
1758078476.50948,1758078476.50439,0.0,0.0,0.0,-42.85724,-7.62034,-14.83961,9.24,0.93,0.92,2.0
1758078476.51709,1758078476.51439,0.0,0.0,0.0,-42.39888,-9.62569,-13.98017,9.24,0.67,0.92,2.0
1758078476.522,1758078476.52439,0.0,0.0,0.0,-41.76862,-11.34457,-12.83425,9.45,0.41,0.93,2.0
1758078476.52374,1758078476.53439,0.0,0.0,0.0,-41.65404,-12.37589,-12.2613,9.45,0.41,0.93,2.0
1758078476.54123,1758078476.54439,0.0,0.0,0.0,-41.65404,-9.05273,-11.57375,9.84,0.33,0.91,2.0
1758078476.54696,1758078476.55439,0.0,0.0,0.0,-41.59674,-6.07335,-11.11538,9.84,0.33,0.91,2.0
1758078476.56268,1758078476.56439,0.0,0.0,0.0,-41.59674,-3.09397,-11.00079,10.09,0.36,0.85,2.0
1758078476.56676,1758078476.57439,0.0,0.0,0.0,-41.42485,-0.57296,-10.59972,10.09,0.36,0.85,2.0
1758078476.58267,1758078476.58439,0.0,0.0,0.0,-41.65404,3.66693,-10.02676,9.97,0.39,0.77,2.0
1758078476.58682,1758078476.59439,0.0,0.0,0.0,-42.05511,6.18794,-10.08406,9.87,0.39,0.72,2.0
1758078476.60265,1758078476.60439,0.0,0.0,0.0,-42.05511,7.79223,-9.91217,9.87,0.39,0.72,2.0
1758078476.60469,1758078476.61439,0.0,0.0,0.0,-42.28429,8.93814,-9.4538,9.69,0.36,0.63,2.0
1758078476.61933,1758078476.62439,0.0,0.0,0.0,-42.85724,11.34457,-9.11003,9.69,0.36,0.63,2.0
1758078476.62372,1758078476.63439,0.0,0.0,0.0,-43.02913,13.17803,-8.65166,9.81,0.39,0.65,2.0
1758078476.6444,1758078476.64439,0.0,0.0,0.0,-43.94586,13.46451,-8.36518,9.81,0.39,0.65,2.0
1758078476.64731,1758078476.65439,0.0,0.0,0.0,-45.03448,10.37054,-7.44845,9.7,0.46,0.69,2.0
1758078476.66263,1758078476.66439,0.0,0.0,0.0,-46.1804,7.10468,-6.87549,9.53,0.55,0.73,2.0
1758078476.66863,1758078476.67439,0.0,0.0,0.0,-48.07116,3.09397,-6.99009,9.53,0.55,0.73,2.0
1758078476.67214,1758078476.68439,0.0,0.0,0.0,-50.13381,-1.48969,-7.44845,9.55,0.68,0.66,2.0
1758078476.69013,1758078476.69439,0.0,0.0,0.0,-54.25911,-7.44845,-8.93814,9.55,0.68,0.66,2.0
1758078476.69119,1758078476.70439,0.0,0.0,0.0,-57.18119,-11.17268,-10.54242,9.51,0.93,0.65,2.0
1758078476.70642,1758078476.71439,0.0,0.0,0.0,-59.81679,-15.58445,-12.37589,9.51,0.93,0.65,2.0
1758078476.71082,1758078476.72439,0.0,0.0,0.0,-62.5097,-19.53786,-14.38124,9.17,1.19,0.53,2.0
1758078476.72762,1758078476.73439,0.0,0.0,0.0,-64.28587,-34.89313,-15.98552,8.69,1.26,0.26,2.0
1758078476.74631,1758078476.74439,0.0,0.0,0.0,-64.74423,-45.60744,-15.75634,8.69,1.26,0.26,2.0
1758078476.74911,1758078476.75439,0.0,0.0,0.0,-64.74423,-50.82136,-15.98552,9.01,0.94,-0.16,2.0
1758078476.76627,1758078476.76439,0.0,0.0,0.0,-64.57235,-48.9879,-15.12609,9.01,0.94,-0.16,2.0
1758078476.76721,1758078476.77439,0.0,0.0,0.0,-64.17127,-44.40423,-12.71966,10.23,0.72,-0.11,2.0
1758078476.78243,1758078476.78439,0.0,0.0,0.0,-64.17127,-42.05511,-10.19865,10.23,0.72,-0.11,2.0
1758078476.78874,1758078476.79439,0.0,0.0,0.0,-65.2599,-37.52874,-8.88085,10.47,0.53,0.38,2.0
1758078476.80369,1758078476.80439,0.0,0.0,0.0,-67.37984,-23.49127,-8.47978,10.47,0.53,0.38,2.0
1758078476.80699,1758078476.81439,0.0,0.0,0.0,-71.73432,-17.93358,-9.39651,11.52,0.73,-0.11,2.0
1758078476.82274,1758078476.82439,0.0,0.0,0.0,-74.25533,-16.55848,-9.28192,10.09,1.06,0.35,2.0
1758078476.82694,1758078476.83439,0.0,0.0,0.0,-76.48987,-13.80828,-9.05273,10.09,1.06,0.35,2.0
1758078476.84274,1758078476.84439,0.0,0.0,0.0,-78.26604,-8.25059,-8.36518,10.72,1.13,0.26,2.0
1758078476.84441,1758078476.85439,0.0,0.0,0.0,-77.80767,0.11459,-7.79223,10.72,1.13,0.26,2.0
1758078476.86274,1758078476.86439,0.0,0.0,0.0,-75.68773,4.46907,-7.16197,11.67,0.57,0.84,2.0
1758078476.86635,1758078476.87439,0.0,0.0,0.0,-72.65105,5.15662,-6.7609,11.67,0.57,0.84,2.0
1758078476.88149,1758078476.88439,0.0,0.0,0.0,-66.11933,0.80214,-7.44845,11.78,-0.4,1.3,2.0
1758078476.88426,1758078476.89439,0.0,0.0,0.0,-60.27517,-2.97938,-8.59437,11.69,-1.16,1.18,2.0
1758078476.89949,1758078476.90439,0.0,0.0,0.0,-54.66018,-7.50575,-10.54242,11.69,-1.16,1.18,2.0
1758078476.9022,1758078476.91439,0.0,0.0,0.0,-48.9879,-10.25595,-12.2613,11.74,-1.18,0.77,2.0
1758078476.91842,1758078476.92439,0.0,0.0,0.0,-42.85724,-14.03747,-13.98017,11.74,-1.18,0.77,2.0
1758078476.93618,1758078476.93439,0.0,0.0,0.0,-40.7373,-14.49583,-13.5218,10.83,-0.22,0.42,2.0
1758078476.93755,1758078476.94439,0.0,0.0,0.0,-39.4195,-13.98017,-11.63104,10.83,-0.22,0.42,2.0
1758078476.95277,1758078476.95439,0.0,0.0,0.0,-39.01843,-13.5218,-9.33921,9.97,0.66,0.15,2.0
1758078476.95609,1758078476.96439,0.0,0.0,0.0,-40.10705,-12.89155,-5.84417,9.55,0.74,0.32,2.0
1758078476.97225,1758078476.97439,0.0,0.0,0.0,-41.36755,-14.66772,-3.89611,9.55,0.74,0.32,2.0
1758078476.9774,1758078476.98439,0.0,0.0,0.0,-42.74266,-16.73037,-2.86479,9.44,0.35,0.19,2.0
1758078476.99278,1758078476.99439,0.0,0.0,0.0,-43.94586,-17.76169,-2.57831,9.44,0.35,0.19,2.0
1758078476.99606,1758078477.00439,0.0,0.0,0.0,-44.40423,-18.16276,-3.26586,9.95,0.04,0.45,2.0
1758078477.01145,1758078477.01439,0.0,0.0,0.0,-43.77398,-18.33465,-4.0107,9.95,0.04,0.45,2.0
1758078477.01664,1758078477.02439,0.0,0.0,0.0,-42.28429,-19.36597,-4.81285,10.11,-0.14,0.66,2.0
1758078477.03492,1758078477.03439,0.0,0.0,0.0,-40.50812,-21.08485,-5.61499,10.11,-0.14,0.66,2.0
1758078477.03585,1758078477.04439,0.0,0.0,0.0,-37.64333,-24.86637,-5.78687,9.82,-0.35,0.88,2.0
1758078477.05235,1758078477.05439,0.0,0.0,0.0,-36.61201,-26.35606,-5.55769,9.6,-0.51,0.78,2.0
1758078477.05585,1758078477.06439,0.0,0.0,0.0,-36.26823,-27.44468,-5.27121,9.6,-0.51,0.78,2.0
1758078477.07276,1758078477.07439,0.0,0.0,0.0,-36.7266,-29.22085,-4.58366,9.43,-0.34,1.03,2.0
1758078477.07632,1758078477.08439,0.0,0.0,0.0,-37.75792,-29.10626,-3.89611,9.43,-0.34,1.03,2.0
1758078477.09233,1758078477.09439,0.0,0.0,0.0,-39.13302,-28.70519,-3.26586,9.44,-0.02,1.42,2.0
1758078477.09589,1758078477.10439,0.0,0.0,0.0,-40.7373,-28.01764,-2.7502,9.44,-0.02,1.42,2.0
1758078477.11235,1758078477.11439,0.0,0.0,0.0,-43.77398,-26.64254,-2.46372,9.46,0.24,1.59,2.0
1758078477.11514,1758078477.12439,0.0,0.0,0.0,-45.60744,-24.17882,-2.46372,9.63,0.26,1.47,2.0
1758078477.13177,1758078477.13439,0.0,0.0,0.0,-47.78468,-20.51189,-2.7502,9.63,0.26,1.47,2.0
1758078477.13416,1758078477.14439,0.0,0.0,0.0,-49.67545,-16.21471,-3.20856,9.9,-0.02,1.13,2.0
1758078477.15221,1758078477.15439,0.0,0.0,0.0,-51.79538,-8.42248,-3.38045,9.9,-0.02,1.13,2.0
1758078477.17841,1758078477.16439,0.0,0.0,0.0,-52.71212,-2.57831,-3.55234,10.19,-0.44,0.96,2.0
1758078477.18092,1758078477.17439,0.0,0.0,0.0,-52.76942,3.20856,-3.03668,10.19,-0.44,0.96,2.0
1758078477.18747,1758078477.18439,0.0,0.0,0.0,-52.08187,9.39651,-2.46372,10.51,-0.78,0.65,2.0
1758078477.18888,1758078477.19439,0.0,0.0,0.0,-49.67545,18.10547,-1.60428,10.63,-0.93,0.41,2.0
1758078477.20457,1758078477.20439,0.0,0.0,0.0,-47.67009,23.26209,-0.85944,10.63,-0.93,0.41,2.0
1758078477.21795,1758078477.21439,0.0,0.0,0.0,-45.14908,28.13223,0.11459,10.63,-0.94,0.23,2.0
1758078477.23649,1758078477.22439,0.0,0.0,0.0,-42.91454,31.11161,1.08862,10.63,-0.94,0.23,2.0
1758078477.23676,1758078477.23439,0.0,0.0,0.0,-39.82057,31.56997,2.46372,10.35,-0.8,0.25,2.0
1758078477.27772,1758078477.24439,0.0,0.0,0.0,-38.38818,30.76784,2.92208,10.35,-0.8,0.25,2.0
1758078477.28266,1758078477.25439,0.0,0.0,0.0,-37.01308,29.33544,3.32316,10.06,-0.69,0.15,2.0
1758078477.28514,1758078477.26439,0.0,0.0,0.0,-35.12231,26.98631,4.18259,10.06,-0.69,0.15,2.0
1758078477.28608,1758078477.27439,0.0,0.0,0.0,-34.14828,25.26744,5.15662,10.04,-0.61,0.26,2.0
1758078477.28672,1758078477.28439,0.0,0.0,0.0,-33.34615,23.20479,5.95876,10.08,-0.45,0.39,2.0
1758078477.28901,1758078477.29439,0.0,0.0,0.0,-32.77319,21.94428,6.53172,10.08,-0.45,0.39,2.0
1758078477.30464,1758078477.30439,0.0,0.0,0.0,-31.79916,19.59516,6.99009,9.76,-0.47,0.34,2.0
1758078477.30713,1758078477.31439,0.0,0.0,0.0,-30.59595,17.53251,6.99009,9.76,-0.47,0.34,2.0
1758078477.32442,1758078477.32439,0.0,0.0,0.0,-29.73651,15.92823,6.7609,9.2,-0.68,0.43,2.0
1758078477.32777,1758078477.33439,0.0,0.0,0.0,-28.70519,15.41257,6.47442,9.2,-0.68,0.43,2.0
1758078477.34466,1758078477.34439,0.0,0.0,0.0,-27.44468,15.0115,5.95876,9.18,-0.83,0.47,2.0
1758078477.34718,1758078477.35439,0.0,0.0,0.0,-26.69983,14.9542,5.32851,9.3,-0.75,0.5,2.0
1758078477.36342,1758078477.36439,0.0,0.0,0.0,-26.41335,15.46986,4.35448,9.3,-0.75,0.5,2.0
1758078477.36696,1758078477.37439,0.0,0.0,0.0,-26.41335,14.9542,2.92208,9.35,-0.52,0.5,2.0
1758078477.38354,1758078477.38439,0.0,0.0,0.0,-26.64254,13.86558,0.34377,9.35,-0.52,0.5,2.0
1758078477.3878,1758078477.39439,0.0,0.0,0.0,-26.81443,13.5791,-1.20321,9.37,-0.36,0.43,2.0
1758078477.4037,1758078477.40439,0.0,0.0,0.0,-26.87172,13.46451,-3.03668,9.37,-0.36,0.43,2.0
1758078477.40543,1758078477.41439,0.0,0.0,0.0,-26.24147,13.23533,-4.1253,9.56,-0.45,0.35,2.0
1758078477.42196,1758078477.42439,0.0,0.0,0.0,-24.4653,13.5791,-4.92744,9.69,-0.79,0.18,2.0
1758078477.42281,1758078477.43439,0.0,0.0,0.0,-22.57454,15.87093,-5.27121,9.69,-0.79,0.18,2.0
1758078477.43922,1758078477.44439,0.0,0.0,0.0,-20.3973,20.22541,-5.50039,10.1,-1.24,0.09,2.0
1758078477.44467,1758078477.45439,0.0,0.0,0.0,-17.18874,23.94964,-5.84417,10.1,-1.24,0.09,2.0
1758078477.46186,1758078477.46439,0.0,0.0,0.0,-14.83961,27.61657,-6.13065,9.97,-1.48,0.19,2.0
1758078477.46796,1758078477.47439,0.0,0.0,0.0,-12.77696,30.25217,-6.70361,9.97,-1.48,0.19,2.0
1758078477.48373,1758078477.48439,0.0,0.0,0.0,-10.31324,31.2262,-6.87549,9.77,-1.52,0.22,2.0
1758078477.48714,1758078477.49439,0.0,0.0,0.0,-6.87549,27.84575,-6.24524,9.77,-1.52,0.22,2.0
1758078477.53208,1758078477.50439,0.0,0.0,0.0,-4.92744,23.37668,-5.55769,9.27,-1.39,0.26,2.0
1758078477.5347,1758078477.51439,0.0,0.0,0.0,-2.86479,18.27736,-4.52637,9.07,-1.07,0.22,2.0
1758078477.53702,1758078477.52439,0.0,0.0,0.0,-1.08862,11.91752,-3.38045,9.07,-1.07,0.22,2.0
1758078477.53922,1758078477.53439,0.0,0.0,0.0,1.77617,0.34377,-1.43239,8.86,-0.82,0.37,2.0
1758078477.54196,1758078477.54439,0.0,0.0,0.0,4.0107,-6.53172,-0.17189,8.86,-0.82,0.37,2.0
1758078477.54714,1758078477.55439,0.0,0.0,0.0,6.87549,-12.2613,0.57296,9.05,-0.88,0.25,2.0
1758078477.56388,1758078477.56439,0.0,0.0,0.0,8.93814,-18.33465,2.06265,9.05,-0.88,0.25,2.0
1758078477.5646,1758078477.57439,0.0,0.0,0.0,11.80293,-29.27814,4.1253,9.34,-1.12,0.09,2.0
1758078477.57987,1758078477.58439,0.0,0.0,0.0,13.12073,-32.42941,2.63561,9.75,-1.12,-0.02,2.0
1758078477.58187,1758078477.59439,0.0,0.0,0.0,15.69904,-27.73116,1.48969,9.75,-1.12,-0.02,2.0
1758078477.59922,1758078477.60439,0.0,0.0,0.0,18.44924,-15.0115,1.03132,11.41,-1.25,-0.14,2.0
1758078477.60156,1758078477.61439,0.0,0.0,0.0,20.22541,-1.77617,-2.29183,11.41,-1.25,-0.14,2.0
1758078477.61674,1758078477.62439,0.0,0.0,0.0,22.74642,-0.80214,-4.64096,11.47,-1.13,0.79,2.0
1758078477.67695,1758078477.63439,0.0,0.0,0.0,25.72581,-16.38659,-4.81285,11.47,-1.13,0.79,2.0
1758078477.70617,1758078477.64439,0.0,0.0,0.0,30.88243,-41.99781,3.03668,10.34,-0.74,1.35,2.0
1758078477.70734,1758078477.65439,0.0,0.0,0.0,31.97105,-43.14373,9.33921,13.87,-0.02,0.63,2.0
1758078477.71663,1758078477.66439,0.0,0.0,0.0,30.36677,-38.15899,13.40721,13.87,-0.02,0.63,2.0
1758078477.71716,1758078477.67439,0.0,0.0,0.0,29.50733,-40.62271,17.58981,13.82,0.37,0.73,2.0
1758078477.72235,1758078477.68439,0.0,0.0,0.0,26.81443,-36.15364,18.90761,13.82,0.37,0.73,2.0
1758078477.7275,1758078477.69439,0.0,0.0,0.0,22.86102,-29.56462,15.98552,12.29,-0.08,1.61,2.0
1758078477.73109,1758078477.70439,0.0,0.0,0.0,18.22006,-28.24682,11.45916,12.29,-0.08,1.61,2.0
1758078477.73683,1758078477.71439,0.0,0.0,0.0,13.46451,-29.56462,6.7609,10.4,0.0,1.4,2.0
1758078477.73757,1758078477.72439,0.0,0.0,0.0,7.62034,-28.36141,1.66158,10.4,0.0,1.39,2.0
1758078477.74028,1758078477.73439,0.0,0.0,0.0,5.55769,-27.04361,-0.22918,9.74,0.48,1.39,2.0
1758078477.74508,1758078477.74439,0.0,0.0,0.0,5.27121,-25.89769,-0.40107,9.4,0.86,1.72,2.0
1758078477.7494,1758078477.75439,0.0,0.0,0.0,6.24524,-24.86637,0.68755,9.4,0.86,1.72,2.0
1758078477.75276,1758078477.76439,0.0,0.0,0.0,8.70896,-21.60051,3.60963,9.23,0.96,2.42,2.0
1758078477.79224,1758078477.77439,0.0,0.0,0.0,10.48513,-18.27736,6.07335,9.23,0.96,2.42,2.0
1758078477.80166,1758078477.78439,0.0,0.0,0.0,11.86023,-14.38124,8.65166,9.51,0.9,2.48,2.0
1758078477.80206,1758078477.79439,0.0,0.0,0.0,12.60507,-9.39651,10.54242,9.51,0.9,2.48,2.0
1758078477.80502,1758078477.80439,0.0,0.0,0.0,12.54778,-0.45837,12.37589,9.72,0.88,2.15,2.0
1758078477.80543,1758078477.81439,0.0,0.0,0.0,11.22997,5.61499,12.08941,9.86,0.91,1.82,2.0
1758078477.82196,1758078477.82439,0.0,0.0,0.0,9.05273,12.204,10.8862,9.86,0.91,1.82,2.0
1758078477.82735,1758078477.83439,0.0,0.0,0.0,6.41713,18.44924,8.88085,9.97,0.96,1.63,2.0
1758078477.84173,1758078477.84439,0.0,0.0,0.0,2.11994,26.98631,5.78687,9.97,0.96,1.63,2.0
1758078477.84403,1758078477.85439,0.0,0.0,0.0,-0.68755,32.14294,2.92208,10.2,1.0,1.58,2.0
1758078477.85872,1758078477.86439,0.0,0.0,0.0,-3.26586,35.69527,0.45837,10.2,1.0,1.58,2.0
1758078477.89894,1758078477.87439,0.0,0.0,0.0,-5.84417,37.58603,-2.46372,10.23,0.97,1.51,2.0
1758078477.95277,1758078477.88439,0.0,0.0,0.0,-6.70361,38.38818,-3.66693,10.17,0.83,1.31,2.0
1758078477.9817,1758078477.89439,0.0,0.0,0.0,-6.8182,38.44547,-4.35448,10.17,0.83,1.31,2.0
1758078478.01748,1758078477.90439,0.0,0.0,0.0,-6.35983,37.64333,-4.52637,10.09,0.8,1.17,2.0
1758078478.02202,1758078477.91439,0.0,0.0,0.0,-4.92744,36.21093,-4.1253,10.09,0.8,1.17,2.0
1758078478.07221,1758078477.92439,0.0,0.0,0.0,-4.52637,35.00772,-3.83882,9.9,0.83,1.19,2.0
1758078478.07606,1758078477.93439,0.0,0.0,0.0,-4.58366,34.43476,-3.26586,9.9,0.83,1.19,2.0
1758078478.07678,1758078477.94439,0.0,0.0,0.0,-4.58366,33.00237,-3.09397,9.71,0.76,1.27,2.0
1758078478.08223,1758078477.95439,0.0,0.0,0.0,-5.50039,31.45539,-3.60963,9.38,0.62,1.23,2.0
1758078478.08346,1758078477.96439,0.0,0.0,0.0,-6.58902,30.25217,-4.35448,9.38,0.62,1.23,2.0
1758078478.08697,1758078477.97439,0.0,0.0,0.0,-7.50575,26.98631,-4.87014,9.04,0.61,1.32,2.0
1758078478.08851,1758078477.98439,0.0,0.0,0.0,-8.47978,22.63183,-5.27121,9.04,0.61,1.32,2.0
1758078478.09628,1758078477.99439,0.0,0.0,0.0,-9.85487,16.50119,-4.98473,8.98,0.72,1.28,2.0
1758078478.09669,1758078478.00439,0.0,0.0,0.0,-11.00079,14.03747,-4.98473,8.98,0.72,1.28,2.0
1758078478.09965,1758078478.01439,0.0,0.0,0.0,-12.54778,12.204,-5.72958,9.39,0.88,1.15,2.0
1758078478.10011,1758078478.02439,0.0,0.0,0.0,-14.20935,9.05273,-6.70361,9.39,0.88,1.15,2.0
1758078478.10133,1758078478.03439,0.0,0.0,0.0,-16.38659,3.89611,-7.79223,9.26,1.03,0.84,2.0
1758078478.10191,1758078478.04439,0.0,0.0,0.0,-17.76169,1.71887,-8.59437,9.27,1.09,0.61,2.0
1758078478.10668,1758078478.05439,0.0,0.0,0.0,-18.9649,-0.17189,-8.88085,9.27,1.09,0.61,2.0
1758078478.10717,1758078478.06439,0.0,0.0,0.0,-20.11082,-2.23454,-8.42248,9.31,1.0,0.5,2.0
1758078478.11261,1758078478.07439,0.0,0.0,0.0,-21.42862,-4.23989,-8.30789,9.31,1.0,0.5,2.0
1758078478.11608,1758078478.08439,0.0,0.0,0.0,-21.88699,-2.86479,-7.21927,9.56,0.86,0.58,2.0
1758078478.11681,1758078478.09439,0.0,0.0,0.0,-22.40265,-0.74485,-6.24524,9.56,0.86,0.58,2.0
1758078478.12226,1758078478.10439,0.0,0.0,0.0,-22.91831,3.55234,-4.64096,9.8,0.76,0.59,2.0
1758078478.12278,1758078478.11439,0.0,0.0,0.0,-23.26209,6.70361,-3.66693,9.64,0.62,0.68,2.0
1758078478.12377,1758078478.12439,0.0,0.0,0.0,-23.66316,9.74028,-2.86479,9.64,0.62,0.68,2.0
1758078478.12704,1758078478.13439,0.0,0.0,0.0,-24.4653,13.06344,-2.57831,9.52,0.55,0.71,2.0
1758078478.13252,1758078478.14439,0.0,0.0,0.0,-26.01229,17.13144,-2.29183,9.52,0.55,0.71,2.0
1758078478.14987,1758078478.15439,0.0,0.0,0.0,-27.1582,19.99623,-2.11994,9.59,0.6,0.77,2.0
1758078478.15175,1758078478.16439,0.0,0.0,0.0,-28.70519,22.11617,-2.57831,9.59,0.6,0.77,2.0
1758078478.16974,1758078478.17439,0.0,0.0,0.0,-30.13758,22.97561,-3.09397,9.66,0.64,0.96,2.0
1758078478.1767,1758078478.18439,0.0,0.0,0.0,-31.85646,21.7151,-4.0107,9.39,0.71,0.95,2.0
1758078478.1918,1758078478.19439,0.0,0.0,0.0,-32.54401,18.79302,-4.46907,9.39,0.71,0.95,2.0
1758078478.19728,1758078478.20439,0.0,0.0,0.0,-32.83048,14.15206,-4.81285,9.12,0.77,0.87,2.0
1758078478.21209,1758078478.21439,0.0,0.0,0.0,-33.40344,7.50575,-5.15662,9.12,0.77,0.87,2.0
1758078478.21724,1758078478.22439,0.0,0.0,0.0,-34.72124,-6.53172,-6.24524,8.99,0.72,0.87,2.0
1758078478.2318,1758078478.23439,0.0,0.0,0.0,-36.03905,-16.67307,-7.10468,8.99,0.72,0.87,2.0
1758078478.2358,1758078478.24439,0.0,0.0,0.0,-37.98711,-25.49662,-8.36518,8.99,0.8,0.52,2.0
1758078478.25084,1758078478.25439,0.0,0.0,0.0,-40.68,-31.85646,-10.02676,8.99,0.8,0.52,2.0
1758078478.25227,1758078478.26439,0.0,0.0,0.0,-45.55015,-36.38282,-13.23533,9.33,1.1,0.31,2.0
1758078478.2668,1758078478.27439,0.0,0.0,0.0,-47.89928,-41.99781,-15.06879,9.39,1.48,0.1,2.0
1758078478.28287,1758078478.28439,0.0,0.0,0.0,-50.47758,-50.1911,-15.58445,9.39,1.48,0.1,2.0
1758078478.28477,1758078478.29439,0.0,0.0,0.0,-53.97263,-59.70221,-13.98017,9.04,1.6,-0.49,2.0
1758078478.30212,1758078478.30439,0.0,0.0,0.0,-56.26446,-60.38975,-12.14671,9.04,1.6,-0.49,2.0
1758078478.30708,1758078478.31439,0.0,0.0,0.0,-59.18654,-58.15522,-8.88085,9.6,1.36,-1.0,2.0
1758078478.32197,1758078478.32439,0.0,0.0,0.0,-61.76485,-53.51426,-5.61499,9.6,1.36,-1.0,2.0
1758078478.32696,1758078478.33439,0.0,0.0,0.0,-65.14531,-39.87786,-0.45837,10.68,1.07,-0.48,2.0
1758078478.34187,1758078478.34439,0.0,0.0,0.0,-65.83286,-24.80907,1.66158,12.63,0.59,0.44,2.0
1758078478.34502,1758078478.35439,0.0,0.0,0.0,-66.11933,-9.4538,1.71887,12.63,0.59,0.44,2.0
1758078478.36239,1758078478.36439,0.0,0.0,0.0,-64.22858,-1.94806,1.83346,13.66,-0.29,2.2,2.0
1758078478.36674,1758078478.37439,0.0,0.0,0.0,-60.61894,-31.2262,-2.97938,13.66,-0.29,2.2,2.0
1758078478.38677,1758078478.38439,0.0,0.0,0.0,-57.12389,-48.12846,-10.19865,11.81,-1.22,2.32,2.0
1758078478.3878,1758078478.39439,0.0,0.0,0.0,-52.884,-64.40046,-17.99088,11.81,-1.22,2.32,2.0
1758078478.40289,1758078478.40439,0.0,0.0,0.0,-50.3057,-72.0208,-26.98631,12.72,-1.54,1.29,2.0
1758078478.40753,1758078478.41439,0.0,0.0,0.0,-46.2377,-56.26446,-31.62727,13.47,-0.62,1.28,2.0
1758078478.41675,1758078478.42439,0.0,0.0,0.0,-43.60209,-44.28964,-28.64789,13.47,-0.62,1.28,2.0
1758078478.43634,1758078478.43439,0.0,0.0,0.0,-40.68,-38.44547,-22.28806,10.92,0.51,1.69,2.0
1758078478.43764,1758078478.44439,0.0,0.0,0.0,-38.38818,-37.12767,-14.72501,10.92,0.51,1.69,2.0
1758078478.45604,1758078478.45439,0.0,0.0,0.0,-37.52874,-36.38282,-4.23989,8.32,0.55,1.13,2.0
1758078478.45724,1758078478.46439,0.0,0.0,0.0,-38.90384,-35.12231,1.3751,8.32,0.55,1.13,2.0
1758078478.47522,1758078478.47439,0.0,0.0,0.0,-42.34158,-32.83048,4.87014,7.48,0.05,0.38,2.0
1758078478.4765,1758078478.48439,0.0,0.0,0.0,-49.67545,-29.96569,5.27121,7.48,0.05,0.38,2.0
1758078478.49184,1758078478.49439,0.0,0.0,0.0,-54.14451,-23.49127,2.7502,8.27,-0.28,1.73,2.0
1758078478.49481,1758078478.50439,0.0,0.0,0.0,-58.15522,-19.76705,-1.77617,9.74,-0.29,2.27,2.0
1758078478.51093,1758078478.51439,0.0,0.0,0.0,-60.44705,-14.32395,-7.50575,9.74,-0.29,2.27,2.0
1758078478.51188,1758078478.52439,0.0,0.0,0.0,-61.07731,-6.99009,-16.21471,10.63,-0.4,1.63,2.0
1758078478.52688,1758078478.53439,0.0,0.0,0.0,-59.24384,-0.68755,-20.34,10.63,-0.4,1.63,2.0
1758078478.5442,1758078478.54439,0.0,0.0,0.0,-55.86338,6.58902,-22.23076,11.16,-0.73,1.11,2.0
1758078478.54674,1758078478.55439,0.0,0.0,0.0,-50.87865,14.20935,-21.31403,11.16,-0.73,1.11,2.0
1758078478.56216,1758078478.56439,0.0,0.0,0.0,-41.99781,24.35071,-15.64175,11.32,-1.03,0.74,2.0
1758078478.56662,1758078478.57439,0.0,0.0,0.0,-35.86716,28.87707,-10.08406,10.74,-1.25,0.47,2.0
1758078478.58219,1758078478.58439,0.0,0.0,0.0,-30.30947,30.76784,-4.58366,10.74,-1.25,0.47,2.0
1758078478.58586,1758078478.59439,0.0,0.0,0.0,-25.7831,31.45539,0.17189,10.01,-1.29,0.09,2.0
1758078478.60114,1758078478.60439,0.0,0.0,0.0,-21.7151,32.54401,4.87014,10.01,-1.29,0.09,2.0
1758078478.60639,1758078478.61439,0.0,0.0,0.0,-20.3973,31.74186,6.70361,9.86,-1.13,0.05,2.0
1758078478.64747,1758078478.62439,0.0,0.0,0.0,-19.42327,29.9084,7.84952,9.86,-1.13,0.05,2.0
1758078478.677,1758078478.63439,0.0,0.0,0.0,-19.13679,29.10626,8.136,9.84,-0.78,0.06,2.0
1758078478.68196,1758078478.64439,0.0,0.0,0.0,-19.25138,27.38738,7.73493,9.9,-0.58,0.01,2.0
1758078478.69435,1758078478.65439,0.0,0.0,0.0,-19.42327,25.21014,7.10468,9.9,-0.58,0.01,2.0
1758078478.6954,1758078478.66439,0.0,0.0,0.0,-18.85031,22.86102,6.41713,9.46,-0.62,0.12,2.0
1758078478.69905,1758078478.67439,0.0,0.0,0.0,-17.81899,20.22541,5.72958,9.46,-0.62,0.12,2.0
1758078478.70095,1758078478.68439,0.0,0.0,0.0,-15.75634,19.76705,5.15662,9.34,-0.72,0.07,2.0
1758078478.70204,1758078478.69439,0.0,0.0,0.0,-14.20935,19.99623,5.21392,9.34,-0.72,0.07,2.0
1758078478.70717,1758078478.70439,0.0,0.0,0.0,-13.06344,18.16276,4.92744,9.3,-0.68,0.2,2.0
1758078478.70789,1758078478.71439,0.0,0.0,0.0,-12.14671,15.69904,4.35448,9.3,-0.68,0.2,2.0
1758078478.7125,1758078478.72439,0.0,0.0,0.0,-12.2613,14.83961,3.66693,9.04,-0.49,0.2,2.0
1758078478.73096,1758078478.73439,0.0,0.0,0.0,-12.43318,13.75099,2.7502,9.24,-0.25,0.11,2.0
1758078478.73246,1758078478.74439,0.0,0.0,0.0,-13.00614,17.93358,1.77617,9.24,-0.25,0.11,2.0
1758078478.74725,1758078478.75439,0.0,0.0,0.0,-12.77696,9.74028,-1.83346,9.44,0.17,0.28,2.0
1758078478.75247,1758078478.76439,0.0,0.0,0.0,-11.97482,3.60963,-2.46372,9.44,0.17,0.28,2.0
1758078478.77169,1758078478.77439,0.0,0.0,0.0,-11.22997,5.4431,-2.23454,9.28,-0.23,-0.38,2.0
1758078478.77463,1758078478.78439,0.0,0.0,0.0,-10.48513,7.84952,-1.60428,9.28,-0.23,-0.38,2.0
1758078478.79153,1758078478.79439,0.0,0.0,0.0,-8.25059,10.37054,-0.40107,10.02,-0.82,-0.22,2.0
1758078478.79625,1758078478.80439,0.0,0.0,0.0,-6.7609,13.40721,-0.45837,9.57,-0.96,-0.16,2.0
1758078478.81181,1758078478.81439,0.0,0.0,0.0,-5.72958,16.38659,-1.03132,9.57,-0.96,-0.16,2.0
1758078478.81722,1758078478.82439,0.0,0.0,0.0,-4.0107,17.93358,-1.83346,9.25,-0.8,-0.17,2.0
1758078478.83226,1758078478.83439,0.0,0.0,0.0,-1.60428,20.74107,-3.49504,9.25,-0.8,-0.17,2.0
1758078478.83716,1758078478.84439,0.0,0.0,0.0,0.0573,23.49127,-4.46907,9.34,-0.8,-0.18,2.0
1758078478.85229,1758078478.85439,0.0,0.0,0.0,1.94806,24.80907,-5.50039,9.34,-0.8,-0.18,2.0
1758078478.8567,1758078478.86439,0.0,0.0,0.0,4.52637,24.98096,-5.95876,9.45,-0.8,0.0,2.0
1758078478.87226,1758078478.87439,0.0,0.0,0.0,9.05273,21.02755,-5.09932,9.37,-0.88,0.21,2.0
1758078478.8775,1758078478.88439,0.0,0.0,0.0,12.83425,14.83961,-3.09397,9.37,-0.88,0.21,2.0
1758078478.89191,1758078478.89439,0.0,0.0,0.0,16.95955,7.73493,-0.40107,9.21,-0.92,0.21,2.0
1758078478.89666,1758078478.90439,0.0,0.0,0.0,23.0902,0.11459,3.89611,9.21,-0.92,0.21,2.0
1758078478.91227,1758078478.91439,0.0,0.0,0.0,26.75713,-9.96947,6.8182,9.24,-1.06,0.0,2.0
1758078478.91653,1758078478.92439,0.0,0.0,0.0,29.9084,-15.64175,9.4538,9.24,-1.06,0.0,2.0
1758078478.93224,1758078478.93439,0.0,0.0,0.0,33.05967,-20.62648,11.45916,9.51,-1.17,-0.1,2.0
1758078478.93667,1758078478.94439,0.0,0.0,0.0,35.2369,-31.62727,14.66772,9.51,-1.17,-0.1,2.0
1758078478.95203,1758078478.95439,0.0,0.0,0.0,34.95043,-36.7266,15.41257,9.55,-1.12,-0.46,2.0
1758078478.95647,1758078478.96439,0.0,0.0,0.0,34.37747,-34.89313,14.03747,10.37,-0.88,-0.68,2.0
1758078478.97216,1758078478.97439,0.0,0.0,0.0,33.23156,-26.35606,11.34457,10.37,-0.88,-0.68,2.0
1758078478.97669,1758078478.98439,0.0,0.0,0.0,32.25753,-7.39116,6.8182,11.46,-0.57,-0.76,2.0
1758078478.99206,1758078478.99439,0.0,0.0,0.0,31.62727,3.38045,3.89611,11.46,-0.57,-0.76,2.0
1758078478.99643,1758078479.00439,0.0,0.0,0.0,31.74186,6.58902,0.0573,11.05,-0.34,-0.2,2.0
1758078479.0123,1758078479.01439,0.0,0.0,0.0,33.46074,0.57296,-1.71887,11.05,-0.34,-0.2,2.0
1758078479.0175,1758078479.02439,0.0,0.0,0.0,36.03905,-35.52338,-1.83346,9.01,-0.34,-0.18,2.0
1758078479.03205,1758078479.03439,0.0,0.0,0.0,36.6693,-46.98254,2.00535,9.94,-0.33,-0.5,2.0
1758078479.03751,1758078479.04439,0.0,0.0,0.0,34.72124,-42.68536,6.53172,9.94,-0.33,-0.5,2.0
1758078479.05491,1758078479.05439,0.0,0.0,0.0,32.83048,-41.42485,13.23533,14.58,0.54,1.65,2.0
1758078479.05602,1758078479.06439,0.0,0.0,0.0,26.24147,-61.30648,23.60586,14.58,0.54,1.65,2.0
1758078479.07103,1758078479.07439,0.0,0.0,0.0,22.74642,-65.89015,31.16891,14.1,1.9,3.34,2.0
1758078479.07224,1758078479.08439,0.0,0.0,0.0,17.47521,-57.86874,32.48671,14.1,1.9,3.34,2.0
1758078479.08705,1758078479.09439,0.0,0.0,0.0,11.86023,-50.3057,24.63719,13.65,1.7,1.68,2.0
1758078479.1051,1758078479.10439,0.0,0.0,0.0,5.32851,-45.20637,17.24603,9.3,0.62,0.82,2.0
1758078479.10629,1758078479.11439,0.0,0.0,0.0,3.20856,-40.50812,9.4538,9.3,0.62,0.82,2.0
1758078479.12216,1758078479.12439,0.0,0.0,0.0,3.55234,-37.75792,2.92208,7.92,0.0,1.36,2.0
1758078479.12385,1758078479.13439,0.0,0.0,0.0,7.84952,-36.84119,-1.94806,7.92,0.0,1.36,2.0
1758078479.13991,1758078479.14439,0.0,0.0,0.0,11.74564,-31.79916,-1.20321,8.63,0.08,2.14,2.0
1758078479.14275,1758078479.15439,0.0,0.0,0.0,15.12609,-23.94964,1.94806,8.63,0.08,2.14,2.0
1758078479.18653,1758078479.16439,0.0,0.0,0.0,17.58981,-13.69369,6.53172,11.5,0.71,2.58,2.0
1758078479.18819,1758078479.17439,0.0,0.0,0.0,18.85031,-0.74485,13.23533,11.5,0.71,1.82,2.0
1758078479.18882,1758078479.18439,0.0,0.0,0.0,18.79302,6.70361,16.272,11.85,1.21,1.82,2.0
1758078479.19164,1758078479.19439,0.0,0.0,0.0,17.93358,14.38124,17.36062,10.93,1.06,1.38,2.0
1758078479.19228,1758078479.20439,0.0,0.0,0.0,16.272,22.91831,15.87093,10.93,1.06,1.38,2.0
1758078479.21216,1758078479.21439,0.0,0.0,0.0,12.43318,34.0337,10.37054,10.44,0.77,1.12,2.0
1758078479.21501,1758078479.22439,0.0,0.0,0.0,9.91217,38.15899,5.50039,10.44,0.77,1.12,2.0
1758078479.2311,1758078479.23439,0.0,0.0,0.0,7.96411,39.99245,0.85944,10.02,0.66,1.28,2.0
1758078479.2364,1758078479.24439,0.0,0.0,0.0,6.70361,41.08107,-3.03668,10.02,0.66,1.28,2.0
1758078479.25219,1758078479.25439,0.0,0.0,0.0,6.8182,41.88322,-7.39116,10.16,0.7,0.95,2.0
1758078479.25474,1758078479.26439,0.0,0.0,0.0,7.67763,41.48215,-8.30789,10.33,0.84,0.79,2.0
1758078479.27004,1758078479.27439,0.0,0.0,0.0,8.76626,41.02378,-7.84952,10.33,0.84,0.79,2.0
1758078479.27164,1758078479.28439,0.0,0.0,0.0,9.68299,41.25296,-6.7609,10.11,0.89,0.79,2.0
1758078479.28751,1758078479.29439,0.0,0.0,0.0,10.37054,40.68,-3.83882,10.11,0.89,0.79,2.0
1758078479.30668,1758078479.30439,0.0,0.0,0.0,10.19865,39.24761,-2.34913,9.76,0.62,0.81,2.0
1758078479.30964,1758078479.31439,0.0,0.0,0.0,9.68299,38.78925,-1.14592,9.76,0.62,0.81,2.0
1758078479.31267,1758078479.32439,0.0,0.0,0.0,8.25059,37.92981,-1.14592,9.5,0.39,0.83,2.0
1758078479.33221,1758078479.33439,0.0,0.0,0.0,7.39116,34.89313,-1.83346,9.08,0.42,0.77,2.0
1758078479.33869,1758078479.34439,0.0,0.0,0.0,6.41713,32.14294,-2.63561,9.08,0.42,0.77,2.0
1758078479.3568,1758078479.35439,0.0,0.0,0.0,5.72958,29.56462,-3.26586,8.93,0.62,0.73,2.0
1758078479.36122,1758078479.36439,0.0,0.0,0.0,4.92744,26.01229,-3.72423,8.93,0.62,0.73,2.0
1758078479.3626,1758078479.37439,0.0,0.0,0.0,3.95341,23.0902,-3.89611,9.04,0.83,0.66,2.0
1758078479.38168,1758078479.38439,0.0,0.0,0.0,2.86479,20.79837,-3.72423,9.04,0.83,0.66,2.0
1758078479.38381,1758078479.39439,0.0,0.0,0.0,1.3178,18.85031,-3.66693,9.14,0.9,0.54,2.0
1758078479.4021,1758078479.40439,0.0,0.0,0.0,-1.3751,15.92823,-4.69825,9.15,0.95,0.35,2.0
1758078479.40686,1758078479.41439,0.0,0.0,0.0,-3.09397,12.89155,-5.50039,9.15,0.95,0.35,2.0
1758078479.42242,1758078479.42439,0.0,0.0,0.0,-4.18259,9.39651,-6.18794,8.94,0.98,0.19,2.0
1758078479.42378,1758078479.43439,0.0,0.0,0.0,-5.21392,7.62034,-6.53172,8.94,0.98,0.19,2.0
1758078479.4384,1758078479.44439,0.0,0.0,0.0,-5.78687,7.73493,-5.95876,9.03,0.89,0.06,2.0
1758078479.4428,1758078479.45439,0.0,0.0,0.0,-5.78687,8.99544,-4.92744,9.03,0.89,0.06,2.0
1758078479.45747,1758078479.46439,0.0,0.0,0.0,-5.32851,10.37054,-3.03668,9.13,0.66,0.12,2.0
1758078479.47344,1758078479.47439,0.0,0.0,0.0,-4.87014,12.08941,-1.08862,9.13,0.66,0.12,2.0
1758078479.47629,1758078479.48439,0.0,0.0,0.0,-3.95341,14.03747,2.06265,9.21,0.38,0.16,2.0
1758078479.49233,1758078479.49439,0.0,0.0,0.0,-3.60963,14.15206,3.60963,9.28,0.23,0.32,2.0
1758078479.49587,1758078479.50439,0.0,0.0,0.0,-3.83882,13.5218,4.87014,9.28,0.23,0.32,2.0
1758078479.51211,1758078479.51439,0.0,0.0,0.0,-4.52637,13.34992,5.21392,9.31,0.29,0.49,2.0
1758078479.51562,1758078479.52439,0.0,0.0,0.0,-6.18794,10.8862,4.92744,9.31,0.29,0.49,2.0
1758078479.53227,1758078479.53439,0.0,0.0,0.0,-7.73493,8.59437,4.29718,9.17,0.49,0.48,2.0
1758078479.5356,1758078479.54439,0.0,0.0,0.0,-9.39651,5.4431,3.26586,9.17,0.49,0.48,2.0
1758078479.55119,1758078479.55439,0.0,0.0,0.0,-11.80293,-1.3751,1.3178,9.0,0.79,0.42,2.0
1758078479.55273,1758078479.56439,0.0,0.0,0.0,-12.60507,-6.7609,0.17189,8.95,0.91,0.22,2.0
1758078479.56924,1758078479.57439,0.0,0.0,0.0,-13.34992,-12.2613,-0.80214,8.95,0.91,0.22,2.0
1758078479.58595,1758078479.58439,0.0,0.0,0.0,-13.69369,-16.95955,-1.66158,9.13,0.82,0.27,2.0
1758078479.59198,1758078479.59439,0.0,0.0,0.0,-15.29797,-20.16812,-2.23454,9.13,0.82,0.27,2.0
1758078479.59502,1758078479.60439,0.0,0.0,0.0,-17.47521,-21.02755,-2.57831,9.71,0.82,0.35,2.0
1758078479.61121,1758078479.61439,0.0,0.0,0.0,-20.16812,-20.22541,-2.92208,9.71,0.82,0.35,2.0
1758078479.61243,1758078479.62439,0.0,0.0,0.0,-23.94964,-18.10547,-3.26586,10.12,1.14,0.16,2.0
1758078479.63204,1758078479.63439,0.0,0.0,0.0,-30.65324,-13.17803,-3.72423,10.42,1.64,-0.07,2.0
1758078479.63543,1758078479.64439,0.0,0.0,0.0,-35.75257,-11.00079,-4.18259,10.42,1.64,-0.07,2.0
1758078479.65023,1758078479.65439,0.0,0.0,0.0,-40.7946,-9.33921,-4.58366,10.33,1.91,-0.14,2.0
1758078479.65173,1758078479.66439,0.0,0.0,0.0,-45.43555,-9.62569,-5.21392,10.33,1.91,-0.14,2.0
1758078479.66752,1758078479.67439,0.0,0.0,0.0,-50.01921,-11.63104,-5.72958,10.73,1.61,-0.05,2.0
1758078479.68353,1758078479.68439,0.0,0.0,0.0,-51.5662,-12.83425,-6.18794,10.73,1.61,-0.05,2.0
1758078479.68475,1758078479.69439,0.0,0.0,0.0,-50.87865,-15.58445,-6.18794,11.82,0.94,0.06,2.0
1758078479.69949,1758078479.70439,0.0,0.0,0.0,-48.35764,-19.88164,-6.41713,11.82,0.94,0.06,2.0
1758078479.7163,1758078479.71439,0.0,0.0,0.0,-41.31026,-33.05967,-7.79223,12.65,0.0,1.0,2.0
1758078479.71724,1758078479.72439,0.0,0.0,0.0,-34.66395,-44.51882,-11.63104,13.08,-1.22,1.65,2.0
1758078479.73328,1758078479.73439,0.0,0.0,0.0,-27.2155,-50.363,-13.34992,13.08,-1.22,1.65,2.0
1758078479.73635,1758078479.74439,0.0,0.0,0.0,-14.78231,-46.40959,-17.24603,14.16,-1.84,1.62,2.0
1758078479.75147,1758078479.75439,0.0,0.0,0.0,-16.10011,-40.7373,-20.74107,14.16,-1.84,1.62,2.0
1758078479.75276,1758078479.76439,0.0,0.0,0.0,-18.10547,-35.2942,-21.02755,12.67,-0.5,1.33,2.0
1758078479.76752,1758078479.77439,0.0,0.0,0.0,-20.68378,-36.7266,-19.19409,12.67,-0.5,1.33,2.0
1758078479.7843,1758078479.78439,0.0,0.0,0.0,-26.12688,-41.25296,-13.06344,9.81,1.12,1.65,2.0
1758078479.78709,1758078479.79439,0.0,0.0,0.0,-29.22085,-40.45082,-7.16197,8.64,1.63,0.34,2.0
1758078479.80256,1758078479.80439,0.0,0.0,0.0,-32.25753,-41.71133,-2.7502,8.64,1.63,0.34,2.0
1758078479.80623,1758078479.81439,0.0,0.0,0.0,-34.60666,-41.59674,0.80214,8.61,1.01,0.65,2.0
1758078479.82235,1758078479.82439,0.0,0.0,0.0,-36.6693,-38.78925,1.83346,8.61,1.01,0.65,2.0
1758078479.82679,1758078479.83439,0.0,0.0,0.0,-37.18496,-35.69527,0.22918,9.82,-0.17,1.68,2.0
1758078479.84128,1758078479.84439,0.0,0.0,0.0,-37.58603,-31.91375,-3.03668,9.82,-0.17,1.68,2.0
1758078479.84439,1758078479.85439,0.0,0.0,0.0,-38.44547,-27.61657,-7.21927,10.5,-0.91,2.19,2.0
1758078479.8592,1758078479.86439,0.0,0.0,0.0,-40.39353,-19.99623,-13.40721,9.92,-0.65,1.77,2.0
1758078479.87637,1758078479.87439,0.0,0.0,0.0,-42.1124,-15.24068,-16.61578,9.92,-0.65,1.77,2.0
1758078479.87756,1758078479.88439,0.0,0.0,0.0,-43.4875,-10.71431,-18.85031,9.26,-0.26,1.31,2.0
1758078479.89231,1758078479.89439,0.0,0.0,0.0,-44.00316,-6.18794,-19.59516,9.26,-0.26,1.31,2.0
1758078479.89665,1758078479.90439,0.0,0.0,0.0,-42.68536,2.86479,-17.47521,9.53,-0.29,1.04,2.0
1758078479.91254,1758078479.91439,0.0,0.0,0.0,-40.62271,9.11003,-14.43854,9.53,-0.29,1.04,2.0
1758078479.91662,1758078479.92439,0.0,0.0,0.0,-37.29956,16.61578,-10.25595,10.33,-0.65,0.96,2.0
1758078479.93242,1758078479.93439,0.0,0.0,0.0,-31.28349,23.66316,-3.95341,10.33,-0.65,0.96,2.0
1758078479.93665,1758078479.94439,0.0,0.0,0.0,-26.81443,32.6013,-0.22918,10.86,-1.0,0.71,2.0
1758078479.9523,1758078479.95439,0.0,0.0,0.0,-22.63183,37.18496,2.34913,10.56,-1.27,0.28,2.0
1758078479.98681,1758078479.96439,0.0,0.0,0.0,-18.9649,39.64868,4.0107,10.56,-1.27,0.28,2.0
1758078480.06628,1758078479.97439,0.0,0.0,0.0,-15.29797,42.97184,5.4431,10.2,-1.39,0.16,2.0
1758078480.06766,1758078479.98439,0.0,0.0,0.0,-14.03747,44.86259,5.61499,10.2,-1.39,0.16,2.0
1758078480.06807,1758078479.99439,0.0,0.0,0.0,-13.23533,44.00316,5.27121,10.5,-1.03,0.28,2.0
1758078480.06926,1758078480.00439,0.0,0.0,0.0,-13.06344,42.97184,4.64096,10.5,-1.03,0.28,2.0
1758078480.07165,1758078480.01439,0.0,0.0,0.0,-13.12073,42.91454,3.32316,10.23,-0.54,0.39,2.0
1758078480.07485,1758078480.02439,0.0,0.0,0.0,-13.12073,42.39888,2.40642,9.9,-0.32,0.27,2.0
1758078480.07667,1758078480.03439,0.0,0.0,0.0,-12.77696,41.02378,1.83346,9.9,-0.32,0.27,2.0
1758078480.07704,1758078480.04439,0.0,0.0,0.0,-12.49048,39.07573,1.14592,9.3,-0.36,0.4,2.0
1758078480.07906,1758078480.05439,0.0,0.0,0.0,-12.2613,33.51803,0.22918,9.3,-0.36,0.4,2.0
1758078480.08178,1758078480.06439,0.0,0.0,0.0,-11.86023,28.64789,0.0,8.79,-0.43,0.48,2.0
1758078480.08326,1758078480.07439,0.0,0.0,0.0,-11.11538,24.63719,0.11459,8.79,-0.43,0.48,2.0
1758078480.08484,1758078480.08439,0.0,0.0,0.0,-9.85487,20.3973,0.57296,8.69,-0.53,0.59,2.0
1758078480.08673,1758078480.09439,0.0,0.0,0.0,-7.62034,13.46451,1.43239,8.48,-0.67,0.4,2.0
1758078480.10233,1758078480.10439,0.0,0.0,0.0,-6.13065,9.22462,1.60428,8.48,-0.67,0.4,2.0
1758078480.10592,1758078480.11439,0.0,0.0,0.0,-4.98473,5.72958,1.71887,8.38,-0.78,0.23,2.0
1758078480.12161,1758078480.12439,0.0,0.0,0.0,-3.95341,2.6929,1.20321,8.38,-0.78,0.23,2.0
1758078480.12364,1758078480.13439,0.0,0.0,0.0,-3.03668,-1.48969,0.51566,8.54,-0.76,0.16,2.0
1758078480.13866,1758078480.14439,0.0,0.0,0.0,-2.7502,-2.06265,-0.17189,8.54,-0.76,0.16,2.0
1758078480.15591,1758078480.15439,0.0,0.0,0.0,-2.63561,0.0573,-1.66158,9.02,-0.61,0.09,2.0
1758078480.15669,1758078480.16439,0.0,0.0,0.0,-2.6929,5.95876,-4.1253,9.02,-0.61,0.09,2.0
1758078480.17249,1758078480.17439,0.0,0.0,0.0,-2.34913,9.96947,-5.72958,9.44,-0.43,0.16,2.0
1758078480.18112,1758078480.18439,0.0,0.0,0.0,-1.77617,13.80828,-7.33386,9.41,-0.37,0.25,2.0
1758078480.18152,1758078480.19439,0.0,0.0,0.0,-0.97403,17.13144,-8.88085,9.41,-0.37,0.25,2.0
1758078480.19741,1758078480.20439,0.0,0.0,0.0,1.03132,18.33465,-10.08406,9.17,-0.52,0.31,2.0
1758078480.20263,1758078480.21439,0.0,0.0,0.0,3.09397,19.07949,-10.02676,9.17,-0.52,0.31,2.0
1758078480.22065,1758078480.22439,0.0,0.0,0.0,5.50039,19.13679,-9.33921,9.19,-0.68,0.23,2.0
1758078480.22196,1758078480.23439,0.0,0.0,0.0,8.136,17.13144,-8.136,9.19,-0.68,0.23,2.0
1758078480.23744,1758078480.24439,0.0,0.0,0.0,11.28727,13.75099,-6.18794,9.18,-0.59,0.19,2.0
1758078480.2423,1758078480.25439,0.0,0.0,0.0,13.34992,9.91217,-4.87014,9.18,-0.38,0.19,2.0
1758078480.25765,1758078480.26439,0.0,0.0,0.0,15.12609,5.61499,-4.23989,9.18,-0.38,0.19,2.0
1758078480.26273,1758078480.27439,0.0,0.0,0.0,16.84496,1.3178,-3.60963,9.19,-0.29,-0.04,2.0
1758078480.2782,1758078480.28439,0.0,0.0,0.0,18.33465,-0.97403,-3.83882,9.19,-0.29,-0.04,2.0
1758078480.2867,1758078480.29439,0.0,0.0,0.0,19.82434,-0.68755,-3.66693,9.98,-0.34,0.04,2.0
1758078480.30265,1758078480.30439,0.0,0.0,0.0,21.7724,-2.23454,-2.97938,9.98,-0.34,0.04,2.0
1758078480.31099,1758078480.31439,0.0,0.0,0.0,23.94964,-6.07335,-2.63561,10.07,-0.57,-0.02,2.0
1758078480.31246,1758078480.32439,0.0,0.0,0.0,27.96034,-11.91752,-1.48969,10.03,-0.85,-0.66,2.0
1758078480.33169,1758078480.33439,0.0,0.0,0.0,30.99702,-16.50119,-1.14592,10.03,-0.85,-0.66,2.0
1758078480.33538,1758078480.34439,0.0,0.0,0.0,34.32018,-20.05352,-0.51566,10.35,-1.11,-1.11,2.0
1758078480.35252,1758078480.35439,0.0,0.0,0.0,39.82057,-23.83505,1.20321,10.35,-1.11,-1.11,2.0
1758078480.35506,1758078480.36439,0.0,0.0,0.0,42.39888,-25.61122,4.0107,11.6,-1.0,-0.67,2.0
1758078480.37042,1758078480.37439,0.0,0.0,0.0,42.34158,-23.66316,7.33386,11.6,-1.0,-0.67,2.0
1758078480.37194,1758078480.38439,0.0,0.0,0.0,39.76327,-27.33009,11.45916,14.54,0.31,1.67,2.0
1758078480.38674,1758078480.39439,0.0,0.0,0.0,32.08564,-41.65404,18.56383,14.54,0.31,1.67,2.0
1758078480.4024,1758078480.40439,0.0,0.0,0.0,25.55392,-44.57612,21.60051,14.91,1.9,3.43,2.0
1758078480.40442,1758078480.41439,0.0,0.0,0.0,19.48057,-44.40423,23.31938,13.84,1.63,2.15,2.0
1758078480.4221,1758078480.42439,0.0,0.0,0.0,13.46451,-40.04975,20.97026,13.84,1.63,2.15,2.0
1758078480.42299,1758078480.43439,0.0,0.0,0.0,6.58902,-30.82513,14.32395,11.51,0.4,1.65,2.0
1758078480.43878,1758078480.44439,0.0,0.0,0.0,5.32851,-20.05352,8.99544,11.51,0.4,1.65,2.0
1758078480.4485,1758078480.45439,0.0,0.0,0.0,5.55769,-11.51645,3.26586,10.33,-0.13,2.06,2.0
1758078480.49726,1758078480.46439,0.0,0.0,0.0,5.4431,-23.94964,-5.32851,10.33,-0.13,2.06,2.0
1758078480.52194,1758078480.47439,0.0,0.0,0.0,20.68378,-57.46767,-0.34377,6.94,0.27,2.99,2.0
1758078480.52232,1758078480.48439,0.0,0.0,0.0,29.10626,-53.39967,5.50039,9.7,0.0,1.73,2.0
1758078480.52863,1758078480.49439,0.0,0.0,0.0,33.46074,-34.14828,9.11003,9.7,0.0,1.73,2.0
1758078480.53093,1758078480.50439,0.0,0.0,0.0,35.3515,-22.05888,14.20935,12.53,0.26,2.18,2.0
1758078480.53183,1758078480.51439,0.0,0.0,0.0,32.88778,-17.24603,18.44924,12.53,0.26,2.18,2.0
1758078480.53245,1758078480.52439,0.0,0.0,0.0,28.36141,-11.91752,18.50654,10.2,0.56,3.16,2.0
1758078480.53479,1758078480.53439,0.0,0.0,0.0,22.28806,-3.55234,15.92823,10.2,0.56,3.16,2.0
1758078480.5375,1758078480.54439,0.0,0.0,0.0,15.87093,4.64096,9.22462,9.99,1.28,1.31,2.0
1758078480.55699,1758078480.55439,0.0,0.0,0.0,6.87549,14.49583,4.58366,9.53,2.02,1.11,2.0
1758078480.55867,1758078480.56439,0.0,0.0,0.0,2.00535,19.82434,0.0,9.53,2.02,1.11,2.0
1758078480.5769,1758078480.57439,0.0,0.0,0.0,-1.66158,24.12152,-4.1253,9.5,2.2,1.44,2.0
1758078480.58208,1758078480.58439,0.0,0.0,0.0,-3.89611,31.39809,-8.25059,9.5,2.2,1.44,2.0
1758078480.58325,1758078480.59439,0.0,0.0,0.0,-3.60963,36.21093,-9.39651,9.91,1.65,1.34,2.0
1758078480.60179,1758078480.60439,0.0,0.0,0.0,-2.63561,40.16434,-9.91217,9.91,1.65,1.34,2.0
1758078480.60447,1758078480.61439,0.0,0.0,0.0,-1.48969,45.03448,-9.62569,10.15,0.93,1.31,2.0
1758078480.62172,1758078480.62439,0.0,0.0,0.0,-0.45837,50.47758,-8.30789,10.15,0.93,1.3,2.0
1758078480.62269,1758078480.63439,0.0,0.0,0.0,-0.17189,51.39432,-7.04738,10.04,0.49,1.3,2.0
1758078480.63928,1758078480.64439,0.0,0.0,0.0,-0.45837,50.01921,-5.84417,9.5,0.49,1.4,2.0
1758078480.64404,1758078480.65439,0.0,0.0,0.0,-0.57296,48.24305,-4.35448,9.5,0.49,1.4,2.0
1758078480.65928,1758078480.66439,0.0,0.0,0.0,-1.66158,45.77933,-3.03668,9.33,0.65,1.25,2.0
1758078480.66137,1758078480.67439,0.0,0.0,0.0,-2.40642,43.77398,-2.46372,9.33,0.65,1.25,2.0
1758078480.67857,1758078480.68439,0.0,0.0,0.0,-3.26586,41.94051,-2.23454,9.11,0.82,1.14,2.0
1758078480.68189,1758078480.69439,0.0,0.0,0.0,-4.23989,40.10705,-2.92208,9.11,0.82,1.14,2.0
1758078480.69777,1758078480.70439,0.0,0.0,0.0,-4.92744,35.86716,-3.38045,8.91,0.95,1.12,2.0
1758078480.71618,1758078480.71439,0.0,0.0,0.0,-5.15662,32.71589,-3.32316,8.75,0.97,1.08,2.0
1758078480.72223,1758078480.72439,0.0,0.0,0.0,-5.78687,30.53865,-3.38045,8.75,0.97,1.08,2.0
1758078480.72277,1758078480.73439,0.0,0.0,0.0,-6.87549,27.73116,-3.55234,8.9,0.98,1.14,2.0
1758078480.73877,1758078480.74439,0.0,0.0,0.0,-9.4538,21.48592,-5.15662,8.9,0.98,1.14,2.0
1758078480.76716,1758078480.75439,0.0,0.0,0.0,-11.51645,16.38659,-6.35983,8.68,1.09,0.96,2.0
1758078480.76783,1758078480.76439,0.0,0.0,0.0,-13.40721,13.00614,-7.21927,8.68,1.09,0.96,2.0
1758078480.77632,1758078480.77439,0.0,0.0,0.0,-15.92823,10.08406,-7.67763,8.93,1.22,0.65,2.0
1758078480.7768,1758078480.78439,0.0,0.0,0.0,-17.18874,8.88085,-7.79223,9.1,1.12,0.47,2.0
1758078480.79596,1758078480.79439,0.0,0.0,0.0,-17.36062,8.36518,-6.70361,9.1,1.12,0.47,2.0
1758078480.79712,1758078480.80439,0.0,0.0,0.0,-17.24603,9.22462,-5.27121,9.16,0.77,0.37,2.0
1758078480.81496,1758078480.81439,0.0,0.0,0.0,-15.64175,10.54242,-2.46372,9.16,0.77,0.37,2.0
1758078480.81692,1758078480.82439,0.0,0.0,0.0,-13.86558,10.59972,-0.40107,9.15,0.28,0.65,2.0
1758078480.83498,1758078480.83439,0.0,0.0,0.0,-12.43318,11.11538,1.03132,9.15,0.28,0.65,2.0
1758078480.84098,1758078480.84439,0.0,0.0,0.0,-10.65701,12.14671,2.63561,9.39,-0.09,0.78,2.0
1758078480.84152,1758078480.85439,0.0,0.0,0.0,-8.47978,12.43318,4.23989,9.62,-0.14,0.9,2.0
1758078480.85847,1758078480.86439,0.0,0.0,0.0,-7.39116,11.97482,4.92744,9.62,-0.14,0.9,2.0
1758078480.86227,1758078480.87439,0.0,0.0,0.0,-6.7609,9.33921,5.32851,9.42,0.09,0.88,2.0
1758078480.87844,1758078480.88439,0.0,0.0,0.0,-6.53172,6.70361,5.09932,9.42,0.09,0.88,2.0
1758078480.88194,1758078480.89439,0.0,0.0,0.0,-6.58902,2.57831,3.95341,9.12,0.48,0.64,2.0
1758078480.90134,1758078480.90439,0.0,0.0,0.0,-6.7609,-1.48969,2.86479,9.12,0.48,0.64,2.0
1758078480.90267,1758078480.91439,0.0,0.0,0.0,-7.04738,-5.50039,1.83346,8.87,0.78,0.59,2.0
1758078480.91864,1758078480.92439,0.0,0.0,0.0,-7.33386,-10.19865,1.03132,8.87,0.78,0.59,2.0
1758078480.92279,1758078480.93439,0.0,0.0,0.0,-7.79223,-17.13144,0.57296,8.94,0.74,0.59,2.0
1758078480.94087,1758078480.94439,0.0,0.0,0.0,-8.70896,-20.79837,0.40107,9.32,0.58,0.59,2.0
1758078480.94265,1758078480.95439,0.0,0.0,0.0,-10.31324,-23.66316,0.17189,9.32,0.58,0.59,2.0
1758078480.96086,1758078480.96439,0.0,0.0,0.0,-12.71966,-24.86637,-0.57296,9.76,0.72,0.41,2.0
1758078480.96201,1758078480.97439,0.0,0.0,0.0,-17.18874,-24.12152,-1.66158,9.76,0.72,0.41,2.0
1758078480.97772,1758078480.98439,0.0,0.0,0.0,-20.74107,-23.31938,-2.46372,10.08,1.15,0.14,2.0
1758078480.98041,1758078480.99439,0.0,0.0,0.0,-24.57989,-22.23076,-2.92208,10.08,1.15,0.14,2.0
1758078480.99864,1758078481.00439,0.0,0.0,0.0,-30.48136,-22.05888,-2.23454,10.14,1.54,-0.29,2.0
1758078481.00199,1758078481.01439,0.0,0.0,0.0,-34.72124,-22.23076,-1.03132,10.16,1.71,-0.71,2.0
1758078481.01801,1758078481.02439,0.0,0.0,0.0,-38.56006,-23.72045,1.03132,10.16,1.71,-0.71,2.0
1758078481.03623,1758078481.03439,0.0,0.0,0.0,-42.74266,-24.75178,2.92208,10.29,1.53,-0.93,2.0
1758078481.0372,1758078481.04439,0.0,0.0,0.0,-47.78468,-22.91831,6.47442,10.29,1.53,-0.93,2.0
1758078481.05491,1758078481.05439,0.0,0.0,0.0,-50.3057,-20.97026,8.25059,11.16,1.09,-0.32,2.0
1758078481.05788,1758078481.06439,0.0,0.0,0.0,-51.10783,-20.45459,8.99544,11.16,1.09,-0.32,2.0
1758078481.07671,1758078481.07439,0.0,0.0,0.0,-50.76406,-24.23611,7.73493,12.27,0.37,1.18,2.0
1758078481.07975,1758078481.08439,0.0,0.0,0.0,-47.78468,-32.6013,2.29183,13.58,-0.72,2.68,2.0
1758078481.08188,1758078481.09439,0.0,0.0,0.0,-44.57612,-29.8511,-3.55234,13.58,-0.72,2.68,2.0
1758078481.09843,1758078481.10439,0.0,0.0,0.0,-37.52874,-36.84119,-7.50575,14.61,-1.46,2.97,2.0
1758078481.10201,1758078481.11439,0.0,0.0,0.0,-36.84119,-51.85268,-16.10011,14.61,-1.46,2.97,2.0
1758078481.11952,1758078481.12439,0.0,0.0,0.0,-36.15364,-64.28587,-24.92367,11.84,-0.6,3.1,2.0
1758078481.12232,1758078481.13439,0.0,0.0,0.0,-37.52874,-65.54638,-27.61657,11.84,-0.6,3.1,2.0
1758078481.13794,1758078481.14439,0.0,0.0,0.0,-37.92981,-60.96271,-25.7831,10.13,1.04,1.64,2.0
1758078481.14236,1758078481.15439,0.0,0.0,0.0,-37.47144,-58.3844,-20.3973,10.13,1.04,1.64,2.0
1758078481.16647,1758078481.16439,0.0,0.0,0.0,-36.6693,-57.41038,-10.37054,7.94,1.45,1.56,2.0
1758078481.26153,1758078481.17439,0.0,0.0,0.0,-36.55471,-55.51962,-4.0107,7.04,0.66,1.75,2.0
1758078481.26728,1758078481.18439,0.0,0.0,0.0,-36.26823,-50.82136,1.03132,7.04,0.66,1.75,2.0
1758078481.27701,1758078481.19439,0.0,0.0,0.0,-35.92446,-42.22699,4.18259,8.88,-0.66,2.04,2.0
1758078481.28105,1758078481.20439,0.0,0.0,0.0,-35.69527,-36.61201,2.34913,8.88,-0.66,2.04,2.0
1758078481.28195,1758078481.21439,0.0,0.0,0.0,-34.89313,-30.53865,-0.97403,11.21,-1.62,2.0,2.0
1758078481.2868,1758078481.22439,0.0,0.0,0.0,-33.9764,-23.54857,-5.78687,11.21,-1.62,2.0,2.0
1758078481.28728,1758078481.23439,0.0,0.0,0.0,-32.08564,-11.34457,-11.86023,11.87,-1.11,1.56,2.0
1758078481.29673,1758078481.24439,0.0,0.0,0.0,-30.19488,-4.58366,-13.5791,11.18,-0.19,1.05,2.0
1758078481.29712,1758078481.25439,0.0,0.0,0.0,-27.78845,3.09397,-13.5218,11.18,-0.19,1.05,2.0
1758078481.30178,1758078481.26439,0.0,0.0,0.0,-24.4653,11.22997,-11.51645,10.61,0.1,1.09,2.0
1758078481.30427,1758078481.27439,0.0,0.0,0.0,-18.79302,20.3973,-6.87549,10.61,0.1,1.09,2.0
1758078481.30731,1758078481.28439,0.0,0.0,0.0,-14.20935,25.8404,-3.38045,10.28,-0.3,0.98,2.0
1758078481.31247,1758078481.29439,0.0,0.0,0.0,-9.62569,30.30947,-0.0573,10.28,-0.3,0.98,2.0
1758078481.32221,1758078481.30439,0.0,0.0,0.0,-5.4431,33.11696,2.46372,10.21,-0.97,1.01,2.0
1758078481.35268,1758078481.31439,0.0,0.0,0.0,-0.11459,36.55471,5.27121,10.14,-1.19,0.9,2.0
1758078481.37827,1758078481.32439,0.0,0.0,0.0,2.34913,38.56006,6.07335,10.14,-1.19,0.9,2.0
1758078481.38234,1758078481.33439,0.0,0.0,0.0,4.18259,39.4195,6.13065,10.03,-1.01,0.84,2.0
1758078481.38657,1758078481.34439,0.0,0.0,0.0,5.21392,37.87251,5.4431,10.03,-1.01,0.84,2.0
1758078481.387,1758078481.35439,0.0,0.0,0.0,6.18794,34.43476,3.89611,9.43,-0.73,0.62,2.0
1758078481.39263,1758078481.36439,0.0,0.0,0.0,6.7609,32.20023,2.6929,9.43,-0.73,0.62,2.0
1758078481.39719,1758078481.37439,0.0,0.0,0.0,7.10468,29.8511,1.48969,9.1,-0.51,0.4,2.0
1758078481.3985,1758078481.38439,0.0,0.0,0.0,8.30789,28.01764,0.68755,9.1,-0.51,0.4,2.0
1758078481.39961,1758078481.39439,0.0,0.0,0.0,8.99544,23.83505,0.45837,8.96,-0.35,0.56,2.0
1758078481.4023,1758078481.40439,0.0,0.0,0.0,9.96947,20.97026,0.57296,8.94,-0.2,0.73,2.0
1758078481.403,1758078481.41439,0.0,0.0,0.0,11.45916,18.27736,1.14592,8.94,-0.2,0.73,2.0
1758078481.41891,1758078481.42439,0.0,0.0,0.0,13.75099,13.86558,2.63561,9.25,-0.18,0.68,2.0
1758078481.41992,1758078481.43439,0.0,0.0,0.0,15.64175,11.86023,4.23989,9.25,-0.18,0.68,2.0
1758078481.43683,1758078481.44439,0.0,0.0,0.0,17.18874,10.94349,5.72958,9.47,-0.36,0.32,2.0
1758078481.45617,1758078481.45439,0.0,0.0,0.0,18.22006,9.62569,6.8182,9.47,-0.36,0.32,2.0
1758078481.46064,1758078481.46439,0.0,0.0,0.0,18.79302,8.76626,7.33386,9.47,-0.42,0.08,2.0
1758078481.46175,1758078481.47439,0.0,0.0,0.0,18.79302,8.136,6.8182,9.34,-0.26,-0.1,2.0
1758078481.48119,1758078481.48439,0.0,0.0,0.0,18.27736,7.73493,5.61499,9.34,-0.26,-0.1,2.0
1758078481.48242,1758078481.49439,0.0,0.0,0.0,17.6471,7.16197,4.29718,9.13,-0.06,-0.17,2.0
1758078481.49806,1758078481.50439,0.0,0.0,0.0,16.95955,6.24524,2.06265,9.13,-0.06,-0.17,2.0
1758078481.50135,1758078481.51439,0.0,0.0,0.0,16.67307,7.44845,1.08862,8.98,0.11,-0.02,2.0
1758078481.5171,1758078481.52439,0.0,0.0,0.0,16.3293,10.31324,-0.11459,8.98,0.11,-0.02,2.0
1758078481.53595,1758078481.53439,0.0,0.0,0.0,16.10011,13.69369,-0.85944,9.16,0.25,0.01,2.0
1758078481.53717,1758078481.54439,0.0,0.0,0.0,15.69904,18.22006,-2.11994,9.17,0.22,0.15,2.0
1758078481.55621,1758078481.55439,0.0,0.0,0.0,15.87093,20.74107,-2.92208,9.17,0.22,0.15,2.0
1758078481.55755,1758078481.56439,0.0,0.0,0.0,16.04282,22.74642,-3.20856,9.25,0.13,0.1,2.0
1758078481.57282,1758078481.57439,0.0,0.0,0.0,16.3293,24.23611,-3.55234,9.25,0.13,0.1,2.0
1758078481.57632,1758078481.58439,0.0,0.0,0.0,17.36062,24.92367,-3.60963,9.41,0.1,0.1,2.0
1758078481.59181,1758078481.59439,0.0,0.0,0.0,18.50654,24.23611,-3.49504,9.41,0.1,0.1,2.0
1758078481.59572,1758078481.60439,0.0,0.0,0.0,19.76705,22.34536,-2.86479,9.58,0.06,0.16,2.0
1758078481.61205,1758078481.61439,0.0,0.0,0.0,21.42862,18.9649,-2.00535,9.58,0.06,0.16,2.0
1758078481.61569,1758078481.62439,0.0,0.0,0.0,22.40265,15.46986,-1.20321,9.62,-0.04,0.08,2.0
1758078481.63077,1758078481.63439,0.0,0.0,0.0,23.0329,11.17268,-0.11459,9.56,-0.09,0.01,2.0
1758078481.63206,1758078481.64439,0.0,0.0,0.0,23.83505,6.18794,0.80214,9.56,-0.09,0.01,2.0
1758078481.64697,1758078481.65439,0.0,0.0,0.0,24.5226,-2.23454,2.34913,9.47,-0.12,-0.14,2.0
1758078481.65231,1758078481.66439,0.0,0.0,0.0,25.55392,-6.35983,3.49504,9.47,-0.12,-0.14,2.0
1758078481.67009,1758078481.67439,0.0,0.0,0.0,26.87172,-9.85487,4.87014,9.52,-0.17,-0.36,2.0
1758078481.67583,1758078481.68439,0.0,0.0,0.0,28.36141,-12.14671,6.07335,9.52,-0.17,-0.36,2.0
1758078481.69096,1758078481.69439,0.0,0.0,0.0,31.39809,-14.03747,6.99009,9.77,-0.32,-0.67,2.0
1758078481.69528,1758078481.70439,0.0,0.0,0.0,33.05967,-15.35527,7.79223,10.09,-0.47,-1.13,2.0
1758078481.71078,1758078481.71439,0.0,0.0,0.0,34.32018,-16.67307,8.36518,10.09,-0.47,-1.13,2.0
1758078481.71199,1758078481.72439,0.0,0.0,0.0,35.63798,-18.9649,8.88085,10.72,-0.51,-1.07,2.0
1758078481.72681,1758078481.73439,0.0,0.0,0.0,35.98175,-19.59516,8.36518,10.72,-0.51,-1.07,2.0
1758078481.7323,1758078481.74439,0.0,0.0,0.0,35.75257,-16.272,8.36518,12.12,-0.09,-0.74,2.0
1758078481.75209,1758078481.75439,0.0,0.0,0.0,33.23156,-14.66772,8.88085,12.12,-0.09,-0.74,2.0
1758078481.76129,1758078481.76439,0.0,0.0,0.0,29.67921,-16.3293,11.80293,13.66,0.97,1.25,2.0
1758078481.76168,1758078481.77439,0.0,0.0,0.0,20.11082,-14.43854,20.05352,15.57,2.65,4.11,2.0
1758078481.77803,1758078481.78439,0.0,0.0,0.0,12.204,-8.02141,25.61122,15.57,2.65,4.11,2.0
1758078481.80658,1758078481.79439,0.0,0.0,0.0,5.55769,-16.90226,29.96569,14.65,2.98,4.2,2.0
1758078481.80717,1758078481.80439,0.0,0.0,0.0,1.66158,-34.32018,28.13223,14.65,2.98,4.2,2.0
1758078481.81267,1758078481.81439,0.0,0.0,0.0,2.97938,-59.41573,26.35606,8.48,0.16,2.16,2.0
1758078481.81728,1758078481.82439,0.0,0.0,0.0,5.27121,-57.18119,21.6578,8.48,0.16,2.16,2.0
1758078481.83707,1758078481.83439,0.0,0.0,0.0,9.05273,-46.46688,14.72501,9.1,-1.84,0.33,2.0
1758078481.84198,1758078481.84439,0.0,0.0,0.0,17.47521,-43.02913,6.35983,9.1,-1.84,0.33,2.0
1758078481.84375,1758078481.85439,0.0,0.0,0.0,23.37668,-46.2377,2.63561,8.42,-1.78,1.58,2.0
1758078481.86212,1758078481.86439,0.0,0.0,0.0,27.38738,-45.09178,1.14592,9.25,-0.22,3.14,2.0
1758078481.86335,1758078481.87439,0.0,0.0,0.0,28.24682,-37.47144,2.29183,9.25,-0.22,3.14,2.0
1758078481.87947,1758078481.88439,0.0,0.0,0.0,24.5226,-21.88699,6.70361,12.21,2.08,2.59,2.0
1758078481.88219,1758078481.89439,0.0,0.0,0.0,20.97026,-13.98017,9.96947,12.21,2.08,2.59,2.0
1758078481.89899,1758078481.90439,0.0,0.0,0.0,18.27736,-7.73493,12.49048,11.14,2.37,2.03,2.0
1758078481.90029,1758078481.91439,0.0,0.0,0.0,16.50119,-1.83346,14.32395,11.14,2.37,2.03,2.0
1758078481.91677,1758078481.92439,0.0,0.0,0.0,15.75634,9.28192,14.38124,9.67,1.18,1.44,2.0
1758078481.92215,1758078481.93439,0.0,0.0,0.0,16.10011,17.53251,13.00614,10.06,0.17,1.44,2.0
1758078481.94126,1758078481.94439,0.0,0.0,0.0,16.67307,25.89769,10.54242,10.06,0.17,1.44,2.0
1758078481.94224,1758078481.95439,0.0,0.0,0.0,16.84496,34.60666,7.39116,10.73,-0.12,1.59,2.0
1758078481.96121,1758078481.96439,0.0,0.0,0.0,16.272,47.44091,2.34913,10.73,-0.12,1.59,2.0
1758078481.96225,1758078481.97439,0.0,0.0,0.0,15.58445,52.65482,-1.43239,10.96,0.31,1.66,2.0
1758078481.97892,1758078481.98439,0.0,0.0,0.0,15.06879,51.79538,-4.1253,10.96,0.31,1.66,2.0
1758078481.98138,1758078481.99439,0.0,0.0,0.0,15.0115,49.67545,-5.15662,9.89,0.94,1.29,2.0
1758078481.99715,1758078482.00438,0.0,0.0,0.0,14.61043,48.9879,-4.64096,9.82,1.34,1.06,2.0
1758078482.01656,1758078482.01438,0.0,0.0,0.0,14.03747,48.58683,-3.66693,9.82,1.34,1.06,2.0
1758078482.01776,1758078482.02438,0.0,0.0,0.0,13.34992,47.15443,-2.6929,9.39,1.2,1.06,2.0
1758078482.03683,1758078482.03438,0.0,0.0,0.0,11.97482,45.43555,-1.83346,9.39,1.2,1.06,2.0
1758078482.03962,1758078482.04438,0.0,0.0,0.0,11.00079,44.28964,-1.71887,9.14,0.82,1.32,2.0
1758078482.04184,1758078482.05438,0.0,0.0,0.0,10.19865,43.4875,-2.11994,9.14,0.82,1.32,2.0
1758078482.0586,1758078482.06438,0.0,0.0,0.0,9.39651,43.20102,-2.7502,9.03,0.54,1.33,2.0
1758078482.06105,1758078482.07438,0.0,0.0,0.0,8.30789,43.25832,-4.52637,9.03,0.54,1.49,2.0
1758078482.07719,1758078482.08438,0.0,0.0,0.0,8.02141,42.34158,-4.98473,8.99,0.51,1.49,2.0
1758078482.09551,1758078482.09438,0.0,0.0,0.0,7.62034,40.45082,-5.50039,8.78,0.56,1.52,2.0
1758078482.09673,1758078482.10438,0.0,0.0,0.0,7.62034,37.01308,-5.27121,8.78,0.56,1.52,2.0
1758078482.11193,1758078482.11438,0.0,0.0,0.0,7.10468,32.14294,-4.35448,8.75,0.64,1.26,2.0
1758078482.11632,1758078482.12438,0.0,0.0,0.0,6.41713,28.30412,-3.83882,8.75,0.64,1.26,2.0
1758078482.13218,1758078482.13438,0.0,0.0,0.0,5.55769,23.72045,-3.26586,8.86,0.78,0.98,2.0
1758078482.13712,1758078482.14438,0.0,0.0,0.0,4.92744,19.70975,-2.57831,8.86,0.78,0.98,2.0
1758078482.15203,1758078482.15438,0.0,0.0,0.0,3.66693,16.21471,-1.48969,8.99,0.94,0.78,2.0
1758078482.15708,1758078482.16438,0.0,0.0,0.0,2.7502,12.60507,-1.20321,9.01,0.92,0.72,2.0
1758078482.17221,1758078482.17438,0.0,0.0,0.0,1.66158,8.93814,-1.3178,9.01,0.92,0.72,2.0
1758078482.17715,1758078482.18438,0.0,0.0,0.0,0.68755,7.84952,-1.20321,9.0,0.8,0.58,2.0
1758078482.19204,1758078482.19438,0.0,0.0,0.0,-0.80214,9.96947,-0.74485,9.0,0.8,0.58,2.0
1758078482.1971,1758078482.20438,0.0,0.0,0.0,-1.66158,11.51645,-0.34377,9.29,0.78,0.67,2.0
1758078482.2122,1758078482.21438,0.0,0.0,0.0,-2.34913,13.5218,0.45837,9.29,0.78,0.67,2.0
1758078482.21709,1758078482.22438,0.0,0.0,0.0,-4.0107,14.38124,1.48969,9.39,0.81,0.88,2.0
1758078482.23519,1758078482.23438,0.0,0.0,0.0,-5.32851,14.9542,1.94806,9.3,0.77,0.86,2.0
1758078482.23714,1758078482.24438,0.0,0.0,0.0,-6.99009,14.78231,1.66158,9.3,0.77,0.86,2.0
1758078482.25227,1758078482.25438,0.0,0.0,0.0,-8.36518,13.06344,1.20321,9.03,0.65,0.78,2.0
1758078482.26069,1758078482.26438,0.0,0.0,0.0,-10.59972,8.59437,0.0573,9.03,0.65,0.78,2.0
1758078482.2909,1758078482.27438,0.0,0.0,0.0,-11.74564,3.89611,-0.68755,8.77,0.66,0.76,2.0
1758078482.29207,1758078482.28438,0.0,0.0,0.0,-12.60507,-0.97403,-1.77617,8.77,0.66,0.76,2.0
1758078482.29595,1758078482.29438,0.0,0.0,0.0,-13.06344,-7.33386,-2.63561,8.54,0.78,0.63,2.0
1758078482.29866,1758078482.30438,0.0,0.0,0.0,-12.54778,-17.53251,-3.66693,8.61,0.72,0.63,2.0
1758078482.30259,1758078482.31438,0.0,0.0,0.0,-12.14671,-24.12152,-4.35448,8.61,0.72,0.63,2.0
1758078482.32224,1758078482.32438,0.0,0.0,0.0,-11.91752,-30.13758,-4.69825,9.09,0.59,0.65,2.0
1758078482.32717,1758078482.33438,0.0,0.0,0.0,-12.54778,-33.63263,-4.98473,9.09,0.59,0.65,2.0
1758078482.37149,1758078482.34438,0.0,0.0,0.0,-15.35527,-35.69527,-5.55769,9.74,0.76,0.58,2.0
1758078482.37281,1758078482.35438,0.0,0.0,0.0,-18.50654,-35.58068,-5.84417,9.74,0.76,0.58,2.0
1758078482.37477,1758078482.36438,0.0,0.0,0.0,-22.34536,-34.95043,-5.84417,10.14,1.24,0.54,2.0
1758078482.37915,1758078482.37438,0.0,0.0,0.0,-26.69983,-34.72124,-6.07335,10.14,1.24,0.54,2.0
1758078482.38051,1758078482.38438,0.0,0.0,0.0,-32.83048,-35.63798,-7.50575,10.75,1.56,1.18,2.0
1758078482.38333,1758078482.39438,0.0,0.0,0.0,-35.40879,-36.32552,-8.88085,12.43,1.02,1.88,2.0
1758078482.40224,1758078482.40438,0.0,0.0,0.0,-36.55471,-36.26823,-10.31324,12.43,1.02,1.88,2.0
1758078482.40742,1758078482.41438,0.0,0.0,0.0,-34.66395,-36.95578,-12.60507,13.96,0.17,2.44,2.0
1758078482.42233,1758078482.42438,0.0,0.0,0.0,-31.2262,-38.50277,-14.03747,13.96,0.17,2.44,2.0
1758078482.42744,1758078482.43438,0.0,0.0,0.0,-27.33009,-39.07573,-16.3293,14.17,-0.44,2.19,2.0
1758078482.442,1758078482.44438,0.0,0.0,0.0,-22.40265,-38.44547,-15.87093,14.17,-0.44,2.19,2.0
1758078482.4472,1758078482.45438,0.0,0.0,0.0,-17.58981,-34.66395,-12.89155,13.07,-0.41,1.2,2.0
1758078482.477,1758078482.46438,0.0,0.0,0.0,-16.21471,-31.74186,-8.70896,11.48,0.12,1.1,2.0
1758078482.48356,1758078482.47438,0.0,0.0,0.0,-16.84496,-33.80451,-4.87014,11.48,0.12,1.1,2.0
1758078482.48409,1758078482.48438,0.0,0.0,0.0,-19.25138,-45.77933,-2.7502,9.44,0.38,1.54,2.0
1758078482.48538,1758078482.49438,0.0,0.0,0.0,-24.92367,-58.49899,-1.77617,9.44,0.38,1.54,2.0
1758078482.50212,1758078482.50438,0.0,0.0,0.0,-30.02299,-46.1804,-2.29183,9.65,0.71,1.59,2.0
1758078482.50381,1758078482.51438,0.0,0.0,0.0,-38.78925,-26.98631,-6.07335,9.65,0.71,1.59,2.0
1758078482.51947,1758078482.52438,0.0,0.0,0.0,-46.86795,-20.11082,-10.19865,11.47,0.91,2.44,2.0
1758078482.52264,1758078482.53438,0.0,0.0,0.0,-54.3737,-24.75178,-14.66772,8.64,0.93,3.19,2.0
1758078482.56107,1758078482.54438,0.0,0.0,0.0,-56.78012,-28.13223,-18.22006,8.64,0.93,3.19,2.0
1758078482.56354,1758078482.55438,0.0,0.0,0.0,-56.49364,-25.55392,-20.22541,8.62,0.37,1.81,2.0
1758078482.56668,1758078482.56438,0.0,0.0,0.0,-54.66018,-20.34,-20.68378,8.62,0.37,1.81,2.0
1758078482.56828,1758078482.57438,0.0,0.0,0.0,-50.01921,-13.12073,-18.33465,9.33,-0.59,1.57,2.0
1758078482.57268,1758078482.58438,0.0,0.0,0.0,-46.1231,-7.79223,-15.58445,9.33,-0.59,1.57,2.0
1758078482.59206,1758078482.59438,0.0,0.0,0.0,-41.94051,-2.57831,-12.08941,9.77,-1.47,1.94,2.0
1758078482.59722,1758078482.60438,0.0,0.0,0.0,-37.92981,2.29183,-8.30789,9.77,-1.47,1.94,2.0
1758078482.61236,1758078482.61438,0.0,0.0,0.0,-32.88778,9.05273,-3.26586,9.92,-1.65,1.25,2.0
1758078482.61722,1758078482.62438,0.0,0.0,0.0,-30.13758,13.17803,-1.08862,10.02,-1.36,1.02,2.0
1758078482.63234,1758078482.63438,0.0,0.0,0.0,-27.73116,17.30333,0.0573,10.02,-1.36,1.02,2.0
1758078482.6372,1758078482.64438,0.0,0.0,0.0,-24.63719,23.89234,1.08862,10.32,-1.02,1.01,2.0
1758078482.6523,1758078482.65438,0.0,0.0,0.0,-22.91831,27.50197,1.66158,10.32,-1.02,1.01,2.0
1758078482.65726,1758078482.66438,0.0,0.0,0.0,-21.25674,30.93972,2.06265,10.51,-0.8,0.85,2.0
1758078482.67208,1758078482.67438,0.0,0.0,0.0,-19.82434,32.42941,2.40642,10.51,-0.8,0.85,2.0
1758078482.67401,1758078482.68438,0.0,0.0,0.0,-18.10547,32.88778,2.34913,10.27,-0.61,0.77,2.0
1758078482.69186,1758078482.69438,0.0,0.0,0.0,-17.30333,32.71589,1.94806,9.68,-0.57,0.67,2.0
1758078482.69333,1758078482.70438,0.0,0.0,0.0,-16.90226,33.34615,1.43239,9.68,-0.57,0.67,2.0
1758078482.71089,1758078482.71438,0.0,0.0,0.0,-16.21471,33.17426,0.97403,9.33,-0.57,0.7,2.0
1758078482.71474,1758078482.72438,0.0,0.0,0.0,-15.24068,30.36677,0.34377,9.33,-0.57,0.7,2.0
1758078482.73095,1758078482.73438,0.0,0.0,0.0,-14.49583,28.24682,0.0,8.89,-0.57,0.74,2.0
1758078482.73631,1758078482.74438,0.0,0.0,0.0,-13.80828,26.06958,-0.51566,8.89,-0.57,0.74,2.0
1758078482.75697,1758078482.75438,0.0,0.0,0.0,-13.00614,23.37668,-0.80214,8.87,-0.59,0.74,2.0
1758078482.76217,1758078482.76438,0.0,0.0,0.0,-10.8862,19.59516,-1.14592,8.84,-0.67,0.76,2.0
1758078482.76749,1758078482.77438,0.0,0.0,0.0,-8.65166,17.6471,-0.57296,8.84,-0.67,0.76,2.0
1758078482.79218,1758078482.78438,0.0,0.0,0.0,-5.95876,15.12609,0.17189,8.84,-0.86,0.61,2.0
1758078482.79624,1758078482.79438,0.0,0.0,0.0,-2.6929,12.54778,1.43239,8.84,-0.86,0.61,2.0
1758078482.79761,1758078482.80438,0.0,0.0,0.0,2.40642,8.93814,3.49504,8.66,-1.13,0.4,2.0
1758078482.81496,1758078482.81438,0.0,0.0,0.0,5.55769,8.25059,4.46907,8.66,-1.13,0.4,2.0
1758078482.82199,1758078482.82438,0.0,0.0,0.0,8.30789,8.36518,4.29718,8.84,-1.24,0.28,2.0
1758078482.82236,1758078482.83438,0.0,0.0,0.0,11.00079,8.02141,3.32316,8.84,-1.24,0.28,2.0
1758078482.84212,1758078482.84438,0.0,0.0,0.0,12.14671,10.48513,1.71887,8.92,-0.98,0.26,2.0
1758078482.84653,1758078482.85438,0.0,0.0,0.0,12.49048,14.38124,0.0573,9.29,-0.6,0.12,2.0
1758078482.86213,1758078482.86438,0.0,0.0,0.0,12.71966,18.50654,-1.77617,9.29,-0.6,0.12,2.0
1758078482.86665,1758078482.87438,0.0,0.0,0.0,12.49048,23.26209,-4.18259,9.31,-0.35,0.06,2.0
1758078482.9067,1758078482.88438,0.0,0.0,0.0,12.2613,25.09555,-5.27121,9.31,-0.35,0.06,2.0
1758078482.91672,1758078482.89438,0.0,0.0,0.0,12.2613,25.26744,-5.72958,9.11,-0.16,0.26,2.0
1758078482.91713,1758078482.90438,0.0,0.0,0.0,12.43318,22.86102,-5.72958,9.11,-0.16,0.26,2.0
1758078482.92253,1758078482.91438,0.0,0.0,0.0,13.5791,16.90226,-4.81285,8.86,-0.05,0.25,2.0
1758078482.92308,1758078482.92438,0.0,0.0,0.0,14.61043,11.86023,-3.95341,8.84,-0.02,0.22,2.0
1758078482.9243,1758078482.93438,0.0,0.0,0.0,14.83961,5.55769,-3.38045,8.84,-0.02,0.22,2.0
1758078482.94198,1758078482.94438,0.0,0.0,0.0,15.29797,-0.74485,-2.86479,8.69,-0.1,0.33,2.0
1758078482.94665,1758078482.95438,0.0,0.0,0.0,15.92823,-9.33921,-2.40642,8.69,-0.1,0.33,2.0
1758078482.96145,1758078482.96438,0.0,0.0,0.0,15.92823,-14.38124,-2.57831,9.0,-0.12,0.19,2.0
1758078482.96239,1758078482.97438,0.0,0.0,0.0,16.50119,-18.22006,-2.7502,9.0,-0.12,0.19,2.0
1758078482.97846,1758078482.98438,0.0,0.0,0.0,17.18874,-20.68378,-2.97938,9.73,-0.08,0.18,2.0
1758078482.9968,1758078482.99438,0.0,0.0,0.0,19.25138,-21.94428,-3.83882,10.42,-0.22,0.19,2.0
1758078482.99901,1758078483.00438,0.0,0.0,0.0,22.28806,-22.40265,-3.72423,10.42,-0.22,0.19,2.0
1758078483.01661,1758078483.01438,0.0,0.0,0.0,26.06958,-23.20479,-3.49504,10.74,-0.56,-0.27,2.0
1758078483.01772,1758078483.02438,0.0,0.0,0.0,30.48136,-23.89234,-1.94806,10.74,-0.56,-0.27,2.0
1758078483.03643,1758078483.03438,0.0,0.0,0.0,37.52874,-26.81443,0.11459,11.07,-1.06,-0.57,2.0
1758078483.03953,1758078483.04438,0.0,0.0,0.0,41.42485,-26.87172,3.26586,11.07,-1.06,-0.57,2.0
1758078483.05677,1758078483.05438,0.0,0.0,0.0,42.85724,-25.72581,7.04738,12.74,-0.68,0.16,2.0
1758078483.05771,1758078483.06438,0.0,0.0,0.0,38.84654,-32.42941,13.98017,12.74,-0.68,0.16,2.0
1758078483.07688,1758078483.07438,0.0,0.0,0.0,32.77319,-43.65939,20.16812,15.06,0.95,2.65,2.0
1758078483.08211,1758078483.08438,0.0,0.0,0.0,25.49662,-53.17049,27.04361,15.61,2.49,3.56,2.0
1758078483.08252,1758078483.09438,0.0,0.0,0.0,17.18874,-53.97263,30.30947,15.61,2.49,3.56,2.0
1758078483.10229,1758078483.10438,0.0,0.0,0.0,6.13065,-49.38896,28.87707,13.6,1.72,1.77,2.0
1758078483.10749,1758078483.11438,0.0,0.0,0.0,0.85944,-43.88857,24.29341,13.6,1.72,1.77,2.0
1758078483.12254,1758078483.12438,0.0,0.0,0.0,-2.63561,-35.69527,17.87628,10.65,0.12,1.96,2.0
1758078483.12665,1758078483.13438,0.0,0.0,0.0,-3.89611,-21.08485,10.8289,10.65,0.12,1.96,2.0
1758078483.17182,1758078483.14438,0.0,0.0,0.0,-1.3751,-9.96947,1.08862,9.6,-0.47,2.34,2.0
1758078483.17626,1758078483.15438,0.0,0.0,0.0,-1.03132,-26.52795,-7.44845,7.07,0.03,2.8,2.0
1758078483.17663,1758078483.16438,0.0,0.0,0.0,6.13065,-49.79003,-5.32851,7.07,0.03,2.8,2.0
1758078483.17779,1758078483.17438,0.0,0.0,0.0,15.64175,-53.68615,0.97403,8.67,0.06,1.58,2.0
1758078483.18113,1758078483.18438,0.0,0.0,0.0,22.11617,-25.72581,8.136,8.67,0.06,1.58,2.0
1758078483.18366,1758078483.19438,0.0,0.0,0.0,22.51724,-14.15206,13.80828,13.12,0.69,1.74,2.0
1758078483.19924,1758078483.20438,0.0,0.0,0.0,20.62648,-9.33921,17.6471,13.12,0.69,1.74,2.0
1758078483.20162,1758078483.21438,0.0,0.0,0.0,16.84496,-3.49504,18.73572,10.63,0.79,2.86,2.0
1758078483.21733,1758078483.22438,0.0,0.0,0.0,9.05273,8.65166,15.87093,9.83,0.77,1.65,2.0
1758078483.22237,1758078483.23438,0.0,0.0,0.0,3.49504,15.69904,11.28727,9.83,0.77,1.65,2.0
1758078483.24104,1758078483.24438,0.0,0.0,0.0,-1.71887,21.94428,5.84417,9.16,1.14,1.3,2.0
1758078483.24204,1758078483.25438,0.0,0.0,0.0,-8.02141,27.67386,-2.40642,9.16,1.14,1.3,2.0
1758078483.25722,1758078483.26438,0.0,0.0,0.0,-10.37054,33.51803,-6.53172,9.29,1.36,1.63,2.0
1758078483.27435,1758078483.27438,0.0,0.0,0.0,-11.22997,36.55471,-9.39651,9.29,1.36,1.63,2.0
1758078483.27639,1758078483.28438,0.0,0.0,0.0,-10.8862,40.10705,-10.59972,9.72,1.21,1.27,2.0
1758078483.29129,1758078483.29438,0.0,0.0,0.0,-8.99544,44.17505,-9.96947,9.72,1.21,1.27,2.0
1758078483.29726,1758078483.30438,0.0,0.0,0.0,-7.39116,45.89392,-8.30789,9.99,0.91,1.22,2.0
1758078483.31255,1758078483.31438,0.0,0.0,0.0,-5.78687,47.78468,-6.47442,9.75,0.55,1.23,2.0
1758078483.31856,1758078483.32438,0.0,0.0,0.0,-4.35448,48.9879,-4.69825,9.75,0.55,1.23,2.0
1758078483.33679,1758078483.33438,0.0,0.0,0.0,-2.29183,47.38361,-2.34913,9.39,0.29,1.21,2.0
1758078483.33877,1758078483.34438,0.0,0.0,0.0,-1.08862,45.72203,-1.14592,9.39,0.29,1.21,2.0
1758078483.35674,1758078483.35438,0.0,0.0,0.0,-0.34377,44.57612,-0.68755,9.16,0.17,1.24,2.0
1758078483.35952,1758078483.36438,0.0,0.0,0.0,0.40107,43.60209,-0.17189,9.16,0.17,1.24,2.0
1758078483.36181,1758078483.37438,0.0,0.0,0.0,0.57296,39.24761,-0.11459,9.1,0.24,1.18,2.0
1758078483.37758,1758078483.38438,0.0,0.0,0.0,0.68755,35.2942,-0.40107,8.71,0.36,1.07,2.0
1758078483.38655,1758078483.39438,0.0,0.0,0.0,0.40107,31.51268,-0.34377,8.71,0.36,1.07,2.0
1758078483.42809,1758078483.40438,0.0,0.0,0.0,-0.22918,29.04896,-0.45837,8.94,0.51,1.07,2.0
1758078483.48691,1758078483.41438,0.0,0.0,0.0,-2.46372,27.2155,-1.3751,8.94,0.51,1.07,2.0
1758078483.49006,1758078483.42438,0.0,0.0,0.0,-4.29718,23.31938,-2.06265,9.1,0.76,0.95,2.0
1758078483.4973,1758078483.43438,0.0,0.0,0.0,-5.90147,18.33465,-2.57831,9.1,0.76,0.95,2.0
1758078483.49903,1758078483.44438,0.0,0.0,0.0,-7.79223,15.41257,-3.20856,8.88,1.01,0.77,2.0
1758078483.50083,1758078483.45438,0.0,0.0,0.0,-10.48513,11.74564,-3.72423,9.06,1.1,0.57,2.0
1758078483.50262,1758078483.46438,0.0,0.0,0.0,-11.86023,8.47978,-3.55234,9.06,1.1,0.57,2.0
1758078483.5068,1758078483.47438,0.0,0.0,0.0,-13.46451,7.16197,-3.89611,8.87,0.96,0.4,2.0
1758078483.5073,1758078483.48438,0.0,0.0,0.0,-15.12609,8.70896,-2.92208,8.87,0.96,0.4,2.0
1758078483.51626,1758078483.49438,0.0,0.0,0.0,-15.46986,9.85487,-1.83346,9.02,0.76,0.43,2.0
1758078483.5174,1758078483.50438,0.0,0.0,0.0,-15.75634,10.65701,-0.68755,9.02,0.76,0.43,2.0
1758078483.52134,1758078483.51438,0.0,0.0,0.0,-16.21471,11.17268,0.22918,9.0,0.62,0.49,2.0
1758078483.52806,1758078483.52438,0.0,0.0,0.0,-16.61578,9.96947,2.06265,9.01,0.62,0.68,2.0
1758078483.55846,1758078483.53438,0.0,0.0,0.0,-16.84496,9.11003,2.7502,9.01,0.53,0.68,2.0
1758078483.5626,1758078483.54438,0.0,0.0,0.0,-17.24603,7.62034,3.26586,9.14,0.47,0.75,2.0
1758078483.56645,1758078483.55438,0.0,0.0,0.0,-17.81899,5.72958,3.03668,9.14,0.47,0.75,2.0
1758078483.56958,1758078483.56438,0.0,0.0,0.0,-18.50654,1.08862,2.06265,9.04,0.51,0.94,2.0
1758078483.57257,1758078483.57438,0.0,0.0,0.0,-18.79302,-2.63561,1.14592,9.04,0.51,0.94,2.0
1758078483.57749,1758078483.58438,0.0,0.0,0.0,-19.13679,-6.18794,-0.11459,9.03,0.59,0.85,2.0
1758078483.61768,1758078483.59438,0.0,0.0,0.0,-19.13679,-10.94349,-1.14592,9.03,0.59,0.85,2.0
1758078483.61863,1758078483.60438,0.0,0.0,0.0,-18.9649,-18.56383,-1.71887,9.23,0.55,0.72,2.0
1758078483.61931,1758078483.61438,0.0,0.0,0.0,-19.48057,-22.74642,-1.94806,9.57,0.57,0.56,2.0
1758078483.62853,1758078483.62438,0.0,0.0,0.0,-20.79837,-25.61122,-2.00535,9.57,0.57,0.56,2.0
1758078483.63179,1758078483.63438,0.0,0.0,0.0,-22.91831,-26.41335,-2.6929,10.01,0.88,0.23,2.0
1758078483.63702,1758078483.64438,0.0,0.0,0.0,-27.04361,-25.43933,-3.03668,10.01,0.88,0.23,2.0
1758078483.6526,1758078483.65438,0.0,0.0,0.0,-30.59595,-23.72045,-3.26586,10.38,1.34,-0.12,2.0
1758078483.65916,1758078483.66438,0.0,0.0,0.0,-34.60666,-22.51724,-3.49504,10.38,1.34,-0.12,2.0
1758078483.67707,1758078483.67438,0.0,0.0,0.0,-40.33623,-22.97561,-3.60963,10.61,1.68,-0.11,2.0
1758078483.68222,1758078483.68438,0.0,0.0,0.0,-44.00316,-24.29341,-3.72423,11.21,1.71,0.22,2.0
1758078483.68273,1758078483.69438,0.0,0.0,0.0,-47.15443,-25.09555,-4.46907,11.21,1.71,0.22,2.0
1758078483.70163,1758078483.70438,0.0,0.0,0.0,-48.9306,-25.61122,-5.78687,12.69,0.86,1.14,2.0
1758078483.70697,1758078483.71438,0.0,0.0,0.0,-47.72739,-28.30412,-7.73493,12.69,0.86,1.14,2.0
1758078483.7217,1758078483.72438,0.0,0.0,0.0,-44.11775,-34.0337,-9.5684,13.87,-0.54,2.77,2.0
1758078483.72265,1758078483.73438,0.0,0.0,0.0,-39.07573,-43.14373,-13.34992,13.87,-0.54,2.77,2.0
1758078483.73767,1758078483.74438,0.0,0.0,0.0,-32.88778,-49.90463,-15.64175,13.84,-1.61,3.26,2.0
1758078483.7466,1758078483.75438,0.0,0.0,0.0,-23.72045,-60.16057,-19.07949,12.35,-1.49,2.34,2.0
1758078483.76269,1758078483.76438,0.0,0.0,0.0,-20.62648,-67.32255,-18.10547,12.35,-1.49,2.34,2.0
1758078483.76678,1758078483.77438,0.0,0.0,0.0,-20.45459,-60.16057,-16.04282,10.8,-0.06,1.39,2.0
1758078483.78273,1758078483.78438,0.0,0.0,0.0,-21.37133,-44.51882,-11.11538,10.8,-0.06,1.39,2.0
1758078483.78612,1758078483.79438,0.0,0.0,0.0,-29.50733,-30.88243,-7.10468,10.7,1.11,1.45,2.0
1758078483.80251,1758078483.80438,0.0,0.0,0.0,-36.61201,-32.83048,-5.21392,10.7,1.11,1.45,2.0
1758078483.80341,1758078483.81438,0.0,0.0,0.0,-43.14373,-40.27893,-5.61499,8.11,1.47,3.03,2.0
1758078483.82028,1758078483.82438,0.0,0.0,0.0,-46.75336,-41.94051,-6.35983,8.11,1.47,3.03,2.0
1758078483.82202,1758078483.83438,0.0,0.0,0.0,-47.49821,-35.63798,-9.11003,8.93,0.53,2.29,2.0
1758078483.84007,1758078483.84438,0.0,0.0,0.0,-44.748,-31.11161,-10.94349,10.7,-1.07,1.78,2.0
1758078483.84176,1758078483.85438,0.0,0.0,0.0,-40.50812,-26.18417,-12.204,10.7,-1.07,1.78,2.0
1758078483.85769,1758078483.86438,0.0,0.0,0.0,-33.05967,-20.11082,-12.08941,10.71,-1.86,1.85,2.0
1758078483.87709,1758078483.87438,0.0,0.0,0.0,-28.07493,-9.28192,-10.65701,10.71,-1.86,1.85,2.0
1758078483.88151,1758078483.88438,0.0,0.0,0.0,-24.17882,-2.86479,-8.65166,10.02,-1.65,1.35,2.0
