timeStamp,timeStampAlign,roll,pitch,yaw,gyro_x,gyro_y,gyro_z,acc_x,acc_y,acc_z,flag_num
1758091136.71846,1758091118.41619,0.0,0.0,0.0,-28.36141,9.28192,-26.87172,8.66,-0.14,2.48,3.0
1758091136.72045,1758091118.42619,0.0,0.0,0.0,-27.44468,1.66158,-26.47065,8.61,-0.24,2.24,3.0
1758091136.73656,1758091118.43619,0.0,0.0,0.0,-27.73116,-1.14592,-26.41335,8.61,-0.24,2.24,3.0
1758091136.73769,1758091118.44619,0.0,0.0,0.0,-27.44468,-5.15662,-25.72581,8.86,-0.27,1.97,3.0
1758091136.75257,1758091118.45619,0.0,0.0,0.0,-26.98631,-8.47978,-24.4653,8.86,-0.27,1.97,3.0
1758091136.76882,1758091118.46619,0.0,0.0,0.0,-25.43933,-12.08941,-22.00158,9.29,-0.23,1.85,3.0
1758091136.77293,1758091118.47619,0.0,0.0,0.0,-24.75178,-13.86558,-20.05352,9.53,-0.14,1.64,3.0
1758091136.78877,1758091118.48619,0.0,0.0,0.0,-23.89234,-15.58445,-17.58981,9.53,-0.14,1.64,3.0
1758091136.79055,1758091118.49619,0.0,0.0,0.0,-23.26209,-16.50119,-15.12609,9.41,-0.12,1.6,3.0
1758091136.80565,1758091118.50619,0.0,0.0,0.0,-22.51724,-16.38659,-12.2613,9.41,-0.12,1.6,3.0
1758091136.80673,1758091118.51619,0.0,0.0,0.0,-22.40265,-14.09476,-11.97482,9.63,-0.13,1.66,3.0
1758091136.8216,1758091118.52619,0.0,0.0,0.0,-22.74642,-11.86023,-12.49048,9.63,-0.13,1.66,3.0
1758091136.83748,1758091118.53619,0.0,0.0,0.0,-23.94964,-12.77696,-15.24068,9.77,-0.04,1.61,3.0
1758091136.83877,1758091118.54619,0.0,0.0,0.0,-24.63719,-15.87093,-17.13144,9.33,0.06,1.12,3.0
1758091136.85383,1758091118.55619,0.0,0.0,0.0,-25.26744,-17.24603,-19.70975,9.33,0.06,1.12,3.0
1758091136.85479,1758091118.56619,0.0,0.0,0.0,-25.7831,-16.95955,-21.37133,9.4,0.16,0.88,3.0
1758091136.87011,1758091118.57619,0.0,0.0,0.0,-27.04361,-13.12073,-22.68913,9.4,0.16,0.88,3.0
1758091136.88567,1758091118.58619,0.0,0.0,0.0,-28.01764,-12.204,-23.0902,9.35,0.22,0.72,3.0
1758091136.88669,1758091118.59619,0.0,0.0,0.0,-28.93437,-12.43318,-22.51724,9.35,0.22,0.72,3.0
1758091136.90158,1758091118.60619,0.0,0.0,0.0,-30.02299,-14.9542,-21.14215,8.79,0.25,0.63,3.0
1758091136.91759,1758091118.61619,0.0,0.0,0.0,-31.74186,-18.90761,-18.10547,8.41,0.16,0.33,3.0
1758091136.91875,1758091118.62619,0.0,0.0,0.0,-33.00237,-22.23076,-15.41257,8.41,0.16,0.33,3.0
1758091136.93359,1758091118.63619,0.0,0.0,0.0,-34.77854,-26.35606,-12.89155,8.28,0.27,-0.01,3.0
1758091136.93476,1758091118.64619,0.0,0.0,0.0,-36.55471,-28.41871,-10.8862,8.28,0.27,-0.01,3.0
1758091136.95009,1758091118.65619,0.0,0.0,0.0,-40.7373,-22.51724,-6.53172,8.93,0.44,-0.15,3.0
1758091136.96582,1758091118.66619,0.0,0.0,0.0,-44.11775,-7.73493,-4.35448,8.93,0.44,-0.15,3.0
1758091136.96703,1758091118.67619,0.0,0.0,0.0,-46.35228,7.33386,-3.72423,11.03,0.79,0.22,3.0
1758091136.98185,1758091118.68619,0.0,0.0,0.0,-48.9879,7.16197,-5.21392,11.03,0.79,0.22,3.0
1758091136.99763,1758091118.69619,0.0,0.0,0.0,-51.39432,-4.98473,-8.136,10.66,0.93,1.07,3.0
1758091136.99875,1758091118.70619,0.0,0.0,0.0,-53.51426,-12.77696,-11.45916,10.48,0.95,0.12,3.0
1758091137.01384,1758091118.71619,0.0,0.0,0.0,-54.14451,-8.25059,-11.86023,10.48,0.95,0.12,3.0
1758091137.01876,1758091118.72619,0.0,0.0,0.0,-54.48829,3.83882,-9.4538,12.46,0.88,0.4,3.0
1758091137.03381,1758091118.73619,0.0,0.0,0.0,-54.14451,14.72501,-6.58902,12.46,0.88,0.4,3.0
1758091137.03479,1758091118.74619,0.0,0.0,0.0,-52.884,17.6471,-3.95341,11.95,0.5,1.32,3.0
1758091137.05019,1758091118.75619,0.0,0.0,0.0,-50.53488,20.68378,-1.48969,11.95,0.5,1.32,3.0
1758091137.06551,1758091118.76619,0.0,0.0,0.0,-45.37826,21.08485,0.57296,11.78,-0.12,1.45,3.0
1758091137.06675,1758091118.77619,0.0,0.0,0.0,-41.65404,19.88164,0.11459,12.25,-0.69,1.64,3.0
1758091137.0815,1758091118.78619,0.0,0.0,0.0,-37.52874,19.36597,-1.08862,12.25,-0.69,1.64,3.0
1758091137.09794,1758091118.79619,0.0,0.0,0.0,-33.63263,20.3973,-3.03668,13.36,-0.78,1.61,3.0
1758091137.09908,1758091118.80619,0.0,0.0,0.0,-27.96034,23.94964,-5.78687,13.36,-0.78,1.61,3.0
1758091137.11395,1758091118.81619,0.0,0.0,0.0,-24.92367,27.33009,-6.8182,14.18,-0.38,1.16,3.0
1758091137.12992,1758091118.82619,0.0,0.0,0.0,-23.0329,31.51268,-7.67763,14.18,-0.38,1.16,3.0
1758091137.13108,1758091118.83619,0.0,0.0,0.0,-22.05888,36.84119,-8.136,14.56,0.09,0.68,3.0
1758091137.14765,1758091118.84619,0.0,0.0,0.0,-21.60051,42.62806,-8.136,14.43,0.34,0.67,3.0
1758091137.14883,1758091118.85619,0.0,0.0,0.0,-21.88699,44.9199,-8.136,14.43,0.34,0.67,3.0
1758091137.16387,1758091118.86619,0.0,0.0,0.0,-22.00158,45.09178,-8.65166,13.94,0.5,1.14,3.0
1758091137.16486,1758091118.87619,0.0,0.0,0.0,-22.40265,44.23235,-10.02676,13.94,0.5,1.14,3.0
1758091137.18195,1758091118.88619,0.0,0.0,0.0,-22.05888,41.42485,-13.5791,13.36,0.54,1.92,3.0
1758091137.19774,1758091118.89619,0.0,0.0,0.0,-21.02755,37.01308,-15.98552,13.36,0.54,1.92,3.0
1758091137.19884,1758091118.90619,0.0,0.0,0.0,-19.48057,29.22085,-18.73572,12.19,0.17,2.81,3.0
1758091137.21466,1758091118.91619,0.0,0.0,0.0,-18.16276,19.13679,-21.48592,12.19,0.17,2.81,3.0
1758091137.2175,1758091118.92619,0.0,0.0,0.0,-17.36062,1.48969,-22.40265,10.52,-0.13,3.65,3.0
1758091137.23288,1758091118.93619,0.0,0.0,0.0,-17.36062,-10.31324,-22.68913,9.13,-0.17,3.9,3.0
1758091137.24905,1758091118.94619,0.0,0.0,0.0,-17.6471,-21.48592,-22.40265,9.13,-0.17,3.9,3.0
1758091137.24981,1758091118.95619,0.0,0.0,0.0,-18.22006,-38.44547,-20.79837,8.31,-0.31,4.23,3.0
1758091137.26468,1758091118.96619,0.0,0.0,0.0,-18.56383,-49.33167,-19.88164,8.31,-0.31,4.23,3.0
1758091137.26586,1758091118.97619,0.0,0.0,0.0,-19.07949,-59.87409,-18.9649,7.95,-0.35,4.41,3.0
1758091137.28102,1758091118.98619,0.0,0.0,0.0,-19.36597,-68.29657,-17.87628,7.95,-0.35,4.41,3.0
1758091137.29692,1758091118.99619,0.0,0.0,0.0,-19.99623,-75.80232,-16.38659,8.15,-0.32,4.36,3.0
1758091137.2979,1758091119.00619,0.0,0.0,0.0,-20.34,-78.03686,-15.12609,8.52,-0.26,4.25,3.0
1758091137.31272,1758091119.01619,0.0,0.0,0.0,-20.85567,-77.52119,-13.40721,8.52,-0.26,4.25,3.0
1758091137.32869,1758091119.02619,0.0,0.0,0.0,-21.6578,-75.85962,-11.45916,8.64,-0.13,3.85,3.0
1758091137.3299,1758091119.03619,0.0,0.0,0.0,-23.66316,-70.47381,-8.59437,8.64,-0.13,3.85,3.0
1758091137.34497,1758091119.04619,0.0,0.0,0.0,-25.43933,-64.62964,-6.58902,8.64,-0.02,3.54,3.0
1758091137.34591,1758091119.05619,0.0,0.0,0.0,-27.38738,-57.63955,-4.29718,8.64,-0.02,3.54,3.0
1758091137.36204,1758091119.06619,0.0,0.0,0.0,-29.27814,-48.70141,-1.94806,9.02,0.0,2.87,3.0
1758091137.37781,1758091119.07619,0.0,0.0,0.0,-32.20023,-32.42941,1.66158,9.71,-0.16,2.17,3.0
1758091137.37884,1758091119.08619,0.0,0.0,0.0,-34.32018,-20.79837,3.60963,9.71,-0.16,2.17,3.0
1758091137.39376,1758091119.09619,0.0,0.0,0.0,-36.21093,-7.96411,4.92744,10.03,-0.27,1.63,3.0
1758091137.39493,1758091119.10619,0.0,0.0,0.0,-37.92981,3.83882,5.32851,10.03,-0.27,1.63,3.0
1758091137.41096,1758091119.11619,0.0,0.0,0.0,-39.70598,19.36597,4.46907,9.75,-0.26,1.33,3.0
1758091137.42799,1758091119.12619,0.0,0.0,0.0,-39.82057,28.24682,3.32316,9.75,-0.26,1.33,3.0
1758091137.42892,1758091119.13619,0.0,0.0,0.0,-39.53409,37.64333,1.94806,9.4,-0.38,1.22,3.0
1758091137.44377,1758091119.14619,0.0,0.0,0.0,-39.13302,50.99325,0.0573,9.4,-0.38,1.22,3.0
1758091137.44575,1758091119.15619,0.0,0.0,0.0,-38.44547,58.15522,-0.57296,9.37,-0.64,1.27,3.0
1758091137.46173,1758091119.16619,0.0,0.0,0.0,-37.58603,63.19725,-0.34377,9.01,-0.71,1.45,3.0
1758091137.47788,1758091119.17619,0.0,0.0,0.0,-37.35685,65.66096,0.22918,9.01,-0.71,1.45,3.0
1758091137.47939,1758091119.18619,0.0,0.0,0.0,-37.92981,68.86953,1.77617,8.83,-0.51,1.49,3.0
1758091137.49361,1758091119.19619,0.0,0.0,0.0,-38.73195,69.95815,3.09397,8.83,-0.51,1.49,3.0
1758091137.49487,1758091119.20619,0.0,0.0,0.0,-39.87786,68.98412,3.95341,8.86,-0.12,1.49,3.0
1758091137.51135,1758091119.21619,0.0,0.0,0.0,-41.25296,67.09336,4.69825,8.86,-0.12,1.49,3.0
1758091137.5278,1758091119.22619,0.0,0.0,0.0,-43.37291,59.01466,5.32851,8.39,0.13,1.6,3.0
1758091137.52878,1758091119.23619,0.0,0.0,0.0,-44.8053,51.90998,5.21392,7.93,0.08,1.64,3.0
1758091137.54401,1758091119.24619,0.0,0.0,0.0,-45.09178,45.03448,6.13065,7.93,0.08,1.64,3.0
1758091137.54571,1758091119.25619,0.0,0.0,0.0,-45.14908,39.4195,7.16197,8.0,-0.33,1.51,3.0
1758091137.56258,1758091119.26619,0.0,0.0,0.0,-44.63341,33.68992,9.68299,8.0,-0.33,1.51,3.0
1758091137.57956,1758091119.27619,0.0,0.0,0.0,-43.77398,30.48136,11.51645,8.25,-0.78,1.38,3.0
1758091137.58318,1758091119.28619,0.0,0.0,0.0,-42.85724,27.04361,12.89155,8.25,-0.78,1.38,3.0
1758091137.59877,1758091119.29619,0.0,0.0,0.0,-41.94051,25.89769,13.98017,8.12,-1.01,1.29,3.0
1758091137.59997,1758091119.30619,0.0,0.0,0.0,-40.68,22.00158,14.32395,7.79,-0.93,1.33,3.0
1758091137.61473,1758091119.31619,0.0,0.0,0.0,-39.82057,16.84496,13.46451,7.79,-0.93,1.33,3.0
1758091137.61672,1758091119.32619,0.0,0.0,0.0,-39.07573,10.8289,11.28727,7.36,-0.64,1.37,3.0
1758091137.63182,1758091119.33619,0.0,0.0,0.0,-38.56006,5.61499,6.8182,7.36,-0.64,1.37,3.0
1758091137.64803,1758091119.34619,0.0,0.0,0.0,-39.70598,-7.33386,3.09397,7.79,-0.49,1.59,3.0
1758091137.64927,1758091119.35619,0.0,0.0,0.0,-39.64868,-20.34,3.09397,7.79,-0.49,1.59,3.0
1758091137.66377,1758091119.36619,0.0,0.0,0.0,-39.82057,-23.20479,2.6929,8.09,-0.46,2.12,3.0
1758091137.66586,1758091119.37619,0.0,0.0,0.0,-40.04975,-10.37054,5.72958,8.09,-0.46,2.12,3.0
1758091137.68286,1758091119.38619,0.0,0.0,0.0,-39.76327,-1.08862,8.0787,9.84,-0.87,1.45,3.0
1758091137.69957,1758091119.39619,0.0,0.0,0.0,-38.61736,4.35448,9.91217,9.41,-1.18,1.59,3.0
1758091137.70076,1758091119.40619,0.0,0.0,0.0,-36.38282,9.68299,11.22997,9.41,-1.18,1.59,3.0
1758091137.71765,1758091119.41619,0.0,0.0,0.0,-32.25753,15.46986,11.80293,9.2,-1.5,1.67,3.0
1758091137.72335,1758091119.42619,0.0,0.0,0.0,-28.41871,16.90226,12.14671,9.2,-1.5,1.67,3.0
1758091137.74192,1758091119.43619,0.0,0.0,0.0,-24.63719,14.78231,11.97482,9.6,-1.8,1.52,3.0
1758091137.74318,1758091119.44619,0.0,0.0,0.0,-21.02755,11.86023,11.34457,9.6,-1.8,1.52,3.0
1758091137.75876,1758091119.45619,0.0,0.0,0.0,-16.61578,4.1253,9.4538,10.19,-2.22,1.76,3.0
1758091137.76023,1758091119.46619,0.0,0.0,0.0,-14.61043,-5.09932,8.25059,10.46,-2.45,1.8,3.0
1758091137.77485,1758091119.47619,0.0,0.0,0.0,-13.06344,-12.08941,5.72958,10.46,-2.45,1.8,3.0
1758091137.77844,1758091119.48619,0.0,0.0,0.0,-13.5218,-7.79223,1.43239,11.72,-2.23,1.86,3.0
1758091137.79381,1758091119.49619,0.0,0.0,0.0,-11.80293,3.60963,0.22918,11.72,-2.23,1.86,3.0
1758091137.79665,1758091119.50619,0.0,0.0,0.0,-11.11538,20.97026,-0.68755,13.33,-2.01,2.69,3.0
1758091137.81315,1758091119.51619,0.0,0.0,0.0,-11.22997,34.60666,-1.66158,13.33,-2.01,2.69,3.0
1758091137.82912,1758091119.52619,0.0,0.0,0.0,-10.8862,23.89234,-4.98473,13.35,-2.4,4.45,3.0
1758091137.83243,1758091119.53619,0.0,0.0,0.0,-13.12073,-35.00772,2.97938,10.49,-2.5,5.33,3.0
1758091137.84816,1758091119.54619,0.0,0.0,0.0,-15.64175,-48.8733,14.49583,10.49,-2.5,5.33,3.0
1758091137.85335,1758091119.55619,0.0,0.0,0.0,-19.48057,-34.0337,21.48592,16.94,-1.33,5.19,3.0
1758091137.86809,1758091119.56619,0.0,0.0,0.0,-26.35606,-15.29797,22.63183,16.94,-1.33,5.19,3.0
1758091137.86986,1758091119.57619,0.0,0.0,0.0,-29.67921,-12.71966,19.59516,14.89,-0.35,3.37,3.0
1758091137.88676,1758091119.58619,0.0,0.0,0.0,-31.56997,-16.38659,15.46986,14.89,-0.35,3.37,3.0
1758091137.88769,1758091119.59619,0.0,0.0,0.0,-31.2262,-22.68913,12.37589,12.43,-1.16,4.02,3.0
1758091137.90287,1758091119.60619,0.0,0.0,0.0,-29.10626,-23.66316,3.89611,12.43,-1.16,3.47,3.0
1758091137.91979,1758091119.61619,0.0,0.0,0.0,-25.61122,-23.60586,-0.51566,11.7,-2.27,3.47,3.0
1758091137.92327,1758091119.62619,0.0,0.0,0.0,-19.82434,-22.91831,-3.72423,10.57,-2.65,3.49,3.0
1758091137.9389,1758091119.63619,0.0,0.0,0.0,-12.54778,-21.88699,-4.98473,10.57,-2.65,3.49,3.0
1758091137.94006,1758091119.64619,0.0,0.0,0.0,-2.23454,-27.67386,-2.7502,9.06,-2.25,3.66,3.0
1758091137.95527,1758091119.65619,0.0,0.0,0.0,3.89611,-33.05967,-1.20321,9.06,-2.25,3.66,3.0
1758091137.95604,1758091119.66619,0.0,0.0,0.0,9.68299,-38.38818,0.97403,7.28,-1.72,3.53,3.0
1758091137.97277,1758091119.67619,0.0,0.0,0.0,15.0115,-43.14373,2.97938,7.28,-1.72,3.53,3.0
1758091137.98815,1758091119.68619,0.0,0.0,0.0,21.31403,-49.90463,5.50039,6.32,-1.31,3.45,3.0
1758091137.98992,1758091119.69619,0.0,0.0,0.0,24.86637,-51.45161,6.35983,6.11,-0.97,3.31,3.0
1758091138.00491,1758091119.70619,0.0,0.0,0.0,27.1582,-51.6235,7.16197,6.11,-0.97,3.31,3.0
1758091138.00611,1758091119.71619,0.0,0.0,0.0,28.13223,-48.75871,7.62034,6.75,-0.42,2.84,3.0
1758091138.02087,1758091119.72619,0.0,0.0,0.0,28.07493,-39.24761,7.04738,6.75,-0.42,2.84,3.0
1758091138.0369,1758091119.73619,0.0,0.0,0.0,27.2155,-30.99702,6.18794,7.78,0.28,2.45,3.0
1758091138.03812,1758091119.74619,0.0,0.0,0.0,26.24147,-22.28806,5.27121,7.78,0.28,2.45,3.0
1758091138.05288,1758091119.75619,0.0,0.0,0.0,24.98096,-13.17803,3.72423,8.64,0.73,2.33,3.0
1758091138.06891,1758091119.76619,0.0,0.0,0.0,24.5226,1.60428,2.29183,9.48,0.67,2.11,3.0
1758091138.07013,1758091119.77619,0.0,0.0,0.0,24.4653,11.22997,0.51566,9.48,0.67,2.11,3.0
1758091138.0851,1758091119.78619,0.0,0.0,0.0,24.57989,21.08485,-1.03132,9.8,0.28,1.97,3.0
1758091138.08614,1758091119.79619,0.0,0.0,0.0,25.26744,33.05967,-2.00535,9.8,0.28,1.97,3.0
1758091138.10099,1758091119.80619,0.0,0.0,0.0,25.38203,41.42485,-2.7502,9.73,-0.14,1.78,3.0
1758091138.11714,1758091119.81619,0.0,0.0,0.0,25.49662,47.95657,-3.26586,9.73,-0.14,1.78,3.0
1758091138.1181,1758091119.82619,0.0,0.0,0.0,24.86637,53.51426,-3.89611,9.77,-0.34,1.82,3.0
1758091138.13297,1758091119.83619,0.0,0.0,0.0,24.57989,54.08722,-4.87014,9.44,-0.34,1.97,3.0
1758091138.14887,1758091119.84619,0.0,0.0,0.0,24.80907,53.05589,-4.46907,9.44,-0.36,1.97,3.0
1758091138.15098,1758091119.85619,0.0,0.0,0.0,25.09555,52.19646,-4.58366,9.53,-0.41,2.18,3.0
1758091138.16591,1758091119.86619,0.0,0.0,0.0,25.72581,52.42564,-4.46907,9.53,-0.41,2.18,3.0
1758091138.16707,1758091119.87619,0.0,0.0,0.0,26.81443,52.02457,-4.1253,9.62,-0.46,2.38,3.0
1758091138.18196,1758091119.88619,0.0,0.0,0.0,27.84575,49.67545,-3.55234,9.62,-0.46,2.38,3.0
1758091138.19832,1758091119.89619,0.0,0.0,0.0,29.33544,46.2377,-3.03668,9.07,-0.5,2.49,3.0
1758091138.1991,1758091119.90619,0.0,0.0,0.0,30.93972,41.94051,-2.06265,9.07,-0.5,2.49,3.0
1758091138.21395,1758091119.91619,0.0,0.0,0.0,33.46074,34.37747,-0.74485,8.5,-0.47,2.45,3.0
1758091138.21755,1758091119.92619,0.0,0.0,0.0,34.95043,29.73651,0.0573,8.09,-0.45,2.32,3.0
1758091138.23324,1758091119.93619,0.0,0.0,0.0,35.98175,24.80907,1.14592,8.09,-0.45,2.32,3.0
1758091138.24926,1758091119.94619,0.0,0.0,0.0,36.89849,19.42327,1.94806,7.93,-0.52,2.31,3.0
1758091138.25015,1758091119.95619,0.0,0.0,0.0,37.18496,13.06344,1.66158,7.93,-0.52,2.31,3.0
1758091138.26528,1758091119.96619,0.0,0.0,0.0,36.49741,8.93814,0.74485,8.14,-0.5,2.4,3.0
1758091138.2662,1758091119.97619,0.0,0.0,0.0,35.3515,4.18259,-0.0573,8.14,-0.5,2.4,3.0
1758091138.28136,1758091119.98619,0.0,0.0,0.0,33.40344,-2.57831,-1.83346,8.1,-0.16,2.12,3.0
1758091138.29798,1758091119.99619,0.0,0.0,0.0,32.48671,-7.10468,-2.7502,8.12,0.28,2.14,3.0
1758091138.29919,1758091120.00619,0.0,0.0,0.0,31.39809,-11.45916,-3.72423,8.12,0.28,2.14,3.0
1758091138.31399,1758091120.01619,0.0,0.0,0.0,30.53865,-15.0115,-4.46907,8.12,0.52,2.1,3.0
1758091138.31546,1758091120.02619,0.0,0.0,0.0,29.8511,-19.53786,-4.69825,8.12,0.52,2.1,3.0
1758091138.33129,1758091120.03619,0.0,0.0,0.0,29.56462,-21.02755,-4.64096,8.31,0.54,2.05,3.0
1758091138.34804,1758091120.04619,0.0,0.0,0.0,29.73651,-21.37133,-4.46907,8.31,0.54,2.05,3.0
1758091138.3492,1758091120.05619,0.0,0.0,0.0,29.73651,-20.22541,-4.1253,8.74,0.33,2.11,3.0
1758091138.36431,1758091120.06619,0.0,0.0,0.0,30.30947,-16.95955,-4.0107,9.08,0.11,2.15,3.0
1758091138.36647,1758091120.07619,0.0,0.0,0.0,30.76784,-15.0115,-4.23989,9.08,0.11,2.15,3.0
1758091138.38196,1758091120.08619,0.0,0.0,0.0,30.82513,-12.204,-4.35448,9.05,0.0,2.03,3.0
1758091138.39799,1758091120.09619,0.0,0.0,0.0,30.59595,-8.36518,-4.52637,9.05,0.0,2.03,3.0
1758091138.39922,1758091120.10619,0.0,0.0,0.0,29.56462,0.45837,-5.50039,9.13,0.17,1.99,3.0
1758091138.41389,1758091120.11619,0.0,0.0,0.0,27.84575,6.53172,-6.99009,9.13,0.17,1.99,3.0
1758091138.41512,1758091120.12619,0.0,0.0,0.0,26.35606,5.15662,-8.02141,9.09,0.5,1.87,3.0
1758091138.43103,1758091120.13619,0.0,0.0,0.0,24.23611,-1.3178,-8.88085,9.09,0.5,1.87,3.0
1758091138.44741,1758091120.14619,0.0,0.0,0.0,19.25138,-8.59437,-10.54242,8.56,0.61,1.66,3.0
1758091138.44817,1758091120.15619,0.0,0.0,0.0,15.64175,-13.12073,-11.34457,9.48,0.81,1.5,3.0
1758091138.46329,1758091120.16619,0.0,0.0,0.0,13.12073,-16.04282,-12.2613,9.48,0.81,1.5,3.0
1758091138.47928,1758091120.17619,0.0,0.0,0.0,8.136,-17.53251,-13.86558,9.86,1.16,1.3,3.0
1758091138.48295,1758091120.18619,0.0,0.0,0.0,4.87014,-16.38659,-15.35527,9.86,1.16,1.3,3.0
1758091138.5218,1758091120.19619,0.0,0.0,0.0,2.34913,-18.90761,-15.92823,10.24,1.31,1.46,3.0
1758091138.5282,1758091120.20619,0.0,0.0,0.0,0.17189,-24.5226,-15.35527,10.24,1.31,1.46,3.0
1758091138.53281,1758091120.21619,0.0,0.0,0.0,-2.86479,-35.2369,-13.12073,10.26,1.09,1.36,3.0
1758091138.53497,1758091120.22619,0.0,0.0,0.0,-4.98473,-38.61736,-8.88085,11.07,0.8,1.64,3.0
1758091138.53722,1758091120.23619,0.0,0.0,0.0,-7.62034,-39.64868,-3.72423,11.07,0.8,1.64,3.0
1758091138.53842,1758091120.24619,0.0,0.0,0.0,-8.88085,-46.00851,0.34377,12.03,1.24,2.87,3.0
1758091138.55434,1758091120.25619,0.0,0.0,0.0,-6.07335,-46.86795,-3.32316,12.03,1.24,2.87,3.0
1758091138.55635,1758091120.26619,0.0,0.0,0.0,-4.98473,-29.22085,-7.16197,14.37,1.15,4.07,3.0
1758091138.57316,1758091120.27619,0.0,0.0,0.0,-3.55234,-17.6471,-12.49048,14.37,1.15,4.07,3.0
1758091138.58932,1758091120.28619,0.0,0.0,0.0,-1.77617,-7.44845,-16.90226,14.8,0.17,3.04,3.0
1758091138.59023,1758091120.29619,0.0,0.0,0.0,1.43239,10.71431,-19.59516,14.57,-0.57,2.93,3.0
1758091138.60575,1758091120.30619,0.0,0.0,0.0,3.03668,21.7151,-17.76169,14.57,-0.57,2.93,3.0
1758091138.60698,1758091120.31619,0.0,0.0,0.0,3.66693,26.35606,-13.5218,14.24,-0.58,2.86,3.0
1758091138.62201,1758091120.32619,0.0,0.0,0.0,3.32316,27.78845,-8.70896,14.24,-0.58,2.86,3.0
1758091138.638,1758091120.33619,0.0,0.0,0.0,1.3751,31.39809,-3.03668,13.74,0.18,2.88,3.0
1758091138.63924,1758091120.34619,0.0,0.0,0.0,0.22918,28.30412,-0.85944,13.74,0.18,2.88,3.0
1758091138.65405,1758091120.35619,0.0,0.0,0.0,-0.40107,24.00693,0.45837,12.41,0.99,3.27,3.0
1758091138.65526,1758091120.36619,0.0,0.0,0.0,-0.34377,19.76705,0.68755,12.41,0.99,3.27,3.0
1758091138.67189,1758091120.37619,0.0,0.0,0.0,-0.40107,12.08941,0.17189,10.84,1.58,3.65,3.0
1758091138.68841,1758091120.38619,0.0,0.0,0.0,-0.85944,4.98473,-0.34377,9.02,1.62,3.62,3.0
1758091138.68922,1758091120.39619,0.0,0.0,0.0,-2.34913,-3.72423,-0.85944,9.02,1.62,3.62,3.0
1758091138.70407,1758091120.40619,0.0,0.0,0.0,-5.55769,-18.16276,-1.3751,7.39,1.23,3.47,3.0
1758091138.70548,1758091120.41619,0.0,0.0,0.0,-8.25059,-27.78845,-1.48969,7.39,1.23,3.47,3.0
1758091138.72134,1758091120.42619,0.0,0.0,0.0,-10.65701,-37.29956,-1.43239,6.67,0.69,3.43,3.0
1758091138.73804,1758091120.43619,0.0,0.0,0.0,-12.37589,-46.46688,-1.3178,6.67,0.69,3.43,3.0
1758091138.73955,1758091120.44619,0.0,0.0,0.0,-13.40721,-57.29578,-0.45837,6.49,0.26,3.28,3.0
1758091138.75408,1758091120.45619,0.0,0.0,0.0,-13.46451,-60.90542,-0.17189,6.82,-0.02,3.04,3.0
1758091138.75776,1758091120.46619,0.0,0.0,0.0,-12.71966,-61.76485,0.17189,6.82,-0.02,3.04,3.0
1758091138.77327,1758091120.47619,0.0,0.0,0.0,-11.97482,-61.36378,-0.17189,7.48,-0.25,3.11,3.0
1758091138.81628,1758091120.48619,0.0,0.0,0.0,-10.31324,-55.57691,0.17189,7.48,-0.25,3.11,3.0
1758091138.82367,1758091120.49619,0.0,0.0,0.0,-10.19865,-52.02457,0.22918,8.35,-0.39,2.92,3.0
1758091138.82596,1758091120.50619,0.0,0.0,0.0,-10.48513,-45.83662,0.40107,8.35,-0.39,2.92,3.0
1758091138.82716,1758091120.51619,0.0,0.0,0.0,-11.45916,-37.92981,0.51566,9.02,-0.24,2.18,3.0
1758091138.82778,1758091120.52619,0.0,0.0,0.0,-13.23533,-23.60586,0.85944,9.47,-0.03,1.64,3.0
1758091138.82985,1758091120.53619,0.0,0.0,0.0,-14.49583,-13.5791,1.08862,9.47,-0.03,1.64,3.0
1758091138.84592,1758091120.54619,0.0,0.0,0.0,-15.35527,-4.46907,1.83346,9.41,0.03,1.55,3.0
1758091138.84712,1758091120.55619,0.0,0.0,0.0,-16.3293,4.1253,2.11994,9.41,0.03,1.55,3.0
1758091138.86213,1758091120.56619,0.0,0.0,0.0,-16.272,17.76169,3.03668,9.57,0.0,1.56,3.0
1758091138.87994,1758091120.57619,0.0,0.0,0.0,-15.41257,26.87172,4.23989,9.57,0.0,1.56,3.0
1758091138.88354,1758091120.58619,0.0,0.0,0.0,-14.43854,34.09099,4.81285,9.95,-0.2,1.48,3.0
1758091138.89988,1758091120.59619,0.0,0.0,0.0,-13.23533,47.61279,6.13065,9.95,-0.2,1.48,3.0
1758091138.90112,1758091120.60619,0.0,0.0,0.0,-13.40721,54.08722,6.7609,10.09,-0.34,1.46,3.0
1758091138.91644,1758091120.61619,0.0,0.0,0.0,-13.98017,56.20716,7.21927,9.41,-0.18,1.66,3.0
1758091138.91891,1758091120.62619,0.0,0.0,0.0,-15.12609,55.86338,7.67763,9.41,-0.18,1.66,3.0
1758091138.93411,1758091120.63619,0.0,0.0,0.0,-18.50654,55.6915,7.04738,9.1,0.07,1.85,3.0
1758091138.93531,1758091120.64619,0.0,0.0,0.0,-21.14215,55.34772,5.90147,9.1,0.07,1.85,3.0
1758091138.95201,1758091120.65619,0.0,0.0,0.0,-23.26209,52.884,4.92744,9.17,0.29,1.93,3.0
1758091138.96845,1758091120.66619,0.0,0.0,0.0,-24.80907,48.12846,3.89611,9.17,0.29,1.93,3.0
1758091138.96934,1758091120.67619,0.0,0.0,0.0,-26.87172,37.92981,2.97938,8.82,0.39,2.07,3.0
1758091138.98415,1758091120.68619,0.0,0.0,0.0,-28.01764,32.37212,3.20856,8.76,0.27,1.88,3.0
1758091138.98614,1758091120.69619,0.0,0.0,0.0,-28.76248,28.30412,4.29718,8.76,0.27,1.88,3.0
1758091139.00242,1758091120.70619,0.0,0.0,0.0,-29.33544,25.26744,5.90147,8.85,0.0,1.82,3.0
1758091139.01835,1758091120.71619,0.0,0.0,0.0,-28.76248,23.20479,8.76626,8.85,0.0,1.82,3.0
1758091139.01961,1758091120.72619,0.0,0.0,0.0,-27.84575,22.28806,10.59972,8.67,-0.34,1.7,3.0
1758091139.03419,1758091120.73619,0.0,0.0,0.0,-26.69983,20.45459,12.2613,8.67,-0.34,1.7,3.0
1758091139.03536,1758091120.74619,0.0,0.0,0.0,-25.38203,16.21471,12.83425,8.14,-0.68,1.45,3.0
1758091139.05226,1758091120.75619,0.0,0.0,0.0,-23.60586,9.91217,11.28727,7.93,-0.82,1.27,3.0
1758091139.06843,1758091120.76619,0.0,0.0,0.0,-22.40265,6.53172,9.11003,7.93,-0.82,1.27,3.0
1758091139.07021,1758091120.77619,0.0,0.0,0.0,-21.7151,2.34913,5.84417,8.24,-0.76,1.38,3.0
1758091139.08548,1758091120.78619,0.0,0.0,0.0,-20.74107,-1.71887,0.85944,8.24,-0.76,1.38,3.0
1758091139.08687,1758091120.79619,0.0,0.0,0.0,-20.16812,-6.99009,-2.11994,8.63,-0.58,1.63,3.0
1758091139.10124,1758091120.80619,0.0,0.0,0.0,-20.05352,-10.25595,-4.23989,8.63,-0.58,1.63,3.0
1758091139.11723,1758091120.81619,0.0,0.0,0.0,-20.22541,-12.83425,-5.50039,8.84,-0.42,1.75,3.0
1758091139.11843,1758091120.82619,0.0,0.0,0.0,-21.37133,-13.69369,-5.21392,8.84,-0.42,1.75,3.0
1758091139.1333,1758091120.83619,0.0,0.0,0.0,-21.88699,-9.33921,-4.18259,8.87,-0.27,1.6,3.0
1758091139.14914,1758091120.84619,0.0,0.0,0.0,-21.42862,0.45837,-2.11994,9.42,-0.34,1.4,3.0
1758091139.15044,1758091120.85619,0.0,0.0,0.0,-20.79837,11.80293,-0.11459,9.42,-0.34,1.4,3.0
1758091139.16612,1758091120.86619,0.0,0.0,0.0,-19.07949,20.16812,2.57831,9.58,-0.63,1.5,3.0
1758091139.1674,1758091120.87619,0.0,0.0,0.0,-17.53251,21.88699,3.83882,9.58,-0.63,1.5,3.0
1758091139.18223,1758091120.88619,0.0,0.0,0.0,-15.92823,23.54857,4.64096,9.56,-0.75,1.43,3.0
1758091139.19841,1758091120.89619,0.0,0.0,0.0,-14.03747,23.89234,5.72958,9.56,-0.75,1.43,3.0
1758091139.19943,1758091120.90619,0.0,0.0,0.0,-10.94349,22.23076,8.47978,9.85,-0.97,1.48,3.0
1758091139.21424,1758091120.91619,0.0,0.0,0.0,-8.47978,20.85567,10.94349,9.74,-1.31,1.39,3.0
1758091139.21546,1758091120.92619,0.0,0.0,0.0,-6.07335,20.05352,14.15206,9.74,-1.31,1.39,3.0
1758091139.23124,1758091120.93619,0.0,0.0,0.0,-3.83882,18.50654,17.18874,10.0,-1.55,1.28,3.0
1758091139.24723,1758091120.94619,0.0,0.0,0.0,-1.3751,2.29183,20.62648,10.0,-1.55,1.28,3.0
1758091139.24843,1758091120.95619,0.0,0.0,0.0,-0.57296,-10.65701,19.53786,9.31,-1.61,1.56,3.0
1758091139.26351,1758091120.96619,0.0,0.0,0.0,-1.20321,-3.32316,18.10547,9.31,-1.61,1.56,3.0
1758091139.28006,1758091120.97619,0.0,0.0,0.0,-1.43239,12.14671,18.85031,11.78,-1.8,2.92,3.0
1758091139.28126,1758091120.98619,0.0,0.0,0.0,-3.20856,26.24147,17.93358,13.55,-1.49,4.93,3.0
1758091139.29653,1758091120.99619,0.0,0.0,0.0,-4.87014,14.78231,17.6471,13.55,-1.49,4.93,3.0
1758091139.29826,1758091121.00619,0.0,0.0,0.0,-7.67763,-4.92744,19.25138,11.99,-0.48,3.9,3.0
1758091139.3136,1758091121.01619,0.0,0.0,0.0,-7.79223,-16.90226,21.7151,11.99,-0.48,3.9,3.0
1758091139.32998,1758091121.02619,0.0,0.0,0.0,-10.37054,-2.40642,20.74107,14.54,0.14,3.67,3.0
1758091139.33237,1758091121.03619,0.0,0.0,0.0,-11.97482,9.91217,19.59516,14.54,0.14,3.67,3.0
1758091139.34729,1758091121.04619,0.0,0.0,0.0,-11.74564,12.60507,18.44924,15.37,-0.63,4.22,3.0
1758091139.34873,1758091121.05619,0.0,0.0,0.0,-8.02141,10.48513,15.98552,15.37,-0.63,5.08,3.0
1758091139.36353,1758091121.06619,0.0,0.0,0.0,-4.58366,8.36518,13.5791,14.01,-2.34,5.08,3.0
1758091139.37956,1758091121.07619,0.0,0.0,0.0,-1.94806,8.25059,10.65701,13.42,-2.9,4.4,3.0
1758091139.38081,1758091121.08619,0.0,0.0,0.0,0.11459,9.68299,7.50575,13.42,-2.9,4.4,3.0
1758091139.39535,1758091121.09619,0.0,0.0,0.0,3.09397,11.11538,3.83882,12.99,-2.21,4.06,3.0
1758091139.39652,1758091121.10619,0.0,0.0,0.0,4.87014,11.00079,1.77617,12.99,-2.21,4.06,3.0
1758091139.41233,1758091121.11619,0.0,0.0,0.0,7.04738,11.51645,0.80214,11.81,-1.5,3.9,3.0
1758091139.42825,1758091121.12619,0.0,0.0,0.0,9.4538,11.17268,1.20321,11.81,-1.5,3.9,3.0
1758091139.4322,1758091121.13619,0.0,0.0,0.0,13.5791,4.35448,2.57831,9.82,-1.25,3.71,3.0
1758091139.44728,1758091121.14619,0.0,0.0,0.0,16.90226,-3.83882,4.35448,7.22,-1.2,3.44,3.0
1758091139.44854,1758091121.15619,0.0,0.0,0.0,20.51189,-14.72501,6.24524,7.22,-1.2,3.44,3.0
1758091139.46353,1758091121.16619,0.0,0.0,0.0,23.31938,-24.92367,7.50575,5.42,-1.12,3.54,3.0
1758091139.46563,1758091121.17619,0.0,0.0,0.0,26.64254,-37.12767,8.42248,5.42,-1.12,3.54,3.0
1758091139.48159,1758091121.18619,0.0,0.0,0.0,28.30412,-43.77398,7.84952,5.15,-0.94,3.38,3.0
1758091139.49734,1758091121.19619,0.0,0.0,0.0,29.22085,-48.8733,6.58902,5.15,-0.94,3.38,3.0
1758091139.49856,1758091121.20619,0.0,0.0,0.0,29.56462,-52.82671,3.89611,5.69,-0.48,3.15,3.0
1758091139.51581,1758091121.21619,0.0,0.0,0.0,29.96569,-51.27972,2.7502,7.05,0.23,2.75,3.0
1758091139.51782,1758091121.22619,0.0,0.0,0.0,29.9084,-48.01387,1.60428,7.05,0.23,2.75,3.0
1758091139.53359,1758091121.23619,0.0,0.0,0.0,30.02299,-44.17505,0.80214,8.5,0.55,2.59,3.0
1758091139.53537,1758091121.24619,0.0,0.0,0.0,29.56462,-34.60666,0.40107,8.5,0.55,2.59,3.0
1758091139.55125,1758091121.25619,0.0,0.0,0.0,28.93437,-25.49662,0.45837,9.64,0.32,2.65,3.0
1758091139.56749,1758091121.26619,0.0,0.0,0.0,28.36141,-16.3293,1.20321,9.64,0.32,2.65,3.0
1758091139.5685,1758091121.27619,0.0,0.0,0.0,27.78845,-7.62034,2.06265,9.89,-0.2,2.59,3.0
1758091139.58383,1758091121.28619,0.0,0.0,0.0,27.44468,6.35983,3.09397,9.51,-0.56,2.54,3.0
1758091139.59957,1758091121.29619,0.0,0.0,0.0,27.2155,14.9542,3.20856,9.51,-0.56,2.54,3.0
1758091139.60215,1758091121.30619,0.0,0.0,0.0,26.81443,22.91831,2.6929,9.12,-0.45,2.58,3.0
1758091139.61732,1758091121.31619,0.0,0.0,0.0,26.52795,29.96569,1.83346,9.12,-0.45,2.58,3.0
1758091139.61852,1758091121.32619,0.0,0.0,0.0,25.43933,35.92446,-0.11459,8.82,-0.14,2.52,3.0
1758091139.63436,1758091121.33619,0.0,0.0,0.0,24.29341,38.21629,-1.66158,8.82,-0.14,2.52,3.0
1758091139.6371,1758091121.34619,0.0,0.0,0.0,23.20479,38.56006,-3.26586,8.6,0.09,2.52,3.0
1758091139.65361,1758091121.35619,0.0,0.0,0.0,22.11617,37.58603,-4.58366,8.6,0.09,2.52,3.0
1758091139.67009,1758091121.36619,0.0,0.0,0.0,21.14215,35.40879,-5.32851,8.52,0.07,2.54,3.0
1758091139.6729,1758091121.37619,0.0,0.0,0.0,20.85567,32.71589,-5.72958,8.5,-0.11,2.61,3.0
1758091139.68856,1758091121.38619,0.0,0.0,0.0,21.48592,29.22085,-5.72958,8.5,-0.11,2.61,3.0
1758091139.68953,1758091121.39619,0.0,0.0,0.0,23.26209,26.12688,-4.81285,8.35,-0.27,2.65,3.0
1758091139.70454,1758091121.40619,0.0,0.0,0.0,25.09555,20.97026,-4.0107,8.35,-0.27,2.65,3.0
1758091139.7071,1758091121.41619,0.0,0.0,0.0,27.44468,17.30333,-2.97938,8.11,-0.49,2.72,3.0
1758091139.72236,1758091121.42619,0.0,0.0,0.0,29.73651,13.5791,-2.29183,8.11,-0.49,2.72,3.0
1758091139.73835,1758091121.43619,0.0,0.0,0.0,33.34615,7.33386,-1.3178,7.78,-0.69,2.73,3.0
1758091139.73956,1758091121.44619,0.0,0.0,0.0,35.2369,2.7502,-1.3751,7.6,-0.79,2.58,3.0
1758091139.75751,1758091121.45619,0.0,0.0,0.0,37.01308,-1.48969,-1.71887,7.6,-0.79,2.58,3.0
1758091139.75856,1758091121.46619,0.0,0.0,0.0,38.50277,-5.27121,-2.06265,7.71,-0.76,2.39,3.0
1758091139.77434,1758091121.47619,0.0,0.0,0.0,40.27893,-8.76626,-2.92208,7.71,-0.76,2.39,3.0
1758091139.77631,1758091121.48619,0.0,0.0,0.0,40.7373,-10.02676,-3.83882,8.06,-0.57,2.48,3.0
1758091139.79239,1758091121.49619,0.0,0.0,0.0,40.85189,-12.204,-5.15662,8.06,-0.57,2.48,3.0
1758091139.80838,1758091121.50619,0.0,0.0,0.0,40.45082,-14.66772,-6.35983,8.14,-0.22,2.34,3.0
1758091139.80961,1758091121.51619,0.0,0.0,0.0,39.87786,-17.99088,-7.39116,8.24,0.15,2.22,3.0
1758091139.82482,1758091121.52619,0.0,0.0,0.0,39.13302,-19.70975,-7.16197,8.24,0.15,2.22,3.0
1758091139.82554,1758091121.53619,0.0,0.0,0.0,38.1017,-20.3973,-6.41713,8.54,0.35,2.15,3.0
1758091139.84138,1758091121.54619,0.0,0.0,0.0,36.95578,-20.16812,-4.87014,8.54,0.35,2.15,3.0
1758091139.85743,1758091121.55619,0.0,0.0,0.0,35.3515,-17.36062,-2.40642,8.84,0.32,2.23,3.0
1758091139.85893,1758091121.56619,0.0,0.0,0.0,34.26288,-14.20935,-0.85944,8.84,0.32,2.23,3.0
1758091139.87337,1758091121.57619,0.0,0.0,0.0,32.83048,-10.19865,0.17189,9.16,0.11,2.24,3.0
1758091139.88941,1758091121.58619,0.0,0.0,0.0,31.74186,-5.84417,1.03132,9.16,0.11,2.24,3.0
1758091139.89062,1758091121.59619,0.0,0.0,0.0,30.36677,-0.11459,1.66158,9.39,-0.05,2.11,3.0
1758091139.90541,1758091121.60619,0.0,0.0,0.0,29.56462,3.55234,2.00535,9.51,-0.03,2.0,3.0
1758091139.9067,1758091121.61619,0.0,0.0,0.0,28.70519,6.70361,2.57831,9.51,-0.03,2.0,3.0
1758091139.92169,1758091121.62619,0.0,0.0,0.0,27.38738,11.28727,2.92208,9.63,0.11,1.98,3.0
1758091139.93772,1758091121.63619,0.0,0.0,0.0,26.12688,13.17803,3.26586,9.63,0.11,1.98,3.0
1758091139.9386,1758091121.64619,0.0,0.0,0.0,24.92367,14.66772,3.95341,9.64,0.28,1.9,3.0
1758091139.95353,1758091121.65619,0.0,0.0,0.0,23.60586,16.38659,4.0107,9.64,0.28,1.9,3.0
1758091139.96962,1758091121.66619,0.0,0.0,0.0,22.51724,8.65166,4.0107,9.51,0.29,1.96,3.0
1758091139.97069,1758091121.67619,0.0,0.0,0.0,21.48592,1.08862,3.72423,8.8,0.24,1.84,3.0
1758091139.98536,1758091121.68619,0.0,0.0,0.0,20.97026,-5.32851,3.49504,8.8,0.24,1.84,3.0
1758091139.98657,1758091121.69619,0.0,0.0,0.0,19.07949,-7.16197,2.7502,9.19,0.2,1.57,3.0
1758091140.00132,1758091121.70619,0.0,0.0,0.0,17.18874,-11.63104,0.80214,9.19,0.2,1.57,3.0
1758091140.01746,1758091121.71619,0.0,0.0,0.0,15.29797,-14.83961,-0.74485,9.52,0.38,1.72,3.0
1758091140.01866,1758091121.72619,0.0,0.0,0.0,13.5218,-17.76169,-2.29183,9.52,0.38,1.72,3.0
1758091140.03361,1758091121.73619,0.0,0.0,0.0,11.74564,-20.16812,-3.55234,9.88,0.65,1.68,3.0
1758091140.03546,1758091121.74619,0.0,0.0,0.0,8.47978,-22.34536,-5.72958,10.04,0.87,1.6,3.0
1758091140.05227,1758091121.75619,0.0,0.0,0.0,6.87549,-25.7831,-6.70361,10.04,0.87,1.6,3.0
1758091140.06868,1758091121.76619,0.0,0.0,0.0,5.84417,-35.63798,-7.79223,9.39,1.11,1.69,3.0
1758091140.07048,1758091121.77619,0.0,0.0,0.0,3.89611,-44.40423,-9.5684,9.39,1.11,1.69,3.0
1758091140.08646,1758091121.78619,0.0,0.0,0.0,5.21392,-52.71212,-10.59972,10.05,1.19,2.18,3.0
1758091140.08765,1758091121.79619,0.0,0.0,0.0,9.33921,-62.79618,-10.71431,10.05,1.19,2.18,3.0
1758091140.10243,1758091121.80619,0.0,0.0,0.0,10.31324,-72.0208,-12.14671,11.72,0.79,3.9,3.0
1758091140.11844,1758091121.81619,0.0,0.0,0.0,11.91752,-60.04598,-14.9542,11.72,0.79,3.9,3.0
1758091140.12044,1758091121.82619,0.0,0.0,0.0,10.8862,-17.13144,-18.22006,15.2,0.27,3.43,3.0
1758091140.13547,1758091121.83619,0.0,0.0,0.0,10.94349,1.77617,-18.33465,15.53,0.07,3.23,3.0
1758091140.13827,1758091121.84619,0.0,0.0,0.0,9.91217,3.89611,-17.6471,15.53,0.07,3.23,3.0
1758091140.1535,1758091121.85619,0.0,0.0,0.0,7.39116,3.72423,-15.64175,13.08,0.43,3.6,3.0
1758091140.15735,1758091121.86619,0.0,0.0,0.0,4.35448,12.89155,-13.00614,13.08,0.43,3.6,3.0
1758091140.17246,1758091121.87619,0.0,0.0,0.0,1.03132,24.4653,-9.33921,14.7,1.09,2.79,3.0
1758091140.18835,1758091121.88619,0.0,0.0,0.0,-1.77617,30.30947,-5.4431,14.7,1.09,2.79,3.0
1758091140.19046,1758091121.89619,0.0,0.0,0.0,-3.89611,34.72124,-1.43239,14.72,1.41,3.0,3.0
1758091140.20555,1758091121.90619,0.0,0.0,0.0,-4.0107,37.35685,0.0573,14.2,1.33,3.61,3.0
1758091140.20671,1758091121.91619,0.0,0.0,0.0,-3.32316,36.61201,0.97403,14.2,1.33,3.61,3.0
1758091140.22152,1758091121.92619,0.0,0.0,0.0,-2.86479,35.00772,0.57296,12.74,0.9,3.81,3.0
1758091140.23778,1758091121.93619,0.0,0.0,0.0,-2.57831,31.62727,-0.97403,12.74,0.9,3.81,3.0
1758091140.23954,1758091121.94619,0.0,0.0,0.0,-3.49504,28.01764,-2.6929,11.17,0.48,3.71,3.0
1758091140.25762,1758091121.95619,0.0,0.0,0.0,-4.87014,22.86102,-4.52637,11.17,0.48,3.71,3.0
1758091140.25872,1758091121.96619,0.0,0.0,0.0,-6.58902,17.18874,-6.18794,9.39,0.53,3.36,3.0
1758091140.27364,1758091121.97619,0.0,0.0,0.0,-9.28192,6.7609,-7.67763,8.0,0.94,3.14,3.0
1758091140.28947,1758091121.98619,0.0,0.0,0.0,-11.11538,-1.03132,-7.73493,8.0,0.94,3.14,3.0
1758091140.29074,1758091121.99619,0.0,0.0,0.0,-12.60507,-8.59437,-6.87549,6.96,1.23,3.36,3.0
1758091140.30554,1758091122.00619,0.0,0.0,0.0,-13.69369,-15.75634,-5.09932,6.96,1.23,3.36,3.0
1758091140.30672,1758091122.01619,0.0,0.0,0.0,-14.49583,-27.10091,-3.72423,6.57,1.02,3.32,3.0
1758091140.32161,1758091122.02619,0.0,0.0,0.0,-14.66772,-34.43476,-2.46372,6.57,1.02,3.32,3.0
1758091140.33798,1758091122.03619,0.0,0.0,0.0,-14.49583,-40.68,-1.3178,6.3,0.48,3.25,3.0
1758091140.33904,1758091122.04619,0.0,0.0,0.0,-13.46451,-48.12846,0.0573,6.3,0.48,3.25,3.0
1758091140.35389,1758091122.05619,0.0,0.0,0.0,-12.54778,-51.45161,0.57296,6.37,-0.07,3.33,3.0
1758091140.36993,1758091122.06619,0.0,0.0,0.0,-11.51645,-50.82136,1.03132,6.96,-0.47,3.02,3.0
1758091140.37074,1758091122.07619,0.0,0.0,0.0,-10.8862,-48.24305,0.97403,6.96,-0.47,3.02,3.0
1758091140.38582,1758091122.08619,0.0,0.0,0.0,-11.57375,-42.1124,-1.08862,7.69,-0.6,2.48,3.0
1758091140.38673,1758091122.09619,0.0,0.0,0.0,-13.12073,-38.38818,-2.11994,7.69,-0.6,2.48,3.0
1758091140.40154,1758091122.10619,0.0,0.0,0.0,-14.72501,-32.6013,-3.20856,8.44,-0.43,2.34,3.0
1758091140.41753,1758091122.11619,0.0,0.0,0.0,-16.10011,-25.61122,-3.66693,8.44,-0.43,2.34,3.0
1758091140.41867,1758091122.12619,0.0,0.0,0.0,-17.81899,-13.46451,-3.55234,9.23,-0.15,1.93,3.0
1758091140.43361,1758091122.13619,0.0,0.0,0.0,-18.85031,-4.23989,-2.86479,9.65,-0.03,1.72,3.0
1758091140.44987,1758091122.14619,0.0,0.0,0.0,-19.36597,4.98473,-1.66158,9.65,-0.03,1.72,3.0
1758091140.45233,1758091122.15619,0.0,0.0,0.0,-19.48057,13.17803,-0.22918,9.87,-0.11,1.7,3.0
1758091140.46785,1758091122.16619,0.0,0.0,0.0,-18.85031,24.4653,2.23454,9.87,-0.11,1.7,3.0
1758091140.46875,1758091122.17619,0.0,0.0,0.0,-18.10547,30.36677,3.72423,9.98,-0.28,1.71,3.0
1758091140.48358,1758091122.18619,0.0,0.0,0.0,-17.18874,36.7266,5.09932,9.98,-0.28,1.71,3.0
1758091140.49962,1758091122.19619,0.0,0.0,0.0,-16.55848,44.63341,6.58902,10.04,-0.32,1.8,3.0
1758091140.50082,1758091122.20619,0.0,0.0,0.0,-15.98552,50.53488,8.47978,9.43,-0.21,1.99,3.0
1758091140.51592,1758091122.21619,0.0,0.0,0.0,-16.50119,49.84733,9.22462,9.43,-0.21,1.99,3.0
1758091140.51683,1758091122.22619,0.0,0.0,0.0,-17.76169,49.33167,9.28192,8.62,-0.04,2.19,3.0
1758091140.53235,1758091122.23619,0.0,0.0,0.0,-20.45459,49.56085,8.42248,8.62,-0.04,2.19,3.0
1758091140.5489,1758091122.24619,0.0,0.0,0.0,-22.28806,48.24305,7.33386,8.6,0.17,2.1,3.0
1758091140.55062,1758091122.25619,0.0,0.0,0.0,-24.23611,43.88857,6.35983,8.6,0.17,2.1,3.0
1758091140.56565,1758091122.26619,0.0,0.0,0.0,-25.89769,38.15899,5.4431,8.27,0.33,2.12,3.0
1758091140.56705,1758091122.27619,0.0,0.0,0.0,-28.24682,31.28349,5.21392,8.27,0.33,2.12,3.0
1758091140.58189,1758091122.28619,0.0,0.0,0.0,-29.8511,27.73116,5.84417,8.48,0.44,2.1,3.0
1758091140.59764,1758091122.29619,0.0,0.0,0.0,-31.16891,24.92367,7.10468,8.61,0.33,2.14,3.0
1758091140.59884,1758091122.30619,0.0,0.0,0.0,-32.25753,21.94428,8.99544,8.61,0.33,2.14,3.0
1758091140.6136,1758091122.31619,0.0,0.0,0.0,-33.46074,14.20935,12.08941,8.32,0.08,2.16,3.0
1758091140.62963,1758091122.32619,0.0,0.0,0.0,-34.37747,6.8182,12.71966,8.32,0.08,2.16,3.0
1758091140.63179,1758091122.33619,0.0,0.0,0.0,-35.12231,0.51566,12.37589,7.79,-0.2,1.91,3.0
1758091140.64659,1758091122.34619,0.0,0.0,0.0,-35.75257,-4.29718,11.00079,7.79,-0.2,1.91,3.0
1758091140.6478,1758091122.35619,0.0,0.0,0.0,-36.32552,-12.08941,7.73493,8.04,-0.33,1.86,3.0
1758091140.6637,1758091122.36619,0.0,0.0,0.0,-36.38282,-16.3293,5.27121,8.43,-0.38,2.03,3.0
1758091140.67963,1758091122.37619,0.0,0.0,0.0,-36.38282,-19.99623,3.20856,8.43,-0.38,2.03,3.0
1758091140.68081,1758091122.38619,0.0,0.0,0.0,-36.32552,-23.20479,1.3178,8.94,-0.41,2.15,3.0
1758091140.69565,1758091122.39619,0.0,0.0,0.0,-36.55471,-26.47065,-0.45837,8.94,-0.41,2.15,3.0
1758091140.69845,1758091122.40619,0.0,0.0,0.0,-36.84119,-26.98631,-1.20321,9.18,-0.48,2.02,3.0
1758091140.71666,1758091122.41619,0.0,0.0,0.0,-36.89849,-26.41335,-1.20321,9.18,-0.48,2.02,3.0
1758091140.71783,1758091122.42619,0.0,0.0,0.0,-36.95578,-24.57989,-0.74485,9.36,-0.53,1.76,3.0
1758091140.73299,1758091122.43619,0.0,0.0,0.0,-36.6693,-18.73572,-0.34377,9.65,-0.5,1.55,3.0
1758091140.74865,1758091122.44619,0.0,0.0,0.0,-36.03905,-11.97482,-0.40107,9.65,-0.5,1.55,3.0
1758091140.75153,1758091122.45619,0.0,0.0,0.0,-34.89313,-2.92208,-0.17189,10.02,-0.55,1.63,3.0
1758091140.76653,1758091122.46619,0.0,0.0,0.0,-31.62727,14.49583,0.0573,10.02,-0.55,1.63,3.0
1758091140.76787,1758091122.47619,0.0,0.0,0.0,-28.87707,23.49127,0.74485,10.21,-0.98,1.89,3.0
1758091140.78292,1758091122.48619,0.0,0.0,0.0,-25.7831,28.30412,2.23454,10.21,-0.98,1.89,3.0
1758091140.79863,1758091122.49619,0.0,0.0,0.0,-23.0329,29.9084,3.55234,9.58,-1.46,1.65,3.0
1758091140.79983,1758091122.50619,0.0,0.0,0.0,-19.59516,32.54401,6.7609,9.71,-1.46,1.56,3.0
1758091140.8146,1758091122.51619,0.0,0.0,0.0,-16.95955,32.88778,9.5684,9.71,-1.81,1.56,3.0
1758091140.81746,1758091122.52619,0.0,0.0,0.0,-14.03747,31.56997,12.43318,9.83,-2.0,1.62,3.0
1758091140.83296,1758091122.53619,0.0,0.0,0.0,-10.8289,29.96569,15.41257,9.83,-2.0,1.62,3.0
1758091140.84888,1758091122.54619,0.0,0.0,0.0,-5.61499,18.33465,18.56383,9.96,-2.05,1.78,3.0
1758091140.85268,1758091122.55619,0.0,0.0,0.0,-3.38045,0.34377,16.38659,9.96,-2.05,1.78,3.0
1758091140.86768,1758091122.56619,0.0,0.0,0.0,-1.77617,-6.13065,13.5218,9.48,-2.05,2.2,3.0
1758091140.86889,1758091122.57619,0.0,0.0,0.0,-0.11459,4.35448,12.83425,9.48,-2.05,2.2,3.0
1758091140.88667,1758091122.58619,0.0,0.0,0.0,0.17189,21.31403,9.33921,12.84,-2.53,3.8,3.0
1758091140.88781,1758091122.59619,0.0,0.0,0.0,0.51566,29.67921,8.65166,13.29,-2.19,5.29,3.0
1758091140.90267,1758091122.60619,0.0,0.0,0.0,0.97403,16.38659,7.84952,13.29,-2.19,5.29,3.0
1758091140.91867,1758091122.61619,0.0,0.0,0.0,-3.95341,-11.11538,7.10468,11.16,-0.75,5.0,3.0
1758091140.91994,1758091122.62619,0.0,0.0,0.0,-3.95341,-33.46074,13.98017,11.16,-0.75,5.0,3.0
1758091140.93471,1758091122.63619,0.0,0.0,0.0,-6.41713,-24.35071,14.38124,13.86,-0.07,3.29,3.0
1758091140.93782,1758091122.64619,0.0,0.0,0.0,-8.59437,-10.02676,13.69369,13.86,-0.07,3.29,3.0
1758091140.95373,1758091122.65619,0.0,0.0,0.0,-9.22462,2.57831,13.40721,15.51,-0.98,3.66,3.0
1758091140.96967,1758091122.66619,0.0,0.0,0.0,-7.50575,5.21392,12.204,14.51,-2.67,5.0,3.0
1758091140.97101,1758091122.67619,0.0,0.0,0.0,-4.87014,6.87549,11.57375,14.51,-2.67,5.0,3.0
1758091140.98667,1758091122.68619,0.0,0.0,0.0,-1.94806,8.25059,9.28192,13.22,-2.77,4.13,3.0
1758091140.98794,1758091122.69619,0.0,0.0,0.0,2.57831,10.59972,5.21392,13.22,-2.77,4.13,3.0
1758091141.00301,1758091122.70619,0.0,0.0,0.0,5.84417,10.31324,1.60428,11.35,-2.01,3.55,3.0
1758091141.01868,1758091122.71619,0.0,0.0,0.0,9.11003,12.204,-1.20321,11.35,-2.01,3.55,3.0
1758091141.01989,1758091122.72619,0.0,0.0,0.0,12.89155,12.204,-2.7502,9.94,-1.41,3.75,3.0
1758091141.03573,1758091122.73619,0.0,0.0,0.0,18.22006,3.72423,-4.58366,7.99,-1.15,3.88,3.0
1758091141.0367,1758091122.74619,0.0,0.0,0.0,22.05888,-4.46907,-4.0107,7.99,-1.15,3.88,3.0
1758091141.05291,1758091122.75619,0.0,0.0,0.0,25.15285,-14.72501,-3.83882,6.39,-0.98,3.62,3.0
1758091141.06896,1758091122.76619,0.0,0.0,0.0,27.67386,-24.86637,-3.83882,6.39,-0.98,3.62,3.0
1758091141.06991,1758091122.77619,0.0,0.0,0.0,30.36677,-38.56006,-3.55234,5.67,-0.71,3.32,3.0
1758091141.08468,1758091122.78619,0.0,0.0,0.0,31.51268,-46.52417,-3.26586,5.67,-0.71,3.32,3.0
1758091141.08593,1758091122.79619,0.0,0.0,0.0,32.20023,-54.48829,-2.97938,5.93,-0.43,3.34,3.0
1758091141.10214,1758091122.80619,0.0,0.0,0.0,32.14294,-60.50434,-3.03668,5.93,-0.43,3.34,3.0
1758091141.11798,1758091122.81619,0.0,0.0,0.0,31.28349,-62.68159,-2.57831,6.63,-0.18,3.14,3.0
1758091141.11886,1758091122.82619,0.0,0.0,0.0,30.65324,-61.53567,-2.46372,7.75,-0.07,2.95,3.0
1758091141.13368,1758091122.83619,0.0,0.0,0.0,30.48136,-59.07195,-1.71887,7.75,-0.07,2.95,3.0
1758091141.14973,1758091122.84619,0.0,0.0,0.0,30.25217,-53.68615,-0.34377,8.55,-0.15,2.79,3.0
1758091141.1512,1758091122.85619,0.0,0.0,0.0,30.30947,-42.51347,1.20321,8.55,-0.15,2.79,3.0
1758091141.16599,1758091122.86619,0.0,0.0,0.0,30.30947,-33.63263,2.29183,9.2,-0.35,2.69,3.0
1758091141.16709,1758091122.87619,0.0,0.0,0.0,30.25217,-24.29341,3.20856,9.2,-0.35,2.69,3.0
1758091141.182,1758091122.88619,0.0,0.0,0.0,30.65324,-10.54242,3.38045,9.32,-0.43,2.48,3.0
1758091141.19777,1758091122.89619,0.0,0.0,0.0,30.76784,-1.43239,2.40642,9.35,-0.34,2.51,3.0
1758091141.19895,1758091122.90619,0.0,0.0,0.0,30.82513,8.65166,1.14592,9.35,-0.34,2.51,3.0
1758091141.21373,1758091122.91619,0.0,0.0,0.0,30.53865,17.18874,-0.45837,9.42,-0.2,2.36,3.0
1758091141.23019,1758091122.92619,0.0,0.0,0.0,29.50733,28.476,-2.97938,9.42,-0.2,2.36,3.0
1758091141.23167,1758091122.93619,0.0,0.0,0.0,28.70519,33.17426,-5.32851,9.27,-0.01,2.23,3.0
1758091141.2471,1758091122.94619,0.0,0.0,0.0,27.84575,37.58603,-7.16197,9.27,-0.01,2.23,3.0
1758091141.24835,1758091122.95619,0.0,0.0,0.0,27.10091,41.42485,-8.93814,9.13,0.21,2.31,3.0
1758091141.26303,1758091122.96619,0.0,0.0,0.0,26.18417,43.65939,-10.31324,9.01,0.3,2.36,3.0
1758091141.27877,1758091122.97619,0.0,0.0,0.0,26.06958,44.8053,-10.71431,9.01,0.3,2.36,3.0
1758091141.28,1758091122.98619,0.0,0.0,0.0,26.35606,44.86259,-10.59972,9.11,0.15,2.46,3.0
1758091141.29761,1758091122.99619,0.0,0.0,0.0,26.47065,44.17505,-10.02676,9.11,0.15,2.46,3.0
1758091141.29921,1758091123.00619,0.0,0.0,0.0,27.96034,40.39353,-7.67763,8.93,-0.15,2.51,3.0
1758091141.31382,1758091123.01619,0.0,0.0,0.0,28.93437,37.29956,-5.72958,8.93,-0.15,2.51,3.0
1758091141.31657,1758091123.02619,0.0,0.0,0.0,29.8511,33.86181,-4.0107,8.6,-0.39,2.51,3.0
1758091141.33286,1758091123.03619,0.0,0.0,0.0,30.82513,30.36677,-1.83346,8.6,-0.39,2.51,3.0
1758091141.3487,1758091123.04619,0.0,0.0,0.0,31.45539,24.75178,-1.08862,8.32,-0.53,2.57,3.0
1758091141.35117,1758091123.05619,0.0,0.0,0.0,31.97105,20.74107,-0.40107,8.19,-0.46,2.44,3.0
1758091141.36708,1758091123.06619,0.0,0.0,0.0,32.08564,16.95955,-0.34377,8.19,-0.46,2.44,3.0
1758091141.36842,1758091123.07619,0.0,0.0,0.0,31.16891,12.2613,-1.43239,8.29,-0.11,2.38,3.0
1758091141.38309,1758091123.08619,0.0,0.0,0.0,30.25217,8.136,-2.97938,8.29,-0.11,2.38,3.0
1758091141.39914,1758091123.09619,0.0,0.0,0.0,28.99167,3.20856,-4.64096,8.13,0.41,2.15,3.0
1758091141.40002,1758091123.10619,0.0,0.0,0.0,27.96034,-1.3751,-6.18794,8.13,0.41,2.15,3.0
1758091141.41768,1758091123.11619,0.0,0.0,0.0,26.69983,-7.21927,-7.96411,8.11,0.66,2.01,3.0
1758091141.41883,1758091123.12619,0.0,0.0,0.0,26.01229,-11.22997,-8.36518,8.23,0.51,1.92,3.0
1758091141.43382,1758091123.13619,0.0,0.0,0.0,25.38203,-15.06879,-8.02141,8.23,0.51,1.92,3.0
1758091141.43583,1758091123.14619,0.0,0.0,0.0,24.86637,-18.16276,-7.04738,8.43,0.25,1.96,3.0
1758091141.45309,1758091123.15619,0.0,0.0,0.0,24.63719,-21.14215,-4.58366,8.43,0.25,1.96,3.0
1758091141.46909,1758091123.16619,0.0,0.0,0.0,24.80907,-22.57454,-2.7502,8.69,0.01,2.12,3.0
1758091141.47005,1758091123.17619,0.0,0.0,0.0,25.21014,-23.0902,-0.80214,8.69,0.01,2.12,3.0
1758091141.48511,1758091123.18619,0.0,0.0,0.0,25.38203,-22.51724,0.40107,8.82,-0.1,2.23,3.0
1758091141.48684,1758091123.19619,0.0,0.0,0.0,25.43933,-23.0902,0.85944,8.72,-0.04,2.16,3.0
1758091141.50185,1758091123.20619,0.0,0.0,0.0,24.86637,-22.63183,0.85944,8.72,-0.04,2.16,3.0
1758091141.51783,1758091123.21619,0.0,0.0,0.0,23.94964,-21.14215,0.0,8.95,0.14,1.88,3.0
1758091141.51906,1758091123.22619,0.0,0.0,0.0,22.57454,-18.10547,-0.40107,8.95,0.14,1.88,3.0
1758091141.53387,1758091123.23619,0.0,0.0,0.0,19.70975,-11.45916,-0.68755,9.46,0.31,1.53,3.0
1758091141.55029,1758091123.24619,0.0,0.0,0.0,17.6471,-5.55769,-0.57296,9.46,0.31,1.53,3.0
1758091141.55181,1758091123.25619,0.0,0.0,0.0,15.24068,0.57296,-0.11459,9.77,0.42,1.22,3.0
1758091141.56717,1758091123.26619,0.0,0.0,0.0,11.63104,13.23533,1.14592,9.77,0.42,1.22,3.0
1758091141.56811,1758091123.27619,0.0,0.0,0.0,8.93814,21.60051,1.48969,10.16,0.57,1.21,3.0
1758091141.58317,1758091123.28619,0.0,0.0,0.0,6.7609,22.00158,1.66158,10.07,0.81,1.67,3.0
1758091141.59915,1758091123.29619,0.0,0.0,0.0,4.69825,16.272,1.43239,10.07,0.81,1.67,3.0
1758091141.6009,1758091123.30619,0.0,0.0,0.0,2.63561,2.6929,0.97403,9.68,1.08,1.83,3.0
1758091141.61687,1758091123.31619,0.0,0.0,0.0,0.51566,-2.57831,-0.45837,9.68,1.08,1.83,3.0
1758091141.61808,1758091123.32619,0.0,0.0,0.0,-1.3178,-7.79223,-2.97938,10.3,1.25,2.04,3.0
1758091141.63317,1758091123.33619,0.0,0.0,0.0,-3.55234,-14.43854,-4.87014,10.3,1.25,2.04,3.0
1758091141.64887,1758091123.34619,0.0,0.0,0.0,-6.7609,-32.25753,-9.11003,10.57,1.29,2.08,3.0
1758091141.65249,1758091123.35619,0.0,0.0,0.0,-7.04738,-51.6235,-16.67307,9.95,1.9,2.93,3.0
1758091141.66798,1758091123.36619,0.0,0.0,0.0,-7.16197,-66.34852,-20.85567,9.95,1.9,2.93,3.0
1758091141.67098,1758091123.37619,0.0,0.0,0.0,-3.89611,-71.50513,-23.31938,12.77,1.34,3.57,3.0
1758091141.68699,1758091123.38619,0.0,0.0,0.0,-0.0573,-62.5097,-22.68913,12.77,1.34,3.57,3.0
1758091141.68814,1758091123.39619,0.0,0.0,0.0,3.09397,-51.16513,-22.34536,15.88,0.11,4.67,3.0
1758091141.70294,1758091123.40619,0.0,0.0,0.0,5.4431,-32.08564,-22.00158,15.88,0.11,4.67,3.0
1758091141.71893,1758091123.41619,0.0,0.0,0.0,5.32851,-14.32395,-21.42862,16.62,-0.66,3.86,3.0
1758091141.7209,1758091123.42619,0.0,0.0,0.0,3.55234,-5.95876,-17.99088,14.34,0.04,2.95,3.0
1758091141.738,1758091123.43619,0.0,0.0,0.0,0.34377,0.11459,-15.41257,14.34,0.04,2.95,3.0
1758091141.73895,1758091123.44619,0.0,0.0,0.0,-3.26586,6.70361,-11.63104,14.18,1.49,3.13,3.0
1758091141.75396,1758091123.45619,0.0,0.0,0.0,-9.11003,11.63104,-5.4431,14.18,1.49,3.13,3.0
1758091141.77004,1758091123.46619,0.0,0.0,0.0,-11.86023,16.55848,-2.23454,13.73,2.3,2.77,3.0
1758091141.77188,1758091123.47619,0.0,0.0,0.0,-13.06344,18.90761,-0.11459,13.73,2.3,2.77,3.0
1758091141.78718,1758091123.48619,0.0,0.0,0.0,-12.83425,20.97026,0.68755,12.8,1.8,2.98,3.0
1758091141.78895,1758091123.49619,0.0,0.0,0.0,-11.63104,22.97561,0.40107,12.8,1.8,2.98,3.0
1758091141.80579,1758091123.50619,0.0,0.0,0.0,-11.00079,23.0329,-0.40107,11.26,0.86,2.98,3.0
1758091141.80744,1758091123.51619,0.0,0.0,0.0,-10.94349,21.48592,-1.3178,9.3,0.18,2.91,3.0
1758091141.82193,1758091123.52619,0.0,0.0,0.0,-11.51645,17.87628,-2.6929,9.3,0.18,2.91,3.0
1758091141.83831,1758091123.53619,0.0,0.0,0.0,-13.46451,9.39651,-4.58366,7.53,0.07,3.02,3.0
1758091141.84025,1758091123.54619,0.0,0.0,0.0,-14.83961,2.06265,-5.50039,7.53,0.07,3.02,3.0
1758091141.85492,1758091123.55619,0.0,0.0,0.0,-16.10011,-6.47442,-6.07335,6.42,0.4,3.09,3.0
1758091141.85616,1758091123.56619,0.0,0.0,0.0,-17.18874,-15.98552,-6.18794,6.42,0.4,3.09,3.0
1758091141.87222,1758091123.57619,0.0,0.0,0.0,-18.16276,-27.73116,-5.78687,5.88,0.67,3.29,3.0
1758091141.8879,1758091123.58619,0.0,0.0,0.0,-18.44924,-33.05967,-5.32851,6.18,0.48,3.2,3.0
1758091141.8899,1758091123.59619,0.0,0.0,0.0,-18.56383,-36.61201,-4.92744,6.18,0.48,3.2,3.0
1758091141.90576,1758091123.60619,0.0,0.0,0.0,-18.44924,-37.98711,-4.46907,6.75,-0.01,3.09,3.0
1758091141.90723,1758091123.61619,0.0,0.0,0.0,-18.50654,-35.06502,-4.46907,6.75,-0.01,3.09,3.0
1758091141.92196,1758091123.62619,0.0,0.0,0.0,-19.13679,-32.37212,-4.29718,7.6,-0.38,2.8,3.0
1758091141.93798,1758091123.63619,0.0,0.0,0.0,-20.51189,-28.99167,-3.89611,7.6,-0.38,2.8,3.0
1758091141.93997,1758091123.64619,0.0,0.0,0.0,-22.00158,-23.89234,-3.26586,8.47,-0.43,2.59,3.0
1758091141.9578,1758091123.65619,0.0,0.0,0.0,-24.86637,-16.272,-2.63561,9.12,-0.23,2.24,3.0
1758091141.95978,1758091123.66619,0.0,0.0,0.0,-26.81443,-8.70896,-2.34913,9.12,-0.23,2.24,3.0
1758091141.97685,1758091123.67619,0.0,0.0,0.0,-28.70519,-0.11459,-2.11994,9.59,0.01,1.98,3.0
1758091141.97781,1758091123.68619,0.0,0.0,0.0,-30.53865,12.89155,-2.06265,9.59,0.01,1.98,3.0
1758091141.99323,1758091123.69619,0.0,0.0,0.0,-30.93972,19.70975,-2.06265,9.6,0.05,2.07,3.0
1758091142.00897,1758091123.70619,0.0,0.0,0.0,-30.88243,26.87172,-2.23454,9.6,0.05,2.07,3.0
1758091142.01128,1758091123.71619,0.0,0.0,0.0,-30.36677,32.54401,-1.66158,9.54,-0.11,2.1,3.0
1758091142.027,1758091123.72619,0.0,0.0,0.0,-29.67921,40.96649,-1.14592,9.54,-0.11,2.08,3.0
1758091142.02819,1758091123.73619,0.0,0.0,0.0,-29.62192,47.32632,-0.17189,9.62,-0.3,2.08,3.0
1758091142.04297,1758091123.74619,0.0,0.0,0.0,-29.8511,51.50891,0.68755,9.46,-0.28,2.29,3.0
1758091142.05898,1758091123.75619,0.0,0.0,0.0,-30.30947,52.25375,1.71887,9.46,-0.28,2.29,3.0
1758091142.0626,1758091123.76619,0.0,0.0,0.0,-32.08564,53.17049,2.86479,8.84,-0.11,2.44,3.0
1758091142.07799,1758091123.77619,0.0,0.0,0.0,-33.9764,53.91533,2.97938,8.84,-0.11,2.44,3.0
1758091142.07924,1758091123.78619,0.0,0.0,0.0,-35.3515,52.65482,3.26586,8.82,0.12,2.39,3.0
1758091142.09401,1758091123.79619,0.0,0.0,0.0,-37.12767,49.21708,3.09397,8.82,0.12,2.39,3.0
1758091142.11001,1758091123.80619,0.0,0.0,0.0,-39.4195,43.65939,3.49504,8.56,0.27,2.41,3.0
1758091142.11231,1758091123.81619,0.0,0.0,0.0,-41.08107,41.71133,3.95341,8.79,0.22,2.32,3.0
1758091142.12696,1758091123.82619,0.0,0.0,0.0,-42.68536,40.45082,4.98473,8.79,0.22,2.32,3.0
1758091142.12894,1758091123.83619,0.0,0.0,0.0,-44.40423,39.53409,6.18794,8.77,0.09,2.3,3.0
1758091142.14428,1758091123.84619,0.0,0.0,0.0,-46.1804,36.03905,8.59437,8.77,0.09,2.3,3.0
1758091142.15996,1758091123.85619,0.0,0.0,0.0,-47.09713,30.88243,9.4538,8.32,-0.07,2.28,3.0
1758091142.16234,1758091123.86619,0.0,0.0,0.0,-47.95657,25.26744,9.11003,8.32,-0.07,2.28,3.0
1758091142.17734,1758091123.87619,0.0,0.0,0.0,-48.70141,21.02755,7.50575,8.01,-0.28,2.08,3.0
1758091142.17825,1758091123.88619,0.0,0.0,0.0,-48.75871,14.03747,6.07335,8.27,-0.44,2.09,3.0
1758091142.19303,1758091123.89619,0.0,0.0,0.0,-48.64412,9.33921,4.64096,8.27,-0.44,2.09,3.0
1758091142.20929,1758091123.90619,0.0,0.0,0.0,-48.35764,5.09932,3.26586,8.53,-0.46,2.34,3.0
1758091142.21024,1758091123.91619,0.0,0.0,0.0,-48.30034,-0.68755,1.66158,8.53,-0.46,2.34,3.0
1758091142.22509,1758091123.92619,0.0,0.0,0.0,-48.12846,-3.09397,1.20321,8.68,-0.47,2.26,3.0
1758091142.22623,1758091123.93619,0.0,0.0,0.0,-47.95657,-5.27121,1.20321,8.68,-0.47,2.26,3.0
1758091142.24207,1758091123.94619,0.0,0.0,0.0,-47.67009,-6.99009,1.20321,8.84,-0.54,2.2,3.0
1758091142.2581,1758091123.95619,0.0,0.0,0.0,-46.1804,-8.65166,1.03132,9.17,-0.54,2.09,3.0
1758091142.25926,1758091123.96619,0.0,0.0,0.0,-44.63341,-8.59437,0.45837,9.17,-0.62,2.09,3.0
1758091142.27429,1758091123.97619,0.0,0.0,0.0,-42.39888,-6.70361,-1.14592,9.52,-0.73,1.92,3.0
1758091142.29005,1758091123.98619,0.0,0.0,0.0,-40.45082,-0.85944,-3.03668,9.52,-0.73,1.92,3.0
1758091142.29126,1758091123.99619,0.0,0.0,0.0,-36.89849,11.17268,-6.70361,9.95,-0.93,1.97,3.0
1758091142.30706,1758091124.00619,0.0,0.0,0.0,-34.32018,17.99088,-8.65166,9.95,-0.93,1.97,3.0
1758091142.30825,1758091124.01619,0.0,0.0,0.0,-31.2262,23.49127,-9.05273,10.04,-1.3,2.2,3.0
1758091142.32306,1758091124.02619,0.0,0.0,0.0,-28.13223,24.29341,-8.59437,10.04,-1.3,2.2,3.0
1758091142.33986,1758091124.03619,0.0,0.0,0.0,-23.54857,18.9649,-6.53172,10.18,-1.75,2.43,3.0
1758091142.34183,1758091124.04619,0.0,0.0,0.0,-20.51189,16.272,-4.92744,10.74,-2.1,2.28,3.0
1758091142.35733,1758091124.05619,0.0,0.0,0.0,-18.22006,11.97482,-3.03668,10.74,-2.1,2.28,3.0
1758091142.3583,1758091124.06619,0.0,0.0,0.0,-15.64175,3.60963,-0.11459,10.71,-2.3,2.68,3.0
1758091142.37336,1758091124.07619,0.0,0.0,0.0,-11.86023,-24.29341,2.57831,10.71,-2.3,2.68,3.0
1758091142.38939,1758091124.08619,0.0,0.0,0.0,-11.51645,-42.1124,2.11994,10.45,-2.7,4.47,3.0
1758091142.39028,1758091124.09619,0.0,0.0,0.0,-11.00079,-35.86716,4.81285,10.45,-2.7,4.47,3.0
1758091142.4051,1758091124.10619,0.0,0.0,0.0,-12.37589,-14.20935,5.15662,14.84,-1.91,5.07,3.0
1758091142.40634,1758091124.11619,0.0,0.0,0.0,-14.03747,6.41713,6.70361,15.91,-0.46,5.55,3.0
1758091142.42211,1758091124.12619,0.0,0.0,0.0,-16.272,18.62113,6.8182,15.91,-0.46,5.55,3.0
1758091142.43799,1758091124.13619,0.0,0.0,0.0,-17.87628,16.95955,6.70361,13.71,0.29,5.24,3.0
1758091142.43926,1758091124.14619,0.0,0.0,0.0,-19.70975,5.15662,1.20321,13.71,0.29,5.24,3.0
1758091142.45466,1758091124.15619,0.0,0.0,0.0,-18.16276,-15.87093,1.03132,10.91,-0.34,4.19,3.0
1758091142.47013,1758091124.16619,0.0,0.0,0.0,-13.5791,-29.50733,3.03668,10.91,-0.34,4.19,3.0
1758091142.47246,1758091124.17619,0.0,0.0,0.0,-10.31324,-28.87707,2.63561,11.45,-2.09,4.19,3.0
1758091142.48847,1758091124.18619,0.0,0.0,0.0,-4.29718,-12.2613,2.29183,12.15,-2.83,4.1,3.0
1758091142.48935,1758091124.19619,0.0,0.0,0.0,-0.45837,-7.44845,0.97403,12.15,-2.83,4.1,3.0
1758091142.50412,1758091124.20619,0.0,0.0,0.0,3.66693,-6.13065,0.51566,9.15,-2.63,4.28,3.0
1758091142.5062,1758091124.21619,0.0,0.0,0.0,7.10468,-6.7609,-0.0573,9.15,-2.63,4.28,3.0
1758091142.52215,1758091124.22619,0.0,0.0,0.0,10.65701,-10.31324,-1.20321,6.95,-1.7,3.78,3.0
1758091142.53813,1758091124.23619,0.0,0.0,0.0,12.08941,-15.24068,-2.11994,6.95,-1.7,3.78,3.0
1758091142.53936,1758091124.24619,0.0,0.0,0.0,13.00614,-22.05888,-3.32316,5.39,-0.78,3.67,3.0
1758091142.55438,1758091124.25619,0.0,0.0,0.0,13.12073,-28.01764,-4.64096,5.39,-0.78,3.67,3.0
1758091142.57013,1758091124.26619,0.0,0.0,0.0,13.86558,-31.39809,-5.61499,5.23,-0.08,3.81,3.0
1758091142.57089,1758091124.27619,0.0,0.0,0.0,14.49583,-31.74186,-5.84417,6.33,0.39,3.56,3.0
1758091142.58611,1758091124.28619,0.0,0.0,0.0,15.12609,-32.14294,-5.15662,6.33,0.39,3.56,3.0
1758091142.58737,1758091124.29619,0.0,0.0,0.0,16.3293,-32.37212,-2.6929,7.33,0.5,3.36,3.0
1758091142.60216,1758091124.30619,0.0,0.0,0.0,17.13144,-29.33544,-1.60428,7.33,0.5,3.36,3.0
1758091142.61817,1758091124.31619,0.0,0.0,0.0,18.73572,-25.43933,0.11459,8.45,0.17,3.25,3.0
1758091142.6194,1758091124.32619,0.0,0.0,0.0,19.99623,-20.74107,0.97403,8.45,0.17,3.25,3.0
1758091142.6372,1758091124.33619,0.0,0.0,0.0,22.23076,-11.11538,1.71887,9.02,-0.46,3.12,3.0
1758091142.6384,1758091124.34619,0.0,0.0,0.0,23.37668,-3.95341,1.66158,9.21,-0.84,2.97,3.0
1758091142.65317,1758091124.35619,0.0,0.0,0.0,24.35071,3.26586,0.74485,9.21,-0.84,2.97,3.0
1758091142.6691,1758091124.36619,0.0,0.0,0.0,25.38203,9.85487,-0.0573,8.96,-0.68,2.97,3.0
1758091142.67049,1758091124.37619,0.0,0.0,0.0,26.06958,17.13144,-2.06265,8.96,-0.68,2.97,3.0
1758091142.68742,1758091124.38619,0.0,0.0,0.0,26.12688,21.02755,-3.03668,8.82,-0.22,3.06,3.0
1758091142.68832,1758091124.39619,0.0,0.0,0.0,25.55392,23.0329,-4.0107,8.82,-0.22,3.06,3.0
1758091142.70354,1758091124.40619,0.0,0.0,0.0,24.5226,24.5226,-4.46907,8.8,0.28,2.98,3.0
1758091142.71921,1758091124.41619,0.0,0.0,0.0,22.57454,24.5226,-4.0107,8.9,0.6,3.0,3.0
1758091142.71982,1758091124.42619,0.0,0.0,0.0,21.37133,22.74642,-3.72423,8.9,0.6,3.0,3.0
1758091142.7352,1758091124.43619,0.0,0.0,0.0,20.74107,21.60051,-3.03668,8.93,0.61,3.12,3.0
1758091142.73643,1758091124.44619,0.0,0.0,0.0,20.45459,18.85031,-2.40642,8.93,0.61,3.12,3.0
1758091142.75219,1758091124.45619,0.0,0.0,0.0,20.74107,11.45916,-1.60428,8.82,0.22,3.28,3.0
1758091142.76848,1758091124.46619,0.0,0.0,0.0,21.37133,6.18794,-1.48969,8.82,0.22,3.28,3.0
1758091142.76944,1758091124.47619,0.0,0.0,0.0,22.11617,0.74485,-1.20321,8.65,-0.16,3.25,3.0
1758091142.78428,1758091124.48619,0.0,0.0,0.0,23.60586,-5.50039,-1.3178,8.65,-0.16,3.25,3.0
1758091142.7862,1758091124.49619,0.0,0.0,0.0,24.75178,-14.15206,-1.3178,8.32,-0.4,3.13,3.0
1758091142.80198,1758091124.50619,0.0,0.0,0.0,26.01229,-19.07949,-1.66158,8.0,-0.44,2.92,3.0
1758091142.81856,1758091124.51619,0.0,0.0,0.0,26.98631,-22.63183,-2.23454,8.0,-0.44,2.92,3.0
1758091142.81942,1758091124.52619,0.0,0.0,0.0,27.73116,-27.96034,-2.97938,7.79,-0.28,2.83,3.0
1758091142.83752,1758091124.53619,0.0,0.0,0.0,27.78845,-30.13758,-3.95341,7.79,-0.28,2.83,3.0
1758091142.83876,1758091124.54619,0.0,0.0,0.0,27.10091,-30.93972,-5.4431,7.87,0.01,2.82,3.0
1758091142.8533,1758091124.55619,0.0,0.0,0.0,25.8404,-30.99702,-7.16197,7.87,0.01,2.82,3.0
1758091142.8695,1758091124.56619,0.0,0.0,0.0,23.89234,-30.88243,-10.08406,8.41,0.37,2.52,3.0
1758091142.86999,1758091124.57619,0.0,0.0,0.0,22.68913,-28.70519,-12.14671,9.28,0.57,2.17,3.0
1758091142.88524,1758091124.58619,0.0,0.0,0.0,22.00158,-24.98096,-13.98017,9.28,0.57,2.17,3.0
1758091142.88642,1758091124.59619,0.0,0.0,0.0,21.6578,-19.88164,-15.24068,10.01,0.43,1.73,3.0
1758091142.90127,1758091124.60619,0.0,0.0,0.0,21.42862,-9.5684,-15.75634,10.01,0.43,1.73,3.0
1758091142.91725,1758091124.61619,0.0,0.0,0.0,21.60051,-1.77617,-15.06879,10.09,0.1,1.37,3.0
1758091142.91843,1758091124.62619,0.0,0.0,0.0,22.11617,6.24524,-13.23533,10.09,0.1,1.37,3.0
1758091142.93449,1758091124.63619,0.0,0.0,0.0,22.68913,13.80828,-10.94349,9.88,-0.17,1.23,3.0
1758091142.93545,1758091124.64619,0.0,0.0,0.0,24.00693,23.83505,-6.70361,9.63,-0.28,1.55,3.0
1758091142.95087,1758091124.65619,0.0,0.0,0.0,24.57989,30.36677,-4.0107,9.63,-0.28,1.55,3.0
1758091142.96722,1758091124.66619,0.0,0.0,0.0,25.15285,36.55471,-1.60428,9.58,-0.16,1.79,3.0
1758091142.96855,1758091124.67619,0.0,0.0,0.0,25.26744,40.7373,0.0573,9.58,-0.16,1.79,3.0
1758091142.98358,1758091124.68619,0.0,0.0,0.0,25.38203,40.96649,2.11994,8.98,0.1,1.98,3.0
1758091142.98449,1758091124.69619,0.0,0.0,0.0,24.75178,38.78925,3.26586,8.98,0.1,1.98,3.0
1758091142.99984,1758091124.70619,0.0,0.0,0.0,23.37668,35.2942,4.29718,8.46,0.36,2.01,3.0
1758091143.01832,1758091124.71619,0.0,0.0,0.0,20.68378,28.476,5.50039,8.46,0.36,2.01,3.0
1758091143.02192,1758091124.72619,0.0,0.0,0.0,17.87628,23.60586,5.32851,8.59,0.62,2.21,3.0
1758091143.03828,1758091124.73619,0.0,0.0,0.0,14.83961,19.59516,5.84417,9.09,1.01,2.29,3.0
1758091143.04031,1758091124.74619,0.0,0.0,0.0,11.28727,15.92823,4.81285,9.09,1.01,2.29,3.0
1758091143.05577,1758091124.75619,0.0,0.0,0.0,6.07335,12.71966,3.60963,9.55,1.55,2.08,3.0
1758091143.05887,1758091124.76619,0.0,0.0,0.0,3.09397,10.59972,2.57831,9.55,1.55,2.08,3.0
1758091143.07529,1758091124.77619,0.0,0.0,0.0,0.51566,5.90147,0.80214,10.11,1.94,2.16,3.0
1758091143.07765,1758091124.78619,0.0,0.0,0.0,-0.80214,-2.57831,0.22918,10.11,1.94,2.16,3.0
1758091143.09232,1758091124.79619,0.0,0.0,0.0,-3.32316,-7.21927,-4.1253,10.86,1.84,2.15,3.0
1758091143.13001,1758091124.80619,0.0,0.0,0.0,-4.29718,-9.05273,-5.90147,11.9,1.52,2.27,3.0
1758091143.13204,1758091124.81619,0.0,0.0,0.0,-5.84417,-11.28727,-7.50575,11.9,1.52,2.27,3.0
1758091143.13266,1758091124.82619,0.0,0.0,0.0,-8.65166,-17.47521,-9.22462,11.58,1.49,2.38,3.0
1758091143.13389,1758091124.83619,0.0,0.0,0.0,-11.51645,-31.91375,-17.47521,11.58,1.49,2.38,3.0
1758091143.1364,1758091124.84619,0.0,0.0,0.0,-12.204,-37.01308,-20.68378,11.51,1.92,2.92,3.0
1758091143.1523,1758091124.85619,0.0,0.0,0.0,-11.57375,-40.16434,-23.94964,11.51,1.92,2.92,3.0
1758091143.16828,1758091124.86619,0.0,0.0,0.0,-9.39651,-37.47144,-23.26209,14.03,0.79,3.37,3.0
1758091143.16955,1758091124.87619,0.0,0.0,0.0,-5.15662,-31.11161,-22.51724,15.08,-0.41,4.05,3.0
1758091143.18451,1758091124.88619,0.0,0.0,0.0,-3.20856,-13.98017,-23.54857,15.08,-0.41,4.05,3.0
1758091143.19283,1758091124.89619,0.0,0.0,0.0,-3.66693,7.21927,-25.43933,15.43,-0.13,2.86,3.0
1758091143.2084,1758091124.90619,0.0,0.0,0.0,-5.09932,16.90226,-21.94428,15.43,-0.13,2.86,3.0
1758091143.20958,1758091124.91619,0.0,0.0,0.0,-7.39116,21.42862,-19.88164,12.58,0.94,3.2,3.0
1758091143.22458,1758091124.92619,0.0,0.0,0.0,-9.74028,22.91831,-17.01685,12.58,0.94,3.2,3.0
1758091143.22728,1758091124.93619,0.0,0.0,0.0,-12.2613,24.35071,-14.09476,11.44,1.73,3.33,3.0
1758091143.24238,1758091124.94619,0.0,0.0,0.0,-15.41257,25.49662,-9.91217,11.44,1.73,3.33,3.0
1758091143.25861,1758091124.95619,0.0,0.0,0.0,-16.73037,26.01229,-7.96411,10.84,1.6,3.57,3.0
1758091143.25959,1758091124.96619,0.0,0.0,0.0,-17.18874,26.12688,-7.44845,9.96,0.92,4.24,3.0
1758091143.27509,1758091124.97619,0.0,0.0,0.0,-16.67307,23.20479,-7.21927,9.96,0.92,4.24,3.0
1758091143.27717,1758091124.98619,0.0,0.0,0.0,-15.64175,12.71966,-7.50575,8.05,0.19,4.33,3.0
1758091143.29258,1758091124.99619,0.0,0.0,0.0,-15.24068,4.23989,-8.0787,8.05,0.19,4.33,3.0
1758091143.29439,1758091125.00619,0.0,0.0,0.0,-15.41257,-4.58366,-8.99544,6.37,-0.16,3.93,3.0
1758091143.31254,1758091125.01619,0.0,0.0,0.0,-16.10011,-14.78231,-9.85487,6.37,-0.16,3.93,3.0
1758091143.32734,1758091125.02619,0.0,0.0,0.0,-17.99088,-29.67921,-10.94349,5.52,-0.15,3.8,3.0
1758091143.32855,1758091125.03619,0.0,0.0,0.0,-19.76705,-39.24761,-11.86023,5.5,0.0,3.83,3.0
1758091143.34364,1758091125.04619,0.0,0.0,0.0,-20.97026,-47.32632,-12.43318,5.5,0.0,3.83,3.0
1758091143.34488,1758091125.05619,0.0,0.0,0.0,-22.05888,-54.3164,-13.12073,5.97,0.07,3.61,3.0
1758091143.36147,1758091125.06619,0.0,0.0,0.0,-22.97561,-57.12389,-13.5791,5.97,0.07,3.61,3.0
1758091143.37767,1758091125.07619,0.0,0.0,0.0,-23.54857,-56.952,-13.46451,6.98,-0.02,3.56,3.0
1758091143.37889,1758091125.08619,0.0,0.0,0.0,-24.75178,-56.32175,-14.15206,6.98,-0.02,3.56,3.0
1758091143.39341,1758091125.09619,0.0,0.0,0.0,-26.64254,-51.39432,-13.98017,7.63,-0.09,3.31,3.0
1758091143.39488,1758091125.10619,0.0,0.0,0.0,-30.19488,-41.08107,-13.17803,8.92,0.04,3.06,3.0
1758091143.41108,1758091125.11619,0.0,0.0,0.0,-32.6013,-34.26288,-11.86023,8.92,0.04,3.06,3.0
1758091143.42631,1758091125.12619,0.0,0.0,0.0,-34.49206,-27.44468,-10.19865,9.3,0.13,2.51,3.0
1758091143.42755,1758091125.13619,0.0,0.0,0.0,-36.89849,-14.32395,-7.73493,9.3,0.13,2.51,3.0
1758091143.44244,1758091125.14619,0.0,0.0,0.0,-37.29956,-4.69825,-6.18794,9.82,-0.06,2.19,3.0
1758091143.45847,1758091125.15619,0.0,0.0,0.0,-37.24226,4.52637,-4.81285,9.82,-0.06,2.19,3.0
1758091143.46038,1758091125.16619,0.0,0.0,0.0,-36.61201,12.49048,-3.66693,9.92,-0.45,2.16,3.0
1758091143.47873,1758091125.17619,0.0,0.0,0.0,-35.2369,21.7724,-2.29183,9.92,-0.45,2.28,3.0
1758091143.47962,1758091125.18619,0.0,0.0,0.0,-34.0337,27.78845,-1.83346,9.51,-0.67,2.28,3.0
1758091143.49463,1758091125.19619,0.0,0.0,0.0,-33.23156,33.9764,-1.60428,9.35,-0.57,2.53,3.0
1758091143.49562,1758091125.20619,0.0,0.0,0.0,-32.71589,38.73195,-1.3751,9.35,-0.57,2.53,3.0
1758091143.51065,1758091125.21619,0.0,0.0,0.0,-32.6013,40.7946,-2.29183,9.27,-0.22,2.97,3.0
1758091143.52746,1758091125.22619,0.0,0.0,0.0,-33.05967,41.13837,-3.26586,9.27,-0.22,2.97,3.0
1758091143.5286,1758091125.23619,0.0,0.0,0.0,-34.09099,43.65939,-4.29718,9.52,0.18,3.13,3.0
1758091143.54331,1758091125.24619,0.0,0.0,0.0,-35.06502,45.49285,-5.09932,9.52,0.18,3.13,3.0
1758091143.54614,1758091125.25619,0.0,0.0,0.0,-37.64333,44.46153,-6.47442,9.74,0.48,2.95,3.0
1758091143.56273,1758091125.26619,0.0,0.0,0.0,-39.87786,43.25832,-7.39116,9.36,0.62,2.87,3.0
1758091143.57844,1758091125.27619,0.0,0.0,0.0,-42.05511,43.20102,-8.59437,9.36,0.62,2.87,3.0
1758091143.58022,1758091125.28619,0.0,0.0,0.0,-43.77398,42.39888,-9.5684,9.24,0.5,2.75,3.0
1758091143.59444,1758091125.29619,0.0,0.0,0.0,-45.09178,38.44547,-11.00079,9.24,0.5,2.75,3.0
1758091143.59723,1758091125.30619,0.0,0.0,0.0,-45.49285,35.69527,-11.57375,8.75,0.13,2.68,3.0
1758091143.61248,1758091125.31619,0.0,0.0,0.0,-45.20637,33.80451,-11.86023,8.75,0.13,2.68,3.0
1758091143.62859,1758091125.32619,0.0,0.0,0.0,-44.748,30.82513,-11.51645,8.72,-0.35,2.44,3.0
1758091143.62969,1758091125.33619,0.0,0.0,0.0,-44.17505,25.72581,-11.11538,8.34,-0.75,2.22,3.0
1758091143.64473,1758091125.34619,0.0,0.0,0.0,-43.77398,18.33465,-11.00079,8.34,-0.75,2.22,3.0
1758091143.64572,1758091125.35619,0.0,0.0,0.0,-43.14373,11.28727,-11.45916,7.96,-0.85,1.71,3.0
1758091143.66286,1758091125.36619,0.0,0.0,0.0,-42.28429,1.3751,-12.49048,7.96,-0.85,1.71,3.0
1758091143.67842,1758091125.37619,0.0,0.0,0.0,-40.96649,-5.84417,-13.23533,8.08,-0.78,1.59,3.0
1758091143.68076,1758091125.38619,0.0,0.0,0.0,-39.82057,-12.60507,-14.03747,8.08,-0.78,1.59,3.0
1758091143.69681,1758091125.39619,0.0,0.0,0.0,-38.1017,-18.27736,-14.66772,8.24,-0.76,1.57,3.0
1758091143.69774,1758091125.40619,0.0,0.0,0.0,-35.40879,-16.73037,-15.75634,8.89,-0.87,1.55,3.0
1758091143.71277,1758091125.41619,0.0,0.0,0.0,-33.80451,-11.11538,-16.67307,8.89,-0.87,1.55,3.0
1758091143.72849,1758091125.42619,0.0,0.0,0.0,-32.14294,-4.98473,-17.58981,9.24,-0.88,1.43,3.0
1758091143.73056,1758091125.43619,0.0,0.0,0.0,-30.13758,1.43239,-18.79302,9.24,-0.88,1.43,3.0
1758091143.74539,1758091125.44619,0.0,0.0,0.0,-26.87172,9.11003,-20.3973,9.09,-0.86,1.49,3.0
1758091143.7467,1758091125.45619,0.0,0.0,0.0,-24.23611,11.28727,-21.08485,9.09,-0.86,1.49,3.0
1758091143.76157,1758091125.46619,0.0,0.0,0.0,-21.02755,11.34457,-21.02755,8.72,-0.94,1.41,3.0
1758091143.77755,1758091125.47619,0.0,0.0,0.0,-17.24603,9.62569,-19.59516,8.72,-0.94,1.41,3.0
1758091143.77874,1758091125.48619,0.0,0.0,0.0,-11.28727,4.98473,-16.10011,8.55,-1.26,1.37,3.0
1758091143.79371,1758091125.49619,0.0,0.0,0.0,-7.44845,1.03132,-12.77696,8.49,-1.55,1.36,3.0
1758091143.79474,1758091125.50619,0.0,0.0,0.0,-3.38045,-4.98473,-9.4538,8.49,-1.55,1.36,3.0
1758091143.81063,1758091125.51619,0.0,0.0,0.0,3.49504,-12.71966,-3.72423,8.21,-1.69,1.44,3.0
1758091143.82861,1758091125.52619,0.0,0.0,0.0,8.93814,-25.38203,0.40107,8.21,-1.69,1.44,3.0
1758091143.8296,1758091125.53619,0.0,0.0,0.0,14.15206,-33.40344,5.09932,8.37,-1.77,1.1,3.0
1758091143.8449,1758091125.54619,0.0,0.0,0.0,18.16276,-40.27893,9.05273,8.37,-1.77,1.1,3.0
1758091143.84657,1758091125.55619,0.0,0.0,0.0,24.12152,-46.75336,14.03747,9.07,-1.69,1.1,3.0
1758091143.86162,1758091125.56619,0.0,0.0,0.0,26.81443,-47.03984,15.58445,9.95,-1.62,0.57,3.0
1758091143.86588,1758091125.57619,0.0,0.0,0.0,27.84575,-45.89392,15.24068,9.95,-1.62,0.57,3.0
1758091143.8817,1758091125.58619,0.0,0.0,0.0,27.84575,-42.74266,14.03747,10.38,-1.55,0.5,3.0
1758091143.89763,1758091125.59619,0.0,0.0,0.0,26.41335,-38.27358,11.11538,10.38,-1.55,0.5,3.0
1758091143.89908,1758091125.60619,0.0,0.0,0.0,24.75178,-37.18496,9.74028,10.43,-1.41,0.63,3.0
1758091143.91363,1758091125.61619,0.0,0.0,0.0,21.88699,-36.15364,8.59437,10.43,-1.41,0.63,3.0
1758091143.91719,1758091125.62619,0.0,0.0,0.0,17.99088,-35.69527,9.4538,10.96,-1.46,1.63,3.0
1758091143.93254,1758091125.63619,0.0,0.0,0.0,11.11538,-44.17505,14.38124,12.4,-0.98,4.19,3.0
1758091143.94898,1758091125.64619,0.0,0.0,0.0,3.89611,-46.35228,19.82434,12.4,-0.98,4.19,3.0
1758091143.95247,1758091125.65619,0.0,0.0,0.0,-6.7609,-32.88778,30.02299,16.56,0.67,7.08,3.0
1758091143.96761,1758091125.66619,0.0,0.0,0.0,-17.99088,-18.79302,30.65324,16.56,0.67,7.08,3.0
1758091143.96875,1758091125.67619,0.0,0.0,0.0,-26.75713,-66.92148,34.37747,12.21,3.29,6.3,3.0
1758091143.98374,1758091125.68619,0.0,0.0,0.0,-22.86102,-97.7466,39.24761,12.21,3.29,6.3,3.0
1758091143.98555,1758091125.69619,0.0,0.0,0.0,-24.86637,-92.4754,35.00772,7.32,2.14,1.91,3.0
1758091144.00287,1758091125.70619,0.0,0.0,0.0,-26.47065,-72.82294,28.07493,7.32,2.14,1.91,3.0
1758091144.01861,1758091125.71619,0.0,0.0,0.0,-31.85646,-52.36834,14.15206,10.61,0.67,2.73,3.0
1758091144.01977,1758091125.72619,0.0,0.0,0.0,-34.66395,-46.52417,7.16197,10.38,-0.43,4.82,3.0
1758091144.0346,1758091125.73619,0.0,0.0,0.0,-35.92446,-41.65404,2.57831,10.38,-0.43,4.82,3.0
1758091144.03663,1758091125.74619,0.0,0.0,0.0,-35.98175,-37.01308,0.17189,11.3,-0.25,4.81,3.0
1758091144.05164,1758091125.75619,0.0,0.0,0.0,-36.84119,-30.99702,0.74485,11.3,-0.25,4.81,3.0
1758091144.06759,1758091125.76619,0.0,0.0,0.0,-37.35685,-21.14215,2.29183,11.1,0.8,3.34,3.0
1758091144.0688,1758091125.77619,0.0,0.0,0.0,-37.12767,-10.08406,4.1253,11.1,0.8,3.34,3.0
1758091144.08378,1758091125.78619,0.0,0.0,0.0,-34.26288,1.3751,6.47442,9.96,1.31,3.03,3.0
1758091144.08714,1758091125.79619,0.0,0.0,0.0,-30.76784,6.41713,7.73493,8.52,0.77,2.73,3.0
1758091144.10261,1758091125.80619,0.0,0.0,0.0,-26.98631,11.51645,8.136,8.52,0.77,2.73,3.0
1758091144.12659,1758091125.81619,0.0,0.0,0.0,-23.54857,16.90226,7.39116,9.07,0.1,2.87,3.0
1758091144.12967,1758091125.82619,0.0,0.0,0.0,-19.82434,23.94964,4.64096,9.07,0.1,2.87,3.0
1758091144.13119,1758091125.83619,0.0,0.0,0.0,-18.9649,29.33544,1.83346,9.77,0.0,2.5,3.0
1758091144.14891,1758091125.84619,0.0,0.0,0.0,-19.19409,34.66395,-1.60428,9.77,0.0,2.5,3.0
1758091144.15065,1758091125.85619,0.0,0.0,0.0,-19.82434,38.73195,-4.87014,9.9,0.4,2.27,3.0
1758091144.16553,1758091125.86619,0.0,0.0,0.0,-22.05888,44.40423,-9.5684,9.56,0.93,2.18,3.0
1758091144.16673,1758091125.87619,0.0,0.0,0.0,-23.83505,47.89928,-12.204,9.56,0.93,2.18,3.0
1758091144.18165,1758091125.88619,0.0,0.0,0.0,-25.7831,50.13381,-14.15206,9.29,1.37,2.36,3.0
1758091144.19762,1758091125.89619,0.0,0.0,0.0,-27.73116,51.10783,-15.06879,9.29,1.37,2.36,3.0
1758091144.19881,1758091125.90619,0.0,0.0,0.0,-30.88243,50.64947,-15.75634,8.94,1.42,2.42,3.0
1758091144.21365,1758091125.91619,0.0,0.0,0.0,-32.48671,48.8733,-15.06879,8.94,1.42,2.42,3.0
1758091144.21564,1758091125.92619,0.0,0.0,0.0,-34.26288,45.72203,-14.83961,8.59,1.21,2.35,3.0
1758091144.23288,1758091125.93619,0.0,0.0,0.0,-36.32552,42.74266,-13.5791,8.59,1.21,2.35,3.0
1758091144.24866,1758091125.94619,0.0,0.0,0.0,-37.35685,36.95578,-13.46451,8.49,0.93,2.45,3.0
1758091144.24988,1758091125.95619,0.0,0.0,0.0,-38.78925,34.09099,-12.77696,8.5,0.64,2.48,3.0
1758091144.26548,1758091125.96619,0.0,0.0,0.0,-39.4768,29.56462,-12.71966,8.5,0.64,2.48,3.0
1758091144.26704,1758091125.97619,0.0,0.0,0.0,-40.33623,21.94428,-12.83425,8.31,0.46,2.3,3.0
1758091144.28199,1758091125.98619,0.0,0.0,0.0,-40.7373,16.50119,-12.89155,8.31,0.46,2.3,3.0
1758091144.29785,1758091125.99619,0.0,0.0,0.0,-40.85189,11.00079,-12.89155,8.33,0.37,2.32,3.0
1758091144.29877,1758091126.00619,0.0,0.0,0.0,-41.08107,5.84417,-12.89155,8.33,0.37,2.32,3.0
1758091144.31465,1758091126.01619,0.0,0.0,0.0,-41.71133,-1.03132,-13.86558,8.47,0.44,2.4,3.0
1758091144.3159,1758091126.02619,0.0,0.0,0.0,-42.39888,-5.15662,-15.06879,8.59,0.61,2.27,3.0
1758091144.33093,1758091126.03619,0.0,0.0,0.0,-43.02913,-8.36518,-15.24068,8.59,0.61,2.27,3.0
1758091144.34668,1758091126.04619,0.0,0.0,0.0,-43.94586,-13.75099,-15.12609,8.54,0.63,1.92,3.0
1758091144.34787,1758091126.05619,0.0,0.0,0.0,-46.06581,-17.47521,-14.66772,8.54,0.63,1.92,3.0
1758091144.3643,1758091126.06618,0.0,0.0,0.0,-47.32632,-18.16276,-13.80828,8.65,0.58,1.44,3.0
1758091144.3679,1758091126.07618,0.0,0.0,0.0,-48.52953,-17.6471,-12.37589,8.65,0.58,1.44,3.0
1758091144.38296,1758091126.08618,0.0,0.0,0.0,-49.38896,-16.3293,-10.59972,8.78,0.43,1.2,3.0
1758091144.39947,1758091126.09618,0.0,0.0,0.0,-50.3057,-13.98017,-7.96411,8.86,0.26,1.14,3.0
1758091144.40305,1758091126.10618,0.0,0.0,0.0,-50.76406,-11.97482,-6.18794,8.86,0.26,1.14,3.0
1758091144.41866,1758091126.11618,0.0,0.0,0.0,-50.99325,-9.39651,-4.69825,8.93,0.23,0.89,3.0
1758091144.42308,1758091126.12618,0.0,0.0,0.0,-51.39432,-6.24524,-3.55234,8.93,0.23,0.89,3.0
1758091144.43867,1758091126.13618,0.0,0.0,0.0,-51.90998,-1.60428,-3.09397,9.14,0.38,0.8,3.0
1758091144.44017,1758091126.14618,0.0,0.0,0.0,-52.36834,0.85944,-2.86479,9.14,0.38,0.8,3.0
1758091144.45473,1758091126.15618,0.0,0.0,0.0,-52.71212,2.11994,-3.20856,9.27,0.54,0.69,3.0
1758091144.45826,1758091126.16618,0.0,0.0,0.0,-53.39967,3.49504,-3.95341,9.27,0.54,0.69,3.0
1758091144.47449,1758091126.17618,0.0,0.0,0.0,-53.74345,2.7502,-4.87014,9.56,0.52,0.73,3.0
1758091144.47689,1758091126.18618,0.0,0.0,0.0,-53.45696,0.0573,-5.84417,9.57,0.37,0.84,3.0
1758091144.49198,1758091126.19618,0.0,0.0,0.0,-53.05589,-3.83882,-6.8182,9.57,0.37,0.84,3.0
1758091144.50797,1758091126.20618,0.0,0.0,0.0,-52.02457,-10.48513,-7.50575,9.76,0.38,0.82,3.0
1758091144.50968,1758091126.21618,0.0,0.0,0.0,-51.39432,-13.00614,-7.50575,9.76,0.38,0.82,3.0
