timeStamp,timeStampAlign,roll,pitch,yaw,gyro_x,gyro_y,gyro_z,acc_x,acc_y,acc_z,flag_num
1758077190.5491,1758077190.47495,0.0,0.0,0.0,-37.64333,16.21471,-21.02755,9.98,0.54,0.73,3.0
1758077190.56535,1758077190.48495,0.0,0.0,0.0,-39.01843,18.50654,-20.34,10.13,0.6,0.68,3.0
1758077190.5705,1758077190.49495,0.0,0.0,0.0,-40.45082,19.13679,-19.53786,10.13,0.6,0.68,3.0
1758077190.58534,1758077190.50495,0.0,0.0,0.0,-42.39888,16.38659,-16.90226,9.78,0.7,0.71,3.0
1758077190.58926,1758077190.51495,0.0,0.0,0.0,-43.31561,14.43854,-14.61043,9.78,0.7,0.71,3.0
1758077190.60516,1758077190.52495,0.0,0.0,0.0,-44.11775,13.40721,-11.91752,9.35,0.67,0.49,3.0
1758077190.60635,1758077190.53495,0.0,0.0,0.0,-44.17505,12.08941,-9.85487,9.35,0.67,0.49,3.0
1758077190.6215,1758077190.54495,0.0,0.0,0.0,-43.54479,6.7609,-8.136,9.51,0.51,0.25,3.0
1758077190.62285,1758077190.55495,0.0,0.0,0.0,-42.97184,4.0107,-7.04738,9.92,0.07,0.22,3.0
1758077190.64062,1758077190.56495,0.0,0.0,0.0,-41.88322,15.98552,-5.21392,9.92,0.07,0.22,3.0
1758077190.65661,1758077190.57495,0.0,0.0,0.0,-45.26366,52.36834,-9.5684,13.03,0.32,-0.29,3.0
1758077190.65762,1758077190.58495,0.0,0.0,0.0,-49.61814,58.78547,-15.69904,13.03,0.32,-0.29,3.0
1758077190.67322,1758077190.59495,0.0,0.0,0.0,-53.34238,52.82671,-20.3973,11.41,1.02,0.65,3.0
1758077190.67597,1758077190.60495,0.0,0.0,0.0,-55.7488,45.43555,-22.11617,11.41,1.02,0.65,3.0
1758077190.69163,1758077190.61495,0.0,0.0,0.0,-56.26446,42.97184,-19.07949,10.63,1.33,-0.26,3.0
1758077190.69282,1758077190.62495,0.0,0.0,0.0,-54.3164,38.38818,-14.66772,11.44,0.62,0.88,3.0
1758077190.70997,1758077190.63495,0.0,0.0,0.0,-51.16513,28.70519,-11.28727,11.44,0.62,0.88,3.0
1758077190.72565,1758077190.64495,0.0,0.0,0.0,-47.72739,24.86637,-11.63104,12.12,-0.08,2.77,3.0
1758077190.72661,1758077190.65495,0.0,0.0,0.0,-40.68,29.39274,-14.72501,12.12,-0.08,2.77,3.0
1758077190.74171,1758077190.66495,0.0,0.0,0.0,-36.61201,35.92446,-16.3293,14.77,-0.41,2.19,3.0
1758077190.74262,1758077190.67495,0.0,0.0,0.0,-33.05967,44.28964,-16.21471,14.77,-0.41,2.19,3.0
1758077190.76071,1758077190.68495,0.0,0.0,0.0,-30.36677,51.10783,-14.38124,15.93,0.2,1.08,3.0
1758077190.77643,1758077190.69495,0.0,0.0,0.0,-29.27814,57.58226,-10.19865,15.99,0.95,1.52,3.0
1758077190.7776,1758077190.70495,0.0,0.0,0.0,-29.67921,59.87409,-6.41713,15.99,0.95,1.52,3.0
1758077190.79356,1758077190.71495,0.0,0.0,0.0,-30.13758,61.36378,-1.71887,15.86,1.36,2.3,3.0
1758077190.79555,1758077190.72495,0.0,0.0,0.0,-30.36677,59.81679,2.7502,15.86,1.36,2.3,3.0
1758077190.81068,1758077190.73495,0.0,0.0,0.0,-30.25217,57.81144,7.50575,14.94,1.23,3.27,3.0
1758077190.82643,1758077190.74495,0.0,0.0,0.0,-29.27814,59.35843,9.4538,14.94,1.23,3.27,3.0
1758077190.82766,1758077190.75495,0.0,0.0,0.0,-28.30412,57.23849,10.31324,13.95,0.79,4.05,3.0
1758077190.84346,1758077190.76495,0.0,0.0,0.0,-26.12688,51.10783,10.31324,13.95,0.79,4.05,3.0
1758077190.84526,1758077190.77495,0.0,0.0,0.0,-24.4653,37.52874,10.65701,11.25,0.08,4.22,3.0
1758077190.86046,1758077190.78495,0.0,0.0,0.0,-23.20479,26.64254,11.11538,8.18,-0.23,3.89,3.0
1758077190.87656,1758077190.79495,0.0,0.0,0.0,-22.11617,14.03747,11.51645,8.18,-0.23,3.89,3.0
1758077190.87945,1758077190.80495,0.0,0.0,0.0,-21.14215,-6.58902,12.49048,6.07,-0.1,4.12,3.0
1758077190.89557,1758077190.81495,0.0,0.0,0.0,-20.79837,-20.62648,13.06344,6.07,-0.1,4.12,3.0
1758077190.8965,1758077190.82495,0.0,0.0,0.0,-21.25674,-33.9764,15.0115,5.75,-0.08,4.44,3.0
1758077190.91151,1758077190.83495,0.0,0.0,0.0,-21.48592,-45.26366,18.16276,5.75,-0.08,4.44,3.0
1758077190.91468,1758077190.84495,0.0,0.0,0.0,-22.11617,-58.09792,23.54857,6.06,-0.24,4.56,3.0
1758077190.93081,1758077190.85495,0.0,0.0,0.0,-22.68913,-63.65561,26.47065,6.37,-0.18,3.93,3.0
1758077190.94653,1758077190.86495,0.0,0.0,0.0,-23.37668,-66.00475,28.59059,6.37,-0.18,3.93,3.0
1758077190.94932,1758077190.87495,0.0,0.0,0.0,-25.15285,-64.85883,29.67921,6.77,0.3,3.3,3.0
1758077190.96487,1758077190.88495,0.0,0.0,0.0,-29.04896,-58.72818,28.76248,6.77,0.3,3.3,3.0
1758077190.96573,1758077190.89495,0.0,0.0,0.0,-32.71589,-52.9986,26.87172,7.48,0.81,3.19,3.0
1758077190.98059,1758077190.90495,0.0,0.0,0.0,-36.38282,-46.40959,24.5226,7.48,0.81,3.19,3.0
1758077190.9968,1758077190.91495,0.0,0.0,0.0,-40.04975,-39.24761,21.42862,7.92,0.99,2.91,3.0
1758077190.99774,1758077190.92495,0.0,0.0,0.0,-45.14908,-28.476,16.3293,8.19,0.76,2.65,3.0
1758077191.01284,1758077190.93495,0.0,0.0,0.0,-48.30034,-20.51189,13.17803,8.19,0.76,2.65,3.0
1758077191.01369,1758077190.94495,0.0,0.0,0.0,-51.39432,-12.89155,10.02676,8.38,0.29,2.45,3.0
1758077191.03085,1758077190.95495,0.0,0.0,0.0,-54.3737,-6.41713,7.44845,8.38,0.29,2.45,3.0
1758077191.04683,1758077190.96495,0.0,0.0,0.0,-58.21251,3.55234,4.46907,8.24,-0.07,2.35,3.0
1758077191.04777,1758077190.97495,0.0,0.0,0.0,-60.79083,9.62569,2.11994,8.24,-0.07,2.35,3.0
1758077191.06283,1758077190.98495,0.0,0.0,0.0,-63.25455,15.29797,0.0573,8.27,-0.2,2.34,3.0
1758077191.06375,1758077190.99495,0.0,0.0,0.0,-65.71826,22.23076,-3.32316,8.27,-0.2,2.34,3.0
1758077191.07883,1758077191.00495,0.0,0.0,0.0,-66.92148,26.01229,-5.32851,8.37,-0.19,2.51,3.0
1758077191.09557,1758077191.01495,0.0,0.0,0.0,-67.43713,27.67386,-6.7609,8.43,-0.33,2.65,3.0
1758077191.09681,1758077191.02495,0.0,0.0,0.0,-66.97877,29.22085,-7.10468,8.43,-0.33,2.65,3.0
1758077191.11182,1758077191.03495,0.0,0.0,0.0,-65.54638,31.62727,-6.7609,8.76,-0.68,2.73,3.0
1758077191.11279,1758077191.04495,0.0,0.0,0.0,-63.59832,31.16891,-5.72958,8.76,-0.68,2.73,3.0
1758077191.1289,1758077191.05495,0.0,0.0,0.0,-61.30648,29.96569,-4.1253,8.63,-1.06,2.5,3.0
1758077191.14557,1758077191.06495,0.0,0.0,0.0,-58.67088,28.99167,-2.29183,8.63,-1.06,2.5,3.0
1758077191.14677,1758077191.07495,0.0,0.0,0.0,-54.14451,27.73116,0.57296,8.51,-1.44,2.44,3.0
1758077191.16187,1758077191.08495,0.0,0.0,0.0,-50.93595,25.55392,2.34913,8.44,-1.68,2.33,3.0
1758077191.16281,1758077191.09495,0.0,0.0,0.0,-47.95657,22.97561,3.55234,8.44,-1.68,2.33,3.0
1758077191.18069,1758077191.10495,0.0,0.0,0.0,-44.9199,19.70975,4.64096,8.17,-1.81,2.2,3.0
1758077191.1968,1758077191.11495,0.0,0.0,0.0,-41.25296,16.3293,5.61499,8.17,-1.81,2.2,3.0
1758077191.19862,1758077191.12495,0.0,0.0,0.0,-39.01843,14.03747,6.13065,8.25,-1.85,2.29,3.0
1758077191.21395,1758077191.13495,0.0,0.0,0.0,-36.89849,11.28727,7.21927,8.25,-1.85,2.29,3.0
1758077191.21641,1758077191.14495,0.0,0.0,0.0,-34.37747,8.59437,8.65166,8.33,-1.73,2.25,3.0
1758077191.23193,1758077191.15495,0.0,0.0,0.0,-30.93972,4.87014,11.00079,8.56,-1.61,1.94,3.0
1758077191.23285,1758077191.16495,0.0,0.0,0.0,-29.22085,2.29183,11.91752,8.56,-1.61,1.94,3.0
1758077191.24895,1758077191.17495,0.0,0.0,0.0,-27.73116,-0.0573,11.91752,8.48,-1.47,1.93,3.0
1758077191.26587,1758077191.18495,0.0,0.0,0.0,-26.47065,-2.29183,9.68299,8.48,-1.47,1.93,3.0
1758077191.26718,1758077191.19495,0.0,0.0,0.0,-26.01229,-4.58366,7.44845,8.36,-1.29,1.76,3.0
1758077191.28198,1758077191.20495,0.0,0.0,0.0,-25.49662,-5.61499,4.35448,8.36,-1.29,1.76,3.0
1758077191.28317,1758077191.21495,0.0,0.0,0.0,-24.98096,-6.07335,1.66158,8.61,-1.21,1.83,3.0
1758077191.29865,1758077191.22495,0.0,0.0,0.0,-23.72045,-4.64096,-0.17189,8.61,-1.21,1.83,3.0
1758077191.3157,1758077191.23495,0.0,0.0,0.0,-21.94428,-3.95341,0.80214,9.06,-1.36,2.02,3.0
1758077191.31691,1758077191.24495,0.0,0.0,0.0,-18.90761,-1.77617,3.38045,9.01,-1.86,1.95,3.0
1758077191.33197,1758077191.25495,0.0,0.0,0.0,-14.83961,1.71887,6.70361,9.01,-1.86,1.95,3.0
1758077191.3337,1758077191.26495,0.0,0.0,0.0,-8.42248,4.29718,10.8862,8.98,-2.27,1.64,3.0
1758077191.351,1758077191.27495,0.0,0.0,0.0,-3.95341,3.95341,13.40721,8.98,-2.27,1.64,3.0
1758077191.36669,1758077191.28495,0.0,0.0,0.0,0.40107,2.40642,14.72501,8.33,-2.39,1.63,3.0
1758077191.36791,1758077191.29495,0.0,0.0,0.0,4.69825,0.68755,15.92823,8.33,-2.39,1.63,3.0
1758077191.38297,1758077191.30495,0.0,0.0,0.0,11.63104,-1.60428,16.272,8.14,-2.37,1.46,3.0
1758077191.38467,1758077191.31495,0.0,0.0,0.0,16.55848,-1.94806,16.3293,8.57,-2.29,1.48,3.0
1758077191.39994,1758077191.32495,0.0,0.0,0.0,21.02755,-3.38045,16.10011,8.57,-2.29,1.48,3.0
1758077191.41587,1758077191.33495,0.0,0.0,0.0,24.86637,-7.73493,15.87093,8.86,-2.29,1.52,3.0
1758077191.41766,1758077191.34495,0.0,0.0,0.0,28.70519,-17.18874,13.80828,8.86,-2.29,1.52,3.0
1758077191.43295,1758077191.35495,0.0,0.0,0.0,30.82513,-19.53786,12.204,9.0,-2.18,1.53,3.0
1758077191.43633,1758077191.36495,0.0,0.0,0.0,31.74186,-6.47442,9.39651,9.0,-2.18,1.53,3.0
1758077191.45197,1758077191.37495,0.0,0.0,0.0,35.2942,16.73037,8.93814,11.27,-2.0,1.59,3.0
1758077191.45301,1758077191.38495,0.0,0.0,0.0,37.98711,40.04975,8.136,11.95,-2.04,2.58,3.0
1758077191.46895,1758077191.39495,0.0,0.0,0.0,40.04975,28.99167,6.70361,11.95,-2.04,2.58,3.0
1758077191.48604,1758077191.40495,0.0,0.0,0.0,39.24761,5.15662,6.87549,9.06,-1.83,2.48,3.0
1758077191.48698,1758077191.41495,0.0,0.0,0.0,35.06502,-30.02299,10.08406,9.06,-1.83,2.48,3.0
1758077191.50201,1758077191.42495,0.0,0.0,0.0,32.77319,-51.45161,21.02755,10.72,-2.26,3.79,3.0
1758077191.50486,1758077191.43495,0.0,0.0,0.0,30.82513,-43.77398,32.08564,10.72,-2.26,3.79,3.0
1758077191.52104,1758077191.44495,0.0,0.0,0.0,27.67386,-14.43854,38.1017,16.23,-1.98,3.96,3.0
1758077191.53706,1758077191.45495,0.0,0.0,0.0,20.62648,5.4431,38.15899,16.23,-1.98,3.13,3.0
1758077191.54041,1758077191.46495,0.0,0.0,0.0,15.29797,7.21927,33.00237,15.9,-1.35,3.13,3.0
1758077191.556,1758077191.47495,0.0,0.0,0.0,10.37054,12.204,26.47065,14.43,-0.77,3.22,3.0
1758077191.55722,1758077191.48495,0.0,0.0,0.0,6.47442,24.63719,16.50119,14.43,-0.77,3.22,3.0
1758077191.572,1758077191.49495,0.0,0.0,0.0,4.69825,37.87251,2.29183,15.22,-1.13,3.62,3.0
1758077191.57297,1758077191.50495,0.0,0.0,0.0,5.72958,41.48215,-4.52637,15.22,-1.13,3.62,3.0
1758077191.58902,1758077191.51495,0.0,0.0,0.0,8.25059,39.53409,-9.74028,13.69,-2.65,4.24,3.0
1758077191.60576,1758077191.52495,0.0,0.0,0.0,12.14671,31.62727,-12.77696,13.69,-2.65,4.24,3.0
1758077191.60739,1758077191.53495,0.0,0.0,0.0,19.88164,18.62113,-12.77696,11.73,-3.87,4.4,3.0
1758077191.62178,1758077191.54495,0.0,0.0,0.0,26.01229,14.32395,-10.25595,12.26,-4.17,4.8,3.0
1758077191.62295,1758077191.55495,0.0,0.0,0.0,31.74186,11.28727,-7.04738,12.26,-4.17,4.8,3.0
1758077191.63876,1758077191.56495,0.0,0.0,0.0,36.7266,5.90147,-3.83882,11.39,-3.61,4.27,3.0
1758077191.65579,1758077191.57495,0.0,0.0,0.0,42.28429,-6.13065,0.85944,11.39,-3.61,4.27,3.0
1758077191.65737,1758077191.58495,0.0,0.0,0.0,45.43555,-16.272,3.95341,8.79,-2.61,4.13,3.0
1758077191.67206,1758077191.59495,0.0,0.0,0.0,48.30034,-27.2155,7.16197,8.79,-2.61,4.13,3.0
1758077191.6732,1758077191.60495,0.0,0.0,0.0,51.50891,-38.84654,10.65701,6.78,-1.59,4.01,3.0
1758077191.68905,1758077191.61495,0.0,0.0,0.0,52.884,-53.45696,12.54778,5.95,-0.78,3.86,3.0
1758077191.70519,1758077191.62495,0.0,0.0,0.0,53.34238,-61.53567,13.5791,5.95,-0.78,3.86,3.0
1758077191.70601,1758077191.63495,0.0,0.0,0.0,53.05589,-66.06203,13.69369,6.07,-0.39,3.49,3.0
1758077191.72085,1758077191.64495,0.0,0.0,0.0,52.13916,-68.23928,12.89155,6.07,-0.39,3.49,3.0
1758077191.73693,1758077191.65495,0.0,0.0,0.0,50.99325,-68.75494,12.08941,6.59,-0.28,3.36,3.0
1758077191.73804,1758077191.66495,0.0,0.0,0.0,49.84733,-67.09336,10.71431,6.59,-0.28,3.36,3.0
1758077191.75304,1758077191.67495,0.0,0.0,0.0,48.58683,-63.94209,9.28192,7.07,-0.33,3.08,3.0
1758077191.75587,1758077191.68495,0.0,0.0,0.0,46.81066,-56.55093,6.13065,7.71,-0.33,2.7,3.0
1758077191.77117,1758077191.69495,0.0,0.0,0.0,45.49285,-49.96192,3.60963,7.71,-0.19,2.7,3.0
1758077191.78713,1758077191.70495,0.0,0.0,0.0,44.23235,-42.1124,0.45837,8.22,0.16,2.51,3.0
1758077191.78805,1758077191.71495,0.0,0.0,0.0,42.68536,-33.11696,-2.7502,8.22,0.16,2.51,3.0
1758077191.80686,1758077191.72495,0.0,0.0,0.0,40.33623,-19.13679,-7.84952,8.66,0.5,2.35,3.0
1758077191.80888,1758077191.73495,0.0,0.0,0.0,38.50277,-10.19865,-11.45916,8.66,0.5,2.35,3.0
1758077191.82556,1758077191.74495,0.0,0.0,0.0,36.84119,-1.66158,-14.49583,8.87,0.57,2.21,3.0
1758077191.82668,1758077191.75495,0.0,0.0,0.0,35.00772,5.50039,-17.30333,8.87,0.57,2.21,3.0
1758077191.84188,1758077191.76495,0.0,0.0,0.0,32.37212,14.09476,-20.22541,8.85,0.35,2.23,3.0
1758077191.8471,1758077191.77495,0.0,0.0,0.0,30.88243,18.44924,-21.37133,8.94,0.09,2.25,3.0
1758077191.86429,1758077191.78495,0.0,0.0,0.0,29.50733,21.7151,-22.11617,8.94,0.09,2.25,3.0
1758077191.86707,1758077191.79495,0.0,0.0,0.0,28.30412,24.75178,-22.51724,9.19,-0.05,2.18,3.0
1758077191.88592,1758077191.80494,0.0,0.0,0.0,26.98631,26.75713,-21.94428,9.19,-0.05,2.18,3.0
1758077191.88741,1758077191.81494,0.0,0.0,0.0,26.47065,27.78845,-20.97026,9.18,-0.1,2.2,3.0
1758077191.90193,1758077191.82494,0.0,0.0,0.0,26.06958,28.41871,-19.42327,9.18,-0.1,2.2,3.0
1758077191.90338,1758077191.83494,0.0,0.0,0.0,25.8404,28.41871,-15.87093,9.02,-0.09,2.19,3.0
1758077191.92055,1758077191.84494,0.0,0.0,0.0,25.43933,27.50197,-13.75099,8.8,-0.02,2.35,3.0
1758077191.93624,1758077191.85494,0.0,0.0,0.0,24.63719,25.7831,-12.60507,8.8,-0.02,2.35,3.0
1758077191.93714,1758077191.86494,0.0,0.0,0.0,23.49127,22.86102,-12.37589,8.55,0.24,2.32,3.0
1758077191.95191,1758077191.87494,0.0,0.0,0.0,20.74107,18.73572,-13.69369,8.55,0.24,2.32,3.0
1758077191.95318,1758077191.88494,0.0,0.0,0.0,18.73572,16.90226,-15.46986,8.56,0.64,2.26,3.0
1758077191.97095,1758077191.89494,0.0,0.0,0.0,16.61578,13.46451,-17.13144,8.56,0.64,2.26,3.0
1758077191.98718,1758077191.90494,0.0,0.0,0.0,14.9542,8.93814,-18.22006,8.3,0.94,2.15,3.0
1758077191.98996,1758077191.91494,0.0,0.0,0.0,13.00614,2.97938,-18.62113,8.09,0.91,2.14,3.0
1758077192.00532,1758077191.92494,0.0,0.0,0.0,12.204,-1.08862,-18.10547,8.09,0.91,2.14,3.0
1758077192.00615,1758077191.93494,0.0,0.0,0.0,11.80293,-5.15662,-17.53251,7.92,0.64,2.12,3.0
1758077192.02131,1758077191.94494,0.0,0.0,0.0,11.63104,-8.30789,-16.61578,7.92,0.64,2.12,3.0
1758077192.0373,1758077191.95494,0.0,0.0,0.0,11.91752,-12.60507,-15.24068,7.9,0.34,2.0,3.0
1758077192.03816,1758077191.96494,0.0,0.0,0.0,12.204,-15.06879,-14.20935,7.9,0.34,2.0,3.0
1758077192.05326,1758077191.97494,0.0,0.0,0.0,12.54778,-17.13144,-13.69369,7.88,0.17,1.92,3.0
1758077192.05574,1758077191.98494,0.0,0.0,0.0,12.83425,-18.27736,-13.5791,7.88,0.17,1.92,3.0
1758077192.07103,1758077191.99494,0.0,0.0,0.0,11.91752,-15.69904,-14.78231,8.01,0.24,1.94,3.0
1758077192.08732,1758077192.00494,0.0,0.0,0.0,11.45916,-15.75634,-16.38659,8.14,0.5,1.6,3.0
1758077192.08929,1758077192.01494,0.0,0.0,0.0,9.96947,-17.30333,-17.36062,8.14,0.5,1.6,3.0
1758077192.10428,1758077192.02494,0.0,0.0,0.0,6.87549,-18.9649,-19.42327,7.63,0.72,1.48,3.0
1758077192.10601,1758077192.03494,0.0,0.0,0.0,4.81285,-21.48592,-19.99623,7.63,0.72,1.48,3.0
1758077192.12135,1758077192.04494,0.0,0.0,0.0,2.57831,-21.25674,-20.45459,7.65,0.84,1.18,3.0
1758077192.1373,1758077192.05494,0.0,0.0,0.0,-0.11459,-20.22541,-20.45459,7.65,0.84,1.18,3.0
1758077192.13902,1758077192.06494,0.0,0.0,0.0,-4.35448,-17.24603,-20.34,7.63,0.97,0.88,3.0
1758077192.15573,1758077192.07494,0.0,0.0,0.0,-7.10468,-15.0115,-20.45459,7.56,1.01,0.66,3.0
1758077192.16713,1758077192.08494,0.0,0.0,0.0,-9.91217,-13.69369,-20.16812,7.56,1.01,0.66,3.0
1758077192.16804,1758077192.09494,0.0,0.0,0.0,-12.37589,-13.98017,-19.13679,7.49,0.93,0.58,3.0
1758077192.18434,1758077192.10494,0.0,0.0,0.0,-15.0115,-9.91217,-15.46986,7.49,0.93,0.58,3.0
1758077192.18604,1758077192.11494,0.0,0.0,0.0,-16.272,-10.02676,-13.46451,8.34,0.62,0.61,3.0
1758077192.20133,1758077192.12494,0.0,0.0,0.0,-15.92823,-14.20935,-11.00079,8.34,0.62,0.61,3.0
1758077192.21704,1758077192.13494,0.0,0.0,0.0,-16.21471,-21.88699,-9.05273,8.86,0.15,1.09,3.0
1758077192.21865,1758077192.14494,0.0,0.0,0.0,-14.43854,-20.62648,-3.83882,10.93,0.08,1.08,3.0
1758077192.23407,1758077192.15494,0.0,0.0,0.0,-15.24068,12.89155,-6.7609,10.93,0.08,1.08,3.0
1758077192.23686,1758077192.16494,0.0,0.0,0.0,-16.95955,38.21629,-8.02141,14.74,0.44,1.38,3.0
1758077192.25233,1758077192.17494,0.0,0.0,0.0,-17.6471,30.99702,-8.136,14.74,0.44,1.38,3.0
1758077192.25599,1758077192.18494,0.0,0.0,0.0,-18.85031,-5.72958,-19.42327,9.8,1.15,3.63,3.0
1758077192.27137,1758077192.19494,0.0,0.0,0.0,-14.78231,14.61043,-24.29341,9.8,1.15,3.63,3.0
1758077192.28736,1758077192.20494,0.0,0.0,0.0,-8.36518,33.46074,-24.17882,18.01,0.08,1.88,3.0
1758077192.28823,1758077192.21494,0.0,0.0,0.0,-3.09397,35.86716,-20.79837,18.01,0.08,1.88,3.0
1758077192.30335,1758077192.22494,0.0,0.0,0.0,5.15662,50.82136,-17.24603,18.43,-1.35,2.12,3.0
1758077192.3043,1758077192.23494,0.0,0.0,0.0,10.8289,66.80688,-12.204,21.25,-1.53,3.45,3.0
1758077192.32012,1758077192.24494,0.0,0.0,0.0,14.20935,73.16672,-6.7609,21.25,-1.53,3.45,3.0
1758077192.3364,1758077192.25494,0.0,0.0,0.0,15.46986,76.43258,-1.03132,19.7,0.04,3.69,3.0
1758077192.3373,1758077192.26494,0.0,0.0,0.0,14.15206,80.04221,0.11459,19.7,0.04,3.69,3.0
1758077192.35226,1758077192.27494,0.0,0.0,0.0,10.59972,83.88103,-0.85944,17.87,1.82,4.14,3.0
1758077192.35334,1758077192.28494,0.0,0.0,0.0,5.78687,83.93832,-2.86479,17.87,1.82,4.14,3.0
1758077192.36943,1758077192.29494,0.0,0.0,0.0,-1.66158,76.43258,-7.73493,15.33,2.87,5.03,3.0
1758077192.38546,1758077192.30494,0.0,0.0,0.0,-6.99009,66.97877,-9.22462,13.11,3.65,5.63,3.0
1758077192.38641,1758077192.31494,0.0,0.0,0.0,-12.204,58.3844,-8.25059,13.11,3.65,5.63,3.0
1758077192.40118,1758077192.32494,0.0,0.0,0.0,-17.30333,49.33167,-4.23989,11.95,3.81,5.57,3.0
1758077192.41743,1758077192.33494,0.0,0.0,0.0,-25.15285,37.92981,4.35448,11.95,3.81,5.57,3.0
1758077192.41928,1758077192.34494,0.0,0.0,0.0,-30.13758,32.14294,9.4538,10.5,2.88,5.17,3.0
1758077192.43419,1758077192.35494,0.0,0.0,0.0,-34.66395,26.47065,12.60507,10.5,2.88,5.17,3.0
1758077192.43619,1758077192.36494,0.0,0.0,0.0,-39.4195,18.44924,13.40721,8.44,1.81,4.34,3.0
1758077192.45148,1758077192.37494,0.0,0.0,0.0,-44.9199,1.77617,11.28727,5.86,1.09,3.36,3.0
1758077192.46748,1758077192.38494,0.0,0.0,0.0,-47.26902,-10.48513,9.28192,5.86,1.09,3.36,3.0
1758077192.4692,1758077192.39494,0.0,0.0,0.0,-48.41494,-26.41335,6.87549,3.61,0.44,2.92,3.0
1758077192.48505,1758077192.40494,0.0,0.0,0.0,-47.44091,-42.62806,5.50039,3.61,0.44,2.92,3.0
1758077192.4862,1758077192.41494,0.0,0.0,0.0,-40.85189,-60.04598,7.33386,2.14,-0.13,2.31,3.0
1758077192.50148,1758077192.42494,0.0,0.0,0.0,-35.2942,-70.01544,9.96947,2.14,-0.13,2.31,3.0
1758077192.50644,1758077192.43494,0.0,0.0,0.0,-30.93972,-77.57849,12.2613,2.36,-0.5,2.09,3.0
1758077192.5242,1758077192.44494,0.0,0.0,0.0,-27.78845,-81.30271,13.23533,2.36,-0.5,2.09,3.0
1758077192.52721,1758077192.45494,0.0,0.0,0.0,-28.24682,-84.45398,12.37589,4.26,-0.37,1.98,3.0
1758077192.54256,1758077192.46494,0.0,0.0,0.0,-30.30947,-81.76109,10.59972,6.68,-0.49,2.23,3.0
1758077192.5469,1758077192.47494,0.0,0.0,0.0,-32.54401,-74.08345,9.68299,6.68,-0.49,2.23,3.0
1758077192.56225,1758077192.48494,0.0,0.0,0.0,-34.95043,-59.18654,11.17268,8.36,-0.39,1.97,3.0
1758077192.56342,1758077192.49494,0.0,0.0,0.0,-35.12231,-52.42564,13.06344,8.36,-0.39,1.97,3.0
1758077192.57935,1758077192.50494,0.0,0.0,0.0,-36.26823,-46.86795,13.86558,8.09,-0.33,2.2,3.0
1758077192.5963,1758077192.51494,0.0,0.0,0.0,-37.81522,-39.82057,13.5218,8.09,-0.33,2.2,3.0
1758077192.59746,1758077192.52494,0.0,0.0,0.0,-40.96649,-25.21014,11.17268,8.56,-0.5,1.84,3.0
1758077192.61251,1758077192.53494,0.0,0.0,0.0,-43.4875,-15.64175,8.70896,9.07,-0.54,1.64,3.0
1758077192.61505,1758077192.54494,0.0,0.0,0.0,-46.1231,-7.67763,6.41713,9.07,-0.54,1.64,3.0
1758077192.63125,1758077192.55494,0.0,0.0,0.0,-48.70141,-0.74485,4.23989,8.72,-0.28,2.14,3.0
1758077192.64751,1758077192.56494,0.0,0.0,0.0,-52.42564,7.84952,1.66158,8.72,-0.28,2.14,3.0
1758077192.64796,1758077192.57494,0.0,0.0,0.0,-54.88936,13.23533,0.45837,8.48,-0.07,2.41,3.0
1758077192.66529,1758077192.58494,0.0,0.0,0.0,-57.23849,17.6471,-0.80214,8.48,-0.07,2.41,3.0
1758077192.6662,1758077192.59494,0.0,0.0,0.0,-59.12925,20.05352,-1.08862,8.47,-0.07,2.67,3.0
1758077192.68545,1758077192.60494,0.0,0.0,0.0,-60.50434,23.0902,-0.74485,8.64,-0.31,2.57,3.0
1758077192.6875,1758077192.61494,0.0,0.0,0.0,-60.67623,26.98631,-0.57296,8.64,-0.31,2.57,3.0
1758077192.7043,1758077192.62494,0.0,0.0,0.0,-59.75951,30.36677,-0.40107,8.98,-0.79,2.26,3.0
1758077192.70554,1758077192.63494,0.0,0.0,0.0,-58.26981,32.77319,-0.17189,8.98,-0.79,2.26,3.0
1758077192.72138,1758077192.64494,0.0,0.0,0.0,-55.86338,35.58068,-0.80214,8.86,-1.24,2.14,3.0
1758077192.72656,1758077192.65494,0.0,0.0,0.0,-53.11319,38.15899,-0.51566,8.86,-1.24,2.14,3.0
1758077192.74251,1758077192.66494,0.0,0.0,0.0,-50.2484,41.25296,0.0573,9.01,-1.56,1.91,3.0
1758077192.74667,1758077192.67494,0.0,0.0,0.0,-45.20637,39.4195,2.06265,9.01,-1.56,1.91,3.0
1758077192.76495,1758077192.68494,0.0,0.0,0.0,-41.71133,36.7266,3.60963,8.76,-1.69,1.94,3.0
1758077192.76662,1758077192.69494,0.0,0.0,0.0,-38.21629,35.52338,5.09932,8.57,-1.71,1.87,3.0
1758077192.78343,1758077192.70494,0.0,0.0,0.0,-35.06502,35.12231,5.90147,8.57,-1.71,1.87,3.0
1758077192.78468,1758077192.71494,0.0,0.0,0.0,-31.28349,33.00237,6.35983,8.39,-1.55,1.87,3.0
1758077192.79932,1758077192.72494,0.0,0.0,0.0,-29.39274,30.30947,5.72958,8.39,-1.55,1.87,3.0
1758077192.81664,1758077192.73494,0.0,0.0,0.0,-28.01764,27.10091,4.69825,8.02,-1.24,1.95,3.0
1758077192.817,1758077192.74494,0.0,0.0,0.0,-27.38738,25.09555,3.09397,8.02,-1.24,1.95,3.0
1758077192.83661,1758077192.75494,0.0,0.0,0.0,-26.52795,22.05888,1.14592,8.23,-1.03,1.97,3.0
1758077192.83697,1758077192.76494,0.0,0.0,0.0,-25.61122,17.99088,0.0,8.33,-1.0,2.02,3.0
1758077192.85512,1758077192.77494,0.0,0.0,0.0,-24.57989,13.46451,-1.3178,8.33,-1.0,2.02,3.0
1758077192.85629,1758077192.78494,0.0,0.0,0.0,-23.31938,9.11003,-2.11994,8.41,-1.08,1.94,3.0
1758077192.87241,1758077192.79494,0.0,0.0,0.0,-20.34,1.3178,-2.46372,8.41,-1.08,1.94,3.0
1758077192.87686,1758077192.80494,0.0,0.0,0.0,-17.87628,-4.1253,-2.23454,8.24,-1.26,1.62,3.0
1758077192.89168,1758077192.81494,0.0,0.0,0.0,-14.78231,-4.46907,-2.46372,8.24,-1.26,1.62,3.0
1758077192.90768,1758077192.82494,0.0,0.0,0.0,-11.00079,-0.68755,-2.86479,8.82,-1.58,1.4,3.0
1758077192.9096,1758077192.83494,0.0,0.0,0.0,-5.61499,4.64096,-3.66693,9.35,-1.73,1.62,3.0
1758077192.92565,1758077192.84494,0.0,0.0,0.0,-1.60428,3.60963,-2.29183,9.35,-1.73,1.62,3.0
1758077192.92663,1758077192.85494,0.0,0.0,0.0,2.00535,-0.85944,0.22918,9.3,-1.69,1.71,3.0
1758077192.94136,1758077192.86494,0.0,0.0,0.0,7.39116,-6.18794,6.47442,9.3,-1.69,1.71,3.0
1758077192.94254,1758077192.87494,0.0,0.0,0.0,10.94349,-10.8862,12.08941,10.2,-1.9,1.92,3.0
1758077192.95799,1758077192.88494,0.0,0.0,0.0,15.06879,-12.49048,17.76169,10.2,-1.9,1.92,3.0
1758077192.97545,1758077192.89494,0.0,0.0,0.0,19.42327,-14.15206,23.0902,11.76,-2.33,2.08,3.0
1758077192.97714,1758077192.90494,0.0,0.0,0.0,25.72581,-20.97026,28.476,11.76,-2.33,2.08,3.0
1758077192.9934,1758077192.91494,0.0,0.0,0.0,29.56462,-33.68992,29.8511,12.59,-2.83,2.74,3.0
1758077192.99628,1758077192.92494,0.0,0.0,0.0,31.45539,-51.73809,29.27814,12.06,-3.05,4.44,3.0
1758077193.01171,1758077192.93494,0.0,0.0,0.0,34.32018,-54.3737,31.16891,12.06,-3.05,4.44,3.0
1758077193.01375,1758077192.94494,0.0,0.0,0.0,31.39809,-13.00614,36.03905,16.77,-2.27,6.68,3.0
1758077193.02948,1758077192.95494,0.0,0.0,0.0,25.49662,10.02676,40.68,16.77,-2.27,6.68,3.0
1758077193.04544,1758077192.96494,0.0,0.0,0.0,18.10547,3.32316,39.76327,18.03,-1.27,6.26,3.0
1758077193.04666,1758077192.97494,0.0,0.0,0.0,14.72501,-17.81899,37.52874,18.03,-1.27,6.26,3.0
1758077193.06147,1758077192.98494,0.0,0.0,0.0,13.5218,-32.48671,28.07493,12.31,-1.72,3.97,3.0
1758077193.06267,1758077192.99494,0.0,0.0,0.0,17.13144,-29.9084,20.45459,13.48,-3.1,4.57,3.0
1758077193.07802,1758077193.00494,0.0,0.0,0.0,22.28806,-28.01764,11.57375,13.48,-3.1,4.57,3.0
1758077193.08162,1758077193.01494,0.0,0.0,0.0,29.10626,-33.23156,2.7502,12.12,-4.08,5.31,3.0
1758077193.09809,1758077193.02494,0.0,0.0,0.0,38.90384,-39.24761,-6.18794,12.12,-4.08,5.31,3.0
1758077193.11354,1758077193.03494,0.0,0.0,0.0,44.00316,-38.90384,-10.25595,10.45,-3.91,4.48,3.0
1758077193.11548,1758077193.04494,0.0,0.0,0.0,46.86795,-37.64333,-11.91752,10.45,-3.91,4.48,3.0
1758077193.13081,1758077193.05494,0.0,0.0,0.0,48.24305,-42.05511,-11.00079,8.49,-2.61,3.77,3.0
1758077193.13194,1758077193.06494,0.0,0.0,0.0,46.75336,-55.29043,-8.76626,5.91,-1.07,3.65,3.0
1758077193.14704,1758077193.07494,0.0,0.0,0.0,44.63341,-59.70221,-5.78687,5.91,-1.07,3.65,3.0
1758077193.16331,1758077193.08494,0.0,0.0,0.0,42.1124,-59.70221,-1.77617,6.13,0.24,2.81,3.0
1758077193.1661,1758077193.09494,0.0,0.0,0.0,38.27358,-56.66553,3.83882,6.13,0.24,2.81,3.0
1758077193.18177,1758077193.10494,0.0,0.0,0.0,36.61201,-54.88936,7.96411,6.8,1.09,2.53,3.0
1758077193.18297,1758077193.11494,0.0,0.0,0.0,34.95043,-51.10783,10.65701,6.8,1.09,2.53,3.0
1758077193.19811,1758077193.12494,0.0,0.0,0.0,33.74722,-46.86795,12.2613,7.71,0.91,2.22,3.0
1758077193.21514,1758077193.13494,0.0,0.0,0.0,32.77319,-39.13302,11.80293,7.71,0.91,2.07,3.0
1758077193.21635,1758077193.14494,0.0,0.0,0.0,32.37212,-33.11696,9.74028,8.16,0.11,2.07,3.0
1758077193.23179,1758077193.15494,0.0,0.0,0.0,31.79916,-25.72581,6.58902,8.37,-0.36,2.13,3.0
1758077193.23355,1758077193.16494,0.0,0.0,0.0,30.76784,-18.44924,2.7502,8.37,-0.36,2.13,3.0
1758077193.25079,1758077193.17494,0.0,0.0,0.0,28.36141,-8.88085,-3.72423,8.41,-0.22,2.15,3.0
1758077193.252,1758077193.18494,0.0,0.0,0.0,26.35606,-2.40642,-8.70896,8.41,-0.22,2.15,3.0
1758077193.26811,1758077193.19494,0.0,0.0,0.0,24.00693,4.1253,-13.23533,8.7,0.1,2.16,3.0
1758077193.28383,1758077193.20494,0.0,0.0,0.0,21.7151,10.31324,-17.93358,8.7,0.1,2.16,3.0
1758077193.28584,1758077193.21494,0.0,0.0,0.0,18.44924,16.50119,-23.0902,8.99,0.22,2.27,3.0
1758077193.30102,1758077193.22494,0.0,0.0,0.0,16.90226,18.50654,-25.72581,8.94,0.06,2.52,3.0
1758077193.30175,1758077193.23494,0.0,0.0,0.0,15.98552,19.25138,-26.98631,8.94,0.06,2.52,3.0
1758077193.32155,1758077193.24494,0.0,0.0,0.0,15.64175,19.19409,-27.61657,9.06,-0.25,2.5,3.0
1758077193.32391,1758077193.25494,0.0,0.0,0.0,16.04282,18.16276,-26.98631,9.06,-0.25,2.5,3.0
1758077193.33881,1758077193.26494,0.0,0.0,0.0,16.73037,16.50119,-25.61122,9.12,-0.5,2.37,3.0
1758077193.35561,1758077193.27494,0.0,0.0,0.0,17.76169,14.78231,-23.60586,9.12,-0.5,2.37,3.0
1758077193.35658,1758077193.28494,0.0,0.0,0.0,19.99623,12.83425,-20.34,9.07,-0.63,2.41,3.0
1758077193.37169,1758077193.29494,0.0,0.0,0.0,21.7724,10.59972,-17.93358,8.99,-0.68,2.2,3.0
1758077193.39005,1758077193.30494,0.0,0.0,0.0,23.66316,9.11003,-14.9542,8.99,-0.68,2.2,3.0
1758077193.39026,1758077193.31494,0.0,0.0,0.0,25.43933,7.21927,-12.49048,8.87,-0.61,2.1,3.0
1758077193.40565,1758077193.32494,0.0,0.0,0.0,27.44468,4.64096,-11.11538,8.87,-0.61,2.1,3.0
1758077193.40679,1758077193.33494,0.0,0.0,0.0,28.30412,2.06265,-11.80293,8.67,-0.34,1.96,3.0
1758077193.4216,1758077193.34494,0.0,0.0,0.0,28.41871,0.17189,-13.40721,8.67,-0.34,1.96,3.0
1758077193.42278,1758077193.35494,0.0,0.0,0.0,27.96034,-0.40107,-15.29797,8.59,0.12,1.7,3.0
1758077193.44088,1758077193.36494,0.0,0.0,0.0,26.81443,-0.97403,-17.18874,8.48,0.53,1.49,3.0
1758077193.4418,1758077193.37494,0.0,0.0,0.0,25.49662,-1.08862,-17.47521,8.48,0.53,1.49,3.0
1758077193.46093,1758077193.38494,0.0,0.0,0.0,23.94964,-0.80214,-16.84496,8.34,0.68,1.45,3.0
1758077193.46177,1758077193.39494,0.0,0.0,0.0,22.34536,-0.40107,-15.35527,8.34,0.68,1.45,3.0
1758077193.47886,1758077193.40494,0.0,0.0,0.0,19.88164,0.51566,-12.71966,8.28,0.62,1.44,3.0
1758077193.49554,1758077193.41494,0.0,0.0,0.0,18.56383,1.14592,-11.11538,8.28,0.62,1.44,3.0
1758077193.4966,1758077193.42494,0.0,0.0,0.0,16.95955,1.66158,-9.85487,8.32,0.51,1.38,3.0
1758077193.51164,1758077193.43494,0.0,0.0,0.0,15.69904,2.23454,-9.22462,8.32,0.51,1.38,3.0
1758077193.51281,1758077193.44494,0.0,0.0,0.0,13.46451,2.6929,-9.28192,8.24,0.45,1.31,3.0
1758077193.52802,1758077193.45494,0.0,0.0,0.0,11.80293,2.7502,-9.39651,7.99,0.47,1.1,3.0
1758077193.54466,1758077193.46494,0.0,0.0,0.0,10.02676,2.29183,-9.39651,7.99,0.47,1.1,3.0
1758077193.5458,1758077193.47494,0.0,0.0,0.0,8.25059,1.77617,-8.99544,7.66,0.47,1.01,3.0
1758077193.56066,1758077193.48494,0.0,0.0,0.0,5.4431,-2.63561,-8.42248,7.66,0.47,1.01,3.0
1758077193.56186,1758077193.49494,0.0,0.0,0.0,3.38045,-5.84417,-7.96411,7.27,0.38,0.97,3.0
1758077193.57798,1758077193.50494,0.0,0.0,0.0,1.3751,-6.99009,-6.8182,7.27,0.38,0.97,3.0
1758077193.59395,1758077193.51494,0.0,0.0,0.0,-1.83346,-7.33386,-5.72958,7.78,0.33,0.95,3.0
1758077193.59577,1758077193.52494,0.0,0.0,0.0,-3.38045,-10.48513,-4.64096,8.19,0.37,0.87,3.0
1758077193.61068,1758077193.53494,0.0,0.0,0.0,-6.41713,-9.33921,-5.90147,8.19,0.37,0.87,3.0
1758077193.61188,1758077193.54494,0.0,0.0,0.0,-8.70896,-8.25059,-7.44845,8.86,0.56,0.98,3.0
1758077193.62775,1758077193.55494,0.0,0.0,0.0,-12.60507,-4.58366,-11.74564,8.86,0.56,0.98,3.0
1758077193.64501,1758077193.56494,0.0,0.0,0.0,-14.78231,-1.03132,-15.92823,9.63,0.74,0.91,3.0
1758077193.64698,1758077193.57494,0.0,0.0,0.0,-17.24603,-0.80214,-18.62113,9.63,0.74,0.91,3.0
1758077193.66203,1758077193.58494,0.0,0.0,0.0,-19.53786,-2.00535,-19.88164,10.32,0.79,1.0,3.0
1758077193.6661,1758077193.59494,0.0,0.0,0.0,-21.7724,-1.08862,-18.33465,11.17,0.47,1.07,3.0
1758077193.68194,1758077193.60494,0.0,0.0,0.0,-22.11617,-0.74485,-15.58445,11.17,0.47,1.07,3.0
1758077193.68368,1758077193.61494,0.0,0.0,0.0,-22.63183,-1.03132,-11.74564,11.72,0.25,1.4,3.0
1758077193.70074,1758077193.62494,0.0,0.0,0.0,-20.45459,-11.00079,-8.59437,11.72,0.25,1.4,3.0
1758077193.70251,1758077193.63494,0.0,0.0,0.0,-13.34992,-24.57989,-7.79223,11.53,-0.05,2.82,3.0
1758077193.72105,1758077193.64494,0.0,0.0,0.0,-8.99544,3.72423,-13.06344,11.53,-0.05,2.82,3.0
1758077193.72249,1758077193.65494,0.0,0.0,0.0,-8.47978,32.14294,-18.79302,17.59,-0.6,1.61,3.0
1758077193.74185,1758077193.66494,0.0,0.0,0.0,-7.79223,39.24761,-23.54857,17.59,-0.6,1.61,3.0
1758077193.747,1758077193.67494,0.0,0.0,0.0,-4.98473,38.78925,-25.09555,15.46,-0.68,2.16,3.0
1758077193.76177,1758077193.68494,0.0,0.0,0.0,-2.29183,51.10783,-22.34536,16.36,-0.91,1.47,3.0
1758077193.76536,1758077193.69494,0.0,0.0,0.0,-1.08862,62.91077,-18.62113,16.36,-0.91,1.47,3.0
1758077193.78083,1758077193.70494,0.0,0.0,0.0,-0.45837,68.58305,-14.09476,17.05,-0.02,3.04,3.0
1758077193.78276,1758077193.71494,0.0,0.0,0.0,-0.80214,69.3279,-12.49048,17.05,-0.02,3.04,3.0
1758077193.80196,1758077193.72494,0.0,0.0,0.0,-1.48969,70.93218,-11.34457,16.32,1.44,3.57,3.0
1758077193.80377,1758077193.73494,0.0,0.0,0.0,-3.32316,74.36993,-11.17268,16.32,1.44,3.57,3.0
1758077193.81875,1758077193.74494,0.0,0.0,0.0,-8.30789,75.00018,-11.22997,15.63,2.49,3.81,3.0
1758077193.83585,1758077193.75494,0.0,0.0,0.0,-13.12073,70.13004,-11.74564,13.4,2.85,4.79,3.0
1758077193.83675,1758077193.76494,0.0,0.0,0.0,-18.27736,62.33781,-10.65701,13.4,2.85,4.79,3.0
1758077193.85183,1758077193.77494,0.0,0.0,0.0,-23.72045,54.25911,-7.50575,11.76,3.11,5.15,3.0
1758077193.85627,1758077193.78494,0.0,0.0,0.0,-31.11161,41.88322,1.20321,11.76,3.11,5.15,3.0
1758077193.87183,1758077193.79494,0.0,0.0,0.0,-35.75257,33.80451,7.73493,10.66,2.88,5.14,3.0
1758077193.8754,1758077193.80494,0.0,0.0,0.0,-39.76327,24.75178,12.71966,10.66,2.88,5.14,3.0
1758077193.89074,1758077193.81494,0.0,0.0,0.0,-42.68536,12.60507,15.29797,8.88,1.96,4.42,3.0
1758077193.89205,1758077193.82494,0.0,0.0,0.0,-45.37826,-5.90147,15.41257,6.76,1.01,3.73,3.0
1758077193.90864,1758077193.83494,0.0,0.0,0.0,-44.9199,-17.93358,13.5791,6.76,1.01,3.73,3.0
1758077193.92505,1758077193.84494,0.0,0.0,0.0,-44.00316,-31.91375,10.65701,5.02,0.17,3.41,3.0
1758077193.92599,1758077193.85494,0.0,0.0,0.0,-41.65404,-47.03984,7.79223,5.02,0.17,3.41,3.0
1758077193.94108,1758077193.86494,0.0,0.0,0.0,-35.3515,-66.97877,5.15662,3.64,-0.6,3.0,3.0
1758077193.942,1758077193.87494,0.0,0.0,0.0,-30.02299,-78.09415,3.83882,3.64,-0.6,3.0,3.0
1758077193.95783,1758077193.88494,0.0,0.0,0.0,-25.21014,-85.08423,2.7502,3.97,-1.07,2.8,3.0
1758077193.97566,1758077193.89494,0.0,0.0,0.0,-22.11617,-86.17285,2.63561,3.97,-1.07,2.8,3.0
1758077193.97678,1758077193.90494,0.0,0.0,0.0,-21.02755,-84.05292,3.55234,5.76,-0.83,2.11,3.0
1758077193.99208,1758077193.91494,0.0,0.0,0.0,-22.74642,-81.36001,4.23989,7.1,-0.56,2.63,3.0
1758077193.99385,1758077193.92494,0.0,0.0,0.0,-24.00693,-72.76565,6.53172,7.1,-0.56,2.63,3.0
1758077194.00911,1758077193.93494,0.0,0.0,0.0,-24.12152,-57.81144,11.11538,8.68,-0.73,2.21,3.0
1758077194.02512,1758077193.94494,0.0,0.0,0.0,-24.12152,-50.47758,13.5218,8.68,-0.73,2.21,3.0
1758077194.02634,1758077193.95494,0.0,0.0,0.0,-24.35071,-41.71133,15.0115,8.61,-0.66,2.23,3.0
1758077194.04121,1758077193.96494,0.0,0.0,0.0,-24.5226,-30.76784,15.69904,8.61,-0.66,2.23,3.0
1758077194.04244,1758077193.97494,0.0,0.0,0.0,-23.89234,-11.86023,15.24068,9.18,-0.89,1.51,3.0
1758077194.05898,1758077193.98494,0.0,0.0,0.0,-23.20479,-1.03132,13.46451,9.58,-1.02,1.77,3.0
1758077194.07562,1758077193.99494,0.0,0.0,0.0,-22.86102,8.93814,11.51645,9.58,-1.02,1.77,3.0
1758077194.08097,1758077194.00494,0.0,0.0,0.0,-22.57454,18.9649,9.5684,9.42,-0.81,1.9,3.0
1758077194.09615,1758077194.01494,0.0,0.0,0.0,-23.0329,30.65324,6.13065,9.42,-0.81,1.9,3.0
1758077194.0971,1758077194.02494,0.0,0.0,0.0,-23.54857,37.81522,4.18259,9.28,-0.39,2.26,3.0
1758077194.11218,1758077194.03494,0.0,0.0,0.0,-25.89769,42.39888,0.97403,9.28,-0.39,2.26,3.0
1758077194.11313,1758077194.04494,0.0,0.0,0.0,-27.1582,46.00851,-0.51566,9.12,-0.22,2.46,3.0
1758077194.12813,1758077194.05494,0.0,0.0,0.0,-30.48136,50.99325,-2.7502,9.25,-0.25,2.45,3.0
1758077194.14469,1758077194.06494,0.0,0.0,0.0,-32.54401,54.94666,-3.72423,9.25,-0.25,2.45,3.0
1758077194.14669,1758077194.07494,0.0,0.0,0.0,-34.09099,56.66553,-4.1253,9.23,-0.41,2.51,3.0
1758077194.16201,1758077194.08494,0.0,0.0,0.0,-35.52338,56.83742,-4.52637,9.23,-0.41,2.51,3.0
1758077194.165,1758077194.09494,0.0,0.0,0.0,-36.55471,54.94666,-3.72423,8.74,-0.63,2.49,3.0
1758077194.18019,1758077194.10494,0.0,0.0,0.0,-36.95578,49.67545,-2.57831,8.74,-0.63,2.49,3.0
1758077194.19638,1758077194.11494,0.0,0.0,0.0,-37.18496,44.57612,-0.68755,8.34,-0.97,2.38,3.0
1758077194.19706,1758077194.12494,0.0,0.0,0.0,-34.37747,42.39888,4.46907,8.34,-0.97,2.38,3.0
1758077194.21222,1758077194.13494,0.0,0.0,0.0,-32.14294,40.62271,7.79223,8.44,-1.14,2.09,3.0
1758077194.21314,1758077194.14494,0.0,0.0,0.0,-29.62192,38.27358,11.17268,8.26,-1.3,2.21,3.0
1758077194.22801,1758077194.15494,0.0,0.0,0.0,-27.10091,35.2369,13.75099,8.26,-1.3,2.21,3.0
1758077194.24506,1758077194.16494,0.0,0.0,0.0,-24.23611,29.62192,15.58445,7.77,-1.22,2.06,3.0
1758077194.24594,1758077194.17494,0.0,0.0,0.0,-22.74642,25.09555,15.58445,7.77,-1.22,2.06,3.0
1758077194.26097,1758077194.18494,0.0,0.0,0.0,-21.7151,20.05352,14.43854,7.36,-0.98,2.07,3.0
1758077194.26209,1758077194.19494,0.0,0.0,0.0,-21.14215,15.58445,12.71966,7.36,-0.98,2.07,3.0
1758077194.28029,1758077194.20494,0.0,0.0,0.0,-21.6578,9.85487,9.4538,7.48,-0.86,2.22,3.0
1758077194.28196,1758077194.21494,0.0,0.0,0.0,-21.48592,5.32851,7.84952,7.83,-0.8,2.01,3.0
1758077194.29806,1758077194.22494,0.0,0.0,0.0,-21.25674,1.08862,6.47442,7.83,-0.8,2.01,3.0
1758077194.31575,1758077194.23494,0.0,0.0,0.0,-20.97026,-3.20856,5.72958,8.15,-0.64,1.97,3.0
1758077194.31773,1758077194.24494,0.0,0.0,0.0,-19.13679,-7.16197,5.21392,8.15,-0.64,1.97,3.0
1758077194.33585,1758077194.25494,0.0,0.0,0.0,-17.47521,-6.18794,4.52637,8.34,-0.7,1.34,3.0
1758077194.33677,1758077194.26494,0.0,0.0,0.0,-15.58445,-3.83882,3.26586,8.34,-0.7,1.34,3.0
1758077194.35232,1758077194.27494,0.0,0.0,0.0,-13.5218,-2.23454,1.66158,8.85,-0.8,1.26,3.0
1758077194.35318,1758077194.28494,0.0,0.0,0.0,-10.19865,2.06265,-1.3178,9.45,-0.94,1.53,3.0
1758077194.36831,1758077194.29494,0.0,0.0,0.0,-7.62034,6.99009,-2.63561,9.45,-0.94,1.53,3.0
1758077194.38515,1758077194.30494,0.0,0.0,0.0,-4.69825,9.85487,-1.94806,10.19,-1.21,1.97,3.0
1758077194.38612,1758077194.31494,0.0,0.0,0.0,-2.34913,6.87549,2.00535,10.19,-1.21,1.97,3.0
1758077194.40096,1758077194.32494,0.0,0.0,0.0,1.48969,0.0,6.53172,10.04,-1.59,2.0,3.0
1758077194.40225,1758077194.33494,0.0,0.0,0.0,3.83882,-1.83346,11.80293,10.04,-1.59,2.0,3.0
1758077194.41807,1758077194.34494,0.0,0.0,0.0,6.35983,-5.15662,16.90226,11.08,-1.92,2.22,3.0
1758077194.43402,1758077194.35494,0.0,0.0,0.0,10.8289,-22.86102,24.12152,11.08,-1.92,2.22,3.0
1758077194.43598,1758077194.36494,0.0,0.0,0.0,13.23533,-41.08107,30.53865,10.98,-2.29,3.08,3.0
1758077194.4513,1758077194.37494,0.0,0.0,0.0,13.75099,-54.3737,35.69527,12.1,-2.26,4.35,3.0
1758077194.45219,1758077194.38494,0.0,0.0,0.0,12.71966,-44.51882,38.78925,12.1,-2.26,4.35,3.0
1758077194.46837,1758077194.39494,0.0,0.0,0.0,12.54778,-6.41713,41.88322,17.07,-1.55,3.98,3.0
1758077194.51468,1758077194.40494,0.0,0.0,0.0,12.49048,8.47978,41.48215,17.07,-1.55,3.98,3.0
1758077194.52957,1758077194.41494,0.0,0.0,0.0,10.65701,7.67763,37.52874,15.58,-1.27,5.31,3.0
1758077194.53019,1758077194.42494,0.0,0.0,0.0,8.70896,1.48969,31.16891,15.58,-1.27,5.31,3.0
1758077194.53146,1758077194.43494,0.0,0.0,0.0,7.50575,-2.11994,18.22006,13.04,-2.16,5.03,3.0
1758077194.53288,1758077194.44494,0.0,0.0,0.0,8.70896,-0.0573,8.70896,13.49,-3.48,4.86,3.0
1758077194.53577,1758077194.45494,0.0,0.0,0.0,10.37054,-1.43239,-0.11459,13.49,-3.48,4.86,3.0
1758077194.53636,1758077194.46494,0.0,0.0,0.0,12.71966,-5.4431,-7.62034,12.16,-4.06,5.44,3.0
1758077194.55236,1758077194.47494,0.0,0.0,0.0,20.51189,-26.41335,-12.08941,12.16,-4.06,5.44,3.0
1758077194.55328,1758077194.48494,0.0,0.0,0.0,24.80907,-42.57077,-13.34992,9.69,-3.54,5.11,3.0
1758077194.56839,1758077194.49494,0.0,0.0,0.0,28.70519,-53.91533,-11.00079,9.69,-3.54,5.11,3.0
1758077194.58534,1758077194.50494,0.0,0.0,0.0,32.71589,-61.1346,-7.39116,9.13,-2.84,4.83,3.0
1758077194.58627,1758077194.51494,0.0,0.0,0.0,37.35685,-73.68237,-1.48969,7.68,-1.8,3.96,3.0
1758077194.60113,1758077194.52494,0.0,0.0,0.0,38.61736,-85.08423,2.57831,7.68,-1.8,3.96,3.0
1758077194.60343,1758077194.53494,0.0,0.0,0.0,38.78925,-92.4754,6.70361,6.17,-0.78,3.74,3.0
1758077194.62134,1758077194.54494,0.0,0.0,0.0,38.15899,-90.58463,11.63104,6.17,-0.78,3.74,3.0
1758077194.62316,1758077194.55494,0.0,0.0,0.0,37.52874,-86.975,14.03747,6.85,0.12,2.78,3.0
1758077194.6414,1758077194.56494,0.0,0.0,0.0,36.84119,-82.04756,15.58445,6.85,0.12,2.78,3.0
1758077194.6442,1758077194.57494,0.0,0.0,0.0,35.86716,-75.40125,15.92823,7.21,0.71,2.72,3.0
1758077194.66017,1758077194.58494,0.0,0.0,0.0,34.95043,-63.31184,15.12609,7.21,0.71,2.72,3.0
1758077194.6772,1758077194.59494,0.0,0.0,0.0,34.0337,-54.60288,13.17803,8.0,0.55,2.27,3.0
1758077194.67904,1758077194.60494,0.0,0.0,0.0,33.11696,-46.00851,10.54242,8.5,0.08,1.99,3.0
1758077194.696,1758077194.61494,0.0,0.0,0.0,32.37212,-36.7266,6.99009,8.5,0.08,1.99,3.0
1758077194.697,1758077194.62494,0.0,0.0,0.0,29.73651,-21.31403,0.45837,8.84,-0.2,1.85,3.0
1758077194.71222,1758077194.63494,0.0,0.0,0.0,27.78845,-10.65701,-4.23989,8.84,-0.2,1.85,3.0
1758077194.71419,1758077194.64494,0.0,0.0,0.0,25.38203,0.0573,-9.28192,8.98,-0.07,1.75,3.0
1758077194.73145,1758077194.65494,0.0,0.0,0.0,22.74642,9.5684,-14.32395,8.98,-0.07,1.75,3.0
1758077194.73234,1758077194.66494,0.0,0.0,0.0,19.42327,22.40265,-21.7151,9.01,0.15,1.86,3.0
1758077194.74814,1758077194.67494,0.0,0.0,0.0,17.58981,29.8511,-25.7831,9.13,0.12,2.05,3.0
1758077194.76532,1758077194.68494,0.0,0.0,0.0,16.38659,34.43476,-28.76248,9.13,0.12,2.05,3.0
1758077194.76651,1758077194.69494,0.0,0.0,0.0,15.87093,37.52874,-30.53865,9.09,-0.14,2.22,3.0
1758077194.78144,1758077194.70494,0.0,0.0,0.0,16.21471,41.25296,-31.39809,9.09,-0.14,2.22,3.0
1758077194.78324,1758077194.71494,0.0,0.0,0.0,17.13144,42.05511,-30.65324,9.3,-0.52,2.08,3.0
1758077194.80148,1758077194.72494,0.0,0.0,0.0,18.27736,41.48215,-29.10626,9.3,-0.52,2.08,3.0
1758077194.80346,1758077194.73494,0.0,0.0,0.0,19.70975,41.31026,-25.21014,9.32,-0.78,2.2,3.0
1758077194.82424,1758077194.74494,0.0,0.0,0.0,22.34536,40.96649,-21.7151,9.39,-0.94,2.18,3.0
1758077194.82539,1758077194.75494,0.0,0.0,0.0,23.83505,40.16434,-18.50654,9.39,-0.94,2.18,3.0
1758077194.84025,1758077194.76494,0.0,0.0,0.0,25.15285,37.24226,-15.46986,9.03,-0.87,2.19,3.0
1758077194.84216,1758077194.77494,0.0,0.0,0.0,26.64254,31.16891,-13.06344,9.03,-0.87,2.19,3.0
1758077194.86093,1758077194.78494,0.0,0.0,0.0,27.2155,27.50197,-12.43318,8.54,-0.56,2.08,3.0
1758077194.87619,1758077194.79494,0.0,0.0,0.0,27.61657,24.98096,-12.37589,8.54,-0.56,2.08,3.0
1758077194.8782,1758077194.80494,0.0,0.0,0.0,27.78845,21.48592,-12.204,8.39,-0.06,1.93,3.0
1758077194.89653,1758077194.81494,0.0,0.0,0.0,27.84575,14.78231,-11.86023,7.83,-0.06,1.89,3.0
1758077194.90075,1758077194.82494,0.0,0.0,0.0,27.50197,10.48513,-11.51645,7.83,0.32,1.89,3.0
1758077194.91889,1758077194.83494,0.0,0.0,0.0,27.2155,6.41713,-10.54242,7.6,0.51,1.83,3.0
1758077194.9465,1758077194.84494,0.0,0.0,0.0,26.69983,2.06265,-9.4538,7.6,0.51,1.83,3.0
1758077194.94713,1758077194.85494,0.0,0.0,0.0,25.61122,-3.09397,-7.96411,7.61,0.53,1.85,3.0
1758077194.95074,1758077194.86494,0.0,0.0,0.0,24.92367,-6.35983,-7.62034,7.61,0.53,1.85,3.0
1758077194.95136,1758077194.87494,0.0,0.0,0.0,24.35071,-9.05273,-7.39116,7.85,0.42,1.85,3.0
1758077194.95261,1758077194.88494,0.0,0.0,0.0,23.66316,-11.28727,-7.96411,7.85,0.42,1.85,3.0
1758077194.96923,1758077194.89494,0.0,0.0,0.0,22.91831,-13.80828,-9.28192,7.99,0.28,1.74,3.0
1758077194.98554,1758077194.90494,0.0,0.0,0.0,22.34536,-15.46986,-10.19865,7.96,0.2,1.44,3.0
1758077194.98651,1758077194.91494,0.0,0.0,0.0,22.05888,-17.36062,-10.8862,7.96,0.2,1.44,3.0
1758077195.00165,1758077194.92494,0.0,0.0,0.0,21.6578,-18.50654,-11.28727,7.79,0.19,1.17,3.0
1758077195.00359,1758077194.93494,0.0,0.0,0.0,20.34,-16.10011,-10.31324,7.79,0.19,1.17,3.0
1758077195.02041,1758077194.94494,0.0,0.0,0.0,18.79302,-11.91752,-8.70896,8.17,0.33,0.87,3.0
1758077195.0365,1758077194.95494,0.0,0.0,0.0,16.90226,-6.13065,-6.99009,8.17,0.33,0.87,3.0
1758077195.03865,1758077194.96494,0.0,0.0,0.0,13.40721,-1.60428,-6.24524,9.04,0.49,1.01,3.0
1758077195.05353,1758077194.97494,0.0,0.0,0.0,11.17268,-2.97938,-6.70361,9.5,0.64,1.0,3.0
1758077195.05609,1758077194.98494,0.0,0.0,0.0,8.99544,-4.1253,-6.99009,9.5,0.64,1.0,3.0
1758077195.07154,1758077194.99494,0.0,0.0,0.0,6.41713,-1.77617,-9.39651,10.56,0.69,1.16,3.0
1758077195.07251,1758077195.00494,0.0,0.0,0.0,3.32316,4.81285,-14.15206,10.56,0.69,1.16,3.0
1758077195.08942,1758077195.01494,0.0,0.0,0.0,1.3178,11.80293,-18.79302,11.94,0.72,1.28,3.0
1758077195.10558,1758077195.02494,0.0,0.0,0.0,-0.51566,16.61578,-22.05888,11.94,0.72,1.28,3.0
1758077195.1069,1758077195.03494,0.0,0.0,0.0,-2.11994,18.85031,-24.57989,13.21,0.63,1.53,3.0
1758077195.12159,1758077195.04494,0.0,0.0,0.0,-3.32316,15.64175,-24.63719,13.62,0.46,1.81,3.0
1758077195.12571,1758077195.05494,0.0,0.0,0.0,-2.86479,8.70896,-22.57454,13.62,0.46,1.81,3.0
1758077195.14132,1758077195.06494,0.0,0.0,0.0,-1.08862,-1.60428,-20.05352,13.49,0.32,2.97,3.0
1758077195.1434,1758077195.07494,0.0,0.0,0.0,4.0107,-7.73493,-16.38659,13.49,0.32,2.97,3.0
1758077195.16161,1758077195.08494,0.0,0.0,0.0,11.74564,9.4538,-15.75634,16.48,-0.34,4.02,3.0
1758077195.16253,1758077195.09494,0.0,0.0,0.0,14.38124,37.35685,-18.9649,16.48,-0.34,4.02,3.0
1758077195.17856,1758077195.10494,0.0,0.0,0.0,14.49583,50.76406,-23.0329,18.86,-0.51,3.21,3.0
1758077195.19615,1758077195.11494,0.0,0.0,0.0,14.49583,55.11855,-24.80907,18.86,-0.51,3.21,3.0
1758077195.19932,1758077195.12494,0.0,0.0,0.0,11.91752,57.0093,-23.26209,15.28,0.73,3.71,3.0
1758077195.21544,1758077195.13494,0.0,0.0,0.0,8.36518,59.81679,-20.51189,14.39,2.13,3.61,3.0
1758077195.22064,1758077195.14494,0.0,0.0,0.0,3.72423,61.30648,-16.67307,14.39,2.13,3.61,3.0
1758077195.23585,1758077195.15494,0.0,0.0,0.0,-4.18259,58.3844,-7.50575,13.77,3.27,4.9,3.0
1758077195.23653,1758077195.16494,0.0,0.0,0.0,-9.85487,48.64412,-0.45837,13.77,3.27,4.9,3.0
1758077195.2517,1758077195.17494,0.0,0.0,0.0,-15.87093,43.37291,5.95876,12.68,3.67,4.84,3.0
1758077195.25368,1758077195.18494,0.0,0.0,0.0,-21.6578,39.87786,11.51645,12.68,3.67,4.84,3.0
1758077195.27062,1758077195.19494,0.0,0.0,0.0,-29.9084,34.0337,16.272,11.44,3.1,4.94,3.0
1758077195.28642,1758077195.20494,0.0,0.0,0.0,-34.77854,24.5226,16.90226,9.2,2.22,4.76,3.0
1758077195.29111,1758077195.21494,0.0,0.0,0.0,-39.19032,10.71431,15.87093,9.2,2.22,4.76,3.0
1758077195.30652,1758077195.22494,0.0,0.0,0.0,-42.97184,-3.38045,13.75099,6.92,1.49,3.81,3.0
1758077195.31002,1758077195.23494,0.0,0.0,0.0,-47.44091,-20.79837,8.76626,6.92,1.49,3.81,3.0
1758077195.32539,1758077195.24494,0.0,0.0,0.0,-49.79003,-31.91375,4.98473,5.84,0.85,3.18,3.0
1758077195.3266,1758077195.25494,0.0,0.0,0.0,-50.59217,-44.40423,1.66158,5.84,0.85,3.18,3.0
1758077195.34168,1758077195.26494,0.0,0.0,0.0,-49.67545,-54.71747,-0.22918,4.67,0.27,3.14,3.0
1758077195.34259,1758077195.27494,0.0,0.0,0.0,-43.31561,-66.00475,1.48969,4.31,-0.56,3.43,3.0
1758077195.36043,1758077195.28494,0.0,0.0,0.0,-37.58603,-71.90621,4.69825,4.31,-0.56,3.43,3.0
1758077195.37669,1758077195.29494,0.0,0.0,0.0,-32.37212,-73.51049,7.84952,4.96,-1.27,3.05,3.0
1758077195.37764,1758077195.30494,0.0,0.0,0.0,-29.04896,-71.67702,9.33921,4.96,-1.27,3.05,3.0
1758077195.3952,1758077195.31494,0.0,0.0,0.0,-27.96034,-63.59832,9.11003,7.04,-1.16,2.49,3.0
1758077195.39641,1758077195.32494,0.0,0.0,0.0,-29.10626,-55.29043,8.25059,7.04,-1.16,2.49,3.0
1758077195.41142,1758077195.33494,0.0,0.0,0.0,-31.2262,-46.86795,7.44845,8.61,-0.55,2.26,3.0
1758077195.41383,1758077195.34494,0.0,0.0,0.0,-33.11696,-40.39353,6.87549,8.61,-0.55,2.26,3.0
1758077195.43044,1758077195.35494,0.0,0.0,0.0,-35.92446,-31.28349,4.0107,8.62,-0.09,2.47,3.0
1758077195.44663,1758077195.36494,0.0,0.0,0.0,-36.6693,-22.28806,3.09397,8.69,-0.55,1.96,3.0
1758077195.44959,1758077195.37494,0.0,0.0,0.0,-36.49741,-12.71966,2.63561,8.69,-0.55,1.96,3.0
1758077195.46473,1758077195.38494,0.0,0.0,0.0,-35.40879,-0.17189,3.20856,8.54,-0.61,2.1,3.0
1758077195.46565,1758077195.39494,0.0,0.0,0.0,-34.60666,7.21927,3.89611,8.54,-0.61,2.1,3.0
1758077195.48073,1758077195.40494,0.0,0.0,0.0,-33.86181,14.49583,4.69825,8.4,-0.63,2.11,3.0
1758077195.49678,1758077195.41494,0.0,0.0,0.0,-33.17426,20.62648,5.55769,8.4,-0.63,2.11,3.0
1758077195.49765,1758077195.42494,0.0,0.0,0.0,-33.00237,27.78845,7.04738,8.38,-0.66,2.21,3.0
1758077195.51279,1758077195.43494,0.0,0.0,0.0,-33.23156,31.97105,7.96411,8.39,-0.57,2.44,3.0
1758077195.51371,1758077195.44494,0.0,0.0,0.0,-33.74722,34.89313,9.05273,8.39,-0.57,2.44,3.0
1758077195.53082,1758077195.45494,0.0,0.0,0.0,-34.26288,36.89849,10.19865,8.38,-0.46,2.46,3.0
1758077195.54649,1758077195.46494,0.0,0.0,0.0,-35.2369,40.16434,12.2613,8.38,-0.46,2.46,3.0
1758077195.54849,1758077195.47494,0.0,0.0,0.0,-35.3515,43.31561,13.23533,8.52,-0.57,2.41,3.0
1758077195.56348,1758077195.48494,0.0,0.0,0.0,-35.2369,46.81066,13.5218,8.52,-0.57,2.41,3.0
1758077195.56501,1758077195.49494,0.0,0.0,0.0,-34.09099,48.24305,13.69369,8.47,-0.82,2.32,3.0
1758077195.58057,1758077195.50494,0.0,0.0,0.0,-31.97105,48.07116,13.34992,8.25,-1.08,2.32,3.0
1758077195.6237,1758077195.51494,0.0,0.0,0.0,-30.02299,46.40959,13.34992,8.25,-1.08,2.32,3.0
1758077195.6263,1758077195.52494,0.0,0.0,0.0,-28.41871,44.23235,13.46451,8.28,-1.31,2.26,3.0
1758077195.62686,1758077195.53494,0.0,0.0,0.0,-26.64254,42.85724,13.5791,8.28,-1.31,2.26,3.0
1758077195.6305,1758077195.54494,0.0,0.0,0.0,-23.54857,40.27893,13.23533,8.3,-1.47,2.15,3.0
1758077195.63115,1758077195.55494,0.0,0.0,0.0,-21.60051,39.53409,12.77696,8.3,-1.47,2.15,3.0
1758077195.64676,1758077195.56494,0.0,0.0,0.0,-19.36597,39.76327,11.91752,8.38,-1.61,2.24,3.0
1758077195.64976,1758077195.57494,0.0,0.0,0.0,-16.73037,39.70598,10.31324,8.38,-1.61,2.24,3.0
1758077195.66536,1758077195.58494,0.0,0.0,0.0,-15.29797,38.56006,9.05273,8.37,-1.48,2.29,3.0
1758077195.6666,1758077195.59494,0.0,0.0,0.0,-14.15206,36.7266,7.96411,8.35,-1.25,2.54,3.0
1758077195.68163,1758077195.60494,0.0,0.0,0.0,-13.23533,34.89313,6.70361,8.35,-1.25,2.54,3.0
1758077195.68304,1758077195.61494,0.0,0.0,0.0,-12.71966,32.08564,5.09932,8.57,-1.06,2.48,3.0
1758077195.69985,1758077195.62494,0.0,0.0,0.0,-12.54778,29.8511,4.35448,8.57,-1.06,2.48,3.0
1758077195.71586,1758077195.63494,0.0,0.0,0.0,-12.43318,26.69983,3.89611,8.75,-1.04,2.69,3.0
1758077195.71706,1758077195.64494,0.0,0.0,0.0,-12.14671,23.0329,3.72423,8.75,-1.04,2.69,3.0
1758077195.7316,1758077195.65494,0.0,0.0,0.0,-11.34457,15.58445,3.72423,8.66,-1.16,2.63,3.0
1758077195.73361,1758077195.66494,0.0,0.0,0.0,-10.54242,8.36518,3.95341,8.46,-1.34,2.49,3.0
1758077195.75057,1758077195.67494,0.0,0.0,0.0,-8.99544,3.83882,3.89611,8.46,-1.34,2.49,3.0
1758077195.75258,1758077195.68494,0.0,0.0,0.0,-6.99009,2.34913,3.38045,8.95,-1.53,2.19,3.0
1758077195.76985,1758077195.69494,0.0,0.0,0.0,-3.49504,2.86479,0.85944,8.95,-1.53,2.19,3.0
1758077195.7864,1758077195.70494,0.0,0.0,0.0,-1.20321,4.18259,-1.14592,9.58,-1.57,2.3,3.0
1758077195.79187,1758077195.71494,0.0,0.0,0.0,1.43239,7.10468,-2.57831,9.58,-1.57,2.3,3.0
1758077195.80663,1758077195.72494,0.0,0.0,0.0,4.0107,10.71431,-2.40642,10.33,-1.57,2.75,3.0
1758077195.8105,1758077195.73494,0.0,0.0,0.0,9.05273,11.63104,1.60428,10.71,-1.83,3.15,3.0
1758077195.82589,1758077195.74494,0.0,0.0,0.0,12.2613,5.32851,5.84417,10.71,-1.83,3.15,3.0
1758077195.82705,1758077195.75494,0.0,0.0,0.0,15.98552,-6.99009,10.94349,10.25,-2.55,3.8,3.0
1758077195.84291,1758077195.76494,0.0,0.0,0.0,19.59516,-22.91831,16.90226,10.25,-2.55,3.8,3.0
1758077195.84461,1758077195.77494,0.0,0.0,0.0,24.75178,-42.22699,28.87707,11.24,-3.13,5.58,3.0
1758077195.86074,1758077195.78494,0.0,0.0,0.0,25.89769,-48.07116,35.2942,11.24,-3.13,5.58,3.0
1758077195.87691,1758077195.79494,0.0,0.0,0.0,25.38203,-42.85724,39.24761,14.51,-2.55,5.6,3.0
1758077195.87867,1758077195.80494,0.0,0.0,0.0,23.72045,-22.86102,39.4195,14.51,-2.55,5.6,3.0
1758077195.89385,1758077195.81494,0.0,0.0,0.0,23.66316,-17.01685,36.15364,16.79,-1.78,5.72,3.0
1758077195.8956,1758077195.82494,0.0,0.0,0.0,23.54857,-19.99623,30.48136,13.93,-1.91,5.8,3.0
1758077195.91084,1758077195.83494,0.0,0.0,0.0,23.54857,-24.80907,22.91831,13.93,-1.91,5.8,3.0
1758077195.92669,1758077195.84494,0.0,0.0,0.0,24.98096,-26.01229,10.48513,11.98,-2.53,5.39,3.0
1758077195.93621,1758077195.85494,0.0,0.0,0.0,26.69983,-20.45459,2.63561,11.98,-2.53,5.39,3.0
1758077195.93659,1758077195.86494,0.0,0.0,0.0,28.01764,-14.49583,-4.0107,11.69,-2.7,5.17,3.0
1758077195.95332,1758077195.87494,0.0,0.0,0.0,29.10626,-11.45916,-10.08406,11.69,-2.7,5.17,3.0
1758077195.95555,1758077195.88494,0.0,0.0,0.0,31.39809,-20.97026,-14.9542,9.69,-2.26,4.86,3.0
1758077195.97066,1758077195.89494,0.0,0.0,0.0,33.74722,-42.05511,-15.0115,6.45,-1.48,4.21,3.0
1758077195.98698,1758077195.90494,0.0,0.0,0.0,34.14828,-60.61894,-13.46451,6.45,-1.48,4.21,3.0
1758077195.98792,1758077195.91494,0.0,0.0,0.0,35.2942,-70.6457,-8.76626,6.01,-0.93,3.73,3.0
1758077196.00269,1758077195.92494,0.0,0.0,0.0,37.81522,-72.36457,3.83882,6.01,-0.93,3.73,3.0
1758077196.0055,1758077195.93494,0.0,0.0,0.0,38.61736,-76.31798,10.8862,7.82,-0.44,3.41,3.0
1758077196.02075,1758077195.94494,0.0,0.0,0.0,37.75792,-81.5319,15.87093,7.82,-0.44,3.41,3.0
1758077196.03672,1758077195.95494,0.0,0.0,0.0,35.98175,-80.38599,19.19409,7.24,0.17,3.32,3.0
1758077196.03961,1758077195.96494,0.0,0.0,0.0,32.71589,-72.19269,19.42327,8.19,0.4,2.78,3.0
1758077196.05556,1758077195.97494,0.0,0.0,0.0,30.13758,-64.62964,16.3293,8.19,0.4,2.78,3.0
1758077196.05672,1758077195.98494,0.0,0.0,0.0,27.67386,-56.37905,12.204,8.25,0.56,2.68,3.0
1758077196.07196,1758077195.99494,0.0,0.0,0.0,24.4653,-48.24305,3.95341,8.25,0.56,2.68,3.0
1758077196.07564,1758077196.00494,0.0,0.0,0.0,22.97561,-36.03905,-1.71887,8.44,0.52,2.66,3.0
1758077196.0918,1758077196.01494,0.0,0.0,0.0,22.28806,-27.84575,-7.16197,8.44,0.52,2.66,3.0
1758077196.09636,1758077196.02494,0.0,0.0,0.0,22.05888,-20.51189,-11.63104,8.83,0.22,2.58,3.0
1758077196.11201,1758077196.03494,0.0,0.0,0.0,22.00158,-10.54242,-17.01685,8.83,0.22,2.58,3.0
1758077196.11572,1758077196.04494,0.0,0.0,0.0,22.00158,-3.66693,-19.53786,9.16,-0.16,2.57,3.0
1758077196.13201,1758077196.05494,0.0,0.0,0.0,22.51724,3.38045,-21.60051,9.56,-0.48,2.59,3.0
1758077196.1337,1758077196.06494,0.0,0.0,0.0,22.97561,10.19865,-23.31938,9.56,-0.48,2.59,3.0
1758077196.15096,1758077196.07494,0.0,0.0,0.0,23.83505,17.53251,-25.38203,9.64,-0.63,2.63,3.0
1758077196.16699,1758077196.08494,0.0,0.0,0.0,24.35071,20.16812,-26.41335,9.64,-0.63,2.63,3.0
1758077196.16825,1758077196.09494,0.0,0.0,0.0,24.86637,22.23076,-27.2155,9.24,-0.61,2.55,3.0
1758077196.18505,1758077196.10494,0.0,0.0,0.0,25.49662,23.0902,-27.84575,9.24,-0.61,2.55,3.0
1758077196.18599,1758077196.11494,0.0,0.0,0.0,26.87172,21.7151,-27.78845,9.06,-0.47,2.35,3.0
1758077196.2011,1758077196.12494,0.0,0.0,0.0,28.13223,20.97026,-26.81443,8.87,-0.39,2.26,3.0
1758077196.2168,1758077196.13494,0.0,0.0,0.0,29.50733,19.59516,-25.09555,8.87,-0.39,2.26,3.0
1758077196.22071,1758077196.14494,0.0,0.0,0.0,30.76784,17.99088,-22.57454,8.7,-0.43,2.14,3.0
1758077196.23609,1758077196.15494,0.0,0.0,0.0,33.17426,14.9542,-17.30333,8.7,-0.43,2.14,3.0
1758077196.23699,1758077196.16494,0.0,0.0,0.0,34.26288,12.204,-13.80828,8.43,-0.45,2.3,3.0
1758077196.2521,1758077196.17494,0.0,0.0,0.0,34.89313,9.39651,-11.28727,8.43,-0.45,2.3,3.0
1758077196.25625,1758077196.18494,0.0,0.0,0.0,34.72124,6.13065,-10.25595,8.18,-0.23,2.35,3.0
1758077196.2721,1758077196.19494,0.0,0.0,0.0,33.68992,0.97403,-10.37054,8.0,0.29,2.25,3.0
1758077196.27572,1758077196.20494,0.0,0.0,0.0,32.42941,-1.03132,-11.22997,8.0,0.29,2.25,3.0
1758077196.2911,1758077196.21494,0.0,0.0,0.0,30.82513,-2.86479,-12.49048,7.99,0.84,1.99,3.0
1758077196.30705,1758077196.22494,0.0,0.0,0.0,28.13223,-6.87549,-13.98017,7.99,0.84,1.99,3.0
1758077196.30803,1758077196.23494,0.0,0.0,0.0,26.35606,-9.22462,-14.32395,7.74,1.15,1.83,3.0
1758077196.32409,1758077196.24494,0.0,0.0,0.0,24.29341,-10.48513,-14.15206,7.74,1.15,1.83,3.0
1758077196.32665,1758077196.25494,0.0,0.0,0.0,22.57454,-10.94349,-13.5791,7.94,1.09,1.72,3.0
1758077196.3419,1758077196.26494,0.0,0.0,0.0,20.16812,-10.71431,-11.97482,7.94,1.09,1.72,3.0
1758077196.34304,1758077196.27494,0.0,0.0,0.0,19.07949,-10.31324,-11.22997,8.21,0.8,1.72,3.0
1758077196.3607,1758077196.28494,0.0,0.0,0.0,18.10547,-9.28192,-10.08406,8.35,0.55,1.75,3.0
1758077196.37609,1758077196.29494,0.0,0.0,0.0,17.24603,-8.99544,-9.28192,8.35,0.55,1.75,3.0
1758077196.37702,1758077196.30494,0.0,0.0,0.0,16.04282,-8.0787,-8.65166,8.33,0.48,1.68,3.0
1758077196.39184,1758077196.31494,0.0,0.0,0.0,14.83961,-6.8182,-8.42248,8.33,0.48,1.68,3.0
1758077196.39384,1758077196.32494,0.0,0.0,0.0,13.34992,-6.07335,-8.25059,8.35,0.56,1.53,3.0
1758077196.41107,1758077196.33494,0.0,0.0,0.0,11.22997,-5.09932,-7.73493,8.35,0.56,1.53,3.0
1758077196.42712,1758077196.34494,0.0,0.0,0.0,7.73493,-5.32851,-6.70361,8.35,0.69,1.33,3.0
1758077196.43048,1758077196.35494,0.0,0.0,0.0,5.09932,-5.61499,-5.78687,8.44,0.84,1.38,3.0
1758077196.44591,1758077196.36494,0.0,0.0,0.0,2.11994,-3.72423,-5.09932,8.44,0.84,1.38,3.0
1758077196.44706,1758077196.37494,0.0,0.0,0.0,-1.14592,-0.51566,-4.29718,8.99,1.04,1.26,3.0
1758077196.46268,1758077196.38494,0.0,0.0,0.0,-5.78687,1.77617,-3.66693,8.99,1.04,1.26,3.0
1758077196.46703,1758077196.39494,0.0,0.0,0.0,-8.88085,0.0573,-3.89611,8.95,1.18,1.37,3.0
1758077196.4829,1758077196.40494,0.0,0.0,0.0,-11.51645,-2.06265,-4.35448,8.95,1.18,1.37,3.0
1758077196.4843,1758077196.41494,0.0,0.0,0.0,-14.9542,-4.0107,-5.90147,9.17,1.08,1.3,3.0
1758077196.49888,1758077196.42494,0.0,0.0,0.0,-16.90226,-3.03668,-8.65166,9.93,0.93,1.35,3.0
1758077196.5162,1758077196.43494,0.0,0.0,0.0,-18.73572,-1.48969,-12.37589,9.93,0.93,1.35,3.0
1758077196.51746,1758077196.44494,0.0,0.0,0.0,-20.16812,0.57296,-16.61578,10.72,0.91,1.4,3.0
1758077196.53507,1758077196.45494,0.0,0.0,0.0,-21.94428,3.09397,-23.60586,10.72,0.91,1.4,3.0
1758077196.53623,1758077196.46494,0.0,0.0,0.0,-22.57454,0.34377,-26.18417,11.27,0.96,1.29,3.0
1758077196.5543,1758077196.47494,0.0,0.0,0.0,-23.0902,-2.57831,-27.10091,11.27,0.96,1.29,3.0
1758077196.55709,1758077196.48494,0.0,0.0,0.0,-22.74642,-3.38045,-26.64254,11.71,0.82,1.4,3.0
1758077196.57592,1758077196.49494,0.0,0.0,0.0,-22.97561,-2.11994,-23.20479,12.57,0.82,1.53,3.0
1758077196.57713,1758077196.50494,0.0,0.0,0.0,-23.31938,1.77617,-19.25138,12.57,0.69,1.53,3.0
1758077196.59575,1758077196.51494,0.0,0.0,0.0,-23.89234,7.10468,-15.06879,13.64,0.83,2.38,3.0
1758077196.59672,1758077196.52494,0.0,0.0,0.0,-24.63719,22.68913,-10.8289,13.64,0.83,2.38,3.0
1758077196.61223,1758077196.53494,0.0,0.0,0.0,-22.57454,9.62569,-14.78231,13.81,1.47,4.34,3.0
1758077196.61315,1758077196.54494,0.0,0.0,0.0,-21.31403,6.24524,-21.14215,13.81,1.47,4.34,3.0
1758077196.63121,1758077196.55494,0.0,0.0,0.0,-21.25674,15.75634,-28.01764,15.11,1.45,4.41,3.0
1758077196.64723,1758077196.56494,0.0,0.0,0.0,-19.99623,28.64789,-29.9084,15.11,1.45,4.41,3.0
1758077196.65055,1758077196.57494,0.0,0.0,0.0,-18.62113,49.15978,-24.80907,16.77,1.59,1.7,3.0
1758077196.66805,1758077196.58494,0.0,0.0,0.0,-18.56383,53.34238,-17.81899,15.76,1.42,3.41,3.0
1758077196.66973,1758077196.59494,0.0,0.0,0.0,-19.76705,54.60288,-10.48513,15.76,1.42,3.41,3.0
1758077196.68685,1758077196.60494,0.0,0.0,0.0,-21.25674,58.26981,-1.14592,15.06,1.52,3.55,3.0
1758077196.68857,1758077196.61494,0.0,0.0,0.0,-24.35071,64.62964,3.60963,15.06,1.52,3.55,3.0
1758077196.74796,1758077196.62494,0.0,0.0,0.0,-27.61657,63.25455,7.04738,13.79,2.01,3.78,3.0
1758077196.75129,1758077196.63494,0.0,0.0,0.0,-30.99702,55.97798,8.88085,13.79,2.01,3.78,3.0
1758077196.75188,1758077196.64494,0.0,0.0,0.0,-35.63798,42.34158,8.0787,11.55,2.29,4.05,3.0
1758077196.75427,1758077196.65494,0.0,0.0,0.0,-38.44547,34.95043,6.7609,10.53,2.03,3.77,3.0
1758077196.75534,1758077196.66494,0.0,0.0,0.0,-41.42485,27.38738,4.98473,10.53,2.03,3.77,3.0
1758077196.75662,1758077196.67494,0.0,0.0,0.0,-44.17505,20.34,3.32316,9.03,1.45,3.35,3.0
1758077196.7613,1758077196.68494,0.0,0.0,0.0,-48.58683,9.4538,0.11459,9.03,1.45,3.35,3.0
1758077196.77718,1758077196.69494,0.0,0.0,0.0,-51.5662,1.3751,-2.34913,7.34,0.88,3.1,3.0
1758077196.78136,1758077196.70494,0.0,0.0,0.0,-54.25911,-7.67763,-5.27121,7.34,0.88,3.1,3.0
1758077196.79736,1758077196.71494,0.0,0.0,0.0,-56.20716,-18.10547,-7.67763,5.86,0.37,3.13,3.0
1758077196.80058,1758077196.72494,0.0,0.0,0.0,-57.75415,-34.77854,-9.5684,5.03,-0.03,3.22,3.0
1758077196.81627,1758077196.73494,0.0,0.0,0.0,-57.46767,-45.83662,-9.5684,5.03,-0.03,3.22,3.0
1758077196.81722,1758077196.74494,0.0,0.0,0.0,-56.26446,-55.92068,-8.70896,4.97,-0.42,3.03,3.0
1758077196.8323,1758077196.75494,0.0,0.0,0.0,-54.3164,-64.91612,-7.16197,4.97,-0.42,3.03,3.0
1758077196.83407,1758077196.76494,0.0,0.0,0.0,-49.61814,-75.91692,-4.98473,5.41,-0.77,2.67,3.0
1758077196.84985,1758077196.77494,0.0,0.0,0.0,-45.60744,-78.49522,-3.26586,5.41,-0.77,2.67,3.0
1758077196.86604,1758077196.78494,0.0,0.0,0.0,-41.02378,-77.17742,-0.80214,6.25,-1.04,2.76,3.0
1758077196.86723,1758077196.79494,0.0,0.0,0.0,-36.61201,-74.14074,1.3751,6.25,-1.04,2.76,3.0
1758077196.88529,1758077196.80494,0.0,0.0,0.0,-31.45539,-67.78091,4.52637,6.95,-1.32,2.85,3.0
1758077196.88628,1758077196.81494,0.0,0.0,0.0,-29.22085,-62.33781,5.50039,7.61,-1.23,2.6,3.0
1758077196.90125,1758077196.82494,0.0,0.0,0.0,-28.24682,-55.7488,5.78687,7.61,-1.23,2.6,3.0
1758077196.90573,1758077196.83494,0.0,0.0,0.0,-28.07493,-48.41494,5.61499,8.54,-0.87,2.09,3.0
1758077196.92133,1758077196.84494,0.0,0.0,0.0,-28.59059,-36.32552,5.61499,8.54,-0.87,2.09,3.0
1758077196.92711,1758077196.85494,0.0,0.0,0.0,-29.27814,-27.33009,5.84417,9.22,-0.62,1.87,3.0
1758077196.94586,1758077196.86494,0.0,0.0,0.0,-30.25217,-17.58981,6.07335,9.22,-0.62,1.87,3.0
1758077196.94733,1758077196.87494,0.0,0.0,0.0,-32.08564,-4.46907,6.58902,9.57,-0.5,1.83,3.0
1758077196.9625,1758077196.88494,0.0,0.0,0.0,-33.40344,1.71887,6.70361,9.31,-0.33,1.95,3.0
1758077196.96329,1758077196.89494,0.0,0.0,0.0,-34.72124,6.70361,6.7609,9.31,-0.33,1.95,3.0
1758077196.98672,1758077196.90494,0.0,0.0,0.0,-35.98175,10.94349,7.04738,9.12,-0.2,2.03,3.0
1758077197.03657,1758077196.91494,0.0,0.0,0.0,-37.98711,16.73037,7.39116,9.12,-0.2,2.03,3.0
1758077197.03719,1758077196.92494,0.0,0.0,0.0,-38.73195,19.53786,7.44845,9.22,-0.22,2.28,3.0
1758077197.03924,1758077196.93494,0.0,0.0,0.0,-39.64868,21.6578,7.50575,9.22,-0.22,2.28,3.0
1758077197.04081,1758077196.94494,0.0,0.0,0.0,-40.62271,23.0329,7.44845,9.16,-0.3,2.05,3.0
1758077197.04194,1758077196.95494,0.0,0.0,0.0,-41.76862,23.60586,7.44845,8.92,-0.4,1.99,3.0
1758077197.04291,1758077196.96494,0.0,0.0,0.0,-42.22699,22.57454,8.25059,8.92,-0.4,1.99,3.0
1758077197.04327,1758077196.97494,0.0,0.0,0.0,-42.51347,20.68378,8.99544,8.56,-0.55,1.9,3.0
1758077197.06008,1758077196.98494,0.0,0.0,0.0,-42.1124,18.90761,9.68299,8.56,-0.55,1.9,3.0
1758077197.0764,1758077196.99494,0.0,0.0,0.0,-40.96649,16.38659,10.31324,8.57,-0.83,2.06,3.0
1758077197.07678,1758077197.00494,0.0,0.0,0.0,-40.04975,14.32395,10.31324,8.57,-0.83,2.06,3.0
1758077197.09235,1758077197.01494,0.0,0.0,0.0,-39.01843,11.74564,9.96947,8.38,-1.0,1.91,3.0
1758077197.09602,1758077197.02494,0.0,0.0,0.0,-38.15899,8.36518,8.25059,8.38,-1.0,1.91,3.0
1758077197.1114,1758077197.03494,0.0,0.0,0.0,-36.61201,2.29183,7.33386,8.15,-1.09,1.99,3.0
1758077197.12735,1758077197.04494,0.0,0.0,0.0,-35.2369,-1.77617,7.21927,8.13,-1.18,2.08,3.0
1758077197.12773,1758077197.05494,0.0,0.0,0.0,-33.68992,-5.72958,7.67763,8.13,-1.18,2.08,3.0
1758077197.14432,1758077197.06494,0.0,0.0,0.0,-31.45539,-10.8862,8.65166,8.12,-1.27,1.85,3.0
1758077197.14537,1758077197.07494,0.0,0.0,0.0,-30.53865,-12.43318,8.76626,8.12,-1.27,1.85,3.0
1758077197.16116,1758077197.08494,0.0,0.0,0.0,-30.30947,-13.40721,8.30789,8.37,-1.26,1.73,3.0
1758077197.17744,1758077197.09494,0.0,0.0,0.0,-30.25217,-14.20935,6.87549,8.37,-1.26,1.73,3.0
1758077197.17942,1758077197.10494,0.0,0.0,0.0,-30.65324,-15.41257,3.66693,8.51,-1.09,1.66,3.0
1758077197.19515,1758077197.11494,0.0,0.0,0.0,-31.16891,-16.21471,1.14592,8.64,-0.94,1.57,3.0
1758077197.19684,1758077197.12494,0.0,0.0,0.0,-31.56997,-16.67307,-1.3178,8.64,-0.94,1.57,3.0
1758077197.21121,1758077197.13494,0.0,0.0,0.0,-31.85646,-16.50119,-3.66693,9.05,-0.93,1.34,3.0
1758077197.21618,1758077197.14494,0.0,0.0,0.0,-31.56997,-14.09476,-6.18794,9.05,-0.93,1.34,3.0
1758077197.23148,1758077197.15494,0.0,0.0,0.0,-30.93972,-11.28727,-7.21927,9.57,-1.09,1.1,3.0
1758077197.23534,1758077197.16494,0.0,0.0,0.0,-30.13758,-6.99009,-8.30789,9.57,-1.09,1.1,3.0
1758077197.25018,1758077197.17494,0.0,0.0,0.0,-29.10626,-2.29183,-9.28192,9.85,-1.29,0.94,3.0
1758077197.26613,1758077197.18494,0.0,0.0,0.0,-27.04361,5.55769,-10.59972,9.75,-1.38,0.79,3.0
1758077197.26672,1758077197.19494,0.0,0.0,0.0,-25.55392,11.34457,-11.34457,9.75,-1.38,0.79,3.0
1758077197.28442,1758077197.20494,0.0,0.0,0.0,-24.00693,17.36062,-11.97482,9.61,-1.33,0.65,3.0
1758077197.28698,1758077197.21494,0.0,0.0,0.0,-22.11617,23.54857,-12.77696,9.61,-1.33,0.65,3.0
1758077197.30447,1758077197.22494,0.0,0.0,0.0,-19.42327,30.99702,-13.34992,9.51,-1.3,0.65,3.0
1758077197.30695,1758077197.23494,0.0,0.0,0.0,-17.58981,33.9764,-13.80828,9.51,-1.3,0.65,3.0
1758077197.3253,1758077197.24494,0.0,0.0,0.0,-15.69904,36.32552,-13.75099,9.28,-1.27,0.71,3.0
1758077197.3262,1758077197.25494,0.0,0.0,0.0,-11.97482,36.61201,-12.204,9.28,-1.27,0.71,3.0
1758077197.34149,1758077197.26494,0.0,0.0,0.0,-8.88085,27.73116,-9.96947,9.12,-1.3,0.9,3.0
1758077197.34352,1758077197.27494,0.0,0.0,0.0,-5.21392,18.10547,-7.04738,8.4,-1.54,0.72,3.0
1758077197.36104,1758077197.28494,0.0,0.0,0.0,-1.77617,9.62569,-3.66693,8.4,-1.54,0.72,3.0
1758077197.36249,1758077197.29494,0.0,0.0,0.0,4.35448,-2.46372,0.85944,8.55,-2.01,0.54,3.0
1758077197.38482,1758077197.30494,0.0,0.0,0.0,8.88085,-10.25595,3.38045,8.55,-2.01,0.54,3.0
