timeStamp,timeStampAlign,roll,pitch,yaw,gyro_x,gyro_y,gyro_z,acc_x,acc_y,acc_z,flag_num
1758077882.24173,1758077882.10573,0.0,0.0,0.0,9.28192,17.01685,-8.36518,9.7,-1.86,1.57,3.0
1758077882.25777,1758077882.11573,0.0,0.0,0.0,9.33921,18.79302,-9.33921,9.68,-1.54,1.57,3.0
1758077882.25897,1758077882.12573,0.0,0.0,0.0,8.76626,19.59516,-9.5684,9.72,-1.32,1.44,3.0
1758077882.27399,1758077882.13573,0.0,0.0,0.0,7.10468,17.87628,-9.85487,9.72,-1.32,1.44,3.0
1758077882.28978,1758077882.14573,0.0,0.0,0.0,1.48969,7.44845,-8.42248,9.49,-1.11,1.68,3.0
1758077882.29052,1758077882.15573,0.0,0.0,0.0,-3.09397,-0.45837,-4.64096,9.49,-1.11,1.68,3.0
1758077882.30579,1758077882.16573,0.0,0.0,0.0,-6.58902,0.51566,-0.34377,10.16,-1.07,2.23,3.0
1758077882.30742,1758077882.17573,0.0,0.0,0.0,-8.70896,9.28192,1.48969,10.16,-1.07,2.23,3.0
1758077882.32207,1758077882.18573,0.0,0.0,0.0,-9.39651,14.03747,0.74485,11.39,-1.44,1.91,3.0
1758077882.33779,1758077882.19573,0.0,0.0,0.0,-8.70896,13.86558,-0.74485,10.17,-1.36,1.58,3.0
1758077882.33896,1758077882.20573,0.0,0.0,0.0,-8.36518,15.0115,-3.03668,10.17,-1.36,1.58,3.0
1758077882.35408,1758077882.21573,0.0,0.0,0.0,-8.59437,15.41257,-5.61499,10.12,-1.34,2.07,3.0
1758077882.36981,1758077882.22573,0.0,0.0,0.0,-9.74028,14.72501,-9.11003,10.12,-1.34,2.07,3.0
1758077882.37057,1758077882.23573,0.0,0.0,0.0,-10.65701,13.86558,-10.8862,10.03,-1.5,1.91,3.0
1758077882.38594,1758077882.24573,0.0,0.0,0.0,-11.63104,13.75099,-11.91752,10.03,-1.5,1.91,3.0
1758077882.38702,1758077882.25573,0.0,0.0,0.0,-13.17803,14.03747,-12.49048,10.58,-1.74,2.31,3.0
1758077882.40181,1758077882.26573,0.0,0.0,0.0,-15.92823,14.83961,-13.17803,11.5,-1.77,2.42,3.0
1758077882.41815,1758077882.27573,0.0,0.0,0.0,-17.99088,16.10011,-13.12073,11.5,-1.77,2.42,3.0
1758077882.41907,1758077882.28573,0.0,0.0,0.0,-20.05352,17.87628,-13.12073,12.44,-1.64,2.79,3.0
1758077882.43413,1758077882.29573,0.0,0.0,0.0,-21.6578,19.59516,-13.40721,12.44,-1.64,2.79,3.0
1758077882.4502,1758077882.30573,0.0,0.0,0.0,-23.60586,22.23076,-14.66772,12.86,-1.49,2.83,3.0
1758077882.45063,1758077882.31573,0.0,0.0,0.0,-24.29341,24.00693,-16.04282,12.86,-1.49,2.83,3.0
1758077882.4661,1758077882.32573,0.0,0.0,0.0,-24.29341,23.0329,-17.76169,12.81,-1.42,3.24,3.0
1758077882.46739,1758077882.33573,0.0,0.0,0.0,-23.20479,20.11082,-19.82434,12.81,-1.42,3.24,3.0
1758077882.48194,1758077882.34573,0.0,0.0,0.0,-21.60051,14.20935,-19.82434,12.23,-1.62,3.44,3.0
1758077882.49816,1758077882.35573,0.0,0.0,0.0,-19.53786,10.08406,-19.42327,12.14,-1.99,3.51,3.0
1758077882.49935,1758077882.36573,0.0,0.0,0.0,-17.36062,7.04738,-18.73572,12.14,-1.99,3.51,3.0
1758077882.51411,1758077882.37573,0.0,0.0,0.0,-13.75099,3.55234,-17.18874,12.06,-2.27,3.5,3.0
1758077882.5299,1758077882.38573,0.0,0.0,0.0,-11.80293,0.45837,-16.10011,12.06,-2.27,3.5,3.0
1758077882.53047,1758077882.39573,0.0,0.0,0.0,-10.08406,-4.0107,-15.12609,11.2,-2.24,3.81,3.0
1758077882.54588,1758077882.40573,0.0,0.0,0.0,-8.59437,-8.136,-14.43854,11.2,-2.24,3.81,3.0
1758077882.54748,1758077882.41573,0.0,0.0,0.0,-6.35983,-13.17803,-13.69369,10.23,-1.94,3.54,3.0
1758077882.56221,1758077882.42573,0.0,0.0,0.0,-4.69825,-15.98552,-13.17803,9.31,-1.59,3.36,3.0
1758077882.57816,1758077882.43573,0.0,0.0,0.0,-3.38045,-19.76705,-13.00614,9.31,-1.59,3.36,3.0
1758077882.57909,1758077882.44573,0.0,0.0,0.0,-2.29183,-24.29341,-12.60507,8.19,-1.21,3.27,3.0
1758077882.59418,1758077882.45573,0.0,0.0,0.0,-0.74485,-26.75713,-12.204,8.19,-1.21,3.27,3.0
1758077882.59509,1758077882.46573,0.0,0.0,0.0,0.11459,-27.73116,-12.14671,7.92,-0.79,3.25,3.0
1758077882.61052,1758077882.47573,0.0,0.0,0.0,0.51566,-28.76248,-12.49048,7.92,-0.79,3.25,3.0
1758077882.62621,1758077882.48573,0.0,0.0,0.0,0.51566,-29.62192,-13.06344,7.54,-0.44,3.19,3.0
1758077882.62714,1758077882.49573,0.0,0.0,0.0,0.80214,-30.36677,-14.66772,7.31,-0.14,2.91,3.0
1758077882.64199,1758077882.50573,0.0,0.0,0.0,0.80214,-30.02299,-15.58445,7.31,-0.14,2.91,3.0
1758077882.65822,1758077882.51573,0.0,0.0,0.0,0.80214,-28.87707,-16.3293,7.35,0.08,2.64,3.0
1758077882.6594,1758077882.52573,0.0,0.0,0.0,0.51566,-27.38738,-16.84496,7.35,0.08,2.64,3.0
1758077882.67417,1758077882.53573,0.0,0.0,0.0,-0.34377,-22.68913,-17.87628,7.58,0.25,2.46,3.0
1758077882.67546,1758077882.54573,0.0,0.0,0.0,-1.60428,-18.27736,-18.27736,7.58,0.25,2.46,3.0
1758077882.69058,1758077882.55573,0.0,0.0,0.0,-2.7502,-13.17803,-18.9649,8.01,0.44,2.45,3.0
1758077882.70634,1758077882.56573,0.0,0.0,0.0,-4.58366,-6.53172,-19.70975,8.01,0.44,2.45,3.0
1758077882.70751,1758077882.57573,0.0,0.0,0.0,-5.32851,-1.20321,-20.22541,8.37,0.54,2.31,3.0
1758077882.72226,1758077882.58573,0.0,0.0,0.0,-6.70361,3.60963,-20.45459,8.81,0.54,2.41,3.0
1758077882.73826,1758077882.59573,0.0,0.0,0.0,-7.21927,8.93814,-21.14215,8.81,0.54,2.41,3.0
1758077882.73949,1758077882.60573,0.0,0.0,0.0,-8.02141,16.21471,-21.7724,8.84,0.52,2.3,3.0
1758077882.75429,1758077882.61573,0.0,0.0,0.0,-8.65166,20.22541,-22.28806,8.84,0.52,2.3,3.0
1758077882.75547,1758077882.62573,0.0,0.0,0.0,-9.11003,23.72045,-22.51724,8.85,0.5,2.42,3.0
1758077882.77068,1758077882.63573,0.0,0.0,0.0,-10.19865,23.60586,-22.63183,8.85,0.5,2.42,3.0
1758077882.7861,1758077882.64573,0.0,0.0,0.0,-12.14671,17.93358,-23.20479,8.62,0.54,2.58,3.0
1758077882.78776,1758077882.65573,0.0,0.0,0.0,-13.5791,16.38659,-23.54857,8.89,0.64,2.33,3.0
1758077882.80204,1758077882.66573,0.0,0.0,0.0,-15.29797,14.78231,-23.60586,8.89,0.64,2.33,3.0
1758077882.81809,1758077882.67573,0.0,0.0,0.0,-17.01685,10.8862,-23.26209,9.06,0.67,2.53,3.0
1758077882.81955,1758077882.68573,0.0,0.0,0.0,-19.36597,4.98473,-23.0329,9.06,0.67,2.53,3.0
1758077882.83428,1758077882.69573,0.0,0.0,0.0,-20.16812,0.68755,-22.86102,8.96,0.64,2.53,3.0
1758077882.83525,1758077882.70573,0.0,0.0,0.0,-20.74107,-4.23989,-22.28806,8.96,0.64,2.53,3.0
1758077882.85083,1758077882.71573,0.0,0.0,0.0,-21.02755,-8.47978,-21.7151,8.86,0.57,2.4,3.0
1758077882.86638,1758077882.72573,0.0,0.0,0.0,-21.7724,-12.2613,-21.7151,9.16,0.53,2.52,3.0
1758077882.86728,1758077882.73573,0.0,0.0,0.0,-22.23076,-14.66772,-22.28806,9.16,0.53,2.52,3.0
1758077882.88234,1758077882.74573,0.0,0.0,0.0,-22.57454,-16.90226,-22.97561,9.2,0.65,2.39,3.0
1758077882.89814,1758077882.75573,0.0,0.0,0.0,-22.51724,-17.76169,-23.26209,9.2,0.65,2.39,3.0
1758077882.89965,1758077882.76573,0.0,0.0,0.0,-21.7724,-18.33465,-23.26209,9.46,0.71,2.37,3.0
1758077882.91416,1758077882.77573,0.0,0.0,0.0,-21.37133,-19.19409,-23.0329,9.46,0.71,2.37,3.0
1758077882.91529,1758077882.78573,0.0,0.0,0.0,-20.97026,-19.25138,-22.91831,9.44,0.64,2.27,3.0
1758077882.93036,1758077882.79573,0.0,0.0,0.0,-20.05352,-17.99088,-21.94428,9.44,0.64,2.27,3.0
1758077882.94608,1758077882.80573,0.0,0.0,0.0,-19.42327,-17.30333,-21.31403,9.67,0.5,2.19,3.0
1758077882.94763,1758077882.81573,0.0,0.0,0.0,-18.44924,-16.04282,-20.45459,9.76,0.33,2.08,3.0
1758077882.96238,1758077882.82573,0.0,0.0,0.0,-17.47521,-14.32395,-19.76705,9.76,0.33,2.08,3.0
1758077882.97841,1758077882.83573,0.0,0.0,0.0,-15.69904,-10.37054,-18.90761,9.87,0.19,1.98,3.0
1758077882.9793,1758077882.84573,0.0,0.0,0.0,-14.66772,-7.16197,-18.44924,9.87,0.19,1.98,3.0
1758077882.99443,1758077882.85573,0.0,0.0,0.0,-13.40721,-3.83882,-17.76169,9.89,0.13,1.88,3.0
1758077882.99529,1758077882.86573,0.0,0.0,0.0,-12.204,-0.40107,-16.90226,9.89,0.13,1.88,3.0
1758077883.01073,1758077882.87573,0.0,0.0,0.0,-10.65701,5.15662,-15.98552,9.83,0.13,1.78,3.0
1758077883.02644,1758077882.88573,0.0,0.0,0.0,-9.68299,8.59437,-15.24068,9.74,0.17,1.71,3.0
1758077883.02731,1758077882.89573,0.0,0.0,0.0,-8.93814,11.51645,-14.61043,9.74,0.17,1.71,3.0
1758077883.04243,1758077882.90573,0.0,0.0,0.0,-8.25059,13.40721,-13.86558,9.56,0.22,1.7,3.0
1758077883.05843,1758077882.91573,0.0,0.0,0.0,-7.33386,15.0115,-12.43318,9.56,0.22,1.7,3.0
1758077883.05963,1758077882.92573,0.0,0.0,0.0,-6.8182,16.84496,-11.91752,9.47,0.27,1.72,3.0
1758077883.07437,1758077882.93573,0.0,0.0,0.0,-6.53172,15.24068,-12.204,9.47,0.27,1.72,3.0
1758077883.07565,1758077882.94573,0.0,0.0,0.0,-6.24524,8.25059,-13.80828,9.12,0.34,2.02,3.0
1758077883.09022,1758077882.95573,0.0,0.0,0.0,-5.09932,-6.18794,-14.43854,8.84,0.45,1.73,3.0
1758077883.1062,1758077882.96573,0.0,0.0,0.0,-5.78687,-7.44845,-16.73037,8.84,0.45,1.73,3.0
1758077883.10766,1758077882.97573,0.0,0.0,0.0,-5.27121,-8.93814,-17.6471,9.41,0.59,1.65,3.0
1758077883.12246,1758077882.98573,0.0,0.0,0.0,-5.72958,-11.80293,-18.85031,9.41,0.59,1.65,3.0
1758077883.13825,1758077882.99573,0.0,0.0,0.0,-6.35983,-13.23533,-19.19409,9.24,0.64,1.66,3.0
1758077883.13942,1758077883.00573,0.0,0.0,0.0,-7.33386,-14.15206,-19.48057,9.24,0.64,1.66,3.0
1758077883.1545,1758077883.01573,0.0,0.0,0.0,-8.47978,-15.41257,-19.42327,9.27,0.78,1.66,3.0
1758077883.1562,1758077883.02573,0.0,0.0,0.0,-11.00079,-15.06879,-18.85031,9.27,0.78,1.44,3.0
1758077883.17145,1758077883.03573,0.0,0.0,0.0,-12.54778,-16.73037,-17.47521,9.24,0.9,1.44,3.0
1758077883.18751,1758077883.04573,0.0,0.0,0.0,-14.15206,-20.79837,-16.272,8.67,1.0,1.22,3.0
1758077883.18876,1758077883.05573,0.0,0.0,0.0,-15.98552,-23.83505,-14.03747,8.67,1.0,1.22,3.0
1758077883.2035,1758077883.06573,0.0,0.0,0.0,-18.56383,-22.86102,-9.39651,8.79,0.88,1.02,3.0
1758077883.20551,1758077883.07573,0.0,0.0,0.0,-19.53786,-22.05888,-5.78687,8.79,0.88,1.02,3.0
1758077883.22155,1758077883.08573,0.0,0.0,0.0,-21.31403,-25.15285,-3.32316,8.91,0.74,1.0,3.0
1758077883.23824,1758077883.09573,0.0,0.0,0.0,-22.34536,-34.66395,-1.48969,8.91,0.74,1.0,3.0
1758077883.23944,1758077883.10573,0.0,0.0,0.0,-24.17882,-32.37212,0.11459,8.7,0.75,1.29,3.0
1758077883.25462,1758077883.11573,0.0,0.0,0.0,-27.1582,-5.55769,-2.23454,12.25,1.1,0.93,3.0
1758077883.25574,1758077883.12573,0.0,0.0,0.0,-30.36677,12.49048,-6.70361,12.25,1.1,0.93,3.0
1758077883.2706,1758077883.13573,0.0,0.0,0.0,-33.23156,14.38124,-9.39651,10.84,1.77,2.22,3.0
1758077883.28655,1758077883.14573,0.0,0.0,0.0,-37.47144,0.80214,-13.34992,10.84,1.77,2.22,3.0
1758077883.28758,1758077883.15573,0.0,0.0,0.0,-38.90384,2.34913,-13.06344,9.31,1.9,1.36,3.0
1758077883.30229,1758077883.16573,0.0,0.0,0.0,-40.27893,11.51645,-10.71431,9.31,1.9,1.36,3.0
1758077883.31869,1758077883.17573,0.0,0.0,0.0,-42.74266,20.05352,-3.89611,11.31,1.31,0.35,3.0
1758077883.31993,1758077883.18573,0.0,0.0,0.0,-43.83128,27.44468,0.80214,11.09,0.58,1.21,3.0
1758077883.33456,1758077883.19573,0.0,0.0,0.0,-43.83128,27.67386,5.27121,11.09,0.58,1.21,3.0
1758077883.33576,1758077883.20573,0.0,0.0,0.0,-42.34158,24.29341,9.62569,10.7,0.29,1.72,3.0
1758077883.3506,1758077883.21573,0.0,0.0,0.0,-34.14828,-19.88164,12.43318,10.7,0.29,1.72,3.0
1758077883.36646,1758077883.22573,0.0,0.0,0.0,-33.63263,-39.64868,-0.40107,9.38,0.54,3.06,3.0
1758077883.36785,1758077883.23573,0.0,0.0,0.0,-29.33544,-10.59972,-7.96411,9.38,0.54,3.06,3.0
1758077883.3824,1758077883.24573,0.0,0.0,0.0,-23.94964,20.62648,-11.63104,17.12,0.77,2.77,3.0
1758077883.39839,1758077883.25573,0.0,0.0,0.0,-20.51189,28.41871,-10.37054,13.65,0.19,1.92,3.0
1758077883.39961,1758077883.26573,0.0,0.0,0.0,-20.51189,27.67386,-8.30789,13.65,0.19,1.92,3.0
1758077883.41436,1758077883.27573,0.0,0.0,0.0,-20.97026,34.14828,-5.50039,13.75,0.26,2.44,3.0
1758077883.41555,1758077883.28573,0.0,0.0,0.0,-21.42862,41.48215,-1.60428,13.75,0.26,2.44,3.0
1758077883.43071,1758077883.29573,0.0,0.0,0.0,-22.11617,41.36755,4.98473,14.23,0.62,2.14,3.0
1758077883.44632,1758077883.30573,0.0,0.0,0.0,-21.7724,38.61736,7.33386,14.23,0.62,2.14,3.0
1758077883.44782,1758077883.31573,0.0,0.0,0.0,-20.85567,39.3622,7.50575,13.75,1.11,2.75,3.0
1758077883.46264,1758077883.32573,0.0,0.0,0.0,-18.90761,40.68,6.87549,13.75,1.11,2.75,3.0
1758077883.47871,1758077883.33573,0.0,0.0,0.0,-16.04282,35.40879,3.72423,14.13,1.34,3.15,3.0
1758077883.47959,1758077883.34573,0.0,0.0,0.0,-14.43854,29.96569,0.68755,13.2,1.18,3.7,3.0
1758077883.49441,1758077883.35573,0.0,0.0,0.0,-13.5791,24.57989,-2.23454,13.2,1.18,3.7,3.0
1758077883.49599,1758077883.36573,0.0,0.0,0.0,-14.03747,18.62113,-4.87014,12.09,1.15,3.56,3.0
1758077883.51075,1758077883.37573,0.0,0.0,0.0,-17.24603,7.96411,-5.4431,12.09,1.15,3.56,3.0
1758077883.5267,1758077883.38573,0.0,0.0,0.0,-21.14215,1.08862,-5.61499,10.26,1.29,3.43,3.0
1758077883.52762,1758077883.39573,0.0,0.0,0.0,-26.06958,-5.15662,-4.98473,10.26,1.29,3.43,3.0
1758077883.54272,1758077883.40573,0.0,0.0,0.0,-34.32018,-14.49583,-3.20856,8.85,1.57,3.26,3.0
1758077883.55844,1758077883.41573,0.0,0.0,0.0,-39.4768,-22.11617,-1.66158,7.64,1.67,3.01,3.0
1758077883.55997,1758077883.42573,0.0,0.0,0.0,-43.65939,-30.48136,-0.34377,7.64,1.67,3.01,3.0
1758077883.57545,1758077883.43573,0.0,0.0,0.0,-46.98254,-39.07573,0.80214,6.81,1.3,2.97,3.0
1758077883.57671,1758077883.44573,0.0,0.0,0.0,-49.61814,-51.50891,2.29183,6.81,1.3,2.97,3.0
1758077883.59171,1758077883.45573,0.0,0.0,0.0,-50.13381,-59.53032,3.38045,6.54,0.56,2.69,3.0
1758077883.60756,1758077883.46573,0.0,0.0,0.0,-49.50356,-66.80688,4.52637,6.54,0.56,2.69,3.0
1758077883.60898,1758077883.47573,0.0,0.0,0.0,-48.35764,-73.45319,5.78687,6.54,-0.13,2.41,3.0
1758077883.62369,1758077883.48573,0.0,0.0,0.0,-46.1804,-80.61517,7.04738,6.73,-0.52,2.24,3.0
1758077883.62579,1758077883.49573,0.0,0.0,0.0,-44.51882,-81.87567,7.44845,6.73,-0.52,2.24,3.0
1758077883.64174,1758077883.50573,0.0,0.0,0.0,-43.4875,-79.75573,7.04738,7.39,-0.46,2.06,3.0
1758077883.65774,1758077883.51573,0.0,0.0,0.0,-43.02913,-75.80232,6.41713,7.39,-0.46,2.06,3.0
1758077883.65867,1758077883.52573,0.0,0.0,0.0,-43.31561,-68.98412,4.98473,7.8,-0.14,1.88,3.0
1758077883.6736,1758077883.53573,0.0,0.0,0.0,-43.65939,-63.42643,4.18259,7.8,-0.14,1.88,3.0
1758077883.67465,1758077883.54573,0.0,0.0,0.0,-43.60209,-57.46767,3.66693,7.79,0.03,1.64,3.0
1758077883.69053,1758077883.55573,0.0,0.0,0.0,-43.14373,-49.79003,3.95341,7.79,0.03,1.64,3.0
1758077883.70677,1758077883.56573,0.0,0.0,0.0,-41.13837,-34.95043,5.4431,7.98,-0.23,1.23,3.0
1758077883.70768,1758077883.57573,0.0,0.0,0.0,-38.90384,-24.35071,6.8182,8.22,-0.77,1.01,3.0
1758077883.72278,1758077883.58573,0.0,0.0,0.0,-36.21093,-14.43854,8.42248,8.22,-0.77,1.01,3.0
1758077883.73888,1758077883.59573,0.0,0.0,0.0,-31.62727,0.0573,10.19865,8.18,-1.22,1.01,3.0
1758077883.74005,1758077883.60573,0.0,0.0,0.0,-28.30412,9.68299,10.8289,8.18,-1.22,1.01,3.0
1758077883.75466,1758077883.61573,0.0,0.0,0.0,-24.92367,18.85031,10.71431,8.3,-1.36,0.97,3.0
1758077883.75574,1758077883.62573,0.0,0.0,0.0,-21.48592,27.1582,10.48513,8.3,-1.36,0.97,3.0
1758077883.77082,1758077883.63573,0.0,0.0,0.0,-17.13144,37.47144,8.65166,8.38,-1.23,1.09,3.0
1758077883.78661,1758077883.64573,0.0,0.0,0.0,-14.49583,43.94586,7.21927,8.57,-0.98,1.23,3.0
1758077883.78969,1758077883.65573,0.0,0.0,0.0,-12.49048,48.9879,5.78687,8.57,-0.98,1.23,3.0
1758077883.80589,1758077883.66573,0.0,0.0,0.0,-11.00079,50.87865,4.29718,8.69,-0.74,1.3,3.0
1758077883.80676,1758077883.67573,0.0,0.0,0.0,-10.37054,49.38896,1.94806,8.69,-0.74,1.3,3.0
1758077883.82192,1758077883.68573,0.0,0.0,0.0,-9.62569,46.46688,1.14592,8.81,-0.56,1.59,3.0
1758077883.83763,1758077883.69573,0.0,0.0,0.0,-9.28192,42.97184,0.97403,8.81,-0.56,1.59,3.0
1758077883.83958,1758077883.70573,0.0,0.0,0.0,-8.93814,40.68,1.3178,9.3,-0.49,1.57,3.0
1758077883.85462,1758077883.71573,0.0,0.0,0.0,-8.99544,36.84119,2.06265,9.64,-0.44,1.63,3.0
1758077883.85579,1758077883.72573,0.0,0.0,0.0,-9.28192,35.2942,2.86479,9.64,-0.44,1.63,3.0
1758077883.87082,1758077883.73573,0.0,0.0,0.0,-9.4538,35.12231,3.83882,9.7,-0.37,1.68,3.0
1758077883.88664,1758077883.74573,0.0,0.0,0.0,-9.68299,35.75257,4.81285,9.7,-0.37,1.68,3.0
1758077883.88783,1758077883.75573,0.0,0.0,0.0,-9.68299,36.89849,5.72958,9.6,-0.35,1.69,3.0
1758077883.90265,1758077883.76573,0.0,0.0,0.0,-9.85487,37.12767,5.78687,9.6,-0.35,1.69,3.0
1758077883.90654,1758077883.77573,0.0,0.0,0.0,-9.74028,36.7266,5.55769,9.43,-0.37,1.79,3.0
1758077883.92191,1758077883.78573,0.0,0.0,0.0,-9.91217,35.3515,4.64096,9.43,-0.37,1.79,3.0
1758077883.93794,1758077883.79573,0.0,0.0,0.0,-10.37054,32.08564,3.60963,9.31,-0.35,1.67,3.0
1758077883.93964,1758077883.80573,0.0,0.0,0.0,-10.71431,29.56462,2.34913,9.2,-0.24,1.63,3.0
1758077883.95489,1758077883.81573,0.0,0.0,0.0,-11.51645,26.12688,0.80214,9.2,-0.24,1.63,3.0
1758077883.95582,1758077883.82573,0.0,0.0,0.0,-12.60507,20.45459,-0.97403,9.01,-0.07,1.63,3.0
1758077883.97082,1758077883.83573,0.0,0.0,0.0,-13.17803,16.272,-1.83346,9.01,-0.07,1.63,3.0
1758077883.98667,1758077883.84573,0.0,0.0,0.0,-13.75099,11.57375,-2.46372,8.93,0.01,1.69,3.0
1758077883.98787,1758077883.85573,0.0,0.0,0.0,-13.80828,6.70361,-2.7502,8.93,0.01,1.69,3.0
1758077884.00264,1758077883.86573,0.0,0.0,0.0,-13.5791,0.11459,-2.34913,8.91,-0.1,1.68,3.0
1758077884.00659,1758077883.87573,0.0,0.0,0.0,-13.06344,-4.0107,-2.23454,9.02,-0.45,1.64,3.0
1758077884.02195,1758077883.88573,0.0,0.0,0.0,-11.63104,-5.50039,-1.66158,9.02,-0.45,1.64,3.0
1758077884.03881,1758077883.89573,0.0,0.0,0.0,-9.91217,-2.40642,-1.3178,9.61,-0.83,1.64,3.0
1758077884.03992,1758077883.90573,0.0,0.0,0.0,-7.16197,1.94806,-0.68755,9.61,-0.83,1.64,3.0
1758077884.05495,1758077883.91573,0.0,0.0,0.0,-5.50039,0.40107,-0.57296,9.51,-0.95,1.66,3.0
1758077884.05619,1758077883.92573,0.0,0.0,0.0,-3.72423,0.11459,-0.45837,9.51,-0.95,1.66,3.0
1758077884.07177,1758077883.93573,0.0,0.0,0.0,-1.71887,0.74485,-0.0573,9.58,-0.73,1.48,3.0
1758077884.08803,1758077883.94573,0.0,0.0,0.0,2.11994,0.11459,1.3751,9.88,-0.73,1.24,3.0
1758077884.08891,1758077883.95573,0.0,0.0,0.0,4.98473,-1.08862,2.97938,9.88,-0.73,1.24,3.0
1758077884.104,1758077883.96573,0.0,0.0,0.0,7.96411,-2.00535,4.81285,10.1,-1.01,1.22,3.0
1758077884.10656,1758077883.97573,0.0,0.0,0.0,10.94349,-2.7502,6.53172,10.1,-1.01,1.22,3.0
1758077884.12196,1758077883.98573,0.0,0.0,0.0,15.35527,-8.88085,8.42248,10.17,-1.36,1.04,3.0
1758077884.13892,1758077883.99573,0.0,0.0,0.0,17.93358,-13.80828,7.67763,10.17,-1.36,1.04,3.0
1758077884.13988,1758077884.00573,0.0,0.0,0.0,20.68378,-15.29797,6.35983,10.24,-1.39,0.96,3.0
1758077884.15489,1758077884.01573,0.0,0.0,0.0,25.7831,-4.0107,2.86479,10.24,-1.39,0.96,3.0
1758077884.15589,1758077884.02573,0.0,0.0,0.0,29.56462,1.94806,0.22918,11.74,-1.45,1.03,3.0
1758077884.17068,1758077884.03573,0.0,0.0,0.0,33.34615,2.46372,-1.03132,11.48,-1.83,3.34,3.0
1758077884.18672,1758077884.04573,0.0,0.0,0.0,32.08564,4.29718,-9.33921,11.48,-1.83,3.34,3.0
1758077884.1882,1758077884.05573,0.0,0.0,0.0,24.29341,-53.68615,6.18794,10.86,-1.86,7.58,3.0
1758077884.20271,1758077884.06573,0.0,0.0,0.0,26.35606,-66.97877,23.72045,10.86,-1.86,7.58,3.0
1758077884.21892,1758077884.07573,0.0,0.0,0.0,19.82434,-43.14373,34.95043,17.93,-0.35,4.76,3.0
1758077884.2202,1758077884.08573,0.0,0.0,0.0,13.75099,-20.16812,39.19032,17.93,-0.35,4.76,3.0
1758077884.23506,1758077884.09573,0.0,0.0,0.0,8.76626,-14.43854,34.72124,18.28,0.0,2.13,3.0
1758077884.23628,1758077884.10573,0.0,0.0,0.0,9.4538,-15.69904,28.07493,12.93,-0.03,4.43,3.0
1758077884.2508,1758077884.11573,0.0,0.0,0.0,10.71431,-9.85487,18.50654,12.93,-0.03,4.43,3.0
1758077884.26682,1758077884.12573,0.0,0.0,0.0,12.77696,-2.06265,8.76626,13.16,-0.15,4.75,3.0
1758077884.2684,1758077884.13573,0.0,0.0,0.0,14.66772,7.84952,-2.00535,13.16,-0.15,4.75,3.0
1758077884.28278,1758077884.14573,0.0,0.0,0.0,14.32395,12.204,-4.1253,13.15,-0.03,4.22,3.0
1758077884.29911,1758077884.15573,0.0,0.0,0.0,12.83425,17.01685,-5.50039,13.15,-0.03,4.22,3.0
1758077884.30032,1758077884.16573,0.0,0.0,0.0,11.86023,16.3293,-5.84417,12.08,-0.33,4.0,3.0
1758077884.31493,1758077884.17573,0.0,0.0,0.0,13.34992,11.34457,-3.55234,9.84,-0.6,3.2,3.0
1758077884.31627,1758077884.18573,0.0,0.0,0.0,16.61578,9.28192,-0.45837,9.84,-0.6,3.2,3.0
1758077884.33077,1758077884.19573,0.0,0.0,0.0,20.97026,6.24524,2.57831,8.98,-1.05,2.79,3.0
1758077884.34686,1758077884.20573,0.0,0.0,0.0,27.67386,5.78687,5.72958,8.98,-1.05,2.79,3.0
1758077884.34877,1758077884.21573,0.0,0.0,0.0,31.45539,4.64096,6.24524,8.25,-1.38,2.47,3.0
1758077884.36411,1758077884.22573,0.0,0.0,0.0,34.89313,3.95341,6.18794,8.25,-1.38,2.47,3.0
1758077884.36579,1758077884.23573,0.0,0.0,0.0,37.35685,3.32316,5.09932,7.43,-1.27,2.52,3.0
1758077884.38181,1758077884.24573,0.0,0.0,0.0,40.27893,-0.34377,3.09397,7.43,-1.27,2.52,3.0
1758077884.39788,1758077884.25573,0.0,0.0,0.0,41.25296,-3.72423,1.83346,6.75,-0.68,2.46,3.0
1758077884.39939,1758077884.26573,0.0,0.0,0.0,41.31026,-7.33386,0.68755,6.63,0.15,2.23,3.0
1758077884.41384,1758077884.27573,0.0,0.0,0.0,40.50812,-10.31324,-0.17189,6.63,0.15,2.23,3.0
1758077884.41506,1758077884.28573,0.0,0.0,0.0,38.21629,-14.72501,-1.14592,6.82,1.0,1.87,3.0
1758077884.43087,1758077884.29573,0.0,0.0,0.0,36.49741,-16.10011,-1.43239,6.82,1.0,1.87,3.0
1758077884.44687,1758077884.30573,0.0,0.0,0.0,34.66395,-16.38659,-1.60428,7.1,1.54,1.67,3.0
1758077884.44961,1758077884.31573,0.0,0.0,0.0,32.83048,-16.04282,-1.83346,7.1,1.54,1.67,3.0
1758077884.46512,1758077884.32573,0.0,0.0,0.0,30.82513,-15.75634,-2.92208,7.25,1.58,1.69,3.0
1758077884.46645,1758077884.33573,0.0,0.0,0.0,29.56462,-14.15206,-3.83882,7.36,1.26,1.75,3.0
1758077884.48098,1758077884.34573,0.0,0.0,0.0,28.36141,-11.91752,-4.98473,7.36,1.26,1.75,3.0
1758077884.49693,1758077884.35573,0.0,0.0,0.0,27.2155,-10.25595,-6.35983,7.59,0.93,1.9,3.0
1758077884.49813,1758077884.36573,0.0,0.0,0.0,25.26744,-8.0787,-8.30789,7.59,0.93,1.9,3.0
1758077884.51293,1758077884.37573,0.0,0.0,0.0,23.89234,-6.13065,-9.4538,7.76,0.75,1.98,3.0
1758077884.51575,1758077884.38573,0.0,0.0,0.0,22.34536,-4.29718,-10.25595,7.76,0.75,1.98,3.0
1758077884.53225,1758077884.39573,0.0,0.0,0.0,20.74107,-3.55234,-11.00079,8.02,0.71,2.04,3.0
1758077884.54823,1758077884.40573,0.0,0.0,0.0,17.76169,-3.72423,-11.45916,8.13,0.8,2.07,3.0
1758077884.55099,1758077884.41573,0.0,0.0,0.0,15.64175,-4.52637,-11.63104,8.13,0.8,2.07,3.0
1758077884.59117,1758077884.42573,0.0,0.0,0.0,13.5791,-6.70361,-11.63104,8.34,0.97,2.03,3.0
1758077884.59686,1758077884.43573,0.0,0.0,0.0,10.65701,-11.00079,-11.57375,8.34,0.97,2.03,3.0
1758077884.59786,1758077884.44573,0.0,0.0,0.0,8.99544,-13.86558,-10.71431,8.53,1.07,2.01,3.0
1758077884.59956,1758077884.45573,0.0,0.0,0.0,7.44845,-16.04282,-10.31324,8.53,1.07,2.01,3.0
1758077884.60018,1758077884.46573,0.0,0.0,0.0,6.24524,-18.10547,-9.74028,8.78,1.04,2.15,3.0
1758077884.61624,1758077884.47573,0.0,0.0,0.0,4.29718,-20.74107,-10.31324,8.78,1.04,2.14,3.0
1758077884.61745,1758077884.48573,0.0,0.0,0.0,3.55234,-21.37133,-10.94349,8.88,0.97,2.14,3.0
1758077884.63211,1758077884.49573,0.0,0.0,0.0,2.92208,-20.85567,-11.45916,9.18,0.89,2.08,3.0
1758077884.64799,1758077884.50573,0.0,0.0,0.0,2.92208,-20.16812,-11.80293,9.18,0.89,2.08,3.0
1758077884.64953,1758077884.51573,0.0,0.0,0.0,3.09397,-17.6471,-11.51645,9.39,0.67,1.97,3.0
1758077884.66529,1758077884.52573,0.0,0.0,0.0,3.60963,-15.46986,-10.8289,9.39,0.67,1.97,3.0
1758077884.66653,1758077884.53573,0.0,0.0,0.0,4.35448,-13.34992,-9.91217,9.59,0.4,1.83,3.0
1758077884.68132,1758077884.54573,0.0,0.0,0.0,5.21392,-10.8862,-8.65166,9.59,0.4,1.83,3.0
1758077884.71594,1758077884.55573,0.0,0.0,0.0,6.53172,-6.87549,-7.10468,9.83,0.21,1.77,3.0
1758077884.71715,1758077884.56573,0.0,0.0,0.0,7.67763,-4.46907,-6.70361,10.05,0.15,1.73,3.0
1758077884.71855,1758077884.57573,0.0,0.0,0.0,8.76626,-1.48969,-6.7609,10.05,0.15,1.73,3.0
1758077884.71982,1758077884.58573,0.0,0.0,0.0,9.96947,1.20321,-7.16197,10.09,0.24,1.62,3.0
1758077884.73503,1758077884.59573,0.0,0.0,0.0,11.91752,5.15662,-7.96411,10.09,0.24,1.62,3.0
1758077884.73673,1758077884.60573,0.0,0.0,0.0,13.17803,8.30789,-8.36518,9.95,0.34,1.38,3.0
1758077884.7511,1758077884.61573,0.0,0.0,0.0,14.49583,10.8289,-8.136,9.95,0.34,1.38,3.0
1758077884.76708,1758077884.62573,0.0,0.0,0.0,16.38659,12.60507,-6.7609,9.72,0.37,1.2,3.0
1758077884.76858,1758077884.63573,0.0,0.0,0.0,17.58981,15.98552,-5.15662,9.65,0.26,1.13,3.0
1758077884.7833,1758077884.64573,0.0,0.0,0.0,18.56383,17.24603,-3.20856,9.65,0.26,1.13,3.0
1758077884.7991,1758077884.65573,0.0,0.0,0.0,19.42327,17.93358,-0.85944,9.47,0.15,1.14,3.0
1758077884.80031,1758077884.66572,0.0,0.0,0.0,20.45459,19.59516,2.46372,9.47,0.15,1.14,3.0
1758077884.81509,1758077884.67572,0.0,0.0,0.0,20.62648,17.01685,2.97938,9.52,0.16,1.39,3.0
1758077884.81633,1758077884.68572,0.0,0.0,0.0,20.74107,10.71431,2.46372,9.52,0.16,1.39,3.0
1758077884.83112,1758077884.69572,0.0,0.0,0.0,20.3973,4.87014,0.85944,9.1,0.43,1.5,3.0
1758077884.84733,1758077884.70572,0.0,0.0,0.0,19.25138,1.3178,-0.85944,9.55,0.43,1.32,3.0
1758077884.84831,1758077884.71572,0.0,0.0,0.0,17.53251,-0.11459,-2.29183,9.55,0.8,1.32,3.0
1758077884.8631,1758077884.72572,0.0,0.0,0.0,15.64175,-1.71887,-3.32316,9.45,1.13,1.41,3.0
1758077884.87914,1758077884.73572,0.0,0.0,0.0,13.40721,-2.92208,-3.83882,9.45,1.13,1.41,3.0
1758077884.88025,1758077884.74572,0.0,0.0,0.0,9.05273,-3.49504,-4.98473,9.56,1.35,1.36,3.0
1758077884.8951,1758077884.75572,0.0,0.0,0.0,6.18794,-3.83882,-5.21392,9.56,1.35,1.36,3.0
1758077884.8963,1758077884.76572,0.0,0.0,0.0,3.32316,-4.52637,-5.27121,9.5,1.5,1.12,3.0
1758077884.91112,1758077884.77572,0.0,0.0,0.0,0.68755,-6.47442,-4.29718,9.5,1.5,1.12,3.0
1758077884.9274,1758077884.78572,0.0,0.0,0.0,-2.86479,-9.11003,-1.48969,9.41,1.45,0.88,3.0
1758077884.92862,1758077884.79572,0.0,0.0,0.0,-4.81285,-8.36518,0.45837,9.77,1.08,0.59,3.0
1758077884.94341,1758077884.80572,0.0,0.0,0.0,-6.18794,-4.92744,2.6929,9.77,1.08,0.59,3.0
1758077884.94607,1758077884.81572,0.0,0.0,0.0,-7.62034,-2.29183,5.90147,10.55,0.86,0.69,3.0
1758077884.96218,1758077884.82572,0.0,0.0,0.0,-9.96947,0.17189,8.76626,10.55,0.86,0.69,3.0
1758077884.97818,1758077884.83572,0.0,0.0,0.0,-11.45916,5.95876,11.34457,11.1,0.95,1.02,3.0
1758077884.97971,1758077884.84572,0.0,0.0,0.0,-16.50119,25.38203,8.0787,11.1,0.95,1.02,3.0
1758077884.99444,1758077884.85572,0.0,0.0,0.0,-24.29341,40.85189,5.15662,13.41,1.57,1.37,3.0
1758077884.99615,1758077884.86572,0.0,0.0,0.0,-22.97561,8.88085,7.62034,9.86,2.66,2.8,3.0
1758077885.01119,1758077884.87572,0.0,0.0,0.0,-28.76248,-50.363,-3.60963,9.86,2.66,2.8,3.0
1758077885.02722,1758077884.88572,0.0,0.0,0.0,-32.20023,-37.35685,-18.44924,13.0,3.43,3.98,3.0
1758077885.02838,1758077884.89572,0.0,0.0,0.0,-26.81443,19.19409,-20.79837,13.0,3.43,3.98,3.0
1758077885.04321,1758077884.90572,0.0,0.0,0.0,-24.23611,10.31324,-18.10547,16.8,1.8,2.63,3.0
1758077885.05921,1758077884.91572,0.0,0.0,0.0,-21.31403,7.10468,-13.23533,16.8,1.8,2.63,3.0
1758077885.06077,1758077884.92572,0.0,0.0,0.0,-17.76169,17.87628,-6.87549,13.14,0.17,3.61,3.0
1758077885.07517,1758077884.93572,0.0,0.0,0.0,-14.9542,29.73651,3.95341,14.33,-0.5,2.25,3.0
1758077885.07657,1758077884.94572,0.0,0.0,0.0,-15.92823,30.02299,9.74028,14.33,-0.5,2.25,3.0
1758077885.09156,1758077884.95572,0.0,0.0,0.0,-17.93358,29.22085,12.2613,13.02,0.44,2.97,3.0
1758077885.10746,1758077884.96572,0.0,0.0,0.0,-20.34,27.50197,12.204,13.02,0.44,2.97,3.0
1758077885.10883,1758077884.97572,0.0,0.0,0.0,-24.80907,23.72045,7.10468,13.15,1.97,3.11,3.0
1758077885.12355,1758077884.98572,0.0,0.0,0.0,-27.10091,23.66316,1.94806,13.15,1.97,3.11,3.0
1758077885.13923,1758077884.99572,0.0,0.0,0.0,-29.10626,22.97561,-3.09397,12.99,2.64,3.59,3.0
1758077885.14043,1758077885.00572,0.0,0.0,0.0,-30.88243,19.76705,-7.67763,12.99,2.64,3.59,3.0
1758077885.15523,1758077885.01572,0.0,0.0,0.0,-33.40344,11.74564,-11.63104,10.94,2.14,3.36,3.0
1758077885.15647,1758077885.02572,0.0,0.0,0.0,-35.12231,6.18794,-12.54778,8.96,1.2,2.69,3.0
1758077885.17125,1758077885.03572,0.0,0.0,0.0,-36.6693,0.17189,-12.204,8.96,1.2,2.69,3.0
1758077885.18728,1758077885.04572,0.0,0.0,0.0,-38.56006,-6.13065,-10.02676,7.68,0.48,2.18,3.0
1758077885.18881,1758077885.05572,0.0,0.0,0.0,-39.82057,-13.86558,-8.0787,7.68,0.48,2.18,3.0
1758077885.20362,1758077885.06572,0.0,0.0,0.0,-41.02378,-18.10547,-6.13065,7.1,0.05,2.18,3.0
1758077885.20606,1758077885.07572,0.0,0.0,0.0,-41.76862,-22.97561,-4.1253,7.1,0.05,2.18,3.0
1758077885.22231,1758077885.08572,0.0,0.0,0.0,-42.57077,-29.10626,-0.51566,6.82,-0.21,2.41,3.0
1758077885.23829,1758077885.09572,0.0,0.0,0.0,-42.85724,-32.42941,1.71887,7.16,-0.35,2.31,3.0
1758077885.23953,1758077885.10572,0.0,0.0,0.0,-42.85724,-35.63798,4.23989,7.16,-0.35,2.31,3.0
1758077885.25506,1758077885.11572,0.0,0.0,0.0,-42.91454,-37.58603,6.53172,7.53,-0.46,2.29,3.0
1758077885.25632,1758077885.12572,0.0,0.0,0.0,-43.02913,-39.53409,9.5684,7.53,-0.46,2.29,3.0
1758077885.27131,1758077885.13572,0.0,0.0,0.0,-43.20102,-39.76327,11.11538,7.76,-0.55,2.21,3.0
1758077885.28754,1758077885.14572,0.0,0.0,0.0,-43.14373,-39.82057,12.54778,7.76,-0.55,2.21,3.0
1758077885.28901,1758077885.15572,0.0,0.0,0.0,-42.97184,-39.19032,13.86558,7.9,-0.57,2.17,3.0
1758077885.30332,1758077885.16572,0.0,0.0,0.0,-42.57077,-36.55471,15.06879,8.2,-0.58,2.09,3.0
1758077885.31933,1758077885.17572,0.0,0.0,0.0,-42.34158,-33.17426,15.24068,8.2,-0.58,2.09,3.0
1758077885.32057,1758077885.18572,0.0,0.0,0.0,-42.28429,-29.22085,14.78231,8.6,-0.54,1.96,3.0
1758077885.33564,1758077885.19572,0.0,0.0,0.0,-42.28429,-25.7831,13.5218,8.6,-0.54,1.96,3.0
1758077885.33687,1758077885.20572,0.0,0.0,0.0,-41.65404,-19.99623,11.00079,8.69,-0.45,1.88,3.0
1758077885.35129,1758077885.21572,0.0,0.0,0.0,-41.02378,-16.04282,9.05273,8.69,-0.45,1.88,3.0
1758077885.36755,1758077885.22572,0.0,0.0,0.0,-40.04975,-12.08941,7.44845,8.74,-0.5,1.7,3.0
1758077885.36881,1758077885.23572,0.0,0.0,0.0,-38.78925,-8.30789,5.32851,8.74,-0.5,1.7,3.0
1758077885.38365,1758077885.24572,0.0,0.0,0.0,-36.03905,-3.20856,4.58366,8.67,-0.68,1.74,3.0
1758077885.39963,1758077885.25572,0.0,0.0,0.0,-33.74722,0.40107,4.46907,8.59,-0.95,1.62,3.0
1758077885.40081,1758077885.26572,0.0,0.0,0.0,-31.2262,3.95341,4.18259,8.59,-0.95,1.62,3.0
1758077885.41537,1758077885.27572,0.0,0.0,0.0,-26.87172,7.84952,4.52637,8.48,-1.18,1.59,3.0
1758077885.41683,1758077885.28572,0.0,0.0,0.0,-23.89234,10.31324,4.81285,8.48,-1.18,1.59,3.0
1758077885.4317,1758077885.29572,0.0,0.0,0.0,-20.74107,12.71966,5.15662,8.52,-1.38,1.58,3.0
1758077885.44741,1758077885.30572,0.0,0.0,0.0,-17.58981,13.86558,5.27121,8.52,-1.38,1.58,3.0
1758077885.44913,1758077885.31572,0.0,0.0,0.0,-12.89155,15.58445,5.72958,8.59,-1.46,1.62,3.0
1758077885.4648,1758077885.32572,0.0,0.0,0.0,-10.02676,17.36062,5.72958,8.87,-1.41,1.62,3.0
1758077885.46641,1758077885.33572,0.0,0.0,0.0,-7.50575,18.56383,5.55769,8.87,-1.41,1.62,3.0
1758077885.48173,1758077885.34572,0.0,0.0,0.0,-5.32851,18.85031,4.98473,9.07,-1.33,1.72,3.0
1758077885.49843,1758077885.35572,0.0,0.0,0.0,-2.23454,20.34,4.29718,9.07,-1.33,1.72,3.0
1758077885.49965,1758077885.36572,0.0,0.0,0.0,0.57296,21.94428,4.87014,9.39,-1.17,1.74,3.0
1758077885.5147,1758077885.37572,0.0,0.0,0.0,3.38045,20.74107,5.78687,9.39,-1.17,1.74,3.0
1758077885.51564,1758077885.38572,0.0,0.0,0.0,5.78687,19.42327,6.70361,9.24,-1.14,1.67,3.0
1758077885.53145,1758077885.39572,0.0,0.0,0.0,8.25059,21.02755,7.96411,9.58,-1.09,1.61,3.0
1758077885.54746,1758077885.40572,0.0,0.0,0.0,9.22462,21.42862,8.36518,9.58,-1.09,1.61,3.0
1758077885.54868,1758077885.41572,0.0,0.0,0.0,9.5684,20.11082,8.02141,9.4,-0.81,1.59,3.0
1758077885.56534,1758077885.42572,0.0,0.0,0.0,9.33921,18.33465,7.04738,9.4,-0.81,1.59,3.0
1758077885.56629,1758077885.43572,0.0,0.0,0.0,8.36518,17.6471,4.52637,9.35,-0.48,1.51,3.0
1758077885.58179,1758077885.44572,0.0,0.0,0.0,7.73493,17.30333,2.63561,9.35,-0.48,1.51,3.0
1758077885.59795,1758077885.45572,0.0,0.0,0.0,6.8182,16.50119,0.85944,9.5,-0.25,1.53,3.0
1758077885.59865,1758077885.46572,0.0,0.0,0.0,5.61499,15.41257,-0.85944,9.5,-0.25,1.53,3.0
1758077885.61465,1758077885.47572,0.0,0.0,0.0,4.87014,14.72501,-1.03132,9.64,-0.15,1.68,3.0
1758077885.61581,1758077885.48572,0.0,0.0,0.0,4.52637,13.23533,-0.22918,9.68,-0.19,1.71,3.0
1758077885.63178,1758077885.49572,0.0,0.0,0.0,4.18259,11.91752,0.74485,9.68,-0.19,1.71,3.0
1758077885.6488,1758077885.50572,0.0,0.0,0.0,4.18259,11.17268,3.03668,9.59,-0.39,1.48,3.0
1758077885.6497,1758077885.51572,0.0,0.0,0.0,4.35448,9.22462,4.23989,9.59,-0.39,1.48,3.0
1758077885.66585,1758077885.52572,0.0,0.0,0.0,4.46907,6.99009,5.27121,9.3,-0.62,1.48,3.0
1758077885.6667,1758077885.53572,0.0,0.0,0.0,4.81285,4.81285,5.90147,9.3,-0.62,1.48,3.0
1758077885.68201,1758077885.54572,0.0,0.0,0.0,4.98473,2.46372,5.95876,9.27,-0.64,1.36,3.0
1758077885.69771,1758077885.55572,0.0,0.0,0.0,4.87014,1.20321,5.15662,9.31,-0.48,1.28,3.0
1758077885.69874,1758077885.56572,0.0,0.0,0.0,4.81285,-0.11459,4.18259,9.31,-0.48,1.28,3.0
1758077885.71358,1758077885.57572,0.0,0.0,0.0,4.58366,-1.20321,3.72423,9.39,-0.28,1.54,3.0
1758077885.7167,1758077885.58572,0.0,0.0,0.0,4.98473,-0.85944,5.27121,9.39,-0.28,1.54,3.0
1758077885.73163,1758077885.59572,0.0,0.0,0.0,5.78687,0.22918,7.44845,9.85,-0.4,1.78,3.0
1758077885.73594,1758077885.60572,0.0,0.0,0.0,6.7609,-0.51566,9.62569,9.85,-0.4,1.78,3.0
1758077885.75186,1758077885.61572,0.0,0.0,0.0,7.79223,-2.00535,11.22997,9.7,-0.76,1.64,3.0
1758077885.76892,1758077885.62572,0.0,0.0,0.0,9.39651,-3.55234,12.08941,9.65,-0.98,1.6,3.0
1758077885.76975,1758077885.63572,0.0,0.0,0.0,10.8289,-3.55234,11.74564,9.65,-0.98,1.6,3.0
1758077885.78565,1758077885.64572,0.0,0.0,0.0,12.204,-3.66693,11.17268,9.55,-1.01,1.49,3.0
1758077885.78778,1758077885.65572,0.0,0.0,0.0,14.09476,-3.72423,10.02676,9.55,-1.01,1.49,3.0
1758077885.8026,1758077885.66572,0.0,0.0,0.0,14.9542,-3.38045,9.4538,9.44,-0.94,1.44,3.0
1758077885.80636,1758077885.67572,0.0,0.0,0.0,16.3293,-3.72423,9.4538,9.44,-0.94,1.44,3.0
1758077885.82188,1758077885.68572,0.0,0.0,0.0,16.84496,-7.79223,9.22462,9.42,-0.8,1.14,3.0
1758077885.82611,1758077885.69572,0.0,0.0,0.0,16.38659,-15.46986,7.39116,9.42,-0.8,1.14,3.0
1758077885.84198,1758077885.70572,0.0,0.0,0.0,16.90226,-10.48513,5.09932,9.23,-0.44,0.84,3.0
1758077885.84583,1758077885.71572,0.0,0.0,0.0,18.22006,6.13065,4.23989,11.08,-0.27,0.71,3.0
1758077885.86195,1758077885.72572,0.0,0.0,0.0,19.70975,28.07493,2.34913,11.08,-0.27,0.71,3.0
1758077885.86591,1758077885.73572,0.0,0.0,0.0,21.48592,45.83662,0.34377,11.41,-0.41,1.87,3.0
1758077885.88192,1758077885.74572,0.0,0.0,0.0,25.43933,37.64333,-1.60428,11.41,-0.41,1.87,3.0
1758077885.88669,1758077885.75572,0.0,0.0,0.0,25.21014,16.84496,-5.78687,8.53,-0.25,2.31,3.0
1758077885.90542,1758077885.76572,0.0,0.0,0.0,26.64254,-6.13065,-2.7502,8.53,-0.25,2.31,3.0
1758077885.90644,1758077885.77572,0.0,0.0,0.0,24.57989,-19.82434,1.48969,8.95,-0.63,0.33,3.0
1758077885.92192,1758077885.78572,0.0,0.0,0.0,19.25138,-76.54716,1.3178,7.08,-1.31,1.49,3.0
1758077885.92587,1758077885.79572,0.0,0.0,0.0,27.2155,-108.23174,28.70519,7.08,-1.31,1.49,3.0
1758077885.94074,1758077885.80572,0.0,0.0,0.0,22.51724,-63.54102,35.98175,14.25,-2.35,3.06,3.0
1758077885.95671,1758077885.81572,0.0,0.0,0.0,17.81899,-15.24068,33.46074,14.25,-2.35,3.06,3.0
1758077885.95984,1758077885.82572,0.0,0.0,0.0,14.78231,-30.76784,25.72581,12.29,-0.76,2.73,3.0
1758077885.97493,1758077885.83572,0.0,0.0,0.0,11.28727,-33.46074,18.9649,12.29,-0.76,2.73,3.0
1758077885.97664,1758077885.84572,0.0,0.0,0.0,6.99009,-19.48057,9.28192,11.09,1.16,3.44,3.0
1758077885.99196,1758077885.85572,0.0,0.0,0.0,3.32316,-2.23454,-2.92208,12.74,1.75,2.04,3.0
1758077886.00767,1758077885.86572,0.0,0.0,0.0,2.23454,6.35983,-7.50575,12.74,1.75,2.04,3.0
1758077886.00916,1758077885.87572,0.0,0.0,0.0,1.94806,13.86558,-8.47978,12.96,0.21,3.37,3.0
1758077886.0269,1758077885.88572,0.0,0.0,0.0,2.7502,20.68378,-4.52637,12.96,0.21,3.37,3.0
1758077886.02808,1758077885.89572,0.0,0.0,0.0,3.72423,23.31938,0.0573,14.56,-1.82,3.04,3.0
1758077886.07591,1758077885.90572,0.0,0.0,0.0,4.69825,26.87172,5.15662,14.56,-1.82,3.04,3.0
1758077886.0771,1758077885.91572,0.0,0.0,0.0,5.95876,31.2262,9.33921,15.31,-3.11,3.23,3.0
1758077886.07905,1758077885.92572,0.0,0.0,0.0,8.136,34.95043,10.8289,15.31,-3.11,2.93,3.0
1758077886.08137,1758077885.93572,0.0,0.0,0.0,10.08406,33.34615,9.91217,13.84,-2.9,2.93,3.0
1758077886.08507,1758077885.94572,0.0,0.0,0.0,11.86023,32.48671,7.73493,12.3,-1.99,2.97,3.0
1758077886.08612,1758077885.95572,0.0,0.0,0.0,13.80828,31.91375,4.87014,12.3,-1.99,2.97,3.0
1758077886.1021,1758077885.96572,0.0,0.0,0.0,17.18874,28.13223,0.80214,11.73,-1.07,3.01,3.0
1758077886.10617,1758077885.97572,0.0,0.0,0.0,19.76705,24.4653,-0.80214,11.73,-1.07,3.01,3.0
1758077886.12206,1758077885.98572,0.0,0.0,0.0,22.86102,19.88164,-1.14592,10.95,-0.63,3.06,3.0
1758077886.13806,1758077885.99572,0.0,0.0,0.0,25.7831,13.5791,-0.51566,10.95,-0.63,3.06,3.0
1758077886.139,1758077886.00572,0.0,0.0,0.0,30.25217,2.92208,1.08862,9.92,-0.79,2.96,3.0
1758077886.15405,1758077886.01572,0.0,0.0,0.0,33.00237,-4.69825,2.63561,8.92,-1.13,2.87,3.0
1758077886.15498,1758077886.02572,0.0,0.0,0.0,35.3515,-12.204,3.89611,8.92,-1.13,2.87,3.0
1758077886.17039,1758077886.03572,0.0,0.0,0.0,37.29956,-18.10547,4.92744,8.19,-1.25,2.69,3.0
1758077886.18594,1758077886.04572,0.0,0.0,0.0,38.78925,-25.43933,5.09932,8.19,-1.25,2.69,3.0
1758077886.18703,1758077886.05572,0.0,0.0,0.0,38.78925,-30.30947,4.1253,7.58,-0.88,2.49,3.0
1758077886.20212,1758077886.06572,0.0,0.0,0.0,38.15899,-34.77854,2.7502,7.58,-0.88,2.49,3.0
1758077886.21789,1758077886.07572,0.0,0.0,0.0,36.38282,-38.56006,0.68755,7.17,-0.11,2.25,3.0
1758077886.21904,1758077886.08572,0.0,0.0,0.0,34.72124,-43.25832,-0.51566,7.09,0.58,2.13,3.0
1758077886.23411,1758077886.09572,0.0,0.0,0.0,32.88778,-44.748,-0.57296,7.09,0.58,2.13,3.0
1758077886.23508,1758077886.10572,0.0,0.0,0.0,30.93972,-46.46688,-0.85944,7.24,0.93,2.04,3.0
1758077886.25121,1758077886.11572,0.0,0.0,0.0,27.10091,-48.9306,-1.60428,7.24,0.93,2.04,3.0
1758077886.26684,1758077886.12572,0.0,0.0,0.0,23.89234,-46.75336,-3.26586,7.62,1.13,1.96,3.0
1758077886.26836,1758077886.13572,0.0,0.0,0.0,22.28806,-42.91454,-4.29718,7.62,1.13,1.96,3.0
1758077886.28286,1758077886.14572,0.0,0.0,0.0,20.3973,-39.19032,-6.07335,8.21,1.12,1.84,3.0
1758077886.28595,1758077886.15572,0.0,0.0,0.0,17.87628,-32.77319,-8.65166,8.23,1.12,1.77,3.0
1758077886.3019,1758077886.16572,0.0,0.0,0.0,16.3293,-27.50197,-10.65701,8.23,0.79,1.77,3.0
1758077886.31819,1758077886.17572,0.0,0.0,0.0,14.66772,-22.05888,-12.204,8.43,0.51,1.7,3.0
1758077886.32019,1758077886.18572,0.0,0.0,0.0,13.17803,-16.3293,-13.80828,8.43,0.51,1.7,3.0
1758077886.33494,1758077886.19572,0.0,0.0,0.0,10.94349,-7.21927,-15.87093,8.51,0.41,1.65,3.0
1758077886.33621,1758077886.20572,0.0,0.0,0.0,9.5684,0.34377,-17.30333,8.51,0.41,1.65,3.0
1758077886.35092,1758077886.21572,0.0,0.0,0.0,9.39651,4.81285,-16.67307,8.58,0.45,1.58,3.0
1758077886.36729,1758077886.22572,0.0,0.0,0.0,8.136,7.10468,-17.47521,8.58,0.45,1.58,3.0
1758077886.36976,1758077886.23572,0.0,0.0,0.0,6.8182,11.91752,-17.24603,8.34,0.48,1.68,3.0
1758077886.386,1758077886.24572,0.0,0.0,0.0,6.13065,14.20935,-17.24603,8.64,0.56,1.71,3.0
1758077886.38715,1758077886.25572,0.0,0.0,0.0,5.90147,14.20935,-16.3293,8.64,0.56,1.71,3.0
1758077886.40276,1758077886.26572,0.0,0.0,0.0,5.72958,13.40721,-15.12609,8.5,0.51,1.9,3.0
1758077886.40588,1758077886.27572,0.0,0.0,0.0,5.61499,10.54242,-14.20935,8.5,0.51,1.9,3.0
1758077886.42123,1758077886.28572,0.0,0.0,0.0,5.32851,6.58902,-14.20935,8.56,0.47,2.08,3.0
1758077886.43716,1758077886.29572,0.0,0.0,0.0,4.52637,2.34913,-14.32395,8.56,0.47,2.08,3.0
1758077886.43888,1758077886.30572,0.0,0.0,0.0,2.7502,-3.55234,-15.75634,8.58,0.5,2.16,3.0
1758077886.45401,1758077886.31572,0.0,0.0,0.0,1.48969,-8.25059,-17.47521,8.68,0.61,2.04,3.0
1758077886.4556,1758077886.32572,0.0,0.0,0.0,0.51566,-13.40721,-18.79302,8.68,0.61,2.04,3.0
1758077886.47106,1758077886.33572,0.0,0.0,0.0,0.17189,-18.79302,-19.70975,8.79,0.53,1.91,3.0
1758077886.48747,1758077886.34572,0.0,0.0,0.0,0.57296,-24.80907,-18.90761,8.79,0.53,1.91,3.0
1758077886.4882,1758077886.35572,0.0,0.0,0.0,1.71887,-27.78845,-17.24603,9.32,0.22,1.59,3.0
1758077886.50567,1758077886.36572,0.0,0.0,0.0,3.38045,-29.39274,-14.72501,9.32,0.22,1.59,3.0
1758077886.50657,1758077886.37572,0.0,0.0,0.0,5.32851,-29.96569,-11.91752,9.82,-0.27,1.54,3.0
1758077886.52629,1758077886.38572,0.0,0.0,0.0,9.28192,-28.07493,-7.67763,10.21,-0.63,1.54,3.0
1758077886.52831,1758077886.39572,0.0,0.0,0.0,11.74564,-24.92367,-5.32851,10.21,-0.63,1.54,3.0
1758077886.54301,1758077886.40572,0.0,0.0,0.0,14.15206,-21.7724,-3.72423,10.27,-0.67,1.52,3.0
1758077886.54581,1758077886.41572,0.0,0.0,0.0,16.3293,-18.73572,-3.66693,10.27,-0.67,1.52,3.0
1758077886.56297,1758077886.42572,0.0,0.0,0.0,18.73572,-13.5791,-5.09932,10.08,-0.35,1.32,3.0
1758077886.56561,1758077886.43572,0.0,0.0,0.0,19.88164,-10.08406,-6.53172,10.08,-0.35,1.32,3.0
1758077886.58105,1758077886.44572,0.0,0.0,0.0,20.62648,-6.41713,-8.0787,9.97,0.11,1.05,3.0
1758077886.59741,1758077886.45572,0.0,0.0,0.0,21.08485,-2.57831,-8.99544,9.97,0.11,1.05,3.0
1758077886.59907,1758077886.46572,0.0,0.0,0.0,21.7151,3.26586,-9.22462,9.84,0.46,0.81,3.0
1758077886.6149,1758077886.47572,0.0,0.0,0.0,22.05888,7.16197,-8.02141,9.81,0.52,0.71,3.0
1758077886.6163,1758077886.48572,0.0,0.0,0.0,22.40265,10.8289,-6.07335,9.81,0.52,0.71,3.0
1758077886.63108,1758077886.49572,0.0,0.0,0.0,22.86102,14.20935,-1.77617,9.8,0.32,0.69,3.0
1758077886.64808,1758077886.50572,0.0,0.0,0.0,22.68913,18.44924,-0.68755,9.8,0.32,0.69,3.0
1758077886.66361,1758077886.51572,0.0,0.0,0.0,22.86102,14.15206,-0.40107,9.54,0.17,0.97,3.0
1758077886.66605,1758077886.52572,0.0,0.0,0.0,23.49127,7.33386,-0.85944,9.54,0.17,0.97,3.0
1758077886.66838,1758077886.53572,0.0,0.0,0.0,22.57454,1.83346,-3.20856,9.04,0.31,0.78,3.0
1758077886.68309,1758077886.54572,0.0,0.0,0.0,21.42862,2.57831,-5.32851,9.69,0.73,0.73,3.0
1758077886.68588,1758077886.55572,0.0,0.0,0.0,20.34,3.83882,-6.99009,9.69,0.73,0.73,3.0
1758077886.70141,1758077886.56572,0.0,0.0,0.0,18.33465,6.18794,-8.47978,9.81,1.06,0.75,3.0
1758077886.7174,1758077886.57572,0.0,0.0,0.0,15.0115,7.44845,-9.4538,9.81,1.06,0.75,3.0
1758077886.7191,1758077886.58572,0.0,0.0,0.0,12.2613,7.67763,-9.85487,9.55,1.3,0.93,3.0
1758077886.73415,1758077886.59572,0.0,0.0,0.0,9.5684,7.39116,-9.5684,9.55,1.3,0.93,3.0
1758077886.73688,1758077886.60572,0.0,0.0,0.0,6.87549,5.21392,-8.88085,9.29,1.4,0.73,3.0
1758077886.7524,1758077886.61572,0.0,0.0,0.0,3.38045,-1.3751,-6.47442,8.85,1.33,0.47,3.0
1758077886.75684,1758077886.62572,0.0,0.0,0.0,1.60428,-5.72958,-3.95341,8.85,1.33,0.47,3.0
1758077886.7754,1758077886.63572,0.0,0.0,0.0,0.0573,-8.136,-1.48969,9.01,0.92,0.16,3.0
1758077886.77614,1758077886.64572,0.0,0.0,0.0,-1.71887,-7.96411,1.14592,9.01,0.92,0.16,3.0
1758077886.79113,1758077886.65572,0.0,0.0,0.0,-4.58366,-4.69825,4.46907,9.82,0.71,0.21,3.0
1758077886.80714,1758077886.66572,0.0,0.0,0.0,-4.87014,5.15662,8.02141,9.82,0.71,0.21,3.0
1758077886.80875,1758077886.67572,0.0,0.0,0.0,-7.79223,20.51189,5.15662,11.29,0.85,0.67,3.0
1758077886.82317,1758077886.68572,0.0,0.0,0.0,-11.74564,30.02299,0.40107,11.29,0.85,0.67,3.0
1758077886.8263,1758077886.69572,0.0,0.0,0.0,-15.12609,23.72045,-3.26586,11.4,1.4,1.25,3.0
1758077886.84246,1758077886.70572,0.0,0.0,0.0,-17.58981,15.41257,-6.53172,9.74,1.9,0.71,3.0
1758077886.85896,1758077886.71572,0.0,0.0,0.0,-19.13679,15.29797,-7.73493,9.74,1.9,0.71,3.0
1758077886.8602,1758077886.72572,0.0,0.0,0.0,-22.23076,22.63183,-5.50039,11.21,1.52,0.0,3.0
1758077886.87524,1758077886.73572,0.0,0.0,0.0,-22.34536,22.57454,0.80214,11.21,1.52,0.0,3.0
1758077886.87678,1758077886.74572,0.0,0.0,0.0,-21.6578,-8.0787,5.55769,10.11,0.94,0.99,3.0
1758077886.89123,1758077886.75572,0.0,0.0,0.0,-26.35606,-30.82513,-4.46907,10.11,0.94,0.99,3.0
1758077886.89889,1758077886.76572,0.0,0.0,0.0,-19.19409,18.73572,-11.34457,11.38,1.11,3.44,3.0
1758077886.91622,1758077886.77572,0.0,0.0,0.0,-12.89155,28.93437,-12.2613,15.59,-0.14,3.12,3.0
1758077886.9191,1758077886.78572,0.0,0.0,0.0,-8.47978,19.88164,-12.83425,15.59,-0.14,3.12,3.0
1758077886.93584,1758077886.79572,0.0,0.0,0.0,-4.29718,23.60586,-12.49048,12.12,-0.89,2.48,3.0
1758077886.94096,1758077886.80572,0.0,0.0,0.0,-0.80214,38.21629,-9.39651,12.12,-0.89,2.48,3.0
1758077886.96129,1758077886.81572,0.0,0.0,0.0,-0.51566,35.00772,-4.69825,13.07,-0.3,1.98,3.0
1758077886.97738,1758077886.82572,0.0,0.0,0.0,-1.71887,29.27814,0.0,13.07,-0.3,1.98,3.0
1758077886.97958,1758077886.83572,0.0,0.0,0.0,-3.49504,26.41335,4.23989,12.73,1.24,2.3,3.0
1758077886.98184,1758077886.84572,0.0,0.0,0.0,-7.44845,21.02755,8.0787,14.55,2.2,2.68,3.0
1758077886.99764,1758077886.85572,0.0,0.0,0.0,-10.19865,17.93358,8.59437,14.55,2.2,2.68,3.0
1758077886.99961,1758077886.86572,0.0,0.0,0.0,-12.83425,16.84496,7.16197,14.87,2.27,3.24,3.0
1758077887.01507,1758077886.87572,0.0,0.0,0.0,-15.58445,15.64175,4.81285,14.87,2.27,3.24,3.0
1758077887.01672,1758077886.88572,0.0,0.0,0.0,-19.82434,8.70896,0.85944,13.18,1.95,3.15,3.0
1758077887.03149,1758077886.89572,0.0,0.0,0.0,-22.86102,2.34913,-1.43239,13.18,1.95,3.15,3.0
1758077887.04732,1758077886.90572,0.0,0.0,0.0,-25.8404,-3.60963,-3.09397,11.27,1.62,2.63,3.0
1758077887.05008,1758077886.91572,0.0,0.0,0.0,-30.59595,-8.99544,-4.98473,11.27,1.62,2.63,3.0
1758077887.06558,1758077886.92572,0.0,0.0,0.0,-33.40344,-15.58445,-5.4431,10.14,1.37,2.3,3.0
1758077887.06656,1758077886.93572,0.0,0.0,0.0,-35.86716,-18.9649,-5.72958,9.27,1.16,1.99,3.0
1758077887.08159,1758077886.94572,0.0,0.0,0.0,-37.75792,-21.60051,-5.72958,9.27,1.16,1.99,3.0
1758077887.0976,1758077886.95572,0.0,0.0,0.0,-38.61736,-23.94964,-5.78687,8.58,0.83,1.85,3.0
1758077887.09935,1758077886.96572,0.0,0.0,0.0,-38.21629,-24.29341,-6.13065,8.58,0.83,1.85,3.0
1758077887.11513,1758077886.97572,0.0,0.0,0.0,-36.95578,-24.75178,-6.47442,7.94,0.32,1.82,3.0
1758077887.11675,1758077886.98572,0.0,0.0,0.0,-35.00772,-26.01229,-6.41713,7.94,0.32,1.82,3.0
1758077887.13134,1758077886.99572,0.0,0.0,0.0,-30.76784,-30.13758,-5.15662,7.32,-0.31,1.86,3.0
1758077887.14783,1758077887.00572,0.0,0.0,0.0,-27.38738,-33.17426,-3.49504,7.03,-0.87,1.73,3.0
1758077887.14887,1758077887.01572,0.0,0.0,0.0,-23.72045,-35.40879,-1.14592,7.03,-0.87,1.73,3.0
1758077887.16336,1758077887.02572,0.0,0.0,0.0,-20.62648,-35.69527,1.08862,7.27,-1.16,1.64,3.0
1758077887.16618,1758077887.03572,0.0,0.0,0.0,-16.73037,-34.26288,4.35448,7.27,-1.16,1.64,3.0
1758077887.18165,1758077887.04572,0.0,0.0,0.0,-15.46986,-33.34615,5.95876,7.53,-0.87,1.75,3.0
1758077887.19841,1758077887.05572,0.0,0.0,0.0,-15.0115,-31.91375,7.04738,7.53,-0.87,1.75,3.0
1758077887.19997,1758077887.06572,0.0,0.0,0.0,-14.9542,-30.19488,7.73493,7.84,-0.13,1.82,3.0
1758077887.21544,1758077887.07572,0.0,0.0,0.0,-15.98552,-26.81443,7.67763,8.34,0.49,1.67,3.0
1758077887.21638,1758077887.08572,0.0,0.0,0.0,-17.47521,-23.54857,7.16197,8.34,0.49,1.67,3.0
1758077887.23166,1758077887.09572,0.0,0.0,0.0,-19.07949,-18.9649,6.13065,8.77,0.83,1.52,3.0
1758077887.2487,1758077887.10572,0.0,0.0,0.0,-20.51189,-13.5791,4.29718,8.77,0.83,1.52,3.0
1758077887.24962,1758077887.11572,0.0,0.0,0.0,-23.0329,-6.58902,2.6929,8.79,0.88,1.36,3.0
1758077887.2657,1758077887.12572,0.0,0.0,0.0,-24.29341,-2.29183,1.08862,8.79,0.88,1.36,3.0
1758077887.26643,1758077887.13572,0.0,0.0,0.0,-25.15285,2.06265,-0.40107,8.55,0.65,1.26,3.0
1758077887.2817,1758077887.14572,0.0,0.0,0.0,-25.43933,8.02141,-2.86479,8.55,0.65,1.26,3.0
1758077887.29869,1758077887.15572,0.0,0.0,0.0,-25.09555,12.2613,-4.1253,8.54,0.11,1.21,3.0
1758077887.29991,1758077887.16572,0.0,0.0,0.0,-24.35071,15.87093,-5.55769,8.67,-0.41,1.21,3.0
1758077887.31477,1758077887.17572,0.0,0.0,0.0,-23.49127,18.79302,-6.35983,8.67,-0.41,1.21,3.0
1758077887.31568,1758077887.18572,0.0,0.0,0.0,-22.00158,22.05888,-7.21927,8.62,-0.69,1.3,3.0
1758077887.33106,1758077887.19572,0.0,0.0,0.0,-20.79837,23.49127,-7.33386,8.62,-0.69,1.3,3.0
1758077887.34654,1758077887.20572,0.0,0.0,0.0,-19.48057,23.89234,-6.70361,8.68,-0.67,1.42,3.0
1758077887.34801,1758077887.21572,0.0,0.0,0.0,-18.50654,24.57989,-5.84417,8.68,-0.67,1.42,3.0
1758077887.36252,1758077887.22572,0.0,0.0,0.0,-17.18874,24.35071,-3.89611,8.91,-0.49,1.55,3.0
1758077887.37854,1758077887.23572,0.0,0.0,0.0,-16.95955,22.74642,-2.86479,8.96,-0.26,1.81,3.0
1758077887.37969,1758077887.24572,0.0,0.0,0.0,-16.50119,21.7151,-1.48969,8.96,-0.26,1.81,3.0
1758077887.39452,1758077887.25572,0.0,0.0,0.0,-15.35527,20.3973,0.40107,9.28,-0.17,2.08,3.0
1758077887.39614,1758077887.26572,0.0,0.0,0.0,-13.34992,16.55848,3.32316,9.28,-0.17,2.08,3.0
1758077887.41093,1758077887.27572,0.0,0.0,0.0,-12.2613,16.38659,4.58366,9.36,-0.36,1.78,3.0
1758077887.42686,1758077887.28572,0.0,0.0,0.0,-11.34457,18.62113,5.32851,9.36,-0.36,1.78,3.0
1758077887.42799,1758077887.29572,0.0,0.0,0.0,-10.48513,20.74107,5.50039,9.79,-0.62,1.73,3.0
1758077887.44293,1758077887.30572,0.0,0.0,0.0,-9.05273,21.60051,4.81285,9.54,-0.68,1.67,3.0
1758077887.44607,1758077887.31572,0.0,0.0,0.0,-8.25059,21.25674,3.66693,9.54,-0.68,1.67,3.0
1758077887.46157,1758077887.32572,0.0,0.0,0.0,-7.50575,20.22541,1.77617,9.46,-0.57,1.5,3.0
1758077887.47759,1758077887.33572,0.0,0.0,0.0,-6.53172,20.16812,-1.3751,9.46,-0.57,1.5,3.0
1758077887.47956,1758077887.34572,0.0,0.0,0.0,-5.90147,20.34,-2.97938,9.75,-0.35,1.38,3.0
1758077887.4946,1758077887.35572,0.0,0.0,0.0,-5.15662,19.88164,-3.89611,9.75,-0.35,1.38,3.0
1758077887.49576,1758077887.36572,0.0,0.0,0.0,-4.64096,19.07949,-3.55234,9.9,-0.08,1.41,3.0
1758077887.51089,1758077887.37572,0.0,0.0,0.0,-4.1253,19.19409,-1.3751,9.9,-0.08,1.41,3.0
1758077887.52678,1758077887.38572,0.0,0.0,0.0,-3.89611,19.42327,0.85944,10.18,0.03,1.41,3.0
1758077887.52887,1758077887.39572,0.0,0.0,0.0,-4.0107,18.73572,3.32316,10.11,0.01,1.29,3.0
1758077887.54384,1758077887.40572,0.0,0.0,0.0,-4.29718,18.27736,5.32851,10.11,0.01,1.29,3.0
1758077887.54632,1758077887.41572,0.0,0.0,0.0,-5.27121,18.22006,7.04738,9.91,0.0,1.16,3.0
1758077887.56189,1758077887.42572,0.0,0.0,0.0,-5.90147,16.67307,7.04738,9.91,0.0,1.16,3.0
1758077887.57883,1758077887.43572,0.0,0.0,0.0,-6.87549,14.83961,6.35983,9.43,0.05,1.1,3.0
1758077887.57984,1758077887.44572,0.0,0.0,0.0,-7.67763,12.71966,4.98473,9.43,0.05,1.1,3.0
1758077887.59486,1758077887.45572,0.0,0.0,0.0,-8.99544,9.05273,2.11994,9.06,0.22,1.07,3.0
1758077887.59578,1758077887.46572,0.0,0.0,0.0,-9.4538,7.33386,1.66158,8.97,0.38,1.35,3.0
1758077887.61074,1758077887.47572,0.0,0.0,0.0,-9.33921,7.44845,2.11994,8.97,0.38,1.35,3.0
1758077887.627,1758077887.48572,0.0,0.0,0.0,-8.70896,9.68299,3.26586,9.32,0.2,1.53,3.0
1758077887.63024,1758077887.49572,0.0,0.0,0.0,-7.62034,10.71431,5.32851,9.32,0.2,1.53,3.0
1758077887.64569,1758077887.50572,0.0,0.0,0.0,-6.70361,7.62034,6.41713,9.08,-0.12,1.65,3.0
1758077887.64682,1758077887.51572,0.0,0.0,0.0,-5.15662,4.46907,7.16197,9.08,-0.12,1.65,3.0
1758077887.66168,1758077887.52572,0.0,0.0,0.0,-2.86479,0.40107,7.84952,8.96,-0.36,1.63,3.0
1758077887.67899,1758077887.53572,0.0,0.0,0.0,-0.51566,-5.78687,8.36518,9.12,-0.58,1.43,3.0
1758077887.68017,1758077887.54572,0.0,0.0,0.0,1.83346,-9.28192,8.76626,9.12,-0.58,1.43,3.0
1758077887.69466,1758077887.55572,0.0,0.0,0.0,4.64096,-12.08941,9.4538,9.39,-0.85,1.43,3.0
1758077887.69584,1758077887.56572,0.0,0.0,0.0,9.5684,-15.58445,10.48513,9.39,-0.85,1.43,3.0
1758077887.71102,1758077887.57572,0.0,0.0,0.0,12.89155,-20.11082,10.8862,9.78,-1.01,1.22,3.0
1758077887.7267,1758077887.58572,0.0,0.0,0.0,16.55848,-24.23611,10.59972,9.78,-1.01,1.22,3.0
1758077887.72865,1758077887.59572,0.0,0.0,0.0,19.82434,-27.2155,10.31324,9.89,-0.85,0.89,3.0
1758077887.74554,1758077887.60572,0.0,0.0,0.0,26.24147,-15.92823,8.99544,10.83,-0.85,0.64,3.0
1758077887.74655,1758077887.61572,0.0,0.0,0.0,31.51268,2.97938,9.5684,10.83,-0.8,0.64,3.0
1758077887.76202,1758077887.62572,0.0,0.0,0.0,35.75257,23.26209,9.28192,11.94,-1.04,1.76,3.0
1758077887.76638,1758077887.63572,0.0,0.0,0.0,38.78925,34.26288,7.33386,11.94,-1.04,1.76,3.0
1758077887.78203,1758077887.64572,0.0,0.0,0.0,40.45082,-85.02695,8.76626,4.96,-0.92,4.06,3.0
1758077887.7988,1758077887.65572,0.0,0.0,0.0,42.74266,-109.60683,29.8511,4.96,-0.92,4.06,3.0
1758077887.79987,1758077887.66572,0.0,0.0,0.0,38.27358,-63.54102,42.1124,14.02,-1.63,2.47,3.0
1758077887.81496,1758077887.67572,0.0,0.0,0.0,34.32018,-34.37747,48.30034,14.02,-1.63,2.47,3.0
1758077887.81623,1758077887.68572,0.0,0.0,0.0,31.62727,-42.97184,48.07116,15.45,-1.04,0.09,3.0
1758077887.83078,1758077887.69572,0.0,0.0,0.0,28.30412,-34.26288,43.20102,12.11,0.54,3.74,3.0
1758077887.84679,1758077887.70572,0.0,0.0,0.0,25.09555,-21.60051,35.2369,12.11,0.54,3.74,3.0
1758077887.8491,1758077887.71572,0.0,0.0,0.0,19.25138,-10.08406,20.05352,13.15,1.68,2.41,3.0
1758077887.86567,1758077887.72572,0.0,0.0,0.0,13.5791,-2.97938,0.34377,13.15,1.68,2.41,3.0
1758077887.86657,1758077887.73572,0.0,0.0,0.0,10.19865,7.73493,-8.136,12.73,1.5,2.1,3.0
1758077887.88206,1758077887.74572,0.0,0.0,0.0,6.35983,15.69904,-11.86023,12.73,1.5,2.1,3.0
1758077887.89809,1758077887.75572,0.0,0.0,0.0,1.83346,20.97026,-8.136,14.3,0.67,2.76,3.0
1758077887.90013,1758077887.76572,0.0,0.0,0.0,-0.74485,24.92367,-2.6929,15.1,-0.35,2.9,3.0
1758077887.91478,1758077887.77572,0.0,0.0,0.0,-2.63561,28.01764,2.6929,15.1,-0.35,2.9,3.0
1758077887.91677,1758077887.78572,0.0,0.0,0.0,-3.20856,28.59059,7.16197,14.33,-1.26,2.76,3.0
1758077887.93209,1758077887.79572,0.0,0.0,0.0,-1.48969,26.35606,11.00079,14.33,-1.26,2.76,3.0
1758077887.94781,1758077887.80572,0.0,0.0,0.0,0.45837,24.86637,11.51645,12.66,-1.64,2.71,3.0
1758077887.95178,1758077887.81572,0.0,0.0,0.0,2.63561,23.26209,10.71431,12.66,-1.64,2.71,3.0
1758077887.96792,1758077887.82572,0.0,0.0,0.0,5.78687,20.62648,9.33921,11.3,-1.5,2.51,3.0
1758077887.97066,1758077887.83572,0.0,0.0,0.0,11.00079,14.38124,6.53172,9.63,-1.08,2.62,3.0
1758077887.98592,1758077887.84572,0.0,0.0,0.0,15.0115,8.88085,5.27121,9.63,-1.08,2.62,3.0
1758077887.98736,1758077887.85572,0.0,0.0,0.0,18.9649,3.03668,4.81285,8.33,-0.84,2.48,3.0
1758077888.00265,1758077887.86572,0.0,0.0,0.0,23.0329,-2.86479,4.52637,8.33,-0.84,2.48,3.0
1758077888.00657,1758077887.87572,0.0,0.0,0.0,28.13223,-12.204,4.64096,7.53,-0.81,2.4,3.0
1758077888.02214,1758077887.88572,0.0,0.0,0.0,30.76784,-17.93358,4.81285,7.53,-0.81,2.4,3.0
1758077888.03795,1758077887.89572,0.0,0.0,0.0,32.83048,-22.40265,5.32851,7.05,-0.65,2.3,3.0
1758077888.04144,1758077887.90572,0.0,0.0,0.0,34.26288,-27.04361,5.90147,7.05,-0.65,2.3,3.0
1758077888.05717,1758077887.91572,0.0,0.0,0.0,34.77854,-34.60666,6.24524,6.9,-0.25,2.31,3.0
1758077888.05889,1758077887.92572,0.0,0.0,0.0,33.80451,-38.50277,6.18794,6.83,0.36,2.23,3.0
1758077888.07414,1758077887.93572,0.0,0.0,0.0,31.79916,-40.68,5.15662,6.83,0.36,2.23,3.0
1758077888.07511,1758077887.94572,0.0,0.0,0.0,27.61657,-41.25296,2.7502,7.1,1.14,1.86,3.0
1758077888.0909,1758077887.95572,0.0,0.0,0.0,24.23611,-41.48215,0.80214,7.1,1.14,1.86,3.0
1758077888.10701,1758077887.96572,0.0,0.0,0.0,20.79837,-41.13837,-1.3751,7.25,1.8,1.73,3.0
1758077888.10845,1758077887.97572,0.0,0.0,0.0,17.30333,-39.01843,-3.55234,7.25,1.8,1.73,3.0
1758077888.12296,1758077887.98572,0.0,0.0,0.0,12.43318,-34.66395,-6.70361,7.8,1.99,1.75,3.0
1758077888.13925,1758077887.99572,0.0,0.0,0.0,9.5684,-30.48136,-8.42248,8.42,1.61,1.78,3.0
1758077888.14014,1758077888.00572,0.0,0.0,0.0,6.99009,-25.15285,-9.68299,8.42,1.61,1.78,3.0
1758077888.15499,1758077888.01572,0.0,0.0,0.0,4.81285,-19.48057,-11.11538,8.98,0.91,1.8,3.0
1758077888.15625,1758077888.02572,0.0,0.0,0.0,2.29183,-10.48513,-12.60507,8.98,0.91,1.8,3.0
1758077888.17092,1758077888.03572,0.0,0.0,0.0,1.20321,-4.69825,-13.5218,9.06,0.36,1.69,3.0
1758077888.18694,1758077888.04572,0.0,0.0,0.0,0.34377,0.80214,-14.09476,9.06,0.36,1.69,3.0
1758077888.18893,1758077888.05572,0.0,0.0,0.0,0.22918,5.21392,-14.43854,8.93,0.16,1.77,3.0
1758077888.20393,1758077888.06572,0.0,0.0,0.0,0.57296,10.65701,-15.12609,8.75,0.18,1.77,3.0
1758077888.20589,1758077888.07572,0.0,0.0,0.0,0.97403,13.5791,-15.29797,8.75,0.18,1.77,3.0
1758077888.22224,1758077888.08572,0.0,0.0,0.0,1.3751,15.58445,-15.06879,8.76,0.24,1.8,3.0
1758077888.23822,1758077888.09572,0.0,0.0,0.0,2.00535,16.3293,-15.0115,8.76,0.24,1.8,3.0
1758077888.24,1758077888.10572,0.0,0.0,0.0,2.63561,14.38124,-13.80828,8.51,0.28,1.94,3.0
1758077888.25541,1758077888.11572,0.0,0.0,0.0,2.34913,13.34992,-13.46451,8.51,0.28,1.94,3.0
1758077888.25617,1758077888.12572,0.0,0.0,0.0,1.48969,11.00079,-13.69369,8.65,0.34,2.05,3.0
1758077888.27103,1758077888.13572,0.0,0.0,0.0,0.22918,6.35983,-15.58445,8.65,0.34,2.05,3.0
1758077888.28702,1758077888.14572,0.0,0.0,0.0,-1.66158,-1.66158,-16.84496,8.6,0.53,1.69,3.0
1758077888.29068,1758077888.15572,0.0,0.0,0.0,-2.63561,-5.72958,-17.76169,8.94,0.74,1.46,3.0
1758077888.30629,1758077888.16572,0.0,0.0,0.0,-3.09397,-8.36518,-17.99088,8.94,0.74,1.46,3.0
1758077888.30751,1758077888.17572,0.0,0.0,0.0,-3.20856,-12.204,-17.13144,9.04,0.66,1.4,3.0
1758077888.32231,1758077888.18572,0.0,0.0,0.0,-2.46372,-13.75099,-15.58445,9.04,0.66,1.4,3.0
1758077888.3383,1758077888.19572,0.0,0.0,0.0,-1.66158,-14.38124,-13.5218,9.29,0.38,1.44,3.0
1758077888.33924,1758077888.20572,0.0,0.0,0.0,-0.34377,-14.09476,-11.22997,9.29,0.38,1.44,3.0
1758077888.35484,1758077888.21572,0.0,0.0,0.0,2.00535,-12.37589,-8.0787,9.81,0.0,1.34,3.0
1758077888.35605,1758077888.22572,0.0,0.0,0.0,3.83882,-10.25595,-6.8182,10.26,-0.27,1.34,3.0
1758077888.37106,1758077888.23572,0.0,0.0,0.0,5.4431,-7.67763,-6.53172,10.26,-0.27,1.34,3.0
1758077888.38703,1758077888.24572,0.0,0.0,0.0,7.10468,-5.72958,-7.04738,10.35,-0.32,1.11,3.0
1758077888.38844,1758077888.25572,0.0,0.0,0.0,9.39651,-3.49504,-8.93814,10.35,-0.32,1.11,3.0
1758077888.40307,1758077888.26572,0.0,0.0,0.0,10.71431,-1.94806,-9.85487,10.2,-0.11,0.92,3.0
1758077888.41909,1758077888.27572,0.0,0.0,0.0,12.08941,0.57296,-11.11538,10.2,-0.11,0.92,3.0
1758077888.42058,1758077888.28572,0.0,0.0,0.0,13.40721,2.6929,-11.28727,10.12,0.09,0.78,3.0
1758077888.43508,1758077888.29572,0.0,0.0,0.0,15.12609,6.8182,-10.31324,9.95,0.11,0.68,3.0
1758077888.43628,1758077888.30572,0.0,0.0,0.0,16.04282,9.85487,-8.47978,9.95,0.11,0.68,3.0
1758077888.45111,1758077888.31572,0.0,0.0,0.0,16.90226,13.06344,-6.24524,9.79,0.04,0.65,3.0
1758077888.46712,1758077888.32572,0.0,0.0,0.0,17.53251,15.46986,-3.66693,9.79,0.04,0.65,3.0
1758077888.46833,1758077888.33572,0.0,0.0,0.0,17.30333,17.58981,-2.06265,9.66,0.06,0.93,3.0
1758077888.48358,1758077888.34572,0.0,0.0,0.0,17.18874,12.77696,-2.7502,9.66,0.06,0.93,3.0
1758077888.48582,1758077888.35572,0.0,0.0,0.0,17.13144,1.66158,-4.0107,9.02,0.28,1.14,3.0
1758077888.50238,1758077888.36572,0.0,0.0,0.0,14.49583,-2.92208,-8.36518,9.02,0.28,1.14,3.0
1758077888.51842,1758077888.37572,0.0,0.0,0.0,13.34992,-3.89611,-10.54242,9.07,0.64,0.84,3.0
1758077888.51932,1758077888.38572,0.0,0.0,0.0,11.45916,-4.23989,-12.54778,9.53,1.03,0.88,3.0
1758077888.53442,1758077888.39572,0.0,0.0,0.0,9.22462,-5.78687,-13.98017,9.53,1.03,0.88,3.0
1758077888.53562,1758077888.40572,0.0,0.0,0.0,5.50039,-9.22462,-15.0115,9.32,1.31,0.95,3.0
1758077888.55116,1758077888.41572,0.0,0.0,0.0,2.86479,-11.11538,-14.83961,9.32,1.31,0.95,3.0
1758077888.56715,1758077888.42572,0.0,0.0,0.0,0.0,-11.45916,-14.61043,9.3,1.43,0.88,3.0
1758077888.56834,1758077888.43572,0.0,0.0,0.0,-2.46372,-10.94349,-13.5791,9.3,1.43,0.88,3.0
1758077888.5832,1758077888.44572,0.0,0.0,0.0,-5.61499,-12.37589,-11.34457,9.43,1.38,0.53,3.0
1758077888.59952,1758077888.45572,0.0,0.0,0.0,-8.136,-11.51645,-9.28192,9.07,1.24,0.55,3.0
1758077888.60038,1758077888.46572,0.0,0.0,0.0,-9.68299,-8.25059,-6.24524,9.07,1.24,0.55,3.0
1758077888.61514,1758077888.47572,0.0,0.0,0.0,-11.22997,-8.42248,-3.09397,9.03,0.82,0.67,3.0
1758077888.61636,1758077888.48572,0.0,0.0,0.0,-11.63104,-22.23076,1.03132,9.03,0.82,0.67,3.0
1758077888.63115,1758077888.49572,0.0,0.0,0.0,-13.17803,-37.35685,1.20321,8.04,0.66,0.89,3.0
1758077888.64745,1758077888.50572,0.0,0.0,0.0,-12.83425,-31.16891,3.95341,8.04,0.66,0.89,3.0
1758077888.64837,1758077888.51572,0.0,0.0,0.0,-15.46986,0.57296,0.34377,11.61,0.96,0.23,3.0
1758077888.66317,1758077888.52572,0.0,0.0,0.0,-21.25674,28.59059,-5.61499,13.13,1.22,0.67,3.0
1758077888.67939,1758077888.53572,0.0,0.0,0.0,-23.54857,23.60586,-10.08406,13.13,1.22,0.67,3.0
1758077888.68064,1758077888.54572,0.0,0.0,0.0,-23.60586,19.53786,-11.57375,9.55,1.81,1.65,3.0
1758077888.69519,1758077888.55572,0.0,0.0,0.0,-24.23611,18.33465,-11.17268,9.55,1.81,1.65,3.0
1758077888.69639,1758077888.56572,0.0,0.0,0.0,-23.94964,24.00693,-7.16197,10.14,1.46,-0.2,3.0
1758077888.71115,1758077888.57572,0.0,0.0,0.0,-23.72045,26.81443,-1.48969,10.14,1.46,-0.2,3.0
1758077888.71563,1758077888.58572,0.0,0.0,0.0,-23.37668,29.33544,4.69825,10.0,0.63,0.0,3.0
1758077888.73122,1758077888.59572,0.0,0.0,0.0,-19.82434,13.40721,15.58445,10.0,0.63,0.0,3.0
1758077888.73592,1758077888.60572,0.0,0.0,0.0,-18.44924,-27.84575,12.71966,9.12,0.25,1.48,3.0
1758077888.75154,1758077888.61572,0.0,0.0,0.0,-18.9649,-29.22085,-0.0573,11.2,0.8,3.52,3.0
1758077888.75662,1758077888.62572,0.0,0.0,0.0,-14.09476,2.63561,-7.10468,11.2,0.8,3.52,3.0
1758077888.77333,1758077888.63572,0.0,0.0,0.0,-6.7609,19.13679,-10.8862,15.97,0.51,1.49,3.0
1758077888.77579,1758077888.64572,0.0,0.0,0.0,-3.89611,17.93358,-11.45916,15.97,0.51,1.49,3.0
1758077888.79151,1758077888.65572,0.0,0.0,0.0,-2.92208,23.60586,-10.59972,11.65,0.22,1.12,3.0
1758077888.80753,1758077888.66572,0.0,0.0,0.0,-3.49504,28.36141,-8.99544,11.65,0.22,1.12,3.0
1758077888.80877,1758077888.67572,0.0,0.0,0.0,-4.98473,33.86181,-4.18259,12.59,0.48,1.01,3.0
1758077888.82352,1758077888.68572,0.0,0.0,0.0,-6.8182,38.50277,-0.74485,13.55,1.27,1.06,3.0
1758077888.82606,1758077888.69572,0.0,0.0,0.0,-8.136,40.62271,2.46372,13.55,1.27,1.06,3.0
1758077888.84305,1758077888.70572,0.0,0.0,0.0,-9.22462,40.10705,4.87014,14.02,1.87,1.65,3.0
1758077888.84582,1758077888.71572,0.0,0.0,0.0,-9.68299,39.99245,6.13065,14.02,1.87,1.65,3.0
1758077888.86128,1758077888.72572,0.0,0.0,0.0,-9.62569,38.61736,5.32851,14.37,1.93,2.39,3.0
1758077888.87894,1758077888.73572,0.0,0.0,0.0,-9.5684,37.18496,3.20856,14.37,1.93,2.39,3.0
1758077888.88069,1758077888.74572,0.0,0.0,0.0,-9.39651,36.7266,0.57296,14.32,1.54,2.98,3.0
1758077888.8953,1758077888.75572,0.0,0.0,0.0,-10.19865,34.09099,-2.7502,13.58,1.12,2.81,3.0
1758077888.89651,1758077888.76572,0.0,0.0,0.0,-11.51645,30.19488,-4.29718,13.58,1.12,2.81,3.0
1758077888.91157,1758077888.77572,0.0,0.0,0.0,-13.75099,25.09555,-5.32851,11.99,1.04,2.66,3.0
1758077888.92937,1758077888.78572,0.0,0.0,0.0,-18.50654,16.50119,-5.55769,11.99,1.04,2.66,3.0
1758077888.9303,1758077888.79572,0.0,0.0,0.0,-22.68913,11.22997,-4.92744,10.67,1.28,2.68,3.0
1758077888.9456,1758077888.80572,0.0,0.0,0.0,-27.33009,5.95876,-4.29718,10.67,1.28,2.68,3.0
1758077888.94654,1758077888.81572,0.0,0.0,0.0,-31.85646,0.74485,-3.49504,9.51,1.44,2.7,3.0
1758077888.96524,1758077888.82572,0.0,0.0,0.0,-38.15899,-5.72958,-2.46372,9.51,1.44,2.7,3.0
1758077888.96633,1758077888.83572,0.0,0.0,0.0,-41.36755,-10.59972,-1.83346,8.61,1.38,2.69,3.0
1758077888.98136,1758077888.84572,0.0,0.0,0.0,-44.17505,-16.67307,-1.48969,7.65,1.06,2.6,3.0
1758077888.99768,1758077888.85572,0.0,0.0,0.0,-45.83662,-22.91831,-1.08862,7.65,1.06,2.6,3.0
1758077888.99932,1758077888.86572,0.0,0.0,0.0,-47.09713,-33.34615,-0.22918,6.89,0.51,2.41,3.0
1758077889.01461,1758077888.87572,0.0,0.0,0.0,-47.15443,-41.02378,0.34377,6.89,0.51,2.41,3.0
1758077889.01559,1758077888.88572,0.0,0.0,0.0,-46.52417,-48.01387,1.14592,6.36,-0.08,2.13,3.0
1758077889.03158,1758077888.89572,0.0,0.0,0.0,-45.77933,-52.08187,2.00535,6.36,-0.08,2.13,3.0
1758077889.04868,1758077888.90572,0.0,0.0,0.0,-44.51882,-55.29043,2.86479,6.8,-0.55,2.0,3.0
1758077889.05068,1758077888.91572,0.0,0.0,0.0,-43.83128,-56.83742,2.97938,7.2,-0.74,2.19,3.0
1758077889.06565,1758077888.92572,0.0,0.0,0.0,-43.02913,-57.92604,2.86479,7.2,-0.74,2.19,3.0
1758077889.06659,1758077888.93572,0.0,0.0,0.0,-42.39888,-58.3844,2.46372,7.44,-0.53,2.13,3.0
1758077889.08168,1758077888.94572,0.0,0.0,0.0,-41.71133,-56.60823,2.11994,7.44,-0.53,2.13,3.0
1758077889.08597,1758077888.95572,0.0,0.0,0.0,-44.46153,-54.02992,2.06265,7.75,-0.24,1.87,3.0
1758077889.10167,1758077888.96572,0.0,0.0,0.0,-40.85189,-49.50356,2.11994,7.75,-0.24,1.87,3.0
1758077889.10561,1758077888.97572,0.0,0.0,0.0,-40.27893,-44.00316,2.7502,7.98,-0.1,1.59,3.0
1758077889.12141,1758077888.98572,0.0,0.0,0.0,-37.87251,-34.89313,3.49504,8.07,-0.15,1.47,3.0
1758077889.12563,1758077888.99572,0.0,0.0,0.0,-35.63798,-28.70519,4.81285,8.07,-0.15,1.47,3.0
1758077889.1415,1758077889.00572,0.0,0.0,0.0,-32.88778,-21.60051,6.35983,8.25,-0.33,1.15,3.0
1758077889.15872,1758077889.01572,0.0,0.0,0.0,-28.41871,-10.48513,8.47978,8.25,-0.33,1.15,3.0
1758077889.15911,1758077889.02572,0.0,0.0,0.0,-25.09555,-4.0107,9.39651,8.51,-0.56,1.03,3.0
1758077889.17552,1758077889.03572,0.0,0.0,0.0,-21.60051,2.23454,9.91217,8.51,-0.56,1.03,3.0
1758077889.17677,1758077889.04572,0.0,0.0,0.0,-18.16276,8.76626,10.25595,8.54,-0.79,1.09,3.0
1758077889.19175,1758077889.05572,0.0,0.0,0.0,-12.83425,17.47521,9.62569,8.66,-0.79,1.12,3.0
1758077889.20777,1758077889.06572,0.0,0.0,0.0,-9.39651,22.51724,9.11003,8.66,-0.88,1.12,3.0
1758077889.21062,1758077889.07572,0.0,0.0,0.0,-6.35983,26.98631,8.0787,8.87,-0.81,1.16,3.0
1758077889.22578,1758077889.08572,0.0,0.0,0.0,-3.55234,31.91375,7.04738,8.87,-0.81,1.16,3.0
1758077889.22666,1758077889.09572,0.0,0.0,0.0,0.17189,36.7266,5.78687,9.26,-0.62,1.3,3.0
1758077889.24176,1758077889.10572,0.0,0.0,0.0,2.11994,36.61201,5.50039,9.26,-0.62,1.3,3.0
1758077889.25784,1758077889.11572,0.0,0.0,0.0,3.60963,35.00772,5.4431,9.17,-0.41,1.47,3.0
1758077889.25872,1758077889.12572,0.0,0.0,0.0,4.35448,32.25753,5.4431,9.17,-0.41,1.47,3.0
1758077889.27383,1758077889.13572,0.0,0.0,0.0,4.69825,29.8511,5.78687,9.34,-0.28,1.46,3.0
1758077889.27587,1758077889.14572,0.0,0.0,0.0,4.81285,29.04896,6.13065,9.64,-0.19,1.51,3.0
1758077889.29062,1758077889.15572,0.0,0.0,0.0,4.58366,28.76248,6.53172,9.64,-0.19,1.51,3.0
1758077889.30664,1758077889.16572,0.0,0.0,0.0,4.18259,29.10626,6.87549,9.66,-0.1,1.61,3.0
1758077889.30811,1758077889.17572,0.0,0.0,0.0,2.97938,30.88243,7.10468,9.66,-0.1,1.61,3.0
1758077889.32263,1758077889.18572,0.0,0.0,0.0,2.34913,31.2262,6.87549,9.67,0.0,1.69,3.0
1758077889.33887,1758077889.19572,0.0,0.0,0.0,1.3751,30.93972,6.47442,9.67,0.0,1.69,3.0
1758077889.33927,1758077889.20572,0.0,0.0,0.0,0.40107,30.88243,5.61499,9.59,0.1,1.67,3.0
1758077889.35489,1758077889.21572,0.0,0.0,0.0,-0.11459,30.53865,4.98473,9.6,0.14,1.57,3.0
1758077889.35573,1758077889.22572,0.0,0.0,0.0,-0.68755,30.13758,4.52637,9.6,0.14,1.57,3.0
1758077889.37062,1758077889.23572,0.0,0.0,0.0,-1.20321,28.76248,4.1253,9.51,0.16,1.64,3.0
1758077889.38665,1758077889.24572,0.0,0.0,0.0,-2.34913,23.72045,4.0107,9.51,0.16,1.64,3.0
1758077889.38803,1758077889.25572,0.0,0.0,0.0,-3.20856,19.53786,4.23989,9.23,0.18,1.66,3.0
1758077889.4026,1758077889.26572,0.0,0.0,0.0,-4.29718,15.75634,4.52637,9.23,0.18,1.66,3.0
1758077889.40573,1758077889.27572,0.0,0.0,0.0,-5.61499,11.97482,4.92744,9.32,0.15,1.56,3.0
1758077889.42188,1758077889.28572,0.0,0.0,0.0,-7.50575,6.24524,5.90147,9.31,0.1,1.66,3.0
1758077889.42357,1758077889.29572,0.0,0.0,0.0,-8.59437,2.63561,6.7609,9.31,0.1,1.66,3.0
1758077889.4406,1758077889.30572,0.0,0.0,0.0,-9.62569,-0.40107,7.04738,9.29,0.06,1.62,3.0
1758077889.4566,1758077889.31572,0.0,0.0,0.0,-10.25595,-2.86479,7.44845,9.29,0.06,1.62,3.0
1758077889.4606,1758077889.32572,0.0,0.0,0.0,-10.54242,-5.21392,7.96411,9.45,-0.05,1.71,3.0
1758077889.47585,1758077889.33572,0.0,0.0,0.0,-9.85487,-3.55234,9.11003,9.45,-0.05,1.71,3.0
1758077889.47676,1758077889.34572,0.0,0.0,0.0,-8.25059,-2.06265,10.65701,9.75,-0.32,1.8,3.0
1758077889.49191,1758077889.35572,0.0,0.0,0.0,-6.7609,-2.11994,11.80293,9.75,-0.32,1.8,3.0
1758077889.4936,1758077889.36572,0.0,0.0,0.0,-4.29718,-3.38045,12.204,9.38,-0.63,1.69,3.0
1758077889.50925,1758077889.37572,0.0,0.0,0.0,-2.29183,-3.83882,11.86023,9.39,-0.76,1.65,3.0
1758077889.52598,1758077889.38572,0.0,0.0,0.0,-0.0573,-4.23989,11.34457,9.39,-0.76,1.65,3.0
1758077889.52728,1758077889.39572,0.0,0.0,0.0,3.55234,-4.87014,10.94349,9.55,-0.76,1.47,3.0
1758077889.54193,1758077889.40572,0.0,0.0,0.0,6.13065,-5.78687,11.11538,9.55,-0.76,1.47,3.0
1758077889.54626,1758077889.41572,0.0,0.0,0.0,8.65166,-6.07335,11.80293,9.66,-0.78,1.24,3.0
1758077889.56169,1758077889.42572,0.0,0.0,0.0,10.71431,-6.35983,12.54778,9.66,-0.78,1.24,3.0
1758077889.5687,1758077889.43572,0.0,0.0,0.0,13.80828,-11.63104,13.06344,9.61,-0.8,1.02,3.0
1758077889.58574,1758077889.44572,0.0,0.0,0.0,15.29797,-18.22006,12.204,9.23,-0.63,0.76,3.0
1758077889.58734,1758077889.45572,0.0,0.0,0.0,16.38659,-19.13679,9.22462,9.23,-0.63,0.76,3.0
1758077889.60519,1758077889.46572,0.0,0.0,0.0,18.90761,-7.39116,8.42248,10.89,-0.59,0.27,3.0
1758077889.6061,1758077889.47572,0.0,0.0,0.0,23.94964,22.00158,7.84952,10.89,-0.59,0.27,3.0
1758077889.62172,1758077889.48572,0.0,0.0,0.0,26.81443,37.81522,5.61499,11.92,-0.85,1.26,3.0
1758077889.62608,1758077889.49572,0.0,0.0,0.0,28.93437,42.97184,1.77617,11.92,-0.85,1.26,3.0
1758077889.64594,1758077889.50572,0.0,0.0,0.0,26.18417,8.25059,-18.27736,8.97,-0.98,2.75,3.0
1758077889.64707,1758077889.51572,0.0,0.0,0.0,37.75792,-125.64965,18.79302,4.75,-1.65,3.6,3.0
1758077889.66267,1758077889.52572,0.0,0.0,0.0,34.14828,-91.78784,32.14294,4.75,-1.65,3.6,3.0
1758077889.66661,1758077889.53572,0.0,0.0,0.0,27.84575,-38.44547,36.55471,20.27,-2.27,1.94,3.0
1758077889.68266,1758077889.54572,0.0,0.0,0.0,24.63719,-33.80451,41.94051,20.27,-2.27,1.94,3.0
1758077889.68656,1758077889.55572,0.0,0.0,0.0,19.36597,-45.77933,38.61736,11.85,-1.08,1.58,3.0
1758077889.70642,1758077889.56572,0.0,0.0,0.0,14.32395,-28.07493,30.19488,11.85,-1.08,1.58,3.0
1758077889.7081,1758077889.57572,0.0,0.0,0.0,9.85487,-12.43318,17.99088,14.02,-0.11,4.67,3.0
1758077889.7263,1758077889.58572,0.0,0.0,0.0,6.18794,-9.39651,5.32851,14.02,-0.11,4.67,3.0
1758077889.72763,1758077889.59572,0.0,0.0,0.0,2.00535,0.34377,-9.91217,12.34,0.38,0.58,3.0
1758077889.74539,1758077889.60572,0.0,0.0,0.0,0.80214,8.02141,-12.83425,13.72,0.0,2.67,3.0
1758077889.74795,1758077889.61572,0.0,0.0,0.0,0.0,11.63104,-11.45916,13.72,0.0,2.67,3.0
1758077889.7662,1758077889.62572,0.0,0.0,0.0,-0.45837,15.92823,-4.18259,13.72,-0.68,2.25,3.0
1758077889.77067,1758077889.63572,0.0,0.0,0.0,-0.45837,18.44924,1.20321,13.72,-0.68,2.25,3.0
1758077889.78589,1758077889.64572,0.0,0.0,0.0,0.0,17.87628,5.78687,13.14,-1.45,2.75,3.0
1758077889.78727,1758077889.65572,0.0,0.0,0.0,0.85944,14.9542,8.76626,13.14,-1.45,2.75,3.0
1758077889.80577,1758077889.66572,0.0,0.0,0.0,3.26586,11.86023,10.25595,11.28,-1.77,2.36,3.0
1758077889.81061,1758077889.67572,0.0,0.0,0.0,4.92744,11.63104,9.28192,10.44,-1.64,1.87,3.0
1758077889.82614,1758077889.68572,0.0,0.0,0.0,6.41713,10.65701,7.21927,10.44,-1.64,1.87,3.0
1758077889.83023,1758077889.69572,0.0,0.0,0.0,7.67763,9.28192,4.35448,9.64,-1.2,1.91,3.0
1758077889.84585,1758077889.70572,0.0,0.0,0.0,8.93814,8.42248,-0.11459,9.64,-1.2,1.91,3.0
1758077889.84703,1758077889.71572,0.0,0.0,0.0,10.08406,7.16197,-2.29183,9.03,-0.71,1.98,3.0
1758077889.8621,1758077889.72572,0.0,0.0,0.0,11.51645,5.15662,-4.0107,9.03,-0.71,1.98,3.0
1758077889.87866,1758077889.73572,0.0,0.0,0.0,13.17803,1.94806,-4.69825,8.44,-0.49,2.1,3.0
1758077889.88176,1758077889.74572,0.0,0.0,0.0,16.04282,-4.18259,-4.23989,7.97,-0.5,2.14,3.0
1758077889.89706,1758077889.75572,0.0,0.0,0.0,17.6471,-8.25059,-3.66693,7.97,-0.5,2.14,3.0
1758077889.90075,1758077889.76572,0.0,0.0,0.0,18.73572,-11.97482,-2.97938,7.68,-0.43,2.04,3.0
1758077889.91611,1758077889.77572,0.0,0.0,0.0,18.85031,-15.41257,-2.34913,7.68,-0.43,2.04,3.0
1758077889.92134,1758077889.78572,0.0,0.0,0.0,18.16276,-19.59516,-2.06265,7.48,-0.18,1.85,3.0
1758077889.94092,1758077889.79572,0.0,0.0,0.0,16.90226,-21.6578,-2.06265,7.48,-0.18,1.85,3.0
1758077889.94666,1758077889.80572,0.0,0.0,0.0,14.78231,-23.60586,-2.40642,7.38,0.25,1.88,3.0
1758077889.94903,1758077889.81572,0.0,0.0,0.0,9.96947,-25.72581,-4.1253,7.38,0.25,1.88,3.0
1758077889.96623,1758077889.82572,0.0,0.0,0.0,6.13065,-29.27814,-5.21392,7.32,0.86,1.91,3.0
1758077889.9682,1758077889.83572,0.0,0.0,0.0,1.94806,-30.53865,-6.41713,7.61,1.44,1.61,3.0
1758077889.98298,1758077889.84572,0.0,0.0,0.0,-2.23454,-30.82513,-7.21927,7.61,1.44,1.61,3.0
1758077889.98657,1758077889.85572,0.0,0.0,0.0,-7.96411,-29.39274,-8.02141,8.23,1.69,1.42,3.0
1758077890.00203,1758077889.86572,0.0,0.0,0.0,-11.28727,-27.96034,-8.59437,8.23,1.69,1.42,3.0
1758077890.01872,1758077889.87572,0.0,0.0,0.0,-13.5791,-26.35606,-8.93814,8.74,1.4,1.65,3.0
1758077890.01991,1758077889.88572,0.0,0.0,0.0,-15.58445,-23.60586,-9.39651,8.74,1.4,1.65,3.0
1758077890.03493,1758077889.89572,0.0,0.0,0.0,-17.30333,-17.93358,-10.08406,9.31,0.77,1.7,3.0
1758077890.03612,1758077889.90572,0.0,0.0,0.0,-17.93358,-13.12073,-10.8862,9.76,0.14,1.75,3.0
1758077890.05127,1758077889.91572,0.0,0.0,0.0,-18.16276,-8.42248,-11.74564,9.76,0.14,1.75,3.0
1758077890.06697,1758077889.92572,0.0,0.0,0.0,-18.27736,-3.66693,-12.71966,9.88,-0.23,1.78,3.0
1758077890.06822,1758077889.93572,0.0,0.0,0.0,-18.27736,3.20856,-14.32395,9.88,-0.23,1.78,3.0
1758077890.0829,1758077889.94572,0.0,0.0,0.0,-17.87628,6.87549,-14.78231,9.8,-0.3,1.69,3.0
1758077890.08575,1758077889.95572,0.0,0.0,0.0,-16.95955,9.85487,-15.12609,9.8,-0.3,1.69,3.0
1758077890.10196,1758077889.96572,0.0,0.0,0.0,-16.10011,12.14671,-15.12609,9.57,-0.22,1.63,3.0
1758077890.10553,1758077889.97572,0.0,0.0,0.0,-14.43854,12.89155,-14.61043,9.33,-0.16,1.58,3.0
1758077890.12122,1758077889.98572,0.0,0.0,0.0,-13.23533,13.40721,-14.03747,9.33,-0.16,1.58,3.0
1758077890.13887,1758077889.99572,0.0,0.0,0.0,-12.204,13.23533,-13.75099,9.26,-0.18,1.47,3.0
1758077890.14187,1758077890.00572,0.0,0.0,0.0,-11.17268,11.74564,-13.12073,9.26,-0.18,1.47,3.0
1758077890.15782,1758077890.01572,0.0,0.0,0.0,-9.68299,7.21927,-13.06344,8.89,-0.22,1.65,3.0
1758077890.16101,1758077890.02572,0.0,0.0,0.0,-9.05273,3.26586,-13.12073,8.89,-0.22,1.65,3.0
1758077890.17633,1758077890.03572,0.0,0.0,0.0,-8.88085,-0.40107,-13.80828,8.99,-0.14,1.78,3.0
1758077890.17969,1758077890.04572,0.0,0.0,0.0,-9.68299,-4.18259,-15.46986,8.99,-0.14,1.78,3.0
1758077890.195,1758077890.05572,0.0,0.0,0.0,-10.65701,-8.25059,-17.30333,9.4,0.09,1.49,3.0
1758077890.19733,1758077890.06572,0.0,0.0,0.0,-11.45916,-14.03747,-19.42327,8.92,0.35,1.22,3.0
1758077890.21231,1758077890.07572,0.0,0.0,0.0,-11.45916,-20.05352,-20.45459,8.92,0.35,1.22,3.0
1758077890.21895,1758077890.08572,0.0,0.0,0.0,-12.37589,-22.28806,-21.88699,8.97,0.44,0.91,3.0
1758077890.23417,1758077890.09572,0.0,0.0,0.0,-12.204,-25.38203,-21.08485,8.97,0.44,0.91,3.0
1758077890.23568,1758077890.10572,0.0,0.0,0.0,-11.34457,-28.24682,-19.59516,9.09,0.34,0.94,3.0
1758077890.25168,1758077890.11572,0.0,0.0,0.0,-10.48513,-29.67921,-17.58981,9.09,0.34,0.94,3.0
1758077890.26833,1758077890.12572,0.0,0.0,0.0,-8.65166,-29.62192,-13.75099,9.34,0.0,0.96,3.0
1758077890.2709,1758077890.13572,0.0,0.0,0.0,-7.44845,-28.41871,-11.57375,9.61,-0.28,1.03,3.0
1758077890.28604,1758077890.14572,0.0,0.0,0.0,-6.47442,-26.35606,-9.74028,9.61,-0.28,1.03,3.0
1758077890.2884,1758077890.15572,0.0,0.0,0.0,-5.84417,-23.31938,-8.76626,9.88,-0.33,0.93,3.0
1758077890.30575,1758077890.16572,0.0,0.0,0.0,-5.78687,-19.59516,-8.36518,9.88,-0.33,0.93,3.0
1758077890.30661,1758077890.17572,0.0,0.0,0.0,-6.35983,-17.13144,-9.28192,9.91,-0.03,0.86,3.0
1758077890.32211,1758077890.18572,0.0,0.0,0.0,-6.70361,-14.9542,-10.02676,9.91,-0.03,0.86,3.0
1758077890.33895,1758077890.19572,0.0,0.0,0.0,-7.33386,-12.60507,-11.11538,9.93,0.43,0.73,3.0
1758077890.34018,1758077890.20572,0.0,0.0,0.0,-8.0787,-9.33921,-11.86023,9.96,0.66,0.65,3.0
1758077890.35517,1758077890.21572,0.0,0.0,0.0,-8.42248,-6.53172,-11.80293,9.96,0.66,0.65,3.0
1758077890.35683,1758077890.22572,0.0,0.0,0.0,-8.47978,-3.66693,-11.11538,9.98,0.51,0.54,3.0
1758077890.37152,1758077890.23572,0.0,0.0,0.0,-8.136,-0.34377,-8.65166,9.98,0.51,0.54,3.0
1758077890.37591,1758077890.24572,0.0,0.0,0.0,-7.62034,4.98473,-6.47442,10.06,0.13,0.53,3.0
1758077890.39152,1758077890.25572,0.0,0.0,0.0,-7.33386,7.44845,-5.50039,10.06,0.13,0.53,3.0
1758077890.409,1758077890.26572,0.0,0.0,0.0,-6.24524,2.7502,-4.64096,10.05,-0.13,0.84,3.0
1758077890.41157,1758077890.27572,0.0,0.0,0.0,-5.27121,-7.10468,-6.58902,10.05,-0.13,0.84,3.0
1758077890.42732,1758077890.28572,0.0,0.0,0.0,-4.87014,-8.42248,-8.36518,9.42,-0.11,0.67,3.0
1758077890.42914,1758077890.29572,0.0,0.0,0.0,-4.64096,-6.58902,-10.8862,10.35,0.23,0.42,3.0
1758077890.44447,1758077890.30572,0.0,0.0,0.0,-4.69825,-3.72423,-12.89155,10.35,0.23,0.42,3.0
1758077890.44617,1758077890.31572,0.0,0.0,0.0,-5.84417,0.85944,-14.9542,10.4,0.62,0.63,3.0
1758077890.46139,1758077890.32572,0.0,0.0,0.0,-7.16197,3.49504,-15.87093,10.4,0.62,0.63,3.0
1758077890.47721,1758077890.33572,0.0,0.0,0.0,-8.65166,5.32851,-16.50119,10.17,0.86,0.82,3.0
1758077890.47839,1758077890.34572,0.0,0.0,0.0,-11.00079,6.41713,-17.01685,10.17,0.86,0.82,3.0
1758077890.49343,1758077890.35572,0.0,0.0,0.0,-14.72501,7.21927,-17.87628,9.83,1.08,0.53,3.0
1758077890.49598,1758077890.36572,0.0,0.0,0.0,-16.38659,4.23989,-17.18874,9.29,1.17,0.13,3.0
1758077890.51117,1758077890.37572,0.0,0.0,0.0,-18.73572,0.57296,-15.46986,9.29,1.17,0.13,3.0
1758077890.5272,1758077890.38572,0.0,0.0,0.0,-20.3973,-0.85944,-12.77696,8.89,1.06,0.14,3.0
1758077890.52848,1758077890.39572,0.0,0.0,0.0,-22.28806,-3.89611,-7.73493,8.89,1.06,0.14,3.0
1758077890.54347,1758077890.40572,0.0,0.0,0.0,-22.74642,-9.22462,-4.18259,8.78,0.86,-0.12,3.0
1758077890.54596,1758077890.41572,0.0,0.0,0.0,-25.09555,-16.67307,-0.51566,8.78,0.86,-0.12,3.0
1758077890.56303,1758077890.42572,0.0,0.0,0.0,-26.69983,6.7609,-3.72423,9.51,0.93,0.39,3.0
1758077890.56664,1758077890.43572,0.0,0.0,0.0,-30.99702,29.96569,-5.27121,11.93,1.25,0.38,3.0
1758077890.58305,1758077890.44572,0.0,0.0,0.0,-35.86716,29.10626,-9.91217,11.93,1.25,0.38,3.0
1758077890.58595,1758077890.45572,0.0,0.0,0.0,-38.27358,19.76705,-13.98017,8.78,1.83,1.44,3.0
1758077890.6015,1758077890.46572,0.0,0.0,0.0,-40.04975,10.37054,-17.01685,8.78,1.83,1.44,3.0
1758077890.61752,1758077890.47572,0.0,0.0,0.0,-39.87786,10.65701,-15.64175,8.9,1.76,-0.17,3.0
1758077890.61923,1758077890.48572,0.0,0.0,0.0,-39.76327,14.03747,-11.91752,8.9,1.76,-0.17,3.0
1758077890.63505,1758077890.49572,0.0,0.0,0.0,-38.44547,14.38124,-5.21392,9.67,1.0,-1.15,3.0
1758077890.63673,1758077890.50572,0.0,0.0,0.0,-32.37212,-33.9764,1.83346,9.67,1.0,1.14,3.0
1758077890.65128,1758077890.51572,0.0,0.0,0.0,-34.26288,-52.19646,-7.50575,7.19,0.43,1.14,3.0
1758077890.65568,1758077890.52572,0.0,0.0,0.0,-28.59059,-18.73572,-9.85487,14.19,0.37,1.61,3.0
1758077890.67129,1758077890.53572,0.0,0.0,0.0,-22.40265,15.06879,-11.17268,14.19,0.37,1.61,3.0
1758077890.68834,1758077890.54572,0.0,0.0,0.0,-14.72501,11.97482,-10.65701,12.96,-0.15,0.76,3.0
1758077890.69094,1758077890.55572,0.0,0.0,0.0,-10.59972,7.96411,-9.05273,12.96,-0.15,0.76,3.0
1758077890.70659,1758077890.56572,0.0,0.0,0.0,-8.59437,9.68299,-8.47978,10.58,-0.35,1.23,3.0
1758077890.70779,1758077890.57572,0.0,0.0,0.0,-8.02141,15.0115,-6.70361,10.58,-0.35,1.23,3.0
1758077890.72308,1758077890.58572,0.0,0.0,0.0,-9.91217,26.18417,-3.03668,12.05,-0.01,-0.46,3.0
1758077890.7259,1758077890.59572,0.0,0.0,0.0,-11.34457,31.74186,-1.08862,12.62,0.85,0.4,3.0
1758077890.7416,1758077890.60572,0.0,0.0,0.0,-12.14671,34.09099,0.74485,12.62,0.85,0.4,3.0
1758077890.74659,1758077890.61572,0.0,0.0,0.0,-11.91752,33.74722,2.23454,12.21,1.74,0.55,3.0
1758077890.76158,1758077890.62572,0.0,0.0,0.0,-11.45916,32.71589,2.86479,12.21,1.74,0.55,3.0
1758077890.76577,1758077890.63572,0.0,0.0,0.0,-11.51645,32.20023,2.63561,12.39,2.11,1.03,3.0
1758077890.78157,1758077890.64572,0.0,0.0,0.0,-12.204,32.08564,1.94806,12.39,2.11,1.03,3.0
1758077890.79785,1758077890.65572,0.0,0.0,0.0,-14.49583,33.17426,1.08862,13.05,1.97,1.5,3.0
1758077890.79933,1758077890.66572,0.0,0.0,0.0,-16.61578,35.3515,1.3178,13.73,1.77,1.6,3.0
1758077890.81441,1758077890.67572,0.0,0.0,0.0,-19.07949,36.6693,1.83346,13.73,1.77,1.6,3.0
1758077890.81586,1758077890.68572,0.0,0.0,0.0,-21.7724,37.87251,2.63561,13.85,1.74,1.57,3.0
1758077890.83043,1758077890.69572,0.0,0.0,0.0,-26.75713,38.38818,3.03668,13.85,1.74,1.57,3.0
1758077890.84641,1758077890.70572,0.0,0.0,0.0,-30.36677,36.7266,2.46372,13.5,1.82,1.75,3.0
1758077890.84866,1758077890.71572,0.0,0.0,0.0,-33.80451,35.00772,1.14592,13.5,1.82,1.75,3.0
1758077890.86532,1758077890.72572,0.0,0.0,0.0,-37.01308,32.6013,-0.22918,13.13,1.91,2.13,3.0
1758077890.86618,1758077890.73572,0.0,0.0,0.0,-40.16434,27.2155,-2.06265,12.57,1.73,2.31,3.0
1758077890.88169,1758077890.74572,0.0,0.0,0.0,-41.59674,25.38203,-3.20856,12.57,1.73,2.31,3.0
1758077890.90543,1758077890.75572,0.0,0.0,0.0,-42.74266,24.12152,-4.35448,12.1,1.34,2.43,3.0
1758077890.90635,1758077890.76572,0.0,0.0,0.0,-43.65939,22.00158,-5.4431,12.1,1.34,2.43,3.0
1758077890.90694,1758077890.77572,0.0,0.0,0.0,-45.49285,16.84496,-7.50575,10.75,0.96,2.62,3.0
1758077890.92531,1758077890.78572,0.0,0.0,0.0,-46.40959,13.5218,-8.47978,10.75,0.96,2.62,3.0
1758077890.92621,1758077890.79572,0.0,0.0,0.0,-47.44091,10.08406,-9.33921,9.36,0.74,2.61,3.0
1758077890.94171,1758077890.80572,0.0,0.0,0.0,-48.41494,5.84417,-9.74028,9.36,0.74,2.61,3.0
1758077890.95881,1758077890.81572,0.0,0.0,0.0,-50.13381,-1.60428,-10.25595,8.14,0.54,2.5,3.0
1758077890.95963,1758077890.82572,0.0,0.0,0.0,-50.87865,-6.8182,-10.31324,7.16,0.33,2.37,3.0
1758077890.97475,1758077890.83572,0.0,0.0,0.0,-51.6235,-12.71966,-10.08406,7.16,0.33,2.37,3.0
1758077890.97654,1758077890.84572,0.0,0.0,0.0,-52.02457,-19.59516,-8.99544,6.35,0.03,2.11,3.0
1758077890.9918,1758077890.85572,0.0,0.0,0.0,-51.50891,-31.51268,-8.0787,6.35,0.03,2.11,3.0
1758077891.0077,1758077890.86572,0.0,0.0,0.0,-50.2484,-40.10705,-6.8182,5.85,-0.43,1.79,3.0
1758077891.01141,1758077890.87572,0.0,0.0,0.0,-48.52953,-47.95657,-5.50039,5.85,-0.43,1.79,3.0
