timeStamp,timeStampAlign,roll,pitch,yaw,gyro_x,gyro_y,gyro_z,acc_x,acc_y,acc_z,flag_num
1758075116.74961,1758075116.63995,0.0,0.0,0.0,13.46451,8.42248,-6.70361,9.48,-0.54,1.33,2.0
1758075116.75115,1758075116.64995,0.0,0.0,0.0,12.83425,8.65166,-7.04738,9.63,-0.53,1.38,2.0
1758075116.76581,1758075116.65995,0.0,0.0,0.0,12.2613,8.88085,-7.44845,9.63,-0.53,1.38,2.0
1758075116.76677,1758075116.66995,0.0,0.0,0.0,11.63104,9.28192,-8.25059,9.75,-0.5,1.34,2.0
1758075116.78267,1758075116.67995,0.0,0.0,0.0,10.65701,9.74028,-8.76626,9.75,-0.5,1.34,2.0
1758075116.79885,1758075116.68995,0.0,0.0,0.0,10.31324,10.31324,-9.39651,9.88,-0.44,1.22,2.0
1758075116.7998,1758075116.69995,0.0,0.0,0.0,9.85487,10.25595,-9.91217,9.88,-0.44,1.22,2.0
1758075116.81465,1758075116.70995,0.0,0.0,0.0,9.33921,9.96947,-10.71431,9.92,-0.39,1.15,2.0
1758075116.83063,1758075116.71995,0.0,0.0,0.0,9.05273,9.96947,-11.00079,9.92,-0.35,1.17,2.0
1758075116.83179,1758075116.72995,0.0,0.0,0.0,8.93814,10.02676,-11.17268,9.92,-0.35,1.17,2.0
1758075116.84668,1758075116.73995,0.0,0.0,0.0,8.88085,9.4538,-11.28727,9.86,-0.4,1.2,2.0
1758075116.84783,1758075116.74995,0.0,0.0,0.0,8.70896,6.99009,-11.28727,9.86,-0.4,1.2,2.0
1758075116.86261,1758075116.75995,0.0,0.0,0.0,8.65166,4.87014,-11.22997,9.74,-0.47,1.28,2.0
1758075116.87868,1758075116.76995,0.0,0.0,0.0,8.65166,2.97938,-10.8289,9.74,-0.47,1.28,2.0
1758075116.88076,1758075116.77995,0.0,0.0,0.0,8.42248,1.20321,-10.19865,10.03,-0.56,1.58,2.0
1758075116.89594,1758075116.78995,0.0,0.0,0.0,7.62034,-0.85944,-8.47978,10.61,-0.5,1.87,2.0
1758075116.89686,1758075116.79995,0.0,0.0,0.0,6.35983,-2.06265,-6.87549,10.61,-0.5,1.87,2.0
1758075116.91302,1758075116.80995,0.0,0.0,0.0,4.64096,-2.34913,-4.92744,11.2,-0.2,2.24,2.0
1758075116.92973,1758075116.81995,0.0,0.0,0.0,2.34913,-0.40107,-2.29183,11.2,-0.2,2.24,2.0
1758075116.93089,1758075116.82995,0.0,0.0,0.0,-2.46372,6.24524,1.14592,12.07,0.18,2.43,2.0
1758075116.94576,1758075116.83995,0.0,0.0,0.0,-5.95876,9.5684,3.20856,12.07,0.18,2.43,2.0
1758075116.9469,1758075116.84995,0.0,0.0,0.0,-9.39651,9.28192,4.64096,11.66,0.5,2.44,2.0
1758075116.96312,1758075116.85995,0.0,0.0,0.0,-12.49048,7.16197,5.4431,11.66,0.5,2.44,2.0
1758075116.97883,1758075116.86995,0.0,0.0,0.0,-16.3293,5.27121,4.23989,10.31,0.54,1.97,2.0
1758075116.97995,1758075116.87995,0.0,0.0,0.0,-18.10547,3.49504,2.57831,9.52,0.21,1.78,2.0
1758075116.99506,1758075116.88995,0.0,0.0,0.0,-19.13679,1.3178,0.0573,9.52,0.21,1.78,2.0
1758075117.01073,1758075116.89995,0.0,0.0,0.0,-19.13679,-1.43239,-4.23989,8.98,-0.29,1.71,2.0
1758075117.01235,1758075116.90995,0.0,0.0,0.0,-18.10547,-5.50039,-7.10468,8.98,-0.29,1.71,2.0
1758075117.02708,1758075116.91995,0.0,0.0,0.0,-16.272,-8.136,-9.4538,8.84,-0.72,1.75,2.0
1758075117.028,1758075116.92995,0.0,0.0,0.0,-14.32395,-10.59972,-11.28727,8.84,-0.72,1.75,2.0
1758075117.04309,1758075116.93995,0.0,0.0,0.0,-10.25595,-15.06879,-12.43318,8.96,-1.01,2.04,2.0
1758075117.05909,1758075116.94995,0.0,0.0,0.0,-7.44845,-18.85031,-12.2613,8.79,-1.08,2.52,2.0
1758075117.06045,1758075116.95995,0.0,0.0,0.0,-4.64096,-22.97561,-11.00079,8.79,-1.08,2.52,2.0
1758075117.07557,1758075116.96995,0.0,0.0,0.0,-2.11994,-27.38738,-9.28192,8.49,-0.92,2.9,2.0
1758075117.0768,1758075116.97995,0.0,0.0,0.0,1.08862,-33.11696,-5.61499,8.49,-0.92,2.9,2.0
1758075117.09297,1758075116.98995,0.0,0.0,0.0,2.7502,-35.12231,-2.92208,8.48,-0.6,3.2,2.0
1758075117.10918,1758075116.99995,0.0,0.0,0.0,4.35448,-35.06502,-0.11459,8.48,-0.6,3.2,2.0
1758075117.11159,1758075117.00995,0.0,0.0,0.0,5.50039,-33.80451,2.40642,9.09,-0.21,3.36,2.0
1758075117.12711,1758075117.01995,0.0,0.0,0.0,6.8182,-29.04896,5.50039,9.69,0.14,3.11,2.0
1758075117.12848,1758075117.02995,0.0,0.0,0.0,6.99009,-25.55392,6.87549,9.69,0.14,3.11,2.0
1758075117.14314,1758075117.03995,0.0,0.0,0.0,7.04738,-20.79837,7.79223,10.03,0.43,2.7,2.0
1758075117.15884,1758075117.04995,0.0,0.0,0.0,6.18794,-14.09476,7.62034,10.03,0.43,2.7,2.0
1758075117.16011,1758075117.05995,0.0,0.0,0.0,4.18259,-3.83882,6.53172,10.47,0.58,2.36,2.0
1758075117.1749,1758075117.06995,0.0,0.0,0.0,2.34913,4.29718,5.09932,10.47,0.58,2.36,2.0
1758075117.19121,1758075117.07995,0.0,0.0,0.0,0.0573,11.74564,3.20856,10.75,0.67,2.15,2.0
1758075117.19239,1758075117.08995,0.0,0.0,0.0,-2.06265,17.47521,-0.0573,10.75,0.67,2.15,2.0
1758075117.2072,1758075117.09995,0.0,0.0,0.0,-4.98473,23.60586,-1.94806,10.54,0.67,1.95,2.0
1758075117.2084,1758075117.10995,0.0,0.0,0.0,-6.8182,25.55392,-4.0107,10.21,0.56,1.9,2.0
1758075117.22324,1758075117.11995,0.0,0.0,0.0,-8.59437,25.43933,-5.61499,10.21,0.56,1.9,2.0
1758075117.2392,1758075117.12995,0.0,0.0,0.0,-10.37054,21.31403,-7.96411,9.76,0.44,1.9,2.0
1758075117.24021,1758075117.13995,0.0,0.0,0.0,-11.51645,16.38659,-9.5684,9.76,0.44,1.9,2.0
1758075117.25509,1758075117.14995,0.0,0.0,0.0,-12.14671,14.09476,-10.08406,9.5,0.27,1.96,2.0
1758075117.27101,1758075117.15995,0.0,0.0,0.0,-13.00614,10.94349,-11.00079,9.5,0.27,1.96,2.0
1758075117.2722,1758075117.16995,0.0,0.0,0.0,-13.5218,9.85487,-11.22997,9.52,0.13,2.01,2.0
1758075117.28729,1758075117.17995,0.0,0.0,0.0,-13.86558,11.97482,-10.8289,9.64,0.1,2.04,2.0
1758075117.28815,1758075117.18995,0.0,0.0,0.0,-14.03747,17.13144,-10.02676,9.64,0.1,2.04,2.0
1758075117.30316,1758075117.19995,0.0,0.0,0.0,-14.43854,19.13679,-9.62569,9.58,0.2,2.02,2.0
1758075117.31904,1758075117.20995,0.0,0.0,0.0,-15.58445,17.13144,-9.22462,9.58,0.2,2.02,2.0
1758075117.32051,1758075117.21995,0.0,0.0,0.0,-16.50119,13.69369,-9.22462,8.91,0.35,1.94,2.0
1758075117.33536,1758075117.22995,0.0,0.0,0.0,-17.36062,9.5684,-9.05273,8.91,0.35,1.94,2.0
1758075117.35124,1758075117.23995,0.0,0.0,0.0,-18.33465,6.24524,-8.99544,8.77,0.44,1.85,2.0
1758075117.35222,1758075117.24995,0.0,0.0,0.0,-20.05352,4.81285,-8.76626,9.21,0.49,1.8,2.0
1758075117.36702,1758075117.25995,0.0,0.0,0.0,-21.02755,5.55769,-8.65166,9.21,0.49,1.8,2.0
1758075117.36823,1758075117.26995,0.0,0.0,0.0,-22.05888,7.33386,-8.47978,9.72,0.5,1.69,2.0
1758075117.38336,1758075117.27995,0.0,0.0,0.0,-22.97561,10.31324,-8.136,9.72,0.5,1.69,2.0
1758075117.39904,1758075117.28995,0.0,0.0,0.0,-24.23611,13.98017,-7.62034,9.98,0.46,1.45,2.0
1758075117.40031,1758075117.29995,0.0,0.0,0.0,-24.75178,16.38659,-6.99009,9.98,0.46,1.45,2.0
1758075117.41538,1758075117.30995,0.0,0.0,0.0,-25.21014,19.42327,-6.18794,9.97,0.42,1.2,2.0
1758075117.43135,1758075117.31995,0.0,0.0,0.0,-25.89769,23.0902,-5.15662,9.97,0.42,1.2,2.0
1758075117.43232,1758075117.32995,0.0,0.0,0.0,-26.06958,26.69983,-4.58366,9.96,0.42,1.12,2.0
1758075117.44738,1758075117.33995,0.0,0.0,0.0,-26.18417,26.01229,-4.1253,9.43,0.45,0.99,2.0
1758075117.44857,1758075117.34995,0.0,0.0,0.0,-26.06958,23.83505,-3.83882,9.43,0.45,0.99,2.0
1758075117.46342,1758075117.35995,0.0,0.0,0.0,-25.89769,20.3973,-3.49504,8.99,0.5,0.88,2.0
1758075117.47942,1758075117.36995,0.0,0.0,0.0,-25.89769,17.6471,-3.32316,8.99,0.5,0.88,2.0
1758075117.48034,1758075117.37995,0.0,0.0,0.0,-26.18417,12.49048,-3.20856,8.9,0.58,1.05,2.0
1758075117.49538,1758075117.38995,0.0,0.0,0.0,-26.69983,4.58366,-3.95341,8.9,0.58,1.05,2.0
1758075117.51132,1758075117.39995,0.0,0.0,0.0,-27.61657,-7.79223,-6.35983,8.8,0.63,1.24,2.0
1758075117.51238,1758075117.40995,0.0,0.0,0.0,-28.13223,-14.09476,-8.42248,9.63,0.54,1.84,2.0
1758075117.52717,1758075117.41995,0.0,0.0,0.0,-28.76248,-19.48057,-11.11538,9.63,0.54,1.84,2.0
1758075117.52839,1758075117.42995,0.0,0.0,0.0,-29.50733,-23.0329,-14.49583,11.32,0.19,3.13,2.0
1758075117.54342,1758075117.43995,0.0,0.0,0.0,-29.9084,-21.42862,-19.88164,11.32,0.19,3.13,2.0
1758075117.55941,1758075117.44995,0.0,0.0,0.0,-29.56462,-16.21471,-22.28806,13.12,-0.4,3.91,2.0
1758075117.56068,1758075117.45995,0.0,0.0,0.0,-29.50733,-8.70896,-24.5226,13.12,-0.4,3.91,2.0
1758075117.57553,1758075117.46995,0.0,0.0,0.0,-29.96569,-3.09397,-25.72581,12.87,-0.54,4.16,2.0
1758075117.59148,1758075117.47995,0.0,0.0,0.0,-32.25753,0.22918,-26.18417,11.2,0.12,4.37,2.0
1758075117.59186,1758075117.48995,0.0,0.0,0.0,-34.43476,-1.03132,-25.26744,11.2,0.12,4.37,2.0
1758075117.60751,1758075117.49995,0.0,0.0,0.0,-36.89849,-3.26586,-23.89234,9.9,0.91,4.06,2.0
1758075117.60844,1758075117.50995,0.0,0.0,0.0,-38.21629,-11.34457,-21.02755,9.9,0.91,4.06,2.0
1758075117.62354,1758075117.51995,0.0,0.0,0.0,-42.1124,-36.15364,-16.3293,8.06,1.2,3.54,2.0
1758075117.63949,1758075117.52995,0.0,0.0,0.0,-44.28964,-45.55015,-13.12073,8.06,1.2,3.54,2.0
1758075117.64123,1758075117.53995,0.0,0.0,0.0,-45.83662,-46.1804,-8.88085,8.32,0.94,3.43,2.0
1758075117.65711,1758075117.54995,0.0,0.0,0.0,-48.70141,-39.07573,-5.72958,8.32,0.94,3.43,2.0
1758075117.65869,1758075117.55995,0.0,0.0,0.0,-50.64947,-34.37747,-4.92744,9.75,0.22,3.04,2.0
1758075117.67367,1758075117.56995,0.0,0.0,0.0,-52.19646,-30.82513,-5.09932,9.73,-0.32,3.04,2.0
1758075117.6896,1758075117.57995,0.0,0.0,0.0,-53.28508,-25.7831,-5.32851,9.73,-0.32,3.04,2.0
1758075117.6905,1758075117.58995,0.0,0.0,0.0,-53.28508,-11.11538,-4.87014,10.05,-0.79,2.62,2.0
1758075117.70565,1758075117.59995,0.0,0.0,0.0,-52.19646,-3.20856,-4.1253,10.05,-0.79,2.62,2.0
1758075117.72134,1758075117.60995,0.0,0.0,0.0,-50.87865,0.34377,-3.20856,9.93,-1.21,2.58,2.0
1758075117.72185,1758075117.61995,0.0,0.0,0.0,-50.47758,-8.59437,-4.29718,9.93,-1.21,2.58,2.0
1758075117.73731,1758075117.62995,0.0,0.0,0.0,-49.27437,-11.28727,-4.87014,8.72,-1.31,2.76,2.0
1758075117.73876,1758075117.63995,0.0,0.0,0.0,-47.09713,-4.58366,-4.81285,10.05,-1.37,2.32,2.0
1758075117.75333,1758075117.64995,0.0,0.0,0.0,-44.46153,6.58902,-4.52637,10.05,-1.37,2.32,2.0
1758075117.76934,1758075117.65995,0.0,0.0,0.0,-42.05511,17.87628,-4.1253,10.62,-1.44,2.4,2.0
1758075117.77127,1758075117.66995,0.0,0.0,0.0,-38.50277,29.04896,-2.34913,10.62,-1.44,2.4,2.0
1758075117.78657,1758075117.67995,0.0,0.0,0.0,-36.32552,32.08564,-1.08862,9.7,-1.51,2.21,2.0
1758075117.78751,1758075117.68995,0.0,0.0,0.0,-34.77854,30.48136,0.45837,9.7,-1.51,2.21,2.0
1758075117.80232,1758075117.69995,0.0,0.0,0.0,-33.23156,25.72581,1.94806,8.88,-1.45,2.16,2.0
1758075117.81836,1758075117.70995,0.0,0.0,0.0,-31.91375,20.34,3.32316,8.98,-1.24,1.95,2.0
1758075117.81982,1758075117.71995,0.0,0.0,0.0,-31.85646,20.97026,3.49504,8.98,-1.24,1.95,2.0
1758075117.83444,1758075117.72995,0.0,0.0,0.0,-31.97105,23.66316,3.20856,9.78,-0.96,1.93,2.0
1758075117.83587,1758075117.73995,0.0,0.0,0.0,-32.54401,26.24147,1.77617,9.78,-0.96,1.93,2.0
1758075117.85097,1758075117.74995,0.0,0.0,0.0,-32.88778,28.59059,0.74485,9.78,-0.77,1.99,2.0
1758075117.86677,1758075117.75995,0.0,0.0,0.0,-33.23156,28.36141,-0.57296,9.78,-0.77,1.99,2.0
1758075117.86789,1758075117.76995,0.0,0.0,0.0,-33.51803,27.78845,-2.06265,9.39,-0.8,2.01,2.0
1758075117.8828,1758075117.77995,0.0,0.0,0.0,-33.40344,28.70519,-4.69825,9.39,-0.8,2.01,2.0
1758075117.89864,1758075117.78995,0.0,0.0,0.0,-32.71589,30.88243,-6.47442,9.31,-1.02,2.13,2.0
1758075117.89963,1758075117.79995,0.0,0.0,0.0,-31.97105,32.88778,-8.02141,9.45,-1.3,2.12,2.0
1758075117.91443,1758075117.80995,0.0,0.0,0.0,-30.88243,33.40344,-9.28192,9.45,-1.3,2.12,2.0
1758075117.91587,1758075117.81995,0.0,0.0,0.0,-28.87707,31.28349,-10.31324,9.31,-1.53,2.02,2.0
1758075117.93141,1758075117.82995,0.0,0.0,0.0,-27.10091,28.01764,-10.59972,9.31,-1.53,2.02,2.0
1758075117.94646,1758075117.83995,0.0,0.0,0.0,-25.38203,24.92367,-10.59972,9.08,-1.79,1.71,2.0
1758075117.94774,1758075117.84995,0.0,0.0,0.0,-22.91831,22.28806,-9.74028,9.08,-1.79,1.71,2.0
1758075117.96247,1758075117.85995,0.0,0.0,0.0,-18.73572,17.93358,-8.47978,9.18,-1.91,1.52,2.0
1758075117.9787,1758075117.86995,0.0,0.0,0.0,-15.69904,14.83961,-7.44845,9.0,-2.02,1.31,2.0
1758075117.97995,1758075117.87995,0.0,0.0,0.0,-12.71966,11.17268,-6.53172,9.0,-2.02,1.31,2.0
1758075117.99484,1758075117.88995,0.0,0.0,0.0,-9.28192,8.25059,-5.84417,8.83,-1.96,1.16,2.0
1758075117.99568,1758075117.89995,0.0,0.0,0.0,-4.29718,6.58902,-5.15662,8.83,-1.96,1.16,2.0
1758075118.01202,1758075117.90995,0.0,0.0,0.0,-1.43239,6.87549,-5.4431,8.98,-1.79,1.29,2.0
1758075118.02775,1758075117.91995,0.0,0.0,0.0,1.60428,4.0107,-6.24524,8.98,-1.79,1.29,2.0
1758075118.0287,1758075117.92995,0.0,0.0,0.0,4.87014,-2.40642,-6.99009,8.75,-1.66,1.6,2.0
1758075118.04372,1758075117.93995,0.0,0.0,0.0,9.28192,-13.98017,-7.50575,8.71,-1.61,1.57,2.0
1758075118.05962,1758075117.94995,0.0,0.0,0.0,11.91752,-18.85031,-7.96411,8.71,-1.61,1.57,2.0
1758075118.06076,1758075117.95995,0.0,0.0,0.0,14.15206,-20.45459,-8.30789,10.08,-1.58,2.11,2.0
1758075118.07591,1758075117.96995,0.0,0.0,0.0,16.10011,-20.16812,-8.0787,10.08,-1.58,2.11,2.0
1758075118.07678,1758075117.97995,0.0,0.0,0.0,16.55848,-19.88164,-7.21927,11.61,-1.27,2.65,2.0
1758075118.09224,1758075117.98995,0.0,0.0,0.0,15.58445,-20.22541,-5.61499,11.61,-1.27,2.65,2.0
1758075118.1079,1758075117.99995,0.0,0.0,0.0,14.03747,-20.97026,-2.63561,12.78,-0.84,3.69,2.0
1758075118.1088,1758075118.00995,0.0,0.0,0.0,11.00079,-23.20479,3.32316,12.78,-0.84,3.75,2.0
1758075118.12387,1758075118.01995,0.0,0.0,0.0,9.22462,-25.8404,7.73493,13.02,-0.32,3.75,2.0
1758075118.13959,1758075118.02995,0.0,0.0,0.0,7.21927,-27.78845,11.17268,11.39,0.22,3.24,2.0
1758075118.14081,1758075118.03995,0.0,0.0,0.0,5.27121,-30.82513,13.12073,11.39,0.22,3.24,2.0
1758075118.15595,1758075118.04995,0.0,0.0,0.0,2.29183,-43.65939,12.77696,8.68,0.48,2.98,2.0
1758075118.15683,1758075118.05995,0.0,0.0,0.0,1.77617,-47.15443,11.28727,8.68,0.48,2.98,2.0
1758075118.17192,1758075118.06995,0.0,0.0,0.0,1.66158,-47.15443,9.05273,7.43,0.53,2.79,2.0
1758075118.18795,1758075118.07995,0.0,0.0,0.0,1.83346,-45.20637,6.99009,7.43,0.53,2.79,2.0
1758075118.18886,1758075118.08995,0.0,0.0,0.0,3.83882,-41.13837,4.46907,7.44,0.44,3.0,2.0
1758075118.20396,1758075118.09995,0.0,0.0,0.0,5.90147,-38.78925,3.83882,7.71,0.47,3.18,2.0
1758075118.22073,1758075118.10995,0.0,0.0,0.0,8.136,-35.58068,3.38045,7.71,0.47,3.18,2.0
1758075118.22165,1758075118.11995,0.0,0.0,0.0,10.19865,-29.50733,3.72423,8.46,0.55,3.07,2.0
1758075118.2371,1758075118.12995,0.0,0.0,0.0,13.46451,-14.72501,5.15662,8.46,0.55,3.07,2.0
1758075118.23788,1758075118.13995,0.0,0.0,0.0,16.272,-4.35448,6.18794,9.85,0.36,3.04,2.0
1758075118.25304,1758075118.14995,0.0,0.0,0.0,18.10547,2.86479,7.79223,9.85,0.36,3.04,2.0
1758075118.26874,1758075118.15995,0.0,0.0,0.0,18.90761,8.0787,10.37054,10.1,0.0,3.04,2.0
1758075118.26991,1758075118.16995,0.0,0.0,0.0,18.62113,13.17803,12.43318,9.94,-0.01,2.47,2.0
1758075118.28505,1758075118.17995,0.0,0.0,0.0,17.76169,16.272,14.03747,9.94,-0.01,2.47,2.0
1758075118.28636,1758075118.18995,0.0,0.0,0.0,14.61043,12.2613,15.35527,9.74,0.6,2.5,2.0
1758075118.30178,1758075118.19995,0.0,0.0,0.0,12.43318,5.4431,15.58445,9.74,0.6,2.5,2.0
1758075118.31794,1758075118.20995,0.0,0.0,0.0,9.74028,4.46907,13.34992,9.74,0.89,2.6,2.0
1758075118.31896,1758075118.21995,0.0,0.0,0.0,7.96411,9.96947,11.28727,9.74,0.89,2.6,2.0
1758075118.33394,1758075118.22995,0.0,0.0,0.0,6.47442,15.0115,7.73493,10.63,0.95,2.53,2.0
1758075118.33684,1758075118.23995,0.0,0.0,0.0,5.21392,20.22541,2.86479,10.17,0.74,2.6,2.0
1758075118.353,1758075118.24995,0.0,0.0,0.0,4.58366,20.16812,-0.40107,10.17,0.74,2.6,2.0
1758075118.36905,1758075118.25995,0.0,0.0,0.0,4.35448,19.13679,-3.20856,9.47,0.45,2.42,2.0
1758075118.36996,1758075118.26995,0.0,0.0,0.0,4.1253,17.87628,-5.32851,9.47,0.45,2.42,2.0
1758075118.38502,1758075118.27995,0.0,0.0,0.0,3.95341,17.93358,-7.10468,9.4,0.22,2.39,2.0
1758075118.38597,1758075118.28995,0.0,0.0,0.0,3.72423,18.56383,-7.44845,9.4,0.22,2.39,2.0
1758075118.40176,1758075118.29995,0.0,0.0,0.0,3.32316,18.56383,-7.33386,9.52,0.14,2.36,2.0
1758075118.41806,1758075118.30995,0.0,0.0,0.0,3.03668,18.10547,-6.7609,9.52,0.14,2.36,2.0
1758075118.41901,1758075118.31995,0.0,0.0,0.0,2.40642,16.50119,-5.27121,9.43,0.18,2.35,2.0
1758075118.4339,1758075118.32995,0.0,0.0,0.0,2.06265,15.64175,-4.18259,9.41,0.27,2.25,2.0
1758075118.44982,1758075118.33995,0.0,0.0,0.0,2.00535,15.41257,-2.86479,9.41,0.27,2.25,2.0
1758075118.45105,1758075118.34995,0.0,0.0,0.0,1.66158,16.272,-1.03132,9.64,0.34,2.15,2.0
1758075118.46591,1758075118.35995,0.0,0.0,0.0,1.03132,19.48057,-0.0573,9.64,0.34,2.15,2.0
1758075118.46732,1758075118.36995,0.0,0.0,0.0,0.51566,20.97026,0.57296,9.92,0.4,2.14,2.0
1758075118.48184,1758075118.37995,0.0,0.0,0.0,0.0,21.88699,1.3751,9.92,0.4,2.14,2.0
1758075118.49787,1758075118.38995,0.0,0.0,0.0,-0.97403,22.28806,2.34913,9.8,0.47,2.04,2.0
1758075118.49911,1758075118.39995,0.0,0.0,0.0,-1.77617,21.48592,2.57831,9.42,0.56,1.95,2.0
1758075118.51395,1758075118.40995,0.0,0.0,0.0,-2.86479,20.45459,2.6929,9.42,0.56,1.95,2.0
1758075118.52991,1758075118.41995,0.0,0.0,0.0,-4.0107,19.25138,2.86479,9.03,0.68,1.73,2.0
1758075118.53116,1758075118.42995,0.0,0.0,0.0,-6.24524,16.95955,3.03668,9.03,0.68,1.73,2.0
1758075118.54595,1758075118.43995,0.0,0.0,0.0,-8.136,15.46986,3.60963,8.81,0.84,1.44,2.0
1758075118.54711,1758075118.44995,0.0,0.0,0.0,-10.19865,13.86558,4.58366,8.81,0.84,1.44,2.0
1758075118.56259,1758075118.45995,0.0,0.0,0.0,-12.71966,10.08406,5.4431,8.88,0.97,1.28,2.0
1758075118.5783,1758075118.46995,0.0,0.0,0.0,-17.18874,-3.55234,6.07335,8.68,1.06,1.33,2.0
1758075118.58019,1758075118.47995,0.0,0.0,0.0,-20.22541,-15.69904,6.24524,8.68,1.06,1.33,2.0
1758075118.59524,1758075118.48995,0.0,0.0,0.0,-23.26209,-28.07493,5.78687,9.26,1.0,2.01,2.0
1758075118.59637,1758075118.49995,0.0,0.0,0.0,-26.06958,-35.86716,5.55769,9.26,1.0,2.01,2.0
1758075118.61194,1758075118.50995,0.0,0.0,0.0,-28.87707,-30.99702,1.60428,11.99,0.7,3.27,2.0
1758075118.6283,1758075118.51995,0.0,0.0,0.0,-28.87707,-25.21014,-1.60428,11.99,0.7,3.27,2.0
1758075118.62917,1758075118.52995,0.0,0.0,0.0,-27.96034,-22.28806,-5.4431,13.55,-0.2,3.63,2.0
1758075118.64429,1758075118.53995,0.0,0.0,0.0,-26.01229,-19.25138,-8.93814,13.55,-0.2,3.63,2.0
1758075118.66026,1758075118.54995,0.0,0.0,0.0,-23.0902,-12.71966,-12.54778,12.08,-0.83,2.99,2.0
1758075118.6612,1758075118.55995,0.0,0.0,0.0,-22.23076,-10.59972,-14.49583,10.28,-0.58,3.04,2.0
1758075118.67609,1758075118.56995,0.0,0.0,0.0,-21.02755,-12.49048,-15.75634,10.28,-0.58,3.04,2.0
1758075118.67727,1758075118.57995,0.0,0.0,0.0,-19.13679,-17.58981,-17.81899,8.68,-0.1,3.32,2.0
1758075118.69237,1758075118.58995,0.0,0.0,0.0,-19.88164,-38.78925,-19.13679,8.68,-0.1,3.32,2.0
1758075118.70832,1758075118.59995,0.0,0.0,0.0,-17.99088,-55.23313,-17.81899,6.95,0.02,3.05,2.0
1758075118.71122,1758075118.60995,0.0,0.0,0.0,-17.01685,-63.13995,-15.64175,6.95,0.02,3.05,2.0
1758075118.72615,1758075118.61995,0.0,0.0,0.0,-17.6471,-58.21251,-14.78231,8.29,-0.12,3.27,2.0
1758075118.72721,1758075118.62995,0.0,0.0,0.0,-18.79302,-54.25911,-13.98017,9.75,-0.28,3.31,2.0
1758075118.74208,1758075118.63995,0.0,0.0,0.0,-19.82434,-50.99325,-12.77696,9.75,-0.28,3.31,2.0
1758075118.75811,1758075118.64995,0.0,0.0,0.0,-20.79837,-47.32632,-11.22997,10.04,-0.35,2.88,2.0
1758075118.75967,1758075118.65995,0.0,0.0,0.0,-21.42862,-32.14294,-7.67763,10.04,-0.35,2.88,2.0
1758075118.77409,1758075118.66995,0.0,0.0,0.0,-20.68378,-20.51189,-4.0107,10.9,-0.48,2.33,2.0
1758075118.79123,1758075118.67995,0.0,0.0,0.0,-20.68378,-12.204,-1.14592,10.9,-0.48,2.33,2.0
1758075118.79294,1758075118.68995,0.0,0.0,0.0,-19.88164,-14.32395,1.20321,10.34,-0.67,2.51,2.0
1758075118.8084,1758075118.69995,0.0,0.0,0.0,-20.16812,-19.19409,1.48969,9.53,-0.65,2.49,2.0
1758075118.80933,1758075118.70995,0.0,0.0,0.0,-18.9649,-13.5791,1.94806,9.53,-0.65,2.49,2.0
1758075118.82432,1758075118.71995,0.0,0.0,0.0,-17.30333,-2.7502,2.11994,11.03,-0.75,2.15,2.0
1758075118.84014,1758075118.72995,0.0,0.0,0.0,-15.12609,9.68299,2.57831,11.03,-0.75,2.15,2.0
1758075118.84133,1758075118.73995,0.0,0.0,0.0,-12.08941,25.43933,3.38045,11.02,-0.96,2.09,2.0
1758075118.8561,1758075118.74995,0.0,0.0,0.0,-10.25595,28.64789,4.35448,11.02,-0.96,2.09,2.0
1758075118.85735,1758075118.75995,0.0,0.0,0.0,-8.0787,26.35606,5.61499,9.83,-1.25,1.97,2.0
1758075118.87221,1758075118.76995,0.0,0.0,0.0,-6.18794,22.57454,6.35983,9.83,-1.25,1.97,2.0
1758075118.88817,1758075118.77995,0.0,0.0,0.0,-4.52637,23.0902,6.58902,9.36,-1.36,1.67,2.0
1758075118.89101,1758075118.78995,0.0,0.0,0.0,-3.09397,25.72581,6.58902,9.88,-1.34,1.53,2.0
1758075118.90619,1758075118.79995,0.0,0.0,0.0,-1.14592,30.93972,7.10468,9.88,-1.34,1.53,2.0
1758075118.90896,1758075118.80995,0.0,0.0,0.0,0.97403,37.87251,7.04738,9.99,-1.29,1.68,2.0
1758075118.92447,1758075118.81995,0.0,0.0,0.0,2.40642,41.02378,7.04738,9.99,-1.29,1.68,2.0
1758075118.94024,1758075118.82995,0.0,0.0,0.0,3.72423,42.51347,6.58902,9.65,-1.21,1.59,2.0
1758075118.94142,1758075118.83995,0.0,0.0,0.0,5.15662,41.99781,5.90147,9.65,-1.21,1.59,2.0
1758075118.95656,1758075118.84995,0.0,0.0,0.0,6.87549,37.24226,4.18259,9.27,-1.08,1.58,2.0
1758075118.95742,1758075118.85995,0.0,0.0,0.0,8.76626,31.51268,3.20856,8.74,-1.05,1.56,2.0
1758075118.97224,1758075118.86995,0.0,0.0,0.0,10.48513,27.2155,2.00535,8.74,-1.05,1.56,2.0
1758075118.98852,1758075118.87995,0.0,0.0,0.0,12.43318,22.74642,0.80214,8.51,-1.13,1.45,2.0
1758075118.98944,1758075118.88995,0.0,0.0,0.0,15.69904,15.29797,-0.57296,8.51,-1.13,1.45,2.0
1758075119.00456,1758075118.89995,0.0,0.0,0.0,17.13144,15.58445,-0.74485,8.28,-1.29,1.36,2.0
1758075119.02054,1758075118.90995,0.0,0.0,0.0,19.36597,22.68913,-2.23454,8.28,-1.29,1.36,2.0
1758075119.02147,1758075118.91995,0.0,0.0,0.0,20.16812,27.44468,-2.46372,9.14,-1.31,1.25,2.0
1758075119.03654,1758075118.92995,0.0,0.0,0.0,22.63183,31.2262,-3.09397,8.83,-1.4,1.44,2.0
1758075119.03755,1758075118.93995,0.0,0.0,0.0,24.5226,24.92367,-2.6929,8.83,-1.4,1.44,2.0
1758075119.05258,1758075118.94995,0.0,0.0,0.0,26.64254,12.49048,-1.60428,7.76,-1.45,1.07,2.0
1758075119.06856,1758075118.95995,0.0,0.0,0.0,28.07493,-2.86479,-0.40107,7.76,-1.45,1.07,2.0
1758075119.06949,1758075118.96995,0.0,0.0,0.0,29.62192,-23.20479,1.60428,7.92,-1.23,0.92,2.0
1758075119.08557,1758075118.97995,0.0,0.0,0.0,30.19488,-33.68992,2.63561,7.92,-1.23,0.92,2.0
1758075119.08678,1758075118.98995,0.0,0.0,0.0,30.36677,-37.24226,3.26586,8.93,-0.81,0.81,2.0
1758075119.10232,1758075118.99995,0.0,0.0,0.0,31.39809,-29.04896,4.35448,8.93,-0.81,0.81,2.0
1758075119.11861,1758075119.00995,0.0,0.0,0.0,31.56997,-24.57989,3.83882,10.7,-0.51,0.95,2.0
1758075119.11978,1758075119.01995,0.0,0.0,0.0,31.39809,-23.31938,2.6929,11.02,-0.5,1.87,2.0
1758075119.13458,1758075119.02995,0.0,0.0,0.0,30.65324,-26.01229,2.11994,11.02,-0.5,1.87,2.0
1758075119.15061,1758075119.03995,0.0,0.0,0.0,28.24682,-30.02299,2.63561,11.9,-0.14,2.59,2.0
1758075119.15176,1758075119.04995,0.0,0.0,0.0,25.38203,-28.99167,4.81285,11.9,-0.14,2.59,2.0
1758075119.16636,1758075119.05995,0.0,0.0,0.0,22.34536,-25.89769,8.42248,14.01,0.53,3.53,2.0
1758075119.16867,1758075119.06995,0.0,0.0,0.0,18.27736,-22.00158,12.204,14.01,0.53,3.53,2.0
1758075119.18368,1758075119.07995,0.0,0.0,0.0,13.00614,-28.76248,16.84496,13.52,0.99,3.39,2.0
1758075119.20073,1758075119.08995,0.0,0.0,0.0,7.79223,-36.55471,17.13144,9.47,0.98,3.47,2.0
1758075119.20159,1758075119.09995,0.0,0.0,0.0,4.58366,-35.58068,16.55848,9.47,0.98,3.47,2.0
1758075119.21661,1758075119.10995,0.0,0.0,0.0,2.40642,-31.85646,14.49583,8.56,0.57,3.44,2.0
1758075119.21763,1758075119.11995,0.0,0.0,0.0,2.46372,-23.0902,11.45916,8.56,0.57,3.44,2.0
1758075119.23245,1758075119.12995,0.0,0.0,0.0,4.92744,-17.53251,9.96947,8.43,0.16,3.57,2.0
1758075119.24962,1758075119.13995,0.0,0.0,0.0,8.88085,-13.5218,9.28192,8.43,0.16,3.57,2.0
1758075119.25102,1758075119.14995,0.0,0.0,0.0,13.98017,-9.22462,9.62569,8.6,-0.35,2.99,2.0
1758075119.26569,1758075119.15995,0.0,0.0,0.0,21.48592,3.55234,8.88085,9.49,-0.98,2.4,2.0
1758075119.2669,1758075119.16995,0.0,0.0,0.0,25.89769,11.00079,8.93814,9.49,-0.98,2.4,2.0
1758075119.28245,1758075119.17995,0.0,0.0,0.0,29.10626,17.58981,8.25059,10.09,-1.09,2.23,2.0
1758075119.29849,1758075119.18995,0.0,0.0,0.0,31.45539,22.11617,8.136,10.09,-1.09,2.23,2.0
1758075119.3008,1758075119.19995,0.0,0.0,0.0,33.86181,25.55392,8.42248,10.11,-0.9,2.4,2.0
1758075119.31569,1758075119.20995,0.0,0.0,0.0,35.00772,24.86637,9.11003,10.11,-0.9,2.4,2.0
1758075119.31676,1758075119.21995,0.0,0.0,0.0,35.3515,20.68378,9.68299,9.68,-0.51,2.64,2.0
1758075119.33254,1758075119.22995,0.0,0.0,0.0,35.12231,15.98552,10.08406,9.68,-0.51,2.64,2.0
1758075119.34879,1758075119.23995,0.0,0.0,0.0,34.72124,12.60507,9.74028,9.45,-0.04,2.73,2.0
1758075119.35161,1758075119.24995,0.0,0.0,0.0,34.32018,9.33921,8.65166,9.3,0.41,2.71,2.0
1758075119.36654,1758075119.25995,0.0,0.0,0.0,34.14828,7.73493,7.04738,9.3,0.41,2.71,2.0
1758075119.36776,1758075119.26995,0.0,0.0,0.0,33.9764,7.62034,4.64096,9.3,0.59,2.53,2.0
1758075119.38261,1758075119.27995,0.0,0.0,0.0,34.26288,8.99544,2.97938,9.3,0.59,2.53,2.0
1758075119.39858,1758075119.28995,0.0,0.0,0.0,34.37747,9.96947,1.43239,9.3,0.43,2.3,2.0
1758075119.39978,1758075119.29995,0.0,0.0,0.0,34.72124,11.00079,0.11459,9.3,0.43,2.3,2.0
1758075119.41483,1758075119.30995,0.0,0.0,0.0,35.00772,11.86023,-1.03132,9.34,0.16,2.18,2.0
1758075119.43085,1758075119.31995,0.0,0.0,0.0,35.2942,11.57375,-1.3178,9.42,-0.05,2.02,2.0
1758075119.43205,1758075119.32995,0.0,0.0,0.0,35.06502,11.22997,-1.20321,9.42,-0.05,2.02,2.0
1758075119.44663,1758075119.33995,0.0,0.0,0.0,35.00772,12.43318,-1.03132,9.6,-0.08,1.95,2.0
1758075119.44807,1758075119.34995,0.0,0.0,0.0,34.60666,20.45459,0.0573,9.6,-0.08,1.95,2.0
1758075119.46286,1758075119.35995,0.0,0.0,0.0,33.86181,28.24682,0.97403,10.33,0.12,2.0,2.0
1758075119.47887,1758075119.36995,0.0,0.0,0.0,33.17426,32.14294,1.71887,10.33,0.12,2.0,2.0
1758075119.48054,1758075119.37995,0.0,0.0,0.0,32.71589,31.11161,2.7502,9.85,0.35,2.17,2.0
1758075119.49695,1758075119.38995,0.0,0.0,0.0,31.91375,24.4653,4.35448,9.0,0.54,1.98,2.0
1758075119.49784,1758075119.39995,0.0,0.0,0.0,30.65324,20.22541,5.15662,9.0,0.54,1.98,2.0
1758075119.51291,1758075119.40995,0.0,0.0,0.0,28.93437,18.90761,5.55769,9.35,0.73,1.81,2.0
1758075119.52899,1758075119.41995,0.0,0.0,0.0,26.52795,22.28806,7.04738,9.35,0.73,1.81,2.0
1758075119.53096,1758075119.42995,0.0,0.0,0.0,24.98096,24.23611,7.73493,9.88,0.81,1.69,2.0
1758075119.54562,1758075119.43995,0.0,0.0,0.0,23.49127,24.4653,8.0787,9.88,0.81,1.69,2.0
1758075119.54713,1758075119.44995,0.0,0.0,0.0,21.31403,23.37668,8.0787,9.54,0.86,1.5,2.0
1758075119.56459,1758075119.45995,0.0,0.0,0.0,17.99088,20.85567,7.39116,9.54,0.86,1.5,2.0
1758075119.58127,1758075119.46995,0.0,0.0,0.0,15.46986,18.62113,6.7609,9.11,0.92,1.03,2.0
1758075119.58306,1758075119.47995,0.0,0.0,0.0,12.89155,15.41257,6.24524,8.77,1.03,0.85,2.0
1758075119.59872,1758075119.48995,0.0,0.0,0.0,10.25595,10.59972,5.78687,8.77,1.03,0.85,2.0
1758075119.60071,1758075119.49995,0.0,0.0,0.0,5.72958,-0.0573,4.98473,8.34,1.1,0.8,2.0
1758075119.6165,1758075119.50995,0.0,0.0,0.0,2.7502,-7.16197,3.89611,8.34,1.1,0.8,2.0
1758075119.62275,1758075119.51995,0.0,0.0,0.0,-0.40107,-10.02676,2.11994,8.6,1.04,0.79,2.0
1758075119.63878,1758075119.52995,0.0,0.0,0.0,-3.26586,-6.47442,1.14592,8.6,1.04,0.79,2.0
1758075119.63971,1758075119.53995,0.0,0.0,0.0,-6.53172,-4.23989,2.46372,9.86,0.82,0.96,2.0
1758075119.6566,1758075119.54995,0.0,0.0,0.0,-9.39651,-29.27814,1.3751,8.42,0.59,1.69,2.0
1758075119.65749,1758075119.55995,0.0,0.0,0.0,-13.00614,-49.15978,1.03132,8.42,0.59,1.69,2.0
1758075119.67281,1758075119.56995,0.0,0.0,0.0,-15.64175,-63.65561,-0.85944,9.61,0.54,2.42,2.0
1758075119.68897,1758075119.57995,0.0,0.0,0.0,-15.92823,-67.03606,-4.92744,9.61,0.54,2.42,2.0
1758075119.69105,1758075119.58995,0.0,0.0,0.0,-13.23533,-61.93674,-8.93814,13.96,-0.37,4.34,2.0
1758075119.7066,1758075119.59995,0.0,0.0,0.0,-8.65166,-55.29043,-13.98017,13.96,-0.37,4.34,2.0
1758075119.70774,1758075119.60995,0.0,0.0,0.0,-1.83346,-46.52417,-20.3973,15.39,-1.77,4.3,2.0
1758075119.72277,1758075119.61995,0.0,0.0,0.0,13.86558,-30.88243,-15.92823,12.01,-2.34,4.23,2.0
1758075119.73903,1758075119.62995,0.0,0.0,0.0,23.37668,-33.46074,-6.18794,12.01,-2.34,4.23,2.0
1758075119.74031,1758075119.63995,0.0,0.0,0.0,27.67386,-45.26366,-4.52637,7.25,-2.07,3.52,2.0
1758075119.75486,1758075119.64995,0.0,0.0,0.0,31.16891,-46.1804,-2.97938,7.25,-2.07,3.52,2.0
1758075119.77107,1758075119.65995,0.0,0.0,0.0,30.36677,-43.65939,-3.60963,9.09,-0.66,4.62,2.0
1758075119.7723,1758075119.66995,0.0,0.0,0.0,27.2155,-40.39353,-5.21392,9.09,-0.66,4.62,2.0
1758075119.78679,1758075119.67995,0.0,0.0,0.0,21.88699,-36.95578,-7.62034,10.24,0.45,4.49,2.0
1758075119.78798,1758075119.68995,0.0,0.0,0.0,11.91752,-33.23156,-10.02676,10.21,0.45,3.56,2.0
1758075119.80403,1758075119.69995,0.0,0.0,0.0,4.92744,-30.48136,-10.19865,10.21,1.45,3.56,2.0
1758075119.82067,1758075119.70995,0.0,0.0,0.0,-1.94806,-28.30412,-9.62569,9.74,1.96,3.15,2.0
1758075119.82183,1758075119.71995,0.0,0.0,0.0,-8.99544,-23.72045,-8.36518,9.74,1.96,3.15,2.0
1758075119.8372,1758075119.72995,0.0,0.0,0.0,-17.87628,-13.5791,-6.24524,10.15,1.82,3.05,2.0
1758075119.83838,1758075119.73995,0.0,0.0,0.0,-22.51724,-6.53172,-5.4431,10.15,1.82,3.05,2.0
1758075119.85308,1758075119.74995,0.0,0.0,0.0,-26.01229,0.11459,-4.81285,10.44,1.32,2.74,2.0
1758075119.86912,1758075119.75995,0.0,0.0,0.0,-28.70519,6.41713,-4.58366,10.44,1.32,2.74,2.0
1758075119.87122,1758075119.76995,0.0,0.0,0.0,-31.2262,15.64175,-5.32851,10.3,0.71,2.42,2.0
1758075119.88593,1758075119.77995,0.0,0.0,0.0,-32.42941,21.7724,-6.70361,10.1,0.12,2.21,2.0
1758075119.88708,1758075119.78995,0.0,0.0,0.0,-33.51803,27.61657,-8.36518,10.1,0.12,2.21,2.0
1758075119.90411,1758075119.79995,0.0,0.0,0.0,-35.00772,33.68992,-10.02676,9.83,-0.37,1.98,2.0
1758075119.921,1758075119.80995,0.0,0.0,0.0,-37.12767,39.24761,-12.71966,9.83,-0.37,1.98,2.0
1758075119.9219,1758075119.81995,0.0,0.0,0.0,-37.92981,41.59674,-13.75099,9.32,-0.66,1.72,2.0
1758075119.9372,1758075119.82995,0.0,0.0,0.0,-38.27358,43.14373,-14.09476,9.32,-0.66,1.72,2.0
1758075119.93841,1758075119.83995,0.0,0.0,0.0,-39.01843,44.11775,-13.34992,9.09,-0.76,1.39,2.0
1758075119.95295,1758075119.84995,0.0,0.0,0.0,-39.13302,45.20637,-11.97482,9.1,-0.75,1.27,2.0
1758075119.96923,1758075119.85995,0.0,0.0,0.0,-39.3622,45.49285,-10.54242,9.1,-0.75,1.27,2.0
1758075119.97014,1758075119.86995,0.0,0.0,0.0,-39.24761,43.77398,-8.76626,8.64,-0.68,1.38,2.0
1758075119.98499,1758075119.87995,0.0,0.0,0.0,-38.90384,40.10705,-6.53172,8.64,-0.68,1.38,2.0
1758075120.001,1758075119.88995,0.0,0.0,0.0,-38.90384,37.29956,-5.95876,8.05,-0.61,1.62,2.0
1758075120.0022,1758075119.89995,0.0,0.0,0.0,-38.44547,34.66395,-6.13065,8.05,-0.61,1.62,2.0
1758075120.01698,1758075119.90995,0.0,0.0,0.0,-37.58603,31.28349,-6.7609,7.87,-0.55,1.98,2.0
1758075120.01924,1758075119.91995,0.0,0.0,0.0,-34.72124,24.4653,-7.79223,8.0,-0.69,2.01,2.0
1758075120.03624,1758075119.92995,0.0,0.0,0.0,-31.28349,19.48057,-7.73493,8.0,-0.69,2.01,2.0
1758075120.03718,1758075119.93995,0.0,0.0,0.0,-27.2155,17.6471,-7.16197,8.44,-1.08,1.43,2.0
1758075120.05396,1758075119.94995,0.0,0.0,0.0,-22.86102,18.73572,-6.41713,8.44,-1.08,1.43,2.0
1758075120.06999,1758075119.95995,0.0,0.0,0.0,-15.69904,20.62648,-4.64096,9.13,-1.6,0.99,2.0
1758075120.07174,1758075119.96995,0.0,0.0,0.0,-10.65701,19.19409,-3.26586,9.13,-1.6,0.99,2.0
1758075120.086,1758075119.97995,0.0,0.0,0.0,-5.4431,15.64175,-1.71887,9.04,-2.07,0.69,2.0
1758075120.08725,1758075119.98995,0.0,0.0,0.0,-0.51566,11.63104,-0.40107,9.04,-2.07,0.69,2.0
1758075120.10333,1758075119.99995,0.0,0.0,0.0,6.53172,-3.03668,0.80214,9.09,-2.37,0.43,2.0
1758075120.11961,1758075120.00995,0.0,0.0,0.0,9.96947,-16.95955,0.74485,8.6,-2.26,0.06,2.0
1758075120.12106,1758075120.01995,0.0,0.0,0.0,13.5218,-23.66316,-0.22918,8.6,-2.26,0.06,2.0
1758075120.13635,1758075120.02995,0.0,0.0,0.0,20.97026,-19.19409,-1.60428,10.31,-2.03,-0.09,2.0
1758075120.13727,1758075120.03995,0.0,0.0,0.0,24.80907,-10.94349,-3.72423,10.31,-2.03,-0.09,2.0
1758075120.15331,1758075120.04995,0.0,0.0,0.0,27.44468,-0.22918,-7.04738,11.3,-1.68,-0.09,2.0
1758075120.17091,1758075120.05995,0.0,0.0,0.0,28.93437,3.89611,-10.48513,11.3,-1.68,-0.09,2.0
1758075120.17236,1758075120.06995,0.0,0.0,0.0,26.87172,-2.7502,-17.58981,10.72,-1.35,0.5,2.0
1758075120.18738,1758075120.07995,0.0,0.0,0.0,23.72045,-41.13837,-20.97026,8.51,-1.15,2.73,2.0
1758075120.1891,1758075120.08995,0.0,0.0,0.0,18.22006,-78.89629,-23.72045,8.51,-1.15,2.73,2.0
1758075120.20418,1758075120.09995,0.0,0.0,0.0,10.08406,-109.03387,-11.86023,11.95,0.26,6.26,2.0
1758075120.22011,1758075120.10995,0.0,0.0,0.0,-4.52637,-118.71685,5.50039,11.95,0.26,6.26,2.0
1758075120.22173,1758075120.11995,0.0,0.0,0.0,-13.12073,-105.71072,13.98017,18.3,3.76,6.51,2.0
1758075120.23851,1758075120.12995,0.0,0.0,0.0,-21.31403,-88.40739,19.42327,18.3,3.76,6.51,2.0
1758075120.24163,1758075120.13995,0.0,0.0,0.0,-30.59595,-76.26069,20.3973,15.36,3.38,2.7,2.0
1758075120.25793,1758075120.14995,0.0,0.0,0.0,-44.40423,-69.27061,16.50119,8.64,1.12,2.93,2.0
1758075120.2764,1758075120.15995,0.0,0.0,0.0,-50.87865,-68.01009,14.03747,8.64,1.12,2.93,2.0
1758075120.27661,1758075120.16995,0.0,0.0,0.0,-55.7488,-62.28051,11.97482,7.28,0.31,3.54,2.0
1758075120.29117,1758075120.17995,0.0,0.0,0.0,-58.67088,-54.02992,10.8289,7.28,0.31,3.54,2.0
1758075120.29173,1758075120.18995,0.0,0.0,0.0,-58.78547,-42.91454,9.4538,8.96,0.14,4.25,2.0
1758075120.30743,1758075120.19995,0.0,0.0,0.0,-56.14987,-36.95578,9.33921,8.96,0.14,4.25,2.0
1758075120.30876,1758075120.20995,0.0,0.0,0.0,-51.85268,-30.76784,9.28192,9.95,0.1,3.72,2.0
1758075120.32336,1758075120.21995,0.0,0.0,0.0,-47.67009,-26.01229,8.25059,9.95,0.1,3.72,2.0
1758075120.34031,1758075120.22995,0.0,0.0,0.0,-43.54479,-17.6471,3.89611,10.31,-0.05,2.98,2.0
1758075120.34119,1758075120.23995,0.0,0.0,0.0,-42.57077,-8.25059,-0.57296,10.31,0.05,2.42,2.0
1758075120.35624,1758075120.24995,0.0,0.0,0.0,-43.14373,2.92208,-5.50039,10.31,0.05,2.42,2.0
1758075120.35739,1758075120.25995,0.0,0.0,0.0,-45.37826,20.16812,-12.204,10.23,0.04,2.18,2.0
1758075120.37349,1758075120.26995,0.0,0.0,0.0,-47.49821,31.62727,-15.75634,10.23,0.04,2.18,2.0
1758075120.38955,1758075120.27995,0.0,0.0,0.0,-49.79003,42.68536,-18.79302,9.96,-0.2,1.91,2.0
1758075120.39128,1758075120.28995,0.0,0.0,0.0,-51.6235,50.93595,-20.79837,9.96,-0.2,1.91,2.0
1758075120.40625,1758075120.29995,0.0,0.0,0.0,-54.71747,59.70221,-21.88699,9.41,-0.23,1.72,2.0
1758075120.40784,1758075120.30995,0.0,0.0,0.0,-56.49364,63.54102,-21.7724,9.12,0.08,1.92,2.0
1758075120.42257,1758075120.31995,0.0,0.0,0.0,-58.15522,65.48907,-21.25674,9.12,0.08,1.92,2.0
1758075120.43831,1758075120.32995,0.0,0.0,0.0,-59.70221,65.43179,-20.22541,8.92,0.58,2.1,2.0
1758075120.44107,1758075120.33995,0.0,0.0,0.0,-61.70755,63.65561,-19.42327,8.92,0.58,2.1,2.0
1758075120.45658,1758075120.34995,0.0,0.0,0.0,-62.79618,61.1346,-19.13679,8.78,0.99,1.9,2.0
1758075120.45757,1758075120.35995,0.0,0.0,0.0,-63.94209,56.83742,-19.25138,8.78,0.99,1.9,2.0
1758075120.47642,1758075120.36995,0.0,0.0,0.0,-65.48907,50.1911,-19.99623,8.46,1.04,1.85,2.0
1758075120.47754,1758075120.37995,0.0,0.0,0.0,-67.43713,40.7946,-21.7151,8.4,0.85,1.64,2.0
1758075120.49664,1758075120.38995,0.0,0.0,0.0,-68.75494,36.03905,-22.74642,8.4,0.85,1.64,2.0
1758075120.50024,1758075120.39995,0.0,0.0,0.0,-70.01544,30.76784,-24.00693,8.56,0.52,1.52,2.0
1758075120.51718,1758075120.40995,0.0,0.0,0.0,-71.39055,24.23611,-24.75178,8.56,0.52,1.52,2.0
1758075120.52877,1758075120.41995,0.0,0.0,0.0,-74.08345,13.75099,-24.92367,8.66,0.22,1.55,2.0
1758075120.52988,1758075120.42995,0.0,0.0,0.0,-76.48987,6.87549,-25.09555,8.66,0.22,1.55,2.0
1758075120.54636,1758075120.43995,0.0,0.0,0.0,-79.64114,3.89611,-25.43933,8.72,0.16,1.38,2.0
1758075120.54838,1758075120.44995,0.0,0.0,0.0,-83.13618,4.29718,-25.43933,8.72,0.16,1.38,2.0
1758075120.58907,1758075120.45995,0.0,0.0,0.0,-85.31342,4.64096,-25.21014,9.28,0.22,1.33,2.0
1758075120.59106,1758075120.46995,0.0,0.0,0.0,-87.43336,2.23454,-24.63719,8.86,0.28,1.29,2.0
1758075120.5917,1758075120.47995,0.0,0.0,0.0,-89.26682,-0.85944,-24.4653,8.86,0.28,1.29,2.0
1758075120.59294,1758075120.48995,0.0,0.0,0.0,-92.01703,-8.93814,-23.31938,8.16,0.46,0.92,2.0
1758075120.63118,1758075120.49995,0.0,0.0,0.0,-93.27753,-15.92823,-22.51724,8.16,0.46,0.92,2.0
1758075120.63216,1758075120.50995,0.0,0.0,0.0,-94.53805,-25.8404,-21.48592,7.59,0.62,0.43,2.0
1758075120.63279,1758075120.51995,0.0,0.0,0.0,-94.59533,-34.49206,-19.76705,7.59,0.62,0.43,2.0
1758075120.63593,1758075120.52995,0.0,0.0,0.0,-94.88181,-46.98254,-17.58981,7.42,0.76,-0.14,2.0
1758075120.63633,1758075120.53995,0.0,0.0,0.0,-96.25692,-54.48829,-16.84496,7.94,0.65,-0.37,2.0
1758075120.65626,1758075120.54995,0.0,0.0,0.0,-98.03308,-53.80074,-14.32395,7.94,0.65,-0.37,2.0
1758075120.65757,1758075120.55995,0.0,0.0,0.0,-98.54874,-24.17882,-13.34992,11.06,0.65,-0.28,2.0
1758075120.67273,1758075120.56995,0.0,0.0,0.0,-101.41353,-22.28806,-13.12073,11.06,0.65,-0.28,2.0
1758075120.68974,1758075120.57995,0.0,0.0,0.0,-105.08047,-34.89313,-15.75634,9.11,0.33,-0.05,2.0
1758075120.71099,1758075120.58995,0.0,0.0,0.0,-106.45556,-44.63341,-18.16276,9.11,0.33,-0.05,2.0
1758075120.712,1758075120.59995,0.0,0.0,0.0,-107.37229,-52.884,-20.68378,8.08,0.49,-1.52,2.0
1758075120.71472,1758075120.60995,0.0,0.0,0.0,-109.14847,-41.25296,-22.40265,10.0,0.36,-0.61,2.0
1758075120.72958,1758075120.61995,0.0,0.0,0.0,-110.29437,-34.95043,-22.34536,10.0,0.36,-0.61,2.0
1758075120.73073,1758075120.62995,0.0,0.0,0.0,-109.66413,-37.12767,-21.48592,11.63,-0.19,3.13,2.0
1758075120.74571,1758075120.63995,0.0,0.0,0.0,-107.83066,-49.50356,-25.09555,11.63,-0.19,3.13,2.0
1758075120.74789,1758075120.64995,0.0,0.0,0.0,-97.11635,-44.8053,-41.99781,17.03,-2.69,4.92,2.0
1758075120.76287,1758075120.65995,0.0,0.0,0.0,-85.14153,-33.63263,-54.02992,17.03,-2.69,4.92,2.0
1758075120.77984,1758075120.66995,0.0,0.0,0.0,-70.53111,-26.64254,-63.19725,19.65,-6.78,3.22,2.0
1758075120.78078,1758075120.67995,0.0,0.0,0.0,-50.2484,-29.8511,-66.06203,19.65,-6.78,3.22,2.0
1758075120.79744,1758075120.68995,0.0,0.0,0.0,-41.48215,-39.64868,-63.59832,10.88,-5.17,2.52,2.0
1758075120.79833,1758075120.69995,0.0,0.0,0.0,-36.03905,-42.85724,-57.46767,6.67,-2.45,3.2,2.0
1758075120.81591,1758075120.70995,0.0,0.0,0.0,-34.37747,-39.13302,-48.70141,6.67,-2.45,3.2,2.0
1758075120.8179,1758075120.71995,0.0,0.0,0.0,-38.73195,-27.84575,-33.9764,9.09,-0.78,4.41,2.0
1758075120.83361,1758075120.72995,0.0,0.0,0.0,-45.83662,-20.3973,-24.00693,9.09,-0.78,4.41,2.0
1758075120.83636,1758075120.73995,0.0,0.0,0.0,-55.11855,-16.10011,-15.35527,10.7,0.77,4.24,2.0
1758075120.85685,1758075120.74995,0.0,0.0,0.0,-65.71826,-13.5791,-7.50575,10.7,0.77,4.24,2.0
1758075120.86104,1758075120.75995,0.0,0.0,0.0,-80.72976,-10.65701,2.00535,11.19,2.18,2.57,2.0
1758075120.87658,1758075120.76995,0.0,0.0,0.0,-88.86576,-4.46907,5.90147,11.77,2.68,1.59,2.0
1758075120.88117,1758075120.77995,0.0,0.0,0.0,-94.70992,5.90147,7.44845,11.77,2.68,1.59,2.0
1758075120.89692,1758075120.78995,0.0,0.0,0.0,-98.54874,17.58981,7.04738,11.99,2.04,0.67,2.0
1758075120.89782,1758075120.79995,0.0,0.0,0.0,-101.92919,33.9764,3.38045,11.99,2.04,0.67,2.0
1758075120.91285,1758075120.80995,0.0,0.0,0.0,-103.07512,41.25296,-0.22918,11.06,0.86,0.55,2.0
1758075120.9297,1758075120.81995,0.0,0.0,0.0,-103.59077,45.55015,-4.29718,11.06,0.86,0.55,2.0
1758075120.93091,1758075120.82995,0.0,0.0,0.0,-103.47618,49.38896,-8.76626,9.54,-0.26,0.56,2.0
1758075120.94588,1758075120.83995,0.0,0.0,0.0,-102.61675,53.17049,-14.66772,8.89,-1.28,0.78,2.0
1758075120.94705,1758075120.84995,0.0,0.0,0.0,-101.24165,54.60288,-17.81899,8.89,-1.28,0.78,2.0
1758075120.96166,1758075120.85995,0.0,0.0,0.0,-98.94981,53.62885,-20.05352,8.67,-1.97,1.2,2.0
1758075120.97871,1758075120.86995,0.0,0.0,0.0,-93.44942,51.73809,-21.02755,8.67,-1.97,1.2,2.0
1758075120.98002,1758075120.87995,0.0,0.0,0.0,-88.06361,48.64412,-19.76705,8.74,-2.37,1.28,2.0
1758075120.99496,1758075120.88995,0.0,0.0,0.0,-81.93298,46.1231,-17.36062,8.74,-2.37,1.28,2.0
1758075120.99749,1758075120.89995,0.0,0.0,0.0,-74.771,44.17505,-14.09476,8.8,-2.61,0.97,2.0
1758075121.01848,1758075120.90995,0.0,0.0,0.0,-62.96807,39.70598,-8.02141,8.8,-2.61,0.97,2.0
1758075121.02448,1758075120.91995,0.0,0.0,0.0,-54.77477,33.40344,-4.1253,8.9,-2.73,0.91,2.0
1758075121.04069,1758075120.92995,0.0,0.0,0.0,-46.06581,27.04361,-0.34377,8.68,-2.68,0.78,2.0
1758075121.04677,1758075120.93995,0.0,0.0,0.0,-37.64333,22.68913,2.7502,8.68,-2.68,0.78,2.0
1758075121.04716,1758075120.94995,0.0,0.0,0.0,-25.8404,22.74642,6.8182,8.98,-2.52,0.84,2.0
1758075121.06399,1758075120.95995,0.0,0.0,0.0,-18.9649,27.33009,8.88085,8.98,-2.52,0.84,2.0
1758075121.07982,1758075120.96995,0.0,0.0,0.0,-13.12073,32.77319,9.5684,9.58,-2.28,1.18,2.0
1758075121.08097,1758075120.97995,0.0,0.0,0.0,-8.25059,35.63798,9.5684,9.58,-2.28,1.18,2.0
1758075121.09611,1758075120.98995,0.0,0.0,0.0,-2.23454,33.74722,8.02141,9.5,-2.04,1.39,2.0
1758075121.09698,1758075120.99995,0.0,0.0,0.0,1.08862,29.62192,6.24524,9.22,-1.91,1.12,2.0
1758075121.11591,1758075121.00995,0.0,0.0,0.0,3.60963,22.51724,4.18259,9.22,-1.91,1.12,2.0
1758075121.11779,1758075121.01995,0.0,0.0,0.0,5.27121,10.25595,1.60428,8.68,-1.68,0.66,2.0
1758075121.13463,1758075121.02995,0.0,0.0,0.0,6.58902,-4.92744,-4.18259,8.68,-1.68,0.66,2.0
1758075121.1364,1758075121.03995,0.0,0.0,0.0,9.39651,-2.11994,-6.99009,8.93,-1.42,0.02,2.0
1758075121.15612,1758075121.04995,0.0,0.0,0.0,11.00079,2.40642,-7.79223,8.93,-1.42,0.02,2.0
1758075121.15732,1758075121.05995,0.0,0.0,0.0,12.204,18.85031,-11.86023,10.64,-1.26,0.16,2.0
1758075121.17212,1758075121.06995,0.0,0.0,0.0,11.51645,34.14828,-14.03747,10.47,-1.26,0.14,2.0
1758075121.17654,1758075121.07995,0.0,0.0,0.0,10.65701,6.18794,-20.85567,10.47,-1.26,0.14,2.0
1758075121.19231,1758075121.08995,0.0,0.0,0.0,12.37589,-34.32018,-20.68378,5.39,-1.09,-0.78,2.0
1758075121.20895,1758075121.09995,0.0,0.0,0.0,16.90226,-78.09415,-12.14671,5.39,-1.09,-0.78,2.0
1758075121.20987,1758075121.10995,0.0,0.0,0.0,16.38659,-79.52654,-10.08406,8.36,-1.58,-1.02,2.0
1758075121.22516,1758075121.11995,0.0,0.0,0.0,14.43854,-75.28666,-9.22462,8.36,-1.58,-1.02,2.0
1758075121.2261,1758075121.12995,0.0,0.0,0.0,10.71431,-77.12012,-6.41713,11.97,-1.56,3.41,2.0
1758075121.24191,1758075121.13995,0.0,0.0,0.0,1.03132,-89.20953,4.69825,11.97,-1.56,6.64,2.0
1758075121.25827,1758075121.14995,0.0,0.0,0.0,-5.72958,-95.34019,15.29797,15.98,-0.23,6.64,2.0
1758075121.25939,1758075121.15995,0.0,0.0,0.0,-13.34992,-93.56402,24.57989,17.22,2.58,3.28,2.0
1758075121.27658,1758075121.16995,0.0,0.0,0.0,-20.45459,-83.76643,28.24682,17.22,2.58,3.28,2.0
1758075121.27756,1758075121.17995,0.0,0.0,0.0,-29.10626,-69.38519,28.01764,11.36,2.6,2.37,2.0
1758075121.29721,1758075121.18995,0.0,0.0,0.0,-32.83048,-63.42643,25.26744,11.36,2.6,2.37,2.0
1758075121.29814,1758075121.19995,0.0,0.0,0.0,-35.00772,-58.4417,21.31403,6.67,1.58,2.91,2.0
1758075121.31295,1758075121.20995,0.0,0.0,0.0,-35.2369,-52.82671,17.13144,6.67,1.58,2.91,2.0
1758075121.32921,1758075121.21995,0.0,0.0,0.0,-31.97105,-41.31026,10.02676,6.43,0.59,3.68,2.0
1758075121.33015,1758075121.22995,0.0,0.0,0.0,-28.70519,-33.46074,5.78687,8.48,-0.38,3.36,2.0
1758075121.34524,1758075121.23995,0.0,0.0,0.0,-25.8404,-27.2155,2.11994,8.48,-0.38,3.36,2.0
1758075121.34612,1758075121.24995,0.0,0.0,0.0,-23.94964,-20.97026,-0.51566,10.51,-0.9,2.69,2.0
1758075121.36201,1758075121.25995,0.0,0.0,0.0,-23.31938,-3.09397,-3.60963,10.51,-0.9,2.69,2.0
1758075121.378,1758075121.26995,0.0,0.0,0.0,-24.17882,12.83425,-5.21392,12.49,-0.71,1.3,2.0
1758075121.37926,1758075121.27995,0.0,0.0,0.0,-26.18417,28.24682,-5.95876,12.49,-0.71,1.3,2.0
1758075121.39444,1758075121.28995,0.0,0.0,0.0,-30.48136,42.57077,-7.33386,12.24,-0.16,1.24,2.0
1758075121.39628,1758075121.29995,0.0,0.0,0.0,-33.34615,57.86874,-7.84952,10.66,0.11,1.44,2.0
1758075121.41232,1758075121.30995,0.0,0.0,0.0,-36.15364,62.62429,-8.136,10.66,0.11,1.44,2.0
1758075121.42931,1758075121.31995,0.0,0.0,0.0,-38.61736,64.28587,-7.67763,9.32,0.3,1.81,2.0
1758075121.43178,1758075121.32995,0.0,0.0,0.0,-42.34158,63.13995,-6.7609,9.32,0.3,1.81,2.0
1758075121.4472,1758075121.33995,0.0,0.0,0.0,-44.9199,60.67623,-6.07335,8.97,0.75,2.29,2.0
1758075121.44896,1758075121.34995,0.0,0.0,0.0,-47.44091,55.92068,-5.50039,8.97,0.75,2.29,2.0
1758075121.46439,1758075121.35995,0.0,0.0,0.0,-49.96192,49.61814,-5.84417,8.83,1.31,2.36,2.0
1758075121.46684,1758075121.36995,0.0,0.0,0.0,-54.02992,39.82057,-7.10468,8.78,1.31,2.08,2.0
1758075121.53229,1758075121.37995,0.0,0.0,0.0,-57.0093,33.80451,-8.59437,8.78,1.63,2.08,2.0
1758075121.53587,1758075121.38995,0.0,0.0,0.0,-60.44705,27.96034,-11.00079,8.93,1.56,1.68,2.0
1758075121.53625,1758075121.39995,0.0,0.0,0.0,-63.65561,19.48057,-12.60507,8.93,1.56,1.68,2.0
1758075121.53827,1758075121.40995,0.0,0.0,0.0,-70.41652,13.06344,-17.18874,9.03,1.24,1.26,2.0
1758075121.53926,1758075121.41995,0.0,0.0,0.0,-74.31263,10.02676,-19.53786,9.03,1.24,1.26,2.0
1758075121.54086,1758075121.42995,0.0,0.0,0.0,-78.15145,8.70896,-22.51724,9.34,1.01,1.01,2.0
1758075121.54156,1758075121.43995,0.0,0.0,0.0,-81.41731,8.88085,-23.66316,9.34,1.01,1.01,2.0
1758075121.55709,1758075121.44995,0.0,0.0,0.0,-85.02695,10.94349,-24.23611,9.84,0.79,0.84,2.0
1758075121.56014,1758075121.45995,0.0,0.0,0.0,-86.34474,11.63104,-23.66316,9.92,0.5,0.76,2.0
1758075121.57694,1758075121.46995,0.0,0.0,0.0,-86.74582,12.43318,-21.94428,9.92,0.5,0.76,2.0
1758075121.58213,1758075121.47995,0.0,0.0,0.0,-86.17285,12.14671,-17.99088,9.54,0.16,0.65,2.0
1758075121.59737,1758075121.48995,0.0,0.0,0.0,-84.56858,9.39651,-14.09476,9.54,0.16,0.65,2.0
1758075121.59991,1758075121.49995,0.0,0.0,0.0,-82.50593,7.39116,-10.25595,9.05,-0.11,0.36,2.0
1758075121.61742,1758075121.50995,0.0,0.0,0.0,-79.81302,1.20321,-6.47442,9.05,-0.11,0.36,2.0
1758075121.61834,1758075121.51995,0.0,0.0,0.0,-75.28666,-16.3293,-2.06265,8.3,-0.42,-0.22,2.0
1758075121.63319,1758075121.52995,0.0,0.0,0.0,-72.42187,-28.76248,0.74485,7.59,-0.58,-0.89,2.0
1758075121.64917,1758075121.53995,0.0,0.0,0.0,-69.78626,-20.22541,2.92208,7.59,-0.58,-0.89,2.0
1758075121.65037,1758075121.54995,0.0,0.0,0.0,-68.23928,10.31324,2.23454,11.74,-0.45,-0.74,2.0
1758075121.66544,1758075121.55995,0.0,0.0,0.0,-62.79618,4.1253,3.32316,11.74,-0.45,-0.74,2.0
1758075121.66679,1758075121.56995,0.0,0.0,0.0,-62.96807,-22.00158,-1.14592,8.73,-0.46,-0.19,2.0
1758075121.68353,1758075121.57995,0.0,0.0,0.0,-61.30648,-38.27358,-3.60963,8.73,-0.46,-0.19,2.0
1758075121.69931,1758075121.58995,0.0,0.0,0.0,-59.47303,-50.2484,-6.47442,8.69,-0.35,-1.85,2.0
1758075121.70045,1758075121.59995,0.0,0.0,0.0,-58.26981,-40.96649,-6.41713,10.81,-0.63,-0.99,2.0
1758075121.71546,1758075121.60995,0.0,0.0,0.0,-57.63955,-32.83048,-4.52637,10.81,-0.63,-0.99,2.0
1758075121.71667,1758075121.61995,0.0,0.0,0.0,-56.55093,-30.48136,-1.66158,11.62,-0.94,1.71,2.0
1758075121.73251,1758075121.62995,0.0,0.0,0.0,-54.60288,-31.56997,0.80214,11.62,-0.94,1.71,2.0
1758075121.74852,1758075121.63995,0.0,0.0,0.0,-46.86795,-40.39353,1.66158,13.12,-1.73,3.11,2.0
1758075121.75025,1758075121.64995,0.0,0.0,0.0,-39.87786,-47.89928,-5.72958,13.12,-1.73,3.11,2.0
1758075121.76555,1758075121.65995,0.0,0.0,0.0,-30.65324,-41.94051,-14.32395,16.45,-3.84,4.93,2.0
1758075121.76644,1758075121.66995,0.0,0.0,0.0,-19.76705,-31.85646,-22.74642,16.45,-3.84,4.93,2.0
1758075121.78227,1758075121.67995,0.0,0.0,0.0,-3.03668,-24.12152,-30.48136,16.49,-4.9,1.96,2.0
1758075121.79907,1758075121.68995,0.0,0.0,0.0,6.58902,-25.49662,-30.82513,9.83,-2.82,1.39,2.0
1758075121.80192,1758075121.69995,0.0,0.0,0.0,13.34992,-33.23156,-29.39274,9.83,-2.82,1.39,2.0
1758075121.82089,1758075121.70995,0.0,0.0,0.0,17.87628,-40.39353,-25.38203,5.97,-0.59,2.09,2.0
1758075121.82168,1758075121.71995,0.0,0.0,0.0,17.53251,-45.03448,-22.40265,5.97,-0.59,2.09,2.0
1758075121.83759,1758075121.72995,0.0,0.0,0.0,14.43854,-45.09178,-19.48057,6.57,0.6,3.29,2.0
1758075121.83879,1758075121.73995,0.0,0.0,0.0,8.99544,-45.77933,-16.95955,6.57,0.6,3.29,2.0
1758075121.85468,1758075121.74995,0.0,0.0,0.0,-3.83882,-45.60744,-15.46986,7.95,1.52,4.47,2.0
1758075121.85633,1758075121.75995,0.0,0.0,0.0,-13.98017,-44.11775,-13.5218,9.42,2.32,3.93,2.0
1758075121.87261,1758075121.76995,0.0,0.0,0.0,-24.12152,-43.60209,-11.22997,9.42,2.32,3.93,2.0
1758075121.88863,1758075121.77995,0.0,0.0,0.0,-33.00237,-42.57077,-8.02141,9.91,2.43,2.63,2.0
1758075121.89113,1758075121.78995,0.0,0.0,0.0,-42.97184,-32.71589,-3.20856,9.91,2.43,2.63,2.0
1758075121.90637,1758075121.79995,0.0,0.0,0.0,-46.86795,-21.02755,-0.97403,10.76,1.83,1.73,2.0
1758075121.9108,1758075121.80995,0.0,0.0,0.0,-49.15978,-8.70896,0.11459,10.76,1.83,1.73,2.0
1758075121.92642,1758075121.81995,0.0,0.0,0.0,-49.67545,3.09397,0.0,10.81,0.95,1.15,2.0
1758075121.92838,1758075121.82995,0.0,0.0,0.0,-49.04519,19.19409,-1.3751,10.02,0.25,0.69,2.0
1758075121.94422,1758075121.83995,0.0,0.0,0.0,-47.89928,28.93437,-3.03668,10.02,0.25,0.69,2.0
1758075121.96069,1758075121.84995,0.0,0.0,0.0,-46.63877,36.7266,-4.81285,9.52,-0.16,0.72,2.0
1758075121.96345,1758075121.85995,0.0,0.0,0.0,-44.63341,42.62806,-6.18794,9.52,-0.16,0.72,2.0
1758075121.97967,1758075121.86995,0.0,0.0,0.0,-41.31026,51.6235,-7.96411,9.61,-0.6,0.91,2.0
1758075121.98245,1758075121.87995,0.0,0.0,0.0,-38.38818,57.23849,-8.36518,9.61,-0.6,0.91,2.0
1758075121.99975,1758075121.88995,0.0,0.0,0.0,-34.66395,61.07731,-7.62034,9.96,-1.24,0.71,2.0
1758075122.0006,1758075121.89995,0.0,0.0,0.0,-30.88243,60.27517,-5.50039,9.96,-1.24,0.71,2.0
1758075122.01619,1758075121.90995,0.0,0.0,0.0,-24.75178,54.88936,-3.09397,9.37,-1.72,0.54,2.0
1758075122.01743,1758075121.91995,0.0,0.0,0.0,-20.05352,52.42564,-0.11459,9.18,-1.85,0.4,2.0
1758075122.03645,1758075121.92995,0.0,0.0,0.0,-14.9542,51.50891,3.26586,9.18,-1.85,0.4,2.0
1758075122.03877,1758075121.93995,0.0,0.0,0.0,-7.04738,50.99325,8.93814,9.54,-1.68,0.58,2.0
1758075122.05678,1758075121.94995,0.0,0.0,0.0,-1.43239,50.47758,12.71966,9.54,-1.68,0.58,2.0
1758075122.06192,1758075121.95995,0.0,0.0,0.0,3.72423,48.9306,16.10011,9.58,-1.4,0.72,2.0
1758075122.07679,1758075121.96995,0.0,0.0,0.0,8.65166,47.03984,18.9649,9.58,-1.4,0.72,2.0
1758075122.08191,1758075121.97995,0.0,0.0,0.0,15.24068,44.11775,21.02755,9.49,-1.13,0.91,2.0
1758075122.0967,1758075121.98995,0.0,0.0,0.0,18.9649,41.76862,21.14215,9.35,-0.95,0.97,2.0
1758075122.10658,1758075121.99995,0.0,0.0,0.0,22.05888,39.70598,20.05352,9.35,-0.95,0.97,2.0
1758075122.10708,1758075122.00995,0.0,0.0,0.0,24.5226,36.15364,17.93358,9.07,-0.84,0.91,2.0
1758075122.16577,1758075122.01995,0.0,0.0,0.0,25.7831,27.04361,13.06344,9.07,-0.84,0.91,2.0
1758075122.16704,1758075122.02995,0.0,0.0,0.0,26.47065,22.97561,8.42248,8.52,-0.75,0.66,2.0
1758075122.16872,1758075122.03995,0.0,0.0,0.0,26.47065,21.60051,3.89611,8.52,-0.75,0.66,2.0
1758075122.17062,1758075122.04995,0.0,0.0,0.0,27.10091,17.93358,-0.57296,8.94,-0.72,0.3,2.0
1758075122.17221,1758075122.05995,0.0,0.0,0.0,28.41871,15.69904,-4.64096,9.43,-0.76,-0.14,2.0
1758075122.17393,1758075122.06995,0.0,0.0,0.0,28.36141,15.24068,-6.18794,9.43,-0.76,-0.14,2.0
1758075122.18963,1758075122.07995,0.0,0.0,0.0,27.44468,21.7724,-8.70896,10.6,-0.56,-0.29,2.0
1758075122.19159,1758075122.08995,0.0,0.0,0.0,25.21014,24.35071,-10.08406,10.6,-0.56,-0.29,2.0
1758075122.20692,1758075122.09995,0.0,0.0,0.0,24.4653,2.6929,-14.83961,9.9,-0.34,-0.17,2.0
1758075122.20782,1758075122.10995,0.0,0.0,0.0,23.72045,-35.2942,-11.57375,9.9,-0.34,-0.17,2.0
1758075122.22527,1758075122.11995,0.0,0.0,0.0,23.26209,-72.19269,-5.15662,6.6,-0.3,-1.39,2.0
1758075122.24144,1758075122.12995,0.0,0.0,0.0,25.8404,-81.5892,4.52637,6.6,-0.3,-1.39,2.0
1758075122.24532,1758075122.13995,0.0,0.0,0.0,27.84575,-76.20339,8.99544,9.64,-0.84,-0.39,2.0
1758075122.26145,1758075122.14995,0.0,0.0,0.0,28.76248,-71.79161,13.12073,12.49,-0.63,2.43,2.0
1758075122.26445,1758075122.15995,0.0,0.0,0.0,27.04361,-73.68237,17.87628,12.49,-0.63,2.43,2.0
1758075122.27996,1758075122.16995,0.0,0.0,0.0,18.44924,-90.52733,31.79916,15.84,0.99,5.44,2.0
1758075122.28086,1758075122.17995,0.0,0.0,0.0,10.02676,-92.53268,41.13837,15.84,0.99,5.44,2.0
1758075122.29591,1758075122.18995,0.0,0.0,0.0,0.0,-89.55331,47.44091,18.26,3.57,5.04,2.0
1758075122.29882,1758075122.19995,0.0,0.0,0.0,-8.76626,-84.51128,51.79538,18.26,3.57,5.04,2.0
1758075122.35438,1758075122.20995,0.0,0.0,0.0,-19.25138,-73.96885,50.99325,12.89,2.8,2.75,2.0
1758075122.35614,1758075122.21995,0.0,0.0,0.0,-23.26209,-71.27596,48.30034,6.76,0.29,2.76,2.0
1758075122.35737,1758075122.22995,0.0,0.0,0.0,-24.86637,-70.53111,44.11775,6.76,0.29,2.76,2.0
1758075122.35891,1758075122.23995,0.0,0.0,0.0,-24.12152,-68.75494,39.13302,5.15,-0.81,4.0,2.0
1758075122.36049,1758075122.24995,0.0,0.0,0.0,-17.93358,-59.70221,29.9084,5.15,-0.81,4.0,2.0
1758075122.36115,1758075122.25995,0.0,0.0,0.0,-11.17268,-52.65482,22.68913,7.49,-1.45,4.67,2.0
1758075122.377,1758075122.26995,0.0,0.0,0.0,-3.83882,-44.46153,15.24068,7.49,-1.45,4.67,2.0
1758075122.37831,1758075122.27995,0.0,0.0,0.0,3.66693,-36.7266,8.99544,9.66,-1.89,3.79,2.0
1758075122.39543,1758075122.28995,0.0,0.0,0.0,12.2613,-22.68913,0.45837,10.6,-1.8,1.9,2.0
1758075122.41081,1758075122.29995,0.0,0.0,0.0,15.64175,-8.30789,-3.49504,10.6,-1.8,1.9,2.0
1758075122.41197,1758075122.30995,0.0,0.0,0.0,17.58981,9.4538,-5.27121,11.78,-1.28,0.67,2.0
1758075122.43189,1758075122.31995,0.0,0.0,0.0,17.87628,28.41871,-5.78687,11.78,-1.28,0.67,2.0
1758075122.43708,1758075122.32995,0.0,0.0,0.0,16.55848,50.64947,-5.09932,11.67,-0.82,0.19,2.0
1758075122.43743,1758075122.33995,0.0,0.0,0.0,15.58445,59.70221,-2.92208,11.67,-0.82,0.19,2.0
1758075122.45557,1758075122.34995,0.0,0.0,0.0,14.78231,66.11933,-0.40107,10.04,-0.82,0.18,2.0
1758075122.45677,1758075122.35995,0.0,0.0,0.0,13.98017,73.96885,3.66693,10.04,-0.82,0.18,2.0
1758075122.47305,1758075122.36995,0.0,0.0,0.0,13.40721,77.4639,5.61499,9.54,-0.84,0.21,2.0
1758075122.48999,1758075122.37995,0.0,0.0,0.0,12.83425,80.1568,7.50575,9.61,-0.38,0.64,2.0
1758075122.49104,1758075122.38995,0.0,0.0,0.0,11.80293,82.39134,9.05273,9.61,-0.38,0.64,2.0
1758075122.50583,1758075122.39995,0.0,0.0,0.0,9.28192,82.90699,9.33921,9.61,0.27,0.87,2.0
1758075122.50704,1758075122.40995,0.0,0.0,0.0,7.50575,81.18813,8.65166,9.61,0.27,0.87,2.0
1758075122.52598,1758075122.41995,0.0,0.0,0.0,4.81285,77.86497,6.18794,9.06,0.57,0.93,2.0
1758075122.52697,1758075122.42995,0.0,0.0,0.0,2.11994,72.0208,4.23989,9.06,0.57,0.93,2.0
1758075122.5449,1758075122.43995,0.0,0.0,0.0,-3.55234,66.06203,-1.3751,8.97,0.68,0.97,2.0
1758075122.56196,1758075122.44995,0.0,0.0,0.0,-8.0787,61.76485,-4.64096,9.22,0.76,1.0,2.0
1758075122.56603,1758075122.45995,0.0,0.0,0.0,-12.77696,57.75415,-8.25059,9.22,0.76,1.0,2.0
1758075122.582,1758075122.46995,0.0,0.0,0.0,-17.53251,53.28508,-11.17268,9.25,0.7,1.01,2.0
1758075122.58686,1758075122.47995,0.0,0.0,0.0,-24.00693,45.72203,-14.09476,9.25,0.7,1.01,2.0
1758075122.58941,1758075122.48995,0.0,0.0,0.0,-28.36141,41.08107,-15.69904,9.03,0.64,1.01,2.0
1758075122.60715,1758075122.49995,0.0,0.0,0.0,-32.25753,38.15899,-15.98552,9.03,0.64,1.01,2.0
1758075122.60969,1758075122.50995,0.0,0.0,0.0,-35.58068,35.06502,-15.87093,9.01,0.64,0.91,2.0
1758075122.62521,1758075122.51995,0.0,0.0,0.0,-39.24761,26.18417,-13.5218,8.13,0.63,0.94,2.0
1758075122.62853,1758075122.52995,0.0,0.0,0.0,-41.08107,17.47521,-11.45916,8.13,0.63,0.94,2.0
1758075122.64509,1758075122.53995,0.0,0.0,0.0,-42.57077,6.13065,-8.88085,7.32,0.84,0.64,2.0
1758075122.66123,1758075122.54995,0.0,0.0,0.0,-44.17505,-7.73493,-5.4431,7.32,0.84,0.64,2.0
1758075122.66217,1758075122.55995,0.0,0.0,0.0,-45.83662,-26.41335,-1.83346,7.12,0.93,0.09,2.0
1758075122.70203,1758075122.56995,0.0,0.0,0.0,-47.32632,-15.98552,-0.40107,7.12,0.93,0.09,2.0
1758075122.70607,1758075122.57995,0.0,0.0,0.0,-50.53488,6.07335,-1.77617,10.88,1.2,0.26,2.0
1758075122.7559,1758075122.58995,0.0,0.0,0.0,-47.09713,4.98473,3.09397,10.88,1.2,0.26,2.0
1758075122.76184,1758075122.59995,0.0,0.0,0.0,-51.6235,-21.42862,-3.49504,11.3,0.86,0.54,2.0
1758075122.76656,1758075122.60995,0.0,0.0,0.0,-50.59217,-33.63263,-4.64096,9.81,0.55,-0.14,2.0
1758075122.76851,1758075122.61995,0.0,0.0,0.0,-48.24305,-40.62271,-6.70361,9.81,0.55,-0.14,2.0
1758075122.77235,1758075122.62995,0.0,0.0,0.0,-47.78468,-31.39809,-7.50575,11.55,0.14,-0.95,2.0
1758075122.77723,1758075122.63995,0.0,0.0,0.0,-47.26902,-26.69983,-6.7609,11.55,0.14,-0.95,2.0
1758075122.79717,1758075122.64995,0.0,0.0,0.0,-46.1231,-26.18417,-5.4431,11.56,-0.49,0.64,2.0
1758075122.79799,1758075122.65995,0.0,0.0,0.0,-43.54479,-31.2262,-4.35448,11.56,-0.49,0.64,2.0
1758075122.80024,1758075122.66995,0.0,0.0,0.0,-35.69527,-46.86795,-6.99009,12.14,-1.21,3.31,2.0
1758075122.80062,1758075122.67995,0.0,0.0,0.0,-27.78845,-56.78012,-14.66772,15.16,-3.31,5.59,2.0
1758075122.80243,1758075122.68995,0.0,0.0,0.0,-17.87628,-56.66553,-24.17882,15.16,-3.31,5.59,2.0
1758075122.80529,1758075122.69995,0.0,0.0,0.0,-7.10468,-50.99325,-31.79916,16.67,-5.37,4.28,2.0
1758075122.82139,1758075122.70995,0.0,0.0,0.0,8.30789,-40.68,-37.47144,16.67,-5.37,4.28,2.0
1758075122.82182,1758075122.71995,0.0,0.0,0.0,16.50119,-40.96649,-36.55471,11.22,-3.67,2.25,2.0
1758075122.84165,1758075122.72995,0.0,0.0,0.0,22.86102,-48.9879,-34.14828,11.22,-3.67,2.25,2.0
1758075122.84679,1758075122.73995,0.0,0.0,0.0,27.33009,-57.41038,-28.36141,5.89,-1.22,2.31,2.0
1758075122.84841,1758075122.74995,0.0,0.0,0.0,30.13758,-65.71826,-24.00693,5.32,-0.03,3.1,2.0
1758075122.86735,1758075122.75995,0.0,0.0,0.0,28.99167,-68.23928,-20.68378,5.32,-0.03,3.1,2.0
1758075122.87102,1758075122.76995,0.0,0.0,0.0,26.06958,-66.11933,-17.87628,7.17,0.56,3.88,2.0
1758075122.88718,1758075122.77995,0.0,0.0,0.0,17.99088,-58.72818,-13.75099,7.17,0.56,3.88,2.0
1758075122.8881,1758075122.78995,0.0,0.0,0.0,10.59972,-53.97263,-11.45916,9.37,1.18,3.98,2.0
1758075122.90578,1758075122.79995,0.0,0.0,0.0,2.92208,-48.12846,-8.36518,9.37,1.18,3.98,2.0
1758075122.90697,1758075122.80995,0.0,0.0,0.0,-4.18259,-41.42485,-4.81285,10.33,1.6,2.46,2.0
1758075122.92396,1758075122.81995,0.0,0.0,0.0,-12.49048,-26.69983,0.34377,10.33,1.6,1.24,2.0
1758075122.92868,1758075122.82995,0.0,0.0,0.0,-15.92823,-12.43318,2.92208,10.83,1.36,1.24,2.0
1758075122.94444,1758075122.83995,0.0,0.0,0.0,-18.22006,2.23454,4.35448,11.27,0.67,0.75,2.0
1758075122.94618,1758075122.84995,0.0,0.0,0.0,-19.19409,16.38659,4.81285,11.27,0.67,0.75,2.0
1758075122.96576,1758075122.85995,0.0,0.0,0.0,-19.25138,34.66395,3.03668,10.53,0.14,0.62,2.0
1758075122.98745,1758075122.86995,0.0,0.0,0.0,-18.62113,44.51882,1.14592,10.53,0.14,0.62,2.0
1758075123.03122,1758075122.87995,0.0,0.0,0.0,-18.44924,53.17049,-1.3178,9.84,-0.02,0.82,2.0
1758075123.03156,1758075122.88995,0.0,0.0,0.0,-17.53251,59.81679,-3.60963,9.84,-0.02,0.82,2.0
1758075123.0367,1758075122.89995,0.0,0.0,0.0,-15.0115,66.34852,-6.8182,9.56,-0.18,1.18,2.0
1758075123.0375,1758075122.90995,0.0,0.0,0.0,-12.89155,68.98412,-7.62034,9.12,-0.64,1.04,2.0
1758075123.04133,1758075122.91995,0.0,0.0,0.0,-10.8289,68.58305,-8.0787,9.12,-0.64,1.04,2.0
1758075123.04182,1758075122.92994,0.0,0.0,0.0,-8.65166,64.85883,-7.96411,8.42,-1.17,0.85,2.0
1758075123.04604,1758075122.93994,0.0,0.0,0.0,-4.69825,59.01466,-6.70361,8.42,-1.17,0.85,2.0
1758075123.04671,1758075122.94994,0.0,0.0,0.0,-1.48969,57.63955,-5.09932,8.64,-1.63,0.57,2.0
1758075123.06679,1758075122.95994,0.0,0.0,0.0,2.29183,57.75415,-2.29183,8.64,-1.63,0.57,2.0
1758075123.077,1758075122.96994,0.0,0.0,0.0,8.42248,58.09792,3.03668,9.49,-1.75,0.51,2.0
1758075123.07801,1758075122.97994,0.0,0.0,0.0,13.00614,55.6915,7.39116,9.71,-1.55,0.71,2.0
1758075123.09999,1758075122.98994,0.0,0.0,0.0,17.36062,52.9986,11.51645,9.71,-1.55,0.71,2.0
1758075123.10245,1758075122.99994,0.0,0.0,0.0,21.42862,49.79003,15.41257,9.54,-1.25,0.82,2.0
1758075123.12076,1758075123.00994,0.0,0.0,0.0,27.33009,46.1231,19.53786,9.54,-1.25,0.82,2.0
1758075123.12599,1758075123.01994,0.0,0.0,0.0,30.88243,46.81066,20.68378,9.44,-0.98,0.76,2.0
1758075123.12637,1758075123.02994,0.0,0.0,0.0,33.86181,47.38361,20.3973,9.44,-0.98,0.76,2.0
1758075123.14653,1758075123.03994,0.0,0.0,0.0,36.15364,46.81066,18.90761,9.29,-0.8,0.69,2.0
1758075123.15122,1758075123.04994,0.0,0.0,0.0,38.27358,39.87786,14.09476,8.66,-0.74,0.7,2.0
1758075123.16662,1758075123.05994,0.0,0.0,0.0,39.01843,29.73651,9.85487,8.66,-0.74,0.7,2.0
1758075123.16852,1758075123.06994,0.0,0.0,0.0,39.01843,13.69369,4.92744,7.75,-0.67,0.15,2.0
1758075123.1868,1758075123.07994,0.0,0.0,0.0,38.1017,-1.03132,-0.51566,7.75,-0.67,0.15,2.0
1758075123.18883,1758075123.08994,0.0,0.0,0.0,37.47144,-10.19865,-7.44845,8.15,-0.61,-0.71,2.0
1758075123.23197,1758075123.09994,0.0,0.0,0.0,37.01308,-9.74028,-10.02676,8.15,-0.61,-0.71,2.0
1758075123.23689,1758075123.10994,0.0,0.0,0.0,37.01308,-12.71966,-9.91217,9.48,-0.52,-0.51,2.0
1758075123.23941,1758075123.11994,0.0,0.0,0.0,36.38282,-2.7502,-9.28192,9.48,-0.52,-0.51,2.0
1758075123.24194,1758075123.12994,0.0,0.0,0.0,32.42941,8.30789,-8.30789,10.99,-0.36,-0.64,2.0
1758075123.24593,1758075123.13994,0.0,0.0,0.0,28.59059,7.79223,-8.30789,10.92,0.2,0.01,2.0
1758075123.24731,1758075123.14994,0.0,0.0,0.0,28.64789,-25.15285,-6.70361,10.92,0.2,0.01,2.0
1758075123.26348,1758075123.15994,0.0,0.0,0.0,32.83048,-56.14987,0.85944,7.12,0.0,-1.12,2.0
1758075123.2671,1758075123.16994,0.0,0.0,0.0,35.40879,-83.25077,9.05273,7.12,0.0,-1.12,2.0
1758075123.28689,1758075123.17994,0.0,0.0,0.0,36.61201,-80.32869,14.61043,10.7,-0.64,1.39,2.0
1758075123.28888,1758075123.18994,0.0,0.0,0.0,34.77854,-79.41196,19.53786,10.7,-0.64,1.39,2.0
1758075123.30571,1758075123.19994,0.0,0.0,0.0,27.2155,-97.17365,35.06502,15.12,0.5,4.69,2.0
1758075123.30662,1758075123.20994,0.0,0.0,0.0,19.13679,-104.16373,46.75336,18.86,3.35,6.96,2.0
1758075123.32149,1758075123.21994,0.0,0.0,0.0,9.28192,-102.27297,53.68615,18.86,3.35,6.96,2.0
1758075123.34134,1758075123.22994,0.0,0.0,0.0,0.45837,-97.05905,57.12389,14.53,3.18,3.17,2.0
1758075123.34638,1758075123.23994,0.0,0.0,0.0,-11.22997,-80.0995,54.77477,14.53,3.18,3.17,2.0
1758075123.34677,1758075123.24994,0.0,0.0,0.0,-15.92823,-72.70835,51.50891,8.01,0.85,3.92,2.0
1758075123.36571,1758075123.25994,0.0,0.0,0.0,-18.16276,-68.52576,46.06581,8.01,0.85,3.92,2.0
1758075123.36875,1758075123.26994,0.0,0.0,0.0,-17.13144,-64.57235,40.39353,5.3,-0.39,4.55,2.0
1758075123.38695,1758075123.27994,0.0,0.0,0.0,-8.99544,-55.00395,28.93437,7.14,-1.42,4.79,2.0
1758075123.38829,1758075123.28994,0.0,0.0,0.0,-1.83346,-46.52417,19.59516,7.14,-1.42,4.79,2.0
1758075123.40436,1758075123.29994,0.0,0.0,0.0,6.07335,-40.96649,10.54242,9.24,-2.24,3.19,2.0
1758075123.40743,1758075123.30994,0.0,0.0,0.0,13.17803,-33.40344,2.06265,9.24,-2.24,3.19,2.0
1758075123.42661,1758075123.31994,0.0,0.0,0.0,21.94428,-12.37589,-7.33386,10.74,-2.31,1.36,2.0
1758075123.4366,1758075123.32994,0.0,0.0,0.0,25.7831,7.16197,-10.8862,10.74,-2.31,1.36,2.0
1758075123.43697,1758075123.33994,0.0,0.0,0.0,27.96034,27.67386,-12.77696,12.16,-1.86,-0.07,2.0
1758075123.45987,1758075123.34994,0.0,0.0,0.0,28.41871,50.1911,-13.46451,12.16,-1.86,-0.07,2.0
1758075123.46349,1758075123.35994,0.0,0.0,0.0,28.13223,66.5204,-12.2613,11.75,-1.44,-0.33,2.0
1758075123.47883,1758075123.36994,0.0,0.0,0.0,31.51268,76.43258,-8.93814,10.26,-1.18,0.26,2.0
1758075123.48137,1758075123.37994,0.0,0.0,0.0,35.58068,85.54259,-7.04738,10.26,-1.18,0.26,2.0
1758075123.49689,1758075123.38994,0.0,0.0,0.0,40.33623,92.70457,-1.43239,9.94,-1.42,0.98,2.0
1758075123.50195,1758075123.39994,0.0,0.0,0.0,41.59674,93.04835,3.03668,9.94,-1.42,0.98,2.0
1758075123.51663,1758075123.40994,0.0,0.0,0.0,40.33623,91.21489,7.16197,8.98,-0.62,0.56,2.0
1758075123.5266,1758075123.41994,0.0,0.0,0.0,37.58603,88.00632,10.94349,8.98,-0.62,0.56,2.0
1758075123.52718,1758075123.42994,0.0,0.0,0.0,31.28349,82.16215,14.20935,8.52,0.37,1.14,2.0
1758075123.54578,1758075123.43994,0.0,0.0,0.0,26.24147,78.839,14.49583,8.61,1.21,1.56,2.0
1758075123.54695,1758075123.44994,0.0,0.0,0.0,20.51189,75.63043,12.54778,8.61,1.21,1.56,2.0
1758075123.56449,1758075123.45994,0.0,0.0,0.0,15.0115,69.3279,10.65701,8.83,1.66,1.56,2.0
1758075123.56619,1758075123.46994,0.0,0.0,0.0,4.92744,63.59832,2.92208,8.83,1.66,1.56,2.0
1758075123.58568,1758075123.47994,0.0,0.0,0.0,-2.00535,58.90006,-1.83346,9.08,1.79,1.58,2.0
1758075123.58855,1758075123.48994,0.0,0.0,0.0,-8.59437,54.66018,-6.8182,9.08,1.79,1.58,2.0
1758075123.60554,1758075123.49994,0.0,0.0,0.0,-14.78231,50.59217,-10.8862,9.15,1.67,1.47,2.0
1758075123.60645,1758075123.50994,0.0,0.0,0.0,-23.89234,44.63341,-15.58445,9.16,1.46,1.49,2.0
1758075123.62191,1758075123.51994,0.0,0.0,0.0,-29.04896,41.08107,-17.18874,9.16,1.46,1.49,2.0
1758075123.64058,1758075123.52994,0.0,0.0,0.0,-33.23156,34.09099,-17.18874,9.06,1.26,1.19,2.0
1758075123.64272,1758075123.53994,0.0,0.0,0.0,-37.12767,24.98096,-15.92823,9.06,1.26,1.19,2.0
1758075123.6585,1758075123.54994,0.0,0.0,0.0,-41.59674,5.90147,-12.204,8.17,1.23,0.82,2.0
1758075123.65998,1758075123.55994,0.0,0.0,0.0,-44.11775,-9.96947,-9.39651,8.17,1.23,0.82,2.0
1758075123.67473,1758075123.56994,0.0,0.0,0.0,-45.49285,-29.67921,-6.41713,7.36,1.09,0.08,2.0
1758075123.68232,1758075123.57994,0.0,0.0,0.0,-47.15443,-44.00316,-1.14592,7.36,1.09,0.08,2.0
1758075123.69882,1758075123.58994,0.0,0.0,0.0,-49.67545,-31.11161,-3.38045,8.25,1.02,-0.47,2.0
1758075123.70072,1758075123.59994,0.0,0.0,0.0,-50.01921,-13.34992,-0.85944,11.82,0.85,-0.26,2.0
1758075123.7168,1758075123.60994,0.0,0.0,0.0,-47.38361,-17.58981,2.97938,11.82,0.85,-0.26,2.0
1758075123.7257,1758075123.61994,0.0,0.0,0.0,-49.56085,-53.28508,-5.09932,8.64,0.58,0.0,2.0
1758075123.72628,1758075123.62994,0.0,0.0,0.0,-48.9879,-61.59297,-6.41713,8.64,0.58,0.0,2.0
1758075123.74193,1758075123.63994,0.0,0.0,0.0,-49.21708,-68.35387,-9.91217,9.65,0.69,-1.22,2.0
1758075123.75985,1758075123.64994,0.0,0.0,0.0,-47.78468,-70.18733,-12.77696,9.65,0.69,-1.22,2.0
1758075123.76427,1758075123.65994,0.0,0.0,0.0,-43.02913,-81.70379,-22.11617,11.51,0.1,2.55,2.0
1758075123.77986,1758075123.66994,0.0,0.0,0.0,-37.01308,-86.05827,-35.00772,16.02,-2.55,6.08,2.0
1758075123.81231,1758075123.67994,0.0,0.0,0.0,-26.75713,-80.78706,-48.9306,16.02,-2.55,6.08,2.0
1758075123.8159,1758075123.68994,0.0,0.0,0.0,-14.49583,-68.01009,-59.41573,19.33,-6.55,5.39,2.0
1758075123.81805,1758075123.69994,0.0,0.0,0.0,4.1253,-54.60288,-64.74423,19.33,-6.55,5.39,2.0
1758075123.8185,1758075123.70994,0.0,0.0,0.0,12.49048,-57.86874,-64.74423,11.35,-4.76,3.07,2.0
1758075123.82052,1758075123.71994,0.0,0.0,0.0,18.50654,-61.87944,-61.30648,11.35,-4.76,3.07,2.0
1758075123.83611,1758075123.72994,0.0,0.0,0.0,22.28806,-65.43179,-56.20716,5.18,-2.26,3.21,2.0
1758075123.83734,1758075123.73994,0.0,0.0,0.0,22.40265,-61.76485,-47.44091,6.27,-0.92,4.69,2.0
1758075123.85584,1758075123.74994,0.0,0.0,0.0,18.79302,-53.74345,-40.10705,6.27,-0.92,4.69,2.0
1758075123.85708,1758075123.75994,0.0,0.0,0.0,12.49048,-46.46688,-31.11161,9.6,0.45,4.97,2.0
1758075123.87216,1758075123.76994,0.0,0.0,0.0,3.83882,-42.28429,-20.45459,9.6,0.45,4.97,2.0
1758075123.88818,1758075123.77994,0.0,0.0,0.0,-9.4538,-37.29956,-3.20856,11.03,1.58,3.22,2.0
1758075123.88953,1758075123.78994,0.0,0.0,0.0,-16.67307,-28.93437,6.7609,11.03,1.58,3.22,2.0
1758075123.9063,1758075123.79994,0.0,0.0,0.0,-22.51724,-15.98552,14.15206,12.1,1.91,1.59,2.0
1758075123.90845,1758075123.80994,0.0,0.0,0.0,-28.59059,5.61499,19.76705,12.1,1.91,1.59,2.0
1758075123.92507,1758075123.81994,0.0,0.0,0.0,-31.39809,18.85031,19.76705,11.94,1.71,0.68,2.0
1758075123.99257,1758075123.82994,0.0,0.0,0.0,-33.68992,30.88243,17.93358,10.55,1.22,0.54,2.0
1758075123.99292,1758075123.83994,0.0,0.0,0.0,-35.58068,41.99781,14.61043,10.55,1.22,0.54,2.0
1758075123.99628,1758075123.84994,0.0,0.0,0.0,-37.92981,54.3164,7.44845,9.33,0.62,0.57,2.0
1758075123.99661,1758075123.85994,0.0,0.0,0.0,-38.78925,59.75951,2.92208,9.33,0.62,0.57,2.0
1758075124.00005,1758075123.86994,0.0,0.0,0.0,-39.4195,63.8275,-1.43239,8.58,0.0,0.91,2.0
1758075124.00167,1758075123.87994,0.0,0.0,0.0,-39.19032,67.55173,-4.92744,8.58,0.0,0.91,2.0
1758075124.00204,1758075123.88994,0.0,0.0,0.0,-36.49741,71.04677,-9.22462,8.69,-0.86,0.99,2.0
1758075124.00752,1758075123.89994,0.0,0.0,0.0,-33.40344,71.39055,-10.54242,8.68,-1.72,1.17,2.0
1758075124.01006,1758075123.90994,0.0,0.0,0.0,-28.87707,70.01544,-10.71431,8.68,-1.72,1.17,2.0
1758075124.02721,1758075123.91994,0.0,0.0,0.0,-23.60586,66.635,-9.33921,8.33,-2.36,1.21,2.0
1758075124.029,1758075123.92994,0.0,0.0,0.0,-14.83961,57.58226,-6.53172,8.33,-2.36,1.21,2.0
1758075124.04585,1758075123.93994,0.0,0.0,0.0,-8.25059,52.48294,-3.60963,8.08,-2.66,1.16,2.0
1758075124.04682,1758075123.94994,0.0,0.0,0.0,-0.97403,48.8733,0.0,8.08,-2.66,1.16,2.0
1758075124.06548,1758075123.95994,0.0,0.0,0.0,6.70361,45.77933,3.83882,8.58,-2.63,1.19,2.0
1758075124.07076,1758075123.96994,0.0,0.0,0.0,18.85031,41.36755,9.4538,8.74,-2.31,1.01,2.0
1758075124.08607,1758075123.97994,0.0,0.0,0.0,26.41335,41.76862,12.77696,8.74,-2.31,1.01,2.0
1758075124.08727,1758075123.98994,0.0,0.0,0.0,33.51803,43.77398,14.83961,9.11,-1.87,0.75,2.0
1758075124.10205,1758075123.99994,0.0,0.0,0.0,39.01843,44.11775,15.92823,9.11,-1.87,0.75,2.0
1758075124.11044,1758075124.00994,0.0,0.0,0.0,45.83662,39.13302,15.41257,8.96,-1.51,0.62,2.0
1758075124.17147,1758075124.01994,0.0,0.0,0.0,48.9306,29.22085,13.98017,8.96,-1.51,0.62,2.0
1758075124.17349,1758075124.02994,0.0,0.0,0.0,50.99325,13.23533,11.28727,8.42,-1.18,0.21,2.0
1758075124.17629,1758075124.03994,0.0,0.0,0.0,52.65482,-4.0107,4.98473,8.42,-1.18,0.21,2.0
1758075124.17747,1758075124.04994,0.0,0.0,0.0,53.39967,-7.44845,0.51566,8.44,-0.95,-0.43,2.0
1758075124.18212,1758075124.05994,0.0,0.0,0.0,53.74345,-10.71431,-2.23454,9.75,-0.84,-0.3,2.0
1758075124.19157,1758075124.06994,0.0,0.0,0.0,53.74345,-7.21927,-3.49504,9.75,-0.84,-0.3,2.0
1758075124.19194,1758075124.07994,0.0,0.0,0.0,48.75871,3.60963,-6.41713,11.14,-0.5,-0.41,2.0
1758075124.19474,1758075124.08994,0.0,0.0,0.0,43.20102,7.50575,-7.67763,11.14,-0.5,-0.41,2.0
1758075124.19693,1758075124.09994,0.0,0.0,0.0,39.53409,-10.59972,-11.91752,10.71,0.26,-0.16,2.0
1758075124.21654,1758075124.10994,0.0,0.0,0.0,39.13302,-44.11775,-8.70896,10.71,0.26,-0.16,2.0
1758075124.22631,1758075124.11994,0.0,0.0,0.0,40.50812,-87.66255,1.43239,6.92,0.31,-1.93,2.0
1758075124.22689,1758075124.12994,0.0,0.0,0.0,39.87786,-85.31342,5.84417,9.96,-0.17,-1.37,2.0
1758075124.24643,1758075124.13994,0.0,0.0,0.0,41.36755,-74.02615,8.25059,9.96,-0.17,-1.37,2.0
1758075124.2475,1758075124.14994,0.0,0.0,0.0,41.08107,-63.65561,8.59437,12.08,-0.02,1.23,2.0
1758075124.26429,1758075124.15994,0.0,0.0,0.0,34.89313,-73.16672,9.05273,12.08,-0.02,1.23,2.0
1758075124.26678,1758075124.16994,0.0,0.0,0.0,27.2155,-91.043,14.43854,12.62,0.39,4.54,2.0
1758075124.28245,1758075124.17994,0.0,0.0,0.0,18.90761,-103.41889,24.35071,12.62,0.39,4.54,2.0
1758075124.28737,1758075124.18994,0.0,0.0,0.0,8.65166,-106.34097,36.49741,16.53,1.96,6.67,2.0
1758075124.29692,1758075124.19994,0.0,0.0,0.0,-5.4431,-96.4861,54.08722,15.94,3.18,5.24,2.0
1758075124.31646,1758075124.20994,0.0,0.0,0.0,-12.204,-86.11556,61.42108,15.94,3.18,5.24,2.0
1758075124.31743,1758075124.21994,0.0,0.0,0.0,-16.38659,-77.06283,65.03072,9.09,2.01,4.63,2.0
1758075124.3373,1758075124.22994,0.0,0.0,0.0,-19.13679,-68.35387,66.40582,9.09,2.01,4.63,2.0
1758075124.35836,1758075124.23994,0.0,0.0,0.0,-18.79302,-58.78547,62.39511,6.25,0.61,4.83,2.0
1758075124.36442,1758075124.24994,0.0,0.0,0.0,-16.50119,-48.58683,54.66018,6.25,0.61,4.83,2.0
1758075124.36614,1758075124.25994,0.0,0.0,0.0,-13.34992,-38.84654,43.14373,7.5,-0.6,4.78,2.0
1758075124.36677,1758075124.26994,0.0,0.0,0.0,-7.50575,-22.68913,21.48592,7.5,-0.6,4.78,2.0
1758075124.38495,1758075124.27994,0.0,0.0,0.0,-3.32316,-10.48513,7.50575,9.24,-1.61,3.15,2.0
1758075124.40698,1758075124.28994,0.0,0.0,0.0,0.17189,4.69825,-4.81285,11.05,-2.12,1.15,2.0
1758075124.41185,1758075124.29994,0.0,0.0,0.0,2.7502,23.89234,-13.98017,11.05,-2.12,1.15,2.0
1758075124.41247,1758075124.30994,0.0,0.0,0.0,4.98473,52.36834,-22.51724,12.39,-2.08,0.1,2.0
1758075124.41725,1758075124.31994,0.0,0.0,0.0,4.92744,66.34852,-24.92367,12.39,-2.08,0.1,2.0
1758075124.43359,1758075124.32994,0.0,0.0,0.0,4.64096,74.36993,-24.57989,11.51,-1.8,0.02,2.0
1758075124.43689,1758075124.33994,0.0,0.0,0.0,4.23989,78.09415,-21.31403,11.51,-1.8,0.02,2.0
1758075124.45637,1758075124.34994,0.0,0.0,0.0,3.89611,79.81302,-13.5218,10.11,-1.45,0.22,2.0
1758075124.46183,1758075124.35994,0.0,0.0,0.0,3.95341,81.24542,-7.33386,9.55,-0.91,0.49,2.0
1758075124.47661,1758075124.36994,0.0,0.0,0.0,3.66693,81.18813,-1.3178,9.55,-0.91,0.49,2.0
1758075124.47835,1758075124.37994,0.0,0.0,0.0,2.6929,79.98491,3.26586,8.88,-0.01,0.99,2.0
1758075124.49331,1758075124.38994,0.0,0.0,0.0,-0.34377,78.839,7.96411,8.88,-0.01,0.99,2.0
1758075124.50934,1758075124.39994,0.0,0.0,0.0,-3.03668,76.89094,8.70896,8.75,0.85,1.5,2.0
1758075124.51288,1758075124.40994,0.0,0.0,0.0,-6.58902,71.44785,7.39116,8.75,0.85,1.5,2.0
1758075124.52865,1758075124.41994,0.0,0.0,0.0,-12.83425,66.00475,3.60963,8.47,1.51,1.7,2.0
1758075124.52957,1758075124.42994,0.0,0.0,0.0,-17.18874,60.10328,-0.45837,8.8,1.73,1.55,2.0
1758075124.54464,1758075124.43994,0.0,0.0,0.0,-22.34536,56.55093,-5.61499,8.8,1.73,1.55,2.0
1758075124.56039,1758075124.44994,0.0,0.0,0.0,-26.64254,53.34238,-10.71431,8.9,1.43,1.25,2.0
1758075124.56164,1758075124.45994,0.0,0.0,0.0,-32.83048,48.01387,-17.36062,8.9,1.43,1.25,2.0
1758075124.57643,1758075124.46994,0.0,0.0,0.0,-36.49741,43.02913,-20.34,8.78,0.93,1.16,2.0
1758075124.57841,1758075124.47994,0.0,0.0,0.0,-40.04975,36.38282,-23.37668,8.78,0.93,1.16,2.0
1758075124.59621,1758075124.48994,0.0,0.0,0.0,-42.68536,28.24682,-24.23611,8.39,0.47,1.12,2.0
1758075124.59739,1758075124.49994,0.0,0.0,0.0,-45.03448,19.70975,-22.63183,8.54,0.47,1.02,2.0
1758075124.61245,1758075124.50994,0.0,0.0,0.0,-46.52417,14.32395,-19.19409,8.54,0.21,1.02,2.0
1758075124.63129,1758075124.51994,0.0,0.0,0.0,-47.32632,6.8182,-15.0115,8.71,0.16,0.79,2.0
1758075124.633,1758075124.52994,0.0,0.0,0.0,-48.35764,-3.49504,-9.85487,8.71,0.16,0.79,2.0
1758075124.64848,1758075124.53994,0.0,0.0,0.0,-50.59217,-9.68299,-1.20321,8.82,0.27,0.56,2.0
1758075124.65203,1758075124.54994,0.0,0.0,0.0,-51.73809,2.29183,0.34377,8.82,0.27,0.56,2.0
1758075124.66773,1758075124.55994,0.0,0.0,0.0,-51.79538,15.87093,3.09397,11.17,0.4,0.22,2.0
1758075124.67217,1758075124.56994,0.0,0.0,0.0,-50.3057,19.25138,7.33386,11.17,0.4,0.22,2.0
1758075124.68778,1758075124.57994,0.0,0.0,0.0,-49.96192,-30.36677,1.94806,9.57,0.29,0.13,2.0
1758075124.68961,1758075124.58994,0.0,0.0,0.0,-48.52953,-43.83128,-0.17189,8.63,0.12,-0.91,2.0
1758075124.70529,1758075124.59994,0.0,0.0,0.0,-45.49285,-52.02457,-3.60963,8.63,0.12,-0.91,2.0
1758075124.70673,1758075124.60994,0.0,0.0,0.0,-44.748,-46.52417,-6.7609,10.61,-0.22,-1.3,2.0
1758075124.72463,1758075124.61994,0.0,0.0,0.0,-43.60209,-34.66395,-9.11003,10.61,-0.22,-1.3,2.0
1758075124.74084,1758075124.62994,0.0,0.0,0.0,-42.57077,-31.91375,-9.33921,11.34,-0.75,-0.38,2.0
1758075124.74446,1758075124.63994,0.0,0.0,0.0,-41.02378,-33.34615,-10.02676,11.34,-0.75,-0.38,2.0
1758075124.75982,1758075124.64994,0.0,0.0,0.0,-34.43476,-43.20102,-12.14671,11.76,-1.42,2.26,2.0
1758075124.76117,1758075124.65994,0.0,0.0,0.0,-26.69983,-53.97263,-18.9649,14.64,-3.33,4.57,2.0
1758075124.77662,1758075124.66994,0.0,0.0,0.0,-16.3293,-56.60823,-29.62192,14.64,-3.33,4.57,2.0
1758075124.77863,1758075124.67994,0.0,0.0,0.0,-3.95341,-53.68615,-39.53409,17.73,-6.16,5.51,2.0
1758075124.79359,1758075124.68994,0.0,0.0,0.0,13.17803,-54.02992,-50.3057,17.73,-6.16,5.51,2.0
1758075124.81124,1758075124.69994,0.0,0.0,0.0,22.28806,-60.96271,-52.25375,11.79,-4.45,3.31,2.0
1758075124.81397,1758075124.70994,0.0,0.0,0.0,28.24682,-70.24463,-53.34238,11.79,-4.45,3.31,2.0
1758075124.83062,1758075124.71994,0.0,0.0,0.0,32.71589,-74.31263,-51.10783,5.35,-1.49,2.78,2.0
1758075124.83161,1758075124.72994,0.0,0.0,0.0,35.00772,-76.60446,-45.09178,5.02,-0.16,3.95,2.0
1758075124.84692,1758075124.73994,0.0,0.0,0.0,33.11696,-74.771,-40.85189,5.02,-0.16,3.95,2.0
1758075124.84808,1758075124.74994,0.0,0.0,0.0,28.476,-68.01009,-35.63798,8.0,1.03,5.17,2.0
1758075124.86438,1758075124.75994,0.0,0.0,0.0,21.37133,-61.59297,-28.30412,8.0,1.03,5.17,2.0
1758075124.87976,1758075124.76994,0.0,0.0,0.0,7.96411,-56.66553,-13.98017,10.52,2.3,4.17,2.0
1758075124.88106,1758075124.77994,0.0,0.0,0.0,-1.3751,-50.93595,-3.32316,10.52,2.3,4.17,2.0
1758075124.89561,1758075124.78994,0.0,0.0,0.0,-10.25595,-41.71133,6.41713,11.45,2.76,2.15,2.0
1758075124.89682,1758075124.79994,0.0,0.0,0.0,-17.87628,-28.476,14.38124,11.45,2.76,2.15,2.0
1758075124.91686,1758075124.80994,0.0,0.0,0.0,-25.8404,-5.09932,21.08485,11.74,2.32,0.82,2.0
1758075124.9219,1758075124.81994,0.0,0.0,0.0,-29.33544,9.68299,21.7151,11.38,1.53,0.33,2.0
1758075124.93696,1758075124.82994,0.0,0.0,0.0,-31.91375,23.89234,19.53786,11.38,1.53,0.33,2.0
1758075124.94134,1758075124.83994,0.0,0.0,0.0,-34.49206,35.75257,12.77696,10.48,0.77,0.23,2.0
1758075124.95682,1758075124.84994,0.0,0.0,0.0,-35.69527,52.13916,7.10468,10.48,0.77,0.23,2.0
1758075124.9579,1758075124.85994,0.0,0.0,0.0,-36.84119,60.61894,0.85944,9.81,0.16,0.48,2.0
1758075124.97428,1758075124.86994,0.0,0.0,0.0,-36.7266,66.46311,-4.18259,9.81,0.16,0.48,2.0
1758075124.99184,1758075124.87994,0.0,0.0,0.0,-35.00772,74.36993,-10.71431,9.33,-0.54,0.66,2.0
1758075124.99436,1758075124.88994,0.0,0.0,0.0,-32.6013,77.86497,-12.77696,9.16,-1.41,0.77,2.0
1758075125.01002,1758075124.89994,0.0,0.0,0.0,-29.39274,77.29202,-14.09476,9.16,-1.41,0.77,2.0
1758075125.01134,1758075124.90994,0.0,0.0,0.0,-25.26744,74.31263,-13.86558,8.26,-2.1,0.81,2.0
1758075125.02593,1758075124.91994,0.0,0.0,0.0,-17.53251,69.38519,-11.28727,8.26,-2.1,0.81,2.0
1758075125.02717,1758075124.92994,0.0,0.0,0.0,-11.00079,67.43713,-7.96411,8.25,-2.52,0.67,2.0
1758075125.04407,1758075124.93994,0.0,0.0,0.0,-4.18259,65.83286,-3.49504,8.25,-2.52,0.67,2.0
1758075125.06078,1758075124.94994,0.0,0.0,0.0,2.40642,64.57235,1.43239,8.77,-2.42,0.75,2.0
1758075125.06445,1758075124.95994,0.0,0.0,0.0,11.80293,61.70755,8.76626,9.13,-1.92,0.79,2.0
1758075125.08005,1758075124.96994,0.0,0.0,0.0,17.53251,59.01466,13.00614,9.13,-1.92,0.79,2.0
1758075125.08204,1758075124.97994,0.0,0.0,0.0,22.28806,55.23313,16.21471,9.32,-1.4,0.91,2.0
1758075125.09707,1758075124.98994,0.0,0.0,0.0,26.18417,50.47758,18.10547,9.32,-1.4,0.91,2.0
1758075125.10204,1758075124.99994,0.0,0.0,0.0,30.30947,41.31026,17.81899,9.26,-0.99,0.84,2.0
1758075125.11708,1758075125.00994,0.0,0.0,0.0,31.28349,33.00237,15.29797,9.26,-0.99,0.84,2.0
1758075125.12202,1758075125.01994,0.0,0.0,0.0,30.99702,27.33009,11.11538,8.74,-0.62,0.56,2.0
1758075125.14062,1758075125.02994,0.0,0.0,0.0,30.93972,26.01229,6.47442,8.74,-0.62,0.56,2.0
1758075125.14178,1758075125.03994,0.0,0.0,0.0,30.25217,21.48592,-1.48969,9.23,-0.45,0.47,2.0
1758075125.15686,1758075125.04994,0.0,0.0,0.0,29.8511,15.92823,-5.09932,9.07,-0.39,0.17,2.0
1758075125.15848,1758075125.05994,0.0,0.0,0.0,29.27814,7.21927,-7.96411,9.07,-0.39,0.17,2.0
1758075125.17286,1758075125.06994,0.0,0.0,0.0,26.01229,5.78687,-10.48513,9.39,-0.32,-0.45,2.0
1758075125.18913,1758075125.07994,0.0,0.0,0.0,23.0902,3.72423,-11.45916,9.39,-0.32,-0.45,2.0
1758075125.19085,1758075125.08994,0.0,0.0,0.0,18.73572,3.60963,-11.17268,9.84,-0.16,-0.34,2.0
1758075125.20588,1758075125.09994,0.0,0.0,0.0,16.272,-12.83425,-13.86558,9.84,-0.16,-0.34,2.0
1758075125.20706,1758075125.10994,0.0,0.0,0.0,18.44924,-61.24919,-8.93814,8.16,0.0,-0.39,2.0
1758075125.22497,1758075125.11994,0.0,0.0,0.0,20.45459,-90.29816,0.45837,7.54,-0.51,-1.61,2.0
1758075125.24117,1758075125.12994,0.0,0.0,0.0,21.94428,-91.73055,5.90147,7.54,-0.51,-1.61,2.0
1758075125.24157,1758075125.13994,0.0,0.0,0.0,25.49662,-84.39669,10.25595,11.31,-0.85,1.25,2.0
1758075125.25715,1758075125.14994,0.0,0.0,0.0,27.67386,-75.97421,11.97482,11.31,-0.85,1.25,2.0
1758075125.26444,1758075125.15994,0.0,0.0,0.0,25.49662,-84.56858,13.23533,12.63,-0.47,3.21,2.0
1758075125.28084,1758075125.16994,0.0,0.0,0.0,19.76705,-100.6114,18.79302,12.63,-0.47,3.21,2.0
1758075125.281,1758075125.17994,0.0,0.0,0.0,12.77696,-109.89331,28.01764,15.11,1.07,6.74,2.0
1758075125.29618,1758075125.18994,0.0,0.0,0.0,-1.20321,-105.65342,42.51347,17.14,2.87,5.08,2.0
1758075125.29799,1758075125.19994,0.0,0.0,0.0,-9.85487,-98.77792,51.79538,17.14,2.87,5.08,2.0
1758075125.31602,1758075125.20994,0.0,0.0,0.0,-15.64175,-88.69387,56.89471,11.79,2.16,4.4,2.0
1758075125.31833,1758075125.21994,0.0,0.0,0.0,-19.48057,-79.01089,59.53032,11.79,2.16,4.4,2.0
1758075125.33325,1758075125.22994,0.0,0.0,0.0,-21.14215,-68.06739,59.64491,6.53,0.62,3.64,2.0
1758075125.35089,1758075125.23994,0.0,0.0,0.0,-19.48057,-59.75951,55.34772,6.53,0.62,3.64,2.0
1758075125.3518,1758075125.24994,0.0,0.0,0.0,-16.21471,-50.2484,47.89928,6.81,-0.44,4.73,2.0
1758075125.36728,1758075125.25994,0.0,0.0,0.0,-9.4538,-39.99245,30.59595,6.81,-0.44,4.73,2.0
1758075125.37171,1758075125.26994,0.0,0.0,0.0,-4.92744,-22.34536,17.47521,9.14,-1.38,3.67,2.0
1758075125.38729,1758075125.27994,0.0,0.0,0.0,-0.68755,-8.76626,4.69825,10.97,-1.9,1.47,2.0
1758075125.39084,1758075125.28994,0.0,0.0,0.0,2.34913,7.62034,-5.90147,10.97,-1.9,1.47,2.0
1758075125.40598,1758075125.29994,0.0,0.0,0.0,5.84417,34.43476,-15.75634,12.14,-1.82,0.28,2.0
1758075125.40727,1758075125.30994,0.0,0.0,0.0,6.47442,51.90998,-18.9649,12.14,-1.82,0.28,2.0
1758075125.42204,1758075125.31994,0.0,0.0,0.0,6.7609,63.59832,-19.59516,11.76,-1.64,0.17,2.0
1758075125.42572,1758075125.32994,0.0,0.0,0.0,6.99009,71.04677,-17.76169,11.76,-1.64,0.17,2.0
1758075125.44168,1758075125.33994,0.0,0.0,0.0,7.04738,75.91692,-11.74564,10.17,-1.43,0.37,2.0
1758075125.45932,1758075125.34994,0.0,0.0,0.0,7.10468,78.66711,-6.58902,9.46,-1.18,0.35,2.0
1758075125.46065,1758075125.35994,0.0,0.0,0.0,6.99009,80.1568,-2.00535,9.46,-1.18,0.35,2.0
1758075125.47538,1758075125.36994,0.0,0.0,0.0,6.87549,80.67246,2.6929,9.01,-0.58,0.6,2.0
1758075125.47787,1758075125.37994,0.0,0.0,0.0,5.15662,81.01624,7.44845,9.01,-0.58,0.6,2.0
1758075125.49639,1758075125.38994,0.0,0.0,0.0,2.6929,81.18813,8.42248,8.86,0.18,1.15,2.0
1758075125.49916,1758075125.39994,0.0,0.0,0.0,0.11459,76.83365,9.05273,8.86,0.18,1.15,2.0
1758075125.5172,1758075125.40994,0.0,0.0,0.0,-3.38045,73.73967,7.39116,8.78,1.0,1.27,2.0
1758075125.5269,1758075125.41994,0.0,0.0,0.0,-8.99544,69.15601,3.20856,9.0,1.48,1.09,2.0
1758075125.5275,1758075125.42994,0.0,0.0,0.0,-13.23533,67.15066,-0.97403,9.0,1.48,1.09,2.0
1758075125.54523,1758075125.43994,0.0,0.0,0.0,-17.30333,64.85883,-5.21392,9.15,1.47,0.91,2.0
1758075125.54617,1758075125.44994,0.0,0.0,0.0,-20.85567,62.62429,-9.4538,9.15,1.47,0.91,2.0
1758075125.56183,1758075125.45994,0.0,0.0,0.0,-25.89769,56.83742,-14.49583,8.98,0.99,0.84,2.0
1758075125.57799,1758075125.46994,0.0,0.0,0.0,-29.04896,50.76406,-17.01685,8.98,0.99,0.84,2.0
1758075125.58507,1758075125.47994,0.0,0.0,0.0,-31.45539,39.87786,-18.85031,8.43,0.48,0.81,2.0
1758075125.58546,1758075125.48994,0.0,0.0,0.0,-33.51803,25.43933,-19.07949,8.43,0.48,0.81,2.0
1758075125.60183,1758075125.49994,0.0,0.0,0.0,-34.95043,18.73572,-16.90226,7.88,0.01,0.59,2.0
1758075125.61749,1758075125.50994,0.0,0.0,0.0,-35.40879,13.23533,-13.69369,8.26,-0.12,0.45,2.0
1758075125.61849,1758075125.51994,0.0,0.0,0.0,-37.12767,9.74028,-8.76626,8.26,-0.12,0.45,2.0
1758075125.63401,1758075125.52994,0.0,0.0,0.0,-38.90384,20.79837,-3.03668,9.28,0.17,1.04,2.0
1758075125.63602,1758075125.53994,0.0,0.0,0.0,-42.85724,31.51268,-2.63561,9.28,0.17,1.04,2.0
1758075125.65246,1758075125.54994,0.0,0.0,0.0,-44.00316,41.02378,1.48969,10.82,0.65,0.96,2.0
1758075125.6696,1758075125.55994,0.0,0.0,0.0,-42.91454,28.36141,7.16197,10.82,0.65,0.96,2.0
1758075125.67117,1758075125.56994,0.0,0.0,0.0,-44.00316,-16.61578,3.03668,8.3,0.83,0.88,2.0
1758075125.68623,1758075125.57994,0.0,0.0,0.0,-44.63341,-33.17426,1.71887,8.66,0.87,-0.57,2.0
1758075125.68743,1758075125.58994,0.0,0.0,0.0,-43.25832,-42.22699,-0.85944,8.66,0.87,-0.57,2.0
1758075125.70594,1758075125.59994,0.0,0.0,0.0,-42.85724,-38.44547,-3.89611,10.79,0.31,-0.57,2.0
1758075125.70708,1758075125.60994,0.0,0.0,0.0,-41.65404,-27.73116,-5.84417,10.79,0.31,-0.57,2.0
1758075125.72652,1758075125.61994,0.0,0.0,0.0,-39.99245,-27.44468,-5.50039,11.86,-0.67,0.36,2.0
1758075125.72775,1758075125.62994,0.0,0.0,0.0,-37.64333,-31.28349,-5.72958,11.86,-0.67,0.36,2.0
1758075125.74476,1758075125.63994,0.0,0.0,0.0,-33.23156,-34.89313,-5.55769,12.24,-1.68,2.53,2.0
1758075125.74675,1758075125.64994,0.0,0.0,0.0,-20.34,-42.28429,-10.65701,15.52,-3.7,4.87,2.0
1758075125.76651,1758075125.65994,0.0,0.0,0.0,-7.50575,-45.60744,-19.88164,15.52,-3.7,4.87,2.0
1758075125.76776,1758075125.66994,0.0,0.0,0.0,7.33386,-43.20102,-29.50733,18.79,-6.86,6.2,2.0
1758075125.78501,1758075125.67994,0.0,0.0,0.0,29.10626,-42.1124,-39.99245,18.79,-6.86,6.2,2.0
1758075125.78681,1758075125.68994,0.0,0.0,0.0,39.70598,-45.77933,-43.31561,13.71,-5.54,3.42,2.0
1758075125.80234,1758075125.69994,0.0,0.0,0.0,47.78468,-50.53488,-42.39888,13.71,-5.54,3.42,2.0
1758075125.80594,1758075125.70994,0.0,0.0,0.0,52.9986,-54.88936,-39.82057,6.82,-1.85,2.02,2.0
1758075125.82164,1758075125.71994,0.0,0.0,0.0,58.21251,-56.03527,-30.99702,6.82,-1.85,2.02,2.0
1758075125.83763,1758075125.72994,0.0,0.0,0.0,58.15522,-58.90006,-24.5226,5.21,0.06,3.08,2.0
1758075125.83936,1758075125.73994,0.0,0.0,0.0,55.11855,-60.73353,-18.62113,6.12,0.92,4.57,2.0
1758075125.85461,1758075125.74994,0.0,0.0,0.0,48.9306,-57.92604,-12.83425,6.12,0.92,4.57,2.0
1758075125.85644,1758075125.75994,0.0,0.0,0.0,33.68992,-50.64947,-4.0107,9.07,2.03,4.76,2.0
1758075125.87924,1758075125.76994,0.0,0.0,0.0,21.25674,-45.26366,1.14592,9.07,2.03,4.76,2.0
1758075125.8845,1758075125.77994,0.0,0.0,0.0,8.88085,-38.84654,5.61499,10.0,3.03,2.88,2.0
1758075125.90107,1758075125.78994,0.0,0.0,0.0,-2.46372,-32.48671,9.22462,10.0,3.03,2.88,2.0
1758075125.90255,1758075125.79994,0.0,0.0,0.0,-17.13144,-19.07949,11.51645,9.66,3.18,1.6,2.0
1758075125.91743,1758075125.80994,0.0,0.0,0.0,-24.75178,-7.84952,10.19865,10.15,2.57,1.26,2.0
1758075125.91941,1758075125.81994,0.0,0.0,0.0,-30.88243,4.35448,7.04738,10.15,2.57,1.26,2.0
1758075125.93649,1758075125.82994,0.0,0.0,0.0,-35.52338,17.24603,2.7502,10.46,1.66,0.91,2.0
1758075125.93743,1758075125.83994,0.0,0.0,0.0,-40.68,33.68992,-5.09932,10.46,1.66,0.91,2.0
1758075125.95269,1758075125.84994,0.0,0.0,0.0,-43.83128,42.28429,-10.02676,9.8,1.01,0.99,2.0
1758075125.96846,1758075125.85994,0.0,0.0,0.0,-46.2377,47.89928,-14.32395,9.8,1.01,0.99,2.0
1758075125.96968,1758075125.86994,0.0,0.0,0.0,-47.26902,52.19646,-17.13144,9.02,0.48,1.57,2.0
1758075125.98479,1758075125.87994,0.0,0.0,0.0,-44.9199,59.01466,-18.73572,8.9,-0.58,1.34,2.0
1758075125.98683,1758075125.88994,0.0,0.0,0.0,-42.1124,63.8275,-18.22006,8.9,-0.58,1.34,2.0
1758075126.00454,1758075125.89994,0.0,0.0,0.0,-38.61736,66.40582,-16.67307,8.65,-1.66,1.2,2.0
1758075126.0055,1758075125.90994,0.0,0.0,0.0,-32.14294,62.68159,-13.5791,8.65,-1.66,1.2,2.0
1758075126.02156,1758075125.91994,0.0,0.0,0.0,-26.69983,60.10328,-10.65701,7.96,-2.3,0.92,2.0
1758075126.0385,1758075125.92994,0.0,0.0,0.0,-20.74107,58.09792,-7.04738,7.96,-2.3,0.92,2.0
1758075126.04082,1758075125.93994,0.0,0.0,0.0,-14.49583,56.60823,-2.7502,8.58,-2.46,0.63,2.0
1758075126.05639,1758075125.94994,0.0,0.0,0.0,-5.27121,53.34238,3.66693,8.58,-2.46,0.86,2.0
1758075126.10195,1758075125.95994,0.0,0.0,0.0,0.40107,49.96192,7.79223,9.41,-2.11,0.86,2.0
1758075126.1067,1758075125.96994,0.0,0.0,0.0,5.72958,45.72203,11.11538,9.71,-1.56,1.14,2.0
1758075126.10879,1758075125.97994,0.0,0.0,0.0,10.08406,41.36755,13.46451,9.71,-1.56,1.14,2.0
1758075126.11179,1758075125.98994,0.0,0.0,0.0,16.04282,36.95578,15.58445,9.64,-1.11,1.24,2.0
1758075126.11602,1758075125.99994,0.0,0.0,0.0,19.25138,36.7266,15.29797,9.64,-1.11,1.24,2.0
1758075126.1165,1758075126.00994,0.0,0.0,0.0,21.48592,36.49741,13.40721,9.5,-0.91,1.18,2.0
1758075126.11817,1758075126.01994,0.0,0.0,0.0,22.86102,34.14828,10.19865,9.5,-0.91,1.18,2.0
1758075126.13685,1758075126.02994,0.0,0.0,0.0,23.49127,21.60051,2.97938,9.02,-0.86,1.18,2.0
1758075126.13858,1758075126.03994,0.0,0.0,0.0,22.86102,4.64096,-2.23454,7.94,-0.84,0.65,2.0
1758075126.15541,1758075126.04994,0.0,0.0,0.0,21.31403,-12.54778,-7.67763,7.94,-0.84,0.65,2.0
1758075126.16067,1758075126.05994,0.0,0.0,0.0,19.76705,-23.83505,-12.89155,7.89,-0.78,-0.16,2.0
1758075126.17673,1758075126.06994,0.0,0.0,0.0,19.70975,-28.24682,-16.73037,7.89,-0.78,-0.16,2.0
1758075126.17781,1758075126.07994,0.0,0.0,0.0,19.59516,-31.51268,-15.92823,9.35,-0.74,-0.21,2.0
1758075126.19457,1758075126.08994,0.0,0.0,0.0,19.48057,-19.19409,-13.86558,9.35,-0.74,-0.21,2.0
1758075126.19624,1758075126.09994,0.0,0.0,0.0,14.9542,-9.33921,-11.22997,11.49,-0.52,-0.31,2.0
1758075126.21199,1758075126.10994,0.0,0.0,0.0,12.37589,-12.89155,-11.97482,10.81,0.06,0.27,2.0
1758075126.22843,1758075126.11994,0.0,0.0,0.0,13.23533,-48.07116,-6.41713,10.81,0.06,0.27,2.0
1758075126.23151,1758075126.12994,0.0,0.0,0.0,16.90226,-84.56858,-3.66693,7.31,-0.32,-0.97,2.0
1758075126.24693,1758075126.13994,0.0,0.0,0.0,20.11082,-97.86119,8.88085,7.31,-0.32,-0.97,2.0
1758075126.24813,1758075126.14994,0.0,0.0,0.0,20.97026,-91.67325,12.54778,12.05,-0.95,1.86,2.0
1758075126.26431,1758075126.15994,0.0,0.0,0.0,19.48057,-90.24085,15.98552,12.05,-0.95,1.86,2.0
1758075126.26623,1758075126.16994,0.0,0.0,0.0,13.98017,-100.09573,22.34536,14.81,-0.14,5.19,2.0
1758075126.28174,1758075126.17994,0.0,0.0,0.0,-0.17189,-111.55489,35.86716,17.69,-0.14,7.55,2.0
1758075126.28683,1758075126.18994,0.0,0.0,0.0,-12.14671,-113.67484,45.83662,17.69,2.14,7.55,2.0
1758075126.31686,1758075126.19994,0.0,0.0,0.0,-22.28806,-109.26305,52.9986,14.8,3.14,4.15,2.0
1758075126.32198,1758075126.20994,0.0,0.0,0.0,-30.48136,-95.51206,55.40502,14.8,3.14,4.15,2.0
1758075126.32671,1758075126.21994,0.0,0.0,0.0,-37.52874,-80.04221,55.06125,8.46,1.95,3.25,2.0
1758075126.33328,1758075126.22994,0.0,0.0,0.0,-39.01843,-71.84892,51.6235,8.46,1.95,3.25,2.0
1758075126.34891,1758075126.23994,0.0,0.0,0.0,-38.21629,-61.59297,44.86259,5.87,0.77,4.31,2.0
1758075126.35103,1758075126.24994,0.0,0.0,0.0,-34.32018,-50.1911,35.92446,5.87,0.77,4.31,2.0
1758075126.36571,1758075126.25994,0.0,0.0,0.0,-26.01229,-36.61201,18.44924,7.24,-0.29,3.83,2.0
1758075126.36705,1758075126.26994,0.0,0.0,0.0,-19.88164,-27.96034,6.53172,8.17,-1.38,2.44,2.0
1758075126.38179,1758075126.27994,0.0,0.0,0.0,-14.49583,-15.98552,-4.0107,8.17,-1.38,2.44,2.0
1758075126.39906,1758075126.28994,0.0,0.0,0.0,-10.08406,-1.3751,-16.21471,9.95,-2.03,1.25,2.0
1758075126.4,1758075126.29994,0.0,0.0,0.0,-5.78687,24.29341,-20.51189,9.95,-2.03,1.25,2.0
1758075126.41562,1758075126.30994,0.0,0.0,0.0,-3.83882,41.76862,-22.63183,11.34,-2.17,0.46,2.0
1758075126.4168,1758075126.31994,0.0,0.0,0.0,-2.40642,54.431,-22.51724,11.34,-2.17,0.46,2.0
1758075126.4321,1758075126.32994,0.0,0.0,0.0,0.22918,63.54102,-17.81899,10.8,-2.01,-0.05,2.0
1758075126.44813,1758075126.33994,0.0,0.0,0.0,2.46372,68.92683,-12.89155,10.23,-1.65,-0.01,2.0
1758075126.44943,1758075126.34994,0.0,0.0,0.0,5.21392,72.99483,-6.70361,10.23,-1.65,-0.01,2.0
1758075126.46409,1758075126.35994,0.0,0.0,0.0,7.67763,76.48987,-0.85944,9.87,-1.05,0.16,2.0
1758075126.46587,1758075126.36994,0.0,0.0,0.0,10.8862,79.46925,6.99009,9.87,-1.05,0.16,2.0
1758075126.48189,1758075126.37994,0.0,0.0,0.0,12.60507,80.04221,11.57375,9.41,-0.26,0.68,2.0
1758075126.49786,1758075126.38994,0.0,0.0,0.0,13.5218,79.41196,14.03747,9.41,-0.26,0.68,2.0
1758075126.50102,1758075126.39994,0.0,0.0,0.0,13.5218,78.66711,15.24068,9.12,0.41,1.02,2.0
1758075126.5169,1758075126.40994,0.0,0.0,0.0,11.91752,76.48987,13.86558,9.11,0.7,1.12,2.0
1758075126.51944,1758075126.41994,0.0,0.0,0.0,9.28192,73.3959,10.94349,9.11,0.7,1.12,2.0
1758075126.53595,1758075126.42994,0.0,0.0,0.0,6.41713,66.34852,8.136,8.96,0.67,1.22,2.0
1758075126.54506,1758075126.43994,0.0,0.0,0.0,1.71887,61.99404,3.49504,8.96,0.67,1.22,2.0
1758075126.5601,1758075126.44994,0.0,0.0,0.0,-5.15662,53.34238,-3.55234,8.96,0.6,1.14,2.0
1758075126.56145,1758075126.45994,0.0,0.0,0.0,-9.68299,48.41494,-8.136,8.96,0.6,1.14,2.0
1758075126.57594,1758075126.46994,0.0,0.0,0.0,-14.20935,42.68536,-12.08941,8.78,0.72,1.19,2.0
1758075126.57709,1758075126.47994,0.0,0.0,0.0,-18.90761,37.35685,-15.29797,8.78,0.72,1.19,2.0
1758075126.59213,1758075126.48994,0.0,0.0,0.0,-24.4653,27.67386,-16.55848,8.67,1.05,1.2,2.0
1758075126.60927,1758075126.49994,0.0,0.0,0.0,-27.61657,18.44924,-15.0115,8.48,1.27,0.83,2.0
1758075126.61013,1758075126.50994,0.0,0.0,0.0,-30.30947,8.88085,-12.43318,8.48,1.27,0.83,2.0
1758075126.62521,1758075126.51994,0.0,0.0,0.0,-34.09099,-2.97938,-6.24524,8.12,1.49,0.52,2.0
1758075126.62643,1758075126.52994,0.0,0.0,0.0,-35.98175,-24.35071,-2.06265,8.12,1.49,0.52,2.0
1758075126.64222,1758075126.53994,0.0,0.0,0.0,-38.61736,-38.15899,2.57831,8.11,1.38,0.19,2.0
1758075126.65921,1758075126.54994,0.0,0.0,0.0,-41.25296,-37.58603,6.87549,8.11,1.38,0.19,2.0
1758075126.66445,1758075126.55994,0.0,0.0,0.0,-45.26366,-10.02676,7.16197,10.59,1.42,0.01,2.0
1758075126.67924,1758075126.56994,0.0,0.0,0.0,-45.72203,2.29183,10.02676,12.26,1.04,0.17,2.0
1758075126.68176,1758075126.57994,0.0,0.0,0.0,-47.03984,-27.2155,6.70361,12.26,1.04,0.17,2.0
1758075126.69733,1758075126.58994,0.0,0.0,0.0,-49.04519,-44.86259,3.20856,8.72,0.82,-0.26,2.0
1758075126.70486,1758075126.59994,0.0,0.0,0.0,-49.96192,-57.46767,-3.26586,8.72,0.82,-0.26,2.0
1758075126.72002,1758075126.60994,0.0,0.0,0.0,-50.363,-52.9986,-6.07335,10.39,0.64,-1.35,2.0
1758075126.72121,1758075126.61994,0.0,0.0,0.0,-50.53488,-45.77933,-7.84952,10.39,0.64,-1.35,2.0
1758075126.73629,1758075126.62994,0.0,0.0,0.0,-49.61814,-40.85189,-8.99544,11.5,0.11,0.36,2.0
1758075126.73764,1758075126.63994,0.0,0.0,0.0,-44.00316,-44.17505,-11.74564,12.8,-0.88,3.55,2.0
1758075126.75235,1758075126.64994,0.0,0.0,0.0,-36.89849,-53.62885,-17.81899,12.8,-0.88,3.55,2.0
1758075126.75758,1758075126.65994,0.0,0.0,0.0,-27.44468,-59.64491,-28.87707,16.82,-3.87,6.25,2.0
1758075126.77329,1758075126.66994,0.0,0.0,0.0,-14.20935,-58.15522,-40.27893,16.82,-3.87,6.25,2.0
1758075126.79086,1758075126.67994,0.0,0.0,0.0,6.07335,-60.61894,-51.5662,15.94,-6.34,3.57,2.0
1758075126.79475,1758075126.68994,0.0,0.0,0.0,16.61578,-67.26525,-55.6915,15.94,-6.34,3.57,2.0
1758075126.81001,1758075126.69994,0.0,0.0,0.0,24.17882,-68.41116,-56.83742,7.72,-3.96,2.24,2.0
1758075126.81238,1758075126.70994,0.0,0.0,0.0,28.59059,-64.57235,-53.17049,7.72,-3.96,2.24,2.0
1758075126.82708,1758075126.71994,0.0,0.0,0.0,29.33544,-58.15522,-49.56085,5.25,-1.59,3.24,2.0
1758075126.83176,1758075126.72994,0.0,0.0,0.0,26.47065,-49.79003,-44.46153,6.65,-0.14,4.43,2.0
1758075126.84711,1758075126.73994,0.0,0.0,0.0,21.02755,-40.10705,-37.87251,6.65,-0.14,4.43,2.0
1758075126.8483,1758075126.74994,0.0,0.0,0.0,10.31324,-30.30947,-23.83505,8.96,1.23,3.59,2.0
1758075126.86474,1758075126.75994,0.0,0.0,0.0,3.09397,-23.37668,-12.60507,8.96,1.23,3.59,2.0
1758075126.88011,1758075126.76994,0.0,0.0,0.0,-3.55234,-14.32395,-1.94806,10.94,1.81,2.18,2.0
1758075126.88131,1758075126.77994,0.0,0.0,0.0,-9.28192,-2.40642,7.16197,10.94,1.81,2.18,2.0
1758075126.89638,1758075126.78994,0.0,0.0,0.0,-14.9542,20.45459,15.64175,12.22,1.49,0.72,2.0
1758075126.89922,1758075126.79994,0.0,0.0,0.0,-17.36062,36.15364,17.18874,12.15,1.16,0.12,2.0
1758075126.91644,1758075126.80994,0.0,0.0,0.0,-19.42327,49.84733,16.55848,12.15,1.16,0.12,2.0
1758075126.91736,1758075126.81994,0.0,0.0,0.0,-21.48592,61.30648,13.98017,10.71,0.68,0.0,2.0
1758075126.93394,1758075126.82994,0.0,0.0,0.0,-23.89234,74.31263,8.25059,10.71,0.68,0.0,2.0
1758075126.93679,1758075126.83994,0.0,0.0,0.0,-24.86637,79.01089,4.0107,9.4,0.16,0.4,2.0
1758075126.95718,1758075126.84994,0.0,0.0,0.0,-25.43933,82.56322,-0.34377,9.4,0.16,0.4,2.0
1758075126.9584,1758075126.85994,0.0,0.0,0.0,-24.98096,82.90699,-3.95341,8.75,-0.53,0.77,2.0
1758075126.97323,1758075126.86994,0.0,0.0,0.0,-22.11617,82.67782,-8.02141,8.79,-1.4,1.32,2.0
1758075126.99132,1758075126.87994,0.0,0.0,0.0,-19.19409,79.29736,-9.5684,8.79,-1.4,1.32,2.0
1758075126.99358,1758075126.88994,0.0,0.0,0.0,-15.06879,72.0208,-9.96947,8.31,-2.11,1.42,2.0
1758075127.00851,1758075126.89994,0.0,0.0,0.0,-9.96947,64.74423,-8.99544,8.31,-2.11,1.42,2.0
1758075127.01063,1758075126.90994,0.0,0.0,0.0,-0.97403,55.6342,-5.32851,8.32,-2.56,1.29,2.0
1758075127.02604,1758075126.91994,0.0,0.0,0.0,6.13065,51.39432,-1.14592,8.32,-2.56,1.29,2.0
1758075127.02729,1758075126.92994,0.0,0.0,0.0,13.75099,47.78468,3.95341,8.85,-2.55,1.02,2.0
1758075127.0456,1758075126.93994,0.0,0.0,0.0,25.09555,43.54479,11.63104,8.85,-2.55,1.02,2.0
1758075127.04692,1758075126.94994,0.0,0.0,0.0,32.48671,39.07573,16.50119,8.62,-2.21,0.84,2.0
1758075127.06259,1758075126.95994,0.0,0.0,0.0,38.78925,39.64868,19.99623,8.68,-1.6,0.71,2.0
1758075127.08101,1758075126.96994,0.0,0.0,0.0,43.65939,40.50812,22.23076,8.68,-1.6,0.71,2.0
1758075127.08221,1758075126.97994,0.0,0.0,0.0,48.70141,33.51803,22.34536,8.58,-1.07,0.98,2.0
1758075127.10061,1758075126.98994,0.0,0.0,0.0,50.01921,24.75178,19.88164,8.58,-1.07,0.98,2.0
1758075127.10155,1758075126.99994,0.0,0.0,0.0,50.01921,16.272,15.64175,8.44,-0.67,1.1,2.0
1758075127.11635,1758075127.00994,0.0,0.0,0.0,49.96192,12.204,10.94349,8.44,-0.67,1.1,2.0
1758075127.11934,1758075127.01994,0.0,0.0,0.0,49.67545,10.59972,3.60963,9.51,-0.5,0.76,2.0
1758075127.13472,1758075127.02994,0.0,0.0,0.0,49.56085,6.58902,-0.0573,9.96,-0.46,0.57,2.0
1758075127.13627,1758075127.03994,0.0,0.0,0.0,48.35764,2.7502,-1.48969,9.96,-0.46,0.57,2.0
1758075127.15259,1758075127.04994,0.0,0.0,0.0,45.60744,6.24524,-4.52637,10.43,-0.32,-0.12,2.0
1758075127.17016,1758075127.05994,0.0,0.0,0.0,40.10705,5.21392,-7.10468,10.43,-0.32,-0.12,2.0
1758075127.17177,1758075127.06994,0.0,0.0,0.0,35.75257,2.92208,-8.42248,10.34,0.09,-0.28,2.0
1758075127.18641,1758075127.07994,0.0,0.0,0.0,34.32018,-27.44468,-8.47978,10.34,0.09,-0.28,2.0
1758075127.18879,1758075127.08994,0.0,0.0,0.0,34.43476,-54.431,-8.36518,7.82,0.28,-0.9,2.0
1758075127.20441,1758075127.09994,0.0,0.0,0.0,35.40879,-87.31877,3.26586,9.03,-0.15,-0.58,2.0
1758075127.22146,1758075127.10994,0.0,0.0,0.0,35.86716,-85.14153,8.42248,9.03,-0.15,-0.58,2.0
1758075127.22428,1758075127.11994,0.0,0.0,0.0,35.12231,-78.20874,11.57375,14.04,0.05,3.53,2.0
1758075127.24127,1758075127.12994,0.0,0.0,0.0,32.20023,-77.52119,21.25674,14.04,0.05,3.53,2.0
1758075127.24264,1758075127.13994,0.0,0.0,0.0,20.51189,-90.87111,32.42941,17.64,1.89,6.75,2.0
1758075127.25974,1758075127.14994,0.0,0.0,0.0,9.62569,-92.01703,43.20102,17.64,1.89,6.75,2.0
1758075127.26414,1758075127.15994,0.0,0.0,0.0,-0.74485,-92.64729,53.11319,17.52,3.34,5.35,2.0
1758075127.27974,1758075127.16994,0.0,0.0,0.0,-11.86023,-86.80311,60.79083,17.52,3.34,5.35,2.0
1758075127.28091,1758075127.17994,0.0,0.0,0.0,-16.21471,-79.46925,61.70755,10.02,1.67,3.5,2.0
1758075127.29653,1758075127.18994,0.0,0.0,0.0,-19.19409,-72.0208,59.70221,5.11,0.14,3.52,2.0
1758075127.29748,1758075127.19994,0.0,0.0,0.0,-20.68378,-65.2599,55.06125,5.11,0.14,3.52,2.0
1758075127.31669,1758075127.20994,0.0,0.0,0.0,-18.33465,-55.92068,44.28964,5.1,-0.56,4.64,2.0
1758075127.31883,1758075127.21994,0.0,0.0,0.0,-13.69369,-50.82136,34.89313,5.1,-0.56,4.64,2.0
1758075127.33383,1758075127.22994,0.0,0.0,0.0,-8.59437,-44.11775,23.37668,7.27,-1.37,4.1,2.0
1758075127.35056,1758075127.23994,0.0,0.0,0.0,-2.57831,-36.6693,12.89155,7.27,-1.37,4.1,2.0
1758075127.35229,1758075127.24994,0.0,0.0,0.0,4.98473,-17.93358,-1.3178,9.52,-1.74,2.29,2.0
1758075127.36782,1758075127.25994,0.0,0.0,0.0,8.25059,0.57296,-8.42248,11.7,-1.39,0.67,2.0
1758075127.36922,1758075127.26994,0.0,0.0,0.0,9.85487,19.70975,-12.77696,11.7,-1.39,0.67,2.0
1758075127.38458,1758075127.27994,0.0,0.0,0.0,9.85487,37.29956,-16.21471,12.07,-1.05,-0.37,2.0
1758075127.4006,1758075127.28994,0.0,0.0,0.0,9.62569,52.13916,-17.01685,12.07,-1.05,-0.37,2.0
1758075127.40443,1758075127.29994,0.0,0.0,0.0,10.08406,58.09792,-14.83961,10.35,-1.04,0.02,2.0
1758075127.41987,1758075127.30994,0.0,0.0,0.0,10.59972,63.8275,-11.80293,10.35,-1.04,0.02,2.0
1758075127.42116,1758075127.31994,0.0,0.0,0.0,11.86023,68.41116,-7.39116,9.8,-1.0,0.34,2.0
1758075127.43661,1758075127.32994,0.0,0.0,0.0,13.5218,72.82294,-0.40107,9.58,-0.6,0.69,2.0
1758075127.43836,1758075127.33994,0.0,0.0,0.0,14.9542,73.62508,4.52637,9.58,-0.6,0.69,2.0
1758075127.45378,1758075127.34994,0.0,0.0,0.0,14.9542,74.36993,8.65166,9.43,0.0,1.16,2.0
1758075127.47165,1758075127.35994,0.0,0.0,0.0,14.03747,75.22936,12.83425,9.43,0.0,1.16,2.0
1758075127.47611,1758075127.36994,0.0,0.0,0.0,12.204,75.17207,13.5791,9.47,0.56,1.4,2.0
1758075127.4914,1758075127.37994,0.0,0.0,0.0,9.91217,71.39055,13.5791,9.47,0.56,1.4,2.0
1758075127.49426,1758075127.38994,0.0,0.0,0.0,6.24524,70.01544,11.28727,9.26,0.92,1.38,2.0
1758075127.51039,1758075127.39994,0.0,0.0,0.0,0.68755,67.72362,6.18794,9.26,0.92,1.38,2.0
1758075127.51232,1758075127.40994,0.0,0.0,0.0,-3.72423,66.00475,1.48969,9.53,0.97,1.19,2.0
1758075127.53148,1758075127.41994,0.0,0.0,0.0,-7.79223,63.54102,-3.26586,9.5,0.81,1.07,2.0
1758075127.5327,1758075127.42994,0.0,0.0,0.0,-11.74564,60.04598,-7.84952,9.5,0.81,1.07,2.0
1758075127.55043,1758075127.43994,0.0,0.0,0.0,-17.81899,52.65482,-13.46451,9.25,0.68,1.18,2.0
1758075127.55238,1758075127.44994,0.0,0.0,0.0,-21.42862,48.01387,-15.75634,9.25,0.68,1.18,2.0
1758075127.56965,1758075127.45994,0.0,0.0,0.0,-24.75178,40.7373,-16.38659,9.15,0.65,1.13,2.0
1758075127.57093,1758075127.46994,0.0,0.0,0.0,-27.61657,32.77319,-15.0115,9.15,0.65,1.13,2.0
1758075127.58589,1758075127.47994,0.0,0.0,0.0,-30.36677,17.18874,-11.34457,8.49,0.78,0.74,2.0
1758075127.5871,1758075127.48994,0.0,0.0,0.0,-32.54401,1.77617,-7.21927,7.79,1.2,0.32,2.0
1758075127.60564,1758075127.49994,0.0,0.0,0.0,-34.0337,-14.20935,-3.38045,7.79,1.2,0.32,2.0
1758075127.60711,1758075127.50994,0.0,0.0,0.0,-34.66395,-25.15285,1.43239,8.08,1.27,-0.26,2.0
1758075127.62391,1758075127.51994,0.0,0.0,0.0,-38.1017,-14.20935,2.40642,8.08,1.27,-0.26,2.0
1758075127.64076,1758075127.52994,0.0,0.0,0.0,-37.58603,0.11459,5.55769,11.03,1.13,-0.3,2.0
1758075127.64516,1758075127.53994,0.0,0.0,0.0,-34.49206,-12.43318,9.62569,11.03,1.13,-0.3,2.0
1758075127.66107,1758075127.54994,0.0,0.0,0.0,-37.98711,-42.05511,2.63561,9.02,0.55,-0.1,2.0
1758075127.66191,1758075127.55994,0.0,0.0,0.0,-35.63798,-64.80153,1.08862,8.9,0.22,-1.54,2.0
1758075127.67702,1758075127.56994,0.0,0.0,0.0,-35.63798,-69.90086,-1.77617,8.9,0.22,-1.54,2.0
1758075127.68512,1758075127.57994,0.0,0.0,0.0,-36.26823,-64.74423,-4.46907,10.86,-0.26,0.5,2.0
1758075127.70497,1758075127.58994,0.0,0.0,0.0,-33.9764,-61.53567,-7.39116,10.86,-0.26,0.5,2.0
1758075127.70592,1758075127.59994,0.0,0.0,0.0,-28.93437,-68.58305,-12.83425,12.91,-1.32,3.84,2.0
1758075127.72182,1758075127.60994,0.0,0.0,0.0,-20.16812,-77.23472,-24.63719,12.91,-1.32,3.84,2.0
1758075127.72303,1758075127.61994,0.0,0.0,0.0,-8.65166,-76.1461,-39.13302,17.73,-4.45,7.53,2.0
1758075127.74002,1758075127.62994,0.0,0.0,0.0,11.80293,-68.75494,-56.20716,17.73,-4.45,4.19,2.0
1758075127.74041,1758075127.63994,0.0,0.0,0.0,23.0902,-68.86953,-62.5097,17.41,-6.2,4.19,2.0
1758075127.75605,1758075127.64994,0.0,0.0,0.0,31.45539,-70.6457,-66.11933,8.31,-3.31,2.63,2.0
1758075127.75721,1758075127.65994,0.0,0.0,0.0,37.58603,-69.49979,-66.00475,8.31,-3.31,2.63,2.0
1758075127.77391,1758075127.66994,0.0,0.0,0.0,42.57077,-66.80688,-61.59297,4.61,-1.39,3.21,2.0
1758075127.77769,1758075127.67994,0.0,0.0,0.0,42.51347,-62.22322,-57.23849,4.61,-1.39,3.21,2.0
1758075127.79709,1758075127.68994,0.0,0.0,0.0,39.24761,-54.3737,-50.1911,6.53,-0.19,5.32,2.0
1758075127.79803,1758075127.69994,0.0,0.0,0.0,33.9764,-48.64412,-39.82057,6.53,-0.19,5.32,2.0
1758075127.81392,1758075127.70994,0.0,0.0,0.0,23.37668,-42.74266,-18.9649,9.44,1.3,4.77,2.0
1758075127.83117,1758075127.71994,0.0,0.0,0.0,15.64175,-37.29956,-3.89611,10.72,2.08,2.58,2.0
1758075127.83154,1758075127.72994,0.0,0.0,0.0,8.136,-29.33544,9.33921,10.72,2.08,2.58,2.0
1758075127.84709,1758075127.73994,0.0,0.0,0.0,1.20321,-18.90761,19.53786,11.06,2.09,1.15,2.0
1758075127.84845,1758075127.74994,0.0,0.0,0.0,-6.35983,1.94806,27.10091,11.06,2.09,1.15,2.0
1758075127.86393,1758075127.75994,0.0,0.0,0.0,-9.91217,16.38659,27.78845,11.38,1.88,0.52,2.0
1758075127.88198,1758075127.76994,0.0,0.0,0.0,-12.37589,30.19488,25.55392,11.38,1.88,0.52,2.0
1758075127.88243,1758075127.77994,0.0,0.0,0.0,-14.83961,41.42485,18.85031,10.88,1.33,0.35,2.0
1758075127.89783,1758075127.78994,0.0,0.0,0.0,-15.69904,53.74345,12.77696,9.87,0.73,0.42,2.0
1758075127.89903,1758075127.79994,0.0,0.0,0.0,-17.24603,59.75951,5.95876,9.87,0.73,0.42,2.0
1758075127.91398,1758075127.80994,0.0,0.0,0.0,-18.73572,65.83286,-0.34377,9.38,0.25,0.85,2.0
1758075127.91535,1758075127.81994,0.0,0.0,0.0,-19.07949,71.84892,-8.0787,9.38,0.25,0.85,2.0
1758075127.93087,1758075127.82994,0.0,0.0,0.0,-17.01685,74.94289,-11.34457,9.22,-0.59,1.0,2.0
1758075127.94721,1758075127.83994,0.0,0.0,0.0,-14.03747,77.17742,-13.5791,9.22,-0.59,1.0,2.0
1758075127.95082,1758075127.84994,0.0,0.0,0.0,-9.74028,79.06818,-14.15206,9.0,-1.76,0.85,2.0
1758075127.96596,1758075127.85994,0.0,0.0,0.0,-3.60963,75.80232,-13.5791,8.57,-2.3,1.2,2.0
1758075127.96763,1758075127.86994,0.0,0.0,0.0,1.03132,71.10406,-11.57375,8.57,-2.3,1.2,2.0
1758075127.98194,1758075127.87994,0.0,0.0,0.0,5.84417,66.74959,-8.93814,8.53,-2.22,1.19,2.0
1758075127.99884,1758075127.88994,0.0,0.0,0.0,11.22997,64.51505,-4.81285,8.53,-2.22,1.19,2.0
1758075128.00441,1758075127.89994,0.0,0.0,0.0,19.76705,61.76485,2.11994,9.21,-1.76,1.35,2.0
1758075128.01899,1758075127.90994,0.0,0.0,0.0,25.61122,58.78547,7.04738,9.21,-1.76,1.35,2.0
1758075128.02525,1758075127.91994,0.0,0.0,0.0,31.28349,55.6342,11.97482,9.38,-1.19,1.54,2.0
1758075128.02568,1758075127.92994,0.0,0.0,0.0,36.21093,54.66018,16.10011,9.38,-1.19,1.54,2.0
1758075128.04425,1758075127.93994,0.0,0.0,0.0,41.88322,54.3164,20.3973,9.7,-0.77,1.36,2.0
1758075128.0468,1758075127.94994,0.0,0.0,0.0,44.86259,52.13916,21.42862,9.68,-0.6,1.39,2.0
1758075128.06645,1758075127.95994,0.0,0.0,0.0,47.38361,46.06581,20.68378,9.68,-0.6,1.39,2.0
1758075128.06848,1758075127.96994,0.0,0.0,0.0,49.04519,35.3515,17.53251,8.94,-0.64,1.0,2.0
1758075128.08568,1758075127.97994,0.0,0.0,0.0,49.67545,8.30789,14.15206,8.94,-0.64,1.0,2.0
1758075128.08658,1758075127.98994,0.0,0.0,0.0,48.35764,-8.93814,9.11003,7.81,-0.67,0.22,2.0
1758075128.10199,1758075127.99994,0.0,0.0,0.0,47.44091,-16.04282,4.69825,7.81,-0.67,0.22,2.0
1758075128.10678,1758075128.00994,0.0,0.0,0.0,46.1804,-17.18874,0.0573,8.94,-0.68,-0.33,2.0
1758075128.12204,1758075128.01994,0.0,0.0,0.0,45.14908,-17.47521,-1.14592,9.97,-0.48,-0.06,2.0
1758075128.12569,1758075128.02994,0.0,0.0,0.0,43.65939,-9.11003,-1.3178,9.97,-0.48,-0.06,2.0
1758075128.14164,1758075128.03994,0.0,0.0,0.0,40.16434,-1.43239,-3.83882,11.04,-0.17,0.0,2.0
1758075128.15735,1758075128.04994,0.0,0.0,0.0,36.26823,0.0573,-4.52637,11.04,-0.17,0.0,2.0
1758075128.16068,1758075128.05994,0.0,0.0,0.0,35.2942,-26.18417,-7.73493,9.54,0.24,-0.03,2.0
1758075128.17633,1758075128.06994,0.0,0.0,0.0,35.06502,-58.04062,-5.55769,9.54,0.24,-0.03,2.0
1758075128.17727,1758075128.07994,0.0,0.0,0.0,36.89849,-90.41274,2.40642,7.17,0.04,0.76,2.0
1758075128.19635,1758075128.08994,0.0,0.0,0.0,36.26823,-94.88181,12.43318,12.74,-0.06,3.65,2.0
1758075128.19726,1758075128.09994,0.0,0.0,0.0,32.88778,-100.32492,22.57454,12.74,-0.06,3.65,2.0
1758075128.2124,1758075128.10994,0.0,0.0,0.0,27.84575,-104.85127,37.47144,17.29,2.11,7.5,2.0
1758075128.21571,1758075128.11994,0.0,0.0,0.0,19.76705,-106.0545,49.38896,17.29,2.11,7.5,2.0
1758075128.23246,1758075128.12994,0.0,0.0,0.0,6.53172,-107.71607,63.31184,15.99,3.08,5.84,2.0
1758075128.24838,1758075128.13994,0.0,0.0,0.0,-0.34377,-103.1324,67.78091,15.99,3.08,5.84,2.0
1758075128.25088,1758075128.14994,0.0,0.0,0.0,-4.81285,-96.65798,69.04142,9.31,1.56,4.16,2.0
1758075128.26616,1758075128.15994,0.0,0.0,0.0,-8.47978,-87.77714,66.635,9.31,1.56,4.16,2.0
1758075128.26777,1758075128.16994,0.0,0.0,0.0,-10.59972,-77.23472,59.47303,5.34,0.5,3.83,2.0
1758075128.28618,1758075128.17994,0.0,0.0,0.0,-9.11003,-70.93218,52.36834,5.73,-0.17,4.93,2.0
1758075128.28736,1758075128.18994,0.0,0.0,0.0,-6.24524,-64.57235,43.02913,5.73,-0.17,4.93,2.0
1758075128.30218,1758075128.19994,0.0,0.0,0.0,-0.17189,-56.26446,25.43933,8.08,-0.85,3.96,2.0
1758075128.32025,1758075128.20994,0.0,0.0,0.0,4.52637,-41.13837,13.23533,8.08,-0.85,3.96,2.0
1758075128.32275,1758075128.21994,0.0,0.0,0.0,8.65166,-26.81443,2.34913,9.92,-1.12,1.73,2.0
1758075128.33925,1758075128.22994,0.0,0.0,0.0,11.57375,-9.28192,-6.07335,9.92,-1.12,1.73,2.0
1758075128.3445,1758075128.23994,0.0,0.0,0.0,13.69369,20.34,-13.17803,11.68,-1.13,0.39,2.0
1758075128.36186,1758075128.24994,0.0,0.0,0.0,13.23533,39.99245,-15.12609,12.31,-1.26,-0.21,2.0
1758075128.36603,1758075128.25994,0.0,0.0,0.0,11.97482,55.23313,-15.64175,12.31,-1.26,-0.21,2.0
1758075128.36661,1758075128.26994,0.0,0.0,0.0,11.74564,63.99939,-13.80828,10.78,-1.35,-0.08,2.0
1758075128.38244,1758075128.27994,0.0,0.0,0.0,11.86023,70.47381,-8.42248,10.78,-1.35,-0.08,2.0
1758075128.38662,1758075128.28994,0.0,0.0,0.0,12.60507,75.00018,-3.49504,9.72,-1.14,-0.02,2.0
1758075128.40473,1758075128.29994,0.0,0.0,0.0,13.75099,79.18277,1.3178,9.72,-1.14,-0.02,2.0
1758075128.40776,1758075128.30994,0.0,0.0,0.0,14.83961,81.76109,6.24524,9.77,-0.5,0.41,2.0
1758075128.42591,1758075128.31994,0.0,0.0,0.0,15.46986,84.56858,12.54778,9.54,0.33,0.91,2.0
1758075128.4271,1758075128.32994,0.0,0.0,0.0,15.35527,85.37071,15.35527,9.54,0.33,0.91,2.0
1758075128.44252,1758075128.33994,0.0,0.0,0.0,14.49583,84.39669,17.47521,9.33,0.95,1.25,2.0
1758075128.44702,1758075128.34994,0.0,0.0,0.0,13.12073,83.93832,17.58981,9.33,0.95,1.25,2.0
1758075128.46254,1758075128.35994,0.0,0.0,0.0,10.25595,83.25077,16.10011,9.38,1.22,1.22,2.0
1758075128.46856,1758075128.36994,0.0,0.0,0.0,7.96411,79.46925,14.09476,9.38,1.22,1.22,2.0
1758075128.48443,1758075128.37994,0.0,0.0,0.0,4.46907,77.17742,10.31324,9.43,1.1,1.23,2.0
1758075128.48534,1758075128.38994,0.0,0.0,0.0,0.85944,71.90621,3.55234,9.43,1.1,1.23,2.0
1758075128.50133,1758075128.39994,0.0,0.0,0.0,-5.50039,62.16592,-1.3751,9.28,0.72,1.37,2.0
1758075128.51922,1758075128.40994,0.0,0.0,0.0,-9.62569,54.3737,-6.07335,8.97,0.37,1.34,2.0
1758075128.52254,1758075128.41994,0.0,0.0,0.0,-14.03747,48.41494,-10.31324,8.97,0.37,1.34,2.0
1758075128.53966,1758075128.42994,0.0,0.0,0.0,-19.59516,40.62271,-14.09476,8.94,0.35,1.2,2.0
1758075128.54055,1758075128.43994,0.0,0.0,0.0,-23.37668,33.05967,-14.72501,8.94,0.35,1.2,2.0
1758075128.55642,1758075128.44994,0.0,0.0,0.0,-26.69983,20.51189,-13.75099,8.37,0.58,1.17,2.0
1758075128.55737,1758075128.45994,0.0,0.0,0.0,-28.70519,3.72423,-12.08941,8.37,0.58,1.17,2.0
1758075128.57234,1758075128.46994,0.0,0.0,0.0,-31.2262,-25.49662,-7.50575,7.19,0.62,0.51,2.0
1758075128.58974,1758075128.47994,0.0,0.0,0.0,-32.88778,-44.40423,-3.26586,6.93,0.81,-0.13,2.0
1758075128.59221,1758075128.48994,0.0,0.0,0.0,-33.51803,-55.11855,2.00535,6.93,0.81,-0.13,2.0
1758075128.60775,1758075128.49994,0.0,0.0,0.0,-34.32018,-49.04519,4.18259,9.36,0.68,-0.11,2.0
1758075128.61053,1758075128.50994,0.0,0.0,0.0,-34.72124,-22.51724,4.98473,9.36,0.68,-0.11,2.0
1758075128.62571,1758075128.51994,0.0,0.0,0.0,-31.39809,-22.91831,9.33921,12.29,0.28,0.15,2.0
1758075128.62696,1758075128.52994,0.0,0.0,0.0,-33.40344,-45.03448,4.23989,12.29,0.28,0.15,2.0
1758075128.64173,1758075128.53994,0.0,0.0,0.0,-33.11696,-54.08722,2.29183,9.65,-0.11,0.23,2.0
1758075128.65846,1758075128.54994,0.0,0.0,0.0,-31.28349,-61.24919,-0.45837,10.94,-0.39,-1.63,2.0
1758075128.66524,1758075128.55994,0.0,0.0,0.0,-31.51268,-53.68615,-2.00535,10.94,-0.39,-1.63,2.0
1758075128.66584,1758075128.56994,0.0,0.0,0.0,-31.2262,-46.98254,-2.6929,12.07,-0.7,1.11,2.0
1758075128.6818,1758075128.57994,0.0,0.0,0.0,-29.8511,-46.00851,-3.32316,12.07,-0.7,1.11,2.0
1758075128.6984,1758075128.58994,0.0,0.0,0.0,-24.29341,-56.952,-8.65166,12.85,-1.38,3.12,2.0
1758075128.69993,1758075128.59994,0.0,0.0,0.0,-16.55848,-66.40582,-18.50654,12.85,-1.38,3.12,2.0
1758075128.71719,1758075128.60994,0.0,0.0,0.0,-7.16197,-68.06739,-31.56997,16.43,-3.52,6.6,2.0
1758075128.7263,1758075128.61994,0.0,0.0,0.0,9.74028,-64.17127,-47.44091,16.43,-3.52,6.6,2.0
1758075128.72666,1758075128.62994,0.0,0.0,0.0,19.59516,-65.08801,-53.34238,15.85,-4.61,3.77,2.0
1758075128.74574,1758075128.63994,0.0,0.0,0.0,27.38738,-68.69764,-56.83742,7.94,-2.42,2.6,2.0
1758075128.74693,1758075128.64994,0.0,0.0,0.0,32.83048,-69.84356,-58.09792,7.94,-2.42,2.6,2.0
1758075128.76581,1758075128.65994,0.0,0.0,0.0,37.29956,-64.85883,-54.94666,5.18,-0.78,3.59,2.0
1758075128.76724,1758075128.66994,0.0,0.0,0.0,37.58603,-59.41573,-50.2484,5.18,-0.78,3.59,2.0
1758075128.78447,1758075128.67994,0.0,0.0,0.0,35.63798,-52.65482,-43.65939,6.7,0.32,4.79,2.0
1758075128.80063,1758075128.68994,0.0,0.0,0.0,31.79916,-45.60744,-35.00772,6.7,0.32,4.79,2.0
1758075128.80428,1758075128.69994,0.0,0.0,0.0,23.94964,-38.56006,-18.22006,9.01,1.51,4.35,2.0
1758075128.82147,1758075128.70994,0.0,0.0,0.0,18.10547,-33.46074,-6.18794,10.56,1.98,2.76,2.0
1758075128.82509,1758075128.71994,0.0,0.0,0.0,12.204,-23.60586,5.32851,10.56,1.98,2.76,2.0
1758075128.84067,1758075128.72994,0.0,0.0,0.0,7.21927,-10.8289,14.78231,12.09,1.72,1.46,2.0
1758075128.84512,1758075128.73994,0.0,0.0,0.0,2.6929,9.11003,23.37668,12.09,1.72,1.46,2.0
1758075128.8607,1758075128.74994,0.0,0.0,0.0,1.20321,22.97561,25.21014,12.14,1.21,0.7,2.0
1758075128.86488,1758075128.75994,0.0,0.0,0.0,0.34377,35.86716,23.94964,12.14,1.21,0.7,2.0
1758075128.88044,1758075128.76994,0.0,0.0,0.0,-0.11459,46.86795,20.74107,11.36,0.61,0.48,2.0
1758075128.88162,1758075128.77994,0.0,0.0,0.0,0.0,60.04598,13.12073,10.39,0.14,0.93,2.0
1758075128.89666,1758075128.78994,0.0,0.0,0.0,0.0,65.66096,7.44845,10.39,0.14,0.93,2.0
1758075128.90185,1758075128.79994,0.0,0.0,0.0,0.40107,70.6457,1.94806,9.57,-0.4,1.03,2.0
1758075128.91693,1758075128.80994,0.0,0.0,0.0,1.48969,74.36993,-3.38045,9.57,-0.4,1.03,2.0
1758075128.92176,1758075128.81994,0.0,0.0,0.0,3.32316,75.22936,-6.07335,8.9,-1.16,1.03,2.0
1758075128.93694,1758075128.82994,0.0,0.0,0.0,4.92744,73.91156,-7.73493,8.9,-1.16,1.03,2.0
1758075128.93786,1758075128.83994,0.0,0.0,0.0,7.67763,72.65105,-8.59437,8.35,-1.86,1.04,2.0
1758075128.95369,1758075128.84994,0.0,0.0,0.0,12.2613,68.98412,-7.04738,8.35,-1.86,1.04,2.0
1758075128.95793,1758075128.85994,0.0,0.0,0.0,16.272,67.32255,-4.52637,8.48,-2.15,0.92,2.0
1758075128.97705,1758075128.86994,0.0,0.0,0.0,20.74107,65.89015,-0.45837,9.13,-1.89,0.8,2.0
1758075128.97796,1758075128.87994,0.0,0.0,0.0,25.21014,63.94209,4.52637,9.13,-1.89,0.8,2.0
1758075128.99355,1758075128.88994,0.0,0.0,0.0,32.42941,57.18119,12.08941,9.51,-1.39,0.78,2.0
1758075129.00991,1758075128.89994,0.0,0.0,0.0,37.52874,54.3737,17.18874,9.51,-1.39,0.78,2.0
1758075129.012,1758075128.90994,0.0,0.0,0.0,41.88322,55.11855,21.37133,9.77,-0.89,0.53,2.0
1758075129.02676,1758075128.91994,0.0,0.0,0.0,45.26366,58.04062,24.12152,9.77,-0.89,0.53,2.0
1758075129.0287,1758075128.92994,0.0,0.0,0.0,49.04519,58.4417,25.49662,10.16,-0.5,0.46,2.0
1758075129.04401,1758075128.93994,0.0,0.0,0.0,50.76406,53.05589,24.75178,9.39,-0.33,0.66,2.0
1758075129.0465,1758075128.94994,0.0,0.0,0.0,51.6235,44.46153,22.68913,9.39,-0.33,0.66,2.0
1758075129.06174,1758075128.95994,0.0,0.0,0.0,51.6235,32.77319,19.53786,8.57,-0.4,0.5,2.0
1758075129.08143,1758075128.96994,0.0,0.0,0.0,49.84733,5.78687,13.17803,8.57,-0.4,0.5,2.0
1758075129.08412,1758075128.97994,0.0,0.0,0.0,46.52417,-12.60507,7.62034,7.4,-0.28,0.15,2.0
1758075129.10163,1758075128.98994,0.0,0.0,0.0,43.77398,-22.28806,2.63561,7.4,-0.28,0.15,2.0
1758075129.10579,1758075128.99994,0.0,0.0,0.0,41.65404,-25.15285,-1.3751,8.11,-0.03,-0.21,2.0
1758075129.10635,1758075129.00994,0.0,0.0,0.0,38.90384,-28.24682,-5.4431,8.97,0.23,-0.21,2.0
1758075129.12192,1758075129.01994,0.0,0.0,0.0,38.21629,-21.14215,-5.61499,8.97,0.23,-0.21,2.0
1758075129.12617,1758075129.02994,0.0,0.0,0.0,35.06502,-13.80828,-10.19865,9.99,0.4,0.14,2.0
1758075129.14184,1758075129.03994,0.0,0.0,0.0,31.51268,-14.61043,-14.15206,9.99,0.4,0.14,2.0
1758075129.1462,1758075129.04994,0.0,0.0,0.0,32.37212,-42.62806,-19.25138,8.82,0.61,1.7,2.0
1758075129.16186,1758075129.05994,0.0,0.0,0.0,33.23156,-80.38599,-18.90761,8.82,0.61,1.7,2.0
1758075129.16703,1758075129.06994,0.0,0.0,0.0,33.00237,-124.10267,-10.59972,7.36,0.34,3.49,2.0
1758075129.1855,1758075129.07994,0.0,0.0,0.0,27.38738,-143.81242,12.37589,7.36,0.34,3.49,2.0
1758075129.187,1758075129.08994,0.0,0.0,0.0,22.68913,-137.338,28.93437,15.52,1.52,6.49,2.0
1758075129.20204,1758075129.09994,0.0,0.0,0.0,16.3293,-124.04538,41.48215,17.35,2.19,4.29,2.0
1758075129.20627,1758075129.10994,0.0,0.0,0.0,8.76626,-114.0759,49.38896,17.35,2.19,4.29,2.0
1758075129.22189,1758075129.11994,0.0,0.0,0.0,-0.45837,-104.10643,56.03527,10.0,0.4,3.84,2.0
1758075129.22628,1758075129.12994,0.0,0.0,0.0,-4.69825,-99.29359,55.40502,10.0,0.4,3.84,2.0
1758075129.24199,1758075129.13994,0.0,0.0,0.0,-6.70361,-90.75652,53.05589,5.68,-0.35,2.91,2.0
1758075129.24629,1758075129.14994,0.0,0.0,0.0,-6.18794,-78.26604,48.30034,5.68,-0.35,2.91,2.0
1758075129.26193,1758075129.15994,0.0,0.0,0.0,-1.94806,-61.24919,37.18496,7.13,-0.77,3.67,2.0
1758075129.28025,1758075129.16994,0.0,0.0,0.0,2.7502,-51.16513,27.33009,9.23,-1.08,3.12,2.0
1758075129.28194,1758075129.17994,0.0,0.0,0.0,7.50575,-40.45082,16.272,9.23,-1.08,3.12,2.0
1758075129.29692,1758075129.18994,0.0,0.0,0.0,13.00614,-27.10091,6.47442,10.93,-0.86,0.58,2.0
1758075129.30688,1758075129.19994,0.0,0.0,0.0,19.25138,0.45837,-4.46907,10.93,-0.86,0.58,2.0
1758075129.30862,1758075129.20994,0.0,0.0,0.0,21.7151,22.23076,-9.33921,12.33,-0.64,-0.6,2.0
1758075129.32719,1758075129.21994,0.0,0.0,0.0,22.86102,43.54479,-11.63104,12.33,-0.64,-0.6,2.0
1758075129.32893,1758075129.22994,0.0,0.0,0.0,23.26209,62.79618,-13.23533,12.25,-0.87,-0.73,2.0
1758075129.34825,1758075129.23994,0.0,0.0,0.0,23.54857,79.12547,-12.77696,10.75,-1.23,-0.33,2.0
1758075129.3527,1758075129.24994,0.0,0.0,0.0,24.12152,84.79775,-10.59972,10.75,-1.23,-0.33,2.0
1758075129.36901,1758075129.25994,0.0,0.0,0.0,24.92367,88.86576,-7.62034,10.07,-1.16,-0.05,2.0
1758075129.37205,1758075129.26994,0.0,0.0,0.0,26.52795,92.13161,-1.43239,10.07,-1.16,-0.05,2.0
1758075129.38735,1758075129.27994,0.0,0.0,0.0,27.10091,91.55866,2.57831,9.86,-0.57,0.55,2.0
1758075129.39114,1758075129.28994,0.0,0.0,0.0,26.75713,89.15224,5.90147,9.86,-0.57,0.55,2.0
1758075129.40641,1758075129.29994,0.0,0.0,0.0,25.7831,85.42801,9.5684,9.01,0.28,1.03,2.0
1758075129.40758,1758075129.30994,0.0,0.0,0.0,22.11617,79.01089,11.11538,8.58,0.28,1.49,2.0
1758075129.4224,1758075129.31994,0.0,0.0,0.0,18.90761,73.45319,10.8862,8.58,0.96,1.49,2.0
1758075129.42644,1758075129.32994,0.0,0.0,0.0,14.83961,68.41116,9.62569,8.66,1.36,1.57,2.0
1758075129.44236,1758075129.33994,0.0,0.0,0.0,10.54242,62.05133,7.50575,8.66,1.36,1.57,2.0
1758075129.45936,1758075129.34994,0.0,0.0,0.0,1.3178,55.86338,2.46372,9.18,1.5,1.53,2.0
1758075129.46055,1758075129.35994,0.0,0.0,0.0,-5.21392,51.10783,-1.3178,9.18,1.5,1.53,2.0
1758075129.47671,1758075129.36994,0.0,0.0,0.0,-11.97482,47.03984,-5.90147,9.48,1.44,1.49,2.0
1758075129.48186,1758075129.37994,0.0,0.0,0.0,-18.27736,42.57077,-10.8862,9.48,1.44,1.49,2.0
1758075129.49736,1758075129.38994,0.0,0.0,0.0,-27.2155,34.43476,-15.92823,9.39,1.49,1.33,2.0
1758075129.50105,1758075129.39994,0.0,0.0,0.0,-32.48671,22.97561,-17.18874,8.77,1.51,1.03,2.0
1758075129.51641,1758075129.40994,0.0,0.0,0.0,-36.6693,6.13065,-16.73037,8.77,1.51,1.03,2.0
1758075129.51733,1758075129.41994,0.0,0.0,0.0,-39.76327,-12.89155,-16.10011,7.59,1.19,0.16,2.0
1758075129.5334,1758075129.42994,0.0,0.0,0.0,-42.85724,-41.94051,-12.49048,7.59,1.19,0.16,2.0
1758075129.53858,1758075129.43994,0.0,0.0,0.0,-43.83128,-57.0093,-9.11003,8.14,1.07,-0.55,2.0
1758075129.55591,1758075129.44994,0.0,0.0,0.0,-44.28964,-58.04062,-6.13065,8.14,1.07,-0.55,2.0
1758075129.55696,1758075129.45994,0.0,0.0,0.0,-44.40423,-28.59059,-6.13065,11.03,0.87,-0.71,2.0
1758075129.57319,1758075129.46994,0.0,0.0,0.0,-43.14373,-9.91217,-3.49504,13.61,0.38,-0.65,2.0
1758075129.57927,1758075129.47994,0.0,0.0,0.0,-39.4195,-21.7724,-2.11994,13.61,0.38,-0.65,2.0
1758075129.59639,1758075129.48994,0.0,0.0,0.0,-40.10705,-36.49741,-3.26586,9.92,-0.06,-0.62,2.0
1758075129.5974,1758075129.49994,0.0,0.0,0.0,-38.44547,-50.13381,-3.60963,9.92,-0.06,-0.62,2.0
1758075129.61321,1758075129.50994,0.0,0.0,0.0,-36.38282,-66.29122,-6.7609,10.81,-0.14,1.1,2.0
1758075129.61733,1758075129.51994,0.0,0.0,0.0,-33.05967,-79.64114,-12.54778,10.81,-0.14,1.1,2.0
1758075129.63728,1758075129.52994,0.0,0.0,0.0,-30.36677,-89.15224,-25.72581,13.92,-1.24,5.03,2.0
