timeStamp,timeStampAlign,roll,pitch,yaw,gyro_x,gyro_y,gyro_z,acc_x,acc_y,acc_z,flag_num
1758077873.83136,1758077873.74574,0.0,0.0,0.0,-2.57831,7.79223,0.45837,11.34,-1.48,3.38,3.0
1758077873.84707,1758077873.75574,0.0,0.0,0.0,-0.68755,3.95341,-0.11459,11.34,-1.48,3.38,3.0
1758077873.84827,1758077873.76574,0.0,0.0,0.0,2.06265,-2.29183,-0.74485,10.6,-1.14,3.32,3.0
1758077873.8633,1758077873.77574,0.0,0.0,0.0,4.29718,-6.18794,-0.85944,10.1,-1.03,3.19,3.0
1758077873.87903,1758077873.78574,0.0,0.0,0.0,6.47442,-9.74028,-1.03132,10.1,-1.03,3.19,3.0
1758077873.88028,1758077873.79574,0.0,0.0,0.0,8.70896,-14.32395,-1.03132,9.28,-1.04,3.1,3.0
1758077873.89509,1758077873.80574,0.0,0.0,0.0,11.74564,-20.62648,-0.57296,9.28,-1.04,3.1,3.0
1758077873.89627,1758077873.81574,0.0,0.0,0.0,13.23533,-23.54857,-0.11459,8.39,-0.96,3.12,3.0
1758077873.91134,1758077873.82574,0.0,0.0,0.0,13.98017,-26.35606,0.34377,8.39,-0.96,3.12,3.0
1758077873.92713,1758077873.83574,0.0,0.0,0.0,14.15206,-29.8511,0.80214,7.7,-0.62,3.03,3.0
1758077873.92883,1758077873.84574,0.0,0.0,0.0,13.17803,-34.14828,1.3178,7.24,-0.09,2.84,3.0
1758077873.94311,1758077873.85574,0.0,0.0,0.0,11.86023,-35.86716,1.48969,7.24,-0.09,2.84,3.0
1758077873.95913,1758077873.86574,0.0,0.0,0.0,9.96947,-36.84119,1.66158,7.32,0.43,2.7,3.0
1758077873.96062,1758077873.87574,0.0,0.0,0.0,7.67763,-37.35685,1.48969,7.32,0.43,2.7,3.0
1758077873.97517,1758077873.88574,0.0,0.0,0.0,3.66693,-35.06502,0.74485,7.62,0.81,2.57,3.0
1758077873.97661,1758077873.89574,0.0,0.0,0.0,0.68755,-30.82513,-0.45837,7.62,0.81,2.57,3.0
1758077873.99137,1758077873.90574,0.0,0.0,0.0,-2.11994,-26.18417,-2.23454,8.1,0.91,2.24,3.0
1758077874.00715,1758077873.91574,0.0,0.0,0.0,-5.84417,-19.07949,-5.21392,8.1,0.91,2.24,3.0
1758077874.0084,1758077873.92574,0.0,0.0,0.0,-7.96411,-13.5218,-7.67763,8.19,0.78,2.04,3.0
1758077874.02318,1758077873.93574,0.0,0.0,0.0,-8.93814,-7.33386,-9.74028,8.58,0.56,1.89,3.0
1758077874.0392,1758077873.94574,0.0,0.0,0.0,-9.4538,-0.74485,-11.74564,8.58,0.56,1.89,3.0
1758077874.04074,1758077873.95574,0.0,0.0,0.0,-9.39651,7.33386,-13.80828,8.79,0.32,1.82,3.0
1758077874.05542,1758077873.96574,0.0,0.0,0.0,-8.99544,13.17803,-14.78231,8.79,0.32,1.82,3.0
1758077874.05666,1758077873.97574,0.0,0.0,0.0,-8.42248,17.81899,-15.06879,9.2,0.07,1.85,3.0
1758077874.07148,1758077873.98574,0.0,0.0,0.0,-7.33386,20.34,-15.29797,9.2,0.07,1.85,3.0
1758077874.08749,1758077873.99574,0.0,0.0,0.0,-5.78687,23.0902,-15.92823,9.32,-0.19,1.95,3.0
1758077874.08842,1758077874.00574,0.0,0.0,0.0,-4.52637,23.31938,-16.55848,9.33,-0.38,1.89,3.0
1758077874.10323,1758077874.01574,0.0,0.0,0.0,-2.6929,22.05888,-16.84496,9.33,-0.38,1.89,3.0
1758077874.11921,1758077874.02574,0.0,0.0,0.0,-0.51566,21.60051,-16.61578,9.1,-0.49,1.96,3.0
1758077874.12075,1758077874.03574,0.0,0.0,0.0,2.46372,19.36597,-16.04282,9.1,-0.49,1.96,3.0
1758077874.13526,1758077874.04574,0.0,0.0,0.0,4.1253,16.90226,-15.75634,8.67,-0.48,2.08,3.0
1758077874.13671,1758077874.05574,0.0,0.0,0.0,5.55769,15.0115,-16.04282,8.67,-0.48,2.08,3.0
1758077874.15126,1758077874.06574,0.0,0.0,0.0,7.04738,12.77696,-16.3293,8.34,-0.27,1.9,3.0
1758077874.16724,1758077874.07574,0.0,0.0,0.0,8.76626,9.22462,-15.87093,8.33,-0.05,1.98,3.0
1758077874.16859,1758077874.08574,0.0,0.0,0.0,9.85487,6.47442,-15.12609,8.33,-0.05,1.98,3.0
1758077874.18351,1758077874.09574,0.0,0.0,0.0,10.59972,3.66693,-14.09476,8.48,0.07,2.04,3.0
1758077874.1993,1758077874.10574,0.0,0.0,0.0,11.17268,0.68755,-13.12073,8.48,0.07,2.04,3.0
1758077874.2008,1758077874.11574,0.0,0.0,0.0,11.11538,-2.86479,-12.60507,8.6,0.16,1.99,3.0
1758077874.21529,1758077874.12574,0.0,0.0,0.0,10.71431,-3.89611,-12.37589,8.6,0.16,1.99,3.0
1758077874.21676,1758077874.13574,0.0,0.0,0.0,10.31324,-4.1253,-12.204,8.8,0.27,1.89,3.0
1758077874.23156,1758077874.14574,0.0,0.0,0.0,9.4538,-3.55234,-12.43318,8.8,0.27,1.89,3.0
1758077874.24763,1758077874.15574,0.0,0.0,0.0,8.88085,-2.86479,-12.54778,8.86,0.39,1.83,3.0
1758077874.24892,1758077874.16574,0.0,0.0,0.0,8.25059,-1.77617,-12.60507,9.0,0.45,1.87,3.0
1758077874.26355,1758077874.17573,0.0,0.0,0.0,7.96411,-0.85944,-12.71966,9.0,0.45,1.87,3.0
1758077874.27932,1758077874.18573,0.0,0.0,0.0,7.73493,1.48969,-12.49048,9.24,0.41,1.9,3.0
1758077874.28071,1758077874.19573,0.0,0.0,0.0,7.44845,3.89611,-13.00614,9.24,0.41,1.9,3.0
1758077874.29534,1758077874.20573,0.0,0.0,0.0,7.33386,3.49504,-14.9542,9.5,0.38,2.03,3.0
1758077874.29658,1758077874.21573,0.0,0.0,0.0,8.36518,-4.64096,-15.64175,9.5,0.38,2.03,3.0
1758077874.31136,1758077874.22573,0.0,0.0,0.0,7.84952,-8.36518,-20.45459,9.0,0.4,1.73,3.0
1758077874.3273,1758077874.23573,0.0,0.0,0.0,8.36518,-8.136,-21.7151,9.58,0.44,1.53,3.0
1758077874.32897,1758077874.24573,0.0,0.0,0.0,8.65166,-6.24524,-23.72045,9.58,0.44,1.53,3.0
1758077874.34369,1758077874.25573,0.0,0.0,0.0,8.93814,-5.27121,-24.63719,9.66,0.4,1.21,3.0
1758077874.35964,1758077874.26573,0.0,0.0,0.0,8.30789,-4.18259,-23.72045,9.66,0.4,1.21,3.0
1758077874.36095,1758077874.27573,0.0,0.0,0.0,7.04738,-3.38045,-22.05888,9.43,0.42,1.37,3.0
1758077874.37534,1758077874.28573,0.0,0.0,0.0,5.21392,-2.97938,-19.76705,9.43,0.42,1.37,3.0
1758077874.37656,1758077874.29573,0.0,0.0,0.0,2.92208,-2.63561,-15.29797,9.26,0.56,1.08,3.0
1758077874.3917,1758077874.30573,0.0,0.0,0.0,-0.80214,-2.97938,-11.86023,9.37,0.8,1.13,3.0
1758077874.40773,1758077874.31573,0.0,0.0,0.0,-3.26586,-4.52637,-8.36518,9.37,0.8,1.13,3.0
1758077874.40858,1758077874.32573,0.0,0.0,0.0,-5.72958,-7.39116,-5.27121,9.64,0.88,0.88,3.0
1758077874.42338,1758077874.33573,0.0,0.0,0.0,-8.88085,-9.85487,-1.43239,9.64,0.88,0.88,3.0
1758077874.43939,1758077874.34573,0.0,0.0,0.0,-11.17268,-10.19865,1.3751,10.43,1.01,0.96,3.0
1758077874.44089,1758077874.35573,0.0,0.0,0.0,-15.0115,-4.29718,3.26586,10.43,1.01,0.96,3.0
1758077874.45575,1758077874.36573,0.0,0.0,0.0,-18.44924,18.79302,4.46907,12.27,1.34,1.27,3.0
1758077874.45688,1758077874.37573,0.0,0.0,0.0,-27.73116,36.26823,-2.63561,12.92,1.34,2.52,3.0
1758077874.47169,1758077874.38573,0.0,0.0,0.0,-32.6013,34.49206,-5.72958,12.92,2.02,2.52,3.0
1758077874.4875,1758077874.39573,0.0,0.0,0.0,-36.7266,22.11617,-8.76626,10.97,2.83,2.33,3.0
1758077874.48898,1758077874.40573,0.0,0.0,0.0,-40.62271,16.67307,-11.28727,10.97,2.83,2.33,3.0
1758077874.50369,1758077874.41573,0.0,0.0,0.0,-44.8053,17.24603,-6.87549,12.51,2.93,1.21,3.0
1758077874.51978,1758077874.42573,0.0,0.0,0.0,-45.60744,-29.56462,-1.43239,12.51,2.93,1.21,3.0
1758077874.52058,1758077874.43573,0.0,0.0,0.0,-56.49364,-62.85347,-19.88164,8.83,2.75,4.27,3.0
1758077874.53573,1758077874.44573,0.0,0.0,0.0,-52.08187,-17.30333,-26.52795,8.83,2.75,4.27,3.0
1758077874.53709,1758077874.45573,0.0,0.0,0.0,-40.96649,26.52795,-29.10626,19.92,2.02,4.94,3.0
1758077874.55144,1758077874.46573,0.0,0.0,0.0,-32.42941,23.66316,-25.7831,14.23,-0.65,3.56,3.0
1758077874.5674,1758077874.47573,0.0,0.0,0.0,-23.54857,33.74722,-20.45459,14.23,-0.65,3.56,3.0
1758077874.56865,1758077874.48573,0.0,0.0,0.0,-17.01685,43.77398,-13.86558,14.2,-2.02,3.86,3.0
1758077874.58371,1758077874.49573,0.0,0.0,0.0,-14.83961,32.37212,-5.32851,14.2,-2.02,3.86,3.0
1758077874.59975,1758077874.50573,0.0,0.0,0.0,-15.06879,26.69983,-2.06265,11.72,-1.15,3.08,3.0
1758077874.60104,1758077874.51573,0.0,0.0,0.0,-15.75634,22.28806,-0.97403,11.72,-1.15,3.08,3.0
1758077874.61578,1758077874.52573,0.0,0.0,0.0,-17.87628,11.63104,-1.77617,11.97,0.99,3.89,3.0
1758077874.61697,1758077874.53573,0.0,0.0,0.0,-19.48057,5.84417,-4.81285,11.63,2.39,3.99,3.0
1758077874.63179,1758077874.54573,0.0,0.0,0.0,-20.68378,3.38045,-8.30789,11.63,2.39,3.99,3.0
1758077874.64784,1758077874.55573,0.0,0.0,0.0,-21.6578,-0.34377,-10.65701,10.82,2.62,4.07,3.0
1758077874.64898,1758077874.56573,0.0,0.0,0.0,-24.00693,-12.71966,-12.54778,10.82,2.62,4.07,3.0
1758077874.66397,1758077874.57573,0.0,0.0,0.0,-26.24147,-20.22541,-12.83425,8.27,2.02,3.23,3.0
1758077874.66638,1758077874.58573,0.0,0.0,0.0,-29.27814,-25.09555,-12.204,8.27,2.02,3.23,3.0
1758077874.68262,1758077874.59573,0.0,0.0,0.0,-32.54401,-29.73651,-10.31324,7.3,1.39,2.5,3.0
1758077874.6986,1758077874.60573,0.0,0.0,0.0,-36.49741,-35.2369,-6.53172,6.58,0.79,2.29,3.0
1758077874.70007,1758077874.61573,0.0,0.0,0.0,-38.1017,-38.21629,-4.0107,6.58,0.79,2.29,3.0
1758077874.71459,1758077874.62573,0.0,0.0,0.0,-38.90384,-41.25296,-1.60428,6.48,0.28,2.23,3.0
1758077874.71605,1758077874.63573,0.0,0.0,0.0,-38.73195,-43.60209,0.40107,6.48,0.28,2.23,3.0
1758077874.73187,1758077874.64573,0.0,0.0,0.0,-37.01308,-46.1231,2.86479,6.68,-0.02,2.16,3.0
1758077874.74793,1758077874.65573,0.0,0.0,0.0,-35.2942,-44.86259,3.95341,6.68,-0.02,2.16,3.0
1758077874.74908,1758077874.66573,0.0,0.0,0.0,-33.17426,-41.36755,4.92744,7.35,-0.21,2.0,3.0
1758077874.7636,1758077874.67573,0.0,0.0,0.0,-31.56997,-36.7266,5.72958,7.35,-0.21,2.0,3.0
1758077874.77964,1758077874.68573,0.0,0.0,0.0,-29.67921,-29.04896,6.7609,7.84,-0.25,1.85,3.0
1758077874.7808,1758077874.69573,0.0,0.0,0.0,-28.93437,-23.94964,7.44845,7.94,-0.22,1.69,3.0
1758077874.79558,1758077874.70573,0.0,0.0,0.0,-28.01764,-18.73572,8.65166,7.94,-0.22,1.69,3.0
1758077874.79673,1758077874.71573,0.0,0.0,0.0,-27.10091,-13.98017,10.19865,8.03,-0.31,1.53,3.0
1758077874.81163,1758077874.72573,0.0,0.0,0.0,-26.41335,-6.13065,10.8862,8.03,-0.31,1.53,3.0
1758077874.82765,1758077874.73573,0.0,0.0,0.0,-25.8404,-0.80214,11.57375,8.19,-0.38,1.49,3.0
1758077874.82885,1758077874.74573,0.0,0.0,0.0,-25.26744,3.83882,12.08941,8.19,-0.38,1.49,3.0
1758077874.84364,1758077874.75573,0.0,0.0,0.0,-24.75178,10.8289,12.60507,8.26,-0.33,1.54,3.0
1758077874.84592,1758077874.76573,0.0,0.0,0.0,-24.23611,14.09476,12.60507,8.19,-0.24,1.54,3.0
1758077874.86194,1758077874.77573,0.0,0.0,0.0,-23.89234,16.3293,12.54778,8.19,-0.24,1.54,3.0
1758077874.87864,1758077874.78573,0.0,0.0,0.0,-23.72045,18.27736,12.2613,8.01,-0.2,1.66,3.0
1758077874.88061,1758077874.79573,0.0,0.0,0.0,-23.49127,19.76705,11.74564,8.01,-0.2,1.66,3.0
1758077874.89566,1758077874.80573,0.0,0.0,0.0,-23.0902,19.99623,11.17268,7.97,-0.22,1.84,3.0
1758077874.89688,1758077874.81573,0.0,0.0,0.0,-22.34536,20.3973,10.65701,7.97,-0.22,1.84,3.0
1758077874.91195,1758077874.82573,0.0,0.0,0.0,-21.31403,20.34,10.02676,8.0,-0.33,1.81,3.0
1758077874.92864,1758077874.83573,0.0,0.0,0.0,-19.53786,20.79837,9.11003,8.18,-0.62,1.74,3.0
1758077874.92982,1758077874.84573,0.0,0.0,0.0,-17.87628,22.00158,8.93814,8.18,-0.62,1.74,3.0
1758077874.94571,1758077874.85573,0.0,0.0,0.0,-15.98552,22.57454,8.93814,8.57,-0.97,1.9,3.0
1758077874.9466,1758077874.86573,0.0,0.0,0.0,-13.46451,22.28806,9.91217,8.57,-0.97,1.9,3.0
1758077874.96197,1758077874.87573,0.0,0.0,0.0,-9.74028,22.63183,11.74564,8.89,-1.29,1.86,3.0
1758077874.96603,1758077874.88573,0.0,0.0,0.0,-7.67763,21.6578,13.12073,8.89,-1.29,1.86,3.0
1758077874.98282,1758077874.89573,0.0,0.0,0.0,-5.95876,20.68378,14.20935,9.14,-1.36,1.87,3.0
1758077874.99901,1758077874.90573,0.0,0.0,0.0,-5.15662,18.85031,14.49583,9.14,-1.36,1.87,3.0
1758077874.99993,1758077874.91573,0.0,0.0,0.0,-4.69825,15.92823,13.98017,9.21,-1.04,1.93,3.0
1758077875.01496,1758077874.92573,0.0,0.0,0.0,-5.27121,15.0115,12.83425,9.44,-0.55,1.82,3.0
1758077875.0159,1758077874.93573,0.0,0.0,0.0,-5.90147,13.5218,11.51645,9.44,-0.55,1.82,3.0
1758077875.03177,1758077874.94573,0.0,0.0,0.0,-8.02141,11.11538,9.11003,9.53,-0.14,1.95,3.0
1758077875.05051,1758077874.95573,0.0,0.0,0.0,-9.62569,9.22462,7.67763,9.53,-0.14,1.95,3.0
1758077875.05152,1758077874.96573,0.0,0.0,0.0,-11.17268,7.16197,6.7609,9.66,0.03,2.0,3.0
1758077875.06696,1758077874.97573,0.0,0.0,0.0,-12.60507,4.87014,6.13065,9.66,0.03,2.0,3.0
1758077875.06903,1758077874.98573,0.0,0.0,0.0,-14.15206,2.06265,6.07335,9.58,-0.03,1.82,3.0
1758077875.08621,1758077874.99573,0.0,0.0,0.0,-14.78231,0.45837,6.35983,9.35,-0.28,1.75,3.0
1758077875.08923,1758077875.00573,0.0,0.0,0.0,-15.06879,-1.60428,6.41713,9.35,-0.28,1.75,3.0
1758077875.10562,1758077875.01573,0.0,0.0,0.0,-14.83961,-4.0107,6.41713,9.07,-0.57,1.64,3.0
1758077875.10659,1758077875.02573,0.0,0.0,0.0,-13.46451,-6.13065,7.21927,9.07,-0.57,1.64,3.0
1758077875.12212,1758077875.03573,0.0,0.0,0.0,-11.57375,-3.38045,8.136,9.39,-0.81,1.88,3.0
1758077875.13893,1758077875.04573,0.0,0.0,0.0,-9.11003,1.08862,9.33921,9.39,-0.81,1.88,3.0
1758077875.14,1758077875.05573,0.0,0.0,0.0,-6.53172,2.97938,10.54242,9.7,-1.15,1.97,3.0
1758077875.15479,1758077875.06573,0.0,0.0,0.0,-2.57831,-0.22918,11.57375,9.05,-1.31,1.98,3.0
1758077875.15711,1758077875.07573,0.0,0.0,0.0,0.17189,-2.63561,12.08941,9.05,-1.31,1.98,3.0
1758077875.1731,1758077875.08573,0.0,0.0,0.0,2.23454,-5.32851,12.2613,9.22,-1.42,1.61,3.0
1758077875.18909,1758077875.09573,0.0,0.0,0.0,4.35448,-6.87549,12.54778,9.22,-1.42,1.61,3.0
1758077875.19032,1758077875.10573,0.0,0.0,0.0,7.73493,-8.25059,13.46451,9.52,-1.48,1.45,3.0
1758077875.20563,1758077875.11573,0.0,0.0,0.0,10.19865,-9.85487,13.98017,9.52,-1.48,1.45,3.0
1758077875.20683,1758077875.12573,0.0,0.0,0.0,12.37589,-13.5218,14.32395,9.53,-1.41,1.49,3.0
1758077875.22213,1758077875.13573,0.0,0.0,0.0,14.43854,-20.51189,13.00614,9.53,-1.41,1.49,3.0
1758077875.23812,1758077875.14573,0.0,0.0,0.0,15.24068,-25.72581,10.37054,9.22,-1.13,1.09,3.0
1758077875.23906,1758077875.15573,0.0,0.0,0.0,17.87628,-15.41257,8.59437,10.72,-0.92,0.96,3.0
1758077875.25418,1758077875.16573,0.0,0.0,0.0,21.14215,2.63561,6.87549,10.72,-0.92,0.96,3.0
1758077875.25583,1758077875.17573,0.0,0.0,0.0,25.21014,28.24682,3.72423,11.98,-1.01,1.95,3.0
1758077875.27223,1758077875.18573,0.0,0.0,0.0,27.67386,33.17426,-0.51566,11.98,-1.01,1.95,3.0
1758077875.28812,1758077875.19573,0.0,0.0,0.0,32.08564,25.72581,-3.26586,10.13,-1.02,2.59,3.0
1758077875.28941,1758077875.20573,0.0,0.0,0.0,29.73651,-13.34992,-16.73037,10.13,-1.02,2.59,3.0
1758077875.30416,1758077875.21573,0.0,0.0,0.0,38.78925,-140.60385,17.6471,4.56,-1.23,3.5,3.0
1758077875.32014,1758077875.22573,0.0,0.0,0.0,32.08564,-91.84514,30.25217,17.36,-2.88,4.1,3.0
1758077875.32136,1758077875.23573,0.0,0.0,0.0,24.92367,-33.74722,36.84119,17.36,-2.88,4.1,3.0
1758077875.33605,1758077875.24573,0.0,0.0,0.0,22.28806,-25.15285,39.53409,17.87,-1.74,2.77,3.0
1758077875.33713,1758077875.25573,0.0,0.0,0.0,17.93358,-28.70519,33.34615,17.87,-1.74,2.77,3.0
1758077875.35229,1758077875.26573,0.0,0.0,0.0,11.91752,-10.19865,22.51724,14.47,0.28,4.59,3.0
1758077875.36815,1758077875.27573,0.0,0.0,0.0,8.99544,-1.71887,8.65166,14.47,0.28,4.59,3.0
1758077875.36999,1758077875.28573,0.0,0.0,0.0,7.62034,4.0107,-4.81285,14.19,1.2,3.16,3.0
1758077875.38603,1758077875.29573,0.0,0.0,0.0,8.30789,17.30333,-15.35527,15.06,0.22,4.61,3.0
1758077875.38689,1758077875.30573,0.0,0.0,0.0,9.28192,24.63719,-15.98552,15.06,0.22,4.61,3.0
1758077875.40189,1758077875.31573,0.0,0.0,0.0,10.19865,27.44468,-11.57375,15.56,-1.13,3.87,3.0
1758077875.41796,1758077875.32573,0.0,0.0,0.0,10.71431,32.25753,-3.26586,15.56,-1.13,3.87,3.0
1758077875.41917,1758077875.33573,0.0,0.0,0.0,14.38124,32.54401,1.3751,13.66,-2.23,3.83,3.0
1758077875.43428,1758077875.34573,0.0,0.0,0.0,18.85031,27.2155,5.72958,13.66,-2.23,3.83,3.0
1758077875.45076,1758077875.35573,0.0,0.0,0.0,24.17882,22.28806,8.93814,10.18,-2.46,3.08,3.0
1758077875.45228,1758077875.36573,0.0,0.0,0.0,31.11161,16.84496,10.48513,10.18,-2.46,3.08,3.0
1758077875.46704,1758077875.37573,0.0,0.0,0.0,34.72124,13.17803,8.99544,8.57,-2.23,2.96,3.0
1758077875.46847,1758077875.38573,0.0,0.0,0.0,37.29956,9.28192,6.24524,7.22,-1.55,2.64,3.0
1758077875.48304,1758077875.39573,0.0,0.0,0.0,38.78925,5.78687,3.03668,7.22,-1.55,2.64,3.0
1758077875.49903,1758077875.40573,0.0,0.0,0.0,39.53409,-0.0573,-1.03132,6.42,-0.45,2.58,3.0
1758077875.50073,1758077875.41573,0.0,0.0,0.0,39.07573,-3.49504,-3.32316,6.42,-0.45,2.58,3.0
1758077875.51503,1758077875.42573,0.0,0.0,0.0,37.81522,-6.87549,-4.98473,6.24,0.69,2.25,3.0
1758077875.51652,1758077875.43573,0.0,0.0,0.0,35.69527,-10.54242,-6.35983,6.24,0.69,2.25,3.0
1758077875.53206,1758077875.44573,0.0,0.0,0.0,31.51268,-16.95955,-7.44845,6.36,1.36,2.14,3.0
1758077875.54809,1758077875.45573,0.0,0.0,0.0,28.36141,-20.62648,-7.44845,6.57,1.47,1.94,3.0
1758077875.54955,1758077875.46573,0.0,0.0,0.0,25.21014,-23.49127,-7.39116,6.57,1.47,1.94,3.0
1758077875.56437,1758077875.47573,0.0,0.0,0.0,22.23076,-24.92367,-7.04738,7.0,1.21,1.74,3.0
1758077875.56602,1758077875.48573,0.0,0.0,0.0,18.56383,-22.51724,-6.7609,7.0,1.21,1.74,3.0
1758077875.58236,1758077875.49573,0.0,0.0,0.0,16.38659,-18.50654,-6.99009,7.64,0.78,1.75,3.0
1758077875.59839,1758077875.50573,0.0,0.0,0.0,14.66772,-14.20935,-7.79223,7.64,0.78,1.75,3.0
1758077875.59958,1758077875.51573,0.0,0.0,0.0,13.5791,-11.28727,-8.65166,7.95,0.42,1.86,3.0
1758077875.61409,1758077875.52573,0.0,0.0,0.0,13.00614,-7.44845,-10.08406,8.12,0.24,1.81,3.0
1758077875.63057,1758077875.53573,0.0,0.0,0.0,13.12073,-4.58366,-10.94349,8.12,0.24,1.81,3.0
1758077875.63092,1758077875.54573,0.0,0.0,0.0,13.46451,-1.66158,-11.51645,8.45,0.13,1.78,3.0
1758077875.64613,1758077875.55573,0.0,0.0,0.0,14.15206,0.40107,-11.51645,8.45,0.13,1.78,3.0
1758077875.64732,1758077875.56573,0.0,0.0,0.0,14.78231,1.94806,-10.94349,8.63,0.0,1.77,3.0
1758077875.66211,1758077875.57573,0.0,0.0,0.0,15.46986,1.3178,-9.91217,8.63,0.0,1.77,3.0
1758077875.6784,1758077875.58573,0.0,0.0,0.0,16.38659,-0.40107,-8.47978,8.72,-0.16,1.94,3.0
1758077875.67928,1758077875.59573,0.0,0.0,0.0,17.58981,-5.27121,-6.8182,8.72,-0.16,1.94,3.0
1758077875.69443,1758077875.60573,0.0,0.0,0.0,18.44924,-8.93814,-5.84417,8.75,-0.28,1.97,3.0
1758077875.71043,1758077875.61573,0.0,0.0,0.0,19.76705,-12.204,-5.21392,8.74,-0.31,1.83,3.0
1758077875.71087,1758077875.62573,0.0,0.0,0.0,21.14215,-14.72501,-4.81285,8.74,-0.31,1.83,3.0
1758077875.72744,1758077875.63573,0.0,0.0,0.0,23.0902,-17.76169,-4.64096,8.57,-0.24,1.74,3.0
1758077875.72931,1758077875.64573,0.0,0.0,0.0,24.5226,-18.9649,-4.18259,8.57,-0.24,1.74,3.0
1758077875.74448,1758077875.65573,0.0,0.0,0.0,25.43933,-19.19409,-4.0107,8.53,-0.12,1.67,3.0
1758077875.74695,1758077875.66573,0.0,0.0,0.0,25.61122,-18.27736,-4.1253,8.53,-0.12,1.67,3.0
1758077875.7624,1758077875.67573,0.0,0.0,0.0,24.80907,-15.98552,-5.21392,8.78,0.09,1.76,3.0
1758077875.77815,1758077875.68573,0.0,0.0,0.0,23.94964,-13.86558,-6.18794,9.1,0.44,1.66,3.0
1758077875.77974,1758077875.69573,0.0,0.0,0.0,22.86102,-12.08941,-6.99009,9.1,0.44,1.66,3.0
1758077875.79419,1758077875.70573,0.0,0.0,0.0,21.6578,-10.25595,-7.67763,9.37,0.63,1.62,3.0
1758077875.79616,1758077875.71573,0.0,0.0,0.0,20.11082,-7.21927,-7.73493,9.37,0.63,1.62,3.0
1758077875.81119,1758077875.72573,0.0,0.0,0.0,19.48057,-4.92744,-7.04738,9.58,0.58,1.45,3.0
1758077875.8275,1758077875.73573,0.0,0.0,0.0,19.07949,-2.57831,-6.13065,9.58,0.58,1.45,3.0
1758077875.82835,1758077875.74573,0.0,0.0,0.0,18.90761,0.34377,-3.95341,9.6,0.36,1.42,3.0
1758077875.84352,1758077875.75573,0.0,0.0,0.0,19.19409,5.84417,-2.40642,9.67,0.13,1.46,3.0
1758077875.86044,1758077875.76573,0.0,0.0,0.0,19.59516,9.62569,-0.80214,9.67,0.13,1.46,3.0
1758077875.86079,1758077875.77573,0.0,0.0,0.0,20.22541,13.40721,0.51566,9.76,-0.02,1.46,3.0
1758077875.87629,1758077875.78573,0.0,0.0,0.0,20.68378,18.9649,1.83346,9.76,-0.02,1.46,3.0
1758077875.87766,1758077875.79573,0.0,0.0,0.0,20.85567,21.37133,2.29183,9.86,0.03,1.49,3.0
1758077875.89234,1758077875.80573,0.0,0.0,0.0,20.22541,23.37668,2.29183,9.86,0.03,1.49,3.0
1758077875.90847,1758077875.81573,0.0,0.0,0.0,19.82434,25.61122,1.60428,9.79,0.28,1.41,3.0
1758077875.90942,1758077875.82573,0.0,0.0,0.0,18.44924,26.64254,0.68755,9.63,0.28,1.43,3.0
1758077875.9245,1758077875.83573,0.0,0.0,0.0,17.36062,23.60586,0.22918,9.63,0.57,1.43,3.0
1758077875.9262,1758077875.84573,0.0,0.0,0.0,16.21471,19.07949,-0.22918,9.2,0.71,1.48,3.0
1758077875.94126,1758077875.85573,0.0,0.0,0.0,14.72501,13.86558,-1.03132,9.2,0.71,1.48,3.0
1758077875.95728,1758077875.86573,0.0,0.0,0.0,11.86023,7.10468,-3.20856,9.34,0.73,1.46,3.0
1758077875.95842,1758077875.87573,0.0,0.0,0.0,10.71431,2.11994,-3.32316,9.34,0.73,1.46,3.0
1758077875.97353,1758077875.88573,0.0,0.0,0.0,8.30789,2.7502,-5.15662,9.57,0.77,1.18,3.0
1758077875.9752,1758077875.89573,0.0,0.0,0.0,6.24524,3.38045,-6.7609,9.57,0.77,1.18,3.0
1758077875.99097,1758077875.90573,0.0,0.0,0.0,2.92208,1.48969,-8.65166,9.66,0.87,1.38,3.0
1758077876.00654,1758077875.91573,0.0,0.0,0.0,0.0573,0.22918,-9.96947,9.36,1.01,1.18,3.0
1758077876.00776,1758077875.92573,0.0,0.0,0.0,-3.03668,0.0573,-10.65701,9.36,1.01,1.18,3.0
1758077876.02243,1758077875.93573,0.0,0.0,0.0,-6.18794,-0.0573,-11.11538,9.45,1.23,0.94,3.0
1758077876.03834,1758077875.94573,0.0,0.0,0.0,-11.22997,-3.49504,-10.08406,9.45,1.23,0.94,3.0
1758077876.0398,1758077875.95573,0.0,0.0,0.0,-14.49583,-6.13065,-8.42248,9.3,1.37,0.56,3.0
1758077876.0543,1758077875.96573,0.0,0.0,0.0,-17.18874,-6.8182,-6.41713,9.3,1.37,0.56,3.0
1758077876.05582,1758077875.97573,0.0,0.0,0.0,-21.25674,-6.87549,-2.40642,9.92,1.3,0.74,3.0
1758077876.07091,1758077875.98573,0.0,0.0,0.0,-23.66316,-4.46907,0.68755,11.04,1.22,0.9,3.0
1758077876.08656,1758077875.99573,0.0,0.0,0.0,-26.47065,3.55234,4.35448,11.04,1.22,0.9,3.0
1758077876.08785,1758077876.00573,0.0,0.0,0.0,-30.30947,29.22085,6.53172,13.74,1.25,1.59,3.0
1758077876.10269,1758077876.01573,0.0,0.0,0.0,-37.12767,46.1804,4.81285,13.74,1.25,1.59,3.0
1758077876.11861,1758077876.02573,0.0,0.0,0.0,-41.31026,29.67921,5.4431,12.78,1.67,3.17,3.0
1758077876.11971,1758077876.03573,0.0,0.0,0.0,-40.04975,-54.25911,2.40642,12.78,1.67,3.17,3.0
1758077876.13462,1758077876.04573,0.0,0.0,0.0,-46.52417,-68.35387,-24.57989,8.23,3.04,4.91,3.0
1758077876.1355,1758077876.05573,0.0,0.0,0.0,-38.61736,16.90226,-35.69527,23.54,2.55,4.45,3.0
1758077876.15094,1758077876.06573,0.0,0.0,0.0,-32.77319,33.86181,-35.75257,23.54,2.55,4.45,3.0
1758077876.16631,1758077876.07573,0.0,0.0,0.0,-28.13223,30.99702,-31.97105,15.42,-0.3,3.57,3.0
1758077876.16758,1758077876.08573,0.0,0.0,0.0,-23.20479,35.98175,-24.00693,15.42,-0.3,3.57,3.0
1758077876.18265,1758077876.09573,0.0,0.0,0.0,-20.11082,41.94051,-9.85487,15.17,-1.47,3.99,3.0
1758077876.19867,1758077876.10573,0.0,0.0,0.0,-21.7724,41.88322,-0.57296,15.17,-1.47,3.99,3.0
1758077876.19951,1758077876.11573,0.0,0.0,0.0,-24.00693,43.31561,6.07335,14.27,-0.69,3.15,3.0
1758077876.21518,1758077876.12573,0.0,0.0,0.0,-26.75713,40.39353,9.22462,14.27,-0.69,3.15,3.0
1758077876.21657,1758077876.13573,0.0,0.0,0.0,-30.65324,34.26288,6.47442,13.08,0.95,4.56,3.0
1758077876.23178,1758077876.14573,0.0,0.0,0.0,-32.48671,34.43476,1.20321,12.42,1.99,4.43,3.0
1758077876.2474,1758077876.15573,0.0,0.0,0.0,-34.0337,32.08564,-4.52637,12.42,1.99,4.43,3.0
1758077876.2489,1758077876.16573,0.0,0.0,0.0,-37.24226,23.37668,-12.54778,10.02,2.08,4.25,3.0
1758077876.2634,1758077876.17573,0.0,0.0,0.0,-40.39353,7.16197,-16.3293,10.02,2.08,4.25,3.0
1758077876.26569,1758077876.18573,0.0,0.0,0.0,-43.60209,-0.57296,-18.27736,7.82,1.74,3.19,3.0
1758077876.28139,1758077876.19573,0.0,0.0,0.0,-46.86795,-8.30789,-18.85031,7.82,1.74,3.19,3.0
1758077876.29771,1758077876.20573,0.0,0.0,0.0,-51.73809,-20.16812,-17.58981,6.61,1.24,2.34,3.0
1758077876.29973,1758077876.21573,0.0,0.0,0.0,-54.25911,-28.07493,-15.87093,5.49,0.72,2.36,3.0
1758077876.31468,1758077876.22573,0.0,0.0,0.0,-56.32175,-35.12231,-13.5791,5.49,0.72,2.36,3.0
1758077876.31587,1758077876.23573,0.0,0.0,0.0,-57.63955,-41.71133,-10.8289,5.27,0.19,2.26,3.0
1758077876.33078,1758077876.24573,0.0,0.0,0.0,-58.67088,-49.33167,-7.10468,5.27,0.19,2.26,3.0
1758077876.34645,1758077876.25573,0.0,0.0,0.0,-58.4417,-52.42564,-5.09932,5.84,-0.32,2.08,3.0
1758077876.34766,1758077876.26573,0.0,0.0,0.0,-57.52497,-53.39967,-3.60963,5.84,-0.32,2.08,3.0
1758077876.36245,1758077876.27573,0.0,0.0,0.0,-55.92068,-52.71212,-2.63561,6.87,-0.86,2.12,3.0
1758077876.37854,1758077876.28573,0.0,0.0,0.0,-52.65482,-48.75871,-1.94806,7.66,-1.2,2.08,3.0
1758077876.37962,1758077876.29573,0.0,0.0,0.0,-49.96192,-44.86259,-1.3178,7.66,-1.2,2.08,3.0
1758077876.3953,1758077876.30573,0.0,0.0,0.0,-47.32632,-40.62271,-0.68755,7.84,-1.24,1.96,3.0
1758077876.39646,1758077876.31573,0.0,0.0,0.0,-44.57612,-36.03905,0.11459,7.84,-1.24,1.96,3.0
1758077876.41164,1758077876.32573,0.0,0.0,0.0,-40.16434,-28.76248,1.83346,7.55,-1.19,1.61,3.0
1758077876.42773,1758077876.33573,0.0,0.0,0.0,-37.18496,-23.66316,3.32316,7.55,-1.19,1.61,3.0
1758077876.42867,1758077876.34573,0.0,0.0,0.0,-34.32018,-18.50654,4.46907,7.39,-1.2,1.5,3.0
1758077876.44377,1758077876.35573,0.0,0.0,0.0,-31.56997,-13.17803,5.61499,7.39,-1.2,1.5,3.0
1758077876.44555,1758077876.36573,0.0,0.0,0.0,-27.78845,-4.69825,6.47442,7.63,-1.18,1.61,3.0
1758077876.46179,1758077876.37573,0.0,0.0,0.0,-25.43933,0.51566,6.58902,8.04,-1.05,1.68,3.0
1758077876.47781,1758077876.38573,0.0,0.0,0.0,-23.31938,5.90147,6.8182,8.04,-1.05,1.68,3.0
1758077876.4787,1758077876.39573,0.0,0.0,0.0,-20.85567,12.77696,6.13065,8.3,-0.91,1.68,3.0
1758077876.49383,1758077876.40573,0.0,0.0,0.0,-19.88164,16.84496,5.50039,8.3,-0.91,1.68,3.0
1758077876.49474,1758077876.41573,0.0,0.0,0.0,-19.07949,20.79837,4.64096,8.38,-0.82,1.71,3.0
1758077876.51097,1758077876.42573,0.0,0.0,0.0,-18.73572,23.83505,3.89611,8.38,-0.82,1.71,3.0
1758077876.52668,1758077876.43573,0.0,0.0,0.0,-18.50654,28.36141,2.63561,8.48,-0.8,1.84,3.0
1758077876.52775,1758077876.44573,0.0,0.0,0.0,-18.22006,31.2262,1.94806,8.74,-0.85,1.94,3.0
1758077876.54261,1758077876.45573,0.0,0.0,0.0,-17.99088,32.88778,1.08862,8.74,-0.85,1.94,3.0
1758077876.55889,1758077876.46573,0.0,0.0,0.0,-17.30333,32.71589,0.80214,8.82,-0.92,2.02,3.0
1758077876.55972,1758077876.47573,0.0,0.0,0.0,-15.69904,29.96569,0.85944,8.82,-0.92,2.02,3.0
1758077876.57485,1758077876.48573,0.0,0.0,0.0,-14.15206,29.33544,1.14592,9.07,-1.02,2.06,3.0
1758077876.57605,1758077876.49573,0.0,0.0,0.0,-12.77696,29.67921,1.66158,9.07,-1.02,2.06,3.0
1758077876.59091,1758077876.50573,0.0,0.0,0.0,-11.22997,29.96569,2.34913,9.62,-1.07,2.11,3.0
1758077876.60683,1758077876.51573,0.0,0.0,0.0,-8.99544,31.28349,3.09397,9.79,-0.99,2.23,3.0
1758077876.60804,1758077876.52573,0.0,0.0,0.0,-7.44845,32.71589,3.55234,9.79,-0.99,2.23,3.0
1758077876.6226,1758077876.53573,0.0,0.0,0.0,-6.47442,34.32018,3.83882,9.79,-0.86,2.26,3.0
1758077876.63861,1758077876.54573,0.0,0.0,0.0,-5.50039,34.77854,3.95341,9.79,-0.86,2.26,3.0
1758077876.67092,1758077876.55573,0.0,0.0,0.0,-4.18259,25.09555,3.49504,9.41,-0.59,2.23,3.0
1758077876.68691,1758077876.56573,0.0,0.0,0.0,-4.29718,22.23076,3.66693,9.35,-0.48,2.21,3.0
1758077876.68897,1758077876.57573,0.0,0.0,0.0,-4.69825,18.73572,3.95341,9.15,-0.4,2.26,3.0
1758077876.70393,1758077876.58573,0.0,0.0,0.0,-5.21392,15.06879,4.29718,9.15,-0.4,2.26,3.0
1758077876.70566,1758077876.59573,0.0,0.0,0.0,-5.95876,9.28192,4.87014,8.92,-0.36,2.15,3.0
1758077876.72167,1758077876.60573,0.0,0.0,0.0,-6.53172,5.4431,5.55769,8.92,-0.36,2.15,3.0
1758077876.7379,1758077876.61573,0.0,0.0,0.0,-6.99009,1.94806,5.78687,8.85,-0.37,1.89,3.0
1758077876.73965,1758077876.62573,0.0,0.0,0.0,-7.44845,-1.20321,5.95876,8.85,-0.37,1.89,3.0
1758077876.75464,1758077876.63573,0.0,0.0,0.0,-8.0787,-4.52637,6.53172,8.96,-0.43,1.93,3.0
1758077876.75585,1758077876.64573,0.0,0.0,0.0,-7.39116,-4.18259,7.96411,9.35,-0.61,2.21,3.0
1758077876.7707,1758077876.65573,0.0,0.0,0.0,-6.41713,-1.3178,9.4538,9.35,-0.61,2.21,3.0
1758077876.7901,1758077876.66573,0.0,0.0,0.0,-5.50039,3.09397,11.17268,9.8,-0.93,2.29,3.0
1758077876.79262,1758077876.67573,0.0,0.0,0.0,-2.92208,8.0787,13.06344,9.8,-0.93,2.29,3.0
1758077876.80763,1758077876.68573,0.0,0.0,0.0,-0.85944,7.04738,13.40721,9.42,-1.2,2.48,3.0
1758077876.80897,1758077876.69573,0.0,0.0,0.0,1.43239,4.52637,12.89155,9.42,-1.2,2.48,3.0
1758077876.82393,1758077876.70573,0.0,0.0,0.0,3.89611,2.46372,11.57375,9.08,-1.34,2.36,3.0
1758077876.82656,1758077876.71573,0.0,0.0,0.0,7.39116,1.20321,9.74028,9.49,-1.37,2.01,3.0
1758077876.84268,1758077876.72573,0.0,0.0,0.0,9.74028,0.74485,9.39651,9.49,-1.37,2.01,3.0
1758077876.85864,1758077876.73573,0.0,0.0,0.0,11.97482,0.51566,9.28192,9.68,-1.33,1.81,3.0
1758077876.85994,1758077876.74573,0.0,0.0,0.0,13.80828,-2.23454,9.4538,9.68,-1.33,1.81,3.0
1758077876.87501,1758077876.75573,0.0,0.0,0.0,15.98552,-9.85487,9.33921,9.45,-1.19,1.4,3.0
1758077876.87619,1758077876.76573,0.0,0.0,0.0,17.18874,-10.02676,7.44845,9.45,-1.19,1.4,3.0
1758077876.89096,1758077876.77573,0.0,0.0,0.0,18.90761,0.22918,7.10468,10.06,-1.01,0.94,3.0
1758077876.90684,1758077876.78573,0.0,0.0,0.0,23.54857,31.79916,6.18794,10.06,-1.01,0.94,3.0
1758077876.90784,1758077876.79573,0.0,0.0,0.0,26.75713,45.72203,6.07335,11.61,-1.12,1.63,3.0
1758077876.92295,1758077876.80573,0.0,0.0,0.0,29.67921,43.94586,2.7502,9.09,-1.15,3.28,3.0
1758077876.93876,1758077876.81573,0.0,0.0,0.0,24.5226,-6.47442,-13.5218,9.09,-1.15,3.28,3.0
1758077876.93995,1758077876.82573,0.0,0.0,0.0,35.92446,-110.46626,23.26209,2.48,-1.18,3.46,3.0
1758077876.95492,1758077876.83573,0.0,0.0,0.0,30.53865,-64.45775,32.6013,2.48,-1.18,3.46,3.0
1758077876.95624,1758077876.84573,0.0,0.0,0.0,26.01229,-25.7831,36.55471,18.6,-2.26,2.51,3.0
1758077876.97074,1758077876.85573,0.0,0.0,0.0,22.05888,-38.15899,35.69527,18.6,-2.26,2.51,3.0
1758077876.9868,1758077876.86573,0.0,0.0,0.0,16.73037,-44.57612,28.24682,10.99,-1.15,2.25,3.0
1758077876.98828,1758077876.87573,0.0,0.0,0.0,12.60507,-28.93437,21.42862,13.84,0.44,6.32,3.0
1758077877.00281,1758077876.88573,0.0,0.0,0.0,7.04738,-17.01685,7.39116,13.84,0.44,6.32,3.0
1758077877.01878,1758077876.89573,0.0,0.0,0.0,2.97938,-15.06879,-5.4431,13.4,1.12,3.05,3.0
1758077877.02029,1758077876.90573,0.0,0.0,0.0,-0.11459,-3.72423,-19.25138,13.4,1.12,3.05,3.0
1758077877.03514,1758077876.91573,0.0,0.0,0.0,-0.68755,2.57831,-21.31403,14.26,0.25,4.17,3.0
1758077877.03632,1758077876.92573,0.0,0.0,0.0,-1.08862,2.11994,-18.44924,14.26,0.25,4.17,3.0
1758077877.05095,1758077876.93573,0.0,0.0,0.0,-0.85944,2.40642,-12.37589,13.96,-1.0,4.09,3.0
1758077877.06697,1758077876.94573,0.0,0.0,0.0,-0.0573,4.52637,-1.83346,14.04,-2.35,4.31,3.0
1758077877.0683,1758077876.95573,0.0,0.0,0.0,1.43239,2.63561,4.23989,14.04,-2.35,4.31,3.0
1758077877.08283,1758077876.96573,0.0,0.0,0.0,3.95341,0.57296,8.65166,12.33,-2.85,3.75,3.0
1758077877.09899,1758077876.97573,0.0,0.0,0.0,8.93814,0.51566,11.34457,12.33,-2.85,3.75,3.0
1758077877.10034,1758077876.98573,0.0,0.0,0.0,12.83425,-0.68755,11.51645,11.08,-2.52,3.6,3.0
1758077877.11514,1758077876.99573,0.0,0.0,0.0,16.10011,-0.74485,9.22462,11.08,-2.52,3.6,3.0
1758077877.11633,1758077877.00573,0.0,0.0,0.0,20.3973,-2.7502,6.87549,9.5,-1.82,3.52,3.0
1758077877.13095,1758077877.01573,0.0,0.0,0.0,26.69983,-6.58902,2.92208,9.5,-1.82,3.52,3.0
1758077877.14693,1758077877.02573,0.0,0.0,0.0,30.82513,-11.11538,1.03132,8.28,-1.29,3.41,3.0
1758077877.14807,1758077877.03573,0.0,0.0,0.0,34.77854,-16.21471,-0.0573,7.67,-0.99,3.12,3.0
1758077877.16288,1758077877.04573,0.0,0.0,0.0,38.84654,-20.68378,0.0,7.67,-0.99,3.12,3.0
1758077877.17893,1758077877.05573,0.0,0.0,0.0,44.11775,-24.5226,1.14592,7.74,-0.79,2.84,3.0
1758077877.1804,1758077877.06573,0.0,0.0,0.0,46.75336,-25.7831,2.23454,7.74,-0.79,2.84,3.0
1758077877.19488,1758077877.07573,0.0,0.0,0.0,48.35764,-26.47065,2.7502,7.82,-0.56,2.84,3.0
1758077877.19612,1758077877.08573,0.0,0.0,0.0,48.9306,-27.50197,2.97938,7.82,-0.56,2.84,3.0
1758077877.21127,1758077877.09573,0.0,0.0,0.0,47.61279,-27.84575,2.11994,7.67,-0.11,2.72,3.0
1758077877.22691,1758077877.10573,0.0,0.0,0.0,45.37826,-27.33009,1.08862,7.79,0.63,2.31,3.0
1758077877.22813,1758077877.11573,0.0,0.0,0.0,42.51347,-25.49662,-0.11459,7.79,0.63,2.31,3.0
1758077877.24293,1758077877.12573,0.0,0.0,0.0,39.07573,-22.51724,-1.3751,8.28,1.37,2.13,3.0
1758077877.25888,1758077877.13573,0.0,0.0,0.0,33.86181,-15.24068,-2.97938,8.28,1.37,2.13,3.0
1758077877.26012,1758077877.14573,0.0,0.0,0.0,30.53865,-10.8289,-4.18259,8.84,1.68,2.1,3.0
1758077877.27496,1758077877.15573,0.0,0.0,0.0,27.73116,-6.18794,-4.98473,8.84,1.68,2.1,3.0
1758077877.27615,1758077877.16573,0.0,0.0,0.0,25.38203,-2.34913,-5.95876,8.83,1.36,2.01,3.0
1758077877.29095,1758077877.17573,0.0,0.0,0.0,22.68913,3.03668,-6.41713,8.9,0.79,1.95,3.0
1758077877.30697,1758077877.18573,0.0,0.0,0.0,21.31403,7.84952,-6.70361,8.9,0.79,1.95,3.0
1758077877.30824,1758077877.19573,0.0,0.0,0.0,20.34,12.204,-6.70361,9.27,0.4,2.04,3.0
1758077877.32297,1758077877.20573,0.0,0.0,0.0,19.48057,17.76169,-6.8182,9.27,0.4,2.04,3.0
1758077877.33926,1758077877.21573,0.0,0.0,0.0,19.59516,16.21471,-5.90147,9.26,0.16,2.21,3.0
1758077877.34045,1758077877.22573,0.0,0.0,0.0,19.48057,12.83425,-6.8182,9.26,0.16,2.21,3.0
1758077877.35499,1758077877.23573,0.0,0.0,0.0,19.36597,11.34457,-8.02141,8.79,0.11,2.29,3.0
1758077877.35619,1758077877.24573,0.0,0.0,0.0,19.99623,7.79223,-9.22462,8.73,0.11,2.05,3.0
1758077877.37099,1758077877.25573,0.0,0.0,0.0,20.62648,3.66693,-9.68299,8.73,0.2,2.05,3.0
1758077877.38703,1758077877.26573,0.0,0.0,0.0,21.14215,-0.17189,-9.62569,8.15,0.26,1.95,3.0
1758077877.38821,1758077877.27573,0.0,0.0,0.0,21.6578,-2.40642,-9.39651,8.15,0.26,1.95,3.0
1758077877.40306,1758077877.28573,0.0,0.0,0.0,21.6578,-6.07335,-9.22462,8.12,0.34,2.01,3.0
1758077877.41911,1758077877.29573,0.0,0.0,0.0,21.25674,-8.47978,-9.28192,8.12,0.34,2.01,3.0
1758077877.42025,1758077877.30573,0.0,0.0,0.0,20.85567,-9.85487,-9.91217,7.9,0.51,1.86,3.0
1758077877.43501,1758077877.31573,0.0,0.0,0.0,20.51189,-11.51645,-10.25595,7.9,0.51,1.86,3.0
1758077877.4362,1758077877.32573,0.0,0.0,0.0,20.34,-14.09476,-10.48513,7.85,0.64,1.84,3.0
1758077877.45102,1758077877.33573,0.0,0.0,0.0,20.22541,-15.35527,-10.25595,7.96,0.6,1.84,3.0
1758077877.46707,1758077877.34573,0.0,0.0,0.0,19.99623,-15.64175,-9.68299,7.96,0.6,1.84,3.0
1758077877.46882,1758077877.35573,0.0,0.0,0.0,19.53786,-15.46986,-9.22462,8.34,0.49,1.83,3.0
1758077877.48308,1758077877.36573,0.0,0.0,0.0,18.9649,-13.5218,-8.136,8.34,0.49,1.83,3.0
1758077877.49908,1758077877.37573,0.0,0.0,0.0,18.85031,-10.65701,-7.67763,8.66,0.39,1.78,3.0
1758077877.50029,1758077877.38573,0.0,0.0,0.0,18.62113,-7.62034,-6.8182,8.66,0.39,1.78,3.0
1758077877.51511,1758077877.39573,0.0,0.0,0.0,18.50654,-1.43239,-6.24524,8.85,0.36,1.75,3.0
1758077877.51672,1758077877.40573,0.0,0.0,0.0,18.79302,3.49504,-5.90147,9.24,0.34,1.68,3.0
1758077877.53109,1758077877.41573,0.0,0.0,0.0,19.19409,8.136,-5.84417,9.24,0.34,1.68,3.0
1758077877.54712,1758077877.42573,0.0,0.0,0.0,19.76705,11.86023,-5.72958,9.37,0.32,1.59,3.0
1758077877.54856,1758077877.43573,0.0,0.0,0.0,20.45459,17.87628,-5.27121,9.37,0.32,1.59,3.0
1758077877.56312,1758077877.44573,0.0,0.0,0.0,20.79837,21.94428,-4.69825,9.54,0.32,1.53,3.0
1758077877.57912,1758077877.45573,0.0,0.0,0.0,20.79837,24.98096,-4.29718,9.54,0.32,1.53,3.0
1758077877.58032,1758077877.46573,0.0,0.0,0.0,20.79837,26.41335,-2.97938,9.58,0.29,1.4,3.0
1758077877.59513,1758077877.47573,0.0,0.0,0.0,20.51189,23.0902,-0.45837,9.35,0.23,1.38,3.0
1758077877.59766,1758077877.48573,0.0,0.0,0.0,20.22541,18.10547,0.80214,9.35,0.23,1.38,3.0
1758077877.61247,1758077877.49573,0.0,0.0,0.0,19.42327,12.60507,1.60428,9.53,0.28,1.56,3.0
1758077877.62842,1758077877.50573,0.0,0.0,0.0,17.87628,9.85487,0.97403,9.53,0.28,1.56,3.0
1758077877.62929,1758077877.51573,0.0,0.0,0.0,16.3293,6.47442,0.11459,10.29,0.54,1.63,3.0
1758077877.64412,1758077877.52573,0.0,0.0,0.0,13.17803,7.62034,-3.03668,10.29,0.54,1.63,3.0
1758077877.64531,1758077877.53573,0.0,0.0,0.0,10.31324,6.70361,-4.52637,10.52,0.99,1.73,3.0
1758077877.66144,1758077877.54573,0.0,0.0,0.0,6.53172,5.55769,-6.35983,10.52,0.99,1.73,3.0
1758077877.67744,1758077877.55573,0.0,0.0,0.0,-0.34377,4.52637,-8.47978,10.69,1.45,1.93,3.0
1758077877.67838,1758077877.56573,0.0,0.0,0.0,-5.27121,3.38045,-9.68299,10.93,1.94,1.58,3.0
1758077877.69321,1758077877.57573,0.0,0.0,0.0,-10.65701,0.34377,-10.31324,10.93,1.94,1.58,3.0
1758077877.70946,1758077877.58573,0.0,0.0,0.0,-18.79302,-5.21392,-9.22462,11.0,2.35,1.57,3.0
1758077877.71038,1758077877.59573,0.0,0.0,0.0,-23.83505,-13.00614,-8.0787,11.0,2.35,1.57,3.0
1758077877.72547,1758077877.60573,0.0,0.0,0.0,-28.476,-15.92823,-5.55769,11.38,2.33,1.38,3.0
1758077877.72639,1758077877.61573,0.0,0.0,0.0,-33.9764,-14.72501,-2.86479,11.38,2.33,1.38,3.0
1758077877.74149,1758077877.62573,0.0,0.0,0.0,-42.51347,-4.18259,1.43239,12.74,2.32,1.52,3.0
1758077877.75749,1758077877.63573,0.0,0.0,0.0,-48.9306,16.10011,1.94806,14.69,2.3,2.27,3.0
1758077877.75841,1758077877.64573,0.0,0.0,0.0,-55.86338,46.98254,2.34913,14.69,2.3,2.27,3.0
1758077877.77351,1758077877.65573,0.0,0.0,0.0,-47.61279,-11.00079,13.23533,10.67,3.11,5.83,3.0
1758077877.78946,1758077877.66573,0.0,0.0,0.0,-53.80074,-86.00097,-21.94428,10.67,3.11,5.83,3.0
1758077877.79043,1758077877.67573,0.0,0.0,0.0,-48.41494,-32.54401,-41.08107,15.88,2.86,7.42,3.0
1758077877.80524,1758077877.68573,0.0,0.0,0.0,-36.7266,6.13065,-44.57612,15.88,2.86,7.42,3.0
1758077877.80644,1758077877.69573,0.0,0.0,0.0,-28.64789,6.7609,-44.63341,18.87,0.38,1.38,3.0
1758077877.82125,1758077877.70573,0.0,0.0,0.0,-22.34536,1.48969,-35.63798,12.02,-1.7,3.94,3.0
1758077877.83728,1758077877.71573,0.0,0.0,0.0,-19.88164,10.48513,-24.00693,12.02,-1.7,3.94,3.0
1758077877.83843,1758077877.72573,0.0,0.0,0.0,-20.51189,14.66772,-11.45916,11.96,-1.88,2.94,3.0
1758077877.85354,1758077877.73573,0.0,0.0,0.0,-22.40265,13.17803,-0.11459,11.96,-1.88,2.94,3.0
1758077877.8693,1758077877.74573,0.0,0.0,0.0,-25.61122,8.02141,7.79223,9.8,-0.66,4.12,3.0
1758077877.87051,1758077877.75573,0.0,0.0,0.0,-26.47065,6.7609,9.11003,9.8,-0.66,4.12,3.0
1758077877.88572,1758077877.76573,0.0,0.0,0.0,-26.24147,5.32851,8.25059,9.74,0.85,3.67,3.0
1758077877.88663,1758077877.77573,0.0,0.0,0.0,-26.41335,1.77617,5.72958,9.74,0.85,3.67,3.0
1758077877.90157,1758077877.78573,0.0,0.0,0.0,-28.59059,-8.0787,0.68755,9.09,1.77,3.42,3.0
1758077877.91741,1758077877.79573,0.0,0.0,0.0,-30.93972,-15.0115,-2.6929,7.63,1.94,2.51,3.0
1758077877.91855,1758077877.80573,0.0,0.0,0.0,-33.63263,-20.16812,-5.50039,7.63,1.94,2.51,3.0
1758077877.93357,1758077877.81573,0.0,0.0,0.0,-37.01308,-26.64254,-7.39116,6.96,1.49,1.99,3.0
1758077877.94944,1758077877.82573,0.0,0.0,0.0,-38.73195,-31.11161,-7.33386,6.96,1.49,1.99,3.0
1758077877.95055,1758077877.83573,0.0,0.0,0.0,-40.10705,-35.69527,-6.8182,6.55,0.6,2.31,3.0
1758077877.96558,1758077877.84573,0.0,0.0,0.0,-41.02378,-38.44547,-5.61499,6.55,0.6,2.31,3.0
1758077877.96655,1758077877.85573,0.0,0.0,0.0,-41.65404,-40.04975,-3.60963,6.72,-0.25,2.38,3.0
1758077877.98157,1758077877.86573,0.0,0.0,0.0,-42.22699,-39.3622,-2.06265,7.18,-0.78,2.08,3.0
1758077877.99999,1758077877.87573,0.0,0.0,0.0,-42.74266,-37.24226,-0.80214,7.18,-0.78,2.08,3.0
1758077878.0009,1758077877.88573,0.0,0.0,0.0,-43.31561,-34.37747,0.17189,7.71,-0.77,1.88,3.0
1758077878.02116,1758077877.89573,0.0,0.0,0.0,-43.88857,-30.02299,1.43239,7.71,-0.77,1.88,3.0
1758077878.05903,1758077877.90573,0.0,0.0,0.0,-43.60209,-26.52795,2.06265,7.94,-0.55,1.61,3.0
1758077878.05993,1758077877.91573,0.0,0.0,0.0,-42.74266,-22.74642,3.09397,7.94,-0.55,1.61,3.0
1758077878.06653,1758077877.92573,0.0,0.0,0.0,-41.13837,-18.50654,3.66693,8.15,-0.42,1.38,3.0
1758077878.06754,1758077877.93573,0.0,0.0,0.0,-37.58603,-11.28727,4.69825,8.22,-0.51,1.34,3.0
1758077878.06863,1758077877.94573,0.0,0.0,0.0,-34.66395,-6.70361,5.4431,8.22,-0.51,1.34,3.0
1758077878.07062,1758077877.95573,0.0,0.0,0.0,-31.51268,-2.34913,6.24524,8.2,-0.75,1.45,3.0
1758077878.08642,1758077877.96573,0.0,0.0,0.0,-28.476,1.66158,6.87549,8.2,-0.75,1.45,3.0
1758077878.08758,1758077877.97573,0.0,0.0,0.0,-24.17882,5.90147,7.50575,8.08,-0.91,1.56,3.0
1758077878.10262,1758077877.98573,0.0,0.0,0.0,-21.60051,7.16197,7.73493,8.08,-0.91,1.56,3.0
1758077878.11863,1758077877.99573,0.0,0.0,0.0,-19.70975,8.65166,7.50575,7.85,-0.93,1.58,3.0
1758077878.12,1758077878.00573,0.0,0.0,0.0,-16.90226,10.48513,6.7609,7.85,-0.93,1.58,3.0
1758077878.13436,1758077878.01573,0.0,0.0,0.0,-15.69904,12.71966,6.07335,8.13,-0.86,1.67,3.0
1758077878.13587,1758077878.02573,0.0,0.0,0.0,-14.38124,14.72501,5.78687,8.44,-0.72,1.84,3.0
1758077878.15144,1758077878.03573,0.0,0.0,0.0,-13.06344,16.10011,5.72958,8.44,-0.72,1.84,3.0
1758077878.16764,1758077878.04573,0.0,0.0,0.0,-10.54242,17.13144,6.70361,8.73,-0.63,1.87,3.0
1758077878.16892,1758077878.05573,0.0,0.0,0.0,-8.76626,18.22006,7.50575,8.73,-0.63,1.87,3.0
1758077878.18583,1758077878.06573,0.0,0.0,0.0,-7.39116,19.19409,8.42248,8.99,-0.67,1.75,3.0
1758077878.19184,1758077878.07573,0.0,0.0,0.0,-6.7609,19.82434,8.99544,8.99,-0.67,1.75,3.0
1758077878.23241,1758077878.08573,0.0,0.0,0.0,-6.41713,22.86102,8.47978,9.11,-0.7,1.72,3.0
1758077878.2334,1758077878.09573,0.0,0.0,0.0,-6.47442,24.12152,7.39116,9.19,-0.58,1.67,3.0
1758077878.23398,1758077878.10573,0.0,0.0,0.0,-6.58902,24.98096,5.72958,9.19,-0.58,1.67,3.0
1758077878.23635,1758077878.11573,0.0,0.0,0.0,-6.8182,26.64254,4.0107,9.25,-0.46,1.59,3.0
1758077878.23665,1758077878.12573,0.0,0.0,0.0,-7.16197,28.64789,1.66158,9.25,-0.46,1.59,3.0
1758077878.25265,1758077878.13573,0.0,0.0,0.0,-7.33386,28.41871,0.74485,9.58,-0.41,1.75,3.0
1758077878.26875,1758077878.14573,0.0,0.0,0.0,-7.39116,28.59059,0.68755,9.58,-0.41,1.75,3.0
1758077878.26993,1758077878.15573,0.0,0.0,0.0,-7.33386,29.27814,1.60428,9.98,-0.36,1.83,3.0
1758077878.28535,1758077878.16573,0.0,0.0,0.0,-7.50575,30.02299,3.83882,10.16,-0.37,1.84,3.0
1758077878.28657,1758077878.17573,0.0,0.0,0.0,-7.73493,29.73651,5.50039,10.16,-0.37,1.84,3.0
1758077878.41985,1758077878.18573,0.0,0.0,0.0,-8.136,29.10626,7.10468,9.95,-0.4,1.79,3.0
1758077878.42132,1758077878.19573,0.0,0.0,0.0,-8.65166,27.67386,7.96411,9.95,-0.4,1.79,3.0
1758077878.42169,1758077878.20573,0.0,0.0,0.0,-9.74028,24.80907,7.79223,9.59,-0.38,1.51,3.0
1758077878.4261,1758077878.21573,0.0,0.0,0.0,-10.48513,21.48592,7.04738,9.59,-0.38,1.51,3.0
1758077878.42669,1758077878.22573,0.0,0.0,0.0,-11.28727,17.76169,6.13065,9.0,-0.28,1.61,3.0
1758077878.43036,1758077878.23573,0.0,0.0,0.0,-11.91752,12.08941,5.90147,9.0,-0.28,1.61,3.0
1758077878.43132,1758077878.24573,0.0,0.0,0.0,-11.34457,8.02141,7.16197,8.87,-0.31,2.01,3.0
1758077878.43294,1758077878.25573,0.0,0.0,0.0,-9.96947,4.87014,9.5684,9.17,-0.68,2.32,3.0
1758077878.43361,1758077878.26573,0.0,0.0,0.0,-7.96411,2.06265,11.51645,9.17,-0.68,2.32,3.0
1758077878.43441,1758077878.27573,0.0,0.0,0.0,-4.46907,-0.68755,12.54778,9.39,-1.24,2.11,3.0
1758077878.43742,1758077878.28573,0.0,0.0,0.0,-1.77617,-1.83346,12.37589,9.39,-1.24,2.11,3.0
1758077878.43782,1758077878.29573,0.0,0.0,0.0,1.14592,-1.48969,12.08941,9.52,-1.54,1.86,3.0
1758077878.43978,1758077878.30573,0.0,0.0,0.0,3.89611,-1.43239,12.43318,9.52,-1.54,1.86,3.0
1758077878.44107,1758077878.31573,0.0,0.0,0.0,7.16197,-0.51566,13.23533,9.54,-1.44,1.6,3.0
1758077878.44331,1758077878.32573,0.0,0.0,0.0,9.22462,0.74485,14.32395,9.72,-1.2,1.27,3.0
1758077878.45889,1758077878.33573,0.0,0.0,0.0,11.22997,-0.74485,15.12609,9.72,-1.2,1.27,3.0
1758077878.45978,1758077878.34573,0.0,0.0,0.0,12.60507,-7.50575,14.72501,9.32,-0.92,1.19,3.0
1758077878.4746,1758077878.35573,0.0,0.0,0.0,13.69369,-13.17803,10.31324,9.32,-0.92,1.19,3.0
1758077878.47575,1758077878.36573,0.0,0.0,0.0,15.98552,0.22918,8.99544,9.99,-0.54,0.58,3.0
1758077878.49191,1758077878.37573,0.0,0.0,0.0,19.07949,22.86102,7.79223,9.99,-0.54,0.58,3.0
1758077878.50791,1758077878.38573,0.0,0.0,0.0,21.7151,39.3622,6.41713,11.53,-0.64,1.24,3.0
1758077878.50906,1758077878.39573,0.0,0.0,0.0,25.8404,42.68536,2.06265,9.35,-0.57,2.6,3.0
1758077878.52382,1758077878.40573,0.0,0.0,0.0,27.44468,31.28349,-2.97938,9.35,-0.57,2.6,3.0
1758077878.52573,1758077878.41573,0.0,0.0,0.0,27.73116,-0.11459,-6.87549,6.87,-0.6,1.49,3.0
1758077878.54197,1758077878.42573,0.0,0.0,0.0,31.28349,-73.3386,5.55769,6.87,-0.6,1.49,3.0
1758077878.55792,1758077878.43573,0.0,0.0,0.0,32.20023,-105.48153,28.76248,6.54,-1.84,1.51,3.0
1758077878.55884,1758077878.44573,0.0,0.0,0.0,26.87172,-43.77398,35.92446,6.54,-1.84,1.51,3.0
1758077878.57391,1758077878.45573,0.0,0.0,0.0,21.08485,-23.0329,37.92981,18.86,-2.64,3.01,3.0
1758077878.58998,1758077878.46573,0.0,0.0,0.0,16.95955,-44.63341,30.30947,18.86,-2.64,3.01,3.0
1758077878.59087,1758077878.47573,0.0,0.0,0.0,12.08941,-35.2942,24.00693,10.21,-0.75,3.96,3.0
1758077878.60595,1758077878.48573,0.0,0.0,0.0,5.21392,-17.81899,13.34992,14.51,1.21,5.62,3.0
1758077878.60687,1758077878.49573,0.0,0.0,0.0,-0.68755,-11.86023,1.60428,14.51,1.21,5.62,3.0
1758077878.62202,1758077878.50573,0.0,0.0,0.0,-5.84417,-9.96947,-11.97482,13.09,1.62,2.54,3.0
1758077878.63792,1758077878.51573,0.0,0.0,0.0,-7.73493,0.45837,-15.46986,13.09,1.62,2.54,3.0
1758077878.6397,1758077878.52573,0.0,0.0,0.0,-8.30789,4.23989,-15.12609,15.43,0.08,4.83,3.0
1758077878.65462,1758077878.53573,0.0,0.0,0.0,-8.25059,4.23989,-11.45916,15.43,0.08,4.83,3.0
1758077878.65626,1758077878.54573,0.0,0.0,0.0,-6.13065,9.05273,-1.71887,15.6,-1.64,4.31,3.0
1758077878.672,1758077878.55573,0.0,0.0,0.0,-3.55234,12.49048,3.60963,14.82,-3.03,4.46,3.0
1758077878.68901,1758077878.56573,0.0,0.0,0.0,-0.17189,11.28727,7.04738,14.82,-3.03,4.46,3.0
1758077878.68992,1758077878.57573,0.0,0.0,0.0,3.89611,8.42248,9.11003,11.92,-3.13,3.7,3.0
1758077878.70569,1758077878.58573,0.0,0.0,0.0,11.00079,6.99009,8.88085,11.92,-3.13,3.7,3.0
1758077878.70676,1758077878.59573,0.0,0.0,0.0,16.21471,4.64096,7.73493,10.5,-2.48,3.43,3.0
1758077878.72204,1758077878.60573,0.0,0.0,0.0,20.74107,3.32316,5.21392,10.5,-2.48,3.43,3.0
1758077878.73807,1758077878.61573,0.0,0.0,0.0,25.55392,0.45837,1.66158,8.73,-1.66,2.98,3.0
1758077878.73926,1758077878.62573,0.0,0.0,0.0,31.91375,-5.09932,0.11459,7.55,-1.08,2.82,3.0
1758077878.75399,1758077878.63573,0.0,0.0,0.0,35.63798,-9.5684,-0.74485,7.55,-1.08,2.82,3.0
1758077878.75574,1758077878.64573,0.0,0.0,0.0,38.73195,-13.06344,-1.08862,7.18,-0.64,2.36,3.0
1758077878.77204,1758077878.65573,0.0,0.0,0.0,42.05511,-17.24603,-1.14592,7.18,-0.64,2.36,3.0
1758077878.78775,1758077878.66573,0.0,0.0,0.0,43.60209,-19.42327,-0.57296,7.24,-0.3,2.28,3.0
1758077878.79173,1758077878.67573,0.0,0.0,0.0,45.03448,-21.37133,-0.0573,7.24,-0.3,2.28,3.0
1758077878.80678,1758077878.68573,0.0,0.0,0.0,45.37826,-22.86102,0.11459,7.41,0.04,2.38,3.0
1758077878.8273,1758077878.69573,0.0,0.0,0.0,43.88857,-24.4653,-0.34377,7.41,0.04,2.19,3.0
1758077878.82871,1758077878.70573,0.0,0.0,0.0,42.34158,-24.35071,-1.08862,7.52,0.47,2.19,3.0
1758077878.8307,1758077878.71573,0.0,0.0,0.0,40.04975,-22.74642,-2.46372,7.63,0.92,1.72,3.0
1758077878.84608,1758077878.72573,0.0,0.0,0.0,37.18496,-19.70975,-4.52637,7.63,0.92,1.72,3.0
1758077878.84704,1758077878.73573,0.0,0.0,0.0,32.77319,-14.72501,-7.96411,7.8,1.2,1.67,3.0
1758077878.8622,1758077878.74573,0.0,0.0,0.0,30.02299,-11.97482,-10.08406,7.8,1.2,1.67,3.0
1758077878.87783,1758077878.75573,0.0,0.0,0.0,27.44468,-8.70896,-11.63104,7.93,1.27,1.69,3.0
1758077878.87905,1758077878.76573,0.0,0.0,0.0,25.09555,-4.87014,-12.83425,7.93,1.27,1.69,3.0
1758077878.89389,1758077878.77573,0.0,0.0,0.0,21.7151,0.51566,-14.09476,8.57,1.07,1.8,3.0
1758077878.89581,1758077878.78573,0.0,0.0,0.0,20.16812,3.66693,-14.20935,9.06,0.77,1.86,3.0
1758077878.91189,1758077878.79573,0.0,0.0,0.0,18.73572,6.58902,-14.03747,9.06,0.77,1.86,3.0
1758077878.92896,1758077878.80573,0.0,0.0,0.0,17.58981,9.33921,-13.5218,9.29,0.49,1.96,3.0
1758077878.92985,1758077878.81573,0.0,0.0,0.0,16.67307,11.80293,-12.77696,9.29,0.49,1.96,3.0
1758077878.94595,1758077878.82573,0.0,0.0,0.0,16.21471,12.204,-12.2613,9.13,0.31,2.07,3.0
1758077878.94687,1758077878.83573,0.0,0.0,0.0,15.75634,11.11538,-11.74564,9.13,0.31,2.07,3.0
1758077878.96191,1758077878.84573,0.0,0.0,0.0,14.83961,8.136,-11.34457,8.78,0.31,2.12,3.0
1758077878.97895,1758077878.85573,0.0,0.0,0.0,14.49583,5.90147,-10.94349,8.58,0.43,2.09,3.0
1758077878.98785,1758077878.86573,0.0,0.0,0.0,13.80828,3.26586,-11.11538,8.58,0.43,2.09,3.0
1758077878.98845,1758077878.87573,0.0,0.0,0.0,13.00614,0.0,-11.80293,8.5,0.63,2.22,3.0
1758077879.00682,1758077878.88573,0.0,0.0,0.0,11.17268,-5.32851,-14.03747,8.5,0.63,2.22,3.0
1758077879.00846,1758077878.89573,0.0,0.0,0.0,9.96947,-8.30789,-15.46986,8.43,0.88,1.98,3.0
1758077879.02425,1758077878.90573,0.0,0.0,0.0,9.28192,-10.8862,-16.61578,8.43,0.88,1.98,3.0
1758077879.02758,1758077878.91573,0.0,0.0,0.0,8.88085,-13.23533,-17.18874,8.45,0.94,1.9,3.0
1758077879.04291,1758077878.92573,0.0,0.0,0.0,8.25059,-16.04282,-16.84496,8.47,0.79,1.83,3.0
1758077879.04633,1758077878.93573,0.0,0.0,0.0,8.136,-16.38659,-15.75634,8.47,0.79,1.83,3.0
1758077879.06204,1758077878.94573,0.0,0.0,0.0,8.0787,-15.87093,-14.15206,8.85,0.54,1.78,3.0
1758077879.07825,1758077878.95573,0.0,0.0,0.0,8.02141,-14.78231,-12.54778,8.85,0.54,1.78,3.0
1758077879.0859,1758077878.96573,0.0,0.0,0.0,7.84952,-12.14671,-10.65701,9.13,0.42,1.84,3.0
1758077879.08695,1758077878.97573,0.0,0.0,0.0,7.62034,-10.8289,-10.08406,9.13,0.42,1.84,3.0
1758077879.12584,1758077878.98573,0.0,0.0,0.0,6.87549,-9.4538,-10.25595,9.24,0.51,1.84,3.0
1758077879.12744,1758077878.99573,0.0,0.0,0.0,6.41713,-7.73493,-11.17268,9.24,0.51,1.84,3.0
1758077879.1278,1758077879.00573,0.0,0.0,0.0,5.4431,-3.72423,-12.83425,9.42,0.7,1.63,3.0
1758077879.12981,1758077879.01573,0.0,0.0,0.0,4.98473,-0.17189,-13.5218,9.52,0.8,1.36,3.0
1758077879.14523,1758077879.02573,0.0,0.0,0.0,4.58366,3.72423,-13.75099,9.52,0.8,1.36,3.0
1758077879.14617,1758077879.03573,0.0,0.0,0.0,4.0107,7.79223,-12.83425,9.51,0.72,1.4,3.0
1758077879.1613,1758077879.04573,0.0,0.0,0.0,3.83882,14.61043,-11.91752,9.51,0.72,1.4,3.0
1758077879.17731,1758077879.05573,0.0,0.0,0.0,3.60963,18.33465,-10.8289,9.58,0.55,1.42,3.0
1758077879.17897,1758077879.06573,0.0,0.0,0.0,3.32316,21.25674,-9.5684,9.58,0.55,1.42,3.0
1758077879.19431,1758077879.07573,0.0,0.0,0.0,3.03668,23.20479,-8.59437,9.68,0.4,1.5,3.0
1758077879.21032,1758077879.08573,0.0,0.0,0.0,2.86479,19.25138,-8.25059,9.44,0.45,1.5,3.0
1758077879.21078,1758077879.09573,0.0,0.0,0.0,2.46372,13.23533,-8.70896,9.44,0.45,1.5,3.0
1758077879.22608,1758077879.10573,0.0,0.0,0.0,1.77617,7.84952,-10.19865,9.3,0.75,1.37,3.0
1758077879.22726,1758077879.11573,0.0,0.0,0.0,0.51566,3.95341,-12.204,9.3,0.75,1.37,3.0
1758077879.24209,1758077879.12573,0.0,0.0,0.0,-1.43239,5.78687,-15.24068,9.64,1.18,1.26,3.0
1758077879.25855,1758077879.13573,0.0,0.0,0.0,-3.60963,6.35983,-16.61578,9.64,1.18,1.26,3.0
1758077879.25965,1758077879.14573,0.0,0.0,0.0,-6.07335,5.32851,-18.44924,9.64,1.45,1.57,3.0
1758077879.27436,1758077879.15573,0.0,0.0,0.0,-10.59972,4.52637,-19.82434,9.5,1.55,1.54,3.0
1758077879.27527,1758077879.16573,0.0,0.0,0.0,-13.69369,4.23989,-19.76705,9.5,1.55,1.54,3.0
1758077879.29068,1758077879.17573,0.0,0.0,0.0,-17.24603,2.46372,-19.19409,9.28,1.6,1.23,3.0
1758077879.30639,1758077879.18573,0.0,0.0,0.0,-20.68378,-1.43239,-17.01685,9.28,1.6,1.23,3.0
1758077879.3073,1758077879.19573,0.0,0.0,0.0,-25.61122,-8.25059,-11.97482,8.77,1.55,0.95,3.0
1758077879.32226,1758077879.20573,0.0,0.0,0.0,-28.24682,-12.37589,-8.30789,8.77,1.55,0.95,3.0
1758077879.33842,1758077879.21573,0.0,0.0,0.0,-30.53865,-15.92823,-4.81285,8.91,1.25,0.7,3.0
1758077879.33932,1758077879.22573,0.0,0.0,0.0,-32.71589,-17.99088,-1.43239,8.91,1.25,0.7,3.0
1758077879.35441,1758077879.23573,0.0,0.0,0.0,-36.15364,-4.81285,3.26586,9.92,1.08,0.86,3.0
1758077879.35538,1758077879.24573,0.0,0.0,0.0,-39.99245,25.43933,3.03668,13.02,1.19,1.5,3.0
1758077879.37079,1758077879.25573,0.0,0.0,0.0,-42.51347,40.50812,4.18259,13.02,1.19,1.5,3.0
1758077879.38613,1758077879.26573,0.0,0.0,0.0,-49.79003,27.04361,-3.66693,11.16,1.65,2.84,3.0
1758077879.38779,1758077879.27573,0.0,0.0,0.0,-49.15978,15.92823,-3.26586,11.16,1.65,2.84,3.0
1758077879.40237,1758077879.28573,0.0,0.0,0.0,-42.51347,-36.38282,-4.1253,10.21,2.56,2.32,3.0
1758077879.41816,1758077879.29573,0.0,0.0,0.0,-51.90998,-75.51585,-24.98096,10.21,2.56,2.32,3.0
1758077879.41967,1758077879.30573,0.0,0.0,0.0,-50.82136,0.34377,-32.77319,12.79,3.11,3.73,3.0
1758077879.43444,1758077879.31573,0.0,0.0,0.0,-46.52417,19.13679,-28.24682,18.28,1.38,1.87,3.0
1758077879.43571,1758077879.32573,0.0,0.0,0.0,-43.4875,-0.22918,-21.37133,18.28,1.38,1.87,3.0
1758077879.45085,1758077879.33573,0.0,0.0,0.0,-38.15899,-3.03668,-13.12073,11.85,-0.75,4.01,3.0
1758077879.46646,1758077879.34573,0.0,0.0,0.0,-29.73651,21.25674,-2.23454,11.85,-0.75,4.01,3.0
1758077879.4677,1758077879.35573,0.0,0.0,0.0,-25.21014,30.30947,4.92744,14.7,-1.75,2.27,3.0
1758077879.48216,1758077879.36573,0.0,0.0,0.0,-22.11617,30.65324,8.47978,14.7,-1.75,2.27,3.0
1758077879.49855,1758077879.37573,0.0,0.0,0.0,-19.25138,29.73651,8.93814,12.67,-0.8,2.59,3.0
1758077879.4994,1758077879.38573,0.0,0.0,0.0,-15.35527,23.66316,4.58366,12.53,0.78,2.96,3.0
1758077879.51454,1758077879.39573,0.0,0.0,0.0,-13.40721,19.25138,-0.57296,12.53,0.78,2.96,3.0
1758077879.51618,1758077879.40573,0.0,0.0,0.0,-11.86023,17.76169,-6.24524,12.88,1.57,3.33,3.0
1758077879.55114,1758077879.41573,0.0,0.0,0.0,-10.59972,17.36062,-10.59972,12.88,1.57,3.33,3.0
1758077879.5535,1758077879.42573,0.0,0.0,0.0,-9.91217,15.64175,-13.98017,11.96,1.59,3.38,3.0
1758077879.55375,1758077879.43573,0.0,0.0,0.0,-10.54242,12.89155,-14.15206,11.96,1.59,3.38,3.0
1758077879.55615,1758077879.44573,0.0,0.0,0.0,-11.74564,8.0787,-13.5791,10.0,1.2,3.22,3.0
1758077879.57151,1758077879.45573,0.0,0.0,0.0,-14.49583,2.7502,-11.34457,10.0,1.2,3.22,3.0
1758077879.58753,1758077879.46573,0.0,0.0,0.0,-16.55848,-6.24524,-8.99544,8.4,0.93,2.82,3.0
1758077879.58879,1758077879.47573,0.0,0.0,0.0,-18.50654,-12.204,-6.70361,7.48,0.76,2.32,3.0
1758077879.60353,1758077879.48573,0.0,0.0,0.0,-20.11082,-17.93358,-4.81285,7.48,0.76,2.32,3.0
1758077879.60525,1758077879.49573,0.0,0.0,0.0,-21.6578,-26.18417,-2.57831,7.16,0.46,2.36,3.0
1758077879.62129,1758077879.50573,0.0,0.0,0.0,-21.6578,-31.51268,-1.43239,7.16,0.46,2.36,3.0
1758077879.63755,1758077879.51573,0.0,0.0,0.0,-21.31403,-35.75257,-0.40107,7.02,0.17,2.29,3.0
1758077879.63853,1758077879.52573,0.0,0.0,0.0,-20.62648,-40.39353,0.34377,7.02,0.17,2.29,3.0
1758077879.65354,1758077879.53573,0.0,0.0,0.0,-18.79302,-46.86795,1.77617,6.94,0.07,2.14,3.0
1758077879.65459,1758077879.54573,0.0,0.0,0.0,-17.47521,-50.82136,2.6929,6.85,0.12,1.94,3.0
1758077879.6706,1758077879.55573,0.0,0.0,0.0,-16.04282,-53.05589,3.32316,6.85,0.12,1.94,3.0
1758077879.68631,1758077879.56573,0.0,0.0,0.0,-14.43854,-54.48829,4.23989,7.02,0.08,1.78,3.0
1758077879.68783,1758077879.57573,0.0,0.0,0.0,-12.43318,-52.82671,5.21392,7.02,0.08,1.78,3.0
1758077879.70259,1758077879.58573,0.0,0.0,0.0,-11.22997,-49.15978,5.90147,7.64,0.0,1.79,3.0
1758077879.71863,1758077879.59573,0.0,0.0,0.0,-10.31324,-44.11775,6.53172,7.64,0.0,1.79,3.0
1758077879.71956,1758077879.60573,0.0,0.0,0.0,-9.5684,-39.13302,7.10468,8.41,-0.06,1.98,3.0
1758077879.7352,1758077879.61573,0.0,0.0,0.0,-8.25059,-31.51268,8.02141,8.8,0.06,1.93,3.0
1758077879.73681,1758077879.62573,0.0,0.0,0.0,-7.39116,-26.06958,8.59437,8.8,0.06,1.93,3.0
1758077879.75161,1758077879.63573,0.0,0.0,0.0,-6.53172,-19.76705,9.28192,8.85,0.28,1.5,3.0
1758077879.76762,1758077879.64573,0.0,0.0,0.0,-6.18794,-14.03747,10.19865,8.85,0.28,1.5,3.0
1758077879.76856,1758077879.65573,0.0,0.0,0.0,-5.84417,-4.98473,10.59972,8.64,0.44,1.38,3.0
1758077879.7837,1758077879.66573,0.0,0.0,0.0,-5.78687,0.40107,11.17268,8.64,0.44,1.38,3.0
1758077879.7849,1758077879.67573,0.0,0.0,0.0,-5.61499,5.50039,11.34457,8.54,0.38,1.37,3.0
1758077879.80172,1758077879.68573,0.0,0.0,0.0,-5.72958,11.63104,11.63104,8.54,0.38,1.37,3.0
1758077879.81768,1758077879.69573,0.0,0.0,0.0,-5.61499,15.24068,11.57375,8.51,0.24,1.55,3.0
1758077879.81859,1758077879.70573,0.0,0.0,0.0,-5.55769,17.47521,11.57375,8.49,0.13,1.71,3.0
1758077879.83337,1758077879.71573,0.0,0.0,0.0,-5.50039,19.19409,11.17268,8.49,0.13,1.71,3.0
1758077879.83452,1758077879.72573,0.0,0.0,0.0,-4.81285,23.60586,10.48513,8.72,0.08,1.73,3.0
1758077879.85041,1758077879.73573,0.0,0.0,0.0,-4.46907,26.18417,10.02676,8.72,0.08,1.73,3.0
1758077879.86666,1758077879.74573,0.0,0.0,0.0,-4.23989,27.61657,9.5684,9.01,0.11,1.75,3.0
1758077879.8678,1758077879.75573,0.0,0.0,0.0,-4.0107,27.67386,8.99544,9.01,0.11,1.75,3.0
1758077879.88247,1758077879.76573,0.0,0.0,0.0,-3.60963,25.43933,8.30789,9.08,0.16,1.82,3.0
1758077879.89871,1758077879.77573,0.0,0.0,0.0,-3.26586,22.63183,8.30789,9.29,0.17,1.8,3.0
1758077879.8999,1758077879.78573,0.0,0.0,0.0,-3.09397,20.97026,8.47978,9.29,0.17,1.8,3.0
1758077879.91466,1758077879.79573,0.0,0.0,0.0,-3.26586,20.05352,8.76626,9.75,0.11,1.8,3.0
1758077879.91564,1758077879.80573,0.0,0.0,0.0,-3.83882,18.90761,9.62569,9.75,0.11,1.8,3.0
1758077879.93047,1758077879.81573,0.0,0.0,0.0,-4.64096,19.19409,10.25595,9.89,0.12,1.86,3.0
1758077879.94647,1758077879.82573,0.0,0.0,0.0,-5.50039,20.51189,10.59972,9.89,0.12,1.86,3.0
1758077879.94764,1758077879.83573,0.0,0.0,0.0,-6.70361,22.00158,10.8862,10.02,0.14,1.82,3.0
1758077879.96247,1758077879.84573,0.0,0.0,0.0,-8.47978,21.60051,10.48513,9.89,0.2,1.85,3.0
1758077879.97853,1758077879.85573,0.0,0.0,0.0,-9.85487,19.53786,9.85487,9.89,0.2,1.85,3.0
1758077879.97967,1758077879.86573,0.0,0.0,0.0,-11.22997,17.58981,8.76626,9.87,0.27,1.72,3.0
1758077879.99481,1758077879.87573,0.0,0.0,0.0,-13.17803,16.10011,7.10468,9.87,0.27,1.72,3.0
1758077879.99566,1758077879.88573,0.0,0.0,0.0,-14.09476,14.78231,6.13065,10.1,0.3,1.6,3.0
1758077880.01054,1758077879.89573,0.0,0.0,0.0,-15.24068,13.17803,5.21392,10.1,0.3,1.6,3.0
1758077880.0268,1758077879.90573,0.0,0.0,0.0,-16.04282,11.51645,4.69825,9.93,0.24,1.66,3.0
1758077880.02799,1758077879.91573,0.0,0.0,0.0,-17.30333,8.42248,4.69825,9.93,0.24,1.66,3.0
1758077880.04253,1758077879.92573,0.0,0.0,0.0,-18.10547,6.53172,5.09932,9.67,0.17,1.64,3.0
1758077880.05857,1758077879.93573,0.0,0.0,0.0,-18.90761,4.35448,5.84417,9.51,0.01,1.52,3.0
1758077880.06,1758077879.94573,0.0,0.0,0.0,-19.48057,2.7502,6.7609,9.51,0.01,1.52,3.0
1758077880.0746,1758077879.95573,0.0,0.0,0.0,-20.22541,1.08862,7.96411,9.39,-0.09,1.53,3.0
1758077880.07602,1758077879.96573,0.0,0.0,0.0,-20.79837,-0.11459,7.84952,9.39,-0.09,1.53,3.0
1758077880.09065,1758077879.97573,0.0,0.0,0.0,-21.25674,-0.85944,7.79223,9.15,-0.14,1.46,3.0
1758077880.10685,1758077879.98573,0.0,0.0,0.0,-21.08485,1.03132,8.136,9.15,-0.14,1.46,3.0
1758077880.10797,1758077879.99573,0.0,0.0,0.0,-19.88164,8.65166,8.42248,9.34,-0.16,1.64,3.0
1758077880.12259,1758077880.00573,0.0,0.0,0.0,-18.50654,14.61043,8.88085,9.4,-0.33,1.76,3.0
1758077880.13881,1758077880.01573,0.0,0.0,0.0,-16.73037,17.13144,9.91217,9.4,-0.33,1.76,3.0
1758077880.14002,1758077880.02573,0.0,0.0,0.0,-14.9542,16.04282,10.8289,8.75,-0.6,1.82,3.0
1758077880.15566,1758077880.03573,0.0,0.0,0.0,-11.91752,12.49048,10.8862,8.75,-0.6,1.82,3.0
1758077880.15897,1758077880.04573,0.0,0.0,0.0,-9.33921,10.65701,10.65701,8.83,-0.95,1.38,3.0
1758077880.1749,1758077880.05573,0.0,0.0,0.0,-6.53172,8.76626,10.54242,8.83,-0.95,1.38,3.0
1758077880.17606,1758077880.06573,0.0,0.0,0.0,-4.0107,5.84417,10.31324,9.06,-1.26,1.2,3.0
1758077880.19083,1758077880.07573,0.0,0.0,0.0,0.51566,-0.51566,10.37054,9.07,-1.39,1.25,3.0
1758077880.20694,1758077880.08573,0.0,0.0,0.0,3.38045,-6.58902,10.37054,9.07,-1.39,1.25,3.0
1758077880.2089,1758077880.09573,0.0,0.0,0.0,5.55769,-13.5791,9.4538,9.19,-1.24,0.94,3.0
1758077880.22386,1758077880.10573,0.0,0.0,0.0,8.42248,-19.36597,7.04738,9.19,-1.24,0.94,3.0
1758077880.22589,1758077880.11573,0.0,0.0,0.0,11.34457,-14.43854,6.07335,10.1,-1.07,0.79,3.0
1758077880.24193,1758077880.12573,0.0,0.0,0.0,14.9542,-0.85944,5.78687,10.1,-1.07,0.79,3.0
1758077880.25764,1758077880.13573,0.0,0.0,0.0,18.27736,17.87628,6.07335,11.96,-1.16,1.4,3.0
1758077880.25884,1758077880.14573,0.0,0.0,0.0,22.34536,38.78925,3.49504,11.96,-1.16,2.58,3.0
1758077880.27396,1758077880.15573,0.0,0.0,0.0,16.90226,19.59516,-15.69904,11.73,-1.34,2.58,3.0
1758077880.27484,1758077880.16573,0.0,0.0,0.0,17.13144,-80.27139,3.09397,5.05,-0.98,5.11,3.0
1758077880.29071,1758077880.17573,0.0,0.0,0.0,20.16812,-99.46548,24.86637,5.05,-0.98,5.11,3.0
1758077880.30703,1758077880.18573,0.0,0.0,0.0,13.69369,-25.89769,37.18496,19.37,-2.03,2.92,3.0
1758077880.30812,1758077880.19573,0.0,0.0,0.0,12.89155,-13.46451,42.05511,19.37,-2.03,2.92,3.0
