timeStamp,timeStampAlign,roll,pitch,yaw,gyro_x,gyro_y,gyro_z,acc_x,acc_y,acc_z,flag_num
1758086550.25112,1758086550.1844,0.0,0.0,0.0,-11.97482,6.35983,1.3751,9.89,0.13,0.12,2.0
1758086550.25264,1758086550.1944,0.0,0.0,0.0,-14.61043,4.18259,1.71887,9.89,0.13,0.12,2.0
1758086550.26873,1758086550.2044,0.0,0.0,0.0,-16.55848,1.43239,1.83346,9.96,0.39,0.03,2.0
1758086550.26996,1758086550.2144,0.0,0.0,0.0,-19.53786,-2.23454,2.11994,9.96,0.39,0.1,2.0
1758086550.28525,1758086550.2244,0.0,0.0,0.0,-21.02755,-3.55234,2.29183,9.98,0.51,0.1,2.0
1758086550.30129,1758086550.2344,0.0,0.0,0.0,-22.11617,-4.64096,2.34913,10.32,0.39,-0.08,2.0
1758086550.30235,1758086550.2444,0.0,0.0,0.0,-23.0902,-5.84417,2.97938,10.32,0.39,-0.08,2.0
1758086550.31718,1758086550.2544,0.0,0.0,0.0,-24.5226,-7.10468,2.7502,10.72,0.16,-0.03,2.0
1758086550.31838,1758086550.2644,0.0,0.0,0.0,-25.21014,-7.21927,2.34913,10.72,0.16,-0.03,2.0
1758086550.33347,1758086550.2744,0.0,0.0,0.0,-25.89769,-7.04738,2.23454,11.39,-0.16,0.29,2.0
1758086550.34946,1758086550.2844,0.0,0.0,0.0,-26.41335,-7.04738,1.48969,11.39,-0.16,0.29,2.0
1758086550.35065,1758086550.2944,0.0,0.0,0.0,-26.87172,-12.37589,0.22918,11.55,-0.39,0.32,2.0
1758086550.36548,1758086550.3044,0.0,0.0,0.0,-26.75713,-20.22541,-0.74485,10.7,-0.44,0.5,2.0
1758086550.36716,1758086550.3144,0.0,0.0,0.0,-26.18417,-29.67921,-1.71887,10.7,-0.44,0.5,2.0
1758086550.38344,1758086550.3244,0.0,0.0,0.0,-25.21014,-39.24761,-2.63561,10.59,-0.68,-0.02,2.0
1758086550.3995,1758086550.3344,0.0,0.0,0.0,-22.05888,-53.74345,-4.35448,10.59,-0.68,-0.02,2.0
1758086550.40063,1758086550.3444,0.0,0.0,0.0,-19.53786,-61.93674,-5.4431,11.21,-1.01,0.3,2.0
1758086550.41618,1758086550.3544,0.0,0.0,0.0,-16.67307,-64.40046,-6.35983,11.21,-1.01,0.3,2.0
1758086550.41716,1758086550.3644,0.0,0.0,0.0,-12.2613,-57.29578,-6.70361,12.61,-1.3,1.26,2.0
1758086550.43321,1758086550.3744,0.0,0.0,0.0,-9.5684,-50.363,-6.18794,12.5,-1.33,2.06,2.0
1758086550.44951,1758086550.3844,0.0,0.0,0.0,-7.84952,-41.42485,-5.27121,12.5,-1.33,2.06,2.0
1758086550.45114,1758086550.3944,0.0,0.0,0.0,-7.04738,-32.48671,-3.83882,10.94,-0.79,2.43,2.0
1758086550.46656,1758086550.4044,0.0,0.0,0.0,-7.50575,-27.10091,-1.3178,10.94,-0.79,2.43,2.0
1758086550.46776,1758086550.4144,0.0,0.0,0.0,-9.05273,-35.2369,0.17189,8.7,-0.33,2.08,2.0
1758086550.48349,1758086550.4244,0.0,0.0,0.0,-12.77696,-48.64412,0.40107,8.7,-0.33,2.08,2.0
1758086550.49944,1758086550.4344,0.0,0.0,0.0,-17.76169,-55.97798,0.11459,7.1,0.23,1.73,2.0
1758086550.50041,1758086550.4444,0.0,0.0,0.0,-26.12688,-54.08722,0.11459,8.72,0.79,1.65,2.0
1758086550.51551,1758086550.4544,0.0,0.0,0.0,-32.42941,-49.04519,-0.40107,8.72,0.79,1.65,2.0
1758086550.5312,1758086550.4644,0.0,0.0,0.0,-39.13302,-43.88857,-1.14592,9.61,0.98,2.98,2.0
1758086550.53192,1758086550.4744,0.0,0.0,0.0,-45.14908,-39.3622,-2.29183,9.61,0.98,2.98,2.0
1758086550.54724,1758086550.4844,0.0,0.0,0.0,-52.71212,-33.68992,-4.23989,9.91,0.74,3.03,2.0
1758086550.54844,1758086550.4944,0.0,0.0,0.0,-56.26446,-29.22085,-5.61499,9.91,0.74,3.03,2.0
1758086550.56348,1758086550.5044,0.0,0.0,0.0,-58.67088,-23.0329,-6.41713,10.29,0.21,1.77,2.0
1758086550.59752,1758086550.5144,0.0,0.0,0.0,-59.81679,-16.55848,-6.58902,10.29,0.21,1.77,2.0
1758086550.59838,1758086550.5244,0.0,0.0,0.0,-59.47303,-5.95876,-5.4431,10.64,-0.57,0.98,2.0
1758086550.60008,1758086550.5344,0.0,0.0,0.0,-58.49899,1.3751,-3.83882,10.81,-1.42,0.77,2.0
1758086550.6018,1758086550.5444,0.0,0.0,0.0,-56.952,9.85487,-2.11994,10.81,-1.42,0.77,2.0
1758086550.61753,1758086550.5544,0.0,0.0,0.0,-54.48829,18.27736,-0.22918,10.94,-1.89,0.64,2.0
1758086550.61841,1758086550.5644,0.0,0.0,0.0,-52.54023,28.76248,1.20321,10.94,-1.89,0.64,2.0
1758086550.63328,1758086550.5744,0.0,0.0,0.0,-50.76406,36.26823,1.71887,10.73,-1.84,0.34,2.0
1758086550.65065,1758086550.5844,0.0,0.0,0.0,-49.15978,41.94051,2.40642,10.73,-1.84,0.34,2.0
1758086550.65126,1758086550.5944,0.0,0.0,0.0,-47.67009,46.2377,2.46372,10.42,-1.48,0.0,2.0
1758086550.66666,1758086550.6044,0.0,0.0,0.0,-47.49821,47.38361,2.11994,9.94,-1.2,-0.09,2.0
1758086550.66783,1758086550.6144,0.0,0.0,0.0,-47.32632,48.35764,1.20321,9.94,-1.2,-0.09,2.0
1758086550.68257,1758086550.6244,0.0,0.0,0.0,-46.98254,47.95657,0.68755,9.76,-1.05,-0.07,2.0
1758086550.6983,1758086550.6344,0.0,0.0,0.0,-46.63877,46.00851,-0.51566,9.76,-1.05,-0.07,2.0
1758086550.69979,1758086550.6444,0.0,0.0,0.0,-46.00851,44.51882,-1.20321,9.54,-1.04,0.08,2.0
1758086550.7146,1758086550.6544,0.0,0.0,0.0,-44.9199,42.85724,-1.60428,9.54,-1.04,0.08,2.0
1758086550.73033,1758086550.6644,0.0,0.0,0.0,-43.77398,40.27893,-1.60428,9.39,-1.11,0.09,2.0
1758086550.73084,1758086550.6744,0.0,0.0,0.0,-41.76862,35.3515,-1.66158,9.1,-1.23,0.06,2.0
1758086550.7463,1758086550.6844,0.0,0.0,0.0,-40.33623,34.26288,-1.83346,9.1,-1.23,0.06,2.0
1758086550.74773,1758086550.6944,0.0,0.0,0.0,-38.90384,34.32018,-1.94806,9.24,-1.36,-0.07,2.0
1758086550.76232,1758086550.7044,0.0,0.0,0.0,-37.29956,33.80451,-2.29183,9.24,-1.36,-0.07,2.0
1758086550.77857,1758086550.7144,0.0,0.0,0.0,-34.95043,32.42941,-2.86479,9.03,-1.53,0.1,2.0
1758086550.77975,1758086550.7244,0.0,0.0,0.0,-33.23156,32.14294,-3.26586,9.03,-1.53,0.1,2.0
1758086550.79428,1758086550.7344,0.0,0.0,0.0,-31.28349,31.62727,-3.66693,9.04,-1.68,0.21,2.0
1758086550.8103,1758086550.7444,0.0,0.0,0.0,-28.87707,30.88243,-4.46907,9.04,-1.68,0.21,2.0
1758086550.81086,1758086550.7544,0.0,0.0,0.0,-27.04361,29.96569,-5.09932,9.06,-1.73,0.15,2.0
1758086550.8263,1758086550.7644,0.0,0.0,0.0,-24.92367,29.39274,-5.50039,9.09,-1.69,0.19,2.0
1758086550.82748,1758086550.7744,0.0,0.0,0.0,-22.74642,28.93437,-5.95876,9.09,-1.69,0.19,2.0
1758086550.84232,1758086550.7844,0.0,0.0,0.0,-19.48057,31.28349,-6.41713,9.17,-1.62,0.15,2.0
1758086550.8583,1758086550.7944,0.0,0.0,0.0,-17.47521,33.63263,-6.8182,9.17,-1.62,0.15,2.0
1758086550.86063,1758086550.8044,0.0,0.0,0.0,-15.69904,35.75257,-7.44845,9.27,-1.53,0.17,2.0
1758086550.87555,1758086550.8144,0.0,0.0,0.0,-14.09476,36.55471,-7.79223,9.27,-1.53,0.17,2.0
1758086550.89157,1758086550.8244,0.0,0.0,0.0,-11.97482,35.58068,-8.25059,9.05,-1.41,0.2,2.0
1758086550.89281,1758086550.8344,0.0,0.0,0.0,-10.59972,33.51803,-8.30789,9.12,-1.32,0.16,2.0
1758086550.9076,1758086550.8444,0.0,0.0,0.0,-9.11003,30.53865,-7.96411,9.12,-1.32,0.16,2.0
1758086550.90852,1758086550.8544,0.0,0.0,0.0,-7.73493,27.38738,-7.84952,9.39,-1.26,0.26,2.0
1758086550.92364,1758086550.8644,0.0,0.0,0.0,-5.09932,20.62648,-7.62034,9.39,-1.26,0.26,2.0
1758086550.93942,1758086550.8744,0.0,0.0,0.0,-2.63561,13.80828,-6.70361,9.48,-1.21,0.44,2.0
1758086550.94075,1758086550.8844,0.0,0.0,0.0,-0.0573,8.136,-5.78687,9.48,-1.21,0.44,2.0
1758086550.95562,1758086550.8944,0.0,0.0,0.0,2.23454,2.7502,-4.46907,9.48,-1.29,0.35,2.0
1758086550.95693,1758086550.9044,0.0,0.0,0.0,5.50039,-4.18259,-2.7502,9.41,-1.56,0.37,2.0
1758086550.97186,1758086550.9144,0.0,0.0,0.0,7.16197,-7.79223,-1.94806,9.41,-1.56,0.37,2.0
1758086550.98734,1758086550.9244,0.0,0.0,0.0,8.99544,-11.51645,-0.74485,9.46,-1.74,0.17,2.0
1758086550.98847,1758086550.9344,0.0,0.0,0.0,10.37054,-16.38659,0.11459,9.46,-1.74,0.17,2.0
1758086551.00351,1758086550.9444,0.0,0.0,0.0,12.2613,-22.57454,-0.34377,9.38,-1.71,-0.41,2.0
1758086551.0194,1758086550.9544,0.0,0.0,0.0,13.80828,-21.14215,-0.34377,9.38,-1.71,-0.41,2.0
1758086551.02053,1758086550.9644,0.0,0.0,0.0,15.58445,-16.67307,-0.97403,10.08,-1.59,-0.9,2.0
1758086551.03533,1758086550.9744,0.0,0.0,0.0,18.90761,-10.65701,-1.77617,10.08,-1.59,-0.9,2.0
1758086551.03663,1758086550.9844,0.0,0.0,0.0,21.02755,-8.88085,-2.97938,10.54,-1.41,-0.48,2.0
1758086551.05234,1758086550.9944,0.0,0.0,0.0,22.91831,-8.02141,-4.18259,10.68,-1.31,-0.08,2.0
1758086551.06763,1758086551.0044,0.0,0.0,0.0,23.72045,-7.79223,-5.32851,10.68,-1.31,-0.08,2.0
1758086551.06854,1758086551.0144,0.0,0.0,0.0,24.17882,-9.74028,-6.47442,10.91,-1.33,0.09,2.0
1758086551.0836,1758086551.0244,0.0,0.0,0.0,23.26209,-12.54778,-5.78687,10.91,-1.33,0.09,2.0
1758086551.09946,1758086551.0344,0.0,0.0,0.0,21.7151,-16.55848,-3.95341,11.09,-1.34,1.04,2.0
1758086551.10083,1758086551.0444,0.0,0.0,0.0,18.9649,-20.79837,-0.17189,11.09,-1.34,1.04,2.0
1758086551.11565,1758086551.0544,0.0,0.0,0.0,11.74564,-22.28806,5.84417,12.3,-0.96,2.27,2.0
1758086551.11679,1758086551.0644,0.0,0.0,0.0,5.4431,-22.28806,9.62569,13.66,-0.04,3.11,2.0
1758086551.13272,1758086551.0744,0.0,0.0,0.0,-0.80214,-24.12152,11.11538,13.66,-0.04,3.11,2.0
1758086551.1496,1758086551.0844,0.0,0.0,0.0,-2.34913,-42.57077,13.69369,11.93,0.56,2.78,2.0
1758086551.15082,1758086551.0944,0.0,0.0,0.0,-7.33386,-75.28666,13.34992,11.93,0.56,2.78,2.0
1758086551.16723,1758086551.1044,0.0,0.0,0.0,-7.96411,-80.27139,14.32395,9.58,0.26,0.7,2.0
1758086551.16828,1758086551.1144,0.0,0.0,0.0,-7.62034,-75.40125,13.00614,9.58,0.26,0.7,2.0
1758086551.18338,1758086551.1244,0.0,0.0,0.0,-5.55769,-69.78626,10.19865,10.29,-0.5,1.16,2.0
1758086551.19932,1758086551.1344,0.0,0.0,0.0,-1.20321,-64.51505,7.50575,8.56,-0.85,3.09,2.0
1758086551.20058,1758086551.1444,0.0,0.0,0.0,1.71887,-59.70221,5.21392,8.56,-0.85,3.09,2.0
1758086551.21569,1758086551.1544,0.0,0.0,0.0,4.87014,-55.23313,2.63561,8.54,-1.03,4.02,2.0
1758086551.21817,1758086551.1644,0.0,0.0,0.0,10.25595,-48.07116,-0.68755,8.54,-1.03,4.02,2.0
1758086551.23369,1758086551.1744,0.0,0.0,0.0,14.43854,-41.99781,-2.29183,8.97,-1.22,2.54,2.0
1758086551.24965,1758086551.1844,0.0,0.0,0.0,18.9649,-35.2942,-2.92208,8.97,-1.22,2.54,2.0
1758086551.25059,1758086551.1944,0.0,0.0,0.0,23.26209,-29.9084,-2.7502,9.76,-1.28,1.52,2.0
1758086551.26537,1758086551.2044,0.0,0.0,0.0,28.13223,-22.51724,-0.45837,10.46,-1.28,1.46,2.0
1758086551.26663,1758086551.2144,0.0,0.0,0.0,30.19488,-16.73037,1.3178,10.46,-1.1,1.46,2.0
1758086551.28306,1758086551.2244,0.0,0.0,0.0,30.99702,-9.91217,2.7502,11.3,-0.73,1.42,2.0
1758086551.29869,1758086551.2344,0.0,0.0,0.0,30.88243,-0.97403,3.83882,11.3,-0.73,1.42,2.0
1758086551.29985,1758086551.2444,0.0,0.0,0.0,28.93437,13.80828,4.46907,11.61,-0.09,1.23,2.0
1758086551.31473,1758086551.2544,0.0,0.0,0.0,26.47065,23.0902,4.1253,11.61,-0.09,1.23,2.0
1758086551.3156,1758086551.2644,0.0,0.0,0.0,23.49127,32.25753,3.32316,11.04,0.64,1.15,2.0
1758086551.33195,1758086551.2744,0.0,0.0,0.0,20.16812,39.01843,2.06265,11.04,0.64,1.15,2.0
1758086551.34738,1758086551.2844,0.0,0.0,0.0,15.46986,43.14373,-0.34377,10.33,1.21,0.78,2.0
1758086551.34886,1758086551.2944,0.0,0.0,0.0,12.71966,43.54479,-1.48969,9.88,1.36,0.5,2.0
1758086551.36345,1758086551.3044,0.0,0.0,0.0,10.19865,43.20102,-2.6929,9.88,1.36,0.5,2.0
1758086551.40551,1758086551.3144,0.0,0.0,0.0,7.67763,42.39888,-3.95341,9.87,1.05,0.49,2.0
1758086551.40732,1758086551.3244,0.0,0.0,0.0,4.1253,38.84654,-5.95876,9.87,1.05,0.49,2.0
1758086551.40821,1758086551.3344,0.0,0.0,0.0,1.43239,36.84119,-7.10468,9.57,0.62,0.6,2.0
1758086551.41187,1758086551.3444,0.0,0.0,0.0,-1.14592,35.40879,-7.67763,9.57,0.62,0.6,2.0
1758086551.4122,1758086551.3544,0.0,0.0,0.0,-5.90147,34.37747,-8.70896,9.54,0.36,0.73,2.0
1758086551.42865,1758086551.3644,0.0,0.0,0.0,-9.11003,31.56997,-9.22462,9.19,0.36,0.68,2.0
1758086551.4323,1758086551.3744,0.0,0.0,0.0,-11.91752,28.36141,-9.33921,9.19,0.36,0.68,2.0
1758086551.44774,1758086551.3844,0.0,0.0,0.0,-14.20935,25.72581,-9.33921,9.05,0.49,0.55,2.0
1758086551.44864,1758086551.3944,0.0,0.0,0.0,-16.67307,22.68913,-9.05273,9.05,0.49,0.55,2.0
1758086551.46365,1758086551.4044,0.0,0.0,0.0,-17.87628,21.48592,-8.88085,9.25,0.58,0.46,2.0
1758086551.48022,1758086551.4144,0.0,0.0,0.0,-18.90761,20.45459,-9.33921,9.25,0.58,0.46,2.0
1758086551.48144,1758086551.4244,0.0,0.0,0.0,-19.59516,18.73572,-9.74028,9.23,0.59,0.64,2.0
1758086551.49673,1758086551.4344,0.0,0.0,0.0,-19.82434,13.98017,-9.68299,9.01,0.46,0.5,2.0
1758086551.49772,1758086551.4444,0.0,0.0,0.0,-19.76705,13.17803,-9.28192,9.01,0.46,0.5,2.0
1758086551.51303,1758086551.4544,0.0,0.0,0.0,-19.59516,14.20935,-8.59437,9.35,0.24,0.3,2.0
1758086551.52952,1758086551.4644,0.0,0.0,0.0,-19.48057,15.12609,-8.02141,9.35,0.24,0.3,2.0
1758086551.53237,1758086551.4744,0.0,0.0,0.0,-19.07949,15.58445,-7.04738,9.18,0.0,0.29,2.0
1758086551.54776,1758086551.4844,0.0,0.0,0.0,-19.36597,16.55848,-6.35983,9.18,0.0,0.29,2.0
1758086551.54867,1758086551.4944,0.0,0.0,0.0,-19.48057,18.33465,-5.84417,9.18,-0.14,0.38,2.0
1758086551.56372,1758086551.5044,0.0,0.0,0.0,-19.53786,19.70975,-5.15662,9.18,-0.14,0.38,2.0
1758086551.5795,1758086551.5144,0.0,0.0,0.0,-19.59516,21.08485,-4.23989,9.22,-0.18,0.3,2.0
1758086551.58103,1758086551.5244,0.0,0.0,0.0,-19.76705,21.42862,-3.38045,9.12,-0.22,0.34,2.0
1758086551.59654,1758086551.5344,0.0,0.0,0.0,-20.11082,21.02755,-2.46372,9.12,-0.22,0.34,2.0
1758086551.59855,1758086551.5444,0.0,0.0,0.0,-20.45459,18.79302,-1.08862,9.12,-0.27,0.26,2.0
1758086551.6135,1758086551.5544,0.0,0.0,0.0,-20.79837,16.04282,-0.45837,9.12,-0.27,0.26,2.0
1758086551.62955,1758086551.5644,0.0,0.0,0.0,-21.14215,13.12073,0.22918,9.18,-0.29,0.3,2.0
1758086551.63229,1758086551.5744,0.0,0.0,0.0,-21.48592,9.96947,0.97403,9.18,-0.29,0.3,2.0
1758086551.64773,1758086551.5844,0.0,0.0,0.0,-22.34536,5.95876,1.60428,9.42,-0.27,0.32,2.0
1758086551.64951,1758086551.5944,0.0,0.0,0.0,-23.0329,3.38045,1.83346,9.69,-0.14,0.33,2.0
1758086551.66451,1758086551.6044,0.0,0.0,0.0,-23.66316,1.3178,2.00535,9.69,-0.14,0.33,2.0
1758086551.66728,1758086551.6144,0.0,0.0,0.0,-24.35071,-1.08862,2.23454,9.96,-0.03,0.23,2.0
1758086551.68433,1758086551.6244,0.0,0.0,0.0,-25.8404,-5.21392,1.83346,9.96,-0.03,0.23,2.0
1758086551.68659,1758086551.6344,0.0,0.0,0.0,-26.98631,-7.73493,1.48969,10.14,0.06,0.11,2.0
1758086551.7029,1758086551.6444,0.0,0.0,0.0,-28.24682,-9.85487,1.14592,10.14,0.06,0.11,2.0
1758086551.71877,1758086551.6544,0.0,0.0,0.0,-29.56462,-10.54242,0.74485,10.4,0.11,-0.09,2.0
1758086551.72013,1758086551.6644,0.0,0.0,0.0,-31.2262,-11.22997,0.17189,10.67,0.14,-0.24,2.0
1758086551.73508,1758086551.6744,0.0,0.0,0.0,-32.20023,-12.83425,-0.45837,10.67,0.14,-0.24,2.0
1758086551.73572,1758086551.6844,0.0,0.0,0.0,-32.88778,-14.43854,-0.57296,10.77,0.1,-0.27,2.0
1758086551.75173,1758086551.6944,0.0,0.0,0.0,-33.74722,-13.80828,-0.74485,10.77,0.1,-0.27,2.0
1758086551.76763,1758086551.7044,0.0,0.0,0.0,-34.26288,-11.97482,-0.57296,11.48,-0.22,-0.11,2.0
1758086551.76897,1758086551.7144,0.0,0.0,0.0,-34.43476,-10.8289,-0.0573,11.48,-0.22,-0.11,2.0
1758086551.78437,1758086551.7244,0.0,0.0,0.0,-34.32018,-11.00079,0.45837,11.74,-0.51,0.09,2.0
1758086551.78715,1758086551.7344,0.0,0.0,0.0,-33.68992,-15.58445,0.74485,11.74,-0.51,0.09,2.0
1758086551.8026,1758086551.7444,0.0,0.0,0.0,-32.83048,-21.6578,0.57296,11.28,-0.72,0.33,2.0
1758086551.8205,1758086551.7544,0.0,0.0,0.0,-31.62727,-28.99167,0.11459,11.03,-0.9,0.13,2.0
1758086551.82249,1758086551.7644,0.0,0.0,0.0,-29.67921,-34.60666,-1.3178,11.03,-0.9,0.13,2.0
1758086551.83782,1758086551.7744,0.0,0.0,0.0,-24.63719,-38.27358,-4.18259,11.98,-1.06,0.41,2.0
1758086551.83874,1758086551.7844,0.0,0.0,0.0,-21.31403,-37.18496,-6.53172,11.98,-1.06,0.41,2.0
1758086551.85438,1758086551.7944,0.0,0.0,0.0,-17.30333,-33.00237,-7.21927,12.85,-1.02,1.08,2.0
1758086551.85561,1758086551.8044,0.0,0.0,0.0,-15.06879,-31.85646,-8.136,12.85,-1.02,1.08,2.0
1758086551.87179,1758086551.8144,0.0,0.0,0.0,-12.204,-37.35685,-6.99009,11.83,-0.57,1.51,2.0
1758086551.88784,1758086551.8244,0.0,0.0,0.0,-11.17268,-41.99781,-5.32851,9.73,-0.14,1.17,2.0
1758086551.88902,1758086551.8344,0.0,0.0,0.0,-10.8862,-45.09178,-3.20856,9.73,-0.14,1.17,2.0
1758086551.90468,1758086551.8444,0.0,0.0,0.0,-11.22997,-46.1804,-0.57296,8.67,-0.15,0.85,2.0
1758086551.90562,1758086551.8544,0.0,0.0,0.0,-13.00614,-47.78468,2.97938,8.67,-0.15,0.85,2.0
1758086551.92187,1758086551.8644,0.0,0.0,0.0,-15.0115,-49.90463,4.64096,7.91,-0.33,1.91,2.0
1758086551.93783,1758086551.8744,0.0,0.0,0.0,-17.81899,-52.82671,5.95876,7.91,-0.33,1.91,2.0
1758086551.93906,1758086551.8844,0.0,0.0,0.0,-21.31403,-55.00395,6.87549,7.88,-0.37,3.05,2.0
1758086551.95365,1758086551.8944,0.0,0.0,0.0,-27.73116,-53.97263,6.8182,9.07,-0.06,3.08,2.0
1758086551.96959,1758086551.9044,0.0,0.0,0.0,-32.48671,-50.93595,5.72958,9.07,-0.06,3.08,2.0
1758086551.97082,1758086551.9144,0.0,0.0,0.0,-37.47144,-46.86795,3.72423,10.06,0.44,2.42,2.0
1758086551.98583,1758086551.9244,0.0,0.0,0.0,-44.17505,-42.28429,-0.0573,10.06,0.44,2.42,2.0
1758086551.98708,1758086551.9344,0.0,0.0,0.0,-47.15443,-34.95043,-2.06265,10.31,0.76,1.91,2.0
1758086552.00163,1758086551.9444,0.0,0.0,0.0,-49.38896,-29.9084,-3.66693,10.31,0.76,1.91,2.0
1758086552.01781,1758086551.9544,0.0,0.0,0.0,-50.3057,-23.37668,-4.18259,10.57,0.45,1.34,2.0
1758086552.01883,1758086551.9644,0.0,0.0,0.0,-49.67545,-10.02676,-2.97938,10.57,0.45,1.34,2.0
1758086552.03463,1758086551.9744,0.0,0.0,0.0,-48.35764,0.45837,-1.77617,11.18,-0.37,0.76,2.0
1758086552.03718,1758086551.9844,0.0,0.0,0.0,-46.63877,9.28192,-0.34377,11.25,-1.25,0.44,2.0
1758086552.0528,1758086551.9944,0.0,0.0,0.0,-43.94586,19.59516,1.08862,11.25,-1.25,0.44,2.0
1758086552.06963,1758086552.0044,0.0,0.0,0.0,-40.16434,33.34615,1.94806,11.01,-1.72,0.05,2.0
1758086552.07083,1758086552.0144,0.0,0.0,0.0,-37.75792,40.16434,2.23454,11.01,-1.72,0.05,2.0
1758086552.08662,1758086552.0244,0.0,0.0,0.0,-35.86716,44.46153,2.06265,10.39,-1.69,-0.37,2.0
1758086552.08761,1758086552.0344,0.0,0.0,0.0,-34.09099,46.63877,2.11994,10.39,-1.69,-0.37,2.0
1758086552.10285,1758086552.0444,0.0,0.0,0.0,-32.71589,48.24305,1.48969,9.97,-1.39,-0.46,2.0
1758086552.11862,1758086552.0544,0.0,0.0,0.0,-32.20023,47.26902,1.08862,9.69,-1.05,-0.28,2.0
1758086552.11982,1758086552.0644,0.0,0.0,0.0,-31.79916,45.60744,0.85944,9.69,-1.05,-0.28,2.0
1758086552.13486,1758086552.0744,0.0,0.0,0.0,-31.56997,43.25832,0.45837,9.41,-0.82,-0.11,2.0
1758086552.13657,1758086552.0844,0.0,0.0,0.0,-31.11161,39.64868,0.11459,9.41,-0.82,-0.11,2.0
1758086552.15291,1758086552.0944,0.0,0.0,0.0,-30.13758,37.29956,0.34377,9.24,-0.8,0.01,2.0
1758086552.16888,1758086552.1044,0.0,0.0,0.0,-28.87707,34.60666,0.68755,9.24,-0.8,0.01,2.0
1758086552.16982,1758086552.1144,0.0,0.0,0.0,-26.87172,31.45539,1.03132,9.02,-0.97,0.03,2.0
1758086552.18466,1758086552.1244,0.0,0.0,0.0,-25.72581,28.64789,1.03132,8.9,-1.19,-0.08,2.0
1758086552.18582,1758086552.1344,0.0,0.0,0.0,-24.17882,28.01764,0.85944,8.9,-1.19,-0.08,2.0
1758086552.20167,1758086552.1444,0.0,0.0,0.0,-22.34536,26.87172,0.97403,8.83,-1.41,-0.09,2.0
1758086552.21896,1758086552.1544,0.0,0.0,0.0,-19.59516,26.35606,0.34377,8.83,-1.41,-0.09,2.0
1758086552.22011,1758086552.1644,0.0,0.0,0.0,-17.76169,26.12688,0.0,8.85,-1.6,-0.03,2.0
1758086552.23497,1758086552.1744,0.0,0.0,0.0,-15.92823,26.81443,-0.68755,8.85,-1.6,-0.03,2.0
1758086552.23588,1758086552.1844,0.0,0.0,0.0,-14.03747,27.38738,-1.3178,9.04,-1.68,-0.09,2.0
1758086552.25197,1758086552.1944,0.0,0.0,0.0,-11.34457,26.24147,-1.83346,9.07,-1.68,-0.23,2.0
1758086552.26791,1758086552.2044,0.0,0.0,0.0,-9.68299,28.13223,-2.29183,9.07,-1.56,-0.23,2.0
1758086552.2692,1758086552.2144,0.0,0.0,0.0,-8.88085,31.51268,-2.92208,9.47,-1.29,-0.32,2.0
1758086552.28398,1758086552.2244,0.0,0.0,0.0,-8.42248,34.49206,-3.38045,9.47,-1.29,-0.32,2.0
1758086552.2999,1758086552.2344,0.0,0.0,0.0,-8.99544,36.55471,-4.29718,9.33,-1.02,-0.09,2.0
1758086552.30169,1758086552.2444,0.0,0.0,0.0,-9.5684,35.75257,-4.64096,9.33,-1.02,-0.09,2.0
1758086552.31667,1758086552.2544,0.0,0.0,0.0,-9.91217,33.63263,-5.15662,9.13,-0.81,-0.03,2.0
1758086552.31788,1758086552.2644,0.0,0.0,0.0,-9.96947,30.65324,-5.27121,9.13,-0.81,-0.03,2.0
1758086552.3329,1758086552.2744,0.0,0.0,0.0,-9.39651,26.47065,-5.32851,9.29,-0.75,-0.18,2.0
1758086552.34947,1758086552.2844,0.0,0.0,0.0,-8.30789,22.63183,-4.98473,9.59,-0.85,-0.22,2.0
1758086552.35215,1758086552.2944,0.0,0.0,0.0,-6.8182,17.53251,-4.69825,9.59,-0.85,-0.22,2.0
1758086552.36696,1758086552.3044,0.0,0.0,0.0,-5.15662,11.63104,-4.18259,9.58,-0.97,-0.07,2.0
1758086552.36804,1758086552.3144,0.0,0.0,0.0,-1.94806,3.89611,-3.60963,9.58,-0.97,-0.07,2.0
1758086552.38294,1758086552.3244,0.0,0.0,0.0,0.45837,-0.34377,-2.86479,9.75,-1.18,-0.22,2.0
1758086552.39896,1758086552.3344,0.0,0.0,0.0,2.86479,-4.58366,-2.11994,9.75,-1.18,-0.22,2.0
1758086552.39988,1758086552.3444,0.0,0.0,0.0,5.72958,-8.99544,-1.48969,9.72,-1.46,-0.37,2.0
1758086552.41474,1758086552.3544,0.0,0.0,0.0,7.16197,-11.34457,-1.43239,9.78,-1.61,-0.47,2.0
1758086552.41618,1758086552.3644,0.0,0.0,0.0,8.36518,-14.38124,-1.77617,9.78,-1.61,-0.47,2.0
1758086552.43198,1758086552.3744,0.0,0.0,0.0,9.11003,-17.93358,-1.94806,9.81,-1.53,-0.5,2.0
1758086552.44799,1758086552.3844,0.0,0.0,0.0,9.5684,-23.54857,-2.11994,9.81,-1.53,-0.5,2.0
1758086552.44918,1758086552.3944,0.0,0.0,0.0,9.91217,-22.28806,-1.60428,10.6,-1.21,-0.41,2.0
1758086552.46401,1758086552.4044,0.0,0.0,0.0,8.76626,-20.11082,-1.20321,10.6,-1.21,-0.41,2.0
1758086552.48,1758086552.4144,0.0,0.0,0.0,6.87549,-20.34,-0.22918,11.82,-0.71,0.31,2.0
1758086552.48108,1758086552.4244,0.0,0.0,0.0,2.34913,-24.63719,2.34913,12.18,-0.2,1.96,2.0
1758086552.49677,1758086552.4344,0.0,0.0,0.0,-1.71887,-28.87707,4.98473,12.18,-0.2,1.96,2.0
1758086552.49768,1758086552.4444,0.0,0.0,0.0,-6.70361,-33.05967,8.42248,13.29,0.15,2.33,2.0
1758086552.51271,1758086552.4544,0.0,0.0,0.0,-11.80293,-35.63798,11.63104,13.29,0.15,2.33,2.0
1758086552.52895,1758086552.4644,0.0,0.0,0.0,-20.3973,-34.09099,14.38124,13.48,0.02,1.77,2.0
1758086552.52992,1758086552.4744,0.0,0.0,0.0,-24.92367,-33.51803,14.38124,13.48,0.02,1.77,2.0
1758086552.54495,1758086552.4844,0.0,0.0,0.0,-28.30412,-35.00772,13.06344,11.12,-0.43,1.65,2.0
1758086552.54591,1758086552.4944,0.0,0.0,0.0,-29.9084,-38.21629,11.34457,11.12,-0.43,1.65,2.0
1758086552.56172,1758086552.5044,0.0,0.0,0.0,-28.36141,-41.31026,10.19865,8.48,-0.73,1.93,2.0
1758086552.57796,1758086552.5144,0.0,0.0,0.0,-23.60586,-41.65404,9.91217,7.55,-0.88,2.47,2.0
1758086552.57894,1758086552.5244,0.0,0.0,0.0,-16.95955,-41.48215,7.96411,7.55,-0.88,2.47,2.0
1758086552.59447,1758086552.5344,0.0,0.0,0.0,-4.58366,-59.35843,8.30789,6.73,-1.15,3.19,2.0
1758086552.59601,1758086552.5444,0.0,0.0,0.0,5.15662,-61.42108,8.02141,6.73,-1.15,3.19,2.0
1758086552.61188,1758086552.5544,0.0,0.0,0.0,14.83961,-53.51426,7.84952,8.53,-2.21,1.97,2.0
1758086552.62777,1758086552.5644,0.0,0.0,0.0,23.26209,-43.02913,6.99009,8.53,-2.21,1.97,2.0
1758086552.62981,1758086552.5744,0.0,0.0,0.0,32.54401,-36.32552,6.18794,10.61,-2.95,1.09,2.0
1758086552.64469,1758086552.5844,0.0,0.0,0.0,35.63798,-32.08564,5.78687,10.9,-2.35,1.66,2.0
1758086552.64711,1758086552.5944,0.0,0.0,0.0,36.7266,-23.94964,5.84417,10.9,-2.35,1.66,2.0
1758086552.66307,1758086552.6044,0.0,0.0,0.0,36.26823,-13.00614,5.78687,12.37,-0.92,1.14,2.0
1758086552.67897,1758086552.6144,0.0,0.0,0.0,33.80451,3.03668,6.53172,12.37,-0.92,1.14,2.0
1758086552.69742,1758086552.6244,0.0,0.0,0.0,31.51268,14.09476,6.70361,12.22,0.49,0.77,2.0
1758086552.70049,1758086552.6344,0.0,0.0,0.0,28.87707,24.00693,6.47442,12.22,0.49,0.77,2.0
1758086552.70081,1758086552.6444,0.0,0.0,0.0,26.24147,33.11696,5.21392,11.05,1.08,0.55,2.0
1758086552.71775,1758086552.6544,0.0,0.0,0.0,22.97561,44.40423,2.57831,10.23,0.91,0.11,2.0
1758086552.76316,1758086552.6644,0.0,0.0,0.0,21.7724,48.58683,0.68755,10.23,0.91,0.11,2.0
1758086552.76672,1758086552.6744,0.0,0.0,0.0,21.25674,50.3057,-0.51566,9.79,0.34,-0.02,2.0
1758086552.76789,1758086552.6844,0.0,0.0,0.0,20.97026,50.99325,-1.77617,9.79,0.34,-0.02,2.0
1758086552.76966,1758086552.6944,0.0,0.0,0.0,21.6578,51.10783,-2.7502,9.71,-0.28,-0.1,2.0
1758086552.77081,1758086552.7044,0.0,0.0,0.0,22.28806,50.47758,-2.97938,9.71,-0.28,-0.1,2.0
1758086552.77238,1758086552.7144,0.0,0.0,0.0,22.68913,49.56085,-3.26586,9.46,-0.63,-0.11,2.0
1758086552.78807,1758086552.7244,0.0,0.0,0.0,22.34536,49.27437,-3.38045,9.46,-0.63,-0.11,2.0
1758086552.78898,1758086552.7344,0.0,0.0,0.0,21.7151,49.27437,-3.03668,9.25,-0.62,-0.09,2.0
1758086552.80407,1758086552.7444,0.0,0.0,0.0,20.22541,48.30034,-2.97938,9.05,-0.35,0.01,2.0
1758086552.82082,1758086552.7544,0.0,0.0,0.0,18.50654,46.1231,-2.46372,9.05,-0.35,0.01,2.0
1758086552.82179,1758086552.7644,0.0,0.0,0.0,15.98552,42.1124,-2.23454,8.83,0.01,0.12,2.0
1758086552.83703,1758086552.7744,0.0,0.0,0.0,14.03747,39.19032,-1.94806,8.83,0.01,0.12,2.0
1758086552.83805,1758086552.7844,0.0,0.0,0.0,12.14671,37.18496,-1.83346,8.92,0.38,0.16,2.0
1758086552.853,1758086552.7944,0.0,0.0,0.0,10.25595,34.09099,-2.40642,8.92,0.38,0.16,2.0
1758086552.86882,1758086552.8044,0.0,0.0,0.0,7.73493,27.50197,-2.57831,8.83,0.58,0.18,2.0
1758086552.87042,1758086552.8144,0.0,0.0,0.0,5.84417,24.75178,-2.6929,8.82,0.62,0.27,2.0
1758086552.88511,1758086552.8244,0.0,0.0,0.0,4.29718,22.57454,-2.34913,8.82,0.62,0.27,2.0
1758086552.88677,1758086552.8344,0.0,0.0,0.0,2.97938,20.74107,-2.06265,8.97,0.49,0.31,2.0
1758086552.90285,1758086552.8444,0.0,0.0,0.0,0.97403,20.68378,-1.71887,8.97,0.49,0.31,2.0
1758086552.91907,1758086552.8544,0.0,0.0,0.0,-0.34377,23.0329,-1.94806,9.24,0.34,0.22,2.0
1758086552.92,1758086552.8644,0.0,0.0,0.0,-1.08862,25.43933,-1.48969,9.24,0.34,0.22,2.0
1758086552.93508,1758086552.8744,0.0,0.0,0.0,-1.94806,26.35606,-1.20321,9.33,0.26,0.07,2.0
1758086552.93627,1758086552.8844,0.0,0.0,0.0,-3.66693,22.28806,-0.57296,8.9,0.25,0.16,2.0
1758086552.95212,1758086552.8944,0.0,0.0,0.0,-5.27121,18.33465,-0.11459,8.9,0.25,0.16,2.0
1758086552.96784,1758086552.9044,0.0,0.0,0.0,-7.67763,14.49583,0.11459,9.11,0.28,-0.09,2.0
1758086552.96915,1758086552.9144,0.0,0.0,0.0,-11.97482,7.84952,0.40107,9.11,0.28,-0.09,2.0
1758086552.98391,1758086552.9244,0.0,0.0,0.0,-14.83961,1.60428,0.68755,9.43,0.28,-0.13,2.0
1758086552.99994,1758086552.9344,0.0,0.0,0.0,-17.53251,-4.81285,0.34377,9.43,0.28,-0.13,2.0
1758086553.00164,1758086552.9444,0.0,0.0,0.0,-19.70975,-11.74564,0.0,9.8,0.16,-0.07,2.0
1758086553.01766,1758086552.9544,0.0,0.0,0.0,-21.02755,-21.88699,-0.45837,9.8,0.16,-0.07,2.0
1758086553.01896,1758086552.9644,0.0,0.0,0.0,-21.08485,-28.24682,-1.20321,10.21,-0.04,-0.24,2.0
1758086553.03392,1758086552.9744,0.0,0.0,0.0,-20.11082,-32.25753,-1.66158,10.6,-0.25,-0.59,2.0
1758086553.05,1758086552.9844,0.0,0.0,0.0,-18.90761,-34.32018,-1.71887,10.6,-0.25,-0.59,2.0
1758086553.05131,1758086552.9944,0.0,0.0,0.0,-16.84496,-36.38282,0.0,11.0,-0.54,-0.67,2.0
1758086553.066,1758086553.0044,0.0,0.0,0.0,-15.46986,-36.21093,1.48969,11.0,-0.54,-0.67,2.0
1758086553.06705,1758086553.0144,0.0,0.0,0.0,-13.98017,-37.01308,2.86479,11.79,-1.01,0.06,2.0
1758086553.08199,1758086553.0244,0.0,0.0,0.0,-12.71966,-39.82057,3.89611,11.79,-1.01,0.06,2.0
1758086553.09792,1758086553.0344,0.0,0.0,0.0,-11.57375,-46.81066,3.03668,12.26,-1.34,1.31,2.0
1758086553.1205,1758086553.0444,0.0,0.0,0.0,-11.28727,-52.76942,0.80214,12.55,-1.05,2.08,2.0
1758086553.12082,1758086553.0544,0.0,0.0,0.0,-11.45916,-59.07195,-2.63561,12.55,-1.05,2.08,2.0
1758086553.12237,1758086553.0644,0.0,0.0,0.0,-11.28727,-64.74423,-5.95876,13.05,-0.47,1.81,2.0
1758086553.13709,1758086553.0744,0.0,0.0,0.0,-10.37054,-68.23928,-8.93814,13.05,-0.47,1.81,2.0
1758086553.13884,1758086553.0844,0.0,0.0,0.0,-9.74028,-66.80688,-9.5684,12.81,-0.12,2.12,2.0
1758086553.154,1758086553.0944,0.0,0.0,0.0,-9.05273,-62.39511,-9.28192,12.81,-0.12,2.12,2.0
1758086553.15753,1758086553.1044,0.0,0.0,0.0,-9.22462,-58.15522,-7.96411,10.93,-0.22,2.54,2.0
1758086553.19267,1758086553.1144,0.0,0.0,0.0,-10.31324,-56.89471,-6.8182,8.65,-0.4,3.11,2.0
1758086553.19441,1758086553.1244,0.0,0.0,0.0,-12.37589,-57.86874,-5.4431,8.65,-0.4,3.11,2.0
1758086553.19611,1758086553.1344,0.0,0.0,0.0,-15.41257,-58.84277,-3.83882,7.9,-0.27,3.14,2.0
1758086553.19784,1758086553.1444,0.0,0.0,0.0,-21.88699,-54.77477,-0.97403,7.9,-0.27,3.14,2.0
1758086553.21292,1758086553.1544,0.0,0.0,0.0,-26.69983,-44.40423,0.68755,9.08,0.09,2.72,2.0
1758086553.22999,1758086553.1644,0.0,0.0,0.0,-31.74186,-32.20023,2.46372,9.08,0.09,2.72,2.0
1758086553.23137,1758086553.1744,0.0,0.0,0.0,-37.87251,-27.84575,4.0107,10.16,0.42,2.59,2.0
1758086553.24699,1758086553.1844,0.0,0.0,0.0,-47.38361,-47.09713,3.66693,8.48,0.67,2.35,2.0
1758086553.24818,1758086553.1944,0.0,0.0,0.0,-52.54023,-52.82671,3.55234,8.48,0.67,2.35,2.0
1758086553.26315,1758086553.2044,0.0,0.0,0.0,-55.29043,-50.3057,2.6929,10.56,0.47,0.24,2.0
1758086553.28169,1758086553.2144,0.0,0.0,0.0,-56.49364,-45.55015,2.34913,10.56,0.47,0.24,2.0
1758086553.32974,1758086553.2244,0.0,0.0,0.0,-57.41038,-28.93437,1.83346,11.78,-0.57,0.27,2.0
1758086553.33013,1758086553.2344,0.0,0.0,0.0,-56.83742,-15.64175,0.45837,11.78,-0.57,0.27,2.0
1758086553.33871,1758086553.2444,0.0,0.0,0.0,-55.51962,3.26586,-0.40107,11.75,-1.64,0.8,2.0
1758086553.34226,1758086553.2544,0.0,0.0,0.0,-55.06125,27.04361,-2.63561,11.75,-1.64,0.8,2.0
1758086553.34436,1758086553.2644,0.0,0.0,0.0,-54.48829,43.20102,-3.49504,11.37,-1.7,0.3,2.0
1758086553.34484,1758086553.2744,0.0,0.0,0.0,-53.34238,49.50356,-3.89611,9.67,-1.37,0.38,2.0
1758086553.34642,1758086553.2844,0.0,0.0,0.0,-51.10783,53.68615,-2.97938,9.67,-1.37,0.38,2.0
1758086553.34787,1758086553.2944,0.0,0.0,0.0,-46.1231,56.66553,-1.03132,9.41,-1.39,-0.46,2.0
1758086553.36418,1758086553.3044,0.0,0.0,0.0,-42.97184,57.75415,-0.11459,9.41,-1.39,-0.46,2.0
1758086553.36767,1758086553.3144,0.0,0.0,0.0,-39.82057,57.18119,1.14592,9.29,-1.53,-0.43,2.0
1758086553.38293,1758086553.3244,0.0,0.0,0.0,-36.95578,57.29578,1.60428,9.29,-1.53,-0.43,2.0
1758086553.40093,1758086553.3344,0.0,0.0,0.0,-33.46074,55.06125,1.77617,9.39,-1.59,-0.2,2.0
1758086553.40234,1758086553.3444,0.0,0.0,0.0,-31.16891,52.19646,1.60428,9.09,-1.51,-0.02,2.0
1758086553.44191,1758086553.3544,0.0,0.0,0.0,-29.39274,48.41494,1.03132,9.09,-1.51,-0.02,2.0
1758086553.44316,1758086553.3644,0.0,0.0,0.0,-27.33009,44.63341,0.22918,8.9,-1.45,-0.01,2.0
1758086553.44438,1758086553.3744,0.0,0.0,0.0,-24.12152,40.16434,-0.68755,8.9,-1.45,-0.01,2.0
1758086553.44715,1758086553.3844,0.0,0.0,0.0,-21.94428,38.38818,-1.60428,8.9,-1.42,-0.3,2.0
1758086553.44777,1758086553.3944,0.0,0.0,0.0,-19.59516,36.26823,-2.40642,8.9,-1.42,-0.3,2.0
1758086553.46423,1758086553.4044,0.0,0.0,0.0,-17.76169,33.34615,-3.32316,8.72,-1.5,-0.27,2.0
1758086553.48025,1758086553.4144,0.0,0.0,0.0,-15.35527,31.2262,-5.32851,8.64,-1.59,-0.39,2.0
1758086553.48204,1758086553.4244,0.0,0.0,0.0,-13.69369,30.13758,-6.58902,8.64,-1.59,-0.39,2.0
1758086553.497,1758086553.4344,0.0,0.0,0.0,-12.08941,29.10626,-7.62034,8.75,-1.66,-0.39,2.0
1758086553.4982,1758086553.4444,0.0,0.0,0.0,-10.37054,30.48136,-8.36518,8.75,-1.66,-0.39,2.0
1758086553.51328,1758086553.4544,0.0,0.0,0.0,-8.36518,35.06502,-9.68299,9.16,-1.7,-0.24,2.0
1758086553.52998,1758086553.4644,0.0,0.0,0.0,-7.50575,37.64333,-10.08406,9.16,-1.7,-0.24,2.0
1758086553.53238,1758086553.4744,0.0,0.0,0.0,-7.04738,39.07573,-10.54242,9.1,-1.6,0.01,2.0
1758086553.54728,1758086553.4844,0.0,0.0,0.0,-7.04738,38.15899,-10.48513,9.1,-1.6,0.01,2.0
1758086553.54818,1758086553.4944,0.0,0.0,0.0,-6.24524,33.9764,-10.02676,8.82,-1.36,-0.17,2.0
1758086553.56327,1758086553.5044,0.0,0.0,0.0,-5.4431,29.9084,-9.33921,8.87,-1.14,-0.72,2.0
1758086553.58043,1758086553.5144,0.0,0.0,0.0,-4.1253,26.35606,-8.42248,8.87,-1.14,-0.72,2.0
1758086553.58199,1758086553.5244,0.0,0.0,0.0,-1.66158,19.25138,-7.50575,9.2,-1.14,-0.64,2.0
1758086553.59829,1758086553.5344,0.0,0.0,0.0,0.22918,14.15206,-7.16197,9.2,-1.14,-0.64,2.0
1758086553.59945,1758086553.5444,0.0,0.0,0.0,2.40642,9.05273,-6.99009,9.39,-1.21,-0.1,2.0
1758086553.61522,1758086553.5544,0.0,0.0,0.0,4.58366,4.81285,-6.87549,9.39,-1.21,-0.1,2.0
1758086553.61645,1758086553.5644,0.0,0.0,0.0,7.10468,1.03132,-6.99009,9.66,-1.35,-0.11,2.0
1758086553.63228,1758086553.5744,0.0,0.0,0.0,8.65166,-1.43239,-7.04738,9.65,-1.49,-0.22,2.0
1758086553.64829,1758086553.5844,0.0,0.0,0.0,9.68299,-4.81285,-7.16197,9.65,-1.49,-0.22,2.0
1758086553.64998,1758086553.5944,0.0,0.0,0.0,10.54242,-7.67763,-7.16197,9.41,-1.49,-0.45,2.0
1758086553.66528,1758086553.6044,0.0,0.0,0.0,11.51645,-8.76626,-6.58902,9.41,-1.49,-0.45,2.0
1758086553.66649,1758086553.6144,0.0,0.0,0.0,12.08941,-8.30789,-6.07335,9.94,-1.35,-0.58,2.0
1758086553.68202,1758086553.6244,0.0,0.0,0.0,12.60507,-8.0787,-5.15662,9.94,-1.35,-0.58,2.0
1758086553.69804,1758086553.6344,0.0,0.0,0.0,12.60507,-8.136,-4.35448,10.72,-1.22,-0.41,2.0
1758086553.70242,1758086553.6444,0.0,0.0,0.0,11.91752,-10.8289,-2.63561,11.51,-1.13,0.24,2.0
1758086553.71832,1758086553.6544,0.0,0.0,0.0,10.48513,-14.43854,-0.68755,11.51,-1.13,0.24,2.0
1758086553.72033,1758086553.6644,0.0,0.0,0.0,8.136,-19.48057,2.00535,12.47,-1.0,1.55,2.0
1758086553.7351,1758086553.6744,0.0,0.0,0.0,5.21392,-26.35606,7.44845,12.47,-1.0,1.55,2.0
1758086553.73703,1758086553.6844,0.0,0.0,0.0,-0.0573,-36.32552,11.34457,13.7,-0.66,2.41,2.0
1758086553.75305,1758086553.6944,0.0,0.0,0.0,-4.35448,-39.70598,14.20935,13.7,-0.66,2.41,2.0
1758086553.75856,1758086553.7044,0.0,0.0,0.0,-8.0787,-39.99245,16.84496,14.78,-0.3,2.36,2.0
1758086553.77405,1758086553.7144,0.0,0.0,0.0,-13.5791,-35.63798,17.01685,14.78,-0.3,2.36,2.0
1758086553.79028,1758086553.7244,0.0,0.0,0.0,-16.04282,-33.46074,15.75634,13.27,-0.42,2.31,2.0
1758086553.79201,1758086553.7344,0.0,0.0,0.0,-16.84496,-35.52338,13.80828,9.89,-0.68,2.57,2.0
1758086553.80738,1758086553.7444,0.0,0.0,0.0,-15.92823,-39.99245,11.97482,9.89,-0.68,2.57,2.0
1758086553.80825,1758086553.7544,0.0,0.0,0.0,-10.25595,-43.20102,9.68299,7.71,-0.78,2.53,2.0
1758086553.82331,1758086553.7644,0.0,0.0,0.0,-5.50039,-44.51882,5.50039,7.71,-0.78,2.53,2.0
1758086553.84032,1758086553.7744,0.0,0.0,0.0,2.23454,-61.24919,5.21392,6.51,-0.9,2.5,2.0
1758086553.84125,1758086553.7844,0.0,0.0,0.0,11.22997,-71.10406,4.35448,6.51,-0.9,2.5,2.0
1758086553.87604,1758086553.7944,0.0,0.0,0.0,25.49662,-63.94209,4.35448,6.85,-1.34,2.32,2.0
1758086553.87722,1758086553.8044,0.0,0.0,0.0,33.63263,-52.76942,3.32316,10.0,-1.89,1.39,2.0
1758086553.87786,1758086553.8144,0.0,0.0,0.0,39.87786,-47.72739,3.09397,10.0,-1.89,1.39,2.0
1758086553.87912,1758086553.8244,0.0,0.0,0.0,43.37291,-44.40423,2.57831,10.16,-1.57,2.3,2.0
1758086553.89407,1758086553.8344,0.0,0.0,0.0,43.88857,-33.74722,2.57831,10.16,-1.57,2.3,2.0
1758086553.91088,1758086553.8444,0.0,0.0,0.0,42.05511,-23.66316,2.92208,11.39,-0.81,1.64,2.0
1758086553.91213,1758086553.8544,0.0,0.0,0.0,39.4195,-13.5791,3.38045,11.39,-0.81,1.64,2.0
1758086553.92733,1758086553.8644,0.0,0.0,0.0,36.03905,-2.57831,3.66693,11.52,0.14,1.18,2.0
1758086553.92832,1758086553.8744,0.0,0.0,0.0,30.19488,15.35527,3.20856,11.18,0.9,0.99,2.0
1758086553.94331,1758086553.8844,0.0,0.0,0.0,25.89769,26.64254,2.29183,11.18,0.9,0.99,2.0
1758086553.95908,1758086553.8944,0.0,0.0,0.0,22.23076,36.15364,0.85944,10.65,1.44,0.64,2.0
1758086553.96114,1758086553.9044,0.0,0.0,0.0,17.81899,44.748,-1.3751,10.65,1.44,0.64,2.0
1758086553.97611,1758086553.9144,0.0,0.0,0.0,16.10011,46.2377,-2.46372,10.06,1.42,0.32,2.0
1758086553.97727,1758086553.9244,0.0,0.0,0.0,14.9542,46.69606,-3.60963,10.06,1.42,0.32,2.0
1758086553.99239,1758086553.9344,0.0,0.0,0.0,14.43854,46.52417,-4.46907,9.75,0.8,0.02,2.0
1758086554.00838,1758086553.9444,0.0,0.0,0.0,14.03747,44.40423,-5.55769,9.75,0.8,0.04,2.0
1758086554.0093,1758086553.9544,0.0,0.0,0.0,14.03747,42.62806,-5.90147,9.52,0.22,0.04,2.0
1758086554.02436,1758086553.9644,0.0,0.0,0.0,14.03747,40.7946,-5.84417,9.37,-0.11,0.28,2.0
1758086554.04042,1758086553.9744,0.0,0.0,0.0,13.40721,40.27893,-6.70361,9.37,-0.11,0.28,2.0
1758086554.04131,1758086553.9844,0.0,0.0,0.0,11.97482,41.25296,-6.8182,9.51,-0.11,0.42,2.0
1758086554.05612,1758086553.9944,0.0,0.0,0.0,10.8289,39.53409,-6.70361,9.51,-0.11,0.42,2.0
1758086554.05733,1758086554.0044,0.0,0.0,0.0,9.28192,37.12767,-5.84417,9.17,0.08,0.48,2.0
1758086554.07231,1758086554.0144,0.0,0.0,0.0,7.44845,35.69527,-5.21392,9.17,0.08,0.48,2.0
1758086554.08839,1758086554.0244,0.0,0.0,0.0,4.52637,32.77319,-4.46907,9.15,0.3,0.49,2.0
1758086554.107,1758086554.0344,0.0,0.0,0.0,2.86479,30.02299,-4.0107,8.9,0.5,0.44,2.0
1758086554.10723,1758086554.0444,0.0,0.0,0.0,1.20321,27.96034,-3.49504,8.9,0.5,0.44,2.0
1758086554.10834,1758086554.0544,0.0,0.0,0.0,-0.17189,26.52795,-2.97938,8.89,0.57,0.39,2.0
1758086554.12314,1758086554.0644,0.0,0.0,0.0,-2.34913,24.57989,-2.40642,8.89,0.57,0.39,2.0
1758086554.13946,1758086554.0744,0.0,0.0,0.0,-3.49504,23.20479,-2.23454,8.82,0.54,0.28,2.0
1758086554.14069,1758086554.0844,0.0,0.0,0.0,-4.52637,22.00158,-1.83346,8.82,0.54,0.28,2.0
1758086554.15547,1758086554.0944,0.0,0.0,0.0,-6.07335,20.74107,-1.60428,8.9,0.42,0.26,2.0
1758086554.15659,1758086554.1044,0.0,0.0,0.0,-7.21927,21.14215,-1.71887,9.05,0.35,0.07,2.0
1758086554.17248,1758086554.1144,0.0,0.0,0.0,-8.36518,22.63183,-1.3751,9.05,0.35,0.07,2.0
1758086554.18849,1758086554.1244,0.0,0.0,0.0,-9.39651,23.31938,-0.85944,9.1,0.35,0.1,2.0
1758086554.19012,1758086554.1344,0.0,0.0,0.0,-11.28727,21.7724,0.0,9.1,0.35,0.1,2.0
1758086554.20702,1758086554.1444,0.0,0.0,0.0,-13.00614,19.07949,0.51566,8.8,0.3,0.17,2.0
1758086554.2082,1758086554.1544,0.0,0.0,0.0,-14.78231,16.84496,1.20321,8.8,0.3,0.17,2.0
1758086554.22348,1758086554.1644,0.0,0.0,0.0,-16.90226,13.17803,2.29183,8.96,0.2,-0.03,2.0
1758086554.2395,1758086554.1744,0.0,0.0,0.0,-20.22541,4.52637,3.03668,9.06,0.13,-0.11,2.0
1758086554.24064,1758086554.1844,0.0,0.0,0.0,-22.51724,-3.49504,2.97938,9.06,0.13,-0.11,2.0
1758086554.25675,1758086554.1944,0.0,0.0,0.0,-24.63719,-10.8862,2.34913,9.45,0.08,-0.11,2.0
1758086554.25883,1758086554.2044,0.0,0.0,0.0,-26.69983,-16.95955,1.08862,9.45,0.08,-0.11,2.0
1758086554.27459,1758086554.2144,0.0,0.0,0.0,-28.70519,-26.41335,-1.3178,10.05,0.07,-0.23,2.0
1758086554.29055,1758086554.2244,0.0,0.0,0.0,-29.56462,-34.60666,-2.86479,10.05,0.07,-0.23,2.0
1758086554.29176,1758086554.2344,0.0,0.0,0.0,-29.9084,-40.62271,-4.58366,10.23,-0.03,-0.5,2.0
1758086554.30653,1758086554.2444,0.0,0.0,0.0,-29.50733,-42.57077,-4.92744,10.23,-0.03,-0.5,2.0
1758086554.30742,1758086554.2544,0.0,0.0,0.0,-29.50733,-40.04975,-3.38045,11.05,-0.31,-0.93,2.0
1758086554.32253,1758086554.2644,0.0,0.0,0.0,-29.73651,-33.63263,-2.34913,12.0,-0.71,-0.46,2.0
1758086554.33852,1758086554.2744,0.0,0.0,0.0,-29.73651,-27.50197,-0.85944,12.0,-0.71,-0.46,2.0
1758086554.33944,1758086554.2844,0.0,0.0,0.0,-29.9084,-18.90761,1.43239,12.8,-1.16,0.0,2.0
1758086554.35425,1758086554.2944,0.0,0.0,0.0,-29.56462,-4.23989,2.34913,12.8,-1.16,0.0,2.0
1758086554.37022,1758086554.3044,0.0,0.0,0.0,-28.41871,0.22918,4.23989,12.9,-1.24,0.45,2.0
1758086554.37143,1758086554.3144,0.0,0.0,0.0,-28.13223,-1.43239,5.21392,12.9,-1.24,0.45,2.0
1758086554.38624,1758086554.3244,0.0,0.0,0.0,-26.69983,-17.01685,5.61499,11.49,-0.97,0.66,2.0
1758086554.38739,1758086554.3344,0.0,0.0,0.0,-26.64254,-29.50733,3.66693,11.56,-0.73,0.43,2.0
1758086554.40246,1758086554.3444,0.0,0.0,0.0,-25.26744,-33.74722,1.48969,11.56,-0.73,0.43,2.0
1758086554.41824,1758086554.3544,0.0,0.0,0.0,-22.91831,-32.83048,-0.74485,13.58,-0.3,0.73,2.0
1758086554.42053,1758086554.3644,0.0,0.0,0.0,-18.90761,-31.2262,-3.03668,13.58,-0.3,0.73,2.0
1758086554.43631,1758086554.3744,0.0,0.0,0.0,-16.272,-31.28349,-3.55234,12.66,0.0,2.2,2.0
1758086554.43722,1758086554.3844,0.0,0.0,0.0,-13.98017,-32.48671,-3.55234,12.66,0.0,2.2,2.0
1758086554.4525,1758086554.3944,0.0,0.0,0.0,-12.54778,-34.60666,-2.92208,10.24,-0.12,2.52,2.0
1758086554.46847,1758086554.4044,0.0,0.0,0.0,-12.71966,-38.56006,-1.71887,8.23,-0.26,2.15,2.0
1758086554.47021,1758086554.4144,0.0,0.0,0.0,-14.49583,-40.85189,-0.68755,8.23,-0.26,2.15,2.0
1758086554.48528,1758086554.4244,0.0,0.0,0.0,-17.81899,-42.34158,0.34377,7.55,-0.11,2.47,2.0
1758086554.48734,1758086554.4344,0.0,0.0,0.0,-22.28806,-43.65939,1.66158,7.55,-0.11,2.47,2.0
1758086554.50446,1758086554.4444,0.0,0.0,0.0,-31.11161,-43.37291,3.03668,8.04,0.37,2.55,2.0
1758086554.50628,1758086554.4544,0.0,0.0,0.0,-37.52874,-41.36755,3.20856,8.04,0.37,2.55,2.0
1758086554.52256,1758086554.4644,0.0,0.0,0.0,-43.88857,-39.19032,2.97938,9.02,0.99,2.31,2.0
1758086554.53853,1758086554.4744,0.0,0.0,0.0,-51.79538,-36.55471,1.48969,9.02,0.99,2.31,2.0
1758086554.54064,1758086554.4844,0.0,0.0,0.0,-55.40502,-30.59595,0.34377,9.84,1.12,2.07,2.0
1758086554.55616,1758086554.4944,0.0,0.0,0.0,-57.29578,-23.83505,-1.08862,10.81,0.57,1.55,2.0
1758086554.55807,1758086554.5044,0.0,0.0,0.0,-57.92604,-15.64175,-2.40642,10.81,0.57,1.55,2.0
1758086554.5733,1758086554.5144,0.0,0.0,0.0,-56.952,-3.26586,-3.83882,10.97,-0.33,0.92,2.0
1758086554.58932,1758086554.5244,0.0,0.0,0.0,-55.34772,3.32316,-3.60963,10.97,-0.33,0.92,2.0
1758086554.5909,1758086554.5344,0.0,0.0,0.0,-53.51426,11.97482,-4.1253,10.37,-1.11,0.45,2.0
1758086554.60526,1758086554.5444,0.0,0.0,0.0,-51.45161,18.9649,-4.1253,10.37,-1.11,0.45,2.0
1758086554.6073,1758086554.5544,0.0,0.0,0.0,-48.01387,27.96034,-3.60963,10.02,-1.47,0.3,2.0
1758086554.62325,1758086554.5644,0.0,0.0,0.0,-45.55015,33.17426,-3.32316,9.92,-1.61,0.11,2.0
1758086554.63955,1758086554.5744,0.0,0.0,0.0,-43.54479,38.78925,-2.63561,9.92,-1.61,0.11,2.0
1758086554.64077,1758086554.5844,0.0,0.0,0.0,-41.31026,43.83128,-2.40642,9.92,-1.59,-0.07,2.0
1758086554.65717,1758086554.5944,0.0,0.0,0.0,-38.38818,46.00851,-1.83346,9.92,-1.59,-0.07,2.0
1758086554.65843,1758086554.6044,0.0,0.0,0.0,-36.55471,45.49285,-1.60428,9.42,-1.45,-0.03,2.0
1758086554.67347,1758086554.6144,0.0,0.0,0.0,-34.72124,44.46153,-1.66158,9.42,-1.45,-0.03,2.0
1758086554.6912,1758086554.6244,0.0,0.0,0.0,-33.00237,43.14373,-1.66158,9.43,-1.28,0.06,2.0
1758086554.69236,1758086554.6344,0.0,0.0,0.0,-30.25217,40.68,-1.71887,9.5,-1.1,0.27,2.0
1758086554.70923,1758086554.6444,0.0,0.0,0.0,-28.07493,38.1017,-1.3751,9.5,-1.1,0.27,2.0
1758086554.73223,1758086554.6544,0.0,0.0,0.0,-25.49662,36.03905,-0.97403,9.32,-1.08,0.33,2.0
1758086554.73285,1758086554.6644,0.0,0.0,0.0,-22.23076,32.6013,-0.68755,9.32,-1.08,0.33,2.0
1758086554.7357,1758086554.6744,0.0,0.0,0.0,-19.99623,29.39274,-0.51566,9.08,-1.19,0.05,2.0
1758086554.73711,1758086554.6844,0.0,0.0,0.0,-17.93358,29.04896,-0.68755,9.08,-1.19,0.05,2.0
1758086554.75332,1758086554.6944,0.0,0.0,0.0,-15.75634,28.93437,-0.68755,9.12,-1.39,-0.11,2.0
1758086554.77058,1758086554.7044,0.0,0.0,0.0,-12.49048,29.22085,-1.14592,9.12,-1.39,-0.11,2.0
1758086554.77267,1758086554.7144,0.0,0.0,0.0,-10.48513,30.48136,-1.94806,8.98,-1.63,-0.05,2.0
1758086554.78766,1758086554.7244,0.0,0.0,0.0,-8.42248,30.99702,-2.63561,8.98,-1.77,0.01,2.0
1758086554.78936,1758086554.7344,0.0,0.0,0.0,-6.41713,30.30947,-2.86479,8.98,-1.77,0.01,2.0
1758086554.80467,1758086554.7444,0.0,0.0,0.0,-3.55234,33.40344,-3.32316,9.0,-1.76,-0.2,2.0
1758086554.8205,1758086554.7544,0.0,0.0,0.0,-2.29183,36.95578,-3.60963,9.0,-1.76,-0.2,2.0
1758086554.8216,1758086554.7644,0.0,0.0,0.0,-1.3178,38.27358,-3.95341,9.05,-1.7,-0.04,2.0
1758086554.83656,1758086554.7744,0.0,0.0,0.0,-0.34377,36.7266,-3.83882,9.05,-1.7,-0.04,2.0
1758086554.83762,1758086554.7844,0.0,0.0,0.0,1.08862,32.71589,-3.20856,8.5,-1.57,0.2,2.0
1758086554.85238,1758086554.7944,0.0,0.0,0.0,2.40642,30.76784,-2.63561,8.91,-1.45,-0.23,2.0
1758086554.86838,1758086554.8044,0.0,0.0,0.0,3.89611,26.75713,-2.06265,8.91,-1.45,-0.23,2.0
1758086554.86974,1758086554.8144,0.0,0.0,0.0,6.41713,19.53786,-1.08862,9.08,-1.44,-0.36,2.0
1758086554.8855,1758086554.8244,0.0,0.0,0.0,10.8862,8.42248,0.45837,9.08,-1.44,-0.36,2.0
1758086554.88796,1758086554.8344,0.0,0.0,0.0,14.49583,1.20321,1.48969,9.42,-1.5,-0.12,2.0
1758086554.90763,1758086554.8444,0.0,0.0,0.0,18.16276,-5.72958,2.63561,9.42,-1.5,-0.12,2.0
1758086554.90935,1758086554.8544,0.0,0.0,0.0,21.42862,-11.17268,4.52637,9.62,-1.6,-0.21,2.0
1758086554.9247,1758086554.8644,0.0,0.0,0.0,24.4653,-19.07949,5.21392,9.63,-1.76,-0.19,2.0
1758086554.94037,1758086554.8744,0.0,0.0,0.0,25.8404,-25.26744,5.61499,9.63,-1.76,-0.19,2.0
1758086554.94163,1758086554.8844,0.0,0.0,0.0,26.52795,-30.02299,4.92744,9.6,-1.74,-0.81,2.0
1758086554.95642,1758086554.8944,0.0,0.0,0.0,28.13223,-27.1582,4.69825,9.6,-1.74,-0.81,2.0
1758086554.95763,1758086554.9044,0.0,0.0,0.0,29.8511,-24.17882,5.21392,10.46,-1.56,-0.8,2.0
1758086554.97276,1758086554.9144,0.0,0.0,0.0,31.51268,-23.37668,5.4431,10.46,-1.56,-0.8,2.0
1758086554.99005,1758086554.9244,0.0,0.0,0.0,32.6013,-24.17882,5.61499,10.65,-1.28,-0.05,2.0
1758086554.992,1758086554.9344,0.0,0.0,0.0,32.54401,-23.94964,4.92744,11.61,-1.28,0.55,2.0
1758086555.0076,1758086554.9444,0.0,0.0,0.0,31.56997,-26.98631,5.84417,11.61,-0.83,0.55,2.0
1758086555.01018,1758086554.9544,0.0,0.0,0.0,29.56462,-29.50733,7.73493,12.9,-0.21,1.58,2.0
1758086555.02571,1758086554.9644,0.0,0.0,0.0,26.69983,-32.37212,10.94349,12.9,-0.21,1.58,2.0
1758086555.0274,1758086554.9744,0.0,0.0,0.0,20.79837,-34.89313,17.30333,14.26,0.2,2.59,2.0
1758086555.04369,1758086554.9844,0.0,0.0,0.0,15.12609,-34.43476,20.62648,14.26,0.2,2.59,2.0
1758086555.04812,1758086554.9944,0.0,0.0,0.0,9.4538,-32.77319,21.7724,13.91,0.14,2.94,2.0
1758086555.0634,1758086555.0044,0.0,0.0,0.0,5.78687,-32.08564,21.88699,13.91,0.14,2.94,2.0
1758086555.08054,1758086555.0144,0.0,0.0,0.0,4.46907,-37.12767,20.79837,11.23,-0.13,2.76,2.0
1758086555.08224,1758086555.0244,0.0,0.0,0.0,5.61499,-45.37826,16.61578,8.39,-0.49,2.38,2.0
1758086555.09771,1758086555.0344,0.0,0.0,0.0,10.59972,-58.90006,16.272,8.39,-0.49,2.38,2.0
1758086555.09894,1758086555.0444,0.0,0.0,0.0,17.01685,-65.54638,14.78231,7.36,-0.86,2.2,2.0
1758086555.11423,1758086555.0544,0.0,0.0,0.0,28.64789,-55.92068,13.98017,7.36,-0.86,2.2,2.0
1758086555.1307,1758086555.0644,0.0,0.0,0.0,37.24226,-45.20637,12.49048,9.42,-1.58,2.19,2.0
1758086555.13165,1758086555.0744,0.0,0.0,0.0,45.55015,-37.29956,10.37054,9.42,-1.58,2.19,2.0
1758086555.14667,1758086555.0844,0.0,0.0,0.0,54.14451,-29.39274,6.13065,9.41,-2.1,2.43,2.0
1758086555.14764,1758086555.0944,0.0,0.0,0.0,57.41038,-24.29341,3.38045,9.97,-1.99,1.8,2.0
1758086555.1627,1758086555.1044,0.0,0.0,0.0,59.01466,-17.76169,1.71887,9.97,-1.99,1.8,2.0
1758086555.17849,1758086555.1144,0.0,0.0,0.0,59.12925,-9.33921,1.3178,11.08,-1.04,0.85,2.0
1758086555.1801,1758086555.1244,0.0,0.0,0.0,57.75415,3.26586,2.7502,11.08,-1.04,0.85,2.0
1758086555.19446,1758086555.1344,0.0,0.0,0.0,55.86338,11.86023,3.60963,11.56,0.18,1.01,2.0
1758086555.21045,1758086555.1444,0.0,0.0,0.0,53.80074,19.76705,4.58366,11.56,0.18,1.01,2.0
1758086555.21167,1758086555.1544,0.0,0.0,0.0,50.87865,28.70519,3.95341,11.07,0.93,0.96,2.0
1758086555.22649,1758086555.1644,0.0,0.0,0.0,46.75336,40.16434,1.66158,10.25,1.21,0.85,2.0
1758086555.22767,1758086555.1744,0.0,0.0,0.0,44.51882,44.28964,-0.17189,10.25,1.21,0.85,2.0
1758086555.24273,1758086555.1844,0.0,0.0,0.0,42.85724,45.83662,-2.34913,9.59,1.11,0.52,2.0
1758086555.25876,1758086555.1944,0.0,0.0,0.0,41.59674,46.1804,-4.29718,9.59,1.11,0.52,2.0
1758086555.25995,1758086555.2044,0.0,0.0,0.0,40.45082,45.20637,-6.53172,9.52,0.69,0.24,2.0
1758086555.27474,1758086555.2144,0.0,0.0,0.0,39.87786,43.83128,-7.33386,9.52,0.69,0.24,2.0
1758086555.29081,1758086555.2244,0.0,0.0,0.0,39.19032,41.02378,-7.79223,9.43,0.28,0.16,2.0
1758086555.29195,1758086555.2344,0.0,0.0,0.0,38.38818,39.07573,-7.73493,9.43,0.28,0.16,2.0
1758086555.30675,1758086555.2444,0.0,0.0,0.0,36.15364,36.6693,-7.39116,9.44,0.04,0.39,2.0
1758086555.30771,1758086555.2544,0.0,0.0,0.0,34.0337,35.2369,-7.04738,9.35,0.02,0.53,2.0
1758086555.32277,1758086555.2644,0.0,0.0,0.0,31.51268,31.97105,-6.35983,9.35,0.02,0.53,2.0
1758086555.3385,1758086555.2744,0.0,0.0,0.0,28.64789,26.35606,-4.69825,8.86,0.14,0.39,2.0
1758086555.33997,1758086555.2844,0.0,0.0,0.0,26.87172,23.83505,-3.66693,8.86,0.14,0.39,2.0
1758086555.35719,1758086555.2944,0.0,0.0,0.0,25.21014,21.08485,-2.7502,8.96,0.27,0.4,2.0
1758086555.35817,1758086555.3044,0.0,0.0,0.0,23.72045,18.90761,-2.23454,8.96,0.27,0.4,2.0
1758086555.37617,1758086555.3144,0.0,0.0,0.0,22.00158,15.35527,-2.00535,8.9,0.43,0.33,2.0
1758086555.39178,1758086555.3244,0.0,0.0,0.0,21.02755,13.23533,-1.77617,8.89,0.57,0.39,2.0
1758086555.39298,1758086555.3344,0.0,0.0,0.0,20.16812,13.06344,-1.48969,8.89,0.57,0.39,2.0
1758086555.40774,1758086555.3444,0.0,0.0,0.0,19.36597,15.46986,-1.3751,9.24,0.64,0.45,2.0
1758086555.40902,1758086555.3544,0.0,0.0,0.0,18.44924,22.00158,0.17189,9.24,0.64,0.45,2.0
1758086555.42378,1758086555.3644,0.0,0.0,0.0,17.81899,25.55392,1.03132,9.24,0.55,0.5,2.0
1758086555.44061,1758086555.3744,0.0,0.0,0.0,17.24603,27.33009,2.34913,9.24,0.55,0.5,2.0
1758086555.44158,1758086555.3844,0.0,0.0,0.0,16.73037,28.70519,3.26586,8.92,0.39,0.56,2.0
1758086555.45661,1758086555.3944,0.0,0.0,0.0,15.75634,28.87707,4.46907,8.93,0.25,0.28,2.0
1758086555.4578,1758086555.4044,0.0,0.0,0.0,15.06879,26.69983,5.32851,8.93,0.25,0.28,2.0
1758086555.47286,1758086555.4144,0.0,0.0,0.0,13.75099,23.0329,5.61499,8.89,0.18,0.21,2.0
1758086555.49194,1758086555.4244,0.0,0.0,0.0,12.204,18.33465,6.24524,8.89,0.18,0.21,2.0
1758086555.49324,1758086555.4344,0.0,0.0,0.0,8.59437,10.59972,6.99009,9.16,0.17,0.15,2.0
1758086555.50881,1758086555.4444,0.0,0.0,0.0,5.78687,6.13065,7.16197,9.16,0.17,0.15,2.0
1758086555.50979,1758086555.4544,0.0,0.0,0.0,2.92208,1.94806,7.62034,9.74,0.21,0.02,2.0
1758086555.5248,1758086555.4644,0.0,0.0,0.0,-1.03132,-3.95341,7.44845,9.74,0.21,0.02,2.0
1758086555.54169,1758086555.4744,0.0,0.0,0.0,-3.26586,-7.50575,7.33386,10.04,0.26,0.17,2.0
1758086555.54257,1758086555.4844,0.0,0.0,0.0,-5.32851,-10.54242,6.7609,10.23,0.27,0.24,2.0
1758086555.55784,1758086555.4944,0.0,0.0,0.0,-6.99009,-14.09476,6.07335,10.23,0.27,0.24,2.0
1758086555.5588,1758086555.5044,0.0,0.0,0.0,-8.99544,-19.76705,5.09932,10.4,0.21,0.11,2.0
1758086555.57365,1758086555.51439,0.0,0.0,0.0,-9.96947,-22.91831,4.81285,10.4,0.21,0.11,2.0
1758086555.59076,1758086555.52439,0.0,0.0,0.0,-10.94349,-24.57989,4.92744,10.87,0.02,-0.53,2.0
1758086555.59205,1758086555.53439,0.0,0.0,0.0,-11.51645,-25.43933,5.15662,10.87,0.02,-0.53,2.0
1758086555.60658,1758086555.54439,0.0,0.0,0.0,-11.80293,-26.01229,5.78687,11.52,-0.23,-0.45,2.0
1758086555.60783,1758086555.55439,0.0,0.0,0.0,-11.28727,-27.10091,5.95876,12.03,-0.53,0.34,2.0
1758086555.62285,1758086555.56439,0.0,0.0,0.0,-10.37054,-28.70519,5.72958,12.03,-0.53,0.34,2.0
1758086555.6389,1758086555.57439,0.0,0.0,0.0,-8.93814,-31.97105,5.32851,12.16,-0.75,1.2,2.0
1758086555.64147,1758086555.58439,0.0,0.0,0.0,-6.13065,-40.50812,3.95341,12.16,-0.75,1.2,2.0
1758086555.65675,1758086555.59439,0.0,0.0,0.0,-4.46907,-46.81066,2.6929,12.35,-0.9,1.47,2.0
1758086555.65781,1758086555.60439,0.0,0.0,0.0,-2.23454,-53.62885,1.60428,12.35,-0.9,1.47,2.0
1758086555.67259,1758086555.61439,0.0,0.0,0.0,-0.17189,-57.81144,0.40107,12.69,-0.93,1.37,2.0
1758086555.68971,1758086555.62439,0.0,0.0,0.0,3.09397,-60.38975,0.57296,12.48,-0.63,1.4,2.0
1758086555.69088,1758086555.63439,0.0,0.0,0.0,5.21392,-59.35843,1.3751,12.48,-0.63,1.4,2.0
1758086555.70579,1758086555.64439,0.0,0.0,0.0,6.70361,-57.75415,2.57831,10.79,-0.39,1.65,2.0
1758086555.70713,1758086555.65439,0.0,0.0,0.0,7.50575,-54.14451,3.60963,10.79,-0.39,1.65,2.0
1758086555.72291,1758086555.66439,0.0,0.0,0.0,7.04738,-47.32632,4.0107,9.02,-0.25,2.03,2.0
1758086555.73891,1758086555.67439,0.0,0.0,0.0,5.72958,-42.85724,4.29718,9.02,-0.25,2.03,2.0
1758086555.74026,1758086555.68439,0.0,0.0,0.0,3.03668,-40.39353,4.64096,7.94,-0.01,2.58,2.0
1758086555.75543,1758086555.69439,0.0,0.0,0.0,-2.23454,-55.57691,3.72423,7.94,-0.01,2.58,2.0
1758086555.75747,1758086555.70439,0.0,0.0,0.0,-6.70361,-64.74423,3.83882,6.89,0.36,2.6,2.0
1758086555.77294,1758086555.71439,0.0,0.0,0.0,-12.49048,-60.33246,1.83346,8.82,1.0,1.54,2.0
1758086555.78977,1758086555.72439,0.0,0.0,0.0,-18.56383,-48.58683,-0.51566,8.82,1.0,1.54,2.0
1758086555.79221,1758086555.73439,0.0,0.0,0.0,-26.18417,-40.45082,-2.86479,10.42,1.04,1.97,2.0
1758086555.80761,1758086555.74439,0.0,0.0,0.0,-28.36141,-38.56006,-4.0107,10.42,1.04,1.97,2.0
1758086555.80916,1758086555.75439,0.0,0.0,0.0,-28.36141,-34.14828,-4.58366,10.14,0.32,2.76,2.0
1758086555.82371,1758086555.76439,0.0,0.0,0.0,-26.64254,-26.12688,-5.09932,10.14,0.32,2.76,2.0
1758086555.83991,1758086555.77439,0.0,0.0,0.0,-22.00158,-13.75099,-4.81285,11.07,-0.73,1.47,2.0
1758086555.84113,1758086555.78439,0.0,0.0,0.0,-18.33465,-5.84417,-4.46907,10.69,-1.69,0.74,2.0
1758086555.85654,1758086555.79439,0.0,0.0,0.0,-14.49583,2.97938,-3.95341,10.69,-1.69,0.74,2.0
1758086555.85767,1758086555.80439,0.0,0.0,0.0,-10.59972,11.45916,-3.09397,10.42,-2.17,0.58,2.0
1758086555.87297,1758086555.81439,0.0,0.0,0.0,-5.61499,20.11082,-1.48969,10.42,-2.17,0.58,2.0
1758086555.89129,1758086555.82439,0.0,0.0,0.0,-2.34913,26.81443,-0.45837,10.05,-2.19,0.21,2.0
1758086555.89251,1758086555.83439,0.0,0.0,0.0,-0.11459,33.68992,0.17189,10.05,-2.19,0.21,2.0
1758086555.90795,1758086555.84439,0.0,0.0,0.0,2.63561,38.73195,1.43239,10.23,-1.81,0.06,2.0
1758086555.90914,1758086555.85439,0.0,0.0,0.0,3.72423,40.96649,1.66158,9.69,-1.39,0.01,2.0
1758086555.92393,1758086555.86439,0.0,0.0,0.0,4.52637,39.87786,1.71887,9.69,-1.39,0.01,2.0
1758086555.93998,1758086555.87439,0.0,0.0,0.0,5.09932,39.24761,1.48969,9.62,-1.05,-0.12,2.0
1758086555.94113,1758086555.88439,0.0,0.0,0.0,5.72958,38.21629,1.14592,9.62,-1.05,-0.12,2.0
1758086555.95678,1758086555.89439,0.0,0.0,0.0,6.58902,37.92981,1.03132,9.72,-0.85,-0.27,2.0
1758086555.95766,1758086555.90439,0.0,0.0,0.0,8.0787,37.87251,0.97403,9.72,-0.85,-0.27,2.0
1758086555.97296,1758086555.91439,0.0,0.0,0.0,9.68299,35.58068,1.60428,9.57,-0.81,-0.16,2.0
1758086555.9898,1758086555.92439,0.0,0.0,0.0,12.37589,32.20023,2.46372,9.27,-0.81,-0.23,2.0
1758086555.99084,1758086555.93439,0.0,0.0,0.0,13.75099,31.2262,2.97938,9.27,-0.94,-0.23,2.0
1758086556.00676,1758086555.94439,0.0,0.0,0.0,15.0115,30.13758,3.03668,9.24,-1.11,-0.47,2.0
1758086556.00794,1758086555.95439,0.0,0.0,0.0,16.21471,28.93437,3.03668,9.24,-1.11,-0.47,2.0
1758086556.02271,1758086555.96439,0.0,0.0,0.0,17.24603,26.81443,2.40642,8.99,-1.23,-0.43,2.0
1758086556.03891,1758086555.97439,0.0,0.0,0.0,17.81899,26.24147,1.71887,8.99,-1.23,-0.43,2.0
1758086556.04016,1758086555.98439,0.0,0.0,0.0,18.56383,25.72581,1.14592,9.02,-1.3,-0.39,2.0
1758086556.05499,1758086555.99439,0.0,0.0,0.0,19.48057,24.80907,0.74485,9.02,-1.3,-0.39,2.0
1758086556.0707,1758086556.00439,0.0,0.0,0.0,20.62648,23.26209,0.74485,8.99,-1.32,-0.33,2.0
1758086556.07187,1758086556.01439,0.0,0.0,0.0,21.08485,25.09555,0.74485,9.22,-1.31,-0.42,2.0
1758086556.08672,1758086556.02439,0.0,0.0,0.0,21.25674,27.84575,0.68755,9.22,-1.31,-0.42,2.0
1758086556.08805,1758086556.03439,0.0,0.0,0.0,21.14215,28.87707,0.74485,9.18,-1.29,-0.19,2.0
1758086556.10275,1758086556.04439,0.0,0.0,0.0,21.14215,27.50197,1.08862,9.18,-1.29,-0.19,2.0
1758086556.11899,1758086556.05439,0.0,0.0,0.0,21.14215,26.52795,1.08862,8.91,-1.31,-0.11,2.0
1758086556.12319,1758086556.06439,0.0,0.0,0.0,21.6578,25.26744,1.48969,8.91,-1.31,-0.11,2.0
1758086556.13898,1758086556.07439,0.0,0.0,0.0,22.74642,20.05352,1.77617,9.12,-1.39,-0.34,2.0
1758086556.13994,1758086556.08439,0.0,0.0,0.0,24.23611,12.60507,2.34913,9.06,-1.42,-0.29,2.0
1758086556.15701,1758086556.09439,0.0,0.0,0.0,26.64254,4.92744,3.32316,9.06,-1.42,-0.29,2.0
1758086556.15794,1758086556.10439,0.0,0.0,0.0,29.8511,-2.00535,4.64096,9.36,-1.47,-0.49,2.0
1758086556.173,1758086556.11439,0.0,0.0,0.0,35.86716,-9.68299,6.35983,9.36,-1.47,-0.49,2.0
1758086556.18903,1758086556.12439,0.0,0.0,0.0,40.39353,-12.60507,7.04738,9.5,-1.73,-0.86,2.0
1758086556.19034,1758086556.13439,0.0,0.0,0.0,44.748,-14.83961,7.50575,9.5,-1.73,-0.86,2.0
1758086556.20471,1758086556.14439,0.0,0.0,0.0,48.9879,-17.93358,7.33386,9.29,-2.03,-0.84,2.0
1758086556.22179,1758086556.15439,0.0,0.0,0.0,54.60288,-24.98096,6.47442,8.84,-2.16,-1.14,2.0
1758086556.22307,1758086556.16439,0.0,0.0,0.0,58.26981,-27.50197,5.27121,8.84,-2.16,-1.14,2.0
1758086556.23798,1758086556.17439,0.0,0.0,0.0,61.93674,-27.04361,4.69825,9.37,-2.09,-1.4,2.0
1758086556.239,1758086556.18439,0.0,0.0,0.0,66.00475,-24.00693,4.81285,9.37,-2.09,-1.4,2.0
1758086556.25398,1758086556.19439,0.0,0.0,0.0,71.39055,-22.40265,5.09932,10.44,-1.81,-0.44,2.0
1758086556.26993,1758086556.20439,0.0,0.0,0.0,73.10942,-26.12688,6.70361,10.44,-1.81,-0.44,2.0
1758086556.27097,1758086556.21439,0.0,0.0,0.0,73.16672,-30.36677,9.28192,11.51,-1.31,0.86,2.0
1758086556.28657,1758086556.22439,0.0,0.0,0.0,71.79161,-35.12231,16.38659,11.51,-1.31,0.86,2.0
1758086556.28806,1758086556.23439,0.0,0.0,0.0,67.26525,-41.71133,22.51724,13.45,-0.83,2.21,2.0
1758086556.30311,1758086556.24439,0.0,0.0,0.0,62.79618,-43.37291,27.96034,14.88,-0.27,2.51,2.0
1758086556.31932,1758086556.25439,0.0,0.0,0.0,57.41038,-41.48215,31.79916,14.88,-0.27,2.51,2.0
1758086556.32189,1758086556.26439,0.0,0.0,0.0,50.87865,-38.44547,33.46074,14.32,0.25,2.58,2.0
1758086556.3371,1758086556.27439,0.0,0.0,0.0,48.12846,-35.98175,31.97105,14.32,0.25,2.58,2.0
1758086556.33836,1758086556.28439,0.0,0.0,0.0,47.44091,-35.00772,29.56462,11.35,0.22,2.74,2.0
1758086556.35292,1758086556.29439,0.0,0.0,0.0,49.61814,-35.63798,28.13223,11.35,0.22,2.74,2.0
1758086556.36987,1758086556.30439,0.0,0.0,0.0,54.14451,-46.2377,22.86102,8.96,-0.11,2.67,2.0
1758086556.37193,1758086556.31439,0.0,0.0,0.0,60.90542,-54.25911,20.45459,7.33,-0.78,2.08,2.0
1758086556.38838,1758086556.32439,0.0,0.0,0.0,68.69764,-50.47758,18.33465,7.33,-0.78,2.08,2.0
1758086556.39312,1758086556.33439,0.0,0.0,0.0,77.57849,-40.10705,17.01685,9.65,-1.78,1.3,2.0
1758086556.40812,1758086556.34439,0.0,0.0,0.0,89.20953,-32.08564,13.46451,9.65,-1.78,1.3,2.0
1758086556.41397,1758086556.35439,0.0,0.0,0.0,94.07968,-30.13758,10.08406,9.43,-2.13,1.61,2.0
1758086556.42964,1758086556.36439,0.0,0.0,0.0,95.91314,-25.7831,6.70361,9.43,-2.13,1.61,2.0
1758086556.4324,1758086556.37439,0.0,0.0,0.0,95.56937,-17.47521,4.18259,10.49,-1.59,1.73,2.0
1758086556.44816,1758086556.38439,0.0,0.0,0.0,91.84514,-2.06265,1.60428,11.63,-0.37,1.12,2.0
1758086556.45255,1758086556.39439,0.0,0.0,0.0,88.69387,7.39116,1.3751,11.63,-0.37,1.12,2.0
1758086556.4679,1758086556.40439,0.0,0.0,0.0,85.77179,16.73037,1.94806,11.41,0.77,1.03,2.0
1758086556.46998,1758086556.41439,0.0,0.0,0.0,82.96429,25.89769,2.6929,11.41,0.77,1.03,2.0
1758086556.48513,1758086556.42439,0.0,0.0,0.0,80.1568,36.61201,2.92208,10.62,1.18,0.49,2.0
1758086556.48715,1758086556.43439,0.0,0.0,0.0,79.46925,39.19032,2.63561,10.62,1.18,0.49,2.0
1758086556.50313,1758086556.44439,0.0,0.0,0.0,79.06818,40.62271,1.71887,9.54,1.01,0.22,2.0
1758086556.51911,1758086556.45439,0.0,0.0,0.0,79.69843,42.62806,0.51566,9.54,1.01,0.22,2.0
1758086556.52436,1758086556.46439,0.0,0.0,0.0,80.27139,44.40423,-0.74485,9.61,0.47,0.14,2.0
1758086556.53888,1758086556.47439,0.0,0.0,0.0,80.44328,44.00316,-1.77617,9.53,-0.03,0.21,2.0
1758086556.54086,1758086556.48439,0.0,0.0,0.0,80.1568,43.02913,-3.09397,9.53,-0.03,0.21,2.0
1758086556.55616,1758086556.49439,0.0,0.0,0.0,78.89629,40.10705,-4.52637,9.28,-0.25,0.39,2.0
1758086556.55735,1758086556.50439,0.0,0.0,0.0,77.4639,36.55471,-4.64096,9.28,-0.25,0.39,2.0
1758086556.57289,1758086556.51439,0.0,0.0,0.0,75.57314,33.63263,-4.58366,9.17,-0.18,0.3,2.0
1758086556.58914,1758086556.52439,0.0,0.0,0.0,73.16672,30.13758,-4.35448,9.17,-0.18,0.3,2.0
1758086556.59036,1758086556.53439,0.0,0.0,0.0,69.78626,22.00158,-3.55234,9.13,0.0,0.2,2.0
1758086556.60491,1758086556.54439,0.0,0.0,0.0,67.78091,16.50119,-2.46372,8.8,0.16,0.08,2.0
1758086556.60688,1758086556.55439,0.0,0.0,0.0,66.11933,11.97482,-1.3178,8.8,0.16,0.08,2.0
1758086556.62328,1758086556.56439,0.0,0.0,0.0,64.57235,9.68299,-0.40107,8.99,0.23,0.02,2.0
1758086556.63915,1758086556.57439,0.0,0.0,0.0,62.68159,7.67763,0.17189,8.99,0.23,0.02,2.0
1758086556.6409,1758086556.58439,0.0,0.0,0.0,61.65026,7.39116,0.0,9.17,0.31,0.27,2.0
1758086556.6559,1758086556.59439,0.0,0.0,0.0,60.73353,7.44845,-0.22918,9.17,0.31,0.27,2.0
1758086556.6571,1758086556.60439,0.0,0.0,0.0,59.98868,7.84952,-0.85944,9.41,0.38,0.32,2.0
1758086556.67314,1758086556.61439,0.0,0.0,0.0,58.55629,8.36518,-1.66158,9.44,0.39,0.23,2.0
1758086556.67718,1758086556.62439,0.0,0.0,0.0,57.75415,8.42248,-1.77617,9.44,0.39,0.23,2.0
1758086556.69326,1758086556.63439,0.0,0.0,0.0,56.55093,8.59437,-1.3178,9.53,0.28,0.18,2.0
1758086556.69726,1758086556.64439,0.0,0.0,0.0,54.3737,9.11003,-0.97403,9.53,0.28,0.18,2.0
1758086556.71319,1758086556.65439,0.0,0.0,0.0,52.884,9.05273,-0.22918,9.73,0.17,0.3,2.0
1758086556.72992,1758086556.66439,0.0,0.0,0.0,50.99325,8.136,0.22918,9.73,0.17,0.3,2.0
1758086556.73119,1758086556.67439,0.0,0.0,0.0,49.27437,8.42248,0.97403,9.81,0.21,0.23,2.0
1758086556.74695,1758086556.68439,0.0,0.0,0.0,46.52417,8.70896,1.48969,9.81,0.21,0.23,2.0
1758086556.74845,1758086556.69439,0.0,0.0,0.0,44.57612,10.65701,2.29183,10.05,0.39,0.29,2.0
1758086556.76295,1758086556.70439,0.0,0.0,0.0,42.22699,15.35527,3.03668,10.52,0.67,0.22,2.0
1758086556.77919,1758086556.71439,0.0,0.0,0.0,40.04975,20.74107,3.72423,10.52,0.67,0.22,2.0
1758086556.78056,1758086556.72439,0.0,0.0,0.0,36.61201,23.83505,3.95341,10.52,0.95,0.61,2.0
1758086556.7954,1758086556.73439,0.0,0.0,0.0,34.32018,23.37668,4.0107,10.52,0.95,0.61,2.0
1758086556.81097,1758086556.74439,0.0,0.0,0.0,32.08564,21.37133,3.95341,10.2,1.06,0.57,2.0
1758086556.81152,1758086556.75439,0.0,0.0,0.0,29.73651,18.27736,3.55234,10.2,1.06,0.57,2.0
1758086556.82699,1758086556.76439,0.0,0.0,0.0,26.06958,13.80828,2.29183,10.17,1.05,0.33,2.0
1758086556.82815,1758086556.77439,0.0,0.0,0.0,23.72045,9.91217,0.57296,10.24,0.99,0.25,2.0
1758086556.84325,1758086556.78439,0.0,0.0,0.0,21.7151,3.20856,-0.57296,10.24,0.99,0.25,2.0
1758086556.86021,1758086556.79439,0.0,0.0,0.0,19.76705,-4.1253,-2.23454,10.21,0.94,0.08,2.0
1758086556.86063,1758086556.80439,0.0,0.0,0.0,18.22006,-15.24068,-3.49504,10.21,0.94,0.08,2.0
1758086556.87597,1758086556.81439,0.0,0.0,0.0,17.87628,-22.28806,-3.60963,10.39,0.79,-0.42,2.0
1758086556.87717,1758086556.82439,0.0,0.0,0.0,17.30333,-28.36141,-4.29718,10.39,0.79,-0.42,2.0
1758086556.89219,1758086556.83439,0.0,0.0,0.0,16.61578,-33.11696,-4.81285,10.4,0.5,-0.45,2.0
1758086556.90806,1758086556.84439,0.0,0.0,0.0,16.3293,-35.00772,-5.27121,11.12,0.19,0.4,2.0
1758086556.90914,1758086556.85439,0.0,0.0,0.0,16.84496,-35.12231,-5.95876,11.12,0.19,0.4,2.0
1758086556.9241,1758086556.86439,0.0,0.0,0.0,18.44924,-30.88243,-5.84417,12.58,0.0,1.57,2.0
1758086556.92737,1758086556.87439,0.0,0.0,0.0,20.34,-23.72045,-6.7609,12.58,0.0,1.57,2.0
1758086556.9433,1758086556.88439,0.0,0.0,0.0,19.42327,-35.40879,-9.74028,13.04,-0.25,2.64,2.0
1758086556.96025,1758086556.89439,0.0,0.0,0.0,19.25138,-44.28964,-11.57375,13.04,-0.25,2.64,2.0
1758086556.96065,1758086556.90439,0.0,0.0,0.0,19.99623,-42.51347,-13.06344,12.02,-0.35,1.63,2.0
1758086556.97621,1758086556.91439,0.0,0.0,0.0,23.26209,-32.83048,-11.34457,11.44,-0.49,0.65,2.0
1758086556.97743,1758086556.92439,0.0,0.0,0.0,26.12688,-28.59059,-8.47978,11.44,-0.49,0.65,2.0
1758086556.992,1758086556.93439,0.0,0.0,0.0,29.33544,-24.98096,-5.32851,9.17,-0.67,1.34,2.0
1758086557.00819,1758086556.94439,0.0,0.0,0.0,32.14294,-22.97561,-2.63561,9.17,-0.67,1.34,2.0
1758086557.0095,1758086556.95439,0.0,0.0,0.0,34.66395,-23.37668,-0.22918,8.35,-0.66,2.15,2.0
1758086557.02426,1758086556.96439,0.0,0.0,0.0,34.72124,-25.61122,0.0573,8.35,-0.66,2.15,2.0
1758086557.02543,1758086556.97439,0.0,0.0,0.0,33.46074,-27.61657,-0.45837,8.09,-0.41,2.37,2.0
1758086557.04054,1758086556.98439,0.0,0.0,0.0,30.82513,-29.10626,-1.20321,8.09,-0.41,2.37,2.0
1758086557.05631,1758086556.99439,0.0,0.0,0.0,25.26744,-27.96034,-3.49504,8.48,-0.1,2.68,2.0
1758086557.0572,1758086557.00439,0.0,0.0,0.0,20.85567,-25.09555,-5.09932,9.17,0.15,2.84,2.0
1758086557.072,1758086557.01439,0.0,0.0,0.0,16.10011,-22.74642,-6.47442,9.17,0.15,2.84,2.0
1758086557.0883,1758086557.02439,0.0,0.0,0.0,9.22462,-20.74107,-8.02141,9.41,0.32,2.8,2.0
1758086557.08938,1758086557.03439,0.0,0.0,0.0,5.61499,-16.67307,-8.30789,9.41,0.32,2.8,2.0
1758086557.10431,1758086557.04439,0.0,0.0,0.0,2.63561,-13.40721,-8.02141,9.69,0.29,2.46,2.0
1758086557.10521,1758086557.05439,0.0,0.0,0.0,0.74485,-9.5684,-7.04738,9.69,0.29,2.46,2.0
1758086557.12064,1758086557.06439,0.0,0.0,0.0,-1.08862,-0.97403,-5.4431,10.09,0.02,2.04,2.0
1758086557.13628,1758086557.07439,0.0,0.0,0.0,-1.94806,5.32851,-4.64096,10.45,-0.28,1.77,2.0
1758086557.1372,1758086557.08439,0.0,0.0,0.0,-2.63561,10.8289,-4.35448,10.45,-0.28,1.77,2.0
1758086557.1523,1758086557.09439,0.0,0.0,0.0,-3.09397,15.75634,-4.23989,10.45,-0.48,1.43,2.0
1758086557.16802,1758086557.10439,0.0,0.0,0.0,-4.18259,24.17882,-4.35448,10.45,-0.48,1.43,2.0
1758086557.16923,1758086557.11439,0.0,0.0,0.0,-5.09932,27.73116,-4.58366,10.44,-0.56,1.18,2.0
1758086557.18481,1758086557.12439,0.0,0.0,0.0,-5.90147,30.59595,-4.23989,10.44,-0.56,1.18,2.0
1758086557.18635,1758086557.13439,0.0,0.0,0.0,-6.7609,32.88778,-3.95341,10.09,-0.66,1.12,2.0
1758086557.20164,1758086557.14439,0.0,0.0,0.0,-8.30789,33.46074,-2.7502,9.76,-0.7,1.01,2.0
1758086557.21789,1758086557.15439,0.0,0.0,0.0,-9.33921,33.05967,-1.94806,9.76,-0.7,1.01,2.0
1758086557.22063,1758086557.16439,0.0,0.0,0.0,-10.31324,32.42941,-0.85944,9.68,-0.65,0.83,2.0
1758086557.23604,1758086557.17439,0.0,0.0,0.0,-11.11538,31.85646,0.22918,9.68,-0.65,0.83,2.0
1758086557.23841,1758086557.18439,0.0,0.0,0.0,-12.14671,29.73651,1.94806,9.63,-0.64,0.74,2.0
1758086557.25334,1758086557.19439,0.0,0.0,0.0,-12.2613,28.24682,2.86479,9.63,-0.64,0.74,2.0
1758086557.25624,1758086557.20439,0.0,0.0,0.0,-12.2613,26.52795,3.72423,9.62,-0.71,0.84,2.0
1758086557.27171,1758086557.21439,0.0,0.0,0.0,-12.08941,24.75178,4.64096,9.62,-0.71,0.84,2.0
1758086557.28712,1758086557.22439,0.0,0.0,0.0,-11.34457,21.6578,5.09932,9.52,-0.74,0.78,2.0
1758086557.28942,1758086557.23439,0.0,0.0,0.0,-10.8862,18.90761,5.27121,9.2,-0.77,0.82,2.0
1758086557.30441,1758086557.24439,0.0,0.0,0.0,-10.54242,16.61578,5.21392,9.2,-0.77,0.82,2.0
1758086557.30531,1758086557.25439,0.0,0.0,0.0,-9.96947,13.80828,4.92744,8.87,-0.89,0.64,2.0
1758086557.32067,1758086557.26439,0.0,0.0,0.0,-9.33921,11.91752,4.64096,8.87,-0.89,0.64,2.0
1758086557.33641,1758086557.27439,0.0,0.0,0.0,-9.05273,9.22462,4.0107,8.52,-1.06,0.57,2.0
1758086557.33732,1758086557.28439,0.0,0.0,0.0,-8.42248,5.32851,3.55234,8.52,-1.06,0.57,2.0
1758086557.35236,1758086557.29439,0.0,0.0,0.0,-6.99009,2.11994,2.63561,8.21,-1.28,0.47,2.0
1758086557.3682,1758086557.30439,0.0,0.0,0.0,-5.95876,2.7502,1.83346,8.56,-1.49,0.22,2.0
1758086557.37013,1758086557.31439,0.0,0.0,0.0,-5.15662,3.89611,1.3751,8.56,-1.49,0.22,2.0
1758086557.38543,1758086557.32439,0.0,0.0,0.0,-4.29718,4.92744,0.85944,8.54,-1.63,0.34,2.0
1758086557.3866,1758086557.33439,0.0,0.0,0.0,-2.86479,5.4431,0.57296,8.54,-1.63,0.34,2.0
1758086557.40179,1758086557.34439,0.0,0.0,0.0,-1.43239,6.07335,0.57296,8.49,-1.66,0.15,2.0
1758086557.41746,1758086557.35439,0.0,0.0,0.0,0.45837,5.72958,0.45837,8.49,-1.66,0.15,2.0
1758086557.41863,1758086557.36439,0.0,0.0,0.0,2.92208,3.83882,0.57296,8.5,-1.68,-0.1,2.0
1758086557.43343,1758086557.37439,0.0,0.0,0.0,7.67763,-0.57296,0.74485,8.63,-1.79,-0.1,2.0
1758086557.44947,1758086557.38439,0.0,0.0,0.0,11.80293,-3.60963,1.20321,8.63,-1.79,-0.1,2.0
1758086557.45077,1758086557.39439,0.0,0.0,0.0,15.87093,-7.16197,1.94806,9.05,-1.93,-0.08,2.0
1758086557.49236,1758086557.40439,0.0,0.0,0.0,20.05352,-12.37589,3.09397,9.05,-1.93,-0.08,2.0
1758086557.49483,1758086557.41439,0.0,0.0,0.0,25.15285,-21.14215,3.55234,9.02,-2.01,-0.32,2.0
1758086557.4955,1758086557.42439,0.0,0.0,0.0,28.13223,-28.01764,4.29718,9.02,-2.01,-0.32,2.0
1758086557.49674,1758086557.43439,0.0,0.0,0.0,29.73651,-36.89849,4.58366,8.89,-2.02,-0.53,2.0
1758086557.49736,1758086557.44439,0.0,0.0,0.0,30.19488,-48.9306,4.23989,8.89,-2.02,-0.53,2.0
1758086557.51397,1758086557.45439,0.0,0.0,0.0,29.67921,-49.90463,3.60963,8.66,-1.87,-1.01,2.0
1758086557.51892,1758086557.46439,0.0,0.0,0.0,29.73651,-48.52953,4.29718,9.49,-1.63,-1.26,2.0
1758086557.53327,1758086557.47439,0.0,0.0,0.0,28.59059,-48.01387,3.83882,9.49,-1.63,-1.26,2.0
1758086557.54965,1758086557.48439,0.0,0.0,0.0,25.89769,-52.02457,4.18259,9.29,-1.33,-0.43,2.0
1758086557.55072,1758086557.49439,0.0,0.0,0.0,23.26209,-55.29043,4.87014,9.29,-1.33,-0.43,2.0
1758086557.56683,1758086557.50439,0.0,0.0,0.0,19.76705,-56.20716,5.90147,10.17,-0.94,0.07,2.0
1758086557.568,1758086557.51439,0.0,0.0,0.0,15.64175,-54.77477,7.50575,10.17,-0.94,0.07,2.0
1758086557.58356,1758086557.52439,0.0,0.0,0.0,9.05273,-52.65482,10.48513,12.39,-0.33,0.87,2.0
1758086557.59951,1758086557.53439,0.0,0.0,0.0,4.98473,-53.74345,12.54778,13.49,0.39,1.98,2.0
1758086557.60067,1758086557.54439,0.0,0.0,0.0,1.66158,-55.51962,15.64175,13.49,0.39,1.98,2.0
1758086557.61548,1758086557.55439,0.0,0.0,0.0,-0.51566,-57.92604,19.36597,13.3,0.84,2.91,2.0
1758086557.61717,1758086557.56439,0.0,0.0,0.0,-2.63561,-52.76942,24.80907,13.3,0.84,2.91,2.0
1758086557.63253,1758086557.57439,0.0,0.0,0.0,-3.83882,-44.9199,26.69983,13.78,0.62,2.76,2.0
1758086557.64906,1758086557.58439,0.0,0.0,0.0,-5.09932,-35.3515,26.47065,13.78,0.62,2.76,2.0
1758086557.6506,1758086557.59439,0.0,0.0,0.0,-4.69825,-30.76784,23.66316,13.17,-0.05,3.5,2.0
1758086557.66554,1758086557.60439,0.0,0.0,0.0,-1.08862,-52.9986,20.51189,9.01,-1.03,3.45,2.0
1758086557.66671,1758086557.61439,0.0,0.0,0.0,5.72958,-78.03686,20.51189,9.01,-1.03,3.45,2.0
1758086557.68229,1758086557.62439,0.0,0.0,0.0,11.45916,-71.50513,17.30333,9.02,-1.89,1.65,2.0
1758086557.68798,1758086557.63439,0.0,0.0,0.0,20.97026,-47.32632,14.15206,9.02,-1.89,1.65,2.0
1758086557.70605,1758086557.64439,0.0,0.0,0.0,25.38203,-39.24761,12.71966,11.09,-2.24,1.07,2.0
1758086557.70752,1758086557.65439,0.0,0.0,0.0,26.24147,-32.48671,9.5684,11.09,-2.24,1.07,2.0
1758086557.72226,1758086557.66439,0.0,0.0,0.0,24.4653,-22.05888,6.70361,10.41,-1.31,2.06,2.0
1758086557.73846,1758086557.67439,0.0,0.0,0.0,18.50654,-0.74485,2.57831,10.41,-1.31,0.9,2.0
1758086557.74024,1758086557.68439,0.0,0.0,0.0,13.75099,12.89155,0.85944,11.74,0.02,0.9,2.0
1758086557.75525,1758086557.69439,0.0,0.0,0.0,8.42248,24.86637,0.0573,11.42,1.17,0.31,2.0
1758086557.75645,1758086557.70439,0.0,0.0,0.0,3.66693,33.9764,-0.17189,11.42,1.17,0.31,2.0
1758086557.77308,1758086557.71439,0.0,0.0,0.0,-1.71887,41.99781,-0.51566,10.3,1.86,0.38,2.0
1758086557.77793,1758086557.72439,0.0,0.0,0.0,-4.29718,46.86795,-1.08862,10.3,1.86,0.38,2.0
1758086557.79625,1758086557.73439,0.0,0.0,0.0,-6.07335,51.50891,-2.40642,9.87,1.04,0.31,2.0
1758086557.7974,1758086557.74439,0.0,0.0,0.0,-6.8182,53.91533,-2.92208,9.87,1.04,0.31,2.0
1758086557.81225,1758086557.75439,0.0,0.0,0.0,-8.25059,55.06125,-4.46907,9.67,0.27,0.15,2.0
1758086557.82925,1758086557.76439,0.0,0.0,0.0,-9.11003,56.66553,-5.78687,9.74,-0.19,0.09,2.0
1758086557.83058,1758086557.77439,0.0,0.0,0.0,-9.91217,57.23849,-7.16197,9.74,-0.19,0.09,2.0
1758086557.8455,1758086557.78439,0.0,0.0,0.0,-11.17268,58.3844,-8.25059,9.86,-0.27,0.0,2.0
1758086557.84725,1758086557.79439,0.0,0.0,0.0,-13.5791,58.4417,-9.33921,9.86,-0.27,0.0,2.0
1758086557.86225,1758086557.80439,0.0,0.0,0.0,-15.58445,56.952,-9.74028,9.81,-0.08,0.16,2.0
1758086557.87824,1758086557.81439,0.0,0.0,0.0,-17.76169,53.91533,-9.85487,9.81,-0.08,0.16,2.0
1758086557.88054,1758086557.82439,0.0,0.0,0.0,-21.02755,49.15978,-10.31324,9.55,0.15,0.05,2.0
1758086557.89549,1758086557.83439,0.0,0.0,0.0,-23.26209,45.26366,-10.37054,9.35,0.26,-0.11,2.0
1758086557.89685,1758086557.84439,0.0,0.0,0.0,-25.15285,40.85189,-10.65701,9.35,0.26,-0.11,2.0
1758086557.91231,1758086557.85439,0.0,0.0,0.0,-27.10091,36.03905,-10.94349,9.09,0.22,-0.04,2.0
1758086557.92824,1758086557.86439,0.0,0.0,0.0,-29.50733,30.02299,-11.22997,9.09,0.22,-0.04,2.0
1758086557.92945,1758086557.87439,0.0,0.0,0.0,-30.93972,26.52795,-11.80293,8.96,0.05,0.0,2.0
1758086557.94503,1758086557.88439,0.0,0.0,0.0,-32.08564,22.40265,-11.86023,8.96,0.05,0.0,2.0
1758086557.94662,1758086557.89439,0.0,0.0,0.0,-33.23156,19.42327,-12.204,8.79,-0.16,0.06,2.0
1758086557.96152,1758086557.90439,0.0,0.0,0.0,-35.06502,16.61578,-13.00614,8.87,-0.33,0.06,2.0
1758086557.97727,1758086557.91439,0.0,0.0,0.0,-36.26823,17.30333,-13.12073,8.87,-0.33,0.06,2.0
1758086557.97934,1758086557.92439,0.0,0.0,0.0,-37.24226,18.56383,-13.06344,9.1,-0.42,-0.01,2.0
1758086557.99449,1758086557.93439,0.0,0.0,0.0,-38.27358,19.53786,-12.49048,9.1,-0.42,-0.01,2.0
1758086557.9965,1758086557.94439,0.0,0.0,0.0,-40.04975,20.85567,-11.45916,9.06,-0.47,0.0,2.0
1758086558.01349,1758086557.95439,0.0,0.0,0.0,-41.36755,20.97026,-10.54242,9.06,-0.47,0.0,2.0
1758086558.03008,1758086557.96439,0.0,0.0,0.0,-43.02913,20.85567,-9.85487,9.1,-0.45,-0.1,2.0
1758086558.03211,1758086557.97439,0.0,0.0,0.0,-44.51882,20.22541,-9.22462,9.1,-0.45,-0.1,2.0
1758086558.04752,1758086557.98439,0.0,0.0,0.0,-46.75336,18.85031,-8.70896,9.31,-0.36,-0.18,2.0
1758086558.04879,1758086557.99439,0.0,0.0,0.0,-47.89928,17.93358,-9.05273,9.75,-0.33,-0.25,2.0
1758086558.0634,1758086558.00439,0.0,0.0,0.0,-48.70141,17.01685,-9.22462,9.75,-0.33,-0.25,2.0
1758086558.07954,1758086558.01439,0.0,0.0,0.0,-49.21708,15.75634,-9.68299,10.28,-0.49,-0.24,2.0
1758086558.09535,1758086558.02439,0.0,0.0,0.0,-49.27437,13.46451,-9.96947,10.28,-0.49,-0.24,2.0
1758086558.09654,1758086558.03439,0.0,0.0,0.0,-49.38896,11.00079,-9.85487,10.62,-0.74,-0.34,2.0
1758086558.09721,1758086558.04439,0.0,0.0,0.0,-49.61814,8.25059,-9.4538,10.62,-0.74,-0.34,2.0
1758086558.11338,1758086558.05439,0.0,0.0,0.0,-50.64947,3.89611,-8.25059,10.63,-0.86,-0.59,2.0
1758086558.11574,1758086558.06439,0.0,0.0,0.0,-52.25375,1.43239,-7.04738,10.62,-0.81,-0.86,2.0
1758086558.1324,1758086558.07439,0.0,0.0,0.0,-54.3164,-1.66158,-5.95876,10.62,-0.81,-0.86,2.0
1758086558.14862,1758086558.08439,0.0,0.0,0.0,-56.78012,-6.8182,-4.64096,10.54,-0.8,-0.34,2.0
1758086558.14958,1758086558.09439,0.0,0.0,0.0,-59.53032,-15.24068,-3.38045,10.54,-0.8,-0.34,2.0
1758086558.16458,1758086558.10439,0.0,0.0,0.0,-60.79083,-22.63183,-3.26586,11.49,-1.01,0.49,2.0
1758086558.16635,1758086558.11439,0.0,0.0,0.0,-61.65026,-32.48671,-4.58366,11.49,-1.01,0.49,2.0
1758086558.18365,1758086558.12439,0.0,0.0,0.0,-61.76485,-44.40423,-6.24524,11.93,-1.25,1.14,2.0
1758086558.19937,1758086558.13439,0.0,0.0,0.0,-60.50434,-60.67623,-10.19865,12.27,-1.37,1.27,2.0
1758086558.20056,1758086558.14439,0.0,0.0,0.0,-58.15522,-68.41116,-12.77696,12.27,-1.37,1.27,2.0
1758086558.21557,1758086558.15439,0.0,0.0,0.0,-54.88936,-71.39055,-15.24068,13.3,-1.7,1.47,2.0
1758086558.21768,1758086558.16439,0.0,0.0,0.0,-50.99325,-68.52576,-16.272,13.3,-1.7,1.47,2.0
1758086558.23263,1758086558.17439,0.0,0.0,0.0,-45.20637,-57.46767,-15.98552,13.55,-1.68,2.04,2.0
1758086558.24866,1758086558.18439,0.0,0.0,0.0,-42.74266,-48.01387,-14.9542,13.55,-1.68,2.04,2.0
1758086558.24954,1758086558.19439,0.0,0.0,0.0,-40.68,-40.50812,-12.14671,11.54,-1.36,2.77,2.0
1758086558.26434,1758086558.20439,0.0,0.0,0.0,-40.96649,-36.32552,-7.62034,11.54,-1.36,2.77,2.0
1758086558.26631,1758086558.21439,0.0,0.0,0.0,-43.20102,-43.88857,-4.64096,9.02,-0.88,2.86,2.0
1758086558.28261,1758086558.22439,0.0,0.0,0.0,-48.24305,-56.14987,-3.32316,7.32,-0.11,2.63,2.0
1758086558.29864,1758086558.23439,0.0,0.0,0.0,-53.80074,-60.04598,-0.74485,7.32,-0.11,2.63,2.0
1758086558.29957,1758086558.24439,0.0,0.0,0.0,-64.91612,-51.22243,2.06265,9.11,0.8,1.77,2.0
1758086558.31475,1758086558.25439,0.0,0.0,0.0,-73.16672,-43.60209,3.38045,9.11,0.8,1.77,2.0
1758086558.31677,1758086558.26439,0.0,0.0,0.0,-80.72976,-37.12767,4.23989,9.99,1.08,1.95,2.0
1758086558.33363,1758086558.27439,0.0,0.0,0.0,-87.26147,-31.39809,4.52637,9.99,1.08,1.95,2.0
1758086558.34964,1758086558.28439,0.0,0.0,0.0,-94.07968,-22.00158,4.81285,9.87,0.76,1.92,2.0
1758086558.35085,1758086558.29439,0.0,0.0,0.0,-96.77258,-14.66772,4.35448,10.08,0.05,0.78,2.0
1758086558.36575,1758086558.30439,0.0,0.0,0.0,-98.03308,-6.58902,3.95341,10.08,0.05,0.78,2.0
1758086558.36735,1758086558.31439,0.0,0.0,0.0,-98.49145,1.43239,3.49504,10.2,-0.69,0.21,2.0
1758086558.38238,1758086558.32439,0.0,0.0,0.0,-98.09039,14.61043,2.7502,10.2,-0.69,0.21,2.0
1758086558.39838,1758086558.33439,0.0,0.0,0.0,-97.86119,24.23611,2.06265,10.37,-1.29,0.0,2.0
1758086558.39989,1758086558.34439,0.0,0.0,0.0,-97.51743,32.6013,1.03132,10.37,-1.29,0.0,2.0
1758086558.41468,1758086558.35439,0.0,0.0,0.0,-96.88716,38.50277,0.85944,10.34,-1.65,-0.14,2.0
1758086558.41667,1758086558.36439,0.0,0.0,0.0,-96.14232,48.01387,0.22918,10.18,-1.84,-0.22,2.0
1758086558.4327,1758086558.37439,0.0,0.0,0.0,-95.51206,53.45696,0.0573,10.18,-1.84,-0.22,2.0
1758086558.44867,1758086558.38439,0.0,0.0,0.0,-94.53805,58.3844,0.0573,9.95,-1.95,-0.33,2.0
1758086558.4496,1758086558.39439,0.0,0.0,0.0,-93.79319,61.53567,0.0,9.95,-1.95,-0.33,2.0
1758086558.46472,1758086558.40439,0.0,0.0,0.0,-92.4754,61.59297,0.11459,9.48,-1.89,-0.39,2.0
1758086558.46561,1758086558.41439,0.0,0.0,0.0,-91.38677,60.27517,0.34377,9.48,-1.89,-0.39,2.0
1758086558.48142,1758086558.42439,0.0,0.0,0.0,-90.06896,59.41573,0.11459,9.23,-1.76,-0.47,2.0
1758086558.49767,1758086558.43439,0.0,0.0,0.0,-87.89172,57.52497,-0.40107,9.23,-1.76,-0.47,2.0
1758086558.49886,1758086558.44439,0.0,0.0,0.0,-86.00097,55.29043,-0.85944,9.18,-1.68,-0.43,2.0
1758086558.51368,1758086558.45439,0.0,0.0,0.0,-83.59455,52.76942,-1.77617,8.92,-1.74,-0.15,2.0
1758086558.52943,1758086558.46439,0.0,0.0,0.0,-80.90164,49.27437,-2.63561,8.92,-1.74,-0.15,2.0
1758086558.54545,1758086558.47439,0.0,0.0,0.0,-76.54716,44.8053,-4.23989,8.68,-1.92,-0.24,2.0
1758086558.54707,1758086558.48439,0.0,0.0,0.0,-72.99483,43.20102,-5.21392,8.68,-1.92,-0.24,2.0
1758086558.54742,1758086558.49439,0.0,0.0,0.0,-69.55708,41.71133,-6.58902,8.61,-2.27,-0.33,2.0
1758086558.56342,1758086558.50439,0.0,0.0,0.0,-65.89015,40.04975,-7.79223,8.61,-2.27,-0.33,2.0
1758086558.57967,1758086558.51439,0.0,0.0,0.0,-60.61894,38.21629,-9.91217,8.38,-2.65,-0.33,2.0
1758086558.58095,1758086558.52439,0.0,0.0,0.0,-57.12389,36.95578,-10.8289,8.33,-2.9,-0.23,2.0
1758086558.59585,1758086558.53439,0.0,0.0,0.0,-53.68615,36.03905,-11.80293,8.33,-2.9,-0.23,2.0
1758086558.59707,1758086558.54439,0.0,0.0,0.0,-50.1911,34.49206,-12.49048,8.36,-3.0,-0.23,2.0
1758086558.61191,1758086558.55439,0.0,0.0,0.0,-45.72203,33.46074,-13.34992,8.36,-3.0,-0.23,2.0
1758086558.62748,1758086558.56439,0.0,0.0,0.0,-42.97184,34.37747,-13.98017,8.59,-2.9,-0.26,2.0
1758086558.62867,1758086558.57439,0.0,0.0,0.0,-40.68,36.26823,-14.15206,8.59,-2.9,-0.26,2.0
1758086558.64366,1758086558.58439,0.0,0.0,0.0,-38.78925,37.58603,-14.49583,8.98,-2.66,-0.23,2.0
1758086558.65976,1758086558.59439,0.0,0.0,0.0,-35.52338,38.90384,-14.72501,9.25,-2.33,-0.09,2.0
1758086558.66095,1758086558.60439,0.0,0.0,0.0,-33.40344,37.18496,-14.78231,9.25,-2.33,-0.09,2.0
1758086558.67559,1758086558.61439,0.0,0.0,0.0,-31.51268,33.17426,-15.0115,9.45,-2.0,-0.18,2.0
1758086558.67669,1758086558.62439,0.0,0.0,0.0,-28.76248,23.20479,-14.9542,9.45,-2.0,-0.18,2.0
1758086558.69146,1758086558.63439,0.0,0.0,0.0,-26.52795,15.87093,-15.06879,9.69,-1.83,-0.44,2.0
1758086558.70774,1758086558.64439,0.0,0.0,0.0,-24.4653,7.50575,-15.35527,9.69,-1.83,-0.44,2.0
1758086558.70892,1758086558.65439,0.0,0.0,0.0,-22.11617,-0.45837,-15.35527,9.92,-1.95,-0.67,2.0
1758086558.7245,1758086558.66439,0.0,0.0,0.0,-18.79302,-13.00614,-14.9542,9.87,-1.95,-0.62,2.0
1758086558.72655,1758086558.67439,0.0,0.0,0.0,-16.95955,-21.02755,-14.9542,9.87,-2.31,-0.62,2.0
1758086558.74269,1758086558.68439,0.0,0.0,0.0,-15.58445,-26.35606,-14.78231,10.0,-2.55,-0.87,2.0
1758086558.75853,1758086558.69439,0.0,0.0,0.0,-14.03747,-30.59595,-14.20935,10.0,-2.55,-0.87,2.0
1758086558.75992,1758086558.70439,0.0,0.0,0.0,-12.2613,-35.92446,-13.23533,10.02,-2.52,-1.41,2.0
1758086558.77474,1758086558.71439,0.0,0.0,0.0,-10.65701,-34.72124,-12.37589,10.02,-2.52,-1.41,2.0
1758086558.77592,1758086558.72439,0.0,0.0,0.0,-9.05273,-31.56997,-11.51645,10.62,-2.42,-1.11,2.0
1758086558.79172,1758086558.73439,0.0,0.0,0.0,-7.33386,-30.30947,-10.94349,10.62,-2.42,-1.11,2.0
1758086558.80748,1758086558.74439,0.0,0.0,0.0,-5.84417,-38.1017,-9.28192,10.76,-2.3,0.07,2.0
1758086558.80866,1758086558.75439,0.0,0.0,0.0,-6.41713,-45.43555,-6.41713,10.98,-2.08,2.21,2.0
1758086558.82453,1758086558.76439,0.0,0.0,0.0,-7.96411,-52.42564,-2.63561,10.98,-2.08,2.21,2.0
1758086558.8263,1758086558.77439,0.0,0.0,0.0,-10.08406,-61.1346,2.46372,12.46,-1.55,3.34,2.0
1758086558.84278,1758086558.78439,0.0,0.0,0.0,-13.80828,-73.10942,11.51645,12.46,-1.55,3.34,2.0
1758086558.85883,1758086558.79439,0.0,0.0,0.0,-16.272,-77.29202,16.272,12.93,-0.66,3.75,2.0
1758086558.86005,1758086558.80439,0.0,0.0,0.0,-18.16276,-76.1461,19.25138,12.93,-0.66,3.75,2.0
1758086558.87485,1758086558.81439,0.0,0.0,0.0,-19.36597,-66.17663,20.85567,12.29,-0.02,3.85,2.0
1758086558.87648,1758086558.82439,0.0,0.0,0.0,-19.42327,-55.86338,20.51189,10.98,0.01,3.8,2.0
1758086558.89279,1758086558.83439,0.0,0.0,0.0,-18.9649,-46.40959,18.22006,10.98,0.01,3.8,2.0
1758086558.90865,1758086558.84439,0.0,0.0,0.0,-16.272,-37.64333,16.67307,9.31,-0.5,3.04,2.0
1758086558.9097,1758086558.85439,0.0,0.0,0.0,-11.80293,-55.6342,11.17268,9.31,-0.5,3.04,2.0
1758086558.92462,1758086558.86439,0.0,0.0,0.0,-6.99009,-67.03606,9.22462,6.71,-1.22,1.48,2.0
1758086558.92687,1758086558.87439,0.0,0.0,0.0,-2.46372,-58.90006,6.87549,6.71,-1.22,1.48,2.0
1758086558.94254,1758086558.88439,0.0,0.0,0.0,2.00535,-45.83662,4.58366,10.48,-2.24,-0.02,2.0
1758086558.9588,1758086558.89439,0.0,0.0,0.0,7.10468,-29.73651,1.48969,11.44,-2.33,1.13,2.0
1758086558.95973,1758086558.90439,0.0,0.0,0.0,7.84952,-19.48057,-0.11459,11.44,-2.33,1.13,2.0
1758086558.97457,1758086558.91439,0.0,0.0,0.0,6.47442,-8.76626,-0.40107,11.55,-1.43,2.32,2.0
1758086558.99054,1758086558.92439,0.0,0.0,0.0,3.55234,2.40642,0.57296,11.55,-1.43,2.32,2.0
1758086558.99206,1758086558.93439,0.0,0.0,0.0,-1.94806,18.33465,3.09397,11.24,-0.18,1.28,2.0
1758086559.00681,1758086558.94439,0.0,0.0,0.0,-5.50039,27.67386,4.69825,11.24,-0.18,1.28,2.0
1758086559.00815,1758086558.95439,0.0,0.0,0.0,-8.30789,36.15364,5.15662,10.25,0.7,0.54,2.0
1758086559.02282,1758086558.96439,0.0,0.0,0.0,-10.25595,42.74266,5.15662,10.25,0.7,0.54,2.0
1758086559.03878,1758086558.97439,0.0,0.0,0.0,-11.86023,48.24305,3.95341,9.48,0.94,0.53,2.0
1758086559.04007,1758086558.98439,0.0,0.0,0.0,-12.204,50.363,2.46372,9.27,0.86,0.45,2.0
1758086559.05482,1758086558.99439,0.0,0.0,0.0,-12.54778,53.11319,-0.34377,9.27,0.86,0.45,2.0
1758086559.05605,1758086559.00439,0.0,0.0,0.0,-12.71966,53.17049,-4.1253,9.4,0.5,0.21,2.0
1758086559.07162,1758086559.01439,0.0,0.0,0.0,-12.89155,51.90998,-7.10468,9.4,0.5,0.21,2.0
1758086559.08788,1758086559.02439,0.0,0.0,0.0,-13.5791,50.3057,-10.19865,9.36,0.1,0.35,2.0
1758086559.12194,1758086559.03439,0.0,0.0,0.0,-22.97561,33.05967,-16.10011,8.81,0.0,-0.17,2.0
1758086559.13792,1758086559.04439,0.0,0.0,0.0,-26.01229,31.2262,-15.98552,9.01,0.1,-0.25,2.0
1758086559.13901,1758086559.05439,0.0,0.0,0.0,-30.13758,28.13223,-15.58445,9.01,0.1,-0.25,2.0
1758086559.15441,1758086559.06439,0.0,0.0,0.0,-32.25753,25.72581,-15.46986,8.88,0.11,-0.14,2.0
1758086559.15583,1758086559.07439,0.0,0.0,0.0,-33.51803,22.86102,-14.61043,8.88,0.11,-0.14,2.0
1758086559.17196,1758086559.08439,0.0,0.0,0.0,-34.32018,20.62648,-13.98017,8.76,0.0,-0.18,2.0
1758086559.18756,1758086559.09439,0.0,0.0,0.0,-34.66395,20.45459,-13.12073,8.97,-0.19,-0.34,2.0
1758086559.18878,1758086559.10439,0.0,0.0,0.0,-34.60666,23.31938,-12.77696,8.97,-0.19,-0.34,2.0
1758086559.20365,1758086559.11439,0.0,0.0,0.0,-34.37747,26.41335,-11.86023,9.28,-0.42,-0.22,2.0
1758086559.21991,1758086559.12439,0.0,0.0,0.0,-34.0337,27.67386,-11.51645,9.28,-0.42,-0.22,2.0
1758086559.22084,1758086559.13439,0.0,0.0,0.0,-33.80451,26.52795,-10.54242,8.88,-0.56,0.01,2.0
1758086559.23646,1758086559.14439,0.0,0.0,0.0,-33.9764,25.43933,-9.91217,8.88,-0.56,0.01,2.0
1758086559.23764,1758086559.15439,0.0,0.0,0.0,-34.49206,24.5226,-9.33921,8.98,-0.56,-0.2,2.0
1758086559.25297,1758086559.16439,0.0,0.0,0.0,-35.69527,22.57454,-8.02141,8.98,-0.56,-0.2,2.0
1758086559.26868,1758086559.17439,0.0,0.0,0.0,-36.84119,17.18874,-7.39116,9.19,-0.49,-0.37,2.0
1758086559.27062,1758086559.18439,0.0,0.0,0.0,-38.38818,12.71966,-6.53172,9.69,-0.5,-0.39,2.0
1758086559.28644,1758086559.19439,0.0,0.0,0.0,-40.10705,7.44845,-6.13065,9.69,-0.5,-0.39,2.0
1758086559.28763,1758086559.20439,0.0,0.0,0.0,-43.31561,-2.11994,-5.55769,10.33,-0.58,-0.48,2.0
1758086559.30304,1758086559.21439,0.0,0.0,0.0,-46.06581,-8.0787,-5.61499,10.33,-0.58,-0.48,2.0
1758086559.31893,1758086559.22439,0.0,0.0,0.0,-48.70141,-13.12073,-5.61499,10.85,-0.61,-0.73,2.0
1758086559.31988,1758086559.23439,0.0,0.0,0.0,-51.10783,-19.36597,-5.72958,10.85,-0.61,-0.73,2.0
1758086559.33495,1758086559.24439,0.0,0.0,0.0,-52.884,-28.59059,-4.29718,11.1,-0.54,-1.15,2.0
1758086559.33626,1758086559.25439,0.0,0.0,0.0,-53.45696,-32.08564,-3.32316,11.33,-0.7,-1.29,2.0
1758086559.35198,1758086559.26439,0.0,0.0,0.0,-53.05589,-34.26288,-2.23454,11.33,-0.7,-1.29,2.0
1758086559.36771,1758086559.27439,0.0,0.0,0.0,-52.65482,-33.05967,-1.48969,12.66,-0.99,-0.28,2.0
1758086559.36918,1758086559.28439,0.0,0.0,0.0,-49.84733,-27.61657,-1.03132,12.66,-0.99,-0.28,2.0
1758086559.38401,1758086559.29439,0.0,0.0,0.0,-46.63877,-25.55392,-1.14592,13.89,-1.69,0.58,2.0
1758086559.39995,1758086559.30439,0.0,0.0,0.0,-42.97184,-27.04361,-1.08862,13.89,-1.69,0.58,2.0
1758086559.40091,1758086559.31439,0.0,0.0,0.0,-39.07573,-30.48136,-2.23454,12.96,-1.93,0.98,2.0
1758086559.41598,1758086559.32439,0.0,0.0,0.0,-32.48671,-28.59059,-2.6929,13.13,-1.88,0.84,2.0
1758086559.41716,1758086559.33439,0.0,0.0,0.0,-28.36141,-27.61657,-2.40642,13.13,-1.88,0.84,2.0
1758086559.43189,1758086559.34439,0.0,0.0,0.0,-24.12152,-28.476,-1.3751,12.91,-1.83,1.43,2.0
1758086559.44777,1758086559.35439,0.0,0.0,0.0,-19.19409,-33.11696,0.0573,12.91,-1.83,1.43,2.0
1758086559.44895,1758086559.36439,0.0,0.0,0.0,-16.3293,-40.62271,1.43239,11.42,-1.55,2.48,2.0
1758086559.46408,1758086559.37439,0.0,0.0,0.0,-14.66772,-42.1124,2.6929,11.42,-1.55,2.48,2.0
1758086559.46678,1758086559.38439,0.0,0.0,0.0,-14.49583,-42.1124,3.60963,9.83,-1.18,2.51,2.0
1758086559.48301,1758086559.39439,0.0,0.0,0.0,-16.67307,-44.23235,4.52637,9.83,-1.18,2.51,2.0
1758086559.49899,1758086559.40439,0.0,0.0,0.0,-19.88164,-47.15443,4.52637,8.06,-0.64,3.01,2.0
1758086559.50073,1758086559.41439,0.0,0.0,0.0,-24.35071,-49.15978,4.64096,7.62,0.27,2.63,2.0
1758086559.51577,1758086559.42439,0.0,0.0,0.0,-30.13758,-48.07116,4.64096,7.62,0.27,2.63,2.0
1758086559.51779,1758086559.43439,0.0,0.0,0.0,-40.33623,-42.91454,4.35448,8.54,1.3,1.7,2.0
1758086559.53297,1758086559.44439,0.0,0.0,0.0,-47.38361,-39.3622,4.92744,8.54,1.3,1.7,2.0
1758086559.54878,1758086559.45439,0.0,0.0,0.0,-54.48829,-35.75257,5.27121,9.11,1.85,1.66,2.0
1758086559.55101,1758086559.46439,0.0,0.0,0.0,-60.50434,-31.11161,5.90147,9.11,1.85,1.66,2.0
1758086559.56681,1758086559.47439,0.0,0.0,0.0,-67.43713,-21.31403,5.84417,9.78,1.48,1.46,2.0
1758086559.56776,1758086559.48439,0.0,0.0,0.0,-70.81759,-13.12073,5.4431,10.42,0.45,0.98,2.0
1758086559.58303,1758086559.49439,0.0,0.0,0.0,-73.10942,-4.23989,4.52637,10.42,0.45,0.98,2.0
1758086559.60221,1758086559.50439,0.0,0.0,0.0,-74.59911,4.81285,2.97938,10.41,-0.5,0.47,2.0
1758086559.60337,1758086559.51439,0.0,0.0,0.0,-75.68773,16.10011,0.97403,10.41,-0.5,0.47,2.0
1758086559.61913,1758086559.52439,0.0,0.0,0.0,-75.68773,23.0902,-0.17189,9.97,-1.08,-0.01,2.0
1758086559.6216,1758086559.53439,0.0,0.0,0.0,-75.40125,30.19488,-1.14592,9.97,-1.08,-0.01,2.0
1758086559.63687,1758086559.54439,0.0,0.0,0.0,-74.25533,37.35685,-2.6929,9.47,-1.35,-0.41,2.0
1758086559.63805,1758086559.55439,0.0,0.0,0.0,-72.99483,45.72203,-3.66693,8.94,-1.5,-0.56,2.0
1758086559.65307,1758086559.56439,0.0,0.0,0.0,-71.79161,50.3057,-4.35448,8.94,-1.5,-0.56,2.0
1758086559.6569,1758086559.57439,0.0,0.0,0.0,-70.30193,54.14451,-5.27121,8.72,-1.57,-0.54,2.0
1758086559.67288,1758086559.58439,0.0,0.0,0.0,-67.72362,59.47303,-6.35983,8.72,-1.57,-0.54,2.0
1758086559.69235,1758086559.59439,0.0,0.0,0.0,-65.43179,62.91077,-6.99009,8.93,-1.55,-0.5,2.0
1758086559.69324,1758086559.60439,0.0,0.0,0.0,-63.02536,64.62964,-7.84952,8.93,-1.55,-0.5,2.0
1758086559.71044,1758086559.61439,0.0,0.0,0.0,-60.61894,64.22858,-8.70896,8.99,-1.55,-0.42,2.0
1758086559.71438,1758086559.62439,0.0,0.0,0.0,-56.60823,61.24919,-9.91217,8.96,-1.55,-0.37,2.0
1758086559.72914,1758086559.63439,0.0,0.0,0.0,-53.51426,59.35843,-10.37054,8.96,-1.61,-0.37,2.0
1758086559.73196,1758086559.64439,0.0,0.0,0.0,-50.47758,57.63955,-11.11538,9.02,-1.86,-0.57,2.0
1758086559.74709,1758086559.65439,0.0,0.0,0.0,-46.98254,55.29043,-11.28727,9.02,-1.86,-0.57,2.0
1758086559.75073,1758086559.66439,0.0,0.0,0.0,-41.59674,54.14451,-11.34457,8.84,-2.26,-0.64,2.0
1758086559.76698,1758086559.67439,0.0,0.0,0.0,-37.64333,53.68615,-11.74564,8.84,-2.26,-0.64,2.0
1758086559.76785,1758086559.68439,0.0,0.0,0.0,-33.23156,52.13916,-11.91752,8.74,-2.71,-0.53,2.0
1758086559.78315,1758086559.69439,0.0,0.0,0.0,-28.70519,48.75871,-11.97482,8.74,-2.71,-0.53,2.0
1758086559.80013,1758086559.70439,0.0,0.0,0.0,-21.25674,43.77398,-11.63104,8.38,-3.06,-0.41,2.0
1758086559.80133,1758086559.71439,0.0,0.0,0.0,-16.04282,42.34158,-11.34457,8.49,-3.25,-0.66,2.0
1758086559.81611,1758086559.72439,0.0,0.0,0.0,-11.97482,40.85189,-11.17268,8.49,-3.25,-0.66,2.0
1758086559.8171,1758086559.73439,0.0,0.0,0.0,-8.47978,38.1017,-9.96947,8.36,-3.19,-0.52,2.0
1758086559.83214,1758086559.74439,0.0,0.0,0.0,-3.89611,32.83048,-9.33921,8.36,-3.19,-0.52,2.0
1758086559.84818,1758086559.75439,0.0,0.0,0.0,-1.43239,28.59059,-8.25059,8.59,-2.77,-0.59,2.0
1758086559.84911,1758086559.76439,0.0,0.0,0.0,0.74485,23.83505,-7.10468,8.59,-2.77,-0.59,2.0
1758086559.86419,1758086559.77439,0.0,0.0,0.0,2.97938,11.74564,-7.16197,9.18,-2.07,-0.96,2.0
1758086559.88,1758086559.78439,0.0,0.0,0.0,4.0107,0.68755,-6.41713,9.44,-1.36,-1.01,2.0
1758086559.8811,1758086559.79439,0.0,0.0,0.0,5.55769,-12.43318,-4.64096,9.44,-1.36,-1.01,2.0
1758086559.89618,1758086559.80439,0.0,0.0,0.0,7.39116,-20.05352,-2.97938,10.01,-1.29,-1.24,2.0
1758086559.89708,1758086559.81439,0.0,0.0,0.0,9.22462,-28.93437,-1.08862,10.01,-1.29,-1.24,2.0
1758086559.91187,1758086559.82439,0.0,0.0,0.0,10.54242,-35.86716,0.34377,10.14,-1.57,-1.1,2.0
1758086559.92791,1758086559.83439,0.0,0.0,0.0,10.94349,-41.13837,1.83346,10.14,-1.57,-1.1,2.0
1758086559.93181,1758086559.84439,0.0,0.0,0.0,11.17268,-42.62806,2.40642,10.74,-1.65,0.35,2.0
1758086559.94713,1758086559.85439,0.0,0.0,0.0,9.91217,-42.68536,2.86479,13.16,-1.07,2.25,2.0
1758086559.94808,1758086559.86439,0.0,0.0,0.0,7.33386,-50.3057,4.0107,13.16,-1.07,2.25,2.0
1758086559.96312,1758086559.87439,0.0,0.0,0.0,3.83882,-57.18119,7.67763,14.74,-0.1,4.84,2.0
1758086559.9802,1758086559.88439,0.0,0.0,0.0,-0.85944,-63.42643,11.97482,14.74,-0.1,4.84,2.0
1758086559.98429,1758086559.89439,0.0,0.0,0.0,-8.76626,-74.02615,16.50119,15.05,0.32,4.33,2.0
1758086560.00001,1758086559.90439,0.0,0.0,0.0,-11.86023,-77.06283,17.6471,15.05,0.32,4.33,2.0
1758086560.00136,1758086559.91439,0.0,0.0,0.0,-12.83425,-77.57849,16.90226,12.42,0.08,4.38,2.0
1758086560.01593,1758086559.92439,0.0,0.0,0.0,-11.22997,-76.60446,15.46986,12.42,0.08,4.38,2.0
1758086560.01797,1758086559.93439,0.0,0.0,0.0,-5.50039,-71.10406,14.43854,10.13,-0.16,3.83,2.0
1758086560.03336,1758086559.94439,0.0,0.0,0.0,0.0573,-60.50434,13.34992,10.05,-0.85,3.12,2.0
1758086560.04073,1758086559.95439,0.0,0.0,0.0,6.24524,-42.05511,10.94349,10.05,-0.85,3.12,2.0
1758086560.05622,1758086559.96439,0.0,0.0,0.0,15.69904,-15.64175,5.84417,10.79,-1.74,2.35,2.0
1758086560.06059,1758086559.97439,0.0,0.0,0.0,23.20479,-11.51645,2.57831,10.79,-1.74,2.35,2.0
1758086560.07722,1758086559.98439,0.0,0.0,0.0,28.99167,-20.3973,-4.23989,8.89,-2.48,2.23,2.0
1758086560.07822,1758086559.99439,0.0,0.0,0.0,36.6693,-48.35764,-4.23989,8.89,-2.48,2.23,2.0
1758086560.09318,1758086560.00439,0.0,0.0,0.0,44.8053,-47.38361,-10.65701,6.89,-2.63,0.75,2.0
1758086560.1105,1758086560.01439,0.0,0.0,0.0,50.87865,-23.31938,-9.33921,12.24,-2.22,-0.9,2.0
1758086560.11201,1758086560.02439,0.0,0.0,0.0,56.32175,-9.62569,-6.13065,12.24,-2.22,-0.9,2.0
1758086560.12713,1758086560.03439,0.0,0.0,0.0,59.24384,-4.98473,-3.83882,10.92,-0.95,1.83,2.0
1758086560.12983,1758086560.04439,0.0,0.0,0.0,56.89471,3.60963,-2.40642,10.92,-0.95,1.83,2.0
1758086560.14763,1758086560.05439,0.0,0.0,0.0,52.36834,12.71966,-1.60428,10.46,0.42,2.12,2.0
1758086560.15103,1758086560.06439,0.0,0.0,0.0,46.81066,20.68378,-0.80214,10.46,0.42,2.12,2.0
1758086560.16728,1758086560.07439,0.0,0.0,0.0,41.42485,26.35606,0.34377,9.48,1.48,0.54,2.0
1758086560.16848,1758086560.08439,0.0,0.0,0.0,34.14828,32.77319,1.03132,8.38,1.92,0.42,2.0
1758086560.18303,1758086560.09439,0.0,0.0,0.0,30.30947,36.55471,1.03132,8.38,1.92,0.42,2.0
1758086560.19999,1758086560.10439,0.0,0.0,0.0,26.87172,39.99245,0.17189,8.07,1.85,0.31,2.0
1758086560.20466,1758086560.11439,0.0,0.0,0.0,23.83505,41.94051,-0.57296,8.07,1.85,0.31,2.0
1758086560.22344,1758086560.12439,0.0,0.0,0.0,18.73572,43.14373,-2.23454,8.14,1.57,0.52,2.0
1758086560.22522,1758086560.13439,0.0,0.0,0.0,14.78231,43.60209,-3.03668,8.14,1.57,0.52,2.0
1758086560.24181,1758086560.14439,0.0,0.0,0.0,10.31324,43.65939,-5.61499,8.46,1.31,0.51,2.0
1758086560.24525,1758086560.15439,0.0,0.0,0.0,3.72423,42.22699,-7.79223,8.46,1.31,0.51,2.0
1758086560.26029,1758086560.16439,0.0,0.0,0.0,-0.22918,39.82057,-8.88085,8.61,1.15,0.3,2.0
1758086560.26279,1758086560.17439,0.0,0.0,0.0,-4.0107,37.58603,-9.22462,8.58,1.07,-0.04,2.0
1758086560.27804,1758086560.18439,0.0,0.0,0.0,-7.16197,36.03905,-9.22462,8.58,1.07,-0.04,2.0
1758086560.28157,1758086560.19439,0.0,0.0,0.0,-10.8289,33.17426,-7.79223,8.64,0.96,-0.22,2.0
1758086560.29778,1758086560.20439,0.0,0.0,0.0,-12.49048,30.36677,-6.47442,8.64,0.96,-0.22,2.0
1758086560.30509,1758086560.21439,0.0,0.0,0.0,-13.98017,27.84575,-4.87014,8.59,0.73,-0.23,2.0
1758086560.3219,1758086560.22439,0.0,0.0,0.0,-15.0115,28.93437,-4.18259,8.59,0.73,-0.23,2.0
1758086560.32306,1758086560.23439,0.0,0.0,0.0,-15.06879,33.9764,-1.66158,9.21,0.34,-0.49,2.0
1758086560.33799,1758086560.24439,0.0,0.0,0.0,-14.32395,34.72124,-0.22918,9.4,-0.07,-0.25,2.0
1758086560.34319,1758086560.25439,0.0,0.0,0.0,-13.69369,33.86181,0.74485,9.4,-0.07,-0.25,2.0
1758086560.35802,1758086560.26439,0.0,0.0,0.0,-13.17803,32.25753,1.83346,9.36,-0.47,-0.13,2.0
1758086560.36485,1758086560.27439,0.0,0.0,0.0,-12.83425,28.87707,2.92208,9.36,-0.47,-0.13,2.0
1758086560.38166,1758086560.28439,0.0,0.0,0.0,-12.83425,25.26744,3.26586,9.68,-0.74,-0.42,2.0
1758086560.38448,1758086560.29439,0.0,0.0,0.0,-13.12073,19.59516,3.66693,9.68,-0.74,-0.42,2.0
1758086560.40349,1758086560.30439,0.0,0.0,0.0,-13.75099,12.49048,2.86479,9.91,-0.85,-0.8,2.0
1758086560.40789,1758086560.31439,0.0,0.0,0.0,-15.69904,1.3751,1.43239,10.42,-0.8,-1.12,2.0
1758086560.40826,1758086560.32439,0.0,0.0,0.0,-17.6471,-4.64096,0.0573,10.42,-0.8,-1.12,2.0
1758086560.42432,1758086560.33439,0.0,0.0,0.0,-20.16812,-8.88085,-1.3178,11.05,-0.61,-1.4,2.0
1758086560.426,1758086560.34439,0.0,0.0,0.0,-23.83505,-11.57375,-2.92208,11.05,-0.61,-1.4,2.0
1758086560.44206,1758086560.35439,0.0,0.0,0.0,-26.18417,-17.13144,-2.34913,11.11,-0.28,-1.51,2.0
1758086560.45834,1758086560.36439,0.0,0.0,0.0,-28.64789,-20.05352,-1.20321,11.11,-0.28,-1.51,2.0
1758086560.46036,1758086560.37439,0.0,0.0,0.0,-30.59595,-22.86102,0.85944,10.99,-0.13,-1.7,2.0
1758086560.47505,1758086560.38439,0.0,0.0,0.0,-32.48671,-22.74642,3.55234,10.99,-0.13,-1.7,2.0
1758086560.47626,1758086560.39439,0.0,0.0,0.0,-32.77319,-20.11082,4.98473,11.66,-0.49,-1.01,2.0
1758086560.4931,1758086560.40439,0.0,0.0,0.0,-31.51268,-19.36597,5.84417,13.15,-1.06,0.5,2.0
1758086560.5005,1758086560.41439,0.0,0.0,0.0,-29.10626,-24.35071,6.24524,13.15,-1.06,0.5,2.0
1758086560.52162,1758086560.42439,0.0,0.0,0.0,-25.09555,-43.20102,4.98473,12.54,-1.24,2.04,2.0
1758086560.52285,1758086560.43439,0.0,0.0,0.0,-22.05888,-58.21251,2.92208,12.54,-1.24,2.04,2.0
1758086560.53939,1758086560.44439,0.0,0.0,0.0,-18.56383,-69.3279,0.17189,12.24,-1.07,2.44,2.0
1758086560.54105,1758086560.45439,0.0,0.0,0.0,-14.66772,-76.60446,-2.57831,12.24,-1.07,2.44,2.0
1758086560.55719,1758086560.46439,0.0,0.0,0.0,-8.88085,-79.69843,-6.24524,12.6,-0.82,2.96,2.0
1758086560.55852,1758086560.47439,0.0,0.0,0.0,-5.72958,-75.22936,-8.25059,11.74,-0.3,4.66,2.0
1758086560.57312,1758086560.48439,0.0,0.0,0.0,-3.66693,-64.45775,-9.33921,11.74,-0.3,4.66,2.0
1758086560.58991,1758086560.49439,0.0,0.0,0.0,-3.55234,-52.08187,-10.19865,10.99,-0.07,5.0,2.0
1758086560.59277,1758086560.50439,0.0,0.0,0.0,-4.98473,-39.76327,-8.36518,10.99,-0.07,5.0,2.0
1758086560.60973,1758086560.51439,0.0,0.0,0.0,-8.99544,-51.73809,-8.59437,8.96,0.2,3.79,2.0
1758086560.6109,1758086560.52439,0.0,0.0,0.0,-14.66772,-61.53567,-8.02141,8.96,0.2,3.79,2.0
1758086560.6269,1758086560.53439,0.0,0.0,0.0,-25.21014,-61.99404,-5.78687,7.94,0.95,1.86,2.0
1758086560.63044,1758086560.54439,0.0,0.0,0.0,-32.20023,-52.25375,-2.86479,10.18,1.44,0.9,2.0
1758086560.64719,1758086560.55439,0.0,0.0,0.0,-38.61736,-42.74266,0.68755,10.18,1.44,0.9,2.0
1758086560.64845,1758086560.56439,0.0,0.0,0.0,-44.46153,-32.88778,3.55234,11.02,1.22,2.1,2.0
1758086560.66344,1758086560.57439,0.0,0.0,0.0,-50.99325,-18.50654,5.61499,11.02,1.22,2.1,2.0
1758086560.67942,1758086560.58439,0.0,0.0,0.0,-54.14451,-8.88085,4.92744,10.8,0.55,1.67,2.0
1758086560.68276,1758086560.59439,0.0,0.0,0.0,-55.97798,0.51566,3.66693,10.8,0.55,1.67,2.0
1758086560.69814,1758086560.60439,0.0,0.0,0.0,-57.18119,10.25595,1.60428,10.25,0.02,0.27,2.0
1758086560.70089,1758086560.61439,0.0,0.0,0.0,-57.23849,21.7724,-0.85944,9.54,-0.41,-0.18,2.0
1758086560.71657,1758086560.62439,0.0,0.0,0.0,-57.0093,30.02299,-2.23454,9.54,-0.41,-0.18,2.0
1758086560.71742,1758086560.63439,0.0,0.0,0.0,-56.66553,37.12767,-3.32316,9.03,-0.79,-0.08,2.0
1758086560.73242,1758086560.64439,0.0,0.0,0.0,-55.6915,42.97184,-3.89611,9.03,-0.79,-0.08,2.0
1758086560.74973,1758086560.65439,0.0,0.0,0.0,-54.02992,49.38896,-4.29718,8.64,-1.09,0.0,2.0
1758086560.75091,1758086560.66439,0.0,0.0,0.0,-52.36834,52.82671,-4.0107,8.64,-1.09,0.0,2.0
1758086560.76823,1758086560.67439,0.0,0.0,0.0,-50.13381,56.83742,-3.38045,8.71,-1.26,-0.16,2.0
1758086560.77393,1758086560.68439,0.0,0.0,0.0,-47.89928,59.47303,-2.46372,8.71,-1.26,-0.16,2.0
1758086560.80312,1758086560.69439,0.0,0.0,0.0,-44.28964,58.72818,-1.3178,8.9,-1.32,-0.22,2.0
1758086560.80485,1758086560.70439,0.0,0.0,0.0,-41.76862,57.23849,-0.57296,8.83,-1.41,-0.23,2.0
1758086560.80816,1758086560.71439,0.0,0.0,0.0,-39.24761,55.57691,0.0,8.83,-1.41,-0.23,2.0
1758086560.81237,1758086560.72439,0.0,0.0,0.0,-35.06502,53.28508,0.11459,8.83,-1.49,-0.52,2.0
1758086560.82801,1758086560.73439,0.0,0.0,0.0,-32.25753,49.96192,-0.17189,8.83,-1.49,-0.52,2.0
1758086560.86286,1758086560.74439,0.0,0.0,0.0,-29.33544,48.52953,-0.97403,8.71,-1.55,-0.54,2.0
1758086560.86431,1758086560.75439,0.0,0.0,0.0,-26.12688,47.49821,-2.11994,8.71,-1.55,-0.54,2.0
1758086560.86553,1758086560.76439,0.0,0.0,0.0,-20.74107,45.03448,-4.29718,8.65,-1.61,-0.51,2.0
1758086560.86622,1758086560.77439,0.0,0.0,0.0,-16.90226,41.99781,-5.78687,8.56,-1.68,-0.52,2.0
1758086560.86745,1758086560.78439,0.0,0.0,0.0,-12.83425,40.39353,-6.41713,8.56,-1.68,-0.52,2.0
1758086560.88223,1758086560.79439,0.0,0.0,0.0,-8.76626,39.82057,-7.33386,8.74,-1.86,-0.7,2.0
1758086560.89825,1758086560.80439,0.0,0.0,0.0,-3.49504,39.4195,-8.0787,8.74,-1.86,-0.7,2.0
1758086560.90105,1758086560.81439,0.0,0.0,0.0,-0.11459,36.6693,-7.96411,8.53,-2.07,-0.41,2.0
1758086560.91627,1758086560.82439,0.0,0.0,0.0,3.60963,32.42941,-6.8182,8.53,-2.07,-0.41,2.0
1758086560.91745,1758086560.83439,0.0,0.0,0.0,7.04738,27.33009,-4.98473,8.16,-2.25,-0.42,2.0
1758086560.93251,1758086560.84439,0.0,0.0,0.0,11.45916,17.87628,-2.06265,8.47,-2.29,-1.04,2.0
1758086560.95009,1758086560.85439,0.0,0.0,0.0,13.80828,10.19865,-0.17189,8.47,-2.29,-1.04,2.0
1758086560.95288,1758086560.86439,0.0,0.0,0.0,15.64175,0.74485,0.85944,8.8,-2.03,-1.47,2.0
1758086560.96826,1758086560.87439,0.0,0.0,0.0,16.67307,-12.204,1.48969,8.8,-2.03,-1.47,2.0
1758086560.97028,1758086560.88439,0.0,0.0,0.0,17.76169,-29.50733,1.66158,9.0,-1.45,-1.94,2.0
1758086560.98553,1758086560.89439,0.0,0.0,0.0,17.76169,-30.53865,3.49504,9.0,-1.45,-1.94,2.0
1758086560.98677,1758086560.90439,0.0,0.0,0.0,17.58981,-26.06958,4.46907,10.75,-1.15,-1.87,2.0
1758086561.00227,1758086560.91439,0.0,0.0,0.0,17.53251,-22.05888,6.7609,10.75,-1.15,-1.87,2.0
1758086561.01829,1758086560.92439,0.0,0.0,0.0,16.90226,-23.0329,8.30789,11.17,-0.96,0.26,2.0
1758086561.02135,1758086560.93439,0.0,0.0,0.0,16.50119,-28.30412,8.88085,12.17,-0.41,1.79,2.0
1758086561.0363,1758086560.94439,0.0,0.0,0.0,16.04282,-41.31026,11.34457,12.17,-0.41,1.79,2.0
1758086561.03751,1758086560.95439,0.0,0.0,0.0,8.76626,-61.1346,13.5791,14.19,0.66,2.45,2.0
1758086561.05232,1758086560.96439,0.0,0.0,0.0,1.43239,-68.64035,17.36062,14.19,0.66,2.45,2.0
1758086561.05754,1758086560.97439,0.0,0.0,0.0,-7.44845,-73.79697,21.14215,16.92,1.48,3.32,2.0
1758086561.07329,1758086560.98439,0.0,0.0,0.0,-16.38659,-77.63579,23.72045,16.92,1.48,3.32,2.0
1758086561.0908,1758086560.99439,0.0,0.0,0.0,-25.61122,-72.70835,23.0902,15.42,1.09,2.98,2.0
1758086561.09235,1758086561.00439,0.0,0.0,0.0,-28.01764,-64.74423,21.25674,11.7,0.43,3.96,2.0
1758086561.10732,1758086561.01439,0.0,0.0,0.0,-27.50197,-59.81679,19.36597,11.7,0.43,3.96,2.0
1758086561.10935,1758086561.02439,0.0,0.0,0.0,-24.57989,-56.89471,18.22006,8.8,0.0,3.71,2.0
1758086561.1243,1758086561.03439,0.0,0.0,0.0,-17.18874,-49.33167,16.04282,8.8,0.0,3.71,2.0
1758086561.14035,1758086561.04439,0.0,0.0,0.0,-10.25595,-41.36755,14.49583,8.86,-1.0,2.38,2.0
1758086561.14153,1758086561.05439,0.0,0.0,0.0,-2.23454,-33.46074,12.54778,8.86,-1.0,2.38,2.0
1758086561.1574,1758086561.06439,0.0,0.0,0.0,6.18794,-27.50197,9.96947,9.01,-2.17,1.2,2.0
1758086561.15833,1758086561.07439,0.0,0.0,0.0,17.87628,-21.25674,4.98473,8.86,-2.93,1.31,2.0
1758086561.17362,1758086561.08439,0.0,0.0,0.0,24.63719,-16.90226,2.06265,8.86,-2.93,1.31,2.0
1758086561.19036,1758086561.09439,0.0,0.0,0.0,30.25217,-11.22997,-0.0573,9.55,-2.79,1.26,2.0
1758086561.19232,1758086561.10439,0.0,0.0,0.0,34.37747,-2.29183,-1.77617,9.55,-2.79,1.26,2.0
1758086561.20761,1758086561.11439,0.0,0.0,0.0,38.90384,14.38124,-1.03132,10.13,-1.89,1.16,2.0
1758086561.2128,1758086561.12439,0.0,0.0,0.0,41.08107,22.97561,0.40107,10.13,-1.89,1.16,2.0
1758086561.22733,1758086561.13439,0.0,0.0,0.0,42.62806,29.67921,2.40642,9.95,-0.82,1.37,2.0
1758086561.24363,1758086561.14439,0.0,0.0,0.0,43.4875,37.58603,3.89611,9.95,-0.82,1.37,2.0
1758086561.24738,1758086561.15439,0.0,0.0,0.0,43.14373,43.14373,4.58366,9.74,0.3,0.98,2.0
1758086561.24775,1758086561.16439,0.0,0.0,0.0,42.05511,46.46688,4.64096,9.45,1.17,0.29,2.0
1758086561.2634,1758086561.17439,0.0,0.0,0.0,41.02378,46.86795,4.0107,9.45,1.17,0.29,2.0
1758086561.26772,1758086561.18439,0.0,0.0,0.0,38.90384,46.1231,3.26586,8.68,1.46,-0.16,2.0
1758086561.28795,1758086561.19439,0.0,0.0,0.0,37.52874,45.37826,2.00535,8.68,1.46,-0.16,2.0
1758086561.31784,1758086561.20439,0.0,0.0,0.0,35.63798,44.46153,0.11459,8.75,1.13,-0.09,2.0
1758086561.32194,1758086561.21439,0.0,0.0,0.0,33.51803,42.05511,-1.48969,8.75,1.13,-0.09,2.0
1758086561.32319,1758086561.22439,0.0,0.0,0.0,28.87707,36.89849,-4.69825,8.77,0.58,0.05,2.0
1758086561.32677,1758086561.23439,0.0,0.0,0.0,25.26744,33.68992,-6.07335,8.94,0.21,0.11,2.0
1758086561.3533,1758086561.24439,0.0,0.0,0.0,21.37133,29.96569,-6.87549,8.94,0.21,0.11,2.0
1758086561.35501,1758086561.25439,0.0,0.0,0.0,17.36062,27.04361,-6.70361,9.01,0.23,0.05,2.0
1758086561.35665,1758086561.26439,0.0,0.0,0.0,11.80293,23.60586,-5.21392,9.01,0.23,0.05,2.0
1758086561.35738,1758086561.27439,0.0,0.0,0.0,8.76626,21.7724,-3.49504,9.06,0.44,0.09,2.0
1758086561.37473,1758086561.28439,0.0,0.0,0.0,5.84417,20.62648,-2.06265,9.06,0.44,0.09,2.0
1758086561.3923,1758086561.29439,0.0,0.0,0.0,3.66693,19.82434,-0.57296,8.99,0.67,0.12,2.0
1758086561.394,1758086561.30439,0.0,0.0,0.0,1.3751,19.42327,1.03132,8.88,0.77,0.2,2.0
1758086561.41098,1758086561.31439,0.0,0.0,0.0,0.40107,21.7724,1.60428,8.88,0.77,0.2,2.0
1758086561.41297,1758086561.32439,0.0,0.0,0.0,0.17189,27.44468,2.29183,9.3,0.76,0.1,2.0
1758086561.42861,1758086561.33439,0.0,0.0,0.0,1.14592,32.54401,3.49504,9.3,0.76,0.1,2.0
1758086561.42961,1758086561.34439,0.0,0.0,0.0,1.77617,30.48136,4.0107,9.04,0.59,0.3,2.0
1758086561.44441,1758086561.35439,0.0,0.0,0.0,1.60428,26.69983,4.0107,9.04,0.59,0.3,2.0
1758086561.46044,1758086561.36439,0.0,0.0,0.0,0.68755,20.22541,4.52637,8.71,0.28,0.0,2.0
1758086561.46272,1758086561.37439,0.0,0.0,0.0,-3.66693,11.97482,4.35448,8.71,0.28,-0.84,2.0
1758086561.47739,1758086561.38439,0.0,0.0,0.0,-7.96411,6.7609,4.29718,9.05,0.11,-0.84,2.0
1758086561.47898,1758086561.39439,0.0,0.0,0.0,-13.12073,1.48969,3.89611,9.56,0.24,-1.1,2.0
1758086561.49342,1758086561.40439,0.0,0.0,0.0,-18.56383,-6.07335,2.63561,9.56,0.24,-1.1,2.0
1758086561.50105,1758086561.41439,0.0,0.0,0.0,-25.49662,-23.66316,0.0573,9.86,0.44,-1.34,2.0
1758086561.51649,1758086561.42439,0.0,0.0,0.0,-27.84575,-34.49206,-2.11994,9.86,0.44,-1.34,2.0
1758086561.51762,1758086561.43439,0.0,0.0,0.0,-30.02299,-41.76862,-4.58366,10.44,0.38,-1.93,2.0
1758086561.53242,1758086561.44439,0.0,0.0,0.0,-30.53865,-44.8053,-5.55769,10.44,0.38,-1.93,2.0
1758086561.54869,1758086561.45439,0.0,0.0,0.0,-31.16891,-42.85724,-6.24524,11.46,0.34,-1.64,2.0
1758086561.55281,1758086561.46439,0.0,0.0,0.0,-31.28349,-32.6013,-6.13065,12.91,0.03,-0.65,2.0
1758086561.5687,1758086561.47439,0.0,0.0,0.0,-30.93972,-17.13144,-6.41713,12.91,0.03,-0.65,2.0
1758086561.57279,1758086561.48439,0.0,0.0,0.0,-27.96034,-10.19865,-4.98473,14.32,-1.02,1.25,2.0
1758086561.58146,1758086561.49439,0.0,0.0,0.0,-23.20479,-22.51724,-5.55769,14.32,-1.02,1.25,2.0
1758086561.60166,1758086561.50439,0.0,0.0,0.0,-19.25138,-28.64789,-6.99009,13.13,-1.79,2.19,2.0
1758086561.60366,1758086561.51439,0.0,0.0,0.0,-14.20935,-31.11161,-7.33386,13.13,-1.79,2.19,2.0
1758086561.62243,1758086561.52439,0.0,0.0,0.0,-5.78687,-35.12231,-7.44845,14.29,-2.12,0.91,2.0
1758086561.65175,1758086561.53439,0.0,0.0,0.0,1.03132,-33.9764,-6.70361,13.79,-2.05,1.02,2.0
1758086561.65242,1758086561.54439,0.0,0.0,0.0,7.96411,-29.10626,-5.21392,13.79,-2.05,1.02,2.0
1758086561.65824,1758086561.55439,0.0,0.0,0.0,14.32395,-24.35071,-3.38045,12.0,-1.42,2.27,2.0
1758086561.66232,1758086561.56439,0.0,0.0,0.0,21.25674,-21.42862,-0.80214,12.0,-1.42,2.27,2.0
1758086561.66321,1758086561.57439,0.0,0.0,0.0,23.26209,-20.97026,-0.0573,9.21,-1.03,2.99,2.0
1758086561.68191,1758086561.58439,0.0,0.0,0.0,22.51724,-21.7151,0.17189,9.21,-1.03,2.99,2.0
1758086561.68315,1758086561.59439,0.0,0.0,0.0,19.25138,-24.57989,-0.11459,7.72,-0.49,2.87,2.0
1758086561.70266,1758086561.60439,0.0,0.0,0.0,10.31324,-30.13758,-1.66158,7.42,0.44,2.23,2.0
1758086561.70397,1758086561.61439,0.0,0.0,0.0,1.83346,-30.59595,-2.86479,7.42,0.44,2.23,2.0
1758086561.72173,1758086561.62439,0.0,0.0,0.0,-8.25059,-28.93437,-4.1253,8.4,1.6,1.88,2.0
1758086561.72313,1758086561.63439,0.0,0.0,0.0,-19.13679,-27.38738,-5.09932,8.4,1.6,1.88,2.0
1758086561.74036,1758086561.64439,0.0,0.0,0.0,-33.86181,-25.26744,-4.58366,9.01,2.3,2.16,2.0
1758086561.74241,1758086561.65439,0.0,0.0,0.0,-41.94051,-22.40265,-3.83882,9.01,2.3,2.16,2.0
1758086561.75775,1758086561.66439,0.0,0.0,0.0,-47.44091,-18.10547,-2.46372,9.67,1.9,1.79,2.0
1758086561.76105,1758086561.67439,0.0,0.0,0.0,-50.99325,-10.94349,-1.71887,9.67,1.9,1.79,2.0
1758086561.77652,1758086561.68439,0.0,0.0,0.0,-53.51426,-0.40107,-1.43239,10.05,0.67,1.26,2.0
1758086561.77767,1758086561.69439,0.0,0.0,0.0,-54.08722,4.92744,-2.11994,9.87,-0.35,0.94,2.0
1758086561.79254,1758086561.70439,0.0,0.0,0.0,-53.68615,9.5684,-3.03668,9.87,-0.35,0.94,2.0
1758086561.81008,1758086561.71439,0.0,0.0,0.0,-52.25375,14.32395,-4.98473,9.69,-1.07,0.36,2.0
1758086561.81235,1758086561.72439,0.0,0.0,0.0,-50.76406,22.57454,-6.13065,9.69,-1.07,0.36,2.0
1758086561.8277,1758086561.73439,0.0,0.0,0.0,-49.04519,27.44468,-6.87549,9.52,-1.46,-0.04,2.0
1758086561.83059,1758086561.74439,0.0,0.0,0.0,-46.98254,32.08564,-7.16197,9.52,-1.46,-0.04,2.0
1758086561.84737,1758086561.75439,0.0,0.0,0.0,-43.25832,37.81522,-7.21927,9.13,-1.5,0.0,2.0
1758086561.84829,1758086561.76439,0.0,0.0,0.0,-40.96649,40.85189,-7.04738,9.02,-1.4,-0.11,2.0
1758086561.86577,1758086561.77439,0.0,0.0,0.0,-37.98711,44.23235,-6.47442,9.02,-1.4,-0.11,2.0
1758086561.86761,1758086561.78439,0.0,0.0,0.0,-34.72124,47.78468,-5.84417,9.25,-1.39,-0.15,2.0
1758086561.88434,1758086561.79439,0.0,0.0,0.0,-30.02299,47.67009,-4.0107,9.25,-1.39,-0.15,2.0
1758086561.88826,1758086561.80439,0.0,0.0,0.0,-27.1582,47.38361,-2.97938,9.07,-1.42,-0.21,2.0
1758086561.90478,1758086561.81439,0.0,0.0,0.0,-24.57989,46.75336,-2.34913,9.07,-1.42,-0.21,2.0
1758086561.92252,1758086561.82439,0.0,0.0,0.0,-22.28806,46.1804,-2.00535,9.12,-1.5,-0.52,2.0
1758086561.92361,1758086561.83439,0.0,0.0,0.0,-18.73572,43.88857,-1.77617,8.98,-1.7,-0.49,2.0
1758086561.96247,1758086561.84439,0.0,0.0,0.0,-15.64175,41.65404,-1.71887,8.98,-1.7,-0.49,2.0
1758086561.96763,1758086561.85439,0.0,0.0,0.0,-12.71966,39.70598,-1.66158,8.82,-1.95,-0.42,2.0
1758086561.96797,1758086561.86439,0.0,0.0,0.0,-9.39651,39.13302,-1.71887,8.82,-1.95,-0.42,2.0
1758086561.97177,1758086561.87439,0.0,0.0,0.0,-3.55234,38.56006,-1.60428,8.88,-2.23,-0.4,2.0
1758086561.97219,1758086561.88439,0.0,0.0,0.0,0.34377,38.73195,-2.23454,8.88,-2.23,-0.4,2.0
1758086561.98782,1758086561.89439,0.0,0.0,0.0,4.18259,37.52874,-2.46372,8.7,-2.35,-0.37,2.0
1758086561.98877,1758086561.90439,0.0,0.0,0.0,9.68299,36.89849,-3.09397,8.7,-2.35,-0.37,2.0
1758086562.00516,1758086561.91439,0.0,0.0,0.0,13.17803,33.63263,-3.32316,8.48,-2.31,-0.41,2.0
1758086562.00985,1758086561.92439,0.0,0.0,0.0,16.10011,28.36141,-3.60963,8.06,-2.16,-0.44,2.0
1758086562.02581,1758086561.93439,0.0,0.0,0.0,18.85031,21.37133,-3.38045,8.06,-2.16,-0.44,2.0
1758086562.02764,1758086561.94439,0.0,0.0,0.0,21.48592,10.37054,-3.26586,8.12,-1.89,-0.94,2.0
1758086562.04442,1758086561.95439,0.0,0.0,0.0,23.37668,4.23989,-2.7502,8.12,-1.89,-0.94,2.0
1758086562.04793,1758086561.96439,0.0,0.0,0.0,24.86637,-1.03132,-2.86479,9.0,-1.57,-1.66,2.0
1758086562.06733,1758086561.97439,0.0,0.0,0.0,25.55392,-7.04738,-0.34377,9.0,-1.57,-1.66,2.0
1758086562.06865,1758086561.98439,0.0,0.0,0.0,24.75178,-5.21392,2.34913,10.24,-1.09,-1.38,2.0
1758086562.08443,1758086561.99439,0.0,0.0,0.0,22.40265,-0.51566,4.46907,11.61,-1.01,-0.54,2.0
1758086562.10145,1758086562.00439,0.0,0.0,0.0,21.08485,-0.74485,3.66693,11.61,-1.01,-0.54,2.0
1758086562.10211,1758086562.01439,0.0,0.0,0.0,21.88699,-29.22085,5.95876,9.24,-0.77,-0.3,2.0
1758086562.11761,1758086562.02439,0.0,0.0,0.0,23.94964,-61.59297,12.14671,9.24,-0.77,-0.3,2.0
1758086562.12117,1758086562.03439,0.0,0.0,0.0,24.29341,-54.71747,14.66772,10.91,-0.65,-1.15,2.0
1758086562.13693,1758086562.04439,0.0,0.0,0.0,24.17882,-51.6235,16.67307,10.91,-0.65,-1.15,2.0
1758086562.13784,1758086562.05439,0.0,0.0,0.0,20.85567,-57.86874,16.55848,13.7,0.15,-0.35,2.0
1758086562.15292,1758086562.06439,0.0,0.0,0.0,9.11003,-69.38519,17.47521,14.57,1.45,3.75,2.0
1758086562.16973,1758086562.07439,0.0,0.0,0.0,-1.08862,-73.79697,19.42327,14.57,1.45,3.75,2.0
1758086562.17177,1758086562.08439,0.0,0.0,0.0,-11.22997,-75.05748,20.3973,16.53,1.44,4.18,2.0
1758086562.19255,1758086562.09439,0.0,0.0,0.0,-19.36597,-74.7137,19.53786,16.53,1.44,4.18,2.0
1758086562.22167,1758086562.10439,0.0,0.0,0.0,-25.72581,-64.91612,17.53251,13.43,0.32,4.09,2.0
1758086562.22227,1758086562.11439,0.0,0.0,0.0,-25.49662,-57.41038,16.3293,13.43,0.32,4.09,2.0
1758086562.22341,1758086562.12439,0.0,0.0,0.0,-22.86102,-53.68615,16.38659,9.91,-0.22,4.22,2.0
1758086562.25352,1758086562.13439,0.0,0.0,0.0,-13.40721,-48.8733,16.10011,9.91,-0.22,4.22,2.0
1758086562.2563,1758086562.14439,0.0,0.0,0.0,-4.23989,-46.52417,16.10011,8.48,-1.07,3.47,2.0
1758086562.25674,1758086562.15439,0.0,0.0,0.0,6.41713,-40.96649,14.43854,8.75,-2.38,1.43,2.0
1758086562.25737,1758086562.16439,0.0,0.0,0.0,17.6471,-36.7266,13.06344,8.75,-2.38,1.43,2.0
1758086562.26165,1758086562.17439,0.0,0.0,0.0,33.80451,-31.91375,8.59437,9.18,-3.5,0.99,2.0
1758086562.27764,1758086562.18439,0.0,0.0,0.0,43.37291,-26.35606,4.1253,9.18,-3.5,0.99,2.0
1758086562.28288,1758086562.19439,0.0,0.0,0.0,50.82136,-15.35527,0.45837,10.16,-3.43,0.64,2.0
1758086562.30132,1758086562.20439,0.0,0.0,0.0,56.37905,-2.06265,-1.43239,10.16,-3.43,0.64,2.0
1758086562.30257,1758086562.21439,0.0,0.0,0.0,60.50434,14.03747,-1.3751,11.34,-2.26,1.05,2.0
1758086562.31773,1758086562.22439,0.0,0.0,0.0,60.79083,21.7151,0.0,10.97,-0.98,1.71,2.0
1758086562.32212,1758086562.23439,0.0,0.0,0.0,59.81679,28.93437,1.66158,10.97,-0.98,1.71,2.0
1758086562.33773,1758086562.24439,0.0,0.0,0.0,57.92604,35.3515,3.55234,10.38,0.06,1.38,2.0
1758086562.34206,1758086562.25439,0.0,0.0,0.0,54.77477,40.50812,5.4431,10.38,0.06,1.38,2.0
1758086562.35806,1758086562.26439,0.0,0.0,0.0,52.9986,42.34158,6.41713,9.17,0.88,0.64,2.0
1758086562.36214,1758086562.27439,0.0,0.0,0.0,51.50891,43.77398,6.58902,9.17,0.88,0.64,2.0
1758086562.3777,1758086562.28439,0.0,0.0,0.0,50.1911,45.14908,5.55769,8.59,1.21,0.45,2.0
1758086562.38051,1758086562.29439,0.0,0.0,0.0,48.12846,46.86795,4.52637,8.41,1.21,0.33,2.0
1758086562.39574,1758086562.30439,0.0,0.0,0.0,46.1804,46.52417,2.46372,8.41,1.21,0.33,2.0
1758086562.39719,1758086562.31439,0.0,0.0,0.0,43.83128,43.60209,0.34377,8.17,1.0,0.22,2.0
1758086562.41195,1758086562.32439,0.0,0.0,0.0,39.4768,39.13302,-2.57831,8.17,1.0,0.22,2.0
1758086562.42963,1758086562.33439,0.0,0.0,0.0,36.32552,36.32552,-3.55234,8.37,0.67,-0.21,2.0
1758086562.43045,1758086562.34439,0.0,0.0,0.0,33.00237,34.26288,-4.69825,8.37,0.67,-0.21,2.0
1758086562.44659,1758086562.35439,0.0,0.0,0.0,29.67921,30.88243,-4.98473,8.63,0.4,-0.5,2.0
1758086562.448,1758086562.36439,0.0,0.0,0.0,25.21014,26.69983,-4.64096,8.63,0.4,-0.25,2.0
1758086562.46298,1758086562.37439,0.0,0.0,0.0,22.63183,25.55392,-3.55234,8.77,0.25,-0.25,2.0
1758086562.48064,1758086562.38439,0.0,0.0,0.0,20.3973,23.94964,-1.83346,9.12,0.3,0.08,2.0
1758086562.48158,1758086562.39439,0.0,0.0,0.0,18.16276,21.48592,-0.57296,9.12,0.3,0.08,2.0
1758086562.49705,1758086562.40439,0.0,0.0,0.0,14.83961,18.90761,1.20321,9.07,0.44,0.21,2.0
1758086562.50032,1758086562.41439,0.0,0.0,0.0,13.00614,21.7151,2.29183,9.07,0.44,0.21,2.0
1758086562.51764,1758086562.42439,0.0,0.0,0.0,11.63104,24.4653,3.38045,9.59,0.6,-0.07,2.0
1758086562.52045,1758086562.43439,0.0,0.0,0.0,10.08406,26.18417,4.64096,9.59,0.6,-0.07,2.0
1758086562.53759,1758086562.44439,0.0,0.0,0.0,7.21927,23.26209,5.4431,9.25,0.69,-0.07,2.0
1758086562.54253,1758086562.45439,0.0,0.0,0.0,4.29718,20.22541,5.32851,8.92,0.77,-0.21,2.0
1758086562.558,1758086562.46439,0.0,0.0,0.0,0.85944,17.99088,4.46907,8.92,0.77,-0.21,2.0
1758086562.56133,1758086562.47439,0.0,0.0,0.0,-3.55234,15.12609,3.49504,9.26,0.83,-0.79,2.0
1758086562.5776,1758086562.48439,0.0,0.0,0.0,-10.48513,5.15662,2.46372,9.26,0.83,-0.79,2.0
1758086562.58199,1758086562.49439,0.0,0.0,0.0,-14.9542,-4.29718,2.11994,9.13,0.81,-1.16,2.0
1758086562.59774,1758086562.50439,0.0,0.0,0.0,-18.73572,-17.47521,1.48969,9.13,0.81,-1.16,2.0
1758086562.60134,1758086562.51439,0.0,0.0,0.0,-22.74642,-35.06502,0.0,9.24,0.6,-1.88,2.0
1758086562.61714,1758086562.52439,0.0,0.0,0.0,-24.17882,-43.31561,-1.83346,10.23,0.26,-2.04,2.0
1758086562.61799,1758086562.53439,0.0,0.0,0.0,-24.63719,-48.01387,-3.26586,10.23,0.26,-2.04,2.0
1758086562.63304,1758086562.54439,0.0,0.0,0.0,-25.49662,-45.20637,-4.18259,11.48,0.24,-1.53,2.0
1758086562.64895,1758086562.55439,0.0,0.0,0.0,-27.96034,-37.29956,-6.07335,11.48,0.24,-1.53,2.0
1758086562.64998,1758086562.56439,0.0,0.0,0.0,-29.9084,-35.12231,-7.84952,12.12,0.11,-0.55,2.0
1758086562.66562,1758086562.57439,0.0,0.0,0.0,-31.11161,-33.40344,-10.19865,12.12,0.11,-0.55,2.0
1758086562.66709,1758086562.58439,0.0,0.0,0.0,-29.8511,-34.66395,-10.19865,13.15,-0.51,0.89,2.0
1758086562.68194,1758086562.59439,0.0,0.0,0.0,-23.60586,-37.92981,-9.96947,13.43,-1.55,1.23,2.0
1758086562.69795,1758086562.60439,0.0,0.0,0.0,-17.47521,-43.83128,-9.11003,13.43,-1.55,1.23,2.0
1758086562.70224,1758086562.61439,0.0,0.0,0.0,-10.94349,-49.96192,-8.93814,12.72,-2.07,1.51,2.0
1758086562.71784,1758086562.62439,0.0,0.0,0.0,-4.69825,-55.92068,-8.88085,12.72,-2.07,1.51,2.0
1758086562.72135,1758086562.63439,0.0,0.0,0.0,3.83882,-59.07195,-8.65166,12.31,-2.09,1.52,2.0
1758086562.7368,1758086562.64439,0.0,0.0,0.0,8.88085,-56.78012,-8.59437,12.31,-2.09,1.52,2.0
1758086562.73836,1758086562.65439,0.0,0.0,0.0,13.5218,-52.9986,-7.62034,11.28,-1.6,2.42,2.0
1758086562.75307,1758086562.66439,0.0,0.0,0.0,17.13144,-49.84733,-6.47442,11.28,-1.6,2.42,2.0
1758086562.76119,1758086562.67439,0.0,0.0,0.0,18.10547,-47.26902,-5.32851,9.48,-1.25,3.89,2.0
1758086562.77711,1758086562.68439,0.0,0.0,0.0,15.69904,-45.37826,-4.58366,9.1,-0.83,3.69,2.0
1758086562.77803,1758086562.69439,0.0,0.0,0.0,10.71431,-43.14373,-4.29718,9.1,-0.83,3.69,2.0
1758086562.79312,1758086562.70439,0.0,0.0,0.0,-0.68755,-39.3622,-4.29718,9.75,0.04,2.64,2.0
1758086562.79594,1758086562.71439,0.0,0.0,0.0,-9.4538,-36.21093,-4.18259,9.75,0.04,2.64,2.0
1758086562.81267,1758086562.72439,0.0,0.0,0.0,-17.93358,-33.17426,-2.7502,10.31,1.12,1.82,2.0
1758086562.8279,1758086562.73439,0.0,0.0,0.0,-24.98096,-28.30412,-0.97403,10.31,1.12,1.82,2.0
1758086562.83176,1758086562.74439,0.0,0.0,0.0,-33.40344,-16.90226,1.66158,10.68,1.57,1.46,2.0
1758086562.84811,1758086562.75439,0.0,0.0,0.0,-37.81522,-7.79223,2.29183,10.72,1.13,1.1,2.0
1758086562.85169,1758086562.76439,0.0,0.0,0.0,-41.42485,1.20321,1.94806,10.72,1.13,1.1,2.0
1758086562.86718,1758086562.77439,0.0,0.0,0.0,-44.23235,8.93814,0.45837,10.28,0.39,0.69,2.0
1758086562.86833,1758086562.78439,0.0,0.0,0.0,-47.15443,17.58981,-2.00535,10.28,0.39,0.69,2.0
1758086562.88288,1758086562.79439,0.0,0.0,0.0,-48.30034,24.92367,-4.18259,9.92,-0.33,0.06,2.0
1758086562.88751,1758086562.80439,0.0,0.0,0.0,-48.70141,31.16891,-6.13065,9.92,-0.33,0.06,2.0
1758086562.90313,1758086562.81439,0.0,0.0,0.0,-48.52953,36.03905,-7.79223,9.53,-0.94,-0.17,2.0
1758086562.9224,1758086562.82439,0.0,0.0,0.0,-46.86795,42.62806,-8.99544,8.98,-1.45,0.0,2.0
1758086562.92438,1758086562.83439,0.0,0.0,0.0,-44.9199,45.77933,-8.88085,8.98,-1.45,0.0,2.0
1758086562.92687,1758086562.84439,0.0,0.0,0.0,-42.51347,47.61279,-8.30789,8.78,-1.76,-0.07,2.0
1758086562.9432,1758086562.85439,0.0,0.0,0.0,-39.4768,49.38896,-6.87549,8.78,-1.76,-0.07,2.0
1758086562.9453,1758086562.86439,0.0,0.0,0.0,-33.9764,52.19646,-4.35448,8.92,-1.92,-0.11,2.0
1758086562.96115,1758086562.87439,0.0,0.0,0.0,-29.9084,52.25375,-2.97938,8.92,-1.92,-0.11,2.0
1758086562.97705,1758086562.88439,0.0,0.0,0.0,-26.18417,50.363,-1.3751,8.74,-1.97,-0.1,2.0
1758086562.97814,1758086562.89439,0.0,0.0,0.0,-19.82434,47.95657,0.40107,8.74,-1.97,-0.1,2.0
1758086562.99319,1758086562.90439,0.0,0.0,0.0,-16.21471,41.99781,1.3751,8.56,-1.9,-0.15,2.0
1758086562.99494,1758086562.91439,0.0,0.0,0.0,-11.51645,39.53409,2.00535,8.66,-1.9,-0.31,2.0
1758086563.01194,1758086562.92439,0.0,0.0,0.0,-7.10468,37.18496,2.23454,8.66,-1.9,-0.31,2.0
1758086563.02793,1758086562.93439,0.0,0.0,0.0,-0.17189,34.49206,1.66158,8.77,-1.99,-0.56,2.0
1758086563.04495,1758086562.94439,0.0,0.0,0.0,4.64096,34.26288,1.08862,8.77,-1.99,-0.56,2.0
1758086563.04966,1758086562.95439,0.0,0.0,0.0,9.62569,35.2942,0.40107,8.88,-2.09,-0.54,2.0
1758086563.05266,1758086562.96439,0.0,0.0,0.0,13.86558,38.1017,-0.68755,8.88,-2.09,-0.54,2.0
1758086563.06874,1758086562.97439,0.0,0.0,0.0,19.13679,39.70598,-2.92208,8.94,-2.16,-0.55,2.0
1758086563.06992,1758086562.98439,0.0,0.0,0.0,22.28806,38.78925,-3.66693,8.49,-2.13,-0.16,2.0
1758086563.0908,1758086562.99439,0.0,0.0,0.0,25.15285,35.86716,-4.35448,8.49,-2.13,-0.16,2.0
1758086563.09327,1758086563.00439,0.0,0.0,0.0,27.33009,31.39809,-4.35448,8.26,-1.97,-0.13,2.0
1758086563.1092,1758086563.01439,0.0,0.0,0.0,29.8511,23.26209,-3.95341,8.26,-1.97,-0.13,2.0
1758086563.11096,1758086563.02439,0.0,0.0,0.0,30.65324,15.24068,-3.55234,8.35,-1.7,-0.53,2.0
1758086563.12722,1758086563.03439,0.0,0.0,0.0,31.56997,9.11003,-2.6929,8.35,-1.7,-0.53,2.0
1758086563.12823,1758086563.04439,0.0,0.0,0.0,31.97105,5.27121,-2.40642,8.79,-1.33,-1.25,2.0
1758086563.14323,1758086563.05439,0.0,0.0,0.0,33.17426,-1.48969,0.0,9.64,-0.95,-1.34,2.0
1758086563.14656,1758086563.06439,0.0,0.0,0.0,33.40344,-4.23989,2.11994,9.64,-0.95,-1.34,2.0
1758086563.16195,1758086563.07439,0.0,0.0,0.0,33.34615,-2.06265,3.66693,10.73,-0.89,-0.82,2.0
1758086563.17802,1758086563.08439,0.0,0.0,0.0,30.02299,2.11994,5.61499,10.73,-0.89,-0.82,2.0
1758086563.18085,1758086563.09439,0.0,0.0,0.0,29.22085,-8.47978,2.92208,11.31,-0.94,-0.2,2.0
1758086563.19704,1758086563.10439,0.0,0.0,0.0,29.33544,-36.38282,4.58366,11.31,-0.94,-0.2,2.0
1758086563.20123,1758086563.11439,0.0,0.0,0.0,32.83048,-50.99325,8.36518,8.79,-1.09,-1.81,2.0
