timeStamp,timeStampAlign,roll,pitch,yaw,gyro_x,gyro_y,gyro_z,acc_x,acc_y,acc_z,flag_num
1758078551.17053,1758078551.12432,0.0,0.0,0.0,10.02676,-12.54778,-4.35448,9.54,0.29,0.68,4.0
1758078551.22616,1758078551.13432,0.0,0.0,0.0,8.47978,-12.60507,-4.87014,9.47,0.35,0.66,4.0
1758078551.2299,1758078551.14432,0.0,0.0,0.0,7.44845,-12.83425,-5.09932,9.47,0.35,0.66,4.0
1758078551.23142,1758078551.15432,0.0,0.0,0.0,6.24524,-13.00614,-5.15662,9.67,0.58,0.99,4.0
1758078551.23181,1758078551.16432,0.0,0.0,0.0,4.52637,-12.54778,-4.58366,9.67,0.58,0.99,4.0
1758078551.23684,1758078551.17432,0.0,0.0,0.0,0.97403,-10.8289,-4.18259,10.33,0.91,1.2,4.0
1758078551.34826,1758078551.18432,0.0,0.0,0.0,-1.71887,-9.22462,-4.0107,10.33,0.91,1.2,4.0
1758078551.37109,1758078551.19432,0.0,0.0,0.0,-4.64096,-6.99009,-4.35448,10.66,0.93,1.51,4.0
1758078551.38188,1758078551.20432,0.0,0.0,0.0,-9.5684,-3.83882,-4.23989,10.66,0.93,1.51,4.0
1758078551.38432,1758078551.21432,0.0,0.0,0.0,-12.71966,-3.32316,-3.09397,11.13,1.16,2.19,4.0
1758078551.39409,1758078551.22432,0.0,0.0,0.0,-15.69904,-4.58366,-1.14592,11.84,1.59,2.39,4.0
1758078551.40107,1758078551.23432,0.0,0.0,0.0,-19.07949,-7.10468,0.45837,11.84,1.59,2.39,4.0
1758078551.40278,1758078551.24432,0.0,0.0,0.0,-24.29341,-10.25595,1.20321,12.18,1.67,2.0,4.0
1758078551.40699,1758078551.25432,0.0,0.0,0.0,-27.67386,-7.84952,0.45837,12.18,1.67,2.0,4.0
1758078551.41453,1758078551.26432,0.0,0.0,0.0,-30.13758,-2.6929,-1.60428,12.4,1.19,1.08,4.0
1758078551.41494,1758078551.27432,0.0,0.0,0.0,-31.74186,1.43239,-4.52637,12.4,1.19,1.08,4.0
1758078551.41795,1758078551.28432,0.0,0.0,0.0,-31.51268,1.08862,-8.36518,11.21,0.28,1.01,4.0
1758078551.41832,1758078551.29432,0.0,0.0,0.0,-30.13758,-1.14592,-9.62569,10.62,-0.25,2.2,4.0
1758078551.42113,1758078551.30432,0.0,0.0,0.0,-28.76248,-5.55769,-8.0787,10.62,-0.25,2.2,4.0
1758078551.42175,1758078551.31432,0.0,0.0,0.0,-27.84575,-9.91217,-3.32316,13.78,0.39,3.96,4.0
1758078551.42617,1758078551.32432,0.0,0.0,0.0,-27.50197,-11.80293,4.81285,13.78,0.39,3.96,4.0
1758078551.4268,1758078551.33432,0.0,0.0,0.0,-27.10091,-10.71431,6.87549,15.68,1.06,2.72,4.0
1758078551.43175,1758078551.34432,0.0,0.0,0.0,-25.43933,-10.8289,6.24524,15.68,1.06,2.72,4.0
1758078551.43265,1758078551.35432,0.0,0.0,0.0,-22.34536,-9.62569,3.60963,12.03,-0.28,1.52,4.0
1758078551.43701,1758078551.36432,0.0,0.0,0.0,-16.95955,-2.06265,-1.77617,10.35,-1.13,1.06,4.0
1758078551.4377,1758078551.37432,0.0,0.0,0.0,-13.5218,2.00535,-4.69825,10.35,-1.13,1.06,4.0
1758078551.43845,1758078551.38432,0.0,0.0,0.0,-10.48513,4.29718,-5.95876,9.82,-1.09,1.42,4.0
1758078551.44112,1758078551.39432,0.0,0.0,0.0,-7.33386,6.8182,-3.95341,9.82,-1.09,1.42,4.0
1758078551.44193,1758078551.40432,0.0,0.0,0.0,-5.95876,10.8289,-0.74485,10.71,-0.56,1.88,4.0
1758078551.44415,1758078551.41432,0.0,0.0,0.0,-4.98473,12.2613,2.40642,10.71,-0.56,1.88,4.0
1758078551.44452,1758078551.42432,0.0,0.0,0.0,-4.29718,12.49048,5.32851,11.57,0.09,2.37,4.0
1758078551.46128,1758078551.43432,0.0,0.0,0.0,-3.03668,12.2613,7.04738,11.57,0.09,2.37,4.0
1758078551.46398,1758078551.44432,0.0,0.0,0.0,-1.83346,11.74564,6.53172,11.53,0.35,2.46,4.0
1758078551.47932,1758078551.45432,0.0,0.0,0.0,-0.74485,11.45916,4.92744,10.61,0.16,2.18,4.0
1758078551.48169,1758078551.46432,0.0,0.0,0.0,0.34377,11.00079,2.46372,10.61,0.16,2.18,4.0
1758078551.49721,1758078551.47432,0.0,0.0,0.0,2.86479,13.00614,-1.14592,9.95,-0.15,1.73,4.0
1758078551.49972,1758078551.48432,0.0,0.0,0.0,4.64096,14.61043,-2.92208,9.95,-0.15,1.73,4.0
1758078551.51593,1758078551.49432,0.0,0.0,0.0,6.47442,15.87093,-4.0107,9.65,-0.24,1.65,4.0
1758078551.53194,1758078551.50432,0.0,0.0,0.0,7.84952,16.55848,-4.46907,9.65,-0.24,1.65,4.0
1758078551.53474,1758078551.51432,0.0,0.0,0.0,9.68299,16.21471,-3.89611,9.4,-0.11,1.76,4.0
1758078551.54999,1758078551.52432,0.0,0.0,0.0,10.8289,15.69904,-2.97938,9.3,0.11,1.73,4.0
1758078551.55118,1758078551.53432,0.0,0.0,0.0,11.51645,15.41257,-2.06265,9.3,0.11,1.73,4.0
1758078551.56622,1758078551.54432,0.0,0.0,0.0,11.97482,15.12609,-1.08862,9.31,0.35,1.43,4.0
1758078551.58228,1758078551.55432,0.0,0.0,0.0,12.49048,15.92823,-0.17189,9.31,0.35,1.43,4.0
1758078551.58569,1758078551.56432,0.0,0.0,0.0,12.71966,16.21471,0.17189,9.3,0.44,1.22,4.0
1758078551.60128,1758078551.57432,0.0,0.0,0.0,12.83425,16.272,0.45837,9.3,0.44,1.22,4.0
1758078551.60219,1758078551.58432,0.0,0.0,0.0,12.83425,15.87093,-0.11459,9.16,0.39,1.23,4.0
1758078551.61726,1758078551.59432,0.0,0.0,0.0,12.89155,16.272,-0.45837,9.18,0.29,1.21,4.0
1758078551.61819,1758078551.60432,0.0,0.0,0.0,13.00614,17.24603,-0.51566,9.18,0.29,1.21,4.0
1758078551.63429,1758078551.61432,0.0,0.0,0.0,13.06344,17.24603,-0.97403,9.34,0.3,1.13,4.0
1758078551.65084,1758078551.62432,0.0,0.0,0.0,13.17803,16.272,-0.51566,9.34,0.3,1.13,4.0
1758078551.65398,1758078551.63432,0.0,0.0,0.0,13.17803,15.12609,0.0573,9.42,0.36,1.07,4.0
1758078551.67237,1758078551.64432,0.0,0.0,0.0,12.83425,13.69369,0.22918,9.42,0.36,1.07,4.0
1758078551.67698,1758078551.65432,0.0,0.0,0.0,12.37589,11.97482,0.80214,9.35,0.43,0.84,4.0
1758078551.68106,1758078551.66432,0.0,0.0,0.0,11.45916,10.02676,1.66158,9.35,0.43,0.75,4.0
1758078551.69957,1758078551.67432,0.0,0.0,0.0,10.65701,8.88085,2.11994,9.13,0.54,0.75,4.0
1758078551.70408,1758078551.68432,0.0,0.0,0.0,9.68299,7.50575,2.57831,8.82,0.68,0.71,4.0
1758078551.72135,1758078551.69432,0.0,0.0,0.0,8.59437,5.55769,2.97938,8.82,0.68,0.71,4.0
1758078551.72175,1758078551.70432,0.0,0.0,0.0,6.53172,2.7502,3.20856,8.43,0.87,0.85,4.0
1758078551.75166,1758078551.71432,0.0,0.0,0.0,4.98473,1.48969,3.09397,8.43,0.87,0.85,4.0
1758078551.75693,1758078551.72432,0.0,0.0,0.0,2.97938,0.40107,2.57831,8.17,1.06,0.78,4.0
1758078551.75734,1758078551.73432,0.0,0.0,0.0,0.80214,-1.20321,2.23454,8.17,1.06,0.78,4.0
1758078551.75838,1758078551.74432,0.0,0.0,0.0,-2.23454,-4.64096,1.66158,7.82,1.21,0.84,4.0
1758078551.77602,1758078551.75432,0.0,0.0,0.0,-3.95341,-7.10468,1.71887,7.74,1.22,0.99,4.0
1758078551.79233,1758078551.76432,0.0,0.0,0.0,-5.50039,-9.33921,1.77617,7.74,1.22,0.99,4.0
1758078551.79953,1758078551.77432,0.0,0.0,0.0,-6.99009,-11.11538,1.94806,8.06,1.02,1.09,4.0
1758078551.80535,1758078551.78432,0.0,0.0,0.0,-8.59437,-13.34992,2.06265,8.06,1.02,1.09,4.0
1758078551.81107,1758078551.79432,0.0,0.0,0.0,-9.33921,-14.32395,2.46372,8.38,0.8,1.25,4.0
1758078551.82782,1758078551.80432,0.0,0.0,0.0,-10.02676,-15.35527,2.7502,8.38,0.8,1.25,4.0
1758078552.13695,1758078551.81432,0.0,0.0,0.0,-10.31324,-16.67307,3.09397,8.52,0.73,1.26,4.0
1758078552.13828,1758078551.82432,0.0,0.0,0.0,-10.59972,-18.22006,3.55234,8.62,0.83,1.21,4.0
1758078552.14029,1758078551.83432,0.0,0.0,0.0,-10.8862,-19.36597,4.1253,8.62,0.83,1.21,4.0
1758078552.14174,1758078551.84432,0.0,0.0,0.0,-11.45916,-20.16812,4.87014,8.64,1.01,1.22,4.0
1758078552.14619,1758078551.85432,0.0,0.0,0.0,-12.83425,-20.79837,6.13065,8.64,1.01,1.22,4.0
1758078552.14683,1758078551.86432,0.0,0.0,0.0,-13.75099,-21.6578,7.10468,8.52,1.05,1.21,4.0
1758078552.27665,1758078551.87432,0.0,0.0,0.0,-14.78231,-22.28806,8.0787,8.52,1.05,1.21,4.0
1758078552.28237,1758078551.88432,0.0,0.0,0.0,-15.69904,-22.74642,9.05273,8.43,0.82,1.12,4.0
1758078552.28685,1758078551.89432,0.0,0.0,0.0,-16.61578,-22.23076,10.31324,8.69,0.43,0.85,4.0
1758078552.28933,1758078551.90432,0.0,0.0,0.0,-16.90226,-20.3973,10.8289,8.69,0.43,0.85,4.0
1758078552.29062,1758078551.91432,0.0,0.0,0.0,-16.84496,-17.53251,10.8862,9.28,0.06,0.64,4.0
1758078552.29208,1758078551.92432,0.0,0.0,0.0,-15.92823,-13.34992,10.65701,9.28,0.06,0.64,4.0
1758078552.29524,1758078551.93432,0.0,0.0,0.0,-13.00614,-8.36518,10.48513,10.0,-0.22,0.73,4.0
1758078552.29589,1758078551.94432,0.0,0.0,0.0,-9.39651,-7.33386,9.91217,10.0,-0.22,0.73,4.0
1758078552.29651,1758078551.95432,0.0,0.0,0.0,-5.4431,-8.02141,10.31324,10.32,-0.36,0.88,4.0
1758078552.29779,1758078551.96432,0.0,0.0,0.0,-2.23454,-10.48513,9.62569,10.32,-0.36,0.88,4.0
1758078552.29918,1758078551.97432,0.0,0.0,0.0,1.77617,-15.92823,9.39651,10.21,-0.12,0.88,4.0
1758078552.30198,1758078551.98432,0.0,0.0,0.0,3.09397,-18.85031,9.39651,9.83,0.37,0.8,4.0
1758078552.30263,1758078551.99432,0.0,0.0,0.0,3.60963,-19.82434,9.74028,9.83,0.37,0.8,4.0
1758078552.30581,1758078552.00432,0.0,0.0,0.0,3.38045,-18.73572,10.25595,9.73,0.72,1.08,4.0
1758078552.30615,1758078552.01432,0.0,0.0,0.0,2.63561,-16.84496,10.48513,9.73,0.72,1.08,4.0
1758078552.30691,1758078552.02432,0.0,0.0,0.0,1.94806,-16.272,10.25595,9.7,0.47,1.51,4.0
1758078552.31439,1758078552.03432,0.0,0.0,0.0,1.60428,-19.59516,9.96947,9.7,0.47,1.51,4.0
1758078552.31515,1758078552.04432,0.0,0.0,0.0,2.6929,-24.86637,9.91217,9.32,-0.17,1.45,4.0
1758078552.31623,1758078552.05432,0.0,0.0,0.0,3.60963,-26.06958,8.70896,9.81,-1.06,1.44,4.0
1758078552.31704,1758078552.06432,0.0,0.0,0.0,5.32851,-23.0902,7.84952,9.81,-1.06,1.44,4.0
1758078552.32081,1758078552.07432,0.0,0.0,0.0,7.16197,-19.48057,6.41713,11.17,-1.51,1.57,4.0
1758078552.32124,1758078552.08432,0.0,0.0,0.0,10.65701,-15.98552,4.0107,11.17,-1.51,1.57,4.0
1758078552.32317,1758078552.09432,0.0,0.0,0.0,13.46451,-14.15206,2.63561,11.69,-1.5,2.32,4.0
1758078552.32639,1758078552.10432,0.0,0.0,0.0,16.21471,-13.17803,1.3178,11.69,-1.5,2.32,4.0
1758078552.32823,1758078552.11432,0.0,0.0,0.0,18.85031,-12.08941,0.34377,12.12,-1.18,2.61,4.0
1758078552.32926,1758078552.12432,0.0,0.0,0.0,22.34536,-5.55769,-1.3178,13.04,-0.9,2.51,4.0
1758078552.33009,1758078552.13432,0.0,0.0,0.0,24.86637,-2.97938,-1.71887,13.04,-0.9,2.51,4.0
1758078552.33073,1758078552.14432,0.0,0.0,0.0,27.2155,-3.26586,-3.26586,14.12,-1.35,3.03,4.0
1758078552.332,1758078552.15432,0.0,0.0,0.0,29.33544,-4.58366,-4.69825,14.12,-1.35,3.03,4.0
1758078552.33497,1758078552.16432,0.0,0.0,0.0,31.11161,-8.59437,-4.81285,14.91,-2.07,2.13,4.0
1758078552.33641,1758078552.17432,0.0,0.0,0.0,30.99702,-8.0787,-2.63561,14.91,-2.07,2.13,4.0
1758078552.33687,1758078552.18432,0.0,0.0,0.0,31.39809,-1.14592,1.3178,13.66,-1.19,0.82,4.0
1758078552.33842,1758078552.19432,0.0,0.0,0.0,31.85646,8.136,5.55769,13.66,-1.19,0.82,4.0
1758078552.33953,1758078552.20432,0.0,0.0,0.0,31.2262,19.59516,9.5684,12.29,-0.13,0.78,4.0
1758078552.34028,1758078552.21432,0.0,0.0,0.0,30.99702,21.94428,10.71431,10.97,0.08,1.32,4.0
1758078552.34141,1758078552.22432,0.0,0.0,0.0,29.96569,23.0902,10.19865,10.97,0.08,1.32,4.0
1758078552.34213,1758078552.23432,0.0,0.0,0.0,27.61657,21.31403,8.02141,10.67,-0.06,1.33,4.0
1758078552.34328,1758078552.24432,0.0,0.0,0.0,25.61122,14.83961,6.13065,10.67,-0.06,1.33,4.0
1758078552.34555,1758078552.25432,0.0,0.0,0.0,23.31938,10.54242,4.1253,10.66,-0.26,1.44,4.0
1758078552.34674,1758078552.26432,0.0,0.0,0.0,21.25674,7.62034,2.92208,10.66,-0.26,1.44,4.0
1758078552.35249,1758078552.27432,0.0,0.0,0.0,17.76169,4.98473,2.23454,10.43,-0.35,1.46,4.0
1758078552.35577,1758078552.28432,0.0,0.0,0.0,15.64175,4.64096,2.29183,9.83,-0.23,1.48,4.0
1758078552.35675,1758078552.29432,0.0,0.0,0.0,13.40721,4.98473,3.26586,9.83,-0.23,1.48,4.0
1758078552.35767,1758078552.30432,0.0,0.0,0.0,11.34457,5.90147,4.23989,9.49,-0.05,1.64,4.0
1758078552.35908,1758078552.31432,0.0,0.0,0.0,8.30789,5.90147,5.50039,9.49,-0.05,1.64,4.0
1758078552.3606,1758078552.32432,0.0,0.0,0.0,6.47442,5.55769,5.72958,9.2,0.01,1.65,4.0
1758078552.36174,1758078552.33432,0.0,0.0,0.0,4.52637,5.50039,5.4431,9.2,0.01,1.65,4.0
1758078552.36253,1758078552.34432,0.0,0.0,0.0,2.86479,5.90147,4.87014,9.23,-0.02,1.62,4.0
1758078552.37829,1758078552.35432,0.0,0.0,0.0,0.85944,6.8182,3.38045,9.32,-0.1,1.57,4.0
1758078552.38186,1758078552.36432,0.0,0.0,0.0,-0.51566,7.33386,2.29183,9.32,-0.1,1.57,4.0
1758078552.39759,1758078552.37432,0.0,0.0,0.0,-1.71887,7.33386,1.20321,9.3,-0.2,1.46,4.0
1758078552.40092,1758078552.38432,0.0,0.0,0.0,-2.92208,7.33386,0.40107,9.3,-0.2,1.46,4.0
1758078552.41818,1758078552.39432,0.0,0.0,0.0,-4.35448,7.50575,-0.22918,9.31,-0.29,1.26,4.0
1758078552.68141,1758078552.40432,0.0,0.0,0.0,-5.50039,7.96411,-0.51566,9.31,-0.29,1.26,4.0
1758078552.68179,1758078552.41432,0.0,0.0,0.0,-6.24524,8.70896,-0.85944,9.4,-0.33,1.06,4.0
1758078552.68405,1758078552.42432,0.0,0.0,0.0,-6.99009,9.33921,-1.3178,9.4,-0.33,1.06,4.0
1758078552.68682,1758078552.43432,0.0,0.0,0.0,-7.67763,9.62569,-1.60428,9.35,-0.42,0.89,4.0
1758078552.68878,1758078552.44432,0.0,0.0,0.0,-7.84952,9.62569,-2.11994,9.22,-0.55,0.83,4.0
1758078552.6897,1758078552.45432,0.0,0.0,0.0,-7.62034,9.11003,-2.86479,9.22,-0.55,0.83,4.0
1758078552.69019,1758078552.46432,0.0,0.0,0.0,-6.70361,8.30789,-4.18259,9.22,-0.77,0.66,4.0
1758078552.69131,1758078552.47432,0.0,0.0,0.0,-5.72958,7.10468,-4.69825,9.22,-0.77,0.66,4.0
1758078552.69207,1758078552.48432,0.0,0.0,0.0,-4.92744,5.50039,-5.72958,9.21,-0.91,0.54,4.0
1758078552.6948,1758078552.49432,0.0,0.0,0.0,-3.66693,3.55234,-6.18794,9.21,-0.91,0.54,4.0
1758078552.69553,1758078552.50432,0.0,0.0,0.0,-1.94806,0.51566,-6.7609,9.09,-0.92,0.44,4.0
1758078552.69657,1758078552.51432,0.0,0.0,0.0,-0.57296,-1.20321,-6.8182,8.96,-0.85,0.37,4.0
1758078552.69738,1758078552.52432,0.0,0.0,0.0,0.57296,-2.11994,-6.70361,8.96,-0.85,0.37,4.0
1758078552.70079,1758078552.53432,0.0,0.0,0.0,1.94806,-0.57296,-7.04738,8.97,-0.87,0.34,4.0
1758078552.70149,1758078552.54432,0.0,0.0,0.0,4.46907,5.32851,-7.39116,8.97,-0.87,0.34,4.0
1758078552.70287,1758078552.55432,0.0,0.0,0.0,5.72958,12.54778,-7.44845,9.1,-0.88,0.52,4.0
1758078552.70337,1758078552.56432,0.0,0.0,0.0,5.78687,17.24603,-8.42248,9.1,-0.88,0.52,4.0
1758078552.70542,1758078552.57432,0.0,0.0,0.0,6.24524,13.5791,-8.136,8.5,-0.69,0.94,4.0
1758078552.70604,1758078552.58432,0.0,0.0,0.0,6.35983,1.83346,-7.79223,7.11,-0.56,0.86,4.0
1758078552.70727,1758078552.59432,0.0,0.0,0.0,6.58902,-2.00535,-7.21927,7.11,-0.56,0.86,4.0
1758078552.70791,1758078552.60432,0.0,0.0,0.0,7.39116,-3.89611,-6.47442,7.76,-0.67,0.53,4.0
1758078552.70865,1758078552.61432,0.0,0.0,0.0,8.88085,-5.72958,-5.55769,7.76,-0.67,0.53,4.0
1758078552.70974,1758078552.62432,0.0,0.0,0.0,11.51645,-8.25059,-4.92744,8.15,-0.93,0.89,4.0
1758078552.71055,1758078552.63432,0.0,0.0,0.0,13.5218,-9.85487,-4.87014,8.15,-0.93,0.89,4.0
1758078552.71481,1758078552.64432,0.0,0.0,0.0,15.46986,-10.65701,-4.98473,8.37,-1.08,0.66,4.0
1758078552.71563,1758078552.65432,0.0,0.0,0.0,18.27736,-10.65701,-5.21392,8.37,-1.08,0.66,4.0
1758078552.71674,1758078552.66432,0.0,0.0,0.0,20.11082,-11.51645,-5.27121,8.4,-1.04,0.48,4.0
1758078552.71749,1758078552.67432,0.0,0.0,0.0,21.60051,-11.91752,-5.21392,8.21,-0.83,0.46,4.0
1758078552.71864,1758078552.68432,0.0,0.0,0.0,22.91831,-12.2613,-5.09932,8.21,-0.83,0.46,4.0
1758078552.72118,1758078552.69432,0.0,0.0,0.0,24.35071,-12.14671,-4.81285,8.35,-0.61,0.4,4.0
1758078552.72207,1758078552.70432,0.0,0.0,0.0,24.92367,-11.97482,-4.69825,8.35,-0.61,0.4,4.0
1758078552.73844,1758078552.71432,0.0,0.0,0.0,25.15285,-11.63104,-4.87014,8.62,-0.49,0.47,4.0
1758078552.74213,1758078552.72432,0.0,0.0,0.0,24.92367,-10.65701,-4.92744,8.62,-0.49,0.47,4.0
1758078552.76153,1758078552.73432,0.0,0.0,0.0,23.94964,-9.91217,-5.15662,8.9,-0.39,0.39,4.0
1758078552.76337,1758078552.74432,0.0,0.0,0.0,22.97561,-9.68299,-5.32851,8.88,-0.18,0.27,4.0
1758078552.77946,1758078552.75432,0.0,0.0,0.0,21.88699,-10.25595,-5.55769,8.88,-0.18,0.27,4.0
1758078552.78144,1758078552.76432,0.0,0.0,0.0,20.22541,-11.80293,-5.84417,8.65,0.04,0.22,4.0
1758078552.79647,1758078552.77432,0.0,0.0,0.0,17.24603,-13.75099,-6.07335,8.65,0.04,0.22,4.0
1758078552.79841,1758078552.78432,0.0,0.0,0.0,15.24068,-14.78231,-6.13065,8.77,0.12,0.17,4.0
1758078552.81535,1758078552.79432,0.0,0.0,0.0,13.34992,-15.87093,-6.07335,8.77,0.12,0.17,4.0
1758078552.83068,1758078552.80432,0.0,0.0,0.0,11.51645,-17.01685,-5.72958,8.97,0.04,0.28,4.0
1758078552.83195,1758078552.81432,0.0,0.0,0.0,8.36518,-19.48057,-3.60963,9.49,0.18,0.75,4.0
1758078552.84681,1758078552.82432,0.0,0.0,0.0,5.84417,-20.62648,-1.3751,9.49,0.18,0.75,4.0
1758078552.84797,1758078552.83432,0.0,0.0,0.0,3.38045,-20.62648,1.03132,10.45,0.3,1.23,4.0
1758078552.86431,1758078552.84432,0.0,0.0,0.0,0.45837,-19.59516,3.66693,10.45,0.3,1.23,4.0
1758078552.88152,1758078552.85432,0.0,0.0,0.0,-3.72423,-19.59516,5.27121,11.2,0.52,2.2,4.0
1758078552.88351,1758078552.86432,0.0,0.0,0.0,-6.24524,-23.94964,6.53172,11.2,0.52,2.2,4.0
1758078552.90051,1758078552.87432,0.0,0.0,0.0,-8.70896,-27.04361,6.99009,11.6,1.29,2.74,4.0
1758078552.90144,1758078552.88432,0.0,0.0,0.0,-11.91752,-25.89769,4.23989,11.6,1.29,2.74,4.0
1758078552.9181,1758078552.89432,0.0,0.0,0.0,-13.17803,-21.25674,0.34377,12.28,1.62,1.65,4.0
1758078552.92368,1758078552.90432,0.0,0.0,0.0,-14.38124,-13.86558,-4.18259,12.4,1.06,1.6,4.0
1758078552.94286,1758078552.91432,0.0,0.0,0.0,-16.04282,-8.36518,-7.33386,12.4,1.06,1.6,4.0
1758078552.94736,1758078552.92432,0.0,0.0,0.0,-19.99623,-6.07335,-2.11994,14.25,1.46,4.5,4.0
1758078552.94787,1758078552.93432,0.0,0.0,0.0,-24.92367,0.40107,5.27121,14.25,1.46,4.5,4.0
1758078552.96616,1758078552.94432,0.0,0.0,0.0,-30.25217,10.25595,11.63104,18.58,3.41,3.71,4.0
1758078552.96741,1758078552.95432,0.0,0.0,0.0,-35.00772,16.55848,12.204,18.58,3.41,3.71,4.0
1758078552.9841,1758078552.96432,0.0,0.0,0.0,-37.29956,15.64175,3.89611,16.01,2.24,1.21,4.0
1758078553.00055,1758078552.97432,0.0,0.0,0.0,-35.86716,12.204,-4.0107,11.73,-0.47,0.84,4.0
1758078553.00172,1758078552.98432,0.0,0.0,0.0,-32.14294,2.46372,-10.59972,11.73,-0.47,0.84,4.0
1758078553.01655,1758078552.99432,0.0,0.0,0.0,-29.22085,-4.81285,-15.12609,9.84,-1.06,0.69,4.0
1758078553.01875,1758078553.00432,0.0,0.0,0.0,-24.17882,1.77617,-17.30333,9.84,-1.06,0.69,4.0
1758078553.03428,1758078553.01432,0.0,0.0,0.0,-19.76705,19.99623,-12.43318,12.13,-0.67,1.22,4.0
1758078553.04955,1758078553.02432,0.0,0.0,0.0,-14.9542,23.60586,-6.70361,12.13,-0.67,1.22,4.0
1758078553.05547,1758078553.03432,0.0,0.0,0.0,-11.80293,20.62648,-2.00535,12.33,-0.13,1.92,4.0
1758078553.07056,1758078553.04432,0.0,0.0,0.0,-8.47978,15.58445,1.3178,11.88,0.08,1.99,4.0
1758078553.07648,1758078553.05432,0.0,0.0,0.0,-6.58902,10.37054,2.00535,11.88,0.08,1.99,4.0
1758078553.07714,1758078553.06432,0.0,0.0,0.0,-5.15662,6.13065,1.60428,10.6,0.1,0.62,4.0
1758078553.09408,1758078553.07432,0.0,0.0,0.0,-3.49504,3.26586,-0.57296,10.6,0.1,0.62,4.0
1758078553.09767,1758078553.08432,0.0,0.0,0.0,-2.63561,2.57831,-2.97938,9.76,0.25,1.23,4.0
1758078553.11418,1758078553.09432,0.0,0.0,0.0,-1.48969,4.0107,-5.09932,9.76,0.25,1.23,4.0
1758078553.12035,1758078553.10432,0.0,0.0,0.0,-0.22918,6.53172,-7.16197,9.54,0.38,1.49,4.0
1758078553.13587,1758078553.11432,0.0,0.0,0.0,1.83346,8.88085,-9.33921,9.54,0.38,1.49,4.0
1758078553.14184,1758078553.12432,0.0,0.0,0.0,3.38045,8.76626,-10.08406,9.13,0.41,1.49,4.0
1758078553.17153,1758078553.13432,0.0,0.0,0.0,4.92744,7.96411,-10.19865,8.7,0.4,1.35,4.0
1758078553.17643,1758078553.14432,0.0,0.0,0.0,6.70361,6.70361,-9.5684,8.7,0.4,1.35,4.0
1758078553.17819,1758078553.15432,0.0,0.0,0.0,8.47978,4.64096,-7.84952,8.7,0.4,1.15,4.0
1758078553.18072,1758078553.16432,0.0,0.0,0.0,9.4538,3.66693,-6.53172,8.7,0.4,1.15,4.0
1758078553.19636,1758078553.17432,0.0,0.0,0.0,10.25595,3.83882,-5.21392,8.72,0.35,0.96,4.0
1758078553.19832,1758078553.18432,0.0,0.0,0.0,10.94349,4.64096,-3.95341,8.72,0.35,0.96,4.0
1758078553.21583,1758078553.19432,0.0,0.0,0.0,11.91752,4.87014,-2.40642,8.82,0.29,0.96,4.0
1758078553.21678,1758078553.20432,0.0,0.0,0.0,12.60507,4.92744,-1.48969,8.84,0.27,0.93,4.0
1758078553.2367,1758078553.21432,0.0,0.0,0.0,13.12073,6.13065,-1.03132,8.84,0.27,0.93,4.0
1758078553.24139,1758078553.22432,0.0,0.0,0.0,13.46451,6.18794,-0.51566,9.15,0.3,0.78,4.0
1758078553.25689,1758078553.23432,0.0,0.0,0.0,14.09476,6.53172,-0.0573,9.15,0.3,0.78,4.0
1758078553.25867,1758078553.24432,0.0,0.0,0.0,14.49583,7.33386,0.11459,9.46,0.31,0.66,4.0
1758078553.27594,1758078553.25432,0.0,0.0,0.0,15.24068,8.59437,0.45837,9.46,0.31,0.66,4.0
1758078553.27898,1758078553.26432,0.0,0.0,0.0,15.92823,10.08406,1.03132,9.79,0.27,0.36,4.0
1758078553.29495,1758078553.27432,0.0,0.0,0.0,17.01685,11.45916,1.60428,9.77,0.24,0.15,4.0
1758078553.29823,1758078553.28432,0.0,0.0,0.0,17.87628,10.94349,2.00535,9.77,0.24,0.15,4.0
1758078553.31452,1758078553.29432,0.0,0.0,0.0,18.79302,9.4538,2.23454,9.56,0.22,0.15,4.0
1758078553.33098,1758078553.30432,0.0,0.0,0.0,20.68378,6.47442,2.97938,9.56,0.22,0.15,4.0
1758078553.33232,1758078553.31432,0.0,0.0,0.0,21.48592,4.92744,3.09397,9.62,0.17,0.17,4.0
1758078553.34824,1758078553.32432,0.0,0.0,0.0,22.28806,5.50039,3.72423,9.62,0.17,0.17,4.0
1758078553.35023,1758078553.33432,0.0,0.0,0.0,23.20479,9.4538,4.81285,9.97,0.14,0.33,4.0
1758078553.36648,1758078553.34432,0.0,0.0,0.0,24.4653,14.15206,5.95876,9.97,0.14,0.58,4.0
1758078553.3789,1758078553.35432,0.0,0.0,0.0,25.15285,12.77696,6.53172,9.94,0.22,0.58,4.0
1758078553.53014,1758078553.36432,0.0,0.0,0.0,25.21014,10.59972,6.58902,9.13,0.4,0.61,4.0
1758078553.53462,1758078553.37432,0.0,0.0,0.0,24.98096,6.41713,6.8182,9.13,0.4,0.61,4.0
1758078553.5367,1758078553.38432,0.0,0.0,0.0,24.5226,-0.22918,6.7609,8.75,0.56,0.35,4.0
1758078553.54327,1758078553.39432,0.0,0.0,0.0,23.83505,-3.03668,6.99009,8.75,0.56,0.35,4.0
1758078553.54385,1758078553.40432,0.0,0.0,0.0,23.0329,-4.87014,7.16197,8.81,0.76,0.45,4.0
1758078553.55548,1758078553.41432,0.0,0.0,0.0,22.05888,-5.78687,7.67763,8.81,0.76,0.45,4.0
1758078553.55763,1758078553.42432,0.0,0.0,0.0,20.34,-7.16197,8.30789,8.76,0.89,0.5,4.0
1758078553.55837,1758078553.43432,0.0,0.0,0.0,18.90761,-8.25059,8.93814,8.69,0.92,0.55,4.0
1758078553.56112,1758078553.44432,0.0,0.0,0.0,17.47521,-8.76626,9.22462,8.69,0.92,0.55,4.0
1758078553.56189,1758078553.45432,0.0,0.0,0.0,16.3293,-8.99544,9.33921,8.76,0.85,0.4,4.0
1758078553.56617,1758078553.46432,0.0,0.0,0.0,14.78231,-8.36518,9.39651,8.76,0.85,0.4,4.0
1758078553.56692,1758078553.47432,0.0,0.0,0.0,14.15206,-7.67763,9.4538,8.86,0.77,0.35,4.0
1758078553.57199,1758078553.48432,0.0,0.0,0.0,13.5791,-7.21927,9.4538,8.86,0.77,0.35,4.0
1758078553.57532,1758078553.49432,0.0,0.0,0.0,12.60507,-7.39116,9.28192,8.9,0.74,0.38,4.0
1758078553.57623,1758078553.50432,0.0,0.0,0.0,11.63104,-7.50575,9.22462,8.76,0.8,0.33,4.0
1758078553.57687,1758078553.51432,0.0,0.0,0.0,10.54242,-7.67763,8.99544,8.76,0.8,0.33,4.0
1758078553.58153,1758078553.52432,0.0,0.0,0.0,9.05273,-7.96411,8.93814,8.58,0.94,0.23,4.0
1758078553.58189,1758078553.53432,0.0,0.0,0.0,6.47442,-9.28192,8.93814,8.58,0.94,0.23,4.0
1758078553.59066,1758078553.54432,0.0,0.0,0.0,4.46907,-10.65701,9.05273,8.37,1.1,0.25,4.0
1758078553.59177,1758078553.55432,0.0,0.0,0.0,2.40642,-13.23533,9.11003,8.37,1.1,0.25,4.0
1758078553.64256,1758078553.56432,0.0,0.0,0.0,0.68755,-15.92823,8.99544,8.25,1.13,0.35,4.0
1758078553.64307,1758078553.57432,0.0,0.0,0.0,-0.85944,-19.13679,8.47978,8.59,0.95,0.53,4.0
1758078553.6454,1758078553.58432,0.0,0.0,0.0,-1.60428,-20.3973,8.25059,8.59,0.95,0.53,4.0
1758078553.65217,1758078553.59432,0.0,0.0,0.0,-1.94806,-21.37133,8.02141,9.04,0.78,0.35,4.0
1758078553.65585,1758078553.60432,0.0,0.0,0.0,-2.00535,-22.05888,8.136,9.04,0.78,0.35,4.0
1758078553.65698,1758078553.61432,0.0,0.0,0.0,-1.3751,-23.54857,8.76626,9.19,0.66,0.06,4.0
1758078553.65854,1758078553.62432,0.0,0.0,0.0,-0.85944,-24.17882,9.33921,9.19,0.66,0.06,4.0
1758078553.66116,1758078553.63432,0.0,0.0,0.0,-0.17189,-23.54857,9.68299,9.26,0.48,-0.14,4.0
1758078553.66193,1758078553.64432,0.0,0.0,0.0,0.68755,-21.88699,9.74028,9.26,0.48,-0.14,4.0
1758078553.68196,1758078553.65432,0.0,0.0,0.0,2.40642,-19.48057,9.4538,9.47,0.3,-0.16,4.0
1758078553.73178,1758078553.66432,0.0,0.0,0.0,3.89611,-18.90761,9.28192,9.43,0.28,-0.02,4.0
1758078553.7322,1758078553.67432,0.0,0.0,0.0,5.09932,-19.42327,8.99544,9.43,0.28,-0.02,4.0
1758078553.73572,1758078553.68432,0.0,0.0,0.0,5.78687,-20.68378,9.05273,9.07,0.45,-0.06,4.0
1758078553.73669,1758078553.69432,0.0,0.0,0.0,5.95876,-23.37668,8.99544,9.07,0.45,-0.06,4.0
1758078553.73862,1758078553.70432,0.0,0.0,0.0,5.72958,-24.75178,8.47978,9.0,0.43,0.04,4.0
1758078553.73904,1758078553.71432,0.0,0.0,0.0,5.32851,-26.06958,7.73493,9.0,0.43,0.04,4.0
1758078553.74098,1758078553.72432,0.0,0.0,0.0,5.50039,-29.8511,6.70361,9.69,0.11,0.49,4.0
1758078553.75711,1758078553.73432,0.0,0.0,0.0,6.07335,-34.72124,5.61499,10.53,-0.4,1.36,4.0
1758078553.76072,1758078553.74432,0.0,0.0,0.0,7.21927,-38.50277,4.98473,10.53,-0.4,1.36,4.0
1758078553.7758,1758078553.75432,0.0,0.0,0.0,8.25059,-38.73195,4.18259,11.76,-1.08,1.71,4.0
1758078553.77741,1758078553.76432,0.0,0.0,0.0,10.19865,-33.11696,2.97938,11.76,-1.08,1.71,4.0
1758078553.79411,1758078553.77432,0.0,0.0,0.0,11.91752,-27.78845,1.66158,12.57,-1.48,1.81,4.0
1758078553.80983,1758078553.78432,0.0,0.0,0.0,14.03747,-20.97026,0.17189,12.57,-1.48,1.81,4.0
1758078553.81501,1758078553.79432,0.0,0.0,0.0,16.95955,-13.00614,-1.3178,12.98,-1.47,1.83,4.0
1758078553.83168,1758078553.80432,0.0,0.0,0.0,21.37133,0.57296,-2.23454,13.71,-1.16,1.68,4.0
1758078553.8366,1758078553.81432,0.0,0.0,0.0,23.26209,6.24524,-3.09397,13.71,-1.16,1.68,4.0
1758078553.84149,1758078553.82432,0.0,0.0,0.0,24.63719,8.02141,-2.29183,14.42,-1.02,1.76,4.0
1758078553.84976,1758078553.83432,0.0,0.0,0.0,24.00693,4.52637,-1.66158,14.42,-1.02,1.76,4.0
1758078553.86611,1758078553.84432,0.0,0.0,0.0,19.48057,-1.94806,-0.51566,15.09,-0.83,1.32,4.0
1758078553.86704,1758078553.85432,0.0,0.0,0.0,15.35527,0.11459,1.08862,15.09,-0.83,1.32,4.0
1758078553.9437,1758078553.86432,0.0,0.0,0.0,12.2613,8.0787,3.20856,15.36,-0.07,0.12,4.0
1758078553.95206,1758078553.87432,0.0,0.0,0.0,10.48513,19.70975,5.09932,15.36,-0.07,0.12,4.0
1758078553.95581,1758078553.88432,0.0,0.0,0.0,8.99544,31.28349,6.24524,13.93,0.5,0.53,4.0
1758078553.97061,1758078553.89432,0.0,0.0,0.0,8.36518,33.80451,5.90147,11.81,0.24,1.07,4.0
1758078553.97208,1758078553.90432,0.0,0.0,0.0,8.0787,31.91375,4.81285,11.81,0.24,1.07,4.0
1758078553.97693,1758078553.91432,0.0,0.0,0.0,8.136,27.96034,3.26586,10.76,-0.36,1.09,4.0
1758078553.9783,1758078553.92432,0.0,0.0,0.0,7.84952,23.72045,2.29183,10.76,-0.36,1.09,4.0
1758078553.98193,1758078553.93432,0.0,0.0,0.0,7.21927,24.86637,1.3178,10.72,-0.92,1.11,4.0
1758078554.12528,1758078553.94432,0.0,0.0,0.0,7.10468,26.01229,1.48969,10.72,-0.92,1.11,4.0
1758078554.15775,1758078553.95432,0.0,0.0,0.0,6.35983,25.15285,2.40642,10.56,-1.12,1.31,4.0
1758078554.16797,1758078553.96432,0.0,0.0,0.0,5.55769,23.72045,3.03668,9.72,-0.95,1.43,4.0
1758078554.17204,1758078553.97432,0.0,0.0,0.0,4.69825,22.57454,3.66693,9.72,-0.95,1.43,4.0
1758078554.18195,1758078553.98432,0.0,0.0,0.0,3.66693,21.42862,4.29718,9.02,-0.64,1.07,4.0
1758078554.18605,1758078553.99432,0.0,0.0,0.0,1.94806,19.70975,4.35448,9.02,-0.64,1.07,4.0
1758078554.19714,1758078554.00432,0.0,0.0,0.0,0.80214,17.87628,3.89611,8.45,-0.41,1.15,4.0
1758078554.1977,1758078554.01432,0.0,0.0,0.0,-0.22918,16.50119,2.92208,8.45,-0.41,1.15,4.0
1758078554.20242,1758078554.02432,0.0,0.0,0.0,-1.14592,15.35527,1.66158,8.28,-0.37,1.18,4.0
1758078554.20631,1758078554.03432,0.0,0.0,0.0,-2.23454,14.32395,-0.11459,8.49,-0.44,1.09,4.0
1758078554.21389,1758078554.04432,0.0,0.0,0.0,-2.6929,13.69369,-1.20321,8.49,-0.44,1.09,4.0
1758078554.22167,1758078554.05432,0.0,0.0,0.0,-2.97938,13.34992,-1.94806,8.57,-0.64,0.9,4.0
1758078554.22335,1758078554.06432,0.0,0.0,0.0,-3.09397,13.5791,-2.46372,8.57,-0.64,0.9,4.0
1758078554.22599,1758078554.07432,0.0,0.0,0.0,-2.97938,13.98017,-2.6929,8.67,-0.85,0.88,4.0
1758078554.22635,1758078554.08432,0.0,0.0,0.0,-2.34913,14.43854,-2.97938,8.67,-0.85,0.88,4.0
1758078554.23578,1758078554.09432,0.0,0.0,0.0,-1.48969,13.69369,-2.46372,8.84,-1.06,0.94,4.0
1758078554.23615,1758078554.10432,0.0,0.0,0.0,-0.51566,13.46451,-2.11994,8.84,-1.06,0.94,4.0
1758078554.28583,1758078554.11432,0.0,0.0,0.0,1.03132,9.4538,-2.00535,8.84,-1.12,0.83,4.0
1758078554.28667,1758078554.12432,0.0,0.0,0.0,1.71887,4.92744,-1.94806,8.54,-1.09,0.67,4.0
1758078554.29172,1758078554.13432,0.0,0.0,0.0,2.63561,-0.17189,-2.23454,8.54,-1.09,0.67,4.0
1758078554.29468,1758078554.14432,0.0,0.0,0.0,4.29718,-4.98473,-2.46372,8.36,-1.02,0.2,4.0
1758078554.2959,1758078554.15432,0.0,0.0,0.0,5.27121,-3.66693,-2.34913,8.36,-1.02,0.2,4.0
1758078554.29656,1758078554.16432,0.0,0.0,0.0,5.72958,-0.34377,-2.34913,8.76,-0.86,0.14,4.0
1758078554.29779,1758078554.17432,0.0,0.0,0.0,5.21392,6.35983,-2.97938,8.76,-0.86,0.14,4.0
1758078554.30087,1758078554.18432,0.0,0.0,0.0,3.95341,15.35527,-4.98473,9.05,-0.6,0.5,4.0
1758078554.30237,1758078554.19432,0.0,0.0,0.0,3.26586,13.17803,-6.07335,8.14,-0.33,0.93,4.0
1758078554.30614,1758078554.20432,0.0,0.0,0.0,2.6929,6.87549,-7.16197,8.14,-0.33,0.93,4.0
1758078554.31037,1758078554.21432,0.0,0.0,0.0,2.6929,2.06265,-7.84952,7.73,-0.49,0.79,4.0
1758078554.31174,1758078554.22432,0.0,0.0,0.0,4.0107,-2.29183,-8.02141,7.73,-0.49,0.79,4.0
1758078554.31303,1758078554.23432,0.0,0.0,0.0,5.55769,-5.55769,-7.67763,8.46,-0.87,0.46,4.0
1758078554.31599,1758078554.24432,0.0,0.0,0.0,7.33386,-9.33921,-7.16197,8.46,-0.87,0.46,4.0
1758078554.31682,1758078554.25432,0.0,0.0,0.0,8.76626,-13.46451,-6.7609,8.4,-1.1,0.79,4.0
1758078554.31861,1758078554.26432,0.0,0.0,0.0,10.65701,-17.6471,-5.72958,8.17,-1.02,0.8,4.0
1758078554.3222,1758078554.27432,0.0,0.0,0.0,11.63104,-19.48057,-5.15662,8.17,-1.02,0.8,4.0
1758078554.32288,1758078554.28432,0.0,0.0,0.0,11.91752,-20.34,-4.69825,8.02,-0.8,0.44,4.0
1758078554.32366,1758078554.29432,0.0,0.0,0.0,12.2613,-20.51189,-3.89611,8.02,-0.8,0.44,4.0
1758078554.32563,1758078554.30432,0.0,0.0,0.0,12.2613,-19.76705,-2.97938,8.06,-0.61,0.36,4.0
1758078554.34127,1758078554.31432,0.0,0.0,0.0,12.14671,-18.85031,-2.7502,8.06,-0.61,0.36,4.0
1758078554.34217,1758078554.32432,0.0,0.0,0.0,12.08941,-17.87628,-3.03668,8.34,-0.6,0.46,4.0
1758078554.35804,1758078554.33432,0.0,0.0,0.0,11.74564,-16.3293,-4.52637,8.34,-0.6,0.46,4.0
1758078554.36315,1758078554.34432,0.0,0.0,0.0,11.63104,-12.43318,-5.61499,8.74,-0.73,0.55,4.0
1758078554.42513,1758078554.35432,0.0,0.0,0.0,11.51645,-9.28192,-6.8182,9.06,-0.79,0.53,4.0
1758078554.43127,1758078554.36432,0.0,0.0,0.0,11.11538,-6.24524,-8.0787,9.06,-0.79,0.53,4.0
1758078554.43166,1758078554.37432,0.0,0.0,0.0,10.25595,-2.29183,-9.05273,9.12,-0.64,0.26,4.0
1758078554.43623,1758078554.38432,0.0,0.0,0.0,9.11003,-1.08862,-9.28192,9.12,-0.64,0.26,4.0
1758078554.44012,1758078554.39432,0.0,0.0,0.0,7.73493,-1.14592,-8.76626,8.89,-0.44,-0.1,4.0
1758078554.44176,1758078554.40432,0.0,0.0,0.0,6.07335,-3.38045,-9.39651,8.89,-0.44,-0.1,4.0
1758078554.44433,1758078554.41432,0.0,0.0,0.0,3.03668,-2.06265,-9.33921,8.8,-0.32,-0.38,4.0
1758078554.44654,1758078554.42432,0.0,0.0,0.0,1.20321,0.40107,-9.11003,9.45,-0.32,-0.45,4.0
1758078554.44827,1758078554.43432,0.0,0.0,0.0,-0.17189,2.7502,-8.70896,9.45,-0.32,-0.45,4.0
1758078554.4662,1758078554.44432,0.0,0.0,0.0,-1.48969,4.35448,-8.25059,9.41,-0.39,-0.28,4.0
1758078554.47524,1758078554.45432,0.0,0.0,0.0,-3.55234,5.78687,-6.53172,9.41,-0.39,-0.28,4.0
1758078554.52122,1758078554.46432,0.0,0.0,0.0,-4.98473,4.98473,-4.81285,9.47,-0.31,0.22,4.0
1758078554.55496,1758078554.47432,0.0,0.0,0.0,-6.7609,3.03668,-2.92208,9.47,-0.31,0.22,4.0
1758078554.55534,1758078554.48432,0.0,0.0,0.0,-8.70896,0.80214,-0.80214,9.74,-0.07,0.86,4.0
1758078554.55983,1758078554.49432,0.0,0.0,0.0,-13.00614,-3.60963,1.03132,10.25,0.26,1.74,4.0
1758078554.56043,1758078554.50432,0.0,0.0,0.0,-16.10011,-5.78687,2.06265,10.25,0.26,1.74,4.0
1758078554.56168,1758078554.51432,0.0,0.0,0.0,-19.70975,-7.39116,2.7502,11.83,1.24,2.44,4.0
1758078554.56224,1758078554.52432,0.0,0.0,0.0,-23.49127,-8.0787,2.6929,11.83,1.24,2.44,4.0
1758078554.56647,1758078554.53432,0.0,0.0,0.0,-29.10626,-6.8182,1.43239,12.92,2.03,2.17,4.0
1758078554.56757,1758078554.54432,0.0,0.0,0.0,-32.71589,-4.52637,-0.34377,12.92,2.03,2.17,4.0
1758078554.56804,1758078554.55432,0.0,0.0,0.0,-36.7266,-2.7502,-1.3751,13.2,2.04,2.02,4.0
1758078554.58642,1758078554.56432,0.0,0.0,0.0,-43.65939,-0.17189,2.23454,13.2,2.04,2.02,4.0
1758078554.58951,1758078554.57432,0.0,0.0,0.0,-47.67009,5.21392,5.78687,16.09,2.86,4.1,4.0
1758078554.60577,1758078554.58432,0.0,0.0,0.0,-50.53488,11.91752,5.4431,18.21,3.16,2.02,4.0
1758078554.62139,1758078554.59432,0.0,0.0,0.0,-49.84733,12.43318,-1.3178,18.21,3.16,2.02,4.0
1758078554.62229,1758078554.60432,0.0,0.0,0.0,-45.83662,-6.35983,-13.5218,13.02,-0.12,0.28,4.0
1758078554.63842,1758078554.61432,0.0,0.0,0.0,-39.4768,-16.95955,-17.18874,13.02,-0.12,0.28,4.0
1758078554.64119,1758078554.62432,0.0,0.0,0.0,-35.2942,-13.34992,-21.37133,10.86,-2.1,-0.42,4.0
1758078554.6562,1758078554.63432,0.0,0.0,0.0,-31.16891,-9.33921,-22.57454,10.86,-2.1,-0.42,4.0
1758078554.65761,1758078554.64432,0.0,0.0,0.0,-25.15285,-5.84417,-19.76705,11.27,-1.81,-0.03,4.0
1758078554.67469,1758078554.65432,0.0,0.0,0.0,-21.42862,2.34913,-13.98017,12.41,-0.33,1.47,4.0
1758078554.69095,1758078554.66432,0.0,0.0,0.0,-19.07949,8.88085,-8.136,12.41,-0.33,1.47,4.0
1758078554.69458,1758078554.67432,0.0,0.0,0.0,-17.58981,11.57375,-3.89611,12.91,0.61,2.24,4.0
1758078554.71125,1758078554.68432,0.0,0.0,0.0,-16.84496,10.54242,-0.68755,12.91,0.61,2.24,4.0
1758078554.72091,1758078554.69432,0.0,0.0,0.0,-16.84496,7.50575,-0.85944,11.81,0.84,1.16,4.0
1758078554.7226,1758078554.70432,0.0,0.0,0.0,-16.95955,4.0107,-2.46372,11.81,0.84,1.16,4.0
1758078554.7966,1758078554.71432,0.0,0.0,0.0,-16.90226,-0.51566,-4.98473,10.55,0.78,0.79,4.0
1758078554.79865,1758078554.72432,0.0,0.0,0.0,-16.21471,-4.35448,-8.36518,9.73,0.7,1.17,4.0
1758078554.80177,1758078554.73432,0.0,0.0,0.0,-15.0115,-5.09932,-9.96947,9.73,0.7,1.17,4.0
1758078554.80293,1758078554.74432,0.0,0.0,0.0,-13.23533,-4.69825,-10.71431,9.48,0.54,1.32,4.0
1758078554.80465,1758078554.75432,0.0,0.0,0.0,-10.48513,-3.72423,-10.71431,9.48,0.54,1.32,4.0
1758078554.8064,1758078554.76432,0.0,0.0,0.0,-8.76626,-2.7502,-10.19865,9.29,0.31,1.23,4.0
1758078554.80783,1758078554.77432,0.0,0.0,0.0,-7.16197,-2.6929,-9.28192,9.29,0.31,1.23,4.0
1758078554.81182,1758078554.78432,0.0,0.0,0.0,-5.90147,-2.7502,-8.136,8.99,0.09,1.12,4.0
1758078554.81401,1758078554.79432,0.0,0.0,0.0,-4.87014,-2.92208,-6.7609,8.99,0.09,1.12,4.0
1758078554.81736,1758078554.80432,0.0,0.0,0.0,-4.35448,-0.57296,-6.07335,8.85,0.05,1.21,4.0
1758078554.83422,1758078554.81432,0.0,0.0,0.0,-3.89611,2.92208,-5.55769,9.08,0.16,1.23,4.0
1758078554.85018,1758078554.82432,0.0,0.0,0.0,-3.20856,5.4431,-4.92744,9.08,0.16,1.23,4.0
1758078554.85168,1758078554.83432,0.0,0.0,0.0,-2.11994,6.18794,-4.58366,8.94,0.33,1.17,4.0
1758078554.86627,1758078554.84432,0.0,0.0,0.0,-1.03132,5.4431,-4.46907,8.94,0.33,1.17,4.0
1758078554.86821,1758078554.85432,0.0,0.0,0.0,-0.11459,4.46907,-4.29718,8.75,0.37,0.77,4.0
1758078554.88424,1758078554.86432,0.0,0.0,0.0,0.80214,4.23989,-3.95341,8.75,0.37,0.77,4.0
1758078554.90153,1758078554.87432,0.0,0.0,0.0,2.06265,5.78687,-3.26586,8.91,0.33,0.53,4.0
1758078554.90244,1758078554.88432,0.0,0.0,0.0,3.20856,6.8182,-2.57831,9.39,0.29,0.65,4.0
1758078554.91728,1758078554.89432,0.0,0.0,0.0,3.89611,8.93814,-1.94806,9.39,0.29,0.65,4.0
1758078554.92085,1758078554.90432,0.0,0.0,0.0,4.81285,11.00079,-1.20321,9.89,0.34,0.6,4.0
1758078554.93642,1758078554.91432,0.0,0.0,0.0,6.53172,13.23533,-0.51566,9.89,0.34,0.6,4.0
1758078554.93832,1758078554.92432,0.0,0.0,0.0,7.79223,13.5218,0.0,10.04,0.32,0.42,4.0
1758078554.95637,1758078554.93432,0.0,0.0,0.0,9.05273,13.00614,0.40107,10.04,0.32,0.42,4.0
1758078554.95855,1758078554.94432,0.0,0.0,0.0,10.08406,11.22997,1.03132,10.04,0.27,0.25,4.0
1758078554.97628,1758078554.95432,0.0,0.0,0.0,11.34457,7.62034,1.43239,10.06,0.23,0.17,4.0
1758078554.97725,1758078554.96432,0.0,0.0,0.0,12.08941,4.46907,1.71887,10.06,0.23,0.17,4.0
1758078554.99507,1758078554.97432,0.0,0.0,0.0,12.37589,1.48969,1.77617,9.92,0.28,0.1,4.0
1758078555.01149,1758078554.98432,0.0,0.0,0.0,12.71966,-1.60428,1.94806,9.92,0.28,0.1,4.0
1758078555.01676,1758078554.99432,0.0,0.0,0.0,12.71966,-2.7502,1.83346,9.82,0.45,0.02,4.0
1758078555.03127,1758078555.00432,0.0,0.0,0.0,12.60507,-3.89611,1.83346,9.82,0.45,0.02,4.0
1758078555.03492,1758078555.01432,0.0,0.0,0.0,12.60507,-4.87014,1.77617,9.69,0.62,0.0,4.0
1758078555.05042,1758078555.02432,0.0,0.0,0.0,12.43318,-6.41713,1.83346,9.69,0.62,0.0,4.0
1758078555.05146,1758078555.03432,0.0,0.0,0.0,12.54778,-6.87549,1.83346,9.47,0.62,0.0,4.0
1758078555.06626,1758078555.04432,0.0,0.0,0.0,12.60507,-7.21927,2.11994,9.32,0.45,0.11,4.0
1758078555.06859,1758078555.05432,0.0,0.0,0.0,12.83425,-8.0787,2.11994,9.32,0.45,0.11,4.0
1758078555.08959,1758078555.06432,0.0,0.0,0.0,13.00614,-10.08406,2.23454,9.06,0.43,0.22,4.0
1758078555.0921,1758078555.07432,0.0,0.0,0.0,12.89155,-11.45916,2.11994,9.06,0.43,0.22,4.0
1758078555.10937,1758078555.08432,0.0,0.0,0.0,12.83425,-12.77696,1.83346,8.93,0.62,0.12,4.0
1758078555.1113,1758078555.09432,0.0,0.0,0.0,12.54778,-13.5791,1.94806,8.93,0.62,0.12,4.0
1758078555.12635,1758078555.10432,0.0,0.0,0.0,11.91752,-14.72501,2.00535,8.99,0.83,0.17,4.0
1758078555.13153,1758078555.11432,0.0,0.0,0.0,11.34457,-15.35527,1.94806,9.09,0.92,0.35,4.0
1758078555.15036,1758078555.12432,0.0,0.0,0.0,10.59972,-16.04282,1.94806,9.09,0.92,0.35,4.0
1758078555.15152,1758078555.13432,0.0,0.0,0.0,9.74028,-17.01685,1.94806,9.13,0.91,0.54,4.0
1758078555.16633,1758078555.14432,0.0,0.0,0.0,8.30789,-15.24068,1.77617,9.13,0.91,0.54,4.0
1758078555.27773,1758078555.15432,0.0,0.0,0.0,6.99009,-11.86023,1.77617,9.52,0.9,0.74,4.0
1758078555.28015,1758078555.16432,0.0,0.0,0.0,5.72958,-8.59437,1.83346,9.52,0.9,0.74,4.0
1758078555.28202,1758078555.17432,0.0,0.0,0.0,4.35448,-5.84417,2.34913,9.79,0.87,0.93,4.0
1758078555.28269,1758078555.18432,0.0,0.0,0.0,3.89611,-4.81285,2.92208,9.48,0.72,0.71,4.0
1758078555.28393,1758078555.19432,0.0,0.0,0.0,3.60963,-5.90147,3.32316,9.48,0.72,0.71,4.0
1758078555.28618,1758078555.20432,0.0,0.0,0.0,3.49504,-7.04738,3.66693,9.04,0.52,0.24,4.0
1758078555.28685,1758078555.21432,0.0,0.0,0.0,3.09397,-8.25059,4.1253,9.04,0.52,0.24,4.0
1758078555.28883,1758078555.22432,0.0,0.0,0.0,2.63561,-8.36518,4.52637,8.93,0.56,-0.02,4.0
1758078555.29105,1758078555.23432,0.0,0.0,0.0,2.06265,-8.0787,4.69825,8.93,0.56,-0.02,4.0
1758078555.2923,1758078555.24432,0.0,0.0,0.0,1.08862,-6.7609,5.21392,8.97,0.73,-0.05,4.0
1758078555.29617,1758078555.25432,0.0,0.0,0.0,-1.08862,-3.89611,5.78687,9.05,1.0,0.05,4.0
1758078555.29739,1758078555.26432,0.0,0.0,0.0,-2.63561,-1.83346,6.35983,9.05,1.0,0.05,4.0
1758078555.30282,1758078555.27432,0.0,0.0,0.0,-4.23989,0.45837,7.04738,9.05,1.19,0.14,4.0
1758078555.30397,1758078555.28432,0.0,0.0,0.0,-5.61499,2.97938,7.67763,9.05,1.19,0.14,4.0
1758078555.33395,1758078555.29432,0.0,0.0,0.0,-7.21927,4.81285,8.59437,9.02,1.17,0.18,4.0
1758078555.3373,1758078555.30432,0.0,0.0,0.0,-7.79223,5.61499,8.99544,9.02,1.17,0.18,4.0
1758078555.33793,1758078555.31432,0.0,0.0,0.0,-8.136,5.55769,9.22462,9.01,0.9,0.03,4.0
1758078555.34187,1758078555.32432,0.0,0.0,0.0,-7.62034,4.98473,9.22462,9.01,0.9,0.03,4.0
1758078555.35667,1758078555.33432,0.0,0.0,0.0,-6.24524,5.15662,9.4538,9.29,0.49,-0.28,4.0
1758078555.3611,1758078555.34432,0.0,0.0,0.0,-4.98473,5.90147,9.4538,9.66,0.2,-0.58,4.0
1758078555.37646,1758078555.35432,0.0,0.0,0.0,-3.55234,7.21927,10.02676,9.66,0.2,-0.58,4.0
1758078555.37842,1758078555.36432,0.0,0.0,0.0,-2.00535,6.24524,11.00079,9.46,0.19,-0.57,4.0
1758078555.39671,1758078555.37432,0.0,0.0,0.0,0.40107,1.66158,12.49048,9.46,0.19,-0.57,4.0
1758078555.39765,1758078555.38432,0.0,0.0,0.0,1.3751,-1.3178,13.23533,8.64,0.25,-0.57,4.0
1758078555.41544,1758078555.39432,0.0,0.0,0.0,1.94806,-8.76626,14.72501,8.64,0.25,-0.57,4.0
1758078555.41828,1758078555.40431,0.0,0.0,0.0,1.77617,-18.33465,16.04282,7.48,0.3,-0.46,4.0
1758078555.43682,1758078555.41431,0.0,0.0,0.0,0.85944,-22.63183,16.3293,7.14,0.3,-0.37,4.0
1758078555.46188,1758078555.42431,0.0,0.0,0.0,-0.11459,-26.75713,16.10011,7.14,0.3,-0.37,4.0
1758078555.46315,1758078555.43431,0.0,0.0,0.0,-1.83346,-29.56462,15.58445,7.25,0.16,0.01,4.0
1758078555.4657,1758078555.44431,0.0,0.0,0.0,-3.95341,-32.37212,14.09476,7.25,0.16,0.01,4.0
1758078555.48169,1758078555.45431,0.0,0.0,0.0,-4.69825,-33.05967,12.37589,8.27,-0.19,1.02,4.0
1758078555.48264,1758078555.46431,0.0,0.0,0.0,-4.52637,-33.05967,10.31324,8.27,-0.19,1.02,4.0
1758078555.49856,1758078555.47431,0.0,0.0,0.0,-2.97938,-32.08564,8.02141,10.18,-0.61,1.66,4.0
1758078555.5005,1758078555.48431,0.0,0.0,0.0,1.83346,-28.07493,4.18259,12.42,-1.13,1.92,4.0
1758078555.51674,1758078555.49431,0.0,0.0,0.0,6.58902,-24.12152,1.66158,12.42,-1.13,1.92,4.0
1758078555.51838,1758078555.50431,0.0,0.0,0.0,11.80293,-16.61578,-0.11459,14.32,-1.77,2.05,4.0
1758078555.53546,1758078555.51431,0.0,0.0,0.0,16.67307,-10.37054,-3.72423,14.32,-1.77,2.05,4.0
1758078555.53861,1758078555.52431,0.0,0.0,0.0,26.24147,-17.24603,-5.61499,15.62,-2.79,2.65,4.0
1758078555.55482,1758078555.53431,0.0,0.0,0.0,29.10626,-31.11161,-5.90147,15.62,-2.79,2.65,4.0
1758078555.57075,1758078555.54431,0.0,0.0,0.0,29.39274,-39.53409,-3.26586,15.67,-3.42,1.31,4.0
1758078555.57168,1758078555.55431,0.0,0.0,0.0,28.36141,-36.03905,3.32316,15.67,-3.42,1.31,4.0
1758078555.58669,1758078555.56431,0.0,0.0,0.0,26.18417,-7.33386,15.0115,15.95,-0.98,-1.22,4.0
1758078555.59204,1758078555.57431,0.0,0.0,0.0,23.83505,13.75099,19.99623,14.99,1.35,-0.44,4.0
1758078555.60829,1758078555.58431,0.0,0.0,0.0,20.3973,27.84575,21.37133,14.99,1.35,-0.44,4.0
1758078555.61033,1758078555.59431,0.0,0.0,0.0,14.09476,22.86102,17.81899,11.22,1.87,0.81,4.0
1758078555.62577,1758078555.60431,0.0,0.0,0.0,11.34457,5.27121,13.5218,11.22,1.87,0.81,4.0
1758078555.6418,1758078555.61431,0.0,0.0,0.0,8.65166,-0.57296,8.93814,8.73,0.93,0.49,4.0
1758078555.64274,1758078555.62431,0.0,0.0,0.0,4.46907,11.74564,2.06265,8.73,0.93,0.49,4.0
1758078555.65862,1758078555.63431,0.0,0.0,0.0,0.74485,23.37668,-3.66693,12.11,-0.32,0.02,4.0
1758078555.66219,1758078555.64431,0.0,0.0,0.0,-1.08862,22.34536,-5.4431,11.32,-0.78,1.15,4.0
1758078555.67861,1758078555.65431,0.0,0.0,0.0,-2.46372,22.11617,-5.61499,11.32,-0.78,1.15,4.0
1758078555.68027,1758078555.66431,0.0,0.0,0.0,-4.0107,25.8404,-5.21392,11.24,-0.59,0.22,4.0
1758078555.69553,1758078555.67431,0.0,0.0,0.0,-5.55769,28.87707,-3.38045,11.24,-0.59,0.22,4.0
1758078555.71157,1758078555.68431,0.0,0.0,0.0,-5.84417,25.21014,-1.77617,10.46,-0.35,-0.04,4.0
1758078555.71551,1758078555.69431,0.0,0.0,0.0,-6.35983,20.34,-1.08862,10.46,-0.35,-0.04,4.0
1758078555.73717,1758078555.70431,0.0,0.0,0.0,-6.53172,14.32395,-1.03132,9.26,-0.38,0.37,4.0
1758078555.82725,1758078555.71431,0.0,0.0,0.0,-6.7609,6.35983,-1.83346,8.77,-0.63,0.09,4.0
1758078555.82977,1758078555.72431,0.0,0.0,0.0,-7.10468,3.55234,-2.46372,8.77,-0.63,0.09,4.0
1758078555.83068,1758078555.73431,0.0,0.0,0.0,-7.50575,2.29183,-3.55234,8.97,-0.78,0.11,4.0
1758078555.83134,1758078555.74431,0.0,0.0,0.0,-7.79223,2.92208,-4.58366,8.97,-0.78,0.11,4.0
1758078555.83463,1758078555.75431,0.0,0.0,0.0,-7.39116,5.95876,-5.55769,9.3,-0.82,0.27,4.0
1758078555.83505,1758078555.76431,0.0,0.0,0.0,-7.04738,9.28192,-5.32851,9.3,-0.82,0.27,4.0
1758078555.83633,1758078555.77431,0.0,0.0,0.0,-6.8182,14.66772,-5.15662,9.52,-0.85,0.24,4.0
1758078555.83856,1758078555.78431,0.0,0.0,0.0,-7.21927,19.76705,-5.61499,9.52,-0.85,0.24,4.0
1758078555.83897,1758078555.79431,0.0,0.0,0.0,-7.04738,25.49662,-5.84417,9.61,-0.84,0.26,4.0
1758078555.8409,1758078555.80431,0.0,0.0,0.0,-6.87549,26.47065,-6.18794,9.17,-0.8,0.29,4.0
1758078555.84168,1758078555.81431,0.0,0.0,0.0,-6.58902,25.61122,-6.07335,9.17,-0.8,0.29,4.0
1758078555.84467,1758078555.82431,0.0,0.0,0.0,-6.47442,20.45459,-6.53172,8.55,-0.77,0.17,4.0
1758078555.86196,1758078555.83431,0.0,0.0,0.0,-6.18794,14.72501,-6.87549,8.55,-0.77,0.17,4.0
1758078555.86366,1758078555.84431,0.0,0.0,0.0,-5.90147,8.76626,-7.50575,7.86,-0.8,-0.07,4.0
1758078555.87973,1758078555.85431,0.0,0.0,0.0,-5.32851,4.46907,-7.73493,7.86,-0.8,-0.07,4.0
1758078555.88138,1758078555.86431,0.0,0.0,0.0,-3.60963,1.3178,-7.67763,7.96,-0.95,-0.28,4.0
1758078555.89685,1758078555.87431,0.0,0.0,0.0,-1.71887,-0.57296,-7.44845,8.21,-1.17,-0.2,4.0
1758078555.90042,1758078555.88431,0.0,0.0,0.0,0.45837,-2.11994,-6.8182,8.21,-1.17,-0.2,4.0
1758078555.91587,1758078555.89431,0.0,0.0,0.0,2.40642,-4.29718,-6.24524,8.17,-1.34,-0.22,4.0
1758078555.93197,1758078555.90431,0.0,0.0,0.0,5.21392,-8.0787,-5.21392,8.17,-1.34,-0.22,4.0
1758078555.93446,1758078555.91431,0.0,0.0,0.0,6.41713,-11.22997,-4.87014,8.12,-1.43,-0.26,4.0
1758078555.95157,1758078555.92431,0.0,0.0,0.0,7.44845,-13.46451,-4.81285,8.12,-1.43,-0.26,4.0
1758078555.95351,1758078555.93431,0.0,0.0,0.0,8.36518,-14.15206,-4.92744,8.17,-1.43,-0.28,4.0
1758078555.97018,1758078555.94431,0.0,0.0,0.0,9.33921,-14.03747,-5.4431,8.37,-1.25,-0.11,4.0
1758078555.97141,1758078555.95431,0.0,0.0,0.0,10.02676,-13.34992,-5.78687,8.37,-1.25,-0.11,4.0
1758078555.98669,1758078555.96431,0.0,0.0,0.0,10.65701,-12.08941,-6.24524,8.48,-0.99,0.03,4.0
1758078555.99024,1758078555.97431,0.0,0.0,0.0,11.00079,-11.34457,-6.53172,8.48,-0.99,0.03,4.0
1758078556.00562,1758078555.98431,0.0,0.0,0.0,11.74564,-10.59972,-7.04738,8.47,-0.84,0.0,4.0
1758078556.02165,1758078555.99431,0.0,0.0,0.0,12.2613,-9.4538,-7.39116,8.47,-0.84,0.0,4.0
1758078556.02684,1758078556.00431,0.0,0.0,0.0,12.83425,-7.96411,-7.62034,8.55,-0.85,-0.11,4.0
1758078556.03146,1758078556.01431,0.0,0.0,0.0,13.46451,-5.90147,-7.96411,8.55,-0.85,-0.11,4.0
1758078556.05096,1758078556.02431,0.0,0.0,0.0,13.69369,-6.99009,-8.02141,8.54,-0.94,-0.2,4.0
1758078556.05204,1758078556.03431,0.0,0.0,0.0,13.5218,-9.05273,-8.30789,8.33,-1.01,-0.22,4.0
1758078556.07075,1758078556.04431,0.0,0.0,0.0,13.17803,-10.65701,-8.30789,8.33,-1.01,-0.22,4.0
1758078556.07165,1758078556.05431,0.0,0.0,0.0,12.49048,-12.14671,-7.84952,8.54,-1.03,-0.33,4.0
1758078556.08696,1758078556.06431,0.0,0.0,0.0,12.49048,-12.2613,-7.33386,8.54,-1.03,-0.33,4.0
1758078556.09188,1758078556.07431,0.0,0.0,0.0,12.49048,-12.204,-6.53172,8.7,-1.01,-0.23,4.0
1758078556.11051,1758078556.08431,0.0,0.0,0.0,12.49048,-12.49048,-5.72958,8.7,-1.01,-0.23,4.0
1758078556.11168,1758078556.09431,0.0,0.0,0.0,12.54778,-13.12073,-5.09932,8.42,-0.99,0.0,4.0
1758078556.12674,1758078556.10431,0.0,0.0,0.0,12.83425,-13.40721,-4.92744,8.0,-0.95,0.08,4.0
1758078556.13216,1758078556.11431,0.0,0.0,0.0,12.83425,-14.32395,-5.27121,8.0,-0.95,0.08,4.0
1758078556.15155,1758078556.12431,0.0,0.0,0.0,12.60507,-15.69904,-4.81285,8.0,-0.66,0.47,4.0
1758078556.15501,1758078556.13431,0.0,0.0,0.0,11.51645,-18.79302,-2.86479,8.0,-0.66,0.47,4.0
1758078556.17002,1758078556.14431,0.0,0.0,0.0,9.85487,-20.51189,-1.14592,8.99,-0.16,1.07,4.0
1758078556.17093,1758078556.15431,0.0,0.0,0.0,7.10468,-21.6578,0.68755,8.99,-0.16,1.07,4.0
1758078556.18593,1758078556.16431,0.0,0.0,0.0,3.20856,-21.02755,3.49504,11.03,0.65,2.27,4.0
1758078556.20203,1758078556.17431,0.0,0.0,0.0,-4.98473,-17.18874,6.87549,13.83,2.06,2.67,4.0
1758078556.20292,1758078556.18431,0.0,0.0,0.0,-11.28727,-12.204,6.7609,13.83,2.06,2.67,4.0
1758078556.21802,1758078556.19431,0.0,0.0,0.0,-17.01685,-6.87549,3.83882,14.3,2.6,1.42,4.0
1758078556.22087,1758078556.20431,0.0,0.0,0.0,-21.48592,-2.63561,-4.29718,14.3,2.6,1.42,4.0
1758078556.23608,1758078556.21431,0.0,0.0,0.0,-25.49662,4.46907,-9.96947,12.95,2.13,0.56,4.0
1758078556.25204,1758078556.22431,0.0,0.0,0.0,-27.44468,9.22462,-12.08941,12.95,2.13,0.56,4.0
1758078556.25486,1758078556.23431,0.0,0.0,0.0,-29.56462,14.03747,-9.22462,14.99,2.61,2.61,4.0
1758078556.27004,1758078556.24431,0.0,0.0,0.0,-33.86181,23.26209,-1.43239,14.99,2.61,2.61,4.0
1758078556.27133,1758078556.25431,0.0,0.0,0.0,-33.51803,17.47521,0.0573,18.93,4.01,2.33,4.0
1758078556.28572,1758078556.26431,0.0,0.0,0.0,-31.2262,1.94806,-0.85944,14.94,1.08,-0.18,4.0
1758078556.30203,1758078556.27431,0.0,0.0,0.0,-27.96034,-5.90147,-4.35448,14.94,1.08,-0.18,4.0
1758078556.30298,1758078556.28431,0.0,0.0,0.0,-25.21014,12.08941,-13.00614,13.71,-1.92,-1.7,4.0
1758078556.31806,1758078556.29431,0.0,0.0,0.0,-22.57454,25.43933,-15.98552,13.71,-1.92,-1.7,4.0
1758078556.32099,1758078556.30431,0.0,0.0,0.0,-20.45459,33.86181,-16.73037,12.85,-1.03,0.04,4.0
1758078556.33605,1758078556.31431,0.0,0.0,0.0,-18.62113,35.75257,-15.0115,12.85,-1.03,0.04,4.0
1758078556.35208,1758078556.32431,0.0,0.0,0.0,-17.47521,32.48671,-11.00079,11.32,0.95,2.12,4.0
1758078556.35535,1758078556.33431,0.0,0.0,0.0,-17.13144,28.07493,-8.88085,11.1,1.93,1.44,4.0
1758078556.37079,1758078556.34431,0.0,0.0,0.0,-17.18874,23.26209,-7.44845,11.1,1.93,1.44,4.0
1758078556.37201,1758078556.35431,0.0,0.0,0.0,-17.36062,18.85031,-6.70361,10.91,1.69,0.55,4.0
1758078556.38677,1758078556.36431,0.0,0.0,0.0,-18.10547,13.80828,-7.67763,10.91,1.69,0.55,4.0
1758078556.39436,1758078556.37431,0.0,0.0,0.0,-18.27736,10.59972,-9.22462,10.27,1.18,0.62,4.0
1758078556.40973,1758078556.38431,0.0,0.0,0.0,-18.33465,8.59437,-10.8862,10.27,1.18,0.62,4.0
1758078556.41096,1758078556.39431,0.0,0.0,0.0,-18.10547,7.50575,-12.37589,9.52,0.8,0.91,4.0
1758078556.426,1758078556.40431,0.0,0.0,0.0,-16.90226,6.53172,-13.5218,8.92,0.67,0.96,4.0
1758078556.44206,1758078556.41431,0.0,0.0,0.0,-15.69904,5.27121,-13.69369,8.92,0.67,0.96,4.0
1758078556.44626,1758078556.42431,0.0,0.0,0.0,-14.20935,4.23989,-13.69369,8.5,0.61,0.98,4.0
1758078556.46194,1758078556.43431,0.0,0.0,0.0,-11.91752,4.0107,-13.17803,8.5,0.61,0.98,4.0
1758078556.46624,1758078556.44431,0.0,0.0,0.0,-10.19865,4.69825,-12.49048,8.59,0.56,0.83,4.0
1758078556.48207,1758078556.45431,0.0,0.0,0.0,-8.65166,5.21392,-11.45916,8.59,0.56,0.83,4.0
1758078556.48337,1758078556.46431,0.0,0.0,0.0,-7.04738,5.27121,-10.19865,8.82,0.72,1.1,4.0
1758078556.50084,1758078556.47431,0.0,0.0,0.0,-5.32851,5.27121,-8.25059,8.82,0.72,1.1,4.0
1758078556.50162,1758078556.48431,0.0,0.0,0.0,-4.69825,5.15662,-7.21927,9.29,1.02,1.13,4.0
1758078556.5181,1758078556.49431,0.0,0.0,0.0,-4.52637,5.72958,-6.70361,9.66,1.13,0.84,4.0
1758078556.52145,1758078556.50431,0.0,0.0,0.0,-4.92744,6.8182,-6.47442,9.66,1.13,0.84,4.0
1758078556.53712,1758078556.51431,0.0,0.0,0.0,-5.84417,7.21927,-6.8182,9.84,1.0,0.64,4.0
1758078556.54125,1758078556.52431,0.0,0.0,0.0,-6.35983,6.70361,-7.04738,9.84,1.0,0.64,4.0
1758078556.55712,1758078556.53431,0.0,0.0,0.0,-6.70361,6.07335,-6.99009,9.73,0.92,0.65,4.0
1758078556.55966,1758078556.54431,0.0,0.0,0.0,-6.47442,5.84417,-6.47442,9.73,0.92,0.65,4.0
1758078556.57586,1758078556.55431,0.0,0.0,0.0,-5.61499,5.4431,-5.50039,9.79,0.9,0.51,4.0
1758078556.59184,1758078556.56431,0.0,0.0,0.0,-4.64096,5.27121,-4.69825,9.87,0.8,0.45,4.0
1758078556.59621,1758078556.57431,0.0,0.0,0.0,-3.66693,6.07335,-4.46907,9.87,0.8,0.45,4.0
1758078556.60181,1758078556.58431,0.0,0.0,0.0,-2.29183,6.99009,-4.23989,9.93,0.53,0.51,4.0
1758078556.62117,1758078556.59431,0.0,0.0,0.0,-0.0573,8.47978,-4.46907,9.93,0.53,0.51,4.0
1758078556.62448,1758078556.60431,0.0,0.0,0.0,1.48969,9.05273,-4.64096,9.69,0.28,0.57,4.0
1758078556.64096,1758078556.61431,0.0,0.0,0.0,3.03668,9.68299,-4.98473,9.69,0.28,0.57,4.0
1758078556.706,1758078556.62431,0.0,0.0,0.0,4.58366,10.65701,-4.92744,9.49,0.33,0.58,4.0
1758078556.70813,1758078556.63431,0.0,0.0,0.0,6.70361,11.97482,-4.58366,9.52,0.68,0.52,4.0
1758078556.71142,1758078556.64431,0.0,0.0,0.0,7.84952,12.60507,-3.89611,9.52,0.68,0.52,4.0
1758078556.71692,1758078556.65431,0.0,0.0,0.0,9.05273,13.12073,-3.09397,9.64,0.98,0.46,4.0
1758078556.7213,1758078556.66431,0.0,0.0,0.0,10.25595,13.75099,-1.60428,9.64,0.98,0.46,4.0
1758078556.72449,1758078556.67431,0.0,0.0,0.0,10.8862,13.17803,-0.45837,9.75,0.9,0.45,4.0
1758078556.72865,1758078556.68431,0.0,0.0,0.0,11.00079,11.74564,0.74485,9.75,0.9,0.45,4.0
1758078556.73754,1758078556.69431,0.0,0.0,0.0,10.94349,9.5684,2.00535,9.63,0.67,0.47,4.0
1758078556.75683,1758078556.70431,0.0,0.0,0.0,10.59972,5.27121,3.89611,9.63,0.67,0.51,4.0
1758078556.75982,1758078556.71431,0.0,0.0,0.0,10.48513,2.57831,5.27121,9.57,0.61,0.51,4.0
1758078556.79033,1758078556.72431,0.0,0.0,0.0,10.19865,0.68755,6.35983,9.77,0.79,0.42,4.0
1758078556.79205,1758078556.73431,0.0,0.0,0.0,9.85487,-1.43239,7.10468,9.77,0.79,0.42,4.0
1758078556.79466,1758078556.74431,0.0,0.0,0.0,9.4538,-3.72423,7.67763,9.79,0.92,0.52,4.0
1758078556.79819,1758078556.75431,0.0,0.0,0.0,9.05273,-4.46907,7.62034,9.79,0.92,0.52,4.0
1758078556.7986,1758078556.76431,0.0,0.0,0.0,8.88085,-5.32851,7.33386,9.64,0.9,0.52,4.0
1758078556.80053,1758078556.77431,0.0,0.0,0.0,8.70896,-6.35983,6.70361,9.64,0.9,0.52,4.0
1758078556.8012,1758078556.78431,0.0,0.0,0.0,8.47978,-7.62034,5.95876,9.39,0.85,0.53,4.0
1758078556.81717,1758078556.79431,0.0,0.0,0.0,8.65166,-8.136,5.78687,9.35,0.87,0.51,4.0
1758078556.82161,1758078556.80431,0.0,0.0,0.0,8.88085,-8.47978,5.72958,9.35,0.87,0.51,4.0
1758078556.83721,1758078556.81431,0.0,0.0,0.0,9.11003,-8.76626,5.95876,9.46,0.88,0.49,4.0
1758078556.84135,1758078556.82431,0.0,0.0,0.0,9.62569,-7.79223,6.58902,9.46,0.88,0.49,4.0
1758078556.85695,1758078556.83431,0.0,0.0,0.0,9.85487,-6.87549,6.99009,9.54,0.75,0.42,4.0
1758078556.86166,1758078556.84431,0.0,0.0,0.0,10.25595,-5.78687,7.44845,9.54,0.75,0.42,4.0
1758078556.87701,1758078556.85431,0.0,0.0,0.0,10.37054,-4.29718,7.73493,9.49,0.58,0.39,4.0
1758078556.88013,1758078556.86431,0.0,0.0,0.0,10.31324,-3.55234,8.02141,9.47,0.62,0.47,4.0
1758078556.895,1758078556.87431,0.0,0.0,0.0,10.19865,-2.86479,8.25059,9.47,0.62,0.47,4.0
1758078556.89644,1758078556.88431,0.0,0.0,0.0,9.96947,-2.7502,8.30789,9.42,0.81,0.49,4.0
1758078556.9143,1758078556.89431,0.0,0.0,0.0,9.33921,-3.03668,8.136,9.42,0.81,0.49,4.0
1758078556.91604,1758078556.90431,0.0,0.0,0.0,8.76626,-3.26586,7.84952,9.22,1.0,0.39,4.0
1758078556.93202,1758078556.91431,0.0,0.0,0.0,8.42248,-3.03668,7.50575,9.22,1.0,0.39,4.0
1758078556.94904,1758078556.92431,0.0,0.0,0.0,7.79223,-2.86479,7.16197,9.11,1.05,0.3,4.0
1758078556.9543,1758078556.93431,0.0,0.0,0.0,7.04738,-1.83346,6.7609,9.13,1.02,0.28,4.0
1758078556.96985,1758078556.94431,0.0,0.0,0.0,6.53172,-0.34377,6.7609,9.13,1.02,0.28,4.0
1758078556.97262,1758078556.95431,0.0,0.0,0.0,6.13065,1.14592,6.7609,9.21,0.99,0.27,4.0
1758078556.99081,1758078556.96431,0.0,0.0,0.0,5.72958,2.46372,7.16197,9.21,0.99,0.27,4.0
1758078556.99231,1758078556.97431,0.0,0.0,0.0,5.09932,3.38045,7.39116,9.24,0.95,0.33,4.0
1758078557.00814,1758078556.98431,0.0,0.0,0.0,5.09932,2.57831,7.73493,9.24,0.95,0.33,4.0
1758078557.01221,1758078556.99431,0.0,0.0,0.0,4.81285,1.20321,7.84952,9.16,0.88,0.49,4.0
1758078557.01621,1758078557.00431,0.0,0.0,0.0,4.64096,0.0573,7.84952,9.16,0.88,0.49,4.0
1758078557.13604,1758078557.01431,0.0,0.0,0.0,4.29718,0.11459,7.96411,9.28,0.89,0.49,4.0
1758078557.13901,1758078557.02431,0.0,0.0,0.0,4.0107,0.45837,8.02141,9.46,0.91,0.33,4.0
1758078557.14197,1758078557.03431,0.0,0.0,0.0,3.83882,0.57296,7.79223,9.46,0.91,0.33,4.0
1758078557.171,1758078557.04431,0.0,0.0,0.0,3.55234,0.57296,7.39116,9.28,0.9,0.22,4.0
1758078557.17162,1758078557.05431,0.0,0.0,0.0,3.38045,0.57296,7.21927,9.28,0.9,0.22,4.0
1758078557.17662,1758078557.06431,0.0,0.0,0.0,3.38045,0.68755,7.33386,9.2,0.85,-0.04,4.0
1758078557.17821,1758078557.07431,0.0,0.0,0.0,3.32316,-0.0573,7.44845,9.2,0.85,-0.04,4.0
1758078557.18246,1758078557.08431,0.0,0.0,0.0,4.35448,-3.20856,8.02141,9.01,0.71,-0.21,4.0
1758078557.1872,1758078557.09431,0.0,0.0,0.0,4.81285,-4.46907,8.136,8.82,0.45,-0.57,4.0
1758078557.19727,1758078557.10431,0.0,0.0,0.0,5.55769,-5.78687,8.59437,8.82,0.45,-0.57,4.0
1758078557.2488,1758078557.11431,0.0,0.0,0.0,6.41713,-7.62034,9.05273,8.72,0.31,-0.64,4.0
1758078557.25188,1758078557.12431,0.0,0.0,0.0,7.33386,-10.48513,10.08406,8.72,0.31,-0.64,4.0
1758078557.25424,1758078557.13431,0.0,0.0,0.0,7.73493,-11.86023,10.8289,8.54,0.3,-0.74,4.0
1758078557.25593,1758078557.14431,0.0,0.0,0.0,8.0787,-13.06344,11.57375,8.54,0.3,-0.74,4.0
1758078557.25731,1758078557.15431,0.0,0.0,0.0,7.96411,-14.49583,12.08941,8.39,0.46,-0.73,4.0
1758078557.25841,1758078557.16431,0.0,0.0,0.0,7.39116,-17.36062,12.204,8.0,0.56,-0.53,4.0
1758078557.2623,1758078557.17431,0.0,0.0,0.0,6.8182,-19.99623,11.74564,8.0,0.56,-0.53,4.0
1758078557.26281,1758078557.18431,0.0,0.0,0.0,6.35983,-23.0329,10.8862,7.95,0.39,-0.16,4.0
1758078557.2657,1758078557.19431,0.0,0.0,0.0,5.84417,-25.89769,10.02676,7.95,0.39,-0.16,4.0
1758078557.2662,1758078557.20431,0.0,0.0,0.0,5.27121,-28.07493,9.05273,8.64,0.16,0.29,4.0
1758078557.26753,1758078557.21431,0.0,0.0,0.0,5.27121,-29.56462,8.99544,8.64,0.16,0.29,4.0
1758078557.27189,1758078557.22431,0.0,0.0,0.0,5.32851,-31.51268,8.88085,9.53,0.0,1.01,4.0
1758078557.27591,1758078557.23431,0.0,0.0,0.0,6.18794,-33.86181,8.65166,9.53,0.0,1.01,4.0
1758078557.28006,1758078557.24431,0.0,0.0,0.0,8.76626,-35.75257,7.79223,10.6,-0.47,1.52,4.0
1758078557.28082,1758078557.25431,0.0,0.0,0.0,11.28727,-34.95043,6.87549,12.02,-1.01,1.9,4.0
1758078557.2819,1758078557.26431,0.0,0.0,0.0,14.15206,-32.54401,5.78687,12.02,-1.01,1.9,4.0
1758078557.29908,1758078557.27431,0.0,0.0,0.0,18.16276,-24.86637,4.23989,12.94,-1.24,1.73,4.0
1758078557.30109,1758078557.28431,0.0,0.0,0.0,20.97026,-16.67307,3.55234,12.94,-1.24,1.73,4.0
1758078557.31613,1758078557.29431,0.0,0.0,0.0,23.72045,-9.62569,3.83882,13.33,-1.05,1.42,4.0
1758078557.31731,1758078557.30431,0.0,0.0,0.0,25.7831,-5.4431,3.38045,13.33,-1.05,1.42,4.0
1758078557.33264,1758078557.31431,0.0,0.0,0.0,26.98631,-8.0787,2.57831,13.16,-0.68,1.73,4.0
1758078557.3518,1758078557.32431,0.0,0.0,0.0,26.01229,-13.12073,1.43239,13.84,-0.47,1.91,4.0
1758078557.35456,1758078557.33431,0.0,0.0,0.0,23.66316,-16.10011,0.74485,13.84,-0.47,1.91,4.0
1758078557.3694,1758078557.34431,0.0,0.0,0.0,20.51189,-14.72501,0.74485,15.3,-0.27,0.98,4.0
1758078557.3711,1758078557.35431,0.0,0.0,0.0,15.75634,-3.95341,2.34913,15.3,-0.27,0.98,4.0
1758078557.38616,1758078557.36431,0.0,0.0,0.0,13.5791,7.44845,3.72423,14.78,0.26,0.39,4.0
1758078557.39215,1758078557.37431,0.0,0.0,0.0,12.14671,17.81899,4.69825,14.78,0.26,0.39,4.0
1758078557.41042,1758078557.38431,0.0,0.0,0.0,11.17268,20.79837,5.27121,12.67,0.55,0.63,4.0
1758078557.41216,1758078557.39431,0.0,0.0,0.0,11.00079,15.29797,5.4431,10.38,0.4,0.76,4.0
1758078557.47544,1758078557.40431,0.0,0.0,0.0,11.11538,13.5791,4.81285,10.38,0.4,0.76,4.0
1758078557.47666,1758078557.41431,0.0,0.0,0.0,10.8289,17.53251,2.86479,10.76,-0.06,0.45,4.0
1758078557.47732,1758078557.42431,0.0,0.0,0.0,10.08406,22.28806,1.3178,10.76,-0.06,0.45,4.0
1758078557.48167,1758078557.43431,0.0,0.0,0.0,9.33921,27.84575,0.22918,11.1,-0.55,0.94,4.0
1758078557.4856,1758078557.44431,0.0,0.0,0.0,8.59437,28.64789,0.34377,11.1,-0.55,0.94,4.0
1758078557.49187,1758078557.45431,0.0,0.0,0.0,7.50575,27.2155,0.68755,10.49,-0.72,0.81,4.0
1758078557.49308,1758078557.46431,0.0,0.0,0.0,6.58902,24.75178,1.43239,10.49,-0.72,0.81,4.0
1758078557.49615,1758078557.47431,0.0,0.0,0.0,5.32851,21.48592,1.71887,9.63,-0.62,0.73,4.0
1758078557.49721,1758078557.48431,0.0,0.0,0.0,4.69825,20.68378,1.77617,9.37,-0.4,0.81,4.0
1758078557.51701,1758078557.49431,0.0,0.0,0.0,4.23989,19.88164,2.00535,9.37,-0.4,0.81,4.0
1758078557.52011,1758078557.50431,0.0,0.0,0.0,2.86479,18.79302,1.43239,9.42,-0.25,0.71,4.0
1758078557.5402,1758078557.51431,0.0,0.0,0.0,1.71887,17.30333,0.80214,9.42,-0.25,0.71,4.0
1758078557.54138,1758078557.52431,0.0,0.0,0.0,0.74485,15.75634,0.17189,9.32,-0.2,0.51,4.0
1758078557.5565,1758078557.53431,0.0,0.0,0.0,-0.17189,14.15206,-0.34377,9.32,-0.2,0.51,4.0
1758078557.55826,1758078557.54431,0.0,0.0,0.0,-1.3751,11.63104,-0.74485,9.09,-0.3,0.5,4.0
1758078557.57399,1758078557.55431,0.0,0.0,0.0,-2.06265,10.65701,-0.85944,8.89,-0.43,0.45,4.0
1758078557.59056,1758078557.56431,0.0,0.0,0.0,-2.57831,10.02676,-0.80214,8.89,-0.43,0.45,4.0
1758078557.59143,1758078557.57431,0.0,0.0,0.0,-2.7502,9.91217,-0.80214,8.99,-0.58,0.37,4.0
1758078557.60655,1758078557.58431,0.0,0.0,0.0,-2.23454,9.11003,-0.97403,8.99,-0.58,0.37,4.0
1758078557.60833,1758078557.59431,0.0,0.0,0.0,-1.60428,8.30789,-1.14592,9.15,-0.74,0.4,4.0
1758078557.62593,1758078557.60431,0.0,0.0,0.0,-0.57296,6.99009,-1.43239,9.15,-0.74,0.4,4.0
1758078557.62679,1758078557.61431,0.0,0.0,0.0,0.22918,5.15662,-1.66158,9.16,-0.89,0.38,4.0
1758078557.64663,1758078557.62431,0.0,0.0,0.0,1.66158,1.94806,-1.94806,9.04,-0.94,0.18,4.0
1758078557.65151,1758078557.63431,0.0,0.0,0.0,2.86479,-0.0573,-2.11994,9.04,-0.94,0.18,4.0
1758078557.6663,1758078557.64431,0.0,0.0,0.0,3.38045,-0.97403,-2.23454,8.92,-0.86,0.06,4.0
1758078557.6717,1758078557.65431,0.0,0.0,0.0,4.0107,-0.17189,-2.63561,8.92,-0.86,0.06,4.0
1758078557.68624,1758078557.66431,0.0,0.0,0.0,4.52637,4.69825,-3.49504,8.98,-0.74,0.09,4.0
1758078557.68857,1758078557.67431,0.0,0.0,0.0,4.52637,11.28727,-4.18259,8.98,-0.74,0.09,4.0
1758078557.70433,1758078557.68431,0.0,0.0,0.0,3.55234,14.66772,-5.4431,9.15,-0.48,0.14,4.0
1758078557.72031,1758078557.69431,0.0,0.0,0.0,3.03668,8.136,-6.70361,9.15,-0.48,0.14,4.0
1758078557.72225,1758078557.70431,0.0,0.0,0.0,3.03668,4.0107,-7.16197,7.97,-0.27,0.33,4.0
1758078557.73756,1758078557.71431,0.0,0.0,0.0,3.89611,2.86479,-7.04738,8.14,-0.41,-0.17,4.0
1758078557.73924,1758078557.72431,0.0,0.0,0.0,4.87014,1.60428,-6.99009,8.14,-0.41,-0.17,4.0
1758078557.75525,1758078557.73431,0.0,0.0,0.0,6.7609,-1.03132,-6.7609,8.49,-0.69,-0.04,4.0
1758078557.75651,1758078557.74431,0.0,0.0,0.0,8.0787,-3.20856,-6.53172,8.49,-0.69,-0.04,4.0
1758078557.77411,1758078557.75431,0.0,0.0,0.0,9.22462,-5.90147,-6.35983,8.51,-0.87,0.14,4.0
1758078557.79058,1758078557.76431,0.0,0.0,0.0,9.96947,-7.96411,-6.24524,8.51,-0.87,0.14,4.0
1758078557.79181,1758078557.77431,0.0,0.0,0.0,11.11538,-10.25595,-5.50039,8.28,-0.82,0.09,4.0
1758078557.80638,1758078557.78431,0.0,0.0,0.0,11.51645,-11.74564,-5.15662,7.94,-0.62,0.1,4.0
1758078557.80863,1758078557.79431,0.0,0.0,0.0,11.80293,-12.60507,-4.92744,7.94,-0.62,0.1,4.0
1758078557.82633,1758078557.80431,0.0,0.0,0.0,11.86023,-13.12073,-4.92744,7.79,-0.45,0.14,4.0
1758078557.83181,1758078557.81431,0.0,0.0,0.0,11.86023,-12.89155,-5.4431,7.79,-0.45,0.14,4.0
1758078557.84637,1758078557.82431,0.0,0.0,0.0,11.74564,-12.08941,-6.13065,7.99,-0.35,0.18,4.0
1758078557.84833,1758078557.83431,0.0,0.0,0.0,11.57375,-11.00079,-7.04738,7.99,-0.35,0.18,4.0
1758078557.86639,1758078557.84431,0.0,0.0,0.0,11.34457,-10.08406,-7.62034,8.33,-0.35,0.15,4.0
1758078557.8686,1758078557.85431,0.0,0.0,0.0,11.11538,-10.02676,-8.30789,8.39,-0.42,0.14,4.0
1758078557.88463,1758078557.86431,0.0,0.0,0.0,10.65701,-10.08406,-8.0787,8.39,-0.42,0.14,4.0
1758078557.89037,1758078557.87431,0.0,0.0,0.0,10.31324,-10.25595,-7.79223,8.31,-0.54,0.13,4.0
1758078557.90637,1758078557.88431,0.0,0.0,0.0,10.02676,-10.19865,-6.99009,8.31,-0.54,0.13,4.0
1758078557.90834,1758078557.89431,0.0,0.0,0.0,9.68299,-10.71431,-6.41713,8.3,-0.62,-0.04,4.0
1758078557.92459,1758078557.90431,0.0,0.0,0.0,9.33921,-12.2613,-6.24524,8.3,-0.62,-0.04,4.0
1758078557.94057,1758078557.91431,0.0,0.0,0.0,9.28192,-13.34992,-6.24524,8.11,-0.63,-0.11,4.0
1758078557.94179,1758078557.92431,0.0,0.0,0.0,8.88085,-15.64175,-4.87014,8.11,-0.63,-0.11,4.0
1758078557.96457,1758078557.93431,0.0,0.0,0.0,8.47978,-17.13144,-3.32316,8.27,-0.33,0.32,4.0
1758078557.97823,1758078557.94431,0.0,0.0,0.0,7.73493,-16.272,-1.60428,9.25,0.16,1.18,4.0
1758078557.98046,1758078557.95431,0.0,0.0,0.0,6.18794,-14.49583,0.57296,9.25,0.16,1.18,4.0
1758078557.9817,1758078557.96431,0.0,0.0,0.0,1.43239,-12.83425,5.15662,11.35,0.9,2.17,4.0
1758078557.99769,1758078557.97431,0.0,0.0,0.0,-2.97938,-12.14671,8.0787,11.35,0.9,2.17,4.0
1758078557.99868,1758078557.98431,0.0,0.0,0.0,-7.73493,-10.25595,9.22462,13.22,1.95,2.14,4.0
1758078558.01441,1758078557.99431,0.0,0.0,0.0,-12.60507,-7.67763,7.33386,13.22,1.95,2.14,4.0
1758078558.03067,1758078558.00431,0.0,0.0,0.0,-17.93358,-3.09397,0.17189,12.77,2.05,1.19,4.0
1758078558.03426,1758078558.01431,0.0,0.0,0.0,-19.48057,1.03132,-5.55769,12.0,1.36,1.14,4.0
1758078558.04941,1758078558.02431,0.0,0.0,0.0,-20.45459,5.61499,-8.99544,12.0,1.36,1.14,4.0
1758078558.05215,1758078558.03431,0.0,0.0,0.0,-21.25674,10.37054,-8.25059,14.69,1.76,2.82,4.0
1758078558.06838,1758078558.04431,0.0,0.0,0.0,-23.31938,19.82434,0.57296,14.69,1.76,2.82,4.0
1758078558.07198,1758078558.05431,0.0,0.0,0.0,-26.06958,27.10091,6.13065,19.35,3.48,3.05,4.0
1758078558.08848,1758078558.06431,0.0,0.0,0.0,-26.01229,23.94964,6.70361,19.35,3.48,3.05,4.0
1758078558.09097,1758078558.07431,0.0,0.0,0.0,-24.57989,4.1253,3.38045,16.64,2.02,0.7,4.0
1758078558.10675,1758078558.08431,0.0,0.0,0.0,-16.95955,-16.61578,-3.26586,11.96,-1.15,-1.23,4.0
1758078558.10787,1758078558.09431,0.0,0.0,0.0,-15.98552,-8.36518,-10.02676,11.96,-1.15,-1.23,4.0
1758078558.12234,1758078558.10431,0.0,0.0,0.0,-13.69369,14.20935,-12.14671,13.97,-1.41,-0.54,4.0
1758078558.13923,1758078558.11431,0.0,0.0,0.0,-10.8862,32.20023,-12.08941,13.97,-1.41,-0.54,4.0
1758078558.14123,1758078558.12431,0.0,0.0,0.0,-9.96947,31.2262,-9.33921,12.28,0.09,1.44,4.0
1758078558.15663,1758078558.13431,0.0,0.0,0.0,-9.4538,27.10091,-6.41713,12.28,0.09,1.44,4.0
1758078558.15804,1758078558.14431,0.0,0.0,0.0,-8.65166,19.88164,-3.89611,10.96,1.28,1.35,4.0
1758078558.21898,1758078558.15431,0.0,0.0,0.0,-7.39116,9.39651,-1.83346,10.96,1.28,1.35,4.0
1758078558.22209,1758078558.16431,0.0,0.0,0.0,-6.35983,5.84417,-1.60428,10.3,1.46,0.27,4.0
1758078558.22252,1758078558.17431,0.0,0.0,0.0,-5.95876,3.89611,-2.29183,10.04,1.19,0.82,4.0
1758078558.22596,1758078558.18431,0.0,0.0,0.0,-5.95876,3.60963,-3.60963,10.04,1.19,0.82,4.0
1758078558.22686,1758078558.19431,0.0,0.0,0.0,-5.95876,4.23989,-6.24524,9.48,0.79,1.39,4.0
1758078558.22788,1758078558.20431,0.0,0.0,0.0,-5.61499,4.64096,-8.02141,9.48,0.79,1.39,4.0
1758078558.22883,1758078558.21431,0.0,0.0,0.0,-5.27121,5.09932,-9.4538,9.19,0.64,1.26,4.0
1758078558.24478,1758078558.22431,0.0,0.0,0.0,-4.23989,4.69825,-10.25595,9.19,0.64,1.26,4.0
1758078558.24641,1758078558.23431,0.0,0.0,0.0,-2.23454,2.6929,-10.25595,8.69,0.7,1.01,4.0
1758078558.2628,1758078558.24431,0.0,0.0,0.0,-0.74485,1.03132,-9.62569,8.27,0.75,0.97,4.0
1758078558.2805,1758078558.25431,0.0,0.0,0.0,0.74485,0.51566,-8.65166,8.27,0.75,0.97,4.0
1758078558.28145,1758078558.26431,0.0,0.0,0.0,1.77617,2.29183,-7.79223,8.59,0.76,0.92,4.0
1758078558.29649,1758078558.27431,0.0,0.0,0.0,3.20856,6.99009,-6.18794,8.59,0.76,0.92,4.0
1758078558.29794,1758078558.28431,0.0,0.0,0.0,3.89611,7.73493,-4.98473,8.95,0.73,1.03,4.0
1758078558.3125,1758078558.29431,0.0,0.0,0.0,4.29718,7.04738,-3.55234,8.95,0.73,1.03,4.0
1758078558.33059,1758078558.30431,0.0,0.0,0.0,4.64096,6.47442,-2.06265,8.89,0.73,1.18,4.0
1758078558.33223,1758078558.31431,0.0,0.0,0.0,4.81285,5.21392,-1.48969,9.32,0.71,0.87,4.0
1758078558.34855,1758078558.32431,0.0,0.0,0.0,4.87014,4.1253,-1.3751,9.32,0.71,0.87,4.0
1758078558.35107,1758078558.33431,0.0,0.0,0.0,5.21392,3.38045,-1.60428,9.45,0.69,0.6,4.0
1758078558.36659,1758078558.34431,0.0,0.0,0.0,5.95876,3.60963,-1.66158,9.45,0.69,0.6,4.0
1758078558.36809,1758078558.35431,0.0,0.0,0.0,6.58902,4.1253,-1.66158,9.64,0.71,0.48,4.0
1758078558.38493,1758078558.36431,0.0,0.0,0.0,7.39116,5.15662,-1.3178,9.64,0.71,0.48,4.0
1758078558.38926,1758078558.37431,0.0,0.0,0.0,8.02141,6.99009,-0.57296,9.93,0.69,0.31,4.0
1758078558.40657,1758078558.38431,0.0,0.0,0.0,8.88085,8.93814,0.57296,10.14,0.69,0.18,4.0
1758078558.45698,1758078558.39431,0.0,0.0,0.0,9.4538,9.74028,1.3751,10.14,0.55,0.18,4.0
1758078558.45735,1758078558.40431,0.0,0.0,0.0,10.02676,9.96947,2.00535,10.08,0.45,0.11,4.0
1758078558.46007,1758078558.41431,0.0,0.0,0.0,10.59972,10.71431,2.40642,10.08,0.45,0.11,4.0
1758078558.46107,1758078558.42431,0.0,0.0,0.0,12.08941,13.86558,3.20856,10.04,0.39,-0.04,4.0
1758078558.46195,1758078558.43431,0.0,0.0,0.0,13.40721,15.58445,3.72423,10.04,0.39,-0.04,4.0
1758078558.46268,1758078558.44431,0.0,0.0,0.0,14.72501,16.272,4.35448,9.81,0.39,-0.06,4.0
1758078558.4812,1758078558.45431,0.0,0.0,0.0,16.10011,15.29797,5.09932,9.81,0.39,-0.06,4.0
1758078558.48212,1758078558.46431,0.0,0.0,0.0,18.50654,11.51645,6.53172,9.37,0.37,-0.06,4.0
1758078558.4986,1758078558.47431,0.0,0.0,0.0,19.88164,8.30789,7.84952,9.23,0.33,0.04,4.0
1758078558.5011,1758078558.48431,0.0,0.0,0.0,20.97026,5.32851,9.4538,9.23,0.33,0.04,4.0
1758078558.5176,1758078558.49431,0.0,0.0,0.0,21.48592,2.97938,10.65701,9.35,0.38,0.15,4.0
1758078558.51855,1758078558.50431,0.0,0.0,0.0,21.7724,-0.80214,12.49048,9.35,0.38,0.15,4.0
1758078558.53384,1758078558.51431,0.0,0.0,0.0,21.6578,-3.26586,13.40721,9.24,0.51,0.3,4.0
1758078558.55033,1758078558.52431,0.0,0.0,0.0,21.42862,-4.81285,14.03747,9.24,0.51,0.3,4.0
1758078558.55165,1758078558.53431,0.0,0.0,0.0,20.62648,-6.18794,14.15206,9.21,0.65,0.11,4.0
1758078558.56696,1758078558.54431,0.0,0.0,0.0,20.16812,-6.58902,13.98017,9.09,0.78,-0.06,4.0
1758078558.56897,1758078558.55431,0.0,0.0,0.0,19.53786,-7.16197,13.34992,9.09,0.78,-0.06,4.0
1758078558.58355,1758078558.56431,0.0,0.0,0.0,18.90761,-7.67763,12.54778,8.85,0.91,-0.02,4.0
1758078558.60087,1758078558.57431,0.0,0.0,0.0,17.81899,-8.70896,11.22997,8.85,0.91,-0.02,4.0
1758078558.60178,1758078558.58431,0.0,0.0,0.0,17.01685,-8.99544,10.8289,8.8,1.06,0.14,4.0
1758078558.61687,1758078558.59431,0.0,0.0,0.0,15.98552,-8.25059,10.25595,8.8,1.06,0.14,4.0
1758078558.6202,1758078558.60431,0.0,0.0,0.0,15.0115,-7.33386,10.25595,8.96,1.04,0.24,4.0
1758078558.63551,1758078558.61431,0.0,0.0,0.0,13.5218,-6.07335,10.59972,8.95,0.89,0.3,4.0
1758078558.63697,1758078558.62431,0.0,0.0,0.0,12.83425,-5.72958,11.22997,8.95,0.89,0.3,4.0
1758078558.65465,1758078558.63431,0.0,0.0,0.0,12.49048,-5.72958,11.80293,9.04,0.7,0.11,4.0
1758078558.67164,1758078558.64431,0.0,0.0,0.0,12.43318,-6.87549,12.37589,9.04,0.7,0.11,4.0
1758078558.67258,1758078558.65431,0.0,0.0,0.0,12.77696,-8.65166,12.60507,9.0,0.61,0.0,4.0
1758078558.69099,1758078558.66431,0.0,0.0,0.0,13.12073,-8.25059,12.43318,9.0,0.61,0.0,4.0
1758078558.69205,1758078558.67431,0.0,0.0,0.0,13.34992,-8.25059,11.86023,9.11,0.69,0.01,4.0
1758078558.71068,1758078558.68431,0.0,0.0,0.0,13.46451,-8.93814,11.17268,9.11,0.69,0.01,4.0
1758078558.714,1758078558.69431,0.0,0.0,0.0,13.40721,-10.54242,10.19865,8.88,0.92,0.22,4.0
1758078558.73121,1758078558.70431,0.0,0.0,0.0,13.34992,-11.51645,9.74028,8.77,1.09,0.25,4.0
1758078558.7359,1758078558.71431,0.0,0.0,0.0,13.46451,-12.14671,9.33921,8.77,1.09,0.25,4.0
1758078558.77061,1758078558.72431,0.0,0.0,0.0,13.5218,-12.77696,9.4538,8.81,1.01,0.07,4.0
1758078558.7721,1758078558.73431,0.0,0.0,0.0,14.38124,-13.69369,10.02676,8.81,1.01,0.07,4.0
1758078558.77397,1758078558.74431,0.0,0.0,0.0,15.12609,-13.69369,10.8289,8.94,0.7,-0.27,4.0
1758078558.77521,1758078558.75431,0.0,0.0,0.0,16.10011,-13.12073,11.34457,8.94,0.7,-0.27,4.0
1758078558.79172,1758078558.76431,0.0,0.0,0.0,17.99088,-12.14671,12.2613,9.1,0.27,-0.62,4.0
1758078558.7935,1758078558.77431,0.0,0.0,0.0,19.42327,-11.97482,12.71966,9.2,0.0,-0.91,4.0
1758078558.81029,1758078558.78431,0.0,0.0,0.0,20.79837,-12.37589,12.83425,9.2,0.0,-0.91,4.0
1758078558.81149,1758078558.79431,0.0,0.0,0.0,22.57454,-13.46451,12.89155,8.96,0.01,-1.14,4.0
1758078558.82672,1758078558.80431,0.0,0.0,0.0,25.21014,-16.10011,13.00614,8.96,0.01,-1.14,4.0
1758078558.82789,1758078558.81431,0.0,0.0,0.0,26.81443,-17.93358,13.17803,8.7,0.26,-0.91,4.0
1758078558.84607,1758078558.82431,0.0,0.0,0.0,27.84575,-19.42327,13.34992,8.7,0.26,-0.91,4.0
1758078558.84755,1758078558.83431,0.0,0.0,0.0,28.64789,-20.68378,13.23533,8.51,0.53,-0.58,4.0
1758078558.8667,1758078558.84431,0.0,0.0,0.0,29.33544,-23.31938,12.60507,8.4,0.42,-0.08,4.0
1758078558.86817,1758078558.85431,0.0,0.0,0.0,29.56462,-26.06958,11.51645,8.4,0.42,-0.08,4.0
1758078558.88381,1758078558.86431,0.0,0.0,0.0,30.19488,-28.70519,10.37054,8.9,0.04,0.33,4.0
1758078558.90077,1758078558.87431,0.0,0.0,0.0,30.93972,-30.13758,8.99544,8.9,0.04,0.33,4.0
1758078558.9021,1758078558.88431,0.0,0.0,0.0,32.25753,-26.18417,7.73493,9.95,-0.18,0.88,4.0
1758078558.91685,1758078558.89431,0.0,0.0,0.0,32.42941,-21.7724,6.53172,9.95,-0.18,0.88,4.0
1758078558.91866,1758078558.90431,0.0,0.0,0.0,32.25753,-19.13679,5.15662,11.16,-0.54,1.66,4.0
1758078558.93598,1758078558.91431,0.0,0.0,0.0,32.20023,-18.90761,3.26586,11.16,-0.54,1.66,4.0
1758078558.93689,1758078558.92431,0.0,0.0,0.0,32.83048,-20.11082,1.94806,11.21,-1.0,2.16,4.0
1758078558.95298,1758078558.93431,0.0,0.0,0.0,33.68992,-17.76169,1.20321,11.65,-1.37,1.53,4.0
1758078558.97134,1758078558.94431,0.0,0.0,0.0,35.00772,-15.29797,1.14592,11.65,-1.37,1.53,4.0
1758078558.97439,1758078558.95431,0.0,0.0,0.0,39.76327,-21.60051,2.00535,11.98,-1.55,1.23,4.0
1758078558.98976,1758078558.96431,0.0,0.0,0.0,43.83128,-25.49662,0.74485,11.98,-1.55,1.23,4.0
1758078558.99223,1758078558.97431,0.0,0.0,0.0,47.61279,-25.15285,-2.23454,14.04,-2.05,1.83,4.0
1758078559.05054,1758078558.98431,0.0,0.0,0.0,51.50891,-18.85031,-5.95876,14.04,-2.05,1.83,4.0
1758078559.05469,1758078558.99431,0.0,0.0,0.0,55.51962,-7.79223,-4.69825,18.15,-2.54,1.94,4.0
1758078559.05526,1758078559.00431,0.0,0.0,0.0,53.74345,-13.46451,-3.32316,16.89,-1.33,0.43,4.0
1758078559.05892,1758078559.01431,0.0,0.0,0.0,50.82136,-14.9542,0.0573,16.89,-1.33,0.43,4.0
1758078559.06035,1758078559.02431,0.0,0.0,0.0,49.79003,-5.50039,4.46907,14.71,0.39,-1.34,4.0
1758078559.0619,1758078559.03431,0.0,0.0,0.0,47.67009,14.32395,7.73493,14.71,0.39,-1.34,4.0
1758078559.06227,1758078559.04431,0.0,0.0,0.0,46.46688,25.7831,8.65166,13.04,0.42,-1.15,4.0
1758078559.07878,1758078559.05431,0.0,0.0,0.0,44.8053,31.56997,7.79223,13.04,0.42,-1.15,4.0
1758078559.08079,1758078559.06431,0.0,0.0,0.0,43.14373,32.25753,6.07335,10.65,-0.17,0.35,4.0
1758078559.096,1758078559.07431,0.0,0.0,0.0,40.16434,27.33009,2.57831,9.99,-0.45,0.84,4.0
1758078559.09726,1758078559.08431,0.0,0.0,0.0,39.19032,23.94964,1.08862,9.99,-0.45,0.84,4.0
1758078559.11282,1758078559.09431,0.0,0.0,0.0,38.1017,22.34536,0.17189,10.47,-0.36,0.11,4.0
1758078559.13002,1758078559.10431,0.0,0.0,0.0,37.87251,24.00693,0.22918,10.47,-0.36,0.11,4.0
1758078559.13265,1758078559.11431,0.0,0.0,0.0,37.87251,25.21014,1.03132,10.99,-0.3,0.52,4.0
1758078559.15008,1758078559.12431,0.0,0.0,0.0,37.87251,24.57989,1.83346,10.99,-0.3,0.52,4.0
1758078559.15182,1758078559.13431,0.0,0.0,0.0,37.58603,23.94964,2.57831,10.38,-0.66,1.02,4.0
1758078559.16691,1758078559.14431,0.0,0.0,0.0,36.95578,22.86102,3.32316,10.38,-0.66,1.02,4.0
1758078559.172,1758078559.15431,0.0,0.0,0.0,35.2942,21.37133,3.32316,9.8,-0.92,0.94,4.0
1758078559.18692,1758078559.16431,0.0,0.0,0.0,34.14828,20.45459,3.09397,9.3,-0.81,0.74,4.0
1758078559.18912,1758078559.17431,0.0,0.0,0.0,32.83048,20.16812,2.6929,9.3,-0.81,0.74,4.0
1758078559.20379,1758078559.18431,0.0,0.0,0.0,31.16891,20.45459,1.66158,9.06,-0.48,0.69,4.0
1758078559.22115,1758078559.19431,0.0,0.0,0.0,30.48136,21.94428,0.74485,9.06,-0.48,0.69,4.0
1758078559.22232,1758078559.20431,0.0,0.0,0.0,29.9084,23.66316,0.0,9.13,-0.23,0.69,4.0
1758078559.23707,1758078559.21431,0.0,0.0,0.0,29.39274,24.35071,-0.45837,9.13,-0.23,0.69,4.0
1758078559.24044,1758078559.22431,0.0,0.0,0.0,29.22085,23.0329,-0.97403,9.13,-0.27,0.95,4.0
1758078559.25611,1758078559.23431,0.0,0.0,0.0,29.04896,21.7724,-1.20321,9.52,-0.59,0.82,4.0
1758078559.25731,1758078559.24431,0.0,0.0,0.0,29.10626,20.74107,-1.3178,9.52,-0.59,0.82,4.0
1758078559.274,1758078559.25431,0.0,0.0,0.0,28.93437,19.82434,-1.20321,9.96,-0.93,0.17,4.0
1758078559.29013,1758078559.26431,0.0,0.0,0.0,29.33544,19.13679,-0.57296,9.96,-0.93,0.17,4.0
1758078559.29109,1758078559.27431,0.0,0.0,0.0,29.67921,18.27736,-0.11459,9.97,-1.13,-0.02,4.0
1758078559.30587,1758078559.28431,0.0,0.0,0.0,30.19488,17.53251,0.17189,9.97,-1.13,-0.02,4.0
1758078559.3071,1758078559.29431,0.0,0.0,0.0,30.82513,16.61578,0.34377,9.71,-1.13,-0.02,4.0
1758078559.32292,1758078559.30431,0.0,0.0,0.0,31.56997,16.10011,0.34377,9.6,-1.0,0.0,4.0
1758078559.34177,1758078559.31431,0.0,0.0,0.0,32.08564,16.55848,0.0,9.6,-1.0,0.0,4.0
1758078559.34264,1758078559.32431,0.0,0.0,0.0,32.42941,16.73037,-0.51566,9.59,-0.9,-0.13,4.0
1758078559.35818,1758078559.33431,0.0,0.0,0.0,32.6013,16.50119,-0.85944,9.59,-0.9,-0.13,4.0
1758078559.36065,1758078559.34431,0.0,0.0,0.0,32.6013,15.69904,-1.71887,9.32,-0.88,-0.19,4.0
1758078559.37586,1758078559.35431,0.0,0.0,0.0,32.83048,15.75634,-1.94806,9.32,-0.88,-0.19,4.0
1758078559.37706,1758078559.36431,0.0,0.0,0.0,32.88778,16.3293,-2.11994,9.41,-0.81,-0.12,4.0
1758078559.3941,1758078559.37431,0.0,0.0,0.0,33.40344,15.58445,-2.29183,9.41,-0.81,-0.12,4.0
1758078559.4099,1758078559.38431,0.0,0.0,0.0,33.74722,12.83425,-2.57831,9.55,-0.74,0.18,4.0
