timeStamp,timeStampAlign,roll,pitch,yaw,gyro_x,gyro_y,gyro_z,acc_x,acc_y,acc_z,flag_num
1758076552.27912,1758076552.29673,0.0,0.0,0.0,0.97403,-11.11538,11.51645,10.44,0.6,1.18,2.0
1758076552.28023,1758076552.30673,0.0,0.0,0.0,-1.03132,-13.5791,11.57375,10.44,0.6,1.18,2.0
1758076552.29528,1758076552.31673,0.0,0.0,0.0,-5.21392,-13.06344,11.00079,11.18,1.04,1.07,2.0
1758076552.3113,1758076552.32673,0.0,0.0,0.0,-8.88085,-10.54242,9.5684,11.18,1.04,1.07,2.0
1758076552.31226,1758076552.33673,0.0,0.0,0.0,-13.12073,-9.22462,7.39116,11.59,1.53,0.97,2.0
1758076552.32705,1758076552.34673,0.0,0.0,0.0,-17.18874,-9.62569,4.46907,11.59,1.53,0.97,2.0
1758076552.34325,1758076552.35673,0.0,0.0,0.0,-22.51724,-13.5791,2.7502,11.08,1.92,0.46,2.0
1758076552.3437,1758076552.36673,0.0,0.0,0.0,-25.38203,-17.58981,1.77617,10.38,1.92,-0.02,2.0
1758076552.35911,1758076552.37673,0.0,0.0,0.0,-27.61657,-20.34,2.00535,10.38,1.92,-0.02,2.0
1758076552.36028,1758076552.38673,0.0,0.0,0.0,-31.16891,-23.26209,2.46372,9.95,1.61,-0.42,2.0
1758076552.3754,1758076552.39673,0.0,0.0,0.0,-33.68992,-27.2155,3.09397,9.95,1.61,-0.42,2.0
1758076552.39139,1758076552.40673,0.0,0.0,0.0,-35.2369,-37.52874,3.09397,9.15,1.3,0.27,2.0
1758076552.3925,1758076552.41673,0.0,0.0,0.0,-35.52338,-53.91533,2.97938,9.15,1.3,0.27,2.0
1758076552.40738,1758076552.42673,0.0,0.0,0.0,-35.2942,-55.57691,-0.80214,8.95,1.31,1.81,2.0
1758076552.40991,1758076552.43673,0.0,0.0,0.0,-28.13223,-61.1346,-5.61499,12.74,0.25,4.53,2.0
1758076552.42534,1758076552.44673,0.0,0.0,0.0,-30.36677,-90.24085,-22.11617,12.74,0.25,4.53,2.0
1758076552.44116,1758076552.45673,0.0,0.0,0.0,-27.96034,-92.18892,-29.10626,12.96,-1.29,5.4,2.0
1758076552.4427,1758076552.46673,0.0,0.0,0.0,-24.80907,-91.84514,-33.63263,12.96,-1.29,5.4,2.0
1758076552.45714,1758076552.47673,0.0,0.0,0.0,-21.88699,-93.7359,-30.30947,12.08,-1.93,2.34,2.0
1758076552.46091,1758076552.48673,0.0,0.0,0.0,-19.53786,-96.77258,-24.63719,12.08,-1.93,2.34,2.0
1758076552.47616,1758076552.49673,0.0,0.0,0.0,-18.56383,-96.88716,-18.44924,9.0,-1.82,1.78,2.0
1758076552.49321,1758076552.50673,0.0,0.0,0.0,-17.53251,-88.57928,-8.0787,8.59,-1.37,1.93,2.0
1758076552.49369,1758076552.51673,0.0,0.0,0.0,-17.47521,-80.61517,-2.06265,8.59,-1.37,1.93,2.0
1758076552.50948,1758076552.52673,0.0,0.0,0.0,-17.47521,-73.3959,1.83346,9.34,-1.16,3.65,2.0
1758076552.5119,1758076552.53673,0.0,0.0,0.0,-17.93358,-65.77556,3.09397,9.34,-1.16,3.65,2.0
1758076552.52768,1758076552.54673,0.0,0.0,0.0,-19.19409,-51.22243,1.3178,11.0,-0.72,3.6,2.0
1758076552.52833,1758076552.55673,0.0,0.0,0.0,-20.34,-39.3622,-1.3178,11.0,-0.72,3.6,2.0
1758076552.54438,1758076552.56673,0.0,0.0,0.0,-20.79837,-26.35606,-3.95341,11.95,-0.2,1.73,2.0
1758076552.5612,1758076552.57673,0.0,0.0,0.0,-19.48057,-11.74564,-5.50039,11.95,-0.2,1.73,2.0
1758076552.5631,1758076552.58673,0.0,0.0,0.0,-18.62113,6.35983,-5.72958,11.94,-0.31,0.23,2.0
1758076552.57865,1758076552.59673,0.0,0.0,0.0,-17.18874,19.36597,-4.64096,11.41,-0.8,-0.01,2.0
1758076552.58017,1758076552.60673,0.0,0.0,0.0,-15.75634,31.62727,-2.86479,11.41,-0.8,-0.01,2.0
1758076552.59522,1758076552.61673,0.0,0.0,0.0,-13.00614,47.61279,0.0573,10.93,-1.19,0.21,2.0
1758076552.6112,1758076552.62673,0.0,0.0,0.0,-11.17268,56.14987,1.71887,10.93,-1.19,0.21,2.0
1758076552.61394,1758076552.63673,0.0,0.0,0.0,-9.68299,63.54102,2.97938,10.21,-1.21,0.49,2.0
1758076552.62944,1758076552.64673,0.0,0.0,0.0,-8.25059,68.98412,3.26586,10.21,-1.21,0.49,2.0
1758076552.63044,1758076552.65673,0.0,0.0,0.0,-6.7609,72.42187,1.48969,9.52,-1.03,0.46,2.0
1758076552.646,1758076552.66673,0.0,0.0,0.0,-6.18794,75.05748,-0.57296,9.14,-0.8,0.57,2.0
1758076552.65133,1758076552.67673,0.0,0.0,0.0,-6.24524,76.1461,-3.09397,9.14,-0.8,0.57,2.0
1758076552.6683,1758076552.68673,0.0,0.0,0.0,-6.35983,75.97421,-5.4431,9.01,-0.73,0.57,2.0
1758076552.6694,1758076552.69673,0.0,0.0,0.0,-7.10468,74.14074,-9.28192,9.01,-0.73,0.57,2.0
1758076552.68423,1758076552.70673,0.0,0.0,0.0,-7.62034,72.76565,-11.74564,8.99,-0.77,0.74,2.0
1758076552.70049,1758076552.71673,0.0,0.0,0.0,-7.73493,70.6457,-13.17803,8.99,-0.77,0.74,2.0
1758076552.70143,1758076552.72673,0.0,0.0,0.0,-7.79223,67.03606,-14.09476,9.09,-0.75,0.84,2.0
1758076552.71623,1758076552.73673,0.0,0.0,0.0,-6.47442,59.98868,-13.86558,8.83,-0.71,0.87,2.0
1758076552.71821,1758076552.74673,0.0,0.0,0.0,-5.21392,56.37905,-13.06344,8.83,-0.71,0.87,2.0
1758076552.73489,1758076552.75673,0.0,0.0,0.0,-3.26586,53.51426,-11.57375,8.86,-0.7,0.94,2.0
1758076552.75023,1758076552.76673,0.0,0.0,0.0,-1.14592,50.3057,-8.93814,8.86,-0.7,0.94,2.0
1758076552.75144,1758076552.77673,0.0,0.0,0.0,2.40642,45.43555,-6.99009,8.69,-0.73,1.15,2.0
1758076552.76627,1758076552.78673,0.0,0.0,0.0,4.58366,41.42485,-4.92744,8.69,-0.73,1.15,2.0
1758076552.76824,1758076552.79673,0.0,0.0,0.0,6.24524,36.21093,-3.32316,8.54,-0.71,1.13,2.0
1758076552.78527,1758076552.80673,0.0,0.0,0.0,7.79223,28.13223,-2.00535,8.54,-0.71,1.13,2.0
1758076552.80146,1758076552.81673,0.0,0.0,0.0,8.136,22.11617,-1.66158,8.41,-0.69,1.07,2.0
1758076552.80437,1758076552.82673,0.0,0.0,0.0,8.47978,16.67307,-1.3178,8.55,-0.69,0.91,2.0
1758076552.82032,1758076552.83673,0.0,0.0,0.0,8.65166,14.83961,-1.20321,8.55,-0.69,0.91,2.0
1758076552.82126,1758076552.84673,0.0,0.0,0.0,8.65166,16.38659,-1.94806,9.19,-0.56,0.75,2.0
1758076552.83632,1758076552.85673,0.0,0.0,0.0,8.76626,17.47521,-2.63561,9.19,-0.56,0.75,2.0
1758076552.83824,1758076552.86673,0.0,0.0,0.0,8.88085,16.95955,-3.09397,9.4,-0.27,0.85,2.0
1758076552.85456,1758076552.87673,0.0,0.0,0.0,8.65166,15.98552,-3.89611,9.4,-0.27,0.85,2.0
1758076552.87055,1758076552.88673,0.0,0.0,0.0,8.47978,13.40721,-4.81285,9.55,-0.05,0.84,2.0
1758076552.87149,1758076552.89673,0.0,0.0,0.0,8.36518,10.54242,-5.4431,9.72,-0.12,0.73,2.0
1758076552.88638,1758076552.90673,0.0,0.0,0.0,8.0787,7.73493,-6.35983,9.72,-0.12,0.73,2.0
1758076552.89147,1758076552.91673,0.0,0.0,0.0,7.79223,4.98473,-6.99009,9.84,-0.34,0.72,2.0
1758076552.90657,1758076552.92673,0.0,0.0,0.0,7.50575,1.14592,-7.67763,9.84,-0.34,0.72,2.0
1758076552.9114,1758076552.93673,0.0,0.0,0.0,8.25059,-0.74485,-7.73493,10.07,-0.59,0.86,2.0
1758076552.92664,1758076552.94673,0.0,0.0,0.0,9.91217,-3.09397,-7.39116,10.07,-0.59,0.86,2.0
1758076552.93106,1758076552.95673,0.0,0.0,0.0,12.43318,-5.95876,-6.53172,10.13,-0.85,0.69,2.0
1758076552.94658,1758076552.96673,0.0,0.0,0.0,16.90226,-8.25059,-5.50039,10.23,-1.1,0.27,2.0
1758076552.94785,1758076552.97673,0.0,0.0,0.0,20.05352,-7.67763,-4.98473,10.23,-1.1,0.27,2.0
1758076552.96718,1758076552.98673,0.0,0.0,0.0,23.26209,-6.24524,-4.69825,10.36,-1.3,0.13,2.0
1758076552.96871,1758076552.99673,0.0,0.0,0.0,27.44468,-5.50039,-4.87014,10.36,-1.3,0.13,2.0
1758076552.98396,1758076553.00673,0.0,0.0,0.0,29.8511,-6.07335,-5.27121,9.88,-1.39,0.0,2.0
1758076553.0003,1758076553.01673,0.0,0.0,0.0,31.16891,-8.70896,-5.78687,9.88,-1.39,0.0,2.0
1758076553.00159,1758076553.02673,0.0,0.0,0.0,30.99702,-15.98552,-5.84417,9.32,-1.32,0.36,2.0
1758076553.01661,1758076553.03673,0.0,0.0,0.0,27.67386,-39.13302,-3.03668,9.32,-1.32,0.36,2.0
1758076553.01759,1758076553.04673,0.0,0.0,0.0,22.63183,-58.55629,2.00535,9.02,-1.18,2.17,2.0
1758076553.0339,1758076553.05673,0.0,0.0,0.0,15.69904,-63.99939,9.68299,12.17,-0.03,4.63,2.0
1758076553.04939,1758076553.06673,0.0,0.0,0.0,7.04738,-53.80074,18.56383,12.17,-0.03,4.63,2.0
1758076553.05086,1758076553.07673,0.0,0.0,0.0,-4.52637,-51.10783,29.9084,15.91,1.96,6.23,2.0
1758076553.06565,1758076553.08673,0.0,0.0,0.0,-11.51645,-68.86953,30.88243,15.91,1.96,6.23,2.0
1758076553.08163,1758076553.09673,0.0,0.0,0.0,-16.10011,-89.49601,31.74186,10.43,3.01,4.36,2.0
1758076553.08367,1758076553.10673,0.0,0.0,0.0,-18.79302,-102.96053,30.88243,10.43,3.01,4.36,2.0
1758076553.10021,1758076553.11673,0.0,0.0,0.0,-19.88164,-98.77792,26.12688,8.68,1.74,1.96,2.0
1758076553.1014,1758076553.12673,0.0,0.0,0.0,-16.95955,-88.52198,22.00158,9.81,0.51,1.17,2.0
1758076553.11664,1758076553.13673,0.0,0.0,0.0,-13.46451,-80.95895,14.61043,9.81,0.51,1.17,2.0
1758076553.11767,1758076553.14673,0.0,0.0,0.0,-9.28192,-74.02615,9.11003,9.14,-0.31,2.83,2.0
1758076553.13345,1758076553.15673,0.0,0.0,0.0,-3.66693,-61.1346,2.6929,9.14,-0.31,2.83,2.0
1758076553.14946,1758076553.16673,0.0,0.0,0.0,0.45837,-54.94666,1.3751,10.31,-0.69,4.19,2.0
1758076553.15062,1758076553.17673,0.0,0.0,0.0,3.72423,-47.15443,0.22918,10.31,-0.69,4.19,2.0
1758076553.16566,1758076553.18673,0.0,0.0,0.0,6.58902,-37.64333,0.0,11.09,-0.53,2.98,2.0
1758076553.18171,1758076553.19673,0.0,0.0,0.0,9.68299,-21.7151,0.0,11.21,-0.06,1.69,2.0
1758076553.18264,1758076553.20673,0.0,0.0,0.0,11.00079,-10.08406,-0.45837,11.21,-0.06,1.69,2.0
1758076553.19756,1758076553.21673,0.0,0.0,0.0,12.204,1.83346,-0.97403,11.04,0.61,0.67,2.0
1758076553.19865,1758076553.22673,0.0,0.0,0.0,13.80828,20.16812,-1.71887,11.04,0.61,0.67,2.0
1758076553.21372,1758076553.23673,0.0,0.0,0.0,14.83961,33.00237,-2.6929,10.93,1.19,0.34,2.0
1758076553.22969,1758076553.24673,0.0,0.0,0.0,15.98552,44.23235,-2.57831,10.93,1.19,0.34,2.0
1758076553.23108,1758076553.25673,0.0,0.0,0.0,16.10011,55.57691,-1.83346,10.59,1.2,0.9,2.0
1758076553.24554,1758076553.26673,0.0,0.0,0.0,16.50119,69.49979,-0.45837,9.75,1.2,0.63,2.0
1758076553.26146,1758076553.27673,0.0,0.0,0.0,16.3293,76.77635,-0.17189,9.75,1.02,0.63,2.0
1758076553.26264,1758076553.28673,0.0,0.0,0.0,16.10011,82.27674,-0.0573,9.34,0.69,1.18,2.0
1758076553.27746,1758076553.29673,0.0,0.0,0.0,16.21471,84.68317,0.97403,9.34,0.69,1.18,2.0
1758076553.27896,1758076553.30673,0.0,0.0,0.0,16.10011,86.63122,3.26586,8.82,0.5,1.05,2.0
1758076553.29446,1758076553.31673,0.0,0.0,0.0,15.87093,84.91235,5.15662,8.82,0.5,1.05,2.0
1758076553.31045,1758076553.32673,0.0,0.0,0.0,15.06879,79.92762,6.53172,8.69,0.37,1.45,2.0
1758076553.3117,1758076553.33673,0.0,0.0,0.0,13.5791,73.68237,8.136,8.69,0.37,1.45,2.0
1758076553.32651,1758076553.34673,0.0,0.0,0.0,10.54242,62.5097,9.22462,8.5,0.38,1.59,2.0
1758076553.32771,1758076553.35673,0.0,0.0,0.0,8.42248,55.6342,8.93814,8.59,0.63,1.59,2.0
1758076553.34579,1758076553.36673,0.0,0.0,0.0,6.07335,49.79003,8.0787,8.59,0.63,1.59,2.0
1758076553.36175,1758076553.37673,0.0,0.0,0.0,3.60963,43.54479,6.70361,8.76,0.98,1.84,2.0
1758076553.36382,1758076553.38673,0.0,0.0,0.0,0.22918,32.77319,3.89611,8.76,0.98,1.84,2.0
1758076553.37851,1758076553.39673,0.0,0.0,0.0,-2.11994,26.24147,2.06265,8.61,1.29,1.7,2.0
1758076553.38051,1758076553.40673,0.0,0.0,0.0,-4.69825,21.48592,0.40107,8.61,1.29,1.7,2.0
1758076553.39569,1758076553.41673,0.0,0.0,0.0,-8.88085,16.67307,-1.83346,8.77,1.51,1.4,2.0
1758076553.41155,1758076553.42673,0.0,0.0,0.0,-11.57375,17.53251,-2.97938,9.14,1.5,0.88,2.0
1758076553.41384,1758076553.43673,0.0,0.0,0.0,-13.98017,21.02755,-3.49504,9.14,1.5,0.88,2.0
1758076553.42963,1758076553.44673,0.0,0.0,0.0,-15.35527,24.80907,-3.55234,9.63,1.12,0.77,2.0
1758076553.43055,1758076553.45673,0.0,0.0,0.0,-15.58445,26.69983,-2.00535,9.63,1.12,0.77,2.0
1758076553.44566,1758076553.46673,0.0,0.0,0.0,-14.78231,25.89769,-0.51566,9.55,0.56,1.09,2.0
1758076553.46185,1758076553.47673,0.0,0.0,0.0,-13.34992,23.37668,1.14592,9.55,0.56,1.09,2.0
1758076553.46384,1758076553.48673,0.0,0.0,0.0,-11.22997,19.70975,3.03668,9.56,0.11,1.12,2.0
1758076553.47852,1758076553.49673,0.0,0.0,0.0,-7.16197,14.72501,5.84417,9.68,-0.07,0.95,2.0
1758076553.47973,1758076553.50673,0.0,0.0,0.0,-4.23989,11.00079,7.84952,9.68,-0.07,0.95,2.0
1758076553.49479,1758076553.51673,0.0,0.0,0.0,-1.94806,6.7609,9.85487,9.78,-0.07,1.01,2.0
1758076553.51087,1758076553.52673,0.0,0.0,0.0,-0.45837,1.94806,11.28727,9.78,-0.07,1.01,2.0
1758076553.51206,1758076553.53673,0.0,0.0,0.0,-0.74485,-3.83882,12.43318,10.14,0.21,0.97,2.0
1758076553.52688,1758076553.54673,0.0,0.0,0.0,-2.29183,-7.84952,11.91752,10.14,0.21,0.97,2.0
1758076553.52779,1758076553.55673,0.0,0.0,0.0,-5.09932,-10.31324,10.59972,10.51,0.65,1.04,2.0
1758076553.54388,1758076553.56673,0.0,0.0,0.0,-9.22462,-11.91752,8.70896,10.51,0.65,1.04,2.0
1758076553.55961,1758076553.57673,0.0,0.0,0.0,-16.67307,-14.03747,6.07335,10.61,1.36,0.56,2.0
1758076553.56073,1758076553.58673,0.0,0.0,0.0,-21.88699,-16.21471,4.35448,10.27,2.01,0.35,2.0
1758076553.57571,1758076553.59673,0.0,0.0,0.0,-26.64254,-20.79837,3.20856,10.27,2.01,0.35,2.0
1758076553.59189,1758076553.60673,0.0,0.0,0.0,-32.48671,-28.07493,2.63561,9.45,2.42,0.37,2.0
1758076553.59283,1758076553.61673,0.0,0.0,0.0,-35.06502,-44.63341,1.71887,9.45,2.42,0.37,2.0
1758076553.60792,1758076553.62673,0.0,0.0,0.0,-36.26823,-62.28051,-0.17189,9.32,2.33,1.85,2.0
1758076553.60883,1758076553.63673,0.0,0.0,0.0,-35.63798,-84.79775,-5.90147,9.32,2.33,1.85,2.0
1758076553.62375,1758076553.64673,0.0,0.0,0.0,-32.71589,-99.92384,-15.24068,10.18,1.13,3.91,2.0
1758076553.64088,1758076553.65673,0.0,0.0,0.0,-29.39274,-90.69922,-20.16812,14.65,-0.84,4.59,2.0
1758076553.64287,1758076553.66673,0.0,0.0,0.0,-27.50197,-68.86953,-27.1582,14.65,-0.84,4.59,2.0
1758076553.65792,1758076553.67673,0.0,0.0,0.0,-24.63719,-71.44785,-27.73116,13.94,-1.95,3.87,2.0
1758076553.65974,1758076553.68673,0.0,0.0,0.0,-24.35071,-93.62132,-25.26744,13.94,-1.95,3.87,2.0
1758076553.67495,1758076553.69673,0.0,0.0,0.0,-25.43933,-97.51743,-21.48592,9.47,-1.97,2.65,2.0
1758076553.69093,1758076553.70673,0.0,0.0,0.0,-28.13223,-95.22559,-17.99088,9.47,-1.97,2.65,2.0
1758076553.69369,1758076553.71673,0.0,0.0,0.0,-31.45539,-89.6106,-13.46451,9.43,-0.93,0.39,2.0
1758076553.70891,1758076553.72673,0.0,0.0,0.0,-37.29956,-78.49522,-8.65166,9.2,-0.43,2.48,2.0
1758076553.71145,1758076553.73673,0.0,0.0,0.0,-39.4195,-71.84892,-6.24524,9.2,-0.43,2.48,2.0
1758076553.72697,1758076553.74673,0.0,0.0,0.0,-40.33623,-64.28587,-5.09932,9.62,-0.45,3.49,2.0
1758076553.73107,1758076553.75673,0.0,0.0,0.0,-40.10705,-54.25911,-4.87014,9.62,-0.45,3.49,2.0
1758076553.74679,1758076553.76673,0.0,0.0,0.0,-38.61736,-37.12767,-5.72958,10.62,-0.52,2.78,2.0
1758076553.74793,1758076553.77673,0.0,0.0,0.0,-36.89849,-25.8404,-6.47442,10.62,-0.52,2.78,2.0
1758076553.76394,1758076553.78673,0.0,0.0,0.0,-35.40879,-14.09476,-7.39116,10.62,-0.71,1.07,2.0
1758076553.78097,1758076553.79673,0.0,0.0,0.0,-33.86181,-1.48969,-7.96411,10.62,-0.71,1.07,2.0
1758076553.78302,1758076553.80673,0.0,0.0,0.0,-31.28349,16.38659,-7.67763,10.65,-1.06,0.17,2.0
1758076553.79799,1758076553.81673,0.0,0.0,0.0,-29.10626,27.78845,-6.87549,10.61,-1.45,0.09,2.0
1758076553.79968,1758076553.82673,0.0,0.0,0.0,-26.81443,37.64333,-5.32851,10.61,-1.45,0.09,2.0
1758076553.81595,1758076553.83673,0.0,0.0,0.0,-23.37668,51.16513,-3.03668,10.29,-1.64,0.36,2.0
1758076553.81767,1758076553.84673,0.0,0.0,0.0,-21.48592,59.18654,-1.71887,10.29,-1.64,0.36,2.0
1758076553.83496,1758076553.85673,0.0,0.0,0.0,-19.70975,65.89015,-1.20321,9.69,-1.48,0.53,2.0
1758076553.85103,1758076553.86673,0.0,0.0,0.0,-18.44924,69.67168,-1.48969,9.69,-1.48,0.53,2.0
1758076553.85382,1758076553.87673,0.0,0.0,0.0,-17.30333,73.91156,-3.38045,8.97,-1.13,0.62,2.0
1758076553.86898,1758076553.88673,0.0,0.0,0.0,-17.01685,76.0315,-4.87014,8.79,-0.87,0.79,2.0
1758076553.87152,1758076553.89673,0.0,0.0,0.0,-16.95955,76.43258,-6.41713,8.79,-0.87,0.79,2.0
1758076553.88693,1758076553.90673,0.0,0.0,0.0,-16.90226,75.68773,-8.42248,8.73,-0.73,1.01,2.0
1758076553.88893,1758076553.91673,0.0,0.0,0.0,-16.50119,71.21866,-11.34457,8.73,-0.73,1.01,2.0
1758076553.90565,1758076553.92673,0.0,0.0,0.0,-15.35527,65.83286,-12.54778,8.74,-0.66,1.21,2.0
1758076553.91107,1758076553.93673,0.0,0.0,0.0,-14.15206,61.53567,-13.12073,8.74,-0.66,1.21,2.0
1758076553.92781,1758076553.94673,0.0,0.0,0.0,-12.54778,58.15522,-12.43318,8.89,-0.73,1.1,2.0
1758076553.92876,1758076553.95673,0.0,0.0,0.0,-9.39651,53.45696,-9.68299,8.87,-0.99,1.08,2.0
1758076553.94407,1758076553.96673,0.0,0.0,0.0,-7.10468,49.38896,-6.99009,8.87,-0.99,1.08,2.0
1758076553.96104,1758076553.97673,0.0,0.0,0.0,-4.52637,44.86259,-4.1253,8.72,-1.32,1.31,2.0
1758076553.96201,1758076553.98673,0.0,0.0,0.0,-2.00535,40.68,-1.43239,8.72,-1.32,1.31,2.0
1758076553.97783,1758076553.99673,0.0,0.0,0.0,1.48969,35.69527,0.68755,8.97,-1.53,1.34,2.0
1758076553.97997,1758076554.00673,0.0,0.0,0.0,3.89611,32.48671,1.3178,8.97,-1.53,1.34,2.0
1758076553.99505,1758076554.01673,0.0,0.0,0.0,6.13065,29.8511,1.3178,9.24,-1.44,1.24,2.0
1758076554.01102,1758076554.02673,0.0,0.0,0.0,9.22462,26.87172,0.68755,9.24,-1.44,1.24,2.0
1758076554.01226,1758076554.03673,0.0,0.0,0.0,10.8289,25.8404,-0.40107,9.47,-1.12,1.0,2.0
1758076554.02786,1758076554.04673,0.0,0.0,0.0,12.37589,27.2155,-1.83346,9.8,-0.71,0.68,2.0
1758076554.02907,1758076554.05673,0.0,0.0,0.0,13.75099,29.33544,-3.66693,9.8,-0.71,0.68,2.0
1758076554.04407,1758076554.06673,0.0,0.0,0.0,15.64175,29.8511,-6.70361,9.76,-0.42,0.86,2.0
1758076554.06094,1758076554.07673,0.0,0.0,0.0,17.36062,27.96034,-7.84952,9.76,-0.42,0.86,2.0
1758076554.06391,1758076554.08673,0.0,0.0,0.0,19.13679,22.68913,-8.25059,9.53,-0.35,1.07,2.0
1758076554.07962,1758076554.09673,0.0,0.0,0.0,21.14215,14.72501,-7.79223,9.53,-0.35,1.07,2.0
1758076554.08081,1758076554.10673,0.0,0.0,0.0,24.23611,3.26586,-6.24524,9.2,-0.58,0.94,2.0
1758076554.09615,1758076554.11673,0.0,0.0,0.0,26.35606,-2.92208,-5.15662,9.53,-0.95,0.66,2.0
1758076554.11191,1758076554.12673,0.0,0.0,0.0,28.36141,-9.33921,-3.66693,9.53,-0.95,0.66,2.0
1758076554.1139,1758076554.13673,0.0,0.0,0.0,30.02299,-16.67307,-2.6929,9.59,-1.23,0.54,2.0
1758076554.12884,1758076554.14673,0.0,0.0,0.0,31.85646,-32.48671,-0.85944,9.59,-1.23,0.54,2.0
1758076554.13039,1758076554.15673,0.0,0.0,0.0,31.56997,-44.17505,-1.08862,9.24,-1.11,0.13,2.0
1758076554.14487,1758076554.16673,0.0,0.0,0.0,30.99702,-49.27437,-1.3751,9.24,-1.11,0.13,2.0
1758076554.16114,1758076554.17673,0.0,0.0,0.0,30.13758,-39.82057,-2.63561,10.15,-0.74,-0.45,2.0
1758076554.1625,1758076554.18673,0.0,0.0,0.0,30.25217,-18.9649,-2.63561,11.83,-0.56,0.22,2.0
1758076554.1787,1758076554.19673,0.0,0.0,0.0,28.99167,-9.62569,-2.29183,11.83,-0.56,0.22,2.0
1758076554.1804,1758076554.20673,0.0,0.0,0.0,25.26744,-7.16197,-1.48969,12.03,-0.23,3.38,2.0
1758076554.19598,1758076554.21673,0.0,0.0,0.0,19.70975,-9.62569,2.06265,12.03,-0.23,3.38,2.0
1758076554.21375,1758076554.22673,0.0,0.0,0.0,11.28727,-44.63341,6.13065,12.04,0.67,5.34,2.0
1758076554.21493,1758076554.23673,0.0,0.0,0.0,5.72958,-79.01089,9.39651,12.04,0.67,5.34,2.0
1758076554.23004,1758076554.24673,0.0,0.0,0.0,2.06265,-104.79399,22.51724,8.85,1.2,3.54,2.0
1758076554.23144,1758076554.25673,0.0,0.0,0.0,-9.33921,-98.43416,28.13223,8.85,1.2,3.54,2.0
1758076554.246,1758076554.26673,0.0,0.0,0.0,-14.38124,-92.81918,30.36677,11.6,1.01,2.89,2.0
1758076554.2511,1758076554.27673,0.0,0.0,0.0,-18.9649,-89.03764,27.1582,10.34,0.82,1.83,2.0
1758076554.26919,1758076554.28673,0.0,0.0,0.0,-20.97026,-83.19347,24.80907,10.34,0.82,1.83,2.0
1758076554.27011,1758076554.29673,0.0,0.0,0.0,-21.60051,-70.41652,17.87628,10.69,0.35,3.65,2.0
1758076554.28504,1758076554.30673,0.0,0.0,0.0,-19.76705,-65.71826,13.17803,10.69,0.35,3.65,2.0
1758076554.30093,1758076554.31673,0.0,0.0,0.0,-16.95955,-60.16057,9.39651,10.21,0.2,3.42,2.0
1758076554.30319,1758076554.32673,0.0,0.0,0.0,-13.5791,-50.87865,7.62034,10.21,0.2,3.42,2.0
1758076554.31798,1758076554.33673,0.0,0.0,0.0,-7.62034,-38.15899,6.18794,10.88,0.3,3.53,2.0
1758076554.31914,1758076554.34673,0.0,0.0,0.0,-3.95341,-31.28349,6.13065,11.04,0.19,2.66,2.0
1758076554.33474,1758076554.35673,0.0,0.0,0.0,-0.85944,-22.23076,5.90147,11.04,0.19,2.66,2.0
1758076554.35126,1758076554.36673,0.0,0.0,0.0,1.66158,-11.91752,5.4431,11.46,0.1,1.65,2.0
1758076554.35216,1758076554.37673,0.0,0.0,0.0,3.89611,4.35448,3.55234,11.46,0.1,1.65,2.0
1758076554.36722,1758076554.38673,0.0,0.0,0.0,4.23989,14.20935,1.83346,11.11,0.25,0.84,2.0
1758076554.36813,1758076554.39673,0.0,0.0,0.0,5.55769,24.57989,-0.11459,11.11,0.25,0.84,2.0
1758076554.3854,1758076554.40673,0.0,0.0,0.0,6.24524,36.03905,-1.48969,10.51,0.53,0.64,2.0
1758076554.4012,1758076554.41673,0.0,0.0,0.0,5.90147,48.8733,-2.57831,9.73,0.37,0.77,2.0
1758076554.40243,1758076554.42673,0.0,0.0,0.0,4.92744,58.72818,-2.06265,9.73,0.37,0.77,2.0
1758076554.41697,1758076554.43673,0.0,0.0,0.0,4.58366,66.34852,-0.40107,9.11,0.54,0.51,2.0
1758076554.41856,1758076554.44673,0.0,0.0,0.0,2.86479,71.67702,0.45837,9.11,0.54,0.51,2.0
1758076554.4352,1758076554.45673,0.0,0.0,0.0,1.83346,77.06283,1.03132,8.58,0.52,1.26,2.0
1758076554.45125,1758076554.46673,0.0,0.0,0.0,0.97403,79.69843,2.40642,8.58,0.52,1.26,2.0
1758076554.45243,1758076554.47673,0.0,0.0,0.0,-0.22918,80.55787,3.89611,8.36,0.61,0.98,2.0
1758076554.46726,1758076554.48673,0.0,0.0,0.0,-2.23454,75.34396,6.47442,8.36,0.61,0.98,2.0
1758076554.46814,1758076554.49673,0.0,0.0,0.0,-4.18259,67.09336,7.21927,8.07,0.66,1.54,2.0
1758076554.48525,1758076554.50673,0.0,0.0,0.0,-5.90147,58.09792,7.79223,7.93,0.68,1.59,2.0
1758076554.50125,1758076554.51673,0.0,0.0,0.0,-7.62034,48.9306,7.39116,7.93,0.68,1.59,2.0
1758076554.5022,1758076554.52673,0.0,0.0,0.0,-10.08406,38.84654,4.92744,8.47,0.85,1.45,2.0
1758076554.51725,1758076554.53673,0.0,0.0,0.0,-11.74564,33.17426,2.34913,8.47,0.85,1.45,2.0
1758076554.51934,1758076554.54673,0.0,0.0,0.0,-13.17803,28.13223,-0.80214,8.99,1.0,1.54,2.0
1758076554.53531,1758076554.55673,0.0,0.0,0.0,-14.43854,25.55392,-3.83882,8.99,1.0,1.54,2.0
1758076554.5513,1758076554.56673,0.0,0.0,0.0,-15.75634,23.94964,-7.39116,9.5,0.92,1.22,2.0
1758076554.55216,1758076554.57673,0.0,0.0,0.0,-16.84496,23.0902,-8.65166,9.69,0.67,0.9,2.0
1758076554.56801,1758076554.58673,0.0,0.0,0.0,-17.99088,24.4653,-8.76626,9.69,0.67,0.9,2.0
1758076554.57149,1758076554.59673,0.0,0.0,0.0,-19.07949,26.75713,-7.50575,9.88,0.38,0.61,2.0
1758076554.58726,1758076554.60673,0.0,0.0,0.0,-19.88164,26.41335,-3.55234,9.88,0.38,0.61,2.0
1758076554.58993,1758076554.61673,0.0,0.0,0.0,-20.51189,21.48592,-0.40107,9.53,0.17,0.89,2.0
1758076554.60607,1758076554.62673,0.0,0.0,0.0,-21.25674,14.66772,2.63561,9.53,0.17,0.89,2.0
1758076554.62324,1758076554.63673,0.0,0.0,0.0,-21.60051,7.21927,6.13065,9.15,0.14,1.03,2.0
1758076554.62523,1758076554.64673,0.0,0.0,0.0,-21.42862,-2.63561,7.21927,9.47,0.34,0.84,2.0
1758076554.6404,1758076554.65673,0.0,0.0,0.0,-21.60051,-7.73493,7.16197,9.47,0.34,0.84,2.0
1758076554.64131,1758076554.66673,0.0,0.0,0.0,-21.6578,-14.43854,4.64096,9.82,0.75,0.83,2.0
1758076554.65611,1758076554.67673,0.0,0.0,0.0,-20.11082,-27.33009,0.74485,9.82,0.75,0.83,2.0
1758076554.67367,1758076554.68673,0.0,0.0,0.0,-19.07949,-39.13302,-0.68755,9.83,1.1,0.66,2.0
1758076554.67503,1758076554.69673,0.0,0.0,0.0,-18.9649,-48.52953,-2.00535,9.83,1.1,0.66,2.0
1758076554.6901,1758076554.70673,0.0,0.0,0.0,-19.88164,-53.51426,-1.3751,9.89,0.98,-0.14,2.0
1758076554.6913,1758076554.71673,0.0,0.0,0.0,-23.31938,-45.03448,1.43239,9.89,0.98,-0.09,2.0
1758076554.70611,1758076554.72673,0.0,0.0,0.0,-25.7831,-23.66316,0.80214,11.64,1.04,-0.09,2.0
1758076554.70812,1758076554.73673,0.0,0.0,0.0,-27.96034,-2.46372,1.77617,12.88,0.95,0.09,2.0
1758076554.72496,1758076554.74673,0.0,0.0,0.0,-30.59595,12.204,3.26586,12.88,0.95,0.09,2.0
1758076554.74115,1758076554.75673,0.0,0.0,0.0,-36.26823,-18.44924,2.7502,9.61,1.18,1.12,2.0
1758076554.74557,1758076554.76673,0.0,0.0,0.0,-37.75792,-30.25217,3.32316,9.61,1.18,1.12,2.0
1758076554.76113,1758076554.77673,0.0,0.0,0.0,-38.27358,-44.748,-0.74485,9.08,1.41,1.6,2.0
1758076554.76504,1758076554.78673,0.0,0.0,0.0,-36.55471,-58.15522,-6.58902,9.08,1.41,1.6,2.0
1758076554.78044,1758076554.79673,0.0,0.0,0.0,-32.71589,-75.91692,-20.45459,10.61,0.93,2.61,2.0
1758076554.7833,1758076554.80673,0.0,0.0,0.0,-28.99167,-76.26069,-30.48136,13.15,-0.98,4.81,2.0
1758076554.7985,1758076554.81673,0.0,0.0,0.0,-23.26209,-66.69229,-36.61201,13.15,-0.98,4.81,2.0
1758076554.79974,1758076554.82673,0.0,0.0,0.0,-15.41257,-56.60823,-37.12767,13.73,-2.44,3.53,2.0
1758076554.81451,1758076554.83673,0.0,0.0,0.0,-3.95341,-58.78547,-30.99702,13.73,-2.44,3.53,2.0
1758076554.8305,1758076554.84673,0.0,0.0,0.0,2.00535,-67.72362,-24.4653,9.16,-2.82,2.76,2.0
1758076554.83147,1758076554.85673,0.0,0.0,0.0,5.78687,-71.10406,-17.6471,9.16,-2.82,2.76,2.0
1758076554.8462,1758076554.86673,0.0,0.0,0.0,6.58902,-67.72362,-8.93814,7.7,-2.3,1.72,2.0
1758076554.85143,1758076554.87673,0.0,0.0,0.0,3.95341,-62.96807,-4.98473,8.57,-1.62,2.75,2.0
1758076554.86656,1758076554.88673,0.0,0.0,0.0,-0.17189,-62.05133,-3.49504,8.57,-1.62,2.75,2.0
1758076554.86821,1758076554.89673,0.0,0.0,0.0,-5.15662,-58.55629,-3.66693,10.12,-0.56,4.17,2.0
1758076554.88543,1758076554.90673,0.0,0.0,0.0,-10.54242,-48.8733,-6.47442,10.12,-0.56,4.17,2.0
1758076554.90148,1758076554.91673,0.0,0.0,0.0,-13.80828,-40.85189,-8.25059,12.03,0.48,3.2,2.0
1758076554.90238,1758076554.92673,0.0,0.0,0.0,-15.98552,-31.2262,-9.22462,12.03,0.48,3.2,2.0
1758076554.91748,1758076554.93673,0.0,0.0,0.0,-17.24603,-19.19409,-9.28192,12.14,0.83,1.51,2.0
1758076554.91917,1758076554.94673,0.0,0.0,0.0,-18.22006,-2.57831,-8.42248,11.29,0.25,0.72,2.0
1758076554.93647,1758076554.95673,0.0,0.0,0.0,-17.93358,7.79223,-7.84952,11.29,0.25,0.72,2.0
1758076554.9385,1758076554.96673,0.0,0.0,0.0,-17.01685,17.81899,-7.33386,10.43,-0.42,0.89,2.0
1758076554.95547,1758076554.97673,0.0,0.0,0.0,-15.92823,26.87172,-6.58902,10.43,-0.42,0.89,2.0
1758076554.97128,1758076554.98673,0.0,0.0,0.0,-15.12609,38.1017,-5.50039,9.87,-0.89,0.94,2.0
1758076554.974,1758076554.99673,0.0,0.0,0.0,-14.49583,44.9199,-5.09932,9.87,-0.89,0.94,2.0
1758076554.98957,1758076555.00673,0.0,0.0,0.0,-14.20935,50.53488,-5.09932,9.3,-1.07,0.88,2.0
1758076554.9936,1758076555.01673,0.0,0.0,0.0,-13.69369,55.7488,-5.4431,9.3,-1.07,0.88,2.0
1758076555.00927,1758076555.02673,0.0,0.0,0.0,-13.23533,61.70755,-5.95876,8.94,-1.09,0.85,2.0
1758076555.01364,1758076555.03673,0.0,0.0,0.0,-12.77696,65.71826,-6.8182,8.92,-1.13,1.06,2.0
1758076555.0295,1758076555.04673,0.0,0.0,0.0,-11.97482,68.35387,-8.0787,8.92,-1.13,1.06,2.0
1758076555.03069,1758076555.05673,0.0,0.0,0.0,-11.00079,69.55708,-9.74028,8.99,-1.09,1.23,2.0
1758076555.04555,1758076555.06673,0.0,0.0,0.0,-9.22462,65.54638,-10.31324,8.99,-1.09,1.23,2.0
1758076555.06153,1758076555.07673,0.0,0.0,0.0,-7.50575,61.65026,-10.25595,8.68,-0.99,1.33,2.0
1758076555.06275,1758076555.08673,0.0,0.0,0.0,-6.13065,57.29578,-9.4538,8.68,-0.99,1.33,2.0
1758076555.07749,1758076555.09673,0.0,0.0,0.0,-3.03668,51.79538,-6.47442,8.55,-0.93,1.0,2.0
1758076555.07848,1758076555.10673,0.0,0.0,0.0,-0.68755,47.32632,-4.18259,8.7,-0.92,1.09,2.0
1758076555.09431,1758076555.11673,0.0,0.0,0.0,1.48969,42.39888,-1.83346,8.7,-0.92,1.09,2.0
1758076555.11054,1758076555.12673,0.0,0.0,0.0,3.83882,38.27358,0.0573,8.96,-0.87,1.12,2.0
1758076555.11197,1758076555.13673,0.0,0.0,0.0,7.10468,34.89313,1.71887,8.96,-0.87,1.12,2.0
1758076555.12641,1758076555.14673,0.0,0.0,0.0,9.28192,33.00237,2.34913,9.46,-0.76,1.06,2.0
1758076555.14233,1758076555.15673,0.0,0.0,0.0,12.2613,34.0337,3.55234,9.46,-0.76,1.06,2.0
1758076555.14386,1758076555.16673,0.0,0.0,0.0,15.35527,36.7266,4.0107,9.76,-0.77,0.81,2.0
1758076555.15915,1758076555.17673,0.0,0.0,0.0,20.34,38.61736,4.98473,9.69,-0.9,0.68,2.0
1758076555.16069,1758076555.18673,0.0,0.0,0.0,23.94964,37.24226,5.72958,9.69,-0.9,0.68,2.0
1758076555.17565,1758076555.19673,0.0,0.0,0.0,27.78845,34.26288,6.53172,9.32,-1.15,0.8,2.0
1758076555.19163,1758076555.20673,0.0,0.0,0.0,31.74186,29.50733,7.21927,9.32,-1.15,0.8,2.0
1758076555.19419,1758076555.21673,0.0,0.0,0.0,36.38282,20.11082,7.84952,9.07,-1.29,0.61,2.0
1758076555.20939,1758076555.22673,0.0,0.0,0.0,39.07573,8.36518,8.25059,9.07,-1.29,0.61,2.0
1758076555.21055,1758076555.23673,0.0,0.0,0.0,39.4768,-4.58366,7.50575,8.6,-1.25,0.56,2.0
1758076555.22541,1758076555.24673,0.0,0.0,0.0,38.78925,-14.20935,6.47442,8.6,-1.25,0.56,2.0
1758076555.24165,1758076555.25673,0.0,0.0,0.0,37.24226,-3.49504,4.18259,9.34,-0.97,0.27,2.0
1758076555.24256,1758076555.26673,0.0,0.0,0.0,37.18496,6.58902,4.18259,11.81,-0.71,0.13,2.0
1758076555.25767,1758076555.27673,0.0,0.0,0.0,36.6693,15.46986,4.92744,11.81,-0.71,0.13,2.0
1758076555.26043,1758076555.28673,0.0,0.0,0.0,34.0337,25.89769,2.34913,11.51,-0.54,1.53,2.0
1758076555.27642,1758076555.29673,0.0,0.0,0.0,32.54401,23.0902,-1.48969,11.51,-0.54,1.53,2.0
1758076555.27868,1758076555.30673,0.0,0.0,0.0,31.56997,-0.97403,-4.29718,9.62,-0.43,1.35,2.0
1758076555.29457,1758076555.31673,0.0,0.0,0.0,34.72124,-37.47144,-2.7502,9.62,-0.43,1.35,2.0
1758076555.31043,1758076555.32673,0.0,0.0,0.0,33.34615,-52.54023,3.55234,6.98,-0.65,-0.05,2.0
1758076555.31159,1758076555.33673,0.0,0.0,0.0,31.91375,-38.44547,4.92744,11.35,-0.97,0.15,2.0
1758076555.32741,1758076555.34673,0.0,0.0,0.0,30.19488,-34.37747,7.10468,11.35,-0.97,0.15,2.0
1758076555.33162,1758076555.35673,0.0,0.0,0.0,26.75713,-40.33623,9.85487,10.87,-0.2,1.25,2.0
1758076555.34748,1758076555.36673,0.0,0.0,0.0,18.50654,-52.76942,18.22006,10.87,-0.2,1.25,2.0
1758076555.35159,1758076555.37673,0.0,0.0,0.0,11.97482,-60.96271,26.47065,12.95,0.96,5.24,2.0
1758076555.3675,1758076555.38673,0.0,0.0,0.0,3.66693,-63.88479,33.00237,12.95,0.96,5.24,2.0
1758076555.37077,1758076555.39673,0.0,0.0,0.0,-4.98473,-61.59297,36.55471,13.88,1.79,4.05,2.0
1758076555.38642,1758076555.40673,0.0,0.0,0.0,-17.53251,-54.48829,35.2369,11.73,2.41,2.99,2.0
1758076555.40352,1758076555.41673,0.0,0.0,0.0,-24.63719,-54.71747,30.53865,11.73,2.41,2.99,2.0
1758076555.40598,1758076555.42673,0.0,0.0,0.0,-30.25217,-57.92604,24.63719,8.63,2.31,2.09,2.0
1758076555.42146,1758076555.43673,0.0,0.0,0.0,-33.63263,-57.92604,19.07949,8.63,2.31,2.09,2.0
1758076555.42267,1758076555.44673,0.0,0.0,0.0,-33.80451,-54.66018,8.99544,8.54,1.34,2.13,2.0
1758076555.43758,1758076555.45673,0.0,0.0,0.0,-30.25217,-54.77477,4.18259,8.54,1.34,2.13,2.0
1758076555.43865,1758076555.46673,0.0,0.0,0.0,-25.09555,-50.93595,0.40107,9.02,0.23,3.18,2.0
1758076555.45447,1758076555.47673,0.0,0.0,0.0,-18.33465,-47.38361,-1.43239,9.02,0.23,3.18,2.0
1758076555.47078,1758076555.48673,0.0,0.0,0.0,-7.21927,-39.76327,-0.0573,10.25,-0.67,4.42,2.0
1758076555.47193,1758076555.49673,0.0,0.0,0.0,-0.22918,-31.79916,2.00535,11.29,-1.2,3.8,2.0
1758076555.48675,1758076555.50673,0.0,0.0,0.0,5.95876,-24.92367,4.46907,11.29,-1.2,3.8,2.0
1758076555.50274,1758076555.51673,0.0,0.0,0.0,11.91752,-15.92823,6.58902,11.24,-1.13,2.93,2.0
1758076555.50367,1758076555.52673,0.0,0.0,0.0,13.5791,-7.21927,6.41713,11.24,-1.13,2.93,2.0
1758076555.51876,1758076555.53673,0.0,0.0,0.0,14.32395,1.03132,6.35983,11.15,-0.53,1.8,2.0
1758076555.52045,1758076555.54673,0.0,0.0,0.0,13.69369,8.70896,5.32851,11.15,-0.53,1.8,2.0
1758076555.53573,1758076555.55673,0.0,0.0,0.0,11.34457,20.85567,3.55234,10.51,0.33,1.14,2.0
1758076555.55151,1758076555.56673,0.0,0.0,0.0,9.74028,28.93437,2.00535,10.06,1.02,1.13,2.0
1758076555.55382,1758076555.57673,0.0,0.0,0.0,7.79223,36.21093,0.0,10.06,1.02,1.13,2.0
1758076555.57012,1758076555.58673,0.0,0.0,0.0,5.09932,42.97184,-2.06265,9.44,1.54,1.01,2.0
1758076555.57133,1758076555.59673,0.0,0.0,0.0,2.11994,56.26446,-4.92744,9.44,1.54,1.01,2.0
1758076555.58751,1758076555.60673,0.0,0.0,0.0,1.03132,61.24919,-4.1253,9.35,1.85,1.07,2.0
1758076555.59117,1758076555.61673,0.0,0.0,0.0,-0.85944,61.53567,-4.64096,9.35,1.85,1.07,2.0
1758076555.6092,1758076555.62673,0.0,0.0,0.0,-2.6929,64.51505,-4.92744,8.68,1.56,1.26,2.0
1758076555.61034,1758076555.63673,0.0,0.0,0.0,-5.15662,66.80688,-4.52637,8.96,1.34,1.08,2.0
1758076555.62583,1758076555.64673,0.0,0.0,0.0,-6.18794,64.51505,-3.20856,8.96,1.34,1.08,2.0
1758076555.64186,1758076555.65673,0.0,0.0,0.0,-7.44845,59.47303,-1.48969,8.64,0.97,1.25,2.0
1758076555.64356,1758076555.66673,0.0,0.0,0.0,-8.59437,53.17049,-0.17189,8.64,0.97,1.25,2.0
1758076555.66042,1758076555.67673,0.0,0.0,0.0,-10.37054,44.23235,0.57296,8.8,0.51,1.42,2.0
1758076555.66138,1758076555.68673,0.0,0.0,0.0,-11.11538,39.07573,0.45837,8.8,0.51,1.42,2.0
1758076555.67693,1758076555.69673,0.0,0.0,0.0,-11.45916,35.2369,-0.11459,8.93,0.18,1.18,2.0
1758076555.67861,1758076555.70673,0.0,0.0,0.0,-11.51645,30.99702,-1.77617,8.93,0.18,1.18,2.0
1758076555.69588,1758076555.71673,0.0,0.0,0.0,-10.8862,25.26744,-2.92208,8.91,0.02,1.23,2.0
1758076555.71162,1758076555.72673,0.0,0.0,0.0,-10.65701,19.42327,-4.98473,8.42,0.05,1.05,2.0
1758076555.71437,1758076555.73673,0.0,0.0,0.0,-10.65701,13.34992,-6.41713,8.42,0.05,1.05,2.0
1758076555.73039,1758076555.74673,0.0,0.0,0.0,-11.51645,9.39651,-8.76626,8.66,0.2,0.84,2.0
1758076555.73159,1758076555.75673,0.0,0.0,0.0,-12.2613,9.28192,-10.02676,8.66,0.2,0.84,2.0
1758076555.74686,1758076555.76673,0.0,0.0,0.0,-13.17803,9.39651,-10.48513,9.14,0.42,0.39,2.0
1758076555.75096,1758076555.77673,0.0,0.0,0.0,-14.32395,9.33921,-10.94349,9.14,0.42,0.39,2.0
1758076555.76662,1758076555.78673,0.0,0.0,0.0,-16.04282,6.35983,-10.65701,9.24,0.62,0.55,2.0
1758076555.78288,1758076555.79673,0.0,0.0,0.0,-16.95955,3.72423,-10.37054,9.1,0.81,0.34,2.0
1758076555.78415,1758076555.80673,0.0,0.0,0.0,-17.30333,-1.66158,-9.28192,9.1,0.81,0.34,2.0
1758076555.80093,1758076555.81673,0.0,0.0,0.0,-16.67307,-8.88085,-7.73493,8.78,0.86,0.07,2.0
1758076555.80188,1758076555.82673,0.0,0.0,0.0,-14.49583,-20.05352,-4.35448,8.78,0.86,0.07,2.0
1758076555.81672,1758076555.83673,0.0,0.0,0.0,-12.2613,-26.75713,-2.23454,8.76,0.67,-0.22,2.0
1758076555.83344,1758076555.84673,0.0,0.0,0.0,-10.08406,-32.6013,-0.22918,8.76,0.67,-0.22,2.0
1758076555.83495,1758076555.85673,0.0,0.0,0.0,-8.59437,-35.2942,1.03132,9.13,0.4,0.02,2.0
1758076555.84988,1758076555.86673,0.0,0.0,0.0,-8.0787,-15.41257,4.46907,11.58,0.46,0.5,2.0
1758076555.85115,1758076555.87673,0.0,0.0,0.0,-6.18794,12.14671,4.23989,11.58,0.46,0.5,2.0
1758076555.86589,1758076555.88673,0.0,0.0,0.0,-2.40642,1.14592,8.30789,11.2,0.57,1.03,2.0
1758076555.88199,1758076555.89673,0.0,0.0,0.0,-9.5684,-22.23076,0.51566,11.2,0.57,1.03,2.0
1758076555.88287,1758076555.90673,0.0,0.0,0.0,-11.80293,-18.9649,-1.94806,10.75,0.97,1.56,2.0
1758076555.8979,1758076555.91673,0.0,0.0,0.0,-12.83425,-15.98552,-2.86479,10.75,0.97,1.56,2.0
1758076555.89995,1758076555.92673,0.0,0.0,0.0,-13.98017,-12.83425,-3.03668,11.97,1.36,-0.63,2.0
1758076555.91617,1758076555.93673,0.0,0.0,0.0,-15.06879,-3.09397,0.34377,11.97,1.36,-0.63,2.0
1758076555.93362,1758076555.94673,0.0,0.0,0.0,-14.03747,0.11459,3.72423,11.79,1.47,0.57,2.0
1758076555.93449,1758076555.95673,0.0,0.0,0.0,-10.8289,-0.34377,6.35983,11.28,1.07,1.24,2.0
1758076555.95003,1758076555.96673,0.0,0.0,0.0,-6.18794,-4.69825,7.04738,11.28,1.07,1.24,2.0
1758076555.95093,1758076555.97673,0.0,0.0,0.0,3.38045,-19.59516,3.89611,11.96,-0.13,3.11,2.0
1758076555.96571,1758076555.98673,0.0,0.0,0.0,9.4538,-33.74722,-1.43239,11.96,-0.13,3.11,2.0
1758076555.97123,1758076555.99673,0.0,0.0,0.0,15.35527,-42.97184,-7.16197,11.97,-1.57,3.87,2.0
1758076555.98777,1758076556.00673,0.0,0.0,0.0,21.25674,-49.84733,-11.91752,11.97,-1.57,3.87,2.0
1758076555.99133,1758076556.01673,0.0,0.0,0.0,29.9084,-56.55093,-14.09476,11.17,-2.36,3.04,2.0
1758076556.00783,1758076556.02673,0.0,0.0,0.0,34.37747,-62.5097,-11.97482,8.66,-2.1,2.03,2.0
1758076556.00995,1758076556.03673,0.0,0.0,0.0,36.84119,-68.98412,-9.05273,8.66,-2.1,2.03,2.0
1758076556.02585,1758076556.04673,0.0,0.0,0.0,37.29956,-72.70835,-6.07335,7.17,-0.95,1.94,2.0
1758076556.04311,1758076556.05673,0.0,0.0,0.0,34.95043,-74.94289,-2.06265,7.17,-0.95,1.94,2.0
1758076556.04507,1758076556.06673,0.0,0.0,0.0,31.56997,-76.1461,-0.22918,7.52,-0.02,2.87,2.0
1758076556.05971,1758076556.07673,0.0,0.0,0.0,27.61657,-75.91692,0.17189,7.52,-0.02,2.87,2.0
1758076556.06094,1758076556.08673,0.0,0.0,0.0,22.97561,-72.13539,-0.40107,9.09,0.63,4.23,2.0
1758076556.0758,1758076556.09673,0.0,0.0,0.0,16.55848,-61.36378,-2.29183,11.67,1.09,3.91,2.0
1758076556.09397,1758076556.10673,0.0,0.0,0.0,13.06344,-51.73809,-4.0107,11.67,1.09,3.91,2.0
1758076556.0948,1758076556.11673,0.0,0.0,0.0,9.96947,-40.45082,-4.92744,12.59,1.1,2.02,2.0
1758076556.11063,1758076556.12673,0.0,0.0,0.0,6.41713,-20.45459,-5.55769,12.59,1.1,2.02,2.0
1758076556.11181,1758076556.13673,0.0,0.0,0.0,4.98473,-6.18794,-5.55769,12.41,0.52,0.52,2.0
1758076556.12787,1758076556.14673,0.0,0.0,0.0,4.23989,7.73493,-5.55769,12.41,0.52,0.52,2.0
1758076556.12908,1758076556.15673,0.0,0.0,0.0,4.1253,19.76705,-5.09932,11.73,-0.25,0.6,2.0
1758076556.14511,1758076556.16673,0.0,0.0,0.0,4.92744,36.26823,-3.32316,11.73,-0.25,0.78,2.0
1758076556.16085,1758076556.17673,0.0,0.0,0.0,5.50039,46.2377,-1.20321,10.87,-0.7,0.78,2.0
1758076556.16205,1758076556.18673,0.0,0.0,0.0,5.95876,56.14987,1.03132,10.26,-0.72,0.66,2.0
1758076556.1777,1758076556.19673,0.0,0.0,0.0,6.24524,63.25455,2.86479,10.26,-0.72,0.66,2.0
1758076556.1807,1758076556.20673,0.0,0.0,0.0,5.90147,70.30193,3.89611,9.44,-0.41,0.7,2.0
1758076556.19615,1758076556.21673,0.0,0.0,0.0,5.72958,72.88023,3.72423,9.44,-0.41,0.7,2.0
1758076556.21371,1758076556.22673,0.0,0.0,0.0,4.58366,72.76565,2.86479,8.86,-0.12,0.85,2.0
1758076556.21411,1758076556.23673,0.0,0.0,0.0,2.7502,70.6457,1.48969,8.86,-0.12,0.85,2.0
1758076556.23,1758076556.24673,0.0,0.0,0.0,0.0,67.15066,-1.03132,8.34,-0.02,1.12,2.0
1758076556.23108,1758076556.25673,0.0,0.0,0.0,-1.71887,63.99939,-2.86479,8.24,-0.15,1.05,2.0
1758076556.24598,1758076556.26673,0.0,0.0,0.0,-2.40642,61.93674,-4.1253,8.24,-0.15,1.05,2.0
1758076556.26348,1758076556.27673,0.0,0.0,0.0,-1.94806,60.61894,-4.69825,8.41,-0.49,0.78,2.0
1758076556.26527,1758076556.28673,0.0,0.0,0.0,0.74485,58.4417,-3.66693,8.41,-0.49,0.78,2.0
1758076556.28125,1758076556.29673,0.0,0.0,0.0,3.32316,57.23849,-2.23454,8.62,-0.82,0.44,2.0
1758076556.28212,1758076556.30673,0.0,0.0,0.0,6.47442,56.37905,-0.17189,8.62,-0.82,0.44,2.0
1758076556.29797,1758076556.31673,0.0,0.0,0.0,12.08941,54.88936,3.83882,9.13,-0.98,0.5,2.0
1758076556.29963,1758076556.32673,0.0,0.0,0.0,16.38659,51.79538,6.58902,9.46,-1.07,0.47,2.0
1758076556.31522,1758076556.33673,0.0,0.0,0.0,21.08485,50.13381,9.22462,9.46,-1.07,0.47,2.0
1758076556.33118,1758076556.34673,0.0,0.0,0.0,25.8404,48.24305,11.57375,9.71,-1.2,0.4,2.0
1758076556.3324,1758076556.35673,0.0,0.0,0.0,32.20023,46.75336,13.46451,9.71,-1.2,0.4,2.0
1758076556.34726,1758076556.36673,0.0,0.0,0.0,36.15364,44.748,13.98017,9.73,-1.35,0.41,2.0
1758076556.36327,1758076556.37673,0.0,0.0,0.0,39.99245,40.27893,14.32395,9.73,-1.35,0.41,2.0
1758076556.36366,1758076556.38673,0.0,0.0,0.0,43.4875,33.63263,14.09476,9.15,-1.52,0.62,2.0
1758076556.38024,1758076556.39673,0.0,0.0,0.0,48.64412,20.34,13.98017,8.6,-1.52,0.55,2.0
1758076556.38137,1758076556.40673,0.0,0.0,0.0,51.39432,4.29718,13.86558,8.6,-1.59,0.55,2.0
1758076556.39599,1758076556.41673,0.0,0.0,0.0,52.36834,-13.40721,13.23533,7.66,-1.34,0.24,2.0
1758076556.4132,1758076556.42673,0.0,0.0,0.0,52.08187,-25.61122,11.34457,7.66,-1.34,0.24,2.0
1758076556.41365,1758076556.43673,0.0,0.0,0.0,51.73809,-14.78231,11.34457,9.5,-1.08,-0.29,2.0
1758076556.4292,1758076556.44673,0.0,0.0,0.0,50.64947,-1.43239,13.00614,9.5,-1.08,-0.29,2.0
1758076556.43014,1758076556.45673,0.0,0.0,0.0,48.70141,9.22462,11.74564,11.45,-0.87,0.63,2.0
1758076556.44525,1758076556.46673,0.0,0.0,0.0,46.40959,15.24068,11.74564,11.45,-0.87,0.63,2.0
1758076556.46123,1758076556.47673,0.0,0.0,0.0,41.94051,-10.25595,5.15662,10.61,-0.75,2.07,2.0
1758076556.46216,1758076556.48673,0.0,0.0,0.0,46.63877,-46.98254,8.0787,6.64,-0.79,0.5,2.0
1758076556.47726,1758076556.49673,0.0,0.0,0.0,48.07116,-61.70755,10.25595,6.64,-0.79,0.5,2.0
1758076556.47816,1758076556.50673,0.0,0.0,0.0,47.03984,-57.63955,12.60507,10.05,-1.08,-0.24,2.0
1758076556.49374,1758076556.51673,0.0,0.0,0.0,44.17505,-54.71747,11.91752,10.05,-1.08,-0.24,2.0
1758076556.50902,1758076556.52673,0.0,0.0,0.0,40.27893,-59.81679,13.12073,10.03,-0.45,0.14,2.0
1758076556.51018,1758076556.53673,0.0,0.0,0.0,34.09099,-71.50513,17.81899,10.03,-0.45,0.14,2.0
1758076556.52513,1758076556.54673,0.0,0.0,0.0,23.26209,-91.043,31.79916,11.46,1.1,4.62,2.0
1758076556.54103,1758076556.55673,0.0,0.0,0.0,14.43854,-92.41809,40.33623,14.37,2.35,5.81,2.0
1758076556.54413,1758076556.56673,0.0,0.0,0.0,3.83882,-88.63658,46.06581,14.37,2.35,5.81,2.0
1758076556.55982,1758076556.57673,0.0,0.0,0.0,-6.53172,-84.11021,47.89928,13.54,3.3,4.39,2.0
1758076556.56106,1758076556.58673,0.0,0.0,0.0,-18.33465,-76.20339,44.00316,13.54,3.3,4.39,2.0
1758076556.57606,1758076556.59673,0.0,0.0,0.0,-22.00158,-73.62508,38.56006,10.68,2.8,2.34,2.0
1758076556.57808,1758076556.60673,0.0,0.0,0.0,-22.00158,-70.76029,31.51268,10.68,2.8,2.34,2.0
1758076556.59478,1758076556.61673,0.0,0.0,0.0,-18.10547,-65.71826,23.54857,9.82,1.46,2.25,2.0
1758076556.61096,1758076556.62673,0.0,0.0,0.0,-5.72958,-56.83742,11.17268,10.48,-0.05,3.13,2.0
1758076556.61476,1758076556.63673,0.0,0.0,0.0,6.47442,-52.02457,6.24524,10.48,-0.05,3.13,2.0
1758076556.63111,1758076556.64673,0.0,0.0,0.0,18.44924,-42.68536,2.6929,11.55,-1.3,3.81,2.0
1758076556.63393,1758076556.65673,0.0,0.0,0.0,29.04896,-30.59595,1.03132,11.55,-1.3,3.81,2.0
1758076556.651,1758076556.66673,0.0,0.0,0.0,41.13837,-16.73037,1.03132,12.58,-1.83,2.99,2.0
1758076556.65374,1758076556.67673,0.0,0.0,0.0,46.40959,-7.73493,1.83346,12.58,-1.83,2.99,2.0
1758076556.67071,1758076556.68673,0.0,0.0,0.0,49.56085,3.60963,2.7502,11.86,-1.52,1.82,2.0
1758076556.67192,1758076556.69673,0.0,0.0,0.0,50.87865,14.20935,3.66693,11.86,-1.52,1.82,2.0
1758076556.68711,1758076556.70673,0.0,0.0,0.0,50.76406,28.24682,4.64096,10.83,-0.61,0.78,2.0
1758076556.6894,1758076556.71673,0.0,0.0,0.0,49.90463,37.98711,4.81285,9.84,0.31,0.32,2.0
1758076556.70538,1758076556.72673,0.0,0.0,0.0,48.70141,47.38361,4.18259,9.84,0.31,0.32,2.0
1758076556.72141,1758076556.73673,0.0,0.0,0.0,45.89392,55.86338,4.0107,9.09,0.91,0.32,2.0
1758076556.72234,1758076556.74673,0.0,0.0,0.0,44.57612,65.89015,3.60963,9.09,0.91,0.32,2.0
1758076556.73718,1758076556.75673,0.0,0.0,0.0,42.91454,73.3386,4.18259,8.39,1.32,0.63,2.0
1758076556.7403,1758076556.76673,0.0,0.0,0.0,40.7946,79.98491,5.50039,8.39,1.32,0.63,2.0
1758076556.75522,1758076556.77673,0.0,0.0,0.0,37.35685,81.64648,7.96411,8.28,1.4,1.11,2.0
1758076556.77113,1758076556.78673,0.0,0.0,0.0,34.66395,80.27139,8.36518,8.09,1.32,1.51,2.0
1758076556.77232,1758076556.79673,0.0,0.0,0.0,31.56997,78.15145,8.36518,8.09,1.32,1.51,2.0
1758076556.78733,1758076556.80673,0.0,0.0,0.0,28.76248,72.19269,8.30789,8.41,1.27,1.91,2.0
1758076556.79148,1758076556.81673,0.0,0.0,0.0,23.83505,59.01466,7.50575,8.41,1.27,1.91,2.0
1758076556.80735,1758076556.82673,0.0,0.0,0.0,21.08485,51.5662,5.95876,8.38,1.37,1.64,2.0
1758076556.80859,1758076556.83673,0.0,0.0,0.0,18.22006,45.26366,4.92744,8.38,1.37,1.64,2.0
1758076556.82357,1758076556.84673,0.0,0.0,0.0,15.46986,36.89849,3.49504,9.07,1.38,2.03,2.0
1758076556.84015,1758076556.85673,0.0,0.0,0.0,10.25595,26.87172,-0.22918,9.21,1.26,1.79,2.0
1758076556.84135,1758076556.86673,0.0,0.0,0.0,6.24524,25.15285,-4.23989,9.21,1.26,1.79,2.0
1758076556.85617,1758076556.87673,0.0,0.0,0.0,2.34913,25.8404,-8.36518,9.96,1.23,1.59,2.0
1758076556.85853,1758076556.88673,0.0,0.0,0.0,-1.60428,29.96569,-13.00614,9.96,1.23,1.59,2.0
1758076556.87521,1758076556.89673,0.0,0.0,0.0,-6.24524,35.92446,-16.67307,10.45,1.33,1.26,2.0
1758076556.89125,1758076556.90673,0.0,0.0,0.0,-9.4538,38.1017,-18.10547,10.45,1.33,1.26,2.0
1758076556.89398,1758076556.91673,0.0,0.0,0.0,-12.77696,37.64333,-18.50654,10.13,1.4,1.27,2.0
1758076556.90925,1758076556.92673,0.0,0.0,0.0,-15.69904,31.91375,-16.38659,10.13,1.4,1.27,2.0
1758076556.912,1758076556.93673,0.0,0.0,0.0,-18.73572,13.86558,-14.09476,9.13,1.43,0.8,2.0
1758076556.92727,1758076556.94673,0.0,0.0,0.0,-19.70975,0.11459,-10.31324,7.92,1.28,-0.09,2.0
1758076556.92923,1758076556.95673,0.0,0.0,0.0,-20.79837,-10.94349,-6.18794,7.92,1.28,-0.09,2.0
1758076556.94457,1758076556.96673,0.0,0.0,0.0,-22.00158,-21.25674,0.97403,8.01,0.86,-0.54,2.0
1758076556.9605,1758076556.97673,0.0,0.0,0.0,-23.0329,-16.73037,5.95876,8.01,0.86,-0.54,2.0
1758076556.96146,1758076556.98673,0.0,0.0,0.0,-23.31938,5.90147,3.32316,10.14,1.0,0.08,2.0
1758076556.97654,1758076556.99673,0.0,0.0,0.0,-22.57454,26.69983,6.18794,10.14,1.0,0.08,2.0
1758076556.97825,1758076557.00673,0.0,0.0,0.0,-22.74642,-7.62034,5.55769,11.51,0.81,0.73,2.0
1758076556.99427,1758076557.01673,0.0,0.0,0.0,-24.63719,-28.70519,2.34913,8.07,1.12,2.14,2.0
1758076557.01027,1758076557.02673,0.0,0.0,0.0,-27.50197,-34.60666,-2.23454,8.07,1.12,2.14,2.0
1758076557.01147,1758076557.03673,0.0,0.0,0.0,-28.24682,-31.91375,-4.29718,11.64,1.28,0.0,2.0
1758076557.02938,1758076557.04673,0.0,0.0,0.0,-29.33544,-25.7831,-6.07335,11.64,1.28,0.0,2.0
1758076557.03028,1758076557.05673,0.0,0.0,0.0,-30.59595,-22.68913,-5.78687,10.97,1.1,0.28,2.0
1758076557.04561,1758076557.06673,0.0,0.0,0.0,-30.99702,-19.99623,-3.89611,10.97,1.1,0.28,2.0
1758076557.06162,1758076557.07673,0.0,0.0,0.0,-28.64789,-20.45459,-1.66158,10.32,0.68,1.57,2.0
1758076557.06333,1758076557.08673,0.0,0.0,0.0,-21.7724,-30.88243,-2.11994,10.91,-0.48,3.0,2.0
1758076557.08027,1758076557.09673,0.0,0.0,0.0,-16.04282,-47.03984,-5.84417,10.91,-0.48,3.0,2.0
1758076557.08111,1758076557.10673,0.0,0.0,0.0,-10.48513,-60.27517,-12.37589,11.94,-2.08,5.07,2.0
1758076557.0963,1758076557.11673,0.0,0.0,0.0,-4.46907,-65.89015,-18.90761,11.94,-2.08,5.07,2.0
1758076557.09749,1758076557.12673,0.0,0.0,0.0,7.10468,-73.45319,-24.5226,12.78,-2.8,4.17,2.0
1758076557.11433,1758076557.13673,0.0,0.0,0.0,14.03747,-77.86497,-24.4653,12.78,-2.8,4.17,2.0
1758076557.13033,1758076557.14673,0.0,0.0,0.0,18.90761,-81.5892,-21.31403,10.43,-2.09,2.81,2.0
1758076557.13234,1758076557.15673,0.0,0.0,0.0,21.60051,-84.56858,-14.78231,10.43,-2.09,2.81,2.0
1758076557.14844,1758076557.16673,0.0,0.0,0.0,19.88164,-86.74582,-10.54242,8.39,-0.96,1.92,2.0
1758076557.15253,1758076557.17673,0.0,0.0,0.0,15.58445,-86.28745,-6.7609,7.88,-0.22,3.14,2.0
1758076557.16784,1758076557.18673,0.0,0.0,0.0,9.33921,-84.05292,-3.72423,7.88,-0.22,3.14,2.0
1758076557.16934,1758076557.19673,0.0,0.0,0.0,-1.60428,-76.43258,-1.08862,9.14,0.44,4.12,2.0
1758076557.18459,1758076557.20673,0.0,0.0,0.0,-7.96411,-68.29657,-0.45837,9.14,0.44,4.12,2.0
1758076557.20064,1758076557.21673,0.0,0.0,0.0,-12.89155,-59.53032,-0.11459,11.26,1.22,3.81,2.0
1758076557.2016,1758076557.22673,0.0,0.0,0.0,-16.21471,-49.61814,-0.97403,11.26,1.22,3.81,2.0
1758076557.21945,1758076557.23673,0.0,0.0,0.0,-18.33465,-31.16891,-3.55234,12.15,1.26,2.12,2.0
1758076557.22066,1758076557.24673,0.0,0.0,0.0,-18.10547,-19.48057,-6.13065,11.82,0.36,1.14,2.0
1758076557.23567,1758076557.25673,0.0,0.0,0.0,-16.50119,-8.47978,-8.59437,11.82,0.36,1.14,2.0
1758076557.25164,1758076557.26673,0.0,0.0,0.0,-14.03747,2.00535,-10.25595,10.85,-0.67,0.96,2.0
1758076557.25424,1758076557.27673,0.0,0.0,0.0,-10.08406,16.21471,-10.31324,10.85,-0.67,0.96,2.0
1758076557.2702,1758076557.28673,0.0,0.0,0.0,-7.39116,25.38203,-8.65166,10.25,-1.44,1.1,2.0
1758076557.27176,1758076557.29673,0.0,0.0,0.0,-4.35448,33.51803,-6.53172,10.25,-1.44,1.1,2.0
1758076557.29016,1758076557.30673,0.0,0.0,0.0,-1.71887,40.85189,-4.0107,9.69,-1.73,1.06,2.0
1758076557.29181,1758076557.31673,0.0,0.0,0.0,1.66158,50.76406,-0.85944,9.12,-1.61,0.84,2.0
1758076557.3075,1758076557.32673,0.0,0.0,0.0,3.89611,56.83742,0.68755,9.12,-1.61,0.84,2.0
1758076557.31112,1758076557.33673,0.0,0.0,0.0,5.90147,61.93674,2.00535,8.69,-1.27,0.91,2.0
1758076557.3264,1758076557.34673,0.0,0.0,0.0,7.50575,62.62429,2.6929,8.69,-1.27,0.91,2.0
1758076557.33115,1758076557.35673,0.0,0.0,0.0,8.88085,61.30648,1.66158,7.98,-0.86,0.97,2.0
1758076557.34667,1758076557.36673,0.0,0.0,0.0,9.5684,59.01466,1.03132,7.98,-0.86,0.97,2.0
1758076557.34763,1758076557.37673,0.0,0.0,0.0,10.02676,57.0093,0.17189,8.15,-0.61,1.03,2.0
1758076557.36574,1758076557.38673,0.0,0.0,0.0,11.34457,56.03527,-0.11459,8.15,-0.61,1.03,2.0
1758076557.38172,1758076557.39673,0.0,0.0,0.0,13.00614,55.6342,0.45837,8.78,-0.6,0.69,2.0
1758076557.38292,1758076557.40673,0.0,0.0,0.0,15.46986,55.29043,1.71887,9.4,-0.8,0.73,2.0
1758076557.39756,1758076557.41673,0.0,0.0,0.0,18.56383,55.06125,3.66693,9.4,-0.8,0.73,2.0
1758076557.40026,1758076557.42673,0.0,0.0,0.0,23.60586,54.02992,6.87549,9.75,-1.05,0.83,2.0
1758076557.41587,1758076557.43673,0.0,0.0,0.0,27.1582,52.71212,9.91217,9.75,-1.05,0.83,2.0
1758076557.43179,1758076557.44673,0.0,0.0,0.0,30.19488,52.54023,11.86023,9.81,-1.21,0.78,2.0
1758076557.43381,1758076557.45673,0.0,0.0,0.0,33.17426,52.13916,13.5218,9.81,-1.21,0.78,2.0
1758076557.44876,1758076557.46673,0.0,0.0,0.0,36.32552,51.50891,13.5218,9.77,-1.19,0.58,2.0
1758076557.44974,1758076557.47673,0.0,0.0,0.0,37.87251,50.76406,12.49048,9.6,-1.1,0.6,2.0
1758076557.46477,1758076557.48673,0.0,0.0,0.0,39.19032,47.61279,10.65701,9.6,-1.1,0.6,2.0
1758076557.48075,1758076557.49673,0.0,0.0,0.0,40.62271,40.68,8.70896,9.0,-1.0,0.52,2.0
1758076557.48171,1758076557.50673,0.0,0.0,0.0,42.68536,20.74107,4.98473,9.0,-1.0,0.52,2.0
1758076557.49657,1758076557.51673,0.0,0.0,0.0,43.37291,5.84417,2.7502,7.88,-0.9,0.24,2.0
1758076557.49841,1758076557.52673,0.0,0.0,0.0,43.60209,-4.1253,-1.20321,7.88,-0.9,0.24,2.0
1758076557.51471,1758076557.53673,0.0,0.0,0.0,45.37826,6.8182,-0.85944,8.85,-0.57,-0.33,2.0
1758076557.5305,1758076557.54673,0.0,0.0,0.0,47.72739,19.99623,0.85944,10.83,-0.48,0.49,2.0
1758076557.53274,1758076557.55673,0.0,0.0,0.0,48.64412,30.19488,2.34913,10.83,-0.48,0.49,2.0
1758076557.54919,1758076557.56673,0.0,0.0,0.0,47.78468,33.74722,3.03668,10.69,-0.57,2.31,2.0
1758076557.5511,1758076557.57673,0.0,0.0,0.0,46.40959,-9.62569,0.22918,10.69,-0.57,2.31,2.0
1758076557.56653,1758076557.58673,0.0,0.0,0.0,51.39432,-56.60823,5.15662,6.47,-0.68,1.86,2.0
1758076557.56801,1758076557.59673,0.0,0.0,0.0,52.36834,-74.59911,13.75099,6.47,-0.68,1.86,2.0
1758076557.58379,1758076557.60673,0.0,0.0,0.0,50.76406,-67.09336,17.53251,10.13,-1.31,-0.43,2.0
1758076557.6005,1758076557.61673,0.0,0.0,0.0,48.9879,-49.33167,19.19409,10.13,-1.31,-0.43,2.0
1758076557.60167,1758076557.62673,0.0,0.0,0.0,47.89928,-47.03984,17.24603,11.86,-0.98,-0.97,2.0
1758076557.61682,1758076557.63673,0.0,0.0,0.0,45.89392,-44.8053,14.83961,10.36,-0.26,0.14,2.0
1758076557.62045,1758076557.64673,0.0,0.0,0.0,42.34158,-38.61736,11.17268,10.36,-0.26,0.14,2.0
1758076557.63582,1758076557.65673,0.0,0.0,0.0,36.26823,-33.40344,3.20856,10.18,0.13,0.51,2.0
1758076557.6519,1758076557.66673,0.0,0.0,0.0,31.11161,-31.97105,-1.94806,10.18,0.13,0.51,2.0
1758076557.65387,1758076557.67673,0.0,0.0,0.0,25.21014,-33.68992,-4.18259,10.1,0.86,0.49,2.0
1758076557.66886,1758076557.68673,0.0,0.0,0.0,19.07949,-41.76862,-3.49504,10.1,0.86,0.49,2.0
1758076557.67094,1758076557.69673,0.0,0.0,0.0,13.46451,-63.65561,7.10468,11.4,1.29,3.71,2.0
1758076557.68558,1758076557.70673,0.0,0.0,0.0,10.48513,-71.50513,18.79302,13.19,1.07,4.5,2.0
1758076557.70162,1758076557.71673,0.0,0.0,0.0,6.53172,-72.88023,29.9084,13.19,1.07,4.5,2.0
1758076557.70277,1758076557.72673,0.0,0.0,0.0,2.06265,-74.771,38.50277,13.28,0.93,4.29,2.0
1758076557.71762,1758076557.73673,0.0,0.0,0.0,-3.49504,-78.20874,44.11775,13.28,0.93,4.29,2.0
1758076557.72043,1758076557.74673,0.0,0.0,0.0,-6.24524,-78.09415,42.68536,10.28,0.7,2.78,2.0
1758076557.73592,1758076557.75673,0.0,0.0,0.0,-8.25059,-74.88559,37.64333,10.28,0.7,2.78,2.0
1758076557.75196,1758076557.76673,0.0,0.0,0.0,-8.88085,-68.69764,25.89769,8.87,0.37,1.63,2.0
1758076557.75363,1758076557.77673,0.0,0.0,0.0,-6.7609,-59.01466,17.36062,8.49,0.18,2.4,2.0
1758076557.76895,1758076557.78673,0.0,0.0,0.0,-2.92208,-52.02457,10.59972,8.49,0.18,2.4,2.0
1758076557.77034,1758076557.79673,0.0,0.0,0.0,2.6929,-42.62806,5.4431,9.62,-0.2,3.74,2.0
1758076557.78547,1758076557.80673,0.0,0.0,0.0,12.49048,-27.50197,2.11994,9.62,-0.2,3.74,2.0
1758076557.80186,1758076557.81673,0.0,0.0,0.0,18.50654,-17.81899,2.11994,11.41,-0.75,3.54,2.0
1758076557.80298,1758076557.82673,0.0,0.0,0.0,24.12152,-8.02141,3.32316,11.41,-0.75,3.54,2.0
1758076557.81792,1758076557.83673,0.0,0.0,0.0,28.13223,2.86479,4.29718,12.42,-1.13,2.19,2.0
1758076557.81896,1758076557.84673,0.0,0.0,0.0,31.97105,20.79837,5.61499,12.56,-1.13,0.79,2.0
1758076557.83389,1758076557.85673,0.0,0.0,0.0,33.46074,31.91375,5.84417,12.56,-1.03,0.79,2.0
1758076557.8499,1758076557.86673,0.0,0.0,0.0,34.0337,41.88322,5.50039,11.61,-0.29,0.52,2.0
1758076557.85118,1758076557.87673,0.0,0.0,0.0,34.0337,51.50891,4.52637,11.61,-0.29,0.52,2.0
1758076557.86591,1758076557.88673,0.0,0.0,0.0,34.32018,63.25455,2.57831,10.47,0.39,0.74,2.0
1758076557.88198,1758076557.89673,0.0,0.0,0.0,34.0337,68.41116,1.43239,10.47,0.39,0.74,2.0
1758076557.88614,1758076557.90673,0.0,0.0,0.0,33.74722,72.07809,1.3751,9.07,0.94,0.84,2.0
1758076557.90195,1758076557.91673,0.0,0.0,0.0,33.9764,68.86953,2.46372,9.07,0.94,0.84,2.0
1758076557.90609,1758076557.92673,0.0,0.0,0.0,32.54401,62.05133,3.60963,7.84,1.05,1.33,2.0
1758076557.92352,1758076557.93673,0.0,0.0,0.0,30.88243,58.4417,4.0107,7.72,0.97,1.07,2.0
1758076557.92605,1758076557.94673,0.0,0.0,0.0,28.41871,55.6342,3.72423,7.72,0.97,1.07,2.0
1758076557.96791,1758076557.95673,0.0,0.0,0.0,25.61122,52.42564,2.63561,7.96,1.07,0.7,2.0
1758076557.97519,1758076557.96673,0.0,0.0,0.0,20.05352,48.30034,-0.17189,7.96,1.07,0.7,2.0
1758076557.97621,1758076557.97673,0.0,0.0,0.0,16.04282,44.9199,-1.94806,8.63,1.33,0.42,2.0
1758076557.98022,1758076557.98673,0.0,0.0,0.0,11.00079,43.4875,-5.61499,8.63,1.33,0.42,2.0
1758076557.98272,1758076557.99673,0.0,0.0,0.0,3.60963,42.74266,-11.00079,9.55,1.61,0.69,2.0
1758076557.98608,1758076558.00673,0.0,0.0,0.0,-1.14592,43.14373,-14.03747,10.08,1.48,0.9,2.0
1758076558.00197,1758076558.01673,0.0,0.0,0.0,-6.07335,42.68536,-16.84496,10.08,1.48,0.9,2.0
1758076558.0032,1758076558.02673,0.0,0.0,0.0,-10.94349,42.34158,-19.13679,9.93,1.27,0.82,2.0
1758076558.01941,1758076558.03673,0.0,0.0,0.0,-17.01685,42.34158,-20.45459,9.93,1.27,0.82,2.0
1758076558.02053,1758076558.04673,0.0,0.0,0.0,-20.11082,43.54479,-19.99623,10.05,1.16,0.67,2.0
1758076558.03598,1758076558.05673,0.0,0.0,0.0,-22.68913,43.20102,-17.93358,10.05,1.16,0.67,2.0
1758076558.05176,1758076558.06673,0.0,0.0,0.0,-24.57989,40.10705,-14.72501,9.81,1.12,0.65,2.0
1758076558.05377,1758076558.07673,0.0,0.0,0.0,-26.35606,30.36677,-8.65166,8.85,1.04,0.44,2.0
1758076558.069,1758076558.08673,0.0,0.0,0.0,-27.1582,21.88699,-4.58366,8.85,1.04,0.44,2.0
1758076558.07035,1758076558.09673,0.0,0.0,0.0,-27.50197,11.45916,-0.85944,7.99,0.75,-0.01,2.0
1758076558.08499,1758076558.10673,0.0,0.0,0.0,-27.96034,-1.03132,3.20856,7.99,0.75,-0.01,2.0
1758076558.10104,1758076558.11673,0.0,0.0,0.0,-28.93437,-17.58981,8.42248,7.75,0.51,-0.29,2.0
1758076558.10201,1758076558.12673,0.0,0.0,0.0,-29.22085,-4.81285,7.33386,7.75,0.51,-0.29,2.0
1758076558.11707,1758076558.13673,0.0,0.0,0.0,-30.93972,22.40265,5.72958,11.28,0.59,0.34,2.0
1758076558.11808,1758076558.14673,0.0,0.0,0.0,-30.65324,31.91375,7.62034,11.28,0.59,0.34,2.0
1758076558.1351,1758076558.15673,0.0,0.0,0.0,-33.46074,-22.97561,-2.86479,9.98,0.76,1.49,2.0
1758076558.15074,1758076558.16673,0.0,0.0,0.0,-35.69527,-35.63798,-6.24524,9.84,1.09,1.96,2.0
1758076558.15201,1758076558.17673,0.0,0.0,0.0,-37.92981,-38.78925,-10.94349,9.84,1.09,1.96,2.0
1758076558.16792,1758076558.18673,0.0,0.0,0.0,-38.90384,-32.42941,-13.00614,12.2,1.39,-0.45,2.0
1758076558.1691,1758076558.19673,0.0,0.0,0.0,-38.15899,-22.68913,-11.57375,12.2,1.39,-0.45,2.0
1758076558.18387,1758076558.20673,0.0,0.0,0.0,-36.7266,-19.36597,-8.76626,11.32,0.98,0.23,2.0
1758076558.20014,1758076558.21673,0.0,0.0,0.0,-34.77854,-15.06879,-4.92744,11.32,0.98,0.23,2.0
1758076558.2013,1758076558.22673,0.0,0.0,0.0,-29.8511,-12.89155,1.14592,9.92,0.57,0.56,2.0
1758076558.21588,1758076558.23673,0.0,0.0,0.0,-24.12152,-18.16276,3.60963,9.29,-0.52,1.18,2.0
1758076558.2322,1758076558.24673,0.0,0.0,0.0,-17.6471,-33.80451,3.09397,9.29,-0.52,1.18,2.0
1758076558.23394,1758076558.25673,0.0,0.0,0.0,-12.43318,-58.4417,-2.00535,9.48,-1.93,3.78,2.0
1758076558.24984,1758076558.26673,0.0,0.0,0.0,-4.98473,-82.62051,-14.32395,9.48,-1.93,3.78,2.0
1758076558.25114,1758076558.27673,0.0,0.0,0.0,1.3751,-89.03764,-21.94428,11.43,-2.58,4.33,2.0
1758076558.26625,1758076558.28673,0.0,0.0,0.0,8.0787,-93.79319,-27.73116,11.43,-2.58,4.33,2.0
1758076558.28222,1758076558.29673,0.0,0.0,0.0,13.12073,-94.93911,-30.99702,11.59,-2.19,3.28,2.0
1758076558.28306,1758076558.30673,0.0,0.0,0.0,17.01685,-93.62132,-29.73651,10.2,-1.17,3.06,2.0
1758076558.2979,1758076558.31673,0.0,0.0,0.0,17.6471,-94.88181,-26.81443,10.2,-1.17,3.06,2.0
1758076558.29989,1758076558.32673,0.0,0.0,0.0,15.64175,-93.44942,-23.0902,8.52,-0.5,2.72,2.0
1758076558.31519,1758076558.33673,0.0,0.0,0.0,11.11538,-88.2355,-19.42327,8.52,-0.5,2.72,2.0
1758076558.33119,1758076558.34673,0.0,0.0,0.0,1.3178,-78.26604,-13.06344,9.14,-0.04,3.48,2.0
1758076558.33209,1758076558.35673,0.0,0.0,0.0,-5.32851,-69.67168,-8.93814,9.14,-0.04,3.48,2.0
1758076558.3477,1758076558.36673,0.0,0.0,0.0,-11.00079,-59.18654,-5.4431,11.08,0.68,3.59,2.0
1758076558.34892,1758076558.37673,0.0,0.0,0.0,-10.25595,-46.52417,-2.57831,11.08,0.68,3.59,2.0
1758076558.36425,1758076558.38673,0.0,0.0,0.0,-17.47521,-28.30412,-0.80214,12.58,1.04,2.31,2.0
1758076558.38125,1758076558.39673,0.0,0.0,0.0,-17.30333,-13.98017,-1.71887,12.78,0.56,0.91,2.0
1758076558.38261,1758076558.40673,0.0,0.0,0.0,-15.69904,-1.14592,-3.60963,12.78,0.56,0.91,2.0
1758076558.39724,1758076558.41673,0.0,0.0,0.0,-12.14671,16.38659,-6.70361,11.67,-0.4,0.44,2.0
1758076558.39811,1758076558.42673,0.0,0.0,0.0,-9.22462,27.73116,-8.02141,11.67,-0.4,0.44,2.0
1758076558.41497,1758076558.43673,0.0,0.0,0.0,-6.35983,38.15899,-8.136,10.72,-1.33,0.5,2.0
1758076558.43121,1758076558.44673,0.0,0.0,0.0,-3.72423,47.44091,-7.62034,10.72,-1.33,0.5,2.0
1758076558.43217,1758076558.45673,0.0,0.0,0.0,-0.85944,56.55093,-6.47442,9.49,-1.75,0.64,2.0
1758076558.44695,1758076558.46673,0.0,0.0,0.0,0.74485,61.24919,-5.72958,8.35,-1.62,0.73,2.0
1758076558.44818,1758076558.47673,0.0,0.0,0.0,1.60428,66.40582,-5.32851,8.35,-1.62,0.73,2.0
1758076558.46505,1758076558.48673,0.0,0.0,0.0,3.09397,71.56243,-4.64096,8.2,-1.34,1.1,2.0
1758076558.48125,1758076558.49673,0.0,0.0,0.0,5.21392,72.42187,-4.58366,8.2,-1.34,1.1,2.0
1758076558.48259,1758076558.50673,0.0,0.0,0.0,6.70361,69.27061,-4.46907,7.61,-1.03,1.31,2.0
1758076558.49797,1758076558.51673,0.0,0.0,0.0,8.136,65.77556,-3.95341,7.61,-1.03,1.31,2.0
1758076558.50033,1758076558.52673,0.0,0.0,0.0,10.08406,63.65561,-3.38045,7.81,-0.9,1.15,2.0
1758076558.51498,1758076558.53673,0.0,0.0,0.0,13.80828,61.76485,-0.97403,8.76,-1.04,0.78,2.0
1758076558.5313,1758076558.54673,0.0,0.0,0.0,17.6471,62.05133,1.43239,8.76,-1.04,0.78,2.0
1758076558.5325,1758076558.55673,0.0,0.0,0.0,22.34536,63.25455,4.92744,9.97,-1.34,0.83,2.0
1758076558.54726,1758076558.56673,0.0,0.0,0.0,26.87172,63.65561,8.88085,9.97,-1.34,0.83,2.0
1758076558.54906,1758076558.57673,0.0,0.0,0.0,33.23156,64.51505,14.43854,10.46,-1.52,0.88,2.0
1758076558.5653,1758076558.58672,0.0,0.0,0.0,36.6693,65.37449,16.95955,10.46,-1.52,0.88,2.0
1758076558.58101,1758076558.59672,0.0,0.0,0.0,39.01843,64.91612,18.56383,10.55,-1.27,0.83,2.0
1758076558.58424,1758076558.60672,0.0,0.0,0.0,40.7373,63.65561,17.87628,10.55,-1.27,0.83,2.0
1758076558.60006,1758076558.61672,0.0,0.0,0.0,41.59674,57.75415,16.50119,10.08,-0.94,0.8,2.0
1758076558.60103,1758076558.62672,0.0,0.0,0.0,41.31026,50.13381,13.40721,9.35,-0.69,0.61,2.0
1758076558.61604,1758076558.63672,0.0,0.0,0.0,40.39353,41.65404,9.5684,9.35,-0.69,0.61,2.0
1758076558.63226,1758076558.64672,0.0,0.0,0.0,38.38818,28.07493,2.57831,8.68,-0.42,0.29,2.0
1758076558.63323,1758076558.65672,0.0,0.0,0.0,37.24226,31.28349,-2.63561,8.68,-0.42,0.29,2.0
1758076558.64832,1758076558.66672,0.0,0.0,0.0,38.73195,36.49741,-3.49504,9.52,-0.24,-0.09,2.0
1758076558.64925,1758076558.67672,0.0,0.0,0.0,39.87786,37.12767,-3.60963,9.52,-0.24,-0.09,2.0
1758076558.66511,1758076558.68672,0.0,0.0,0.0,40.27893,43.02913,-3.55234,9.72,-0.28,0.81,2.0
1758076558.68134,1758076558.69672,0.0,0.0,0.0,39.87786,43.54479,-3.49504,10.17,-0.43,1.74,2.0
1758076558.68222,1758076558.70672,0.0,0.0,0.0,39.01843,34.37747,-5.95876,10.17,-0.43,1.74,2.0
1758076558.69735,1758076558.71672,0.0,0.0,0.0,35.75257,-4.18259,-6.8182,7.22,-0.45,1.55,2.0
1758076558.69904,1758076558.72672,0.0,0.0,0.0,39.4768,-63.59832,2.40642,7.22,-0.45,1.55,2.0
1758076558.71507,1758076558.73672,0.0,0.0,0.0,40.27893,-66.635,8.93814,8.06,-0.87,-0.08,2.0
1758076558.73137,1758076558.74672,0.0,0.0,0.0,39.53409,-59.41573,12.71966,8.06,-0.87,-0.08,2.0
1758076558.73269,1758076558.75672,0.0,0.0,0.0,38.38818,-51.39432,14.49583,11.48,-0.83,-0.41,2.0
1758076558.74734,1758076558.76672,0.0,0.0,0.0,36.26823,-48.30034,14.49583,10.29,-0.31,-0.07,2.0
1758076558.74934,1758076558.77672,0.0,0.0,0.0,33.40344,-47.95657,13.69369,10.29,-0.31,-0.07,2.0
1758076558.7653,1758076558.78672,0.0,0.0,0.0,29.04896,-45.20637,10.48513,9.85,0.14,1.28,2.0
1758076558.78132,1758076558.79672,0.0,0.0,0.0,23.54857,-45.72203,5.84417,9.85,0.14,1.28,2.0
1758076558.78499,1758076558.80672,0.0,0.0,0.0,11.91752,-55.23313,5.4431,9.55,1.02,1.17,2.0
1758076558.80012,1758076558.81672,0.0,0.0,0.0,4.58366,-66.80688,8.70896,9.55,1.02,1.17,2.0
1758076558.80138,1758076558.82672,0.0,0.0,0.0,-1.08862,-79.18277,16.3293,11.13,1.8,4.37,2.0
1758076558.81641,1758076558.83672,0.0,0.0,0.0,-8.65166,-81.5892,29.8511,11.13,1.8,4.37,2.0
1758076558.81972,1758076558.84672,0.0,0.0,0.0,-13.80828,-80.44328,37.75792,13.78,1.71,4.61,2.0
1758076558.83516,1758076558.85672,0.0,0.0,0.0,-18.16276,-81.70379,42.62806,12.85,1.22,4.71,2.0
1758076558.85243,1758076558.86672,0.0,0.0,0.0,-20.85567,-84.85506,43.60209,12.85,1.22,4.71,2.0
1758076558.85521,1758076558.87672,0.0,0.0,0.0,-21.7151,-85.94368,37.87251,10.08,0.4,3.12,2.0
1758076558.87016,1758076558.88672,0.0,0.0,0.0,-19.70975,-82.33404,30.99702,10.08,0.4,3.12,2.0
1758076558.87211,1758076558.89672,0.0,0.0,0.0,-15.46986,-77.17742,23.0329,9.01,-0.27,2.33,2.0
1758076558.88844,1758076558.90672,0.0,0.0,0.0,-9.91217,-71.39055,15.06879,9.01,-0.27,2.33,2.0
1758076558.89093,1758076558.91672,0.0,0.0,0.0,0.74485,-60.16057,5.78687,8.8,-0.73,3.19,2.0
1758076558.90618,1758076558.92672,0.0,0.0,0.0,8.59437,-49.33167,2.23454,10.48,-1.16,4.16,2.0
1758076558.91009,1758076558.93672,0.0,0.0,0.0,15.69904,-37.75792,0.11459,10.48,-1.16,4.16,2.0
1758076558.92541,1758076558.94672,0.0,0.0,0.0,21.88699,-27.73116,-0.40107,12.13,-1.38,3.23,2.0
1758076558.94149,1758076558.95672,0.0,0.0,0.0,28.41871,-11.80293,0.40107,12.13,-1.38,3.23,2.0
1758076558.94279,1758076558.96672,0.0,0.0,0.0,30.93972,0.80214,1.60428,12.72,-1.15,1.59,2.0
1758076558.95737,1758076558.97672,0.0,0.0,0.0,32.71589,13.75099,2.97938,12.72,-1.15,1.59,2.0
1758076558.95861,1758076558.98672,0.0,0.0,0.0,33.63263,25.21014,3.83882,12.51,-0.63,0.4,2.0
1758076558.97518,1758076558.99672,0.0,0.0,0.0,33.86181,41.99781,3.72423,11.31,0.03,0.45,2.0
1758076558.99171,1758076559.00672,0.0,0.0,0.0,33.68992,52.19646,3.09397,11.31,0.03,0.45,2.0
1758076558.99278,1758076559.01672,0.0,0.0,0.0,31.97105,63.19725,1.71887,10.14,0.56,0.64,2.0
1758076559.00848,1758076559.02672,0.0,0.0,0.0,31.39809,72.30728,1.83346,10.14,0.56,0.64,2.0
1758076559.01097,1758076559.03672,0.0,0.0,0.0,29.9084,73.68237,0.45837,8.76,0.93,1.11,2.0
1758076559.02623,1758076559.04672,0.0,0.0,0.0,28.30412,71.10406,0.34377,8.76,0.93,1.11,2.0
1758076559.02824,1758076559.05672,0.0,0.0,0.0,26.81443,68.69764,1.03132,7.79,0.93,1.21,2.0
1758076559.04458,1758076559.06672,0.0,0.0,0.0,23.89234,65.08801,2.57831,7.79,0.93,1.21,2.0
1758076559.06158,1758076559.07672,0.0,0.0,0.0,21.37133,60.73353,3.09397,7.73,0.99,0.87,2.0
1758076559.06247,1758076559.08672,0.0,0.0,0.0,18.10547,56.49364,3.26586,7.72,1.08,0.73,2.0
1758076559.07729,1758076559.09672,0.0,0.0,0.0,13.98017,54.71747,2.63561,7.72,1.08,0.73,2.0
1758076559.07853,1758076559.10672,0.0,0.0,0.0,7.21927,51.22243,0.74485,8.61,1.35,0.33,2.0
1758076559.09738,1758076559.11672,0.0,0.0,0.0,1.60428,51.45161,-3.09397,8.61,1.35,0.33,2.0
1758076559.1,1758076559.12672,0.0,0.0,0.0,-3.38045,51.27972,-7.10468,9.56,1.63,0.68,2.0
1758076559.11603,1758076559.13672,0.0,0.0,0.0,-8.76626,51.45161,-11.57375,9.56,1.63,0.68,2.0
1758076559.13337,1758076559.14672,0.0,0.0,0.0,-15.75634,52.08187,-17.53251,10.03,1.66,1.11,2.0
1758076559.13432,1758076559.15672,0.0,0.0,0.0,-19.99623,52.76942,-20.79837,10.03,1.43,0.79,2.0
1758076559.15009,1758076559.16672,0.0,0.0,0.0,-23.60586,52.76942,-22.63183,10.03,1.43,0.79,2.0
1758076559.15123,1758076559.17672,0.0,0.0,0.0,-26.81443,53.11319,-23.54857,9.96,1.21,0.67,2.0
1758076559.16664,1758076559.18672,0.0,0.0,0.0,-30.30947,49.38896,-20.34,9.96,1.21,0.67,2.0
1758076559.18234,1758076559.19672,0.0,0.0,0.0,-31.85646,43.37291,-16.73037,9.44,0.96,0.52,2.0
1758076559.18543,1758076559.20672,0.0,0.0,0.0,-33.11696,35.2942,-12.43318,9.44,0.96,0.52,2.0
1758076559.20066,1758076559.21672,0.0,0.0,0.0,-33.74722,25.55392,-5.61499,8.56,0.63,0.16,2.0
1758076559.20156,1758076559.22672,0.0,0.0,0.0,-33.80451,9.74028,-0.68755,7.91,0.37,-0.35,2.0
1758076559.21635,1758076559.23672,0.0,0.0,0.0,-33.86181,-2.86479,3.32316,7.91,0.37,-0.35,2.0
1758076559.23264,1758076559.24672,0.0,0.0,0.0,-33.86181,-13.46451,8.30789,7.92,0.23,-0.23,2.0
1758076559.23357,1758076559.25672,0.0,0.0,0.0,-33.80451,6.99009,6.07335,7.92,0.23,-0.23,2.0
1758076559.24922,1758076559.26672,0.0,0.0,0.0,-34.43476,33.51803,5.50039,11.89,0.57,0.37,2.0
1758076559.25039,1758076559.27672,0.0,0.0,0.0,-33.17426,15.46986,7.39116,11.89,0.57,0.37,2.0
1758076559.26564,1758076559.28672,0.0,0.0,0.0,-38.73195,-19.25138,-0.74485,8.57,1.02,1.97,2.0
1758076559.28166,1758076559.29672,0.0,0.0,0.0,-42.05511,-36.84119,-5.95876,8.57,1.02,1.57,2.0
1758076559.283,1758076559.30672,0.0,0.0,0.0,-43.94586,-36.61201,-9.85487,10.63,1.21,1.57,2.0
1758076559.29737,1758076559.31672,0.0,0.0,0.0,-45.26366,-29.56462,-11.57375,12.06,1.29,-0.22,2.0
1758076559.29889,1758076559.32672,0.0,0.0,0.0,-46.06581,-24.00693,-11.57375,12.06,1.29,-0.22,2.0
1758076559.31437,1758076559.33672,0.0,0.0,0.0,-45.72203,-17.47521,-7.84952,11.05,0.73,0.78,2.0
1758076559.33066,1758076559.34672,0.0,0.0,0.0,-43.77398,-13.5218,-4.29718,11.05,0.73,0.78,2.0
1758076559.33194,1758076559.35672,0.0,0.0,0.0,-40.10705,-14.20935,-1.3751,10.07,0.13,0.9,2.0
1758076559.34635,1758076559.36672,0.0,0.0,0.0,-34.14828,-21.08485,-0.11459,10.07,0.13,0.9,2.0
1758076559.36265,1758076559.37672,0.0,0.0,0.0,-24.63719,-46.63877,-4.46907,9.97,-1.06,2.21,2.0
1758076559.36381,1758076559.38672,0.0,0.0,0.0,-19.53786,-63.42643,-12.08941,11.05,-2.19,4.81,2.0
1758076559.3784,1758076559.39672,0.0,0.0,0.0,-14.66772,-72.42187,-20.74107,11.05,-2.19,4.81,2.0
1758076559.38075,1758076559.40672,0.0,0.0,0.0,-8.93814,-76.54716,-27.96034,12.71,-2.55,4.69,2.0
1758076559.39576,1758076559.41672,0.0,0.0,0.0,0.22918,-83.53725,-32.71589,12.71,-2.55,4.69,2.0
1758076559.41169,1758076559.42672,0.0,0.0,0.0,4.35448,-86.68852,-31.79916,11.4,-1.86,3.93,2.0
1758076559.41286,1758076559.43672,0.0,0.0,0.0,6.24524,-90.18356,-28.476,11.4,-1.86,3.93,2.0
1758076559.42745,1758076559.44672,0.0,0.0,0.0,6.24524,-93.16295,-21.08485,9.08,-0.81,2.28,2.0
1758076559.4286,1758076559.45672,0.0,0.0,0.0,3.60963,-93.7359,-15.69904,7.68,-0.29,2.65,2.0
1758076559.44471,1758076559.46672,0.0,0.0,0.0,-1.20321,-90.69922,-10.94349,7.68,-0.29,2.65,2.0
1758076559.46074,1758076559.47672,0.0,0.0,0.0,-7.62034,-85.77179,-6.41713,8.41,0.06,3.51,2.0
1758076559.46164,1758076559.48672,0.0,0.0,0.0,-17.47521,-74.42722,-1.71887,8.41,0.06,3.51,2.0
1758076559.47845,1758076559.49672,0.0,0.0,0.0,-22.57454,-65.08801,-0.0573,10.87,0.7,4.04,2.0
1758076559.48053,1758076559.50672,0.0,0.0,0.0,-25.55392,-54.66018,0.11459,10.87,0.7,4.04,2.0
1758076559.49547,1758076559.51672,0.0,0.0,0.0,-26.98631,-42.39888,-0.74485,12.59,0.93,2.33,2.0
1758076559.51277,1758076559.52672,0.0,0.0,0.0,-26.69983,-20.45459,-4.18259,12.66,0.25,0.85,2.0
1758076559.51466,1758076559.53672,0.0,0.0,0.0,-24.92367,-7.21927,-7.10468,12.66,0.25,0.85,2.0
1758076559.52947,1758076559.54672,0.0,0.0,0.0,-22.57454,4.0107,-9.28192,11.16,-0.73,0.56,2.0
1758076559.53102,1758076559.55672,0.0,0.0,0.0,-19.76705,15.87093,-9.96947,11.16,-0.73,0.56,2.0
1758076559.54583,1758076559.56672,0.0,0.0,0.0,-15.58445,31.56997,-8.70896,10.24,-1.47,0.8,2.0
1758076559.56175,1758076559.57672,0.0,0.0,0.0,-13.00614,40.7946,-7.16197,10.24,-1.47,0.8,2.0
1758076559.56271,1758076559.58672,0.0,0.0,0.0,-10.59972,47.67009,-5.61499,9.25,-1.73,1.0,2.0
1758076559.57775,1758076559.59672,0.0,0.0,0.0,-8.47978,53.62885,-4.1253,9.25,-1.73,1.0,2.0
1758076559.57951,1758076559.60672,0.0,0.0,0.0,-5.78687,62.05133,-2.7502,8.39,-1.57,1.02,2.0
1758076559.59577,1758076559.61672,0.0,0.0,0.0,-3.95341,66.80688,-1.94806,8.19,-1.35,1.17,2.0
1758076559.61152,1758076559.62672,0.0,0.0,0.0,-2.23454,68.29657,-1.48969,8.19,-1.35,1.17,2.0
1758076559.61298,1758076559.63672,0.0,0.0,0.0,-0.74485,65.66096,-2.46372,7.58,-1.08,1.11,2.0
1758076559.62752,1758076559.64672,0.0,0.0,0.0,1.3178,63.88479,-2.92208,7.58,-1.08,1.11,2.0
1758076559.62872,1758076559.65672,0.0,0.0,0.0,2.92208,63.42643,-3.72423,8.09,-0.94,0.9,2.0
1758076559.64457,1758076559.66672,0.0,0.0,0.0,5.27121,64.85883,-3.66693,8.09,-0.94,0.9,2.0
1758076559.66084,1758076559.67672,0.0,0.0,0.0,10.54242,68.41116,-2.57831,9.07,-0.98,0.5,2.0
1758076559.66176,1758076559.68672,0.0,0.0,0.0,15.12609,69.90086,-0.68755,9.9,-1.23,0.58,2.0
1758076559.67683,1758076559.69672,0.0,0.0,0.0,20.16812,71.67702,2.00535,9.9,-1.23,0.58,2.0
1758076559.67901,1758076559.70672,0.0,0.0,0.0,25.21014,73.05212,5.27121,10.4,-1.43,0.65,2.0
1758076559.69583,1758076559.71672,0.0,0.0,0.0,32.08564,75.91692,9.74028,10.4,-1.43,0.65,2.0
1758076559.71155,1758076559.72672,0.0,0.0,0.0,35.52338,76.31798,12.08941,10.49,-1.4,0.59,2.0
1758076559.71277,1758076559.73672,0.0,0.0,0.0,38.15899,75.17207,12.77696,10.49,-1.4,0.59,2.0
1758076559.72752,1758076559.74672,0.0,0.0,0.0,40.16434,72.19269,12.60507,9.95,-1.17,0.67,2.0
1758076559.72877,1758076559.75672,0.0,0.0,0.0,42.62806,61.59297,11.80293,9.23,-1.03,0.58,2.0
1758076559.74486,1758076559.76672,0.0,0.0,0.0,43.77398,50.64947,9.91217,9.23,-1.03,0.58,2.0
1758076559.76076,1758076559.77672,0.0,0.0,0.0,44.11775,39.87786,7.33386,8.46,-0.92,0.28,2.0
1758076559.7618,1758076559.78672,0.0,0.0,0.0,44.17505,29.67921,4.1253,8.46,-0.92,0.28,2.0
1758076559.7766,1758076559.79672,0.0,0.0,0.0,44.8053,34.60666,-0.74485,8.94,-0.77,0.0,2.0
1758076559.79368,1758076559.80672,0.0,0.0,0.0,47.03984,39.82057,-2.00535,8.94,-0.77,0.0,2.0
1758076559.79462,1758076559.81672,0.0,0.0,0.0,49.27437,37.87251,-0.11459,10.05,-0.69,0.73,2.0
1758076559.80986,1758076559.82672,0.0,0.0,0.0,50.47758,37.18496,0.97403,10.05,-0.69,0.73,2.0
1758076559.81116,1758076559.83672,0.0,0.0,0.0,49.50356,39.64868,1.03132,10.06,-0.69,2.09,2.0
1758076559.82591,1758076559.84672,0.0,0.0,0.0,49.33167,25.38203,1.71887,9.84,-0.58,2.04,2.0
1758076559.84374,1758076559.85672,0.0,0.0,0.0,44.11775,-10.65701,-1.08862,9.84,-0.58,2.04,2.0
1758076559.84411,1758076559.86672,0.0,0.0,0.0,45.77933,-58.84277,9.33921,7.18,-0.66,0.5,2.0
1758076559.86084,1758076559.87672,0.0,0.0,0.0,43.54479,-57.41038,14.49583,7.18,-0.66,0.5,2.0
1758076559.86167,1758076559.88672,0.0,0.0,0.0,41.08107,-50.363,17.87628,11.54,-0.8,0.09,2.0
1758076559.87691,1758076559.89672,0.0,0.0,0.0,38.56006,-49.15978,18.10547,11.54,-0.8,0.09,2.0
1758076559.89271,1758076559.90672,0.0,0.0,0.0,35.2369,-44.46153,17.6471,10.26,-0.17,-0.51,2.0
1758076559.8934,1758076559.91672,0.0,0.0,0.0,31.28349,-44.9199,16.73037,10.0,0.6,1.78,2.0
1758076559.90893,1758076559.92672,0.0,0.0,0.0,24.17882,-48.8733,14.66772,10.0,0.6,1.78,2.0
1758076559.91063,1758076559.93672,0.0,0.0,0.0,16.10011,-60.67623,14.9542,9.95,1.69,2.78,2.0
1758076559.92579,1758076559.94672,0.0,0.0,0.0,4.0107,-77.4639,20.51189,9.95,1.69,2.78,2.0
1758076559.94202,1758076559.95672,0.0,0.0,0.0,-3.26586,-81.36001,27.73116,12.07,2.53,4.89,2.0
1758076559.94242,1758076559.96672,0.0,0.0,0.0,-10.65701,-80.27139,33.11696,12.07,2.53,4.89,2.0
1758076559.9579,1758076559.97672,0.0,0.0,0.0,-16.38659,-78.839,36.6693,12.82,2.31,4.25,2.0
1758076559.9601,1758076559.98672,0.0,0.0,0.0,-23.20479,-80.38599,37.24226,10.13,1.09,3.86,2.0
1758076559.97589,1758076559.99672,0.0,0.0,0.0,-24.92367,-83.93832,34.89313,10.13,1.09,3.86,2.0
1758076559.99201,1758076560.00672,0.0,0.0,0.0,-24.23611,-84.74047,31.39809,8.65,-0.2,2.77,2.0
1758076559.99242,1758076560.01672,0.0,0.0,0.0,-20.85567,-81.70379,26.64254,8.65,-0.2,2.77,2.0
1758076560.00801,1758076560.02672,0.0,0.0,0.0,-11.97482,-75.68773,18.9649,9.13,-0.99,3.32,2.0
1758076560.00975,1758076560.03672,0.0,0.0,0.0,-4.29718,-70.30193,15.58445,9.13,-0.99,3.32,2.0
1758076560.02493,1758076560.04672,0.0,0.0,0.0,3.26586,-60.61894,12.54778,10.3,-1.33,4.18,2.0
1758076560.04076,1758076560.05672,0.0,0.0,0.0,10.25595,-48.30034,9.62569,10.3,-1.33,4.18,2.0
1758076560.04198,1758076560.06672,0.0,0.0,0.0,18.79302,-31.79916,8.136,12.46,-1.31,4.2,2.0
1758076560.05684,1758076560.07672,0.0,0.0,0.0,22.86102,-20.11082,6.7609,12.79,-0.88,2.58,2.0
1758076560.07314,1758076560.08672,0.0,0.0,0.0,25.55392,-7.62034,5.61499,12.79,-0.88,2.58,2.0
1758076560.07357,1758076560.09672,0.0,0.0,0.0,28.30412,11.28727,4.87014,12.43,-0.3,0.95,2.0
1758076560.08913,1758076560.10672,0.0,0.0,0.0,29.33544,23.0329,4.52637,12.43,-0.3,0.95,2.0
1758076560.09042,1758076560.11672,0.0,0.0,0.0,29.9084,34.43476,4.18259,11.44,0.18,0.61,2.0
1758076560.10494,1758076560.12672,0.0,0.0,0.0,30.59595,45.14908,3.32316,11.44,0.18,0.61,2.0
1758076560.12079,1758076560.13672,0.0,0.0,0.0,31.79916,59.07195,1.94806,10.39,0.47,0.51,2.0
1758076560.12196,1758076560.14672,0.0,0.0,0.0,32.71589,69.38519,1.94806,9.2,0.57,0.33,2.0
1758076560.13688,1758076560.15672,0.0,0.0,0.0,33.80451,76.48987,2.00535,9.2,0.57,0.33,2.0
1758076560.13834,1758076560.16672,0.0,0.0,0.0,34.37747,80.55787,1.83346,8.25,0.4,0.99,2.0
1758076560.1534,1758076560.17672,0.0,0.0,0.0,33.17426,85.14153,3.20856,8.25,0.4,0.99,2.0
1758076560.1691,1758076560.18672,0.0,0.0,0.0,31.85646,84.56858,4.58366,7.77,0.35,1.28,2.0
1758076560.17009,1758076560.19672,0.0,0.0,0.0,29.33544,79.64114,6.24524,7.77,0.35,1.28,2.0
1758076560.18509,1758076560.20672,0.0,0.0,0.0,26.41335,71.73432,8.65166,7.06,0.51,1.76,2.0
1758076560.20116,1758076560.21672,0.0,0.0,0.0,21.02755,59.70221,10.8862,7.38,0.82,1.78,2.0
1758076560.20365,1758076560.22672,0.0,0.0,0.0,16.55848,52.42564,10.8289,7.38,0.82,1.78,2.0
1758076560.21995,1758076560.23672,0.0,0.0,0.0,11.11538,47.72739,7.84952,8.37,1.52,1.29,2.0
1758076560.22118,1758076560.24672,0.0,0.0,0.0,5.72958,46.75336,4.1253,8.37,1.52,1.29,2.0
1758076560.23615,1758076560.25672,0.0,0.0,0.0,-3.09397,45.43555,-3.03668,9.61,2.15,1.28,2.0
1758076560.23793,1758076560.26672,0.0,0.0,0.0,-8.99544,44.17505,-8.70896,9.61,2.15,1.28,2.0
1758076560.25364,1758076560.27672,0.0,0.0,0.0,-14.43854,44.748,-14.32395,9.74,2.37,1.07,2.0
1758076560.26979,1758076560.28672,0.0,0.0,0.0,-21.31403,47.03984,-21.25674,9.74,2.37,1.07,2.0
1758076560.27094,1758076560.29672,0.0,0.0,0.0,-24.5226,42.68536,-23.31938,10.23,2.12,0.87,2.0
1758076560.28598,1758076560.30672,0.0,0.0,0.0,-27.38738,36.49741,-23.26209,9.64,1.64,0.7,2.0
1758076560.28734,1758076560.31672,0.0,0.0,0.0,-29.04896,30.53865,-21.02755,9.64,1.64,0.7,2.0
1758076560.30264,1758076560.32672,0.0,0.0,0.0,-31.56997,22.28806,-15.35527,9.39,1.0,0.36,2.0
1758076560.31796,1758076560.33672,0.0,0.0,0.0,-32.77319,16.50119,-11.45916,9.39,1.0,0.36,2.0
1758076560.32019,1758076560.34672,0.0,0.0,0.0,-33.68992,11.34457,-5.61499,8.92,0.53,0.19,2.0
1758076560.33521,1758076560.35672,0.0,0.0,0.0,-35.3515,14.72501,-0.51566,8.92,0.53,0.19,2.0
1758076560.35123,1758076560.36672,0.0,0.0,0.0,-37.58603,37.92981,0.97403,10.11,0.56,0.4,2.0
1758076560.35209,1758076560.37672,0.0,0.0,0.0,-39.3622,46.46688,2.11994,10.66,0.35,0.45,2.0
1758076560.36716,1758076560.38672,0.0,0.0,0.0,-34.66395,8.88085,4.18259,10.66,0.35,0.45,2.0
1758076560.36816,1758076560.39672,0.0,0.0,0.0,-36.21093,-19.88164,-0.34377,6.57,0.82,1.83,2.0
1758076560.38356,1758076560.40672,0.0,0.0,0.0,-35.92446,-31.2262,-4.23989,6.57,0.82,1.83,2.0
1758076560.40002,1758076560.41672,0.0,0.0,0.0,-34.77854,-35.40879,-7.50575,10.25,1.19,0.0,2.0
1758076560.40095,1758076560.42672,0.0,0.0,0.0,-33.9764,-37.12767,-9.74028,10.25,1.19,0.0,2.0
1758076560.41622,1758076560.43672,0.0,0.0,0.0,-33.68992,-36.89849,-11.00079,10.37,1.02,0.61,2.0
1758076560.41718,1758076560.44672,0.0,0.0,0.0,-31.56997,-41.42485,-12.204,10.39,0.66,2.53,2.0
1758076560.43361,1758076560.45672,0.0,0.0,0.0,-27.2155,-47.09713,-13.98017,10.39,0.66,2.53,2.0
1758076560.4499,1758076560.46672,0.0,0.0,0.0,-20.74107,-58.21251,-17.18874,11.81,-1.27,4.79,2.0
1758076560.45098,1758076560.47672,0.0,0.0,0.0,-9.74028,-71.04677,-24.92367,11.81,-1.27,4.79,2.0
1758076560.46605,1758076560.48672,0.0,0.0,0.0,-1.94806,-72.47916,-27.2155,13.41,-4.06,5.74,2.0
1758076560.4674,1758076560.49672,0.0,0.0,0.0,6.58902,-68.64035,-25.8404,13.41,-4.06,5.74,2.0
1758076560.48321,1758076560.50672,0.0,0.0,0.0,14.49583,-68.75494,-22.00158,12.66,-4.2,4.32,2.0
1758076560.4992,1758076560.51672,0.0,0.0,0.0,23.66316,-76.54716,-13.5218,12.66,-4.2,4.32,2.0
1758076560.50064,1758076560.52672,0.0,0.0,0.0,25.72581,-82.27674,-8.65166,8.74,-2.35,3.1,2.0
1758076560.51533,1758076560.53672,0.0,0.0,0.0,23.89234,-86.80311,-4.58366,7.5,-0.66,2.91,2.0
1758076560.53131,1758076560.54672,0.0,0.0,0.0,18.79302,-89.20953,-2.11994,7.5,-0.66,2.91,2.0
1758076560.53251,1758076560.55672,0.0,0.0,0.0,7.84952,-88.69387,-1.3751,8.58,0.4,3.89,2.0
1758076560.5473,1758076560.56672,0.0,0.0,0.0,-0.17189,-85.48531,-2.40642,8.58,0.4,3.89,2.0
1758076560.54823,1758076560.57672,0.0,0.0,0.0,-7.84952,-79.46925,-3.89611,11.39,1.03,4.49,2.0
1758076560.56336,1758076560.58672,0.0,0.0,0.0,-14.09476,-70.6457,-5.21392,11.39,1.03,4.49,2.0
1758076560.57931,1758076560.59672,0.0,0.0,0.0,-21.25674,-55.6915,-6.07335,13.24,1.27,3.14,2.0
1758076560.58023,1758076560.60672,0.0,0.0,0.0,-24.12152,-46.1804,-6.7609,12.23,0.78,1.58,2.0
1758076560.59529,1758076560.61672,0.0,0.0,0.0,-25.15285,-37.58603,-7.21927,12.23,0.78,1.58,2.0
1758076560.61109,1758076560.62672,0.0,0.0,0.0,-25.43933,-27.73116,-8.25059,10.6,-0.1,1.29,2.0
1758076560.61229,1758076560.63672,0.0,0.0,0.0,-23.37668,-13.86558,-8.136,10.6,-0.1,1.29,2.0
1758076560.62709,1758076560.64672,0.0,0.0,0.0,-21.14215,-6.35983,-7.44845,9.72,-0.88,1.24,2.0
1758076560.62832,1758076560.65672,0.0,0.0,0.0,-18.79302,1.94806,-6.18794,9.72,-0.88,1.24,2.0
1758076560.64341,1758076560.66672,0.0,0.0,0.0,-16.04282,9.85487,-4.64096,9.2,-1.39,1.36,2.0
1758076560.6592,1758076560.67672,0.0,0.0,0.0,-12.204,19.76705,-2.57831,8.62,-1.6,0.93,2.0
1758076560.66031,1758076560.68672,0.0,0.0,0.0,-9.85487,27.33009,-1.60428,8.62,-1.6,0.93,2.0
1758076560.67538,1758076560.69672,0.0,0.0,0.0,-7.84952,34.89313,-0.74485,8.41,-1.66,0.61,2.0
1758076560.69144,1758076560.70672,0.0,0.0,0.0,-5.32851,45.26366,-0.34377,8.41,-1.66,0.61,2.0
1758076560.69231,1758076560.71672,0.0,0.0,0.0,-3.72423,52.13916,-1.20321,8.73,-1.68,0.76,2.0
1758076560.7073,1758076560.72672,0.0,0.0,0.0,-2.23454,57.92604,-3.03668,8.73,-1.68,0.76,2.0
1758076560.70854,1758076560.73672,0.0,0.0,0.0,-0.57296,63.65561,-5.15662,9.11,-1.4,0.81,2.0
1758076560.72345,1758076560.74672,0.0,0.0,0.0,0.85944,69.21331,-8.93814,9.11,-1.4,0.99,2.0
1758076560.73943,1758076560.75672,0.0,0.0,0.0,1.83346,72.19269,-10.94349,9.33,-1.01,0.99,2.0
1758076560.74036,1758076560.76672,0.0,0.0,0.0,2.92208,74.08345,-12.08941,9.3,-0.61,1.45,2.0
1758076560.75516,1758076560.77672,0.0,0.0,0.0,3.83882,71.56243,-11.80293,9.3,-0.61,1.45,2.0
1758076560.77116,1758076560.78672,0.0,0.0,0.0,5.32851,61.93674,-9.74028,8.54,-0.44,1.71,2.0
1758076560.77236,1758076560.79672,0.0,0.0,0.0,6.87549,55.00395,-7.62034,8.54,-0.44,1.71,2.0
1758076560.7875,1758076560.80672,0.0,0.0,0.0,8.93814,49.27437,-5.09932,8.58,-0.56,1.95,2.0
1758076560.78837,1758076560.81672,0.0,0.0,0.0,11.86023,44.8053,-2.11994,8.58,-0.56,1.95,2.0
1758076560.80342,1758076560.82672,0.0,0.0,0.0,17.53251,40.16434,2.40642,8.89,-0.96,1.71,2.0
1758076560.81916,1758076560.83672,0.0,0.0,0.0,22.11617,39.01843,5.27121,9.14,-1.35,1.19,2.0
1758076560.82063,1758076560.84672,0.0,0.0,0.0,26.87172,37.64333,7.84952,9.14,-1.35,1.19,2.0
1758076560.83528,1758076560.85672,0.0,0.0,0.0,31.45539,35.2942,9.85487,9.16,-1.5,0.6,2.0
1758076560.85135,1758076560.86672,0.0,0.0,0.0,38.38818,27.38738,11.17268,9.16,-1.5,0.6,2.0
1758076560.8528,1758076560.87672,0.0,0.0,0.0,42.68536,14.83961,11.45916,8.8,-1.52,0.16,2.0
1758076560.86847,1758076560.88672,0.0,0.0,0.0,44.8053,0.34377,9.39651,8.8,-1.52,0.16,2.0
1758076560.86941,1758076560.89672,0.0,0.0,0.0,45.37826,-6.35983,3.60963,8.49,-1.3,-0.65,2.0
1758076560.88423,1758076560.90672,0.0,0.0,0.0,47.44091,10.08406,3.03668,11.61,-1.08,-0.93,2.0
1758076560.90049,1758076560.91672,0.0,0.0,0.0,47.61279,17.93358,2.00535,11.61,-1.08,-0.93,2.0
1758076560.9014,1758076560.92672,0.0,0.0,0.0,46.98254,23.20479,0.11459,11.5,-0.86,0.41,2.0
1758076560.91651,1758076560.93672,0.0,0.0,0.0,44.46153,18.56383,-4.18259,11.5,-0.86,0.41,2.0
1758076560.91743,1758076560.94672,0.0,0.0,0.0,41.65404,12.2613,-8.88085,10.49,-0.54,1.11,2.0
1758076560.93337,1758076560.95672,0.0,0.0,0.0,40.10705,-16.73037,-12.08941,10.49,-0.54,1.11,2.0
1758076560.94924,1758076560.96672,0.0,0.0,0.0,41.99781,-44.63341,-11.63104,7.71,-0.12,-0.39,2.0
1758076560.95061,1758076560.97672,0.0,0.0,0.0,41.13837,-58.04062,-1.71887,8.98,-0.12,-1.35,2.0
1758076560.96536,1758076560.98672,0.0,0.0,0.0,41.65404,-53.34238,1.71887,8.98,-0.49,-1.35,2.0
1758076560.98155,1758076560.99672,0.0,0.0,0.0,41.94051,-42.39888,2.29183,9.77,-0.48,-1.49,2.0
1758076560.98246,1758076561.00672,0.0,0.0,0.0,42.28429,-39.3622,4.23989,9.77,-0.48,-1.49,2.0
1758076560.99756,1758076561.01672,0.0,0.0,0.0,36.61201,-49.21708,6.13065,8.68,-0.17,1.43,2.0
1758076560.99848,1758076561.02672,0.0,0.0,0.0,28.87707,-65.08801,9.68299,8.68,-0.17,1.43,2.0
1758076561.01359,1758076561.03672,0.0,0.0,0.0,20.85567,-88.86576,19.70975,10.0,0.38,5.35,2.0
1758076561.0296,1758076561.04672,0.0,0.0,0.0,11.91752,-99.40818,34.77854,10.0,0.38,5.35,2.0
1758076561.0309,1758076561.05672,0.0,0.0,0.0,-4.92744,-93.27753,52.42564,15.12,1.38,6.43,2.0
1758076561.04559,1758076561.06672,0.0,0.0,0.0,-15.87093,-88.00632,57.18119,14.97,2.64,4.39,2.0
1758076561.0613,1758076561.07672,0.0,0.0,0.0,-24.29341,-85.77179,56.32175,14.97,2.64,4.39,2.0
1758076561.0633,1758076561.08672,0.0,0.0,0.0,-30.65324,-86.00097,48.41494,10.21,2.48,3.16,2.0
1758076561.07854,1758076561.09672,0.0,0.0,0.0,-34.0337,-84.11021,41.31026,10.21,2.48,3.16,2.0
1758076561.08034,1758076561.10672,0.0,0.0,0.0,-32.48671,-78.7817,32.20023,8.52,1.36,3.11,2.0
1758076561.09554,1758076561.11672,0.0,0.0,0.0,-27.38738,-72.88023,22.74642,8.52,1.36,3.11,2.0
1758076561.11159,1758076561.12672,0.0,0.0,0.0,-15.87093,-62.85347,9.05273,9.06,0.24,3.87,2.0
1758076561.11449,1758076561.13672,0.0,0.0,0.0,-7.39116,-54.48829,2.40642,11.37,-0.66,4.15,2.0
1758076561.1304,1758076561.14672,0.0,0.0,0.0,-0.85944,-42.62806,-3.09397,11.37,-0.66,4.15,2.0
1758076561.13134,1758076561.15672,0.0,0.0,0.0,3.09397,-28.36141,-7.21927,13.69,-1.05,2.62,2.0
1758076561.14635,1758076561.16672,0.0,0.0,0.0,5.61499,-7.33386,-9.62569,13.69,-1.05,2.62,2.0
1758076561.14754,1758076561.17672,0.0,0.0,0.0,5.50039,5.61499,-8.93814,13.27,-0.77,0.9,2.0
1758076561.16336,1758076561.18672,0.0,0.0,0.0,4.58366,17.81899,-7.21927,13.27,-0.77,0.9,2.0
1758076561.17963,1758076561.19672,0.0,0.0,0.0,3.20856,28.59059,-5.4431,11.75,-0.18,-0.03,2.0
1758076561.18057,1758076561.20672,0.0,0.0,0.0,0.85944,43.37291,-3.55234,10.38,0.44,-0.18,2.0
1758076561.19565,1758076561.21672,0.0,0.0,0.0,0.11459,52.19646,-2.23454,10.38,0.44,-0.18,2.0
1758076561.21173,1758076561.22672,0.0,0.0,0.0,-1.14592,61.59297,-1.43239,9.38,0.82,0.16,2.0
1758076561.21258,1758076561.23672,0.0,0.0,0.0,-2.23454,71.79161,0.57296,9.38,0.82,0.16,2.0
1758076561.22767,1758076561.24672,0.0,0.0,0.0,-3.49504,77.92226,1.43239,8.4,1.12,0.6,2.0
1758076561.2286,1758076561.25672,0.0,0.0,0.0,-4.23989,81.64648,2.40642,8.4,1.12,0.6,2.0
1758076561.24368,1758076561.26672,0.0,0.0,0.0,-6.13065,84.85506,2.46372,8.11,1.09,1.0,2.0
1758076561.26071,1758076561.27672,0.0,0.0,0.0,-8.02141,85.42801,2.92208,8.11,1.09,1.0,2.0
1758076561.26159,1758076561.28672,0.0,0.0,0.0,-11.51645,82.67782,3.95341,7.97,1.12,0.56,2.0
1758076561.27647,1758076561.29672,0.0,0.0,0.0,-13.69369,77.12012,3.95341,8.15,0.92,0.94,2.0
1758076561.27765,1758076561.30672,0.0,0.0,0.0,-15.46986,70.6457,4.0107,8.15,0.92,0.94,2.0
1758076561.2935,1758076561.31672,0.0,0.0,0.0,-18.33465,63.65561,3.38045,8.57,0.62,0.88,2.0
1758076561.30941,1758076561.32672,0.0,0.0,0.0,-20.34,52.48294,2.23454,8.57,0.62,0.88,2.0
1758076561.3109,1758076561.33672,0.0,0.0,0.0,-22.86102,47.67009,-0.74485,9.03,0.5,1.09,2.0
1758076561.32573,1758076561.34672,0.0,0.0,0.0,-25.09555,42.91454,-4.23989,9.03,0.5,1.09,2.0
1758076561.34183,1758076561.35672,0.0,0.0,0.0,-29.10626,35.52338,-11.28727,9.07,0.5,1.34,2.0
1758076561.3427,1758076561.36672,0.0,0.0,0.0,-32.14294,33.74722,-15.46986,8.88,0.6,0.92,2.0
1758076561.35754,1758076561.37672,0.0,0.0,0.0,-34.77854,32.71589,-19.13679,8.88,0.6,0.92,2.0
1758076561.35898,1758076561.38672,0.0,0.0,0.0,-37.47144,30.99702,-21.94428,8.84,0.66,0.45,2.0
1758076561.37389,1758076561.39672,0.0,0.0,0.0,-40.45082,25.15285,-24.17882,8.84,0.66,0.45,2.0
1758076561.38981,1758076561.40672,0.0,0.0,0.0,-41.13837,16.21471,-23.26209,8.59,0.66,0.15,2.0
1758076561.39071,1758076561.41672,0.0,0.0,0.0,-40.50812,3.72423,-20.62648,8.59,0.66,0.15,2.0
1758076561.40562,1758076561.42672,0.0,0.0,0.0,-39.19032,-7.21927,-16.73037,8.01,0.3,-0.33,2.0
1758076561.42175,1758076561.43672,0.0,0.0,0.0,-35.69527,-19.19409,-8.65166,8.61,-0.14,-0.65,2.0
1758076561.4227,1758076561.44672,0.0,0.0,0.0,-33.40344,-23.31938,-3.60963,8.61,-0.14,-0.65,2.0
1758076561.43777,1758076561.45672,0.0,0.0,0.0,-32.54401,-20.3973,0.85944,9.96,-0.19,-0.42,2.0
1758076561.43984,1758076561.46672,0.0,0.0,0.0,-30.13758,1.77617,-0.34377,9.96,-0.19,-0.42,2.0
1758076561.45479,1758076561.47672,0.0,0.0,0.0,-28.01764,29.33544,3.09397,13.19,-0.11,0.42,2.0
1758076561.47082,1758076561.48672,0.0,0.0,0.0,-27.61657,-0.17189,-0.22918,13.19,-0.11,0.42,2.0
1758076561.47172,1758076561.49672,0.0,0.0,0.0,-28.36141,-17.93358,-2.34913,8.99,0.32,1.71,2.0
1758076561.48653,1758076561.50672,0.0,0.0,0.0,-30.48136,-25.43933,-8.02141,8.99,0.32,1.71,2.0
1758076561.48783,1758076561.51672,0.0,0.0,0.0,-32.54401,-21.31403,-10.08406,11.38,0.76,0.82,2.0
1758076561.50381,1758076561.52672,0.0,0.0,0.0,-33.40344,-13.5791,-10.02676,12.13,1.13,-0.69,2.0
1758076561.51984,1758076561.53672,0.0,0.0,0.0,-33.11696,-8.99544,-8.25059,12.13,1.13,-0.69,2.0
1758076561.52078,1758076561.54672,0.0,0.0,0.0,-32.88778,-5.84417,-4.58366,10.91,1.02,0.67,2.0
1758076561.53584,1758076561.55672,0.0,0.0,0.0,-31.16891,-6.7609,-1.60428,10.91,1.02,0.67,2.0
1758076561.55194,1758076561.56672,0.0,0.0,0.0,-27.38738,-10.19865,-0.22918,10.17,0.5,0.59,2.0
1758076561.55279,1758076561.57672,0.0,0.0,0.0,-22.00158,-18.79302,-0.45837,10.17,0.5,0.59,2.0
1758076561.56791,1758076561.58672,0.0,0.0,0.0,-13.46451,-44.51882,-6.8182,10.97,-0.84,2.5,2.0
1758076561.56991,1758076561.59672,0.0,0.0,0.0,-8.136,-63.19725,-13.69369,11.31,-2.27,4.33,2.0
1758076561.58454,1758076561.60672,0.0,0.0,0.0,-2.06265,-74.59911,-20.51189,11.31,-2.27,4.33,2.0
1758076561.6008,1758076561.61672,0.0,0.0,0.0,4.52637,-82.90699,-25.89769,11.3,-2.49,3.54,2.0
1758076561.60178,1758076561.62672,0.0,0.0,0.0,11.91752,-92.3035,-29.73651,11.3,-2.49,3.54,2.0
1758076561.61692,1758076561.63672,0.0,0.0,0.0,14.49583,-94.36616,-28.70519,9.57,-1.7,2.92,2.0
1758076561.61887,1758076561.64672,0.0,0.0,0.0,15.35527,-97.28824,-26.24147,9.57,-1.7,2.92,2.0
1758076561.63567,1758076561.65672,0.0,0.0,0.0,13.5218,-99.35089,-22.97561,8.17,-1.01,2.51,2.0
1758076561.65166,1758076561.66672,0.0,0.0,0.0,6.99009,-95.97043,-18.33465,8.46,-0.5,3.69,2.0
1758076561.65283,1758076561.67672,0.0,0.0,0.0,0.68755,-90.87111,-15.24068,8.46,-0.5,3.69,2.0
1758076561.66788,1758076561.68672,0.0,0.0,0.0,-5.78687,-83.47996,-12.43318,10.46,0.23,3.91,2.0
1758076561.67165,1758076561.69672,0.0,0.0,0.0,-24.98096,-67.55173,-10.25595,10.46,0.23,3.91,2.0
1758076561.68663,1758076561.70672,0.0,0.0,0.0,0.45837,-81.18813,-7.39116,12.5,0.93,3.05,2.0
1758076561.68892,1758076561.71672,0.0,0.0,0.0,-20.05352,-44.40423,-6.41713,12.5,0.93,3.05,2.0
1758076561.7056,1758076561.72672,0.0,0.0,0.0,-21.02755,-30.82513,-6.35983,12.82,0.9,1.04,2.0
1758076561.7217,1758076561.73672,0.0,0.0,0.0,-20.74107,-17.18874,-7.62034,12.82,0.9,1.04,2.0
1758076561.7261,1758076561.74672,0.0,0.0,0.0,-19.48057,2.57831,-8.59437,11.91,0.15,0.27,2.0
1758076561.7417,1758076561.75672,0.0,0.0,0.0,-17.30333,14.49583,-8.99544,10.8,-0.69,0.35,2.0
1758076561.74615,1758076561.76672,0.0,0.0,0.0,-14.72501,26.06958,-8.42248,10.8,-0.69,0.35,2.0
1758076561.76168,1758076561.77672,0.0,0.0,0.0,-10.71431,39.76327,-7.04738,9.91,-1.29,0.6,2.0
1758076561.76611,1758076561.78672,0.0,0.0,0.0,-8.47978,47.49821,-5.95876,9.91,-1.29,0.6,2.0
1758076561.78357,1758076561.79672,0.0,0.0,0.0,-6.58902,53.51426,-5.4431,8.97,-1.53,0.71,2.0
1758076561.78523,1758076561.80672,0.0,0.0,0.0,-4.52637,59.18654,-5.15662,8.97,-1.53,0.71,2.0
1758076561.80099,1758076561.81672,0.0,0.0,0.0,-1.03132,68.01009,-4.87014,8.52,-1.56,0.88,2.0
1758076561.80381,1758076561.82672,0.0,0.0,0.0,1.77617,72.30728,-3.95341,8.54,-1.55,1.12,2.0
1758076561.81977,1758076561.83672,0.0,0.0,0.0,4.18259,71.67702,-4.18259,8.54,-1.55,1.12,2.0
1758076561.82068,1758076561.84672,0.0,0.0,0.0,7.04738,69.90086,-4.23989,8.05,-1.41,1.17,2.0
1758076561.83601,1758076561.85672,0.0,0.0,0.0,9.74028,66.69229,-5.15662,8.05,-1.41,1.17,2.0
1758076561.85201,1758076561.86672,0.0,0.0,0.0,11.57375,64.91612,-5.09932,8.37,-1.25,0.96,2.0
1758076561.85295,1758076561.87672,0.0,0.0,0.0,13.80828,63.99939,-4.52637,8.37,-1.25,0.96,2.0
1758076561.86798,1758076561.88672,0.0,0.0,0.0,16.61578,63.77021,-3.32316,8.93,-1.11,0.81,2.0
1758076561.87051,1758076561.89672,0.0,0.0,0.0,21.7724,64.57235,-0.17189,9.8,-1.04,0.9,2.0
1758076561.88586,1758076561.90672,0.0,0.0,0.0,26.06958,65.2026,2.63561,9.8,-1.04,0.9,2.0
1758076561.88772,1758076561.91672,0.0,0.0,0.0,30.59595,64.85883,6.41713,10.44,-1.12,0.97,2.0
1758076561.90501,1758076561.92672,0.0,0.0,0.0,35.12231,65.48907,11.17268,10.44,-1.12,0.97,2.0
1758076561.92105,1758076561.93672,0.0,0.0,0.0,41.71133,67.37984,13.17803,10.82,-1.21,0.75,2.0
1758076561.92197,1758076561.94672,0.0,0.0,0.0,45.72203,67.66632,14.38124,10.82,-1.21,0.75,2.0
1758076561.93786,1758076561.95672,0.0,0.0,0.0,49.04519,66.80688,14.38124,10.39,-1.18,0.36,2.0
1758076561.94064,1758076561.96672,0.0,0.0,0.0,53.11319,62.56699,12.71966,10.39,-1.18,0.36,2.0
1758076561.95604,1758076561.97672,0.0,0.0,0.0,55.92068,55.57691,11.22997,9.73,-1.14,0.42,2.0
1758076561.97199,1758076561.98672,0.0,0.0,0.0,58.49899,43.60209,9.68299,8.46,-1.15,0.27,2.0
1758076561.97387,1758076561.99672,0.0,0.0,0.0,60.27517,28.99167,7.79223,8.46,-1.15,0.27,2.0
1758076561.9898,1758076562.00672,0.0,0.0,0.0,60.61894,9.33921,4.98473,7.82,-0.99,-0.02,2.0
1758076561.99077,1758076562.01672,0.0,0.0,0.0,60.67623,9.33921,2.40642,7.82,-0.99,-0.02,2.0
1758076562.00599,1758076562.02672,0.0,0.0,0.0,61.76485,15.12609,4.92744,9.58,-0.9,-0.26,2.0
1758076562.01015,1758076562.03672,0.0,0.0,0.0,61.30648,22.34536,7.16197,9.58,-0.9,-0.26,2.0
1758076562.02588,1758076562.04672,0.0,0.0,0.0,57.81144,28.30412,9.22462,11.02,-0.87,1.18,2.0
1758076562.02892,1758076562.05672,0.0,0.0,0.0,54.71747,25.26744,7.84952,10.72,-0.63,2.54,2.0
1758076562.04592,1758076562.06672,0.0,0.0,0.0,51.5662,-1.94806,6.13065,10.72,-0.63,2.54,2.0
1758076562.06258,1758076562.07672,0.0,0.0,0.0,53.91533,-41.36755,8.47978,6.73,-0.41,0.7,2.0
1758076562.06541,1758076562.08672,0.0,0.0,0.0,51.85268,-61.24919,15.06879,6.73,-0.41,0.7,2.0
1758076562.08115,1758076562.09672,0.0,0.0,0.0,50.1911,-53.11319,17.47521,10.07,-0.61,-0.43,2.0
1758076562.08203,1758076562.10672,0.0,0.0,0.0,48.75871,-44.9199,18.9649,10.07,-0.61,-0.43,2.0
1758076562.09792,1758076562.11672,0.0,0.0,0.0,46.75336,-40.96649,17.81899,10.32,-0.18,-1.27,2.0
1758076562.10124,1758076562.12672,0.0,0.0,0.0,39.64868,-42.22699,19.13679,10.03,0.83,1.85,2.0
1758076562.11792,1758076562.13672,0.0,0.0,0.0,31.74186,-53.68615,22.40265,10.03,0.83,1.85,2.0
1758076562.11965,1758076562.14672,0.0,0.0,0.0,22.97561,-68.75494,27.78845,11.11,1.74,4.5,2.0
1758076562.13515,1758076562.15672,0.0,0.0,0.0,9.4538,-72.13539,37.29956,11.11,1.74,4.5,2.0
1758076562.15115,1758076562.16672,0.0,0.0,0.0,-0.22918,-68.98412,41.76862,14.07,2.62,4.4,2.0
1758076562.15234,1758076562.17672,0.0,0.0,0.0,-9.28192,-66.69229,43.4875,14.07,2.62,4.4,2.0
1758076562.16793,1758076562.18672,0.0,0.0,0.0,-16.67307,-66.29122,42.1124,12.28,2.78,4.08,2.0
1758076562.16893,1758076562.19672,0.0,0.0,0.0,-23.83505,-67.26525,36.38282,12.28,2.78,4.08,2.0
1758076562.18399,1758076562.20672,0.0,0.0,0.0,-24.86637,-68.58305,30.93972,9.91,2.01,2.85,2.0
1758076562.20121,1758076562.21672,0.0,0.0,0.0,-22.68913,-67.66632,24.63719,9.34,0.75,2.45,2.0
1758076562.20242,1758076562.22672,0.0,0.0,0.0,-18.10547,-63.02536,17.58981,9.34,0.75,2.45,2.0
1758076562.21724,1758076562.23672,0.0,0.0,0.0,-5.95876,-56.32175,9.28192,9.86,-0.45,3.15,2.0
1758076562.21842,1758076562.24672,0.0,0.0,0.0,3.66693,-51.22243,6.18794,9.86,-0.45,3.15,2.0
1758076562.23614,1758076562.25672,0.0,0.0,0.0,13.06344,-42.22699,4.46907,10.63,-1.28,3.99,2.0
1758076562.23798,1758076562.26672,0.0,0.0,0.0,21.88699,-31.79916,4.35448,10.63,-1.28,3.99,2.0
1758076562.25524,1758076562.27672,0.0,0.0,0.0,32.42941,-19.36597,5.15662,11.89,-1.6,3.59,2.0
1758076562.27129,1758076562.28672,0.0,0.0,0.0,37.47144,-10.71431,5.84417,11.57,-1.33,2.26,2.0
1758076562.27485,1758076562.29672,0.0,0.0,0.0,41.42485,-0.40107,7.04738,11.57,-1.33,2.26,2.0
1758076562.29108,1758076562.30672,0.0,0.0,0.0,43.54479,10.54242,8.02141,11.27,-0.65,1.16,2.0
1758076562.29196,1758076562.31672,0.0,0.0,0.0,44.46153,24.4653,8.25059,11.27,-0.65,1.16,2.0
1758076562.30725,1758076562.32672,0.0,0.0,0.0,43.37291,32.14294,7.67763,10.36,0.23,0.61,2.0
1758076562.30817,1758076562.33672,0.0,0.0,0.0,41.94051,39.07573,6.8182,10.36,0.23,0.61,2.0
1758076562.32478,1758076562.34672,0.0,0.0,0.0,40.39353,45.89392,4.87014,9.57,0.88,0.61,2.0
1758076562.341,1758076562.35672,0.0,0.0,0.0,37.87251,59.81679,3.60963,9.2,1.4,0.48,2.0
1758076562.34255,1758076562.36672,0.0,0.0,0.0,36.32552,68.06739,4.46907,9.2,1.4,0.48,2.0
1758076562.3599,1758076562.37672,0.0,0.0,0.0,34.32018,67.66632,4.58366,8.43,1.28,1.23,2.0
1758076562.36108,1758076562.38672,0.0,0.0,0.0,30.65324,69.38519,3.66693,8.43,1.28,1.23,2.0
1758076562.37604,1758076562.39672,0.0,0.0,0.0,28.13223,70.58841,3.83882,8.46,1.24,1.11,2.0
1758076562.39228,1758076562.40672,0.0,0.0,0.0,25.61122,66.74959,4.35448,8.46,1.24,1.11,2.0
1758076562.39403,1758076562.41672,0.0,0.0,0.0,22.91831,61.02001,4.92744,8.16,1.2,0.89,2.0
1758076562.40978,1758076562.42672,0.0,0.0,0.0,18.62113,54.88936,5.27121,8.38,1.2,0.82,2.0
1758076562.41105,1758076562.43672,0.0,0.0,0.0,15.29797,51.22243,4.46907,8.38,1.16,0.82,2.0
1758076562.42603,1758076562.44672,0.0,0.0,0.0,10.8862,49.90463,1.08862,8.92,1.23,0.59,2.0
1758076562.44391,1758076562.45672,0.0,0.0,0.0,6.47442,48.70141,-2.63561,8.92,1.23,0.59,2.0
1758076562.44588,1758076562.46672,0.0,0.0,0.0,-0.17189,46.86795,-9.5684,9.35,1.27,0.78,2.0
1758076562.46114,1758076562.47672,0.0,0.0,0.0,-4.52637,45.03448,-13.5218,9.35,1.27,0.78,2.0
1758076562.46247,1758076562.48672,0.0,0.0,0.0,-8.42248,43.60209,-17.53251,9.55,1.3,0.89,2.0
1758076562.47795,1758076562.49672,0.0,0.0,0.0,-12.14671,42.74266,-19.99623,9.55,1.3,0.89,2.0
1758076562.47906,1758076562.50672,0.0,0.0,0.0,-16.21471,41.13837,-20.34,9.77,1.31,0.5,2.0
1758076562.49535,1758076562.51672,0.0,0.0,0.0,-17.99088,36.21093,-17.58981,9.42,1.13,0.57,2.0
1758076562.51105,1758076562.52672,0.0,0.0,0.0,-19.59516,28.24682,-13.80828,9.42,1.13,0.57,2.0
1758076562.51227,1758076562.53672,0.0,0.0,0.0,-20.97026,19.48057,-9.11003,8.48,0.82,0.14,2.0
1758076562.52726,1758076562.54672,0.0,0.0,0.0,-22.57454,6.58902,-1.3751,8.48,0.82,0.14,2.0
1758076562.52846,1758076562.55672,0.0,0.0,0.0,-24.17882,-1.71887,3.09397,8.03,0.5,-0.05,2.0
1758076562.54516,1758076562.56672,0.0,0.0,0.0,-25.61122,-10.59972,7.79223,8.03,0.5,-0.05,2.0
1758076562.56132,1758076562.57672,0.0,0.0,0.0,-28.24682,-0.68755,8.76626,8.09,0.31,-0.11,2.0
1758076562.56222,1758076562.58672,0.0,0.0,0.0,-30.48136,17.01685,7.10468,10.81,0.55,0.32,2.0
1758076562.57731,1758076562.59672,0.0,0.0,0.0,-33.46074,25.26744,5.84417,10.81,0.55,0.32,2.0
1758076562.58015,1758076562.60672,0.0,0.0,0.0,-33.17426,-5.50039,3.55234,8.72,0.95,1.8,2.0
1758076562.5963,1758076562.61672,0.0,0.0,0.0,-36.6693,-32.88778,-3.60963,8.72,0.95,1.8,2.0
1758076562.59805,1758076562.62672,0.0,0.0,0.0,-39.4195,-39.53409,-9.68299,10.53,1.4,1.42,2.0
1758076562.61639,1758076562.63672,0.0,0.0,0.0,-40.7946,-37.58603,-13.5791,10.53,1.4,1.42,2.0
1758076562.62078,1758076562.64672,0.0,0.0,0.0,-41.13837,-33.05967,-15.58445,12.25,1.6,0.0,2.0
1758076562.63636,1758076562.65672,0.0,0.0,0.0,-40.45082,-29.27814,-15.64175,11.74,1.12,1.32,2.0
1758076562.6381,1758076562.66672,0.0,0.0,0.0,-39.24761,-29.50733,-13.86558,11.74,1.12,1.32,2.0
1758076562.65544,1758076562.67672,0.0,0.0,0.0,-38.44547,-29.50733,-11.63104,10.55,0.39,1.05,2.0
1758076562.6711,1758076562.68672,0.0,0.0,0.0,-36.84119,-31.39809,-9.4538,10.55,0.39,1.05,2.0
1758076562.67234,1758076562.69672,0.0,0.0,0.0,-32.14294,-40.62271,-8.0787,9.91,-0.62,1.27,2.0
1758076562.68739,1758076562.70672,0.0,0.0,0.0,-28.93437,-53.34238,-9.85487,9.91,-0.62,1.27,2.0
1758076562.69104,1758076562.71672,0.0,0.0,0.0,-26.18417,-68.64035,-14.03747,10.41,-1.78,3.16,2.0
1758076562.70643,1758076562.72672,0.0,0.0,0.0,-22.97561,-83.30807,-21.14215,10.41,-1.78,3.16,2.0
1758076562.71161,1758076562.73672,0.0,0.0,0.0,-16.21471,-96.02773,-31.11161,10.85,-2.09,4.33,2.0
1758076562.72744,1758076562.74672,0.0,0.0,0.0,-11.74564,-99.58006,-34.32018,10.97,-1.3,3.14,2.0
1758076562.72945,1758076562.75672,0.0,0.0,0.0,-8.59437,-99.35089,-34.49206,10.97,-1.3,3.14,2.0
1758076562.74545,1758076562.76672,0.0,0.0,0.0,-7.62034,-100.09573,-29.96569,9.67,-0.4,2.66,2.0
1758076562.76144,1758076562.77672,0.0,0.0,0.0,-9.62569,-104.85127,-25.38203,9.67,-0.4,2.66,2.0
1758076562.76308,1758076562.78672,0.0,0.0,0.0,-13.98017,-105.13776,-20.68378,7.98,0.11,2.76,2.0
1758076562.77859,1758076562.79672,0.0,0.0,0.0,-19.76705,-100.66869,-16.272,7.98,0.11,2.76,2.0
1758076562.78011,1758076562.80672,0.0,0.0,0.0,-29.39274,-89.55331,-11.28727,9.3,0.46,3.49,2.0
1758076562.79552,1758076562.81672,0.0,0.0,0.0,-34.89313,-81.70379,-9.22462,11.72,0.91,3.57,2.0
1758076562.81149,1758076562.82672,0.0,0.0,0.0,-39.19032,-71.10406,-8.47978,11.72,0.91,3.57,2.0
1758076562.81263,1758076562.83672,0.0,0.0,0.0,-41.42485,-57.75415,-8.0787,13.56,0.9,1.79,2.0
1758076562.82844,1758076562.84672,0.0,0.0,0.0,-41.76862,-34.72124,-8.42248,13.56,0.9,1.79,2.0
1758076562.83174,1758076562.85672,0.0,0.0,0.0,-41.02378,-20.79837,-8.76626,13.21,0.13,0.16,2.0
1758076562.84747,1758076562.86672,0.0,0.0,0.0,-39.70598,-7.73493,-8.93814,13.21,0.13,0.16,2.0
1758076562.85072,1758076562.87672,0.0,0.0,0.0,-37.64333,4.29718,-8.25059,11.6,-0.81,0.02,2.0
1758076562.86623,1758076562.88672,0.0,0.0,0.0,-34.09099,20.85567,-5.55769,10.67,-1.48,0.22,2.0
1758076562.86822,1758076562.89672,0.0,0.0,0.0,-31.97105,31.51268,-3.09397,10.67,-1.48,0.22,2.0
1758076562.88532,1758076562.90672,0.0,0.0,0.0,-30.48136,41.42485,-1.08862,9.84,-1.56,0.18,2.0
1758076562.90127,1758076562.91672,0.0,0.0,0.0,-29.50733,49.38896,0.11459,9.84,-1.56,0.18,2.0
1758076562.90246,1758076562.92672,0.0,0.0,0.0,-28.59059,59.53032,-0.0573,8.99,-1.17,0.12,2.0
1758076562.91755,1758076562.93672,0.0,0.0,0.0,-28.36141,65.83286,-1.60428,8.99,-1.17,0.12,2.0
1758076562.92122,1758076562.94672,0.0,0.0,0.0,-28.41871,71.73432,-4.0107,8.85,-0.64,0.28,2.0
1758076562.93734,1758076562.95672,0.0,0.0,0.0,-28.476,75.51585,-7.16197,8.85,-0.64,0.28,2.0
1758076562.93994,1758076562.96672,0.0,0.0,0.0,-28.36141,76.60446,-12.14671,8.64,-0.26,0.65,2.0
1758076562.95554,1758076562.97672,0.0,0.0,0.0,-27.84575,73.45319,-14.43854,8.11,-0.16,0.76,2.0
1758076562.9713,1758076562.98672,0.0,0.0,0.0,-27.61657,69.61437,-16.50119,8.11,-0.16,0.76,2.0
1758076562.97526,1758076562.99672,0.0,0.0,0.0,-25.8404,66.635,-17.24603,8.25,-0.39,0.66,2.0
1758076562.99035,1758076563.00672,0.0,0.0,0.0,-22.97561,66.00475,-15.64175,8.25,-0.39,0.66,2.0
1758076562.99252,1758076563.01672,0.0,0.0,0.0,-18.9649,64.22858,-12.54778,8.95,-0.88,0.58,2.0
1758076563.00732,1758076563.02672,0.0,0.0,0.0,-13.80828,62.68159,-7.39116,8.95,-0.88,0.58,2.0
1758076563.00884,1758076563.03672,0.0,0.0,0.0,-5.32851,62.33781,1.3751,9.39,-1.52,0.81,2.0
1758076563.02459,1758076563.04672,0.0,0.0,0.0,0.40107,62.39511,6.8182,10.04,-1.96,0.81,2.0
1758076563.04061,1758076563.05672,0.0,0.0,0.0,6.18794,61.87944,11.00079,10.04,-1.96,0.81,2.0
1758076563.04159,1758076563.06672,0.0,0.0,0.0,11.00079,60.67623,13.23533,10.02,-1.93,0.74,2.0
1758076563.0602,1758076563.07672,0.0,0.0,0.0,17.01685,55.86338,13.69369,10.02,-1.93,0.74,2.0
1758076563.06383,1758076563.08672,0.0,0.0,0.0,20.22541,49.50356,13.12073,9.7,-1.7,0.69,2.0
1758076563.0794,1758076563.09672,0.0,0.0,0.0,22.68913,38.44547,11.28727,9.7,-1.7,0.69,2.0
1758076563.08109,1758076563.10672,0.0,0.0,0.0,24.5226,24.12152,8.30789,8.6,-1.55,0.25,2.0
1758076563.09741,1758076563.11672,0.0,0.0,0.0,26.35606,9.68299,2.00535,8.64,-1.13,-0.43,2.0
1758076563.09996,1758076563.12672,0.0,0.0,0.0,25.38203,19.07949,-1.71887,8.64,-1.13,-0.43,2.0
1758076563.11558,1758076563.13672,0.0,0.0,0.0,27.10091,24.12152,-3.89611,10.74,-0.84,-0.43,2.0
1758076563.13159,1758076563.14672,0.0,0.0,0.0,28.07493,25.89769,-2.92208,10.74,-0.84,-0.43,2.0
1758076563.13365,1758076563.15672,0.0,0.0,0.0,26.01229,33.51803,-4.0107,10.87,-0.66,1.01,2.0
1758076563.14856,1758076563.16672,0.0,0.0,0.0,23.54857,35.2942,-4.69825,10.87,-0.66,1.01,2.0
1758076563.14959,1758076563.17672,0.0,0.0,0.0,22.34536,12.49048,-8.36518,10.6,-0.53,1.34,2.0
1758076563.16517,1758076563.18672,0.0,0.0,0.0,23.31938,-24.12152,-6.18794,10.6,-0.53,1.34,2.0
1758076563.1815,1758076563.19672,0.0,0.0,0.0,23.60586,-52.13916,1.43239,7.41,-0.45,-0.33,2.0
1758076563.18301,1758076563.20672,0.0,0.0,0.0,21.88699,-49.38896,5.55769,10.82,-1.07,-0.61,2.0
1758076563.19764,1758076563.21672,0.0,0.0,0.0,20.62648,-41.08107,6.47442,10.82,-1.07,-0.61,2.0
1758076563.19858,1758076563.22672,0.0,0.0,0.0,20.79837,-29.39274,8.59437,10.86,-0.91,-1.7,2.0
1758076563.21573,1758076563.23672,0.0,0.0,0.0,19.19409,-27.78845,9.11003,10.86,-0.91,-1.7,2.0
1758076563.23167,1758076563.24672,0.0,0.0,0.0,13.40721,-29.27814,8.42248,9.9,-0.48,1.54,2.0
1758076563.2335,1758076563.25672,0.0,0.0,0.0,5.84417,-37.29956,9.68299,9.9,-0.48,1.54,2.0
1758076563.24947,1758076563.26672,0.0,0.0,0.0,-6.53172,-62.5097,16.55848,10.25,0.48,3.21,2.0
1758076563.25126,1758076563.27672,0.0,0.0,0.0,-14.03747,-73.96885,26.69983,11.97,1.43,4.9,2.0
1758076563.26647,1758076563.28672,0.0,0.0,0.0,-21.7724,-73.3959,36.6693,11.97,1.43,4.9,2.0
1758076563.28345,1758076563.29672,0.0,0.0,0.0,-29.62192,-72.36457,43.4875,13.38,2.26,4.64,2.0
1758076563.28562,1758076563.30672,0.0,0.0,0.0,-38.84654,-72.70835,46.40959,13.38,2.26,4.64,2.0
1758076563.3007,1758076563.31672,0.0,0.0,0.0,-42.39888,-73.62508,43.94586,10.18,2.19,3.4,2.0
1758076563.30164,1758076563.32672,0.0,0.0,0.0,-43.31561,-73.79697,39.4195,10.18,2.19,3.4,2.0
1758076563.3167,1758076563.33672,0.0,0.0,0.0,-41.94051,-72.53646,32.48671,8.62,1.26,2.7,2.0
1758076563.33252,1758076563.34672,0.0,0.0,0.0,-34.77854,-67.37984,20.79837,8.68,0.29,2.81,2.0
1758076563.33477,1758076563.35672,0.0,0.0,0.0,-27.73116,-61.02001,13.69369,8.68,0.29,2.81,2.0
1758076563.34946,1758076563.36672,0.0,0.0,0.0,-20.11082,-52.36834,7.79223,10.28,-0.59,3.65,2.0
1758076563.35101,1758076563.37672,0.0,0.0,0.0,-12.2613,-42.62806,2.29183,10.28,-0.59,3.65,2.0
1758076563.36571,1758076563.38672,0.0,0.0,0.0,-2.7502,-26.47065,0.17189,12.24,-1.24,3.62,2.0
1758076563.38273,1758076563.39672,0.0,0.0,0.0,1.66158,-15.41257,-0.85944,12.24,-1.24,3.62,2.0
1758076563.38392,1758076563.40672,0.0,0.0,0.0,5.09932,-4.35448,-1.14592,12.75,-1.4,2.14,2.0
1758076563.39848,1758076563.41672,0.0,0.0,0.0,8.0787,12.08941,-0.17189,12.75,-1.4,2.14,2.0
1758076563.39969,1758076563.42672,0.0,0.0,0.0,9.05273,22.68913,0.74485,11.93,-1.02,0.86,2.0
1758076563.41451,1758076563.43672,0.0,0.0,0.0,9.39651,31.85646,1.3751,10.81,-0.33,0.5,2.0
1758076563.4305,1758076563.44672,0.0,0.0,0.0,9.11003,40.68,1.3751,10.81,-0.33,0.5,2.0
1758076563.43171,1758076563.45672,0.0,0.0,0.0,8.93814,52.65482,1.14592,9.93,0.28,0.45,2.0
1758076563.44675,1758076563.46672,0.0,0.0,0.0,8.65166,60.33246,1.03132,9.93,0.28,0.45,2.0
1758076563.46253,1758076563.47672,0.0,0.0,0.0,8.93814,69.90086,0.68755,9.06,0.74,0.39,2.0
1758076563.46325,1758076563.48672,0.0,0.0,0.0,9.68299,75.22936,2.11994,9.06,0.74,0.39,2.0
1758076563.47878,1758076563.49672,0.0,0.0,0.0,8.36518,76.94823,2.00535,8.51,0.89,1.12,2.0
1758076563.47997,1758076563.50672,0.0,0.0,0.0,6.8182,78.89629,2.34913,8.23,0.89,1.14,2.0
1758076563.49458,1758076563.51672,0.0,0.0,0.0,4.98473,78.43793,2.29183,8.23,0.89,1.14,2.0
1758076563.51086,1758076563.52672,0.0,0.0,0.0,2.92208,73.10942,2.63561,8.02,0.88,1.48,2.0
1758076563.51199,1758076563.53672,0.0,0.0,0.0,-0.68755,60.27517,3.38045,8.02,0.88,1.48,2.0
1758076563.52679,1758076563.54672,0.0,0.0,0.0,-3.72423,51.39432,2.7502,8.0,0.87,1.37,2.0
1758076563.54255,1758076563.55672,0.0,0.0,0.0,-6.99009,44.11775,1.60428,8.0,0.87,1.37,2.0
1758076563.54311,1758076563.56672,0.0,0.0,0.0,-10.94349,38.50277,-0.57296,8.96,1.13,1.49,2.0
1758076563.55933,1758076563.57672,0.0,0.0,0.0,-17.81899,31.11161,-6.47442,9.54,1.37,1.56,2.0
1758076563.56132,1758076563.58672,0.0,0.0,0.0,-22.51724,27.96034,-11.17268,9.54,1.37,1.56,2.0
1758076563.57765,1758076563.59672,0.0,0.0,0.0,-27.38738,26.52795,-16.55848,9.85,1.5,1.35,2.0
1758076563.57857,1758076563.60672,0.0,0.0,0.0,-33.34615,27.84575,-23.26209,9.85,1.5,1.35,2.0
1758076563.59453,1758076563.61672,0.0,0.0,0.0,-36.55471,31.11161,-26.18417,10.21,1.43,0.87,2.0
1758076563.61057,1758076563.62672,0.0,0.0,0.0,-39.19032,28.64789,-26.75713,10.21,1.43,0.87,2.0
1758076563.612,1758076563.63672,0.0,0.0,0.0,-40.7373,20.22541,-25.21014,9.59,1.26,0.67,2.0
1758076563.62656,1758076563.64672,0.0,0.0,0.0,-41.71133,6.7609,-21.08485,9.59,1.26,0.67,2.0
1758076563.63109,1758076563.65672,0.0,0.0,0.0,-41.48215,-0.45837,-16.84496,8.83,0.77,0.33,2.0
1758076563.64589,1758076563.66672,0.0,0.0,0.0,-40.96649,-6.87549,-12.2613,8.75,0.23,-0.44,2.0
1758076563.6511,1758076563.67672,0.0,0.0,0.0,-40.39353,-11.91752,-6.8182,8.75,0.23,-0.44,2.0
1758076563.66661,1758076563.68672,0.0,0.0,0.0,-38.90384,2.57831,-1.3751,9.61,-0.05,-0.04,2.0
1758076563.68341,1758076563.69672,0.0,0.0,0.0,-39.70598,27.04361,-0.74485,9.61,-0.05,-0.04,2.0
1758076563.68479,1758076563.70672,0.0,0.0,0.0,-39.82057,33.9764,2.46372,12.03,-0.16,0.29,2.0
1758076563.70089,1758076563.71672,0.0,0.0,0.0,-39.07573,-3.89611,-0.34377,12.03,-0.16,0.29,2.0
1758076563.7037,1758076563.72672,0.0,0.0,0.0,-38.1017,-28.01764,-3.60963,7.43,0.3,1.77,2.0
1758076563.71889,1758076563.73672,0.0,0.0,0.0,-38.27358,-32.6013,-8.0787,10.46,0.8,0.33,2.0
1758076563.72094,1758076563.74672,0.0,0.0,0.0,-38.38818,-30.13758,-10.8289,10.46,0.8,0.33,2.0
1758076563.73595,1758076563.75672,0.0,0.0,0.0,-37.52874,-25.09555,-11.97482,11.12,1.01,-0.39,2.0
1758076563.74032,1758076563.76672,0.0,0.0,0.0,-36.95578,-20.45459,-11.17268,11.12,1.01,-0.39,2.0
1758076563.75593,1758076563.77672,0.0,0.0,0.0,-35.75257,-19.76705,-9.05273,10.13,0.84,0.79,2.0
1758076563.75792,1758076563.78672,0.0,0.0,0.0,-35.00772,-17.93358,-6.53172,10.13,0.84,0.79,2.0
1758076563.77493,1758076563.79672,0.0,0.0,0.0,-33.86181,-15.58445,-1.83346,9.35,0.41,0.24,2.0
1758076563.79098,1758076563.80672,0.0,0.0,0.0,-30.02299,-19.13679,-0.22918,9.0,-0.46,0.61,2.0
1758076563.79192,1758076563.81672,0.0,0.0,0.0,-25.72581,-31.56997,-1.03132,9.0,-0.46,0.61,2.0
1758076563.80748,1758076563.82672,0.0,0.0,0.0,-21.48592,-54.77477,-5.95876,9.19,-1.45,3.11,2.0
1758076563.80878,1758076563.83672,0.0,0.0,0.0,-15.58445,-85.31342,-18.79302,9.19,-1.45,3.11,2.0
1758076563.82396,1758076563.84672,0.0,0.0,0.0,-10.25595,-92.70457,-28.13223,11.0,-2.18,4.62,2.0
1758076563.83997,1758076563.85672,0.0,0.0,0.0,-3.66693,-96.31421,-34.95043,11.0,-2.18,4.62,2.0
1758076563.84085,1758076563.86672,0.0,0.0,0.0,1.43239,-97.86119,-38.56006,12.08,-2.33,3.99,2.0
1758076563.85571,1758076563.87672,0.0,0.0,0.0,5.90147,-97.7466,-36.15364,12.08,-2.33,3.26,2.0
1758076563.85692,1758076563.88672,0.0,0.0,0.0,6.99009,-101.06976,-31.51268,10.39,-1.57,3.26,2.0
1758076563.87228,1758076563.89672,0.0,0.0,0.0,5.15662,-102.44486,-25.7831,8.25,-0.82,2.41,2.0
1758076563.88804,1758076563.90672,0.0,0.0,0.0,0.68755,-98.83522,-19.82434,8.25,-0.82,2.41,2.0
1758076563.88896,1758076563.91672,0.0,0.0,0.0,-9.85487,-88.86576,-11.34457,9.35,-0.04,2.99,2.0
1758076563.90402,1758076563.92672,0.0,0.0,0.0,-17.24603,-79.29736,-6.53172,9.35,-0.04,2.99,2.0
1758076563.92003,1758076563.93672,0.0,0.0,0.0,10.02676,-61.70755,-2.86479,12.02,0.91,3.26,2.0
1758076563.92098,1758076563.94672,0.0,0.0,0.0,-20.97026,-56.37905,-0.40107,12.02,0.91,3.26,2.0
1758076563.93591,1758076563.95672,0.0,0.0,0.0,-33.34615,-37.29956,0.0573,13.98,1.45,2.19,2.0
1758076563.93736,1758076563.96672,0.0,0.0,0.0,-34.37747,-22.51724,-1.08862,13.73,0.97,0.67,2.0
1758076563.95416,1758076563.97672,0.0,0.0,0.0,-34.09099,-9.4538,-3.26586,13.73,0.97,0.67,2.0
1758076563.96998,1758076563.98672,0.0,0.0,0.0,-32.83048,2.46372,-4.98473,11.88,-0.13,0.13,2.0
1758076563.97133,1758076563.99672,0.0,0.0,0.0,-30.65324,19.48057,-6.35983,11.88,-0.13,0.13,2.0
1758076563.98593,1758076564.00672,0.0,0.0,0.0,-29.22085,29.50733,-6.13065,10.5,-1.16,0.22,2.0
1758076563.98726,1758076564.01672,0.0,0.0,0.0,-27.84575,38.73195,-5.78687,10.5,-1.16,0.22,2.0
1758076564.00337,1758076564.02672,0.0,0.0,0.0,-26.64254,45.83662,-4.87014,9.54,-1.75,0.44,2.0
1758076564.02069,1758076564.03672,0.0,0.0,0.0,-25.55392,55.23313,-4.35448,8.73,-1.72,0.62,2.0
1758076564.0216,1758076564.04672,0.0,0.0,0.0,-24.12152,61.42108,-3.95341,8.73,-1.72,0.62,2.0
1758076564.03791,1758076564.05672,0.0,0.0,0.0,-22.63183,66.80688,-3.38045,8.53,-1.39,0.8,2.0
1758076564.03883,1758076564.06672,0.0,0.0,0.0,-19.88164,68.52576,-2.6929,8.53,-1.39,0.8,2.0
1758076564.05404,1758076564.07672,0.0,0.0,0.0,-17.93358,65.54638,-3.03668,7.89,-0.98,0.95,2.0
1758076564.07004,1758076564.08672,0.0,0.0,0.0,-16.21471,62.68159,-3.72423,7.89,-0.98,0.95,2.0
1758076564.07106,1758076564.09672,0.0,0.0,0.0,-13.86558,62.5097,-3.60963,8.04,-0.69,0.64,2.0
1758076564.08596,1758076564.10672,0.0,0.0,0.0,-9.85487,62.68159,-3.26586,8.8,-0.71,0.28,2.0
1758076564.08705,1758076564.11672,0.0,0.0,0.0,-5.55769,64.28587,-1.60428,8.8,-0.71,0.28,2.0
1758076564.10311,1758076564.12672,0.0,0.0,0.0,-0.85944,65.08801,0.74485,9.44,-1.0,0.31,2.0
1758076564.11913,1758076564.13672,0.0,0.0,0.0,4.18259,64.62964,3.49504,9.44,-1.0,0.31,2.0
1758076564.12007,1758076564.14672,0.0,0.0,0.0,11.11538,64.80153,8.136,9.86,-1.32,0.52,2.0
1758076564.13518,1758076564.15672,0.0,0.0,0.0,15.46986,66.17663,10.54242,9.86,-1.32,0.52,2.0
1758076564.15114,1758076564.16672,0.0,0.0,0.0,19.13679,67.43713,11.86023,10.42,-1.55,0.51,2.0
1758076564.15233,1758076564.17672,0.0,0.0,0.0,21.94428,67.26525,11.63104,10.42,-1.55,0.51,2.0
1758076564.16722,1758076564.18672,0.0,0.0,0.0,24.92367,64.45775,9.33921,10.17,-1.61,0.53,2.0
1758076564.16809,1758076564.19672,0.0,0.0,0.0,26.64254,61.76485,7.10468,9.89,-1.43,0.68,2.0
1758076564.1832,1758076564.20672,0.0,0.0,0.0,27.78845,56.60823,4.29718,9.89,-1.43,0.68,2.0
1758076564.19892,1758076564.21672,0.0,0.0,0.0,28.87707,47.15443,-0.11459,9.09,-1.18,0.23,2.0
1758076564.20001,1758076564.22672,0.0,0.0,0.0,29.67921,27.96034,-3.38045,9.09,-1.18,0.23,2.0
1758076564.21519,1758076564.23672,0.0,0.0,0.0,30.53865,20.68378,-8.36518,8.3,-0.84,-0.32,2.0
1758076564.23122,1758076564.24672,0.0,0.0,0.0,31.11161,30.36677,-8.30789,8.3,-0.84,-0.32,2.0
1758076564.23209,1758076564.25672,0.0,0.0,0.0,32.88778,37.92981,-7.44845,10.62,-0.54,-0.67,2.0
1758076564.24732,1758076564.26672,0.0,0.0,0.0,33.46074,45.26366,-6.47442,10.67,-0.6,0.72,2.0
1758076564.2481,1758076564.27672,0.0,0.0,0.0,33.46074,47.09713,-5.78687,10.67,-0.6,0.72,2.0
1758076564.26516,1758076564.28672,0.0,0.0,0.0,34.77854,43.14373,-7.10468,9.9,-0.65,2.19,2.0
1758076564.2812,1758076564.29672,0.0,0.0,0.0,31.91375,-25.61122,-6.24524,9.9,-0.65,2.19,2.0
1758076564.28246,1758076564.30672,0.0,0.0,0.0,34.49206,-61.93674,-0.45837,5.65,-0.75,0.65,2.0
1758076564.29717,1758076564.31672,0.0,0.0,0.0,36.38282,-63.59832,6.87549,5.65,-0.75,0.65,2.0
1758076564.29814,1758076564.32672,0.0,0.0,0.0,35.92446,-56.78012,10.25595,10.41,-1.12,-0.62,2.0
1758076564.3152,1758076564.33672,0.0,0.0,0.0,35.75257,-45.03448,13.06344,10.27,-0.71,-1.13,2.0
1758076564.33119,1758076564.34672,0.0,0.0,0.0,34.0337,-42.51347,11.91752,10.27,-0.71,-1.13,2.0
1758076564.33214,1758076564.35672,0.0,0.0,0.0,30.65324,-42.28429,11.57375,9.48,-0.14,1.36,2.0
1758076564.34711,1758076564.36672,0.0,0.0,0.0,24.12152,-43.88857,9.62569,9.48,-0.14,1.36,2.0
1758076564.34845,1758076564.37672,0.0,0.0,0.0,11.11538,-61.87944,10.08406,9.71,0.7,2.51,2.0
1758076564.363,1758076564.38672,0.0,0.0,0.0,2.40642,-77.4066,15.69904,9.71,0.7,2.51,2.0
1758076564.38002,1758076564.39672,0.0,0.0,0.0,-5.95876,-83.59455,24.57989,11.48,1.64,4.41,2.0
1758076564.38128,1758076564.40672,0.0,0.0,0.0,-14.49583,-82.21945,32.42941,11.48,1.64,4.41,2.0
1758076564.39627,1758076564.41672,0.0,0.0,0.0,-25.55392,-81.93298,40.85189,13.96,2.29,4.56,2.0
1758076564.39743,1758076564.42672,0.0,0.0,0.0,-30.65324,-80.55787,42.39888,11.8,2.04,3.69,2.0
1758076564.41297,1758076564.43672,0.0,0.0,0.0,-33.46074,-79.98491,41.42485,11.8,2.04,3.69,2.0
1758076564.42931,1758076564.44672,0.0,0.0,0.0,-33.34615,-80.1568,33.86181,9.64,0.99,2.87,2.0
1758076564.43022,1758076564.45672,0.0,0.0,0.0,-29.9084,-77.75038,27.50197,9.64,0.99,2.87,2.0
1758076564.44534,1758076564.46672,0.0,0.0,0.0,-24.75178,-72.70835,20.11082,8.82,0.01,2.66,2.0
1758076564.46131,1758076564.47672,0.0,0.0,0.0,-17.81899,-66.40582,13.5218,8.82,0.01,2.66,2.0
1758076564.46225,1758076564.48672,0.0,0.0,0.0,-5.4431,-56.32175,5.4431,9.07,-0.75,3.49,2.0
1758076564.47731,1758076564.49672,0.0,0.0,0.0,2.63561,-47.03984,1.83346,10.47,-1.2,3.83,2.0
1758076564.48016,1758076564.50672,0.0,0.0,0.0,9.74028,-35.92446,-0.40107,10.47,-1.2,3.83,2.0
1758076564.49499,1758076564.51672,0.0,0.0,0.0,14.78231,-25.15285,-2.06265,12.23,-1.21,2.97,2.0
1758076564.51129,1758076564.52672,0.0,0.0,0.0,18.90761,-7.96411,-1.94806,12.23,-1.21,2.97,2.0
1758076564.5125,1758076564.53672,0.0,0.0,0.0,19.76705,4.64096,-1.03132,12.83,-0.64,1.64,2.0
1758076564.52706,1758076564.54672,0.0,0.0,0.0,19.36597,15.12609,0.51566,12.83,-0.64,1.64,2.0
1758076564.52836,1758076564.55672,0.0,0.0,0.0,17.93358,24.23611,1.71887,12.26,0.22,0.78,2.0
1758076564.54334,1758076564.56672,0.0,0.0,0.0,14.61043,38.21629,2.57831,11.16,0.97,0.51,2.0
1758076564.55915,1758076564.57672,0.0,0.0,0.0,11.97482,47.89928,2.23454,11.16,0.97,0.51,2.0
1758076564.56026,1758076564.58672,0.0,0.0,0.0,9.39651,56.32175,1.14592,10.08,1.33,0.63,2.0
1758076564.5754,1758076564.59672,0.0,0.0,0.0,6.70361,65.43179,-0.22918,10.08,1.33,0.63,2.0
1758076564.59132,1758076564.60672,0.0,0.0,0.0,3.55234,77.06283,-1.03132,9.38,1.66,0.8,2.0
1758076564.59229,1758076564.61672,0.0,0.0,0.0,0.80214,78.03686,-2.23454,9.38,1.66,0.8,2.0
1758076564.60707,1758076564.62672,0.0,0.0,0.0,-2.40642,77.75038,-3.38045,8.53,1.42,1.57,2.0
1758076564.60829,1758076564.63672,0.0,0.0,0.0,-4.52637,76.26069,-2.6929,8.53,1.42,1.57,2.0
1758076564.62344,1758076564.64672,0.0,0.0,0.0,-7.84952,71.44785,-1.14592,8.37,1.24,1.25,2.0
1758076564.64005,1758076564.65672,0.0,0.0,0.0,-9.96947,63.94209,0.45837,8.27,0.98,1.63,2.0
1758076564.64147,1758076564.66672,0.0,0.0,0.0,-12.14671,55.40502,1.3178,8.27,0.98,1.63,2.0
1758076564.65639,1758076564.67672,0.0,0.0,0.0,-15.06879,46.1804,1.48969,8.65,0.85,1.52,2.0
1758076564.65807,1758076564.68672,0.0,0.0,0.0,-17.18874,40.10705,-0.34377,8.65,0.85,1.52,2.0
1758076564.67542,1758076564.69672,0.0,0.0,0.0,-19.76705,35.2369,-3.20856,9.21,0.86,1.45,2.0
1758076564.69113,1758076564.70672,0.0,0.0,0.0,-23.20479,32.08564,-8.0787,9.21,0.86,1.45,2.0
1758076564.69233,1758076564.71672,0.0,0.0,0.0,-28.99167,29.67921,-15.58445,9.34,0.97,1.22,2.0
1758076564.70733,1758076564.72672,0.0,0.0,0.0,-32.37212,30.13758,-19.36597,9.44,1.01,0.83,2.0
1758076564.70835,1758076564.73672,0.0,0.0,0.0,-35.69527,31.62727,-22.40265,9.44,1.01,0.83,2.0
1758076564.72339,1758076564.74672,0.0,0.0,0.0,-38.56006,32.08564,-23.49127,9.34,0.9,0.51,2.0
1758076564.7399,1758076564.75672,0.0,0.0,0.0,-41.88322,30.59595,-23.60586,9.34,0.9,0.51,2.0
1758076564.74139,1758076564.76672,0.0,0.0,0.0,-43.02913,26.69983,-22.05888,9.15,0.69,0.38,2.0
1758076564.75641,1758076564.77672,0.0,0.0,0.0,-43.31561,19.88164,-19.59516,9.15,0.69,0.38,2.0
1758076564.75736,1758076564.78672,0.0,0.0,0.0,-42.28429,11.57375,-15.98552,8.65,0.44,0.13,2.0
1758076564.77421,1758076564.79672,0.0,0.0,0.0,-39.13302,-0.68755,-9.33921,8.28,-0.01,-0.25,2.0
1758076564.79019,1758076564.80672,0.0,0.0,0.0,-36.49741,-8.65166,-4.35448,8.28,-0.01,-0.25,2.0
1758076564.79181,1758076564.81672,0.0,0.0,0.0,-33.74722,-17.47521,0.11459,8.23,-0.34,-0.18,2.0
1758076564.80654,1758076564.82672,0.0,0.0,0.0,-31.45539,-23.0902,4.92744,8.23,-0.34,-0.18,2.0
1758076564.80815,1758076564.83672,0.0,0.0,0.0,-29.62192,5.27121,5.50039,10.22,-0.43,0.46,2.0
1758076564.82553,1758076564.84672,0.0,0.0,0.0,-26.81443,29.67921,7.33386,10.22,-0.43,0.46,2.0
1758076564.84133,1758076564.85672,0.0,0.0,0.0,-22.34536,1.94806,7.67763,11.27,-0.39,1.08,2.0
1758076564.84282,1758076564.86672,0.0,0.0,0.0,-25.7831,-30.25217,2.06265,11.27,-0.39,1.08,2.0
1758076564.85725,1758076564.87672,0.0,0.0,0.0,-27.73116,-32.6013,-2.57831,7.85,0.03,2.49,2.0
1758076564.85893,1758076564.88672,0.0,0.0,0.0,-28.07493,-28.07493,-4.18259,11.12,0.64,0.02,2.0
1758076564.87345,1758076564.89672,0.0,0.0,0.0,-28.24682,-23.0329,-5.21392,11.12,0.64,0.02,2.0
1758076564.88956,1758076564.90672,0.0,0.0,0.0,-27.96034,-16.04282,-4.18259,11.07,0.89,0.84,2.0
1758076564.8904,1758076564.91672,0.0,0.0,0.0,-26.81443,-12.60507,-1.77617,11.07,0.89,0.84,2.0
1758076564.90548,1758076564.92672,0.0,0.0,0.0,-25.09555,-10.08406,1.03132,11.0,0.68,1.27,2.0
1758076564.92155,1758076564.93672,0.0,0.0,0.0,-22.34536,-6.7609,4.1253,11.0,0.68,1.27,2.0
1758076564.92317,1758076564.94672,0.0,0.0,0.0,-16.55848,-4.18259,6.35983,11.16,0.21,1.37,2.0
1758076564.94015,1758076564.95672,0.0,0.0,0.0,-11.17268,-9.05273,5.50039,11.68,-0.73,2.21,2.0
1758076564.94106,1758076564.96672,0.0,0.0,0.0,-6.18794,-18.56383,2.00535,11.68,-0.73,2.21,2.0
1758076564.9565,1758076564.97672,0.0,0.0,0.0,-2.11994,-28.07493,-3.38045,11.77,-1.42,3.32,2.0
1758076564.95744,1758076564.98672,0.0,0.0,0.0,2.46372,-35.3515,-11.28727,11.77,-1.42,3.32,2.0
1758076564.97358,1758076564.99672,0.0,0.0,0.0,5.90147,-38.73195,-14.61043,11.48,-1.3,2.5,2.0
1758076564.99051,1758076565.00672,0.0,0.0,0.0,9.05273,-42.57077,-15.98552,11.48,-1.3,2.5,2.0
1758076564.99165,1758076565.01672,0.0,0.0,0.0,11.57375,-48.24305,-15.24068,9.98,-0.91,2.16,2.0
1758076565.00655,1758076565.02672,0.0,0.0,0.0,14.32395,-57.81144,-10.19865,8.43,-0.3,1.85,2.0
1758076565.00776,1758076565.03672,0.0,0.0,0.0,14.9542,-63.13995,-5.50039,8.43,-0.3,1.85,2.0
1758076565.02359,1758076565.04672,0.0,0.0,0.0,14.72501,-68.06739,-1.03132,7.84,0.24,1.89,2.0
1758076565.03959,1758076565.05672,0.0,0.0,0.0,12.54778,-72.65105,3.32316,7.84,0.24,1.89,2.0
1758076565.04052,1758076565.06672,0.0,0.0,0.0,7.50575,-77.63579,3.55234,7.91,0.52,2.92,2.0
1758076565.0556,1758076565.07672,0.0,0.0,0.0,3.60963,-77.17742,1.66158,7.91,0.52,2.92,2.0
1758076565.0716,1758076565.08672,0.0,0.0,0.0,-0.51566,-74.42722,-2.46372,9.44,0.48,4.01,2.0
1758076565.07365,1758076565.09672,0.0,0.0,0.0,-6.07335,-68.01009,-10.48513,9.44,0.48,4.01,2.0
1758076565.0894,1758076565.10672,0.0,0.0,0.0,-8.65166,-63.8275,-15.46986,10.89,0.34,4.0,2.0
1758076565.0911,1758076565.11672,0.0,0.0,0.0,-11.57375,-55.7488,-19.53786,11.73,-0.12,2.73,2.0
1758076565.10737,1758076565.12672,0.0,0.0,0.0,-12.2613,-44.57612,-21.88699,11.73,-0.12,2.73,2.0
1758076565.10834,1758076565.13672,0.0,0.0,0.0,-9.96947,-27.33009,-22.00158,12.42,-1.0,1.44,2.0
1758076565.12361,1758076565.14672,0.0,0.0,0.0,-6.41713,-16.272,-20.34,12.42,-1.0,1.44,2.0
1758076565.14062,1758076565.15672,0.0,0.0,0.0,-1.48969,-5.09932,-17.53251,12.01,-1.93,1.35,2.0
1758076565.14159,1758076565.16672,0.0,0.0,0.0,4.35448,5.4431,-13.69369,12.01,-1.93,1.35,2.0
1758076565.15664,1758076565.17672,0.0,0.0,0.0,14.43854,19.59516,-6.41713,11.45,-2.61,1.57,2.0
1758076565.15759,1758076565.18672,0.0,0.0,0.0,20.85567,28.99167,-1.43239,10.82,-2.82,1.59,2.0
1758076565.17436,1758076565.19672,0.0,0.0,0.0,27.04361,36.6693,2.40642,10.82,-2.82,1.59,2.0
1758076565.19069,1758076565.20672,0.0,0.0,0.0,32.77319,43.65939,5.50039,10.03,-2.44,1.24,2.0
